TimeStamp,empatica.acc.x,empatica.acc.y,empatica.acc.z,empatica.hr,empatica.bvp,empatica.eda,empatica.temp
2021-06-21 16:14:13.765625000,-49.5,-5.0,41.0,97.2921875,7.35,0.0461970625,32.57
2021-06-21 16:14:13.773437500,-49.25,-5.0,41.0,97.24078125,14.075,0.04623709375,32.57
2021-06-21 16:14:13.781250000,-49.0,-5.0,41.0,97.189375,20.8,0.046277125,32.57
2021-06-21 16:14:13.789062500,-49.25,-5.0,41.0,97.13796875,26.25,0.04631715625,32.57
2021-06-21 16:14:13.796875000,-49.5,-5.0,41.0,97.0865625,31.7,0.0463571875,32.57
2021-06-21 16:14:13.804687500,-49.75,-5.0,41.0,97.03515625,35.725,0.04639721875,32.57
2021-06-21 16:14:13.812500000,-50.0,-5.0,41.0,96.98375,39.75,0.04643725,32.57
2021-06-21 16:14:13.820312500,-50.0,-5.0,41.0,96.93234375,42.379999999999995,0.04647728125,32.57
2021-06-21 16:14:13.828125000,-50.0,-5.0,41.0,96.8809375,45.01,0.0465173125,32.57
2021-06-21 16:14:13.835937500,-50.0,-5.0,41.0,96.82953125,46.285,0.04655734375,32.57
2021-06-21 16:14:13.843750000,-50.0,-5.0,41.0,96.778125,47.56,0.046597374999999996,32.57
2021-06-21 16:14:13.851562500,-49.75,-5.0,41.25,96.72671875,47.565,0.04663740625,32.57
2021-06-21 16:14:13.859375000,-49.5,-5.0,41.5,96.6753125,47.57,0.0466774375,32.57
2021-06-21 16:14:13.867187500,-49.25,-5.0,41.75,96.62390625,46.415,0.04671746875,32.57
2021-06-21 16:14:13.875000000,-49.0,-5.0,42.0,96.5725,45.26,0.0467575,32.57
2021-06-21 16:14:13.882812500,-49.25,-5.0,41.75,96.52109375,43.129999999999995,0.04679753125,32.57
2021-06-21 16:14:13.890625000,-49.5,-5.0,41.5,96.4696875,41.0,0.0468375625,32.57
2021-06-21 16:14:13.898437500,-49.75,-5.0,41.25,96.41828125,38.245000000000005,0.04687759375,32.57
2021-06-21 16:14:13.906250000,-50.0,-5.0,41.0,96.366875,35.49,0.046917625000000004,32.57
2021-06-21 16:14:13.914062500,-50.0,-5.0,41.0,96.31546875,32.53,0.04695765625,32.57
2021-06-21 16:14:13.921875000,-50.0,-5.0,41.0,96.2640625,29.57,0.0469976875,32.57
2021-06-21 16:14:13.929687500,-50.0,-5.0,41.0,96.21265625,26.84,0.04703771875,32.57
2021-06-21 16:14:13.937500000,-50.0,-5.0,41.0,96.16125,24.11,0.04707775,32.57
2021-06-21 16:14:13.945312500,-50.0,-4.75,41.0,96.10984375,21.924999999999997,0.047117781250000004,32.57
2021-06-21 16:14:13.953125000,-50.0,-4.5,41.0,96.0584375,19.74,0.0471578125,32.57
2021-06-21 16:14:13.960937500,-50.0,-4.25,41.0,96.00703125,18.24,0.04719784375,32.57
2021-06-21 16:14:13.968750000,-50.0,-4.0,41.0,95.955625,16.74,0.047237875,32.57
2021-06-21 16:14:13.976562500,-50.0,-4.25,41.0,95.90421875,15.809999999999999,0.04727790625,32.57
2021-06-21 16:14:13.984375000,-50.0,-4.5,41.0,95.8528125,14.88,0.047317937500000004,32.57
2021-06-21 16:14:13.992187500,-50.0,-4.75,41.0,95.80140625,14.255,0.04735796875,32.57
2021-06-21 16:14:14.000000000,-50.0,-5.0,41.0,95.75,13.63,0.047398,32.57
2021-06-21 16:14:14.007812500,-50.0,-5.0,41.0,95.676953125,12.985,0.04735796875,32.564375
2021-06-21 16:14:14.015625000,-50.0,-5.0,41.0,95.60390625,12.34,0.047317937500000004,32.55875
2021-06-21 16:14:14.023437500,-50.0,-5.0,41.0,95.530859375,11.455,0.04727790625,32.553125
2021-06-21 16:14:14.031250000,-50.0,-5.0,41.0,95.4578125,10.57,0.047237875,32.5475
2021-06-21 16:14:14.039062500,-50.0,-5.0,41.0,95.384765625,9.41,0.04719784375,32.541875
2021-06-21 16:14:14.046875000,-50.0,-5.0,41.0,95.31171875,8.25,0.0471578125,32.53625
2021-06-21 16:14:14.054687500,-50.0,-5.0,41.0,95.238671875,6.945,0.047117781250000004,32.530625
2021-06-21 16:14:14.062500000,-50.0,-5.0,41.0,95.165625,5.64,0.04707775,32.525
2021-06-21 16:14:14.070312500,-50.0,-5.0,41.0,95.092578125,4.39,0.04703771875,32.519375000000004
2021-06-21 16:14:14.078125000,-50.0,-5.0,41.0,95.01953125,3.14,0.0469976875,32.51375
2021-06-21 16:14:14.085937500,-50.0,-5.0,41.0,94.946484375,2.055,0.04695765625,32.508125
2021-06-21 16:14:14.093750000,-50.0,-5.0,41.0,94.8734375,0.97,0.046917625000000004,32.5025
2021-06-21 16:14:14.101562500,-50.0,-5.0,41.0,94.800390625,-0.015000000000000013,0.04687759375,32.496875
2021-06-21 16:14:14.109375000,-50.0,-5.0,41.0,94.72734375,-1.0,0.0468375625,32.49125
2021-06-21 16:14:14.117187500,-50.0,-5.0,41.0,94.654296875,-2.13,0.04679753125,32.485625
2021-06-21 16:14:14.125000000,-50.0,-5.0,41.0,94.58125,-3.26,0.0467575,32.480000000000004
2021-06-21 16:14:14.132812500,-49.75,-4.75,41.0,94.508203125,-4.875,0.04671746875,32.474375
2021-06-21 16:14:14.140625000,-49.5,-4.5,41.0,94.43515625,-6.49,0.0466774375,32.46875
2021-06-21 16:14:14.148437500,-49.25,-4.25,41.0,94.362109375,-8.9,0.04663740625,32.463125
2021-06-21 16:14:14.156250000,-49.0,-4.0,41.0,94.2890625,-11.31,0.046597374999999996,32.4575
2021-06-21 16:14:14.164062500,-49.25,-4.25,41.0,94.216015625,-14.670000000000002,0.04655734375,32.451875
2021-06-21 16:14:14.171875000,-49.5,-4.5,41.0,94.14296875,-18.03,0.0465173125,32.44625
2021-06-21 16:14:14.179687500,-49.75,-4.75,41.0,94.069921875,-22.255000000000003,0.04647728125,32.440625
2021-06-21 16:14:14.187500000,-50.0,-5.0,41.0,93.996875,-26.48,0.04643725,32.435
2021-06-21 16:14:14.195312500,-50.0,-5.0,41.0,93.923828125,-31.225,0.04639721875,32.429375
2021-06-21 16:14:14.203125000,-50.0,-5.0,41.0,93.85078125,-35.97,0.0463571875,32.42375
2021-06-21 16:14:14.210937500,-50.0,-5.0,41.0,93.777734375,-40.635,0.04631715625,32.418125
2021-06-21 16:14:14.218750000,-50.0,-5.0,41.0,93.7046875,-45.3,0.046277125,32.4125
2021-06-21 16:14:14.226562500,-49.75,-4.75,41.0,93.631640625,-49.105,0.04623709375,32.406875
2021-06-21 16:14:14.234375000,-49.5,-4.5,41.0,93.55859375,-52.91,0.0461970625,32.40125
2021-06-21 16:14:14.242187500,-49.25,-4.25,41.0,93.485546875,-55.075,0.04615703125,32.395625
2021-06-21 16:14:14.250000000,-49.0,-4.0,41.0,93.4125,-57.24,0.046117,32.39
2021-06-21 16:14:14.257812500,-49.25,-4.0,41.0,93.339453125,-57.17,0.0461970625,32.39
2021-06-21 16:14:14.265625000,-49.5,-4.0,41.0,93.26640625,-57.1,0.046277124999999995,32.39
2021-06-21 16:14:14.273437500,-49.75,-4.0,41.0,93.193359375,-54.575,0.0463571875,32.39
2021-06-21 16:14:14.281250000,-50.0,-4.0,41.0,93.1203125,-52.05,0.04643725,32.39
2021-06-21 16:14:14.289062500,-50.0,-4.0,41.0,93.047265625,-47.34,0.0465173125,32.39
2021-06-21 16:14:14.296875000,-50.0,-4.0,41.0,92.97421875,-42.63,0.046597374999999996,32.39
2021-06-21 16:14:14.304687500,-50.0,-4.0,41.0,92.901171875,-36.400000000000006,0.0466774375,32.39
2021-06-21 16:14:14.312500000,-50.0,-4.0,41.0,92.828125,-30.17,0.0467575,32.39
2021-06-21 16:14:14.320312500,-49.75,-4.25,41.0,92.755078125,-23.3,0.0468375625,32.39
2021-06-21 16:14:14.328125000,-49.5,-4.5,41.0,92.68203125000001,-16.43,0.046917625,32.39
2021-06-21 16:14:14.335937500,-49.25,-4.75,41.0,92.608984375,-9.745000000000001,0.046997687499999996,32.39
2021-06-21 16:14:14.343750000,-49.0,-5.0,41.0,92.5359375,-3.06,0.04707775,32.39
2021-06-21 16:14:14.351562500,-49.25,-5.0,41.0,92.462890625,2.8649999999999998,0.0471578125,32.39
2021-06-21 16:14:14.359375000,-49.5,-5.0,41.0,92.38984375,8.79,0.047237875,32.39
2021-06-21 16:14:14.367187500,-49.75,-5.0,41.0,92.31679687500001,13.65,0.0473179375,32.39
2021-06-21 16:14:14.375000000,-50.0,-5.0,41.0,92.24375,18.51,0.047397999999999996,32.39
2021-06-21 16:14:14.382812500,-50.0,-4.75,41.0,92.170703125,22.205,0.0474780625,32.39
2021-06-21 16:14:14.390625000,-50.0,-4.5,41.0,92.09765625,25.9,0.047558125,32.39
2021-06-21 16:14:14.398437500,-50.0,-4.25,41.0,92.024609375,28.384999999999998,0.0476381875,32.39
2021-06-21 16:14:14.406250000,-50.0,-4.0,41.0,91.95156250000001,30.87,0.04771825,32.39
2021-06-21 16:14:14.414062500,-49.75,-4.25,41.25,91.878515625,32.085,0.0477983125,32.39
2021-06-21 16:14:14.421875000,-49.5,-4.5,41.5,91.80546875,33.3,0.047878375,32.39
2021-06-21 16:14:14.429687500,-49.25,-4.75,41.75,91.732421875,33.209999999999994,0.0479584375,32.39
2021-06-21 16:14:14.437500000,-49.0,-5.0,42.0,91.659375,33.12,0.0480385,32.39
2021-06-21 16:14:14.445312500,-49.25,-5.0,41.75,91.58632812500001,31.805,0.0481185625,32.39
2021-06-21 16:14:14.453125000,-49.5,-5.0,41.5,91.51328125,30.49,0.048198625,32.39
2021-06-21 16:14:14.460937500,-49.75,-5.0,41.25,91.440234375,28.21,0.0482786875,32.39
2021-06-21 16:14:14.468750000,-50.0,-5.0,41.0,91.3671875,25.93,0.04835875,32.39
2021-06-21 16:14:14.476562500,-50.0,-5.0,41.0,91.294140625,23.13,0.0484388125,32.39
2021-06-21 16:14:14.484375000,-50.0,-5.0,41.0,91.22109375000001,20.33,0.048518875,32.39
2021-06-21 16:14:14.492187500,-50.0,-5.0,41.0,91.148046875,17.515,0.0485989375,32.39
2021-06-21 16:14:14.500000000,-50.0,-5.0,41.0,91.075,14.7,0.048679,32.39
2021-06-21 16:14:14.507812500,-50.0,-4.75,41.0,91.001953125,12.29,0.04855890625,32.39
2021-06-21 16:14:14.515625000,-50.0,-4.5,41.0,90.92890625,9.88,0.0484388125,32.39
2021-06-21 16:14:14.523437500,-50.0,-4.25,41.0,90.85585937500001,8.045,0.04831871875,32.39
2021-06-21 16:14:14.531250000,-50.0,-4.0,41.0,90.7828125,6.21,0.048198625,32.39
2021-06-21 16:14:14.539062500,-49.75,-4.0,41.0,90.709765625,4.885,0.04807853125,32.39
2021-06-21 16:14:14.546875000,-49.5,-4.0,41.0,90.63671875,3.56,0.0479584375,32.39
2021-06-21 16:14:14.554687500,-49.25,-4.0,41.0,90.563671875,2.48,0.04783834375,32.39
2021-06-21 16:14:14.562500000,-49.0,-4.0,41.0,90.49062500000001,1.4,0.047718250000000004,32.39
2021-06-21 16:14:14.570312500,-49.25,-4.0,41.0,90.417578125,0.31999999999999984,0.04759815625,32.39
2021-06-21 16:14:14.578125000,-49.5,-4.0,41.0,90.34453125,-0.76,0.0474780625,32.39
2021-06-21 16:14:14.585937500,-49.75,-4.0,41.0,90.271484375,-2.01,0.04735796875,32.39
2021-06-21 16:14:14.593750000,-50.0,-4.0,41.0,90.1984375,-3.26,0.047237875,32.39
2021-06-21 16:14:14.601562500,-50.0,-4.0,41.0,90.12539062500001,-4.665,0.04711778125,32.39
2021-06-21 16:14:14.609375000,-50.0,-4.0,41.0,90.05234375,-6.07,0.0469976875,32.39
2021-06-21 16:14:14.617187500,-50.0,-4.0,41.0,89.979296875,-7.49,0.04687759375,32.39
2021-06-21 16:14:14.625000000,-50.0,-4.0,41.0,89.90625,-8.91,0.0467575,32.39
2021-06-21 16:14:14.632812500,-50.0,-4.25,41.0,89.833203125,-10.18,0.04663740625,32.39
2021-06-21 16:14:14.640625000,-50.0,-4.5,41.0,89.76015625000001,-11.45,0.0465173125,32.39
2021-06-21 16:14:14.648437500,-50.0,-4.75,41.0,89.687109375,-12.504999999999999,0.046397218750000004,32.39
2021-06-21 16:14:14.656250000,-50.0,-5.0,41.0,89.6140625,-13.56,0.046277125,32.39
2021-06-21 16:14:14.664062500,-50.0,-5.0,41.0,89.541015625,-14.495000000000001,0.04615703125,32.39
2021-06-21 16:14:14.671875000,-50.0,-5.0,41.0,89.46796875000001,-15.43,0.0460369375,32.39
2021-06-21 16:14:14.679687500,-50.0,-5.0,41.0,89.39492187500001,-16.48,0.04591684375,32.39
2021-06-21 16:14:14.687500000,-50.0,-5.0,41.0,89.321875,-17.53,0.04579675,32.39
2021-06-21 16:14:14.695312500,-50.0,-5.0,41.0,89.248828125,-19.015,0.04567665625,32.39
2021-06-21 16:14:14.703125000,-50.0,-5.0,41.0,89.17578125,-20.5,0.0455565625,32.39
2021-06-21 16:14:14.710937500,-50.0,-5.0,41.0,89.10273437500001,-22.725,0.04543646875,32.39
2021-06-21 16:14:14.718750000,-50.0,-5.0,41.0,89.02968750000001,-24.95,0.045316375,32.39
2021-06-21 16:14:14.726562500,-49.75,-5.0,41.0,88.956640625,-28.08,0.04519628125,32.39
2021-06-21 16:14:14.734375000,-49.5,-5.0,41.0,88.88359375,-31.21,0.0450761875,32.39
2021-06-21 16:14:14.742187500,-49.25,-5.0,41.0,88.810546875,-35.195,0.04495609375,32.39
2021-06-21 16:14:14.750000000,-49.0,-5.0,41.0,88.73750000000001,-39.18,0.044836,32.39
2021-06-21 16:14:14.757812500,-49.25,-5.0,41.0,88.66445312500001,-43.695,0.0449160625,32.39
2021-06-21 16:14:14.765625000,-49.5,-5.0,41.0,88.59140625,-48.21,0.044996125,32.39
2021-06-21 16:14:14.773437500,-49.75,-5.0,41.0,88.518359375,-52.615,0.0450761875,32.39
2021-06-21 16:14:14.781250000,-50.0,-5.0,41.0,88.4453125,-57.02,0.04515625,32.39
2021-06-21 16:14:14.789062500,-50.0,-5.0,41.0,88.37226562500001,-60.485,0.0452363125,32.39
2021-06-21 16:14:14.796875000,-50.0,-5.0,41.0,88.29921875000001,-63.95,0.045316375,32.39
2021-06-21 16:14:14.804687500,-50.0,-5.0,41.0,88.226171875,-65.595,0.045396437500000004,32.39
2021-06-21 16:14:14.812500000,-50.0,-5.0,41.0,88.153125,-67.24,0.0454765,32.39
2021-06-21 16:14:14.820312500,-49.75,-4.75,41.0,88.080078125,-66.445,0.0455565625,32.39
2021-06-21 16:14:14.828125000,-49.5,-4.5,41.0,88.00703125000001,-65.65,0.045636625,32.39
2021-06-21 16:14:14.835937500,-49.25,-4.25,41.0,87.93398437500001,-62.230000000000004,0.0457166875,32.39
2021-06-21 16:14:14.843750000,-49.0,-4.0,41.0,87.8609375,-58.81,0.045796750000000004,32.39
2021-06-21 16:14:14.851562500,-49.25,-4.0,41.0,87.787890625,-53.135000000000005,0.0458768125,32.39
2021-06-21 16:14:14.859375000,-49.5,-4.0,41.0,87.71484375,-47.46,0.045956875,32.39
2021-06-21 16:14:14.867187500,-49.75,-4.0,41.0,87.64179687500001,-40.335,0.0460369375,32.39
2021-06-21 16:14:14.875000000,-50.0,-4.0,41.0,87.56875000000001,-33.21,0.046117000000000005,32.39
2021-06-21 16:14:14.882812500,-49.75,-4.0,41.25,87.495703125,-25.615000000000002,0.046197062500000004,32.39
2021-06-21 16:14:14.890625000,-49.5,-4.0,41.5,87.42265625,-18.02,0.046277125,32.39
2021-06-21 16:14:14.898437500,-49.25,-4.0,41.75,87.349609375,-10.84,0.0463571875,32.39
2021-06-21 16:14:14.906250000,-49.0,-4.0,42.0,87.27656250000001,-3.66,0.04643725,32.39
2021-06-21 16:14:14.914062500,-49.0,-4.25,41.75,87.20351562500001,2.54,0.046517312500000005,32.39
2021-06-21 16:14:14.921875000,-49.0,-4.5,41.5,87.13046875,8.74,0.046597375,32.39
2021-06-21 16:14:14.929687500,-49.0,-4.75,41.25,87.057421875,13.7,0.0466774375,32.39
2021-06-21 16:14:14.937500000,-49.0,-5.0,41.0,86.984375,18.66,0.0467575,32.39
2021-06-21 16:14:14.945312500,-49.25,-5.0,41.0,86.91132812500001,22.345,0.0468375625,32.39
2021-06-21 16:14:14.953125000,-49.5,-5.0,41.0,86.83828125000001,26.03,0.046917625000000004,32.39
2021-06-21 16:14:14.960937500,-49.75,-5.0,41.0,86.765234375,28.465,0.0469976875,32.39
2021-06-21 16:14:14.968750000,-50.0,-5.0,41.0,86.6921875,30.9,0.04707775,32.39
2021-06-21 16:14:14.976562500,-50.0,-4.75,41.0,86.619140625,32.075,0.0471578125,32.39
2021-06-21 16:14:14.984375000,-50.0,-4.5,41.0,86.54609375000001,33.25,0.047237875000000006,32.39
2021-06-21 16:14:14.992187500,-50.0,-4.25,41.0,86.47304687500001,33.16,0.047317937500000004,32.39
2021-06-21 16:14:15.000000000,-50.0,-4.0,41.0,86.4,33.07,0.047398,32.39
2021-06-21 16:14:15.007812500,-50.0,-4.25,41.0,86.42164062500001,31.775,0.047317937500000004,32.389375
2021-06-21 16:14:15.015625000,-50.0,-4.5,41.0,86.44328125000001,30.48,0.047237875000000006,32.38875
2021-06-21 16:14:15.023437500,-50.0,-4.75,41.0,86.464921875,28.215,0.0471578125,32.388125
2021-06-21 16:14:15.031250000,-50.0,-5.0,41.0,86.4865625,25.95,0.04707775,32.3875
2021-06-21 16:14:15.039062500,-50.0,-4.75,41.0,86.50820312500001,23.134999999999998,0.0469976875,32.386875
2021-06-21 16:14:15.046875000,-50.0,-4.5,41.0,86.52984375000001,20.32,0.046917625000000004,32.38625
2021-06-21 16:14:15.054687500,-50.0,-4.25,41.0,86.551484375,17.46,0.0468375625,32.385625
2021-06-21 16:14:15.062500000,-50.0,-4.0,41.0,86.573125,14.6,0.0467575,32.385
2021-06-21 16:14:15.070312500,-50.0,-4.0,41.0,86.59476562500001,12.135,0.0466774375,32.384375
2021-06-21 16:14:15.078125000,-50.0,-4.0,41.0,86.61640625000001,9.67,0.046597375,32.38375
2021-06-21 16:14:15.085937500,-50.0,-4.0,41.0,86.638046875,7.845,0.046517312500000005,32.383125
2021-06-21 16:14:15.093750000,-50.0,-4.0,41.0,86.6596875,6.02,0.04643725,32.3825
2021-06-21 16:14:15.101562500,-50.0,-4.0,41.0,86.68132812500001,4.82,0.0463571875,32.381875
2021-06-21 16:14:15.109375000,-50.0,-4.0,41.0,86.70296875000001,3.62,0.046277125,32.38125
2021-06-21 16:14:15.117187500,-50.0,-4.0,41.0,86.724609375,2.8,0.046197062500000004,32.380625
2021-06-21 16:14:15.125000000,-50.0,-4.0,41.0,86.74625,1.98,0.046117000000000005,32.379999999999995
2021-06-21 16:14:15.132812500,-50.0,-4.0,41.0,86.767890625,1.2149999999999999,0.0460369375,32.379374999999996
2021-06-21 16:14:15.140625000,-50.0,-4.0,41.0,86.78953125000001,0.45,0.045956875,32.37875
2021-06-21 16:14:15.148437500,-50.0,-4.0,41.0,86.811171875,-0.5149999999999999,0.0458768125,32.378125
2021-06-21 16:14:15.156250000,-50.0,-4.0,41.0,86.8328125,-1.48,0.045796750000000004,32.3775
2021-06-21 16:14:15.164062500,-50.0,-4.25,41.0,86.854453125,-2.73,0.0457166875,32.376875
2021-06-21 16:14:15.171875000,-50.0,-4.5,41.0,86.87609375000001,-3.98,0.045636625,32.37625
2021-06-21 16:14:15.179687500,-50.0,-4.75,41.0,86.897734375,-5.42,0.0455565625,32.375625
2021-06-21 16:14:15.187500000,-50.0,-5.0,41.0,86.919375,-6.86,0.0454765,32.375
2021-06-21 16:14:15.195312500,-49.75,-4.75,41.0,86.941015625,-8.28,0.0453964375,32.374375
2021-06-21 16:14:15.203125000,-49.5,-4.5,41.0,86.96265625000001,-9.7,0.045316375,32.37375
2021-06-21 16:14:15.210937500,-49.25,-4.25,41.0,86.984296875,-10.925,0.0452363125,32.373124999999995
2021-06-21 16:14:15.218750000,-49.0,-4.0,41.0,87.0059375,-12.15,0.04515625,32.372499999999995
2021-06-21 16:14:15.226562500,-49.25,-4.0,41.0,87.027578125,-13.145,0.0450761875,32.371874999999996
2021-06-21 16:14:15.234375000,-49.5,-4.0,41.0,87.04921875000001,-14.14,0.044996125,32.371249999999996
2021-06-21 16:14:15.242187500,-49.75,-4.0,41.0,87.070859375,-15.065000000000001,0.0449160625,32.370625
2021-06-21 16:14:15.250000000,-50.0,-4.0,41.0,87.0925,-15.99,0.044836,32.37
2021-06-21 16:14:15.257812500,-50.0,-4.25,41.0,87.114140625,-17.185,0.04495609375,32.37
2021-06-21 16:14:15.265625000,-50.0,-4.5,41.0,87.13578125000001,-18.38,0.0450761875,32.37
2021-06-21 16:14:15.273437500,-50.0,-4.75,41.0,87.15742187500001,-20.265,0.04519628125,32.37
2021-06-21 16:14:15.281250000,-50.0,-5.0,41.0,87.1790625,-22.15,0.045316375,32.37
2021-06-21 16:14:15.289062500,-50.0,-4.75,41.0,87.200703125,-25.085,0.04543646875,32.37
2021-06-21 16:14:15.296875000,-50.0,-4.5,41.0,87.22234375000001,-28.02,0.0455565625,32.37
2021-06-21 16:14:15.304687500,-50.0,-4.25,41.0,87.24398437500001,-32.135,0.04567665625,32.37
2021-06-21 16:14:15.312500000,-50.0,-4.0,41.0,87.265625,-36.25,0.04579675,32.37
2021-06-21 16:14:15.320312500,-50.0,-4.0,41.0,87.287265625,-41.285,0.04591684375,32.37
2021-06-21 16:14:15.328125000,-50.0,-4.0,41.0,87.30890625,-46.32,0.0460369375,32.37
2021-06-21 16:14:15.335937500,-50.0,-4.0,41.0,87.33054687500001,-51.56,0.04615703125,32.37
2021-06-21 16:14:15.343750000,-50.0,-4.0,41.0,87.3521875,-56.8,0.046277125,32.37
2021-06-21 16:14:15.351562500,-50.0,-4.25,41.25,87.373828125,-61.21,0.046397218750000004,32.37
2021-06-21 16:14:15.359375000,-50.0,-4.5,41.5,87.39546875,-65.62,0.0465173125,32.37
2021-06-21 16:14:15.367187500,-50.0,-4.75,41.75,87.41710937500001,-68.09,0.04663740625,32.37
2021-06-21 16:14:15.375000000,-50.0,-5.0,42.0,87.43875,-70.56,0.0467575,32.37
2021-06-21 16:14:15.382812500,-50.0,-4.75,41.75,87.460390625,-70.265,0.04687759375,32.37
2021-06-21 16:14:15.390625000,-50.0,-4.5,41.5,87.48203125,-69.97,0.0469976875,32.37
2021-06-21 16:14:15.398437500,-50.0,-4.25,41.25,87.50367187500001,-66.67,0.04711778125,32.37
2021-06-21 16:14:15.406250000,-50.0,-4.0,41.0,87.5253125,-63.37,0.047237875,32.37
2021-06-21 16:14:15.414062500,-50.0,-4.0,41.0,87.546953125,-57.51,0.04735796875,32.37
2021-06-21 16:14:15.421875000,-50.0,-4.0,41.0,87.56859375,-51.65,0.0474780625,32.37
2021-06-21 16:14:15.429687500,-50.0,-4.0,41.0,87.59023437500001,-44.16,0.04759815625,32.37
2021-06-21 16:14:15.437500000,-50.0,-4.0,41.0,87.611875,-36.67,0.047718250000000004,32.37
2021-06-21 16:14:15.445312500,-50.0,-4.0,41.0,87.633515625,-28.675,0.04783834375,32.37
2021-06-21 16:14:15.453125000,-50.0,-4.0,41.0,87.65515625,-20.68,0.0479584375,32.37
2021-06-21 16:14:15.460937500,-50.0,-4.0,41.0,87.67679687500001,-13.11,0.04807853125,32.37
2021-06-21 16:14:15.468750000,-50.0,-4.0,41.0,87.6984375,-5.54,0.048198625,32.37
2021-06-21 16:14:15.476562500,-50.0,-4.0,41.0,87.720078125,1.045,0.04831871875,32.37
2021-06-21 16:14:15.484375000,-50.0,-4.0,41.0,87.74171875,7.63,0.0484388125,32.37
2021-06-21 16:14:15.492187500,-50.0,-4.0,41.0,87.76335937500001,13.055,0.04855890625,32.37
2021-06-21 16:14:15.500000000,-50.0,-4.0,41.0,87.785,18.48,0.048679,32.37
2021-06-21 16:14:15.507812500,-49.75,-4.0,41.0,87.806640625,22.759999999999998,0.04855890625,32.37
2021-06-21 16:14:15.515625000,-49.5,-4.0,41.0,87.82828125,27.04,0.0484388125,32.37
2021-06-21 16:14:15.523437500,-49.25,-4.0,41.0,87.849921875,30.24,0.04831871875,32.37
2021-06-21 16:14:15.531250000,-49.0,-4.0,41.0,87.87156250000001,33.44,0.048198625,32.37
2021-06-21 16:14:15.539062500,-49.25,-4.0,41.0,87.893203125,35.535,0.04807853125,32.37
2021-06-21 16:14:15.546875000,-49.5,-4.0,41.0,87.91484375,37.63,0.0479584375,32.37
2021-06-21 16:14:15.554687500,-49.75,-4.0,41.0,87.936484375,38.545,0.04783834375,32.37
2021-06-21 16:14:15.562500000,-50.0,-4.0,41.0,87.95812500000001,39.46,0.047718250000000004,32.37
2021-06-21 16:14:15.570312500,-50.0,-4.0,41.0,87.979765625,39.17,0.04759815625,32.37
2021-06-21 16:14:15.578125000,-50.0,-4.0,41.0,88.00140625,38.88,0.0474780625,32.37
2021-06-21 16:14:15.585937500,-50.0,-4.0,41.0,88.023046875,37.55,0.04735796875,32.37
2021-06-21 16:14:15.593750000,-50.0,-4.0,41.0,88.04468750000001,36.22,0.047237875,32.37
2021-06-21 16:14:15.601562500,-50.0,-4.0,41.0,88.066328125,34.215,0.04711778125,32.37
2021-06-21 16:14:15.609375000,-50.0,-4.0,41.0,88.08796875,32.21,0.0469976875,32.37
2021-06-21 16:14:15.617187500,-50.0,-4.0,41.0,88.109609375,29.98,0.04687759375,32.37
2021-06-21 16:14:15.625000000,-50.0,-4.0,41.0,88.13125000000001,27.75,0.0467575,32.37
2021-06-21 16:14:15.632812500,-50.0,-4.25,41.0,88.152890625,25.72,0.04663740625,32.37
2021-06-21 16:14:15.640625000,-50.0,-4.5,41.0,88.17453125,23.69,0.0465173125,32.37
2021-06-21 16:14:15.648437500,-50.0,-4.75,41.0,88.196171875,22.11,0.046397218750000004,32.37
2021-06-21 16:14:15.656250000,-50.0,-5.0,41.0,88.21781250000001,20.53,0.046277125,32.37
2021-06-21 16:14:15.664062500,-50.0,-5.0,41.0,88.239453125,19.41,0.04615703125,32.37
2021-06-21 16:14:15.671875000,-50.0,-5.0,41.0,88.26109375,18.29,0.0460369375,32.37
2021-06-21 16:14:15.679687500,-50.0,-5.0,41.0,88.282734375,17.43,0.04591684375,32.37
2021-06-21 16:14:15.687500000,-50.0,-5.0,41.0,88.30437500000001,16.57,0.04579675,32.37
2021-06-21 16:14:15.695312500,-50.0,-4.75,41.0,88.326015625,15.715,0.04567665625,32.37
2021-06-21 16:14:15.703125000,-50.0,-4.5,41.0,88.34765625,14.86,0.0455565625,32.37
2021-06-21 16:14:15.710937500,-50.0,-4.25,41.0,88.369296875,13.8,0.04543646875,32.37
2021-06-21 16:14:15.718750000,-50.0,-4.0,41.0,88.3909375,12.74,0.045316375,32.37
2021-06-21 16:14:15.726562500,-50.0,-4.0,41.0,88.412578125,11.425,0.04519628125,32.37
2021-06-21 16:14:15.734375000,-50.0,-4.0,41.0,88.43421875,10.11,0.0450761875,32.37
2021-06-21 16:14:15.742187500,-50.0,-4.0,41.0,88.455859375,8.64,0.04495609375,32.37
2021-06-21 16:14:15.750000000,-50.0,-4.0,41.0,88.4775,7.17,0.044836,32.37
2021-06-21 16:14:15.757812500,-50.0,-4.0,41.0,88.499140625,5.725,0.04495609375,32.37
2021-06-21 16:14:15.765625000,-50.0,-4.0,41.0,88.52078125,4.28,0.0450761875,32.37
2021-06-21 16:14:15.773437500,-50.0,-4.0,41.0,88.542421875,2.995,0.04519628125,32.37
2021-06-21 16:14:15.781250000,-50.0,-4.0,41.0,88.5640625,1.71,0.045316375,32.37
2021-06-21 16:14:15.789062500,-50.0,-4.0,41.0,88.58570312500001,0.5899999999999999,0.04543646875,32.37
2021-06-21 16:14:15.796875000,-50.0,-4.0,41.0,88.60734375,-0.53,0.0455565625,32.37
2021-06-21 16:14:15.804687500,-50.0,-4.0,41.0,88.628984375,-1.66,0.04567665625,32.37
2021-06-21 16:14:15.812500000,-50.0,-4.0,41.0,88.650625,-2.79,0.04579675,32.37
2021-06-21 16:14:15.820312500,-50.0,-4.0,41.0,88.67226562500001,-4.234999999999999,0.04591684375,32.37
2021-06-21 16:14:15.828125000,-50.0,-4.0,41.0,88.69390625,-5.68,0.0460369375,32.37
2021-06-21 16:14:15.835937500,-50.0,-4.0,41.0,88.715546875,-7.79,0.04615703125,32.37
2021-06-21 16:14:15.843750000,-50.0,-4.0,41.0,88.7371875,-9.9,0.046277125,32.37
2021-06-21 16:14:15.851562500,-50.0,-4.25,41.0,88.75882812500001,-12.955000000000002,0.046397218750000004,32.37
2021-06-21 16:14:15.859375000,-50.0,-4.5,41.0,88.78046875,-16.01,0.0465173125,32.37
2021-06-21 16:14:15.867187500,-50.0,-4.75,41.0,88.802109375,-20.12,0.04663740625,32.37
2021-06-21 16:14:15.875000000,-50.0,-5.0,41.0,88.82375,-24.23,0.0467575,32.37
2021-06-21 16:14:15.882812500,-50.0,-5.0,41.0,88.84539062500001,-29.21,0.04687759375,32.37
2021-06-21 16:14:15.890625000,-50.0,-5.0,41.0,88.86703125,-34.19,0.0469976875,32.37
2021-06-21 16:14:15.898437500,-50.0,-5.0,41.0,88.888671875,-39.555,0.04711778125,32.37
2021-06-21 16:14:15.906250000,-50.0,-5.0,41.0,88.9103125,-44.92,0.047237875,32.37
2021-06-21 16:14:15.914062500,-50.0,-4.75,41.0,88.931953125,-49.865,0.04735796875,32.37
2021-06-21 16:14:15.921875000,-50.0,-4.5,41.0,88.95359375,-54.81,0.0474780625,32.37
2021-06-21 16:14:15.929687500,-50.0,-4.25,41.0,88.975234375,-58.385000000000005,0.04759815625,32.37
2021-06-21 16:14:15.937500000,-50.0,-4.0,41.0,88.996875,-61.96,0.047718250000000004,32.37
2021-06-21 16:14:15.945312500,-50.0,-4.0,41.0,89.018515625,-63.30500000000001,0.04783834375,32.37
2021-06-21 16:14:15.953125000,-50.0,-4.0,41.0,89.04015625,-64.65,0.0479584375,32.37
2021-06-21 16:14:15.960937500,-50.0,-4.0,41.0,89.061796875,-63.19500000000001,0.04807853125,32.37
2021-06-21 16:14:15.968750000,-50.0,-4.0,41.0,89.0834375,-61.74,0.048198625,32.37
2021-06-21 16:14:15.976562500,-50.0,-4.0,41.0,89.105078125,-57.435,0.04831871875,32.37
2021-06-21 16:14:15.984375000,-50.0,-4.0,41.0,89.12671875000001,-53.13,0.0484388125,32.37
2021-06-21 16:14:15.992187500,-50.0,-4.0,41.0,89.148359375,-46.465,0.04855890625,32.37
2021-06-21 16:14:16.000000000,-50.0,-4.0,41.0,89.17,-39.8,0.048679,32.37
2021-06-21 16:14:16.007812500,-50.0,-4.0,41.0,89.184296875,-31.669999999999998,0.04855890625,32.37
2021-06-21 16:14:16.015625000,-50.0,-4.0,41.0,89.19859375,-23.54,0.0484388125,32.37
2021-06-21 16:14:16.023437500,-50.0,-4.0,41.0,89.212890625,-15.015,0.04831871875,32.37
2021-06-21 16:14:16.031250000,-50.0,-4.0,41.0,89.2271875,-6.49,0.048198625,32.37
2021-06-21 16:14:16.039062500,-50.0,-4.0,41.0,89.241484375,1.4850000000000003,0.04807853125,32.37
2021-06-21 16:14:16.046875000,-50.0,-4.0,41.0,89.25578125,9.46,0.0479584375,32.37
2021-06-21 16:14:16.054687500,-50.0,-4.0,41.0,89.270078125,16.25,0.04783834375,32.37
2021-06-21 16:14:16.062500000,-50.0,-4.0,41.0,89.284375,23.04,0.047718250000000004,32.37
2021-06-21 16:14:16.070312500,-50.0,-4.0,41.0,89.298671875,28.37,0.04759815625,32.37
2021-06-21 16:14:16.078125000,-50.0,-4.0,41.0,89.31296875,33.7,0.0474780625,32.37
2021-06-21 16:14:16.085937500,-50.0,-4.0,41.0,89.327265625,37.59,0.04735796875,32.37
2021-06-21 16:14:16.093750000,-50.0,-4.0,41.0,89.3415625,41.48,0.047237875,32.37
2021-06-21 16:14:16.101562500,-50.0,-4.0,41.0,89.35585937500001,44.065,0.04711778125,32.37
2021-06-21 16:14:16.109375000,-50.0,-4.0,41.0,89.37015625000001,46.65,0.0469976875,32.37
2021-06-21 16:14:16.117187500,-50.0,-4.0,41.0,89.38445312500001,48.05,0.04687759375,32.37
2021-06-21 16:14:16.125000000,-50.0,-4.0,41.0,89.39875,49.45,0.0467575,32.37
2021-06-21 16:14:16.132812500,-50.0,-4.0,41.0,89.413046875,49.725,0.04663740625,32.37
2021-06-21 16:14:16.140625000,-50.0,-4.0,41.0,89.42734375,50.0,0.0465173125,32.37
2021-06-21 16:14:16.148437500,-50.0,-4.0,41.0,89.441640625,49.19,0.046397218750000004,32.37
2021-06-21 16:14:16.156250000,-50.0,-4.0,41.0,89.4559375,48.38,0.046277125,32.37
2021-06-21 16:14:16.164062500,-50.0,-4.0,41.0,89.470234375,46.595,0.04615703125,32.37
2021-06-21 16:14:16.171875000,-50.0,-4.0,41.0,89.48453125,44.81,0.0460369375,32.37
2021-06-21 16:14:16.179687500,-50.0,-4.0,41.0,89.498828125,42.325,0.04591684375,32.37
2021-06-21 16:14:16.187500000,-50.0,-4.0,41.0,89.513125,39.84,0.04579675,32.37
2021-06-21 16:14:16.195312500,-50.0,-4.0,41.0,89.527421875,37.075,0.04567665625,32.37
2021-06-21 16:14:16.203125000,-50.0,-4.0,41.0,89.54171875,34.31,0.0455565625,32.37
2021-06-21 16:14:16.210937500,-50.0,-4.0,41.0,89.556015625,31.745,0.04543646875,32.37
2021-06-21 16:14:16.218750000,-50.0,-4.0,41.0,89.5703125,29.18,0.045316375,32.37
2021-06-21 16:14:16.226562500,-50.0,-4.0,41.0,89.584609375,27.21,0.04519628125,32.37
2021-06-21 16:14:16.234375000,-50.0,-4.0,41.0,89.59890625,25.24,0.0450761875,32.37
2021-06-21 16:14:16.242187500,-50.0,-4.0,41.0,89.613203125,24.009999999999998,0.04495609375,32.37
2021-06-21 16:14:16.250000000,-50.0,-4.0,41.0,89.6275,22.78,0.044836,32.37
2021-06-21 16:14:16.257812500,-50.0,-4.0,41.0,89.641796875,22.185000000000002,0.04495609375,32.37
2021-06-21 16:14:16.265625000,-50.0,-4.0,41.0,89.65609375,21.59,0.0450761875,32.37
2021-06-21 16:14:16.273437500,-50.0,-4.0,41.0,89.670390625,21.305,0.04519628125,32.37
2021-06-21 16:14:16.281250000,-50.0,-4.0,41.0,89.6846875,21.02,0.045316375,32.37
2021-06-21 16:14:16.289062500,-50.0,-4.0,41.0,89.698984375,20.67,0.04543646875,32.37
2021-06-21 16:14:16.296875000,-50.0,-4.0,41.0,89.71328125,20.32,0.0455565625,32.37
2021-06-21 16:14:16.304687500,-50.0,-4.0,41.0,89.72757812500001,19.625,0.04567665625,32.37
2021-06-21 16:14:16.312500000,-50.0,-4.0,41.0,89.74187500000001,18.93,0.04579675,32.37
2021-06-21 16:14:16.320312500,-50.0,-4.0,41.0,89.756171875,17.79,0.04591684375,32.37
2021-06-21 16:14:16.328125000,-50.0,-4.0,41.0,89.77046875,16.65,0.0460369375,32.37
2021-06-21 16:14:16.335937500,-50.0,-4.0,41.0,89.784765625,15.174999999999999,0.04615703125,32.37
2021-06-21 16:14:16.343750000,-50.0,-4.0,41.0,89.7990625,13.7,0.046277125,32.37
2021-06-21 16:14:16.351562500,-50.0,-4.0,41.0,89.813359375,12.09,0.046397218750000004,32.37
2021-06-21 16:14:16.359375000,-50.0,-4.0,41.0,89.82765625,10.48,0.0465173125,32.37
2021-06-21 16:14:16.367187500,-50.0,-4.0,41.0,89.841953125,8.91,0.04663740625,32.37
2021-06-21 16:14:16.375000000,-50.0,-4.0,41.0,89.85625,7.34,0.0467575,32.37
2021-06-21 16:14:16.382812500,-50.0,-4.0,41.0,89.870546875,5.859999999999999,0.04687759375,32.37
2021-06-21 16:14:16.390625000,-50.0,-4.0,41.0,89.88484375,4.38,0.0469976875,32.37
2021-06-21 16:14:16.398437500,-50.0,-4.0,41.0,89.899140625,2.8899999999999997,0.04711778125,32.37
2021-06-21 16:14:16.406250000,-50.0,-4.0,41.0,89.9134375,1.4,0.047237875,32.37
2021-06-21 16:14:16.414062500,-50.0,-4.0,41.0,89.927734375,-0.29499999999999993,0.04735796875,32.37
2021-06-21 16:14:16.421875000,-50.0,-4.0,41.0,89.94203125,-1.99,0.0474780625,32.37
2021-06-21 16:14:16.429687500,-50.0,-4.0,41.0,89.956328125,-4.1049999999999995,0.04759815625,32.37
2021-06-21 16:14:16.437500000,-50.0,-4.0,41.0,89.970625,-6.22,0.047718250000000004,32.37
2021-06-21 16:14:16.445312500,-50.0,-4.0,41.0,89.984921875,-8.93,0.04783834375,32.37
2021-06-21 16:14:16.453125000,-50.0,-4.0,41.0,89.99921875,-11.64,0.0479584375,32.37
2021-06-21 16:14:16.460937500,-50.0,-4.0,41.0,90.013515625,-15.05,0.04807853125,32.37
2021-06-21 16:14:16.468750000,-50.0,-4.0,41.0,90.0278125,-18.46,0.048198625,32.37
2021-06-21 16:14:16.476562500,-50.0,-4.0,41.0,90.042109375,-22.58,0.04831871875,32.37
2021-06-21 16:14:16.484375000,-50.0,-4.0,41.0,90.05640625,-26.7,0.0484388125,32.37
2021-06-21 16:14:16.492187500,-50.0,-4.0,41.0,90.070703125,-31.375,0.04855890625,32.37
2021-06-21 16:14:16.500000000,-50.0,-4.0,41.0,90.08500000000001,-36.05,0.048679,32.37
2021-06-21 16:14:16.507812500,-50.0,-4.0,41.0,90.09929687500001,-40.935,0.04855890625,32.37
2021-06-21 16:14:16.515625000,-50.0,-4.0,41.0,90.11359375,-45.82,0.0484388125,32.37
2021-06-21 16:14:16.523437500,-50.0,-4.0,41.0,90.127890625,-50.235,0.04831871875,32.37
2021-06-21 16:14:16.531250000,-50.0,-4.0,41.0,90.1421875,-54.65,0.048198625,32.37
2021-06-21 16:14:16.539062500,-49.75,-4.0,41.0,90.156484375,-57.71,0.04807853125,32.37
2021-06-21 16:14:16.546875000,-49.5,-4.0,41.0,90.17078125,-60.77,0.0479584375,32.37
2021-06-21 16:14:16.554687500,-49.25,-4.0,41.0,90.185078125,-61.535,0.04783834375,32.37
2021-06-21 16:14:16.562500000,-49.0,-4.0,41.0,90.199375,-62.3,0.047718250000000004,32.37
2021-06-21 16:14:16.570312500,-49.25,-4.0,41.0,90.213671875,-60.129999999999995,0.04759815625,32.37
2021-06-21 16:14:16.578125000,-49.5,-4.0,41.0,90.22796875,-57.96,0.0474780625,32.37
2021-06-21 16:14:16.585937500,-49.75,-4.0,41.0,90.242265625,-52.775000000000006,0.04735796875,32.37
2021-06-21 16:14:16.593750000,-50.0,-4.0,41.0,90.2565625,-47.59,0.047237875,32.37
2021-06-21 16:14:16.601562500,-50.0,-4.0,41.0,90.270859375,-39.99,0.04711778125,32.37
2021-06-21 16:14:16.609375000,-50.0,-4.0,41.0,90.28515625,-32.39,0.0469976875,32.37
2021-06-21 16:14:16.617187500,-50.0,-4.0,41.0,90.299453125,-23.51,0.04687759375,32.37
2021-06-21 16:14:16.625000000,-50.0,-4.0,41.0,90.31375,-14.63,0.0467575,32.37
2021-06-21 16:14:16.632812500,-50.0,-4.0,41.0,90.328046875,-5.745000000000001,0.04663740625,32.37
2021-06-21 16:14:16.640625000,-50.0,-4.0,41.0,90.34234375,3.14,0.0465173125,32.37
2021-06-21 16:14:16.648437500,-50.0,-4.0,41.0,90.356640625,10.98,0.046397218750000004,32.37
2021-06-21 16:14:16.656250000,-50.0,-4.0,41.0,90.3709375,18.82,0.046277125,32.37
2021-06-21 16:14:16.664062500,-50.0,-4.25,41.0,90.385234375,25.035,0.04615703125,32.37
2021-06-21 16:14:16.671875000,-50.0,-4.5,41.0,90.39953125,31.25,0.0460369375,32.37
2021-06-21 16:14:16.679687500,-50.0,-4.75,41.0,90.413828125,35.730000000000004,0.04591684375,32.37
2021-06-21 16:14:16.687500000,-50.0,-5.0,41.0,90.428125,40.21,0.04579675,32.37
2021-06-21 16:14:16.695312500,-50.0,-4.75,41.0,90.442421875,43.150000000000006,0.04567665625,32.37
2021-06-21 16:14:16.703125000,-50.0,-4.5,41.0,90.45671875000001,46.09,0.0455565625,32.37
2021-06-21 16:14:16.710937500,-50.0,-4.25,41.0,90.471015625,47.77,0.04543646875,32.37
2021-06-21 16:14:16.718750000,-50.0,-4.0,41.0,90.4853125,49.45,0.045316375,32.37
2021-06-21 16:14:16.726562500,-50.0,-4.0,41.0,90.499609375,50.115,0.04519628125,32.37
2021-06-21 16:14:16.734375000,-50.0,-4.0,41.0,90.51390625,50.78,0.0450761875,32.37
2021-06-21 16:14:16.742187500,-50.0,-4.0,41.0,90.528203125,50.595,0.04495609375,32.37
2021-06-21 16:14:16.750000000,-50.0,-4.0,41.0,90.5425,50.41,0.044836,32.37
2021-06-21 16:14:16.757812500,-50.0,-4.0,41.0,90.556796875,49.54,0.0449160625,32.37
2021-06-21 16:14:16.765625000,-50.0,-4.0,41.0,90.57109375,48.67,0.044996125,32.37
2021-06-21 16:14:16.773437500,-50.0,-4.0,41.0,90.585390625,47.315,0.0450761875,32.37
2021-06-21 16:14:16.781250000,-50.0,-4.0,41.0,90.5996875,45.96,0.04515625,32.37
2021-06-21 16:14:16.789062500,-49.75,-4.0,41.0,90.613984375,44.375,0.0452363125,32.37
2021-06-21 16:14:16.796875000,-49.5,-4.0,41.0,90.62828125,42.79,0.045316375,32.37
2021-06-21 16:14:16.804687500,-49.25,-4.0,41.0,90.642578125,41.2,0.045396437500000004,32.37
2021-06-21 16:14:16.812500000,-49.0,-4.0,41.0,90.656875,39.61,0.0454765,32.37
2021-06-21 16:14:16.820312500,-49.0,-4.0,41.0,90.671171875,38.2,0.0455565625,32.37
2021-06-21 16:14:16.828125000,-49.0,-4.0,41.0,90.68546875,36.79,0.045636625,32.37
2021-06-21 16:14:16.835937500,-49.0,-4.0,41.0,90.699765625,35.675,0.0457166875,32.37
2021-06-21 16:14:16.843750000,-49.0,-4.0,41.0,90.7140625,34.56,0.045796750000000004,32.37
2021-06-21 16:14:16.851562500,-49.25,-4.25,41.0,90.728359375,33.775000000000006,0.0458768125,32.37
2021-06-21 16:14:16.859375000,-49.5,-4.5,41.0,90.74265625,32.99,0.045956875,32.37
2021-06-21 16:14:16.867187500,-49.75,-4.75,41.0,90.756953125,32.485,0.0460369375,32.37
2021-06-21 16:14:16.875000000,-50.0,-5.0,41.0,90.77125,31.98,0.046117000000000005,32.37
2021-06-21 16:14:16.882812500,-50.0,-4.75,41.0,90.785546875,31.65,0.046197062500000004,32.37
2021-06-21 16:14:16.890625000,-50.0,-4.5,41.0,90.79984375,31.32,0.046277125,32.37
2021-06-21 16:14:16.898437500,-50.0,-4.25,41.0,90.814140625,31.009999999999998,0.0463571875,32.37
2021-06-21 16:14:16.906250000,-50.0,-4.0,41.0,90.8284375,30.7,0.04643725,32.37
2021-06-21 16:14:16.914062500,-49.75,-4.0,41.0,90.842734375,30.235,0.046517312500000005,32.37
2021-06-21 16:14:16.921875000,-49.5,-4.0,41.0,90.85703125,29.77,0.046597375,32.37
2021-06-21 16:14:16.929687500,-49.25,-4.0,41.0,90.871328125,29.015,0.0466774375,32.37
2021-06-21 16:14:16.937500000,-49.0,-4.0,41.0,90.885625,28.26,0.0467575,32.37
2021-06-21 16:14:16.945312500,-49.25,-4.25,41.0,90.899921875,27.15,0.0468375625,32.37
2021-06-21 16:14:16.953125000,-49.5,-4.5,41.0,90.91421875,26.04,0.046917625000000004,32.37
2021-06-21 16:14:16.960937500,-49.75,-4.75,41.0,90.928515625,24.58,0.0469976875,32.37
2021-06-21 16:14:16.968750000,-50.0,-5.0,41.0,90.9428125,23.12,0.04707775,32.37
2021-06-21 16:14:16.976562500,-50.0,-4.75,41.0,90.957109375,21.39,0.0471578125,32.37
2021-06-21 16:14:16.984375000,-50.0,-4.5,41.0,90.97140625,19.66,0.047237875000000006,32.37
2021-06-21 16:14:16.992187500,-50.0,-4.25,41.0,90.985703125,17.755,0.047317937500000004,32.37
2021-06-21 16:14:17.000000000,-50.0,-4.0,41.0,91.0,15.85,0.047398,32.37
2021-06-21 16:14:17.007812500,-50.0,-4.0,41.0,91.01078125,13.835,0.047317937500000004,32.37
2021-06-21 16:14:17.015625000,-50.0,-4.0,41.0,91.0215625,11.82,0.047237875000000006,32.37
2021-06-21 16:14:17.023437500,-50.0,-4.0,41.0,91.03234375,9.725,0.0471578125,32.37
2021-06-21 16:14:17.031250000,-50.0,-4.0,41.0,91.043125,7.63,0.04707775,32.37
2021-06-21 16:14:17.039062500,-50.0,-4.0,41.0,91.05390625,5.4,0.0469976875,32.37
2021-06-21 16:14:17.046875000,-50.0,-4.0,41.0,91.0646875,3.17,0.046917625000000004,32.37
2021-06-21 16:14:17.054687500,-50.0,-4.0,41.0,91.07546875,0.7149999999999999,0.0468375625,32.37
2021-06-21 16:14:17.062500000,-50.0,-4.0,41.0,91.08625,-1.74,0.0467575,32.37
2021-06-21 16:14:17.070312500,-50.0,-4.0,41.0,91.09703125,-4.54,0.0466774375,32.37
2021-06-21 16:14:17.078125000,-50.0,-4.0,41.0,91.1078125,-7.34,0.046597375,32.37
2021-06-21 16:14:17.085937500,-50.0,-4.0,41.0,91.11859375,-10.6,0.046517312500000005,32.37
2021-06-21 16:14:17.093750000,-50.0,-4.0,41.0,91.129375,-13.86,0.04643725,32.37
2021-06-21 16:14:17.101562500,-50.0,-4.25,41.25,91.14015625,-17.64,0.0463571875,32.37
2021-06-21 16:14:17.109375000,-50.0,-4.5,41.5,91.1509375,-21.42,0.046277125,32.37
2021-06-21 16:14:17.117187500,-50.0,-4.75,41.75,91.16171875,-25.68,0.046197062500000004,32.37
2021-06-21 16:14:17.125000000,-50.0,-5.0,42.0,91.1725,-29.94,0.046117000000000005,32.37
2021-06-21 16:14:17.132812500,-50.0,-4.75,41.75,91.18328125,-34.465,0.0460369375,32.37
2021-06-21 16:14:17.140625000,-50.0,-4.5,41.5,91.1940625,-38.99,0.045956875,32.37
2021-06-21 16:14:17.148437500,-50.0,-4.25,41.25,91.20484375,-43.32,0.0458768125,32.37
2021-06-21 16:14:17.156250000,-50.0,-4.0,41.0,91.215625,-47.65,0.045796750000000004,32.37
2021-06-21 16:14:17.164062500,-50.0,-4.0,41.0,91.22640625,-51.129999999999995,0.0457166875,32.37
2021-06-21 16:14:17.171875000,-50.0,-4.0,41.0,91.2371875,-54.61,0.045636625,32.37
2021-06-21 16:14:17.179687500,-50.0,-4.0,41.0,91.24796875,-56.489999999999995,0.0455565625,32.37
2021-06-21 16:14:17.187500000,-50.0,-4.0,41.0,91.25874999999999,-58.37,0.0454765,32.37
2021-06-21 16:14:17.195312500,-50.0,-4.25,41.0,91.26953125,-58.015,0.0453964375,32.37
2021-06-21 16:14:17.203125000,-50.0,-4.5,41.0,91.2803125,-57.66,0.045316375,32.37
2021-06-21 16:14:17.210937500,-50.0,-4.75,41.0,91.29109375,-54.769999999999996,0.0452363125,32.37
2021-06-21 16:14:17.218750000,-50.0,-5.0,41.0,91.301875,-51.88,0.04515625,32.37
2021-06-21 16:14:17.226562500,-50.0,-4.75,41.0,91.31265625,-46.655,0.0450761875,32.37
2021-06-21 16:14:17.234375000,-50.0,-4.5,41.0,91.3234375,-41.43,0.044996125,32.37
2021-06-21 16:14:17.242187500,-50.0,-4.25,41.0,91.33421875,-34.545,0.0449160625,32.37
2021-06-21 16:14:17.250000000,-50.0,-4.0,41.0,91.345,-27.66,0.044836,32.37
2021-06-21 16:14:17.257812500,-50.0,-4.0,41.0,91.35578124999999,-20.115000000000002,0.0449160625,32.37
2021-06-21 16:14:17.265625000,-50.0,-4.0,41.0,91.3665625,-12.57,0.044996125,32.37
2021-06-21 16:14:17.273437500,-50.0,-4.0,41.0,91.37734375,-5.375,0.0450761875,32.37
2021-06-21 16:14:17.281250000,-50.0,-4.0,41.0,91.388125,1.82,0.04515625,32.37
2021-06-21 16:14:17.289062500,-50.0,-4.25,41.0,91.39890625,7.98,0.0452363125,32.37
2021-06-21 16:14:17.296875000,-50.0,-4.5,41.0,91.4096875,14.14,0.045316375,32.37
2021-06-21 16:14:17.304687500,-50.0,-4.75,41.0,91.42046875,19.04,0.045396437500000004,32.37
2021-06-21 16:14:17.312500000,-50.0,-5.0,41.0,91.43125,23.94,0.0454765,32.37
2021-06-21 16:14:17.320312500,-50.0,-4.75,41.0,91.44203125,27.755000000000003,0.0455565625,32.37
2021-06-21 16:14:17.328125000,-50.0,-4.5,41.0,91.4528125,31.57,0.045636625,32.37
2021-06-21 16:14:17.335937500,-50.0,-4.25,41.0,91.46359375,34.66,0.0457166875,32.37
2021-06-21 16:14:17.343750000,-50.0,-4.0,41.0,91.474375,37.75,0.045796750000000004,32.37
2021-06-21 16:14:17.351562500,-50.0,-4.0,41.0,91.48515625,40.385000000000005,0.0458768125,32.37
2021-06-21 16:14:17.359375000,-50.0,-4.0,41.0,91.4959375,43.02,0.045956875,32.37
2021-06-21 16:14:17.367187500,-50.0,-4.0,41.0,91.50671875,45.215,0.0460369375,32.37
2021-06-21 16:14:17.375000000,-50.0,-4.0,41.0,91.5175,47.41,0.046117000000000005,32.37
2021-06-21 16:14:17.382812500,-50.0,-4.0,41.0,91.52828124999999,48.965,0.046197062500000004,32.37
2021-06-21 16:14:17.390625000,-50.0,-4.0,41.0,91.5390625,50.52,0.046277125,32.37
2021-06-21 16:14:17.398437500,-50.0,-4.0,41.0,91.54984375,51.22,0.0463571875,32.37
2021-06-21 16:14:17.406250000,-50.0,-4.0,41.0,91.560625,51.92,0.04643725,32.37
2021-06-21 16:14:17.414062500,-50.0,-4.0,41.0,91.57140625,51.705,0.046517312500000005,32.37
2021-06-21 16:14:17.421875000,-50.0,-4.0,41.0,91.5821875,51.49,0.046597375,32.37
2021-06-21 16:14:17.429687500,-50.0,-4.0,41.0,91.59296875,50.58,0.0466774375,32.37
2021-06-21 16:14:17.437500000,-50.0,-4.0,41.0,91.60374999999999,49.67,0.0467575,32.37
2021-06-21 16:14:17.445312500,-50.0,-4.0,41.0,91.61453125,48.435,0.0468375625,32.37
2021-06-21 16:14:17.453125000,-50.0,-4.0,41.0,91.62531249999999,47.2,0.046917625000000004,32.37
2021-06-21 16:14:17.460937500,-50.0,-4.0,41.0,91.63609375,46.02,0.0469976875,32.37
2021-06-21 16:14:17.468750000,-50.0,-4.0,41.0,91.646875,44.84,0.04707775,32.37
2021-06-21 16:14:17.476562500,-50.0,-4.0,41.0,91.65765625,43.925,0.0471578125,32.37
2021-06-21 16:14:17.484375000,-50.0,-4.0,41.0,91.6684375,43.01,0.047237875000000006,32.37
2021-06-21 16:14:17.492187500,-50.0,-4.0,41.0,91.67921875,42.375,0.047317937500000004,32.37
2021-06-21 16:14:17.500000000,-50.0,-4.0,41.0,91.69,41.74,0.047398,32.37
2021-06-21 16:14:17.507812500,-50.0,-4.0,41.0,91.70078124999999,41.275000000000006,0.04727790625,32.37
2021-06-21 16:14:17.515625000,-50.0,-4.0,41.0,91.7115625,40.81,0.0471578125,32.37
2021-06-21 16:14:17.523437500,-50.0,-4.0,41.0,91.72234375,40.425,0.047037718750000006,32.37
2021-06-21 16:14:17.531250000,-50.0,-4.0,41.0,91.733125,40.04,0.046917625000000004,32.37
2021-06-21 16:14:17.539062500,-50.0,-4.0,41.0,91.74390625,39.735,0.04679753125,32.37
2021-06-21 16:14:17.546875000,-50.0,-4.0,41.0,91.7546875,39.43,0.0466774375,32.37
2021-06-21 16:14:17.554687500,-50.0,-4.0,41.0,91.76546875,39.260000000000005,0.04655734375,32.37
2021-06-21 16:14:17.562500000,-50.0,-4.0,41.0,91.77625,39.09,0.04643725,32.37
2021-06-21 16:14:17.570312500,-50.0,-4.0,41.0,91.78703125,39.075,0.046317156250000005,32.37
2021-06-21 16:14:17.578125000,-50.0,-4.0,41.0,91.79781249999999,39.06,0.046197062500000004,32.37
2021-06-21 16:14:17.585937500,-50.0,-4.0,41.0,91.80859375,39.06,0.04607696875,32.37
2021-06-21 16:14:17.593750000,-50.0,-4.0,41.0,91.819375,39.06,0.045956875,32.37
2021-06-21 16:14:17.601562500,-50.0,-4.0,41.0,91.83015625,38.765,0.04583678125,32.37
2021-06-21 16:14:17.609375000,-50.0,-4.0,41.0,91.8409375,38.47,0.045716687500000006,32.37
2021-06-21 16:14:17.617187500,-50.0,-4.0,41.0,91.85171875,37.535,0.045596593750000004,32.37
2021-06-21 16:14:17.625000000,-50.0,-4.0,41.0,91.8625,36.6,0.0454765,32.37
2021-06-21 16:14:17.632812500,-50.0,-4.0,41.0,91.87328124999999,34.79,0.04535640625,32.37
2021-06-21 16:14:17.640625000,-50.0,-4.0,41.0,91.8840625,32.98,0.0452363125,32.37
2021-06-21 16:14:17.648437500,-50.0,-4.0,41.0,91.89484374999999,30.305,0.045116218750000006,32.37
2021-06-21 16:14:17.656250000,-50.0,-4.0,41.0,91.905625,27.63,0.044996125000000005,32.37
2021-06-21 16:14:17.664062500,-50.0,-4.0,41.0,91.91640625,24.384999999999998,0.044876031250000004,32.37
2021-06-21 16:14:17.671875000,-50.0,-4.0,41.0,91.9271875,21.14,0.0447559375,32.37
2021-06-21 16:14:17.679687500,-50.0,-4.0,41.0,91.93796875,17.77,0.04463584375,32.37
2021-06-21 16:14:17.687500000,-50.0,-4.0,41.0,91.94874999999999,14.4,0.04451575000000001,32.37
2021-06-21 16:14:17.695312500,-50.0,-4.0,41.0,91.95953125,11.315000000000001,0.044395656250000005,32.37
2021-06-21 16:14:17.703125000,-50.0,-4.0,41.0,91.97031249999999,8.23,0.044275562500000004,32.37
2021-06-21 16:14:17.710937500,-50.0,-4.0,41.0,91.98109375,5.640000000000001,0.04415546875,32.37
2021-06-21 16:14:17.718750000,-50.0,-4.0,41.0,91.991875,3.05,0.044035375,32.37
2021-06-21 16:14:17.726562500,-50.0,-4.0,41.0,92.00265625,0.8700000000000001,0.04391528125,32.37
2021-06-21 16:14:17.734375000,-50.0,-4.0,41.0,92.0134375,-1.31,0.043795187500000006,32.37
2021-06-21 16:14:17.742187500,-50.0,-4.0,41.0,92.02421875,-3.43,0.043675093750000005,32.37
2021-06-21 16:14:17.750000000,-50.0,-4.0,41.0,92.035,-5.55,0.043555,32.37
2021-06-21 16:14:17.757812500,-50.0,-4.0,41.0,92.04578124999999,-8.05,0.043675093750000005,32.37
2021-06-21 16:14:17.765625000,-50.0,-4.0,41.0,92.0565625,-10.55,0.043795187500000006,32.37
2021-06-21 16:14:17.773437500,-50.0,-4.0,41.0,92.06734374999999,-13.815,0.04391528125,32.37
2021-06-21 16:14:17.781250000,-50.0,-4.0,41.0,92.078125,-17.08,0.044035375,32.37
2021-06-21 16:14:17.789062500,-50.0,-4.0,41.0,92.08890625,-21.255,0.04415546875,32.37
2021-06-21 16:14:17.796875000,-50.0,-4.0,41.0,92.0996875,-25.43,0.044275562500000004,32.37
2021-06-21 16:14:17.804687500,-50.0,-4.0,41.0,92.11046875,-30.32,0.044395656250000005,32.37
2021-06-21 16:14:17.812500000,-50.0,-4.0,41.0,92.12125,-35.21,0.04451575000000001,32.37
2021-06-21 16:14:17.820312500,-50.0,-4.0,41.0,92.13203125,-40.24,0.04463584375,32.37
2021-06-21 16:14:17.828125000,-50.0,-4.0,41.0,92.14281249999999,-45.27,0.0447559375,32.37
2021-06-21 16:14:17.835937500,-50.0,-4.0,41.0,92.15359375,-49.58,0.044876031250000004,32.37
2021-06-21 16:14:17.843750000,-50.0,-4.0,41.0,92.16437499999999,-53.89,0.044996125000000005,32.37
2021-06-21 16:14:17.851562500,-50.0,-4.0,41.0,92.17515625,-56.495000000000005,0.045116218750000006,32.37
2021-06-21 16:14:17.859375000,-50.0,-4.0,41.0,92.1859375,-59.1,0.0452363125,32.37
2021-06-21 16:14:17.867187500,-50.0,-4.0,41.0,92.19671875,-59.165,0.04535640625,32.37
2021-06-21 16:14:17.875000000,-50.0,-4.0,41.0,92.2075,-59.23,0.0454765,32.37
2021-06-21 16:14:17.882812500,-50.0,-4.0,41.0,92.21828124999999,-56.36,0.045596593750000004,32.37
2021-06-21 16:14:17.890625000,-50.0,-4.0,41.0,92.2290625,-53.49,0.045716687500000006,32.37
2021-06-21 16:14:17.898437500,-50.0,-4.0,41.0,92.23984374999999,-47.905,0.04583678125,32.37
2021-06-21 16:14:17.906250000,-50.0,-4.0,41.0,92.250625,-42.32,0.045956875,32.37
2021-06-21 16:14:17.914062500,-50.0,-4.0,41.0,92.26140625,-34.81,0.04607696875,32.37
2021-06-21 16:14:17.921875000,-50.0,-4.0,41.0,92.2721875,-27.3,0.046197062500000004,32.37
2021-06-21 16:14:17.929687500,-50.0,-4.0,41.0,92.28296875,-19.035,0.046317156250000005,32.37
2021-06-21 16:14:17.937500000,-50.0,-4.0,41.0,92.29374999999999,-10.77,0.04643725,32.37
2021-06-21 16:14:17.945312500,-50.0,-4.0,41.0,92.30453125,-2.88,0.04655734375,32.37
2021-06-21 16:14:17.953125000,-50.0,-4.0,41.0,92.31531249999999,5.01,0.0466774375,32.37
2021-06-21 16:14:17.960937500,-50.0,-4.0,41.0,92.32609375,11.669999999999998,0.04679753125,32.37
2021-06-21 16:14:17.968750000,-50.0,-4.0,41.0,92.33687499999999,18.33,0.046917625000000004,32.37
2021-06-21 16:14:17.976562500,-50.0,-4.0,41.0,92.34765625,23.384999999999998,0.047037718750000006,32.37
2021-06-21 16:14:17.984375000,-50.0,-4.0,41.0,92.3584375,28.44,0.0471578125,32.37
2021-06-21 16:14:17.992187500,-50.0,-4.0,41.0,92.36921875,31.910000000000004,0.04727790625,32.37
2021-06-21 16:14:18.000000000,-50.0,-4.0,41.0,92.38,35.38,0.047398,32.37
2021-06-21 16:14:18.007812500,-50.0,-4.0,41.0,92.38921875,37.519999999999996,0.047317937500000004,32.3690625
2021-06-21 16:14:18.015625000,-50.0,-4.0,41.0,92.3984375,39.66,0.047237875000000006,32.368125
2021-06-21 16:14:18.023437500,-50.0,-4.0,41.0,92.40765625,40.76,0.0471578125,32.3671875
2021-06-21 16:14:18.031250000,-50.0,-4.0,41.0,92.41687499999999,41.86,0.04707775,32.36625
2021-06-21 16:14:18.039062500,-50.0,-4.0,41.0,92.42609374999999,42.15,0.0469976875,32.3653125
2021-06-21 16:14:18.046875000,-50.0,-4.0,41.0,92.4353125,42.44,0.046917625000000004,32.364374999999995
2021-06-21 16:14:18.054687500,-50.0,-4.0,41.0,92.44453125,42.06,0.0468375625,32.363437499999996
2021-06-21 16:14:18.062500000,-50.0,-4.0,41.0,92.45375,41.68,0.0467575,32.3625
2021-06-21 16:14:18.070312500,-50.0,-4.0,41.0,92.46296875,40.745000000000005,0.0466774375,32.3615625
2021-06-21 16:14:18.078125000,-50.0,-4.0,41.0,92.47218749999999,39.81,0.046597375,32.360625
2021-06-21 16:14:18.085937500,-50.0,-4.0,41.0,92.48140624999999,38.465,0.046517312500000005,32.3596875
2021-06-21 16:14:18.093750000,-50.0,-4.0,41.0,92.490625,37.12,0.04643725,32.35875
2021-06-21 16:14:18.101562500,-50.0,-4.0,41.0,92.49984375,35.51,0.0463571875,32.3578125
2021-06-21 16:14:18.109375000,-50.0,-4.0,41.0,92.5090625,33.9,0.046277125,32.356875
2021-06-21 16:14:18.117187500,-50.0,-4.0,41.0,92.51828125,32.215,0.046197062500000004,32.3559375
2021-06-21 16:14:18.125000000,-50.0,-4.0,41.0,92.5275,30.53,0.046117000000000005,32.355000000000004
2021-06-21 16:14:18.132812500,-50.0,-4.0,41.0,92.53671874999999,28.965,0.0460369375,32.3540625
2021-06-21 16:14:18.140625000,-50.0,-4.0,41.0,92.5459375,27.4,0.045956875,32.353125
2021-06-21 16:14:18.148437500,-50.0,-4.0,41.0,92.55515625,26.104999999999997,0.0458768125,32.3521875
2021-06-21 16:14:18.156250000,-50.0,-4.0,41.0,92.564375,24.81,0.045796750000000004,32.35125
2021-06-21 16:14:18.164062500,-50.0,-4.0,41.0,92.57359375,23.905,0.0457166875,32.3503125
2021-06-21 16:14:18.171875000,-50.0,-4.0,41.0,92.5828125,23.0,0.045636625,32.349375
2021-06-21 16:14:18.179687500,-50.0,-4.0,41.0,92.59203124999999,22.53,0.0455565625,32.3484375
2021-06-21 16:14:18.187500000,-50.0,-4.0,41.0,92.60125,22.06,0.0454765,32.347500000000004
2021-06-21 16:14:18.195312500,-50.0,-4.0,41.0,92.61046875,21.95,0.0453964375,32.346562500000005
2021-06-21 16:14:18.203125000,-50.0,-4.0,41.0,92.6196875,21.84,0.045316375,32.345625000000005
2021-06-21 16:14:18.210937500,-50.0,-4.0,41.0,92.62890625,21.935000000000002,0.0452363125,32.3446875
2021-06-21 16:14:18.218750000,-50.0,-4.0,41.0,92.638125,22.03,0.04515625,32.34375
2021-06-21 16:14:18.226562500,-50.0,-4.0,41.0,92.64734374999999,22.115000000000002,0.0450761875,32.3428125
2021-06-21 16:14:18.234375000,-50.0,-4.0,41.0,92.65656249999999,22.2,0.044996125,32.341875
2021-06-21 16:14:18.242187500,-50.0,-4.0,41.0,92.66578125,22.049999999999997,0.0449160625,32.3409375
2021-06-21 16:14:18.250000000,-50.0,-4.0,41.0,92.675,21.9,0.044836,32.34
2021-06-21 16:14:18.257812500,-50.0,-4.0,41.0,92.68421875,21.335,0.044876031250000004,32.34
2021-06-21 16:14:18.265625000,-50.0,-4.0,41.0,92.6934375,20.77,0.0449160625,32.34
2021-06-21 16:14:18.273437500,-50.0,-4.0,41.0,92.70265625,19.705,0.04495609375,32.34
2021-06-21 16:14:18.281250000,-50.0,-4.0,41.0,92.71187499999999,18.64,0.044996125,32.34
2021-06-21 16:14:18.289062500,-50.0,-4.0,41.0,92.72109375,17.065,0.04503615625,32.34
2021-06-21 16:14:18.296875000,-50.0,-4.0,41.0,92.7303125,15.49,0.0450761875,32.34
2021-06-21 16:14:18.304687500,-50.0,-4.0,41.0,92.73953125,13.465,0.04511621875,32.34
2021-06-21 16:14:18.312500000,-50.0,-4.0,41.0,92.74875,11.44,0.04515625,32.34
2021-06-21 16:14:18.320312500,-50.0,-4.0,41.0,92.75796875,9.09,0.04519628125,32.34
2021-06-21 16:14:18.328125000,-50.0,-4.0,41.0,92.76718749999999,6.74,0.0452363125,32.34
2021-06-21 16:14:18.335937500,-50.0,-4.0,41.0,92.77640625,4.195,0.04527634375,32.34
2021-06-21 16:14:18.343750000,-50.0,-4.0,41.0,92.785625,1.65,0.045316375,32.34
2021-06-21 16:14:18.351562500,-50.0,-4.0,41.0,92.79484375,-0.9700000000000002,0.04535640625,32.34
2021-06-21 16:14:18.359375000,-50.0,-4.0,41.0,92.8040625,-3.59,0.0453964375,32.34
2021-06-21 16:14:18.367187500,-50.0,-4.0,41.0,92.81328125,-6.205,0.04543646875,32.34
2021-06-21 16:14:18.375000000,-50.0,-4.0,41.0,92.82249999999999,-8.82,0.0454765,32.34
2021-06-21 16:14:18.382812500,-50.0,-4.0,41.0,92.83171875,-11.405000000000001,0.04551653125,32.34
2021-06-21 16:14:18.390625000,-50.0,-4.0,41.0,92.8409375,-13.99,0.0455565625,32.34
2021-06-21 16:14:18.398437500,-50.0,-4.0,41.0,92.85015625,-16.625,0.04559659375,32.34
2021-06-21 16:14:18.406250000,-50.0,-4.0,41.0,92.859375,-19.26,0.045636625,32.34
2021-06-21 16:14:18.414062500,-50.0,-4.0,41.0,92.86859375,-22.07,0.045676656249999996,32.34
2021-06-21 16:14:18.421875000,-50.0,-4.0,41.0,92.8778125,-24.88,0.0457166875,32.34
2021-06-21 16:14:18.429687500,-50.0,-4.0,41.0,92.88703124999999,-28.06,0.04575671875,32.34
2021-06-21 16:14:18.437500000,-50.0,-4.0,41.0,92.89625,-31.24,0.04579675,32.34
2021-06-21 16:14:18.445312500,-50.0,-4.0,41.0,92.90546875,-34.839999999999996,0.04583678125,32.34
2021-06-21 16:14:18.453125000,-50.0,-4.0,41.0,92.9146875,-38.44,0.045876812499999996,32.34
2021-06-21 16:14:18.460937500,-50.0,-4.0,41.0,92.92390625,-42.34,0.04591684375,32.34
2021-06-21 16:14:18.468750000,-50.0,-4.0,41.0,92.933125,-46.24,0.045956875,32.34
2021-06-21 16:14:18.476562500,-50.0,-4.0,41.0,92.94234374999999,-49.995000000000005,0.04599690625,32.34
2021-06-21 16:14:18.484375000,-50.0,-4.0,41.0,92.9515625,-53.75,0.0460369375,32.34
2021-06-21 16:14:18.492187500,-50.0,-4.0,41.0,92.96078125,-56.65,0.046076968749999996,32.34
2021-06-21 16:14:18.500000000,-50.0,-4.0,41.0,92.97,-59.55,0.046117,32.34
2021-06-21 16:14:18.507812500,-50.0,-4.0,41.0,92.97921875,-60.785,0.0460369375,32.34
2021-06-21 16:14:18.515625000,-50.0,-4.0,41.0,92.9884375,-62.02,0.045956875,32.34
2021-06-21 16:14:18.523437500,-50.0,-4.0,41.0,92.99765625,-60.965,0.045876812499999996,32.34
2021-06-21 16:14:18.531250000,-50.0,-4.0,41.0,93.006875,-59.91,0.04579675,32.34
2021-06-21 16:14:18.539062500,-50.0,-4.0,41.0,93.01609375,-56.39,0.0457166875,32.34
2021-06-21 16:14:18.546875000,-50.0,-4.0,41.0,93.0253125,-52.87,0.045636625,32.34
2021-06-21 16:14:18.554687500,-50.0,-4.0,41.0,93.03453125,-47.265,0.0455565625,32.34
2021-06-21 16:14:18.562500000,-50.0,-4.0,41.0,93.04375,-41.66,0.0454765,32.34
2021-06-21 16:14:18.570312500,-50.0,-4.0,41.0,93.05296875,-34.839999999999996,0.0453964375,32.34
2021-06-21 16:14:18.578125000,-50.0,-4.0,41.0,93.0621875,-28.02,0.045316375,32.34
2021-06-21 16:14:18.585937500,-50.0,-4.0,41.0,93.07140625,-20.995,0.0452363125,32.34
2021-06-21 16:14:18.593750000,-50.0,-4.0,41.0,93.080625,-13.97,0.04515625,32.34
2021-06-21 16:14:18.601562500,-50.0,-4.0,41.0,93.08984375,-7.585,0.0450761875,32.34
2021-06-21 16:14:18.609375000,-50.0,-4.0,41.0,93.0990625,-1.2,0.044996125,32.34
2021-06-21 16:14:18.617187500,-50.0,-4.0,41.0,93.10828125,4.0649999999999995,0.0449160625,32.34
2021-06-21 16:14:18.625000000,-50.0,-4.0,41.0,93.1175,9.33,0.044836,32.34
2021-06-21 16:14:18.632812500,-50.0,-4.0,41.0,93.12671875,13.405000000000001,0.0447559375,32.34
2021-06-21 16:14:18.640625000,-50.0,-4.0,41.0,93.1359375,17.48,0.044675875000000004,32.34
2021-06-21 16:14:18.648437500,-50.0,-4.0,41.0,93.14515625,20.54,0.0445958125,32.34
2021-06-21 16:14:18.656250000,-50.0,-4.0,41.0,93.154375,23.6,0.04451575,32.34
2021-06-21 16:14:18.664062500,-50.0,-4.0,41.0,93.16359375,25.825000000000003,0.0444356875,32.34
2021-06-21 16:14:18.671875000,-50.0,-4.0,41.0,93.1728125,28.05,0.044355625,32.34
2021-06-21 16:14:18.679687500,-50.0,-4.0,41.0,93.18203125,29.5,0.044275562500000004,32.34
2021-06-21 16:14:18.687500000,-50.0,-4.0,41.0,93.19125,30.95,0.0441955,32.34
2021-06-21 16:14:18.695312500,-50.0,-4.0,41.0,93.20046875,31.545,0.0441154375,32.34
2021-06-21 16:14:18.703125000,-50.0,-4.0,41.0,93.2096875,32.14,0.044035375,32.34
2021-06-21 16:14:18.710937500,-50.0,-4.0,41.0,93.21890625,31.765,0.0439553125,32.34
2021-06-21 16:14:18.718750000,-50.0,-4.0,41.0,93.228125,31.39,0.043875250000000005,32.34
2021-06-21 16:14:18.726562500,-50.0,-4.0,41.0,93.23734375,30.05,0.043795187500000006,32.34
2021-06-21 16:14:18.734375000,-50.0,-4.0,41.0,93.2465625,28.71,0.043715125,32.34
2021-06-21 16:14:18.742187500,-50.0,-4.0,41.0,93.25578125,26.62,0.0436350625,32.34
2021-06-21 16:14:18.750000000,-50.0,-4.0,41.0,93.265,24.53,0.043555,32.34
2021-06-21 16:14:18.757812500,-50.0,-4.0,41.0,93.27421875,22.085,0.043675093750000005,32.34
2021-06-21 16:14:18.765625000,-50.0,-4.0,41.0,93.2834375,19.64,0.043795187500000006,32.34
2021-06-21 16:14:18.773437500,-50.0,-4.0,41.0,93.29265625000001,17.315,0.04391528125,32.34
2021-06-21 16:14:18.781250000,-50.0,-4.0,41.0,93.301875,14.99,0.044035375,32.34
2021-06-21 16:14:18.789062500,-50.0,-4.0,41.0,93.31109375,13.185,0.04415546875,32.34
2021-06-21 16:14:18.796875000,-50.0,-4.0,41.0,93.3203125,11.38,0.044275562500000004,32.34
2021-06-21 16:14:18.804687500,-50.0,-4.0,41.0,93.32953125,10.285,0.044395656250000005,32.34
2021-06-21 16:14:18.812500000,-50.0,-4.0,41.0,93.33875,9.19,0.04451575000000001,32.34
2021-06-21 16:14:18.820312500,-50.0,-4.0,41.0,93.34796875,8.77,0.04463584375,32.34
2021-06-21 16:14:18.828125000,-50.0,-4.0,41.0,93.3571875,8.35,0.0447559375,32.34
2021-06-21 16:14:18.835937500,-50.0,-4.0,41.0,93.36640625,8.385,0.044876031250000004,32.34
2021-06-21 16:14:18.843750000,-50.0,-4.0,41.0,93.375625,8.42,0.044996125000000005,32.34
2021-06-21 16:14:18.851562500,-50.0,-4.0,41.0,93.38484375,8.58,0.045116218750000006,32.34
2021-06-21 16:14:18.859375000,-50.0,-4.0,41.0,93.3940625,8.74,0.0452363125,32.34
2021-06-21 16:14:18.867187500,-50.0,-4.0,41.0,93.40328125,8.76,0.04535640625,32.34
2021-06-21 16:14:18.875000000,-50.0,-4.0,41.0,93.4125,8.78,0.0454765,32.34
2021-06-21 16:14:18.882812500,-50.0,-4.0,41.0,93.42171875,8.495000000000001,0.045596593750000004,32.34
2021-06-21 16:14:18.890625000,-50.0,-4.0,41.0,93.4309375,8.21,0.045716687500000006,32.34
2021-06-21 16:14:18.898437500,-50.0,-4.0,41.0,93.44015625,7.61,0.04583678125,32.34
2021-06-21 16:14:18.906250000,-50.0,-4.0,41.0,93.449375,7.01,0.045956875,32.34
2021-06-21 16:14:18.914062500,-50.0,-4.0,41.0,93.45859375,6.145,0.04607696875,32.34
2021-06-21 16:14:18.921875000,-50.0,-4.0,41.0,93.46781250000001,5.28,0.046197062500000004,32.34
2021-06-21 16:14:18.929687500,-50.0,-4.0,41.0,93.47703125,4.225,0.046317156250000005,32.34
2021-06-21 16:14:18.937500000,-50.0,-4.0,41.0,93.48625,3.17,0.04643725,32.34
2021-06-21 16:14:18.945312500,-50.0,-4.0,41.0,93.49546875,1.93,0.04655734375,32.34
2021-06-21 16:14:18.953125000,-50.0,-4.0,41.0,93.5046875,0.69,0.0466774375,32.34
2021-06-21 16:14:18.960937500,-50.0,-4.0,41.0,93.51390625,-0.8049999999999999,0.04679753125,32.34
2021-06-21 16:14:18.968750000,-50.0,-4.0,41.0,93.52312500000001,-2.3,0.046917625000000004,32.34
2021-06-21 16:14:18.976562500,-50.0,-4.0,41.0,93.53234375,-4.13,0.047037718750000006,32.34
2021-06-21 16:14:18.984375000,-50.0,-4.0,41.0,93.5415625,-5.96,0.0471578125,32.34
2021-06-21 16:14:18.992187500,-50.0,-4.0,41.0,93.55078125,-8.205,0.04727790625,32.34
2021-06-21 16:14:19.000000000,-50.0,-4.0,41.0,93.56,-10.45,0.047398,32.34
2021-06-21 16:14:19.007812500,-50.0,-4.0,41.0,93.5665625,-13.114999999999998,0.04727790625,32.3409375
2021-06-21 16:14:19.015625000,-50.0,-4.0,41.0,93.573125,-15.78,0.0471578125,32.341875
2021-06-21 16:14:19.023437500,-50.0,-4.0,41.0,93.5796875,-18.865,0.047037718750000006,32.3428125
2021-06-21 16:14:19.031250000,-50.0,-4.0,41.0,93.58625,-21.95,0.046917625000000004,32.34375
2021-06-21 16:14:19.039062500,-50.0,-4.0,41.0,93.59281250000001,-25.43,0.04679753125,32.3446875
2021-06-21 16:14:19.046875000,-50.0,-4.0,41.0,93.59937500000001,-28.91,0.0466774375,32.345625000000005
2021-06-21 16:14:19.054687500,-50.0,-4.0,41.0,93.6059375,-32.75,0.04655734375,32.346562500000005
2021-06-21 16:14:19.062500000,-50.0,-4.0,41.0,93.6125,-36.59,0.04643725,32.347500000000004
2021-06-21 16:14:19.070312500,-50.0,-4.0,41.0,93.6190625,-40.685,0.046317156250000005,32.3484375
2021-06-21 16:14:19.078125000,-50.0,-4.0,41.0,93.625625,-44.78,0.046197062500000004,32.349375
2021-06-21 16:14:19.085937500,-50.0,-4.0,41.0,93.6321875,-48.83,0.04607696875,32.3503125
2021-06-21 16:14:19.093750000,-50.0,-4.0,41.0,93.63875,-52.88,0.045956875,32.35125
2021-06-21 16:14:19.101562500,-50.0,-4.0,41.0,93.6453125,-56.34,0.04583678125,32.3521875
2021-06-21 16:14:19.109375000,-50.0,-4.0,41.0,93.651875,-59.8,0.045716687500000006,32.353125
2021-06-21 16:14:19.117187500,-50.0,-4.0,41.0,93.6584375,-61.94,0.045596593750000004,32.3540625
2021-06-21 16:14:19.125000000,-50.0,-4.0,41.0,93.665,-64.08,0.0454765,32.355000000000004
2021-06-21 16:14:19.132812500,-50.0,-4.0,41.0,93.67156250000001,-64.225,0.04535640625,32.3559375
2021-06-21 16:14:19.140625000,-50.0,-4.0,41.0,93.67812500000001,-64.37,0.0452363125,32.356875
2021-06-21 16:14:19.148437500,-50.0,-4.0,41.0,93.68468750000001,-62.095,0.045116218750000006,32.3578125
2021-06-21 16:14:19.156250000,-50.0,-4.0,41.0,93.69125,-59.82,0.044996125000000005,32.35875
2021-06-21 16:14:19.164062500,-50.0,-4.0,41.0,93.6978125,-55.22,0.044876031250000004,32.3596875
2021-06-21 16:14:19.171875000,-50.0,-4.0,41.0,93.704375,-50.62,0.0447559375,32.360625
2021-06-21 16:14:19.179687500,-50.0,-4.0,41.0,93.7109375,-44.295,0.04463584375,32.3615625
2021-06-21 16:14:19.187500000,-50.0,-4.0,41.0,93.7175,-37.97,0.04451575000000001,32.3625
2021-06-21 16:14:19.195312500,-50.0,-4.0,41.0,93.7240625,-30.83,0.044395656250000005,32.363437499999996
2021-06-21 16:14:19.203125000,-50.0,-4.0,41.0,93.730625,-23.69,0.044275562500000004,32.364374999999995
2021-06-21 16:14:19.210937500,-50.0,-4.0,41.0,93.7371875,-16.71,0.04415546875,32.3653125
2021-06-21 16:14:19.218750000,-50.0,-4.0,41.0,93.74375,-9.73,0.044035375,32.36625
2021-06-21 16:14:19.226562500,-50.0,-4.0,41.0,93.7503125,-3.62,0.04391528125,32.3671875
2021-06-21 16:14:19.234375000,-50.0,-4.0,41.0,93.75687500000001,2.49,0.043795187500000006,32.368125
2021-06-21 16:14:19.242187500,-50.0,-4.0,41.0,93.76343750000001,7.365,0.043675093750000005,32.3690625
2021-06-21 16:14:19.250000000,-50.0,-4.0,41.0,93.77000000000001,12.24,0.043555,32.37
2021-06-21 16:14:19.257812500,-50.0,-4.0,41.0,93.7765625,15.844999999999999,0.043675093750000005,32.37
2021-06-21 16:14:19.265625000,-50.0,-4.0,41.0,93.783125,19.45,0.043795187500000006,32.37
2021-06-21 16:14:19.273437500,-50.0,-4.0,41.0,93.7896875,21.895,0.04391528125,32.37
2021-06-21 16:14:19.281250000,-50.0,-4.0,41.0,93.79625,24.34,0.044035375,32.37
2021-06-21 16:14:19.289062500,-50.0,-4.0,41.0,93.8028125,25.785,0.04415546875,32.37
2021-06-21 16:14:19.296875000,-50.0,-4.0,41.0,93.809375,27.23,0.044275562500000004,32.37
2021-06-21 16:14:19.304687500,-50.0,-4.0,41.0,93.8159375,27.78,0.044395656250000005,32.37
2021-06-21 16:14:19.312500000,-50.0,-4.0,41.0,93.8225,28.33,0.04451575000000001,32.37
2021-06-21 16:14:19.320312500,-50.0,-4.0,41.0,93.8290625,28.09,0.04463584375,32.37
2021-06-21 16:14:19.328125000,-50.0,-4.0,41.0,93.83562500000001,27.85,0.0447559375,32.37
2021-06-21 16:14:19.335937500,-50.0,-4.0,41.0,93.84218750000001,26.955,0.044876031250000004,32.37
2021-06-21 16:14:19.343750000,-50.0,-4.0,41.0,93.84875000000001,26.06,0.044996125000000005,32.37
2021-06-21 16:14:19.351562500,-50.0,-4.0,41.0,93.8553125,24.735,0.045116218750000006,32.37
2021-06-21 16:14:19.359375000,-50.0,-4.0,41.0,93.861875,23.41,0.0452363125,32.37
2021-06-21 16:14:19.367187500,-50.0,-4.0,41.0,93.8684375,21.915,0.04535640625,32.37
2021-06-21 16:14:19.375000000,-50.0,-4.0,41.0,93.875,20.42,0.0454765,32.37
2021-06-21 16:14:19.382812500,-50.0,-4.0,41.0,93.8815625,19.01,0.045596593750000004,32.37
2021-06-21 16:14:19.390625000,-50.0,-4.0,41.0,93.888125,17.6,0.045716687500000006,32.37
2021-06-21 16:14:19.398437500,-50.0,-4.0,41.0,93.8946875,16.455000000000002,0.04583678125,32.37
2021-06-21 16:14:19.406250000,-50.0,-4.0,41.0,93.90125,15.31,0.045956875,32.37
2021-06-21 16:14:19.414062500,-50.0,-4.0,41.0,93.9078125,14.495000000000001,0.04607696875,32.37
2021-06-21 16:14:19.421875000,-50.0,-4.0,41.0,93.914375,13.68,0.046197062500000004,32.37
2021-06-21 16:14:19.429687500,-50.0,-4.0,41.0,93.92093750000001,13.2,0.046317156250000005,32.37
2021-06-21 16:14:19.437500000,-50.0,-4.0,41.0,93.92750000000001,12.72,0.04643725,32.37
2021-06-21 16:14:19.445312500,-50.0,-4.0,41.0,93.93406250000001,12.495000000000001,0.04655734375,32.37
2021-06-21 16:14:19.453125000,-50.0,-4.0,41.0,93.940625,12.27,0.0466774375,32.37
2021-06-21 16:14:19.460937500,-50.0,-4.0,41.0,93.9471875,12.219999999999999,0.04679753125,32.37
2021-06-21 16:14:19.468750000,-50.0,-4.0,41.0,93.95375,12.17,0.046917625000000004,32.37
2021-06-21 16:14:19.476562500,-50.0,-4.0,41.0,93.9603125,12.2,0.047037718750000006,32.37
2021-06-21 16:14:19.484375000,-50.0,-4.0,41.0,93.966875,12.23,0.0471578125,32.37
2021-06-21 16:14:19.492187500,-50.0,-4.0,41.0,93.9734375,12.2,0.04727790625,32.37
2021-06-21 16:14:19.500000000,-50.0,-4.0,41.0,93.98,12.17,0.047398,32.37
2021-06-21 16:14:19.507812500,-50.0,-4.0,41.0,93.9865625,11.940000000000001,0.04727790625,32.37
2021-06-21 16:14:19.515625000,-50.0,-4.0,41.0,93.993125,11.71,0.0471578125,32.37
2021-06-21 16:14:19.523437500,-50.0,-4.0,41.0,93.99968750000001,11.125,0.047037718750000006,32.37
2021-06-21 16:14:19.531250000,-50.0,-4.0,41.0,94.00625000000001,10.54,0.046917625000000004,32.37
2021-06-21 16:14:19.539062500,-50.0,-4.0,41.0,94.01281250000001,9.515,0.04679753125,32.37
2021-06-21 16:14:19.546875000,-50.0,-4.0,41.0,94.01937500000001,8.49,0.0466774375,32.37
2021-06-21 16:14:19.554687500,-50.0,-4.0,41.0,94.0259375,6.99,0.04655734375,32.37
2021-06-21 16:14:19.562500000,-50.0,-4.0,41.0,94.0325,5.49,0.04643725,32.37
2021-06-21 16:14:19.570312500,-50.0,-4.0,41.0,94.0390625,3.6,0.046317156250000005,32.37
2021-06-21 16:14:19.578125000,-50.0,-4.0,41.0,94.045625,1.71,0.046197062500000004,32.37
2021-06-21 16:14:19.585937500,-50.0,-4.0,41.0,94.0521875,-0.45999999999999996,0.04607696875,32.37
2021-06-21 16:14:19.593750000,-50.0,-4.0,41.0,94.05875,-2.63,0.045956875,32.37
2021-06-21 16:14:19.601562500,-50.0,-4.0,41.0,94.0653125,-4.93,0.04583678125,32.37
2021-06-21 16:14:19.609375000,-50.0,-4.0,41.0,94.071875,-7.23,0.045716687500000006,32.37
2021-06-21 16:14:19.617187500,-50.0,-4.0,41.0,94.0784375,-9.535,0.045596593750000004,32.37
2021-06-21 16:14:19.625000000,-50.0,-4.0,41.0,94.08500000000001,-11.84,0.0454765,32.37
2021-06-21 16:14:19.632812500,-50.0,-4.0,41.0,94.09156250000001,-14.12,0.04535640625,32.37
2021-06-21 16:14:19.640625000,-50.0,-4.0,41.0,94.09812500000001,-16.4,0.0452363125,32.37
2021-06-21 16:14:19.648437500,-50.0,-4.0,41.0,94.10468750000001,-18.7,0.045116218750000006,32.37
2021-06-21 16:14:19.656250000,-50.0,-4.0,41.0,94.11125,-21.0,0.044996125000000005,32.37
2021-06-21 16:14:19.664062500,-50.0,-4.0,41.0,94.1178125,-23.5,0.044876031250000004,32.37
2021-06-21 16:14:19.671875000,-50.0,-4.0,41.0,94.124375,-26.0,0.0447559375,32.37
2021-06-21 16:14:19.679687500,-50.0,-4.0,41.0,94.1309375,-28.945,0.04463584375,32.37
2021-06-21 16:14:19.687500000,-50.0,-4.0,41.0,94.1375,-31.89,0.04451575000000001,32.37
2021-06-21 16:14:19.695312500,-50.0,-4.0,41.0,94.1440625,-35.480000000000004,0.044395656250000005,32.37
2021-06-21 16:14:19.703125000,-50.0,-4.0,41.0,94.150625,-39.07,0.044275562500000004,32.37
2021-06-21 16:14:19.710937500,-50.0,-4.0,41.0,94.1571875,-43.295,0.04415546875,32.37
2021-06-21 16:14:19.718750000,-50.0,-4.0,41.0,94.16375000000001,-47.52,0.044035375,32.37
2021-06-21 16:14:19.726562500,-50.0,-4.0,41.0,94.17031250000001,-52.005,0.04391528125,32.37
2021-06-21 16:14:19.734375000,-50.0,-4.0,41.0,94.17687500000001,-56.49,0.043795187500000006,32.37
2021-06-21 16:14:19.742187500,-50.0,-4.0,41.0,94.18343750000001,-60.480000000000004,0.043675093750000005,32.37
2021-06-21 16:14:19.750000000,-50.0,-4.0,41.0,94.19,-64.47,0.043555,32.37
2021-06-21 16:14:19.757812500,-50.0,-4.0,41.0,94.1965625,-67.015,0.0436350625,32.37
2021-06-21 16:14:19.765625000,-50.0,-4.0,41.0,94.203125,-69.56,0.043715125,32.37
2021-06-21 16:14:19.773437500,-50.0,-4.0,41.0,94.2096875,-69.81,0.043795187500000006,32.37
2021-06-21 16:14:19.781250000,-50.0,-4.0,41.0,94.21625,-70.06,0.043875250000000005,32.37
2021-06-21 16:14:19.789062500,-50.0,-4.0,41.0,94.2228125,-67.6,0.0439553125,32.37
2021-06-21 16:14:19.796875000,-50.0,-4.0,41.0,94.229375,-65.14,0.044035375,32.37
2021-06-21 16:14:19.804687500,-50.0,-4.0,41.0,94.2359375,-60.185,0.0441154375,32.37
2021-06-21 16:14:19.812500000,-50.0,-4.0,41.0,94.2425,-55.23,0.0441955,32.37
2021-06-21 16:14:19.820312500,-50.0,-4.0,41.0,94.24906250000001,-48.535,0.044275562500000004,32.37
2021-06-21 16:14:19.828125000,-50.0,-4.0,41.0,94.25562500000001,-41.84,0.044355625,32.37
2021-06-21 16:14:19.835937500,-50.0,-4.0,41.0,94.26218750000001,-34.445,0.0444356875,32.37
2021-06-21 16:14:19.843750000,-50.0,-4.0,41.0,94.26875000000001,-27.05,0.04451575,32.37
2021-06-21 16:14:19.851562500,-50.0,-4.0,41.0,94.2753125,-19.915,0.0445958125,32.37
2021-06-21 16:14:19.859375000,-50.0,-4.0,41.0,94.281875,-12.78,0.044675875000000004,32.37
2021-06-21 16:14:19.867187500,-50.0,-4.0,41.0,94.2884375,-6.555,0.0447559375,32.37
2021-06-21 16:14:19.875000000,-50.0,-4.0,41.0,94.295,-0.33,0.044836,32.37
2021-06-21 16:14:19.882812500,-50.0,-4.0,40.75,94.3015625,4.71,0.0449160625,32.37
2021-06-21 16:14:19.890625000,-50.0,-4.0,40.5,94.308125,9.75,0.044996125,32.37
2021-06-21 16:14:19.898437500,-50.0,-4.0,40.25,94.3146875,13.62,0.0450761875,32.37
2021-06-21 16:14:19.906250000,-50.0,-4.0,40.0,94.32125,17.49,0.04515625,32.37
2021-06-21 16:14:19.914062500,-50.0,-4.0,40.25,94.32781250000001,20.33,0.0452363125,32.37
2021-06-21 16:14:19.921875000,-50.0,-4.0,40.5,94.33437500000001,23.17,0.045316375,32.37
2021-06-21 16:14:19.929687500,-50.0,-4.0,40.75,94.34093750000001,25.115000000000002,0.0453964375,32.37
2021-06-21 16:14:19.937500000,-50.0,-4.0,41.0,94.34750000000001,27.06,0.0454765,32.37
2021-06-21 16:14:19.945312500,-50.0,-4.0,41.0,94.35406250000001,28.174999999999997,0.0455565625,32.37
2021-06-21 16:14:19.953125000,-50.0,-4.0,41.0,94.360625,29.29,0.045636625,32.37
2021-06-21 16:14:19.960937500,-50.0,-4.0,41.0,94.3671875,29.625,0.0457166875,32.37
2021-06-21 16:14:19.968750000,-50.0,-4.0,41.0,94.37375,29.96,0.04579675,32.37
2021-06-21 16:14:19.976562500,-50.0,-4.0,41.0,94.3803125,29.6,0.045876812499999996,32.37
2021-06-21 16:14:19.984375000,-50.0,-4.0,41.0,94.386875,29.24,0.045956875,32.37
2021-06-21 16:14:19.992187500,-50.0,-4.0,41.0,94.3934375,28.375,0.0460369375,32.37
2021-06-21 16:14:20.000000000,-50.0,-4.0,41.0,94.4,27.51,0.046117,32.37
2021-06-21 16:14:20.007812500,-50.0,-4.0,41.0,94.40398437500001,26.4,0.046117,32.370625
2021-06-21 16:14:20.015625000,-50.0,-4.0,41.0,94.40796875000001,25.29,0.046117,32.371249999999996
2021-06-21 16:14:20.023437500,-50.0,-4.0,41.0,94.41195312500001,24.195,0.046117,32.371874999999996
2021-06-21 16:14:20.031250000,-50.0,-4.0,41.0,94.41593750000001,23.1,0.046117,32.372499999999995
2021-06-21 16:14:20.039062500,-50.0,-4.0,41.0,94.419921875,22.205,0.046117,32.373124999999995
2021-06-21 16:14:20.046875000,-50.0,-4.0,41.0,94.42390625,21.31,0.046117,32.37375
2021-06-21 16:14:20.054687500,-50.0,-4.0,41.0,94.427890625,20.67,0.046117,32.374375
2021-06-21 16:14:20.062500000,-50.0,-4.0,41.0,94.431875,20.03,0.046117,32.375
2021-06-21 16:14:20.070312500,-50.0,-4.0,41.0,94.435859375,19.605,0.046117,32.375625
2021-06-21 16:14:20.078125000,-50.0,-4.0,41.0,94.43984375000001,19.18,0.046117,32.37625
2021-06-21 16:14:20.085937500,-50.0,-4.0,41.0,94.44382812500001,18.865000000000002,0.046117,32.376875
2021-06-21 16:14:20.093750000,-50.0,-4.0,41.0,94.4478125,18.55,0.046117,32.3775
2021-06-21 16:14:20.101562500,-50.0,-4.0,41.0,94.451796875,18.310000000000002,0.046117,32.378125
2021-06-21 16:14:20.109375000,-50.0,-4.0,41.0,94.45578125,18.07,0.046117,32.37875
2021-06-21 16:14:20.117187500,-50.0,-4.0,41.0,94.459765625,17.895,0.046117,32.379374999999996
2021-06-21 16:14:20.125000000,-50.0,-4.0,41.0,94.46375,17.72,0.046117,32.379999999999995
2021-06-21 16:14:20.132812500,-50.0,-4.0,41.0,94.467734375,17.689999999999998,0.046117,32.380625
2021-06-21 16:14:20.140625000,-50.0,-4.0,41.0,94.47171875000001,17.66,0.046117,32.38125
2021-06-21 16:14:20.148437500,-50.0,-4.0,41.0,94.47570312500001,17.79,0.046117,32.381875
2021-06-21 16:14:20.156250000,-50.0,-4.0,41.0,94.47968750000001,17.92,0.046117,32.3825
2021-06-21 16:14:20.164062500,-50.0,-4.0,41.0,94.483671875,18.125,0.046117,32.383125
2021-06-21 16:14:20.171875000,-50.0,-4.0,41.0,94.48765625,18.33,0.046117,32.38375
2021-06-21 16:14:20.179687500,-50.0,-4.0,41.0,94.491640625,18.409999999999997,0.046117,32.384375
2021-06-21 16:14:20.187500000,-50.0,-4.0,41.0,94.495625,18.49,0.046117,32.385
2021-06-21 16:14:20.195312500,-50.25,-4.0,41.0,94.499609375,18.134999999999998,0.046117,32.385625
2021-06-21 16:14:20.203125000,-50.5,-4.0,41.0,94.50359375000001,17.78,0.046117,32.38625
2021-06-21 16:14:20.210937500,-50.75,-4.0,41.0,94.50757812500001,16.765,0.046117,32.386875
2021-06-21 16:14:20.218750000,-51.0,-4.0,41.0,94.5115625,15.75,0.046117,32.3875
2021-06-21 16:14:20.226562500,-50.75,-4.0,41.0,94.515546875,13.98,0.046117,32.388125
2021-06-21 16:14:20.234375000,-50.5,-4.0,41.0,94.51953125,12.21,0.046117,32.38875
2021-06-21 16:14:20.242187500,-50.25,-4.0,41.0,94.523515625,9.805,0.046117,32.389375
2021-06-21 16:14:20.250000000,-50.0,-4.0,41.0,94.5275,7.4,0.046117,32.39
2021-06-21 16:14:20.257812500,-50.0,-4.0,41.0,94.531484375,4.640000000000001,0.0460369375,32.39
2021-06-21 16:14:20.265625000,-50.0,-4.0,41.0,94.53546875,1.88,0.045956875,32.39
2021-06-21 16:14:20.273437500,-50.0,-4.0,41.0,94.53945312500001,-0.9100000000000001,0.045876812499999996,32.39
2021-06-21 16:14:20.281250000,-50.0,-4.0,41.0,94.54343750000001,-3.7,0.04579675,32.39
2021-06-21 16:14:20.289062500,-50.0,-4.0,41.0,94.547421875,-6.290000000000001,0.0457166875,32.39
2021-06-21 16:14:20.296875000,-50.0,-4.0,41.0,94.55140625,-8.88,0.045636625,32.39
2021-06-21 16:14:20.304687500,-50.0,-4.0,41.0,94.555390625,-11.165,0.0455565625,32.39
2021-06-21 16:14:20.312500000,-50.0,-4.0,41.0,94.559375,-13.45,0.0454765,32.39
2021-06-21 16:14:20.320312500,-50.0,-4.0,41.0,94.563359375,-15.52,0.0453964375,32.39
2021-06-21 16:14:20.328125000,-50.0,-4.0,41.0,94.56734375,-17.59,0.045316375,32.39
2021-06-21 16:14:20.335937500,-50.0,-4.0,41.0,94.57132812500001,-19.67,0.0452363125,32.39
2021-06-21 16:14:20.343750000,-50.0,-4.0,41.0,94.5753125,-21.75,0.04515625,32.39
2021-06-21 16:14:20.351562500,-50.0,-4.0,41.0,94.579296875,-24.085,0.0450761875,32.39
2021-06-21 16:14:20.359375000,-50.0,-4.0,41.0,94.58328125,-26.42,0.044996125,32.39
2021-06-21 16:14:20.367187500,-50.0,-4.0,41.0,94.587265625,-29.245,0.0449160625,32.39
2021-06-21 16:14:20.375000000,-50.0,-4.0,41.0,94.59125,-32.07,0.044836,32.39
2021-06-21 16:14:20.382812500,-50.0,-4.0,41.0,94.595234375,-35.504999999999995,0.0447559375,32.39
2021-06-21 16:14:20.390625000,-50.0,-4.0,41.0,94.59921875,-38.94,0.044675875000000004,32.39
2021-06-21 16:14:20.398437500,-50.0,-4.0,41.0,94.60320312500001,-42.894999999999996,0.0445958125,32.39
2021-06-21 16:14:20.406250000,-50.0,-4.0,41.0,94.60718750000001,-46.85,0.04451575,32.39
2021-06-21 16:14:20.414062500,-50.0,-4.0,41.0,94.611171875,-50.96,0.0444356875,32.39
2021-06-21 16:14:20.421875000,-50.0,-4.0,41.0,94.61515625,-55.07,0.044355625,32.39
2021-06-21 16:14:20.429687500,-50.0,-4.0,41.0,94.619140625,-58.7,0.044275562500000004,32.39
2021-06-21 16:14:20.437500000,-50.0,-4.0,41.0,94.623125,-62.33,0.0441955,32.39
2021-06-21 16:14:20.445312500,-50.0,-4.0,41.0,94.627109375,-64.655,0.0441154375,32.39
2021-06-21 16:14:20.453125000,-50.0,-4.0,41.0,94.63109375,-66.98,0.044035375,32.39
2021-06-21 16:14:20.460937500,-50.0,-4.0,41.0,94.635078125,-67.2,0.0439553125,32.39
2021-06-21 16:14:20.468750000,-50.0,-4.0,41.0,94.6390625,-67.42,0.043875250000000005,32.39
2021-06-21 16:14:20.476562500,-50.0,-4.0,41.0,94.643046875,-65.045,0.043795187500000006,32.39
2021-06-21 16:14:20.484375000,-50.0,-4.0,41.0,94.64703125,-62.67,0.043715125,32.39
2021-06-21 16:14:20.492187500,-50.0,-4.0,41.0,94.651015625,-57.75,0.0436350625,32.39
2021-06-21 16:14:20.500000000,-50.0,-4.0,41.0,94.655,-52.83,0.043555,32.39
2021-06-21 16:14:20.507812500,-50.0,-4.0,41.0,94.658984375,-45.974999999999994,0.043595031250000006,32.39
2021-06-21 16:14:20.515625000,-50.0,-4.0,41.0,94.66296875,-39.12,0.0436350625,32.39
2021-06-21 16:14:20.523437500,-50.0,-4.0,41.0,94.666953125,-31.354999999999997,0.043675093750000005,32.39
2021-06-21 16:14:20.531250000,-50.0,-4.0,41.0,94.67093750000001,-23.59,0.043715125,32.39
2021-06-21 16:14:20.539062500,-50.0,-4.0,41.0,94.674921875,-16.0,0.04375515625,32.39
2021-06-21 16:14:20.546875000,-50.0,-4.0,41.0,94.67890625,-8.41,0.043795187500000006,32.39
2021-06-21 16:14:20.554687500,-50.0,-4.0,41.0,94.682890625,-1.83,0.04383521875,32.39
2021-06-21 16:14:20.562500000,-50.0,-4.0,41.0,94.686875,4.75,0.043875250000000005,32.39
2021-06-21 16:14:20.570312500,-50.0,-4.0,41.0,94.690859375,9.92,0.04391528125,32.39
2021-06-21 16:14:20.578125000,-50.0,-4.0,41.0,94.69484375,15.09,0.0439553125,32.39
2021-06-21 16:14:20.585937500,-50.0,-4.0,41.0,94.698828125,18.869999999999997,0.043995343750000006,32.39
2021-06-21 16:14:20.593750000,-50.0,-4.0,41.0,94.7028125,22.65,0.044035375,32.39
2021-06-21 16:14:20.601562500,-50.0,-4.0,41.0,94.706796875,25.299999999999997,0.044075406250000004,32.39
2021-06-21 16:14:20.609375000,-50.0,-4.0,41.0,94.71078125,27.95,0.0441154375,32.39
2021-06-21 16:14:20.617187500,-50.0,-4.0,41.0,94.714765625,29.744999999999997,0.04415546875,32.39
2021-06-21 16:14:20.625000000,-50.0,-4.0,41.0,94.71875,31.54,0.0441955,32.39
2021-06-21 16:14:20.632812500,-50.0,-4.0,40.75,94.722734375,32.655,0.04423553125,32.39
2021-06-21 16:14:20.640625000,-50.0,-4.0,40.5,94.72671875,33.77,0.044275562500000004,32.39
2021-06-21 16:14:20.648437500,-50.0,-4.0,40.25,94.730703125,34.265,0.04431559375,32.39
2021-06-21 16:14:20.656250000,-50.0,-4.0,40.0,94.7346875,34.76,0.044355625,32.39
2021-06-21 16:14:20.664062500,-50.0,-4.0,40.25,94.738671875,34.655,0.04439565625,32.39
2021-06-21 16:14:20.671875000,-50.0,-4.0,40.5,94.74265625,34.55,0.0444356875,32.39
2021-06-21 16:14:20.679687500,-50.0,-4.0,40.75,94.746640625,33.959999999999994,0.044475718750000004,32.39
2021-06-21 16:14:20.687500000,-50.0,-4.0,41.0,94.750625,33.37,0.04451575,32.39
2021-06-21 16:14:20.695312500,-50.0,-4.0,41.0,94.754609375,32.53,0.04455578125,32.39
2021-06-21 16:14:20.703125000,-50.0,-4.0,41.0,94.75859375,31.69,0.0445958125,32.39
2021-06-21 16:14:20.710937500,-50.0,-4.0,41.0,94.762578125,30.87,0.04463584375,32.39
2021-06-21 16:14:20.718750000,-50.0,-4.0,41.0,94.76656249999999,30.05,0.044675875000000004,32.39
2021-06-21 16:14:20.726562500,-50.0,-4.0,41.0,94.770546875,29.475,0.04471590625,32.39
2021-06-21 16:14:20.734375000,-50.0,-4.0,41.0,94.77453125,28.9,0.0447559375,32.39
2021-06-21 16:14:20.742187500,-50.0,-4.0,41.0,94.778515625,28.645,0.04479596875,32.39
2021-06-21 16:14:20.750000000,-50.0,-4.0,41.0,94.7825,28.39,0.044836,32.39
2021-06-21 16:14:20.757812500,-50.0,-4.0,41.0,94.786484375,28.335,0.04479596875,32.39
2021-06-21 16:14:20.765625000,-50.0,-4.0,41.0,94.79046875,28.28,0.0447559375,32.39
2021-06-21 16:14:20.773437500,-50.0,-4.0,41.0,94.794453125,28.240000000000002,0.04471590625,32.39
2021-06-21 16:14:20.781250000,-50.0,-4.0,41.0,94.7984375,28.2,0.044675875000000004,32.39
2021-06-21 16:14:20.789062500,-50.0,-4.0,41.0,94.802421875,28.005,0.04463584375,32.39
2021-06-21 16:14:20.796875000,-50.0,-4.0,41.0,94.80640625,27.81,0.0445958125,32.39
2021-06-21 16:14:20.804687500,-50.0,-4.0,41.0,94.810390625,27.41,0.04455578125,32.39
2021-06-21 16:14:20.812500000,-50.0,-4.0,41.0,94.814375,27.01,0.04451575,32.39
2021-06-21 16:14:20.820312500,-50.0,-4.0,41.0,94.818359375,26.51,0.044475718750000004,32.39
2021-06-21 16:14:20.828125000,-50.0,-4.0,41.0,94.82234375,26.01,0.0444356875,32.39
2021-06-21 16:14:20.835937500,-50.0,-4.0,41.0,94.826328125,25.58,0.04439565625,32.39
2021-06-21 16:14:20.843750000,-50.0,-4.0,41.0,94.83031249999999,25.15,0.044355625,32.39
2021-06-21 16:14:20.851562500,-50.0,-4.0,41.0,94.83429687499999,24.91,0.04431559375,32.39
2021-06-21 16:14:20.859375000,-50.0,-4.0,41.0,94.83828125,24.67,0.044275562500000004,32.39
2021-06-21 16:14:20.867187500,-50.0,-4.0,41.0,94.842265625,24.61,0.04423553125,32.39
2021-06-21 16:14:20.875000000,-50.0,-4.0,41.0,94.84625,24.55,0.0441955,32.39
2021-06-21 16:14:20.882812500,-50.0,-4.0,41.0,94.850234375,24.465,0.04415546875,32.39
2021-06-21 16:14:20.890625000,-50.0,-4.0,41.0,94.85421875,24.38,0.0441154375,32.39
2021-06-21 16:14:20.898437500,-50.0,-4.0,41.0,94.858203125,23.990000000000002,0.044075406250000004,32.39
2021-06-21 16:14:20.906250000,-50.0,-4.0,41.0,94.8621875,23.6,0.044035375,32.39
2021-06-21 16:14:20.914062500,-50.0,-4.0,40.75,94.86617187499999,22.645000000000003,0.043995343750000006,32.39
2021-06-21 16:14:20.921875000,-50.0,-4.0,40.5,94.87015625,21.69,0.0439553125,32.39
2021-06-21 16:14:20.929687500,-50.0,-4.0,40.25,94.874140625,20.075000000000003,0.04391528125,32.39
2021-06-21 16:14:20.937500000,-50.0,-4.0,40.0,94.878125,18.46,0.043875250000000005,32.39
2021-06-21 16:14:20.945312500,-50.0,-4.0,40.25,94.882109375,16.265,0.04383521875,32.39
2021-06-21 16:14:20.953125000,-50.0,-4.0,40.5,94.88609375,14.07,0.043795187500000006,32.39
2021-06-21 16:14:20.960937500,-50.0,-4.0,40.75,94.890078125,11.530000000000001,0.04375515625,32.39
2021-06-21 16:14:20.968750000,-50.0,-4.0,41.0,94.89406249999999,8.99,0.043715125,32.39
2021-06-21 16:14:20.976562500,-50.0,-4.0,41.0,94.89804687499999,6.395,0.043675093750000005,32.39
2021-06-21 16:14:20.984375000,-50.0,-4.0,41.0,94.90203125,3.8,0.0436350625,32.39
2021-06-21 16:14:20.992187500,-50.0,-4.0,41.0,94.906015625,1.3849999999999998,0.043595031250000006,32.39
2021-06-21 16:14:21.000000000,-50.0,-4.0,41.0,94.91,-1.03,0.043555,32.39
2021-06-21 16:14:21.007812500,-50.0,-4.0,41.0,94.91265625,-3.16,0.0436350625,32.39
2021-06-21 16:14:21.015625000,-50.0,-4.0,41.0,94.9153125,-5.29,0.043715125,32.39
2021-06-21 16:14:21.023437500,-50.0,-4.0,41.0,94.91796875,-7.195,0.043795187500000006,32.39
2021-06-21 16:14:21.031250000,-50.0,-4.0,41.0,94.920625,-9.1,0.043875250000000005,32.39
2021-06-21 16:14:21.039062500,-50.0,-4.0,41.0,94.92328125,-10.955,0.0439553125,32.39
2021-06-21 16:14:21.046875000,-50.0,-4.0,41.0,94.9259375,-12.81,0.044035375,32.39
2021-06-21 16:14:21.054687500,-50.0,-4.0,41.0,94.92859374999999,-14.825,0.0441154375,32.39
2021-06-21 16:14:21.062500000,-50.0,-4.0,41.0,94.93124999999999,-16.84,0.0441955,32.39
2021-06-21 16:14:21.070312500,-50.0,-4.0,41.0,94.93390624999999,-19.240000000000002,0.044275562500000004,32.39
2021-06-21 16:14:21.078125000,-50.0,-4.0,41.0,94.9365625,-21.64,0.044355625,32.39
2021-06-21 16:14:21.085937500,-50.0,-4.0,41.0,94.93921875,-24.585,0.0444356875,32.39
2021-06-21 16:14:21.093750000,-50.0,-4.0,41.0,94.941875,-27.53,0.04451575,32.39
2021-06-21 16:14:21.101562500,-50.0,-4.0,41.0,94.94453125,-31.015,0.0445958125,32.39
2021-06-21 16:14:21.109375000,-50.0,-4.0,41.0,94.9471875,-34.5,0.044675875000000004,32.39
2021-06-21 16:14:21.117187500,-50.0,-4.0,41.0,94.94984375,-38.305,0.0447559375,32.39
2021-06-21 16:14:21.125000000,-50.0,-4.0,41.0,94.9525,-42.11,0.044836,32.39
2021-06-21 16:14:21.132812500,-50.0,-4.0,41.0,94.95515625,-45.730000000000004,0.0449160625,32.39
2021-06-21 16:14:21.140625000,-50.0,-4.0,41.0,94.9578125,-49.35,0.044996125,32.39
2021-06-21 16:14:21.148437500,-50.0,-4.0,41.0,94.96046875,-52.075,0.0450761875,32.39
2021-06-21 16:14:21.156250000,-50.0,-4.0,41.0,94.96312499999999,-54.8,0.04515625,32.39
2021-06-21 16:14:21.164062500,-50.0,-4.0,41.0,94.96578124999999,-55.87,0.0452363125,32.39
2021-06-21 16:14:21.171875000,-50.0,-4.0,41.0,94.9684375,-56.94,0.045316375,32.39
2021-06-21 16:14:21.179687500,-50.0,-4.0,41.0,94.97109375,-55.815,0.0453964375,32.39
2021-06-21 16:14:21.187500000,-50.0,-4.0,41.0,94.97375,-54.69,0.0454765,32.39
2021-06-21 16:14:21.195312500,-50.0,-4.0,41.0,94.97640625,-51.254999999999995,0.0455565625,32.39
2021-06-21 16:14:21.203125000,-50.0,-4.0,41.0,94.9790625,-47.82,0.045636625,32.39
2021-06-21 16:14:21.210937500,-50.0,-4.0,41.0,94.98171875,-42.45,0.0457166875,32.39
2021-06-21 16:14:21.218750000,-50.0,-4.0,41.0,94.984375,-37.08,0.04579675,32.39
2021-06-21 16:14:21.226562500,-50.0,-4.0,41.0,94.98703125,-30.555,0.045876812499999996,32.39
2021-06-21 16:14:21.234375000,-50.0,-4.0,41.0,94.9896875,-24.03,0.045956875,32.39
2021-06-21 16:14:21.242187500,-50.0,-4.0,41.0,94.99234375,-17.23,0.0460369375,32.39
2021-06-21 16:14:21.250000000,-50.0,-4.0,41.0,94.995,-10.43,0.046117,32.39
2021-06-21 16:14:21.257812500,-50.0,-4.0,41.0,94.99765624999999,-4.135,0.0460369375,32.39
2021-06-21 16:14:21.265625000,-50.0,-4.0,41.0,95.00031249999999,2.16,0.045956875,32.39
2021-06-21 16:14:21.273437500,-50.0,-4.0,41.0,95.00296875,7.47,0.045876812499999996,32.39
2021-06-21 16:14:21.281250000,-50.0,-4.0,41.0,95.005625,12.78,0.04579675,32.39
2021-06-21 16:14:21.289062500,-50.0,-4.0,41.0,95.00828125,16.93,0.0457166875,32.39
2021-06-21 16:14:21.296875000,-50.0,-4.0,41.0,95.0109375,21.08,0.045636625,32.39
2021-06-21 16:14:21.304687500,-50.0,-4.0,41.0,95.01359375,24.095,0.0455565625,32.39
2021-06-21 16:14:21.312500000,-50.0,-4.0,41.0,95.01625,27.11,0.0454765,32.39
2021-06-21 16:14:21.320312500,-50.0,-4.0,41.0,95.01890625,29.09,0.0453964375,32.39
2021-06-21 16:14:21.328125000,-50.0,-4.0,41.0,95.0215625,31.07,0.045316375,32.39
2021-06-21 16:14:21.335937500,-50.0,-4.0,41.0,95.02421875,32.11,0.0452363125,32.39
2021-06-21 16:14:21.343750000,-50.0,-4.0,41.0,95.026875,33.15,0.04515625,32.39
2021-06-21 16:14:21.351562500,-50.0,-4.0,41.0,95.02953124999999,33.335,0.0450761875,32.39
2021-06-21 16:14:21.359375000,-50.0,-4.0,41.0,95.03218749999999,33.52,0.044996125,32.39
2021-06-21 16:14:21.367187500,-50.0,-4.0,41.0,95.03484375,32.975,0.0449160625,32.39
2021-06-21 16:14:21.375000000,-50.0,-4.0,41.0,95.0375,32.43,0.044836,32.39
2021-06-21 16:14:21.382812500,-50.0,-4.0,41.0,95.04015625,31.384999999999998,0.0447559375,32.39
2021-06-21 16:14:21.390625000,-50.0,-4.0,41.0,95.0428125,30.34,0.044675875000000004,32.39
2021-06-21 16:14:21.398437500,-50.0,-4.0,41.0,95.04546875,29.08,0.0445958125,32.39
2021-06-21 16:14:21.406250000,-50.0,-4.0,41.0,95.048125,27.82,0.04451575,32.39
2021-06-21 16:14:21.414062500,-50.0,-4.0,41.0,95.05078125,26.705,0.0444356875,32.39
2021-06-21 16:14:21.421875000,-50.0,-4.0,41.0,95.0534375,25.59,0.044355625,32.39
2021-06-21 16:14:21.429687500,-50.0,-4.0,41.0,95.05609375,24.905,0.044275562500000004,32.39
2021-06-21 16:14:21.437500000,-50.0,-4.0,41.0,95.05875,24.22,0.0441955,32.39
2021-06-21 16:14:21.445312500,-50.0,-4.0,41.0,95.06140625,24.13,0.0441154375,32.39
2021-06-21 16:14:21.453125000,-50.0,-4.0,41.0,95.06406249999999,24.04,0.044035375,32.39
2021-06-21 16:14:21.460937500,-50.0,-4.0,41.0,95.06671874999999,24.54,0.0439553125,32.39
2021-06-21 16:14:21.468750000,-50.0,-4.0,41.0,95.069375,25.04,0.043875250000000005,32.39
2021-06-21 16:14:21.476562500,-50.0,-4.0,41.0,95.07203125,25.97,0.043795187500000006,32.39
2021-06-21 16:14:21.484375000,-50.0,-4.0,41.0,95.0746875,26.9,0.043715125,32.39
2021-06-21 16:14:21.492187500,-50.0,-4.0,41.0,95.07734375,28.015,0.0436350625,32.39
2021-06-21 16:14:21.500000000,-50.0,-4.0,41.0,95.08,29.13,0.043555,32.39
2021-06-21 16:14:21.507812500,-50.0,-4.0,41.0,95.08265625,30.174999999999997,0.0436350625,32.39
2021-06-21 16:14:21.515625000,-50.0,-4.0,41.0,95.0853125,31.22,0.043715125,32.39
2021-06-21 16:14:21.523437500,-50.0,-4.0,41.0,95.08796875,32.019999999999996,0.043795187500000006,32.39
2021-06-21 16:14:21.531250000,-50.0,-4.0,41.0,95.090625,32.82,0.043875250000000005,32.39
2021-06-21 16:14:21.539062500,-50.0,-4.0,41.0,95.09328125,33.3,0.0439553125,32.39
2021-06-21 16:14:21.546875000,-50.0,-4.0,41.0,95.0959375,33.78,0.044035375,32.39
2021-06-21 16:14:21.554687500,-50.0,-4.0,41.0,95.09859374999999,33.97,0.0441154375,32.39
2021-06-21 16:14:21.562500000,-50.0,-4.0,41.0,95.10125,34.16,0.0441955,32.39
2021-06-21 16:14:21.570312500,-50.0,-4.0,41.0,95.10390625,34.099999999999994,0.044275562500000004,32.39
2021-06-21 16:14:21.578125000,-50.0,-4.0,41.0,95.1065625,34.04,0.044355625,32.39
2021-06-21 16:14:21.585937500,-50.0,-4.0,41.0,95.10921875,33.8,0.0444356875,32.39
2021-06-21 16:14:21.593750000,-50.0,-4.0,41.0,95.111875,33.56,0.04451575,32.39
2021-06-21 16:14:21.601562500,-50.0,-4.0,41.0,95.11453125,33.144999999999996,0.0445958125,32.39
2021-06-21 16:14:21.609375000,-50.0,-4.0,41.0,95.1171875,32.73,0.044675875000000004,32.39
2021-06-21 16:14:21.617187500,-50.0,-4.0,41.0,95.11984375,32.105,0.0447559375,32.39
2021-06-21 16:14:21.625000000,-50.0,-4.0,41.0,95.1225,31.48,0.044836,32.39
2021-06-21 16:14:21.632812500,-50.0,-4.0,41.0,95.12515625,30.58,0.0449160625,32.39
2021-06-21 16:14:21.640625000,-50.0,-4.0,41.0,95.1278125,29.68,0.044996125,32.39
2021-06-21 16:14:21.648437500,-50.0,-4.0,41.0,95.13046875,28.425,0.0450761875,32.39
2021-06-21 16:14:21.656250000,-50.0,-4.0,41.0,95.13312499999999,27.17,0.04515625,32.39
2021-06-21 16:14:21.664062500,-50.0,-4.0,41.0,95.13578125,25.520000000000003,0.0452363125,32.39
2021-06-21 16:14:21.671875000,-50.0,-4.0,41.0,95.1384375,23.87,0.045316375,32.39
2021-06-21 16:14:21.679687500,-50.0,-4.0,41.0,95.14109375,21.835,0.0453964375,32.39
2021-06-21 16:14:21.687500000,-50.0,-4.0,41.0,95.14375,19.8,0.0454765,32.39
2021-06-21 16:14:21.695312500,-50.0,-4.0,41.0,95.14640625,17.475,0.0455565625,32.39
2021-06-21 16:14:21.703125000,-50.0,-4.0,41.0,95.1490625,15.15,0.045636625,32.39
2021-06-21 16:14:21.710937500,-50.0,-4.0,41.0,95.15171875,12.690000000000001,0.0457166875,32.39
2021-06-21 16:14:21.718750000,-50.0,-4.0,41.0,95.154375,10.23,0.04579675,32.39
2021-06-21 16:14:21.726562500,-50.0,-4.0,41.0,95.15703125,7.805,0.045876812499999996,32.39
2021-06-21 16:14:21.734375000,-50.0,-4.0,41.0,95.1596875,5.38,0.045956875,32.39
2021-06-21 16:14:21.742187500,-50.0,-4.0,41.0,95.16234375,3.1149999999999998,0.0460369375,32.39
2021-06-21 16:14:21.750000000,-50.0,-4.0,41.0,95.16499999999999,0.85,0.046117,32.39
2021-06-21 16:14:21.757812500,-50.0,-4.0,40.75,95.16765625,-1.21,0.0460369375,32.39
2021-06-21 16:14:21.765625000,-50.0,-4.0,40.5,95.1703125,-3.27,0.045956875,32.39
2021-06-21 16:14:21.773437500,-50.0,-4.0,40.25,95.17296875,-5.185,0.045876812499999996,32.39
2021-06-21 16:14:21.781250000,-50.0,-4.0,40.0,95.175625,-7.1,0.04579675,32.39
2021-06-21 16:14:21.789062500,-50.0,-4.0,40.25,95.17828125,-8.985,0.0457166875,32.39
2021-06-21 16:14:21.796875000,-50.0,-4.0,40.5,95.1809375,-10.87,0.045636625,32.39
2021-06-21 16:14:21.804687500,-50.0,-4.0,40.75,95.18359375,-12.875,0.0455565625,32.39
2021-06-21 16:14:21.812500000,-50.0,-4.0,41.0,95.18625,-14.88,0.0454765,32.39
2021-06-21 16:14:21.820312500,-50.0,-4.0,41.0,95.18890625,-17.155,0.0453964375,32.39
2021-06-21 16:14:21.828125000,-50.0,-4.0,41.0,95.1915625,-19.43,0.045316375,32.39
2021-06-21 16:14:21.835937500,-50.0,-4.0,41.0,95.19421875,-22.105,0.0452363125,32.39
2021-06-21 16:14:21.843750000,-50.0,-4.0,41.0,95.196875,-24.78,0.04515625,32.39
2021-06-21 16:14:21.851562500,-50.0,-4.0,41.0,95.19953124999999,-27.91,0.0450761875,32.39
2021-06-21 16:14:21.859375000,-50.0,-4.0,41.0,95.2021875,-31.04,0.044996125,32.39
2021-06-21 16:14:21.867187500,-50.0,-4.0,41.0,95.20484375,-34.53,0.0449160625,32.39
2021-06-21 16:14:21.875000000,-50.0,-4.0,41.0,95.2075,-38.02,0.044836,32.39
2021-06-21 16:14:21.882812500,-50.0,-4.0,41.0,95.21015625,-41.535,0.0447559375,32.39
2021-06-21 16:14:21.890625000,-50.0,-4.0,41.0,95.2128125,-45.05,0.044675875000000004,32.39
2021-06-21 16:14:21.898437500,-50.0,-4.0,41.0,95.21546875,-48.0,0.0445958125,32.39
2021-06-21 16:14:21.906250000,-50.0,-4.0,41.0,95.218125,-50.95,0.04451575,32.39
2021-06-21 16:14:21.914062500,-50.0,-4.0,41.0,95.22078125,-52.585,0.0444356875,32.39
2021-06-21 16:14:21.921875000,-50.0,-4.0,41.0,95.2234375,-54.22,0.044355625,32.39
2021-06-21 16:14:21.929687500,-50.0,-4.0,41.0,95.22609375,-53.875,0.044275562500000004,32.39
2021-06-21 16:14:21.937500000,-50.0,-4.0,41.0,95.22875,-53.53,0.0441955,32.39
2021-06-21 16:14:21.945312500,-50.0,-4.0,41.0,95.23140625,-50.870000000000005,0.0441154375,32.39
2021-06-21 16:14:21.953125000,-50.0,-4.0,41.0,95.2340625,-48.21,0.044035375,32.39
2021-06-21 16:14:21.960937500,-50.0,-4.0,41.0,95.23671875,-43.379999999999995,0.0439553125,32.39
2021-06-21 16:14:21.968750000,-50.0,-4.0,41.0,95.239375,-38.55,0.043875250000000005,32.39
2021-06-21 16:14:21.976562500,-50.0,-4.0,41.0,95.24203125,-32.16,0.043795187500000006,32.39
2021-06-21 16:14:21.984375000,-50.0,-4.0,41.0,95.2446875,-25.77,0.043715125,32.39
2021-06-21 16:14:21.992187500,-50.0,-4.0,41.0,95.24734375,-18.695,0.0436350625,32.39
2021-06-21 16:14:22.000000000,-50.0,-4.0,41.0,95.25,-11.62,0.043555,32.39
2021-06-21 16:14:22.007812500,-50.0,-4.0,41.0,95.251640625,-4.734999999999999,0.043595031250000006,32.39
2021-06-21 16:14:22.015625000,-50.0,-4.0,41.0,95.25328125,2.15,0.0436350625,32.39
2021-06-21 16:14:22.023437500,-50.0,-4.0,41.0,95.254921875,8.185,0.043675093750000005,32.39
2021-06-21 16:14:22.031250000,-50.0,-4.0,41.0,95.2565625,14.22,0.043715125,32.39
2021-06-21 16:14:22.039062500,-50.0,-4.0,41.0,95.258203125,19.04,0.04375515625,32.39
2021-06-21 16:14:22.046875000,-50.0,-4.0,41.0,95.25984375,23.86,0.043795187500000006,32.39
2021-06-21 16:14:22.054687500,-50.0,-4.0,41.0,95.261484375,27.369999999999997,0.04383521875,32.39
2021-06-21 16:14:22.062500000,-50.0,-4.0,41.0,95.263125,30.88,0.043875250000000005,32.39
2021-06-21 16:14:22.070312500,-50.25,-4.0,40.75,95.264765625,33.14,0.04391528125,32.39
2021-06-21 16:14:22.078125000,-50.5,-4.0,40.5,95.26640625,35.4,0.0439553125,32.39
2021-06-21 16:14:22.085937500,-50.75,-4.0,40.25,95.268046875,36.535,0.043995343750000006,32.39
2021-06-21 16:14:22.093750000,-51.0,-4.0,40.0,95.2696875,37.67,0.044035375,32.39
2021-06-21 16:14:22.101562500,-50.75,-4.0,40.25,95.271328125,37.845,0.044075406250000004,32.39
2021-06-21 16:14:22.109375000,-50.5,-4.0,40.5,95.27296875,38.02,0.0441154375,32.39
2021-06-21 16:14:22.117187500,-50.25,-4.0,40.75,95.274609375,37.445,0.04415546875,32.39
2021-06-21 16:14:22.125000000,-50.0,-4.0,41.0,95.27625,36.87,0.0441955,32.39
2021-06-21 16:14:22.132812500,-50.0,-4.0,41.0,95.277890625,35.81,0.04423553125,32.39
2021-06-21 16:14:22.140625000,-50.0,-4.0,41.0,95.27953125,34.75,0.044275562500000004,32.39
2021-06-21 16:14:22.148437500,-50.0,-4.0,41.0,95.281171875,33.489999999999995,0.04431559375,32.39
2021-06-21 16:14:22.156250000,-50.0,-4.0,41.0,95.2828125,32.23,0.044355625,32.39
2021-06-21 16:14:22.164062500,-50.0,-4.0,41.0,95.284453125,31.034999999999997,0.04439565625,32.39
2021-06-21 16:14:22.171875000,-50.0,-4.0,41.0,95.28609374999999,29.84,0.0444356875,32.39
2021-06-21 16:14:22.179687500,-50.0,-4.0,41.0,95.287734375,28.895,0.044475718750000004,32.39
2021-06-21 16:14:22.187500000,-50.0,-4.0,41.0,95.28937499999999,27.95,0.04451575,32.39
2021-06-21 16:14:22.195312500,-50.0,-4.0,41.0,95.291015625,27.335,0.04455578125,32.39
2021-06-21 16:14:22.203125000,-50.0,-4.0,41.0,95.29265625,26.72,0.0445958125,32.39
2021-06-21 16:14:22.210937500,-50.0,-4.0,41.0,95.294296875,26.395,0.04463584375,32.39
2021-06-21 16:14:22.218750000,-50.0,-4.0,41.0,95.2959375,26.07,0.044675875000000004,32.39
2021-06-21 16:14:22.226562500,-50.0,-4.0,41.0,95.297578125,25.92,0.04471590625,32.39
2021-06-21 16:14:22.234375000,-50.0,-4.0,41.0,95.29921875,25.77,0.0447559375,32.39
2021-06-21 16:14:22.242187500,-50.0,-4.0,41.0,95.300859375,25.689999999999998,0.04479596875,32.39
2021-06-21 16:14:22.250000000,-50.0,-4.0,41.0,95.3025,25.61,0.044836,32.39
2021-06-21 16:14:22.257812500,-50.0,-4.0,41.0,95.304140625,25.494999999999997,0.04479596875,32.39
2021-06-21 16:14:22.265625000,-50.0,-4.0,41.0,95.30578125,25.38,0.0447559375,32.39
2021-06-21 16:14:22.273437500,-50.0,-4.0,41.0,95.307421875,25.205,0.04471590625,32.39
2021-06-21 16:14:22.281250000,-50.0,-4.0,41.0,95.3090625,25.03,0.044675875000000004,32.39
2021-06-21 16:14:22.289062500,-50.0,-4.0,41.0,95.310703125,24.775,0.04463584375,32.39
2021-06-21 16:14:22.296875000,-50.0,-4.0,41.0,95.31234375,24.52,0.0445958125,32.39
2021-06-21 16:14:22.304687500,-50.0,-4.0,41.0,95.313984375,24.21,0.04455578125,32.39
2021-06-21 16:14:22.312500000,-50.0,-4.0,41.0,95.315625,23.9,0.04451575,32.39
2021-06-21 16:14:22.320312500,-50.0,-4.0,41.0,95.317265625,23.5,0.044475718750000004,32.39
2021-06-21 16:14:22.328125000,-50.0,-4.0,41.0,95.31890625,23.1,0.0444356875,32.39
2021-06-21 16:14:22.335937500,-50.0,-4.0,41.0,95.32054687499999,22.53,0.04439565625,32.39
2021-06-21 16:14:22.343750000,-50.0,-4.0,41.0,95.3221875,21.96,0.044355625,32.39
2021-06-21 16:14:22.351562500,-50.0,-4.0,40.75,95.32382812499999,21.115000000000002,0.04431559375,32.39
2021-06-21 16:14:22.359375000,-50.0,-4.0,40.5,95.32546875,20.27,0.044275562500000004,32.39
2021-06-21 16:14:22.367187500,-50.0,-4.0,40.25,95.32710937499999,19.03,0.04423553125,32.39
2021-06-21 16:14:22.375000000,-50.0,-4.0,40.0,95.32875,17.79,0.0441955,32.39
2021-06-21 16:14:22.382812500,-50.0,-4.0,40.25,95.33039062499999,16.075,0.04415546875,32.39
2021-06-21 16:14:22.390625000,-50.0,-4.0,40.5,95.33203125,14.36,0.0441154375,32.39
2021-06-21 16:14:22.398437500,-50.0,-4.0,40.75,95.333671875,12.205,0.044075406250000004,32.39
2021-06-21 16:14:22.406250000,-50.0,-4.0,41.0,95.3353125,10.05,0.044035375,32.39
2021-06-21 16:14:22.414062500,-50.0,-4.0,41.0,95.336953125,7.575,0.043995343750000006,32.39
2021-06-21 16:14:22.421875000,-50.0,-4.0,41.0,95.33859375,5.1,0.0439553125,32.39
2021-06-21 16:14:22.429687500,-50.0,-4.0,41.0,95.340234375,2.485,0.04391528125,32.39
2021-06-21 16:14:22.437500000,-50.0,-4.0,41.0,95.341875,-0.13,0.043875250000000005,32.39
2021-06-21 16:14:22.445312500,-50.0,-4.0,41.0,95.343515625,-2.69,0.04383521875,32.39
2021-06-21 16:14:22.453125000,-50.0,-4.0,41.0,95.34515625,-5.25,0.043795187500000006,32.39
2021-06-21 16:14:22.460937500,-50.0,-4.0,41.0,95.346796875,-7.645,0.04375515625,32.39
2021-06-21 16:14:22.468750000,-50.0,-4.0,41.0,95.3484375,-10.04,0.043715125,32.39
2021-06-21 16:14:22.476562500,-50.0,-4.0,41.0,95.350078125,-12.274999999999999,0.043675093750000005,32.39
2021-06-21 16:14:22.484375000,-50.0,-4.0,41.0,95.35171875,-14.51,0.0436350625,32.39
2021-06-21 16:14:22.492187500,-50.0,-4.0,41.0,95.353359375,-16.71,0.043595031250000006,32.39
2021-06-21 16:14:22.500000000,-50.0,-4.0,41.0,95.35499999999999,-18.91,0.043555,32.39
2021-06-21 16:14:22.507812500,-50.0,-4.0,41.0,95.356640625,-21.28,0.0436350625,32.39
2021-06-21 16:14:22.515625000,-50.0,-4.0,41.0,95.35828124999999,-23.65,0.043715125,32.39
2021-06-21 16:14:22.523437500,-50.0,-4.0,41.0,95.359921875,-26.405,0.043795187500000006,32.39
2021-06-21 16:14:22.531250000,-50.0,-4.0,41.0,95.36156249999999,-29.16,0.043875250000000005,32.39
2021-06-21 16:14:22.539062500,-50.0,-4.0,40.75,95.363203125,-32.45,0.0439553125,32.39
2021-06-21 16:14:22.546875000,-50.0,-4.0,40.5,95.36484374999999,-35.74,0.044035375,32.39
2021-06-21 16:14:22.554687500,-50.0,-4.0,40.25,95.366484375,-39.545,0.0441154375,32.39
2021-06-21 16:14:22.562500000,-50.0,-4.0,40.0,95.36812499999999,-43.35,0.0441955,32.39
2021-06-21 16:14:22.570312500,-50.0,-4.0,40.25,95.369765625,-47.42,0.044275562500000004,32.39
2021-06-21 16:14:22.578125000,-50.0,-4.0,40.5,95.37140624999999,-51.49,0.044355625,32.39
2021-06-21 16:14:22.585937500,-50.0,-4.0,40.75,95.373046875,-55.32,0.0444356875,32.39
2021-06-21 16:14:22.593750000,-50.0,-4.0,41.0,95.3746875,-59.15,0.04451575,32.39
2021-06-21 16:14:22.601562500,-50.0,-4.0,41.0,95.376328125,-62.040000000000006,0.0445958125,32.39
2021-06-21 16:14:22.609375000,-50.0,-4.0,41.0,95.37796875,-64.93,0.044675875000000004,32.39
2021-06-21 16:14:22.617187500,-50.0,-4.0,41.0,95.379609375,-66.165,0.0447559375,32.39
2021-06-21 16:14:22.625000000,-50.0,-4.0,41.0,95.38125,-67.4,0.044836,32.39
2021-06-21 16:14:22.632812500,-50.0,-4.0,41.0,95.382890625,-66.445,0.0449160625,32.39
2021-06-21 16:14:22.640625000,-50.0,-4.0,41.0,95.38453125,-65.49,0.044996125,32.39
2021-06-21 16:14:22.648437500,-50.0,-4.0,41.0,95.386171875,-62.224999999999994,0.0450761875,32.39
2021-06-21 16:14:22.656250000,-50.0,-4.0,41.0,95.3878125,-58.96,0.04515625,32.39
2021-06-21 16:14:22.664062500,-50.0,-4.0,41.0,95.389453125,-53.725,0.0452363125,32.39
2021-06-21 16:14:22.671875000,-50.0,-4.0,41.0,95.39109375,-48.49,0.045316375,32.39
2021-06-21 16:14:22.679687500,-50.0,-4.0,41.0,95.39273437499999,-42.025000000000006,0.0453964375,32.39
2021-06-21 16:14:22.687500000,-50.0,-4.0,41.0,95.394375,-35.56,0.0454765,32.39
2021-06-21 16:14:22.695312500,-50.0,-4.0,41.0,95.39601562499999,-28.745,0.0455565625,32.39
2021-06-21 16:14:22.703125000,-50.0,-4.0,41.0,95.39765625,-21.93,0.045636625,32.39
2021-06-21 16:14:22.710937500,-50.0,-4.0,41.0,95.39929687499999,-15.530000000000001,0.0457166875,32.39
2021-06-21 16:14:22.718750000,-50.0,-4.0,41.0,95.4009375,-9.13,0.04579675,32.39
2021-06-21 16:14:22.726562500,-50.0,-4.0,41.0,95.40257812499999,-3.6100000000000003,0.045876812499999996,32.39
2021-06-21 16:14:22.734375000,-50.0,-4.0,41.0,95.40421875,1.91,0.045956875,32.39
2021-06-21 16:14:22.742187500,-50.0,-4.0,41.0,95.40585937499999,6.405,0.0460369375,32.39
2021-06-21 16:14:22.750000000,-50.0,-4.0,41.0,95.4075,10.9,0.046117,32.39
2021-06-21 16:14:22.757812500,-50.0,-4.0,41.0,95.40914062499999,14.434999999999999,0.0460369375,32.39
2021-06-21 16:14:22.765625000,-50.0,-4.0,41.0,95.41078125,17.97,0.045956875,32.39
2021-06-21 16:14:22.773437500,-50.0,-4.0,41.0,95.41242187499999,20.634999999999998,0.045876812499999996,32.39
2021-06-21 16:14:22.781250000,-50.0,-4.0,41.0,95.4140625,23.3,0.04579675,32.39
2021-06-21 16:14:22.789062500,-50.0,-4.0,41.0,95.415703125,25.130000000000003,0.0457166875,32.39
2021-06-21 16:14:22.796875000,-50.0,-4.0,41.0,95.41734375,26.96,0.045636625,32.39
2021-06-21 16:14:22.804687500,-50.0,-4.0,41.0,95.418984375,27.935000000000002,0.0455565625,32.39
2021-06-21 16:14:22.812500000,-50.0,-4.0,41.0,95.420625,28.91,0.0454765,32.39
2021-06-21 16:14:22.820312500,-50.0,-4.0,41.0,95.422265625,28.985,0.0453964375,32.39
2021-06-21 16:14:22.828125000,-50.0,-4.0,41.0,95.42390625,29.06,0.045316375,32.39
2021-06-21 16:14:22.835937500,-50.0,-4.0,41.0,95.425546875,28.29,0.0452363125,32.39
2021-06-21 16:14:22.843750000,-50.0,-4.0,41.0,95.42718749999999,27.52,0.04515625,32.39
2021-06-21 16:14:22.851562500,-50.0,-4.0,41.0,95.428828125,26.055,0.0450761875,32.39
2021-06-21 16:14:22.859375000,-50.0,-4.0,41.0,95.43046874999999,24.59,0.044996125,32.39
2021-06-21 16:14:22.867187500,-50.0,-4.0,41.0,95.432109375,22.68,0.0449160625,32.39
2021-06-21 16:14:22.875000000,-50.0,-4.0,41.0,95.43374999999999,20.77,0.044836,32.39
2021-06-21 16:14:22.882812500,-50.0,-4.0,41.0,95.435390625,18.72,0.0447559375,32.39
2021-06-21 16:14:22.890625000,-50.0,-4.0,41.0,95.43703124999999,16.67,0.044675875000000004,32.39
2021-06-21 16:14:22.898437500,-50.0,-4.0,41.0,95.438671875,14.740000000000002,0.0445958125,32.39
2021-06-21 16:14:22.906250000,-50.0,-4.0,41.0,95.44031249999999,12.81,0.04451575,32.39
2021-06-21 16:14:22.914062500,-50.0,-4.0,41.0,95.441953125,11.25,0.0444356875,32.39
2021-06-21 16:14:22.921875000,-50.0,-4.0,41.0,95.44359374999999,9.69,0.044355625,32.39
2021-06-21 16:14:22.929687500,-50.0,-4.0,41.0,95.445234375,8.62,0.044275562500000004,32.39
2021-06-21 16:14:22.937500000,-50.0,-4.0,41.0,95.44687499999999,7.55,0.0441955,32.39
2021-06-21 16:14:22.945312500,-50.0,-4.0,41.0,95.448515625,7.01,0.0441154375,32.39
2021-06-21 16:14:22.953125000,-50.0,-4.0,41.0,95.45015624999999,6.47,0.044035375,32.39
2021-06-21 16:14:22.960937500,-50.0,-4.0,41.0,95.451796875,6.35,0.0439553125,32.39
2021-06-21 16:14:22.968750000,-50.0,-4.0,41.0,95.45343749999999,6.23,0.043875250000000005,32.39
2021-06-21 16:14:22.976562500,-50.0,-4.0,41.0,95.455078125,6.33,0.043795187500000006,32.39
2021-06-21 16:14:22.984375000,-50.0,-4.0,41.0,95.45671875,6.43,0.043715125,32.39
2021-06-21 16:14:22.992187500,-50.0,-4.0,41.0,95.458359375,6.484999999999999,0.0436350625,32.39
2021-06-21 16:14:23.000000000,-50.0,-4.0,41.0,95.46,6.54,0.043555,32.39
2021-06-21 16:14:23.007812500,-50.0,-4.0,41.0,95.461953125,6.3149999999999995,0.043595031250000006,32.39
2021-06-21 16:14:23.015625000,-50.0,-4.0,41.0,95.46390625,6.09,0.0436350625,32.39
2021-06-21 16:14:23.023437500,-50.0,-4.0,41.0,95.465859375,5.4399999999999995,0.043675093750000005,32.39
2021-06-21 16:14:23.031250000,-50.0,-4.0,41.0,95.4678125,4.79,0.043715125,32.39
2021-06-21 16:14:23.039062500,-50.25,-4.0,41.0,95.469765625,3.685,0.04375515625,32.39
2021-06-21 16:14:23.046875000,-50.5,-4.0,41.0,95.47171875,2.58,0.043795187500000006,32.39
2021-06-21 16:14:23.054687500,-50.75,-4.0,41.0,95.473671875,1.095,0.04383521875,32.39
2021-06-21 16:14:23.062500000,-51.0,-4.0,41.0,95.475625,-0.39,0.043875250000000005,32.39
2021-06-21 16:14:23.070312500,-50.75,-4.0,41.0,95.477578125,-2.14,0.04391528125,32.39
2021-06-21 16:14:23.078125000,-50.5,-4.0,41.0,95.47953125,-3.89,0.0439553125,32.39
2021-06-21 16:14:23.085937500,-50.25,-4.0,41.0,95.481484375,-5.795,0.043995343750000006,32.39
2021-06-21 16:14:23.093750000,-50.0,-4.0,41.0,95.4834375,-7.7,0.044035375,32.39
2021-06-21 16:14:23.101562500,-50.0,-4.0,41.0,95.485390625,-9.695,0.044075406250000004,32.39
2021-06-21 16:14:23.109375000,-50.0,-4.0,41.0,95.48734375,-11.69,0.0441154375,32.39
2021-06-21 16:14:23.117187500,-50.0,-4.0,41.0,95.489296875,-13.75,0.04415546875,32.39
2021-06-21 16:14:23.125000000,-50.0,-4.0,41.0,95.49125,-15.81,0.0441955,32.39
2021-06-21 16:14:23.132812500,-50.0,-4.0,41.0,95.493203125,-17.97,0.04423553125,32.39
2021-06-21 16:14:23.140625000,-50.0,-4.0,41.0,95.49515625,-20.13,0.044275562500000004,32.39
2021-06-21 16:14:23.148437500,-50.0,-4.0,41.0,95.497109375,-22.515,0.04431559375,32.39
2021-06-21 16:14:23.156250000,-50.0,-4.0,41.0,95.4990625,-24.9,0.044355625,32.39
2021-06-21 16:14:23.164062500,-50.0,-4.0,41.0,95.501015625,-27.66,0.04439565625,32.39
2021-06-21 16:14:23.171875000,-50.0,-4.0,41.0,95.50296875,-30.42,0.0444356875,32.39
2021-06-21 16:14:23.179687500,-50.0,-4.0,41.0,95.504921875,-33.685,0.044475718750000004,32.39
2021-06-21 16:14:23.187500000,-50.0,-4.0,41.0,95.506875,-36.95,0.04451575,32.39
2021-06-21 16:14:23.195312500,-50.0,-4.0,41.0,95.508828125,-40.69,0.04455578125,32.39
2021-06-21 16:14:23.203125000,-50.0,-4.0,41.0,95.51078125,-44.43,0.0445958125,32.39
2021-06-21 16:14:23.210937500,-50.0,-4.0,41.0,95.512734375,-48.355000000000004,0.04463584375,32.39
2021-06-21 16:14:23.218750000,-50.0,-4.0,41.0,95.5146875,-52.28,0.044675875000000004,32.39
2021-06-21 16:14:23.226562500,-50.25,-4.0,41.0,95.516640625,-55.795,0.04471590625,32.39
2021-06-21 16:14:23.234375000,-50.5,-4.0,41.0,95.51859375,-59.31,0.0447559375,32.39
2021-06-21 16:14:23.242187500,-50.75,-4.0,41.0,95.520546875,-61.635000000000005,0.04479596875,32.39
2021-06-21 16:14:23.250000000,-51.0,-4.0,41.0,95.5225,-63.96,0.044836,32.39
2021-06-21 16:14:23.257812500,-50.75,-4.0,41.0,95.524453125,-64.335,0.04479596875,32.39
2021-06-21 16:14:23.265625000,-50.5,-4.0,41.0,95.52640625,-64.71,0.0447559375,32.39
2021-06-21 16:14:23.273437500,-50.25,-4.0,41.0,95.528359375,-62.709999999999994,0.04471590625,32.39
2021-06-21 16:14:23.281250000,-50.0,-4.0,41.0,95.5303125,-60.71,0.044675875000000004,32.39
2021-06-21 16:14:23.289062500,-50.0,-4.0,41.0,95.532265625,-56.379999999999995,0.04463584375,32.39
2021-06-21 16:14:23.296875000,-50.0,-4.0,41.0,95.53421875,-52.05,0.0445958125,32.39
2021-06-21 16:14:23.304687500,-50.0,-4.0,41.0,95.536171875,-45.965,0.04455578125,32.39
2021-06-21 16:14:23.312500000,-50.0,-4.0,41.0,95.538125,-39.88,0.04451575,32.39
2021-06-21 16:14:23.320312500,-50.0,-4.0,41.0,95.540078125,-32.910000000000004,0.044475718750000004,32.39
2021-06-21 16:14:23.328125000,-50.0,-4.0,41.0,95.54203125,-25.94,0.0444356875,32.39
2021-06-21 16:14:23.335937500,-50.0,-4.0,41.0,95.543984375,-19.03,0.04439565625,32.39
2021-06-21 16:14:23.343750000,-50.0,-4.0,41.0,95.5459375,-12.12,0.044355625,32.39
2021-06-21 16:14:23.351562500,-50.0,-4.0,41.0,95.547890625,-5.994999999999999,0.04431559375,32.39
2021-06-21 16:14:23.359375000,-50.0,-4.0,41.0,95.54984375,0.13,0.044275562500000004,32.39
2021-06-21 16:14:23.367187500,-50.0,-4.0,41.0,95.551796875,5.074999999999999,0.04423553125,32.39
2021-06-21 16:14:23.375000000,-50.0,-4.0,41.0,95.55375,10.02,0.0441955,32.39
2021-06-21 16:14:23.382812500,-50.0,-4.0,41.0,95.555703125,13.69,0.04415546875,32.39
2021-06-21 16:14:23.390625000,-50.0,-4.0,41.0,95.55765625,17.36,0.0441154375,32.39
2021-06-21 16:14:23.398437500,-50.0,-4.0,41.0,95.559609375,19.895,0.044075406250000004,32.39
2021-06-21 16:14:23.406250000,-50.0,-4.0,41.0,95.5615625,22.43,0.044035375,32.39
2021-06-21 16:14:23.414062500,-50.0,-4.0,41.0,95.563515625,23.990000000000002,0.043995343750000006,32.39
2021-06-21 16:14:23.421875000,-50.0,-4.0,41.0,95.56546875,25.55,0.0439553125,32.39
2021-06-21 16:14:23.429687500,-50.0,-4.0,41.0,95.567421875,26.265,0.04391528125,32.39
2021-06-21 16:14:23.437500000,-50.0,-4.0,41.0,95.569375,26.98,0.043875250000000005,32.39
2021-06-21 16:14:23.445312500,-50.0,-4.0,41.0,95.571328125,26.939999999999998,0.04383521875,32.39
2021-06-21 16:14:23.453125000,-50.0,-4.0,41.0,95.57328125,26.9,0.043795187500000006,32.39
2021-06-21 16:14:23.460937500,-50.0,-4.0,41.0,95.575234375,26.21,0.04375515625,32.39
2021-06-21 16:14:23.468750000,-50.0,-4.0,41.0,95.5771875,25.52,0.043715125,32.39
2021-06-21 16:14:23.476562500,-50.0,-4.0,41.0,95.579140625,24.310000000000002,0.043675093750000005,32.39
2021-06-21 16:14:23.484375000,-50.0,-4.0,41.0,95.58109375,23.1,0.0436350625,32.39
2021-06-21 16:14:23.492187500,-50.0,-4.0,41.0,95.583046875,21.58,0.043595031250000006,32.39
2021-06-21 16:14:23.500000000,-50.0,-4.0,41.0,95.585,20.06,0.043555,32.39
2021-06-21 16:14:23.507812500,-50.0,-4.0,40.75,95.586953125,18.475,0.0436350625,32.39
2021-06-21 16:14:23.515625000,-50.0,-4.0,40.5,95.58890625,16.89,0.043715125,32.39
2021-06-21 16:14:23.523437500,-50.0,-4.0,40.25,95.590859375,15.46,0.043795187500000006,32.39
2021-06-21 16:14:23.531250000,-50.0,-4.0,40.0,95.5928125,14.03,0.043875250000000005,32.39
2021-06-21 16:14:23.539062500,-50.0,-4.0,40.25,95.594765625,12.94,0.0439553125,32.39
2021-06-21 16:14:23.546875000,-50.0,-4.0,40.5,95.59671875,11.85,0.044035375,32.39
2021-06-21 16:14:23.554687500,-50.0,-4.0,40.75,95.598671875,11.18,0.0441154375,32.39
2021-06-21 16:14:23.562500000,-50.0,-4.0,41.0,95.600625,10.51,0.0441955,32.39
2021-06-21 16:14:23.570312500,-50.0,-4.0,41.0,95.602578125,10.23,0.044275562500000004,32.39
2021-06-21 16:14:23.578125000,-50.0,-4.0,41.0,95.60453125,9.95,0.044355625,32.39
2021-06-21 16:14:23.585937500,-50.0,-4.0,41.0,95.606484375,9.934999999999999,0.0444356875,32.39
2021-06-21 16:14:23.593750000,-50.0,-4.0,41.0,95.6084375,9.92,0.04451575,32.39
2021-06-21 16:14:23.601562500,-50.0,-4.0,41.0,95.610390625,9.969999999999999,0.0445958125,32.39
2021-06-21 16:14:23.609375000,-50.0,-4.0,41.0,95.61234375,10.02,0.044675875000000004,32.39
2021-06-21 16:14:23.617187500,-50.0,-4.0,41.0,95.614296875,9.895,0.0447559375,32.39
2021-06-21 16:14:23.625000000,-50.0,-4.0,41.0,95.61625,9.77,0.044836,32.39
2021-06-21 16:14:23.632812500,-50.0,-4.0,41.0,95.618203125,9.3,0.0449160625,32.39
2021-06-21 16:14:23.640625000,-50.0,-4.0,41.0,95.62015625,8.83,0.044996125,32.39
2021-06-21 16:14:23.648437500,-50.0,-4.0,41.0,95.622109375,7.885,0.0450761875,32.39
2021-06-21 16:14:23.656250000,-50.0,-4.0,41.0,95.6240625,6.94,0.04515625,32.39
2021-06-21 16:14:23.664062500,-50.0,-4.0,41.0,95.626015625,5.550000000000001,0.0452363125,32.39
2021-06-21 16:14:23.671875000,-50.0,-4.0,41.0,95.62796875,4.16,0.045316375,32.39
2021-06-21 16:14:23.679687500,-50.0,-4.0,41.0,95.629921875,2.435,0.0453964375,32.39
2021-06-21 16:14:23.687500000,-50.0,-4.0,41.0,95.631875,0.71,0.0454765,32.39
2021-06-21 16:14:23.695312500,-50.0,-4.0,41.0,95.633828125,-1.185,0.0455565625,32.39
2021-06-21 16:14:23.703125000,-50.0,-4.0,41.0,95.63578125,-3.08,0.045636625,32.39
2021-06-21 16:14:23.710937500,-50.0,-4.0,41.0,95.637734375,-5.01,0.0457166875,32.39
2021-06-21 16:14:23.718750000,-50.0,-4.0,41.0,95.6396875,-6.94,0.04579675,32.39
2021-06-21 16:14:23.726562500,-50.0,-4.0,41.0,95.641640625,-8.870000000000001,0.045876812499999996,32.39
2021-06-21 16:14:23.734375000,-50.0,-4.0,41.0,95.64359375,-10.8,0.045956875,32.39
2021-06-21 16:14:23.742187500,-50.0,-4.0,41.0,95.645546875,-12.795,0.0460369375,32.39
2021-06-21 16:14:23.750000000,-50.0,-4.0,41.0,95.6475,-14.79,0.046117,32.39
2021-06-21 16:14:23.757812500,-50.0,-4.0,41.0,95.649453125,-17.055,0.0460369375,32.39
2021-06-21 16:14:23.765625000,-50.0,-4.0,41.0,95.65140625,-19.32,0.045956875,32.39
2021-06-21 16:14:23.773437500,-50.0,-4.0,41.0,95.653359375,-22.075,0.045876812499999996,32.39
2021-06-21 16:14:23.781250000,-50.0,-4.0,41.0,95.6553125,-24.83,0.04579675,32.39
2021-06-21 16:14:23.789062500,-50.0,-4.0,41.0,95.657265625,-28.275,0.0457166875,32.39
2021-06-21 16:14:23.796875000,-50.0,-4.0,41.0,95.65921875,-31.72,0.045636625,32.39
2021-06-21 16:14:23.804687500,-50.0,-4.0,41.0,95.661171875,-35.935,0.0455565625,32.39
2021-06-21 16:14:23.812500000,-50.0,-4.0,41.0,95.663125,-40.15,0.0454765,32.39
2021-06-21 16:14:23.820312500,-50.0,-4.0,41.0,95.665078125,-44.995000000000005,0.0453964375,32.39
2021-06-21 16:14:23.828125000,-50.0,-4.0,41.0,95.66703125,-49.84,0.045316375,32.39
2021-06-21 16:14:23.835937500,-50.0,-4.0,41.0,95.668984375,-54.885000000000005,0.0452363125,32.39
2021-06-21 16:14:23.843750000,-50.0,-4.0,41.0,95.6709375,-59.93,0.04515625,32.39
2021-06-21 16:14:23.851562500,-50.0,-4.0,41.0,95.672890625,-64.48,0.0450761875,32.39
2021-06-21 16:14:23.859375000,-50.0,-4.0,41.0,95.67484375,-69.03,0.044996125,32.39
2021-06-21 16:14:23.867187500,-50.0,-4.0,41.0,95.676796875,-72.215,0.0449160625,32.39
2021-06-21 16:14:23.875000000,-50.0,-4.0,41.0,95.67875,-75.4,0.044836,32.39
2021-06-21 16:14:23.882812500,-50.0,-4.0,41.0,95.680703125,-76.39,0.0447559375,32.39
2021-06-21 16:14:23.890625000,-50.0,-4.0,41.0,95.68265625,-77.38,0.044675875000000004,32.39
2021-06-21 16:14:23.898437500,-50.0,-4.0,41.0,95.684609375,-75.675,0.0445958125,32.39
2021-06-21 16:14:23.906250000,-50.0,-4.0,41.0,95.6865625,-73.97,0.04451575,32.39
2021-06-21 16:14:23.914062500,-50.0,-4.0,41.0,95.688515625,-69.55,0.0444356875,32.39
2021-06-21 16:14:23.921875000,-50.0,-4.0,41.0,95.69046875,-65.13,0.044355625,32.39
2021-06-21 16:14:23.929687500,-50.0,-4.0,41.0,95.692421875,-58.55,0.044275562500000004,32.39
2021-06-21 16:14:23.937500000,-50.0,-4.0,41.0,95.694375,-51.97,0.0441955,32.39
2021-06-21 16:14:23.945312500,-50.0,-4.0,41.0,95.696328125,-44.165,0.0441154375,32.39
2021-06-21 16:14:23.953125000,-50.0,-4.0,41.0,95.69828125,-36.36,0.044035375,32.39
2021-06-21 16:14:23.960937500,-50.0,-4.0,41.0,95.700234375,-28.43,0.0439553125,32.39
2021-06-21 16:14:23.968750000,-50.0,-4.0,41.0,95.7021875,-20.5,0.043875250000000005,32.39
2021-06-21 16:14:23.976562500,-50.0,-4.0,41.0,95.704140625,-13.375,0.043795187500000006,32.39
2021-06-21 16:14:23.984375000,-50.0,-4.0,41.0,95.70609375,-6.25,0.043715125,32.39
2021-06-21 16:14:23.992187500,-50.0,-4.0,41.0,95.708046875,-0.4950000000000001,0.0436350625,32.39
2021-06-21 16:14:24.000000000,-50.0,-4.0,41.0,95.71,5.26,0.043555,32.39
2021-06-21 16:14:24.007812500,-50.0,-4.0,41.0,95.71171874999999,9.5,0.043595031250000006,32.389375
2021-06-21 16:14:24.015625000,-50.0,-4.0,41.0,95.7134375,13.74,0.0436350625,32.38875
2021-06-21 16:14:24.023437500,-50.0,-4.0,41.0,95.71515624999999,16.64,0.043675093750000005,32.388125
2021-06-21 16:14:24.031250000,-50.0,-4.0,41.0,95.71687499999999,19.54,0.043715125,32.3875
2021-06-21 16:14:24.039062500,-50.0,-4.0,41.0,95.71859375,21.435,0.04375515625,32.386875
2021-06-21 16:14:24.046875000,-50.0,-4.0,41.0,95.72031249999999,23.33,0.043795187500000006,32.38625
2021-06-21 16:14:24.054687500,-50.0,-4.0,41.0,95.72203125,24.564999999999998,0.04383521875,32.385625
2021-06-21 16:14:24.062500000,-50.0,-4.0,41.0,95.72375,25.8,0.043875250000000005,32.385
2021-06-21 16:14:24.070312500,-50.0,-4.0,41.0,95.72546874999999,26.560000000000002,0.04391528125,32.384375
2021-06-21 16:14:24.078125000,-50.0,-4.0,41.0,95.7271875,27.32,0.0439553125,32.38375
2021-06-21 16:14:24.085937500,-50.0,-4.0,41.0,95.72890625,27.675,0.043995343750000006,32.383125
2021-06-21 16:14:24.093750000,-50.0,-4.0,41.0,95.73062499999999,28.03,0.044035375,32.3825
2021-06-21 16:14:24.101562500,-50.0,-4.0,40.75,95.73234375,27.93,0.044075406250000004,32.381875
2021-06-21 16:14:24.109375000,-50.0,-4.0,40.5,95.7340625,27.83,0.0441154375,32.38125
2021-06-21 16:14:24.117187500,-50.0,-4.0,40.25,95.73578125,27.205,0.04415546875,32.380625
2021-06-21 16:14:24.125000000,-50.0,-4.0,40.0,95.7375,26.58,0.0441955,32.379999999999995
2021-06-21 16:14:24.132812500,-50.0,-4.0,40.0,95.73921874999999,25.439999999999998,0.04423553125,32.379374999999996
2021-06-21 16:14:24.140625000,-50.0,-4.0,40.0,95.7409375,24.3,0.044275562500000004,32.37875
2021-06-21 16:14:24.148437500,-50.0,-4.0,40.0,95.74265625,22.77,0.04431559375,32.378125
2021-06-21 16:14:24.156250000,-50.0,-4.0,40.0,95.74437499999999,21.24,0.044355625,32.3775
2021-06-21 16:14:24.164062500,-50.0,-4.0,40.25,95.74609375,19.564999999999998,0.04439565625,32.376875
2021-06-21 16:14:24.171875000,-50.0,-4.0,40.5,95.7478125,17.89,0.0444356875,32.37625
2021-06-21 16:14:24.179687500,-50.0,-4.0,40.75,95.74953124999999,16.34,0.044475718750000004,32.375625
2021-06-21 16:14:24.187500000,-50.0,-4.0,41.0,95.75125,14.79,0.04451575,32.375
2021-06-21 16:14:24.195312500,-50.25,-4.25,41.0,95.75296875,13.6,0.04455578125,32.374375
2021-06-21 16:14:24.203125000,-50.5,-4.5,41.0,95.7546875,12.41,0.0445958125,32.37375
2021-06-21 16:14:24.210937500,-50.75,-4.75,41.0,95.75640625,11.665,0.04463584375,32.373124999999995
2021-06-21 16:14:24.218750000,-51.0,-5.0,41.0,95.75812499999999,10.92,0.044675875000000004,32.372499999999995
2021-06-21 16:14:24.226562500,-50.75,-4.5,41.0,95.75984375,10.559999999999999,0.04471590625,32.371874999999996
2021-06-21 16:14:24.234375000,-50.5,-4.0,41.0,95.7615625,10.2,0.0447559375,32.371249999999996
2021-06-21 16:14:24.242187500,-50.25,-3.5,41.0,95.76328124999999,10.059999999999999,0.04479596875,32.370625
2021-06-21 16:14:24.250000000,-50.0,-3.0,41.0,95.765,9.92,0.044836,32.37
2021-06-21 16:14:24.257812500,-50.25,-3.25,41.0,95.76671875,9.775,0.0447559375,32.37
2021-06-21 16:14:24.265625000,-50.5,-3.5,41.0,95.76843749999999,9.63,0.044675875000000004,32.37
2021-06-21 16:14:24.273437500,-50.75,-3.75,41.0,95.77015625,9.285,0.0445958125,32.37
2021-06-21 16:14:24.281250000,-51.0,-4.0,41.0,95.771875,8.94,0.04451575,32.37
2021-06-21 16:14:24.289062500,-50.75,-4.0,41.0,95.77359375,8.225,0.0444356875,32.37
2021-06-21 16:14:24.296875000,-50.5,-4.0,41.0,95.7753125,7.51,0.044355625,32.37
2021-06-21 16:14:24.304687500,-50.25,-4.0,41.0,95.77703125,6.355,0.0442755625,32.37
2021-06-21 16:14:24.312500000,-50.0,-4.0,41.0,95.77875,5.2,0.0441955,32.37
2021-06-21 16:14:24.320312500,-50.0,-4.0,41.0,95.78046875,3.56,0.0441154375,32.37
2021-06-21 16:14:24.328125000,-50.0,-4.0,41.0,95.78218749999999,1.92,0.044035375,32.37
2021-06-21 16:14:24.335937500,-50.0,-4.0,41.0,95.78390625,-0.16500000000000004,0.0439553125,32.37
2021-06-21 16:14:24.343750000,-50.0,-4.0,41.0,95.785625,-2.25,0.04387525,32.37
2021-06-21 16:14:24.351562500,-50.0,-4.0,41.0,95.78734375,-4.715,0.0437951875,32.37
2021-06-21 16:14:24.359375000,-50.0,-4.0,41.0,95.7890625,-7.18,0.043715125,32.37
2021-06-21 16:14:24.367187500,-50.0,-4.0,41.0,95.79078125,-9.925,0.0436350625,32.37
2021-06-21 16:14:24.375000000,-50.0,-4.0,41.0,95.7925,-12.67,0.043554999999999996,32.37
2021-06-21 16:14:24.382812500,-50.0,-4.0,41.0,95.79421875,-15.594999999999999,0.0434749375,32.37
2021-06-21 16:14:24.390625000,-50.0,-4.0,41.0,95.7959375,-18.52,0.043394875,32.37
2021-06-21 16:14:24.398437500,-50.0,-4.0,41.0,95.79765625,-21.57,0.0433148125,32.37
2021-06-21 16:14:24.406250000,-50.0,-4.0,41.0,95.799375,-24.62,0.04323475,32.37
2021-06-21 16:14:24.414062500,-50.0,-4.0,41.0,95.80109374999999,-27.810000000000002,0.0431546875,32.37
2021-06-21 16:14:24.421875000,-50.0,-4.0,41.0,95.8028125,-31.0,0.043074625,32.37
2021-06-21 16:14:24.429687500,-50.0,-4.0,41.0,95.80453125,-34.45,0.0429945625,32.37
2021-06-21 16:14:24.437500000,-50.0,-4.0,41.0,95.80625,-37.9,0.0429145,32.37
2021-06-21 16:14:24.445312500,-50.0,-4.0,41.0,95.80796875,-41.75,0.0428344375,32.37
