TimeStamp,empatica.acc.x,empatica.acc.y,empatica.acc.z,empatica.hr,empatica.bvp,empatica.eda,empatica.temp
2021-06-21 18:28:21.359375000,-57.0,-7.5,31.0,79.9871875,-10.3,18.213196562500002,33.53
2021-06-21 18:28:21.367187500,-57.0,-7.25,31.0,79.98734375000001,-10.945,18.21311653125,33.53
2021-06-21 18:28:21.375000000,-57.0,-7.0,31.0,79.9875,-11.59,18.2130365,33.53
2021-06-21 18:28:21.382812500,-57.0,-7.25,30.75,79.98765625,-12.335,18.21295646875,33.53
2021-06-21 18:28:21.390625000,-57.0,-7.5,30.5,79.9878125,-13.08,18.2128764375,33.53
2021-06-21 18:28:21.398437500,-57.0,-7.75,30.25,79.98796875000001,-13.9,18.21279640625,33.53
2021-06-21 18:28:21.406250000,-57.0,-8.0,30.0,79.988125,-14.72,18.212716375,33.53
2021-06-21 18:28:21.414062500,-57.0,-8.0,30.0,79.98828125,-15.55,18.212636343750003,33.53
2021-06-21 18:28:21.421875000,-57.0,-8.0,30.0,79.9884375,-16.38,18.212556312500002,33.53
2021-06-21 18:28:21.429687500,-57.0,-8.0,30.0,79.98859375,-17.09,18.21247628125,33.53
2021-06-21 18:28:21.437500000,-57.0,-8.0,30.0,79.98875,-17.8,18.21239625,33.53
2021-06-21 18:28:21.445312500,-57.0,-7.75,30.0,79.98890625,-18.22,18.21231621875,33.53
2021-06-21 18:28:21.453125000,-57.0,-7.5,30.0,79.9890625,-18.64,18.2122361875,33.53
2021-06-21 18:28:21.460937500,-57.0,-7.25,30.0,79.98921875,-18.57,18.21215615625,33.53
2021-06-21 18:28:21.468750000,-57.0,-7.0,30.0,79.989375,-18.5,18.212076125000003,33.53
2021-06-21 18:28:21.476562500,-57.0,-7.0,30.0,79.98953125,-17.825,18.211996093750003,33.53
2021-06-21 18:28:21.484375000,-57.0,-7.0,30.0,79.9896875,-17.15,18.211916062500002,33.53
2021-06-21 18:28:21.492187500,-57.0,-7.0,30.0,79.98984375,-15.855,18.21183603125,33.53
2021-06-21 18:28:21.500000000,-57.0,-7.0,30.0,79.99000000000001,-14.56,18.211756,33.53
2021-06-21 18:28:21.507812500,-57.0,-7.25,30.25,79.99015625,-12.79,18.210835281250002,33.53
2021-06-21 18:28:21.515625000,-57.0,-7.5,30.5,79.9903125,-11.02,18.2099145625,33.53
2021-06-21 18:28:21.523437500,-57.0,-7.75,30.75,79.99046875,-9.03,18.20899384375,33.53
2021-06-21 18:28:21.531250000,-57.0,-8.0,31.0,79.99062500000001,-7.04,18.208073125000002,33.53
2021-06-21 18:28:21.539062500,-57.0,-8.0,30.75,79.99078125,-5.105,18.20715240625,33.53
2021-06-21 18:28:21.546875000,-57.0,-8.0,30.5,79.9909375,-3.17,18.2062316875,33.53
2021-06-21 18:28:21.554687500,-57.0,-8.0,30.25,79.99109375,-1.5,18.205310968750002,33.53
2021-06-21 18:28:21.562500000,-57.0,-8.0,30.0,79.99125000000001,0.17,18.204390250000003,33.53
2021-06-21 18:28:21.570312500,-57.0,-7.75,30.25,79.99140625,1.46,18.20346953125,33.53
2021-06-21 18:28:21.578125000,-57.0,-7.5,30.5,79.9915625,2.75,18.2025488125,33.53
2021-06-21 18:28:21.585937500,-57.0,-7.25,30.75,79.99171875,3.675,18.201628093750003,33.53
2021-06-21 18:28:21.593750000,-57.0,-7.0,31.0,79.99187500000001,4.6,18.200707375,33.53
2021-06-21 18:28:21.601562500,-57.0,-7.0,31.0,79.99203125,5.23,18.19978665625,33.53
2021-06-21 18:28:21.609375000,-57.0,-7.0,31.0,79.9921875,5.86,18.198865937500003,33.53
2021-06-21 18:28:21.617187500,-57.0,-7.0,31.0,79.99234375,6.285,18.19794521875,33.53
2021-06-21 18:28:21.625000000,-57.0,-7.0,31.0,79.9925,6.71,18.1970245,33.53
2021-06-21 18:28:21.632812500,-57.0,-7.0,31.0,79.99265625,6.99,18.196103781250002,33.53
2021-06-21 18:28:21.640625000,-57.0,-7.0,31.0,79.9928125,7.27,18.1951830625,33.53
2021-06-21 18:28:21.648437500,-57.0,-7.0,31.0,79.99296875,7.449999999999999,18.19426234375,33.53
2021-06-21 18:28:21.656250000,-57.0,-7.0,31.0,79.993125,7.63,18.193341625000002,33.53
2021-06-21 18:28:21.664062500,-57.0,-7.0,31.0,79.99328125,7.73,18.19242090625,33.53
2021-06-21 18:28:21.671875000,-57.0,-7.0,31.0,79.9934375,7.83,18.1915001875,33.53
2021-06-21 18:28:21.679687500,-57.0,-7.0,31.0,79.99359375,7.875,18.190579468750002,33.53
2021-06-21 18:28:21.687500000,-57.0,-7.0,31.0,79.99375,7.92,18.18965875,33.53
2021-06-21 18:28:21.695312500,-57.0,-7.0,30.75,79.99390625,7.9350000000000005,18.18873803125,33.53
2021-06-21 18:28:21.703125000,-57.0,-7.0,30.5,79.9940625,7.95,18.1878173125,33.53
2021-06-21 18:28:21.710937500,-57.0,-7.0,30.25,79.99421875,7.970000000000001,18.186896593750003,33.53
2021-06-21 18:28:21.718750000,-57.0,-7.0,30.0,79.994375,7.99,18.185975875,33.53
2021-06-21 18:28:21.726562500,-57.0,-7.25,30.0,79.99453125,8.035,18.18505515625,33.53
2021-06-21 18:28:21.734375000,-57.0,-7.5,30.0,79.9946875,8.08,18.184134437500003,33.53
2021-06-21 18:28:21.742187500,-57.0,-7.75,30.0,79.99484375,8.16,18.18321371875,33.53
2021-06-21 18:28:21.750000000,-57.0,-8.0,30.0,79.995,8.24,18.182293,33.53
2021-06-21 18:28:21.757812500,-57.0,-7.75,30.25,79.99515625000001,8.350000000000001,18.182293,33.53
2021-06-21 18:28:21.765625000,-57.0,-7.5,30.5,79.9953125,8.46,18.182293,33.53
2021-06-21 18:28:21.773437500,-57.0,-7.25,30.75,79.99546875,8.585,18.182293,33.53
2021-06-21 18:28:21.781250000,-57.0,-7.0,31.0,79.995625,8.71,18.182293,33.53
2021-06-21 18:28:21.789062500,-57.0,-7.0,31.0,79.99578125000001,8.81,18.182293,33.53
2021-06-21 18:28:21.796875000,-57.0,-7.0,31.0,79.9959375,8.91,18.182293,33.53
2021-06-21 18:28:21.804687500,-57.0,-7.0,31.0,79.99609375,8.965,18.182293,33.53
2021-06-21 18:28:21.812500000,-57.0,-7.0,31.0,79.99625,9.02,18.182293,33.53
2021-06-21 18:28:21.820312500,-57.0,-7.0,30.75,79.99640625,9.0,18.182293,33.53
2021-06-21 18:28:21.828125000,-57.0,-7.0,30.5,79.9965625,8.98,18.182293,33.53
2021-06-21 18:28:21.835937500,-57.0,-7.0,30.25,79.99671875,8.879999999999999,18.182293,33.53
2021-06-21 18:28:21.843750000,-57.0,-7.0,30.0,79.996875,8.78,18.182293,33.53
2021-06-21 18:28:21.851562500,-57.0,-7.25,30.0,79.99703125,8.620000000000001,18.182293,33.53
2021-06-21 18:28:21.859375000,-57.0,-7.5,30.0,79.9971875,8.46,18.182293,33.53
2021-06-21 18:28:21.867187500,-57.0,-7.75,30.0,79.99734375,8.255,18.182293,33.53
2021-06-21 18:28:21.875000000,-57.0,-8.0,30.0,79.9975,8.05,18.182293,33.53
2021-06-21 18:28:21.882812500,-57.0,-7.75,30.0,79.99765625,7.815,18.182293,33.53
2021-06-21 18:28:21.890625000,-57.0,-7.5,30.0,79.9978125,7.58,18.182293,33.53
2021-06-21 18:28:21.898437500,-57.0,-7.25,30.0,79.99796875,7.305,18.182293,33.53
2021-06-21 18:28:21.906250000,-57.0,-7.0,30.0,79.998125,7.03,18.182293,33.53
2021-06-21 18:28:21.914062500,-57.0,-7.0,30.25,79.99828125,6.695,18.182293,33.53
2021-06-21 18:28:21.921875000,-57.0,-7.0,30.5,79.9984375,6.36,18.182293,33.53
2021-06-21 18:28:21.929687500,-57.0,-7.0,30.75,79.99859375,5.93,18.182293,33.53
2021-06-21 18:28:21.937500000,-57.0,-7.0,31.0,79.99875,5.5,18.182293,33.53
2021-06-21 18:28:21.945312500,-57.0,-7.0,30.75,79.99890625,4.995,18.182293,33.53
2021-06-21 18:28:21.953125000,-57.0,-7.0,30.5,79.9990625,4.49,18.182293,33.53
2021-06-21 18:28:21.960937500,-57.0,-7.0,30.25,79.99921875,3.95,18.182293,33.53
2021-06-21 18:28:21.968750000,-57.0,-7.0,30.0,79.999375,3.41,18.182293,33.53
2021-06-21 18:28:21.976562500,-57.0,-7.0,30.0,79.99953125,2.92,18.182293,33.53
2021-06-21 18:28:21.984375000,-57.0,-7.0,30.0,79.9996875,2.43,18.182293,33.53
2021-06-21 18:28:21.992187500,-57.0,-7.0,30.0,79.99984375,2.075,18.182293,33.53
2021-06-21 18:28:22.000000000,-57.0,-7.0,30.0,80.0,1.72,18.182293,33.53
2021-06-21 18:28:22.007812500,-57.0,-7.0,30.0,79.999765625,1.525,18.18213284375,33.530625
2021-06-21 18:28:22.015625000,-57.0,-7.0,30.0,79.99953125,1.33,18.1819726875,33.53125
2021-06-21 18:28:22.023437500,-57.0,-7.0,30.0,79.999296875,1.26,18.181812531250003,33.531875
2021-06-21 18:28:22.031250000,-57.0,-7.0,30.0,79.9990625,1.19,18.181652375000002,33.5325
2021-06-21 18:28:22.039062500,-57.0,-7.0,30.25,79.998828125,1.13,18.18149221875,33.533125
2021-06-21 18:28:22.046875000,-57.0,-7.0,30.5,79.99859375,1.07,18.1813320625,33.53375
2021-06-21 18:28:22.054687500,-57.0,-7.0,30.75,79.998359375,0.905,18.18117190625,33.534375
2021-06-21 18:28:22.062500000,-57.0,-7.0,31.0,79.998125,0.74,18.181011750000003,33.535
2021-06-21 18:28:22.070312500,-57.0,-7.0,31.0,79.997890625,0.39,18.180851593750003,33.535625
2021-06-21 18:28:22.078125000,-57.0,-7.0,31.0,79.99765625,0.04,18.180691437500002,33.53625
2021-06-21 18:28:22.085937500,-57.0,-7.0,31.0,79.997421875,-0.46,18.18053128125,33.536875
2021-06-21 18:28:22.093750000,-57.0,-7.0,31.0,79.9971875,-0.96,18.180371125,33.5375
2021-06-21 18:28:22.101562500,-57.0,-7.0,30.75,79.996953125,-1.53,18.18021096875,33.538125
2021-06-21 18:28:22.109375000,-57.0,-7.0,30.5,79.99671875,-2.1,18.180050812500003,33.53875
2021-06-21 18:28:22.117187500,-57.0,-7.0,30.25,79.996484375,-2.605,18.179890656250002,33.539375
2021-06-21 18:28:22.125000000,-57.0,-7.0,30.0,79.99625,-3.11,18.1797305,33.54
2021-06-21 18:28:22.132812500,-57.0,-7.25,30.0,79.996015625,-3.485,18.17957034375,33.540625
2021-06-21 18:28:22.140625000,-57.0,-7.5,30.0,79.99578125,-3.86,18.1794101875,33.54125
2021-06-21 18:28:22.148437500,-57.0,-7.75,30.0,79.995546875,-4.1,18.179250031250003,33.541875
2021-06-21 18:28:22.156250000,-57.0,-8.0,30.0,79.9953125,-4.34,18.179089875000003,33.5425
2021-06-21 18:28:22.164062500,-57.25,-7.75,30.0,79.995078125,-4.535,18.178929718750002,33.543124999999996
2021-06-21 18:28:22.171875000,-57.5,-7.5,30.0,79.99484375,-4.73,18.1787695625,33.543749999999996
2021-06-21 18:28:22.179687500,-57.75,-7.25,30.0,79.994609375,-4.995,18.17860940625,33.544374999999995
2021-06-21 18:28:22.187500000,-58.0,-7.0,30.0,79.994375,-5.26,18.17844925,33.545
2021-06-21 18:28:22.195312500,-57.75,-7.0,30.25,79.994140625,-5.67,18.178289093750003,33.545625
2021-06-21 18:28:22.203125000,-57.5,-7.0,30.5,79.99390625,-6.08,18.178128937500002,33.54625
2021-06-21 18:28:22.210937500,-57.25,-7.0,30.75,79.993671875,-6.635,18.17796878125,33.546875
2021-06-21 18:28:22.218750000,-57.0,-7.0,31.0,79.9934375,-7.19,18.177808625,33.5475
2021-06-21 18:28:22.226562500,-57.0,-7.0,31.0,79.993203125,-7.835000000000001,18.17764846875,33.548125
2021-06-21 18:28:22.234375000,-57.0,-7.0,31.0,79.99296875,-8.48,18.177488312500003,33.54875
2021-06-21 18:28:22.242187500,-57.0,-7.0,31.0,79.992734375,-9.120000000000001,18.177328156250002,33.549375
2021-06-21 18:28:22.250000000,-57.0,-7.0,31.0,79.9925,-9.76,18.177168,33.55
2021-06-21 18:28:22.257812500,-57.0,-7.25,31.0,79.992265625,-10.335,18.17744825,33.55
2021-06-21 18:28:22.265625000,-57.0,-7.5,31.0,79.99203125,-10.91,18.1777285,33.55
2021-06-21 18:28:22.273437500,-57.0,-7.75,31.0,79.991796875,-11.385,18.17800875,33.55
2021-06-21 18:28:22.281250000,-57.0,-8.0,31.0,79.9915625,-11.86,18.178289000000003,33.55
2021-06-21 18:28:22.289062500,-57.0,-7.75,30.75,79.991328125,-12.239999999999998,18.178569250000002,33.55
2021-06-21 18:28:22.296875000,-57.0,-7.5,30.5,79.99109375,-12.62,18.178849500000002,33.55
2021-06-21 18:28:22.304687500,-57.0,-7.25,30.25,79.990859375,-12.94,18.17912975,33.55
2021-06-21 18:28:22.312500000,-57.0,-7.0,30.0,79.990625,-13.26,18.17941,33.55
2021-06-21 18:28:22.320312500,-57.0,-7.25,30.0,79.990390625,-13.58,18.17969025,33.55
2021-06-21 18:28:22.328125000,-57.0,-7.5,30.0,79.99015625,-13.9,18.179970500000003,33.55
2021-06-21 18:28:22.335937500,-57.0,-7.75,30.0,79.989921875,-14.27,18.180250750000003,33.55
2021-06-21 18:28:22.343750000,-57.0,-8.0,30.0,79.9896875,-14.64,18.180531000000002,33.55
2021-06-21 18:28:22.351562500,-57.0,-7.75,30.25,79.989453125,-15.100000000000001,18.18081125,33.55
2021-06-21 18:28:22.359375000,-57.0,-7.5,30.5,79.98921875,-15.56,18.1810915,33.55
2021-06-21 18:28:22.367187500,-57.0,-7.25,30.75,79.988984375,-16.135,18.18137175,33.55
2021-06-21 18:28:22.375000000,-57.0,-7.0,31.0,79.98875,-16.71,18.181652,33.55
2021-06-21 18:28:22.382812500,-57.0,-7.0,31.0,79.988515625,-17.37,18.181932250000003,33.55
2021-06-21 18:28:22.390625000,-57.0,-7.0,31.0,79.98828125,-18.03,18.182212500000002,33.55
2021-06-21 18:28:22.398437500,-57.0,-7.0,31.0,79.988046875,-18.68,18.18249275,33.55
2021-06-21 18:28:22.406250000,-57.0,-7.0,31.0,79.9878125,-19.33,18.182773,33.55
2021-06-21 18:28:22.414062500,-57.0,-7.0,30.75,79.987578125,-19.79,18.18305325,33.55
2021-06-21 18:28:22.421875000,-57.0,-7.0,30.5,79.98734375,-20.25,18.1833335,33.55
2021-06-21 18:28:22.429687500,-57.0,-7.0,30.25,79.987109375,-20.32,18.183613750000003,33.55
2021-06-21 18:28:22.437500000,-57.0,-7.0,30.0,79.986875,-20.39,18.183894000000002,33.55
2021-06-21 18:28:22.445312500,-57.0,-7.0,30.0,79.98664062499999,-19.89,18.18417425,33.55
2021-06-21 18:28:22.453125000,-57.0,-7.0,30.0,79.98640625,-19.39,18.1844545,33.55
2021-06-21 18:28:22.460937500,-57.0,-7.0,30.0,79.986171875,-18.245,18.18473475,33.55
2021-06-21 18:28:22.468750000,-57.0,-7.0,30.0,79.9859375,-17.1,18.185015,33.55
2021-06-21 18:28:22.476562500,-57.0,-7.0,30.25,79.985703125,-15.36,18.185295250000003,33.55
2021-06-21 18:28:22.484375000,-57.0,-7.0,30.5,79.98546875,-13.62,18.185575500000002,33.55
2021-06-21 18:28:22.492187500,-57.0,-7.0,30.75,79.985234375,-11.489999999999998,18.18585575,33.55
2021-06-21 18:28:22.500000000,-57.0,-7.0,31.0,79.985,-9.36,18.186136,33.55
2021-06-21 18:28:22.507812500,-57.0,-7.25,30.75,79.984765625,-7.125,18.1865363125,33.55
2021-06-21 18:28:22.515625000,-57.0,-7.5,30.5,79.98453125,-4.89,18.186936625,33.55
2021-06-21 18:28:22.523437500,-57.0,-7.75,30.25,79.984296875,-2.8499999999999996,18.1873369375,33.55
2021-06-21 18:28:22.531250000,-57.0,-8.0,30.0,79.9840625,-0.81,18.18773725,33.55
2021-06-21 18:28:22.539062500,-57.0,-7.75,30.0,79.983828125,0.835,18.1881375625,33.55
2021-06-21 18:28:22.546875000,-57.0,-7.5,30.0,79.98359375,2.48,18.188537875,33.55
2021-06-21 18:28:22.554687500,-57.0,-7.25,30.0,79.983359375,3.6500000000000004,18.1889381875,33.55
2021-06-21 18:28:22.562500000,-57.0,-7.0,30.0,79.983125,4.82,18.1893385,33.55
2021-06-21 18:28:22.570312500,-57.0,-7.0,30.0,79.982890625,5.57,18.1897388125,33.55
2021-06-21 18:28:22.578125000,-57.0,-7.0,30.0,79.98265625,6.32,18.190139125,33.55
2021-06-21 18:28:22.585937500,-57.0,-7.0,30.0,79.982421875,6.78,18.1905394375,33.55
2021-06-21 18:28:22.593750000,-57.0,-7.0,30.0,79.9821875,7.24,18.190939750000002,33.55
2021-06-21 18:28:22.601562500,-57.0,-7.25,30.25,79.981953125,7.545,18.1913400625,33.55
2021-06-21 18:28:22.609375000,-57.0,-7.5,30.5,79.98171875,7.85,18.191740375000002,33.55
2021-06-21 18:28:22.617187500,-57.0,-7.75,30.75,79.981484375,8.085,18.1921406875,33.55
2021-06-21 18:28:22.625000000,-57.0,-8.0,31.0,79.98125,8.32,18.192541,33.55
2021-06-21 18:28:22.632812500,-57.0,-7.75,30.75,79.981015625,8.52,18.1929413125,33.55
2021-06-21 18:28:22.640625000,-57.0,-7.5,30.5,79.98078124999999,8.72,18.193341625,33.55
2021-06-21 18:28:22.648437500,-57.0,-7.25,30.25,79.980546875,8.879999999999999,18.1937419375,33.55
2021-06-21 18:28:22.656250000,-57.0,-7.0,30.0,79.9803125,9.04,18.19414225,33.55
2021-06-21 18:28:22.664062500,-57.0,-7.0,30.25,79.980078125,9.17,18.1945425625,33.55
2021-06-21 18:28:22.671875000,-57.0,-7.0,30.5,79.97984375,9.3,18.194942875,33.55
2021-06-21 18:28:22.679687500,-57.0,-7.0,30.75,79.979609375,9.415,18.1953431875,33.55
2021-06-21 18:28:22.687500000,-57.0,-7.0,31.0,79.979375,9.53,18.1957435,33.55
2021-06-21 18:28:22.695312500,-57.0,-7.0,30.75,79.979140625,9.665,18.1961438125,33.55
2021-06-21 18:28:22.703125000,-57.0,-7.0,30.5,79.97890625,9.8,18.196544125,33.55
2021-06-21 18:28:22.710937500,-57.0,-7.0,30.25,79.978671875,9.985,18.1969444375,33.55
2021-06-21 18:28:22.718750000,-57.0,-7.0,30.0,79.9784375,10.17,18.19734475,33.55
2021-06-21 18:28:22.726562500,-57.0,-7.0,30.0,79.978203125,10.395,18.1977450625,33.55
2021-06-21 18:28:22.734375000,-57.0,-7.0,30.0,79.97796875,10.62,18.198145375,33.55
2021-06-21 18:28:22.742187500,-57.0,-7.0,30.0,79.977734375,10.855,18.1985456875,33.55
2021-06-21 18:28:22.750000000,-57.0,-7.0,30.0,79.97749999999999,11.09,18.198946,33.55
2021-06-21 18:28:22.757812500,-57.0,-7.0,30.0,79.977265625,11.26,18.198625749999998,33.55
2021-06-21 18:28:22.765625000,-57.0,-7.0,30.0,79.97703125,11.43,18.1983055,33.55
2021-06-21 18:28:22.773437500,-57.0,-7.0,30.0,79.976796875,11.495000000000001,18.19798525,33.55
2021-06-21 18:28:22.781250000,-57.0,-7.0,30.0,79.9765625,11.56,18.197665,33.55
2021-06-21 18:28:22.789062500,-57.0,-7.0,30.0,79.976328125,11.485,18.19734475,33.55
2021-06-21 18:28:22.796875000,-57.0,-7.0,30.0,79.97609375,11.41,18.197024499999998,33.55
2021-06-21 18:28:22.804687500,-57.0,-7.0,30.0,79.975859375,11.215,18.19670425,33.55
2021-06-21 18:28:22.812500000,-57.0,-7.0,30.0,79.975625,11.02,18.196384,33.55
2021-06-21 18:28:22.820312500,-57.0,-7.0,30.0,79.975390625,10.73,18.19606375,33.55
2021-06-21 18:28:22.828125000,-57.0,-7.0,30.0,79.97515625,10.44,18.1957435,33.55
2021-06-21 18:28:22.835937500,-57.0,-7.0,30.0,79.97492187499999,10.085,18.195423249999997,33.55
2021-06-21 18:28:22.843750000,-57.0,-7.0,30.0,79.9746875,9.73,18.195103,33.55
2021-06-21 18:28:22.851562500,-57.0,-7.0,30.0,79.974453125,9.345,18.194782749999998,33.55
2021-06-21 18:28:22.859375000,-57.0,-7.0,30.0,79.97421875,8.96,18.1944625,33.55
2021-06-21 18:28:22.867187500,-57.0,-7.0,30.0,79.973984375,8.55,18.19414225,33.55
2021-06-21 18:28:22.875000000,-57.0,-7.0,30.0,79.97375,8.14,18.193821999999997,33.55
2021-06-21 18:28:22.882812500,-57.0,-7.0,30.25,79.973515625,7.74,18.19350175,33.55
2021-06-21 18:28:22.890625000,-57.0,-7.0,30.5,79.97328125,7.34,18.193181499999998,33.55
2021-06-21 18:28:22.898437500,-57.0,-7.0,30.75,79.973046875,6.949999999999999,18.19286125,33.55
2021-06-21 18:28:22.906250000,-57.0,-7.0,31.0,79.9728125,6.56,18.192541,33.55
2021-06-21 18:28:22.914062500,-57.0,-7.0,31.0,79.972578125,6.185,18.19222075,33.55
2021-06-21 18:28:22.921875000,-57.0,-7.0,31.0,79.97234375,5.81,18.1919005,33.55
2021-06-21 18:28:22.929687500,-57.0,-7.0,31.0,79.972109375,5.445,18.191580249999998,33.55
2021-06-21 18:28:22.937500000,-57.0,-7.0,31.0,79.971875,5.08,18.19126,33.55
2021-06-21 18:28:22.945312500,-57.0,-7.0,30.75,79.97164062499999,4.7,18.19093975,33.55
2021-06-21 18:28:22.953125000,-57.0,-7.0,30.5,79.97140625,4.32,18.1906195,33.55
2021-06-21 18:28:22.960937500,-57.0,-7.0,30.25,79.971171875,3.915,18.19029925,33.55
2021-06-21 18:28:22.968750000,-57.0,-7.0,30.0,79.9709375,3.51,18.189978999999997,33.55
2021-06-21 18:28:22.976562500,-57.0,-7.0,30.25,79.970703125,3.0949999999999998,18.18965875,33.55
2021-06-21 18:28:22.984375000,-57.0,-7.0,30.5,79.97046875,2.68,18.189338499999998,33.55
2021-06-21 18:28:22.992187500,-57.0,-7.0,30.75,79.970234375,2.295,18.18901825,33.55
2021-06-21 18:28:23.000000000,-57.0,-7.0,31.0,79.97,1.91,18.188698,33.55
2021-06-21 18:28:23.007812500,-57.0,-7.0,30.75,79.969609375,1.5699999999999998,18.18857790625,33.55
2021-06-21 18:28:23.015625000,-57.0,-7.0,30.5,79.96921875,1.23,18.188457812499998,33.55
2021-06-21 18:28:23.023437500,-57.0,-7.0,30.25,79.968828125,0.965,18.18833771875,33.55
2021-06-21 18:28:23.031250000,-57.0,-7.0,30.0,79.9684375,0.7,18.188217625,33.55
2021-06-21 18:28:23.039062500,-57.0,-7.0,30.0,79.968046875,0.49,18.188097531249998,33.55
2021-06-21 18:28:23.046875000,-57.0,-7.0,30.0,79.96765625,0.28,18.1879774375,33.55
2021-06-21 18:28:23.054687500,-57.0,-7.0,30.0,79.967265625,0.1,18.18785734375,33.55
2021-06-21 18:28:23.062500000,-57.0,-7.0,30.0,79.966875,-0.08,18.187737249999998,33.55
2021-06-21 18:28:23.070312500,-57.0,-7.0,30.0,79.966484375,-0.265,18.18761715625,33.55
2021-06-21 18:28:23.078125000,-57.0,-7.0,30.0,79.96609375,-0.45,18.1874970625,33.55
2021-06-21 18:28:23.085937500,-57.0,-7.0,30.0,79.965703125,-0.66,18.187376968749998,33.55
2021-06-21 18:28:23.093750000,-57.0,-7.0,30.0,79.9653125,-0.87,18.187256875,33.55
2021-06-21 18:28:23.101562500,-57.0,-7.0,30.0,79.964921875,-1.12,18.18713678125,33.55
2021-06-21 18:28:23.109375000,-57.0,-7.0,30.0,79.96453125,-1.37,18.187016687499998,33.55
2021-06-21 18:28:23.117187500,-57.0,-7.0,30.0,79.964140625,-1.655,18.18689659375,33.55
2021-06-21 18:28:23.125000000,-57.0,-7.0,30.0,79.96375,-1.94,18.1867765,33.55
2021-06-21 18:28:23.132812500,-57.0,-7.0,30.0,79.963359375,-2.2649999999999997,18.18665640625,33.55
2021-06-21 18:28:23.140625000,-57.0,-7.0,30.0,79.96296875,-2.59,18.1865363125,33.55
2021-06-21 18:28:23.148437500,-57.0,-7.0,30.0,79.962578125,-2.98,18.186416218749997,33.55
2021-06-21 18:28:23.156250000,-57.0,-7.0,30.0,79.9621875,-3.37,18.186296125,33.55
2021-06-21 18:28:23.164062500,-57.25,-7.0,30.0,79.961796875,-3.825,18.18617603125,33.55
2021-06-21 18:28:23.171875000,-57.5,-7.0,30.0,79.96140625,-4.28,18.186055937499997,33.55
2021-06-21 18:28:23.179687500,-57.75,-7.0,30.0,79.961015625,-4.8100000000000005,18.18593584375,33.55
2021-06-21 18:28:23.187500000,-58.0,-7.0,30.0,79.960625,-5.34,18.18581575,33.55
2021-06-21 18:28:23.195312500,-57.75,-7.0,30.25,79.960234375,-5.93,18.185695656249997,33.55
2021-06-21 18:28:23.203125000,-57.5,-7.0,30.5,79.95984375,-6.52,18.1855755625,33.55
2021-06-21 18:28:23.210937500,-57.25,-7.0,30.75,79.959453125,-7.154999999999999,18.18545546875,33.55
2021-06-21 18:28:23.218750000,-57.0,-7.0,31.0,79.9590625,-7.79,18.185335374999998,33.55
2021-06-21 18:28:23.226562500,-57.0,-7.0,31.0,79.958671875,-8.44,18.18521528125,33.55
2021-06-21 18:28:23.234375000,-57.0,-7.0,31.0,79.95828125,-9.09,18.1850951875,33.55
2021-06-21 18:28:23.242187500,-57.0,-7.0,31.0,79.957890625,-9.719999999999999,18.184975093749998,33.55
2021-06-21 18:28:23.250000000,-57.0,-7.0,31.0,79.9575,-10.35,18.184855,33.55
2021-06-21 18:28:23.257812500,-57.0,-7.0,30.75,79.957109375,-10.915,18.18457478125,33.55
2021-06-21 18:28:23.265625000,-57.0,-7.0,30.5,79.95671875,-11.48,18.1842945625,33.55
2021-06-21 18:28:23.273437500,-57.0,-7.0,30.25,79.956328125,-11.92,18.18401434375,33.55
2021-06-21 18:28:23.281250000,-57.0,-7.0,30.0,79.9559375,-12.36,18.183734125,33.55
2021-06-21 18:28:23.289062500,-57.0,-7.0,30.0,79.955546875,-12.665,18.183453906249998,33.55
2021-06-21 18:28:23.296875000,-57.0,-7.0,30.0,79.95515625,-12.97,18.1831736875,33.55
2021-06-21 18:28:23.304687500,-57.0,-7.0,30.0,79.954765625,-13.17,18.18289346875,33.55
2021-06-21 18:28:23.312500000,-57.0,-7.0,30.0,79.954375,-13.37,18.18261325,33.55
2021-06-21 18:28:23.320312500,-57.0,-7.0,30.25,79.953984375,-13.565,18.18233303125,33.55
2021-06-21 18:28:23.328125000,-57.0,-7.0,30.5,79.95359375,-13.76,18.1820528125,33.55
2021-06-21 18:28:23.335937500,-57.0,-7.0,30.75,79.953203125,-14.08,18.18177259375,33.55
2021-06-21 18:28:23.343750000,-57.0,-7.0,31.0,79.9528125,-14.4,18.181492374999998,33.55
2021-06-21 18:28:23.351562500,-57.0,-7.0,30.75,79.952421875,-14.955,18.181212156249998,33.55
2021-06-21 18:28:23.359375000,-57.0,-7.0,30.5,79.95203125,-15.51,18.1809319375,33.55
2021-06-21 18:28:23.367187500,-57.0,-7.0,30.25,79.951640625,-16.305,18.18065171875,33.55
2021-06-21 18:28:23.375000000,-57.0,-7.0,30.0,79.95125,-17.1,18.1803715,33.55
2021-06-21 18:28:23.382812500,-57.0,-7.0,30.0,79.950859375,-18.03,18.18009128125,33.55
2021-06-21 18:28:23.390625000,-57.0,-7.0,30.0,79.95046875,-18.96,18.1798110625,33.55
2021-06-21 18:28:23.398437500,-57.0,-7.0,30.0,79.950078125,-19.785,18.17953084375,33.55
2021-06-21 18:28:23.406250000,-57.0,-7.0,30.0,79.9496875,-20.61,18.179250625,33.55
2021-06-21 18:28:23.414062500,-57.0,-7.0,30.0,79.949296875,-21.055,18.17897040625,33.55
2021-06-21 18:28:23.421875000,-57.0,-7.0,30.0,79.94890625,-21.5,18.1786901875,33.55
2021-06-21 18:28:23.429687500,-57.0,-7.0,30.0,79.948515625,-21.33,18.17840996875,33.55
2021-06-21 18:28:23.437500000,-57.0,-7.0,30.0,79.948125,-21.16,18.17812975,33.55
2021-06-21 18:28:23.445312500,-57.0,-7.0,30.0,79.947734375,-20.27,18.17784953125,33.55
2021-06-21 18:28:23.453125000,-57.0,-7.0,30.0,79.94734375,-19.38,18.1775693125,33.55
2021-06-21 18:28:23.460937500,-57.0,-7.0,30.0,79.946953125,-17.82,18.17728909375,33.55
2021-06-21 18:28:23.468750000,-57.0,-7.0,30.0,79.9465625,-16.26,18.177008875,33.55
2021-06-21 18:28:23.476562500,-57.0,-7.0,30.0,79.946171875,-14.23,18.17672865625,33.55
2021-06-21 18:28:23.484375000,-57.0,-7.0,30.0,79.94578125,-12.2,18.1764484375,33.55
2021-06-21 18:28:23.492187500,-57.0,-7.0,30.0,79.945390625,-9.95,18.17616821875,33.55
2021-06-21 18:28:23.500000000,-57.0,-7.0,30.0,79.945,-7.7,18.175888,33.55
2021-06-21 18:28:23.507812500,-57.0,-7.0,30.25,79.944609375,-5.495,18.175928,33.55
2021-06-21 18:28:23.515625000,-57.0,-7.0,30.5,79.94421875,-3.29,18.175968,33.55
2021-06-21 18:28:23.523437500,-57.0,-7.0,30.75,79.943828125,-1.305,18.176008,33.55
2021-06-21 18:28:23.531250000,-57.0,-7.0,31.0,79.9434375,0.68,18.176048,33.55
2021-06-21 18:28:23.539062500,-57.0,-7.0,31.0,79.94304687500001,2.335,18.176088,33.55
2021-06-21 18:28:23.546875000,-57.0,-7.0,31.0,79.94265625,3.99,18.176128000000002,33.55
2021-06-21 18:28:23.554687500,-57.0,-7.0,31.0,79.942265625,5.29,18.176168,33.55
2021-06-21 18:28:23.562500000,-57.0,-7.0,31.0,79.941875,6.59,18.176208000000003,33.55
2021-06-21 18:28:23.570312500,-57.0,-7.0,30.75,79.941484375,7.54,18.176248,33.55
2021-06-21 18:28:23.578125000,-57.0,-7.0,30.5,79.94109375000001,8.49,18.176288,33.55
2021-06-21 18:28:23.585937500,-57.0,-7.0,30.25,79.940703125,9.11,18.176328,33.55
2021-06-21 18:28:23.593750000,-57.0,-7.0,30.0,79.9403125,9.73,18.176368,33.55
2021-06-21 18:28:23.601562500,-57.0,-7.0,30.25,79.939921875,10.035,18.176408000000002,33.55
2021-06-21 18:28:23.609375000,-57.0,-7.0,30.5,79.93953125,10.34,18.176448,33.55
2021-06-21 18:28:23.617187500,-57.0,-7.0,30.75,79.93914062500001,10.375,18.176488000000003,33.55
2021-06-21 18:28:23.625000000,-57.0,-7.0,31.0,79.93875,10.41,18.176528,33.55
2021-06-21 18:28:23.632812500,-57.0,-7.0,31.0,79.938359375,10.25,18.176568,33.55
2021-06-21 18:28:23.640625000,-57.0,-7.0,31.0,79.93796875,10.09,18.176608,33.55
2021-06-21 18:28:23.648437500,-57.0,-7.0,31.0,79.937578125,9.865,18.176648,33.55
2021-06-21 18:28:23.656250000,-57.0,-7.0,31.0,79.93718750000001,9.64,18.176688000000002,33.55
2021-06-21 18:28:23.664062500,-57.0,-7.0,30.75,79.936796875,9.47,18.176728,33.55
2021-06-21 18:28:23.671875000,-57.0,-7.0,30.5,79.93640625,9.3,18.176768000000003,33.55
2021-06-21 18:28:23.679687500,-57.0,-7.0,30.25,79.936015625,9.275,18.176808,33.55
2021-06-21 18:28:23.687500000,-57.0,-7.0,30.0,79.935625,9.25,18.176848,33.55
2021-06-21 18:28:23.695312500,-57.0,-7.0,30.25,79.93523437500001,9.375,18.176888,33.55
2021-06-21 18:28:23.703125000,-57.0,-7.0,30.5,79.93484375,9.5,18.176928,33.55
2021-06-21 18:28:23.710937500,-57.0,-7.0,30.75,79.934453125,9.725,18.176968000000002,33.55
2021-06-21 18:28:23.718750000,-57.0,-7.0,31.0,79.9340625,9.95,18.177008,33.55
2021-06-21 18:28:23.726562500,-57.0,-7.0,30.75,79.933671875,10.205,18.177048000000003,33.55
2021-06-21 18:28:23.734375000,-57.0,-7.0,30.5,79.93328125000001,10.46,18.177088,33.55
2021-06-21 18:28:23.742187500,-57.0,-7.0,30.25,79.932890625,10.670000000000002,18.177128000000003,33.55
2021-06-21 18:28:23.750000000,-57.0,-7.0,30.0,79.9325,10.88,18.177168,33.55
2021-06-21 18:28:23.757812500,-57.0,-7.0,30.0,79.932109375,11.02,18.17736815625,33.55
2021-06-21 18:28:23.765625000,-57.0,-7.0,30.0,79.93171875,11.16,18.1775683125,33.55
2021-06-21 18:28:23.773437500,-57.0,-7.0,30.0,79.93132812500001,11.26,18.177768468750003,33.55
2021-06-21 18:28:23.781250000,-57.0,-7.0,30.0,79.9309375,11.36,18.177968625000002,33.55
2021-06-21 18:28:23.789062500,-57.0,-7.0,30.0,79.930546875,11.445,18.17816878125,33.55
2021-06-21 18:28:23.796875000,-57.0,-7.0,30.0,79.93015625,11.53,18.1783689375,33.55
2021-06-21 18:28:23.804687500,-57.0,-7.0,30.0,79.929765625,11.605,18.178569093750003,33.55
2021-06-21 18:28:23.812500000,-57.0,-7.0,30.0,79.92937500000001,11.68,18.178769250000002,33.55
2021-06-21 18:28:23.820312500,-57.0,-7.0,30.0,79.928984375,11.71,18.17896940625,33.55
2021-06-21 18:28:23.828125000,-57.0,-7.0,30.0,79.92859375,11.74,18.1791695625,33.55
2021-06-21 18:28:23.835937500,-57.0,-7.0,30.0,79.928203125,11.68,18.17936971875,33.55
2021-06-21 18:28:23.843750000,-57.0,-7.0,30.0,79.9278125,11.62,18.179569875000002,33.55
2021-06-21 18:28:23.851562500,-57.0,-7.0,30.0,79.92742187500001,11.43,18.17977003125,33.55
2021-06-21 18:28:23.859375000,-57.0,-7.0,30.0,79.92703125,11.24,18.1799701875,33.55
2021-06-21 18:28:23.867187500,-57.0,-7.0,30.0,79.926640625,10.925,18.18017034375,33.55
2021-06-21 18:28:23.875000000,-57.0,-7.0,30.0,79.92625,10.61,18.180370500000002,33.55
2021-06-21 18:28:23.882812500,-57.0,-7.0,30.25,79.925859375,10.2,18.18057065625,33.55
2021-06-21 18:28:23.890625000,-57.0,-7.0,30.5,79.92546875000001,9.79,18.1807708125,33.55
2021-06-21 18:28:23.898437500,-57.0,-7.0,30.75,79.925078125,9.329999999999998,18.18097096875,33.55
2021-06-21 18:28:23.906250000,-57.0,-7.0,31.0,79.9246875,8.87,18.181171125,33.55
2021-06-21 18:28:23.914062500,-57.0,-7.0,30.75,79.924296875,8.39,18.18137128125,33.55
2021-06-21 18:28:23.921875000,-57.0,-7.0,30.5,79.92390625,7.91,18.1815714375,33.55
2021-06-21 18:28:23.929687500,-57.0,-7.0,30.25,79.92351562500001,7.41,18.18177159375,33.55
2021-06-21 18:28:23.937500000,-57.0,-7.0,30.0,79.923125,6.91,18.18197175,33.55
2021-06-21 18:28:23.945312500,-57.0,-7.0,30.0,79.922734375,6.390000000000001,18.182171906249998,33.55
2021-06-21 18:28:23.953125000,-57.0,-7.0,30.0,79.92234375,5.87,18.1823720625,33.55
2021-06-21 18:28:23.960937500,-57.0,-7.0,30.0,79.921953125,5.335,18.18257221875,33.55
2021-06-21 18:28:23.968750000,-57.0,-7.0,30.0,79.92156250000001,4.8,18.182772375,33.55
2021-06-21 18:28:23.976562500,-57.0,-7.0,30.0,79.921171875,4.265,18.182972531249998,33.55
2021-06-21 18:28:23.984375000,-57.0,-7.0,30.0,79.92078125,3.73,18.1831726875,33.55
2021-06-21 18:28:23.992187500,-57.0,-7.0,30.0,79.920390625,3.24,18.18337284375,33.55
2021-06-21 18:28:24.000000000,-57.0,-7.0,30.0,79.92,2.75,18.183573,33.55
2021-06-21 18:28:24.007812500,-57.0,-7.0,30.0,79.921015625,2.335,18.18401334375,33.55
2021-06-21 18:28:24.015625000,-57.0,-7.0,30.0,79.92203125,1.92,18.1844536875,33.55
2021-06-21 18:28:24.023437500,-57.0,-7.0,30.0,79.923046875,1.6,18.18489403125,33.55
2021-06-21 18:28:24.031250000,-57.0,-7.0,30.0,79.9240625,1.28,18.185334375,33.55
2021-06-21 18:28:24.039062500,-57.0,-7.0,30.0,79.925078125,1.025,18.18577471875,33.55
2021-06-21 18:28:24.046875000,-57.0,-7.0,30.0,79.92609375,0.77,18.1862150625,33.55
2021-06-21 18:28:24.054687500,-57.0,-7.0,30.0,79.927109375,0.545,18.18665540625,33.55
2021-06-21 18:28:24.062500000,-57.0,-7.0,30.0,79.928125,0.32,18.187095749999997,33.55
2021-06-21 18:28:24.070312500,-57.0,-7.0,30.25,79.929140625,0.08000000000000002,18.187536093749998,33.55
2021-06-21 18:28:24.078125000,-57.0,-7.0,30.5,79.93015625,-0.16,18.187976437499998,33.55
2021-06-21 18:28:24.085937500,-57.0,-7.0,30.75,79.931171875,-0.43499999999999994,18.188416781249998,33.55
2021-06-21 18:28:24.093750000,-57.0,-7.0,31.0,79.9321875,-0.71,18.188857125,33.55
2021-06-21 18:28:24.101562500,-57.0,-7.0,30.75,79.933203125,-1.01,18.18929746875,33.55
2021-06-21 18:28:24.109375000,-57.0,-7.0,30.5,79.93421875,-1.31,18.1897378125,33.55
2021-06-21 18:28:24.117187500,-57.0,-7.0,30.25,79.93523437500001,-1.6,18.19017815625,33.55
2021-06-21 18:28:24.125000000,-57.0,-7.0,30.0,79.93625,-1.89,18.1906185,33.55
2021-06-21 18:28:24.132812500,-57.25,-7.0,30.0,79.937265625,-2.165,18.19105884375,33.55
2021-06-21 18:28:24.140625000,-57.5,-7.0,30.0,79.93828125,-2.44,18.1914991875,33.55
2021-06-21 18:28:24.148437500,-57.75,-7.0,30.0,79.939296875,-2.74,18.19193953125,33.55
2021-06-21 18:28:24.156250000,-58.0,-7.0,30.0,79.9403125,-3.04,18.192379875,33.55
2021-06-21 18:28:24.164062500,-57.75,-7.0,30.0,79.941328125,-3.415,18.19282021875,33.55
2021-06-21 18:28:24.171875000,-57.5,-7.0,30.0,79.94234375,-3.79,18.1932605625,33.55
2021-06-21 18:28:24.179687500,-57.25,-7.0,30.0,79.943359375,-4.3,18.19370090625,33.55
2021-06-21 18:28:24.187500000,-57.0,-7.0,30.0,79.94437500000001,-4.81,18.19414125,33.55
2021-06-21 18:28:24.195312500,-57.0,-7.0,30.25,79.945390625,-5.465,18.194581593749998,33.55
2021-06-21 18:28:24.203125000,-57.0,-7.0,30.5,79.94640625,-6.12,18.195021937499998,33.55
2021-06-21 18:28:24.210937500,-57.0,-7.0,30.75,79.947421875,-6.855,18.19546228125,33.55
2021-06-21 18:28:24.218750000,-57.0,-7.0,31.0,79.9484375,-7.59,18.195902625,33.55
2021-06-21 18:28:24.226562500,-57.0,-7.0,31.0,79.949453125,-8.3,18.19634296875,33.55
2021-06-21 18:28:24.234375000,-57.0,-7.0,31.0,79.95046875,-9.01,18.1967833125,33.55
2021-06-21 18:28:24.242187500,-57.0,-7.0,31.0,79.951484375,-9.585,18.19722365625,33.55
2021-06-21 18:28:24.250000000,-57.0,-7.0,31.0,79.9525,-10.16,18.197664,33.55
2021-06-21 18:28:24.257812500,-57.0,-7.0,30.75,79.953515625,-10.54,18.197784125,33.55
2021-06-21 18:28:24.265625000,-57.0,-7.0,30.5,79.95453125,-10.92,18.19790425,33.55
2021-06-21 18:28:24.273437500,-57.0,-7.0,30.25,79.955546875,-11.115,18.198024375,33.55
2021-06-21 18:28:24.281250000,-57.0,-7.0,30.0,79.9565625,-11.31,18.198144499999998,33.55
2021-06-21 18:28:24.289062500,-57.0,-7.0,30.0,79.957578125,-11.39,18.198264625,33.55
2021-06-21 18:28:24.296875000,-57.0,-7.0,30.0,79.95859375,-11.47,18.19838475,33.55
2021-06-21 18:28:24.304687500,-57.0,-7.0,30.0,79.959609375,-11.535,18.198504875,33.55
2021-06-21 18:28:24.312500000,-57.0,-7.0,30.0,79.960625,-11.6,18.198625,33.55
2021-06-21 18:28:24.320312500,-57.0,-7.0,30.25,79.961640625,-11.77,18.198745125,33.55
2021-06-21 18:28:24.328125000,-57.0,-7.0,30.5,79.96265625,-11.94,18.19886525,33.55
2021-06-21 18:28:24.335937500,-57.0,-7.0,30.75,79.963671875,-12.315,18.198985375,33.55
2021-06-21 18:28:24.343750000,-57.0,-7.0,31.0,79.9646875,-12.69,18.1991055,33.55
2021-06-21 18:28:24.351562500,-57.0,-7.0,30.75,79.965703125,-13.315,18.199225625,33.55
2021-06-21 18:28:24.359375000,-57.0,-7.0,30.5,79.96671875,-13.94,18.19934575,33.55
2021-06-21 18:28:24.367187500,-57.0,-7.0,30.25,79.967734375,-14.805,18.199465875,33.55
2021-06-21 18:28:24.375000000,-57.0,-7.0,30.0,79.96875,-15.67,18.199586,33.55
2021-06-21 18:28:24.382812500,-57.0,-7.0,30.25,79.969765625,-16.665,18.199706125,33.55
2021-06-21 18:28:24.390625000,-57.0,-7.0,30.5,79.97078125,-17.66,18.19982625,33.55
2021-06-21 18:28:24.398437500,-57.0,-7.0,30.75,79.971796875,-18.560000000000002,18.199946375,33.55
2021-06-21 18:28:24.406250000,-57.0,-7.0,31.0,79.9728125,-19.46,18.2000665,33.55
2021-06-21 18:28:24.414062500,-57.0,-7.0,30.75,79.973828125,-19.990000000000002,18.200186625,33.55
2021-06-21 18:28:24.421875000,-57.0,-7.0,30.5,79.97484375,-20.52,18.20030675,33.55
2021-06-21 18:28:24.429687500,-57.0,-7.0,30.25,79.975859375,-20.41,18.200426875,33.55
2021-06-21 18:28:24.437500000,-57.0,-7.0,30.0,79.976875,-20.3,18.200547,33.55
2021-06-21 18:28:24.445312500,-57.0,-7.0,30.0,79.977890625,-19.415,18.200667125,33.55
2021-06-21 18:28:24.453125000,-57.0,-7.0,30.0,79.97890625,-18.53,18.20078725,33.55
2021-06-21 18:28:24.460937500,-57.0,-7.0,30.0,79.979921875,-16.91,18.200907375,33.55
2021-06-21 18:28:24.468750000,-57.0,-7.0,30.0,79.9809375,-15.29,18.201027500000002,33.55
2021-06-21 18:28:24.476562500,-57.0,-7.0,30.0,79.981953125,-13.135,18.201147625,33.55
2021-06-21 18:28:24.484375000,-57.0,-7.0,30.0,79.98296875,-10.98,18.20126775,33.55
2021-06-21 18:28:24.492187500,-57.0,-7.0,30.0,79.983984375,-8.6,18.201387875,33.55
2021-06-21 18:28:24.500000000,-57.0,-7.0,30.0,79.985,-6.22,18.201508,33.55
2021-06-21 18:28:24.507812500,-57.0,-7.0,30.0,79.986015625,-3.915,18.203069281250002,33.55
2021-06-21 18:28:24.515625000,-57.0,-7.0,30.0,79.98703125,-1.61,18.2046305625,33.55
2021-06-21 18:28:24.523437500,-57.0,-7.0,30.0,79.988046875,0.385,18.206191843750002,33.55
2021-06-21 18:28:24.531250000,-57.0,-7.0,30.0,79.9890625,2.38,18.207753125,33.55
2021-06-21 18:28:24.539062500,-57.0,-7.0,30.0,79.990078125,3.9499999999999997,18.20931440625,33.55
2021-06-21 18:28:24.546875000,-57.0,-7.0,30.0,79.99109375,5.52,18.2108756875,33.55
2021-06-21 18:28:24.554687500,-57.0,-7.0,30.0,79.992109375,6.625,18.21243696875,33.55
2021-06-21 18:28:24.562500000,-57.0,-7.0,30.0,79.99312499999999,7.73,18.21399825,33.55
2021-06-21 18:28:24.570312500,-57.0,-7.0,30.0,79.994140625,8.42,18.21555953125,33.55
2021-06-21 18:28:24.578125000,-57.0,-7.0,30.0,79.99515625,9.11,18.2171208125,33.55
2021-06-21 18:28:24.585937500,-57.0,-7.0,30.0,79.996171875,9.469999999999999,18.21868209375,33.55
2021-06-21 18:28:24.593750000,-57.0,-7.0,30.0,79.9971875,9.83,18.220243375,33.55
2021-06-21 18:28:24.601562500,-57.0,-7.0,30.0,79.998203125,9.969999999999999,18.22180465625,33.55
2021-06-21 18:28:24.609375000,-57.0,-7.0,30.0,79.99921875,10.11,18.2233659375,33.55
2021-06-21 18:28:24.617187500,-57.0,-7.0,30.0,80.000234375,10.14,18.22492721875,33.55
2021-06-21 18:28:24.625000000,-57.0,-7.0,30.0,80.00125,10.17,18.226488500000002,33.55
2021-06-21 18:28:24.632812500,-57.0,-7.0,30.25,80.00226562499999,10.165,18.22804978125,33.55
2021-06-21 18:28:24.640625000,-57.0,-7.0,30.5,80.00328125,10.16,18.229611062500002,33.55
2021-06-21 18:28:24.648437500,-57.0,-7.0,30.75,80.004296875,10.175,18.23117234375,33.55
2021-06-21 18:28:24.656250000,-57.0,-7.0,31.0,80.0053125,10.19,18.232733625,33.55
2021-06-21 18:28:24.664062500,-57.0,-7.0,30.75,80.006328125,10.25,18.23429490625,33.55
2021-06-21 18:28:24.671875000,-57.0,-7.0,30.5,80.00734375,10.31,18.2358561875,33.55
2021-06-21 18:28:24.679687500,-57.0,-7.0,30.25,80.008359375,10.425,18.23741746875,33.55
2021-06-21 18:28:24.687500000,-57.0,-7.0,30.0,80.009375,10.54,18.23897875,33.55
2021-06-21 18:28:24.695312500,-57.0,-7.0,30.25,80.010390625,10.7,18.24054003125,33.55
2021-06-21 18:28:24.703125000,-57.0,-7.0,30.5,80.01140625,10.86,18.2421013125,33.55
2021-06-21 18:28:24.710937500,-57.0,-7.0,30.75,80.012421875,11.05,18.24366259375,33.55
2021-06-21 18:28:24.718750000,-57.0,-7.0,31.0,80.0134375,11.24,18.245223875,33.55
2021-06-21 18:28:24.726562500,-57.0,-7.0,31.0,80.014453125,11.425,18.24678515625,33.55
2021-06-21 18:28:24.734375000,-57.0,-7.0,31.0,80.01546875,11.61,18.2483464375,33.55
2021-06-21 18:28:24.742187500,-57.0,-7.0,31.0,80.016484375,11.76,18.24990771875,33.55
2021-06-21 18:28:24.750000000,-57.0,-7.0,31.0,80.0175,11.91,18.251469,33.55
2021-06-21 18:28:24.757812500,-57.0,-7.0,31.0,80.01851562499999,11.99,18.25166915625,33.55
2021-06-21 18:28:24.765625000,-57.0,-7.0,31.0,80.01953125,12.07,18.2518693125,33.55
2021-06-21 18:28:24.773437500,-57.0,-7.0,31.0,80.020546875,12.075,18.25206946875,33.55
2021-06-21 18:28:24.781250000,-57.0,-7.0,31.0,80.0215625,12.08,18.252269625,33.55
2021-06-21 18:28:24.789062500,-57.0,-7.0,31.0,80.022578125,12.02,18.25246978125,33.55
2021-06-21 18:28:24.796875000,-57.0,-7.0,31.0,80.02359375,11.96,18.252669937500002,33.55
2021-06-21 18:28:24.804687500,-57.0,-7.0,31.0,80.024609375,11.870000000000001,18.25287009375,33.55
2021-06-21 18:28:24.812500000,-57.0,-7.0,31.0,80.02562499999999,11.78,18.25307025,33.55
2021-06-21 18:28:24.820312500,-57.0,-7.0,30.75,80.026640625,11.66,18.25327040625,33.55
2021-06-21 18:28:24.828125000,-57.0,-7.0,30.5,80.02765624999999,11.54,18.2534705625,33.55
2021-06-21 18:28:24.835937500,-57.0,-7.0,30.25,80.028671875,11.39,18.25367071875,33.55
2021-06-21 18:28:24.843750000,-57.0,-7.0,30.0,80.0296875,11.24,18.253870875,33.55
2021-06-21 18:28:24.851562500,-57.0,-7.0,30.25,80.030703125,11.01,18.25407103125,33.55
2021-06-21 18:28:24.859375000,-57.0,-7.0,30.5,80.03171875,10.78,18.254271187500002,33.55
2021-06-21 18:28:24.867187500,-57.0,-7.0,30.75,80.032734375,10.415,18.25447134375,33.55
2021-06-21 18:28:24.875000000,-57.0,-7.0,31.0,80.03375,10.05,18.2546715,33.55
2021-06-21 18:28:24.882812500,-57.0,-7.0,30.75,80.03476562499999,9.54,18.25487165625,33.55
2021-06-21 18:28:24.890625000,-57.0,-7.0,30.5,80.03578125,9.03,18.2550718125,33.55
2021-06-21 18:28:24.898437500,-57.0,-7.0,30.25,80.036796875,8.399999999999999,18.25527196875,33.55
2021-06-21 18:28:24.906250000,-57.0,-7.0,30.0,80.0378125,7.77,18.255472125,33.55
2021-06-21 18:28:24.914062500,-57.0,-7.0,30.25,80.038828125,7.105,18.25567228125,33.55
2021-06-21 18:28:24.921875000,-57.0,-7.0,30.5,80.03984375,6.44,18.255872437500003,33.55
2021-06-21 18:28:24.929687500,-57.0,-7.0,30.75,80.040859375,5.835000000000001,18.25607259375,33.55
2021-06-21 18:28:24.937500000,-57.0,-7.0,31.0,80.041875,5.23,18.25627275,33.55
2021-06-21 18:28:24.945312500,-57.0,-7.0,30.75,80.042890625,4.765000000000001,18.25647290625,33.55
2021-06-21 18:28:24.953125000,-57.0,-7.0,30.5,80.04390624999999,4.3,18.2566730625,33.55
2021-06-21 18:28:24.960937500,-57.0,-7.0,30.25,80.044921875,4.0,18.256873218750002,33.55
2021-06-21 18:28:24.968750000,-57.0,-7.0,30.0,80.0459375,3.7,18.257073375,33.55
2021-06-21 18:28:24.976562500,-57.0,-7.0,30.0,80.046953125,3.52,18.25727353125,33.55
2021-06-21 18:28:24.984375000,-57.0,-7.0,30.0,80.04796875,3.34,18.257473687500003,33.55
2021-06-21 18:28:24.992187500,-57.0,-7.0,30.0,80.048984375,3.21,18.257673843750002,33.55
2021-06-21 18:28:25.000000000,-57.0,-7.0,30.0,80.05,3.08,18.257874,33.55
2021-06-21 18:28:25.007812500,-57.0,-7.0,30.0,80.05078125,2.91,18.257153375,33.55
2021-06-21 18:28:25.015625000,-57.0,-7.0,30.0,80.0515625,2.74,18.256432750000002,33.55
2021-06-21 18:28:25.023437500,-57.0,-7.0,30.0,80.05234374999999,2.49,18.255712125000002,33.55
2021-06-21 18:28:25.031250000,-57.0,-7.0,30.0,80.053125,2.24,18.254991500000003,33.55
2021-06-21 18:28:25.039062500,-57.0,-7.0,30.25,80.05390625,1.8900000000000001,18.254270875,33.55
2021-06-21 18:28:25.046875000,-57.0,-7.0,30.5,80.0546875,1.54,18.25355025,33.55
2021-06-21 18:28:25.054687500,-57.0,-7.0,30.75,80.05546875,1.12,18.252829625,33.55
2021-06-21 18:28:25.062500000,-57.0,-7.0,31.0,80.05624999999999,0.7,18.252109,33.55
2021-06-21 18:28:25.070312500,-57.0,-7.0,31.0,80.05703125,0.26,18.251388375,33.55
2021-06-21 18:28:25.078125000,-57.0,-7.0,31.0,80.0578125,-0.18,18.25066775,33.55
2021-06-21 18:28:25.085937500,-57.0,-7.0,31.0,80.05859375,-0.6000000000000001,18.249947125000002,33.55
2021-06-21 18:28:25.093750000,-57.0,-7.0,31.0,80.059375,-1.02,18.2492265,33.55
2021-06-21 18:28:25.101562500,-57.0,-7.0,30.75,80.06015624999999,-1.395,18.248505875,33.55
2021-06-21 18:28:25.109375000,-57.0,-7.0,30.5,80.0609375,-1.77,18.24778525,33.55
2021-06-21 18:28:25.117187500,-57.0,-7.0,30.25,80.06171875,-2.105,18.247064625,33.55
2021-06-21 18:28:25.125000000,-57.0,-7.0,30.0,80.0625,-2.44,18.246344,33.55
2021-06-21 18:28:25.132812500,-57.25,-7.0,30.0,80.06328125,-2.745,18.245623375,33.55
2021-06-21 18:28:25.140625000,-57.5,-7.0,30.0,80.06406249999999,-3.05,18.24490275,33.55
2021-06-21 18:28:25.148437500,-57.75,-7.0,30.0,80.06484375,-3.38,18.244182125000002,33.55
2021-06-21 18:28:25.156250000,-58.0,-7.0,30.0,80.065625,-3.71,18.243461500000002,33.55
2021-06-21 18:28:25.164062500,-57.75,-7.0,30.25,80.06640625,-4.1,18.242740875,33.55
2021-06-21 18:28:25.171875000,-57.5,-7.0,30.5,80.0671875,-4.49,18.24202025,33.55
2021-06-21 18:28:25.179687500,-57.25,-7.0,30.75,80.06796875,-4.98,18.241299625,33.55
2021-06-21 18:28:25.187500000,-57.0,-7.0,31.0,80.06875,-5.47,18.240579,33.55
2021-06-21 18:28:25.195312500,-57.0,-7.0,30.75,80.06953125,-6.055,18.239858375,33.55
2021-06-21 18:28:25.203125000,-57.0,-7.0,30.5,80.0703125,-6.64,18.23913775,33.55
2021-06-21 18:28:25.210937500,-57.0,-7.0,30.25,80.07109375,-7.279999999999999,18.238417125,33.55
2021-06-21 18:28:25.218750000,-57.0,-7.0,30.0,80.071875,-7.92,18.2376965,33.55
2021-06-21 18:28:25.226562500,-57.0,-7.0,30.0,80.07265625,-8.530000000000001,18.236975875,33.55
2021-06-21 18:28:25.234375000,-57.0,-7.0,30.0,80.0734375,-9.14,18.23625525,33.55
2021-06-21 18:28:25.242187500,-57.0,-7.0,30.0,80.07421875,-9.635000000000002,18.235534625,33.55
2021-06-21 18:28:25.250000000,-57.0,-7.0,30.0,80.075,-10.13,18.234814,33.55
2021-06-21 18:28:25.257812500,-57.0,-7.0,30.0,80.07578125,-10.45,18.234013375,33.55
2021-06-21 18:28:25.265625000,-57.0,-7.0,30.0,80.0765625,-10.77,18.23321275,33.55
2021-06-21 18:28:25.273437500,-57.0,-7.0,30.0,80.07734375,-10.945,18.232412125,33.55
2021-06-21 18:28:25.281250000,-57.0,-7.0,30.0,80.078125,-11.12,18.2316115,33.55
2021-06-21 18:28:25.289062500,-57.0,-7.0,30.0,80.07890625,-11.245,18.230810875,33.55
2021-06-21 18:28:25.296875000,-57.0,-7.0,30.0,80.0796875,-11.37,18.23001025,33.55
2021-06-21 18:28:25.304687500,-57.0,-7.0,30.0,80.08046875,-11.575,18.229209625,33.55
2021-06-21 18:28:25.312500000,-57.0,-7.0,30.0,80.08125,-11.78,18.228409,33.55
2021-06-21 18:28:25.320312500,-57.0,-7.0,30.0,80.08203125,-12.19,18.227608375,33.55
2021-06-21 18:28:25.328125000,-57.0,-7.0,30.0,80.0828125,-12.6,18.22680775,33.55
2021-06-21 18:28:25.335937500,-57.0,-7.0,30.0,80.08359375,-13.245000000000001,18.226007125,33.55
2021-06-21 18:28:25.343750000,-57.0,-7.0,30.0,80.084375,-13.89,18.2252065,33.55
2021-06-21 18:28:25.351562500,-57.0,-7.0,30.0,80.08515625,-14.705,18.224405875,33.55
2021-06-21 18:28:25.359375000,-57.0,-7.0,30.0,80.0859375,-15.52,18.22360525,33.55
2021-06-21 18:28:25.367187500,-57.0,-7.0,30.0,80.08671875,-16.345,18.222804625,33.55
2021-06-21 18:28:25.375000000,-57.0,-7.0,30.0,80.0875,-17.17,18.222004,33.55
2021-06-21 18:28:25.382812500,-57.0,-7.0,30.0,80.08828125,-17.8,18.221203375,33.55
2021-06-21 18:28:25.390625000,-57.0,-7.0,30.0,80.0890625,-18.43,18.22040275,33.55
2021-06-21 18:28:25.398437500,-57.0,-7.0,30.0,80.08984375,-18.68,18.219602125,33.55
2021-06-21 18:28:25.406250000,-57.0,-7.0,30.0,80.090625,-18.93,18.2188015,33.55
2021-06-21 18:28:25.414062500,-57.0,-7.0,30.0,80.09140625,-18.655,18.218000875,33.55
2021-06-21 18:28:25.421875000,-57.0,-7.0,30.0,80.0921875,-18.38,18.21720025,33.55
2021-06-21 18:28:25.429687500,-57.0,-7.0,30.0,80.09296875,-17.535,18.216399625,33.55
2021-06-21 18:28:25.437500000,-57.0,-7.0,30.0,80.09375,-16.69,18.215599,33.55
2021-06-21 18:28:25.445312500,-57.0,-7.0,30.0,80.09453125,-15.305,18.214798375,33.55
2021-06-21 18:28:25.453125000,-57.0,-7.0,30.0,80.0953125,-13.92,18.21399775,33.55
2021-06-21 18:28:25.460937500,-57.0,-7.0,30.0,80.09609375,-12.11,18.213197125,33.55
2021-06-21 18:28:25.468750000,-57.0,-7.0,30.0,80.096875,-10.3,18.2123965,33.55
2021-06-21 18:28:25.476562500,-57.0,-7.0,30.0,80.09765625,-8.245000000000001,18.211595875,33.55
2021-06-21 18:28:25.484375000,-57.0,-7.0,30.0,80.0984375,-6.19,18.21079525,33.55
2021-06-21 18:28:25.492187500,-57.0,-7.0,30.0,80.09921875,-4.1,18.209994625,33.55
2021-06-21 18:28:25.500000000,-57.0,-7.0,30.0,80.1,-2.01,18.209194,33.55
2021-06-21 18:28:25.507812500,-57.0,-7.0,30.0,80.10078125,-0.11999999999999988,18.20979446875,33.55
2021-06-21 18:28:25.515625000,-57.0,-7.0,30.0,80.1015625,1.77,18.2103949375,33.55
2021-06-21 18:28:25.523437500,-57.0,-7.0,30.0,80.10234375,3.295,18.21099540625,33.55
2021-06-21 18:28:25.531250000,-57.0,-7.0,30.0,80.103125,4.82,18.211595875,33.55
2021-06-21 18:28:25.539062500,-57.0,-7.0,30.25,80.10390625000001,5.885,18.21219634375,33.55
2021-06-21 18:28:25.546875000,-57.0,-7.0,30.5,80.1046875,6.95,18.2127968125,33.55
2021-06-21 18:28:25.554687500,-57.0,-7.0,30.75,80.10546875,7.5649999999999995,18.21339728125,33.55
2021-06-21 18:28:25.562500000,-57.0,-7.0,31.0,80.10625,8.18,18.21399775,33.55
2021-06-21 18:28:25.570312500,-57.0,-7.0,30.75,80.10703125,8.434999999999999,18.214598218749998,33.55
2021-06-21 18:28:25.578125000,-57.0,-7.0,30.5,80.10781250000001,8.69,18.2151986875,33.55
2021-06-21 18:28:25.585937500,-57.0,-7.0,30.25,80.10859375,8.715,18.21579915625,33.55
2021-06-21 18:28:25.593750000,-57.0,-7.0,30.0,80.109375,8.74,18.216399625,33.55
2021-06-21 18:28:25.601562500,-57.0,-7.0,30.25,80.11015625,8.635,18.21700009375,33.55
2021-06-21 18:28:25.609375000,-57.0,-7.0,30.5,80.1109375,8.53,18.2176005625,33.55
2021-06-21 18:28:25.617187500,-57.0,-7.0,30.75,80.11171875000001,8.379999999999999,18.21820103125,33.55
2021-06-21 18:28:25.625000000,-57.0,-7.0,31.0,80.1125,8.23,18.218801499999998,33.55
2021-06-21 18:28:25.632812500,-57.0,-7.0,30.75,80.11328125,8.065000000000001,18.21940196875,33.55
2021-06-21 18:28:25.640625000,-57.0,-7.0,30.5,80.1140625,7.9,18.2200024375,33.55
2021-06-21 18:28:25.648437500,-57.0,-7.0,30.25,80.11484375,7.76,18.22060290625,33.55
2021-06-21 18:28:25.656250000,-57.0,-7.0,30.0,80.11562500000001,7.62,18.221203374999998,33.55
2021-06-21 18:28:25.664062500,-57.0,-7.0,30.0,80.11640625,7.555,18.22180384375,33.55
2021-06-21 18:28:25.671875000,-57.0,-7.0,30.0,80.1171875,7.49,18.2224043125,33.55
2021-06-21 18:28:25.679687500,-57.0,-7.0,30.0,80.11796875,7.54,18.22300478125,33.55
2021-06-21 18:28:25.687500000,-57.0,-7.0,30.0,80.11875,7.59,18.22360525,33.55
2021-06-21 18:28:25.695312500,-57.0,-7.0,30.0,80.11953125000001,7.785,18.22420571875,33.55
2021-06-21 18:28:25.703125000,-57.0,-7.0,30.0,80.1203125,7.98,18.2248061875,33.55
2021-06-21 18:28:25.710937500,-57.0,-7.0,30.0,80.12109375,8.280000000000001,18.225406656249998,33.55
2021-06-21 18:28:25.718750000,-57.0,-7.0,30.0,80.121875,8.58,18.226007125,33.55
2021-06-21 18:28:25.726562500,-57.0,-7.0,30.0,80.12265625,8.915,18.22660759375,33.55
2021-06-21 18:28:25.734375000,-57.0,-7.0,30.0,80.12343750000001,9.25,18.2272080625,33.55
2021-06-21 18:28:25.742187500,-57.0,-7.0,30.0,80.12421875,9.525,18.22780853125,33.55
2021-06-21 18:28:25.750000000,-57.0,-7.0,30.0,80.125,9.8,18.228409,33.55
2021-06-21 18:28:25.757812500,-57.0,-7.0,30.0,80.12578125,9.955,18.228889406249998,33.55
2021-06-21 18:28:25.765625000,-57.0,-7.0,30.0,80.1265625,10.11,18.2293698125,33.55
2021-06-21 18:28:25.773437500,-57.0,-7.0,30.0,80.12734375000001,10.145,18.22985021875,33.55
2021-06-21 18:28:25.781250000,-57.0,-7.0,30.0,80.128125,10.18,18.230330625,33.55
2021-06-21 18:28:25.789062500,-57.0,-7.0,30.25,80.12890625,10.14,18.23081103125,33.55
2021-06-21 18:28:25.796875000,-57.0,-7.0,30.5,80.1296875,10.1,18.231291437499998,33.55
2021-06-21 18:28:25.804687500,-57.0,-7.0,30.75,80.13046875,10.035,18.23177184375,33.55
2021-06-21 18:28:25.812500000,-57.0,-7.0,31.0,80.13125000000001,9.97,18.23225225,33.55
2021-06-21 18:28:25.820312500,-57.0,-7.0,30.75,80.13203125,9.89,18.23273265625,33.55
2021-06-21 18:28:25.828125000,-57.0,-7.0,30.5,80.1328125,9.81,18.2332130625,33.55
2021-06-21 18:28:25.835937500,-57.0,-7.0,30.25,80.13359375,9.685,18.233693468749998,33.55
2021-06-21 18:28:25.843750000,-57.0,-7.0,30.0,80.134375,9.56,18.234173875,33.55
2021-06-21 18:28:25.851562500,-57.0,-7.0,30.0,80.13515625000001,9.335,18.23465428125,33.55
2021-06-21 18:28:25.859375000,-57.0,-7.0,30.0,80.13593750000001,9.11,18.2351346875,33.55
2021-06-21 18:28:25.867187500,-57.0,-7.0,30.0,80.13671875,8.75,18.23561509375,33.55
2021-06-21 18:28:25.875000000,-57.0,-7.0,30.0,80.1375,8.39,18.236095499999998,33.55
2021-06-21 18:28:25.882812500,-57.0,-7.0,30.0,80.13828125,7.905,18.23657590625,33.55
2021-06-21 18:28:25.890625000,-57.0,-7.0,30.0,80.13906250000001,7.42,18.2370563125,33.55
2021-06-21 18:28:25.898437500,-57.0,-7.0,30.0,80.13984375000001,6.88,18.23753671875,33.55
2021-06-21 18:28:25.906250000,-57.0,-7.0,30.0,80.140625,6.34,18.238017125,33.55
2021-06-21 18:28:25.914062500,-57.0,-7.0,30.25,80.14140625,5.835,18.23849753125,33.55
2021-06-21 18:28:25.921875000,-57.0,-7.0,30.5,80.1421875,5.33,18.2389779375,33.55
2021-06-21 18:28:25.929687500,-57.0,-7.0,30.75,80.14296875000001,4.9350000000000005,18.239458343749998,33.55
2021-06-21 18:28:25.937500000,-57.0,-7.0,31.0,80.14375000000001,4.54,18.23993875,33.55
2021-06-21 18:28:25.945312500,-57.0,-7.0,30.75,80.14453125,4.255,18.24041915625,33.55
2021-06-21 18:28:25.953125000,-57.0,-7.0,30.5,80.1453125,3.97,18.2408995625,33.55
2021-06-21 18:28:25.960937500,-57.0,-7.0,30.25,80.14609375,3.75,18.24137996875,33.55
2021-06-21 18:28:25.968750000,-57.0,-7.0,30.0,80.14687500000001,3.53,18.241860374999998,33.55
2021-06-21 18:28:25.976562500,-57.0,-7.0,30.0,80.14765625000001,3.295,18.24234078125,33.55
2021-06-21 18:28:25.984375000,-57.0,-7.0,30.0,80.1484375,3.06,18.2428211875,33.55
2021-06-21 18:28:25.992187500,-57.0,-7.0,30.0,80.14921875,2.745,18.24330159375,33.55
2021-06-21 18:28:26.000000000,-57.0,-7.0,30.0,80.15,2.43,18.243782,33.55
2021-06-21 18:28:26.007812500,-57.0,-7.0,30.25,80.150625,2.015,18.2469045,33.55
2021-06-21 18:28:26.015625000,-57.0,-7.0,30.5,80.15125,1.6,18.250027,33.55
2021-06-21 18:28:26.023437500,-57.0,-7.0,30.75,80.151875,1.1300000000000001,18.2531495,33.55
2021-06-21 18:28:26.031250000,-57.0,-7.0,31.0,80.1525,0.66,18.256272,33.55
2021-06-21 18:28:26.039062500,-57.0,-7.0,30.75,80.153125,0.19,18.2593945,33.55
2021-06-21 18:28:26.046875000,-57.0,-7.0,30.5,80.15375,-0.28,18.262517,33.55
2021-06-21 18:28:26.054687500,-57.0,-7.0,30.25,80.154375,-0.685,18.2656395,33.55
2021-06-21 18:28:26.062500000,-57.0,-7.0,30.0,80.155,-1.09,18.268762,33.55
2021-06-21 18:28:26.070312500,-57.25,-7.0,30.0,80.155625,-1.415,18.2718845,33.55
2021-06-21 18:28:26.078125000,-57.5,-7.0,30.0,80.15625,-1.74,18.275007,33.55
2021-06-21 18:28:26.085937500,-57.75,-7.0,30.0,80.156875,-1.995,18.2781295,33.55
2021-06-21 18:28:26.093750000,-58.0,-7.0,30.0,80.1575,-2.25,18.281252,33.55
2021-06-21 18:28:26.101562500,-57.75,-7.0,30.25,80.15812500000001,-2.49,18.2843745,33.55
2021-06-21 18:28:26.109375000,-57.5,-7.0,30.5,80.15875000000001,-2.73,18.287497,33.55
2021-06-21 18:28:26.117187500,-57.25,-7.0,30.75,80.15937500000001,-3.01,18.2906195,33.55
2021-06-21 18:28:26.125000000,-57.0,-7.0,31.0,80.16000000000001,-3.29,18.293742,33.55
2021-06-21 18:28:26.132812500,-57.0,-7.0,31.0,80.16062500000001,-3.63,18.2968645,33.55
2021-06-21 18:28:26.140625000,-57.0,-7.0,31.0,80.16125000000001,-3.97,18.299987,33.55
2021-06-21 18:28:26.148437500,-57.0,-7.0,31.0,80.16187500000001,-4.375,18.3031095,33.55
2021-06-21 18:28:26.156250000,-57.0,-7.0,31.0,80.16250000000001,-4.78,18.306232,33.55
2021-06-21 18:28:26.164062500,-57.0,-7.25,30.75,80.16312500000001,-5.23,18.3093545,33.55
2021-06-21 18:28:26.171875000,-57.0,-7.5,30.5,80.16375000000001,-5.68,18.312477,33.55
2021-06-21 18:28:26.179687500,-57.0,-7.75,30.25,80.164375,-6.15,18.3155995,33.55
2021-06-21 18:28:26.187500000,-57.0,-8.0,30.0,80.165,-6.62,18.318722,33.55
2021-06-21 18:28:26.195312500,-57.0,-7.75,30.0,80.165625,-7.075,18.3218445,33.55
2021-06-21 18:28:26.203125000,-57.0,-7.5,30.0,80.16625,-7.53,18.324967,33.55
2021-06-21 18:28:26.210937500,-57.0,-7.25,30.0,80.166875,-7.949999999999999,18.3280895,33.55
2021-06-21 18:28:26.218750000,-57.0,-7.0,30.0,80.1675,-8.37,18.331212,33.55
2021-06-21 18:28:26.226562500,-57.0,-7.0,30.25,80.168125,-8.75,18.3343345,33.55
2021-06-21 18:28:26.234375000,-57.0,-7.0,30.5,80.16875,-9.13,18.337457,33.55
2021-06-21 18:28:26.242187500,-57.0,-7.0,30.75,80.169375,-9.47,18.3405795,33.55
2021-06-21 18:28:26.250000000,-57.0,-7.0,31.0,80.17,-9.81,18.343702,33.55
2021-06-21 18:28:26.257812500,-57.0,-7.0,30.75,80.170625,-10.115,18.345143125,33.55
2021-06-21 18:28:26.265625000,-57.0,-7.0,30.5,80.17125,-10.42,18.34658425,33.55
2021-06-21 18:28:26.273437500,-57.0,-7.0,30.25,80.171875,-10.715,18.348025375,33.55
2021-06-21 18:28:26.281250000,-57.0,-7.0,30.0,80.1725,-11.01,18.349466500000002,33.55
2021-06-21 18:28:26.289062500,-57.0,-7.0,30.0,80.173125,-11.355,18.350907625,33.55
2021-06-21 18:28:26.296875000,-57.0,-7.0,30.0,80.17375,-11.7,18.35234875,33.55
2021-06-21 18:28:26.304687500,-57.0,-7.0,30.0,80.17437500000001,-12.145,18.353789875,33.55
2021-06-21 18:28:26.312500000,-57.0,-7.0,30.0,80.17500000000001,-12.59,18.355231,33.55
2021-06-21 18:28:26.320312500,-57.0,-7.0,30.0,80.17562500000001,-13.17,18.356672125,33.55
2021-06-21 18:28:26.328125000,-57.0,-7.0,30.0,80.17625000000001,-13.75,18.358113250000002,33.55
2021-06-21 18:28:26.335937500,-57.0,-7.0,30.0,80.17687500000001,-14.455,18.359554375000002,33.55
2021-06-21 18:28:26.343750000,-57.0,-7.0,30.0,80.17750000000001,-15.16,18.3609955,33.55
2021-06-21 18:28:26.351562500,-57.0,-7.0,30.0,80.17812500000001,-15.9,18.362436625,33.55
2021-06-21 18:28:26.359375000,-57.0,-7.0,30.0,80.17875000000001,-16.64,18.36387775,33.55
2021-06-21 18:28:26.367187500,-57.0,-7.0,30.0,80.17937500000001,-17.25,18.365318875,33.55
2021-06-21 18:28:26.375000000,-57.0,-7.0,30.0,80.18,-17.86,18.36676,33.55
2021-06-21 18:28:26.382812500,-57.0,-7.0,30.25,80.180625,-18.13,18.368201125000002,33.55
2021-06-21 18:28:26.390625000,-57.0,-7.0,30.5,80.18125,-18.4,18.369642250000002,33.55
2021-06-21 18:28:26.398437500,-57.0,-7.0,30.75,80.181875,-18.155,18.371083375,33.55
2021-06-21 18:28:26.406250000,-57.0,-7.0,31.0,80.1825,-17.91,18.3725245,33.55
2021-06-21 18:28:26.414062500,-57.0,-7.0,30.75,80.183125,-17.04,18.373965625,33.55
2021-06-21 18:28:26.421875000,-57.0,-7.0,30.5,80.18375,-16.17,18.37540675,33.55
2021-06-21 18:28:26.429687500,-57.0,-7.0,30.25,80.184375,-14.71,18.376847875000003,33.55
2021-06-21 18:28:26.437500000,-57.0,-7.0,30.0,80.185,-13.25,18.378289000000002,33.55
2021-06-21 18:28:26.445312500,-57.0,-7.0,30.0,80.185625,-11.36,18.379730125000002,33.55
2021-06-21 18:28:26.453125000,-57.0,-7.0,30.0,80.18625,-9.47,18.38117125,33.55
2021-06-21 18:28:26.460937500,-57.0,-7.0,30.0,80.186875,-7.4,18.382612375,33.55
2021-06-21 18:28:26.468750000,-57.0,-7.0,30.0,80.1875,-5.33,18.3840535,33.55
2021-06-21 18:28:26.476562500,-57.0,-7.0,30.0,80.188125,-3.335,18.385494625000003,33.55
2021-06-21 18:28:26.484375000,-57.0,-7.0,30.0,80.18875,-1.34,18.386935750000003,33.55
2021-06-21 18:28:26.492187500,-57.0,-7.0,30.0,80.189375,0.365,18.388376875000002,33.55
2021-06-21 18:28:26.500000000,-57.0,-7.0,30.0,80.19,2.07,18.389818,33.55
2021-06-21 18:28:26.507812500,-57.0,-7.0,30.25,80.19062500000001,3.3899999999999997,18.39101896875,33.55
2021-06-21 18:28:26.515625000,-57.0,-7.0,30.5,80.19125000000001,4.71,18.392219937500002,33.55
2021-06-21 18:28:26.523437500,-57.0,-7.0,30.75,80.19187500000001,5.625,18.39342090625,33.55
2021-06-21 18:28:26.531250000,-57.0,-7.0,31.0,80.19250000000001,6.54,18.394621875000002,33.55
2021-06-21 18:28:26.539062500,-57.0,-7.0,30.75,80.19312500000001,7.1,18.39582284375,33.55
2021-06-21 18:28:26.546875000,-57.0,-7.0,30.5,80.19375000000001,7.66,18.397023812500002,33.55
2021-06-21 18:28:26.554687500,-57.0,-7.0,30.25,80.19437500000001,7.925,18.39822478125,33.55
2021-06-21 18:28:26.562500000,-57.0,-7.0,30.0,80.19500000000001,8.19,18.399425750000002,33.55
2021-06-21 18:28:26.570312500,-57.0,-7.25,30.0,80.195625,8.225,18.40062671875,33.55
2021-06-21 18:28:26.578125000,-57.0,-7.5,30.0,80.19625,8.26,18.401827687500003,33.55
2021-06-21 18:28:26.585937500,-57.0,-7.75,30.0,80.196875,8.129999999999999,18.40302865625,33.55
2021-06-21 18:28:26.593750000,-57.0,-8.0,30.0,80.1975,8.0,18.404229625000003,33.55
2021-06-21 18:28:26.601562500,-57.0,-7.75,30.0,80.198125,7.79,18.40543059375,33.55
2021-06-21 18:28:26.609375000,-57.0,-7.5,30.0,80.19875,7.58,18.406631562500003,33.55
2021-06-21 18:28:26.617187500,-57.0,-7.25,30.0,80.199375,7.37,18.40783253125,33.55
2021-06-21 18:28:26.625000000,-57.0,-7.0,30.0,80.2,7.16,18.4090335,33.55
2021-06-21 18:28:26.632812500,-57.0,-7.0,30.0,80.200625,7.03,18.41023446875,33.55
2021-06-21 18:28:26.640625000,-57.0,-7.0,30.0,80.20125,6.9,18.4114354375,33.55
2021-06-21 18:28:26.648437500,-57.0,-7.0,30.0,80.201875,6.890000000000001,18.41263640625,33.55
2021-06-21 18:28:26.656250000,-57.0,-7.0,30.0,80.2025,6.88,18.413837375,33.55
2021-06-21 18:28:26.664062500,-57.0,-7.0,30.0,80.203125,7.0,18.415038343750002,33.55
2021-06-21 18:28:26.671875000,-57.0,-7.0,30.0,80.20375,7.12,18.4162393125,33.55
2021-06-21 18:28:26.679687500,-57.0,-7.0,30.0,80.204375,7.3149999999999995,18.417440281250002,33.55
2021-06-21 18:28:26.687500000,-57.0,-7.0,30.0,80.205,7.51,18.41864125,33.55
2021-06-21 18:28:26.695312500,-57.0,-7.0,30.0,80.205625,7.725,18.419842218750002,33.55
2021-06-21 18:28:26.703125000,-57.0,-7.0,30.0,80.20625000000001,7.94,18.4210431875,33.55
2021-06-21 18:28:26.710937500,-57.0,-7.0,30.0,80.20687500000001,8.13,18.422244156250002,33.55
2021-06-21 18:28:26.718750000,-57.0,-7.0,30.0,80.20750000000001,8.32,18.423445125,33.55
2021-06-21 18:28:26.726562500,-57.0,-7.0,30.0,80.20812500000001,8.475000000000001,18.424646093750003,33.55
2021-06-21 18:28:26.734375000,-57.0,-7.0,30.0,80.20875000000001,8.63,18.4258470625,33.55
2021-06-21 18:28:26.742187500,-57.0,-7.0,30.0,80.20937500000001,8.760000000000002,18.427048031250003,33.55
2021-06-21 18:28:26.750000000,-57.0,-7.0,30.0,80.21000000000001,8.89,18.428249,33.55
2021-06-21 18:28:26.757812500,-57.0,-7.0,30.25,80.21062500000001,9.004999999999999,18.42792875,33.55
2021-06-21 18:28:26.765625000,-57.0,-7.0,30.5,80.21125,9.12,18.4276085,33.55
2021-06-21 18:28:26.773437500,-57.0,-7.0,30.75,80.211875,9.215,18.42728825,33.55
2021-06-21 18:28:26.781250000,-57.0,-7.0,31.0,80.2125,9.31,18.426968000000002,33.55
2021-06-21 18:28:26.789062500,-57.0,-7.0,30.75,80.213125,9.345,18.42664775,33.55
2021-06-21 18:28:26.796875000,-57.0,-7.0,30.5,80.21375,9.38,18.4263275,33.55
2021-06-21 18:28:26.804687500,-57.0,-7.0,30.25,80.214375,9.285,18.42600725,33.55
2021-06-21 18:28:26.812500000,-57.0,-7.0,30.0,80.215,9.19,18.425687,33.55
2021-06-21 18:28:26.820312500,-57.0,-7.25,30.25,80.215625,8.915,18.425366750000002,33.55
2021-06-21 18:28:26.828125000,-57.0,-7.5,30.5,80.21625,8.64,18.4250465,33.55
2021-06-21 18:28:26.835937500,-57.0,-7.75,30.75,80.216875,8.185,18.42472625,33.55
2021-06-21 18:28:26.843750000,-57.0,-8.0,31.0,80.2175,7.73,18.424406,33.55
2021-06-21 18:28:26.851562500,-57.0,-8.0,30.75,80.218125,7.165,18.42408575,33.55
2021-06-21 18:28:26.859375000,-57.0,-8.0,30.5,80.21875,6.6,18.423765500000002,33.55
2021-06-21 18:28:26.867187500,-57.0,-8.0,30.25,80.219375,6.02,18.42344525,33.55
2021-06-21 18:28:26.875000000,-57.0,-8.0,30.0,80.22,5.44,18.423125,33.55
2021-06-21 18:28:26.882812500,-57.0,-7.75,30.0,80.220625,4.965,18.42280475,33.55
2021-06-21 18:28:26.890625000,-57.0,-7.5,30.0,80.22125,4.49,18.4224845,33.55
2021-06-21 18:28:26.898437500,-57.0,-7.25,30.0,80.221875,4.165,18.42216425,33.55
2021-06-21 18:28:26.906250000,-57.0,-7.0,30.0,80.22250000000001,3.84,18.421844,33.55
2021-06-21 18:28:26.914062500,-57.0,-7.0,30.25,80.22312500000001,3.65,18.421523750000002,33.55
2021-06-21 18:28:26.921875000,-57.0,-7.0,30.5,80.22375000000001,3.46,18.4212035,33.55
2021-06-21 18:28:26.929687500,-57.0,-7.0,30.75,80.22437500000001,3.33,18.42088325,33.55
2021-06-21 18:28:26.937500000,-57.0,-7.0,31.0,80.22500000000001,3.2,18.420563,33.55
2021-06-21 18:28:26.945312500,-57.0,-7.0,30.75,80.22562500000001,3.0300000000000002,18.42024275,33.55
2021-06-21 18:28:26.953125000,-57.0,-7.0,30.5,80.22625000000001,2.86,18.419922500000002,33.55
2021-06-21 18:28:26.960937500,-57.0,-7.0,30.25,80.226875,2.5999999999999996,18.41960225,33.55
2021-06-21 18:28:26.968750000,-57.0,-7.0,30.0,80.2275,2.34,18.419282,33.55
2021-06-21 18:28:26.976562500,-57.0,-7.0,30.0,80.228125,1.9899999999999998,18.41896175,33.55
2021-06-21 18:28:26.984375000,-57.0,-7.0,30.0,80.22875,1.64,18.4186415,33.55
2021-06-21 18:28:26.992187500,-57.0,-7.0,30.0,80.229375,1.2349999999999999,18.41832125,33.55
2021-06-21 18:28:27.000000000,-57.0,-7.0,30.0,80.23,0.83,18.418001,33.55
2021-06-21 18:28:27.007812500,-57.0,-7.0,30.0,80.230546875,0.41,18.41848134375,33.549375
2021-06-21 18:28:27.015625000,-57.0,-7.0,30.0,80.23109375,-0.01,18.4189616875,33.54875
2021-06-21 18:28:27.023437500,-57.0,-7.0,30.0,80.231640625,-0.415,18.41944203125,33.548125
2021-06-21 18:28:27.031250000,-57.0,-7.0,30.0,80.23218750000001,-0.82,18.419922375,33.5475
2021-06-21 18:28:27.039062500,-57.0,-7.0,30.0,80.232734375,-1.215,18.42040271875,33.546875
2021-06-21 18:28:27.046875000,-57.0,-7.0,30.0,80.23328125,-1.61,18.4208830625,33.54625
2021-06-21 18:28:27.054687500,-57.0,-7.0,30.0,80.233828125,-2.025,18.42136340625,33.545625
2021-06-21 18:28:27.062500000,-57.0,-7.0,30.0,80.234375,-2.44,18.42184375,33.545
2021-06-21 18:28:27.070312500,-57.0,-7.0,30.0,80.234921875,-2.875,18.42232409375,33.544374999999995
2021-06-21 18:28:27.078125000,-57.0,-7.0,30.0,80.23546875000001,-3.31,18.422804437499998,33.543749999999996
2021-06-21 18:28:27.085937500,-57.0,-7.0,30.0,80.23601562500001,-3.7649999999999997,18.42328478125,33.543124999999996
2021-06-21 18:28:27.093750000,-57.0,-7.0,30.0,80.2365625,-4.22,18.423765125,33.5425
2021-06-21 18:28:27.101562500,-57.0,-7.25,30.25,80.237109375,-4.665,18.424245468749998,33.541875
2021-06-21 18:28:27.109375000,-57.0,-7.5,30.5,80.23765625,-5.11,18.4247258125,33.54125
2021-06-21 18:28:27.117187500,-57.0,-7.75,30.75,80.238203125,-5.53,18.42520615625,33.540625
2021-06-21 18:28:27.125000000,-57.0,-8.0,31.0,80.23875000000001,-5.95,18.425686499999998,33.54
2021-06-21 18:28:27.132812500,-57.0,-7.75,30.75,80.23929687500001,-6.32,18.42616684375,33.539375
2021-06-21 18:28:27.140625000,-57.0,-7.5,30.5,80.23984375,-6.69,18.4266471875,33.53875
2021-06-21 18:28:27.148437500,-57.0,-7.25,30.25,80.240390625,-6.995,18.42712753125,33.538125
2021-06-21 18:28:27.156250000,-57.0,-7.0,30.0,80.2409375,-7.3,18.427607875,33.5375
2021-06-21 18:28:27.164062500,-57.0,-7.25,30.0,80.241484375,-7.5600000000000005,18.42808821875,33.536875
2021-06-21 18:28:27.171875000,-57.0,-7.5,30.0,80.24203125,-7.82,18.4285685625,33.53625
2021-06-21 18:28:27.179687500,-57.0,-7.75,30.0,80.24257812500001,-8.065000000000001,18.42904890625,33.535625
2021-06-21 18:28:27.187500000,-57.0,-8.0,30.0,80.243125,-8.31,18.429529249999998,33.535
2021-06-21 18:28:27.195312500,-57.0,-7.75,30.25,80.243671875,-8.565000000000001,18.43000959375,33.534375
2021-06-21 18:28:27.203125000,-57.0,-7.5,30.5,80.24421875,-8.82,18.4304899375,33.53375
2021-06-21 18:28:27.210937500,-57.0,-7.25,30.75,80.244765625,-9.129999999999999,18.430970281249998,33.533125
2021-06-21 18:28:27.218750000,-57.0,-7.0,31.0,80.2453125,-9.44,18.431450625,33.5325
2021-06-21 18:28:27.226562500,-57.0,-7.0,30.75,80.24585937500001,-9.83,18.43193096875,33.531875
2021-06-21 18:28:27.234375000,-57.0,-7.0,30.5,80.24640625,-10.22,18.432411312499998,33.53125
2021-06-21 18:28:27.242187500,-57.0,-7.0,30.25,80.246953125,-10.71,18.43289165625,33.530625
2021-06-21 18:28:27.250000000,-57.0,-7.0,30.0,80.2475,-11.2,18.433372,33.53
2021-06-21 18:28:27.257812500,-57.0,-7.0,30.0,80.248046875,-11.78,18.43297171875,33.53
2021-06-21 18:28:27.265625000,-57.0,-7.0,30.0,80.24859375,-12.36,18.4325714375,33.53
2021-06-21 18:28:27.273437500,-57.0,-7.0,30.0,80.249140625,-13.02,18.43217115625,33.53
2021-06-21 18:28:27.281250000,-57.0,-7.0,30.0,80.24968750000001,-13.68,18.431770874999998,33.53
2021-06-21 18:28:27.289062500,-57.0,-7.0,30.0,80.250234375,-14.370000000000001,18.43137059375,33.53
2021-06-21 18:28:27.296875000,-57.0,-7.0,30.0,80.25078125,-15.06,18.430970312499998,33.53
2021-06-21 18:28:27.304687500,-57.0,-7.0,30.0,80.251328125,-15.715,18.43057003125,33.53
2021-06-21 18:28:27.312500000,-57.0,-7.0,30.0,80.251875,-16.37,18.430169749999997,33.53
2021-06-21 18:28:27.320312500,-57.0,-7.0,30.0,80.252421875,-16.865000000000002,18.42976946875,33.53
2021-06-21 18:28:27.328125000,-57.0,-7.0,30.0,80.25296875000001,-17.36,18.4293691875,33.53
2021-06-21 18:28:27.335937500,-57.0,-7.0,30.0,80.253515625,-17.564999999999998,18.42896890625,33.53
2021-06-21 18:28:27.343750000,-57.0,-7.0,30.0,80.2540625,-17.77,18.428568625,33.53
2021-06-21 18:28:27.351562500,-57.0,-7.25,30.25,80.254609375,-17.53,18.42816834375,33.53
2021-06-21 18:28:27.359375000,-57.0,-7.5,30.5,80.25515625,-17.29,18.4277680625,33.53
2021-06-21 18:28:27.367187500,-57.0,-7.75,30.75,80.255703125,-16.525,18.42736778125,33.53
2021-06-21 18:28:27.375000000,-57.0,-8.0,31.0,80.25625,-15.76,18.4269675,33.53
2021-06-21 18:28:27.382812500,-57.0,-7.75,30.75,80.256796875,-14.469999999999999,18.42656721875,33.53
2021-06-21 18:28:27.390625000,-57.0,-7.5,30.5,80.25734375,-13.18,18.4261669375,33.53
2021-06-21 18:28:27.398437500,-57.0,-7.25,30.25,80.257890625,-11.48,18.42576665625,33.53
2021-06-21 18:28:27.406250000,-57.0,-7.0,30.0,80.2584375,-9.78,18.425366375,33.53
2021-06-21 18:28:27.414062500,-57.0,-7.0,30.25,80.258984375,-7.869999999999999,18.42496609375,33.53
2021-06-21 18:28:27.421875000,-57.0,-7.0,30.5,80.25953125,-5.96,18.4245658125,33.53
2021-06-21 18:28:27.429687500,-57.0,-7.0,30.75,80.260078125,-4.0649999999999995,18.42416553125,33.53
2021-06-21 18:28:27.437500000,-57.0,-7.0,31.0,80.260625,-2.17,18.423765250000002,33.53
2021-06-21 18:28:27.445312500,-57.0,-7.25,31.0,80.261171875,-0.49,18.42336496875,33.53
2021-06-21 18:28:27.453125000,-57.0,-7.5,31.0,80.26171875,1.19,18.422964687500002,33.53
2021-06-21 18:28:27.460937500,-57.0,-7.75,31.0,80.262265625,2.545,18.42256440625,33.53
2021-06-21 18:28:27.468750000,-57.0,-8.0,31.0,80.2628125,3.9,18.422164125000002,33.53
2021-06-21 18:28:27.476562500,-57.0,-8.0,30.75,80.26335937500001,4.905,18.42176384375,33.53
2021-06-21 18:28:27.484375000,-57.0,-8.0,30.5,80.26390625,5.91,18.4213635625,33.53
2021-06-21 18:28:27.492187500,-57.0,-8.0,30.25,80.264453125,6.595000000000001,18.42096328125,33.53
2021-06-21 18:28:27.500000000,-57.0,-8.0,30.0,80.265,7.28,18.420563,33.53
2021-06-21 18:28:27.507812500,-57.0,-8.0,30.0,80.265546875,7.6899999999999995,18.42040290625,33.53
2021-06-21 18:28:27.515625000,-57.0,-8.0,30.0,80.26609375,8.1,18.4202428125,33.53
2021-06-21 18:28:27.523437500,-57.0,-8.0,30.0,80.266640625,8.285,18.420082718750002,33.53
2021-06-21 18:28:27.531250000,-57.0,-8.0,30.0,80.2671875,8.47,18.419922625,33.53
2021-06-21 18:28:27.539062500,-57.0,-8.0,30.0,80.267734375,8.45,18.41976253125,33.53
2021-06-21 18:28:27.546875000,-57.0,-8.0,30.0,80.26828125,8.43,18.4196024375,33.53
2021-06-21 18:28:27.554687500,-57.0,-8.0,30.0,80.268828125,8.24,18.419442343750003,33.53
2021-06-21 18:28:27.562500000,-57.0,-8.0,30.0,80.269375,8.05,18.419282250000002,33.53
2021-06-21 18:28:27.570312500,-57.0,-8.0,30.0,80.269921875,7.75,18.41912215625,33.53
2021-06-21 18:28:27.578125000,-57.0,-8.0,30.0,80.27046875,7.45,18.4189620625,33.53
2021-06-21 18:28:27.585937500,-57.0,-8.0,30.0,80.271015625,7.12,18.41880196875,33.53
2021-06-21 18:28:27.593750000,-57.0,-8.0,30.0,80.2715625,6.79,18.418641875000002,33.53
2021-06-21 18:28:27.601562500,-57.0,-7.75,30.0,80.272109375,6.529999999999999,18.41848178125,33.53
2021-06-21 18:28:27.609375000,-57.0,-7.5,30.0,80.27265625,6.27,18.4183216875,33.53
2021-06-21 18:28:27.617187500,-57.0,-7.25,30.0,80.273203125,6.17,18.41816159375,33.53
2021-06-21 18:28:27.625000000,-57.0,-7.0,30.0,80.27375,6.07,18.418001500000003,33.53
2021-06-21 18:28:27.632812500,-57.0,-7.0,30.0,80.274296875,6.155,18.41784140625,33.53
2021-06-21 18:28:27.640625000,-57.0,-7.0,30.0,80.27484375,6.24,18.4176813125,33.53
2021-06-21 18:28:27.648437500,-57.0,-7.0,30.0,80.275390625,6.495,18.41752121875,33.53
2021-06-21 18:28:27.656250000,-57.0,-7.0,30.0,80.2759375,6.75,18.417361125,33.53
2021-06-21 18:28:27.664062500,-57.0,-7.0,30.0,80.276484375,7.115,18.417201031250002,33.53
2021-06-21 18:28:27.671875000,-57.0,-7.0,30.0,80.27703125,7.48,18.4170409375,33.53
2021-06-21 18:28:27.679687500,-57.0,-7.0,30.0,80.277578125,7.86,18.41688084375,33.53
2021-06-21 18:28:27.687500000,-57.0,-7.0,30.0,80.278125,8.24,18.41672075,33.53
2021-06-21 18:28:27.695312500,-57.0,-7.25,30.0,80.278671875,8.555,18.41656065625,33.53
2021-06-21 18:28:27.703125000,-57.0,-7.5,30.0,80.27921875,8.87,18.4164005625,33.53
2021-06-21 18:28:27.710937500,-57.0,-7.75,30.0,80.279765625,9.065,18.41624046875,33.53
2021-06-21 18:28:27.718750000,-57.0,-8.0,30.0,80.2803125,9.26,18.416080375,33.53
2021-06-21 18:28:27.726562500,-57.0,-7.75,30.25,80.280859375,9.305,18.41592028125,33.53
2021-06-21 18:28:27.734375000,-57.0,-7.5,30.5,80.28140625,9.35,18.415760187500002,33.53
2021-06-21 18:28:27.742187500,-57.0,-7.25,30.75,80.281953125,9.26,18.41560009375,33.53
2021-06-21 18:28:27.750000000,-57.0,-7.0,31.0,80.2825,9.17,18.41544,33.53
2021-06-21 18:28:27.757812500,-57.0,-7.25,30.75,80.283046875,8.975,18.41519978125,33.53
2021-06-21 18:28:27.765625000,-57.0,-7.5,30.5,80.28359375,8.78,18.4149595625,33.53
2021-06-21 18:28:27.773437500,-57.0,-7.75,30.25,80.28414062499999,8.515,18.41471934375,33.53
2021-06-21 18:28:27.781250000,-57.0,-8.0,30.0,80.2846875,8.25,18.414479125,33.53
2021-06-21 18:28:27.789062500,-57.0,-8.0,30.25,80.285234375,7.9350000000000005,18.41423890625,33.53
2021-06-21 18:28:27.796875000,-57.0,-8.0,30.5,80.28578125,7.62,18.4139986875,33.53
2021-06-21 18:28:27.804687500,-57.0,-8.0,30.75,80.286328125,7.275,18.41375846875,33.53
2021-06-21 18:28:27.812500000,-57.0,-8.0,31.0,80.286875,6.93,18.41351825,33.53
2021-06-21 18:28:27.820312500,-57.0,-8.0,30.75,80.28742187499999,6.5600000000000005,18.41327803125,33.53
2021-06-21 18:28:27.828125000,-57.0,-8.0,30.5,80.28796875,6.19,18.4130378125,33.53
2021-06-21 18:28:27.835937500,-57.0,-8.0,30.25,80.288515625,5.805,18.41279759375,33.53
2021-06-21 18:28:27.843750000,-57.0,-8.0,30.0,80.2890625,5.42,18.412557375,33.53
2021-06-21 18:28:27.851562500,-57.0,-8.0,30.25,80.289609375,5.025,18.41231715625,33.53
2021-06-21 18:28:27.859375000,-57.0,-8.0,30.5,80.29015625,4.63,18.4120769375,33.53
2021-06-21 18:28:27.867187500,-57.0,-8.0,30.75,80.290703125,4.23,18.41183671875,33.53
2021-06-21 18:28:27.875000000,-57.0,-8.0,31.0,80.29124999999999,3.83,18.4115965,33.53
2021-06-21 18:28:27.882812500,-57.0,-7.75,31.0,80.291796875,3.4450000000000003,18.41135628125,33.53
2021-06-21 18:28:27.890625000,-57.0,-7.5,31.0,80.29234375,3.06,18.4111160625,33.53
2021-06-21 18:28:27.898437500,-57.0,-7.25,31.0,80.292890625,2.6799999999999997,18.41087584375,33.53
2021-06-21 18:28:27.906250000,-57.0,-7.0,31.0,80.2934375,2.3,18.410635625,33.53
2021-06-21 18:28:27.914062500,-57.0,-7.25,30.75,80.293984375,1.93,18.41039540625,33.53
2021-06-21 18:28:27.921875000,-57.0,-7.5,30.5,80.29453124999999,1.56,18.4101551875,33.53
2021-06-21 18:28:27.929687500,-57.0,-7.75,30.25,80.295078125,1.1800000000000002,18.409914968749998,33.53
2021-06-21 18:28:27.937500000,-57.0,-8.0,30.0,80.295625,0.8,18.40967475,33.53
2021-06-21 18:28:27.945312500,-57.0,-8.0,30.25,80.296171875,0.43000000000000005,18.40943453125,33.53
2021-06-21 18:28:27.953125000,-57.0,-8.0,30.5,80.29671875,0.06,18.4091943125,33.53
2021-06-21 18:28:27.960937500,-57.0,-8.0,30.75,80.297265625,-0.305,18.40895409375,33.53
2021-06-21 18:28:27.968750000,-57.0,-8.0,31.0,80.29781249999999,-0.67,18.408713875,33.53
2021-06-21 18:28:27.976562500,-57.0,-8.0,30.75,80.298359375,-1.0150000000000001,18.40847365625,33.53
2021-06-21 18:28:27.984375000,-57.0,-8.0,30.5,80.29890625,-1.36,18.408233437499998,33.53
2021-06-21 18:28:27.992187500,-57.0,-8.0,30.25,80.299453125,-1.675,18.40799321875,33.53
2021-06-21 18:28:28.000000000,-57.0,-8.0,30.0,80.3,-1.99,18.407753,33.53
2021-06-21 18:28:28.007812500,-57.0,-8.0,30.25,80.3,-2.3,18.407792999999998,33.530625
2021-06-21 18:28:28.015625000,-57.0,-8.0,30.5,80.3,-2.61,18.407833,33.53125
2021-06-21 18:28:28.023437500,-57.0,-8.0,30.75,80.3,-2.9299999999999997,18.407873,33.531875
2021-06-21 18:28:28.031250000,-57.0,-8.0,31.0,80.3,-3.25,18.407913,33.5325
2021-06-21 18:28:28.039062500,-57.0,-8.0,31.0,80.3,-3.6,18.407953,33.533125
2021-06-21 18:28:28.046875000,-57.0,-8.0,31.0,80.3,-3.95,18.407993,33.53375
2021-06-21 18:28:28.054687500,-57.0,-8.0,31.0,80.3,-4.34,18.408033,33.534375
2021-06-21 18:28:28.062500000,-57.0,-8.0,31.0,80.3,-4.73,18.408073,33.535
2021-06-21 18:28:28.070312500,-57.0,-8.0,31.0,80.3,-5.145,18.408113,33.535625
2021-06-21 18:28:28.078125000,-57.0,-8.0,31.0,80.3,-5.56,18.408153,33.53625
2021-06-21 18:28:28.085937500,-57.0,-8.0,31.0,80.3,-5.97,18.408193,33.536875
2021-06-21 18:28:28.093750000,-57.0,-8.0,31.0,80.3,-6.38,18.408233,33.5375
2021-06-21 18:28:28.101562500,-57.0,-8.0,30.75,80.3,-6.77,18.408273,33.538125
2021-06-21 18:28:28.109375000,-57.0,-8.0,30.5,80.3,-7.16,18.408313,33.53875
2021-06-21 18:28:28.117187500,-57.0,-8.0,30.25,80.3,-7.505,18.408353,33.539375
2021-06-21 18:28:28.125000000,-57.0,-8.0,30.0,80.3,-7.85,18.408393,33.54
2021-06-21 18:28:28.132812500,-57.0,-8.0,30.0,80.3,-8.155000000000001,18.408433,33.540625
2021-06-21 18:28:28.140625000,-57.0,-8.0,30.0,80.3,-8.46,18.408473,33.54125
2021-06-21 18:28:28.148437500,-57.0,-8.0,30.0,80.3,-8.765,18.408513,33.541875
2021-06-21 18:28:28.156250000,-57.0,-8.0,30.0,80.3,-9.07,18.408553,33.5425
2021-06-21 18:28:28.164062500,-57.0,-8.0,30.0,80.3,-9.425,18.408593,33.543124999999996
2021-06-21 18:28:28.171875000,-57.0,-8.0,30.0,80.3,-9.78,18.408633000000002,33.543749999999996
2021-06-21 18:28:28.179687500,-57.0,-8.0,30.0,80.3,-10.265,18.408673,33.544374999999995
2021-06-21 18:28:28.187500000,-57.0,-8.0,30.0,80.3,-10.75,18.408713,33.545
2021-06-21 18:28:28.195312500,-57.0,-8.0,30.0,80.3,-11.415,18.408753,33.545625
2021-06-21 18:28:28.203125000,-57.0,-8.0,30.0,80.3,-12.08,18.408793,33.54625
2021-06-21 18:28:28.210937500,-57.0,-8.0,30.0,80.3,-12.91,18.408833,33.546875
2021-06-21 18:28:28.218750000,-57.0,-8.0,30.0,80.3,-13.74,18.408873,33.5475
2021-06-21 18:28:28.226562500,-57.0,-8.0,30.0,80.3,-14.620000000000001,18.408913000000002,33.548125
2021-06-21 18:28:28.234375000,-57.0,-8.0,30.0,80.3,-15.5,18.408953,33.54875
2021-06-21 18:28:28.242187500,-57.0,-8.0,30.0,80.3,-16.244999999999997,18.408993000000002,33.549375
2021-06-21 18:28:28.250000000,-57.0,-8.0,30.0,80.3,-16.99,18.409033,33.55
2021-06-21 18:28:28.257812500,-57.0,-8.0,30.25,80.3,-17.354999999999997,18.408272437500003,33.55
2021-06-21 18:28:28.265625000,-57.0,-8.0,30.5,80.3,-17.72,18.407511875,33.55
2021-06-21 18:28:28.273437500,-57.0,-8.0,30.75,80.3,-17.494999999999997,18.4067513125,33.55
2021-06-21 18:28:28.281250000,-57.0,-8.0,31.0,80.3,-17.27,18.40599075,33.55
2021-06-21 18:28:28.289062500,-57.0,-8.0,31.0,80.3,-16.375,18.405230187500003,33.55
2021-06-21 18:28:28.296875000,-57.0,-8.0,31.0,80.3,-15.48,18.404469625,33.55
2021-06-21 18:28:28.304687500,-57.0,-8.0,31.0,80.3,-13.98,18.4037090625,33.55
2021-06-21 18:28:28.312500000,-57.0,-8.0,31.0,80.3,-12.48,18.4029485,33.55
2021-06-21 18:28:28.320312500,-57.0,-8.0,31.0,80.3,-10.585,18.402187937500003,33.55
2021-06-21 18:28:28.328125000,-57.0,-8.0,31.0,80.3,-8.69,18.401427375,33.55
2021-06-21 18:28:28.335937500,-57.0,-8.0,31.0,80.3,-6.675,18.4006668125,33.55
2021-06-21 18:28:28.343750000,-57.0,-8.0,31.0,80.3,-4.66,18.39990625,33.55
2021-06-21 18:28:28.351562500,-57.0,-8.0,30.75,80.3,-2.755,18.399145687500003,33.55
2021-06-21 18:28:28.359375000,-57.0,-8.0,30.5,80.3,-0.85,18.398385125,33.55
2021-06-21 18:28:28.367187500,-57.0,-8.0,30.25,80.3,0.775,18.3976245625,33.55
2021-06-21 18:28:28.375000000,-57.0,-8.0,30.0,80.3,2.4,18.396864,33.55
2021-06-21 18:28:28.382812500,-57.0,-8.0,30.25,80.3,3.6900000000000004,18.396103437500003,33.55
2021-06-21 18:28:28.390625000,-57.0,-8.0,30.5,80.3,4.98,18.395342875,33.55
2021-06-21 18:28:28.398437500,-57.0,-8.0,30.75,80.3,5.93,18.3945823125,33.55
2021-06-21 18:28:28.406250000,-57.0,-8.0,31.0,80.3,6.88,18.39382175,33.55
2021-06-21 18:28:28.414062500,-57.0,-8.0,30.75,80.3,7.484999999999999,18.393061187500003,33.55
2021-06-21 18:28:28.421875000,-57.0,-8.0,30.5,80.3,8.09,18.392300625,33.55
2021-06-21 18:28:28.429687500,-57.0,-8.0,30.25,80.3,8.36,18.3915400625,33.55
2021-06-21 18:28:28.437500000,-57.0,-8.0,30.0,80.3,8.63,18.3907795,33.55
2021-06-21 18:28:28.445312500,-57.0,-8.0,30.25,80.3,8.565000000000001,18.390018937500002,33.55
2021-06-21 18:28:28.453125000,-57.0,-8.0,30.5,80.3,8.5,18.389258375,33.55
2021-06-21 18:28:28.460937500,-57.0,-8.0,30.75,80.3,8.15,18.3884978125,33.55
2021-06-21 18:28:28.468750000,-57.0,-8.0,31.0,80.3,7.8,18.38773725,33.55
2021-06-21 18:28:28.476562500,-57.0,-8.0,30.75,80.3,7.285,18.386976687500002,33.55
2021-06-21 18:28:28.484375000,-57.0,-8.0,30.5,80.3,6.77,18.386216125,33.55
2021-06-21 18:28:28.492187500,-57.0,-8.0,30.25,80.3,6.24,18.3854555625,33.55
2021-06-21 18:28:28.500000000,-57.0,-8.0,30.0,80.3,5.71,18.384695,33.55
2021-06-21 18:28:28.507812500,-57.0,-8.0,30.0,80.3,5.3100000000000005,18.385015250000002,33.55
2021-06-21 18:28:28.515625000,-57.0,-8.0,30.0,80.3,4.91,18.3853355,33.55
2021-06-21 18:28:28.523437500,-57.0,-8.0,30.0,80.3,4.73,18.38565575,33.55
2021-06-21 18:28:28.531250000,-57.0,-8.0,30.0,80.3,4.55,18.385976,33.55
2021-06-21 18:28:28.539062500,-57.0,-8.0,30.0,80.3,4.615,18.38629625,33.55
2021-06-21 18:28:28.546875000,-57.0,-8.0,30.0,80.3,4.68,18.386616500000002,33.55
2021-06-21 18:28:28.554687500,-57.0,-8.0,30.0,80.3,4.925,18.38693675,33.55
2021-06-21 18:28:28.562500000,-57.0,-8.0,30.0,80.3,5.17,18.387257,33.55
2021-06-21 18:28:28.570312500,-57.0,-8.0,30.25,80.3,5.515000000000001,18.38757725,33.55
2021-06-21 18:28:28.578125000,-57.0,-8.0,30.5,80.3,5.86,18.3878975,33.55
2021-06-21 18:28:28.585937500,-57.0,-8.0,30.75,80.3,6.23,18.388217750000003,33.55
2021-06-21 18:28:28.593750000,-57.0,-8.0,31.0,80.3,6.6,18.388538,33.55
2021-06-21 18:28:28.601562500,-57.0,-8.0,31.0,80.3,6.945,18.388858250000002,33.55
2021-06-21 18:28:28.609375000,-57.0,-8.0,31.0,80.3,7.29,18.3891785,33.55
2021-06-21 18:28:28.617187500,-57.0,-8.0,31.0,80.3,7.595000000000001,18.38949875,33.55
2021-06-21 18:28:28.625000000,-57.0,-8.0,31.0,80.3,7.9,18.389819000000003,33.55
2021-06-21 18:28:28.632812500,-57.0,-8.0,30.75,80.3,8.15,18.39013925,33.55
2021-06-21 18:28:28.640625000,-57.0,-8.0,30.5,80.3,8.4,18.390459500000002,33.55
2021-06-21 18:28:28.648437500,-57.0,-8.0,30.25,80.3,8.555,18.39077975,33.55
2021-06-21 18:28:28.656250000,-57.0,-8.0,30.0,80.3,8.71,18.3911,33.55
2021-06-21 18:28:28.664062500,-57.25,-8.0,30.0,80.3,8.74,18.39142025,33.55
2021-06-21 18:28:28.671875000,-57.5,-8.0,30.0,80.3,8.77,18.3917405,33.55
2021-06-21 18:28:28.679687500,-57.75,-8.0,30.0,80.3,8.620000000000001,18.392060750000002,33.55
2021-06-21 18:28:28.687500000,-58.0,-8.0,30.0,80.3,8.47,18.392381,33.55
2021-06-21 18:28:28.695312500,-57.75,-8.0,30.0,80.3,8.14,18.392701250000002,33.55
2021-06-21 18:28:28.703125000,-57.5,-8.0,30.0,80.3,7.81,18.3930215,33.55
2021-06-21 18:28:28.710937500,-57.25,-8.0,30.0,80.3,7.32,18.39334175,33.55
2021-06-21 18:28:28.718750000,-57.0,-8.0,30.0,80.3,6.83,18.393662000000003,33.55
2021-06-21 18:28:28.726562500,-57.0,-8.0,30.25,80.3,6.24,18.39398225,33.55
2021-06-21 18:28:28.734375000,-57.0,-8.0,30.5,80.3,5.65,18.394302500000002,33.55
2021-06-21 18:28:28.742187500,-57.0,-8.0,30.75,80.3,5.01,18.39462275,33.55
2021-06-21 18:28:28.750000000,-57.0,-8.0,31.0,80.3,4.37,18.394943,33.55
2021-06-21 18:28:28.757812500,-57.0,-7.75,30.75,80.3,3.7350000000000003,18.394902937500003,33.55
2021-06-21 18:28:28.765625000,-57.0,-7.5,30.5,80.3,3.1,18.394862875,33.55
2021-06-21 18:28:28.773437500,-57.0,-7.25,30.25,80.3,2.5,18.394822812500003,33.55
2021-06-21 18:28:28.781250000,-57.0,-7.0,30.0,80.3,1.9,18.39478275,33.55
2021-06-21 18:28:28.789062500,-57.0,-7.25,30.0,80.3,1.35,18.394742687500003,33.55
2021-06-21 18:28:28.796875000,-57.0,-7.5,30.0,80.3,0.8,18.394702625,33.55
2021-06-21 18:28:28.804687500,-57.0,-7.75,30.0,80.3,0.335,18.394662562500002,33.55
2021-06-21 18:28:28.812500000,-57.0,-8.0,30.0,80.3,-0.13,18.3946225,33.55
2021-06-21 18:28:28.820312500,-57.0,-8.0,30.0,80.3,-0.51,18.394582437500002,33.55
2021-06-21 18:28:28.828125000,-57.0,-8.0,30.0,80.3,-0.89,18.394542375,33.55
2021-06-21 18:28:28.835937500,-57.0,-8.0,30.0,80.3,-1.2,18.394502312500002,33.55
2021-06-21 18:28:28.843750000,-57.0,-8.0,30.0,80.3,-1.51,18.39446225,33.55
2021-06-21 18:28:28.851562500,-57.0,-8.0,30.25,80.3,-1.79,18.394422187500002,33.55
2021-06-21 18:28:28.859375000,-57.0,-8.0,30.5,80.3,-2.07,18.394382125,33.55
2021-06-21 18:28:28.867187500,-57.0,-8.0,30.75,80.3,-2.3899999999999997,18.3943420625,33.55
2021-06-21 18:28:28.875000000,-57.0,-8.0,31.0,80.3,-2.71,18.394302000000003,33.55
2021-06-21 18:28:28.882812500,-57.0,-8.0,30.75,80.3,-3.12,18.3942619375,33.55
2021-06-21 18:28:28.890625000,-57.0,-8.0,30.5,80.3,-3.53,18.394221875000003,33.55
2021-06-21 18:28:28.898437500,-57.0,-8.0,30.25,80.3,-4.0249999999999995,18.3941818125,33.55
2021-06-21 18:28:28.906250000,-57.0,-8.0,30.0,80.3,-4.52,18.394141750000003,33.55
2021-06-21 18:28:28.914062500,-57.0,-7.75,30.25,80.3,-5.045,18.3941016875,33.55
2021-06-21 18:28:28.921875000,-57.0,-7.5,30.5,80.3,-5.57,18.394061625000003,33.55
2021-06-21 18:28:28.929687500,-57.0,-7.25,30.75,80.3,-6.04,18.3940215625,33.55
2021-06-21 18:28:28.937500000,-57.0,-7.0,31.0,80.3,-6.51,18.393981500000002,33.55
2021-06-21 18:28:28.945312500,-57.0,-7.25,30.75,80.3,-6.859999999999999,18.3939414375,33.55
2021-06-21 18:28:28.953125000,-57.0,-7.5,30.5,80.3,-7.21,18.393901375000002,33.55
2021-06-21 18:28:28.960937500,-57.0,-7.75,30.25,80.3,-7.4350000000000005,18.3938613125,33.55
2021-06-21 18:28:28.968750000,-57.0,-8.0,30.0,80.3,-7.66,18.393821250000002,33.55
2021-06-21 18:28:28.976562500,-57.0,-7.75,30.0,80.3,-7.800000000000001,18.3937811875,33.55
2021-06-21 18:28:28.984375000,-57.0,-7.5,30.0,80.3,-7.94,18.393741125000002,33.55
2021-06-21 18:28:28.992187500,-57.0,-7.25,30.0,80.3,-8.085,18.3937010625,33.55
2021-06-21 18:28:29.000000000,-57.0,-7.0,30.0,80.3,-8.23,18.393661,33.55
2021-06-21 18:28:29.007812500,-57.0,-7.25,30.0,80.29984375,-8.46,18.3940213125,33.550625
2021-06-21 18:28:29.015625000,-57.0,-7.5,30.0,80.29968749999999,-8.69,18.394381625,33.551249999999996
2021-06-21 18:28:29.023437500,-57.0,-7.75,30.0,80.29953125,-9.07,18.3947419375,33.551874999999995
2021-06-21 18:28:29.031250000,-57.0,-8.0,30.0,80.299375,-9.45,18.39510225,33.552499999999995
2021-06-21 18:28:29.039062500,-57.0,-8.0,30.0,80.29921875,-10.015,18.3954625625,33.553124999999994
2021-06-21 18:28:29.046875000,-57.0,-8.0,30.0,80.29906249999999,-10.58,18.395822875,33.55375
2021-06-21 18:28:29.054687500,-57.0,-8.0,30.0,80.29890625,-11.33,18.3961831875,33.554375
2021-06-21 18:28:29.062500000,-57.0,-8.0,30.0,80.29875,-12.08,18.3965435,33.555
2021-06-21 18:28:29.070312500,-57.0,-7.75,30.0,80.29859375,-12.96,18.3969038125,33.555625
2021-06-21 18:28:29.078125000,-57.0,-7.5,30.0,80.29843749999999,-13.84,18.397264125,33.55625
2021-06-21 18:28:29.085937500,-57.0,-7.25,30.0,80.29828125,-14.719999999999999,18.3976244375,33.556875
2021-06-21 18:28:29.093750000,-57.0,-7.0,30.0,80.298125,-15.6,18.39798475,33.5575
2021-06-21 18:28:29.101562500,-57.0,-7.25,30.0,80.29796875,-16.29,18.3983450625,33.558125
2021-06-21 18:28:29.109375000,-57.0,-7.5,30.0,80.29781249999999,-16.98,18.398705375,33.558749999999996
2021-06-21 18:28:29.117187500,-57.0,-7.75,30.0,80.29765625,-17.255000000000003,18.3990656875,33.559374999999996
2021-06-21 18:28:29.125000000,-57.0,-8.0,30.0,80.2975,-17.53,18.399426,33.56
2021-06-21 18:28:29.132812500,-57.0,-8.0,30.25,80.29734375,-17.200000000000003,18.3997863125,33.560625
2021-06-21 18:28:29.140625000,-57.0,-8.0,30.5,80.29718749999999,-16.87,18.400146625,33.56125
2021-06-21 18:28:29.148437500,-57.0,-8.0,30.75,80.29703125,-15.86,18.4005069375,33.561875
2021-06-21 18:28:29.156250000,-57.0,-8.0,31.0,80.296875,-14.85,18.40086725,33.5625
2021-06-21 18:28:29.164062500,-57.0,-8.0,31.0,80.29671875,-13.215,18.4012275625,33.563125
2021-06-21 18:28:29.171875000,-57.0,-8.0,31.0,80.2965625,-11.58,18.401587875,33.56375
2021-06-21 18:28:29.179687500,-57.0,-8.0,31.0,80.29640625,-9.504999999999999,18.4019481875,33.564375
2021-06-21 18:28:29.187500000,-57.0,-8.0,31.0,80.29625,-7.43,18.4023085,33.565
2021-06-21 18:28:29.195312500,-57.0,-8.0,30.75,80.29609375,-5.18,18.4026688125,33.565625
2021-06-21 18:28:29.203125000,-57.0,-8.0,30.5,80.2959375,-2.93,18.403029125,33.56625
2021-06-21 18:28:29.210937500,-57.0,-8.0,30.25,80.29578125,-0.7749999999999999,18.4033894375,33.566875
2021-06-21 18:28:29.218750000,-57.0,-8.0,30.0,80.295625,1.38,18.40374975,33.5675
2021-06-21 18:28:29.226562500,-57.0,-8.0,30.0,80.29546875,3.2199999999999998,18.4041100625,33.568125
2021-06-21 18:28:29.234375000,-57.0,-8.0,30.0,80.2953125,5.06,18.404470375,33.56875
2021-06-21 18:28:29.242187500,-57.0,-8.0,30.0,80.29515625,6.449999999999999,18.4048306875,33.569375
2021-06-21 18:28:29.250000000,-57.0,-8.0,30.0,80.295,7.84,18.405191,33.57
2021-06-21 18:28:29.257812500,-57.0,-7.75,30.0,80.29484375,8.719999999999999,18.40623184375,33.57
2021-06-21 18:28:29.265625000,-57.0,-7.5,30.0,80.2946875,9.6,18.407272687499997,33.57
2021-06-21 18:28:29.273437500,-57.0,-7.25,30.0,80.29453124999999,9.975,18.40831353125,33.57
2021-06-21 18:28:29.281250000,-57.0,-7.0,30.0,80.294375,10.35,18.409354375,33.57
2021-06-21 18:28:29.289062500,-57.0,-7.25,30.25,80.29421875,10.285,18.410395218749997,33.57
2021-06-21 18:28:29.296875000,-57.0,-7.5,30.5,80.2940625,10.22,18.411436062499998,33.57
2021-06-21 18:28:29.304687500,-57.0,-7.75,30.75,80.29390624999999,9.84,18.41247690625,33.57
2021-06-21 18:28:29.312500000,-57.0,-8.0,31.0,80.29375,9.46,18.413517749999997,33.57
2021-06-21 18:28:29.320312500,-57.0,-7.75,30.75,80.29359375,8.91,18.414558593749998,33.57
2021-06-21 18:28:29.328125000,-57.0,-7.5,30.5,80.2934375,8.36,18.4155994375,33.57
2021-06-21 18:28:29.335937500,-57.0,-7.25,30.25,80.29328124999999,7.8149999999999995,18.41664028125,33.57
2021-06-21 18:28:29.343750000,-57.0,-7.0,30.0,80.293125,7.27,18.417681124999998,33.57
2021-06-21 18:28:29.351562500,-57.0,-7.25,30.0,80.29296875,6.859999999999999,18.41872196875,33.57
2021-06-21 18:28:29.359375000,-57.0,-7.5,30.0,80.2928125,6.45,18.4197628125,33.57
2021-06-21 18:28:29.367187500,-57.0,-7.75,30.0,80.29265625,6.245,18.420803656249998,33.57
2021-06-21 18:28:29.375000000,-57.0,-8.0,30.0,80.2925,6.04,18.4218445,33.57
2021-06-21 18:28:29.382812500,-57.0,-8.0,30.0,80.29234375,6.02,18.42288534375,33.57
2021-06-21 18:28:29.390625000,-57.0,-8.0,30.0,80.2921875,6.0,18.423926187499998,33.57
2021-06-21 18:28:29.398437500,-57.0,-8.0,30.0,80.29203125,6.09,18.42496703125,33.57
2021-06-21 18:28:29.406250000,-57.0,-8.0,30.0,80.291875,6.18,18.426007875,33.57
2021-06-21 18:28:29.414062500,-57.0,-8.0,30.0,80.29171875,6.3100000000000005,18.427048718749997,33.57
2021-06-21 18:28:29.421875000,-57.0,-8.0,30.0,80.2915625,6.44,18.4280895625,33.57
2021-06-21 18:28:29.429687500,-57.0,-8.0,30.0,80.29140625,6.57,18.42913040625,33.57
2021-06-21 18:28:29.437500000,-57.0,-8.0,30.0,80.29125,6.7,18.43017125,33.57
2021-06-21 18:28:29.445312500,-57.0,-8.0,30.25,80.29109375,6.84,18.43121209375,33.57
2021-06-21 18:28:29.453125000,-57.0,-8.0,30.5,80.2909375,6.98,18.4322529375,33.57
2021-06-21 18:28:29.460937500,-57.0,-8.0,30.75,80.29078125,7.16,18.43329378125,33.57
2021-06-21 18:28:29.468750000,-57.0,-8.0,31.0,80.290625,7.34,18.434334624999998,33.57
2021-06-21 18:28:29.476562500,-57.0,-8.0,31.0,80.29046875,7.555,18.43537546875,33.57
2021-06-21 18:28:29.484375000,-57.0,-8.0,31.0,80.2903125,7.77,18.4364163125,33.57
2021-06-21 18:28:29.492187500,-57.0,-8.0,31.0,80.29015625,7.965,18.437457156249998,33.57
2021-06-21 18:28:29.500000000,-57.0,-8.0,31.0,80.28999999999999,8.16,18.438498,33.57
2021-06-21 18:28:29.507812500,-57.0,-8.0,30.75,80.28984375,8.254999999999999,18.43881825,33.57
2021-06-21 18:28:29.515625000,-57.0,-8.0,30.5,80.2896875,8.35,18.4391385,33.57
2021-06-21 18:28:29.523437500,-57.0,-8.0,30.25,80.28953125,8.25,18.43945875,33.57
2021-06-21 18:28:29.531250000,-57.0,-8.0,30.0,80.28937499999999,8.15,18.439778999999998,33.57
2021-06-21 18:28:29.539062500,-57.0,-8.0,30.0,80.28921875,7.83,18.44009925,33.57
2021-06-21 18:28:29.546875000,-57.0,-8.0,30.0,80.2890625,7.51,18.4404195,33.57
2021-06-21 18:28:29.554687500,-57.0,-8.0,30.0,80.28890625,7.025,18.44073975,33.57
2021-06-21 18:28:29.562500000,-57.0,-8.0,30.0,80.28875,6.54,18.44106,33.57
2021-06-21 18:28:29.570312500,-57.0,-8.0,30.0,80.28859375,5.965,18.441380249999998,33.57
2021-06-21 18:28:29.578125000,-57.0,-8.0,30.0,80.2884375,5.39,18.4417005,33.57
2021-06-21 18:28:29.585937500,-57.0,-8.0,30.0,80.28828125,4.82,18.44202075,33.57
2021-06-21 18:28:29.593750000,-57.0,-8.0,30.0,80.288125,4.25,18.442341,33.57
2021-06-21 18:28:29.601562500,-57.0,-8.0,30.0,80.28796875,3.715,18.44266125,33.57
2021-06-21 18:28:29.609375000,-57.0,-8.0,30.0,80.2878125,3.18,18.4429815,33.57
2021-06-21 18:28:29.617187500,-57.0,-8.0,30.0,80.28765625,2.6950000000000003,18.44330175,33.57
2021-06-21 18:28:29.625000000,-57.0,-8.0,30.0,80.2875,2.21,18.443621999999998,33.57
2021-06-21 18:28:29.632812500,-57.0,-8.0,30.25,80.28734375,1.745,18.44394225,33.57
2021-06-21 18:28:29.640625000,-57.0,-8.0,30.5,80.2871875,1.28,18.4442625,33.57
2021-06-21 18:28:29.648437500,-57.0,-8.0,30.75,80.28703125,0.8200000000000001,18.44458275,33.57
2021-06-21 18:28:29.656250000,-57.0,-8.0,31.0,80.286875,0.36,18.444903,33.57
2021-06-21 18:28:29.664062500,-57.0,-8.0,30.75,80.28671875,-0.10499999999999998,18.445223249999998,33.57
2021-06-21 18:28:29.671875000,-57.0,-8.0,30.5,80.2865625,-0.57,18.4455435,33.57
2021-06-21 18:28:29.679687500,-57.0,-8.0,30.25,80.28640625,-1.04,18.44586375,33.57
2021-06-21 18:28:29.687500000,-57.0,-8.0,30.0,80.28625,-1.51,18.446184,33.57
2021-06-21 18:28:29.695312500,-57.0,-7.75,30.0,80.28609375,-1.9900000000000002,18.44650425,33.57
2021-06-21 18:28:29.703125000,-57.0,-7.5,30.0,80.2859375,-2.47,18.446824499999998,33.57
2021-06-21 18:28:29.710937500,-57.0,-7.25,30.0,80.28578125,-2.955,18.44714475,33.57
2021-06-21 18:28:29.718750000,-57.0,-7.0,30.0,80.285625,-3.44,18.447465,33.57
2021-06-21 18:28:29.726562500,-57.0,-7.0,30.25,80.28546875,-3.925,18.44778525,33.57
2021-06-21 18:28:29.734375000,-57.0,-7.0,30.5,80.2853125,-4.41,18.4481055,33.57
2021-06-21 18:28:29.742187500,-57.0,-7.0,30.75,80.28515625,-4.885,18.44842575,33.57
2021-06-21 18:28:29.750000000,-57.0,-7.0,31.0,80.285,-5.36,18.448746,33.57
2021-06-21 18:28:29.757812500,-57.0,-7.25,31.0,80.28484375,-5.785,18.44890609375,33.57
2021-06-21 18:28:29.765625000,-57.0,-7.5,31.0,80.2846875,-6.21,18.4490661875,33.57
2021-06-21 18:28:29.773437500,-57.0,-7.75,31.0,80.28453125,-6.555,18.44922628125,33.57
2021-06-21 18:28:29.781250000,-57.0,-8.0,31.0,80.284375,-6.9,18.449386375,33.57
2021-06-21 18:28:29.789062500,-57.0,-8.0,31.0,80.28421875,-7.165,18.44954646875,33.57
2021-06-21 18:28:29.796875000,-57.0,-8.0,31.0,80.2840625,-7.43,18.4497065625,33.57
2021-06-21 18:28:29.804687500,-57.0,-8.0,31.0,80.28390625,-7.63,18.44986665625,33.57
2021-06-21 18:28:29.812500000,-57.0,-8.0,31.0,80.28375,-7.83,18.45002675,33.57
2021-06-21 18:28:29.820312500,-57.0,-8.0,30.75,80.28359375,-8.045,18.45018684375,33.57
2021-06-21 18:28:29.828125000,-57.0,-8.0,30.5,80.2834375,-8.26,18.4503469375,33.57
2021-06-21 18:28:29.835937500,-57.0,-8.0,30.25,80.28328125,-8.594999999999999,18.45050703125,33.57
2021-06-21 18:28:29.843750000,-57.0,-8.0,30.0,80.283125,-8.93,18.450667125,33.57
2021-06-21 18:28:29.851562500,-57.0,-7.75,30.0,80.28296875,-9.49,18.45082721875,33.57
2021-06-21 18:28:29.859375000,-57.0,-7.5,30.0,80.2828125,-10.05,18.4509873125,33.57
2021-06-21 18:28:29.867187500,-57.0,-7.25,30.0,80.28265625,-10.88,18.45114740625,33.57
2021-06-21 18:28:29.875000000,-57.0,-7.0,30.0,80.2825,-11.71,18.4513075,33.57
2021-06-21 18:28:29.882812500,-57.0,-7.25,30.0,80.28234375,-12.765,18.45146759375,33.57
2021-06-21 18:28:29.890625000,-57.0,-7.5,30.0,80.2821875,-13.82,18.4516276875,33.57
2021-06-21 18:28:29.898437500,-57.0,-7.75,30.0,80.28203125,-14.945,18.45178778125,33.57
2021-06-21 18:28:29.906250000,-57.0,-8.0,30.0,80.281875,-16.07,18.451947875000002,33.57
2021-06-21 18:28:29.914062500,-57.0,-8.0,30.25,80.28171875,-17.015,18.45210796875,33.57
2021-06-21 18:28:29.921875000,-57.0,-8.0,30.5,80.2815625,-17.96,18.4522680625,33.57
2021-06-21 18:28:29.929687500,-57.0,-8.0,30.75,80.28140625,-18.44,18.45242815625,33.57
2021-06-21 18:28:29.937500000,-57.0,-8.0,31.0,80.28125,-18.92,18.45258825,33.57
2021-06-21 18:28:29.945312500,-57.0,-8.0,30.75,80.28109375,-18.705,18.452748343750002,33.57
2021-06-21 18:28:29.953125000,-57.0,-8.0,30.5,80.28093750000001,-18.49,18.4529084375,33.57
2021-06-21 18:28:29.960937500,-57.0,-8.0,30.25,80.28078125,-17.45,18.45306853125,33.57
2021-06-21 18:28:29.968750000,-57.0,-8.0,30.0,80.280625,-16.41,18.453228625,33.57
2021-06-21 18:28:29.976562500,-57.0,-7.75,30.0,80.28046875,-14.594999999999999,18.453388718750002,33.57
2021-06-21 18:28:29.984375000,-57.0,-7.5,30.0,80.28031250000001,-12.78,18.4535488125,33.57
2021-06-21 18:28:29.992187500,-57.0,-7.25,30.0,80.28015625,-10.395,18.45370890625,33.57
2021-06-21 18:28:30.000000000,-57.0,-7.0,30.0,80.28,-8.01,18.453869,33.57
2021-06-21 18:28:30.007812500,-57.0,-7.25,30.0,80.279765625,-5.39,18.45470965625,33.57
2021-06-21 18:28:30.015625000,-57.0,-7.5,30.0,80.27953125,-2.77,18.4555503125,33.57
2021-06-21 18:28:30.023437500,-57.0,-7.75,30.0,80.279296875,-0.2650000000000001,18.45639096875,33.57
2021-06-21 18:28:30.031250000,-57.0,-8.0,30.0,80.2790625,2.24,18.457231625000002,33.57
2021-06-21 18:28:30.039062500,-57.0,-8.0,30.0,80.278828125,4.32,18.45807228125,33.57
2021-06-21 18:28:30.046875000,-57.0,-8.0,30.0,80.27859375,6.4,18.4589129375,33.57
2021-06-21 18:28:30.054687500,-57.0,-8.0,30.0,80.27835937500001,7.88,18.45975359375,33.57
2021-06-21 18:28:30.062500000,-57.0,-8.0,30.0,80.278125,9.36,18.46059425,33.57
2021-06-21 18:28:30.070312500,-57.0,-8.0,30.0,80.277890625,10.219999999999999,18.461434906250002,33.57
2021-06-21 18:28:30.078125000,-57.0,-8.0,30.0,80.27765625,11.08,18.4622755625,33.57
2021-06-21 18:28:30.085937500,-57.0,-8.0,30.0,80.277421875,11.405000000000001,18.46311621875,33.57
2021-06-21 18:28:30.093750000,-57.0,-8.0,30.0,80.2771875,11.73,18.463956875,33.57
2021-06-21 18:28:30.101562500,-57.0,-8.0,30.0,80.276953125,11.68,18.46479753125,33.57
2021-06-21 18:28:30.109375000,-57.0,-8.0,30.0,80.27671875,11.63,18.4656381875,33.57
2021-06-21 18:28:30.117187500,-57.0,-8.0,30.0,80.276484375,11.34,18.46647884375,33.57
2021-06-21 18:28:30.125000000,-57.0,-8.0,30.0,80.27625,11.05,18.467319500000002,33.57
2021-06-21 18:28:30.132812500,-57.0,-7.75,30.0,80.276015625,10.63,18.46816015625,33.57
2021-06-21 18:28:30.140625000,-57.0,-7.5,30.0,80.27578125,10.21,18.4690008125,33.57
2021-06-21 18:28:30.148437500,-57.0,-7.25,30.0,80.275546875,9.725000000000001,18.46984146875,33.57
2021-06-21 18:28:30.156250000,-57.0,-7.0,30.0,80.2753125,9.24,18.470682125,33.57
2021-06-21 18:28:30.164062500,-57.0,-7.0,30.0,80.27507812500001,8.74,18.471522781250002,33.57
2021-06-21 18:28:30.171875000,-57.0,-7.0,30.0,80.27484375,8.24,18.4723634375,33.57
2021-06-21 18:28:30.179687500,-57.0,-7.0,30.0,80.274609375,7.78,18.47320409375,33.57
2021-06-21 18:28:30.187500000,-57.0,-7.0,30.0,80.274375,7.32,18.47404475,33.57
2021-06-21 18:28:30.195312500,-57.0,-7.0,30.0,80.274140625,6.965,18.47488540625,33.57
2021-06-21 18:28:30.203125000,-57.0,-7.0,30.0,80.27390625,6.61,18.4757260625,33.57
2021-06-21 18:28:30.210937500,-57.0,-7.0,30.0,80.273671875,6.4399999999999995,18.47656671875,33.57
2021-06-21 18:28:30.218750000,-57.0,-7.0,30.0,80.2734375,6.27,18.477407375,33.57
2021-06-21 18:28:30.226562500,-57.0,-7.25,30.0,80.273203125,6.3149999999999995,18.47824803125,33.57
2021-06-21 18:28:30.234375000,-57.0,-7.5,30.0,80.27296875,6.36,18.4790886875,33.57
2021-06-21 18:28:30.242187500,-57.0,-7.75,30.0,80.272734375,6.61,18.47992934375,33.57
2021-06-21 18:28:30.250000000,-57.0,-8.0,30.0,80.27250000000001,6.86,18.48077,33.57
2021-06-21 18:28:30.257812500,-57.0,-7.75,30.0,80.272265625,7.25,18.48024959375,33.57
2021-06-21 18:28:30.265625000,-57.0,-7.5,30.0,80.27203125,7.64,18.4797291875,33.57
2021-06-21 18:28:30.273437500,-57.0,-7.25,30.0,80.271796875,8.095,18.47920878125,33.57
2021-06-21 18:28:30.281250000,-57.0,-7.0,30.0,80.2715625,8.55,18.478688375,33.57
2021-06-21 18:28:30.289062500,-57.0,-7.0,30.0,80.271328125,8.975000000000001,18.47816796875,33.57
2021-06-21 18:28:30.296875000,-57.0,-7.0,30.0,80.27109375,9.4,18.4776475625,33.57
2021-06-21 18:28:30.304687500,-57.0,-7.0,30.0,80.270859375,9.73,18.47712715625,33.57
2021-06-21 18:28:30.312500000,-57.0,-7.0,30.0,80.270625,10.06,18.476606750000002,33.57
2021-06-21 18:28:30.320312500,-57.0,-7.0,30.25,80.270390625,10.245000000000001,18.47608634375,33.57
2021-06-21 18:28:30.328125000,-57.0,-7.0,30.5,80.27015625,10.43,18.4755659375,33.57
2021-06-21 18:28:30.335937500,-57.0,-7.0,30.75,80.269921875,10.425,18.47504553125,33.57
2021-06-21 18:28:30.343750000,-57.0,-7.0,31.0,80.2696875,10.42,18.474525125,33.57
2021-06-21 18:28:30.351562500,-57.0,-7.0,30.75,80.269453125,10.195,18.47400471875,33.57
2021-06-21 18:28:30.359375000,-57.0,-7.0,30.5,80.26921875000001,9.97,18.473484312500002,33.57
2021-06-21 18:28:30.367187500,-57.0,-7.0,30.25,80.268984375,9.5,18.47296390625,33.57
2021-06-21 18:28:30.375000000,-57.0,-7.0,30.0,80.26875,9.03,18.4724435,33.57
2021-06-21 18:28:30.382812500,-57.0,-7.0,30.0,80.268515625,8.334999999999999,18.47192309375,33.57
2021-06-21 18:28:30.390625000,-57.0,-7.0,30.0,80.26828125,7.64,18.4714026875,33.57
2021-06-21 18:28:30.398437500,-57.0,-7.0,30.0,80.268046875,6.76,18.470882281250002,33.57
2021-06-21 18:28:30.406250000,-57.0,-7.0,30.0,80.2678125,5.88,18.470361875000002,33.57
2021-06-21 18:28:30.414062500,-57.0,-7.0,30.0,80.267578125,4.89,18.46984146875,33.57
2021-06-21 18:28:30.421875000,-57.0,-7.0,30.0,80.26734375,3.9,18.4693210625,33.57
2021-06-21 18:28:30.429687500,-57.0,-7.0,30.0,80.267109375,2.92,18.46880065625,33.57
2021-06-21 18:28:30.437500000,-57.0,-7.0,30.0,80.266875,1.94,18.46828025,33.57
2021-06-21 18:28:30.445312500,-57.0,-7.0,30.0,80.266640625,1.06,18.467759843750002,33.57
2021-06-21 18:28:30.453125000,-57.0,-7.0,30.0,80.26640625,0.18,18.4672394375,33.57
2021-06-21 18:28:30.460937500,-57.0,-7.0,30.0,80.266171875,-0.52,18.46671903125,33.57
2021-06-21 18:28:30.468750000,-57.0,-7.0,30.0,80.2659375,-1.22,18.466198625,33.57
2021-06-21 18:28:30.476562500,-57.0,-7.0,30.0,80.265703125,-1.7349999999999999,18.46567821875,33.57
2021-06-21 18:28:30.484375000,-57.0,-7.0,30.0,80.26546875,-2.25,18.465157812500003,33.57
2021-06-21 18:28:30.492187500,-57.0,-7.0,30.0,80.265234375,-2.625,18.464637406250002,33.57
2021-06-21 18:28:30.500000000,-57.0,-7.0,30.0,80.265,-3.0,18.464117,33.57
2021-06-21 18:28:30.507812500,-57.0,-7.0,30.25,80.264765625,-3.3049999999999997,18.463476500000002,33.57
2021-06-21 18:28:30.515625000,-57.0,-7.0,30.5,80.26453125,-3.61,18.462836000000003,33.57
2021-06-21 18:28:30.523437500,-57.0,-7.0,30.75,80.264296875,-3.8899999999999997,18.4621955,33.57
2021-06-21 18:28:30.531250000,-57.0,-7.0,31.0,80.2640625,-4.17,18.461555,33.57
2021-06-21 18:28:30.539062500,-57.0,-7.0,30.75,80.263828125,-4.46,18.4609145,33.57
2021-06-21 18:28:30.546875000,-57.0,-7.0,30.5,80.26359375,-4.75,18.460274000000002,33.57
2021-06-21 18:28:30.554687500,-57.0,-7.0,30.25,80.26335937500001,-5.035,18.459633500000002,33.57
2021-06-21 18:28:30.562500000,-57.0,-7.0,30.0,80.263125,-5.32,18.458993,33.57
2021-06-21 18:28:30.570312500,-57.0,-7.0,30.0,80.262890625,-5.595000000000001,18.4583525,33.57
2021-06-21 18:28:30.578125000,-57.0,-7.0,30.0,80.26265625,-5.87,18.457712,33.57
2021-06-21 18:28:30.585937500,-57.0,-7.0,30.0,80.262421875,-6.155,18.4570715,33.57
2021-06-21 18:28:30.593750000,-57.0,-7.0,30.0,80.2621875,-6.44,18.456431000000002,33.57
2021-06-21 18:28:30.601562500,-57.0,-7.0,30.0,80.261953125,-6.785,18.455790500000003,33.57
2021-06-21 18:28:30.609375000,-57.0,-7.0,30.0,80.26171875,-7.13,18.45515,33.57
2021-06-21 18:28:30.617187500,-57.0,-7.0,30.0,80.261484375,-7.609999999999999,18.4545095,33.57
2021-06-21 18:28:30.625000000,-57.0,-7.0,30.0,80.26125,-8.09,18.453869,33.57
2021-06-21 18:28:30.632812500,-57.0,-7.25,30.0,80.261015625,-8.765,18.4532285,33.57
2021-06-21 18:28:30.640625000,-57.0,-7.5,30.0,80.26078125,-9.44,18.452588000000002,33.57
2021-06-21 18:28:30.648437500,-57.0,-7.75,30.0,80.260546875,-10.33,18.4519475,33.57
2021-06-21 18:28:30.656250000,-57.0,-8.0,30.0,80.2603125,-11.22,18.451307,33.57
2021-06-21 18:28:30.664062500,-57.0,-7.75,30.0,80.260078125,-12.275,18.4506665,33.57
2021-06-21 18:28:30.671875000,-57.0,-7.5,30.0,80.25984375,-13.33,18.450026,33.57
2021-06-21 18:28:30.679687500,-57.0,-7.25,30.0,80.259609375,-14.425,18.4493855,33.57
2021-06-21 18:28:30.687500000,-57.0,-7.0,30.0,80.259375,-15.52,18.448745000000002,33.57
2021-06-21 18:28:30.695312500,-57.0,-7.0,30.0,80.259140625,-16.48,18.4481045,33.57
2021-06-21 18:28:30.703125000,-57.0,-7.0,30.0,80.25890625,-17.44,18.447464,33.57
2021-06-21 18:28:30.710937500,-57.0,-7.0,30.0,80.258671875,-18.07,18.4468235,33.57
2021-06-21 18:28:30.718750000,-57.0,-7.0,30.0,80.2584375,-18.7,18.446183,33.57
2021-06-21 18:28:30.726562500,-57.0,-7.0,30.25,80.258203125,-18.79,18.445542500000002,33.57
2021-06-21 18:28:30.734375000,-57.0,-7.0,30.5,80.25796875,-18.88,18.444902,33.57
2021-06-21 18:28:30.742187500,-57.0,-7.0,30.75,80.257734375,-18.265,18.4442615,33.57
2021-06-21 18:28:30.750000000,-57.0,-7.0,31.0,80.2575,-17.65,18.443621,33.57
2021-06-21 18:28:30.757812500,-57.0,-7.0,31.0,80.257265625,-16.265,18.443180625,33.57
2021-06-21 18:28:30.765625000,-57.0,-7.0,31.0,80.25703125,-14.88,18.44274025,33.57
2021-06-21 18:28:30.773437500,-57.0,-7.0,31.0,80.256796875,-12.79,18.442299875,33.57
2021-06-21 18:28:30.781250000,-57.0,-7.0,31.0,80.2565625,-10.7,18.4418595,33.57
2021-06-21 18:28:30.789062500,-57.0,-7.0,31.0,80.256328125,-8.12,18.441419125,33.57
2021-06-21 18:28:30.796875000,-57.0,-7.0,31.0,80.25609375,-5.54,18.44097875,33.57
2021-06-21 18:28:30.804687500,-57.0,-7.0,31.0,80.255859375,-2.795,18.440538375,33.57
2021-06-21 18:28:30.812500000,-57.0,-7.0,31.0,80.255625,-0.05,18.440098,33.57
2021-06-21 18:28:30.820312500,-57.0,-7.0,30.75,80.255390625,2.525,18.439657625,33.57
2021-06-21 18:28:30.828125000,-57.0,-7.0,30.5,80.25515625,5.1,18.43921725,33.57
2021-06-21 18:28:30.835937500,-57.0,-7.0,30.25,80.254921875,7.225,18.438776875,33.57
2021-06-21 18:28:30.843750000,-57.0,-7.0,30.0,80.2546875,9.35,18.4383365,33.57
2021-06-21 18:28:30.851562500,-57.0,-7.0,30.25,80.254453125,10.865,18.437896124999998,33.57
2021-06-21 18:28:30.859375000,-57.0,-7.0,30.5,80.25421875,12.38,18.437455749999998,33.57
2021-06-21 18:28:30.867187500,-57.0,-7.0,30.75,80.253984375,13.27,18.437015374999998,33.57
2021-06-21 18:28:30.875000000,-57.0,-7.0,31.0,80.25375,14.16,18.436574999999998,33.57
2021-06-21 18:28:30.882812500,-57.0,-7.0,31.0,80.253515625,14.495000000000001,18.436134625,33.57
2021-06-21 18:28:30.890625000,-57.0,-7.0,31.0,80.25328125,14.83,18.43569425,33.57
2021-06-21 18:28:30.898437500,-57.0,-7.0,31.0,80.253046875,14.719999999999999,18.435253875,33.57
2021-06-21 18:28:30.906250000,-57.0,-7.0,31.0,80.2528125,14.61,18.4348135,33.57
2021-06-21 18:28:30.914062500,-57.0,-7.0,30.75,80.252578125,14.17,18.434373125,33.57
2021-06-21 18:28:30.921875000,-57.0,-7.0,30.5,80.25234375,13.73,18.43393275,33.57
2021-06-21 18:28:30.929687500,-57.0,-7.0,30.25,80.252109375,13.055,18.433492375,33.57
2021-06-21 18:28:30.937500000,-57.0,-7.0,30.0,80.251875,12.38,18.433052,33.57
2021-06-21 18:28:30.945312500,-57.0,-7.0,30.0,80.251640625,11.595,18.432611625,33.57
2021-06-21 18:28:30.953125000,-57.0,-7.0,30.0,80.25140625,10.81,18.43217125,33.57
2021-06-21 18:28:30.960937500,-57.0,-7.0,30.0,80.251171875,10.055,18.431730875,33.57
2021-06-21 18:28:30.968750000,-57.0,-7.0,30.0,80.2509375,9.3,18.4312905,33.57
2021-06-21 18:28:30.976562500,-57.0,-7.0,30.0,80.250703125,8.73,18.430850125,33.57
2021-06-21 18:28:30.984375000,-57.0,-7.0,30.0,80.25046875,8.16,18.43040975,33.57
2021-06-21 18:28:30.992187500,-57.0,-7.0,30.0,80.250234375,7.895,18.429969375,33.57
2021-06-21 18:28:31.000000000,-57.0,-7.0,30.0,80.25,7.63,18.429529,33.57
2021-06-21 18:28:31.007812500,-57.0,-7.0,30.0,80.249765625,7.734999999999999,18.428127937499998,33.569375
2021-06-21 18:28:31.015625000,-57.0,-7.0,30.0,80.24953125,7.84,18.426726875,33.56875
2021-06-21 18:28:31.023437500,-57.0,-7.0,30.0,80.249296875,8.26,18.4253258125,33.568125
2021-06-21 18:28:31.031250000,-57.0,-7.0,30.0,80.2490625,8.68,18.423924749999998,33.5675
2021-06-21 18:28:31.039062500,-57.0,-7.0,30.0,80.248828125,9.280000000000001,18.4225236875,33.566875
2021-06-21 18:28:31.046875000,-57.0,-7.0,30.0,80.24859375,9.88,18.421122625,33.56625
2021-06-21 18:28:31.054687500,-57.0,-7.0,30.0,80.248359375,10.48,18.419721562499998,33.565625
2021-06-21 18:28:31.062500000,-57.0,-7.0,30.0,80.248125,11.08,18.4183205,33.565
2021-06-21 18:28:31.070312500,-57.0,-7.0,30.0,80.247890625,11.535,18.4169194375,33.564375
2021-06-21 18:28:31.078125000,-57.0,-7.0,30.0,80.24765625,11.99,18.415518374999998,33.56375
2021-06-21 18:28:31.085937500,-57.0,-7.0,30.0,80.247421875,12.205,18.4141173125,33.563125
2021-06-21 18:28:31.093750000,-57.0,-7.0,30.0,80.2471875,12.42,18.41271625,33.5625
2021-06-21 18:28:31.101562500,-57.0,-7.0,30.0,80.246953125,12.385,18.411315187499998,33.561875
2021-06-21 18:28:31.109375000,-57.0,-7.0,30.0,80.24671875,12.35,18.409914125,33.56125
2021-06-21 18:28:31.117187500,-57.0,-7.0,30.0,80.246484375,12.1,18.4085130625,33.560625
2021-06-21 18:28:31.125000000,-57.0,-7.0,30.0,80.24625,11.85,18.407111999999998,33.56
2021-06-21 18:28:31.132812500,-57.25,-7.0,30.0,80.246015625,11.42,18.4057109375,33.559374999999996
2021-06-21 18:28:31.140625000,-57.5,-7.0,30.0,80.24578125,10.99,18.404309875,33.558749999999996
2021-06-21 18:28:31.148437500,-57.75,-7.0,30.0,80.245546875,10.41,18.4029088125,33.558125
2021-06-21 18:28:31.156250000,-58.0,-7.0,30.0,80.2453125,9.83,18.40150775,33.5575
2021-06-21 18:28:31.164062500,-57.75,-7.0,30.0,80.245078125,9.115,18.4001066875,33.556875
2021-06-21 18:28:31.171875000,-57.5,-7.0,30.0,80.24484375,8.4,18.398705625,33.55625
2021-06-21 18:28:31.179687500,-57.25,-7.0,30.0,80.244609375,7.585,18.3973045625,33.555625
2021-06-21 18:28:31.187500000,-57.0,-7.0,30.0,80.244375,6.77,18.3959035,33.555
2021-06-21 18:28:31.195312500,-57.0,-7.0,30.0,80.244140625,5.92,18.3945024375,33.554375
2021-06-21 18:28:31.203125000,-57.0,-7.0,30.0,80.24390625,5.07,18.393101375,33.55375
2021-06-21 18:28:31.210937500,-57.0,-7.0,30.0,80.243671875,4.2700000000000005,18.3917003125,33.553124999999994
2021-06-21 18:28:31.218750000,-57.0,-7.0,30.0,80.2434375,3.47,18.39029925,33.552499999999995
2021-06-21 18:28:31.226562500,-57.0,-7.0,30.0,80.243203125,2.7800000000000002,18.3888981875,33.551874999999995
2021-06-21 18:28:31.234375000,-57.0,-7.0,30.0,80.24296875,2.09,18.387497125,33.551249999999996
2021-06-21 18:28:31.242187500,-57.0,-7.0,30.0,80.242734375,1.545,18.386096062500002,33.550625
2021-06-21 18:28:31.250000000,-57.0,-7.0,30.0,80.2425,1.0,18.384695,33.55
2021-06-21 18:28:31.257812500,-57.0,-7.0,30.0,80.242265625,0.535,18.38481503125,33.55
2021-06-21 18:28:31.265625000,-57.0,-7.0,30.0,80.24203125,0.07,18.384935062500002,33.55
2021-06-21 18:28:31.273437500,-57.0,-7.0,30.0,80.241796875,-0.38999999999999996,18.38505509375,33.55
2021-06-21 18:28:31.281250000,-57.0,-7.0,30.0,80.2415625,-0.85,18.385175125,33.55
2021-06-21 18:28:31.289062500,-57.0,-7.0,30.0,80.241328125,-1.395,18.38529515625,33.55
2021-06-21 18:28:31.296875000,-57.0,-7.0,30.0,80.24109375,-1.94,18.3854151875,33.55
2021-06-21 18:28:31.304687500,-57.0,-7.0,30.0,80.240859375,-2.5999999999999996,18.38553521875,33.55
2021-06-21 18:28:31.312500000,-57.0,-7.0,30.0,80.240625,-3.26,18.38565525,33.55
2021-06-21 18:28:31.320312500,-57.0,-7.0,30.0,80.240390625,-4.02,18.38577528125,33.55
2021-06-21 18:28:31.328125000,-57.0,-7.0,30.0,80.24015625,-4.78,18.3858953125,33.55
2021-06-21 18:28:31.335937500,-57.0,-7.0,30.0,80.239921875,-5.585,18.38601534375,33.55
2021-06-21 18:28:31.343750000,-57.0,-7.0,30.0,80.2396875,-6.39,18.386135375,33.55
2021-06-21 18:28:31.351562500,-57.0,-7.0,30.0,80.239453125,-7.175,18.38625540625,33.55
2021-06-21 18:28:31.359375000,-57.0,-7.0,30.0,80.23921875,-7.96,18.3863754375,33.55
2021-06-21 18:28:31.367187500,-57.0,-7.0,30.0,80.238984375,-8.695,18.38649546875,33.55
2021-06-21 18:28:31.375000000,-57.0,-7.0,30.0,80.23875,-9.43,18.386615499999998,33.55
2021-06-21 18:28:31.382812500,-57.0,-7.0,30.0,80.238515625,-10.094999999999999,18.38673553125,33.55
2021-06-21 18:28:31.390625000,-57.0,-7.0,30.0,80.23828125,-10.76,18.3868555625,33.55
2021-06-21 18:28:31.398437500,-57.0,-7.0,30.0,80.238046875,-11.335,18.386975593749998,33.55
2021-06-21 18:28:31.406250000,-57.0,-7.0,30.0,80.2378125,-11.91,18.387095625,33.55
2021-06-21 18:28:31.414062500,-57.0,-7.0,30.0,80.237578125,-12.379999999999999,18.38721565625,33.55
2021-06-21 18:28:31.421875000,-57.0,-7.0,30.0,80.23734375,-12.85,18.3873356875,33.55
2021-06-21 18:28:31.429687500,-57.0,-7.0,30.0,80.237109375,-13.219999999999999,18.387455718749997,33.55
2021-06-21 18:28:31.437500000,-57.0,-7.0,30.0,80.236875,-13.59,18.38757575,33.55
2021-06-21 18:28:31.445312500,-57.0,-7.0,30.0,80.23664062499999,-13.915,18.38769578125,33.55
2021-06-21 18:28:31.453125000,-57.0,-7.0,30.0,80.23640625,-14.24,18.387815812499998,33.55
2021-06-21 18:28:31.460937500,-57.0,-7.0,30.0,80.236171875,-14.605,18.38793584375,33.55
2021-06-21 18:28:31.468750000,-57.0,-7.0,30.0,80.2359375,-14.97,18.388055875,33.55
2021-06-21 18:28:31.476562500,-57.0,-7.0,30.0,80.235703125,-15.495000000000001,18.388175906249998,33.55
2021-06-21 18:28:31.484375000,-57.0,-7.0,30.0,80.23546875,-16.02,18.388295937499997,33.55
2021-06-21 18:28:31.492187500,-57.0,-7.0,30.0,80.235234375,-16.755,18.38841596875,33.55
2021-06-21 18:28:31.500000000,-57.0,-7.0,30.0,80.235,-17.49,18.388536,33.55
2021-06-21 18:28:31.507812500,-57.0,-7.0,30.0,80.234765625,-18.375,18.38877621875,33.55
2021-06-21 18:28:31.515625000,-57.0,-7.0,30.0,80.23453125,-19.26,18.389016437499997,33.55
2021-06-21 18:28:31.523437500,-57.0,-7.0,30.0,80.234296875,-20.1,18.389256656249998,33.55
2021-06-21 18:28:31.531250000,-57.0,-7.0,30.0,80.2340625,-20.94,18.389496875,33.55
2021-06-21 18:28:31.539062500,-57.0,-7.0,30.0,80.233828125,-21.435000000000002,18.38973709375,33.55
2021-06-21 18:28:31.546875000,-57.0,-7.0,30.0,80.23359375,-21.93,18.389977312499997,33.55
2021-06-21 18:28:31.554687500,-57.0,-7.0,30.0,80.233359375,-21.755,18.39021753125,33.55
2021-06-21 18:28:31.562500000,-57.0,-7.0,30.0,80.233125,-21.58,18.39045775,33.55
2021-06-21 18:28:31.570312500,-57.0,-7.0,30.0,80.232890625,-20.545,18.390697968749997,33.55
2021-06-21 18:28:31.578125000,-57.0,-7.0,30.0,80.23265625,-19.51,18.390938187499998,33.55
2021-06-21 18:28:31.585937500,-57.0,-7.0,30.0,80.232421875,-17.6,18.39117840625,33.55
2021-06-21 18:28:31.593750000,-57.0,-7.0,30.0,80.2321875,-15.69,18.391418625,33.55
2021-06-21 18:28:31.601562500,-57.0,-7.0,30.0,80.231953125,-13.1,18.391658843749997,33.55
2021-06-21 18:28:31.609375000,-57.0,-7.0,30.0,80.23171875,-10.51,18.3918990625,33.55
2021-06-21 18:28:31.617187500,-57.0,-7.0,30.0,80.231484375,-7.59,18.39213928125,33.55
2021-06-21 18:28:31.625000000,-57.0,-7.0,30.0,80.23125,-4.67,18.392379499999997,33.55
2021-06-21 18:28:31.632812500,-57.0,-7.0,30.0,80.231015625,-1.81,18.392619718749998,33.55
2021-06-21 18:28:31.640625000,-57.0,-7.0,30.0,80.23078124999999,1.05,18.3928599375,33.55
2021-06-21 18:28:31.648437500,-57.0,-7.0,30.0,80.230546875,3.55,18.39310015625,33.55
2021-06-21 18:28:31.656250000,-57.0,-7.0,30.0,80.2303125,6.05,18.393340374999998,33.55
2021-06-21 18:28:31.664062500,-57.0,-7.0,30.0,80.230078125,8.025,18.39358059375,33.55
2021-06-21 18:28:31.671875000,-57.0,-7.0,30.0,80.22984375,10.0,18.3938208125,33.55
2021-06-21 18:28:31.679687500,-57.0,-7.0,30.0,80.229609375,11.43,18.39406103125,33.55
2021-06-21 18:28:31.687500000,-57.0,-7.0,30.0,80.229375,12.86,18.394301249999998,33.55
2021-06-21 18:28:31.695312500,-57.0,-7.0,30.0,80.229140625,13.805,18.39454146875,33.55
2021-06-21 18:28:31.703125000,-57.0,-7.0,30.0,80.22890625,14.75,18.3947816875,33.55
2021-06-21 18:28:31.710937500,-57.0,-7.0,30.0,80.228671875,15.275,18.395021906249998,33.55
2021-06-21 18:28:31.718750000,-57.0,-7.0,30.0,80.2284375,15.8,18.395262125,33.55
2021-06-21 18:28:31.726562500,-57.0,-7.0,30.0,80.228203125,15.950000000000001,18.39550234375,33.55
2021-06-21 18:28:31.734375000,-57.0,-7.0,30.0,80.22796875,16.1,18.3957425625,33.55
2021-06-21 18:28:31.742187500,-57.0,-7.0,30.0,80.227734375,15.9,18.395982781249998,33.55
2021-06-21 18:28:31.750000000,-57.0,-7.0,30.0,80.22749999999999,15.7,18.396223,33.55
2021-06-21 18:28:31.757812500,-57.0,-7.0,30.0,80.227265625,15.205,18.3955024375,33.55
2021-06-21 18:28:31.765625000,-57.0,-7.0,30.0,80.22703125,14.71,18.394781875,33.55
2021-06-21 18:28:31.773437500,-57.0,-7.0,30.0,80.226796875,14.04,18.3940613125,33.55
2021-06-21 18:28:31.781250000,-57.0,-7.0,30.0,80.2265625,13.37,18.39334075,33.55
2021-06-21 18:28:31.789062500,-57.0,-7.0,30.0,80.226328125,12.69,18.3926201875,33.55
2021-06-21 18:28:31.796875000,-57.0,-7.0,30.0,80.22609375,12.01,18.391899625,33.55
2021-06-21 18:28:31.804687500,-57.0,-7.0,30.0,80.225859375,11.51,18.3911790625,33.55
2021-06-21 18:28:31.812500000,-57.0,-7.0,30.0,80.225625,11.01,18.3904585,33.55
2021-06-21 18:28:31.820312500,-57.0,-7.0,30.0,80.225390625,10.82,18.389737937499998,33.55
2021-06-21 18:28:31.828125000,-57.0,-7.0,30.0,80.22515625,10.63,18.389017374999998,33.55
2021-06-21 18:28:31.835937500,-57.0,-7.0,30.0,80.22492187499999,10.765,18.3882968125,33.55
2021-06-21 18:28:31.843750000,-57.0,-7.0,30.0,80.2246875,10.9,18.38757625,33.55
2021-06-21 18:28:31.851562500,-57.0,-7.0,30.0,80.224453125,11.285,18.3868556875,33.55
2021-06-21 18:28:31.859375000,-57.0,-7.0,30.0,80.22421875,11.67,18.386135125,33.55
2021-06-21 18:28:31.867187500,-57.0,-7.0,30.0,80.223984375,12.135,18.3854145625,33.55
2021-06-21 18:28:31.875000000,-57.0,-7.0,30.0,80.22375,12.6,18.384694,33.55
2021-06-21 18:28:31.882812500,-57.0,-7.0,30.0,80.223515625,12.99,18.3839734375,33.55
2021-06-21 18:28:31.890625000,-57.0,-7.0,30.0,80.22328125,13.38,18.383252875,33.55
2021-06-21 18:28:31.898437500,-57.0,-7.0,30.0,80.223046875,13.575,18.3825323125,33.55
2021-06-21 18:28:31.906250000,-57.0,-7.0,30.0,80.2228125,13.77,18.38181175,33.55
2021-06-21 18:28:31.914062500,-57.0,-7.0,30.0,80.222578125,13.719999999999999,18.3810911875,33.55
2021-06-21 18:28:31.921875000,-57.0,-7.0,30.0,80.22234375,13.67,18.380370625,33.55
2021-06-21 18:28:31.929687500,-57.0,-7.0,30.0,80.222109375,13.4,18.3796500625,33.55
2021-06-21 18:28:31.937500000,-57.0,-7.0,30.0,80.221875,13.13,18.378929499999998,33.55
2021-06-21 18:28:31.945312500,-57.0,-7.25,30.0,80.22164062499999,12.7,18.3782089375,33.55
2021-06-21 18:28:31.953125000,-57.0,-7.5,30.0,80.22140625,12.27,18.377488375,33.55
2021-06-21 18:28:31.960937500,-57.0,-7.75,30.0,80.221171875,11.754999999999999,18.3767678125,33.55
2021-06-21 18:28:31.968750000,-57.0,-8.0,30.0,80.2209375,11.24,18.37604725,33.55
2021-06-21 18:28:31.976562500,-57.0,-7.75,30.0,80.220703125,10.7,18.3753266875,33.55
2021-06-21 18:28:31.984375000,-57.0,-7.5,30.0,80.22046875,10.16,18.374606125,33.55
2021-06-21 18:28:31.992187500,-57.0,-7.25,30.0,80.220234375,9.625,18.3738855625,33.55
2021-06-21 18:28:32.000000000,-57.0,-7.0,30.0,80.22,9.09,18.373165,33.55
2021-06-21 18:28:32.007812500,-57.0,-7.0,30.0,80.219609375,8.54,18.37204409375,33.55
2021-06-21 18:28:32.015625000,-57.0,-7.0,30.0,80.21921875,7.99,18.3709231875,33.55
2021-06-21 18:28:32.023437500,-57.0,-7.0,30.0,80.218828125,7.395,18.36980228125,33.55
2021-06-21 18:28:32.031250000,-57.0,-7.0,30.0,80.2184375,6.8,18.368681375,33.55
2021-06-21 18:28:32.039062500,-57.0,-7.0,30.25,80.218046875,6.145,18.36756046875,33.55
2021-06-21 18:28:32.046875000,-57.0,-7.0,30.5,80.21765625,5.49,18.3664395625,33.55
2021-06-21 18:28:32.054687500,-57.0,-7.0,30.75,80.217265625,4.775,18.36531865625,33.55
2021-06-21 18:28:32.062500000,-57.0,-7.0,31.0,80.216875,4.06,18.36419775,33.55
2021-06-21 18:28:32.070312500,-57.0,-7.0,30.75,80.216484375,3.3099999999999996,18.36307684375,33.55
2021-06-21 18:28:32.078125000,-57.0,-7.0,30.5,80.21609375,2.56,18.3619559375,33.55
2021-06-21 18:28:32.085937500,-57.0,-7.0,30.25,80.215703125,1.83,18.360835031249998,33.55
2021-06-21 18:28:32.093750000,-57.0,-7.0,30.0,80.2153125,1.1,18.359714125,33.55
2021-06-21 18:28:32.101562500,-57.25,-7.0,30.0,80.214921875,0.42000000000000004,18.35859321875,33.55
2021-06-21 18:28:32.109375000,-57.5,-7.0,30.0,80.21453125,-0.26,18.3574723125,33.55
2021-06-21 18:28:32.117187500,-57.75,-7.0,30.0,80.214140625,-0.875,18.35635140625,33.55
2021-06-21 18:28:32.125000000,-58.0,-7.0,30.0,80.21375,-1.49,18.355230499999998,33.55
2021-06-21 18:28:32.132812500,-57.75,-7.0,30.0,80.213359375,-2.07,18.35410959375,33.55
2021-06-21 18:28:32.140625000,-57.5,-7.0,30.0,80.21296875,-2.65,18.352988687499998,33.55
2021-06-21 18:28:32.148437500,-57.25,-7.0,30.0,80.212578125,-3.2249999999999996,18.35186778125,33.55
2021-06-21 18:28:32.156250000,-57.0,-7.0,30.0,80.2121875,-3.8,18.350746875,33.55
2021-06-21 18:28:32.164062500,-57.0,-7.0,30.25,80.211796875,-4.4,18.34962596875,33.55
2021-06-21 18:28:32.171875000,-57.0,-7.0,30.5,80.21140625,-5.0,18.3485050625,33.55
2021-06-21 18:28:32.179687500,-57.0,-7.0,30.75,80.211015625,-5.640000000000001,18.347384156249998,33.55
2021-06-21 18:28:32.187500000,-57.0,-7.0,31.0,80.210625,-6.28,18.34626325,33.55
2021-06-21 18:28:32.195312500,-57.0,-7.0,30.75,80.210234375,-6.92,18.34514234375,33.55
2021-06-21 18:28:32.203125000,-57.0,-7.0,30.5,80.20984375,-7.56,18.3440214375,33.55
2021-06-21 18:28:32.210937500,-57.0,-7.0,30.25,80.209453125,-8.165,18.34290053125,33.55
2021-06-21 18:28:32.218750000,-57.0,-7.0,30.0,80.2090625,-8.77,18.341779624999997,33.55
2021-06-21 18:28:32.226562500,-57.0,-7.0,30.0,80.208671875,-9.285,18.34065871875,33.55
2021-06-21 18:28:32.234375000,-57.0,-7.0,30.0,80.20828125,-9.8,18.339537812499998,33.55
2021-06-21 18:28:32.242187500,-57.0,-7.0,30.0,80.207890625,-10.205,18.33841690625,33.55
2021-06-21 18:28:32.250000000,-57.0,-7.0,30.0,80.2075,-10.61,18.337296,33.55
2021-06-21 18:28:32.257812500,-57.0,-7.0,30.0,80.207109375,-10.925,18.337336031249997,33.55
