TimeStamp,empatica.acc.x,empatica.acc.y,empatica.acc.z,empatica.hr,empatica.bvp,empatica.eda,empatica.temp
2021-07-08 16:10:33.500000000,-59.0,4.0,27.0,81.2,20.8,22.850161,35.33
2021-07-08 16:10:33.507812500,-59.25,3.75,26.75,81.20031250000001,21.045,22.849720625,35.33
2021-07-08 16:10:33.515625000,-59.5,3.5,26.5,81.200625,21.29,22.84928025,35.33
2021-07-08 16:10:33.523437500,-59.75,3.25,26.25,81.20093750000001,21.09,22.848839875,35.33
2021-07-08 16:10:33.531250000,-60.0,3.0,26.0,81.20125,20.89,22.8483995,35.33
2021-07-08 16:10:33.539062500,-59.75,3.0,26.25,81.20156250000001,20.34,22.847959125,35.33
2021-07-08 16:10:33.546875000,-59.5,3.0,26.5,81.201875,19.79,22.84751875,35.33
2021-07-08 16:10:33.554687500,-59.25,3.0,26.75,81.20218750000001,19.049999999999997,22.847078375,35.33
2021-07-08 16:10:33.562500000,-59.0,3.0,27.0,81.2025,18.31,22.846638,35.33
2021-07-08 16:10:33.570312500,-59.25,3.0,26.75,81.20281250000001,17.549999999999997,22.846197625,35.33
2021-07-08 16:10:33.578125000,-59.5,3.0,26.5,81.203125,16.79,22.84575725,35.33
2021-07-08 16:10:33.585937500,-59.75,3.0,26.25,81.2034375,16.175,22.845316874999998,35.33
2021-07-08 16:10:33.593750000,-60.0,3.0,26.0,81.20375,15.56,22.844876499999998,35.33
2021-07-08 16:10:33.601562500,-60.0,3.0,26.25,81.2040625,15.190000000000001,22.844436124999998,35.33
2021-07-08 16:10:33.609375000,-60.0,3.0,26.5,81.204375,14.82,22.843995749999998,35.33
2021-07-08 16:10:33.617187500,-60.0,3.0,26.75,81.2046875,14.715,22.843555374999998,35.33
2021-07-08 16:10:33.625000000,-60.0,3.0,27.0,81.205,14.61,22.843114999999997,35.33
2021-07-08 16:10:33.632812500,-60.0,3.0,27.0,81.2053125,14.71,22.842674625,35.33
2021-07-08 16:10:33.640625000,-60.0,3.0,27.0,81.205625,14.81,22.84223425,35.33
2021-07-08 16:10:33.648437500,-60.0,3.0,27.0,81.2059375,14.995000000000001,22.841793875,35.33
2021-07-08 16:10:33.656250000,-60.0,3.0,27.0,81.20625,15.18,22.8413535,35.33
2021-07-08 16:10:33.664062500,-59.75,3.0,27.0,81.2065625,15.33,22.840913125,35.33
2021-07-08 16:10:33.671875000,-59.5,3.0,27.0,81.206875,15.48,22.84047275,35.33
2021-07-08 16:10:33.679687500,-59.25,3.0,27.0,81.2071875,15.504999999999999,22.840032375,35.33
2021-07-08 16:10:33.687500000,-59.0,3.0,27.0,81.2075,15.53,22.839592,35.33
2021-07-08 16:10:33.695312500,-59.25,3.0,27.0,81.2078125,15.395,22.839151625,35.33
2021-07-08 16:10:33.703125000,-59.5,3.0,27.0,81.208125,15.26,22.83871125,35.33
2021-07-08 16:10:33.710937500,-59.75,3.0,27.0,81.2084375,14.98,22.838270875,35.33
2021-07-08 16:10:33.718750000,-60.0,3.0,27.0,81.20875,14.7,22.8378305,35.33
2021-07-08 16:10:33.726562500,-59.75,3.0,27.0,81.2090625,14.3,22.837390125,35.33
2021-07-08 16:10:33.734375000,-59.5,3.0,27.0,81.209375,13.9,22.83694975,35.33
2021-07-08 16:10:33.742187500,-59.25,3.0,27.0,81.2096875,13.41,22.836509375,35.33
2021-07-08 16:10:33.750000000,-59.0,3.0,27.0,81.21000000000001,12.92,22.836069,35.33
2021-07-08 16:10:33.757812500,-59.25,3.0,26.75,81.2103125,12.33,22.83586884375,35.33
2021-07-08 16:10:33.765625000,-59.5,3.0,26.5,81.21062500000001,11.74,22.8356686875,35.33
2021-07-08 16:10:33.773437500,-59.75,3.0,26.25,81.2109375,11.015,22.835468531249997,35.33
2021-07-08 16:10:33.781250000,-60.0,3.0,26.0,81.21125,10.29,22.835268375,35.33
2021-07-08 16:10:33.789062500,-60.0,3.0,26.25,81.2115625,9.41,22.83506821875,35.33
2021-07-08 16:10:33.796875000,-60.0,3.0,26.5,81.211875,8.53,22.8348680625,35.33
2021-07-08 16:10:33.804687500,-60.0,3.0,26.75,81.2121875,7.494999999999999,22.834667906249997,35.33
2021-07-08 16:10:33.812500000,-60.0,3.0,27.0,81.2125,6.46,22.834467749999998,35.33
2021-07-08 16:10:33.820312500,-60.0,3.0,27.0,81.2128125,5.3,22.83426759375,35.33
2021-07-08 16:10:33.828125000,-60.0,3.0,27.0,81.213125,4.14,22.8340674375,35.33
2021-07-08 16:10:33.835937500,-60.0,3.0,27.0,81.2134375,2.915,22.83386728125,35.33
2021-07-08 16:10:33.843750000,-60.0,3.0,27.0,81.21375,1.69,22.833667124999998,35.33
2021-07-08 16:10:33.851562500,-59.75,3.0,26.75,81.2140625,0.47,22.83346696875,35.33
2021-07-08 16:10:33.859375000,-59.5,3.0,26.5,81.214375,-0.75,22.8332668125,35.33
2021-07-08 16:10:33.867187500,-59.25,3.0,26.25,81.2146875,-1.91,22.83306665625,35.33
2021-07-08 16:10:33.875000000,-59.0,3.0,26.0,81.215,-3.07,22.8328665,35.33
2021-07-08 16:10:33.882812500,-59.25,3.0,26.0,81.2153125,-4.115,22.83266634375,35.33
2021-07-08 16:10:33.890625000,-59.5,3.0,26.0,81.215625,-5.16,22.8324661875,35.33
2021-07-08 16:10:33.898437500,-59.75,3.0,26.0,81.2159375,-6.0600000000000005,22.83226603125,35.33
2021-07-08 16:10:33.906250000,-60.0,3.0,26.0,81.21625,-6.96,22.832065875,35.33
2021-07-08 16:10:33.914062500,-60.0,3.0,26.0,81.2165625,-7.699999999999999,22.83186571875,35.33
2021-07-08 16:10:33.921875000,-60.0,3.0,26.0,81.216875,-8.44,22.8316655625,35.33
2021-07-08 16:10:33.929687500,-60.0,3.0,26.0,81.2171875,-9.045,22.83146540625,35.33
2021-07-08 16:10:33.937500000,-60.0,3.0,26.0,81.2175,-9.65,22.83126525,35.33
2021-07-08 16:10:33.945312500,-60.0,3.0,26.25,81.2178125,-10.195,22.831065093750002,35.33
2021-07-08 16:10:33.953125000,-60.0,3.0,26.5,81.218125,-10.74,22.8308649375,35.33
2021-07-08 16:10:33.960937500,-60.0,3.0,26.75,81.2184375,-11.32,22.83066478125,35.33
2021-07-08 16:10:33.968750000,-60.0,3.0,27.0,81.21875,-11.9,22.830464625,35.33
2021-07-08 16:10:33.976562500,-60.0,3.0,26.75,81.21906249999999,-12.58,22.830264468750002,35.33
2021-07-08 16:10:33.984375000,-60.0,3.0,26.5,81.219375,-13.26,22.8300643125,35.33
2021-07-08 16:10:33.992187500,-60.0,3.0,26.25,81.21968749999999,-14.055,22.82986415625,35.33
2021-07-08 16:10:34.000000000,-60.0,3.0,26.0,81.22,-14.85,22.829664,35.33
2021-07-08 16:10:34.007812500,-60.0,3.0,26.0,81.220078125,-15.669999999999998,22.82986415625,35.33
2021-07-08 16:10:34.015625000,-60.0,3.0,26.0,81.22015625,-16.49,22.8300643125,35.33
2021-07-08 16:10:34.023437500,-60.0,3.0,26.0,81.220234375,-17.15,22.830264468750002,35.33
2021-07-08 16:10:34.031250000,-60.0,3.0,26.0,81.2203125,-17.81,22.830464625,35.33
2021-07-08 16:10:34.039062500,-60.0,3.0,26.25,81.220390625,-18.055,22.83066478125,35.33
2021-07-08 16:10:34.046875000,-60.0,3.0,26.5,81.22046875,-18.3,22.8308649375,35.33
2021-07-08 16:10:34.054687500,-60.0,3.0,26.75,81.220546875,-17.87,22.831065093750002,35.33
2021-07-08 16:10:34.062500000,-60.0,3.0,27.0,81.220625,-17.44,22.83126525,35.33
2021-07-08 16:10:34.070312500,-59.75,3.0,26.75,81.220703125,-16.185000000000002,22.83146540625,35.33
2021-07-08 16:10:34.078125000,-59.5,3.0,26.5,81.22078125,-14.93,22.8316655625,35.33
2021-07-08 16:10:34.085937500,-59.25,3.0,26.25,81.220859375,-12.85,22.83186571875,35.33
2021-07-08 16:10:34.093750000,-59.0,3.0,26.0,81.2209375,-10.77,22.832065875,35.33
2021-07-08 16:10:34.101562500,-59.25,3.0,26.25,81.22101562499999,-8.04,22.83226603125,35.33
2021-07-08 16:10:34.109375000,-59.5,3.0,26.5,81.22109375,-5.31,22.8324661875,35.33
2021-07-08 16:10:34.117187500,-59.75,3.0,26.75,81.221171875,-2.23,22.83266634375,35.33
2021-07-08 16:10:34.125000000,-60.0,3.0,27.0,81.22125,0.85,22.8328665,35.33
2021-07-08 16:10:34.132812500,-59.75,3.0,26.75,81.221328125,3.9250000000000003,22.83306665625,35.33
2021-07-08 16:10:34.140625000,-59.5,3.0,26.5,81.22140625,7.0,22.8332668125,35.33
2021-07-08 16:10:34.148437500,-59.25,3.0,26.25,81.221484375,9.780000000000001,22.83346696875,35.33
2021-07-08 16:10:34.156250000,-59.0,3.0,26.0,81.2215625,12.56,22.833667124999998,35.33
2021-07-08 16:10:34.164062500,-59.25,3.0,26.0,81.221640625,14.86,22.83386728125,35.33
2021-07-08 16:10:34.171875000,-59.5,3.0,26.0,81.22171875,17.16,22.8340674375,35.33
2021-07-08 16:10:34.179687500,-59.75,3.0,26.0,81.221796875,18.939999999999998,22.83426759375,35.33
2021-07-08 16:10:34.187500000,-60.0,3.0,26.0,81.221875,20.72,22.834467749999998,35.33
2021-07-08 16:10:34.195312500,-60.0,3.0,26.0,81.221953125,22.0,22.834667906249997,35.33
2021-07-08 16:10:34.203125000,-60.0,3.0,26.0,81.22203125,23.28,22.8348680625,35.33
2021-07-08 16:10:34.210937500,-60.0,3.0,26.0,81.222109375,24.12,22.83506821875,35.33
2021-07-08 16:10:34.218750000,-60.0,3.0,26.0,81.2221875,24.96,22.835268375,35.33
2021-07-08 16:10:34.226562500,-59.75,3.0,26.25,81.222265625,25.4,22.835468531249997,35.33
2021-07-08 16:10:34.234375000,-59.5,3.0,26.5,81.22234375,25.84,22.8356686875,35.33
2021-07-08 16:10:34.242187500,-59.25,3.0,26.75,81.222421875,25.895,22.83586884375,35.33
2021-07-08 16:10:34.250000000,-59.0,3.0,27.0,81.2225,25.95,22.836069,35.33
2021-07-08 16:10:34.257812500,-59.25,3.0,26.75,81.222578125,25.655,22.83658940625,35.33
2021-07-08 16:10:34.265625000,-59.5,3.0,26.5,81.22265625,25.36,22.8371098125,35.33
2021-07-08 16:10:34.273437500,-59.75,3.0,26.25,81.222734375,24.765,22.83763021875,35.33
2021-07-08 16:10:34.281250000,-60.0,3.0,26.0,81.2228125,24.17,22.838150624999997,35.33
2021-07-08 16:10:34.289062500,-60.0,3.0,26.25,81.222890625,23.380000000000003,22.838671031249998,35.33
2021-07-08 16:10:34.296875000,-60.0,3.0,26.5,81.22296875,22.59,22.8391914375,35.33
2021-07-08 16:10:34.304687500,-60.0,3.0,26.75,81.223046875,21.75,22.83971184375,35.33
2021-07-08 16:10:34.312500000,-60.0,3.0,27.0,81.223125,20.91,22.84023225,35.33
2021-07-08 16:10:34.320312500,-59.75,3.0,27.0,81.223203125,20.14,22.84075265625,35.33
2021-07-08 16:10:34.328125000,-59.5,3.0,27.0,81.22328125,19.37,22.841273062499997,35.33
2021-07-08 16:10:34.335937500,-59.25,3.0,27.0,81.223359375,18.770000000000003,22.841793468749998,35.33
2021-07-08 16:10:34.343750000,-59.0,3.0,27.0,81.2234375,18.17,22.842313875,35.33
2021-07-08 16:10:34.351562500,-59.25,3.0,26.75,81.223515625,17.775,22.84283428125,35.33
2021-07-08 16:10:34.359375000,-59.5,3.0,26.5,81.22359375,17.38,22.8433546875,35.33
2021-07-08 16:10:34.367187500,-59.75,3.0,26.25,81.223671875,17.195,22.84387509375,35.33
2021-07-08 16:10:34.375000000,-60.0,3.0,26.0,81.22375,17.01,22.844395499999997,35.33
2021-07-08 16:10:34.382812500,-59.75,3.0,26.0,81.223828125,16.965000000000003,22.844915906249998,35.33
2021-07-08 16:10:34.390625000,-59.5,3.0,26.0,81.22390625,16.92,22.8454363125,35.33
2021-07-08 16:10:34.398437500,-59.25,3.0,26.0,81.223984375,16.935000000000002,22.84595671875,35.33
2021-07-08 16:10:34.406250000,-59.0,3.0,26.0,81.2240625,16.95,22.846477125,35.33
2021-07-08 16:10:34.414062500,-59.0,3.0,26.25,81.224140625,16.915,22.84699753125,35.33
2021-07-08 16:10:34.421875000,-59.0,3.0,26.5,81.22421875,16.88,22.8475179375,35.33
2021-07-08 16:10:34.429687500,-59.0,3.0,26.75,81.22429687500001,16.715,22.848038343749998,35.33
2021-07-08 16:10:34.437500000,-59.0,3.0,27.0,81.224375,16.55,22.84855875,35.33
2021-07-08 16:10:34.445312500,-59.25,3.0,27.0,81.224453125,16.21,22.84907915625,35.33
2021-07-08 16:10:34.453125000,-59.5,3.0,27.0,81.22453125,15.87,22.8495995625,35.33
2021-07-08 16:10:34.460937500,-59.75,3.0,27.0,81.224609375,15.35,22.85011996875,35.33
2021-07-08 16:10:34.468750000,-60.0,3.0,27.0,81.2246875,14.83,22.850640375,35.33
2021-07-08 16:10:34.476562500,-60.0,3.0,26.75,81.224765625,14.175,22.851160781249998,35.33
2021-07-08 16:10:34.484375000,-60.0,3.0,26.5,81.22484375,13.52,22.8516811875,35.33
2021-07-08 16:10:34.492187500,-60.0,3.0,26.25,81.224921875,12.77,22.85220159375,35.33
2021-07-08 16:10:34.500000000,-60.0,3.0,26.0,81.225,12.02,22.852722,35.33
2021-07-08 16:10:34.507812500,-60.0,3.0,26.0,81.225078125,11.2,22.852682,35.33
2021-07-08 16:10:34.515625000,-60.0,3.0,26.0,81.22515625,10.38,22.852642,35.33
2021-07-08 16:10:34.523437500,-60.0,3.0,26.0,81.225234375,9.475000000000001,22.852602,35.33
2021-07-08 16:10:34.531250000,-60.0,3.0,26.0,81.2253125,8.57,22.852562,35.33
2021-07-08 16:10:34.539062500,-59.75,3.0,26.25,81.225390625,7.5600000000000005,22.852522,35.33
2021-07-08 16:10:34.546875000,-59.5,3.0,26.5,81.22546875,6.55,22.852482,35.33
2021-07-08 16:10:34.554687500,-59.25,3.0,26.75,81.225546875,5.4350000000000005,22.852442,35.33
2021-07-08 16:10:34.562500000,-59.0,3.0,27.0,81.22562500000001,4.32,22.852401999999998,35.33
2021-07-08 16:10:34.570312500,-59.0,3.0,27.0,81.225703125,3.12,22.852362,35.33
2021-07-08 16:10:34.578125000,-59.0,3.0,27.0,81.22578125,1.92,22.852322,35.33
2021-07-08 16:10:34.585937500,-59.0,3.0,27.0,81.225859375,0.7,22.852282,35.33
2021-07-08 16:10:34.593750000,-59.0,3.0,27.0,81.2259375,-0.52,22.852242,35.33
2021-07-08 16:10:34.601562500,-59.25,3.0,27.0,81.226015625,-1.68,22.852202,35.33
2021-07-08 16:10:34.609375000,-59.5,3.0,27.0,81.22609375,-2.84,22.852162,35.33
2021-07-08 16:10:34.617187500,-59.75,3.0,27.0,81.226171875,-3.895,22.852121999999998,35.33
2021-07-08 16:10:34.625000000,-60.0,3.0,27.0,81.22625000000001,-4.95,22.852082,35.33
2021-07-08 16:10:34.632812500,-60.0,3.0,26.75,81.22632812500001,-5.905,22.852042,35.33
2021-07-08 16:10:34.640625000,-60.0,3.0,26.5,81.22640625,-6.86,22.852002,35.33
2021-07-08 16:10:34.648437500,-60.0,3.0,26.25,81.226484375,-7.77,22.851962,35.33
2021-07-08 16:10:34.656250000,-60.0,3.0,26.0,81.2265625,-8.68,22.851922,35.33
2021-07-08 16:10:34.664062500,-60.0,3.0,26.25,81.226640625,-9.64,22.851882,35.33
2021-07-08 16:10:34.671875000,-60.0,3.0,26.5,81.22671875,-10.6,22.851841999999998,35.33
2021-07-08 16:10:34.679687500,-60.0,3.0,26.75,81.226796875,-11.695,22.851802,35.33
2021-07-08 16:10:34.687500000,-60.0,3.0,27.0,81.226875,-12.79,22.851762,35.33
2021-07-08 16:10:34.695312500,-59.75,3.0,27.0,81.22695312500001,-14.065,22.851722,35.33
2021-07-08 16:10:34.703125000,-59.5,3.0,27.0,81.22703125,-15.34,22.851682,35.33
2021-07-08 16:10:34.710937500,-59.25,3.0,27.0,81.227109375,-16.75,22.851642,35.33
2021-07-08 16:10:34.718750000,-59.0,3.0,27.0,81.2271875,-18.16,22.851602,35.33
2021-07-08 16:10:34.726562500,-59.25,3.0,26.75,81.227265625,-19.58,22.851561999999998,35.33
2021-07-08 16:10:34.734375000,-59.5,3.0,26.5,81.22734375,-21.0,22.851522,35.33
2021-07-08 16:10:34.742187500,-59.75,3.0,26.25,81.227421875,-22.240000000000002,22.851481999999997,35.33
2021-07-08 16:10:34.750000000,-60.0,3.0,26.0,81.2275,-23.48,22.851442,35.33
2021-07-08 16:10:34.757812500,-60.0,3.0,26.0,81.22757812500001,-24.305,22.851722218749998,35.33
2021-07-08 16:10:34.765625000,-60.0,3.0,26.0,81.22765625000001,-25.13,22.852002437499998,35.33
2021-07-08 16:10:34.773437500,-60.0,3.0,26.0,81.227734375,-25.33,22.852282656249997,35.33
2021-07-08 16:10:34.781250000,-60.0,3.0,26.0,81.2278125,-25.53,22.852562875,35.33
2021-07-08 16:10:34.789062500,-60.0,3.0,26.0,81.227890625,-24.935000000000002,22.85284309375,35.33
2021-07-08 16:10:34.796875000,-60.0,3.0,26.0,81.22796875,-24.34,22.8531233125,35.33
2021-07-08 16:10:34.804687500,-60.0,3.0,26.0,81.228046875,-22.865000000000002,22.85340353125,35.33
2021-07-08 16:10:34.812500000,-60.0,3.0,26.0,81.228125,-21.39,22.85368375,35.33
2021-07-08 16:10:34.820312500,-60.0,3.0,26.25,81.22820312500001,-19.08,22.853963968749998,35.33
2021-07-08 16:10:34.828125000,-60.0,3.0,26.5,81.22828125000001,-16.77,22.8542441875,35.33
2021-07-08 16:10:34.835937500,-60.0,3.0,26.75,81.228359375,-13.8,22.85452440625,35.33
2021-07-08 16:10:34.843750000,-60.0,3.0,27.0,81.2284375,-10.83,22.854804625,35.33
2021-07-08 16:10:34.851562500,-60.0,3.0,26.75,81.228515625,-7.51,22.85508484375,35.33
2021-07-08 16:10:34.859375000,-60.0,3.0,26.5,81.22859375,-4.19,22.8553650625,35.33
2021-07-08 16:10:34.867187500,-60.0,3.0,26.25,81.228671875,-0.875,22.85564528125,35.33
2021-07-08 16:10:34.875000000,-60.0,3.0,26.0,81.22875,2.44,22.855925499999998,35.33
2021-07-08 16:10:34.882812500,-60.0,3.0,26.0,81.228828125,5.395,22.85620571875,35.33
2021-07-08 16:10:34.890625000,-60.0,3.0,26.0,81.22890625000001,8.35,22.8564859375,35.33
2021-07-08 16:10:34.898437500,-60.0,3.0,26.0,81.22898437500001,10.69,22.85676615625,35.33
2021-07-08 16:10:34.906250000,-60.0,3.0,26.0,81.2290625,13.03,22.857046375,35.33
2021-07-08 16:10:34.914062500,-60.0,3.0,26.0,81.229140625,14.669999999999998,22.85732659375,35.33
2021-07-08 16:10:34.921875000,-60.0,3.0,26.0,81.22921875,16.31,22.8576068125,35.33
2021-07-08 16:10:34.929687500,-60.0,3.0,26.0,81.229296875,17.285,22.85788703125,35.33
2021-07-08 16:10:34.937500000,-60.0,3.0,26.0,81.229375,18.26,22.85816725,35.33
2021-07-08 16:10:34.945312500,-59.75,3.0,26.25,81.229453125,18.695,22.85844746875,35.33
2021-07-08 16:10:34.953125000,-59.5,3.0,26.5,81.22953125000001,19.13,22.8587276875,35.33
2021-07-08 16:10:34.960937500,-59.25,3.0,26.75,81.22960937500001,19.174999999999997,22.85900790625,35.33
2021-07-08 16:10:34.968750000,-59.0,3.0,27.0,81.2296875,19.22,22.859288125,35.33
2021-07-08 16:10:34.976562500,-59.25,3.0,26.75,81.229765625,18.985,22.859568343750002,35.33
2021-07-08 16:10:34.984375000,-59.5,3.0,26.5,81.22984375,18.75,22.8598485625,35.33
2021-07-08 16:10:34.992187500,-59.75,3.0,26.25,81.229921875,18.295,22.86012878125,35.33
2021-07-08 16:10:35.000000000,-60.0,3.0,26.0,81.23,17.84,22.860409,35.33
2021-07-08 16:10:35.007812500,-60.0,3.0,26.0,81.230390625,17.21,22.86008875,35.329375
2021-07-08 16:10:35.015625000,-60.0,3.0,26.0,81.23078125,16.58,22.8597685,35.32875
2021-07-08 16:10:35.023437500,-60.0,3.0,26.0,81.231171875,15.825,22.85944825,35.328125
2021-07-08 16:10:35.031250000,-60.0,3.0,26.0,81.23156250000001,15.07,22.859128000000002,35.3275
2021-07-08 16:10:35.039062500,-59.75,3.0,26.0,81.231953125,14.25,22.85880775,35.326875
2021-07-08 16:10:35.046875000,-59.5,3.0,26.0,81.23234375,13.43,22.8584875,35.32625
2021-07-08 16:10:35.054687500,-59.25,3.0,26.0,81.232734375,12.620000000000001,22.85816725,35.325625
2021-07-08 16:10:35.062500000,-59.0,3.0,26.0,81.233125,11.81,22.857847,35.325
2021-07-08 16:10:35.070312500,-59.25,3.0,26.0,81.23351562500001,11.075,22.85752675,35.324374999999996
2021-07-08 16:10:35.078125000,-59.5,3.0,26.0,81.23390625,10.34,22.8572065,35.32375
2021-07-08 16:10:35.085937500,-59.75,3.0,26.0,81.234296875,9.71,22.85688625,35.323125
2021-07-08 16:10:35.093750000,-60.0,3.0,26.0,81.2346875,9.08,22.856566,35.3225
2021-07-08 16:10:35.101562500,-60.0,3.0,26.0,81.235078125,8.55,22.85624575,35.321875
2021-07-08 16:10:35.109375000,-60.0,3.0,26.0,81.23546875000001,8.02,22.8559255,35.32125
2021-07-08 16:10:35.117187500,-60.0,3.0,26.0,81.235859375,7.57,22.85560525,35.320625
2021-07-08 16:10:35.125000000,-60.0,3.0,26.0,81.23625,7.12,22.855285000000002,35.32
2021-07-08 16:10:35.132812500,-60.0,3.0,26.25,81.236640625,6.715,22.85496475,35.319375
2021-07-08 16:10:35.140625000,-60.0,3.0,26.5,81.23703125,6.31,22.8546445,35.31875
2021-07-08 16:10:35.148437500,-60.0,3.0,26.75,81.23742187500001,5.914999999999999,22.85432425,35.318125
2021-07-08 16:10:35.156250000,-60.0,3.0,27.0,81.2378125,5.52,22.854004,35.3175
2021-07-08 16:10:35.164062500,-59.75,3.0,27.0,81.238203125,5.095,22.853683750000002,35.316875
2021-07-08 16:10:35.171875000,-59.5,3.0,27.0,81.23859375,4.67,22.8533635,35.316250000000004
2021-07-08 16:10:35.179687500,-59.25,3.0,27.0,81.238984375,4.1899999999999995,22.85304325,35.315625000000004
2021-07-08 16:10:35.187500000,-59.0,3.0,27.0,81.23937500000001,3.71,22.852723,35.315
2021-07-08 16:10:35.195312500,-59.0,3.0,27.0,81.239765625,3.165,22.85240275,35.314375
2021-07-08 16:10:35.203125000,-59.0,3.0,27.0,81.24015625,2.62,22.8520825,35.31375
2021-07-08 16:10:35.210937500,-59.0,3.0,27.0,81.240546875,2.015,22.85176225,35.313125
2021-07-08 16:10:35.218750000,-59.0,3.0,27.0,81.2409375,1.41,22.851442,35.3125
2021-07-08 16:10:35.226562500,-59.25,3.0,27.0,81.24132812500001,0.76,22.85112175,35.311875
2021-07-08 16:10:35.234375000,-59.5,3.0,27.0,81.24171875,0.11,22.8508015,35.31125
2021-07-08 16:10:35.242187500,-59.75,3.0,27.0,81.242109375,-0.56,22.85048125,35.310625
2021-07-08 16:10:35.250000000,-60.0,3.0,27.0,81.2425,-1.23,22.850161,35.31
2021-07-08 16:10:35.257812500,-60.0,3.0,26.75,81.242890625,-1.92,22.84892003125,35.31
2021-07-08 16:10:35.265625000,-60.0,3.0,26.5,81.24328125000001,-2.61,22.8476790625,35.31
2021-07-08 16:10:35.273437500,-60.0,3.0,26.25,81.243671875,-3.3499999999999996,22.84643809375,35.31
2021-07-08 16:10:35.281250000,-60.0,3.0,26.0,81.2440625,-4.09,22.845197125,35.31
2021-07-08 16:10:35.289062500,-59.75,3.0,26.0,81.244453125,-4.904999999999999,22.843956156249998,35.31
2021-07-08 16:10:35.296875000,-59.5,3.0,26.0,81.24484375,-5.72,22.8427151875,35.31
2021-07-08 16:10:35.304687500,-59.25,3.0,26.0,81.24523437500001,-6.635,22.84147421875,35.31
2021-07-08 16:10:35.312500000,-59.0,3.0,26.0,81.245625,-7.55,22.84023325,35.31
2021-07-08 16:10:35.320312500,-59.0,3.25,26.25,81.246015625,-8.545,22.83899228125,35.31
2021-07-08 16:10:35.328125000,-59.0,3.5,26.5,81.24640625,-9.54,22.8377513125,35.31
2021-07-08 16:10:35.335937500,-59.0,3.75,26.75,81.246796875,-10.555,22.83651034375,35.31
2021-07-08 16:10:35.343750000,-59.0,4.0,27.0,81.24718750000001,-11.57,22.835269375,35.31
2021-07-08 16:10:35.351562500,-59.0,4.0,27.0,81.247578125,-12.530000000000001,22.83402840625,35.31
2021-07-08 16:10:35.359375000,-59.0,4.0,27.0,81.24796875,-13.49,22.8327874375,35.31
2021-07-08 16:10:35.367187500,-59.0,4.0,27.0,81.248359375,-14.34,22.83154646875,35.31
2021-07-08 16:10:35.375000000,-59.0,4.0,27.0,81.24875,-15.19,22.8303055,35.31
2021-07-08 16:10:35.382812500,-59.0,3.75,27.0,81.24914062500001,-15.93,22.82906453125,35.31
2021-07-08 16:10:35.390625000,-59.0,3.5,27.0,81.24953125,-16.67,22.8278235625,35.31
2021-07-08 16:10:35.398437500,-59.0,3.25,27.0,81.249921875,-17.365000000000002,22.82658259375,35.31
2021-07-08 16:10:35.406250000,-59.0,3.0,27.0,81.2503125,-18.06,22.825341625,35.31
2021-07-08 16:10:35.414062500,-59.25,3.0,27.0,81.250703125,-18.799999999999997,22.82410065625,35.31
2021-07-08 16:10:35.421875000,-59.5,3.0,27.0,81.25109375000001,-19.54,22.8228596875,35.31
2021-07-08 16:10:35.429687500,-59.75,3.0,27.0,81.251484375,-20.39,22.82161871875,35.31
2021-07-08 16:10:35.437500000,-60.0,3.0,27.0,81.251875,-21.24,22.82037775,35.31
2021-07-08 16:10:35.445312500,-59.75,3.0,27.0,81.252265625,-22.225,22.81913678125,35.31
2021-07-08 16:10:35.453125000,-59.5,3.0,27.0,81.25265625,-23.21,22.817895812499998,35.31
2021-07-08 16:10:35.460937500,-59.25,3.0,27.0,81.25304687500001,-24.28,22.81665484375,35.31
2021-07-08 16:10:35.468750000,-59.0,3.0,27.0,81.2534375,-25.35,22.815413875,35.31
2021-07-08 16:10:35.476562500,-59.25,3.0,27.0,81.253828125,-26.39,22.81417290625,35.31
2021-07-08 16:10:35.484375000,-59.5,3.0,27.0,81.25421875,-27.43,22.8129319375,35.31
2021-07-08 16:10:35.492187500,-59.75,3.0,27.0,81.254609375,-28.3,22.81169096875,35.31
2021-07-08 16:10:35.500000000,-60.0,3.0,27.0,81.255,-29.17,22.81045,35.31
2021-07-08 16:10:35.507812500,-59.75,3.25,27.0,81.255390625,-29.72,22.810369875,35.31
2021-07-08 16:10:35.515625000,-59.5,3.5,27.0,81.25578125,-30.27,22.81028975,35.31
2021-07-08 16:10:35.523437500,-59.25,3.75,27.0,81.256171875,-30.369999999999997,22.810209625,35.31
2021-07-08 16:10:35.531250000,-59.0,4.0,27.0,81.2565625,-30.47,22.8101295,35.31
2021-07-08 16:10:35.539062500,-59.25,3.75,27.0,81.256953125,-30.015,22.810049375,35.31
2021-07-08 16:10:35.546875000,-59.5,3.5,27.0,81.25734375,-29.56,22.809969249999998,35.31
2021-07-08 16:10:35.554687500,-59.75,3.25,27.0,81.257734375,-28.45,22.809889124999998,35.31
2021-07-08 16:10:35.562500000,-60.0,3.0,27.0,81.258125,-27.34,22.809809,35.31
2021-07-08 16:10:35.570312500,-60.0,3.25,26.75,81.258515625,-25.52,22.809728875,35.31
2021-07-08 16:10:35.578125000,-60.0,3.5,26.5,81.25890625,-23.7,22.80964875,35.31
2021-07-08 16:10:35.585937500,-60.0,3.75,26.25,81.259296875,-21.185000000000002,22.809568625,35.31
2021-07-08 16:10:35.593750000,-60.0,4.0,26.0,81.2596875,-18.67,22.8094885,35.31
2021-07-08 16:10:35.601562500,-59.75,4.0,26.25,81.260078125,-15.59,22.809408375,35.31
2021-07-08 16:10:35.609375000,-59.5,4.0,26.5,81.26046875,-12.51,22.80932825,35.31
2021-07-08 16:10:35.617187500,-59.25,4.0,26.75,81.260859375,-9.09,22.809248125,35.31
2021-07-08 16:10:35.625000000,-59.0,4.0,27.0,81.26125,-5.67,22.809168,35.31
2021-07-08 16:10:35.632812500,-59.0,4.0,27.0,81.261640625,-2.24,22.809087875,35.31
2021-07-08 16:10:35.640625000,-59.0,4.0,27.0,81.26203125,1.19,22.80900775,35.31
2021-07-08 16:10:35.648437500,-59.0,4.0,27.0,81.262421875,4.32,22.808927625,35.31
2021-07-08 16:10:35.656250000,-59.0,4.0,27.0,81.2628125,7.45,22.8088475,35.31
2021-07-08 16:10:35.664062500,-59.25,4.0,26.75,81.263203125,10.040000000000001,22.808767375,35.31
2021-07-08 16:10:35.671875000,-59.5,4.0,26.5,81.26359375,12.63,22.80868725,35.31
2021-07-08 16:10:35.679687500,-59.75,4.0,26.25,81.263984375,14.575,22.808607124999998,35.31
2021-07-08 16:10:35.687500000,-60.0,4.0,26.0,81.264375,16.52,22.808526999999998,35.31
2021-07-08 16:10:35.695312500,-59.75,4.0,26.25,81.264765625,17.810000000000002,22.808446875,35.31
2021-07-08 16:10:35.703125000,-59.5,4.0,26.5,81.26515625,19.1,22.80836675,35.31
2021-07-08 16:10:35.710937500,-59.25,4.0,26.75,81.265546875,19.805,22.808286625,35.31
2021-07-08 16:10:35.718750000,-59.0,4.0,27.0,81.2659375,20.51,22.8082065,35.31
2021-07-08 16:10:35.726562500,-59.0,3.75,27.0,81.266328125,20.715000000000003,22.808126375,35.31
2021-07-08 16:10:35.734375000,-59.0,3.5,27.0,81.26671875,20.92,22.80804625,35.31
2021-07-08 16:10:35.742187500,-59.0,3.25,27.0,81.267109375,20.695,22.807966125,35.31
2021-07-08 16:10:35.750000000,-59.0,3.0,27.0,81.2675,20.47,22.807886,35.31
2021-07-08 16:10:35.757812500,-59.25,3.0,27.0,81.267890625,19.884999999999998,22.80752575,35.31
2021-07-08 16:10:35.765625000,-59.5,3.0,27.0,81.26828125,19.3,22.8071655,35.31
2021-07-08 16:10:35.773437500,-59.75,3.0,27.0,81.268671875,18.455,22.80680525,35.31
2021-07-08 16:10:35.781250000,-60.0,3.0,27.0,81.2690625,17.61,22.806445,35.31
2021-07-08 16:10:35.789062500,-59.75,3.0,27.0,81.269453125,16.64,22.80608475,35.31
2021-07-08 16:10:35.796875000,-59.5,3.0,27.0,81.26984375,15.67,22.8057245,35.31
2021-07-08 16:10:35.804687500,-59.25,3.0,27.0,81.270234375,14.74,22.80536425,35.31
2021-07-08 16:10:35.812500000,-59.0,3.0,27.0,81.270625,13.81,22.805004,35.31
2021-07-08 16:10:35.820312500,-59.0,3.25,27.0,81.271015625,13.065000000000001,22.80464375,35.31
2021-07-08 16:10:35.828125000,-59.0,3.5,27.0,81.27140625,12.32,22.8042835,35.31
2021-07-08 16:10:35.835937500,-59.0,3.75,27.0,81.271796875,11.83,22.80392325,35.31
2021-07-08 16:10:35.843750000,-59.0,4.0,27.0,81.2721875,11.34,22.803563,35.31
2021-07-08 16:10:35.851562500,-59.25,4.0,27.0,81.272578125,11.105,22.80320275,35.31
2021-07-08 16:10:35.859375000,-59.5,4.0,27.0,81.27296875,10.87,22.8028425,35.31
2021-07-08 16:10:35.867187500,-59.75,4.0,27.0,81.273359375,10.825,22.80248225,35.31
2021-07-08 16:10:35.875000000,-60.0,4.0,27.0,81.27375,10.78,22.802122,35.31
2021-07-08 16:10:35.882812500,-59.75,4.0,27.0,81.274140625,10.825,22.80176175,35.31
2021-07-08 16:10:35.890625000,-59.5,4.0,27.0,81.27453125,10.87,22.8014015,35.31
2021-07-08 16:10:35.898437500,-59.25,4.0,27.0,81.274921875,10.899999999999999,22.80104125,35.31
2021-07-08 16:10:35.906250000,-59.0,4.0,27.0,81.2753125,10.93,22.800681,35.31
2021-07-08 16:10:35.914062500,-59.0,4.0,27.0,81.275703125,10.870000000000001,22.80032075,35.31
2021-07-08 16:10:35.921875000,-59.0,4.0,27.0,81.27609375,10.81,22.7999605,35.31
2021-07-08 16:10:35.929687500,-59.0,4.0,27.0,81.276484375,10.605,22.79960025,35.31
2021-07-08 16:10:35.937500000,-59.0,4.0,27.0,81.276875,10.4,22.79924,35.31
2021-07-08 16:10:35.945312500,-59.0,4.0,27.0,81.277265625,10.025,22.79887975,35.31
2021-07-08 16:10:35.953125000,-59.0,4.0,27.0,81.27765625,9.65,22.7985195,35.31
2021-07-08 16:10:35.960937500,-59.0,4.0,27.0,81.278046875,9.094999999999999,22.79815925,35.31
2021-07-08 16:10:35.968750000,-59.0,4.0,27.0,81.2784375,8.54,22.797799,35.31
2021-07-08 16:10:35.976562500,-59.0,3.75,27.0,81.278828125,7.834999999999999,22.79743875,35.31
2021-07-08 16:10:35.984375000,-59.0,3.5,27.0,81.27921875,7.13,22.7970785,35.31
2021-07-08 16:10:35.992187500,-59.0,3.25,27.0,81.279609375,6.295,22.79671825,35.31
2021-07-08 16:10:36.000000000,-59.0,3.0,27.0,81.28,5.46,22.796358,35.31
2021-07-08 16:10:36.007812500,-59.0,3.0,27.0,81.28031250000001,4.525,22.79647809375,35.310625
2021-07-08 16:10:36.015625000,-59.0,3.0,27.0,81.280625,3.59,22.796598187500003,35.31125
2021-07-08 16:10:36.023437500,-59.0,3.0,27.0,81.28093750000001,2.58,22.79671828125,35.311875
2021-07-08 16:10:36.031250000,-59.0,3.0,27.0,81.28125,1.57,22.796838375,35.3125
2021-07-08 16:10:36.039062500,-59.0,3.25,27.0,81.2815625,0.5149999999999999,22.796958468750002,35.313125
2021-07-08 16:10:36.046875000,-59.0,3.5,27.0,81.281875,-0.54,22.7970785625,35.31375
2021-07-08 16:10:36.054687500,-59.0,3.75,27.0,81.2821875,-1.61,22.79719865625,35.314375
2021-07-08 16:10:36.062500000,-59.0,4.0,27.0,81.2825,-2.68,22.797318750000002,35.315
2021-07-08 16:10:36.070312500,-59.0,4.0,27.0,81.2828125,-3.7249999999999996,22.79743884375,35.315625000000004
2021-07-08 16:10:36.078125000,-59.0,4.0,27.0,81.283125,-4.77,22.7975589375,35.316250000000004
2021-07-08 16:10:36.085937500,-59.0,4.0,27.0,81.2834375,-5.755,22.797679031250002,35.316875
2021-07-08 16:10:36.093750000,-59.0,4.0,27.0,81.28375,-6.74,22.797799125,35.3175
2021-07-08 16:10:36.101562500,-59.0,4.0,27.0,81.2840625,-7.655,22.79791921875,35.318125
2021-07-08 16:10:36.109375000,-59.0,4.0,27.0,81.284375,-8.57,22.798039312500002,35.31875
2021-07-08 16:10:36.117187500,-59.0,4.0,27.0,81.2846875,-9.435,22.79815940625,35.319375
2021-07-08 16:10:36.125000000,-59.0,4.0,27.0,81.285,-10.3,22.7982795,35.32
2021-07-08 16:10:36.132812500,-59.0,4.0,27.0,81.2853125,-11.15,22.798399593750002,35.320625
2021-07-08 16:10:36.140625000,-59.0,4.0,27.0,81.285625,-12.0,22.7985196875,35.32125
2021-07-08 16:10:36.148437500,-59.0,4.0,27.0,81.2859375,-12.870000000000001,22.798639781250003,35.321875
2021-07-08 16:10:36.156250000,-59.0,4.0,27.0,81.28625,-13.74,22.798759875000002,35.3225
2021-07-08 16:10:36.164062500,-59.0,4.0,27.0,81.2865625,-14.635,22.79887996875,35.323125
2021-07-08 16:10:36.171875000,-59.0,4.0,27.0,81.286875,-15.53,22.799000062500003,35.32375
2021-07-08 16:10:36.179687500,-59.0,4.0,27.0,81.2871875,-16.419999999999998,22.79912015625,35.324374999999996
2021-07-08 16:10:36.187500000,-59.0,4.0,27.0,81.2875,-17.31,22.79924025,35.325
2021-07-08 16:10:36.195312500,-59.0,4.0,27.0,81.2878125,-18.174999999999997,22.799360343750003,35.325625
2021-07-08 16:10:36.203125000,-59.0,4.0,27.0,81.288125,-19.04,22.7994804375,35.32625
2021-07-08 16:10:36.210937500,-59.0,4.0,27.0,81.2884375,-19.869999999999997,22.79960053125,35.326875
2021-07-08 16:10:36.218750000,-59.0,4.0,27.0,81.28875,-20.7,22.799720625000003,35.3275
2021-07-08 16:10:36.226562500,-59.0,4.0,27.0,81.2890625,-21.549999999999997,22.79984071875,35.328125
2021-07-08 16:10:36.234375000,-59.0,4.0,27.0,81.28937499999999,-22.4,22.7999608125,35.32875
2021-07-08 16:10:36.242187500,-59.0,4.0,27.0,81.2896875,-23.325,22.800080906250002,35.329375
2021-07-08 16:10:36.250000000,-59.0,4.0,27.0,81.28999999999999,-24.25,22.800201,35.33
2021-07-08 16:10:36.257812500,-59.0,4.0,27.0,81.2903125,-25.3,22.798920000000003,35.33
2021-07-08 16:10:36.265625000,-59.0,4.0,27.0,81.290625,-26.35,22.797639,35.33
2021-07-08 16:10:36.273437500,-59.0,4.0,27.0,81.2909375,-27.490000000000002,22.796358,35.33
2021-07-08 16:10:36.281250000,-59.0,4.0,27.0,81.29125,-28.63,22.795077,35.33
2021-07-08 16:10:36.289062500,-59.0,4.0,27.0,81.2915625,-29.71,22.793796,35.33
2021-07-08 16:10:36.296875000,-59.0,4.0,27.0,81.291875,-30.79,22.792515,35.33
2021-07-08 16:10:36.304687500,-59.0,4.0,27.0,81.2921875,-31.58,22.791234,35.33
2021-07-08 16:10:36.312500000,-59.0,4.0,27.0,81.2925,-32.37,22.789953,35.33
2021-07-08 16:10:36.320312500,-59.0,4.0,27.0,81.2928125,-32.565,22.788672000000002,35.33
2021-07-08 16:10:36.328125000,-59.0,4.0,27.0,81.293125,-32.76,22.787391,35.33
2021-07-08 16:10:36.335937500,-59.0,4.0,27.0,81.2934375,-32.114999999999995,22.78611,35.33
2021-07-08 16:10:36.343750000,-59.0,4.0,27.0,81.29375,-31.47,22.784829000000002,35.33
2021-07-08 16:10:36.351562500,-59.0,4.0,27.0,81.2940625,-29.845,22.783548,35.33
2021-07-08 16:10:36.359375000,-59.0,4.0,27.0,81.294375,-28.22,22.782267,35.33
2021-07-08 16:10:36.367187500,-59.0,4.0,27.0,81.2946875,-25.66,22.780986,35.33
2021-07-08 16:10:36.375000000,-59.0,4.0,27.0,81.295,-23.1,22.779705,35.33
2021-07-08 16:10:36.382812500,-59.0,4.0,27.0,81.2953125,-19.85,22.778424,35.33
2021-07-08 16:10:36.390625000,-59.0,4.0,27.0,81.295625,-16.6,22.777143,35.33
2021-07-08 16:10:36.398437500,-59.0,4.0,27.0,81.2959375,-13.025,22.775862,35.33
2021-07-08 16:10:36.406250000,-59.0,4.0,27.0,81.29625,-9.45,22.774580999999998,35.33
2021-07-08 16:10:36.414062500,-59.0,4.0,27.0,81.2965625,-5.96,22.7733,35.33
2021-07-08 16:10:36.421875000,-59.0,4.0,27.0,81.296875,-2.47,22.772019,35.33
2021-07-08 16:10:36.429687500,-59.0,4.0,27.0,81.29718749999999,0.605,22.770737999999998,35.33
2021-07-08 16:10:36.437500000,-59.0,4.0,27.0,81.2975,3.68,22.769457,35.33
2021-07-08 16:10:36.445312500,-59.25,4.0,27.0,81.29781249999999,6.155000000000001,22.768176,35.33
2021-07-08 16:10:36.453125000,-59.5,4.0,27.0,81.298125,8.63,22.766894999999998,35.33
2021-07-08 16:10:36.460937500,-59.75,4.0,27.0,81.29843749999999,10.465,22.765614,35.33
2021-07-08 16:10:36.468750000,-60.0,4.0,27.0,81.29875,12.3,22.764333,35.33
2021-07-08 16:10:36.476562500,-59.75,3.75,27.0,81.29906249999999,13.565000000000001,22.763052,35.33
2021-07-08 16:10:36.484375000,-59.5,3.5,27.0,81.299375,14.83,22.761771,35.33
2021-07-08 16:10:36.492187500,-59.25,3.25,27.0,81.29968749999999,15.614999999999998,22.760489999999997,35.33
2021-07-08 16:10:36.500000000,-59.0,3.0,27.0,81.3,16.4,22.759209,35.33
2021-07-08 16:10:36.507812500,-59.25,3.0,27.0,81.3003125,16.785,22.759769437499997,35.33
2021-07-08 16:10:36.515625000,-59.5,3.0,27.0,81.300625,17.17,22.760329875,35.33
2021-07-08 16:10:36.523437500,-59.75,3.0,27.0,81.3009375,17.205,22.7608903125,35.33
2021-07-08 16:10:36.531250000,-60.0,3.0,27.0,81.30125,17.24,22.761450749999998,35.33
2021-07-08 16:10:36.539062500,-59.75,3.0,27.0,81.3015625,16.96,22.762011187499997,35.33
2021-07-08 16:10:36.546875000,-59.5,3.0,27.0,81.301875,16.68,22.762571625,35.33
2021-07-08 16:10:36.554687500,-59.25,3.0,27.0,81.3021875,16.165,22.7631320625,35.33
2021-07-08 16:10:36.562500000,-59.0,3.0,27.0,81.3025,15.65,22.763692499999998,35.33
2021-07-08 16:10:36.570312500,-59.0,3.0,27.0,81.3028125,15.0,22.7642529375,35.33
2021-07-08 16:10:36.578125000,-59.0,3.0,27.0,81.303125,14.35,22.764813375,35.33
2021-07-08 16:10:36.585937500,-59.0,3.0,27.0,81.3034375,13.695,22.7653738125,35.33
2021-07-08 16:10:36.593750000,-59.0,3.0,27.0,81.30375,13.04,22.765934249999997,35.33
2021-07-08 16:10:36.601562500,-59.25,3.0,26.75,81.3040625,12.489999999999998,22.7664946875,35.33
2021-07-08 16:10:36.609375000,-59.5,3.0,26.5,81.304375,11.94,22.767055125,35.33
2021-07-08 16:10:36.617187500,-59.75,3.0,26.25,81.3046875,11.535,22.767615562499998,35.33
2021-07-08 16:10:36.625000000,-60.0,3.0,26.0,81.30499999999999,11.13,22.768175999999997,35.33
2021-07-08 16:10:36.632812500,-59.75,3.25,26.25,81.3053125,10.88,22.7687364375,35.33
2021-07-08 16:10:36.640625000,-59.5,3.5,26.5,81.30562499999999,10.63,22.769296875,35.33
2021-07-08 16:10:36.648437500,-59.25,3.75,26.75,81.3059375,10.49,22.769857312499997,35.33
2021-07-08 16:10:36.656250000,-59.0,4.0,27.0,81.30624999999999,10.35,22.77041775,35.33
2021-07-08 16:10:36.664062500,-59.0,4.0,27.0,81.3065625,10.29,22.7709781875,35.33
2021-07-08 16:10:36.671875000,-59.0,4.0,27.0,81.30687499999999,10.23,22.771538624999998,35.33
2021-07-08 16:10:36.679687500,-59.0,4.0,27.0,81.3071875,10.22,22.772099062499997,35.33
2021-07-08 16:10:36.687500000,-59.0,4.0,27.0,81.30749999999999,10.21,22.7726595,35.33
2021-07-08 16:10:36.695312500,-59.25,3.75,26.75,81.3078125,10.255,22.7732199375,35.33
2021-07-08 16:10:36.703125000,-59.5,3.5,26.5,81.30812499999999,10.3,22.773780374999998,35.33
2021-07-08 16:10:36.710937500,-59.75,3.25,26.25,81.3084375,10.39,22.7743408125,35.33
2021-07-08 16:10:36.718750000,-60.0,3.0,26.0,81.30874999999999,10.48,22.77490125,35.33
2021-07-08 16:10:36.726562500,-59.75,3.0,26.0,81.3090625,10.56,22.775461687499998,35.33
2021-07-08 16:10:36.734375000,-59.5,3.0,26.0,81.30937499999999,10.64,22.776022124999997,35.33
2021-07-08 16:10:36.742187500,-59.25,3.0,26.0,81.3096875,10.64,22.7765825625,35.33
2021-07-08 16:10:36.750000000,-59.0,3.0,26.0,81.31,10.64,22.777143,35.33
2021-07-08 16:10:36.757812500,-59.0,3.0,26.25,81.3103125,10.455,22.77706290625,35.33
2021-07-08 16:10:36.765625000,-59.0,3.0,26.5,81.310625,10.27,22.7769828125,35.33
2021-07-08 16:10:36.773437500,-59.0,3.0,26.75,81.3109375,9.82,22.776902718749998,35.33
2021-07-08 16:10:36.781250000,-59.0,3.0,27.0,81.31125,9.37,22.776822624999998,35.33
2021-07-08 16:10:36.789062500,-59.25,3.0,27.0,81.3115625,8.629999999999999,22.776742531249997,35.33
2021-07-08 16:10:36.796875000,-59.5,3.0,27.0,81.311875,7.89,22.7766624375,35.33
2021-07-08 16:10:36.804687500,-59.75,3.0,27.0,81.3121875,6.91,22.77658234375,35.33
2021-07-08 16:10:36.812500000,-60.0,3.0,27.0,81.3125,5.93,22.77650225,35.33
2021-07-08 16:10:36.820312500,-59.75,3.0,27.0,81.31281249999999,4.8,22.77642215625,35.33
2021-07-08 16:10:36.828125000,-59.5,3.0,27.0,81.313125,3.67,22.7763420625,35.33
2021-07-08 16:10:36.835937500,-59.25,3.0,27.0,81.31343749999999,2.505,22.77626196875,35.33
2021-07-08 16:10:36.843750000,-59.0,3.0,27.0,81.31375,1.34,22.776181875,35.33
2021-07-08 16:10:36.851562500,-59.0,3.25,27.0,81.31406249999999,0.20999999999999996,22.77610178125,35.33
2021-07-08 16:10:36.859375000,-59.0,3.5,27.0,81.314375,-0.92,22.7760216875,35.33
2021-07-08 16:10:36.867187500,-59.0,3.75,27.0,81.31468749999999,-1.995,22.775941593749998,35.33
2021-07-08 16:10:36.875000000,-59.0,4.0,27.0,81.315,-3.07,22.775861499999998,35.33
2021-07-08 16:10:36.882812500,-59.25,4.0,27.0,81.31531249999999,-4.115,22.77578140625,35.33
2021-07-08 16:10:36.890625000,-59.5,4.0,27.0,81.315625,-5.16,22.7757013125,35.33
2021-07-08 16:10:36.898437500,-59.75,4.0,27.0,81.31593749999999,-6.23,22.77562121875,35.33
2021-07-08 16:10:36.906250000,-60.0,4.0,27.0,81.31625,-7.3,22.775541125,35.33
2021-07-08 16:10:36.914062500,-60.0,3.75,26.75,81.31656249999999,-8.405,22.77546103125,35.33
2021-07-08 16:10:36.921875000,-60.0,3.5,26.5,81.316875,-9.51,22.7753809375,35.33
2021-07-08 16:10:36.929687500,-60.0,3.25,26.25,81.31718749999999,-10.655000000000001,22.77530084375,35.33
2021-07-08 16:10:36.937500000,-60.0,3.0,26.0,81.3175,-11.8,22.77522075,35.33
2021-07-08 16:10:36.945312500,-60.0,3.0,26.0,81.31781249999999,-12.935,22.77514065625,35.33
2021-07-08 16:10:36.953125000,-60.0,3.0,26.0,81.318125,-14.07,22.7750605625,35.33
2021-07-08 16:10:36.960937500,-60.0,3.0,26.0,81.31843749999999,-15.13,22.77498046875,35.33
2021-07-08 16:10:36.968750000,-60.0,3.0,26.0,81.31875,-16.19,22.774900375,35.33
2021-07-08 16:10:36.976562500,-60.0,3.0,26.0,81.31906249999999,-17.125,22.77482028125,35.33
2021-07-08 16:10:36.984375000,-60.0,3.0,26.0,81.319375,-18.06,22.7747401875,35.33
2021-07-08 16:10:36.992187500,-60.0,3.0,26.0,81.31968749999999,-18.854999999999997,22.77466009375,35.33
2021-07-08 16:10:37.000000000,-60.0,3.0,26.0,81.32,-19.65,22.77458,35.33
2021-07-08 16:10:37.007812500,-60.0,3.0,26.0,81.320078125,-20.345,22.77421975,35.3303125
2021-07-08 16:10:37.015625000,-60.0,3.0,26.0,81.32015625,-21.04,22.7738595,35.330625
2021-07-08 16:10:37.023437500,-60.0,3.0,26.0,81.320234375,-21.695,22.77349925,35.3309375
2021-07-08 16:10:37.031250000,-60.0,3.0,26.0,81.3203125,-22.35,22.773139,35.33125
2021-07-08 16:10:37.039062500,-60.0,3.0,26.0,81.32039062499999,-23.015,22.77277875,35.3315625
2021-07-08 16:10:37.046875000,-60.0,3.0,26.0,81.32046874999999,-23.68,22.7724185,35.331875
2021-07-08 16:10:37.054687500,-60.0,3.0,26.0,81.32054687499999,-24.369999999999997,22.77205825,35.332187499999996
2021-07-08 16:10:37.062500000,-60.0,3.0,26.0,81.32062499999999,-25.06,22.771698,35.332499999999996
2021-07-08 16:10:37.070312500,-60.0,3.0,26.25,81.320703125,-25.695,22.77133775,35.3328125
2021-07-08 16:10:37.078125000,-60.0,3.0,26.5,81.32078125,-26.33,22.7709775,35.333125
2021-07-08 16:10:37.085937500,-60.0,3.0,26.75,81.320859375,-26.75,22.77061725,35.3334375
2021-07-08 16:10:37.093750000,-60.0,3.0,27.0,81.3209375,-27.17,22.770257,35.33375
2021-07-08 16:10:37.101562500,-60.0,3.0,27.0,81.32101562499999,-27.165,22.76989675,35.3340625
2021-07-08 16:10:37.109375000,-60.0,3.0,27.0,81.32109374999999,-27.16,22.7695365,35.334375
2021-07-08 16:10:37.117187500,-60.0,3.0,27.0,81.32117187499999,-26.525,22.76917625,35.3346875
2021-07-08 16:10:37.125000000,-60.0,3.0,27.0,81.32124999999999,-25.89,22.768816,35.335
2021-07-08 16:10:37.132812500,-60.0,3.0,27.0,81.321328125,-24.509999999999998,22.768455749999998,35.3353125
2021-07-08 16:10:37.140625000,-60.0,3.0,27.0,81.32140625,-23.13,22.768095499999998,35.335625
2021-07-08 16:10:37.148437500,-60.0,3.0,27.0,81.321484375,-21.005,22.767735249999998,35.3359375
2021-07-08 16:10:37.156250000,-60.0,3.0,27.0,81.3215625,-18.88,22.767374999999998,35.33625
2021-07-08 16:10:37.164062500,-60.0,3.0,26.75,81.321640625,-16.165,22.767014749999998,35.3365625
2021-07-08 16:10:37.171875000,-60.0,3.0,26.5,81.32171874999999,-13.45,22.766654499999998,35.336875
2021-07-08 16:10:37.179687500,-60.0,3.0,26.25,81.32179687499999,-10.365,22.766294249999998,35.3371875
2021-07-08 16:10:37.187500000,-60.0,3.0,26.0,81.32187499999999,-7.28,22.765933999999998,35.337500000000006
2021-07-08 16:10:37.195312500,-60.0,3.0,26.0,81.321953125,-4.09,22.765573749999998,35.337812500000005
2021-07-08 16:10:37.203125000,-60.0,3.0,26.0,81.32203125,-0.9,22.765213499999998,35.338125000000005
2021-07-08 16:10:37.210937500,-60.0,3.0,26.0,81.322109375,2.16,22.764853249999998,35.338437500000005
2021-07-08 16:10:37.218750000,-60.0,3.0,26.0,81.3221875,5.22,22.764492999999998,35.338750000000005
2021-07-08 16:10:37.226562500,-60.0,3.0,26.25,81.322265625,7.994999999999999,22.764132749999998,35.339062500000004
2021-07-08 16:10:37.234375000,-60.0,3.0,26.5,81.32234374999999,10.77,22.763772499999998,35.339375000000004
2021-07-08 16:10:37.242187500,-60.0,3.0,26.75,81.32242187499999,13.125,22.76341225,35.339687500000004
2021-07-08 16:10:37.250000000,-60.0,3.0,27.0,81.32249999999999,15.48,22.763052,35.34
2021-07-08 16:10:37.257812500,-60.0,3.0,27.0,81.32257812499999,17.34,22.76349234375,35.34
2021-07-08 16:10:37.265625000,-60.0,3.0,27.0,81.32265625,19.2,22.7639326875,35.34
2021-07-08 16:10:37.273437500,-60.0,3.0,27.0,81.322734375,20.505,22.76437303125,35.34
2021-07-08 16:10:37.281250000,-60.0,3.0,27.0,81.3228125,21.81,22.764813375,35.34
2021-07-08 16:10:37.289062500,-60.0,3.0,27.0,81.322890625,22.545,22.76525371875,35.34
2021-07-08 16:10:37.296875000,-60.0,3.0,27.0,81.32296875,23.28,22.7656940625,35.34
2021-07-08 16:10:37.304687500,-60.0,3.0,27.0,81.32304687499999,23.5,22.76613440625,35.34
2021-07-08 16:10:37.312500000,-60.0,3.0,27.0,81.32312499999999,23.72,22.766574749999997,35.34
2021-07-08 16:10:37.320312500,-60.0,3.0,26.75,81.32320312499999,23.545,22.767015093749997,35.34
2021-07-08 16:10:37.328125000,-60.0,3.0,26.5,81.32328125,23.37,22.767455437499997,35.34
2021-07-08 16:10:37.335937500,-60.0,3.0,26.25,81.323359375,22.950000000000003,22.767895781249997,35.34
2021-07-08 16:10:37.343750000,-60.0,3.0,26.0,81.3234375,22.53,22.768336124999998,35.34
2021-07-08 16:10:37.351562500,-59.75,3.0,26.0,81.323515625,22.035,22.768776468749998,35.34
2021-07-08 16:10:37.359375000,-59.5,3.0,26.0,81.32359375,21.54,22.769216812499998,35.34
2021-07-08 16:10:37.367187500,-59.25,3.0,26.0,81.32367187499999,21.1,22.76965715625,35.34
2021-07-08 16:10:37.375000000,-59.0,3.0,26.0,81.32374999999999,20.66,22.7700975,35.34
2021-07-08 16:10:37.382812500,-59.25,3.0,26.0,81.32382812499999,20.345,22.77053784375,35.34
2021-07-08 16:10:37.390625000,-59.5,3.0,26.0,81.32390625,20.03,22.7709781875,35.34
2021-07-08 16:10:37.398437500,-59.75,3.0,26.0,81.323984375,19.875,22.77141853125,35.34
2021-07-08 16:10:37.406250000,-60.0,3.0,26.0,81.3240625,19.72,22.771858875,35.34
2021-07-08 16:10:37.414062500,-60.0,3.0,26.0,81.324140625,19.715,22.77229921875,35.34
2021-07-08 16:10:37.421875000,-60.0,3.0,26.0,81.32421875,19.71,22.7727395625,35.34
2021-07-08 16:10:37.429687500,-60.0,3.0,26.0,81.324296875,19.835,22.77317990625,35.34
2021-07-08 16:10:37.437500000,-60.0,3.0,26.0,81.32437499999999,19.96,22.77362025,35.34
2021-07-08 16:10:37.445312500,-60.0,3.0,26.0,81.32445312499999,20.17,22.774060593749997,35.34
2021-07-08 16:10:37.453125000,-60.0,3.0,26.0,81.32453124999999,20.38,22.774500937499997,35.34
2021-07-08 16:10:37.460937500,-60.0,3.0,26.0,81.324609375,20.63,22.774941281249998,35.34
2021-07-08 16:10:37.468750000,-60.0,3.0,26.0,81.3246875,20.88,22.775381624999998,35.34
2021-07-08 16:10:37.476562500,-60.0,3.0,26.25,81.324765625,21.115000000000002,22.775821968749998,35.34
2021-07-08 16:10:37.484375000,-60.0,3.0,26.5,81.32484375,21.35,22.7762623125,35.34
2021-07-08 16:10:37.492187500,-60.0,3.0,26.75,81.324921875,21.515,22.77670265625,35.34
2021-07-08 16:10:37.500000000,-60.0,3.0,27.0,81.32499999999999,21.68,22.777143,35.34
2021-07-08 16:10:37.507812500,-60.0,3.0,27.0,81.32507812499999,21.744999999999997,22.777623374999997,35.34
2021-07-08 16:10:37.515625000,-60.0,3.0,27.0,81.32515624999999,21.81,22.77810375,35.34
2021-07-08 16:10:37.523437500,-60.0,3.0,27.0,81.325234375,21.759999999999998,22.778584125,35.34
2021-07-08 16:10:37.531250000,-60.0,3.0,27.0,81.3253125,21.71,22.7790645,35.34
2021-07-08 16:10:37.539062500,-59.75,3.0,27.0,81.325390625,21.565,22.779544875,35.34
2021-07-08 16:10:37.546875000,-59.5,3.0,27.0,81.32546875,21.42,22.780025249999998,35.34
2021-07-08 16:10:37.554687500,-59.25,3.0,27.0,81.325546875,21.185000000000002,22.780505625,35.34
2021-07-08 16:10:37.562500000,-59.0,3.0,27.0,81.325625,20.95,22.780986,35.34
2021-07-08 16:10:37.570312500,-59.25,3.0,26.75,81.32570312499999,20.615000000000002,22.781466375,35.34
2021-07-08 16:10:37.578125000,-59.5,3.0,26.5,81.32578124999999,20.28,22.78194675,35.34
2021-07-08 16:10:37.585937500,-59.75,3.0,26.25,81.325859375,19.805,22.782427124999998,35.34
2021-07-08 16:10:37.593750000,-60.0,3.0,26.0,81.3259375,19.33,22.7829075,35.34
2021-07-08 16:10:37.601562500,-59.75,3.0,26.0,81.326015625,18.674999999999997,22.783387875,35.34
2021-07-08 16:10:37.609375000,-59.5,3.0,26.0,81.32609375,18.02,22.78386825,35.34
2021-07-08 16:10:37.617187500,-59.25,3.0,26.0,81.326171875,17.165,22.784348625,35.34
2021-07-08 16:10:37.625000000,-59.0,3.0,26.0,81.32625,16.31,22.784829000000002,35.34
2021-07-08 16:10:37.632812500,-59.0,3.0,26.25,81.326328125,15.294999999999998,22.785309375,35.34
2021-07-08 16:10:37.640625000,-59.0,3.0,26.5,81.32640624999999,14.28,22.78578975,35.34
2021-07-08 16:10:37.648437500,-59.0,3.0,26.75,81.32648437499999,13.165,22.786270125,35.34
2021-07-08 16:10:37.656250000,-59.0,3.0,27.0,81.3265625,12.05,22.7867505,35.34
2021-07-08 16:10:37.664062500,-59.25,3.0,26.75,81.326640625,10.925,22.787230875000002,35.34
2021-07-08 16:10:37.671875000,-59.5,3.0,26.5,81.32671875,9.8,22.78771125,35.34
2021-07-08 16:10:37.679687500,-59.75,3.0,26.25,81.326796875,8.7,22.788191625,35.34
2021-07-08 16:10:37.687500000,-60.0,3.0,26.0,81.326875,7.6,22.788672000000002,35.34
2021-07-08 16:10:37.695312500,-60.0,3.0,26.0,81.326953125,6.555,22.789152375,35.34
2021-07-08 16:10:37.703125000,-60.0,3.0,26.0,81.32703124999999,5.51,22.789632750000003,35.34
2021-07-08 16:10:37.710937500,-60.0,3.0,26.0,81.32710937499999,4.49,22.790113125,35.34
2021-07-08 16:10:37.718750000,-60.0,3.0,26.0,81.3271875,3.47,22.7905935,35.34
2021-07-08 16:10:37.726562500,-60.0,3.0,26.0,81.327265625,2.45,22.791073875000002,35.34
2021-07-08 16:10:37.734375000,-60.0,3.0,26.0,81.32734375,1.43,22.79155425,35.34
2021-07-08 16:10:37.742187500,-60.0,3.0,26.0,81.327421875,0.3899999999999999,22.792034625000003,35.34
2021-07-08 16:10:37.750000000,-60.0,3.0,26.0,81.3275,-0.65,22.792515,35.34
2021-07-08 16:10:37.757812500,-60.0,3.0,26.0,81.327578125,-1.73,22.792474937500003,35.34
2021-07-08 16:10:37.765625000,-60.0,3.0,26.0,81.32765625,-2.81,22.792434875,35.34
2021-07-08 16:10:37.773437500,-60.0,3.0,26.0,81.32773437499999,-3.9450000000000003,22.7923948125,35.34
2021-07-08 16:10:37.781250000,-60.0,3.0,26.0,81.3278125,-5.08,22.79235475,35.34
2021-07-08 16:10:37.789062500,-60.0,3.0,26.0,81.327890625,-6.285,22.792314687500003,35.34
2021-07-08 16:10:37.796875000,-60.0,3.0,26.0,81.32796875,-7.49,22.792274625,35.34
2021-07-08 16:10:37.804687500,-60.0,3.0,26.0,81.328046875,-8.775,22.7922345625,35.34
2021-07-08 16:10:37.812500000,-60.0,3.0,26.0,81.328125,-10.06,22.7921945,35.34
2021-07-08 16:10:37.820312500,-60.0,3.0,26.0,81.328203125,-11.405000000000001,22.792154437500002,35.34
2021-07-08 16:10:37.828125000,-60.0,3.0,26.0,81.32828125,-12.75,22.792114375,35.34
2021-07-08 16:10:37.835937500,-60.0,3.0,26.0,81.32835937499999,-14.085,22.7920743125,35.34
2021-07-08 16:10:37.843750000,-60.0,3.0,26.0,81.32843749999999,-15.42,22.79203425,35.34
2021-07-08 16:10:37.851562500,-60.0,3.0,26.0,81.328515625,-16.58,22.791994187500002,35.34
2021-07-08 16:10:37.859375000,-60.0,3.0,26.0,81.32859375,-17.74,22.791954125,35.34
2021-07-08 16:10:37.867187500,-60.0,3.0,26.0,81.328671875,-18.525,22.7919140625,35.34
2021-07-08 16:10:37.875000000,-60.0,3.0,26.0,81.32875,-19.31,22.791874,35.34
2021-07-08 16:10:37.882812500,-59.75,3.0,26.0,81.328828125,-19.479999999999997,22.7918339375,35.34
2021-07-08 16:10:37.890625000,-59.5,3.0,26.0,81.32890625,-19.65,22.791793875,35.34
2021-07-08 16:10:37.898437500,-59.25,3.0,26.0,81.328984375,-19.04,22.791753812499998,35.34
2021-07-08 16:10:37.906250000,-59.0,3.0,26.0,81.32906249999999,-18.43,22.79171375,35.34
2021-07-08 16:10:37.914062500,-59.25,3.0,26.0,81.329140625,-16.975,22.7916736875,35.34
2021-07-08 16:10:37.921875000,-59.5,3.0,26.0,81.32921875,-15.52,22.791633625,35.34
2021-07-08 16:10:37.929687500,-59.75,3.0,26.0,81.329296875,-13.315,22.791593562499997,35.34
2021-07-08 16:10:37.937500000,-60.0,3.0,26.0,81.329375,-11.11,22.7915535,35.34
2021-07-08 16:10:37.945312500,-60.0,3.0,26.0,81.329453125,-8.379999999999999,22.7915134375,35.34
2021-07-08 16:10:37.953125000,-60.0,3.0,26.0,81.32953125,-5.65,22.791473375,35.34
2021-07-08 16:10:37.960937500,-60.0,3.0,26.0,81.329609375,-2.72,22.791433312499997,35.34
2021-07-08 16:10:37.968750000,-60.0,3.0,26.0,81.32968749999999,0.21,22.79139325,35.34
2021-07-08 16:10:37.976562500,-60.0,3.0,26.0,81.329765625,3.01,22.7913531875,35.34
2021-07-08 16:10:37.984375000,-60.0,3.0,26.0,81.32984375,5.81,22.791313125,35.34
2021-07-08 16:10:37.992187500,-60.0,3.0,26.0,81.329921875,8.209999999999999,22.791273062499997,35.34
2021-07-08 16:10:38.000000000,-60.0,3.0,26.0,81.33,10.61,22.791233,35.34
2021-07-08 16:10:38.007812500,-60.0,3.0,26.25,81.33015625,12.455,22.791673375,35.339687500000004
2021-07-08 16:10:38.015625000,-60.0,3.0,26.5,81.3303125,14.3,22.79211375,35.339375000000004
2021-07-08 16:10:38.023437500,-60.0,3.0,26.75,81.33046875,15.540000000000001,22.792554125,35.339062500000004
2021-07-08 16:10:38.031250000,-60.0,3.0,27.0,81.330625,16.78,22.7929945,35.338750000000005
2021-07-08 16:10:38.039062500,-59.75,3.0,27.0,81.33078125,17.445,22.793434875,35.338437500000005
2021-07-08 16:10:38.046875000,-59.5,3.0,27.0,81.3309375,18.11,22.79387525,35.338125000000005
2021-07-08 16:10:38.054687500,-59.25,3.0,27.0,81.33109375,18.255,22.794315625,35.337812500000005
2021-07-08 16:10:38.062500000,-59.0,3.0,27.0,81.33125,18.4,22.794756,35.337500000000006
2021-07-08 16:10:38.070312500,-59.25,3.0,27.0,81.33140625,18.104999999999997,22.795196375,35.3371875
2021-07-08 16:10:38.078125000,-59.5,3.0,27.0,81.3315625,17.81,22.79563675,35.336875
2021-07-08 16:10:38.085937500,-59.75,3.0,27.0,81.33171875,17.145,22.796077125,35.3365625
2021-07-08 16:10:38.093750000,-60.0,3.0,27.0,81.331875,16.48,22.7965175,35.33625
2021-07-08 16:10:38.101562500,-60.0,3.0,27.0,81.33203125,15.555,22.796957875,35.3359375
2021-07-08 16:10:38.109375000,-60.0,3.0,27.0,81.3321875,14.63,22.79739825,35.335625
2021-07-08 16:10:38.117187500,-60.0,3.0,27.0,81.33234374999999,13.58,22.797838625,35.3353125
2021-07-08 16:10:38.125000000,-60.0,3.0,27.0,81.3325,12.53,22.798279,35.335
2021-07-08 16:10:38.132812500,-59.75,3.25,27.0,81.33265625,11.504999999999999,22.798719374999997,35.3346875
2021-07-08 16:10:38.140625000,-59.5,3.5,27.0,81.3328125,10.48,22.799159749999998,35.334375
2021-07-08 16:10:38.148437500,-59.25,3.75,27.0,81.33296874999999,9.59,22.799600124999998,35.3340625
2021-07-08 16:10:38.156250000,-59.0,4.0,27.0,81.333125,8.7,22.800040499999998,35.33375
2021-07-08 16:10:38.164062500,-59.0,4.0,27.0,81.33328125,8.0,22.800480874999998,35.3334375
2021-07-08 16:10:38.171875000,-59.0,4.0,27.0,81.3334375,7.3,22.80092125,35.333125
2021-07-08 16:10:38.179687500,-59.0,4.0,27.0,81.33359374999999,6.765000000000001,22.801361625,35.3328125
2021-07-08 16:10:38.187500000,-59.0,4.0,27.0,81.33375,6.23,22.801802,35.332499999999996
2021-07-08 16:10:38.195312500,-59.0,4.0,27.0,81.33390625,5.8100000000000005,22.802242375,35.332187499999996
2021-07-08 16:10:38.203125000,-59.0,4.0,27.0,81.3340625,5.39,22.80268275,35.331875
2021-07-08 16:10:38.210937500,-59.0,4.0,27.0,81.33421874999999,5.04,22.803123125,35.3315625
2021-07-08 16:10:38.218750000,-59.0,4.0,27.0,81.334375,4.69,22.8035635,35.33125
2021-07-08 16:10:38.226562500,-59.25,4.0,27.0,81.33453125,4.380000000000001,22.804003875,35.3309375
2021-07-08 16:10:38.234375000,-59.5,4.0,27.0,81.3346875,4.07,22.80444425,35.330625
2021-07-08 16:10:38.242187500,-59.75,4.0,27.0,81.33484374999999,3.785,22.804884625,35.3303125
2021-07-08 16:10:38.250000000,-60.0,4.0,27.0,81.335,3.5,22.805325,35.33
2021-07-08 16:10:38.257812500,-60.0,3.75,27.0,81.33515625,3.23,22.80508478125,35.33
2021-07-08 16:10:38.265625000,-60.0,3.5,27.0,81.3353125,2.96,22.8048445625,35.33
2021-07-08 16:10:38.273437500,-60.0,3.25,27.0,81.33546875,2.6799999999999997,22.80460434375,35.33
2021-07-08 16:10:38.281250000,-60.0,3.0,27.0,81.335625,2.4,22.804364125,35.33
2021-07-08 16:10:38.289062500,-59.75,3.0,26.75,81.33578125,2.085,22.80412390625,35.33
2021-07-08 16:10:38.296875000,-59.5,3.0,26.5,81.3359375,1.77,22.8038836875,35.33
2021-07-08 16:10:38.304687500,-59.25,3.0,26.25,81.33609375,1.4,22.80364346875,35.33
2021-07-08 16:10:38.312500000,-59.0,3.0,26.0,81.33624999999999,1.03,22.80340325,35.33
2021-07-08 16:10:38.320312500,-59.25,3.0,26.25,81.33640625,0.61,22.80316303125,35.33
2021-07-08 16:10:38.328125000,-59.5,3.0,26.5,81.3365625,0.19,22.8029228125,35.33
2021-07-08 16:10:38.335937500,-59.75,3.0,26.75,81.33671875,-0.27499999999999997,22.80268259375,35.33
2021-07-08 16:10:38.343750000,-60.0,3.0,27.0,81.33687499999999,-0.74,22.802442375,35.33
2021-07-08 16:10:38.351562500,-60.0,3.0,26.75,81.33703125,-1.255,22.80220215625,35.33
2021-07-08 16:10:38.359375000,-60.0,3.0,26.5,81.3371875,-1.77,22.8019619375,35.33
2021-07-08 16:10:38.367187500,-60.0,3.0,26.25,81.33734375,-2.375,22.80172171875,35.33
2021-07-08 16:10:38.375000000,-60.0,3.0,26.0,81.33749999999999,-2.98,22.8014815,35.33
2021-07-08 16:10:38.382812500,-59.75,3.0,26.0,81.33765625,-3.7,22.80124128125,35.33
2021-07-08 16:10:38.390625000,-59.5,3.0,26.0,81.3378125,-4.42,22.8010010625,35.33
2021-07-08 16:10:38.398437500,-59.25,3.0,26.0,81.33796875,-5.279999999999999,22.80076084375,35.33
2021-07-08 16:10:38.406250000,-59.0,3.0,26.0,81.33812499999999,-6.14,22.800520625,35.33
2021-07-08 16:10:38.414062500,-59.25,3.0,26.0,81.33828125,-7.129999999999999,22.80028040625,35.33
2021-07-08 16:10:38.421875000,-59.5,3.0,26.0,81.3384375,-8.12,22.8000401875,35.33
2021-07-08 16:10:38.429687500,-59.75,3.0,26.0,81.33859375,-9.175,22.799799968749998,35.33
2021-07-08 16:10:38.437500000,-60.0,3.0,26.0,81.33874999999999,-10.23,22.79955975,35.33
2021-07-08 16:10:38.445312500,-60.0,3.0,26.0,81.33890625,-11.29,22.79931953125,35.33
2021-07-08 16:10:38.453125000,-60.0,3.0,26.0,81.3390625,-12.35,22.799079312499998,35.33
2021-07-08 16:10:38.460937500,-60.0,3.0,26.0,81.33921875,-13.344999999999999,22.79883909375,35.33
2021-07-08 16:10:38.468750000,-60.0,3.0,26.0,81.33937499999999,-14.34,22.798598875,35.33
2021-07-08 16:10:38.476562500,-59.75,3.25,26.25,81.33953125,-15.235,22.79835865625,35.33
2021-07-08 16:10:38.484375000,-59.5,3.5,26.5,81.3396875,-16.13,22.798118437499998,35.33
2021-07-08 16:10:38.492187500,-59.25,3.75,26.75,81.33984375,-16.9,22.79787821875,35.33
2021-07-08 16:10:38.500000000,-59.0,4.0,27.0,81.34,-17.67,22.797638,35.33
2021-07-08 16:10:38.507812500,-59.0,3.75,27.0,81.34015624999999,-18.32,22.79639703125,35.33
2021-07-08 16:10:38.515625000,-59.0,3.5,27.0,81.3403125,-18.97,22.7951560625,35.33
2021-07-08 16:10:38.523437500,-59.0,3.25,27.0,81.34046875,-19.52,22.793915093749998,35.33
2021-07-08 16:10:38.531250000,-59.0,3.0,27.0,81.340625,-20.07,22.792674124999998,35.33
2021-07-08 16:10:38.539062500,-59.25,3.0,27.0,81.34078124999999,-20.560000000000002,22.791433156249997,35.33
2021-07-08 16:10:38.546875000,-59.5,3.0,27.0,81.3409375,-21.05,22.7901921875,35.33
2021-07-08 16:10:38.554687500,-59.75,3.0,27.0,81.34109375,-21.535,22.78895121875,35.33
2021-07-08 16:10:38.562500000,-60.0,3.0,27.0,81.34125,-22.02,22.78771025,35.33
2021-07-08 16:10:38.570312500,-59.75,3.0,27.0,81.34140624999999,-22.575,22.78646928125,35.33
2021-07-08 16:10:38.578125000,-59.5,3.0,27.0,81.3415625,-23.13,22.7852283125,35.33
2021-07-08 16:10:38.585937500,-59.25,3.0,27.0,81.34171875,-23.79,22.78398734375,35.33
2021-07-08 16:10:38.593750000,-59.0,3.0,27.0,81.341875,-24.45,22.782746375,35.33
2021-07-08 16:10:38.601562500,-59.0,3.0,27.0,81.34203124999999,-25.205,22.781505406249998,35.33
2021-07-08 16:10:38.609375000,-59.0,3.0,27.0,81.3421875,-25.96,22.780264437499998,35.33
2021-07-08 16:10:38.617187500,-59.0,3.0,27.0,81.34234375,-26.725,22.779023468749998,35.33
2021-07-08 16:10:38.625000000,-59.0,3.0,27.0,81.3425,-27.49,22.7777825,35.33
2021-07-08 16:10:38.632812500,-59.0,3.25,27.0,81.34265624999999,-28.09,22.77654153125,35.33
2021-07-08 16:10:38.640625000,-59.0,3.5,27.0,81.3428125,-28.69,22.7753005625,35.33
2021-07-08 16:10:38.648437500,-59.0,3.75,27.0,81.34296875,-28.93,22.77405959375,35.33
2021-07-08 16:10:38.656250000,-59.0,4.0,27.0,81.343125,-29.17,22.772818625,35.33
2021-07-08 16:10:38.664062500,-59.25,3.75,27.0,81.34328124999999,-28.845,22.77157765625,35.33
2021-07-08 16:10:38.671875000,-59.5,3.5,27.0,81.3434375,-28.52,22.7703366875,35.33
2021-07-08 16:10:38.679687500,-59.75,3.25,27.0,81.34359375,-27.475,22.76909571875,35.33
2021-07-08 16:10:38.687500000,-60.0,3.0,27.0,81.34375,-26.43,22.767854749999998,35.33
2021-07-08 16:10:38.695312500,-59.75,3.25,26.75,81.34390624999999,-24.59,22.766613781249998,35.33
2021-07-08 16:10:38.703125000,-59.5,3.5,26.5,81.34406249999999,-22.75,22.765372812499997,35.33
2021-07-08 16:10:38.710937500,-59.25,3.75,26.25,81.34421875,-20.185000000000002,22.76413184375,35.33
2021-07-08 16:10:38.718750000,-59.0,4.0,26.0,81.344375,-17.62,22.762890875,35.33
2021-07-08 16:10:38.726562500,-59.0,4.0,26.25,81.34453124999999,-14.515,22.76164990625,35.33
2021-07-08 16:10:38.734375000,-59.0,4.0,26.5,81.34468749999999,-11.41,22.7604089375,35.33
2021-07-08 16:10:38.742187500,-59.0,4.0,26.75,81.34484375,-8.07,22.75916796875,35.33
2021-07-08 16:10:38.750000000,-59.0,4.0,27.0,81.345,-4.73,22.757927,35.33
2021-07-08 16:10:38.757812500,-59.0,3.75,27.0,81.34515625,-1.495,22.757766906249998,35.33
2021-07-08 16:10:38.765625000,-59.0,3.5,27.0,81.34531249999999,1.74,22.7576068125,35.33
2021-07-08 16:10:38.773437500,-59.0,3.25,27.0,81.34546875,4.55,22.75744671875,35.33
2021-07-08 16:10:38.781250000,-59.0,3.0,27.0,81.345625,7.36,22.757286625,35.33
2021-07-08 16:10:38.789062500,-59.0,3.25,27.0,81.34578125,9.55,22.757126531249998,35.33
2021-07-08 16:10:38.796875000,-59.0,3.5,27.0,81.34593749999999,11.74,22.756966437499997,35.33
2021-07-08 16:10:38.804687500,-59.0,3.75,27.0,81.34609375,13.24,22.75680634375,35.33
2021-07-08 16:10:38.812500000,-59.0,4.0,27.0,81.34625,14.74,22.75664625,35.33
2021-07-08 16:10:38.820312500,-59.0,4.0,27.0,81.34640625,15.625,22.75648615625,35.33
2021-07-08 16:10:38.828125000,-59.0,4.0,27.0,81.34656249999999,16.51,22.7563260625,35.33
2021-07-08 16:10:38.835937500,-59.0,4.0,27.0,81.34671875,16.91,22.75616596875,35.33
2021-07-08 16:10:38.843750000,-59.0,4.0,27.0,81.346875,17.31,22.756005875,35.33
2021-07-08 16:10:38.851562500,-59.25,4.0,27.0,81.34703125,17.365000000000002,22.75584578125,35.33
2021-07-08 16:10:38.859375000,-59.5,4.0,27.0,81.34718749999999,17.42,22.755685687499998,35.33
2021-07-08 16:10:38.867187500,-59.75,4.0,27.0,81.34734375,17.26,22.75552559375,35.33
2021-07-08 16:10:38.875000000,-60.0,4.0,27.0,81.3475,17.1,22.7553655,35.33
2021-07-08 16:10:38.882812500,-59.75,4.0,27.0,81.34765625,16.805,22.75520540625,35.33
2021-07-08 16:10:38.890625000,-59.5,4.0,27.0,81.34781249999999,16.51,22.755045312500002,35.33
2021-07-08 16:10:38.898437500,-59.25,4.0,27.0,81.34796874999999,16.14,22.75488521875,35.33
2021-07-08 16:10:38.906250000,-59.0,4.0,27.0,81.348125,15.77,22.754725125,35.33
2021-07-08 16:10:38.914062500,-59.0,4.0,26.75,81.34828125,15.379999999999999,22.75456503125,35.33
2021-07-08 16:10:38.921875000,-59.0,4.0,26.5,81.34843749999999,14.99,22.7544049375,35.33
2021-07-08 16:10:38.929687500,-59.0,4.0,26.25,81.34859374999999,14.620000000000001,22.75424484375,35.33
2021-07-08 16:10:38.937500000,-59.0,4.0,26.0,81.34875,14.25,22.75408475,35.33
2021-07-08 16:10:38.945312500,-59.0,4.0,26.25,81.34890625,13.91,22.75392465625,35.33
2021-07-08 16:10:38.953125000,-59.0,4.0,26.5,81.34906249999999,13.57,22.753764562500002,35.33
2021-07-08 16:10:38.960937500,-59.0,4.0,26.75,81.34921874999999,13.265,22.75360446875,35.33
2021-07-08 16:10:38.968750000,-59.0,4.0,27.0,81.349375,12.96,22.753444375,35.33
2021-07-08 16:10:38.976562500,-59.0,4.0,27.0,81.34953125,12.64,22.75328428125,35.33
2021-07-08 16:10:38.984375000,-59.0,4.0,27.0,81.34968749999999,12.32,22.7531241875,35.33
2021-07-08 16:10:38.992187500,-59.0,4.0,27.0,81.34984374999999,11.95,22.752964093750002,35.33
2021-07-08 16:10:39.000000000,-59.0,4.0,27.0,81.35,11.58,22.752804,35.33
2021-07-08 16:10:39.007812500,-59.0,4.0,27.0,81.35,11.120000000000001,22.750362062500002,35.3303125
2021-07-08 16:10:39.015625000,-59.0,4.0,27.0,81.35,10.66,22.747920125,35.330625
2021-07-08 16:10:39.023437500,-59.0,4.0,27.0,81.35,10.085,22.7454781875,35.3309375
2021-07-08 16:10:39.031250000,-59.0,4.0,27.0,81.35,9.51,22.743036250000003,35.33125
2021-07-08 16:10:39.039062500,-59.0,4.0,27.0,81.35,8.84,22.7405943125,35.3315625
2021-07-08 16:10:39.046875000,-59.0,4.0,27.0,81.35,8.17,22.738152375000002,35.331875
2021-07-08 16:10:39.054687500,-59.0,4.0,27.0,81.35,7.45,22.7357104375,35.332187499999996
2021-07-08 16:10:39.062500000,-59.0,4.0,27.0,81.35,6.73,22.7332685,35.332499999999996
2021-07-08 16:10:39.070312500,-59.0,3.75,27.0,81.35,5.99,22.730826562500003,35.3328125
2021-07-08 16:10:39.078125000,-59.0,3.5,27.0,81.35,5.25,22.728384625,35.333125
2021-07-08 16:10:39.085937500,-59.0,3.25,27.0,81.35,4.53,22.7259426875,35.3334375
2021-07-08 16:10:39.093750000,-59.0,3.0,27.0,81.35,3.81,22.72350075,35.33375
2021-07-08 16:10:39.101562500,-59.25,3.0,27.0,81.35,3.115,22.7210588125,35.3340625
2021-07-08 16:10:39.109375000,-59.5,3.0,27.0,81.35,2.42,22.718616875000002,35.334375
2021-07-08 16:10:39.117187500,-59.75,3.0,27.0,81.35,1.74,22.7161749375,35.3346875
2021-07-08 16:10:39.125000000,-60.0,3.0,27.0,81.35,1.06,22.713733,35.335
2021-07-08 16:10:39.132812500,-59.75,3.25,27.0,81.35,0.37,22.711291062500003,35.3353125
2021-07-08 16:10:39.140625000,-59.5,3.5,27.0,81.35,-0.32,22.708849125,35.335625
2021-07-08 16:10:39.148437500,-59.25,3.75,27.0,81.35,-1.045,22.7064071875,35.3359375
2021-07-08 16:10:39.156250000,-59.0,4.0,27.0,81.35,-1.77,22.703965250000003,35.33625
2021-07-08 16:10:39.164062500,-59.0,4.0,27.0,81.35,-2.545,22.7015233125,35.3365625
2021-07-08 16:10:39.171875000,-59.0,4.0,27.0,81.35,-3.32,22.699081375000002,35.336875
2021-07-08 16:10:39.179687500,-59.0,4.0,27.0,81.35,-4.145,22.6966394375,35.3371875
2021-07-08 16:10:39.187500000,-59.0,4.0,27.0,81.35,-4.97,22.6941975,35.337500000000006
2021-07-08 16:10:39.195312500,-59.25,4.0,27.0,81.35,-5.85,22.691755562500003,35.337812500000005
2021-07-08 16:10:39.203125000,-59.5,4.0,27.0,81.35,-6.73,22.689313625,35.338125000000005
2021-07-08 16:10:39.210937500,-59.75,4.0,27.0,81.35,-7.640000000000001,22.686871687500002,35.338437500000005
2021-07-08 16:10:39.218750000,-60.0,4.0,27.0,81.35,-8.55,22.68442975,35.338750000000005
2021-07-08 16:10:39.226562500,-60.0,4.0,27.0,81.35,-9.455,22.6819878125,35.339062500000004
2021-07-08 16:10:39.234375000,-60.0,4.0,27.0,81.35,-10.36,22.679545875000002,35.339375000000004
2021-07-08 16:10:39.242187500,-60.0,4.0,27.0,81.35,-11.215,22.6771039375,35.339687500000004
2021-07-08 16:10:39.250000000,-60.0,4.0,27.0,81.35,-12.07,22.674662,35.34
2021-07-08 16:10:39.257812500,-59.75,4.0,27.0,81.35,-12.84,22.67486215625,35.34
2021-07-08 16:10:39.265625000,-59.5,4.0,27.0,81.35,-13.61,22.6750623125,35.34
2021-07-08 16:10:39.273437500,-59.25,4.0,27.0,81.35,-14.28,22.675262468750002,35.34
2021-07-08 16:10:39.281250000,-59.0,4.0,27.0,81.35,-14.95,22.675462625,35.34
2021-07-08 16:10:39.289062500,-59.0,3.75,27.0,81.35,-15.53,22.67566278125,35.34
2021-07-08 16:10:39.296875000,-59.0,3.5,27.0,81.35,-16.11,22.6758629375,35.34
2021-07-08 16:10:39.304687500,-59.0,3.25,27.0,81.35,-16.655,22.676063093750003,35.34
2021-07-08 16:10:39.312500000,-59.0,3.0,27.0,81.35,-17.2,22.67626325,35.34
2021-07-08 16:10:39.320312500,-59.0,3.25,27.0,81.35,-17.759999999999998,22.67646340625,35.34
2021-07-08 16:10:39.328125000,-59.0,3.5,27.0,81.35,-18.32,22.6766635625,35.34
2021-07-08 16:10:39.335937500,-59.0,3.75,27.0,81.35,-18.939999999999998,22.67686371875,35.34
2021-07-08 16:10:39.343750000,-59.0,4.0,27.0,81.35,-19.56,22.677063875,35.34
2021-07-08 16:10:39.351562500,-59.0,4.0,27.0,81.35,-20.275,22.67726403125,35.34
2021-07-08 16:10:39.359375000,-59.0,4.0,27.0,81.35,-20.99,22.6774641875,35.34
2021-07-08 16:10:39.367187500,-59.0,4.0,27.0,81.35,-21.799999999999997,22.67766434375,35.34
2021-07-08 16:10:39.375000000,-59.0,4.0,27.0,81.35,-22.61,22.6778645,35.34
2021-07-08 16:10:39.382812500,-59.0,4.0,27.0,81.35,-23.485,22.67806465625,35.34
2021-07-08 16:10:39.390625000,-59.0,4.0,27.0,81.35,-24.36,22.6782648125,35.34
2021-07-08 16:10:39.398437500,-59.0,4.0,27.0,81.35,-25.215,22.67846496875,35.34
2021-07-08 16:10:39.406250000,-59.0,4.0,27.0,81.35,-26.07,22.678665125,35.34
2021-07-08 16:10:39.414062500,-59.0,4.0,27.0,81.35,-26.745,22.67886528125,35.34
2021-07-08 16:10:39.421875000,-59.0,4.0,27.0,81.35,-27.42,22.6790654375,35.34
2021-07-08 16:10:39.429687500,-59.0,4.0,27.0,81.35,-27.705,22.67926559375,35.34
2021-07-08 16:10:39.437500000,-59.0,4.0,27.0,81.35,-27.99,22.67946575,35.34
2021-07-08 16:10:39.445312500,-59.0,4.0,27.0,81.35,-27.659999999999997,22.679665906249998,35.34
2021-07-08 16:10:39.453125000,-59.0,4.0,27.0,81.35,-27.33,22.6798660625,35.34
2021-07-08 16:10:39.460937500,-59.0,4.0,27.0,81.35,-26.255,22.68006621875,35.34
2021-07-08 16:10:39.468750000,-59.0,4.0,27.0,81.35,-25.18,22.680266375,35.34
2021-07-08 16:10:39.476562500,-59.0,4.0,27.0,81.35,-23.345,22.680466531249998,35.34
2021-07-08 16:10:39.484375000,-59.0,4.0,27.0,81.35,-21.51,22.6806666875,35.34
2021-07-08 16:10:39.492187500,-59.0,4.0,27.0,81.35,-19.085,22.68086684375,35.34
2021-07-08 16:10:39.500000000,-59.0,4.0,27.0,81.35,-16.66,22.681067,35.34
2021-07-08 16:10:39.507812500,-59.0,4.0,27.0,81.35,-13.915,22.6805865625,35.34
2021-07-08 16:10:39.515625000,-59.0,4.0,27.0,81.35,-11.17,22.680106125,35.34
2021-07-08 16:10:39.523437500,-59.0,4.0,27.0,81.35,-8.41,22.6796256875,35.34
2021-07-08 16:10:39.531250000,-59.0,4.0,27.0,81.35,-5.65,22.679145249999998,35.34
2021-07-08 16:10:39.539062500,-59.0,4.0,27.0,81.35,-3.12,22.6786648125,35.34
2021-07-08 16:10:39.546875000,-59.0,4.0,27.0,81.35,-0.59,22.678184375,35.34
2021-07-08 16:10:39.554687500,-59.0,4.0,27.0,81.35,1.5700000000000003,22.6777039375,35.34
2021-07-08 16:10:39.562500000,-59.0,4.0,27.0,81.35,3.73,22.6772235,35.34
2021-07-08 16:10:39.570312500,-59.0,3.75,27.0,81.35,5.48,22.676743062499998,35.34
2021-07-08 16:10:39.578125000,-59.0,3.5,27.0,81.35,7.23,22.676262625,35.34
2021-07-08 16:10:39.585937500,-59.0,3.25,27.0,81.35,8.585,22.6757821875,35.34
2021-07-08 16:10:39.593750000,-59.0,3.0,27.0,81.35,9.94,22.67530175,35.34
2021-07-08 16:10:39.601562500,-59.0,3.25,27.0,81.35,10.93,22.6748213125,35.34
2021-07-08 16:10:39.609375000,-59.0,3.5,27.0,81.35,11.92,22.674340875,35.34
2021-07-08 16:10:39.617187500,-59.0,3.75,27.0,81.35,12.575,22.6738604375,35.34
2021-07-08 16:10:39.625000000,-59.0,4.0,27.0,81.35,13.23,22.67338,35.34
2021-07-08 16:10:39.632812500,-59.0,4.0,27.0,81.35,13.555,22.6728995625,35.34
2021-07-08 16:10:39.640625000,-59.0,4.0,27.0,81.35,13.88,22.672419125,35.34
2021-07-08 16:10:39.648437500,-59.0,4.0,27.0,81.35,13.905000000000001,22.6719386875,35.34
2021-07-08 16:10:39.656250000,-59.0,4.0,27.0,81.35,13.93,22.67145825,35.34
2021-07-08 16:10:39.664062500,-59.25,4.0,27.0,81.35,13.695,22.6709778125,35.34
2021-07-08 16:10:39.671875000,-59.5,4.0,27.0,81.35,13.46,22.670497375,35.34
2021-07-08 16:10:39.679687500,-59.75,4.0,27.0,81.35,13.05,22.6700169375,35.34
2021-07-08 16:10:39.687500000,-60.0,4.0,27.0,81.35,12.64,22.6695365,35.34
2021-07-08 16:10:39.695312500,-59.75,4.0,27.0,81.35,12.16,22.6690560625,35.34
2021-07-08 16:10:39.703125000,-59.5,4.0,27.0,81.35,11.68,22.668575625,35.34
2021-07-08 16:10:39.710937500,-59.25,4.0,27.0,81.35,11.235,22.6680951875,35.34
2021-07-08 16:10:39.718750000,-59.0,4.0,27.0,81.35,10.79,22.667614750000002,35.34
2021-07-08 16:10:39.726562500,-59.0,4.0,27.0,81.35,10.45,22.6671343125,35.34
2021-07-08 16:10:39.734375000,-59.0,4.0,27.0,81.35,10.11,22.666653875,35.34
2021-07-08 16:10:39.742187500,-59.0,4.0,27.0,81.35,9.870000000000001,22.6661734375,35.34
2021-07-08 16:10:39.750000000,-59.0,4.0,27.0,81.35,9.63,22.665693,35.34
2021-07-08 16:10:39.757812500,-59.25,4.0,27.0,81.35,9.445,22.6668539375,35.34
2021-07-08 16:10:39.765625000,-59.5,4.0,27.0,81.35,9.26,22.668014875,35.34
2021-07-08 16:10:39.773437500,-59.75,4.0,27.0,81.35,9.05,22.6691758125,35.34
2021-07-08 16:10:39.781250000,-60.0,4.0,27.0,81.35,8.84,22.67033675,35.34
2021-07-08 16:10:39.789062500,-59.75,4.0,27.0,81.35,8.575,22.6714976875,35.34
2021-07-08 16:10:39.796875000,-59.5,4.0,27.0,81.35,8.31,22.672658625,35.34
2021-07-08 16:10:39.804687500,-59.25,4.0,27.0,81.35,7.995,22.6738195625,35.34
2021-07-08 16:10:39.812500000,-59.0,4.0,27.0,81.35,7.68,22.6749805,35.34
2021-07-08 16:10:39.820312500,-59.25,4.0,27.0,81.35,7.365,22.6761414375,35.34
2021-07-08 16:10:39.828125000,-59.5,4.0,27.0,81.35,7.05,22.677302375,35.34
2021-07-08 16:10:39.835937500,-59.75,4.0,27.0,81.35,6.779999999999999,22.6784633125,35.34
2021-07-08 16:10:39.843750000,-60.0,4.0,27.0,81.35,6.51,22.67962425,35.34
2021-07-08 16:10:39.851562500,-59.75,3.75,27.0,81.35,6.295,22.6807851875,35.34
2021-07-08 16:10:39.859375000,-59.5,3.5,27.0,81.35,6.08,22.681946125,35.34
2021-07-08 16:10:39.867187500,-59.25,3.25,27.0,81.35,5.88,22.6831070625,35.34
2021-07-08 16:10:39.875000000,-59.0,3.0,27.0,81.35,5.68,22.684268000000003,35.34
2021-07-08 16:10:39.882812500,-59.0,3.25,27.0,81.35,5.42,22.685428937500003,35.34
2021-07-08 16:10:39.890625000,-59.0,3.5,27.0,81.35,5.16,22.686589875000003,35.34
2021-07-08 16:10:39.898437500,-59.0,3.75,27.0,81.35,4.795,22.687750812500003,35.34
2021-07-08 16:10:39.906250000,-59.0,4.0,27.0,81.35,4.43,22.688911750000003,35.34
2021-07-08 16:10:39.914062500,-59.0,4.0,27.25,81.35,3.945,22.690072687500003,35.34
2021-07-08 16:10:39.921875000,-59.0,4.0,27.5,81.35,3.46,22.691233625000002,35.34
2021-07-08 16:10:39.929687500,-59.0,4.0,27.75,81.35,2.8899999999999997,22.692394562500002,35.34
2021-07-08 16:10:39.937500000,-59.0,4.0,28.0,81.35,2.32,22.693555500000002,35.34
2021-07-08 16:10:39.945312500,-59.25,4.0,27.75,81.35,1.705,22.694716437500002,35.34
2021-07-08 16:10:39.953125000,-59.5,4.0,27.5,81.35,1.09,22.695877375000002,35.34
2021-07-08 16:10:39.960937500,-59.75,4.0,27.25,81.35,0.4600000000000001,22.697038312500002,35.34
2021-07-08 16:10:39.968750000,-60.0,4.0,27.0,81.35,-0.17,22.698199250000002,35.34
2021-07-08 16:10:39.976562500,-59.75,4.0,27.0,81.35,-0.8,22.6993601875,35.34
2021-07-08 16:10:39.984375000,-59.5,4.0,27.0,81.35,-1.43,22.700521125,35.34
2021-07-08 16:10:39.992187500,-59.25,4.0,27.0,81.35,-2.06,22.7016820625,35.34
2021-07-08 16:10:40.000000000,-59.0,4.0,27.0,81.35,-2.69,22.702843,35.34
2021-07-08 16:10:40.007812500,-59.25,3.75,26.75,81.34984374999999,-3.3200000000000003,22.70304315625,35.3409375
2021-07-08 16:10:40.015625000,-59.5,3.5,26.5,81.34968749999999,-3.95,22.7032433125,35.341875
2021-07-08 16:10:40.023437500,-59.75,3.25,26.25,81.34953125,-4.555,22.703443468750002,35.3428125
2021-07-08 16:10:40.031250000,-60.0,3.0,26.0,81.349375,-5.16,22.703643625,35.34375
2021-07-08 16:10:40.039062500,-60.0,3.25,26.25,81.34921874999999,-5.73,22.70384378125,35.3446875
2021-07-08 16:10:40.046875000,-60.0,3.5,26.5,81.34906249999999,-6.3,22.7040439375,35.345625000000005
2021-07-08 16:10:40.054687500,-60.0,3.75,26.75,81.34890625,-6.824999999999999,22.704244093750003,35.346562500000005
2021-07-08 16:10:40.062500000,-60.0,4.0,27.0,81.34875,-7.35,22.70444425,35.347500000000004
2021-07-08 16:10:40.070312500,-60.0,4.0,26.75,81.34859374999999,-7.859999999999999,22.70464440625,35.3484375
2021-07-08 16:10:40.078125000,-60.0,4.0,26.5,81.34843749999999,-8.37,22.7048445625,35.349375
2021-07-08 16:10:40.085937500,-60.0,4.0,26.25,81.34828125,-8.895,22.70504471875,35.3503125
2021-07-08 16:10:40.093750000,-60.0,4.0,26.0,81.348125,-9.42,22.705244875,35.35125
2021-07-08 16:10:40.101562500,-59.75,4.0,26.25,81.34796874999999,-10.01,22.70544503125,35.3521875
2021-07-08 16:10:40.109375000,-59.5,4.0,26.5,81.34781249999999,-10.6,22.7056451875,35.353125
2021-07-08 16:10:40.117187500,-59.25,4.0,26.75,81.34765625,-11.3,22.70584534375,35.3540625
2021-07-08 16:10:40.125000000,-59.0,4.0,27.0,81.3475,-12.0,22.706045500000002,35.355000000000004
2021-07-08 16:10:40.132812500,-59.25,4.0,26.75,81.34734375,-12.825,22.70624565625,35.3559375
2021-07-08 16:10:40.140625000,-59.5,4.0,26.5,81.34718749999999,-13.65,22.7064458125,35.356875
2021-07-08 16:10:40.148437500,-59.75,4.0,26.25,81.34703125,-14.545,22.70664596875,35.3578125
2021-07-08 16:10:40.156250000,-60.0,4.0,26.0,81.346875,-15.44,22.706846125,35.35875
2021-07-08 16:10:40.164062500,-59.75,3.75,26.0,81.34671875,-16.29,22.70704628125,35.3596875
2021-07-08 16:10:40.171875000,-59.5,3.5,26.0,81.34656249999999,-17.14,22.7072464375,35.360625
2021-07-08 16:10:40.179687500,-59.25,3.25,26.0,81.34640625,-17.73,22.70744659375,35.3615625
2021-07-08 16:10:40.187500000,-59.0,3.0,26.0,81.34625,-18.32,22.70764675,35.3625
2021-07-08 16:10:40.195312500,-59.0,3.0,26.0,81.34609375,-18.415,22.707846906249998,35.363437499999996
2021-07-08 16:10:40.203125000,-59.0,3.0,26.0,81.34593749999999,-18.51,22.7080470625,35.364374999999995
2021-07-08 16:10:40.210937500,-59.0,3.0,26.0,81.34578125,-17.91,22.70824721875,35.3653125
2021-07-08 16:10:40.218750000,-59.0,3.0,26.0,81.345625,-17.31,22.708447375,35.36625
2021-07-08 16:10:40.226562500,-59.25,3.0,26.0,81.34546875,-15.924999999999999,22.708647531249998,35.3671875
2021-07-08 16:10:40.234375000,-59.5,3.0,26.0,81.34531249999999,-14.54,22.7088476875,35.368125
2021-07-08 16:10:40.242187500,-59.75,3.0,26.0,81.34515625,-12.45,22.70904784375,35.3690625
2021-07-08 16:10:40.250000000,-60.0,3.0,26.0,81.345,-10.36,22.709248,35.37
2021-07-08 16:10:40.257812500,-60.0,3.0,25.75,81.34484375,-7.765,22.70832728125,35.37
2021-07-08 16:10:40.265625000,-60.0,3.0,25.5,81.34468749999999,-5.17,22.707406562499997,35.37
2021-07-08 16:10:40.273437500,-60.0,3.0,25.25,81.34453124999999,-2.35,22.70648584375,35.37
2021-07-08 16:10:40.281250000,-60.0,3.0,25.0,81.344375,0.47,22.705565125,35.37
2021-07-08 16:10:40.289062500,-60.0,3.0,25.0,81.34421875,3.2350000000000003,22.704644406249997,35.37
2021-07-08 16:10:40.296875000,-60.0,3.0,25.0,81.34406249999999,6.0,22.7037236875,35.37
2021-07-08 16:10:40.304687500,-60.0,3.0,25.0,81.34390624999999,8.49,22.70280296875,35.37
2021-07-08 16:10:40.312500000,-60.0,3.0,25.0,81.34375,10.98,22.701882249999997,35.37
2021-07-08 16:10:40.320312500,-60.0,3.0,25.25,81.34359375,13.05,22.700961531249998,35.37
2021-07-08 16:10:40.328125000,-60.0,3.0,25.5,81.3434375,15.12,22.7000408125,35.37
2021-07-08 16:10:40.335937500,-60.0,3.0,25.75,81.34328124999999,16.685,22.69912009375,35.37
2021-07-08 16:10:40.343750000,-60.0,3.0,26.0,81.343125,18.25,22.698199374999998,35.37
2021-07-08 16:10:40.351562500,-60.0,3.25,26.0,81.34296875,19.305,22.69727865625,35.37
2021-07-08 16:10:40.359375000,-60.0,3.5,26.0,81.3428125,20.36,22.6963579375,35.37
2021-07-08 16:10:40.367187500,-60.0,3.75,26.0,81.34265624999999,20.93,22.695437218749998,35.37
2021-07-08 16:10:40.375000000,-60.0,4.0,26.0,81.3425,21.5,22.6945165,35.37
2021-07-08 16:10:40.382812500,-59.75,3.75,26.25,81.34234375,21.634999999999998,22.69359578125,35.37
2021-07-08 16:10:40.390625000,-59.5,3.5,26.5,81.3421875,21.77,22.692675062499998,35.37
2021-07-08 16:10:40.398437500,-59.25,3.25,26.75,81.34203124999999,21.545,22.69175434375,35.37
2021-07-08 16:10:40.406250000,-59.0,3.0,27.0,81.341875,21.32,22.690833625,35.37
2021-07-08 16:10:40.414062500,-59.0,3.25,26.5,81.34171875,20.84,22.689912906249997,35.37
2021-07-08 16:10:40.421875000,-59.0,3.5,26.0,81.3415625,20.36,22.6889921875,35.37
2021-07-08 16:10:40.429687500,-59.0,3.75,25.5,81.34140624999999,19.735,22.68807146875,35.37
2021-07-08 16:10:40.437500000,-59.0,4.0,25.0,81.34125,19.11,22.68715075,35.37
2021-07-08 16:10:40.445312500,-59.25,4.0,25.25,81.34109375,18.46,22.68623003125,35.37
2021-07-08 16:10:40.453125000,-59.5,4.0,25.5,81.3409375,17.81,22.6853093125,35.37
2021-07-08 16:10:40.460937500,-59.75,4.0,25.75,81.34078124999999,17.244999999999997,22.68438859375,35.37
2021-07-08 16:10:40.468750000,-60.0,4.0,26.0,81.340625,16.68,22.683467874999998,35.37
2021-07-08 16:10:40.476562500,-59.75,3.75,26.25,81.34046875,16.27,22.68254715625,35.37
2021-07-08 16:10:40.484375000,-59.5,3.5,26.5,81.3403125,15.86,22.6816264375,35.37
2021-07-08 16:10:40.492187500,-59.25,3.25,26.75,81.34015624999999,15.625,22.680705718749998,35.37
2021-07-08 16:10:40.500000000,-59.0,3.0,27.0,81.34,15.39,22.679785,35.37
2021-07-08 16:10:40.507812500,-59.25,3.25,26.5,81.33984375,15.280000000000001,22.6808258125,35.37
2021-07-08 16:10:40.515625000,-59.5,3.5,26.0,81.3396875,15.17,22.681866624999998,35.37
2021-07-08 16:10:40.523437500,-59.75,3.75,25.5,81.33953125,15.1,22.6829074375,35.37
2021-07-08 16:10:40.531250000,-60.0,4.0,25.0,81.33937499999999,15.03,22.68394825,35.37
2021-07-08 16:10:40.539062500,-60.0,4.0,25.25,81.33921875,14.92,22.684989062499998,35.37
2021-07-08 16:10:40.546875000,-60.0,4.0,25.5,81.3390625,14.81,22.686029875,35.37
2021-07-08 16:10:40.554687500,-60.0,4.0,25.75,81.33890625,14.625,22.6870706875,35.37
2021-07-08 16:10:40.562500000,-60.0,4.0,26.0,81.33874999999999,14.44,22.688111499999998,35.37
2021-07-08 16:10:40.570312500,-59.75,3.75,26.0,81.33859375,14.184999999999999,22.6891523125,35.37
2021-07-08 16:10:40.578125000,-59.5,3.5,26.0,81.3384375,13.93,22.690193125,35.37
2021-07-08 16:10:40.585937500,-59.25,3.25,26.0,81.33828125,13.64,22.691233937499998,35.37
2021-07-08 16:10:40.593750000,-59.0,3.0,26.0,81.33812499999999,13.35,22.69227475,35.37
2021-07-08 16:10:40.601562500,-59.0,3.0,26.0,81.33796875,13.035,22.6933155625,35.37
2021-07-08 16:10:40.609375000,-59.0,3.0,26.0,81.3378125,12.72,22.694356374999998,35.37
2021-07-08 16:10:40.617187500,-59.0,3.0,26.0,81.33765625,12.379999999999999,22.6953971875,35.37
2021-07-08 16:10:40.625000000,-59.0,3.0,26.0,81.33749999999999,12.04,22.696438,35.37
2021-07-08 16:10:40.632812500,-59.5,3.0,25.75,81.33734375,11.629999999999999,22.697478812499998,35.37
2021-07-08 16:10:40.640625000,-60.0,3.0,25.5,81.3371875,11.22,22.698519625,35.37
2021-07-08 16:10:40.648437500,-60.5,3.0,25.25,81.33703125,10.715,22.699560437499997,35.37
2021-07-08 16:10:40.656250000,-61.0,3.0,25.0,81.33687499999999,10.21,22.70060125,35.37
2021-07-08 16:10:40.664062500,-61.0,3.0,25.0,81.33671875,9.620000000000001,22.7016420625,35.37
2021-07-08 16:10:40.671875000,-61.0,3.0,25.0,81.3365625,9.03,22.702682874999997,35.37
2021-07-08 16:10:40.679687500,-61.0,3.0,25.0,81.33640625,8.39,22.7037236875,35.37
2021-07-08 16:10:40.687500000,-61.0,3.0,25.0,81.33624999999999,7.75,22.7047645,35.37
2021-07-08 16:10:40.695312500,-60.75,3.25,25.25,81.33609375,7.09,22.705805312499997,35.37
2021-07-08 16:10:40.703125000,-60.5,3.5,25.5,81.3359375,6.43,22.706846125,35.37
2021-07-08 16:10:40.710937500,-60.25,3.75,25.75,81.33578125,5.755,22.7078869375,35.37
2021-07-08 16:10:40.718750000,-60.0,4.0,26.0,81.335625,5.08,22.708927749999997,35.37
2021-07-08 16:10:40.726562500,-60.0,4.0,26.0,81.33546875,4.36,22.7099685625,35.37
2021-07-08 16:10:40.734375000,-60.0,4.0,26.0,81.3353125,3.64,22.711009375,35.37
2021-07-08 16:10:40.742187500,-60.0,4.0,26.0,81.33515625,2.825,22.712050187499997,35.37
2021-07-08 16:10:40.750000000,-60.0,4.0,26.0,81.335,2.01,22.713091,35.37
2021-07-08 16:10:40.757812500,-60.0,4.0,26.0,81.33484374999999,1.06,22.711689874999998,35.37
2021-07-08 16:10:40.765625000,-60.0,4.0,26.0,81.3346875,0.11,22.71028875,35.37
2021-07-08 16:10:40.773437500,-60.0,4.0,26.0,81.33453125,-0.975,22.708887625,35.37
2021-07-08 16:10:40.781250000,-60.0,4.0,26.0,81.334375,-2.06,22.707486499999998,35.37
2021-07-08 16:10:40.789062500,-60.0,4.0,26.0,81.33421874999999,-3.25,22.706085374999997,35.37
2021-07-08 16:10:40.796875000,-60.0,4.0,26.0,81.3340625,-4.44,22.70468425,35.37
2021-07-08 16:10:40.804687500,-60.0,4.0,26.0,81.33390625,-5.67,22.703283125,35.37
2021-07-08 16:10:40.812500000,-60.0,4.0,26.0,81.33375,-6.9,22.701881999999998,35.37
2021-07-08 16:10:40.820312500,-60.0,3.75,26.0,81.33359374999999,-8.14,22.700480875,35.37
2021-07-08 16:10:40.828125000,-60.0,3.5,26.0,81.3334375,-9.38,22.69907975,35.37
2021-07-08 16:10:40.835937500,-60.0,3.25,26.0,81.33328125,-10.635000000000002,22.697678624999998,35.37
2021-07-08 16:10:40.843750000,-60.0,3.0,26.0,81.333125,-11.89,22.696277499999997,35.37
2021-07-08 16:10:40.851562500,-60.0,3.0,26.0,81.33296874999999,-13.185,22.694876375,35.37
2021-07-08 16:10:40.859375000,-60.0,3.0,26.0,81.3328125,-14.48,22.69347525,35.37
2021-07-08 16:10:40.867187500,-60.0,3.0,26.0,81.33265625,-15.855,22.692074124999998,35.37
2021-07-08 16:10:40.875000000,-60.0,3.0,26.0,81.3325,-17.23,22.690672999999997,35.37
2021-07-08 16:10:40.882812500,-59.75,3.0,26.0,81.33234374999999,-18.675,22.689271875,35.37
2021-07-08 16:10:40.890625000,-59.5,3.0,26.0,81.3321875,-20.12,22.68787075,35.37
2021-07-08 16:10:40.898437500,-59.25,3.0,26.0,81.33203125,-21.565,22.686469624999997,35.37
2021-07-08 16:10:40.906250000,-59.0,3.0,26.0,81.331875,-23.01,22.6850685,35.37
2021-07-08 16:10:40.914062500,-59.25,3.0,26.0,81.33171875,-24.29,22.683667375,35.37
2021-07-08 16:10:40.921875000,-59.5,3.0,26.0,81.3315625,-25.57,22.682266249999998,35.37
2021-07-08 16:10:40.929687500,-59.75,3.0,26.0,81.33140625,-26.455,22.680865124999997,35.37
2021-07-08 16:10:40.937500000,-60.0,3.0,26.0,81.33125,-27.34,22.679464,35.37
2021-07-08 16:10:40.945312500,-60.0,3.25,26.0,81.33109375,-27.605,22.678062875,35.37
2021-07-08 16:10:40.953125000,-60.0,3.5,26.0,81.3309375,-27.87,22.676661749999997,35.37
2021-07-08 16:10:40.960937500,-60.0,3.75,26.0,81.33078125,-27.35,22.675260625,35.37
2021-07-08 16:10:40.968750000,-60.0,4.0,26.0,81.330625,-26.83,22.6738595,35.37
2021-07-08 16:10:40.976562500,-60.0,3.75,26.0,81.33046875,-25.475,22.672458374999998,35.37
2021-07-08 16:10:40.984375000,-60.0,3.5,26.0,81.3303125,-24.12,22.671057249999997,35.37
2021-07-08 16:10:40.992187500,-60.0,3.25,26.0,81.33015625,-22.03,22.669656125,35.37
2021-07-08 16:10:41.000000000,-60.0,3.0,26.0,81.33,-19.94,22.668255,35.37
2021-07-08 16:10:41.007812500,-60.0,3.0,26.0,81.329921875,-17.325000000000003,22.66857525,35.3690625
2021-07-08 16:10:41.015625000,-60.0,3.0,26.0,81.32984375,-14.71,22.668895499999998,35.368125
2021-07-08 16:10:41.023437500,-60.0,3.0,26.0,81.329765625,-11.86,22.66921575,35.3671875
2021-07-08 16:10:41.031250000,-60.0,3.0,26.0,81.32968749999999,-9.01,22.669535999999997,35.36625
2021-07-08 16:10:41.039062500,-60.0,3.0,26.0,81.329609375,-6.195,22.66985625,35.3653125
2021-07-08 16:10:41.046875000,-60.0,3.0,26.0,81.32953125,-3.38,22.6701765,35.364374999999995
2021-07-08 16:10:41.054687500,-60.0,3.0,26.0,81.329453125,-0.81,22.670496749999998,35.363437499999996
2021-07-08 16:10:41.062500000,-60.0,3.0,26.0,81.329375,1.76,22.670817,35.3625
2021-07-08 16:10:41.070312500,-60.0,3.0,26.0,81.329296875,3.9800000000000004,22.671137249999997,35.3615625
2021-07-08 16:10:41.078125000,-60.0,3.0,26.0,81.32921875,6.2,22.6714575,35.360625
2021-07-08 16:10:41.085937500,-60.0,3.0,26.0,81.329140625,8.03,22.67177775,35.3596875
2021-07-08 16:10:41.093750000,-60.0,3.0,26.0,81.32906249999999,9.86,22.672098,35.35875
2021-07-08 16:10:41.101562500,-60.0,3.25,26.0,81.328984375,11.315,22.67241825,35.3578125
2021-07-08 16:10:41.109375000,-60.0,3.5,26.0,81.32890625,12.77,22.672738499999998,35.356875
2021-07-08 16:10:41.117187500,-60.0,3.75,26.0,81.328828125,13.875,22.67305875,35.3559375
2021-07-08 16:10:41.125000000,-60.0,4.0,26.0,81.32875,14.98,22.673378999999997,35.355000000000004
2021-07-08 16:10:41.132812500,-60.0,3.75,26.0,81.328671875,15.77,22.67369925,35.3540625
2021-07-08 16:10:41.140625000,-60.0,3.5,26.0,81.32859375,16.56,22.6740195,35.353125
2021-07-08 16:10:41.148437500,-60.0,3.25,26.0,81.328515625,17.055,22.674339749999998,35.3521875
2021-07-08 16:10:41.156250000,-60.0,3.0,26.0,81.32843749999999,17.55,22.67466,35.35125
2021-07-08 16:10:41.164062500,-60.0,3.0,26.0,81.32835937499999,17.810000000000002,22.674980249999997,35.3503125
2021-07-08 16:10:41.171875000,-60.0,3.0,26.0,81.32828125,18.07,22.6753005,35.349375
2021-07-08 16:10:41.179687500,-60.0,3.0,26.0,81.328203125,18.195,22.67562075,35.3484375
2021-07-08 16:10:41.187500000,-60.0,3.0,26.0,81.328125,18.32,22.675940999999998,35.347500000000004
2021-07-08 16:10:41.195312500,-60.0,3.0,26.0,81.328046875,18.46,22.67626125,35.346562500000005
2021-07-08 16:10:41.203125000,-60.0,3.0,26.0,81.32796875,18.6,22.676581499999998,35.345625000000005
2021-07-08 16:10:41.210937500,-60.0,3.0,26.0,81.327890625,18.915,22.67690175,35.3446875
2021-07-08 16:10:41.218750000,-60.0,3.0,26.0,81.3278125,19.23,22.677222,35.34375
2021-07-08 16:10:41.226562500,-60.0,3.0,26.0,81.32773437499999,19.835,22.67754225,35.3428125
2021-07-08 16:10:41.234375000,-60.0,3.0,26.0,81.32765625,20.44,22.6778625,35.341875
2021-07-08 16:10:41.242187500,-60.0,3.0,26.0,81.327578125,21.415,22.678182749999998,35.3409375
2021-07-08 16:10:41.250000000,-60.0,3.0,26.0,81.3275,22.39,22.678503,35.34
2021-07-08 16:10:41.257812500,-60.0,3.0,26.0,81.327421875,23.725,22.6777824375,35.34
2021-07-08 16:10:41.265625000,-60.0,3.0,26.0,81.32734375,25.06,22.677061875,35.34
2021-07-08 16:10:41.273437500,-60.0,3.0,26.0,81.327265625,26.725,22.6763413125,35.34
2021-07-08 16:10:41.281250000,-60.0,3.0,26.0,81.3271875,28.39,22.67562075,35.34
2021-07-08 16:10:41.289062500,-60.0,3.0,26.0,81.32710937499999,30.34,22.6749001875,35.34
2021-07-08 16:10:41.296875000,-60.0,3.0,26.0,81.32703124999999,32.29,22.674179625,35.34
2021-07-08 16:10:41.304687500,-60.0,3.0,26.0,81.326953125,34.474999999999994,22.6734590625,35.34
2021-07-08 16:10:41.312500000,-60.0,3.0,26.0,81.326875,36.66,22.6727385,35.34
2021-07-08 16:10:41.320312500,-60.0,3.0,26.0,81.326796875,38.985,22.672017937499998,35.34
2021-07-08 16:10:41.328125000,-60.0,3.0,26.0,81.32671875,41.31,22.671297374999998,35.34
2021-07-08 16:10:41.335937500,-60.0,3.0,26.0,81.326640625,43.57,22.6705768125,35.34
2021-07-08 16:10:41.343750000,-60.0,3.0,26.0,81.3265625,45.83,22.66985625,35.34
2021-07-08 16:10:41.351562500,-60.0,3.0,26.0,81.32648437499999,47.685,22.6691356875,35.34
2021-07-08 16:10:41.359375000,-60.0,3.0,26.0,81.32640624999999,49.54,22.668415125,35.34
2021-07-08 16:10:41.367187500,-60.0,3.0,26.0,81.326328125,50.61,22.6676945625,35.34
2021-07-08 16:10:41.375000000,-60.0,3.0,26.0,81.32625,51.68,22.666974,35.34
2021-07-08 16:10:41.382812500,-60.0,3.0,26.0,81.326171875,51.635000000000005,22.6662534375,35.34
2021-07-08 16:10:41.390625000,-60.0,3.0,26.0,81.32609375,51.59,22.665532875,35.34
2021-07-08 16:10:41.398437500,-60.0,3.0,26.0,81.326015625,50.33,22.6648123125,35.34
2021-07-08 16:10:41.406250000,-60.0,3.0,26.0,81.3259375,49.07,22.66409175,35.34
2021-07-08 16:10:41.414062500,-60.0,3.0,26.0,81.325859375,46.760000000000005,22.6633711875,35.34
2021-07-08 16:10:41.421875000,-60.0,3.0,26.0,81.32578124999999,44.45,22.662650625,35.34
2021-07-08 16:10:41.429687500,-60.0,3.0,26.0,81.32570312499999,41.47,22.6619300625,35.34
2021-07-08 16:10:41.437500000,-60.0,3.0,26.0,81.325625,38.49,22.6612095,35.34
2021-07-08 16:10:41.445312500,-60.0,3.0,26.0,81.325546875,35.285,22.6604889375,35.34
2021-07-08 16:10:41.453125000,-60.0,3.0,26.0,81.32546875,32.08,22.659768375,35.34
2021-07-08 16:10:41.460937500,-60.0,3.0,26.0,81.325390625,28.99,22.6590478125,35.34
2021-07-08 16:10:41.468750000,-60.0,3.0,26.0,81.3253125,25.9,22.65832725,35.34
2021-07-08 16:10:41.476562500,-60.0,3.0,26.0,81.325234375,23.119999999999997,22.6576066875,35.34
2021-07-08 16:10:41.484375000,-60.0,3.0,26.0,81.32515624999999,20.34,22.656886125,35.34
2021-07-08 16:10:41.492187500,-60.0,3.0,26.0,81.32507812499999,17.88,22.6561655625,35.34
2021-07-08 16:10:41.500000000,-60.0,3.0,26.0,81.32499999999999,15.42,22.655445,35.34
2021-07-08 16:10:41.507812500,-60.0,3.0,26.0,81.324921875,13.23,22.65632571875,35.34
2021-07-08 16:10:41.515625000,-60.0,3.0,26.0,81.32484375,11.04,22.6572064375,35.34
2021-07-08 16:10:41.523437500,-60.0,3.0,26.0,81.324765625,9.059999999999999,22.65808715625,35.34
2021-07-08 16:10:41.531250000,-60.0,3.0,26.0,81.3246875,7.08,22.658967875000002,35.34
2021-07-08 16:10:41.539062500,-60.0,3.0,26.0,81.324609375,5.24,22.65984859375,35.34
2021-07-08 16:10:41.546875000,-60.0,3.0,26.0,81.32453124999999,3.4,22.6607293125,35.34
2021-07-08 16:10:41.554687500,-60.0,3.0,26.0,81.32445312499999,1.6099999999999999,22.66161003125,35.34
2021-07-08 16:10:41.562500000,-60.0,3.0,26.0,81.32437499999999,-0.18,22.66249075,35.34
2021-07-08 16:10:41.570312500,-60.0,3.0,26.0,81.324296875,-2.08,22.66337146875,35.34
2021-07-08 16:10:41.578125000,-60.0,3.0,26.0,81.32421875,-3.98,22.6642521875,35.34
2021-07-08 16:10:41.585937500,-60.0,3.0,26.0,81.324140625,-6.205,22.66513290625,35.34
2021-07-08 16:10:41.593750000,-60.0,3.0,26.0,81.3240625,-8.43,22.666013624999998,35.34
2021-07-08 16:10:41.601562500,-60.0,3.0,26.0,81.323984375,-11.19,22.66689434375,35.34
2021-07-08 16:10:41.609375000,-60.0,3.0,26.0,81.32390625,-13.95,22.6677750625,35.34
2021-07-08 16:10:41.617187500,-60.0,3.0,26.0,81.32382812499999,-17.335,22.66865578125,35.34
2021-07-08 16:10:41.625000000,-60.0,3.0,26.0,81.32374999999999,-20.72,22.6695365,35.34
2021-07-08 16:10:41.632812500,-60.0,3.0,26.0,81.32367187499999,-24.625,22.67041721875,35.34
2021-07-08 16:10:41.640625000,-60.0,3.0,26.0,81.32359375,-28.53,22.6712979375,35.34
2021-07-08 16:10:41.648437500,-60.0,3.0,26.0,81.323515625,-32.64,22.67217865625,35.34
2021-07-08 16:10:41.656250000,-60.0,3.0,26.0,81.3234375,-36.75,22.673059375,35.34
2021-07-08 16:10:41.664062500,-60.0,3.0,26.0,81.323359375,-40.605000000000004,22.673940093749998,35.34
2021-07-08 16:10:41.671875000,-60.0,3.0,26.0,81.32328125,-44.46,22.6748208125,35.34
2021-07-08 16:10:41.679687500,-60.0,3.0,26.0,81.32320312499999,-47.605000000000004,22.67570153125,35.34
2021-07-08 16:10:41.687500000,-60.0,3.0,26.0,81.32312499999999,-50.75,22.67658225,35.34
2021-07-08 16:10:41.695312500,-60.0,3.0,26.0,81.32304687499999,-52.835,22.67746296875,35.34
2021-07-08 16:10:41.703125000,-60.0,3.0,26.0,81.32296875,-54.92,22.6783436875,35.34
2021-07-08 16:10:41.710937500,-60.0,3.0,26.0,81.322890625,-55.815,22.67922440625,35.34
2021-07-08 16:10:41.718750000,-60.0,3.0,26.0,81.3228125,-56.71,22.680105124999997,35.34
2021-07-08 16:10:41.726562500,-60.0,3.0,26.0,81.322734375,-56.53,22.680985843749998,35.34
2021-07-08 16:10:41.734375000,-60.0,3.0,26.0,81.32265625,-56.35,22.681866562499998,35.34
2021-07-08 16:10:41.742187500,-60.0,3.0,26.0,81.32257812499999,-55.39,22.68274728125,35.34
2021-07-08 16:10:41.750000000,-60.0,3.0,26.0,81.32249999999999,-54.43,22.683628,35.34
2021-07-08 16:10:41.757812500,-60.0,3.0,26.0,81.32242187499999,-53.105000000000004,22.684388625,35.34
2021-07-08 16:10:41.765625000,-60.0,3.0,26.0,81.32234374999999,-51.78,22.68514925,35.34
2021-07-08 16:10:41.773437500,-60.0,3.0,26.0,81.322265625,-50.49,22.685909875,35.34
2021-07-08 16:10:41.781250000,-60.0,3.0,26.0,81.3221875,-49.2,22.686670499999998,35.34
2021-07-08 16:10:41.789062500,-60.0,3.0,26.0,81.322109375,-48.27,22.687431125,35.34
2021-07-08 16:10:41.796875000,-60.0,3.0,26.0,81.32203125,-47.34,22.688191749999998,35.34
2021-07-08 16:10:41.804687500,-60.0,3.0,26.0,81.321953125,-46.900000000000006,22.688952375,35.34
2021-07-08 16:10:41.812500000,-60.0,3.0,26.0,81.32187499999999,-46.46,22.689712999999998,35.34
2021-07-08 16:10:41.820312500,-60.0,3.0,26.0,81.32179687499999,-46.455,22.690473625,35.34
2021-07-08 16:10:41.828125000,-60.0,3.0,26.0,81.32171874999999,-46.45,22.69123425,35.34
2021-07-08 16:10:41.835937500,-60.0,3.0,26.0,81.321640625,-46.645,22.691994875,35.34
2021-07-08 16:10:41.843750000,-60.0,3.0,26.0,81.3215625,-46.84,22.6927555,35.34
2021-07-08 16:10:41.851562500,-60.0,3.0,26.0,81.321484375,-46.870000000000005,22.693516125,35.34
2021-07-08 16:10:41.859375000,-60.0,3.0,26.0,81.32140625,-46.9,22.69427675,35.34
2021-07-08 16:10:41.867187500,-60.0,3.0,26.0,81.321328125,-46.42,22.695037375,35.34
2021-07-08 16:10:41.875000000,-60.0,3.0,26.0,81.32124999999999,-45.94,22.695798,35.34
2021-07-08 16:10:41.882812500,-60.0,3.0,26.0,81.32117187499999,-44.705,22.696558625,35.34
2021-07-08 16:10:41.890625000,-60.0,3.0,26.0,81.32109374999999,-43.47,22.69731925,35.34
2021-07-08 16:10:41.898437500,-60.0,3.0,26.0,81.32101562499999,-41.425,22.698079875,35.34
2021-07-08 16:10:41.906250000,-60.0,3.0,26.0,81.3209375,-39.38,22.6988405,35.34
2021-07-08 16:10:41.914062500,-60.0,3.0,26.0,81.320859375,-36.650000000000006,22.699601125,35.34
2021-07-08 16:10:41.921875000,-60.0,3.0,26.0,81.32078125,-33.92,22.70036175,35.34
2021-07-08 16:10:41.929687500,-60.0,3.0,26.0,81.320703125,-30.765,22.701122375,35.34
2021-07-08 16:10:41.937500000,-60.0,3.0,26.0,81.32062499999999,-27.61,22.701883000000002,35.34
2021-07-08 16:10:41.945312500,-60.0,3.0,26.0,81.32054687499999,-24.305,22.702643625,35.34
2021-07-08 16:10:41.953125000,-60.0,3.0,26.0,81.32046874999999,-21.0,22.703404250000002,35.34
2021-07-08 16:10:41.960937500,-60.0,3.0,26.0,81.32039062499999,-17.78,22.704164875,35.34
2021-07-08 16:10:41.968750000,-60.0,3.0,26.0,81.3203125,-14.56,22.7049255,35.34
2021-07-08 16:10:41.976562500,-60.0,3.25,26.0,81.320234375,-11.58,22.705686125,35.34
2021-07-08 16:10:41.984375000,-60.0,3.5,26.0,81.32015625,-8.6,22.70644675,35.34
2021-07-08 16:10:41.992187500,-60.0,3.75,26.0,81.320078125,-5.9399999999999995,22.707207375,35.34
2021-07-08 16:10:42.000000000,-60.0,4.0,26.0,81.32,-3.28,22.707968,35.34
2021-07-08 16:10:42.007812500,-60.0,3.75,26.0,81.319453125,-0.9849999999999999,22.707968,35.3409375
2021-07-08 16:10:42.015625000,-60.0,3.5,26.0,81.31890625,1.31,22.707968,35.341875
2021-07-08 16:10:42.023437500,-60.0,3.25,26.0,81.318359375,3.21,22.707968,35.3428125
2021-07-08 16:10:42.031250000,-60.0,3.0,26.0,81.31781249999999,5.11,22.707968,35.34375
2021-07-08 16:10:42.039062500,-59.75,3.0,26.0,81.31726562499999,6.625,22.707968,35.3446875
2021-07-08 16:10:42.046875000,-59.5,3.0,26.0,81.31671874999999,8.14,22.707968,35.345625000000005
2021-07-08 16:10:42.054687500,-59.25,3.0,26.0,81.316171875,9.305,22.707968,35.346562500000005
2021-07-08 16:10:42.062500000,-59.0,3.0,26.0,81.315625,10.47,22.707968,35.347500000000004
2021-07-08 16:10:42.070312500,-59.25,3.0,26.0,81.315078125,11.36,22.707968,35.3484375
2021-07-08 16:10:42.078125000,-59.5,3.0,26.0,81.31453124999999,12.25,22.707968,35.349375
2021-07-08 16:10:42.085937500,-59.75,3.0,26.0,81.31398437499999,12.945,22.707968,35.3503125
2021-07-08 16:10:42.093750000,-60.0,3.0,26.0,81.31343749999999,13.64,22.707968,35.35125
2021-07-08 16:10:42.101562500,-60.0,3.0,26.0,81.312890625,14.225000000000001,22.707968,35.3521875
2021-07-08 16:10:42.109375000,-60.0,3.0,26.0,81.31234375,14.81,22.707968,35.353125
2021-07-08 16:10:42.117187500,-60.0,3.0,26.0,81.311796875,15.31,22.707968,35.3540625
2021-07-08 16:10:42.125000000,-60.0,3.0,26.0,81.31125,15.81,22.707968,35.355000000000004
2021-07-08 16:10:42.132812500,-60.0,3.0,26.0,81.31070312499999,16.215,22.707968,35.3559375
2021-07-08 16:10:42.140625000,-60.0,3.0,26.0,81.31015624999999,16.62,22.707968,35.356875
2021-07-08 16:10:42.148437500,-60.0,3.0,26.0,81.309609375,16.865000000000002,22.707968,35.3578125
2021-07-08 16:10:42.156250000,-60.0,3.0,26.0,81.3090625,17.11,22.707968,35.35875
2021-07-08 16:10:42.164062500,-60.0,3.25,26.0,81.308515625,17.115000000000002,22.707968,35.3596875
2021-07-08 16:10:42.171875000,-60.0,3.5,26.0,81.30796875,17.12,22.707968,35.360625
2021-07-08 16:10:42.179687500,-60.0,3.75,26.0,81.30742187499999,16.815,22.707968,35.3615625
2021-07-08 16:10:42.187500000,-60.0,4.0,26.0,81.30687499999999,16.51,22.707968,35.3625
2021-07-08 16:10:42.195312500,-60.0,3.75,26.0,81.306328125,15.870000000000001,22.707968,35.363437499999996
2021-07-08 16:10:42.203125000,-60.0,3.5,26.0,81.30578125,15.23,22.707968,35.364374999999995
2021-07-08 16:10:42.210937500,-60.0,3.25,26.0,81.305234375,14.3,22.707968,35.3653125
2021-07-08 16:10:42.218750000,-60.0,3.0,26.0,81.3046875,13.37,22.707968,35.36625
2021-07-08 16:10:42.226562500,-60.0,3.0,26.0,81.30414062499999,12.27,22.707968,35.3671875
2021-07-08 16:10:42.234375000,-60.0,3.0,26.0,81.30359374999999,11.17,22.707968,35.368125
2021-07-08 16:10:42.242187500,-60.0,3.0,26.0,81.30304687499999,10.04,22.707968,35.3690625
2021-07-08 16:10:42.250000000,-60.0,3.0,26.0,81.3025,8.91,22.707968,35.37
2021-07-08 16:10:42.257812500,-60.0,3.0,26.0,81.301953125,7.875,22.7078879375,35.37
2021-07-08 16:10:42.265625000,-60.0,3.0,26.0,81.30140625,6.84,22.707807875,35.37
2021-07-08 16:10:42.273437500,-60.0,3.0,26.0,81.300859375,5.9350000000000005,22.7077278125,35.37
2021-07-08 16:10:42.281250000,-60.0,3.0,26.0,81.30031249999999,5.03,22.70764775,35.37
2021-07-08 16:10:42.289062500,-60.0,3.0,26.0,81.29976562499999,4.215,22.7075676875,35.37
2021-07-08 16:10:42.296875000,-60.0,3.0,26.0,81.29921875,3.4,22.707487625000002,35.37
2021-07-08 16:10:42.304687500,-60.0,3.0,26.0,81.298671875,2.59,22.707407562500002,35.37
2021-07-08 16:10:42.312500000,-60.0,3.0,26.0,81.298125,1.78,22.7073275,35.37
2021-07-08 16:10:42.320312500,-60.0,3.0,26.0,81.297578125,0.88,22.7072474375,35.37
2021-07-08 16:10:42.328125000,-60.0,3.0,26.0,81.29703124999999,-0.02,22.707167375,35.37
2021-07-08 16:10:42.335937500,-60.0,3.0,26.0,81.29648437499999,-1.035,22.7070873125,35.37
2021-07-08 16:10:42.343750000,-60.0,3.0,26.0,81.2959375,-2.05,22.70700725,35.37
2021-07-08 16:10:42.351562500,-60.0,3.0,26.0,81.295390625,-3.17,22.7069271875,35.37
2021-07-08 16:10:42.359375000,-60.0,3.0,26.0,81.29484375,-4.29,22.706847125,35.37
2021-07-08 16:10:42.367187500,-60.0,3.0,26.0,81.294296875,-5.45,22.7067670625,35.37
2021-07-08 16:10:42.375000000,-60.0,3.0,26.0,81.29374999999999,-6.61,22.706687000000002,35.37
2021-07-08 16:10:42.382812500,-60.0,3.0,26.0,81.29320312499999,-7.734999999999999,22.706606937500002,35.37
2021-07-08 16:10:42.390625000,-60.0,3.0,26.0,81.29265625,-8.86,22.706526875,35.37
2021-07-08 16:10:42.398437500,-60.0,3.0,26.0,81.292109375,-9.870000000000001,22.7064468125,35.37
2021-07-08 16:10:42.406250000,-60.0,3.0,26.0,81.2915625,-10.88,22.70636675,35.37
2021-07-08 16:10:42.414062500,-60.0,3.0,26.0,81.291015625,-11.65,22.7062866875,35.37
2021-07-08 16:10:42.421875000,-60.0,3.0,26.0,81.29046875,-12.42,22.706206625,35.37
2021-07-08 16:10:42.429687500,-60.0,3.0,26.0,81.28992187499999,-12.809999999999999,22.7061265625,35.37
2021-07-08 16:10:42.437500000,-60.0,3.0,26.0,81.28937499999999,-13.2,22.7060465,35.37
2021-07-08 16:10:42.445312500,-60.0,3.0,26.0,81.288828125,-13.045,22.7059664375,35.37
2021-07-08 16:10:42.453125000,-60.0,3.0,26.0,81.28828125,-12.89,22.705886375,35.37
2021-07-08 16:10:42.460937500,-60.0,3.0,26.0,81.287734375,-12.085,22.705806312500002,35.37
2021-07-08 16:10:42.468750000,-60.0,3.0,26.0,81.2871875,-11.28,22.70572625,35.37
2021-07-08 16:10:42.476562500,-60.0,3.0,26.0,81.28664062499999,-9.835,22.7056461875,35.37
2021-07-08 16:10:42.484375000,-60.0,3.0,26.0,81.28609374999999,-8.39,22.705566125,35.37
2021-07-08 16:10:42.492187500,-60.0,3.0,26.0,81.285546875,-6.465,22.7054860625,35.37
2021-07-08 16:10:42.500000000,-60.0,3.0,26.0,81.285,-4.54,22.705406,35.37
2021-07-08 16:10:42.507812500,-60.0,3.0,26.0,81.284453125,-2.4,22.7058463125,35.37
2021-07-08 16:10:42.515625000,-60.0,3.0,26.0,81.28390625,-0.26,22.706286625,35.37
2021-07-08 16:10:42.523437500,-60.0,3.0,26.0,81.283359375,1.8150000000000002,22.7067269375,35.37
2021-07-08 16:10:42.531250000,-60.0,3.0,26.0,81.28281249999999,3.89,22.70716725,35.37
2021-07-08 16:10:42.539062500,-60.0,3.0,26.0,81.282265625,5.69,22.7076075625,35.37
2021-07-08 16:10:42.546875000,-60.0,3.0,26.0,81.28171875,7.49,22.708047875,35.37
2021-07-08 16:10:42.554687500,-60.0,3.0,26.0,81.281171875,8.93,22.7084881875,35.37
2021-07-08 16:10:42.562500000,-60.0,3.0,26.0,81.280625,10.37,22.7089285,35.37
2021-07-08 16:10:42.570312500,-60.0,3.0,26.0,81.280078125,11.48,22.7093688125,35.37
2021-07-08 16:10:42.578125000,-60.0,3.0,26.0,81.27953124999999,12.59,22.709809125,35.37
2021-07-08 16:10:42.585937500,-60.0,3.0,26.0,81.278984375,13.425,22.7102494375,35.37
2021-07-08 16:10:42.593750000,-60.0,3.0,26.0,81.2784375,14.26,22.71068975,35.37
2021-07-08 16:10:42.601562500,-60.0,3.0,26.0,81.277890625,14.879999999999999,22.7111300625,35.37
2021-07-08 16:10:42.609375000,-60.0,3.0,26.0,81.27734375,15.5,22.711570375,35.37
2021-07-08 16:10:42.617187500,-60.0,3.0,26.0,81.276796875,15.89,22.7120106875,35.37
2021-07-08 16:10:42.625000000,-60.0,3.0,26.0,81.27625,16.28,22.712451,35.37
2021-07-08 16:10:42.632812500,-60.0,3.0,26.0,81.27570312499999,16.425,22.7128913125,35.37
2021-07-08 16:10:42.640625000,-60.0,3.0,26.0,81.27515625,16.57,22.713331625,35.37
2021-07-08 16:10:42.648437500,-60.0,3.0,26.0,81.274609375,16.455,22.7137719375,35.37
2021-07-08 16:10:42.656250000,-60.0,3.0,26.0,81.2740625,16.34,22.71421225,35.37
2021-07-08 16:10:42.664062500,-60.0,3.0,26.0,81.273515625,16.009999999999998,22.7146525625,35.37
2021-07-08 16:10:42.671875000,-60.0,3.0,26.0,81.27296875,15.68,22.715092875,35.37
2021-07-08 16:10:42.679687500,-60.0,3.0,26.0,81.27242187499999,15.235,22.7155331875,35.37
2021-07-08 16:10:42.687500000,-60.0,3.0,26.0,81.271875,14.79,22.7159735,35.37
2021-07-08 16:10:42.695312500,-60.0,3.0,26.0,81.271328125,14.335,22.7164138125,35.37
2021-07-08 16:10:42.703125000,-60.0,3.0,26.0,81.27078125,13.88,22.716854125,35.37
2021-07-08 16:10:42.710937500,-60.0,3.0,26.0,81.270234375,13.510000000000002,22.717294437499998,35.37
2021-07-08 16:10:42.718750000,-60.0,3.0,26.0,81.2696875,13.14,22.717734749999998,35.37
2021-07-08 16:10:42.726562500,-60.0,3.0,26.0,81.26914062499999,12.89,22.7181750625,35.37
2021-07-08 16:10:42.734375000,-60.0,3.0,26.0,81.26859375,12.64,22.718615375,35.37
2021-07-08 16:10:42.742187500,-60.0,3.0,26.0,81.268046875,12.5,22.7190556875,35.37
2021-07-08 16:10:42.750000000,-60.0,3.0,26.0,81.2675,12.36,22.719496,35.37
2021-07-08 16:10:42.757812500,-60.0,3.0,25.75,81.266953125,12.274999999999999,22.7193759375,35.37
2021-07-08 16:10:42.765625000,-60.0,3.0,25.5,81.26640625,12.19,22.719255874999998,35.37
2021-07-08 16:10:42.773437500,-60.0,3.0,25.25,81.265859375,12.105,22.7191358125,35.37
2021-07-08 16:10:42.781250000,-60.0,3.0,25.0,81.2653125,12.02,22.71901575,35.37
2021-07-08 16:10:42.789062500,-60.0,3.0,25.25,81.264765625,11.879999999999999,22.718895687499998,35.37
2021-07-08 16:10:42.796875000,-60.0,3.0,25.5,81.26421875,11.74,22.718775625,35.37
2021-07-08 16:10:42.804687500,-60.0,3.0,25.75,81.263671875,11.51,22.7186555625,35.37
2021-07-08 16:10:42.812500000,-60.0,3.0,26.0,81.263125,11.28,22.7185355,35.37
2021-07-08 16:10:42.820312500,-60.0,3.0,26.0,81.262578125,10.94,22.7184154375,35.37
2021-07-08 16:10:42.828125000,-60.0,3.0,26.0,81.26203124999999,10.6,22.718295375,35.37
2021-07-08 16:10:42.835937500,-60.0,3.0,26.0,81.261484375,10.16,22.7181753125,35.37
2021-07-08 16:10:42.843750000,-60.0,3.0,26.0,81.2609375,9.72,22.71805525,35.37
2021-07-08 16:10:42.851562500,-60.0,3.0,26.0,81.260390625,9.195,22.7179351875,35.37
2021-07-08 16:10:42.859375000,-60.0,3.0,26.0,81.25984375,8.67,22.717815125,35.37
2021-07-08 16:10:42.867187500,-60.0,3.0,26.0,81.259296875,8.094999999999999,22.7176950625,35.37
2021-07-08 16:10:42.875000000,-60.0,3.0,26.0,81.25874999999999,7.52,22.717575,35.37
2021-07-08 16:10:42.882812500,-60.0,3.0,26.0,81.258203125,6.93,22.7174549375,35.37
2021-07-08 16:10:42.890625000,-60.0,3.0,26.0,81.25765625,6.34,22.717334875,35.37
2021-07-08 16:10:42.898437500,-60.0,3.0,26.0,81.257109375,5.74,22.7172148125,35.37
2021-07-08 16:10:42.906250000,-60.0,3.0,26.0,81.2565625,5.14,22.71709475,35.37
2021-07-08 16:10:42.914062500,-60.0,3.0,26.0,81.256015625,4.51,22.7169746875,35.37
2021-07-08 16:10:42.921875000,-60.0,3.0,26.0,81.25546875,3.88,22.716854625,35.37
2021-07-08 16:10:42.929687500,-60.0,3.0,26.0,81.254921875,3.19,22.7167345625,35.37
2021-07-08 16:10:42.937500000,-60.0,3.0,26.0,81.254375,2.5,22.7166145,35.37
2021-07-08 16:10:42.945312500,-60.0,3.0,26.0,81.253828125,1.72,22.7164944375,35.37
2021-07-08 16:10:42.953125000,-60.0,3.0,26.0,81.25328125,0.94,22.716374375,35.37
2021-07-08 16:10:42.960937500,-60.0,3.0,26.0,81.252734375,0.07999999999999996,22.716254312500002,35.37
2021-07-08 16:10:42.968750000,-60.0,3.0,26.0,81.2521875,-0.78,22.71613425,35.37
2021-07-08 16:10:42.976562500,-60.0,3.0,26.0,81.251640625,-1.6800000000000002,22.7160141875,35.37
2021-07-08 16:10:42.984375000,-60.0,3.0,26.0,81.25109375,-2.58,22.715894125000002,35.37
2021-07-08 16:10:42.992187500,-60.0,3.0,26.0,81.250546875,-3.46,22.7157740625,35.37
2021-07-08 16:10:43.000000000,-60.0,3.0,26.0,81.25,-4.34,22.715654,35.37
2021-07-08 16:10:43.007812500,-60.0,3.0,26.0,81.249609375,-5.140000000000001,22.715814125,35.37
2021-07-08 16:10:43.015625000,-60.0,3.0,26.0,81.24921875,-5.94,22.715974250000002,35.37
2021-07-08 16:10:43.023437500,-60.0,3.0,26.0,81.248828125,-6.65,22.716134375,35.37
2021-07-08 16:10:43.031250000,-60.0,3.0,26.0,81.2484375,-7.36,22.7162945,35.37
2021-07-08 16:10:43.039062500,-60.0,3.0,26.0,81.248046875,-7.995000000000001,22.716454625,35.37
2021-07-08 16:10:43.046875000,-60.0,3.0,26.0,81.24765625,-8.63,22.71661475,35.37
2021-07-08 16:10:43.054687500,-60.0,3.0,26.0,81.247265625,-9.255,22.716774875,35.37
2021-07-08 16:10:43.062500000,-60.0,3.0,26.0,81.246875,-9.88,22.716935,35.37
2021-07-08 16:10:43.070312500,-60.0,3.0,26.0,81.246484375,-10.585,22.717095125,35.37
2021-07-08 16:10:43.078125000,-60.0,3.0,26.0,81.24609375,-11.29,22.71725525,35.37
2021-07-08 16:10:43.085937500,-60.0,3.0,26.0,81.245703125,-12.135,22.717415375,35.37
2021-07-08 16:10:43.093750000,-60.0,3.0,26.0,81.2453125,-12.98,22.7175755,35.37
2021-07-08 16:10:43.101562500,-60.0,3.0,26.0,81.244921875,-13.975000000000001,22.717735625,35.37
2021-07-08 16:10:43.109375000,-60.0,3.0,26.0,81.24453125,-14.97,22.71789575,35.37
2021-07-08 16:10:43.117187500,-60.0,3.0,26.0,81.244140625,-16.035,22.718055875,35.37
2021-07-08 16:10:43.125000000,-60.0,3.0,26.0,81.24375,-17.1,22.718215999999998,35.37
2021-07-08 16:10:43.132812500,-60.0,3.0,26.0,81.243359375,-18.07,22.718376125,35.37
2021-07-08 16:10:43.140625000,-60.0,3.0,26.0,81.24296875,-19.04,22.71853625,35.37
2021-07-08 16:10:43.148437500,-60.0,3.0,26.0,81.242578125,-19.705,22.718696375,35.37
2021-07-08 16:10:43.156250000,-60.0,3.0,26.0,81.2421875,-20.37,22.7188565,35.37
2021-07-08 16:10:43.164062500,-60.0,3.0,26.0,81.241796875,-20.54,22.719016625,35.37
2021-07-08 16:10:43.171875000,-60.0,3.0,26.0,81.24140625,-20.71,22.71917675,35.37
2021-07-08 16:10:43.179687500,-60.0,3.0,26.0,81.241015625,-20.285,22.719336875,35.37
2021-07-08 16:10:43.187500000,-60.0,3.0,26.0,81.240625,-19.86,22.719497,35.37
2021-07-08 16:10:43.195312500,-60.0,3.0,26.0,81.240234375,-18.845,22.719657125,35.37
2021-07-08 16:10:43.203125000,-60.0,3.0,26.0,81.23984375,-17.83,22.71981725,35.37
2021-07-08 16:10:43.210937500,-60.0,3.0,26.0,81.239453125,-16.335,22.719977375,35.37
2021-07-08 16:10:43.218750000,-60.0,3.0,26.0,81.2390625,-14.84,22.7201375,35.37
2021-07-08 16:10:43.226562500,-60.0,3.0,26.0,81.238671875,-13.015,22.720297625,35.37
2021-07-08 16:10:43.234375000,-60.0,3.0,26.0,81.23828125,-11.19,22.720457749999998,35.37
2021-07-08 16:10:43.242187500,-60.0,3.0,26.0,81.237890625,-9.175,22.720617875,35.37
2021-07-08 16:10:43.250000000,-60.0,3.0,26.0,81.2375,-7.16,22.720778,35.37
2021-07-08 16:10:43.257812500,-60.0,3.0,26.0,81.237109375,-5.07,22.72049778125,35.37
2021-07-08 16:10:43.265625000,-60.0,3.0,26.0,81.23671875,-2.98,22.7202175625,35.37
2021-07-08 16:10:43.273437500,-60.0,3.0,26.0,81.236328125,-0.9049999999999998,22.71993734375,35.37
2021-07-08 16:10:43.281250000,-60.0,3.0,26.0,81.2359375,1.17,22.719657124999998,35.37
2021-07-08 16:10:43.289062500,-60.0,3.25,26.0,81.235546875,3.11,22.719376906249998,35.37
2021-07-08 16:10:43.296875000,-60.0,3.5,26.0,81.23515625,5.05,22.7190966875,35.37
2021-07-08 16:10:43.304687500,-60.0,3.75,26.0,81.234765625,6.73,22.71881646875,35.37
2021-07-08 16:10:43.312500000,-60.0,4.0,26.0,81.234375,8.41,22.71853625,35.37
2021-07-08 16:10:43.320312500,-60.0,3.75,26.0,81.233984375,9.725,22.71825603125,35.37
2021-07-08 16:10:43.328125000,-60.0,3.5,26.0,81.23359375,11.04,22.7179758125,35.37
2021-07-08 16:10:43.335937500,-60.0,3.25,26.0,81.233203125,11.915,22.71769559375,35.37
2021-07-08 16:10:43.343750000,-60.0,3.0,26.0,81.2328125,12.79,22.717415375,35.37
2021-07-08 16:10:43.351562500,-60.0,3.0,26.0,81.232421875,13.254999999999999,22.71713515625,35.37
2021-07-08 16:10:43.359375000,-60.0,3.0,26.0,81.23203125,13.72,22.7168549375,35.37
2021-07-08 16:10:43.367187500,-60.0,3.0,26.0,81.231640625,13.84,22.71657471875,35.37
2021-07-08 16:10:43.375000000,-60.0,3.0,26.0,81.23125,13.96,22.7162945,35.37
2021-07-08 16:10:43.382812500,-60.0,3.0,26.0,81.230859375,13.86,22.71601428125,35.37
2021-07-08 16:10:43.390625000,-60.0,3.0,26.0,81.23046875,13.76,22.7157340625,35.37
2021-07-08 16:10:43.398437500,-60.0,3.0,26.0,81.230078125,13.52,22.71545384375,35.37
2021-07-08 16:10:43.406250000,-60.0,3.0,26.0,81.2296875,13.28,22.715173625,35.37
2021-07-08 16:10:43.414062500,-60.0,3.25,26.0,81.229296875,12.965,22.71489340625,35.37
2021-07-08 16:10:43.421875000,-60.0,3.5,26.0,81.22890625,12.65,22.7146131875,35.37
2021-07-08 16:10:43.429687500,-60.0,3.75,26.0,81.228515625,12.29,22.71433296875,35.37
2021-07-08 16:10:43.437500000,-60.0,4.0,26.0,81.228125,11.93,22.71405275,35.37
2021-07-08 16:10:43.445312500,-60.0,4.0,26.0,81.227734375,11.545,22.71377253125,35.37
2021-07-08 16:10:43.453125000,-60.0,4.0,26.0,81.22734375,11.16,22.7134923125,35.37
2021-07-08 16:10:43.460937500,-60.0,4.0,26.0,81.226953125,10.785,22.713212093750002,35.37
2021-07-08 16:10:43.468750000,-60.0,4.0,26.0,81.2265625,10.41,22.712931875000002,35.37
2021-07-08 16:10:43.476562500,-60.0,3.75,26.0,81.226171875,10.065000000000001,22.71265165625,35.37
2021-07-08 16:10:43.484375000,-60.0,3.5,26.0,81.22578125,9.72,22.7123714375,35.37
2021-07-08 16:10:43.492187500,-60.0,3.25,26.0,81.225390625,9.42,22.71209121875,35.37
2021-07-08 16:10:43.500000000,-60.0,3.0,26.0,81.225,9.12,22.711811,35.37
2021-07-08 16:10:43.507812500,-60.0,3.0,26.0,81.224609375,8.864999999999998,22.71201115625,35.37
2021-07-08 16:10:43.515625000,-60.0,3.0,26.0,81.22421875,8.61,22.712211312500003,35.37
2021-07-08 16:10:43.523437500,-60.0,3.0,26.0,81.223828125,8.395,22.712411468750002,35.37
2021-07-08 16:10:43.531250000,-60.0,3.0,26.0,81.2234375,8.18,22.712611625,35.37
2021-07-08 16:10:43.539062500,-60.0,3.25,26.0,81.22304687500001,7.99,22.71281178125,35.37
2021-07-08 16:10:43.546875000,-60.0,3.5,26.0,81.22265625,7.8,22.7130119375,35.37
2021-07-08 16:10:43.554687500,-60.0,3.75,26.0,81.222265625,7.635,22.713212093750002,35.37
2021-07-08 16:10:43.562500000,-60.0,4.0,26.0,81.221875,7.47,22.71341225,35.37
2021-07-08 16:10:43.570312500,-60.0,4.0,26.0,81.221484375,7.324999999999999,22.71361240625,35.37
2021-07-08 16:10:43.578125000,-60.0,4.0,26.0,81.22109375000001,7.18,22.713812562500003,35.37
2021-07-08 16:10:43.585937500,-60.0,4.0,26.0,81.220703125,7.035,22.714012718750002,35.37
2021-07-08 16:10:43.593750000,-60.0,4.0,26.0,81.2203125,6.89,22.714212875,35.37
2021-07-08 16:10:43.601562500,-60.0,4.0,26.0,81.219921875,6.705,22.71441303125,35.37
2021-07-08 16:10:43.609375000,-60.0,4.0,26.0,81.21953125,6.52,22.7146131875,35.37
2021-07-08 16:10:43.617187500,-60.0,4.0,26.0,81.21914062500001,6.234999999999999,22.714813343750002,35.37
2021-07-08 16:10:43.625000000,-60.0,4.0,26.0,81.21875,5.95,22.7150135,35.37
2021-07-08 16:10:43.632812500,-60.0,4.0,26.0,81.218359375,5.53,22.71521365625,35.37
2021-07-08 16:10:43.640625000,-60.0,4.0,26.0,81.21796875,5.11,22.715413812500003,35.37
2021-07-08 16:10:43.648437500,-60.0,4.0,26.0,81.217578125,4.51,22.715613968750002,35.37
2021-07-08 16:10:43.656250000,-60.0,4.0,26.0,81.21718750000001,3.91,22.715814125,35.37
2021-07-08 16:10:43.664062500,-60.0,4.0,26.0,81.216796875,3.13,22.71601428125,35.37
2021-07-08 16:10:43.671875000,-60.0,4.0,26.0,81.21640625,2.35,22.7162144375,35.37
2021-07-08 16:10:43.679687500,-60.0,4.0,26.0,81.216015625,1.405,22.716414593750002,35.37
2021-07-08 16:10:43.687500000,-60.0,4.0,26.0,81.215625,0.46,22.71661475,35.37
2021-07-08 16:10:43.695312500,-60.0,4.0,26.0,81.21523437500001,-0.6000000000000001,22.71681490625,35.37
2021-07-08 16:10:43.703125000,-60.0,4.0,26.0,81.21484375,-1.66,22.717015062500003,35.37
2021-07-08 16:10:43.710937500,-60.0,4.0,26.0,81.214453125,-2.76,22.717215218750002,35.37
2021-07-08 16:10:43.718750000,-60.0,4.0,26.0,81.2140625,-3.86,22.717415375,35.37
2021-07-08 16:10:43.726562500,-60.0,4.0,26.0,81.213671875,-4.89,22.71761553125,35.37
2021-07-08 16:10:43.734375000,-60.0,4.0,26.0,81.21328125000001,-5.92,22.7178156875,35.37
2021-07-08 16:10:43.742187500,-60.0,4.0,26.0,81.212890625,-6.775,22.718015843750003,35.37
2021-07-08 16:10:43.750000000,-60.0,4.0,26.0,81.2125,-7.63,22.718216,35.37
2021-07-08 16:10:43.757812500,-60.0,4.0,26.0,81.212109375,-8.245,22.719537031250002,35.37
2021-07-08 16:10:43.765625000,-60.0,4.0,26.0,81.21171875,-8.86,22.720858062500003,35.37
2021-07-08 16:10:43.773437500,-60.0,4.0,26.0,81.21132812500001,-9.25,22.72217909375,35.37
2021-07-08 16:10:43.781250000,-60.0,4.0,26.0,81.2109375,-9.64,22.723500125,35.37
2021-07-08 16:10:43.789062500,-60.0,4.0,26.0,81.210546875,-9.9,22.72482115625,35.37
2021-07-08 16:10:43.796875000,-60.0,4.0,26.0,81.21015625,-10.16,22.726142187500002,35.37
2021-07-08 16:10:43.804687500,-60.0,4.0,26.0,81.209765625,-10.455,22.72746321875,35.37
2021-07-08 16:10:43.812500000,-60.0,4.0,26.0,81.20937500000001,-10.75,22.72878425,35.37
2021-07-08 16:10:43.820312500,-60.0,4.0,26.0,81.208984375,-11.24,22.73010528125,35.37
2021-07-08 16:10:43.828125000,-60.0,4.0,26.0,81.20859375,-11.73,22.731426312500002,35.37
2021-07-08 16:10:43.835937500,-60.0,4.0,26.0,81.208203125,-12.485,22.732747343750002,35.37
2021-07-08 16:10:43.843750000,-60.0,4.0,26.0,81.2078125,-13.24,22.734068375,35.37
2021-07-08 16:10:43.851562500,-60.0,4.0,26.0,81.20742187500001,-14.23,22.73538940625,35.37
2021-07-08 16:10:43.859375000,-60.0,4.0,26.0,81.20703125,-15.22,22.7367104375,35.37
2021-07-08 16:10:43.867187500,-60.0,4.0,26.0,81.206640625,-16.315,22.738031468750002,35.37
2021-07-08 16:10:43.875000000,-60.0,4.0,26.0,81.20625,-17.41,22.739352500000003,35.37
2021-07-08 16:10:43.882812500,-60.0,4.0,26.0,81.205859375,-18.415,22.74067353125,35.37
2021-07-08 16:10:43.890625000,-60.0,4.0,26.0,81.20546875000001,-19.42,22.7419945625,35.37
2021-07-08 16:10:43.898437500,-60.0,4.0,26.0,81.205078125,-20.130000000000003,22.74331559375,35.37
2021-07-08 16:10:43.906250000,-60.0,4.0,26.0,81.2046875,-20.84,22.744636625000002,35.37
2021-07-08 16:10:43.914062500,-60.0,4.0,26.0,81.204296875,-21.07,22.74595765625,35.37
2021-07-08 16:10:43.921875000,-60.0,4.0,26.0,81.20390625,-21.3,22.7472786875,35.37
2021-07-08 16:10:43.929687500,-60.0,4.0,26.0,81.20351562500001,-20.939999999999998,22.74859971875,35.37
2021-07-08 16:10:43.937500000,-60.0,4.0,26.0,81.203125,-20.58,22.74992075,35.37
2021-07-08 16:10:43.945312500,-60.0,4.0,26.0,81.202734375,-19.595,22.751241781250002,35.37
2021-07-08 16:10:43.953125000,-60.0,4.0,26.0,81.20234375,-18.61,22.7525628125,35.37
2021-07-08 16:10:43.960937500,-60.0,4.0,26.0,81.201953125,-17.07,22.75388384375,35.37
2021-07-08 16:10:43.968750000,-60.0,4.0,26.0,81.20156250000001,-15.53,22.755204875,35.37
2021-07-08 16:10:43.976562500,-59.75,4.0,26.0,81.201171875,-13.585,22.75652590625,35.37
2021-07-08 16:10:43.984375000,-59.5,4.0,26.0,81.20078125,-11.64,22.7578469375,35.37
2021-07-08 16:10:43.992187500,-59.25,4.0,26.0,81.200390625,-9.51,22.75916796875,35.37
2021-07-08 16:10:44.000000000,-59.0,4.0,26.0,81.2,-7.38,22.760489,35.37
2021-07-08 16:10:44.007812500,-59.25,4.0,26.0,81.19960937500001,-5.305,22.75852746875,35.37
2021-07-08 16:10:44.015625000,-59.5,4.0,26.0,81.19921875,-3.23,22.7565659375,35.37
2021-07-08 16:10:44.023437500,-59.75,4.0,26.0,81.198828125,-1.4,22.75460440625,35.37
2021-07-08 16:10:44.031250000,-60.0,4.0,26.0,81.1984375,0.43,22.752642875,35.37
2021-07-08 16:10:44.039062500,-60.0,4.0,26.0,81.198046875,1.92,22.75068134375,35.37
2021-07-08 16:10:44.046875000,-60.0,4.0,26.0,81.19765625000001,3.41,22.7487198125,35.37
2021-07-08 16:10:44.054687500,-60.0,4.0,26.0,81.197265625,4.535,22.74675828125,35.37
2021-07-08 16:10:44.062500000,-60.0,4.0,26.0,81.196875,5.66,22.74479675,35.37
2021-07-08 16:10:44.070312500,-59.75,3.75,26.0,81.196484375,6.45,22.74283521875,35.37
2021-07-08 16:10:44.078125000,-59.5,3.5,26.0,81.19609375,7.24,22.7408736875,35.37
2021-07-08 16:10:44.085937500,-59.25,3.25,26.0,81.19570312500001,7.73,22.73891215625,35.37
2021-07-08 16:10:44.093750000,-59.0,3.0,26.0,81.1953125,8.22,22.736950625,35.37
2021-07-08 16:10:44.101562500,-59.25,3.25,26.0,81.194921875,8.435,22.73498909375,35.37
2021-07-08 16:10:44.109375000,-59.5,3.5,26.0,81.19453125,8.65,22.7330275625,35.37
2021-07-08 16:10:44.117187500,-59.75,3.75,26.0,81.194140625,8.605,22.73106603125,35.37
2021-07-08 16:10:44.125000000,-60.0,4.0,26.0,81.19375000000001,8.56,22.7291045,35.37
2021-07-08 16:10:44.132812500,-60.0,4.0,26.0,81.193359375,8.285,22.72714296875,35.37
2021-07-08 16:10:44.140625000,-60.0,4.0,26.0,81.19296875,8.01,22.7251814375,35.37
2021-07-08 16:10:44.148437500,-60.0,4.0,26.0,81.192578125,7.5649999999999995,22.72321990625,35.37
2021-07-08 16:10:44.156250000,-60.0,4.0,26.0,81.1921875,7.12,22.721258375,35.37
2021-07-08 16:10:44.164062500,-60.0,4.0,26.0,81.19179687500001,6.605,22.71929684375,35.37
2021-07-08 16:10:44.171875000,-60.0,4.0,26.0,81.19140625,6.09,22.7173353125,35.37
2021-07-08 16:10:44.179687500,-60.0,4.0,26.0,81.191015625,5.59,22.71537378125,35.37
2021-07-08 16:10:44.187500000,-60.0,4.0,26.0,81.190625,5.09,22.71341225,35.37
2021-07-08 16:10:44.195312500,-60.0,4.0,26.0,81.190234375,4.6850000000000005,22.71145071875,35.37
2021-07-08 16:10:44.203125000,-60.0,4.0,26.0,81.18984375000001,4.28,22.7094891875,35.37
2021-07-08 16:10:44.210937500,-60.0,4.0,26.0,81.189453125,3.9800000000000004,22.70752765625,35.37
2021-07-08 16:10:44.218750000,-60.0,4.0,26.0,81.1890625,3.68,22.705566125,35.37
2021-07-08 16:10:44.226562500,-60.0,4.0,26.0,81.188671875,3.465,22.70360459375,35.37
2021-07-08 16:10:44.234375000,-60.0,4.0,26.0,81.18828125,3.25,22.7016430625,35.37
2021-07-08 16:10:44.242187500,-60.0,4.0,26.0,81.18789062500001,3.0700000000000003,22.69968153125,35.37
2021-07-08 16:10:44.250000000,-60.0,4.0,26.0,81.1875,2.89,22.69772,35.37
2021-07-08 16:10:44.257812500,-60.0,4.0,26.0,81.187109375,2.725,22.69784009375,35.37
2021-07-08 16:10:44.265625000,-60.0,4.0,26.0,81.18671875,2.56,22.6979601875,35.37
2021-07-08 16:10:44.273437500,-60.0,4.0,26.0,81.186328125,2.4000000000000004,22.69808028125,35.37
2021-07-08 16:10:44.281250000,-60.0,4.0,26.0,81.18593750000001,2.24,22.698200375,35.37
2021-07-08 16:10:44.289062500,-60.0,3.75,26.25,81.185546875,2.09,22.69832046875,35.37
2021-07-08 16:10:44.296875000,-60.0,3.5,26.5,81.18515625,1.94,22.6984405625,35.37
2021-07-08 16:10:44.304687500,-60.0,3.25,26.75,81.184765625,1.8199999999999998,22.69856065625,35.37
