TimeStamp,empatica.acc.x,empatica.acc.y,empatica.acc.z,empatica.hr,empatica.bvp,empatica.eda,empatica.temp
2021-06-28 15:23:10.343750000,-56.0,-32.0,-5.0,79.05625,1.61,3.3057661250000003,32.81
2021-06-28 15:23:10.351562500,-56.0,-32.0,-5.0,79.0534375,3.1449999999999996,3.30560596875,32.81
2021-06-28 15:23:10.359375000,-56.0,-32.0,-5.0,79.050625,4.68,3.3054458125000004,32.81
2021-06-28 15:23:10.367187500,-56.0,-32.0,-5.0,79.0478125,5.925,3.30528565625,32.81
2021-06-28 15:23:10.375000000,-56.0,-32.0,-5.0,79.045,7.17,3.3051255,32.81
2021-06-28 15:23:10.382812500,-56.0,-32.0,-5.0,79.0421875,8.09,3.30496534375,32.81
2021-06-28 15:23:10.390625000,-56.0,-32.0,-5.0,79.039375,9.01,3.3048051875,32.81
2021-06-28 15:23:10.398437500,-56.0,-32.0,-5.0,79.0365625,9.655000000000001,3.30464503125,32.81
2021-06-28 15:23:10.406250000,-56.0,-32.0,-5.0,79.03375,10.3,3.304484875,32.81
2021-06-28 15:23:10.414062500,-56.0,-32.0,-5.0,79.03093750000001,10.745000000000001,3.3043247187500002,32.81
2021-06-28 15:23:10.421875000,-56.0,-32.0,-5.0,79.028125,11.19,3.3041645625,32.81
2021-06-28 15:23:10.429687500,-56.0,-32.0,-5.0,79.0253125,11.54,3.3040044062500002,32.81
2021-06-28 15:23:10.437500000,-56.0,-32.0,-5.0,79.02250000000001,11.89,3.30384425,32.81
2021-06-28 15:23:10.445312500,-56.0,-32.0,-5.0,79.0196875,12.225000000000001,3.3036840937500003,32.81
2021-06-28 15:23:10.453125000,-56.0,-32.0,-5.0,79.016875,12.56,3.3035239375,32.81
2021-06-28 15:23:10.460937500,-56.0,-32.0,-5.0,79.0140625,12.92,3.3033637812500003,32.81
2021-06-28 15:23:10.468750000,-56.0,-32.0,-5.0,79.01125,13.28,3.303203625,32.81
2021-06-28 15:23:10.476562500,-56.0,-32.0,-5.0,79.0084375,13.655,3.3030434687500003,32.81
2021-06-28 15:23:10.484375000,-56.0,-32.0,-5.0,79.005625,14.03,3.3028833125,32.81
2021-06-28 15:23:10.492187500,-56.0,-32.0,-5.0,79.0028125,14.385,3.3027231562500003,32.81
2021-06-28 15:23:10.500000000,-56.0,-32.0,-5.0,79.0,14.74,3.302563,32.81
2021-06-28 15:23:10.507812500,-56.0,-32.0,-5.0,78.9971875,15.04,3.3022827500000003,32.81
2021-06-28 15:23:10.515625000,-56.0,-32.0,-5.0,78.994375,15.34,3.3020025,32.81
2021-06-28 15:23:10.523437500,-56.0,-32.0,-5.0,78.9915625,15.54,3.30172225,32.81
2021-06-28 15:23:10.531250000,-56.0,-32.0,-5.0,78.98875,15.74,3.301442,32.81
2021-06-28 15:23:10.539062500,-56.0,-32.0,-5.0,78.9859375,15.83,3.30116175,32.81
2021-06-28 15:23:10.546875000,-56.0,-32.0,-5.0,78.983125,15.92,3.3008815,32.81
2021-06-28 15:23:10.554687500,-56.0,-32.0,-5.0,78.9803125,15.879999999999999,3.30060125,32.81
2021-06-28 15:23:10.562500000,-56.0,-32.0,-5.0,78.97749999999999,15.84,3.3003210000000003,32.81
2021-06-28 15:23:10.570312500,-56.0,-32.0,-5.0,78.9746875,15.65,3.30004075,32.81
2021-06-28 15:23:10.578125000,-56.0,-32.0,-5.0,78.971875,15.46,3.2997605,32.81
2021-06-28 15:23:10.585937500,-56.0,-32.0,-5.0,78.96906249999999,15.115,3.2994802500000002,32.81
2021-06-28 15:23:10.593750000,-56.0,-32.0,-5.0,78.96625,14.77,3.2992,32.81
2021-06-28 15:23:10.601562500,-56.0,-32.0,-5.0,78.9634375,14.3,3.29891975,32.81
2021-06-28 15:23:10.609375000,-56.0,-32.0,-5.0,78.960625,13.83,3.2986395,32.81
2021-06-28 15:23:10.617187500,-56.0,-32.0,-5.0,78.9578125,13.285,3.29835925,32.81
2021-06-28 15:23:10.625000000,-56.0,-32.0,-5.0,78.955,12.74,3.298079,32.81
2021-06-28 15:23:10.632812500,-56.0,-32.0,-5.0,78.9521875,12.190000000000001,3.29779875,32.81
2021-06-28 15:23:10.640625000,-56.0,-32.0,-5.0,78.949375,11.64,3.2975185,32.81
2021-06-28 15:23:10.648437500,-56.0,-32.0,-5.0,78.9465625,11.14,3.29723825,32.81
2021-06-28 15:23:10.656250000,-56.0,-32.0,-5.0,78.94375,10.64,3.296958,32.81
2021-06-28 15:23:10.664062500,-56.0,-32.0,-5.0,78.9409375,10.18,3.2966777499999997,32.81
2021-06-28 15:23:10.671875000,-56.0,-32.0,-5.0,78.938125,9.72,3.2963975,32.81
2021-06-28 15:23:10.679687500,-56.0,-32.0,-5.0,78.9353125,9.245000000000001,3.29611725,32.81
2021-06-28 15:23:10.687500000,-56.0,-32.0,-5.0,78.9325,8.77,3.2958369999999997,32.81
2021-06-28 15:23:10.695312500,-56.0,-32.0,-5.0,78.9296875,8.18,3.29555675,32.81
2021-06-28 15:23:10.703125000,-56.0,-32.0,-5.0,78.926875,7.59,3.2952765,32.81
2021-06-28 15:23:10.710937500,-56.0,-32.0,-5.0,78.92406249999999,6.805,3.29499625,32.81
2021-06-28 15:23:10.718750000,-56.0,-32.0,-5.0,78.92125,6.02,3.2947159999999998,32.81
2021-06-28 15:23:10.726562500,-56.0,-32.0,-5.0,78.9184375,5.045,3.29443575,32.81
2021-06-28 15:23:10.734375000,-56.0,-32.0,-5.0,78.91562499999999,4.07,3.2941555,32.81
2021-06-28 15:23:10.742187500,-56.0,-32.0,-5.0,78.9128125,2.975,3.2938752499999997,32.81
2021-06-28 15:23:10.750000000,-56.0,-32.0,-5.0,78.91,1.88,3.293595,32.81
2021-06-28 15:23:10.757812500,-56.0,-32.0,-5.0,78.90718749999999,0.7849999999999999,3.2936350625,32.81
2021-06-28 15:23:10.765625000,-56.0,-32.0,-5.0,78.904375,-0.31,3.293675125,32.81
2021-06-28 15:23:10.773437500,-56.0,-32.0,-5.0,78.9015625,-1.315,3.2937151874999997,32.81
2021-06-28 15:23:10.781250000,-56.0,-32.0,-5.0,78.89874999999999,-2.32,3.29375525,32.81
2021-06-28 15:23:10.789062500,-56.0,-32.0,-5.0,78.8959375,-3.2249999999999996,3.2937953125,32.81
2021-06-28 15:23:10.796875000,-56.0,-32.0,-5.0,78.893125,-4.13,3.293835375,32.81
2021-06-28 15:23:10.804687500,-56.0,-32.0,-5.0,78.8903125,-5.01,3.2938754374999997,32.81
2021-06-28 15:23:10.812500000,-56.0,-32.0,-5.0,78.88749999999999,-5.89,3.2939154999999998,32.81
2021-06-28 15:23:10.820312500,-56.0,-32.0,-5.0,78.8846875,-6.84,3.2939555625,32.81
2021-06-28 15:23:10.828125000,-56.0,-32.0,-5.0,78.881875,-7.79,3.293995625,32.81
2021-06-28 15:23:10.835937500,-56.0,-32.0,-5.0,78.87906249999999,-8.905,3.2940356875,32.81
2021-06-28 15:23:10.843750000,-56.0,-32.0,-5.0,78.87625,-10.02,3.2940757499999997,32.81
2021-06-28 15:23:10.851562500,-56.0,-32.0,-5.0,78.8734375,-11.325,3.2941158125,32.81
2021-06-28 15:23:10.859375000,-56.0,-32.0,-5.0,78.87062499999999,-12.63,3.294155875,32.81
2021-06-28 15:23:10.867187500,-56.0,-32.0,-5.0,78.8678125,-14.11,3.2941959375,32.81
2021-06-28 15:23:10.875000000,-56.0,-32.0,-5.0,78.865,-15.59,3.2942359999999997,32.81
2021-06-28 15:23:10.882812500,-56.0,-32.0,-5.0,78.86218749999999,-17.165,3.2942760625,32.81
2021-06-28 15:23:10.890625000,-56.0,-32.0,-5.0,78.859375,-18.74,3.294316125,32.81
2021-06-28 15:23:10.898437500,-56.0,-32.0,-5.0,78.8565625,-20.314999999999998,3.2943561875,32.81
2021-06-28 15:23:10.906250000,-56.0,-32.0,-5.0,78.85374999999999,-21.89,3.29439625,32.81
2021-06-28 15:23:10.914062500,-56.0,-32.0,-5.0,78.8509375,-23.34,3.2944363125,32.81
2021-06-28 15:23:10.921875000,-56.0,-32.0,-5.0,78.848125,-24.79,3.294476375,32.81
2021-06-28 15:23:10.929687500,-56.0,-32.0,-5.0,78.84531249999999,-25.95,3.2945164375,32.81
2021-06-28 15:23:10.937500000,-56.0,-32.0,-5.0,78.8425,-27.11,3.2945565,32.81
2021-06-28 15:23:10.945312500,-56.0,-32.0,-5.0,78.8396875,-27.814999999999998,3.2945965625,32.81
2021-06-28 15:23:10.953125000,-56.0,-32.0,-5.0,78.83687499999999,-28.52,3.294636625,32.81
2021-06-28 15:23:10.960937500,-56.0,-32.0,-5.0,78.83406249999999,-28.605,3.2946766875,32.81
2021-06-28 15:23:10.968750000,-56.0,-32.0,-5.0,78.83125,-28.69,3.29471675,32.81
2021-06-28 15:23:10.976562500,-56.0,-32.0,-5.0,78.82843749999999,-28.075000000000003,3.2947568125,32.81
2021-06-28 15:23:10.984375000,-56.0,-32.0,-5.0,78.82562499999999,-27.46,3.294796875,32.81
2021-06-28 15:23:10.992187500,-56.0,-32.0,-5.0,78.8228125,-26.165,3.2948369375,32.81
2021-06-28 15:23:11.000000000,-56.0,-32.0,-5.0,78.82,-24.87,3.294877,32.81
2021-06-28 15:23:11.007812500,-56.0,-32.0,-5.0,78.81710937499999,-23.05,3.29459675,32.8109375
2021-06-28 15:23:11.015625000,-56.0,-32.0,-5.0,78.81421875,-21.23,3.2943165,32.811875
2021-06-28 15:23:11.023437500,-56.0,-32.0,-5.0,78.81132812499999,-19.1,3.29403625,32.8128125
2021-06-28 15:23:11.031250000,-56.0,-32.0,-5.0,78.8084375,-16.97,3.293756,32.81375
2021-06-28 15:23:11.039062500,-56.0,-32.0,-5.0,78.80554687499999,-14.77,3.2934757500000003,32.814687500000005
2021-06-28 15:23:11.046875000,-56.0,-32.0,-5.0,78.80265625,-12.57,3.2931955,32.815625000000004
2021-06-28 15:23:11.054687500,-56.0,-32.0,-5.0,78.79976562499999,-10.48,3.29291525,32.8165625
2021-06-28 15:23:11.062500000,-56.0,-32.0,-5.0,78.796875,-8.39,3.292635,32.8175
2021-06-28 15:23:11.070312500,-56.0,-32.0,-5.0,78.793984375,-6.515000000000001,3.29235475,32.8184375
2021-06-28 15:23:11.078125000,-56.0,-32.0,-5.0,78.79109374999999,-4.64,3.2920745,32.819375
2021-06-28 15:23:11.085937500,-56.0,-32.0,-5.0,78.788203125,-3.01,3.29179425,32.8203125
2021-06-28 15:23:11.093750000,-56.0,-32.0,-5.0,78.78531249999999,-1.38,3.2915140000000003,32.821250000000006
2021-06-28 15:23:11.101562500,-56.0,-32.0,-5.0,78.782421875,0.06499999999999995,3.29123375,32.822187500000005
2021-06-28 15:23:11.109375000,-56.0,-32.0,-5.0,78.77953124999999,1.51,3.2909535,32.823125000000005
2021-06-28 15:23:11.117187500,-56.0,-32.0,-5.0,78.776640625,2.8449999999999998,3.29067325,32.824062500000004
2021-06-28 15:23:11.125000000,-56.0,-32.0,-5.0,78.77374999999999,4.18,3.290393,32.825
2021-06-28 15:23:11.132812500,-56.0,-32.0,-5.0,78.770859375,5.465,3.29011275,32.8259375
2021-06-28 15:23:11.140625000,-56.0,-32.0,-5.0,78.76796875,6.75,3.2898325,32.826875
2021-06-28 15:23:11.148437500,-56.0,-32.0,-5.0,78.76507812499999,7.99,3.2895522500000003,32.8278125
2021-06-28 15:23:11.156250000,-56.0,-32.0,-5.0,78.7621875,9.23,3.289272,32.82875
2021-06-28 15:23:11.164062500,-56.0,-32.25,-5.0,78.75929687499999,10.375,3.28899175,32.829687500000006
2021-06-28 15:23:11.171875000,-56.0,-32.5,-5.0,78.75640625,11.52,3.2887115000000002,32.830625000000005
2021-06-28 15:23:11.179687500,-56.0,-32.75,-5.0,78.75351562499999,12.48,3.2884312500000004,32.831562500000004
2021-06-28 15:23:11.187500000,-56.0,-33.0,-5.0,78.750625,13.44,3.288151,32.8325
2021-06-28 15:23:11.195312500,-56.0,-32.75,-5.0,78.747734375,14.145,3.28787075,32.8334375
2021-06-28 15:23:11.203125000,-56.0,-32.5,-5.0,78.74484375,14.85,3.2875905000000003,32.834375
2021-06-28 15:23:11.210937500,-56.0,-32.25,-5.0,78.741953125,15.29,3.28731025,32.8353125
2021-06-28 15:23:11.218750000,-56.0,-32.0,-5.0,78.73906249999999,15.73,3.28703,32.83625000000001
2021-06-28 15:23:11.226562500,-56.0,-32.0,-5.0,78.736171875,15.97,3.2867497500000002,32.837187500000006
2021-06-28 15:23:11.234375000,-56.0,-32.0,-5.0,78.73328124999999,16.21,3.2864695000000004,32.838125000000005
2021-06-28 15:23:11.242187500,-56.0,-32.0,-5.0,78.730390625,16.36,3.28618925,32.839062500000004
2021-06-28 15:23:11.250000000,-56.0,-32.0,-5.0,78.72749999999999,16.51,3.285909,32.84
2021-06-28 15:23:11.257812500,-56.0,-32.0,-5.0,78.724609375,16.665,3.2858289375000003,32.84
2021-06-28 15:23:11.265625000,-56.0,-32.0,-5.0,78.72171875,16.82,3.2857488750000003,32.84
2021-06-28 15:23:11.273437500,-56.0,-32.0,-5.0,78.718828125,17.005000000000003,3.2856688125,32.84
2021-06-28 15:23:11.281250000,-56.0,-32.0,-5.0,78.7159375,17.19,3.28558875,32.84
2021-06-28 15:23:11.289062500,-56.0,-32.0,-5.0,78.71304687499999,17.375,3.2855086875,32.84
2021-06-28 15:23:11.296875000,-56.0,-32.0,-5.0,78.71015625,17.56,3.285428625,32.84
2021-06-28 15:23:11.304687500,-56.0,-32.0,-5.0,78.70726562499999,17.68,3.2853485625000003,32.84
2021-06-28 15:23:11.312500000,-56.0,-32.0,-5.0,78.704375,17.8,3.2852685,32.84
2021-06-28 15:23:11.320312500,-56.0,-32.0,-5.0,78.70148437499999,17.814999999999998,3.2851884375,32.84
2021-06-28 15:23:11.328125000,-56.0,-32.0,-5.0,78.69859375,17.83,3.285108375,32.84
2021-06-28 15:23:11.335937500,-56.0,-32.0,-5.0,78.695703125,17.74,3.2850283125,32.84
2021-06-28 15:23:11.343750000,-56.0,-32.0,-5.0,78.6928125,17.65,3.2849482500000002,32.84
2021-06-28 15:23:11.351562500,-56.0,-32.0,-5.0,78.689921875,17.49,3.2848681875000003,32.84
2021-06-28 15:23:11.359375000,-56.0,-32.0,-5.0,78.68703124999999,17.33,3.284788125,32.84
2021-06-28 15:23:11.367187500,-56.0,-32.0,-5.0,78.684140625,17.119999999999997,3.2847080625,32.84
2021-06-28 15:23:11.375000000,-56.0,-32.0,-5.0,78.68124999999999,16.91,3.284628,32.84
2021-06-28 15:23:11.382812500,-56.0,-32.0,-5.0,78.678359375,16.625,3.2845479375,32.84
2021-06-28 15:23:11.390625000,-56.0,-32.0,-5.0,78.67546875,16.34,3.2844678750000003,32.84
2021-06-28 15:23:11.398437500,-56.0,-32.0,-5.0,78.672578125,15.915,3.2843878125,32.84
2021-06-28 15:23:11.406250000,-56.0,-32.0,-5.0,78.6696875,15.49,3.28430775,32.84
2021-06-28 15:23:11.414062500,-56.0,-32.0,-5.0,78.666796875,14.86,3.2842276875,32.84
2021-06-28 15:23:11.421875000,-56.0,-32.0,-5.0,78.66390625,14.23,3.284147625,32.84
2021-06-28 15:23:11.429687500,-56.0,-32.0,-5.0,78.66101562499999,13.385,3.2840675625,32.84
2021-06-28 15:23:11.437500000,-56.0,-32.0,-5.0,78.658125,12.54,3.2839875000000003,32.84
2021-06-28 15:23:11.445312500,-56.0,-32.0,-5.0,78.65523437499999,11.53,3.2839074375,32.84
2021-06-28 15:23:11.453125000,-56.0,-32.0,-5.0,78.65234375,10.52,3.283827375,32.84
2021-06-28 15:23:11.460937500,-56.0,-32.0,-5.0,78.649453125,9.44,3.2837473125,32.84
2021-06-28 15:23:11.468750000,-56.0,-32.0,-5.0,78.6465625,8.36,3.28366725,32.84
2021-06-28 15:23:11.476562500,-56.0,-32.0,-5.0,78.643671875,7.305,3.2835871875000002,32.84
2021-06-28 15:23:11.484375000,-56.0,-32.0,-5.0,78.64078125,6.25,3.283507125,32.84
2021-06-28 15:23:11.492187500,-56.0,-32.0,-5.0,78.637890625,5.265000000000001,3.2834270625,32.84
2021-06-28 15:23:11.500000000,-56.0,-32.0,-5.0,78.63499999999999,4.28,3.283347,32.84
2021-06-28 15:23:11.507812500,-56.0,-32.0,-5.0,78.632109375,3.335,3.28302671875,32.84
2021-06-28 15:23:11.515625000,-56.0,-32.0,-5.0,78.62921874999999,2.39,3.2827064375,32.84
2021-06-28 15:23:11.523437500,-56.0,-32.0,-5.0,78.626328125,1.425,3.28238615625,32.84
2021-06-28 15:23:11.531250000,-56.0,-32.0,-5.0,78.6234375,0.46,3.282065875,32.84
2021-06-28 15:23:11.539062500,-56.0,-32.0,-5.0,78.620546875,-0.595,3.28174559375,32.84
2021-06-28 15:23:11.546875000,-56.0,-32.0,-5.0,78.61765625,-1.65,3.2814253125,32.84
2021-06-28 15:23:11.554687500,-56.0,-32.0,-5.0,78.614765625,-2.835,3.28110503125,32.84
2021-06-28 15:23:11.562500000,-56.0,-32.0,-5.0,78.611875,-4.02,3.28078475,32.84
2021-06-28 15:23:11.570312500,-56.0,-32.0,-5.0,78.608984375,-5.31,3.28046446875,32.84
2021-06-28 15:23:11.578125000,-56.0,-32.0,-5.0,78.60609375,-6.6,3.2801441875,32.84
2021-06-28 15:23:11.585937500,-56.0,-32.0,-5.0,78.603203125,-7.96,3.27982390625,32.84
2021-06-28 15:23:11.593750000,-56.0,-32.0,-5.0,78.6003125,-9.32,3.2795036250000003,32.84
2021-06-28 15:23:11.601562500,-56.0,-32.0,-5.0,78.597421875,-10.705,3.27918334375,32.84
2021-06-28 15:23:11.609375000,-56.0,-32.0,-5.0,78.59453125,-12.09,3.2788630625,32.84
2021-06-28 15:23:11.617187500,-56.0,-32.0,-5.0,78.591640625,-13.485,3.27854278125,32.84
2021-06-28 15:23:11.625000000,-56.0,-32.0,-5.0,78.58875,-14.88,3.2782225,32.84
2021-06-28 15:23:11.632812500,-56.0,-32.0,-5.0,78.585859375,-16.29,3.27790221875,32.84
2021-06-28 15:23:11.640625000,-56.0,-32.0,-5.0,78.58296875,-17.7,3.2775819375,32.84
2021-06-28 15:23:11.648437500,-56.0,-32.0,-5.0,78.580078125,-19.16,3.27726165625,32.84
2021-06-28 15:23:11.656250000,-56.0,-32.0,-5.0,78.5771875,-20.62,3.276941375,32.84
2021-06-28 15:23:11.664062500,-56.0,-32.0,-5.0,78.574296875,-22.095,3.27662109375,32.84
2021-06-28 15:23:11.671875000,-56.0,-32.0,-5.0,78.57140625,-23.57,3.2763008125,32.84
2021-06-28 15:23:11.679687500,-56.0,-32.0,-5.0,78.568515625,-24.985,3.27598053125,32.84
2021-06-28 15:23:11.687500000,-56.0,-32.0,-5.0,78.565625,-26.4,3.27566025,32.84
2021-06-28 15:23:11.695312500,-56.0,-32.0,-5.0,78.562734375,-27.615,3.27533996875,32.84
2021-06-28 15:23:11.703125000,-56.0,-32.0,-5.0,78.55984375,-28.83,3.2750196875,32.84
2021-06-28 15:23:11.710937500,-56.0,-32.0,-5.0,78.556953125,-29.689999999999998,3.27469940625,32.84
2021-06-28 15:23:11.718750000,-56.0,-32.0,-5.0,78.5540625,-30.55,3.2743791250000003,32.84
2021-06-28 15:23:11.726562500,-56.0,-32.0,-5.0,78.551171875,-30.925,3.2740588437500002,32.84
2021-06-28 15:23:11.734375000,-56.0,-32.0,-5.0,78.54828125,-31.3,3.2737385625,32.84
2021-06-28 15:23:11.742187500,-56.0,-32.0,-5.0,78.545390625,-31.14,3.27341828125,32.84
2021-06-28 15:23:11.750000000,-56.0,-32.0,-5.0,78.5425,-30.98,3.273098,32.84
2021-06-28 15:23:11.757812500,-56.0,-32.0,-5.0,78.539609375,-30.310000000000002,3.2733381875000003,32.84
2021-06-28 15:23:11.765625000,-56.0,-32.0,-5.0,78.53671875,-29.64,3.273578375,32.84
2021-06-28 15:23:11.773437500,-56.0,-32.0,-5.0,78.533828125,-28.555,3.2738185625000003,32.84
2021-06-28 15:23:11.781250000,-56.0,-32.0,-5.0,78.53093750000001,-27.47,3.27405875,32.84
2021-06-28 15:23:11.789062500,-56.0,-32.0,-5.0,78.528046875,-26.075,3.2742989375000002,32.84
2021-06-28 15:23:11.796875000,-56.0,-32.0,-5.0,78.52515625,-24.68,3.274539125,32.84
2021-06-28 15:23:11.804687500,-56.0,-32.0,-5.0,78.522265625,-23.09,3.2747793125,32.84
2021-06-28 15:23:11.812500000,-56.0,-32.0,-5.0,78.519375,-21.5,3.2750195,32.84
2021-06-28 15:23:11.820312500,-56.0,-32.0,-5.0,78.516484375,-19.805,3.2752596875,32.84
2021-06-28 15:23:11.828125000,-56.0,-32.0,-5.0,78.51359375,-18.11,3.275499875,32.84
2021-06-28 15:23:11.835937500,-56.0,-32.0,-5.0,78.510703125,-16.365,3.2757400625,32.84
2021-06-28 15:23:11.843750000,-56.0,-32.0,-5.0,78.5078125,-14.62,3.27598025,32.84
2021-06-28 15:23:11.851562500,-56.0,-32.0,-5.0,78.50492187500001,-12.885,3.2762204375,32.84
2021-06-28 15:23:11.859375000,-56.0,-32.0,-5.0,78.50203125,-11.15,3.276460625,32.84
2021-06-28 15:23:11.867187500,-56.0,-32.0,-5.0,78.499140625,-9.46,3.2767008125,32.84
2021-06-28 15:23:11.875000000,-56.0,-32.0,-5.0,78.49625,-7.77,3.276941,32.84
2021-06-28 15:23:11.882812500,-56.0,-32.0,-5.0,78.493359375,-6.164999999999999,3.2771811875,32.84
2021-06-28 15:23:11.890625000,-56.0,-32.0,-5.0,78.49046875,-4.56,3.2774213750000003,32.84
2021-06-28 15:23:11.898437500,-56.0,-32.0,-5.0,78.487578125,-3.085,3.2776615625,32.84
2021-06-28 15:23:11.906250000,-56.0,-32.0,-5.0,78.4846875,-1.61,3.2779017500000003,32.84
2021-06-28 15:23:11.914062500,-56.0,-32.0,-5.0,78.481796875,-0.31000000000000005,3.2781419375,32.84
2021-06-28 15:23:11.921875000,-56.0,-32.0,-5.0,78.47890625000001,0.99,3.2783821250000003,32.84
2021-06-28 15:23:11.929687500,-56.0,-32.0,-5.0,78.476015625,2.09,3.2786223125,32.84
2021-06-28 15:23:11.937500000,-56.0,-32.0,-5.0,78.473125,3.19,3.2788625000000002,32.84
2021-06-28 15:23:11.945312500,-56.0,-32.0,-5.0,78.470234375,4.085,3.2791026875,32.84
2021-06-28 15:23:11.953125000,-56.0,-32.0,-5.0,78.46734375,4.98,3.279342875,32.84
2021-06-28 15:23:11.960937500,-56.0,-32.0,-5.0,78.464453125,5.69,3.2795830625,32.84
2021-06-28 15:23:11.968750000,-56.0,-32.0,-5.0,78.4615625,6.4,3.27982325,32.84
2021-06-28 15:23:11.976562500,-56.0,-32.0,-5.0,78.45867187500001,6.96,3.2800634375,32.84
2021-06-28 15:23:11.984375000,-56.0,-32.0,-5.0,78.45578125,7.52,3.280303625,32.84
2021-06-28 15:23:11.992187500,-56.0,-32.0,-5.0,78.45289062500001,7.95,3.2805438125,32.84
2021-06-28 15:23:12.000000000,-56.0,-32.0,-5.0,78.45,8.38,3.280784,32.84
2021-06-28 15:23:12.007812500,-56.0,-32.0,-5.0,78.447109375,8.695,3.2805438125,32.839687500000004
2021-06-28 15:23:12.015625000,-56.0,-32.0,-5.0,78.44421875,9.01,3.280303625,32.839375000000004
2021-06-28 15:23:12.023437500,-56.0,-32.0,-5.0,78.441328125,9.19,3.2800634375,32.839062500000004
2021-06-28 15:23:12.031250000,-56.0,-32.0,-5.0,78.4384375,9.37,3.27982325,32.838750000000005
2021-06-28 15:23:12.039062500,-56.0,-32.0,-5.0,78.435546875,9.42,3.2795830625,32.838437500000005
2021-06-28 15:23:12.046875000,-56.0,-32.0,-5.0,78.43265625000001,9.47,3.279342875,32.838125000000005
2021-06-28 15:23:12.054687500,-56.0,-32.0,-5.0,78.429765625,9.42,3.2791026875,32.837812500000005
2021-06-28 15:23:12.062500000,-56.0,-32.0,-5.0,78.426875,9.37,3.2788625000000002,32.837500000000006
2021-06-28 15:23:12.070312500,-56.0,-32.0,-5.0,78.423984375,9.274999999999999,3.2786223125,32.8371875
2021-06-28 15:23:12.078125000,-56.0,-32.0,-5.0,78.42109375,9.18,3.2783821250000003,32.836875
2021-06-28 15:23:12.085937500,-56.0,-32.0,-5.0,78.418203125,9.1,3.2781419375,32.8365625
2021-06-28 15:23:12.093750000,-56.0,-32.0,-5.0,78.4153125,9.02,3.2779017500000003,32.83625
2021-06-28 15:23:12.101562500,-56.0,-32.0,-5.0,78.412421875,8.98,3.2776615625,32.8359375
2021-06-28 15:23:12.109375000,-56.0,-32.0,-5.0,78.40953125,8.94,3.2774213750000003,32.835625
2021-06-28 15:23:12.117187500,-56.0,-32.0,-5.0,78.40664062500001,8.91,3.2771811875,32.8353125
2021-06-28 15:23:12.125000000,-56.0,-32.0,-5.0,78.40375,8.88,3.276941,32.835
2021-06-28 15:23:12.132812500,-56.0,-32.0,-5.0,78.400859375,8.8,3.2767008125,32.8346875
2021-06-28 15:23:12.140625000,-56.0,-32.0,-5.0,78.39796875,8.72,3.276460625,32.834375
2021-06-28 15:23:12.148437500,-56.0,-32.0,-5.0,78.395078125,8.504999999999999,3.2762204375,32.8340625
2021-06-28 15:23:12.156250000,-56.0,-32.0,-5.0,78.3921875,8.29,3.27598025,32.83375
2021-06-28 15:23:12.164062500,-56.0,-32.0,-5.0,78.389296875,7.914999999999999,3.2757400625,32.8334375
2021-06-28 15:23:12.171875000,-56.0,-32.0,-5.0,78.38640625000001,7.54,3.275499875,32.833125
2021-06-28 15:23:12.179687500,-56.0,-32.0,-5.0,78.383515625,7.029999999999999,3.2752596875,32.8328125
2021-06-28 15:23:12.187500000,-56.0,-32.0,-5.0,78.38062500000001,6.52,3.2750195,32.832499999999996
2021-06-28 15:23:12.195312500,-56.0,-32.0,-5.0,78.377734375,5.93,3.2747793125,32.832187499999996
2021-06-28 15:23:12.203125000,-56.0,-32.0,-5.0,78.37484375,5.34,3.274539125,32.831875
2021-06-28 15:23:12.210937500,-56.0,-32.0,-5.0,78.371953125,4.705,3.2742989375000002,32.8315625
2021-06-28 15:23:12.218750000,-56.0,-32.0,-5.0,78.3690625,4.07,3.27405875,32.83125
2021-06-28 15:23:12.226562500,-56.0,-32.0,-5.0,78.366171875,3.3850000000000002,3.2738185625000003,32.8309375
2021-06-28 15:23:12.234375000,-56.0,-32.0,-5.0,78.36328125,2.7,3.273578375,32.830625
2021-06-28 15:23:12.242187500,-56.0,-32.0,-5.0,78.36039062500001,1.92,3.2733381875000003,32.8303125
2021-06-28 15:23:12.250000000,-56.0,-32.0,-5.0,78.3575,1.14,3.273098,32.83
2021-06-28 15:23:12.257812500,-56.0,-32.0,-5.0,78.354609375,0.21999999999999997,3.27349834375,32.83
2021-06-28 15:23:12.265625000,-56.0,-32.0,-5.0,78.35171875,-0.7,3.2738986875,32.83
2021-06-28 15:23:12.273437500,-56.0,-32.0,-5.0,78.348828125,-1.7449999999999999,3.27429903125,32.83
2021-06-28 15:23:12.281250000,-56.0,-32.0,-5.0,78.3459375,-2.79,3.274699375,32.83
2021-06-28 15:23:12.289062500,-56.0,-32.0,-5.0,78.343046875,-3.8850000000000002,3.27509971875,32.83
2021-06-28 15:23:12.296875000,-56.0,-32.0,-5.0,78.34015625,-4.98,3.2755000625,32.83
2021-06-28 15:23:12.304687500,-56.0,-32.0,-5.0,78.337265625,-6.015000000000001,3.27590040625,32.83
2021-06-28 15:23:12.312500000,-56.0,-32.0,-5.0,78.334375,-7.05,3.27630075,32.83
2021-06-28 15:23:12.320312500,-56.0,-32.0,-5.0,78.331484375,-7.955,3.2767010937500003,32.83
2021-06-28 15:23:12.328125000,-56.0,-32.0,-5.0,78.32859375,-8.86,3.2771014375000003,32.83
2021-06-28 15:23:12.335937500,-56.0,-32.0,-5.0,78.325703125,-9.64,3.2775017812500002,32.83
2021-06-28 15:23:12.343750000,-56.0,-32.0,-5.0,78.3228125,-10.42,3.277902125,32.83
2021-06-28 15:23:12.351562500,-56.0,-32.0,-5.0,78.319921875,-11.175,3.27830246875,32.83
2021-06-28 15:23:12.359375000,-56.0,-32.0,-5.0,78.31703125,-11.93,3.2787028125,32.83
2021-06-28 15:23:12.367187500,-56.0,-32.0,-5.0,78.31414062500001,-12.780000000000001,3.27910315625,32.83
2021-06-28 15:23:12.375000000,-56.0,-32.0,-5.0,78.31125,-13.63,3.2795035,32.83
2021-06-28 15:23:12.382812500,-56.0,-32.0,-5.0,78.308359375,-14.66,3.27990384375,32.83
2021-06-28 15:23:12.390625000,-56.0,-32.0,-5.0,78.30546875,-15.69,3.2803041875,32.83
2021-06-28 15:23:12.398437500,-56.0,-32.0,-5.0,78.302578125,-16.89,3.28070453125,32.83
2021-06-28 15:23:12.406250000,-56.0,-32.0,-5.0,78.2996875,-18.09,3.281104875,32.83
2021-06-28 15:23:12.414062500,-56.0,-32.0,-5.0,78.296796875,-19.355,3.28150521875,32.83
2021-06-28 15:23:12.421875000,-56.0,-32.0,-5.0,78.29390625,-20.62,3.2819055625,32.83
2021-06-28 15:23:12.429687500,-56.0,-32.0,-5.0,78.291015625,-21.795,3.28230590625,32.83
2021-06-28 15:23:12.437500000,-56.0,-32.0,-5.0,78.28812500000001,-22.97,3.2827062500000004,32.83
2021-06-28 15:23:12.445312500,-56.0,-32.0,-5.0,78.285234375,-23.924999999999997,3.2831065937500004,32.83
2021-06-28 15:23:12.453125000,-56.0,-32.0,-5.0,78.28234375,-24.88,3.2835069375000003,32.83
2021-06-28 15:23:12.460937500,-56.0,-32.0,-5.0,78.279453125,-25.54,3.2839072812500003,32.83
2021-06-28 15:23:12.468750000,-56.0,-32.0,-5.0,78.2765625,-26.2,3.2843076250000003,32.83
2021-06-28 15:23:12.476562500,-55.75,-32.5,-5.0,78.273671875,-26.549999999999997,3.2847079687500003,32.83
2021-06-28 15:23:12.484375000,-55.5,-33.0,-5.0,78.27078125,-26.9,3.2851083125000002,32.83
2021-06-28 15:23:12.492187500,-55.25,-33.5,-5.0,78.267890625,-26.97,3.28550865625,32.83
2021-06-28 15:23:12.500000000,-55.0,-34.0,-5.0,78.265,-27.04,3.285909,32.83
2021-06-28 15:23:12.507812500,-55.5,-33.5,-5.0,78.262109375,-26.86,3.285909,32.83
2021-06-28 15:23:12.515625000,-56.0,-33.0,-5.0,78.25921875,-26.68,3.285909,32.83
2021-06-28 15:23:12.523437500,-56.5,-32.5,-5.0,78.256328125,-26.29,3.285909,32.83
2021-06-28 15:23:12.531250000,-57.0,-32.0,-5.0,78.2534375,-25.9,3.285909,32.83
2021-06-28 15:23:12.539062500,-56.75,-32.25,-5.0,78.250546875,-25.32,3.285909,32.83
2021-06-28 15:23:12.546875000,-56.5,-32.5,-5.0,78.24765625,-24.74,3.285909,32.83
2021-06-28 15:23:12.554687500,-56.25,-32.75,-5.0,78.244765625,-23.99,3.285909,32.83
2021-06-28 15:23:12.562500000,-56.0,-33.0,-5.0,78.241875,-23.24,3.285909,32.83
2021-06-28 15:23:12.570312500,-55.75,-32.75,-5.0,78.238984375,-22.314999999999998,3.285909,32.83
2021-06-28 15:23:12.578125000,-55.5,-32.5,-5.0,78.23609375,-21.39,3.285909,32.83
2021-06-28 15:23:12.585937500,-55.25,-32.25,-5.0,78.233203125,-20.305,3.285909,32.83
2021-06-28 15:23:12.593750000,-55.0,-32.0,-5.0,78.2303125,-19.22,3.285909,32.83
2021-06-28 15:23:12.601562500,-55.25,-32.0,-5.0,78.227421875,-17.95,3.285909,32.83
2021-06-28 15:23:12.609375000,-55.5,-32.0,-5.0,78.22453125,-16.68,3.285909,32.83
2021-06-28 15:23:12.617187500,-55.75,-32.0,-5.0,78.221640625,-15.254999999999999,3.285909,32.83
2021-06-28 15:23:12.625000000,-56.0,-32.0,-5.0,78.21875,-13.83,3.285909,32.83
2021-06-28 15:23:12.632812500,-55.75,-32.0,-5.0,78.215859375,-12.295,3.285909,32.83
2021-06-28 15:23:12.640625000,-55.5,-32.0,-5.0,78.21296875,-10.76,3.285909,32.83
2021-06-28 15:23:12.648437500,-55.25,-32.0,-5.0,78.210078125,-9.235,3.285909,32.83
2021-06-28 15:23:12.656250000,-55.0,-32.0,-5.0,78.2071875,-7.71,3.285909,32.83
2021-06-28 15:23:12.664062500,-55.25,-32.0,-5.0,78.204296875,-6.32,3.285909,32.83
2021-06-28 15:23:12.671875000,-55.5,-32.0,-5.0,78.20140625,-4.93,3.285909,32.83
2021-06-28 15:23:12.679687500,-55.75,-32.0,-5.0,78.198515625,-3.8099999999999996,3.285909,32.83
2021-06-28 15:23:12.687500000,-56.0,-32.0,-5.0,78.195625,-2.69,3.285909,32.83
2021-06-28 15:23:12.695312500,-56.0,-32.0,-5.0,78.192734375,-1.895,3.285909,32.83
2021-06-28 15:23:12.703125000,-56.0,-32.0,-5.0,78.18984375,-1.1,3.285909,32.83
2021-06-28 15:23:12.710937500,-56.0,-32.0,-5.0,78.186953125,-0.615,3.285909,32.83
2021-06-28 15:23:12.718750000,-56.0,-32.0,-5.0,78.1840625,-0.13,3.285909,32.83
2021-06-28 15:23:12.726562500,-56.0,-32.0,-5.0,78.181171875,0.10500000000000001,3.285909,32.83
2021-06-28 15:23:12.734375000,-56.0,-32.0,-5.0,78.17828125,0.34,3.285909,32.83
2021-06-28 15:23:12.742187500,-56.0,-32.0,-5.0,78.175390625,0.44500000000000006,3.285909,32.83
2021-06-28 15:23:12.750000000,-56.0,-32.0,-5.0,78.1725,0.55,3.285909,32.83
2021-06-28 15:23:12.757812500,-56.0,-32.25,-5.0,78.169609375,0.595,3.2859490312500004,32.83
2021-06-28 15:23:12.765625000,-56.0,-32.5,-5.0,78.16671875,0.64,3.2859890625,32.83
2021-06-28 15:23:12.773437500,-56.0,-32.75,-5.0,78.163828125,0.685,3.2860290937500003,32.83
2021-06-28 15:23:12.781250000,-56.0,-33.0,-5.0,78.1609375,0.73,3.286069125,32.83
2021-06-28 15:23:12.789062500,-56.0,-32.75,-5.25,78.158046875,0.815,3.28610915625,32.83
2021-06-28 15:23:12.796875000,-56.0,-32.5,-5.5,78.15515625,0.9,3.2861491875,32.83
2021-06-28 15:23:12.804687500,-56.0,-32.25,-5.75,78.152265625,1.035,3.28618921875,32.83
2021-06-28 15:23:12.812500000,-56.0,-32.0,-6.0,78.14937499999999,1.17,3.28622925,32.83
2021-06-28 15:23:12.820312500,-56.0,-32.0,-5.75,78.146484375,1.38,3.28626928125,32.83
2021-06-28 15:23:12.828125000,-56.0,-32.0,-5.5,78.14359375,1.59,3.2863093125000002,32.83
2021-06-28 15:23:12.835937500,-56.0,-32.0,-5.25,78.140703125,1.8850000000000002,3.28634934375,32.83
2021-06-28 15:23:12.843750000,-56.0,-32.0,-5.0,78.1378125,2.18,3.286389375,32.83
2021-06-28 15:23:12.851562500,-56.0,-32.25,-5.0,78.134921875,2.545,3.28642940625,32.83
2021-06-28 15:23:12.859375000,-56.0,-32.5,-5.0,78.13203125,2.91,3.2864694375,32.83
2021-06-28 15:23:12.867187500,-56.0,-32.75,-5.0,78.129140625,3.305,3.28650946875,32.83
2021-06-28 15:23:12.875000000,-56.0,-33.0,-5.0,78.12625,3.7,3.2865495,32.83
2021-06-28 15:23:12.882812500,-56.0,-33.0,-5.0,78.12335937499999,4.0649999999999995,3.28658953125,32.83
2021-06-28 15:23:12.890625000,-56.0,-33.0,-5.0,78.12046875,4.43,3.2866295625,32.83
2021-06-28 15:23:12.898437500,-56.0,-33.0,-5.0,78.117578125,4.71,3.28666959375,32.83
2021-06-28 15:23:12.906250000,-56.0,-33.0,-5.0,78.1146875,4.99,3.286709625,32.83
2021-06-28 15:23:12.914062500,-56.0,-32.75,-5.25,78.111796875,5.15,3.28674965625,32.83
2021-06-28 15:23:12.921875000,-56.0,-32.5,-5.5,78.10890625,5.31,3.2867896875,32.83
2021-06-28 15:23:12.929687500,-56.0,-32.25,-5.75,78.106015625,5.324999999999999,3.28682971875,32.83
2021-06-28 15:23:12.937500000,-56.0,-32.0,-6.0,78.103125,5.34,3.28686975,32.83
2021-06-28 15:23:12.945312500,-56.0,-32.25,-5.75,78.100234375,5.215,3.28690978125,32.83
2021-06-28 15:23:12.953125000,-56.0,-32.5,-5.5,78.09734375,5.09,3.2869498125,32.83
2021-06-28 15:23:12.960937500,-56.0,-32.75,-5.25,78.094453125,4.8149999999999995,3.28698984375,32.83
2021-06-28 15:23:12.968750000,-56.0,-33.0,-5.0,78.0915625,4.54,3.287029875,32.83
2021-06-28 15:23:12.976562500,-56.0,-32.75,-5.0,78.088671875,4.13,3.2870699062499997,32.83
2021-06-28 15:23:12.984375000,-56.0,-32.5,-5.0,78.08578125,3.72,3.2871099375,32.83
2021-06-28 15:23:12.992187500,-56.0,-32.25,-5.0,78.082890625,3.185,3.2871499687499997,32.83
2021-06-28 15:23:13.000000000,-56.0,-32.0,-5.0,78.08,2.65,3.28719,32.83
2021-06-28 15:23:13.007812500,-55.75,-32.25,-5.0,78.0771875,2.035,3.2869898125,32.83
2021-06-28 15:23:13.015625000,-55.5,-32.5,-5.0,78.074375,1.42,3.286789625,32.83
2021-06-28 15:23:13.023437500,-55.25,-32.75,-5.0,78.0715625,0.75,3.2865894375,32.83
2021-06-28 15:23:13.031250000,-55.0,-33.0,-5.0,78.06875,0.08,3.28638925,32.83
2021-06-28 15:23:13.039062500,-55.25,-32.75,-5.0,78.0659375,-0.6050000000000001,3.2861890625,32.83
2021-06-28 15:23:13.046875000,-55.5,-32.5,-5.0,78.063125,-1.29,3.2859888749999997,32.83
2021-06-28 15:23:13.054687500,-55.75,-32.25,-5.0,78.0603125,-1.995,3.2857886874999997,32.83
2021-06-28 15:23:13.062500000,-56.0,-32.0,-5.0,78.0575,-2.7,3.2855885,32.83
2021-06-28 15:23:13.070312500,-56.0,-32.25,-5.0,78.0546875,-3.455,3.2853883125,32.83
2021-06-28 15:23:13.078125000,-56.0,-32.5,-5.0,78.051875,-4.21,3.285188125,32.83
2021-06-28 15:23:13.085937500,-56.0,-32.75,-5.0,78.0490625,-5.0600000000000005,3.2849879375,32.83
2021-06-28 15:23:13.093750000,-56.0,-33.0,-5.0,78.04625,-5.91,3.28478775,32.83
2021-06-28 15:23:13.101562500,-56.0,-32.75,-5.0,78.0434375,-6.85,3.2845875625,32.83
2021-06-28 15:23:13.109375000,-56.0,-32.5,-5.0,78.04062499999999,-7.79,3.284387375,32.83
2021-06-28 15:23:13.117187500,-56.0,-32.25,-5.0,78.0378125,-8.8,3.2841871875,32.83
2021-06-28 15:23:13.125000000,-56.0,-32.0,-5.0,78.035,-9.81,3.2839869999999998,32.83
2021-06-28 15:23:13.132812500,-56.0,-32.0,-5.25,78.03218749999999,-10.83,3.2837868125,32.83
2021-06-28 15:23:13.140625000,-56.0,-32.0,-5.5,78.029375,-11.85,3.283586625,32.83
2021-06-28 15:23:13.148437500,-56.0,-32.0,-5.75,78.0265625,-12.835,3.2833864375,32.83
2021-06-28 15:23:13.156250000,-56.0,-32.0,-6.0,78.02374999999999,-13.82,3.28318625,32.83
2021-06-28 15:23:13.164062500,-56.25,-32.25,-6.25,78.0209375,-14.76,3.2829860625,32.83
2021-06-28 15:23:13.171875000,-56.5,-32.5,-6.5,78.018125,-15.7,3.282785875,32.83
2021-06-28 15:23:13.179687500,-56.75,-32.75,-6.75,78.0153125,-16.619999999999997,3.2825856875,32.83
2021-06-28 15:23:13.187500000,-57.0,-33.0,-7.0,78.0125,-17.54,3.2823855,32.83
2021-06-28 15:23:13.195312500,-56.75,-32.5,-6.25,78.0096875,-18.485,3.2821853125000002,32.83
2021-06-28 15:23:13.203125000,-56.5,-32.0,-5.5,78.006875,-19.43,3.2819851250000003,32.83
2021-06-28 15:23:13.210937500,-56.25,-31.5,-4.75,78.0040625,-20.4,3.2817849375,32.83
2021-06-28 15:23:13.218750000,-56.0,-31.0,-4.0,78.00125,-21.37,3.28158475,32.83
2021-06-28 15:23:13.226562500,-55.75,-31.5,-4.5,77.9984375,-22.310000000000002,3.2813845625,32.83
2021-06-28 15:23:13.234375000,-55.5,-32.0,-5.0,77.995625,-23.25,3.281184375,32.83
2021-06-28 15:23:13.242187500,-55.25,-32.5,-5.5,77.9928125,-24.05,3.2809841875,32.83
2021-06-28 15:23:13.250000000,-55.0,-33.0,-6.0,77.99,-24.85,3.280784,32.83
2021-06-28 15:23:13.257812500,-55.5,-33.0,-6.0,77.9871875,-25.375,3.28086409375,32.83
2021-06-28 15:23:13.265625000,-56.0,-33.0,-6.0,77.984375,-25.9,3.2809441875000003,32.83
2021-06-28 15:23:13.273437500,-56.5,-33.0,-6.0,77.9815625,-26.06,3.28102428125,32.83
2021-06-28 15:23:13.281250000,-57.0,-33.0,-6.0,77.97875,-26.22,3.281104375,32.83
2021-06-28 15:23:13.289062500,-56.5,-33.0,-5.75,77.9759375,-25.96,3.2811844687500002,32.83
2021-06-28 15:23:13.296875000,-56.0,-33.0,-5.5,77.973125,-25.7,3.2812645625,32.83
2021-06-28 15:23:13.304687500,-55.5,-33.0,-5.25,77.97031249999999,-25.03,3.28134465625,32.83
2021-06-28 15:23:13.312500000,-55.0,-33.0,-5.0,77.9675,-24.36,3.2814247500000002,32.83
2021-06-28 15:23:13.320312500,-55.25,-33.0,-5.0,77.9646875,-23.310000000000002,3.28150484375,32.83
2021-06-28 15:23:13.328125000,-55.5,-33.0,-5.0,77.96187499999999,-22.26,3.2815849375,32.83
2021-06-28 15:23:13.335937500,-55.75,-33.0,-5.0,77.9590625,-20.9,3.28166503125,32.83
2021-06-28 15:23:13.343750000,-56.0,-33.0,-5.0,77.95625,-19.54,3.281745125,32.83
2021-06-28 15:23:13.351562500,-55.75,-33.0,-5.0,77.95343749999999,-17.939999999999998,3.28182521875,32.83
2021-06-28 15:23:13.359375000,-55.5,-33.0,-5.0,77.950625,-16.34,3.2819053125,32.83
2021-06-28 15:23:13.367187500,-55.25,-33.0,-5.0,77.9478125,-14.6,3.28198540625,32.83
2021-06-28 15:23:13.375000000,-55.0,-33.0,-5.0,77.945,-12.86,3.2820655,32.83
2021-06-28 15:23:13.382812500,-55.0,-33.0,-5.0,77.9421875,-11.085,3.28214559375,32.83
2021-06-28 15:23:13.390625000,-55.0,-33.0,-5.0,77.939375,-9.31,3.2822256875,32.83
2021-06-28 15:23:13.398437500,-55.0,-33.0,-5.0,77.9365625,-7.59,3.2823057812500003,32.83
2021-06-28 15:23:13.406250000,-55.0,-33.0,-5.0,77.93375,-5.87,3.282385875,32.83
2021-06-28 15:23:13.414062500,-55.25,-32.75,-5.0,77.9309375,-4.28,3.28246596875,32.83
2021-06-28 15:23:13.421875000,-55.5,-32.5,-5.0,77.928125,-2.69,3.2825460625000003,32.83
2021-06-28 15:23:13.429687500,-55.75,-32.25,-5.0,77.9253125,-1.26,3.28262615625,32.83
2021-06-28 15:23:13.437500000,-56.0,-32.0,-5.0,77.9225,0.17,3.28270625,32.83
2021-06-28 15:23:13.445312500,-56.0,-32.0,-5.0,77.9196875,1.415,3.2827863437500002,32.83
2021-06-28 15:23:13.453125000,-56.0,-32.0,-5.0,77.916875,2.66,3.2828664375,32.83
2021-06-28 15:23:13.460937500,-56.0,-32.0,-5.0,77.9140625,3.72,3.28294653125,32.83
2021-06-28 15:23:13.468750000,-56.0,-32.0,-5.0,77.91125,4.78,3.283026625,32.83
2021-06-28 15:23:13.476562500,-55.75,-32.25,-5.0,77.9084375,5.665,3.28310671875,32.83
2021-06-28 15:23:13.484375000,-55.5,-32.5,-5.0,77.905625,6.55,3.2831868125,32.83
2021-06-28 15:23:13.492187500,-55.25,-32.75,-5.0,77.9028125,7.26,3.28326690625,32.83
2021-06-28 15:23:13.500000000,-55.0,-33.0,-5.0,77.9,7.97,3.283347,32.83
2021-06-28 15:23:13.507812500,-55.25,-33.0,-5.0,77.8971875,8.525,3.28326690625,32.83
2021-06-28 15:23:13.515625000,-55.5,-33.0,-5.0,77.894375,9.08,3.2831868125,32.83
2021-06-28 15:23:13.523437500,-55.75,-33.0,-5.0,77.89156249999999,9.52,3.28310671875,32.83
2021-06-28 15:23:13.531250000,-56.0,-33.0,-5.0,77.88875,9.96,3.283026625,32.83
2021-06-28 15:23:13.539062500,-56.0,-33.0,-5.0,77.8859375,10.325,3.28294653125,32.83
2021-06-28 15:23:13.546875000,-56.0,-33.0,-5.0,77.88312499999999,10.69,3.2828664375,32.83
2021-06-28 15:23:13.554687500,-56.0,-33.0,-5.0,77.8803125,10.995000000000001,3.2827863437500002,32.83
2021-06-28 15:23:13.562500000,-56.0,-33.0,-5.0,77.8775,11.3,3.28270625,32.83
2021-06-28 15:23:13.570312500,-56.0,-32.75,-5.0,77.8746875,11.555,3.28262615625,32.83
2021-06-28 15:23:13.578125000,-56.0,-32.5,-5.0,77.871875,11.81,3.2825460625000003,32.83
2021-06-28 15:23:13.585937500,-56.0,-32.25,-5.0,77.8690625,11.98,3.28246596875,32.83
2021-06-28 15:23:13.593750000,-56.0,-32.0,-5.0,77.86625,12.15,3.282385875,32.83
2021-06-28 15:23:13.601562500,-56.0,-32.0,-5.25,77.8634375,12.195,3.2823057812500003,32.83
2021-06-28 15:23:13.609375000,-56.0,-32.0,-5.5,77.860625,12.24,3.2822256875,32.83
2021-06-28 15:23:13.617187500,-56.0,-32.0,-5.75,77.8578125,12.15,3.28214559375,32.83
2021-06-28 15:23:13.625000000,-56.0,-32.0,-6.0,77.855,12.06,3.2820655,32.83
2021-06-28 15:23:13.632812500,-55.75,-32.25,-5.75,77.8521875,11.845,3.28198540625,32.83
2021-06-28 15:23:13.640625000,-55.5,-32.5,-5.5,77.849375,11.63,3.2819053125,32.83
2021-06-28 15:23:13.648437500,-55.25,-32.75,-5.25,77.8465625,11.355,3.28182521875,32.83
2021-06-28 15:23:13.656250000,-55.0,-33.0,-5.0,77.84375,11.08,3.281745125,32.83
2021-06-28 15:23:13.664062500,-55.25,-33.0,-5.0,77.8409375,10.809999999999999,3.28166503125,32.83
2021-06-28 15:23:13.671875000,-55.5,-33.0,-5.0,77.838125,10.54,3.2815849375,32.83
2021-06-28 15:23:13.679687500,-55.75,-33.0,-5.0,77.8353125,10.32,3.28150484375,32.83
2021-06-28 15:23:13.687500000,-56.0,-33.0,-5.0,77.8325,10.1,3.2814247500000002,32.83
2021-06-28 15:23:13.695312500,-56.0,-33.0,-5.0,77.8296875,9.934999999999999,3.28134465625,32.83
2021-06-28 15:23:13.703125000,-56.0,-33.0,-5.0,77.826875,9.77,3.2812645625,32.83
2021-06-28 15:23:13.710937500,-56.0,-33.0,-5.0,77.8240625,9.615,3.2811844687500002,32.83
2021-06-28 15:23:13.718750000,-56.0,-33.0,-5.0,77.82124999999999,9.46,3.281104375,32.83
2021-06-28 15:23:13.726562500,-56.0,-33.0,-5.0,77.8184375,9.260000000000002,3.28102428125,32.83
2021-06-28 15:23:13.734375000,-56.0,-33.0,-5.0,77.815625,9.06,3.2809441875000003,32.83
2021-06-28 15:23:13.742187500,-56.0,-33.0,-5.0,77.81281249999999,8.760000000000002,3.28086409375,32.83
2021-06-28 15:23:13.750000000,-56.0,-33.0,-5.0,77.81,8.46,3.280784,32.83
2021-06-28 15:23:13.757812500,-55.75,-33.0,-5.0,77.8071875,8.025,3.2802635625,32.83
2021-06-28 15:23:13.765625000,-55.5,-33.0,-5.0,77.804375,7.59,3.279743125,32.83
2021-06-28 15:23:13.773437500,-55.25,-33.0,-5.0,77.8015625,7.015000000000001,3.2792226875000003,32.83
2021-06-28 15:23:13.781250000,-55.0,-33.0,-5.0,77.79875,6.44,3.2787022500000003,32.83
2021-06-28 15:23:13.789062500,-55.25,-32.75,-5.0,77.7959375,5.745,3.2781818125,32.83
2021-06-28 15:23:13.796875000,-55.5,-32.5,-5.0,77.793125,5.05,3.277661375,32.83
2021-06-28 15:23:13.804687500,-55.75,-32.25,-5.0,77.7903125,4.27,3.2771409375,32.83
2021-06-28 15:23:13.812500000,-56.0,-32.0,-5.0,77.7875,3.49,3.2766205,32.83
2021-06-28 15:23:13.820312500,-56.0,-32.25,-5.0,77.7846875,2.66,3.2761000625000003,32.83
2021-06-28 15:23:13.828125000,-56.0,-32.5,-5.0,77.781875,1.83,3.275579625,32.83
2021-06-28 15:23:13.835937500,-56.0,-32.75,-5.0,77.7790625,0.9650000000000001,3.2750591875,32.83
2021-06-28 15:23:13.843750000,-56.0,-33.0,-5.0,77.77625,0.1,3.27453875,32.83
2021-06-28 15:23:13.851562500,-56.0,-33.0,-5.25,77.7734375,-0.81,3.2740183125,32.83
2021-06-28 15:23:13.859375000,-56.0,-33.0,-5.5,77.770625,-1.72,3.2734978750000003,32.83
2021-06-28 15:23:13.867187500,-56.0,-33.0,-5.75,77.7678125,-2.7249999999999996,3.2729774375000003,32.83
2021-06-28 15:23:13.875000000,-56.0,-33.0,-6.0,77.765,-3.73,3.272457,32.83
2021-06-28 15:23:13.882812500,-55.75,-32.75,-5.75,77.7621875,-4.885,3.2719365625,32.83
2021-06-28 15:23:13.890625000,-55.5,-32.5,-5.5,77.759375,-6.04,3.271416125,32.83
2021-06-28 15:23:13.898437500,-55.25,-32.25,-5.25,77.7565625,-7.414999999999999,3.2708956875000004,32.83
2021-06-28 15:23:13.906250000,-55.0,-32.0,-5.0,77.75375,-8.79,3.2703752500000003,32.83
2021-06-28 15:23:13.914062500,-55.25,-32.0,-5.0,77.75093749999999,-10.395,3.2698548125,32.83
2021-06-28 15:23:13.921875000,-55.5,-32.0,-5.0,77.748125,-12.0,3.269334375,32.83
2021-06-28 15:23:13.929687500,-55.75,-32.0,-5.0,77.7453125,-13.809999999999999,3.2688139375,32.83
2021-06-28 15:23:13.937500000,-56.0,-32.0,-5.0,77.74249999999999,-15.62,3.2682935000000004,32.83
2021-06-28 15:23:13.945312500,-56.0,-32.0,-5.0,77.7396875,-17.535,3.2677730625000003,32.83
2021-06-28 15:23:13.953125000,-56.0,-32.0,-5.0,77.736875,-19.45,3.2672526250000002,32.83
2021-06-28 15:23:13.960937500,-56.0,-32.0,-5.0,77.7340625,-21.335,3.2667321875,32.83
2021-06-28 15:23:13.968750000,-56.0,-32.0,-5.0,77.73125,-23.22,3.26621175,32.83
2021-06-28 15:23:13.976562500,-56.0,-32.25,-5.0,77.7284375,-24.9,3.2656913125,32.83
2021-06-28 15:23:13.984375000,-56.0,-32.5,-5.0,77.725625,-26.58,3.2651708750000004,32.83
2021-06-28 15:23:13.992187500,-56.0,-32.75,-5.0,77.7228125,-27.909999999999997,3.2646504375000003,32.83
2021-06-28 15:23:14.000000000,-56.0,-33.0,-5.0,77.72,-29.24,3.26413,32.83
2021-06-28 15:23:14.007812500,-56.0,-32.75,-5.0,77.7175,-30.1,3.2642100625,32.83
2021-06-28 15:23:14.015625000,-56.0,-32.5,-5.0,77.715,-30.96,3.264290125,32.83
2021-06-28 15:23:14.023437500,-56.0,-32.25,-5.0,77.7125,-31.295,3.2643701875,32.83
2021-06-28 15:23:14.031250000,-56.0,-32.0,-5.0,77.71,-31.63,3.2644502500000003,32.83
2021-06-28 15:23:14.039062500,-56.0,-32.25,-5.25,77.7075,-31.439999999999998,3.2645303125000003,32.83
2021-06-28 15:23:14.046875000,-56.0,-32.5,-5.5,77.705,-31.25,3.264610375,32.83
2021-06-28 15:23:14.054687500,-56.0,-32.75,-5.75,77.7025,-30.59,3.2646904375,32.83
2021-06-28 15:23:14.062500000,-56.0,-33.0,-6.0,77.7,-29.93,3.2647705,32.83
2021-06-28 15:23:14.070312500,-55.75,-33.0,-5.75,77.6975,-28.875,3.2648505625,32.83
2021-06-28 15:23:14.078125000,-55.5,-33.0,-5.5,77.695,-27.82,3.2649306250000003,32.83
2021-06-28 15:23:14.085937500,-55.25,-33.0,-5.25,77.6925,-26.47,3.2650106875000002,32.83
2021-06-28 15:23:14.093750000,-55.0,-33.0,-5.0,77.69,-25.12,3.26509075,32.83
2021-06-28 15:23:14.101562500,-55.25,-32.75,-5.0,77.6875,-23.535,3.2651708125,32.83
2021-06-28 15:23:14.109375000,-55.5,-32.5,-5.0,77.685,-21.95,3.265250875,32.83
2021-06-28 15:23:14.117187500,-55.75,-32.25,-5.0,77.6825,-20.17,3.2653309375,32.83
2021-06-28 15:23:14.125000000,-56.0,-32.0,-5.0,77.68,-18.39,3.2654110000000003,32.83
2021-06-28 15:23:14.132812500,-56.0,-32.25,-5.0,77.6775,-16.445,3.2654910625,32.83
2021-06-28 15:23:14.140625000,-56.0,-32.5,-5.0,77.675,-14.5,3.265571125,32.83
2021-06-28 15:23:14.148437500,-56.0,-32.75,-5.0,77.6725,-12.43,3.2656511875,32.83
2021-06-28 15:23:14.156250000,-56.0,-33.0,-5.0,77.67,-10.36,3.26573125,32.83
2021-06-28 15:23:14.164062500,-56.0,-32.75,-5.0,77.6675,-8.219999999999999,3.2658113125,32.83
2021-06-28 15:23:14.171875000,-56.0,-32.5,-5.0,77.665,-6.08,3.265891375,32.83
2021-06-28 15:23:14.179687500,-56.0,-32.25,-5.0,77.6625,-3.965,3.2659714375,32.83
2021-06-28 15:23:14.187500000,-56.0,-32.0,-5.0,77.66,-1.85,3.2660515,32.83
2021-06-28 15:23:14.195312500,-56.0,-32.25,-5.25,77.6575,0.11999999999999988,3.2661315625,32.83
2021-06-28 15:23:14.203125000,-56.0,-32.5,-5.5,77.655,2.09,3.266211625,32.83
2021-06-28 15:23:14.210937500,-56.0,-32.75,-5.75,77.6525,3.785,3.2662916875,32.83
2021-06-28 15:23:14.218750000,-56.0,-33.0,-6.0,77.65,5.48,3.26637175,32.83
2021-06-28 15:23:14.226562500,-56.0,-32.75,-5.75,77.6475,6.815,3.2664518125,32.83
2021-06-28 15:23:14.234375000,-56.0,-32.5,-5.5,77.645,8.15,3.266531875,32.83
2021-06-28 15:23:14.242187500,-56.0,-32.25,-5.25,77.6425,9.129999999999999,3.2666119375,32.83
2021-06-28 15:23:14.250000000,-56.0,-32.0,-5.0,77.64,10.11,3.266692,32.83
2021-06-28 15:23:14.257812500,-56.0,-32.0,-5.0,77.6375,10.805,3.2662516249999998,32.83
2021-06-28 15:23:14.265625000,-56.0,-32.0,-5.0,77.635,11.5,3.26581125,32.83
2021-06-28 15:23:14.273437500,-56.0,-32.0,-5.0,77.63250000000001,12.055,3.265370875,32.83
2021-06-28 15:23:14.281250000,-56.0,-32.0,-5.0,77.63,12.61,3.2649305,32.83
2021-06-28 15:23:14.289062500,-55.75,-32.25,-5.0,77.6275,13.18,3.264490125,32.83
2021-06-28 15:23:14.296875000,-55.5,-32.5,-5.0,77.625,13.75,3.26404975,32.83
2021-06-28 15:23:14.304687500,-55.25,-32.75,-5.0,77.6225,14.455,3.263609375,32.83
2021-06-28 15:23:14.312500000,-55.0,-33.0,-5.0,77.62,15.16,3.263169,32.83
2021-06-28 15:23:14.320312500,-55.25,-32.75,-5.25,77.6175,16.009999999999998,3.262728625,32.83
2021-06-28 15:23:14.328125000,-55.5,-32.5,-5.5,77.615,16.86,3.26228825,32.83
2021-06-28 15:23:14.335937500,-55.75,-32.25,-5.75,77.6125,17.755,3.261847875,32.83
2021-06-28 15:23:14.343750000,-56.0,-32.0,-6.0,77.61,18.65,3.2614075,32.83
2021-06-28 15:23:14.351562500,-55.75,-32.0,-6.0,77.6075,19.435,3.260967125,32.83
2021-06-28 15:23:14.359375000,-55.5,-32.0,-6.0,77.605,20.22,3.26052675,32.83
2021-06-28 15:23:14.367187500,-55.25,-32.0,-6.0,77.6025,20.72,3.260086375,32.83
2021-06-28 15:23:14.375000000,-55.0,-32.0,-6.0,77.6,21.22,3.259646,32.83
2021-06-28 15:23:14.382812500,-55.0,-32.0,-5.75,77.5975,21.365000000000002,3.259205625,32.83
2021-06-28 15:23:14.390625000,-55.0,-32.0,-5.5,77.595,21.51,3.25876525,32.83
2021-06-28 15:23:14.398437500,-55.0,-32.0,-5.25,77.5925,21.325000000000003,3.258324875,32.83
2021-06-28 15:23:14.406250000,-55.0,-32.0,-5.0,77.59,21.14,3.2578845000000003,32.83
2021-06-28 15:23:14.414062500,-55.25,-32.25,-5.0,77.5875,20.745,3.257444125,32.83
2021-06-28 15:23:14.421875000,-55.5,-32.5,-5.0,77.58500000000001,20.35,3.25700375,32.83
2021-06-28 15:23:14.429687500,-55.75,-32.75,-5.0,77.5825,19.880000000000003,3.2565633750000003,32.83
2021-06-28 15:23:14.437500000,-56.0,-33.0,-5.0,77.58,19.41,3.256123,32.83
2021-06-28 15:23:14.445312500,-56.0,-33.0,-5.0,77.5775,18.96,3.255682625,32.83
2021-06-28 15:23:14.453125000,-56.0,-33.0,-5.0,77.575,18.51,3.2552422500000002,32.83
2021-06-28 15:23:14.460937500,-56.0,-33.0,-5.0,77.5725,18.090000000000003,3.254801875,32.83
2021-06-28 15:23:14.468750000,-56.0,-33.0,-5.0,77.57000000000001,17.67,3.2543615,32.83
2021-06-28 15:23:14.476562500,-56.0,-33.0,-5.25,77.5675,17.235,3.253921125,32.83
2021-06-28 15:23:14.484375000,-56.0,-33.0,-5.5,77.565,16.8,3.25348075,32.83
2021-06-28 15:23:14.492187500,-56.0,-33.0,-5.75,77.5625,16.275,3.2530403750000003,32.83
2021-06-28 15:23:14.500000000,-56.0,-33.0,-6.0,77.56,15.75,3.2526,32.83
2021-06-28 15:23:14.507812500,-56.0,-32.75,-5.75,77.5575,15.075,3.25227975,32.83
2021-06-28 15:23:14.515625000,-56.0,-32.5,-5.5,77.555,14.4,3.2519595000000003,32.83
2021-06-28 15:23:14.523437500,-56.0,-32.25,-5.25,77.55250000000001,13.54,3.25163925,32.83
2021-06-28 15:23:14.531250000,-56.0,-32.0,-5.0,77.55,12.68,3.251319,32.83
2021-06-28 15:23:14.539062500,-56.0,-32.25,-5.0,77.5475,11.605,3.25099875,32.83
2021-06-28 15:23:14.546875000,-56.0,-32.5,-5.0,77.545,10.53,3.2506785000000002,32.83
2021-06-28 15:23:14.554687500,-56.0,-32.75,-5.0,77.5425,9.23,3.25035825,32.83
2021-06-28 15:23:14.562500000,-56.0,-33.0,-5.0,77.54,7.93,3.250038,32.83
2021-06-28 15:23:14.570312500,-56.0,-33.0,-5.0,77.53750000000001,6.42,3.2497177500000003,32.83
2021-06-28 15:23:14.578125000,-56.0,-33.0,-5.0,77.535,4.91,3.2493975,32.83
2021-06-28 15:23:14.585937500,-56.0,-33.0,-5.0,77.5325,3.245,3.24907725,32.83
2021-06-28 15:23:14.593750000,-56.0,-33.0,-5.0,77.53,1.58,3.248757,32.83
2021-06-28 15:23:14.601562500,-55.75,-32.75,-5.0,77.5275,-0.1499999999999999,3.24843675,32.83
2021-06-28 15:23:14.609375000,-55.5,-32.5,-5.0,77.525,-1.88,3.2481165,32.83
2021-06-28 15:23:14.617187500,-55.25,-32.25,-5.0,77.52250000000001,-3.555,3.24779625,32.83
2021-06-28 15:23:14.625000000,-55.0,-32.0,-5.0,77.52000000000001,-5.23,3.247476,32.83
2021-06-28 15:23:14.632812500,-55.25,-32.0,-5.0,77.5175,-6.79,3.24715575,32.83
2021-06-28 15:23:14.640625000,-55.5,-32.0,-5.0,77.515,-8.35,3.2468355,32.83
2021-06-28 15:23:14.648437500,-55.75,-32.0,-5.0,77.5125,-9.809999999999999,3.24651525,32.83
2021-06-28 15:23:14.656250000,-56.0,-32.0,-5.0,77.51,-11.27,3.246195,32.83
2021-06-28 15:23:14.664062500,-55.75,-32.0,-5.0,77.50750000000001,-12.715,3.24587475,32.83
2021-06-28 15:23:14.671875000,-55.5,-32.0,-5.0,77.50500000000001,-14.16,3.2455545,32.83
2021-06-28 15:23:14.679687500,-55.25,-32.0,-5.0,77.5025,-15.72,3.2452342499999998,32.83
2021-06-28 15:23:14.687500000,-55.0,-32.0,-5.0,77.5,-17.28,3.244914,32.83
2021-06-28 15:23:14.695312500,-55.25,-32.25,-5.0,77.4975,-19.04,3.24459375,32.83
2021-06-28 15:23:14.703125000,-55.5,-32.5,-5.0,77.495,-20.8,3.2442735,32.83
2021-06-28 15:23:14.710937500,-55.75,-32.75,-5.0,77.4925,-22.77,3.24395325,32.83
2021-06-28 15:23:14.718750000,-56.0,-33.0,-5.0,77.49000000000001,-24.74,3.243633,32.83
2021-06-28 15:23:14.726562500,-55.75,-33.0,-5.0,77.4875,-26.81,3.24331275,32.83
2021-06-28 15:23:14.734375000,-55.5,-33.0,-5.0,77.485,-28.88,3.2429924999999997,32.83
2021-06-28 15:23:14.742187500,-55.25,-33.0,-5.0,77.4825,-30.845,3.24267225,32.83
2021-06-28 15:23:14.750000000,-55.0,-33.0,-5.0,77.48,-32.81,3.242352,32.83
2021-06-28 15:23:14.757812500,-55.25,-33.0,-5.0,77.4775,-34.43,3.2421518125,32.83
2021-06-28 15:23:14.765625000,-55.5,-33.0,-5.0,77.47500000000001,-36.05,3.241951625,32.83
2021-06-28 15:23:14.773437500,-55.75,-33.0,-5.0,77.47250000000001,-37.114999999999995,3.2417514375,32.83
2021-06-28 15:23:14.781250000,-56.0,-33.0,-5.0,77.47,-38.18,3.24155125,32.83
2021-06-28 15:23:14.789062500,-56.0,-32.75,-5.0,77.4675,-38.545,3.2413510625,32.83
2021-06-28 15:23:14.796875000,-56.0,-32.5,-5.0,77.465,-38.91,3.2411508749999998,32.83
2021-06-28 15:23:14.804687500,-56.0,-32.25,-5.0,77.4625,-38.54,3.2409506875,32.83
2021-06-28 15:23:14.812500000,-56.0,-32.0,-5.0,77.46000000000001,-38.17,3.2407505,32.83
2021-06-28 15:23:14.820312500,-56.0,-32.0,-5.0,77.45750000000001,-37.115,3.2405503125,32.83
2021-06-28 15:23:14.828125000,-56.0,-32.0,-5.0,77.455,-36.06,3.240350125,32.83
2021-06-28 15:23:14.835937500,-56.0,-32.0,-5.0,77.4525,-34.45,3.2401499375,32.83
2021-06-28 15:23:14.843750000,-56.0,-32.0,-5.0,77.45,-32.84,3.23994975,32.83
2021-06-28 15:23:14.851562500,-56.0,-32.25,-5.0,77.4475,-30.82,3.2397495625,32.83
2021-06-28 15:23:14.859375000,-56.0,-32.5,-5.0,77.44500000000001,-28.8,3.239549375,32.83
2021-06-28 15:23:14.867187500,-56.0,-32.75,-5.0,77.44250000000001,-26.505000000000003,3.2393491875000002,32.83
2021-06-28 15:23:14.875000000,-56.0,-33.0,-5.0,77.44,-24.21,3.2391490000000003,32.83
2021-06-28 15:23:14.882812500,-56.0,-33.0,-5.0,77.4375,-21.755000000000003,3.2389488125,32.83
2021-06-28 15:23:14.890625000,-56.0,-33.0,-5.0,77.435,-19.3,3.238748625,32.83
2021-06-28 15:23:14.898437500,-56.0,-33.0,-5.0,77.4325,-16.765,3.2385484375,32.83
2021-06-28 15:23:14.906250000,-56.0,-33.0,-5.0,77.43,-14.23,3.23834825,32.83
2021-06-28 15:23:14.914062500,-56.0,-33.0,-5.0,77.42750000000001,-11.685,3.2381480625,32.83
2021-06-28 15:23:14.921875000,-56.0,-33.0,-5.0,77.42500000000001,-9.14,3.237947875,32.83
2021-06-28 15:23:14.929687500,-56.0,-33.0,-5.0,77.4225,-6.6450000000000005,3.2377476875,32.83
2021-06-28 15:23:14.937500000,-56.0,-33.0,-5.0,77.42,-4.15,3.2375475000000002,32.83
2021-06-28 15:23:14.945312500,-55.75,-32.75,-5.0,77.4175,-1.7400000000000002,3.2373473125000003,32.83
2021-06-28 15:23:14.953125000,-55.5,-32.5,-5.0,77.415,0.67,3.2371471250000003,32.83
2021-06-28 15:23:14.960937500,-55.25,-32.25,-5.0,77.41250000000001,2.94,3.2369469375,32.83
2021-06-28 15:23:14.968750000,-55.0,-32.0,-5.0,77.41000000000001,5.21,3.23674675,32.83
2021-06-28 15:23:14.976562500,-55.25,-32.25,-5.0,77.4075,7.3100000000000005,3.2365465625,32.83
2021-06-28 15:23:14.984375000,-55.5,-32.5,-5.0,77.405,9.41,3.236346375,32.83
2021-06-28 15:23:14.992187500,-55.75,-32.75,-5.0,77.4025,11.285,3.2361461875,32.83
2021-06-28 15:23:15.000000000,-56.0,-33.0,-5.0,77.4,13.16,3.235946,32.83
2021-06-28 15:23:15.007812500,-56.0,-32.75,-5.0,77.39828125000001,14.765,3.2358659375000003,32.8303125
2021-06-28 15:23:15.015625000,-56.0,-32.5,-5.0,77.3965625,16.37,3.2357858750000004,32.830625
2021-06-28 15:23:15.023437500,-56.0,-32.25,-5.0,77.39484375,17.67,3.2357058125,32.8309375
2021-06-28 15:23:15.031250000,-56.0,-32.0,-5.0,77.39312500000001,18.97,3.23562575,32.83125
2021-06-28 15:23:15.039062500,-55.75,-32.0,-5.0,77.39140625,19.965,3.2355456875,32.8315625
2021-06-28 15:23:15.046875000,-55.5,-32.0,-5.0,77.38968750000001,20.96,3.2354656250000002,32.831875
2021-06-28 15:23:15.054687500,-55.25,-32.0,-5.0,77.38796875,21.695,3.2353855625000003,32.832187499999996
2021-06-28 15:23:15.062500000,-55.0,-32.0,-5.0,77.38625,22.43,3.2353055,32.832499999999996
2021-06-28 15:23:15.070312500,-55.25,-32.25,-5.0,77.38453125000001,22.985,3.2352254375,32.8328125
2021-06-28 15:23:15.078125000,-55.5,-32.5,-5.0,77.3828125,23.54,3.235145375,32.833125
2021-06-28 15:23:15.085937500,-55.75,-32.75,-5.0,77.38109375,23.994999999999997,3.2350653125,32.8334375
2021-06-28 15:23:15.093750000,-56.0,-33.0,-5.0,77.37937500000001,24.45,3.2349852500000003,32.83375
2021-06-28 15:23:15.101562500,-56.0,-32.75,-5.0,77.37765625,24.855,3.2349051875000003,32.8340625
2021-06-28 15:23:15.109375000,-56.0,-32.5,-5.0,77.3759375,25.26,3.234825125,32.834375
2021-06-28 15:23:15.117187500,-56.0,-32.25,-5.0,77.37421875000001,25.64,3.2347450625,32.8346875
2021-06-28 15:23:15.125000000,-56.0,-32.0,-5.0,77.3725,26.02,3.234665,32.835
2021-06-28 15:23:15.132812500,-56.0,-32.0,-5.0,77.37078125000001,26.34,3.2345849375,32.8353125
2021-06-28 15:23:15.140625000,-56.0,-32.0,-5.0,77.36906250000001,26.66,3.2345048750000003,32.835625
2021-06-28 15:23:15.148437500,-56.0,-32.0,-5.0,77.36734375,26.869999999999997,3.2344248125,32.8359375
2021-06-28 15:23:15.156250000,-56.0,-32.0,-5.0,77.36562500000001,27.08,3.23434475,32.83625
2021-06-28 15:23:15.164062500,-56.0,-32.0,-5.0,77.36390625,27.134999999999998,3.2342646875,32.8365625
2021-06-28 15:23:15.171875000,-56.0,-32.0,-5.0,77.3621875,27.19,3.234184625,32.836875
2021-06-28 15:23:15.179687500,-56.0,-32.0,-5.0,77.36046875000001,27.065,3.2341045625000002,32.8371875
2021-06-28 15:23:15.187500000,-56.0,-32.0,-5.0,77.35875,26.94,3.2340245000000003,32.837500000000006
2021-06-28 15:23:15.195312500,-55.75,-32.25,-5.0,77.35703125,26.625,3.2339444375,32.837812500000005
2021-06-28 15:23:15.203125000,-55.5,-32.5,-5.0,77.35531250000001,26.31,3.233864375,32.838125000000005
2021-06-28 15:23:15.210937500,-55.25,-32.75,-5.0,77.35359375,25.835,3.2337843125,32.838437500000005
2021-06-28 15:23:15.218750000,-55.0,-33.0,-5.0,77.351875,25.36,3.23370425,32.838750000000005
2021-06-28 15:23:15.226562500,-55.25,-32.75,-5.25,77.35015625000001,24.79,3.2336241875000002,32.839062500000004
2021-06-28 15:23:15.234375000,-55.5,-32.5,-5.5,77.3484375,24.22,3.233544125,32.839375000000004
2021-06-28 15:23:15.242187500,-55.75,-32.25,-5.75,77.34671875000001,23.61,3.2334640625,32.839687500000004
2021-06-28 15:23:15.250000000,-56.0,-32.0,-6.0,77.345,23.0,3.233384,32.84
2021-06-28 15:23:15.257812500,-56.0,-32.0,-5.75,77.34328125,22.369999999999997,3.2327434375,32.84
2021-06-28 15:23:15.265625000,-56.0,-32.0,-5.5,77.34156250000001,21.74,3.232102875,32.84
2021-06-28 15:23:15.273437500,-56.0,-32.0,-5.25,77.33984375,21.085,3.2314623125,32.84
2021-06-28 15:23:15.281250000,-56.0,-32.0,-5.0,77.338125,20.43,3.23082175,32.84
2021-06-28 15:23:15.289062500,-56.0,-32.25,-5.0,77.33640625000001,19.675,3.2301811875,32.84
2021-06-28 15:23:15.296875000,-56.0,-32.5,-5.0,77.3346875,18.92,3.2295406250000003,32.84
2021-06-28 15:23:15.304687500,-56.0,-32.75,-5.0,77.33296875,17.995,3.2289000625,32.84
2021-06-28 15:23:15.312500000,-56.0,-33.0,-5.0,77.33125000000001,17.07,3.2282595,32.84
2021-06-28 15:23:15.320312500,-56.0,-33.0,-5.0,77.32953125,15.91,3.2276189375,32.84
2021-06-28 15:23:15.328125000,-56.0,-33.0,-5.0,77.32781250000001,14.75,3.226978375,32.84
2021-06-28 15:23:15.335937500,-56.0,-33.0,-5.0,77.32609375000001,13.36,3.2263378125,32.84
2021-06-28 15:23:15.343750000,-56.0,-33.0,-5.0,77.324375,11.97,3.22569725,32.84
2021-06-28 15:23:15.351562500,-55.75,-32.75,-5.0,77.32265625000001,10.415,3.2250566875,32.84
2021-06-28 15:23:15.359375000,-55.5,-32.5,-5.0,77.3209375,8.86,3.2244161250000003,32.84
2021-06-28 15:23:15.367187500,-55.25,-32.25,-5.0,77.31921875,7.255,3.2237755625,32.84
2021-06-28 15:23:15.375000000,-55.0,-32.0,-5.0,77.31750000000001,5.65,3.223135,32.84
2021-06-28 15:23:15.382812500,-55.25,-32.0,-5.0,77.31578125,4.085,3.2224944375,32.84
2021-06-28 15:23:15.390625000,-55.5,-32.0,-5.0,77.3140625,2.52,3.221853875,32.84
2021-06-28 15:23:15.398437500,-55.75,-32.0,-5.0,77.31234375000001,1.05,3.2212133125,32.84
2021-06-28 15:23:15.406250000,-56.0,-32.0,-5.0,77.310625,-0.42,3.22057275,32.84
2021-06-28 15:23:15.414062500,-56.0,-32.25,-5.0,77.30890625,-1.81,3.2199321875,32.84
2021-06-28 15:23:15.421875000,-56.0,-32.5,-5.0,77.30718750000001,-3.2,3.2192916250000003,32.84
2021-06-28 15:23:15.429687500,-56.0,-32.75,-5.0,77.30546875,-4.57,3.2186510625,32.84
2021-06-28 15:23:15.437500000,-56.0,-33.0,-5.0,77.30375000000001,-5.94,3.2180105,32.84
2021-06-28 15:23:15.445312500,-55.75,-32.75,-5.0,77.30203125000001,-7.375,3.2173699375,32.84
2021-06-28 15:23:15.453125000,-55.5,-32.5,-5.0,77.3003125,-8.81,3.216729375,32.84
2021-06-28 15:23:15.460937500,-55.25,-32.25,-5.0,77.29859375000001,-10.350000000000001,3.2160888125000002,32.84
2021-06-28 15:23:15.468750000,-55.0,-32.0,-5.0,77.296875,-11.89,3.21544825,32.84
2021-06-28 15:23:15.476562500,-55.0,-32.0,-5.25,77.29515625,-13.55,3.2148076875,32.84
2021-06-28 15:23:15.484375000,-55.0,-32.0,-5.5,77.29343750000001,-15.21,3.2141671250000003,32.84
2021-06-28 15:23:15.492187500,-55.0,-32.0,-5.75,77.29171875,-16.985,3.2135265625000002,32.84
2021-06-28 15:23:15.500000000,-55.0,-32.0,-6.0,77.29,-18.76,3.212886,32.84
2021-06-28 15:23:15.507812500,-55.0,-32.0,-6.0,77.28828125000001,-20.6,3.21276590625,32.84
2021-06-28 15:23:15.515625000,-55.0,-32.0,-6.0,77.2865625,-22.44,3.2126458125,32.84
2021-06-28 15:23:15.523437500,-55.0,-32.0,-6.0,77.28484375000001,-24.255000000000003,3.2125257187500003,32.84
2021-06-28 15:23:15.531250000,-55.0,-32.0,-6.0,77.28312500000001,-26.07,3.212405625,32.84
2021-06-28 15:23:15.539062500,-55.25,-32.25,-6.0,77.28140625,-27.725,3.21228553125,32.84
2021-06-28 15:23:15.546875000,-55.5,-32.5,-6.0,77.27968750000001,-29.38,3.2121654375,32.84
2021-06-28 15:23:15.554687500,-55.75,-32.75,-6.0,77.27796875,-30.68,3.2120453437500003,32.84
2021-06-28 15:23:15.562500000,-56.0,-33.0,-6.0,77.27625,-31.98,3.21192525,32.84
2021-06-28 15:23:15.570312500,-56.0,-33.0,-5.75,77.27453125000001,-32.685,3.21180515625,32.84
2021-06-28 15:23:15.578125000,-56.0,-33.0,-5.5,77.2728125,-33.39,3.2116850625,32.84
2021-06-28 15:23:15.585937500,-56.0,-33.0,-5.25,77.27109375,-33.3,3.21156496875,32.84
2021-06-28 15:23:15.593750000,-56.0,-33.0,-5.0,77.26937500000001,-33.21,3.211444875,32.84
2021-06-28 15:23:15.601562500,-56.0,-33.0,-5.0,77.26765625,-32.205,3.21132478125,32.84
2021-06-28 15:23:15.609375000,-56.0,-33.0,-5.0,77.2659375,-31.2,3.2112046875,32.84
2021-06-28 15:23:15.617187500,-56.0,-33.0,-5.0,77.26421875000001,-29.34,3.21108459375,32.84
2021-06-28 15:23:15.625000000,-56.0,-33.0,-5.0,77.2625,-27.48,3.2109645,32.84
2021-06-28 15:23:15.632812500,-56.0,-33.0,-5.0,77.26078125000001,-24.975,3.21084440625,32.84
2021-06-28 15:23:15.640625000,-56.0,-33.0,-5.0,77.25906250000001,-22.47,3.2107243125,32.84
2021-06-28 15:23:15.648437500,-56.0,-33.0,-5.0,77.25734375,-19.64,3.21060421875,32.84
2021-06-28 15:23:15.656250000,-56.0,-33.0,-5.0,77.25562500000001,-16.81,3.210484125,32.84
2021-06-28 15:23:15.664062500,-56.0,-32.75,-5.0,77.25390625,-13.95,3.21036403125,32.84
2021-06-28 15:23:15.671875000,-56.0,-32.5,-5.0,77.2521875,-11.09,3.2102439375,32.84
2021-06-28 15:23:15.679687500,-56.0,-32.25,-5.0,77.25046875000001,-8.405,3.21012384375,32.84
2021-06-28 15:23:15.687500000,-56.0,-32.0,-5.0,77.24875,-5.72,3.21000375,32.84
2021-06-28 15:23:15.695312500,-56.0,-32.0,-5.0,77.24703125,-3.255,3.2098836562499997,32.84
2021-06-28 15:23:15.703125000,-56.0,-32.0,-5.0,77.24531250000001,-0.79,3.2097635625,32.84
2021-06-28 15:23:15.710937500,-56.0,-32.0,-5.0,77.24359375,1.495,3.20964346875,32.84
2021-06-28 15:23:15.718750000,-56.0,-32.0,-5.0,77.24187500000001,3.78,3.209523375,32.84
2021-06-28 15:23:15.726562500,-55.75,-32.0,-5.0,77.24015625000001,5.949999999999999,3.2094032812499997,32.84
2021-06-28 15:23:15.734375000,-55.5,-32.0,-5.0,77.2384375,8.12,3.2092831875,32.84
2021-06-28 15:23:15.742187500,-55.25,-32.0,-5.0,77.23671875000001,10.165,3.20916309375,32.84
2021-06-28 15:23:15.750000000,-55.0,-32.0,-5.0,77.23500000000001,12.21,3.209043,32.84
2021-06-28 15:23:15.757812500,-55.25,-32.0,-5.0,77.23328125,14.04,3.2086826875,32.84
2021-06-28 15:23:15.765625000,-55.5,-32.0,-5.0,77.23156250000001,15.87,3.208322375,32.84
2021-06-28 15:23:15.773437500,-55.75,-32.0,-5.0,77.22984375,17.38,3.2079620625,32.84
2021-06-28 15:23:15.781250000,-56.0,-32.0,-5.0,77.228125,18.89,3.20760175,32.84
2021-06-28 15:23:15.789062500,-56.0,-32.0,-5.0,77.22640625000001,20.015,3.2072414375,32.84
2021-06-28 15:23:15.796875000,-56.0,-32.0,-5.0,77.2246875,21.14,3.2068811249999998,32.84
2021-06-28 15:23:15.804687500,-56.0,-32.0,-5.0,77.22296875,21.93,3.2065208125,32.84
2021-06-28 15:23:15.812500000,-56.0,-32.0,-5.0,77.22125000000001,22.72,3.2061604999999997,32.84
2021-06-28 15:23:15.820312500,-56.0,-32.25,-5.0,77.21953125,23.305,3.2058001875,32.84
2021-06-28 15:23:15.828125000,-56.0,-32.5,-5.0,77.21781250000001,23.89,3.2054398749999997,32.84
2021-06-28 15:23:15.835937500,-56.0,-32.75,-5.0,77.21609375000001,24.43,3.2050795625,32.84
2021-06-28 15:23:15.843750000,-56.0,-33.0,-5.0,77.214375,24.97,3.2047192499999997,32.84
2021-06-28 15:23:15.851562500,-56.0,-33.0,-5.0,77.21265625000001,25.555,3.2043589375,32.84
2021-06-28 15:23:15.859375000,-56.0,-33.0,-5.0,77.2109375,26.14,3.2039986249999997,32.84
2021-06-28 15:23:15.867187500,-56.0,-33.0,-5.0,77.20921875,26.740000000000002,3.2036383125,32.84
2021-06-28 15:23:15.875000000,-56.0,-33.0,-5.0,77.20750000000001,27.34,3.203278,32.84
2021-06-28 15:23:15.882812500,-56.0,-32.75,-5.0,77.20578125,27.869999999999997,3.2029176875,32.84
2021-06-28 15:23:15.890625000,-56.0,-32.5,-5.0,77.2040625,28.4,3.202557375,32.84
2021-06-28 15:23:15.898437500,-56.0,-32.25,-5.0,77.20234375000001,28.74,3.2021970625,32.84
2021-06-28 15:23:15.906250000,-56.0,-32.0,-5.0,77.200625,29.08,3.20183675,32.84
2021-06-28 15:23:15.914062500,-56.0,-32.0,-5.0,77.19890625000001,29.195,3.2014764374999998,32.84
2021-06-28 15:23:15.921875000,-56.0,-32.0,-5.0,77.19718750000001,29.31,3.201116125,32.84
2021-06-28 15:23:15.929687500,-56.0,-32.0,-5.0,77.19546875,29.235,3.2007558124999997,32.84
2021-06-28 15:23:15.937500000,-56.0,-32.0,-5.0,77.19375000000001,29.16,3.2003955,32.84
2021-06-28 15:23:15.945312500,-56.0,-32.0,-5.0,77.19203125000001,28.98,3.2000351874999997,32.84
2021-06-28 15:23:15.953125000,-56.0,-32.0,-5.0,77.1903125,28.8,3.199674875,32.84
2021-06-28 15:23:15.960937500,-56.0,-32.0,-5.0,77.18859375000001,28.575000000000003,3.1993145624999997,32.84
2021-06-28 15:23:15.968750000,-56.0,-32.0,-5.0,77.186875,28.35,3.19895425,32.84
2021-06-28 15:23:15.976562500,-56.0,-32.25,-5.0,77.18515625,28.095,3.1985939374999997,32.84
2021-06-28 15:23:15.984375000,-56.0,-32.5,-5.0,77.18343750000001,27.84,3.198233625,32.84
2021-06-28 15:23:15.992187500,-56.0,-32.75,-5.0,77.18171875,27.494999999999997,3.1978733124999996,32.84
2021-06-28 15:23:16.000000000,-56.0,-33.0,-5.0,77.18,27.15,3.197513,32.84
2021-06-28 15:23:16.007812500,-56.0,-33.0,-5.0,77.17796875,26.615,3.197352875,32.84
2021-06-28 15:23:16.015625000,-56.0,-33.0,-5.0,77.1759375,26.08,3.1971927499999997,32.84
2021-06-28 15:23:16.023437500,-56.0,-33.0,-5.0,77.17390625,25.314999999999998,3.197032625,32.84
2021-06-28 15:23:16.031250000,-56.0,-33.0,-5.0,77.171875,24.55,3.1968725,32.84
2021-06-28 15:23:16.039062500,-56.0,-33.0,-5.0,77.16984375000001,23.585,3.1967123749999997,32.84
2021-06-28 15:23:16.046875000,-56.0,-33.0,-5.0,77.16781250000001,22.62,3.19655225,32.84
2021-06-28 15:23:16.054687500,-56.0,-33.0,-5.0,77.16578125000001,21.55,3.196392125,32.84
2021-06-28 15:23:16.062500000,-56.0,-33.0,-5.0,77.16375000000001,20.48,3.1962319999999997,32.84
2021-06-28 15:23:16.070312500,-56.0,-32.75,-5.0,77.16171875,19.415,3.196071875,32.84
2021-06-28 15:23:16.078125000,-56.0,-32.5,-5.0,77.1596875,18.35,3.19591175,32.84
2021-06-28 15:23:16.085937500,-56.0,-32.25,-5.0,77.15765625,17.35,3.1957516249999998,32.84
2021-06-28 15:23:16.093750000,-56.0,-32.0,-5.0,77.155625,16.35,3.1955915,32.84
2021-06-28 15:23:16.101562500,-56.0,-32.0,-5.0,77.15359375000001,15.39,3.195431375,32.84
2021-06-28 15:23:16.109375000,-56.0,-32.0,-5.0,77.15156250000001,14.43,3.19527125,32.84
2021-06-28 15:23:16.117187500,-56.0,-32.0,-5.0,77.14953125000001,13.42,3.195111125,32.84
2021-06-28 15:23:16.125000000,-56.0,-32.0,-5.0,77.14750000000001,12.41,3.1949509999999997,32.84
2021-06-28 15:23:16.132812500,-56.0,-32.0,-5.25,77.14546875,11.285,3.194790875,32.84
2021-06-28 15:23:16.140625000,-56.0,-32.0,-5.5,77.1434375,10.16,3.19463075,32.84
2021-06-28 15:23:16.148437500,-56.0,-32.0,-5.75,77.14140625,8.885,3.1944706249999997,32.84
2021-06-28 15:23:16.156250000,-56.0,-32.0,-6.0,77.139375,7.61,3.1943105,32.84
2021-06-28 15:23:16.164062500,-56.0,-32.25,-5.75,77.13734375,6.265000000000001,3.194150375,32.84
2021-06-28 15:23:16.171875000,-56.0,-32.5,-5.5,77.13531250000001,4.92,3.1939902499999997,32.84
2021-06-28 15:23:16.179687500,-56.0,-32.75,-5.25,77.13328125000001,3.615,3.193830125,32.84
2021-06-28 15:23:16.187500000,-56.0,-33.0,-5.0,77.13125000000001,2.31,3.19367,32.84
2021-06-28 15:23:16.195312500,-55.75,-33.0,-5.0,77.12921875,1.125,3.1935098749999997,32.84
2021-06-28 15:23:16.203125000,-55.5,-33.0,-5.0,77.1271875,-0.06,3.19334975,32.84
2021-06-28 15:23:16.210937500,-55.25,-33.0,-5.0,77.12515625,-1.1400000000000001,3.193189625,32.84
2021-06-28 15:23:16.218750000,-55.0,-33.0,-5.0,77.123125,-2.22,3.1930294999999997,32.84
2021-06-28 15:23:16.226562500,-55.25,-33.0,-5.0,77.12109375,-3.2800000000000002,3.192869375,32.84
2021-06-28 15:23:16.234375000,-55.5,-33.0,-5.0,77.11906250000001,-4.34,3.19270925,32.84
2021-06-28 15:23:16.242187500,-55.75,-33.0,-5.0,77.11703125000001,-5.529999999999999,3.1925491249999998,32.84
2021-06-28 15:23:16.250000000,-56.0,-33.0,-5.0,77.11500000000001,-6.72,3.192389,32.84
2021-06-28 15:23:16.257812500,-56.0,-32.75,-5.0,77.11296875000001,-8.155,3.19210875,32.84
2021-06-28 15:23:16.265625000,-56.0,-32.5,-5.0,77.1109375,-9.59,3.1918284999999997,32.84
2021-06-28 15:23:16.273437500,-56.0,-32.25,-5.0,77.10890625,-11.315,3.19154825,32.84
2021-06-28 15:23:16.281250000,-56.0,-32.0,-5.0,77.106875,-13.04,3.191268,32.84
2021-06-28 15:23:16.289062500,-56.0,-32.0,-5.25,77.10484375,-15.04,3.19098775,32.84
2021-06-28 15:23:16.296875000,-56.0,-32.0,-5.5,77.1028125,-17.04,3.1907075,32.84
2021-06-28 15:23:16.304687500,-56.0,-32.0,-5.75,77.10078125000001,-19.205,3.19042725,32.84
2021-06-28 15:23:16.312500000,-56.0,-32.0,-6.0,77.09875000000001,-21.37,3.190147,32.84
2021-06-28 15:23:16.320312500,-56.0,-32.0,-6.0,77.09671875000001,-23.585,3.1898667499999998,32.84
2021-06-28 15:23:16.328125000,-56.0,-32.0,-6.0,77.0946875,-25.8,3.1895865,32.84
2021-06-28 15:23:16.335937500,-56.0,-32.0,-6.0,77.09265625,-27.87,3.18930625,32.84
2021-06-28 15:23:16.343750000,-56.0,-32.0,-6.0,77.090625,-29.94,3.189026,32.84
2021-06-28 15:23:16.351562500,-56.0,-32.0,-6.0,77.08859375,-31.634999999999998,3.18874575,32.84
2021-06-28 15:23:16.359375000,-56.0,-32.0,-6.0,77.0865625,-33.33,3.1884655,32.84
2021-06-28 15:23:16.367187500,-56.0,-32.0,-6.0,77.08453125000001,-34.375,3.18818525,32.84
2021-06-28 15:23:16.375000000,-56.0,-32.0,-6.0,77.08250000000001,-35.42,3.1879049999999998,32.84
2021-06-28 15:23:16.382812500,-56.0,-32.25,-5.75,77.08046875000001,-35.595,3.18762475,32.84
2021-06-28 15:23:16.390625000,-56.0,-32.5,-5.5,77.0784375,-35.77,3.1873445,32.84
2021-06-28 15:23:16.398437500,-56.0,-32.75,-5.25,77.07640625,-34.975,3.18706425,32.84
2021-06-28 15:23:16.406250000,-56.0,-33.0,-5.0,77.074375,-34.18,3.186784,32.84
2021-06-28 15:23:16.414062500,-56.0,-32.75,-5.0,77.07234375,-32.485,3.18650375,32.84
2021-06-28 15:23:16.421875000,-56.0,-32.5,-5.0,77.0703125,-30.79,3.1862235,32.84
2021-06-28 15:23:16.429687500,-56.0,-32.25,-5.0,77.06828125,-28.435,3.1859432500000002,32.84
2021-06-28 15:23:16.437500000,-56.0,-32.0,-5.0,77.06625000000001,-26.08,3.185663,32.84
2021-06-28 15:23:16.445312500,-56.0,-32.25,-5.0,77.06421875000001,-23.384999999999998,3.18538275,32.84
2021-06-28 15:23:16.453125000,-56.0,-32.5,-5.0,77.06218750000001,-20.69,3.1851025,32.84
2021-06-28 15:23:16.460937500,-56.0,-32.75,-5.0,77.06015625,-17.935000000000002,3.18482225,32.84
2021-06-28 15:23:16.468750000,-56.0,-33.0,-5.0,77.058125,-15.18,3.184542,32.84
2021-06-28 15:23:16.476562500,-56.0,-32.75,-5.0,77.05609375,-12.54,3.18426175,32.84
2021-06-28 15:23:16.484375000,-56.0,-32.5,-5.0,77.0540625,-9.9,3.1839815000000002,32.84
2021-06-28 15:23:16.492187500,-56.0,-32.25,-5.0,77.05203125,-7.4350000000000005,3.18370125,32.84
2021-06-28 15:23:16.500000000,-56.0,-32.0,-5.0,77.05000000000001,-4.97,3.183421,32.84
2021-06-28 15:23:16.507812500,-56.0,-32.0,-5.25,77.04796875000001,-2.675,3.18302065625,32.84
2021-06-28 15:23:16.515625000,-56.0,-32.0,-5.5,77.04593750000001,-0.38,3.1826203125,32.84
2021-06-28 15:23:16.523437500,-56.0,-32.0,-5.75,77.04390625,1.7350000000000003,3.18221996875,32.84
2021-06-28 15:23:16.531250000,-56.0,-32.0,-6.0,77.041875,3.85,3.181819625,32.84
2021-06-28 15:23:16.539062500,-56.0,-32.0,-5.75,77.03984375,5.76,3.18141928125,32.84
2021-06-28 15:23:16.546875000,-56.0,-32.0,-5.5,77.0378125,7.67,3.1810189375,32.84
2021-06-28 15:23:16.554687500,-56.0,-32.0,-5.25,77.03578125,9.325,3.1806185937500002,32.84
2021-06-28 15:23:16.562500000,-56.0,-32.0,-5.0,77.03375,10.98,3.1802182500000002,32.84
2021-06-28 15:23:16.570312500,-56.0,-32.0,-5.0,77.03171875000001,12.365,3.17981790625,32.84
2021-06-28 15:23:16.578125000,-56.0,-32.0,-5.0,77.02968750000001,13.75,3.1794175625,32.84
2021-06-28 15:23:16.585937500,-56.0,-32.0,-5.0,77.02765625,14.935,3.17901721875,32.84
2021-06-28 15:23:16.593750000,-56.0,-32.0,-5.0,77.025625,16.12,3.178616875,32.84
2021-06-28 15:23:16.601562500,-56.0,-32.25,-5.0,77.02359375,17.19,3.17821653125,32.84
2021-06-28 15:23:16.609375000,-56.0,-32.5,-5.0,77.0215625,18.26,3.1778161875,32.84
2021-06-28 15:23:16.617187500,-56.0,-32.75,-5.0,77.01953125,19.295,3.17741584375,32.84
2021-06-28 15:23:16.625000000,-56.0,-33.0,-5.0,77.0175,20.33,3.1770155,32.84
2021-06-28 15:23:16.632812500,-56.0,-32.75,-5.0,77.01546875,21.345,3.17661515625,32.84
2021-06-28 15:23:16.640625000,-56.0,-32.5,-5.0,77.01343750000001,22.36,3.1762148125,32.84
2021-06-28 15:23:16.648437500,-56.0,-32.25,-5.0,77.01140625000001,23.275,3.17581446875,32.84
2021-06-28 15:23:16.656250000,-56.0,-32.0,-5.0,77.009375,24.19,3.175414125,32.84
2021-06-28 15:23:16.664062500,-56.0,-32.0,-5.0,77.00734375,24.880000000000003,3.17501378125,32.84
2021-06-28 15:23:16.671875000,-56.0,-32.0,-5.0,77.0053125,25.57,3.1746134375,32.84
2021-06-28 15:23:16.679687500,-56.0,-32.0,-5.0,77.00328125,25.965,3.17421309375,32.84
2021-06-28 15:23:16.687500000,-56.0,-32.0,-5.0,77.00125,26.36,3.1738127499999997,32.84
2021-06-28 15:23:16.695312500,-56.0,-32.0,-5.25,76.99921875,26.46,3.1734124062499998,32.84
2021-06-28 15:23:16.703125000,-56.0,-32.0,-5.5,76.99718750000001,26.56,3.1730120625,32.84
2021-06-28 15:23:16.710937500,-56.0,-32.0,-5.75,76.99515625000001,26.445,3.17261171875,32.84
2021-06-28 15:23:16.718750000,-56.0,-32.0,-6.0,76.993125,26.33,3.172211375,32.84
2021-06-28 15:23:16.726562500,-56.0,-32.0,-5.75,76.99109375,26.1,3.17181103125,32.84
2021-06-28 15:23:16.734375000,-56.0,-32.0,-5.5,76.9890625,25.87,3.1714106875,32.84
2021-06-28 15:23:16.742187500,-56.0,-32.0,-5.25,76.98703125,25.58,3.17101034375,32.84
2021-06-28 15:23:16.750000000,-56.0,-32.0,-5.0,76.985,25.29,3.17061,32.84
2021-06-28 15:23:16.757812500,-56.0,-32.0,-5.0,76.98296875,24.935,3.1705299375,32.84
2021-06-28 15:23:16.765625000,-56.0,-32.0,-5.0,76.9809375,24.58,3.170449875,32.84
2021-06-28 15:23:16.773437500,-56.0,-32.0,-5.0,76.97890625000001,24.115,3.1703698125,32.84
2021-06-28 15:23:16.781250000,-56.0,-32.0,-5.0,76.976875,23.65,3.17028975,32.84
2021-06-28 15:23:16.789062500,-56.0,-32.0,-5.0,76.97484375,23.03,3.1702096875,32.84
2021-06-28 15:23:16.796875000,-56.0,-32.0,-5.0,76.9728125,22.41,3.170129625,32.84
2021-06-28 15:23:16.804687500,-56.0,-32.0,-5.0,76.97078125,21.630000000000003,3.1700495625,32.84
2021-06-28 15:23:16.812500000,-56.0,-32.0,-5.0,76.96875,20.85,3.1699695,32.84
2021-06-28 15:23:16.820312500,-56.0,-32.0,-5.0,76.96671875,19.96,3.1698894375,32.84
2021-06-28 15:23:16.828125000,-56.0,-32.0,-5.0,76.9646875,19.07,3.169809375,32.84
2021-06-28 15:23:16.835937500,-56.0,-32.0,-5.0,76.96265625000001,18.130000000000003,3.1697293125,32.84
2021-06-28 15:23:16.843750000,-56.0,-32.0,-5.0,76.96062500000001,17.19,3.16964925,32.84
2021-06-28 15:23:16.851562500,-56.0,-32.25,-5.0,76.95859375,16.23,3.1695691875,32.84
2021-06-28 15:23:16.859375000,-56.0,-32.5,-5.0,76.9565625,15.27,3.169489125,32.84
2021-06-28 15:23:16.867187500,-56.0,-32.75,-5.0,76.95453125,14.27,3.1694090625,32.84
2021-06-28 15:23:16.875000000,-56.0,-33.0,-5.0,76.9525,13.27,3.1693290000000003,32.84
2021-06-28 15:23:16.882812500,-55.75,-32.75,-5.0,76.95046875,12.17,3.1692489375,32.84
2021-06-28 15:23:16.890625000,-55.5,-32.5,-5.0,76.9484375,11.07,3.169168875,32.84
2021-06-28 15:23:16.898437500,-55.25,-32.25,-5.0,76.94640625,9.83,3.1690888125,32.84
2021-06-28 15:23:16.906250000,-55.0,-32.0,-5.0,76.94437500000001,8.59,3.16900875,32.84
2021-06-28 15:23:16.914062500,-55.25,-32.0,-5.0,76.94234375,7.22,3.1689286875000002,32.84
2021-06-28 15:23:16.921875000,-55.5,-32.0,-5.0,76.9403125,5.85,3.1688486250000003,32.84
2021-06-28 15:23:16.929687500,-55.75,-32.0,-5.0,76.93828125,4.42,3.1687685625,32.84
2021-06-28 15:23:16.937500000,-56.0,-32.0,-5.0,76.93625,2.99,3.1686885,32.84
2021-06-28 15:23:16.945312500,-56.0,-32.25,-5.0,76.93421875,1.5850000000000002,3.1686084375,32.84
2021-06-28 15:23:16.953125000,-56.0,-32.5,-5.0,76.9321875,0.18,3.168528375,32.84
2021-06-28 15:23:16.960937500,-56.0,-32.75,-5.0,76.93015625,-1.1400000000000001,3.1684483125000003,32.84
2021-06-28 15:23:16.968750000,-56.0,-33.0,-5.0,76.92812500000001,-2.46,3.1683682500000003,32.84
2021-06-28 15:23:16.976562500,-56.0,-32.75,-5.0,76.92609375,-3.695,3.1682881875,32.84
2021-06-28 15:23:16.984375000,-56.0,-32.5,-5.0,76.9240625,-4.93,3.168208125,32.84
2021-06-28 15:23:16.992187500,-56.0,-32.25,-5.0,76.92203125,-6.125,3.1681280625,32.84
2021-06-28 15:23:17.000000000,-56.0,-32.0,-5.0,76.92,-7.32,3.168048,32.84
2021-06-28 15:23:17.007812500,-56.0,-32.0,-5.0,76.917734375,-8.55,3.167927875,32.839687500000004
2021-06-28 15:23:17.015625000,-56.0,-32.0,-5.0,76.91546875,-9.78,3.16780775,32.839375000000004
2021-06-28 15:23:17.023437500,-56.0,-32.0,-5.0,76.913203125,-11.11,3.167687625,32.839062500000004
2021-06-28 15:23:17.031250000,-56.0,-32.0,-5.0,76.9109375,-12.44,3.1675675,32.838750000000005
2021-06-28 15:23:17.039062500,-56.0,-32.25,-5.0,76.908671875,-13.915,3.167447375,32.838437500000005
2021-06-28 15:23:17.046875000,-56.0,-32.5,-5.0,76.90640625,-15.39,3.16732725,32.838125000000005
2021-06-28 15:23:17.054687500,-56.0,-32.75,-5.0,76.904140625,-17.025,3.167207125,32.837812500000005
2021-06-28 15:23:17.062500000,-56.0,-33.0,-5.0,76.901875,-18.66,3.167087,32.837500000000006
2021-06-28 15:23:17.070312500,-55.75,-32.75,-5.0,76.899609375,-20.445,3.166966875,32.8371875
2021-06-28 15:23:17.078125000,-55.5,-32.5,-5.0,76.89734375,-22.23,3.16684675,32.836875
2021-06-28 15:23:17.085937500,-55.25,-32.25,-5.0,76.895078125,-24.14,3.166726625,32.8365625
2021-06-28 15:23:17.093750000,-55.0,-32.0,-5.0,76.8928125,-26.05,3.1666065,32.83625
2021-06-28 15:23:17.101562500,-55.25,-32.0,-5.0,76.890546875,-28.015,3.166486375,32.8359375
2021-06-28 15:23:17.109375000,-55.5,-32.0,-5.0,76.88828125,-29.98,3.16636625,32.835625
2021-06-28 15:23:17.117187500,-55.75,-32.0,-5.0,76.886015625,-31.83,3.166246125,32.8353125
2021-06-28 15:23:17.125000000,-56.0,-32.0,-5.0,76.88375,-33.68,3.166126,32.835
2021-06-28 15:23:17.132812500,-56.0,-32.25,-5.25,76.881484375,-35.185,3.166005875,32.8346875
2021-06-28 15:23:17.140625000,-56.0,-32.5,-5.5,76.87921875,-36.69,3.16588575,32.834375
2021-06-28 15:23:17.148437500,-56.0,-32.75,-5.75,76.876953125,-37.555,3.165765625,32.8340625
2021-06-28 15:23:17.156250000,-56.0,-33.0,-6.0,76.87468750000001,-38.42,3.1656455,32.83375
2021-06-28 15:23:17.164062500,-56.0,-32.75,-5.75,76.872421875,-38.425,3.165525375,32.8334375
2021-06-28 15:23:17.171875000,-56.0,-32.5,-5.5,76.87015625,-38.43,3.16540525,32.833125
2021-06-28 15:23:17.179687500,-56.0,-32.25,-5.25,76.867890625,-37.480000000000004,3.165285125,32.8328125
2021-06-28 15:23:17.187500000,-56.0,-32.0,-5.0,76.865625,-36.53,3.165165,32.832499999999996
2021-06-28 15:23:17.195312500,-55.75,-32.0,-5.0,76.863359375,-34.705,3.165044875,32.832187499999996
2021-06-28 15:23:17.203125000,-55.5,-32.0,-5.0,76.86109375,-32.88,3.16492475,32.831875
2021-06-28 15:23:17.210937500,-55.25,-32.0,-5.0,76.858828125,-30.425,3.164804625,32.8315625
2021-06-28 15:23:17.218750000,-55.0,-32.0,-5.0,76.8565625,-27.97,3.1646845,32.83125
2021-06-28 15:23:17.226562500,-55.25,-32.0,-5.0,76.854296875,-25.195,3.164564375,32.8309375
2021-06-28 15:23:17.234375000,-55.5,-32.0,-5.0,76.85203125,-22.42,3.16444425,32.830625
2021-06-28 15:23:17.242187500,-55.75,-32.0,-5.0,76.849765625,-19.625,3.164324125,32.8303125
2021-06-28 15:23:17.250000000,-56.0,-32.0,-5.0,76.8475,-16.83,3.164204,32.83
2021-06-28 15:23:17.257812500,-56.0,-32.25,-5.0,76.845234375,-14.219999999999999,3.1638837187499997,32.83
2021-06-28 15:23:17.265625000,-56.0,-32.5,-5.0,76.84296875,-11.61,3.1635634374999997,32.83
2021-06-28 15:23:17.273437500,-56.0,-32.75,-5.0,76.840703125,-9.285,3.1632431562499996,32.83
2021-06-28 15:23:17.281250000,-56.0,-33.0,-5.0,76.8384375,-6.96,3.1629228749999996,32.83
2021-06-28 15:23:17.289062500,-56.0,-32.75,-5.0,76.836171875,-4.92,3.16260259375,32.83
2021-06-28 15:23:17.296875000,-56.0,-32.5,-5.0,76.83390625,-2.88,3.1622823125,32.83
2021-06-28 15:23:17.304687500,-56.0,-32.25,-5.0,76.831640625,-1.0499999999999998,3.16196203125,32.83
2021-06-28 15:23:17.312500000,-56.0,-32.0,-5.0,76.829375,0.78,3.16164175,32.83
2021-06-28 15:23:17.320312500,-56.0,-32.0,-5.0,76.827109375,2.45,3.1613214687499998,32.83
2021-06-28 15:23:17.328125000,-56.0,-32.0,-5.0,76.82484375,4.12,3.1610011874999997,32.83
2021-06-28 15:23:17.335937500,-56.0,-32.0,-5.0,76.82257812499999,5.67,3.1606809062499996,32.83
2021-06-28 15:23:17.343750000,-56.0,-32.0,-5.0,76.8203125,7.22,3.160360625,32.83
2021-06-28 15:23:17.351562500,-56.0,-32.25,-5.0,76.818046875,8.62,3.16004034375,32.83
2021-06-28 15:23:17.359375000,-56.0,-32.5,-5.0,76.81578125,10.02,3.1597200625,32.83
2021-06-28 15:23:17.367187500,-56.0,-32.75,-5.0,76.813515625,11.215,3.15939978125,32.83
2021-06-28 15:23:17.375000000,-56.0,-33.0,-5.0,76.81125,12.41,3.1590795,32.83
2021-06-28 15:23:17.382812500,-56.0,-32.75,-5.0,76.808984375,13.335,3.1587592187499998,32.83
2021-06-28 15:23:17.390625000,-56.0,-32.5,-5.0,76.80671875,14.26,3.1584389374999997,32.83
2021-06-28 15:23:17.398437500,-56.0,-32.25,-5.0,76.804453125,14.879999999999999,3.1581186562499997,32.83
2021-06-28 15:23:17.406250000,-56.0,-32.0,-5.0,76.8021875,15.5,3.1577983749999996,32.83
2021-06-28 15:23:17.414062500,-56.0,-32.0,-5.0,76.799921875,15.85,3.15747809375,32.83
2021-06-28 15:23:17.421875000,-56.0,-32.0,-5.0,76.79765625,16.2,3.1571578125,32.83
2021-06-28 15:23:17.429687500,-56.0,-32.0,-5.0,76.795390625,16.36,3.15683753125,32.83
2021-06-28 15:23:17.437500000,-56.0,-32.0,-5.0,76.793125,16.52,3.15651725,32.83
2021-06-28 15:23:17.445312500,-56.0,-32.0,-5.0,76.790859375,16.6,3.1561969687499998,32.83
2021-06-28 15:23:17.453125000,-56.0,-32.0,-5.0,76.78859375,16.68,3.1558766874999997,32.83
2021-06-28 15:23:17.460937500,-56.0,-32.0,-5.0,76.786328125,16.75,3.1555564062499997,32.83
2021-06-28 15:23:17.468750000,-56.0,-32.0,-5.0,76.7840625,16.82,3.155236125,32.83
2021-06-28 15:23:17.476562500,-56.0,-32.0,-5.0,76.781796875,16.92,3.15491584375,32.83
2021-06-28 15:23:17.484375000,-56.0,-32.0,-5.0,76.77953125,17.02,3.1545955625,32.83
2021-06-28 15:23:17.492187500,-56.0,-32.0,-5.0,76.777265625,17.14,3.15427528125,32.83
2021-06-28 15:23:17.500000000,-56.0,-32.0,-5.0,76.775,17.26,3.153955,32.83
2021-06-28 15:23:17.507812500,-56.0,-32.25,-5.0,76.772734375,17.37,3.1536347499999997,32.83
2021-06-28 15:23:17.515625000,-56.0,-32.5,-5.0,76.77046874999999,17.48,3.1533145,32.83
2021-06-28 15:23:17.523437500,-56.0,-32.75,-5.0,76.768203125,17.545,3.15299425,32.83
2021-06-28 15:23:17.531250000,-56.0,-33.0,-5.0,76.76593749999999,17.61,3.1526739999999998,32.83
2021-06-28 15:23:17.539062500,-55.75,-32.75,-5.0,76.763671875,17.61,3.15235375,32.83
2021-06-28 15:23:17.546875000,-55.5,-32.5,-5.0,76.76140625,17.61,3.1520335,32.83
2021-06-28 15:23:17.554687500,-55.25,-32.25,-5.0,76.759140625,17.5,3.15171325,32.83
2021-06-28 15:23:17.562500000,-55.0,-32.0,-5.0,76.756875,17.39,3.1513929999999997,32.83
2021-06-28 15:23:17.570312500,-55.25,-32.25,-5.0,76.754609375,17.15,3.15107275,32.83
2021-06-28 15:23:17.578125000,-55.5,-32.5,-5.0,76.75234375,16.91,3.1507525,32.83
2021-06-28 15:23:17.585937500,-55.75,-32.75,-5.0,76.750078125,16.52,3.1504322499999997,32.83
2021-06-28 15:23:17.593750000,-56.0,-33.0,-5.0,76.7478125,16.13,3.150112,32.83
2021-06-28 15:23:17.601562500,-56.0,-32.75,-5.0,76.745546875,15.559999999999999,3.14979175,32.83
2021-06-28 15:23:17.609375000,-56.0,-32.5,-5.0,76.74328125,14.99,3.1494714999999998,32.83
2021-06-28 15:23:17.617187500,-56.0,-32.25,-5.0,76.741015625,14.235,3.14915125,32.83
2021-06-28 15:23:17.625000000,-56.0,-32.0,-5.0,76.73875,13.48,3.148831,32.83
2021-06-28 15:23:17.632812500,-56.0,-32.25,-5.0,76.736484375,12.55,3.14851075,32.83
2021-06-28 15:23:17.640625000,-56.0,-32.5,-5.0,76.73421875,11.62,3.1481905,32.83
2021-06-28 15:23:17.648437500,-56.0,-32.75,-5.0,76.731953125,10.54,3.14787025,32.83
2021-06-28 15:23:17.656250000,-56.0,-33.0,-5.0,76.7296875,9.46,3.14755,32.83
2021-06-28 15:23:17.664062500,-55.75,-32.75,-5.25,76.727421875,8.295,3.14722975,32.83
2021-06-28 15:23:17.671875000,-55.5,-32.5,-5.5,76.72515625,7.13,3.1469095,32.83
2021-06-28 15:23:17.679687500,-55.25,-32.25,-5.75,76.72289062499999,5.945,3.14658925,32.83
2021-06-28 15:23:17.687500000,-55.0,-32.0,-6.0,76.720625,4.76,3.146269,32.83
2021-06-28 15:23:17.695312500,-55.25,-32.25,-5.75,76.71835937499999,3.625,3.14594875,32.83
2021-06-28 15:23:17.703125000,-55.5,-32.5,-5.5,76.71609375,2.49,3.1456285,32.83
2021-06-28 15:23:17.710937500,-55.75,-32.75,-5.25,76.71382812499999,1.4500000000000002,3.14530825,32.83
2021-06-28 15:23:17.718750000,-56.0,-33.0,-5.0,76.7115625,0.41,3.144988,32.83
2021-06-28 15:23:17.726562500,-56.0,-33.0,-5.0,76.70929687499999,-0.5149999999999999,3.14466775,32.83
2021-06-28 15:23:17.734375000,-56.0,-33.0,-5.0,76.70703125,-1.44,3.1443475,32.83
2021-06-28 15:23:17.742187500,-56.0,-33.0,-5.0,76.704765625,-2.27,3.14402725,32.83
2021-06-28 15:23:17.750000000,-56.0,-33.0,-5.0,76.7025,-3.1,3.143707,32.83
2021-06-28 15:23:17.757812500,-55.75,-32.75,-5.0,76.700234375,-3.8899999999999997,3.143707,32.83
2021-06-28 15:23:17.765625000,-55.5,-32.5,-5.0,76.69796875,-4.68,3.143707,32.83
2021-06-28 15:23:17.773437500,-55.25,-32.25,-5.0,76.695703125,-5.505,3.143707,32.83
2021-06-28 15:23:17.781250000,-55.0,-32.0,-5.0,76.6934375,-6.33,3.143707,32.83
2021-06-28 15:23:17.789062500,-55.25,-32.0,-5.0,76.691171875,-7.265,3.143707,32.83
2021-06-28 15:23:17.796875000,-55.5,-32.0,-5.0,76.68890625,-8.2,3.143707,32.83
2021-06-28 15:23:17.804687500,-55.75,-32.0,-5.0,76.686640625,-9.295,3.143707,32.83
2021-06-28 15:23:17.812500000,-56.0,-32.0,-5.0,76.684375,-10.39,3.143707,32.83
2021-06-28 15:23:17.820312500,-56.0,-32.0,-5.0,76.682109375,-11.68,3.143707,32.83
2021-06-28 15:23:17.828125000,-56.0,-32.0,-5.0,76.67984375,-12.97,3.143707,32.83
2021-06-28 15:23:17.835937500,-56.0,-32.0,-5.0,76.677578125,-14.47,3.143707,32.83
2021-06-28 15:23:17.843750000,-56.0,-32.0,-5.0,76.67531249999999,-15.97,3.143707,32.83
2021-06-28 15:23:17.851562500,-56.0,-32.25,-5.0,76.673046875,-17.65,3.143707,32.83
2021-06-28 15:23:17.859375000,-56.0,-32.5,-5.0,76.67078124999999,-19.33,3.143707,32.83
2021-06-28 15:23:17.867187500,-56.0,-32.75,-5.0,76.668515625,-21.085,3.143707,32.83
2021-06-28 15:23:17.875000000,-56.0,-33.0,-5.0,76.66624999999999,-22.84,3.143707,32.83
2021-06-28 15:23:17.882812500,-56.0,-32.75,-5.0,76.663984375,-24.490000000000002,3.143707,32.83
2021-06-28 15:23:17.890625000,-56.0,-32.5,-5.0,76.66171874999999,-26.14,3.143707,32.83
2021-06-28 15:23:17.898437500,-56.0,-32.25,-5.0,76.659453125,-27.435000000000002,3.143707,32.83
2021-06-28 15:23:17.906250000,-56.0,-32.0,-5.0,76.65718749999999,-28.73,3.143707,32.83
2021-06-28 15:23:17.914062500,-56.0,-32.0,-5.0,76.654921875,-29.395,3.143707,32.83
2021-06-28 15:23:17.921875000,-56.0,-32.0,-5.0,76.65265624999999,-30.06,3.143707,32.83
2021-06-28 15:23:17.929687500,-56.0,-32.0,-5.0,76.650390625,-29.895,3.143707,32.83
2021-06-28 15:23:17.937500000,-56.0,-32.0,-5.0,76.648125,-29.73,3.143707,32.83
2021-06-28 15:23:17.945312500,-55.75,-32.0,-5.0,76.645859375,-28.689999999999998,3.143707,32.83
2021-06-28 15:23:17.953125000,-55.5,-32.0,-5.0,76.64359375,-27.65,3.143707,32.83
2021-06-28 15:23:17.960937500,-55.25,-32.0,-5.0,76.641328125,-25.845,3.143707,32.83
2021-06-28 15:23:17.968750000,-55.0,-32.0,-5.0,76.6390625,-24.04,3.143707,32.83
2021-06-28 15:23:17.976562500,-55.25,-32.0,-5.25,76.636796875,-21.735,3.143707,32.83
2021-06-28 15:23:17.984375000,-55.5,-32.0,-5.5,76.63453125,-19.43,3.143707,32.83
2021-06-28 15:23:17.992187500,-55.75,-32.0,-5.75,76.632265625,-16.95,3.143707,32.83
2021-06-28 15:23:18.000000000,-56.0,-32.0,-6.0,76.63,-14.47,3.143707,32.83
2021-06-28 15:23:18.007812500,-56.0,-32.25,-5.75,76.62796875,-12.075,3.14338671875,32.83
2021-06-28 15:23:18.015625000,-56.0,-32.5,-5.5,76.62593749999999,-9.68,3.1430664375,32.83
2021-06-28 15:23:18.023437500,-56.0,-32.75,-5.25,76.62390624999999,-7.515,3.14274615625,32.83
2021-06-28 15:23:18.031250000,-56.0,-33.0,-5.0,76.62187499999999,-5.35,3.142425875,32.83
2021-06-28 15:23:18.039062500,-56.0,-33.0,-5.0,76.61984375,-3.425,3.14210559375,32.83
2021-06-28 15:23:18.046875000,-56.0,-33.0,-5.0,76.6178125,-1.5,3.1417853125,32.83
2021-06-28 15:23:18.054687500,-56.0,-33.0,-5.0,76.61578125,0.26,3.14146503125,32.83
2021-06-28 15:23:18.062500000,-56.0,-33.0,-5.0,76.61375,2.02,3.14114475,32.83
2021-06-28 15:23:18.070312500,-56.0,-32.75,-5.0,76.61171875,3.665,3.14082446875,32.83
2021-06-28 15:23:18.078125000,-56.0,-32.5,-5.0,76.60968749999999,5.31,3.1405041875,32.83
2021-06-28 15:23:18.085937500,-56.0,-32.25,-5.0,76.60765624999999,6.824999999999999,3.14018390625,32.83
2021-06-28 15:23:18.093750000,-56.0,-32.0,-5.0,76.605625,8.34,3.1398636250000003,32.83
2021-06-28 15:23:18.101562500,-56.0,-32.25,-5.0,76.60359375,9.645,3.13954334375,32.83
2021-06-28 15:23:18.109375000,-56.0,-32.5,-5.0,76.6015625,10.95,3.1392230625,32.83
2021-06-28 15:23:18.117187500,-56.0,-32.75,-5.0,76.59953125,11.965,3.13890278125,32.83
2021-06-28 15:23:18.125000000,-56.0,-33.0,-5.0,76.5975,12.98,3.1385825,32.83
2021-06-28 15:23:18.132812500,-56.0,-33.0,-5.0,76.59546875,13.685,3.13826221875,32.83
2021-06-28 15:23:18.140625000,-56.0,-33.0,-5.0,76.5934375,14.39,3.1379419375,32.83
2021-06-28 15:23:18.148437500,-56.0,-33.0,-5.0,76.59140624999999,14.850000000000001,3.13762165625,32.83
2021-06-28 15:23:18.156250000,-56.0,-33.0,-5.0,76.58937499999999,15.31,3.137301375,32.83
2021-06-28 15:23:18.164062500,-55.75,-33.0,-5.0,76.58734375,15.655000000000001,3.1369810937500002,32.83
2021-06-28 15:23:18.171875000,-55.5,-33.0,-5.0,76.5853125,16.0,3.1366608125,32.83
2021-06-28 15:23:18.179687500,-55.25,-33.0,-5.0,76.58328125,16.34,3.13634053125,32.83
2021-06-28 15:23:18.187500000,-55.0,-33.0,-5.0,76.58125,16.68,3.13602025,32.83
2021-06-28 15:23:18.195312500,-55.25,-33.0,-5.0,76.57921875,17.045,3.13569996875,32.83
2021-06-28 15:23:18.203125000,-55.5,-33.0,-5.0,76.5771875,17.41,3.1353796875,32.83
2021-06-28 15:23:18.210937500,-55.75,-33.0,-5.0,76.57515624999999,17.755000000000003,3.13505940625,32.83
2021-06-28 15:23:18.218750000,-56.0,-33.0,-5.0,76.573125,18.1,3.1347391250000003,32.83
2021-06-28 15:23:18.226562500,-56.0,-33.0,-5.25,76.57109375,18.375,3.1344188437500002,32.83
2021-06-28 15:23:18.234375000,-56.0,-33.0,-5.5,76.5690625,18.65,3.1340985625,32.83
2021-06-28 15:23:18.242187500,-56.0,-33.0,-5.75,76.56703125,18.81,3.13377828125,32.83
2021-06-28 15:23:18.250000000,-56.0,-33.0,-6.0,76.565,18.97,3.133458,32.83
2021-06-28 15:23:18.257812500,-55.75,-33.0,-5.75,76.56296875,19.055,3.1334980312500003,32.83
2021-06-28 15:23:18.265625000,-55.5,-33.0,-5.5,76.5609375,19.14,3.1335380625,32.83
2021-06-28 15:23:18.273437500,-55.25,-33.0,-5.25,76.55890624999999,19.18,3.13357809375,32.83
2021-06-28 15:23:18.281250000,-55.0,-33.0,-5.0,76.55687499999999,19.22,3.133618125,32.83
2021-06-28 15:23:18.289062500,-55.0,-33.0,-5.0,76.55484375,19.22,3.13365815625,32.83
2021-06-28 15:23:18.296875000,-55.0,-33.0,-5.0,76.5528125,19.22,3.1336981875000003,32.83
2021-06-28 15:23:18.304687500,-55.0,-33.0,-5.0,76.55078125,19.13,3.13373821875,32.83
2021-06-28 15:23:18.312500000,-55.0,-33.0,-5.0,76.54875,19.04,3.13377825,32.83
2021-06-28 15:23:18.320312500,-55.0,-33.0,-5.0,76.54671875,18.759999999999998,3.13381828125,32.83
2021-06-28 15:23:18.328125000,-55.0,-33.0,-5.0,76.5446875,18.48,3.1338583125,32.83
2021-06-28 15:23:18.335937500,-55.0,-33.0,-5.0,76.54265625,17.93,3.1338983437500003,32.83
2021-06-28 15:23:18.343750000,-55.0,-33.0,-5.0,76.540625,17.38,3.133938375,32.83
2021-06-28 15:23:18.351562500,-55.0,-32.75,-5.0,76.53859375,16.575,3.1339784062500002,32.83
2021-06-28 15:23:18.359375000,-55.0,-32.5,-5.0,76.5365625,15.77,3.1340184375,32.83
2021-06-28 15:23:18.367187500,-55.0,-32.25,-5.0,76.53453125,14.774999999999999,3.13405846875,32.83
2021-06-28 15:23:18.375000000,-55.0,-32.0,-5.0,76.5325,13.78,3.1340985000000003,32.83
2021-06-28 15:23:18.382812500,-55.25,-32.25,-5.0,76.53046875,12.7,3.13413853125,32.83
2021-06-28 15:23:18.390625000,-55.5,-32.5,-5.0,76.5284375,11.62,3.1341785625000003,32.83
2021-06-28 15:23:18.398437500,-55.75,-32.75,-5.0,76.52640625,10.535,3.13421859375,32.83
2021-06-28 15:23:18.406250000,-56.0,-33.0,-5.0,76.52437499999999,9.45,3.134258625,32.83
2021-06-28 15:23:18.414062500,-56.0,-33.0,-5.0,76.52234375,8.385,3.13429865625,32.83
2021-06-28 15:23:18.421875000,-56.0,-33.0,-5.0,76.5203125,7.32,3.1343386875,32.83
2021-06-28 15:23:18.429687500,-56.0,-33.0,-5.0,76.51828125,6.265000000000001,3.1343787187500003,32.83
2021-06-28 15:23:18.437500000,-56.0,-33.0,-5.0,76.51625,5.21,3.13441875,32.83
2021-06-28 15:23:18.445312500,-55.75,-33.0,-5.0,76.51421875,4.16,3.13445878125,32.83
2021-06-28 15:23:18.453125000,-55.5,-33.0,-5.0,76.5121875,3.11,3.1344988125,32.83
2021-06-28 15:23:18.460937500,-55.25,-33.0,-5.0,76.51015625,2.075,3.13453884375,32.83
2021-06-28 15:23:18.468750000,-55.0,-33.0,-5.0,76.508125,1.04,3.1345788750000003,32.83
2021-06-28 15:23:18.476562500,-55.25,-33.0,-5.25,76.50609375,0.040000000000000036,3.13461890625,32.83
2021-06-28 15:23:18.484375000,-55.5,-33.0,-5.5,76.5040625,-0.96,3.1346589375000002,32.83
2021-06-28 15:23:18.492187500,-55.75,-33.0,-5.75,76.50203125,-1.925,3.13469896875,32.83
2021-06-28 15:23:18.500000000,-56.0,-33.0,-6.0,76.5,-2.89,3.134739,32.83
2021-06-28 15:23:18.507812500,-56.0,-32.75,-5.75,76.49796875,-3.8600000000000003,3.13441871875,32.83
2021-06-28 15:23:18.515625000,-56.0,-32.5,-5.5,76.4959375,-4.83,3.1340984375,32.83
2021-06-28 15:23:18.523437500,-56.0,-32.25,-5.25,76.49390625,-5.885,3.13377815625,32.83
2021-06-28 15:23:18.531250000,-56.0,-32.0,-5.0,76.491875,-6.94,3.1334578750000004,32.83
2021-06-28 15:23:18.539062500,-56.0,-32.25,-5.0,76.48984375,-8.16,3.1331375937500003,32.83
2021-06-28 15:23:18.546875000,-56.0,-32.5,-5.0,76.4878125,-9.38,3.1328173125000003,32.83
2021-06-28 15:23:18.554687500,-56.0,-32.75,-5.0,76.48578125,-10.82,3.1324970312500002,32.83
2021-06-28 15:23:18.562500000,-56.0,-33.0,-5.0,76.48375,-12.26,3.13217675,32.83
2021-06-28 15:23:18.570312500,-55.75,-33.0,-5.0,76.48171875,-13.915,3.13185646875,32.83
2021-06-28 15:23:18.578125000,-55.5,-33.0,-5.0,76.4796875,-15.57,3.1315361875,32.83
2021-06-28 15:23:18.585937500,-55.25,-33.0,-5.0,76.47765625,-17.384999999999998,3.13121590625,32.83
2021-06-28 15:23:18.593750000,-55.0,-33.0,-5.0,76.47562500000001,-19.2,3.130895625,32.83
2021-06-28 15:23:18.601562500,-55.0,-33.0,-5.0,76.47359375,-21.064999999999998,3.1305753437500003,32.83
2021-06-28 15:23:18.609375000,-55.0,-33.0,-5.0,76.4715625,-22.93,3.1302550625000003,32.83
2021-06-28 15:23:18.617187500,-55.0,-33.0,-5.0,76.46953125,-24.68,3.1299347812500002,32.83
2021-06-28 15:23:18.625000000,-55.0,-33.0,-5.0,76.4675,-26.43,3.1296145,32.83
2021-06-28 15:23:18.632812500,-55.25,-33.0,-5.0,76.46546875,-27.855,3.12929421875,32.83
2021-06-28 15:23:18.640625000,-55.5,-33.0,-5.0,76.4634375,-29.28,3.1289739375,32.83
2021-06-28 15:23:18.648437500,-55.75,-33.0,-5.0,76.46140625,-30.175,3.12865365625,32.83
2021-06-28 15:23:18.656250000,-56.0,-33.0,-5.0,76.459375,-31.07,3.1283333750000004,32.83
2021-06-28 15:23:18.664062500,-56.0,-33.0,-5.0,76.45734375,-31.265,3.1280130937500004,32.83
2021-06-28 15:23:18.671875000,-56.0,-33.0,-5.0,76.4553125,-31.46,3.1276928125000003,32.83
2021-06-28 15:23:18.679687500,-56.0,-33.0,-5.0,76.45328125,-30.91,3.1273725312500003,32.83
2021-06-28 15:23:18.687500000,-56.0,-33.0,-5.0,76.45125,-30.36,3.12705225,32.83
2021-06-28 15:23:18.695312500,-56.0,-33.0,-5.0,76.44921875,-29.145,3.12673196875,32.83
2021-06-28 15:23:18.703125000,-56.0,-33.0,-5.0,76.4471875,-27.93,3.1264116875,32.83
2021-06-28 15:23:18.710937500,-56.0,-33.0,-5.0,76.44515625,-26.225,3.12609140625,32.83
2021-06-28 15:23:18.718750000,-56.0,-33.0,-5.0,76.44312500000001,-24.52,3.125771125,32.83
2021-06-28 15:23:18.726562500,-55.75,-33.0,-5.25,76.44109375000001,-22.57,3.1254508437500004,32.83
2021-06-28 15:23:18.734375000,-55.5,-33.0,-5.5,76.4390625,-20.62,3.1251305625000003,32.83
2021-06-28 15:23:18.742187500,-55.25,-33.0,-5.75,76.43703125,-18.62,3.1248102812500003,32.83
2021-06-28 15:23:18.750000000,-55.0,-33.0,-6.0,76.435,-16.62,3.12449,32.83
2021-06-28 15:23:18.757812500,-55.25,-33.0,-6.0,76.43296875,-14.695,3.1244099375000003,32.83
2021-06-28 15:23:18.765625000,-55.5,-33.0,-6.0,76.4309375,-12.77,3.1243298750000004,32.83
2021-06-28 15:23:18.773437500,-55.75,-33.0,-6.0,76.42890625,-10.94,3.1242498125,32.83
2021-06-28 15:23:18.781250000,-56.0,-33.0,-6.0,76.426875,-9.11,3.12416975,32.83
2021-06-28 15:23:18.789062500,-56.0,-33.0,-5.75,76.42484375000001,-7.334999999999999,3.1240896875,32.83
2021-06-28 15:23:18.796875000,-56.0,-33.0,-5.5,76.4228125,-5.56,3.1240096250000002,32.83
2021-06-28 15:23:18.804687500,-56.0,-33.0,-5.25,76.42078125,-3.78,3.1239295625000003,32.83
2021-06-28 15:23:18.812500000,-56.0,-33.0,-5.0,76.41875,-2.0,3.1238495000000004,32.83
2021-06-28 15:23:18.820312500,-56.0,-33.0,-5.0,76.41671875,-0.19999999999999996,3.1237694375,32.83
2021-06-28 15:23:18.828125000,-56.0,-33.0,-5.0,76.4146875,1.6,3.123689375,32.83
2021-06-28 15:23:18.835937500,-56.0,-33.0,-5.0,76.41265625,3.365,3.1236093125,32.83
2021-06-28 15:23:18.843750000,-56.0,-33.0,-5.0,76.41062500000001,5.13,3.1235292500000003,32.83
2021-06-28 15:23:18.851562500,-55.75,-33.0,-5.0,76.40859375000001,6.755000000000001,3.1234491875000003,32.83
2021-06-28 15:23:18.859375000,-55.5,-33.0,-5.0,76.4065625,8.38,3.123369125,32.83
2021-06-28 15:23:18.867187500,-55.25,-33.0,-5.0,76.40453125,9.745000000000001,3.1232890625,32.83
2021-06-28 15:23:18.875000000,-55.0,-33.0,-5.0,76.4025,11.11,3.123209,32.83
2021-06-28 15:23:18.882812500,-55.25,-33.0,-5.25,76.40046875,12.135,3.1231289375,32.83
2021-06-28 15:23:18.890625000,-55.5,-33.0,-5.5,76.3984375,13.16,3.1230488750000003,32.83
2021-06-28 15:23:18.898437500,-55.75,-33.0,-5.75,76.39640625,13.844999999999999,3.1229688125,32.83
2021-06-28 15:23:18.906250000,-56.0,-33.0,-6.0,76.394375,14.53,3.12288875,32.83
2021-06-28 15:23:18.914062500,-55.75,-32.75,-5.75,76.39234375000001,14.93,3.1228086875,32.83
2021-06-28 15:23:18.921875000,-55.5,-32.5,-5.5,76.39031250000001,15.33,3.122728625,32.83
2021-06-28 15:23:18.929687500,-55.25,-32.25,-5.25,76.38828125,15.504999999999999,3.1226485625000002,32.83
2021-06-28 15:23:18.937500000,-55.0,-32.0,-5.0,76.38625,15.68,3.1225685,32.83
2021-06-28 15:23:18.945312500,-55.0,-32.25,-5.25,76.38421875,15.684999999999999,3.1224884375,32.83
2021-06-28 15:23:18.953125000,-55.0,-32.5,-5.5,76.3821875,15.69,3.122408375,32.83
2021-06-28 15:23:18.960937500,-55.0,-32.75,-5.75,76.38015625,15.53,3.1223283125,32.83
2021-06-28 15:23:18.968750000,-55.0,-33.0,-6.0,76.37812500000001,15.37,3.12224825,32.83
2021-06-28 15:23:18.976562500,-55.0,-33.0,-6.0,76.37609375000001,15.045,3.1221681875000002,32.83
2021-06-28 15:23:18.984375000,-55.0,-33.0,-6.0,76.37406250000001,14.72,3.122088125,32.83
2021-06-28 15:23:18.992187500,-55.0,-33.0,-6.0,76.37203125,14.275,3.1220080625,32.83
2021-06-28 15:23:19.000000000,-55.0,-33.0,-6.0,76.37,13.83,3.121928,32.83
2021-06-28 15:23:19.007812500,-55.0,-33.0,-5.75,76.368046875,13.355,3.12168778125,32.83
2021-06-28 15:23:19.015625000,-55.0,-33.0,-5.5,76.36609375,12.88,3.1214475625,32.83
2021-06-28 15:23:19.023437500,-55.0,-33.0,-5.25,76.364140625,12.495000000000001,3.12120734375,32.83
2021-06-28 15:23:19.031250000,-55.0,-33.0,-5.0,76.3621875,12.11,3.120967125,32.83
2021-06-28 15:23:19.039062500,-55.25,-33.0,-5.0,76.360234375,11.879999999999999,3.12072690625,32.83
2021-06-28 15:23:19.046875000,-55.5,-33.0,-5.0,76.35828125,11.65,3.1204866875,32.83
2021-06-28 15:23:19.054687500,-55.75,-33.0,-5.0,76.356328125,11.535,3.12024646875,32.83
2021-06-28 15:23:19.062500000,-56.0,-33.0,-5.0,76.354375,11.42,3.12000625,32.83
2021-06-28 15:23:19.070312500,-56.0,-33.0,-5.0,76.352421875,11.265,3.11976603125,32.83
2021-06-28 15:23:19.078125000,-56.0,-33.0,-5.0,76.35046875,11.11,3.1195258125,32.83
2021-06-28 15:23:19.085937500,-56.0,-33.0,-5.0,76.348515625,10.725,3.11928559375,32.83
2021-06-28 15:23:19.093750000,-56.0,-33.0,-5.0,76.3465625,10.34,3.119045375,32.83
2021-06-28 15:23:19.101562500,-55.75,-32.75,-5.0,76.344609375,9.58,3.11880515625,32.83
2021-06-28 15:23:19.109375000,-55.5,-32.5,-5.0,76.34265625,8.82,3.1185649375,32.83
2021-06-28 15:23:19.117187500,-55.25,-32.25,-5.0,76.340703125,7.67,3.11832471875,32.83
2021-06-28 15:23:19.125000000,-55.0,-32.0,-5.0,76.33875,6.52,3.1180845,32.83
2021-06-28 15:23:19.132812500,-55.25,-32.25,-5.25,76.336796875,5.09,3.11784428125,32.83
2021-06-28 15:23:19.140625000,-55.5,-32.5,-5.5,76.33484375,3.66,3.1176040625,32.83
2021-06-28 15:23:19.148437500,-55.75,-32.75,-5.75,76.332890625,2.13,3.1173638437499998,32.83
2021-06-28 15:23:19.156250000,-56.0,-33.0,-6.0,76.3309375,0.6,3.117123625,32.83
2021-06-28 15:23:19.164062500,-55.75,-33.0,-5.75,76.328984375,-0.8750000000000001,3.11688340625,32.83
2021-06-28 15:23:19.171875000,-55.5,-33.0,-5.5,76.32703125,-2.35,3.1166431875,32.83
2021-06-28 15:23:19.179687500,-55.25,-33.0,-5.25,76.325078125,-3.6550000000000002,3.1164029687499997,32.83
2021-06-28 15:23:19.187500000,-55.0,-33.0,-5.0,76.323125,-4.96,3.11616275,32.83
2021-06-28 15:23:19.195312500,-55.25,-33.0,-5.0,76.321171875,-6.0649999999999995,3.11592253125,32.83
2021-06-28 15:23:19.203125000,-55.5,-33.0,-5.0,76.31921875,-7.17,3.1156823124999997,32.83
2021-06-28 15:23:19.210937500,-55.75,-33.0,-5.0,76.317265625,-8.1,3.11544209375,32.83
2021-06-28 15:23:19.218750000,-56.0,-33.0,-5.0,76.3153125,-9.03,3.115201875,32.83
2021-06-28 15:23:19.226562500,-56.0,-33.0,-5.0,76.313359375,-9.870000000000001,3.1149616562499998,32.83
2021-06-28 15:23:19.234375000,-56.0,-33.0,-5.0,76.31140625,-10.71,3.1147214374999996,32.83
2021-06-28 15:23:19.242187500,-56.0,-33.0,-5.0,76.309453125,-11.58,3.11448121875,32.83
2021-06-28 15:23:19.250000000,-56.0,-33.0,-5.0,76.3075,-12.45,3.114241,32.83
2021-06-28 15:23:19.257812500,-56.0,-33.0,-5.0,76.305546875,-13.465,3.1141609375,32.83
2021-06-28 15:23:19.265625000,-56.0,-33.0,-5.0,76.30359375,-14.48,3.114080875,32.83
2021-06-28 15:23:19.273437500,-56.0,-33.0,-5.0,76.301640625,-15.71,3.1140008125,32.83
2021-06-28 15:23:19.281250000,-56.0,-33.0,-5.0,76.2996875,-16.94,3.1139207499999997,32.83
2021-06-28 15:23:19.289062500,-55.75,-32.75,-5.0,76.297734375,-18.384999999999998,3.1138406874999998,32.83
2021-06-28 15:23:19.296875000,-55.5,-32.5,-5.0,76.29578125,-19.83,3.113760625,32.83
2021-06-28 15:23:19.304687500,-55.25,-32.25,-5.0,76.293828125,-21.345,3.1136805625,32.83
2021-06-28 15:23:19.312500000,-55.0,-32.0,-5.0,76.291875,-22.86,3.1136005,32.83
2021-06-28 15:23:19.320312500,-55.25,-32.0,-5.0,76.289921875,-24.23,3.1135204375,32.83
2021-06-28 15:23:19.328125000,-55.5,-32.0,-5.0,76.28796875,-25.6,3.1134403749999997,32.83
2021-06-28 15:23:19.335937500,-55.75,-32.0,-5.0,76.286015625,-26.575000000000003,3.1133603125,32.83
2021-06-28 15:23:19.343750000,-56.0,-32.0,-5.0,76.2840625,-27.55,3.11328025,32.83
2021-06-28 15:23:19.351562500,-56.0,-32.25,-5.0,76.282109375,-27.93,3.1132001875,32.83
2021-06-28 15:23:19.359375000,-56.0,-32.5,-5.0,76.28015625,-28.31,3.113120125,32.83
2021-06-28 15:23:19.367187500,-56.0,-32.75,-5.0,76.278203125,-27.985,3.1130400625,32.83
2021-06-28 15:23:19.375000000,-56.0,-33.0,-5.0,76.27625,-27.66,3.11296,32.83
2021-06-28 15:23:19.382812500,-55.75,-33.0,-5.0,76.274296875,-26.665,3.1128799375,32.83
2021-06-28 15:23:19.390625000,-55.5,-33.0,-5.0,76.27234375,-25.67,3.112799875,32.83
2021-06-28 15:23:19.398437500,-55.25,-33.0,-5.0,76.270390625,-24.125,3.1127198125,32.83
2021-06-28 15:23:19.406250000,-55.0,-33.0,-5.0,76.2684375,-22.58,3.11263975,32.83
2021-06-28 15:23:19.414062500,-55.25,-32.75,-5.0,76.266484375,-20.655,3.1125596875,32.83
2021-06-28 15:23:19.421875000,-55.5,-32.5,-5.0,76.26453125,-18.73,3.112479625,32.83
2021-06-28 15:23:19.429687500,-55.75,-32.25,-5.0,76.262578125,-16.605,3.1123995625,32.83
2021-06-28 15:23:19.437500000,-56.0,-32.0,-5.0,76.260625,-14.48,3.1123195,32.83
2021-06-28 15:23:19.445312500,-56.0,-32.0,-5.0,76.258671875,-12.285,3.1122394375,32.83
2021-06-28 15:23:19.453125000,-56.0,-32.0,-5.0,76.25671875,-10.09,3.112159375,32.83
2021-06-28 15:23:19.460937500,-56.0,-32.0,-5.0,76.254765625,-7.915,3.1120793125,32.83
2021-06-28 15:23:19.468750000,-56.0,-32.0,-5.0,76.2528125,-5.74,3.11199925,32.83
2021-06-28 15:23:19.476562500,-56.0,-32.0,-5.0,76.250859375,-3.6350000000000002,3.1119191875,32.83
2021-06-28 15:23:19.484375000,-56.0,-32.0,-5.0,76.24890625,-1.53,3.111839125,32.83
2021-06-28 15:23:19.492187500,-56.0,-32.0,-5.0,76.246953125,0.4850000000000001,3.1117590625,32.83
2021-06-28 15:23:19.500000000,-56.0,-32.0,-5.0,76.245,2.5,3.111679,32.83
2021-06-28 15:23:19.507812500,-56.0,-32.0,-5.0,76.243046875,4.37,3.11135871875,32.83
2021-06-28 15:23:19.515625000,-56.0,-32.0,-5.0,76.24109375,6.24,3.1110384375,32.83
2021-06-28 15:23:19.523437500,-56.0,-32.0,-5.0,76.239140625,7.8950000000000005,3.11071815625,32.83
2021-06-28 15:23:19.531250000,-56.0,-32.0,-5.0,76.2371875,9.55,3.1103978750000003,32.83
2021-06-28 15:23:19.539062500,-56.0,-32.0,-5.0,76.235234375,10.905000000000001,3.1100775937500003,32.83
2021-06-28 15:23:19.546875000,-56.0,-32.0,-5.0,76.23328125,12.26,3.1097573125,32.83
2021-06-28 15:23:19.554687500,-56.0,-32.0,-5.0,76.231328125,13.25,3.10943703125,32.83
2021-06-28 15:23:19.562500000,-56.0,-32.0,-5.0,76.229375,14.24,3.10911675,32.83
2021-06-28 15:23:19.570312500,-56.0,-32.0,-5.0,76.227421875,14.850000000000001,3.10879646875,32.83
2021-06-28 15:23:19.578125000,-56.0,-32.0,-5.0,76.22546875,15.46,3.1084761875,32.83
2021-06-28 15:23:19.585937500,-56.0,-32.0,-5.0,76.223515625,15.75,3.10815590625,32.83
2021-06-28 15:23:19.593750000,-56.0,-32.0,-5.0,76.2215625,16.04,3.107835625,32.83
2021-06-28 15:23:19.601562500,-56.0,-32.25,-5.0,76.219609375,16.134999999999998,3.1075153437500003,32.83
2021-06-28 15:23:19.609375000,-56.0,-32.5,-5.0,76.21765625,16.23,3.1071950625,32.83
2021-06-28 15:23:19.617187500,-56.0,-32.75,-5.0,76.215703125,16.25,3.10687478125,32.83
2021-06-28 15:23:19.625000000,-56.0,-33.0,-5.0,76.21375,16.27,3.1065545,32.83
2021-06-28 15:23:19.632812500,-56.0,-33.0,-5.0,76.211796875,16.32,3.10623421875,32.83
2021-06-28 15:23:19.640625000,-56.0,-33.0,-5.0,76.20984375,16.37,3.1059139375,32.83
2021-06-28 15:23:19.648437500,-56.0,-33.0,-5.0,76.207890625,16.5,3.10559365625,32.83
2021-06-28 15:23:19.656250000,-56.0,-33.0,-5.0,76.2059375,16.63,3.1052733750000003,32.83
2021-06-28 15:23:19.664062500,-56.0,-32.75,-5.0,76.203984375,16.795,3.1049530937500003,32.83
2021-06-28 15:23:19.671875000,-56.0,-32.5,-5.0,76.20203125,16.96,3.1046328125000002,32.83
2021-06-28 15:23:19.679687500,-56.0,-32.25,-5.0,76.200078125,17.09,3.10431253125,32.83
2021-06-28 15:23:19.687500000,-56.0,-32.0,-5.0,76.198125,17.22,3.10399225,32.83
2021-06-28 15:23:19.695312500,-56.0,-32.0,-5.0,76.196171875,17.225,3.10367196875,32.83
2021-06-28 15:23:19.703125000,-56.0,-32.0,-5.0,76.19421875,17.23,3.1033516875,32.83
2021-06-28 15:23:19.710937500,-56.0,-32.0,-5.0,76.192265625,17.045,3.10303140625,32.83
2021-06-28 15:23:19.718750000,-56.0,-32.0,-5.0,76.1903125,16.86,3.102711125,32.83
2021-06-28 15:23:19.726562500,-55.75,-32.0,-5.0,76.188359375,16.494999999999997,3.1023908437500003,32.83
2021-06-28 15:23:19.734375000,-55.5,-32.0,-5.0,76.18640625,16.13,3.1020705625000002,32.83
2021-06-28 15:23:19.742187500,-55.25,-32.0,-5.0,76.184453125,15.629999999999999,3.10175028125,32.83
2021-06-28 15:23:19.750000000,-55.0,-32.0,-5.0,76.1825,15.13,3.10143,32.83
2021-06-28 15:23:19.757812500,-55.25,-32.0,-5.0,76.180546875,14.59,3.10122984375,32.83
2021-06-28 15:23:19.765625000,-55.5,-32.0,-5.0,76.17859375,14.05,3.1010296875,32.83
2021-06-28 15:23:19.773437500,-55.75,-32.0,-5.0,76.176640625,13.54,3.10082953125,32.83
2021-06-28 15:23:19.781250000,-56.0,-32.0,-5.0,76.1746875,13.03,3.100629375,32.83
2021-06-28 15:23:19.789062500,-56.0,-32.0,-5.0,76.172734375,12.575,3.10042921875,32.83
2021-06-28 15:23:19.796875000,-56.0,-32.0,-5.0,76.17078125,12.12,3.1002290625,32.83
2021-06-28 15:23:19.804687500,-56.0,-32.0,-5.0,76.168828125,11.69,3.10002890625,32.83
2021-06-28 15:23:19.812500000,-56.0,-32.0,-5.0,76.166875,11.26,3.0998287500000004,32.83
2021-06-28 15:23:19.820312500,-56.0,-32.0,-5.0,76.164921875,10.8,3.0996285937500003,32.83
2021-06-28 15:23:19.828125000,-56.0,-32.0,-5.0,76.16296875,10.34,3.0994284375000003,32.83
2021-06-28 15:23:19.835937500,-56.0,-32.0,-5.0,76.161015625,9.765,3.0992282812500003,32.83
2021-06-28 15:23:19.843750000,-56.0,-32.0,-5.0,76.1590625,9.19,3.0990281250000002,32.83
2021-06-28 15:23:19.851562500,-56.0,-32.0,-5.0,76.157109375,8.465,3.09882796875,32.83
2021-06-28 15:23:19.859375000,-56.0,-32.0,-5.0,76.15515625,7.74,3.0986278125,32.83
2021-06-28 15:23:19.867187500,-56.0,-32.0,-5.0,76.153203125,6.865,3.09842765625,32.83
2021-06-28 15:23:19.875000000,-56.0,-32.0,-5.0,76.15125,5.99,3.0982275,32.83
2021-06-28 15:23:19.882812500,-56.0,-32.0,-5.25,76.149296875,4.99,3.09802734375,32.83
2021-06-28 15:23:19.890625000,-56.0,-32.0,-5.5,76.14734375,3.99,3.0978271875,32.83
2021-06-28 15:23:19.898437500,-56.0,-32.0,-5.75,76.145390625,2.91,3.09762703125,32.83
2021-06-28 15:23:19.906250000,-56.0,-32.0,-6.0,76.1434375,1.83,3.097426875,32.83
2021-06-28 15:23:19.914062500,-56.0,-32.0,-6.0,76.141484375,0.72,3.09722671875,32.83
2021-06-28 15:23:19.921875000,-56.0,-32.0,-6.0,76.13953125,-0.39,3.0970265625,32.83
2021-06-28 15:23:19.929687500,-56.0,-32.0,-6.0,76.137578125,-1.5,3.09682640625,32.83
2021-06-28 15:23:19.937500000,-56.0,-32.0,-6.0,76.135625,-2.61,3.09662625,32.83
2021-06-28 15:23:19.945312500,-56.0,-32.0,-5.75,76.133671875,-3.675,3.0964260937500003,32.83
2021-06-28 15:23:19.953125000,-56.0,-32.0,-5.5,76.13171875,-4.74,3.0962259375000003,32.83
2021-06-28 15:23:19.960937500,-56.0,-32.0,-5.25,76.129765625,-5.755,3.0960257812500003,32.83
2021-06-28 15:23:19.968750000,-56.0,-32.0,-5.0,76.1278125,-6.77,3.0958256250000002,32.83
2021-06-28 15:23:19.976562500,-56.0,-32.0,-5.0,76.125859375,-7.725,3.09562546875,32.83
2021-06-28 15:23:19.984375000,-56.0,-32.0,-5.0,76.12390625,-8.68,3.0954253125,32.83
2021-06-28 15:23:19.992187500,-56.0,-32.0,-5.0,76.121953125,-9.635,3.09522515625,32.83
2021-06-28 15:23:20.000000000,-56.0,-32.0,-5.0,76.12,-10.59,3.095025,32.83
2021-06-28 15:23:20.007812500,-56.0,-32.0,-5.0,76.1175,-11.66,3.095025,32.8303125
2021-06-28 15:23:20.015625000,-56.0,-32.0,-5.0,76.11500000000001,-12.73,3.095025,32.830625
2021-06-28 15:23:20.023437500,-56.0,-32.0,-5.0,76.11250000000001,-14.035,3.095025,32.8309375
2021-06-28 15:23:20.031250000,-56.0,-32.0,-5.0,76.11,-15.34,3.095025,32.83125
2021-06-28 15:23:20.039062500,-56.0,-32.0,-5.25,76.1075,-16.990000000000002,3.095025,32.8315625
2021-06-28 15:23:20.046875000,-56.0,-32.0,-5.5,76.105,-18.64,3.095025,32.831875
2021-06-28 15:23:20.054687500,-56.0,-32.0,-5.75,76.1025,-20.64,3.095025,32.832187499999996
2021-06-28 15:23:20.062500000,-56.0,-32.0,-6.0,76.10000000000001,-22.64,3.095025,32.832499999999996
2021-06-28 15:23:20.070312500,-56.0,-32.0,-5.75,76.09750000000001,-24.87,3.095025,32.8328125
2021-06-28 15:23:20.078125000,-56.0,-32.0,-5.5,76.095,-27.1,3.095025,32.833125
2021-06-28 15:23:20.085937500,-56.0,-32.0,-5.25,76.0925,-29.3,3.095025,32.8334375
2021-06-28 15:23:20.093750000,-56.0,-32.0,-5.0,76.09,-31.5,3.095025,32.83375
2021-06-28 15:23:20.101562500,-56.0,-32.0,-5.25,76.0875,-33.33,3.095025,32.8340625
2021-06-28 15:23:20.109375000,-56.0,-32.0,-5.5,76.08500000000001,-35.16,3.095025,32.834375
2021-06-28 15:23:20.117187500,-56.0,-32.0,-5.75,76.08250000000001,-36.305,3.095025,32.8346875
2021-06-28 15:23:20.125000000,-56.0,-32.0,-6.0,76.08,-37.45,3.095025,32.835
2021-06-28 15:23:20.132812500,-56.0,-32.0,-5.75,76.0775,-37.72,3.095025,32.8353125
2021-06-28 15:23:20.140625000,-56.0,-32.0,-5.5,76.075,-37.99,3.095025,32.835625
2021-06-28 15:23:20.148437500,-56.0,-32.0,-5.25,76.0725,-37.345,3.095025,32.8359375
2021-06-28 15:23:20.156250000,-56.0,-32.0,-5.0,76.07000000000001,-36.7,3.095025,32.83625
2021-06-28 15:23:20.164062500,-56.0,-32.0,-5.0,76.06750000000001,-35.28,3.095025,32.8365625
2021-06-28 15:23:20.171875000,-56.0,-32.0,-5.0,76.065,-33.86,3.095025,32.836875
2021-06-28 15:23:20.179687500,-56.0,-32.0,-5.0,76.0625,-31.884999999999998,3.095025,32.8371875
2021-06-28 15:23:20.187500000,-56.0,-32.0,-5.0,76.06,-29.91,3.095025,32.837500000000006
2021-06-28 15:23:20.195312500,-56.0,-32.0,-5.0,76.0575,-27.625,3.095025,32.837812500000005
2021-06-28 15:23:20.203125000,-56.0,-32.0,-5.0,76.055,-25.34,3.095025,32.838125000000005
2021-06-28 15:23:20.210937500,-56.0,-32.0,-5.0,76.05250000000001,-22.925,3.095025,32.838437500000005
2021-06-28 15:23:20.218750000,-56.0,-32.0,-5.0,76.05,-20.51,3.095025,32.838750000000005
2021-06-28 15:23:20.226562500,-56.0,-32.0,-5.0,76.0475,-18.095,3.095025,32.839062500000004
2021-06-28 15:23:20.234375000,-56.0,-32.0,-5.0,76.045,-15.68,3.095025,32.839375000000004
2021-06-28 15:23:20.242187500,-56.0,-32.0,-5.0,76.0425,-13.32,3.095025,32.839687500000004
2021-06-28 15:23:20.250000000,-56.0,-32.0,-5.0,76.04,-10.96,3.095025,32.84
2021-06-28 15:23:20.257812500,-56.0,-32.0,-5.0,76.03750000000001,-8.705,3.09470471875,32.84
2021-06-28 15:23:20.265625000,-56.0,-32.0,-5.0,76.035,-6.45,3.0943844375,32.84
2021-06-28 15:23:20.273437500,-56.0,-32.0,-5.0,76.0325,-4.345000000000001,3.09406415625,32.84
2021-06-28 15:23:20.281250000,-56.0,-32.0,-5.0,76.03,-2.24,3.0937438750000004,32.84
2021-06-28 15:23:20.289062500,-56.0,-32.0,-5.0,76.0275,-0.33000000000000007,3.0934235937500003,32.84
2021-06-28 15:23:20.296875000,-56.0,-32.0,-5.0,76.025,1.58,3.0931033125000003,32.84
2021-06-28 15:23:20.304687500,-56.0,-32.0,-5.0,76.02250000000001,3.255,3.09278303125,32.84
2021-06-28 15:23:20.312500000,-56.0,-32.0,-5.0,76.02,4.93,3.09246275,32.84
2021-06-28 15:23:20.320312500,-56.0,-32.0,-5.0,76.0175,6.35,3.09214246875,32.84
2021-06-28 15:23:20.328125000,-56.0,-32.0,-5.0,76.015,7.77,3.0918221875,32.84
2021-06-28 15:23:20.335937500,-56.0,-32.0,-5.0,76.0125,8.94,3.09150190625,32.84
2021-06-28 15:23:20.343750000,-56.0,-32.0,-5.0,76.01,10.11,3.091181625,32.84
2021-06-28 15:23:20.351562500,-56.0,-32.0,-5.0,76.00750000000001,11.04,3.0908613437500003,32.84
2021-06-28 15:23:20.359375000,-56.0,-32.0,-5.0,76.005,11.97,3.0905410625000003,32.84
2021-06-28 15:23:20.367187500,-56.0,-32.0,-5.0,76.0025,12.71,3.09022078125,32.84
2021-06-28 15:23:20.375000000,-56.0,-32.0,-5.0,76.0,13.45,3.0899005,32.84
2021-06-28 15:23:20.382812500,-56.0,-32.0,-5.25,75.9975,14.03,3.08958021875,32.84
2021-06-28 15:23:20.390625000,-56.0,-32.0,-5.5,75.995,14.61,3.0892599375,32.84
2021-06-28 15:23:20.398437500,-56.0,-32.0,-5.75,75.9925,15.1,3.08893965625,32.84
2021-06-28 15:23:20.406250000,-56.0,-32.0,-6.0,75.99,15.59,3.0886193750000004,32.84
2021-06-28 15:23:20.414062500,-56.0,-32.0,-5.75,75.9875,16.005000000000003,3.0882990937500003,32.84
2021-06-28 15:23:20.421875000,-56.0,-32.0,-5.5,75.985,16.42,3.0879788125000003,32.84
2021-06-28 15:23:20.429687500,-56.0,-32.0,-5.25,75.9825,16.78,3.0876585312500002,32.84
2021-06-28 15:23:20.437500000,-56.0,-32.0,-5.0,75.98,17.14,3.08733825,32.84
2021-06-28 15:23:20.445312500,-56.0,-32.0,-5.0,75.9775,17.435000000000002,3.08701796875,32.84
2021-06-28 15:23:20.453125000,-56.0,-32.0,-5.0,75.975,17.73,3.0866976875,32.84
2021-06-28 15:23:20.460937500,-56.0,-32.0,-5.0,75.9725,17.945,3.08637740625,32.84
2021-06-28 15:23:20.468750000,-56.0,-32.0,-5.0,75.97,18.16,3.086057125,32.84
2021-06-28 15:23:20.476562500,-56.0,-32.0,-5.0,75.9675,18.3,3.0857368437500003,32.84
2021-06-28 15:23:20.484375000,-56.0,-32.0,-5.0,75.965,18.44,3.0854165625000003,32.84
2021-06-28 15:23:20.492187500,-56.0,-32.0,-5.0,75.9625,18.54,3.0850962812500002,32.84
2021-06-28 15:23:20.500000000,-56.0,-32.0,-5.0,75.96000000000001,18.64,3.084776,32.84
2021-06-28 15:23:20.507812500,-56.0,-32.0,-5.0,75.9575,18.745,3.0846959375000003,32.84
2021-06-28 15:23:20.515625000,-56.0,-32.0,-5.0,75.955,18.85,3.0846158750000003,32.84
2021-06-28 15:23:20.523437500,-56.0,-32.0,-5.0,75.9525,18.955,3.0845358125,32.84
2021-06-28 15:23:20.531250000,-56.0,-32.0,-5.0,75.95,19.06,3.08445575,32.84
2021-06-28 15:23:20.539062500,-56.0,-32.0,-5.0,75.9475,19.125,3.0843756875,32.84
2021-06-28 15:23:20.546875000,-56.0,-32.0,-5.0,75.94500000000001,19.19,3.084295625,32.84
2021-06-28 15:23:20.554687500,-56.0,-32.0,-5.0,75.9425,19.11,3.0842155625000003,32.84
2021-06-28 15:23:20.562500000,-56.0,-32.0,-5.0,75.94,19.03,3.0841355000000004,32.84
2021-06-28 15:23:20.570312500,-56.0,-32.0,-5.0,75.9375,18.700000000000003,3.0840554375,32.84
2021-06-28 15:23:20.578125000,-56.0,-32.0,-5.0,75.935,18.37,3.083975375,32.84
2021-06-28 15:23:20.585937500,-56.0,-32.0,-5.0,75.9325,17.745,3.0838953125,32.84
2021-06-28 15:23:20.593750000,-56.0,-32.0,-5.0,75.93,17.12,3.0838152500000002,32.84
2021-06-28 15:23:20.601562500,-56.0,-32.0,-5.0,75.9275,16.215,3.0837351875000003,32.84
2021-06-28 15:23:20.609375000,-56.0,-32.0,-5.0,75.925,15.31,3.083655125,32.84
2021-06-28 15:23:20.617187500,-56.0,-32.0,-5.0,75.9225,14.225000000000001,3.0835750625,32.84
2021-06-28 15:23:20.625000000,-56.0,-32.0,-5.0,75.92,13.14,3.083495,32.84
2021-06-28 15:23:20.632812500,-56.0,-32.0,-5.0,75.9175,11.98,3.0834149375,32.84
2021-06-28 15:23:20.640625000,-56.0,-32.0,-5.0,75.915,10.82,3.0833348750000003,32.84
2021-06-28 15:23:20.648437500,-56.0,-32.0,-5.0,75.9125,9.665,3.0832548125,32.84
2021-06-28 15:23:20.656250000,-56.0,-32.0,-5.0,75.91,8.51,3.08317475,32.84
2021-06-28 15:23:20.664062500,-56.0,-32.0,-5.0,75.9075,7.415,3.0830946875,32.84
2021-06-28 15:23:20.671875000,-56.0,-32.0,-5.0,75.905,6.32,3.083014625,32.84
2021-06-28 15:23:20.679687500,-56.0,-32.0,-5.0,75.9025,5.29,3.0829345625,32.84
2021-06-28 15:23:20.687500000,-56.0,-32.0,-5.0,75.9,4.26,3.0828545,32.84
2021-06-28 15:23:20.695312500,-56.0,-32.0,-5.0,75.8975,3.2699999999999996,3.0827744375,32.84
2021-06-28 15:23:20.703125000,-56.0,-32.0,-5.0,75.895,2.28,3.082694375,32.84
2021-06-28 15:23:20.710937500,-56.0,-32.0,-5.0,75.8925,1.31,3.0826143125,32.84
2021-06-28 15:23:20.718750000,-56.0,-32.0,-5.0,75.89,0.34,3.08253425,32.84
2021-06-28 15:23:20.726562500,-56.0,-32.0,-5.0,75.8875,-0.655,3.0824541875,32.84
2021-06-28 15:23:20.734375000,-56.0,-32.0,-5.0,75.885,-1.65,3.082374125,32.84
2021-06-28 15:23:20.742187500,-56.0,-32.0,-5.0,75.8825,-2.705,3.0822940625,32.84
2021-06-28 15:23:20.750000000,-56.0,-32.0,-5.0,75.88,-3.76,3.082214,32.84
2021-06-28 15:23:20.757812500,-56.0,-32.25,-5.0,75.8775,-4.925,3.08201384375,32.84
2021-06-28 15:23:20.765625000,-56.0,-32.5,-5.0,75.875,-6.09,3.0818136875,32.84
2021-06-28 15:23:20.773437500,-56.0,-32.75,-5.0,75.8725,-7.385,3.08161353125,32.84
2021-06-28 15:23:20.781250000,-56.0,-33.0,-5.0,75.87,-8.68,3.081413375,32.84
2021-06-28 15:23:20.789062500,-56.0,-32.75,-5.0,75.86749999999999,-10.135,3.08121321875,32.84
2021-06-28 15:23:20.796875000,-56.0,-32.5,-5.0,75.865,-11.59,3.0810130625,32.84
2021-06-28 15:23:20.804687500,-56.0,-32.25,-5.0,75.8625,-13.215,3.08081290625,32.84
2021-06-28 15:23:20.812500000,-56.0,-32.0,-5.0,75.86,-14.84,3.0806127500000002,32.84
2021-06-28 15:23:20.820312500,-56.0,-32.0,-5.0,75.8575,-16.64,3.08041259375,32.84
2021-06-28 15:23:20.828125000,-56.0,-32.0,-5.0,75.855,-18.44,3.0802124375,32.84
2021-06-28 15:23:20.835937500,-56.0,-32.0,-5.0,75.85249999999999,-20.405,3.08001228125,32.84
2021-06-28 15:23:20.843750000,-56.0,-32.0,-5.0,75.85,-22.37,3.079812125,32.84
2021-06-28 15:23:20.851562500,-56.0,-32.25,-5.0,75.8475,-24.435000000000002,3.07961196875,32.84
2021-06-28 15:23:20.859375000,-56.0,-32.5,-5.0,75.845,-26.5,3.0794118125,32.84
2021-06-28 15:23:20.867187500,-56.0,-32.75,-5.0,75.8425,-28.5,3.07921165625,32.84
2021-06-28 15:23:20.875000000,-56.0,-33.0,-5.0,75.84,-30.5,3.0790115,32.84
2021-06-28 15:23:20.882812500,-56.0,-32.75,-5.0,75.83749999999999,-32.195,3.07881134375,32.84
2021-06-28 15:23:20.890625000,-56.0,-32.5,-5.0,75.835,-33.89,3.0786111875,32.84
2021-06-28 15:23:20.898437500,-56.0,-32.25,-5.0,75.8325,-34.99,3.07841103125,32.84
2021-06-28 15:23:20.906250000,-56.0,-32.0,-5.0,75.83,-36.09,3.078210875,32.84
2021-06-28 15:23:20.914062500,-56.0,-32.0,-5.25,75.8275,-36.385000000000005,3.07801071875,32.84
2021-06-28 15:23:20.921875000,-56.0,-32.0,-5.5,75.825,-36.68,3.0778105625,32.84
2021-06-28 15:23:20.929687500,-56.0,-32.0,-5.75,75.82249999999999,-36.095,3.07761040625,32.84
2021-06-28 15:23:20.937500000,-56.0,-32.0,-6.0,75.82,-35.51,3.07741025,32.84
2021-06-28 15:23:20.945312500,-56.0,-32.25,-5.75,75.8175,-34.114999999999995,3.07721009375,32.84
2021-06-28 15:23:20.953125000,-56.0,-32.5,-5.5,75.815,-32.72,3.0770099375,32.84
2021-06-28 15:23:20.960937500,-56.0,-32.75,-5.25,75.8125,-30.72,3.07680978125,32.84
2021-06-28 15:23:20.968750000,-56.0,-33.0,-5.0,75.81,-28.72,3.076609625,32.84
2021-06-28 15:23:20.976562500,-56.0,-32.75,-5.0,75.80749999999999,-26.36,3.07640946875,32.84
2021-06-28 15:23:20.984375000,-56.0,-32.5,-5.0,75.80499999999999,-24.0,3.0762093125,32.84
2021-06-28 15:23:20.992187500,-56.0,-32.25,-5.0,75.8025,-21.46,3.07600915625,32.84
2021-06-28 15:23:21.000000000,-56.0,-32.0,-5.0,75.8,-18.92,3.075809,32.84
2021-06-28 15:23:21.007812500,-56.0,-32.0,-5.0,75.80015625,-16.345,3.07564884375,32.84
2021-06-28 15:23:21.015625000,-56.0,-32.0,-5.0,75.8003125,-13.77,3.0754886875,32.84
2021-06-28 15:23:21.023437500,-56.0,-32.0,-5.0,75.80046875,-11.245000000000001,3.07532853125,32.84
2021-06-28 15:23:21.031250000,-56.0,-32.0,-5.0,75.800625,-8.72,3.075168375,32.84
2021-06-28 15:23:21.039062500,-56.0,-32.0,-5.0,75.80078125,-6.345000000000001,3.07500821875,32.84
2021-06-28 15:23:21.046875000,-56.0,-32.0,-5.0,75.8009375,-3.97,3.0748480625,32.84
2021-06-28 15:23:21.054687500,-56.0,-32.0,-5.0,75.80109374999999,-1.855,3.07468790625,32.84
2021-06-28 15:23:21.062500000,-56.0,-32.0,-5.0,75.80125,0.26,3.07452775,32.84
2021-06-28 15:23:21.070312500,-56.0,-32.0,-5.25,75.80140625,2.005,3.07436759375,32.84
2021-06-28 15:23:21.078125000,-56.0,-32.0,-5.5,75.8015625,3.75,3.0742074375,32.84
2021-06-28 15:23:21.085937500,-56.0,-32.0,-5.75,75.80171874999999,5.07,3.07404728125,32.84
