TimeStamp,empatica.acc.x,empatica.acc.y,empatica.acc.z,empatica.hr,empatica.bvp,empatica.eda,empatica.temp
2021-06-28 15:23:55.968750000,-56.0,-32.0,-6.0,80.66250000000001,-18.59,2.477296875,32.89
2021-06-28 15:23:55.976562500,-56.0,-32.0,-6.0,80.664375,-16.685,2.4773369062499997,32.89
2021-06-28 15:23:55.984375000,-56.0,-32.0,-6.0,80.66625,-14.78,2.4773769375,32.89
2021-06-28 15:23:55.992187500,-56.0,-32.0,-6.0,80.668125,-12.774999999999999,2.4774169687499996,32.89
2021-06-28 15:23:56.000000000,-56.0,-32.0,-6.0,80.67,-10.77,2.477457,32.89
2021-06-28 15:23:56.007812500,-56.0,-32.25,-6.0,80.67140625,-8.844999999999999,2.4772167812499997,32.889375
2021-06-28 15:23:56.015625000,-56.0,-32.5,-6.0,80.6728125,-6.92,2.4769765625,32.88875
2021-06-28 15:23:56.023437500,-56.0,-32.75,-6.0,80.67421875000001,-5.155,2.47673634375,32.888125
2021-06-28 15:23:56.031250000,-56.0,-33.0,-6.0,80.675625,-3.39,2.4764961249999997,32.8875
2021-06-28 15:23:56.039062500,-56.0,-33.0,-5.75,80.67703125,-1.8,2.47625590625,32.886875
2021-06-28 15:23:56.046875000,-56.0,-33.0,-5.5,80.6784375,-0.21,2.4760156875,32.88625
2021-06-28 15:23:56.054687500,-56.0,-33.0,-5.25,80.67984375,1.245,2.4757754687499998,32.885625
2021-06-28 15:23:56.062500000,-56.0,-33.0,-5.0,80.68125,2.7,2.47553525,32.885
2021-06-28 15:23:56.070312500,-56.0,-32.75,-5.0,80.68265625000001,4.015000000000001,2.47529503125,32.884375
2021-06-28 15:23:56.078125000,-56.0,-32.5,-5.0,80.6840625,5.33,2.4750548125,32.88375
2021-06-28 15:23:56.085937500,-56.0,-32.25,-5.0,80.68546875,6.465,2.4748145937499997,32.883125
2021-06-28 15:23:56.093750000,-56.0,-32.0,-5.0,80.686875,7.6,2.474574375,32.8825
2021-06-28 15:23:56.101562500,-56.0,-32.25,-5.0,80.68828125,8.495000000000001,2.47433415625,32.881875
2021-06-28 15:23:56.109375000,-56.0,-32.5,-5.0,80.6896875,9.39,2.4740939374999997,32.88125
2021-06-28 15:23:56.117187500,-56.0,-32.75,-5.0,80.69109375000001,9.99,2.47385371875,32.880625
2021-06-28 15:23:56.125000000,-56.0,-33.0,-5.0,80.6925,10.59,2.4736135,32.879999999999995
2021-06-28 15:23:56.132812500,-55.75,-32.75,-5.25,80.69390625,10.91,2.4733732812499998,32.879374999999996
2021-06-28 15:23:56.140625000,-55.5,-32.5,-5.5,80.6953125,11.23,2.4731330625,32.87875
2021-06-28 15:23:56.148437500,-55.25,-32.25,-5.75,80.69671875,11.345,2.47289284375,32.878125
2021-06-28 15:23:56.156250000,-55.0,-32.0,-6.0,80.698125,11.46,2.472652625,32.8775
2021-06-28 15:23:56.164062500,-55.25,-32.0,-5.75,80.69953125,11.48,2.47241240625,32.876875
2021-06-28 15:23:56.171875000,-55.5,-32.0,-5.5,80.7009375,11.5,2.4721721875,32.87625
2021-06-28 15:23:56.179687500,-55.75,-32.0,-5.25,80.70234375,11.545,2.47193196875,32.875625
2021-06-28 15:23:56.187500000,-56.0,-32.0,-5.0,80.70375,11.59,2.4716917499999997,32.875
2021-06-28 15:23:56.195312500,-55.75,-32.0,-5.0,80.70515625,11.725,2.47145153125,32.874375
2021-06-28 15:23:56.203125000,-55.5,-32.0,-5.0,80.7065625,11.86,2.4712113125,32.87375
2021-06-28 15:23:56.210937500,-55.25,-32.0,-5.0,80.70796875,12.085,2.47097109375,32.873124999999995
2021-06-28 15:23:56.218750000,-55.0,-32.0,-5.0,80.709375,12.31,2.470730875,32.872499999999995
2021-06-28 15:23:56.226562500,-55.25,-32.25,-5.0,80.71078125,12.535,2.47049065625,32.871874999999996
2021-06-28 15:23:56.234375000,-55.5,-32.5,-5.0,80.7121875,12.76,2.4702504375,32.871249999999996
2021-06-28 15:23:56.242187500,-55.75,-32.75,-5.0,80.71359375,12.865,2.47001021875,32.870625
2021-06-28 15:23:56.250000000,-56.0,-33.0,-5.0,80.715,12.97,2.46977,32.87
2021-06-28 15:23:56.257812500,-56.0,-33.0,-5.0,80.71640625,12.845,2.46981003125,32.87
2021-06-28 15:23:56.265625000,-56.0,-33.0,-5.0,80.7178125,12.72,2.4698500625,32.87
2021-06-28 15:23:56.273437500,-56.0,-33.0,-5.0,80.71921875,12.305,2.46989009375,32.87
2021-06-28 15:23:56.281250000,-56.0,-33.0,-5.0,80.720625,11.89,2.469930125,32.87
2021-06-28 15:23:56.289062500,-55.75,-32.75,-5.0,80.72203125,11.21,2.46997015625,32.87
2021-06-28 15:23:56.296875000,-55.5,-32.5,-5.0,80.7234375,10.53,2.4700101875000002,32.87
2021-06-28 15:23:56.304687500,-55.25,-32.25,-5.0,80.72484375,9.665,2.47005021875,32.87
2021-06-28 15:23:56.312500000,-55.0,-32.0,-5.0,80.72625,8.8,2.47009025,32.87
2021-06-28 15:23:56.320312500,-55.0,-32.0,-5.25,80.72765625,7.855,2.47013028125,32.87
2021-06-28 15:23:56.328125000,-55.0,-32.0,-5.5,80.7290625,6.91,2.4701703125,32.87
2021-06-28 15:23:56.335937500,-55.0,-32.0,-5.75,80.73046875,5.95,2.4702103437500003,32.87
2021-06-28 15:23:56.343750000,-55.0,-32.0,-6.0,80.731875,4.99,2.470250375,32.87
2021-06-28 15:23:56.351562500,-55.0,-32.0,-6.0,80.73328125,4.025,2.47029040625,32.87
2021-06-28 15:23:56.359375000,-55.0,-32.0,-6.0,80.73468749999999,3.06,2.4703304375,32.87
2021-06-28 15:23:56.367187500,-55.0,-32.0,-6.0,80.73609375,2.085,2.47037046875,32.87
2021-06-28 15:23:56.375000000,-55.0,-32.0,-6.0,80.7375,1.11,2.4704105,32.87
2021-06-28 15:23:56.382812500,-55.25,-32.0,-6.0,80.73890625,0.08500000000000019,2.47045053125,32.87
2021-06-28 15:23:56.390625000,-55.5,-32.0,-6.0,80.7403125,-0.94,2.4704905625,32.87
2021-06-28 15:23:56.398437500,-55.75,-32.0,-6.0,80.74171875,-2.045,2.47053059375,32.87
2021-06-28 15:23:56.406250000,-56.0,-32.0,-6.0,80.74312499999999,-3.15,2.470570625,32.87
2021-06-28 15:23:56.414062500,-55.75,-32.25,-5.75,80.74453125,-4.365,2.47061065625,32.87
2021-06-28 15:23:56.421875000,-55.5,-32.5,-5.5,80.7459375,-5.58,2.4706506875,32.87
2021-06-28 15:23:56.429687500,-55.25,-32.75,-5.25,80.74734375,-6.94,2.4706907187500002,32.87
2021-06-28 15:23:56.437500000,-55.0,-33.0,-5.0,80.74875,-8.3,2.47073075,32.87
2021-06-28 15:23:56.445312500,-55.25,-33.0,-5.25,80.75015625,-9.86,2.47077078125,32.87
2021-06-28 15:23:56.453125000,-55.5,-33.0,-5.5,80.75156249999999,-11.42,2.4708108125,32.87
2021-06-28 15:23:56.460937500,-55.75,-33.0,-5.75,80.75296875,-13.184999999999999,2.47085084375,32.87
2021-06-28 15:23:56.468750000,-56.0,-33.0,-6.0,80.754375,-14.95,2.4708908750000003,32.87
2021-06-28 15:23:56.476562500,-55.75,-33.0,-6.0,80.75578125,-16.875,2.47093090625,32.87
2021-06-28 15:23:56.484375000,-55.5,-33.0,-6.0,80.7571875,-18.8,2.4709709375,32.87
2021-06-28 15:23:56.492187500,-55.25,-33.0,-6.0,80.75859375,-20.740000000000002,2.47101096875,32.87
2021-06-28 15:23:56.500000000,-55.0,-33.0,-6.0,80.75999999999999,-22.68,2.471051,32.87
2021-06-28 15:23:56.507812500,-55.0,-32.75,-6.0,80.76140625,-24.395,2.4706906875000003,32.87
2021-06-28 15:23:56.515625000,-55.0,-32.5,-6.0,80.7628125,-26.11,2.470330375,32.87
2021-06-28 15:23:56.523437500,-55.0,-32.25,-6.0,80.76421875,-27.335,2.4699700625000003,32.87
2021-06-28 15:23:56.531250000,-55.0,-32.0,-6.0,80.765625,-28.56,2.46960975,32.87
2021-06-28 15:23:56.539062500,-55.25,-32.25,-5.75,80.76703125,-29.09,2.4692494375000003,32.87
2021-06-28 15:23:56.546875000,-55.5,-32.5,-5.5,80.7684375,-29.62,2.468889125,32.87
2021-06-28 15:23:56.554687500,-55.75,-32.75,-5.25,80.76984374999999,-29.355,2.4685288125000002,32.87
2021-06-28 15:23:56.562500000,-56.0,-33.0,-5.0,80.77125,-29.09,2.4681685,32.87
2021-06-28 15:23:56.570312500,-55.75,-32.75,-5.25,80.77265625,-28.075,2.4678081875,32.87
2021-06-28 15:23:56.578125000,-55.5,-32.5,-5.5,80.7740625,-27.06,2.467447875,32.87
2021-06-28 15:23:56.585937500,-55.25,-32.25,-5.75,80.77546875,-25.43,2.4670875625,32.87
2021-06-28 15:23:56.593750000,-55.0,-32.0,-6.0,80.776875,-23.8,2.46672725,32.87
2021-06-28 15:23:56.601562500,-55.25,-32.25,-6.0,80.77828124999999,-21.77,2.4663669375,32.87
2021-06-28 15:23:56.609375000,-55.5,-32.5,-6.0,80.7796875,-19.74,2.466006625,32.87
2021-06-28 15:23:56.617187500,-55.75,-32.75,-6.0,80.78109375,-17.525,2.4656463125,32.87
2021-06-28 15:23:56.625000000,-56.0,-33.0,-6.0,80.7825,-15.31,2.465286,32.87
2021-06-28 15:23:56.632812500,-55.75,-33.0,-5.75,80.78390625,-13.125,2.4649256875,32.87
2021-06-28 15:23:56.640625000,-55.5,-33.0,-5.5,80.7853125,-10.94,2.4645653750000003,32.87
2021-06-28 15:23:56.648437500,-55.25,-33.0,-5.25,80.78671874999999,-8.91,2.4642050625,32.87
2021-06-28 15:23:56.656250000,-55.0,-33.0,-5.0,80.788125,-6.88,2.4638447500000002,32.87
2021-06-28 15:23:56.664062500,-55.25,-33.0,-5.25,80.78953125,-5.0649999999999995,2.4634844375,32.87
2021-06-28 15:23:56.671875000,-55.5,-33.0,-5.5,80.7909375,-3.25,2.463124125,32.87
2021-06-28 15:23:56.679687500,-55.75,-33.0,-5.75,80.79234375,-1.605,2.4627638125,32.87
2021-06-28 15:23:56.687500000,-56.0,-33.0,-6.0,80.79375,0.04,2.4624035,32.87
2021-06-28 15:23:56.695312500,-56.0,-32.75,-5.75,80.79515624999999,1.6,2.4620431875,32.87
2021-06-28 15:23:56.703125000,-56.0,-32.5,-5.5,80.7965625,3.16,2.461682875,32.87
2021-06-28 15:23:56.710937500,-56.0,-32.25,-5.25,80.79796875,4.7,2.4613225625,32.87
2021-06-28 15:23:56.718750000,-56.0,-32.0,-5.0,80.799375,6.24,2.46096225,32.87
2021-06-28 15:23:56.726562500,-55.75,-32.25,-5.25,80.80078125,7.775,2.4606019375,32.87
2021-06-28 15:23:56.734375000,-55.5,-32.5,-5.5,80.8021875,9.31,2.460241625,32.87
2021-06-28 15:23:56.742187500,-55.25,-32.75,-5.75,80.80359374999999,10.75,2.4598813125,32.87
2021-06-28 15:23:56.750000000,-55.0,-33.0,-6.0,80.80499999999999,12.19,2.459521,32.87
2021-06-28 15:23:56.757812500,-55.0,-33.0,-6.0,80.80640625,13.42,2.459521,32.87
2021-06-28 15:23:56.765625000,-55.0,-33.0,-6.0,80.8078125,14.65,2.459521,32.87
2021-06-28 15:23:56.773437500,-55.0,-33.0,-6.0,80.80921875,15.580000000000002,2.459521,32.87
2021-06-28 15:23:56.781250000,-55.0,-33.0,-6.0,80.810625,16.51,2.459521,32.87
2021-06-28 15:23:56.789062500,-55.0,-32.75,-6.0,80.81203124999999,17.12,2.459521,32.87
2021-06-28 15:23:56.796875000,-55.0,-32.5,-6.0,80.81343749999999,17.73,2.459521,32.87
2021-06-28 15:23:56.804687500,-55.0,-32.25,-6.0,80.81484375,18.085,2.459521,32.87
2021-06-28 15:23:56.812500000,-55.0,-32.0,-6.0,80.81625,18.44,2.459521,32.87
2021-06-28 15:23:56.820312500,-55.0,-32.25,-6.0,80.81765625,18.66,2.459521,32.87
2021-06-28 15:23:56.828125000,-55.0,-32.5,-6.0,80.8190625,18.88,2.459521,32.87
2021-06-28 15:23:56.835937500,-55.0,-32.75,-6.0,80.82046874999999,19.055,2.459521,32.87
2021-06-28 15:23:56.843750000,-55.0,-33.0,-6.0,80.82187499999999,19.23,2.459521,32.87
2021-06-28 15:23:56.851562500,-55.25,-33.0,-5.75,80.82328125,19.384999999999998,2.459521,32.87
2021-06-28 15:23:56.859375000,-55.5,-33.0,-5.5,80.8246875,19.54,2.459521,32.87
2021-06-28 15:23:56.867187500,-55.75,-33.0,-5.25,80.82609375,19.625,2.459521,32.87
2021-06-28 15:23:56.875000000,-56.0,-33.0,-5.0,80.8275,19.71,2.459521,32.87
2021-06-28 15:23:56.882812500,-55.75,-33.0,-5.25,80.82890624999999,19.65,2.459521,32.87
2021-06-28 15:23:56.890625000,-55.5,-33.0,-5.5,80.83031249999999,19.59,2.459521,32.87
2021-06-28 15:23:56.898437500,-55.25,-33.0,-5.75,80.83171875,19.335,2.459521,32.87
2021-06-28 15:23:56.906250000,-55.0,-33.0,-6.0,80.833125,19.08,2.459521,32.87
2021-06-28 15:23:56.914062500,-55.0,-33.0,-6.0,80.83453125,18.61,2.459521,32.87
2021-06-28 15:23:56.921875000,-55.0,-33.0,-6.0,80.8359375,18.14,2.459521,32.87
2021-06-28 15:23:56.929687500,-55.0,-33.0,-6.0,80.83734374999999,17.485,2.459521,32.87
2021-06-28 15:23:56.937500000,-55.0,-33.0,-6.0,80.83874999999999,16.83,2.459521,32.87
2021-06-28 15:23:56.945312500,-55.0,-33.0,-6.0,80.84015624999999,16.025,2.459521,32.87
2021-06-28 15:23:56.953125000,-55.0,-33.0,-6.0,80.8415625,15.22,2.459521,32.87
2021-06-28 15:23:56.960937500,-55.0,-33.0,-6.0,80.84296875,14.29,2.459521,32.87
2021-06-28 15:23:56.968750000,-55.0,-33.0,-6.0,80.844375,13.36,2.459521,32.87
2021-06-28 15:23:56.976562500,-55.0,-33.0,-6.0,80.84578124999999,12.32,2.459521,32.87
2021-06-28 15:23:56.984375000,-55.0,-33.0,-6.0,80.84718749999999,11.28,2.459521,32.87
2021-06-28 15:23:56.992187500,-55.0,-33.0,-6.0,80.84859374999999,10.165,2.459521,32.87
2021-06-28 15:23:57.000000000,-55.0,-33.0,-6.0,80.85,9.05,2.459521,32.87
2021-06-28 15:23:57.007812500,-55.0,-33.0,-6.0,80.85179687499999,7.91,2.4592808125,32.87
2021-06-28 15:23:57.015625000,-55.0,-33.0,-6.0,80.85359374999999,6.77,2.459040625,32.87
2021-06-28 15:23:57.023437500,-55.0,-33.0,-6.0,80.855390625,5.66,2.4588004375,32.87
2021-06-28 15:23:57.031250000,-55.0,-33.0,-6.0,80.8571875,4.55,2.45856025,32.87
2021-06-28 15:23:57.039062500,-55.25,-33.0,-6.0,80.85898437499999,3.51,2.4583200625,32.87
2021-06-28 15:23:57.046875000,-55.5,-33.0,-6.0,80.86078124999999,2.47,2.458079875,32.87
2021-06-28 15:23:57.054687500,-55.75,-33.0,-6.0,80.862578125,1.4600000000000002,2.4578396875,32.87
2021-06-28 15:23:57.062500000,-56.0,-33.0,-6.0,80.864375,0.45,2.4575995,32.87
2021-06-28 15:23:57.070312500,-55.75,-33.0,-6.0,80.86617187499999,-0.625,2.4573593125,32.87
2021-06-28 15:23:57.078125000,-55.5,-33.0,-6.0,80.86796874999999,-1.7,2.457119125,32.87
2021-06-28 15:23:57.085937500,-55.25,-33.0,-6.0,80.869765625,-2.965,2.4568789375,32.87
2021-06-28 15:23:57.093750000,-55.0,-33.0,-6.0,80.8715625,-4.23,2.45663875,32.87
2021-06-28 15:23:57.101562500,-55.0,-33.0,-6.0,80.87335937499999,-5.765000000000001,2.4563985625,32.87
2021-06-28 15:23:57.109375000,-55.0,-33.0,-6.0,80.87515624999999,-7.3,2.4561583750000002,32.87
2021-06-28 15:23:57.117187500,-55.0,-33.0,-6.0,80.876953125,-9.055,2.4559181875,32.87
2021-06-28 15:23:57.125000000,-55.0,-33.0,-6.0,80.87875,-10.81,2.455678,32.87
2021-06-28 15:23:57.132812500,-55.25,-33.0,-6.0,80.880546875,-12.61,2.4554378125,32.87
2021-06-28 15:23:57.140625000,-55.5,-33.0,-6.0,80.88234374999999,-14.41,2.455197625,32.87
2021-06-28 15:23:57.148437500,-55.75,-33.0,-6.0,80.884140625,-15.975,2.4549574375,32.87
2021-06-28 15:23:57.156250000,-56.0,-33.0,-6.0,80.8859375,-17.54,2.45471725,32.87
2021-06-28 15:23:57.164062500,-55.75,-33.0,-5.75,80.887734375,-18.59,2.4544770625,32.87
2021-06-28 15:23:57.171875000,-55.5,-33.0,-5.5,80.88953124999999,-19.64,2.454236875,32.87
2021-06-28 15:23:57.179687500,-55.25,-33.0,-5.25,80.891328125,-19.975,2.4539966875,32.87
2021-06-28 15:23:57.187500000,-55.0,-33.0,-5.0,80.893125,-20.31,2.4537565,32.87
2021-06-28 15:23:57.195312500,-55.25,-33.0,-5.25,80.894921875,-19.869999999999997,2.4535163125,32.87
2021-06-28 15:23:57.203125000,-55.5,-33.0,-5.5,80.89671874999999,-19.43,2.453276125,32.87
2021-06-28 15:23:57.210937500,-55.75,-33.0,-5.75,80.898515625,-18.310000000000002,2.4530359375,32.87
2021-06-28 15:23:57.218750000,-56.0,-33.0,-6.0,80.9003125,-17.19,2.45279575,32.87
2021-06-28 15:23:57.226562500,-55.75,-33.0,-6.0,80.902109375,-15.545000000000002,2.4525555625,32.87
2021-06-28 15:23:57.234375000,-55.5,-33.0,-6.0,80.90390624999999,-13.9,2.452315375,32.87
2021-06-28 15:23:57.242187500,-55.25,-33.0,-6.0,80.905703125,-11.935,2.4520751875,32.87
2021-06-28 15:23:57.250000000,-55.0,-33.0,-6.0,80.9075,-9.97,2.451835,32.87
2021-06-28 15:23:57.257812500,-55.25,-33.0,-6.0,80.909296875,-7.845000000000001,2.4519150625,32.87
2021-06-28 15:23:57.265625000,-55.5,-33.0,-6.0,80.91109374999999,-5.72,2.451995125,32.87
2021-06-28 15:23:57.273437500,-55.75,-33.0,-6.0,80.91289062499999,-3.565,2.4520751875,32.87
2021-06-28 15:23:57.281250000,-56.0,-33.0,-6.0,80.9146875,-1.41,2.45215525,32.87
2021-06-28 15:23:57.289062500,-55.75,-33.0,-6.0,80.916484375,0.6849999999999998,2.4522353125,32.87
2021-06-28 15:23:57.296875000,-55.5,-33.0,-6.0,80.91828124999999,2.78,2.452315375,32.87
2021-06-28 15:23:57.304687500,-55.25,-33.0,-6.0,80.92007812499999,4.735,2.4523954375,32.87
2021-06-28 15:23:57.312500000,-55.0,-33.0,-6.0,80.921875,6.69,2.4524755000000003,32.87
2021-06-28 15:23:57.320312500,-55.0,-33.0,-6.0,80.923671875,8.435,2.4525555625,32.87
2021-06-28 15:23:57.328125000,-55.0,-33.0,-6.0,80.92546875,10.18,2.452635625,32.87
2021-06-28 15:23:57.335937500,-55.0,-33.0,-6.0,80.92726562499999,11.67,2.4527156875,32.87
2021-06-28 15:23:57.343750000,-55.0,-33.0,-6.0,80.9290625,13.16,2.45279575,32.87
2021-06-28 15:23:57.351562500,-55.0,-33.0,-6.0,80.930859375,14.385,2.4528758125,32.87
2021-06-28 15:23:57.359375000,-55.0,-33.0,-6.0,80.93265625,15.61,2.4529558750000002,32.87
2021-06-28 15:23:57.367187500,-55.0,-33.0,-6.0,80.93445312499999,16.6,2.4530359375,32.87
2021-06-28 15:23:57.375000000,-55.0,-33.0,-6.0,80.93625,17.59,2.453116,32.87
2021-06-28 15:23:57.382812500,-55.0,-33.0,-6.0,80.938046875,18.380000000000003,2.4531960625,32.87
2021-06-28 15:23:57.390625000,-55.0,-33.0,-6.0,80.93984375,19.17,2.453276125,32.87
2021-06-28 15:23:57.398437500,-55.0,-33.0,-6.0,80.94164062499999,19.775,2.4533561875000003,32.87
2021-06-28 15:23:57.406250000,-55.0,-33.0,-6.0,80.9434375,20.38,2.45343625,32.87
2021-06-28 15:23:57.414062500,-55.25,-33.0,-6.0,80.945234375,20.799999999999997,2.4535163125,32.87
2021-06-28 15:23:57.421875000,-55.5,-33.0,-6.0,80.94703125,21.22,2.453596375,32.87
2021-06-28 15:23:57.429687500,-55.75,-33.0,-6.0,80.94882812499999,21.435,2.4536764375,32.87
2021-06-28 15:23:57.437500000,-56.0,-33.0,-6.0,80.950625,21.65,2.4537565,32.87
2021-06-28 15:23:57.445312500,-55.75,-33.0,-6.0,80.952421875,21.64,2.4538365625000003,32.87
2021-06-28 15:23:57.453125000,-55.5,-33.0,-6.0,80.95421875,21.63,2.453916625,32.87
2021-06-28 15:23:57.460937500,-55.25,-33.0,-6.0,80.95601562499999,21.435,2.4539966875,32.87
2021-06-28 15:23:57.468750000,-55.0,-33.0,-6.0,80.9578125,21.24,2.45407675,32.87
2021-06-28 15:23:57.476562500,-55.0,-33.0,-5.75,80.959609375,20.935,2.4541568125,32.87
2021-06-28 15:23:57.484375000,-55.0,-33.0,-5.5,80.96140625,20.63,2.4542368750000003,32.87
2021-06-28 15:23:57.492187500,-55.0,-33.0,-5.25,80.96320312499999,20.305,2.4543169375000002,32.87
2021-06-28 15:23:57.500000000,-55.0,-33.0,-5.0,80.965,19.98,2.454397,32.87
2021-06-28 15:23:57.507812500,-55.25,-33.0,-5.25,80.966796875,19.700000000000003,2.4541968125,32.87
2021-06-28 15:23:57.515625000,-55.5,-33.0,-5.5,80.96859375,19.42,2.4539966250000003,32.87
2021-06-28 15:23:57.523437500,-55.75,-33.0,-5.75,80.970390625,19.18,2.4537964375000003,32.87
2021-06-28 15:23:57.531250000,-56.0,-33.0,-6.0,80.97218749999999,18.94,2.4535962500000004,32.87
2021-06-28 15:23:57.539062500,-55.75,-33.0,-6.0,80.973984375,18.665,2.4533960625,32.87
2021-06-28 15:23:57.546875000,-55.5,-33.0,-6.0,80.97578125,18.39,2.453195875,32.87
2021-06-28 15:23:57.554687500,-55.25,-33.0,-6.0,80.977578125,17.97,2.4529956875,32.87
2021-06-28 15:23:57.562500000,-55.0,-33.0,-6.0,80.97937499999999,17.55,2.4527955,32.87
2021-06-28 15:23:57.570312500,-55.25,-33.0,-6.0,80.981171875,16.905,2.4525953125,32.87
2021-06-28 15:23:57.578125000,-55.5,-33.0,-6.0,80.98296875,16.26,2.4523951250000002,32.87
2021-06-28 15:23:57.585937500,-55.75,-33.0,-6.0,80.984765625,15.375,2.4521949375000003,32.87
2021-06-28 15:23:57.593750000,-56.0,-33.0,-6.0,80.98656249999999,14.49,2.45199475,32.87
2021-06-28 15:23:57.601562500,-56.0,-33.0,-6.0,80.988359375,13.42,2.4517945625,32.87
2021-06-28 15:23:57.609375000,-56.0,-33.0,-6.0,80.99015625,12.35,2.451594375,32.87
2021-06-28 15:23:57.617187500,-56.0,-33.0,-6.0,80.991953125,11.205,2.4513941875,32.87
2021-06-28 15:23:57.625000000,-56.0,-33.0,-6.0,80.99374999999999,10.06,2.451194,32.87
2021-06-28 15:23:57.632812500,-55.75,-33.0,-6.0,80.995546875,8.925,2.4509938125,32.87
2021-06-28 15:23:57.640625000,-55.5,-33.0,-6.0,80.99734375,7.79,2.450793625,32.87
2021-06-28 15:23:57.648437500,-55.25,-33.0,-6.0,80.999140625,6.715,2.4505934375000002,32.87
2021-06-28 15:23:57.656250000,-55.0,-33.0,-6.0,81.00093749999999,5.64,2.4503932500000003,32.87
2021-06-28 15:23:57.664062500,-55.0,-33.0,-6.0,81.002734375,4.595,2.4501930625,32.87
2021-06-28 15:23:57.671875000,-55.0,-33.0,-6.0,81.00453125,3.55,2.449992875,32.87
2021-06-28 15:23:57.679687500,-55.0,-33.0,-6.0,81.006328125,2.485,2.4497926875,32.87
2021-06-28 15:23:57.687500000,-55.0,-33.0,-6.0,81.00812499999999,1.42,2.4495925,32.87
2021-06-28 15:23:57.695312500,-55.25,-33.0,-6.0,81.009921875,0.26,2.4493923125,32.87
2021-06-28 15:23:57.703125000,-55.5,-33.0,-6.0,81.01171875,-0.9,2.449192125,32.87
2021-06-28 15:23:57.710937500,-55.75,-33.0,-6.0,81.013515625,-2.215,2.4489919375,32.87
2021-06-28 15:23:57.718750000,-56.0,-33.0,-6.0,81.0153125,-3.53,2.44879175,32.87
2021-06-28 15:23:57.726562500,-55.75,-33.0,-5.75,81.017109375,-5.0649999999999995,2.4485915625,32.87
2021-06-28 15:23:57.734375000,-55.5,-33.0,-5.5,81.01890625,-6.6,2.448391375,32.87
2021-06-28 15:23:57.742187500,-55.25,-33.0,-5.25,81.020703125,-8.355,2.4481911875,32.87
2021-06-28 15:23:57.750000000,-55.0,-33.0,-5.0,81.0225,-10.11,2.447991,32.87
2021-06-28 15:23:57.757812500,-55.0,-32.75,-5.25,81.02429687499999,-12.045,2.44771078125,32.87
2021-06-28 15:23:57.765625000,-55.0,-32.5,-5.5,81.02609375,-13.98,2.4474305625,32.87
2021-06-28 15:23:57.773437500,-55.0,-32.25,-5.75,81.027890625,-15.955,2.44715034375,32.87
2021-06-28 15:23:57.781250000,-55.0,-32.0,-6.0,81.0296875,-17.93,2.4468701250000002,32.87
2021-06-28 15:23:57.789062500,-55.25,-32.25,-6.0,81.03148437499999,-19.695,2.44658990625,32.87
2021-06-28 15:23:57.796875000,-55.5,-32.5,-6.0,81.03328125,-21.46,2.4463096875,32.87
2021-06-28 15:23:57.804687500,-55.75,-32.75,-6.0,81.035078125,-22.705,2.44602946875,32.87
2021-06-28 15:23:57.812500000,-56.0,-33.0,-6.0,81.036875,-23.95,2.44574925,32.87
2021-06-28 15:23:57.820312500,-56.0,-33.0,-6.0,81.03867187499999,-24.4,2.44546903125,32.87
2021-06-28 15:23:57.828125000,-56.0,-33.0,-6.0,81.04046875,-24.85,2.4451888125,32.87
2021-06-28 15:23:57.835937500,-56.0,-33.0,-6.0,81.042265625,-24.375,2.44490859375,32.87
2021-06-28 15:23:57.843750000,-56.0,-33.0,-6.0,81.0440625,-23.9,2.4446283749999997,32.87
2021-06-28 15:23:57.851562500,-56.0,-33.0,-5.75,81.04585937499999,-22.549999999999997,2.44434815625,32.87
2021-06-28 15:23:57.859375000,-56.0,-33.0,-5.5,81.04765625,-21.2,2.4440679375,32.87
2021-06-28 15:23:57.867187500,-56.0,-33.0,-5.25,81.049453125,-19.225,2.44378771875,32.87
2021-06-28 15:23:57.875000000,-56.0,-33.0,-5.0,81.05125,-17.25,2.4435075,32.87
2021-06-28 15:23:57.882812500,-55.75,-32.75,-5.25,81.05304687499999,-14.945,2.44322728125,32.87
2021-06-28 15:23:57.890625000,-55.5,-32.5,-5.5,81.05484375,-12.64,2.4429470625,32.87
2021-06-28 15:23:57.898437500,-55.25,-32.25,-5.75,81.056640625,-10.265,2.44266684375,32.87
2021-06-28 15:23:57.906250000,-55.0,-32.0,-6.0,81.0584375,-7.89,2.442386625,32.87
2021-06-28 15:23:57.914062500,-55.0,-32.25,-6.0,81.060234375,-5.595,2.4421064062499998,32.87
2021-06-28 15:23:57.921875000,-55.0,-32.5,-6.0,81.06203125,-3.3,2.4418261875,32.87
2021-06-28 15:23:57.929687500,-55.0,-32.75,-6.0,81.063828125,-1.1149999999999998,2.44154596875,32.87
2021-06-28 15:23:57.937500000,-55.0,-33.0,-6.0,81.065625,1.07,2.44126575,32.87
2021-06-28 15:23:57.945312500,-55.25,-32.75,-5.75,81.067421875,3.1500000000000004,2.44098553125,32.87
2021-06-28 15:23:57.953125000,-55.5,-32.5,-5.5,81.06921875,5.23,2.4407053125,32.87
2021-06-28 15:23:57.960937500,-55.75,-32.25,-5.25,81.071015625,7.1850000000000005,2.44042509375,32.87
2021-06-28 15:23:57.968750000,-56.0,-32.0,-5.0,81.0728125,9.14,2.4401448749999997,32.87
2021-06-28 15:23:57.976562500,-56.0,-32.25,-5.25,81.074609375,10.89,2.4398646562499997,32.87
2021-06-28 15:23:57.984375000,-56.0,-32.5,-5.5,81.07640625,12.64,2.4395844374999998,32.87
2021-06-28 15:23:57.992187500,-56.0,-32.75,-5.75,81.078203125,14.095,2.43930421875,32.87
2021-06-28 15:23:58.000000000,-56.0,-33.0,-6.0,81.08,15.55,2.439024,32.87
2021-06-28 15:23:58.007812500,-55.75,-32.75,-6.0,81.081875,16.64,2.439024,32.871249999999996
2021-06-28 15:23:58.015625000,-55.5,-32.5,-6.0,81.08375,17.73,2.439024,32.872499999999995
2021-06-28 15:23:58.023437500,-55.25,-32.25,-6.0,81.085625,18.445,2.439024,32.873749999999994
2021-06-28 15:23:58.031250000,-55.0,-32.0,-6.0,81.08749999999999,19.16,2.439024,32.875
2021-06-28 15:23:58.039062500,-55.0,-32.0,-6.0,81.089375,19.55,2.439024,32.87625
2021-06-28 15:23:58.046875000,-55.0,-32.0,-6.0,81.09125,19.94,2.439024,32.8775
2021-06-28 15:23:58.054687500,-55.0,-32.0,-6.0,81.093125,20.1,2.439024,32.87875
2021-06-28 15:23:58.062500000,-55.0,-32.0,-6.0,81.095,20.26,2.439024,32.879999999999995
2021-06-28 15:23:58.070312500,-55.25,-32.25,-6.0,81.096875,20.265,2.439024,32.881249999999994
2021-06-28 15:23:58.078125000,-55.5,-32.5,-6.0,81.09875,20.27,2.439024,32.8825
2021-06-28 15:23:58.085937500,-55.75,-32.75,-6.0,81.100625,20.165,2.439024,32.88375
2021-06-28 15:23:58.093750000,-56.0,-33.0,-6.0,81.10249999999999,20.06,2.439024,32.885
2021-06-28 15:23:58.101562500,-56.0,-32.75,-5.75,81.104375,19.88,2.439024,32.88625
2021-06-28 15:23:58.109375000,-56.0,-32.5,-5.5,81.10625,19.7,2.439024,32.887499999999996
2021-06-28 15:23:58.117187500,-56.0,-32.25,-5.25,81.108125,19.445,2.439024,32.888749999999995
2021-06-28 15:23:58.125000000,-56.0,-32.0,-5.0,81.11,19.19,2.439024,32.89
2021-06-28 15:23:58.132812500,-56.0,-32.0,-5.25,81.111875,18.87,2.439024,32.89125
2021-06-28 15:23:58.140625000,-56.0,-32.0,-5.5,81.11375,18.55,2.439024,32.8925
2021-06-28 15:23:58.148437500,-56.0,-32.0,-5.75,81.115625,18.17,2.439024,32.89375
2021-06-28 15:23:58.156250000,-56.0,-32.0,-6.0,81.11749999999999,17.79,2.439024,32.894999999999996
2021-06-28 15:23:58.164062500,-56.0,-32.0,-6.0,81.11937499999999,17.375,2.439024,32.896249999999995
2021-06-28 15:23:58.171875000,-56.0,-32.0,-6.0,81.12125,16.96,2.439024,32.897499999999994
2021-06-28 15:23:58.179687500,-56.0,-32.0,-6.0,81.123125,16.495,2.439024,32.89875
2021-06-28 15:23:58.187500000,-56.0,-32.0,-6.0,81.125,16.03,2.439024,32.9
2021-06-28 15:23:58.195312500,-55.75,-32.25,-6.0,81.126875,15.5,2.439024,32.90125
2021-06-28 15:23:58.203125000,-55.5,-32.5,-6.0,81.12875,14.97,2.439024,32.902499999999996
2021-06-28 15:23:58.210937500,-55.25,-32.75,-6.0,81.130625,14.33,2.439024,32.903749999999995
2021-06-28 15:23:58.218750000,-55.0,-33.0,-6.0,81.1325,13.69,2.439024,32.904999999999994
2021-06-28 15:23:58.226562500,-55.25,-33.0,-5.75,81.13437499999999,12.91,2.439024,32.90625
2021-06-28 15:23:58.234375000,-55.5,-33.0,-5.5,81.13625,12.13,2.439024,32.9075
2021-06-28 15:23:58.242187500,-55.75,-33.0,-5.25,81.138125,11.18,2.439024,32.90875
2021-06-28 15:23:58.250000000,-56.0,-33.0,-5.0,81.14,10.23,2.439024,32.91
2021-06-28 15:23:58.257812500,-56.0,-32.75,-5.0,81.141875,9.135,2.4388638437499996,32.91
2021-06-28 15:23:58.265625000,-56.0,-32.5,-5.0,81.14375,8.04,2.4387036875,32.91
2021-06-28 15:23:58.273437500,-56.0,-32.25,-5.0,81.145625,6.84,2.4385435312499997,32.91
2021-06-28 15:23:58.281250000,-56.0,-32.0,-5.0,81.1475,5.64,2.438383375,32.91
2021-06-28 15:23:58.289062500,-55.75,-32.0,-5.25,81.14937499999999,4.4,2.4382232187499997,32.91
2021-06-28 15:23:58.296875000,-55.5,-32.0,-5.5,81.15124999999999,3.16,2.4380630625,32.91
2021-06-28 15:23:58.304687500,-55.25,-32.0,-5.75,81.153125,1.915,2.4379029062499997,32.91
2021-06-28 15:23:58.312500000,-55.0,-32.0,-6.0,81.155,0.67,2.43774275,32.91
2021-06-28 15:23:58.320312500,-55.25,-32.0,-6.0,81.156875,-0.5650000000000001,2.4375825937499997,32.91
2021-06-28 15:23:58.328125000,-55.5,-32.0,-6.0,81.15875,-1.8,2.4374224375,32.91
2021-06-28 15:23:58.335937500,-55.75,-32.0,-6.0,81.160625,-3.0300000000000002,2.4372622812499998,32.91
2021-06-28 15:23:58.343750000,-56.0,-32.0,-6.0,81.1625,-4.26,2.437102125,32.91
2021-06-28 15:23:58.351562500,-56.0,-32.0,-6.0,81.16437499999999,-5.525,2.43694196875,32.91
2021-06-28 15:23:58.359375000,-56.0,-32.0,-6.0,81.16624999999999,-6.79,2.4367818125,32.91
2021-06-28 15:23:58.367187500,-56.0,-32.0,-6.0,81.168125,-8.12,2.43662165625,32.91
2021-06-28 15:23:58.375000000,-56.0,-32.0,-6.0,81.17,-9.45,2.4364615,32.91
2021-06-28 15:23:58.382812500,-55.75,-32.0,-6.0,81.171875,-10.885,2.43630134375,32.91
2021-06-28 15:23:58.390625000,-55.5,-32.0,-6.0,81.17375,-12.32,2.4361411874999996,32.91
2021-06-28 15:23:58.398437500,-55.25,-32.0,-6.0,81.175625,-13.870000000000001,2.43598103125,32.91
2021-06-28 15:23:58.406250000,-55.0,-32.0,-6.0,81.1775,-15.42,2.4358208749999997,32.91
2021-06-28 15:23:58.414062500,-55.0,-32.25,-6.0,81.179375,-17.055,2.43566071875,32.91
2021-06-28 15:23:58.421875000,-55.0,-32.5,-6.0,81.18124999999999,-18.69,2.4355005624999997,32.91
2021-06-28 15:23:58.429687500,-55.0,-32.75,-6.0,81.18312499999999,-20.32,2.43534040625,32.91
2021-06-28 15:23:58.437500000,-55.0,-33.0,-6.0,81.185,-21.95,2.4351802499999997,32.91
2021-06-28 15:23:58.445312500,-55.25,-33.0,-6.0,81.186875,-23.39,2.43502009375,32.91
2021-06-28 15:23:58.453125000,-55.5,-33.0,-6.0,81.18875,-24.83,2.4348599374999997,32.91
2021-06-28 15:23:58.460937500,-55.75,-33.0,-6.0,81.190625,-25.845,2.43469978125,32.91
2021-06-28 15:23:58.468750000,-56.0,-33.0,-6.0,81.1925,-26.86,2.4345396249999998,32.91
2021-06-28 15:23:58.476562500,-55.75,-33.0,-5.75,81.194375,-27.244999999999997,2.43437946875,32.91
2021-06-28 15:23:58.484375000,-55.5,-33.0,-5.5,81.19624999999999,-27.63,2.4342193125,32.91
2021-06-28 15:23:58.492187500,-55.25,-33.0,-5.25,81.19812499999999,-27.28,2.43405915625,32.91
2021-06-28 15:23:58.500000000,-55.0,-33.0,-5.0,81.19999999999999,-26.93,2.433899,32.91
2021-06-28 15:23:58.507812500,-55.25,-33.0,-5.25,81.201875,-25.88,2.4337789062499997,32.91
2021-06-28 15:23:58.515625000,-55.5,-33.0,-5.5,81.20375,-24.83,2.4336588125,32.91
2021-06-28 15:23:58.523437500,-55.75,-33.0,-5.75,81.205625,-23.255,2.43353871875,32.91
2021-06-28 15:23:58.531250000,-56.0,-33.0,-6.0,81.2075,-21.68,2.433418625,32.91
2021-06-28 15:23:58.539062500,-56.0,-32.75,-6.0,81.209375,-19.79,2.4332985312499997,32.91
2021-06-28 15:23:58.546875000,-56.0,-32.5,-6.0,81.21124999999999,-17.9,2.4331784374999996,32.91
2021-06-28 15:23:58.554687500,-56.0,-32.25,-6.0,81.21312499999999,-15.89,2.43305834375,32.91
2021-06-28 15:23:58.562500000,-56.0,-32.0,-6.0,81.21499999999999,-13.88,2.43293825,32.91
2021-06-28 15:23:58.570312500,-55.75,-32.0,-6.0,81.216875,-11.855,2.4328181562499998,32.91
2021-06-28 15:23:58.578125000,-55.5,-32.0,-6.0,81.21875,-9.83,2.4326980625,32.91
2021-06-28 15:23:58.585937500,-55.25,-32.0,-6.0,81.220625,-7.825,2.43257796875,32.91
2021-06-28 15:23:58.593750000,-55.0,-32.0,-6.0,81.2225,-5.82,2.432457875,32.91
2021-06-28 15:23:58.601562500,-55.25,-32.25,-6.0,81.224375,-3.8400000000000003,2.4323377812499998,32.91
2021-06-28 15:23:58.609375000,-55.5,-32.5,-6.0,81.22625,-1.86,2.4322176874999997,32.91
2021-06-28 15:23:58.617187500,-55.75,-32.75,-6.0,81.22812499999999,0.07499999999999996,2.43209759375,32.91
2021-06-28 15:23:58.625000000,-56.0,-33.0,-6.0,81.22999999999999,2.01,2.4319775,32.91
2021-06-28 15:23:58.632812500,-55.75,-33.0,-6.0,81.23187499999999,3.83,2.43185740625,32.91
2021-06-28 15:23:58.640625000,-55.5,-33.0,-6.0,81.23375,5.65,2.4317373125,32.91
2021-06-28 15:23:58.648437500,-55.25,-33.0,-6.0,81.235625,7.265000000000001,2.43161721875,32.91
2021-06-28 15:23:58.656250000,-55.0,-33.0,-6.0,81.2375,8.88,2.431497125,32.91
2021-06-28 15:23:58.664062500,-55.25,-33.0,-6.0,81.239375,10.190000000000001,2.43137703125,32.91
2021-06-28 15:23:58.671875000,-55.5,-33.0,-6.0,81.24125,11.5,2.4312569374999997,32.91
2021-06-28 15:23:58.679687500,-55.75,-33.0,-6.0,81.24312499999999,12.46,2.43113684375,32.91
2021-06-28 15:23:58.687500000,-56.0,-33.0,-6.0,81.24499999999999,13.42,2.43101675,32.91
2021-06-28 15:23:58.695312500,-55.75,-33.0,-6.0,81.24687499999999,14.025,2.43089665625,32.91
2021-06-28 15:23:58.703125000,-55.5,-33.0,-6.0,81.24875,14.63,2.4307765625,32.91
2021-06-28 15:23:58.710937500,-55.25,-33.0,-6.0,81.250625,14.935,2.43065646875,32.91
2021-06-28 15:23:58.718750000,-55.0,-33.0,-6.0,81.2525,15.24,2.430536375,32.91
2021-06-28 15:23:58.726562500,-55.0,-32.75,-6.0,81.254375,15.33,2.43041628125,32.91
2021-06-28 15:23:58.734375000,-55.0,-32.5,-6.0,81.25625,15.42,2.4302961874999998,32.91
2021-06-28 15:23:58.742187500,-55.0,-32.25,-6.0,81.25812499999999,15.405000000000001,2.43017609375,32.91
2021-06-28 15:23:58.750000000,-55.0,-32.0,-6.0,81.25999999999999,15.39,2.430056,32.91
2021-06-28 15:23:58.757812500,-55.25,-32.0,-6.0,81.26187499999999,15.33,2.43024809375,32.91
2021-06-28 15:23:58.765625000,-55.5,-32.0,-6.0,81.26374999999999,15.27,2.4304401875,32.91
2021-06-28 15:23:58.773437500,-55.75,-32.0,-6.0,81.265625,15.19,2.43063228125,32.91
2021-06-28 15:23:58.781250000,-56.0,-32.0,-6.0,81.2675,15.11,2.430824375,32.91
2021-06-28 15:23:58.789062500,-56.0,-32.25,-6.0,81.269375,14.965,2.4310164687499998,32.91
2021-06-28 15:23:58.796875000,-56.0,-32.5,-6.0,81.27125,14.82,2.4312085625,32.91
2021-06-28 15:23:58.804687500,-56.0,-32.75,-6.0,81.273125,14.55,2.43140065625,32.91
2021-06-28 15:23:58.812500000,-56.0,-33.0,-6.0,81.27499999999999,14.28,2.43159275,32.91
2021-06-28 15:23:58.820312500,-55.75,-33.0,-6.0,81.27687499999999,13.85,2.43178484375,32.91
2021-06-28 15:23:58.828125000,-55.5,-33.0,-6.0,81.27874999999999,13.42,2.4319769375,32.91
2021-06-28 15:23:58.835937500,-55.25,-33.0,-6.0,81.280625,12.825,2.43216903125,32.91
2021-06-28 15:23:58.843750000,-55.0,-33.0,-6.0,81.2825,12.23,2.432361125,32.91
2021-06-28 15:23:58.851562500,-55.0,-33.0,-6.0,81.284375,11.56,2.43255321875,32.91
2021-06-28 15:23:58.859375000,-55.0,-33.0,-6.0,81.28625,10.89,2.4327453125,32.91
2021-06-28 15:23:58.867187500,-55.0,-33.0,-6.0,81.288125,10.260000000000002,2.4329374062499998,32.91
2021-06-28 15:23:58.875000000,-55.0,-33.0,-6.0,81.28999999999999,9.63,2.4331294999999997,32.91
2021-06-28 15:23:58.882812500,-55.25,-33.0,-6.0,81.29187499999999,9.135000000000002,2.43332159375,32.91
2021-06-28 15:23:58.890625000,-55.5,-33.0,-6.0,81.29374999999999,8.64,2.4335136875,32.91
2021-06-28 15:23:58.898437500,-55.75,-33.0,-6.0,81.29562499999999,8.305,2.43370578125,32.91
2021-06-28 15:23:58.906250000,-56.0,-33.0,-6.0,81.2975,7.97,2.433897875,32.91
2021-06-28 15:23:58.914062500,-55.75,-33.0,-6.0,81.299375,7.725,2.43408996875,32.91
2021-06-28 15:23:58.921875000,-55.5,-33.0,-6.0,81.30125,7.48,2.4342820625,32.91
2021-06-28 15:23:58.929687500,-55.25,-33.0,-6.0,81.303125,7.205,2.43447415625,32.91
2021-06-28 15:23:58.937500000,-55.0,-33.0,-6.0,81.30499999999999,6.93,2.43466625,32.91
2021-06-28 15:23:58.945312500,-55.25,-33.0,-6.0,81.30687499999999,6.484999999999999,2.4348583437499998,32.91
2021-06-28 15:23:58.953125000,-55.5,-33.0,-6.0,81.30874999999999,6.04,2.4350504374999997,32.91
2021-06-28 15:23:58.960937500,-55.75,-33.0,-6.0,81.31062499999999,5.355,2.43524253125,32.91
2021-06-28 15:23:58.968750000,-56.0,-33.0,-6.0,81.3125,4.67,2.435434625,32.91
2021-06-28 15:23:58.976562500,-56.0,-33.0,-6.0,81.314375,3.7649999999999997,2.43562671875,32.91
2021-06-28 15:23:58.984375000,-56.0,-33.0,-6.0,81.31625,2.86,2.4358188125,32.91
2021-06-28 15:23:58.992187500,-56.0,-33.0,-6.0,81.318125,1.825,2.43601090625,32.91
2021-06-28 15:23:59.000000000,-56.0,-33.0,-6.0,81.32,0.79,2.436203,32.91
2021-06-28 15:23:59.007812500,-56.0,-33.0,-5.75,81.321953125,-0.26,2.4361629687499997,32.90875
2021-06-28 15:23:59.015625000,-56.0,-33.0,-5.5,81.32390625,-1.31,2.4361229375,32.9075
2021-06-28 15:23:59.023437500,-56.0,-33.0,-5.25,81.325859375,-2.3,2.43608290625,32.90625
2021-06-28 15:23:59.031250000,-56.0,-33.0,-5.0,81.3278125,-3.29,2.436042875,32.904999999999994
2021-06-28 15:23:59.039062500,-55.75,-33.0,-5.25,81.329765625,-4.215,2.43600284375,32.903749999999995
2021-06-28 15:23:59.046875000,-55.5,-33.0,-5.5,81.33171875,-5.14,2.4359628124999997,32.902499999999996
2021-06-28 15:23:59.054687500,-55.25,-33.0,-5.75,81.333671875,-6.045,2.43592278125,32.90125
2021-06-28 15:23:59.062500000,-55.0,-33.0,-6.0,81.335625,-6.95,2.4358827499999998,32.9
2021-06-28 15:23:59.070312500,-55.25,-33.0,-6.0,81.337578125,-7.91,2.43584271875,32.89875
2021-06-28 15:23:59.078125000,-55.5,-33.0,-6.0,81.33953125,-8.87,2.4358026875,32.897499999999994
2021-06-28 15:23:59.085937500,-55.75,-33.0,-6.0,81.341484375,-9.945,2.4357626562499997,32.896249999999995
2021-06-28 15:23:59.093750000,-56.0,-33.0,-6.0,81.3434375,-11.02,2.435722625,32.894999999999996
2021-06-28 15:23:59.101562500,-55.75,-32.75,-6.0,81.345390625,-12.245000000000001,2.4356825937499997,32.89375
2021-06-28 15:23:59.109375000,-55.5,-32.5,-6.0,81.34734375,-13.47,2.4356425625,32.8925
2021-06-28 15:23:59.117187500,-55.25,-32.25,-6.0,81.349296875,-14.850000000000001,2.43560253125,32.89125
2021-06-28 15:23:59.125000000,-55.0,-32.0,-6.0,81.35125,-16.23,2.4355624999999996,32.89
2021-06-28 15:23:59.132812500,-55.0,-32.25,-6.0,81.353203125,-17.759999999999998,2.43552246875,32.888749999999995
2021-06-28 15:23:59.140625000,-55.0,-32.5,-6.0,81.35515625,-19.29,2.4354824374999997,32.887499999999996
2021-06-28 15:23:59.148437500,-55.0,-32.75,-6.0,81.357109375,-20.915,2.43544240625,32.88625
2021-06-28 15:23:59.156250000,-55.0,-33.0,-6.0,81.3590625,-22.54,2.435402375,32.885
2021-06-28 15:23:59.164062500,-55.0,-33.0,-6.0,81.361015625,-24.185,2.43536234375,32.88375
2021-06-28 15:23:59.171875000,-55.0,-33.0,-6.0,81.36296875,-25.83,2.4353223125,32.8825
2021-06-28 15:23:59.179687500,-55.0,-33.0,-6.0,81.364921875,-27.34,2.4352822812499997,32.881249999999994
2021-06-28 15:23:59.187500000,-55.0,-33.0,-6.0,81.366875,-28.85,2.43524225,32.879999999999995
2021-06-28 15:23:59.195312500,-55.0,-33.0,-6.0,81.368828125,-30.04,2.4352022187499998,32.87875
2021-06-28 15:23:59.203125000,-55.0,-33.0,-6.0,81.37078125,-31.23,2.4351621875,32.8775
2021-06-28 15:23:59.210937500,-55.0,-33.0,-6.0,81.372734375,-31.884999999999998,2.43512215625,32.87625
2021-06-28 15:23:59.218750000,-55.0,-33.0,-6.0,81.3746875,-32.54,2.4350821249999997,32.875
2021-06-28 15:23:59.226562500,-55.0,-33.0,-6.0,81.376640625,-32.5,2.43504209375,32.873749999999994
2021-06-28 15:23:59.234375000,-55.0,-33.0,-6.0,81.37859375,-32.46,2.4350020624999997,32.872499999999995
2021-06-28 15:23:59.242187500,-55.0,-33.0,-6.0,81.380546875,-31.655,2.43496203125,32.871249999999996
2021-06-28 15:23:59.250000000,-55.0,-33.0,-6.0,81.3825,-30.85,2.434922,32.87
2021-06-28 15:23:59.257812500,-55.25,-33.0,-6.0,81.384453125,-29.37,2.4346818125,32.87
2021-06-28 15:23:59.265625000,-55.5,-33.0,-6.0,81.38640625,-27.89,2.434441625,32.87
2021-06-28 15:23:59.273437500,-55.75,-33.0,-6.0,81.388359375,-25.925,2.4342014374999996,32.87
2021-06-28 15:23:59.281250000,-56.0,-33.0,-6.0,81.3903125,-23.96,2.43396125,32.87
2021-06-28 15:23:59.289062500,-55.75,-33.0,-6.0,81.392265625,-21.765,2.4337210625,32.87
2021-06-28 15:23:59.296875000,-55.5,-33.0,-6.0,81.39421875,-19.57,2.433480875,32.87
2021-06-28 15:23:59.304687500,-55.25,-33.0,-6.0,81.396171875,-17.36,2.4332406874999997,32.87
2021-06-28 15:23:59.312500000,-55.0,-33.0,-6.0,81.398125,-15.15,2.4330005,32.87
2021-06-28 15:23:59.320312500,-55.0,-33.0,-6.0,81.400078125,-13.05,2.4327603125,32.87
2021-06-28 15:23:59.328125000,-55.0,-33.0,-6.0,81.40203125,-10.95,2.432520125,32.87
2021-06-28 15:23:59.335937500,-55.0,-33.0,-6.0,81.403984375,-9.0,2.4322799374999997,32.87
2021-06-28 15:23:59.343750000,-55.0,-33.0,-6.0,81.4059375,-7.05,2.43203975,32.87
2021-06-28 15:23:59.351562500,-55.25,-33.0,-6.0,81.407890625,-5.24,2.4317995625,32.87
2021-06-28 15:23:59.359375000,-55.5,-33.0,-6.0,81.40984375,-3.43,2.431559375,32.87
2021-06-28 15:23:59.367187500,-55.75,-33.0,-6.0,81.411796875,-1.7650000000000001,2.4313191874999998,32.87
2021-06-28 15:23:59.375000000,-56.0,-33.0,-6.0,81.41375,-0.1,2.431079,32.87
2021-06-28 15:23:59.382812500,-55.75,-33.0,-6.0,81.415703125,1.3699999999999999,2.4308388125000002,32.87
2021-06-28 15:23:59.390625000,-55.5,-33.0,-6.0,81.41765625,2.84,2.430598625,32.87
2021-06-28 15:23:59.398437500,-55.25,-33.0,-6.0,81.419609375,4.045,2.4303584375,32.87
2021-06-28 15:23:59.406250000,-55.0,-33.0,-6.0,81.4215625,5.25,2.43011825,32.87
2021-06-28 15:23:59.414062500,-55.0,-33.0,-6.0,81.423515625,6.15,2.4298780625000003,32.87
2021-06-28 15:23:59.421875000,-55.0,-33.0,-6.0,81.42546875,7.05,2.429637875,32.87
2021-06-28 15:23:59.429687500,-55.0,-33.0,-6.0,81.427421875,7.68,2.4293976875,32.87
2021-06-28 15:23:59.437500000,-55.0,-33.0,-6.0,81.429375,8.31,2.4291575,32.87
2021-06-28 15:23:59.445312500,-55.0,-33.0,-6.0,81.431328125,8.760000000000002,2.4289173125000003,32.87
2021-06-28 15:23:59.453125000,-55.0,-33.0,-6.0,81.43328125,9.21,2.428677125,32.87
2021-06-28 15:23:59.460937500,-55.0,-33.0,-6.0,81.435234375,9.620000000000001,2.4284369375,32.87
2021-06-28 15:23:59.468750000,-55.0,-33.0,-6.0,81.4371875,10.03,2.42819675,32.87
2021-06-28 15:23:59.476562500,-55.0,-33.0,-6.0,81.439140625,10.489999999999998,2.4279565625000004,32.87
2021-06-28 15:23:59.484375000,-55.0,-33.0,-6.0,81.44109375,10.95,2.427716375,32.87
2021-06-28 15:23:59.492187500,-55.0,-33.0,-6.0,81.443046875,11.489999999999998,2.4274761875,32.87
2021-06-28 15:23:59.500000000,-55.0,-33.0,-6.0,81.445,12.03,2.427236,32.87
2021-06-28 15:23:59.507812500,-55.0,-33.0,-6.0,81.446953125,12.620000000000001,2.42719596875,32.87
2021-06-28 15:23:59.515625000,-55.0,-33.0,-6.0,81.44890625,13.21,2.4271559375000002,32.87
2021-06-28 15:23:59.523437500,-55.0,-33.0,-6.0,81.450859375,13.775,2.42711590625,32.87
2021-06-28 15:23:59.531250000,-55.0,-33.0,-6.0,81.4528125,14.34,2.4270758750000003,32.87
2021-06-28 15:23:59.539062500,-55.0,-33.0,-6.0,81.454765625,14.809999999999999,2.42703584375,32.87
2021-06-28 15:23:59.546875000,-55.0,-33.0,-6.0,81.45671875,15.28,2.4269958125,32.87
2021-06-28 15:23:59.554687500,-55.0,-33.0,-6.0,81.458671875,15.594999999999999,2.42695578125,32.87
2021-06-28 15:23:59.562500000,-55.0,-33.0,-6.0,81.460625,15.91,2.42691575,32.87
2021-06-28 15:23:59.570312500,-55.25,-33.0,-6.0,81.462578125,16.04,2.4268757187500003,32.87
2021-06-28 15:23:59.578125000,-55.5,-33.0,-6.0,81.46453125,16.17,2.4268356875,32.87
2021-06-28 15:23:59.585937500,-55.75,-33.0,-6.0,81.466484375,16.115000000000002,2.42679565625,32.87
2021-06-28 15:23:59.593750000,-56.0,-33.0,-6.0,81.4684375,16.06,2.426755625,32.87
2021-06-28 15:23:59.601562500,-55.75,-33.0,-6.0,81.470390625,15.855,2.42671559375,32.87
2021-06-28 15:23:59.609375000,-55.5,-33.0,-6.0,81.47234375,15.65,2.4266755625000003,32.87
2021-06-28 15:23:59.617187500,-55.25,-33.0,-6.0,81.474296875,15.335,2.42663553125,32.87
2021-06-28 15:23:59.625000000,-55.0,-33.0,-6.0,81.47625,15.02,2.4265955000000003,32.87
2021-06-28 15:23:59.632812500,-55.25,-33.0,-6.0,81.478203125,14.635,2.42655546875,32.87
2021-06-28 15:23:59.640625000,-55.5,-33.0,-6.0,81.48015625,14.25,2.4265154375,32.87
2021-06-28 15:23:59.648437500,-55.75,-33.0,-6.0,81.482109375,13.785,2.4264754062500002,32.87
2021-06-28 15:23:59.656250000,-56.0,-33.0,-6.0,81.4840625,13.32,2.426435375,32.87
2021-06-28 15:23:59.664062500,-56.0,-33.0,-6.0,81.486015625,12.719999999999999,2.4263953437500003,32.87
2021-06-28 15:23:59.671875000,-56.0,-33.0,-6.0,81.48796875,12.12,2.4263553125,32.87
2021-06-28 15:23:59.679687500,-56.0,-33.0,-6.0,81.489921875,11.3,2.42631528125,32.87
2021-06-28 15:23:59.687500000,-56.0,-33.0,-6.0,81.491875,10.48,2.42627525,32.87
2021-06-28 15:23:59.695312500,-55.75,-33.0,-6.0,81.493828125,9.41,2.42623521875,32.87
2021-06-28 15:23:59.703125000,-55.5,-33.0,-6.0,81.49578125,8.34,2.4261951875000003,32.87
2021-06-28 15:23:59.710937500,-55.25,-33.0,-6.0,81.497734375,7.085,2.42615515625,32.87
2021-06-28 15:23:59.718750000,-55.0,-33.0,-6.0,81.4996875,5.83,2.426115125,32.87
2021-06-28 15:23:59.726562500,-55.0,-33.0,-6.0,81.501640625,4.525,2.42607509375,32.87
2021-06-28 15:23:59.734375000,-55.0,-33.0,-6.0,81.50359375,3.22,2.4260350625,32.87
2021-06-28 15:23:59.742187500,-55.0,-33.0,-6.0,81.505546875,2.035,2.4259950312500003,32.87
2021-06-28 15:23:59.750000000,-55.0,-33.0,-6.0,81.5075,0.85,2.425955,32.87
2021-06-28 15:23:59.757812500,-55.0,-33.0,-6.0,81.509453125,-0.1150000000000001,2.4258749375,32.87
2021-06-28 15:23:59.765625000,-55.0,-33.0,-6.0,81.51140625,-1.08,2.4257948750000002,32.87
2021-06-28 15:23:59.773437500,-55.0,-33.0,-6.0,81.513359375,-1.835,2.4257148125,32.87
2021-06-28 15:23:59.781250000,-55.0,-33.0,-6.0,81.5153125,-2.59,2.42563475,32.87
2021-06-28 15:23:59.789062500,-55.0,-33.0,-6.0,81.517265625,-3.235,2.4255546875,32.87
2021-06-28 15:23:59.796875000,-55.0,-33.0,-6.0,81.51921875,-3.88,2.425474625,32.87
2021-06-28 15:23:59.804687500,-55.0,-33.0,-6.0,81.521171875,-4.5600000000000005,2.4253945625,32.87
2021-06-28 15:23:59.812500000,-55.0,-33.0,-6.0,81.523125,-5.24,2.4253145,32.87
2021-06-28 15:23:59.820312500,-55.0,-33.0,-6.0,81.525078125,-6.04,2.4252344375,32.87
2021-06-28 15:23:59.828125000,-55.0,-33.0,-6.0,81.52703125,-6.84,2.425154375,32.87
2021-06-28 15:23:59.835937500,-55.0,-33.0,-6.0,81.528984375,-7.79,2.4250743125,32.87
2021-06-28 15:23:59.843750000,-55.0,-33.0,-6.0,81.5309375,-8.74,2.42499425,32.87
2021-06-28 15:23:59.851562500,-55.25,-33.0,-6.0,81.532890625,-9.81,2.4249141875,32.87
2021-06-28 15:23:59.859375000,-55.5,-33.0,-6.0,81.53484375,-10.88,2.424834125,32.87
2021-06-28 15:23:59.867187500,-55.75,-33.0,-6.0,81.536796875,-12.030000000000001,2.4247540625,32.87
2021-06-28 15:23:59.875000000,-56.0,-33.0,-6.0,81.53875,-13.18,2.424674,32.87
2021-06-28 15:23:59.882812500,-55.75,-33.0,-6.0,81.540703125,-14.370000000000001,2.4245939375,32.87
2021-06-28 15:23:59.890625000,-55.5,-33.0,-6.0,81.54265625,-15.56,2.424513875,32.87
2021-06-28 15:23:59.898437500,-55.25,-33.0,-6.0,81.544609375,-16.745,2.4244338125,32.87
2021-06-28 15:23:59.906250000,-55.0,-33.0,-6.0,81.5465625,-17.93,2.42435375,32.87
2021-06-28 15:23:59.914062500,-55.25,-33.0,-6.0,81.548515625,-19.009999999999998,2.4242736875,32.87
2021-06-28 15:23:59.921875000,-55.5,-33.0,-6.0,81.55046875,-20.09,2.424193625,32.87
2021-06-28 15:23:59.929687500,-55.75,-33.0,-6.0,81.552421875,-20.92,2.4241135625,32.87
2021-06-28 15:23:59.937500000,-56.0,-33.0,-6.0,81.554375,-21.75,2.4240335,32.87
2021-06-28 15:23:59.945312500,-55.75,-33.0,-6.0,81.556328125,-22.15,2.4239534375,32.87
2021-06-28 15:23:59.953125000,-55.5,-33.0,-6.0,81.55828125,-22.55,2.423873375,32.87
2021-06-28 15:23:59.960937500,-55.25,-33.0,-6.0,81.560234375,-22.37,2.4237933125,32.87
2021-06-28 15:23:59.968750000,-55.0,-33.0,-6.0,81.5621875,-22.19,2.42371325,32.87
2021-06-28 15:23:59.976562500,-55.0,-33.0,-6.0,81.564140625,-21.384999999999998,2.4236331875,32.87
2021-06-28 15:23:59.984375000,-55.0,-33.0,-6.0,81.56609375,-20.58,2.4235531249999998,32.87
2021-06-28 15:23:59.992187500,-55.0,-33.0,-6.0,81.568046875,-19.21,2.4234730625,32.87
2021-06-28 15:24:00.000000000,-55.0,-33.0,-6.0,81.57,-17.84,2.423393,32.87
2021-06-28 15:24:00.007812500,-55.0,-33.0,-6.0,81.571953125,-16.07,2.42331290625,32.870625
2021-06-28 15:24:00.015625000,-55.0,-33.0,-6.0,81.57390625,-14.3,2.4232328124999998,32.871249999999996
2021-06-28 15:24:00.023437500,-55.0,-33.0,-6.0,81.575859375,-12.3,2.42315271875,32.871874999999996
2021-06-28 15:24:00.031250000,-55.0,-33.0,-6.0,81.5778125,-10.3,2.423072625,32.872499999999995
2021-06-28 15:24:00.039062500,-55.0,-33.0,-6.0,81.579765625,-8.225000000000001,2.42299253125,32.873124999999995
2021-06-28 15:24:00.046875000,-55.0,-33.0,-6.0,81.58171875,-6.15,2.4229124375,32.87375
2021-06-28 15:24:00.054687500,-55.0,-33.0,-6.0,81.583671875,-4.105,2.42283234375,32.874375
2021-06-28 15:24:00.062500000,-55.0,-33.0,-6.0,81.585625,-2.06,2.42275225,32.875
2021-06-28 15:24:00.070312500,-55.0,-33.0,-6.0,81.587578125,-0.10999999999999988,2.42267215625,32.875625
2021-06-28 15:24:00.078125000,-55.0,-33.0,-6.0,81.58953125,1.84,2.4225920625,32.87625
2021-06-28 15:24:00.085937500,-55.0,-33.0,-6.0,81.591484375,3.62,2.42251196875,32.876875
2021-06-28 15:24:00.093750000,-55.0,-33.0,-6.0,81.5934375,5.4,2.422431875,32.8775
2021-06-28 15:24:00.101562500,-55.0,-33.0,-6.0,81.595390625,6.94,2.42235178125,32.878125
2021-06-28 15:24:00.109375000,-55.0,-33.0,-6.0,81.59734375,8.48,2.4222716875,32.87875
2021-06-28 15:24:00.117187500,-55.0,-33.0,-6.0,81.599296875,9.72,2.42219159375,32.879374999999996
2021-06-28 15:24:00.125000000,-55.0,-33.0,-6.0,81.60125,10.96,2.4221114999999998,32.879999999999995
2021-06-28 15:24:00.132812500,-55.0,-33.0,-6.0,81.603203125,11.875,2.42203140625,32.880625
2021-06-28 15:24:00.140625000,-55.0,-33.0,-6.0,81.60515625,12.79,2.4219513125,32.88125
2021-06-28 15:24:00.148437500,-55.0,-33.0,-6.0,81.607109375,13.41,2.4218712187499998,32.881875
2021-06-28 15:24:00.156250000,-55.0,-33.0,-6.0,81.6090625,14.03,2.421791125,32.8825
2021-06-28 15:24:00.164062500,-55.0,-33.0,-6.0,81.611015625,14.434999999999999,2.42171103125,32.883125
2021-06-28 15:24:00.171875000,-55.0,-33.0,-6.0,81.61296875,14.84,2.4216309375,32.88375
2021-06-28 15:24:00.179687500,-55.0,-33.0,-6.0,81.614921875,15.125,2.42155084375,32.884375
2021-06-28 15:24:00.187500000,-55.0,-33.0,-6.0,81.616875,15.41,2.42147075,32.885
2021-06-28 15:24:00.195312500,-55.25,-33.0,-6.0,81.618828125,15.67,2.42139065625,32.885625
2021-06-28 15:24:00.203125000,-55.5,-33.0,-6.0,81.62078125,15.93,2.4213105625,32.88625
2021-06-28 15:24:00.210937500,-55.75,-33.0,-6.0,81.622734375,16.22,2.42123046875,32.886875
2021-06-28 15:24:00.218750000,-56.0,-33.0,-6.0,81.6246875,16.51,2.421150375,32.8875
2021-06-28 15:24:00.226562500,-55.75,-33.0,-6.0,81.626640625,16.835,2.42107028125,32.888125
2021-06-28 15:24:00.234375000,-55.5,-33.0,-6.0,81.62859375,17.16,2.4209901875,32.88875
2021-06-28 15:24:00.242187500,-55.25,-33.0,-6.0,81.630546875,17.494999999999997,2.42091009375,32.889375
2021-06-28 15:24:00.250000000,-55.0,-33.0,-6.0,81.6325,17.83,2.42083,32.89
2021-06-28 15:24:00.257812500,-55.0,-33.0,-6.0,81.634453125,18.115,2.42054978125,32.89
2021-06-28 15:24:00.265625000,-55.0,-33.0,-6.0,81.63640625,18.4,2.4202695625,32.89
2021-06-28 15:24:00.273437500,-55.0,-33.0,-6.0,81.638359375,18.615,2.41998934375,32.89
2021-06-28 15:24:00.281250000,-55.0,-33.0,-6.0,81.6403125,18.83,2.419709125,32.89
2021-06-28 15:24:00.289062500,-55.0,-33.0,-5.75,81.642265625,18.939999999999998,2.41942890625,32.89
2021-06-28 15:24:00.296875000,-55.0,-33.0,-5.5,81.64421875,19.05,2.4191486875,32.89
2021-06-28 15:24:00.304687500,-55.0,-33.0,-5.25,81.646171875,19.060000000000002,2.41886846875,32.89
2021-06-28 15:24:00.312500000,-55.0,-33.0,-5.0,81.648125,19.07,2.41858825,32.89
2021-06-28 15:24:00.320312500,-55.25,-32.75,-5.25,81.650078125,18.990000000000002,2.41830803125,32.89
2021-06-28 15:24:00.328125000,-55.5,-32.5,-5.5,81.65203125,18.91,2.4180278125,32.89
2021-06-28 15:24:00.335937500,-55.75,-32.25,-5.75,81.653984375,18.744999999999997,2.41774759375,32.89
2021-06-28 15:24:00.343750000,-56.0,-32.0,-6.0,81.6559375,18.58,2.417467375,32.89
2021-06-28 15:24:00.351562500,-55.75,-32.25,-6.0,81.657890625,18.34,2.41718715625,32.89
2021-06-28 15:24:00.359375000,-55.5,-32.5,-6.0,81.65984375,18.1,2.4169069375,32.89
2021-06-28 15:24:00.367187500,-55.25,-32.75,-6.0,81.661796875,17.770000000000003,2.41662671875,32.89
2021-06-28 15:24:00.375000000,-55.0,-33.0,-6.0,81.66375,17.44,2.4163465,32.89
2021-06-28 15:24:00.382812500,-55.0,-33.0,-6.0,81.665703125,17.009999999999998,2.41606628125,32.89
2021-06-28 15:24:00.390625000,-55.0,-33.0,-6.0,81.66765625,16.58,2.4157860625,32.89
2021-06-28 15:24:00.398437500,-55.0,-33.0,-6.0,81.669609375,16.03,2.41550584375,32.89
2021-06-28 15:24:00.406250000,-55.0,-33.0,-6.0,81.6715625,15.48,2.4152256249999997,32.89
2021-06-28 15:24:00.414062500,-55.0,-33.0,-6.0,81.673515625,14.815000000000001,2.4149454062499998,32.89
2021-06-28 15:24:00.421875000,-55.0,-33.0,-6.0,81.67546875,14.15,2.4146651875,32.89
2021-06-28 15:24:00.429687500,-55.0,-33.0,-6.0,81.677421875,13.379999999999999,2.41438496875,32.89
2021-06-28 15:24:00.437500000,-55.0,-33.0,-6.0,81.679375,12.61,2.41410475,32.89
2021-06-28 15:24:00.445312500,-55.0,-33.0,-6.0,81.681328125,11.765,2.41382453125,32.89
2021-06-28 15:24:00.453125000,-55.0,-33.0,-6.0,81.68328125,10.92,2.4135443125,32.89
2021-06-28 15:24:00.460937500,-55.0,-33.0,-6.0,81.685234375,10.025,2.41326409375,32.89
2021-06-28 15:24:00.468750000,-55.0,-33.0,-6.0,81.6871875,9.13,2.412983875,32.89
2021-06-28 15:24:00.476562500,-55.25,-33.0,-6.0,81.689140625,8.21,2.4127036562499997,32.89
2021-06-28 15:24:00.484375000,-55.5,-33.0,-6.0,81.69109375,7.29,2.4124234374999998,32.89
2021-06-28 15:24:00.492187500,-55.75,-33.0,-6.0,81.693046875,6.345000000000001,2.41214321875,32.89
2021-06-28 15:24:00.500000000,-56.0,-33.0,-6.0,81.695,5.4,2.411863,32.89
2021-06-28 15:24:00.507812500,-55.75,-33.0,-6.0,81.696953125,4.425000000000001,2.4119430625,32.89
2021-06-28 15:24:00.515625000,-55.5,-33.0,-6.0,81.69890625,3.45,2.4120231249999997,32.89
2021-06-28 15:24:00.523437500,-55.25,-33.0,-6.0,81.700859375,2.44,2.4121031875,32.89
2021-06-28 15:24:00.531250000,-55.0,-33.0,-6.0,81.7028125,1.43,2.41218325,32.89
2021-06-28 15:24:00.539062500,-55.0,-33.0,-6.0,81.704765625,0.395,2.4122633125,32.89
2021-06-28 15:24:00.546875000,-55.0,-33.0,-6.0,81.70671875,-0.64,2.412343375,32.89
2021-06-28 15:24:00.554687500,-55.0,-33.0,-6.0,81.708671875,-1.6949999999999998,2.4124234374999998,32.89
2021-06-28 15:24:00.562500000,-55.0,-33.0,-6.0,81.710625,-2.75,2.4125034999999997,32.89
2021-06-28 15:24:00.570312500,-55.0,-33.0,-6.0,81.712578125,-3.8,2.4125835625,32.89
2021-06-28 15:24:00.578125000,-55.0,-33.0,-6.0,81.71453125,-4.85,2.412663625,32.89
2021-06-28 15:24:00.585937500,-55.0,-33.0,-6.0,81.716484375,-5.904999999999999,2.4127436875,32.89
2021-06-28 15:24:00.593750000,-55.0,-33.0,-6.0,81.7184375,-6.96,2.41282375,32.89
2021-06-28 15:24:00.601562500,-55.0,-33.0,-5.75,81.720390625,-8.055,2.4129038124999997,32.89
2021-06-28 15:24:00.609375000,-55.0,-33.0,-5.5,81.72234375,-9.15,2.412983875,32.89
2021-06-28 15:24:00.617187500,-55.0,-33.0,-5.25,81.724296875,-10.36,2.4130639375,32.89
2021-06-28 15:24:00.625000000,-55.0,-33.0,-5.0,81.72625,-11.57,2.413144,32.89
2021-06-28 15:24:00.632812500,-55.0,-33.0,-5.25,81.728203125,-12.955,2.4132240625,32.89
2021-06-28 15:24:00.640625000,-55.0,-33.0,-5.5,81.73015625,-14.34,2.413304125,32.89
2021-06-28 15:24:00.648437500,-55.0,-33.0,-5.75,81.732109375,-15.915,2.4133841875,32.89
2021-06-28 15:24:00.656250000,-55.0,-33.0,-6.0,81.7340625,-17.49,2.41346425,32.89
2021-06-28 15:24:00.664062500,-55.0,-33.0,-6.0,81.736015625,-19.174999999999997,2.4135443125,32.89
2021-06-28 15:24:00.671875000,-55.0,-33.0,-6.0,81.73796875,-20.86,2.413624375,32.89
2021-06-28 15:24:00.679687500,-55.0,-33.0,-6.0,81.739921875,-22.485,2.4137044375,32.89
2021-06-28 15:24:00.687500000,-55.0,-33.0,-6.0,81.741875,-24.11,2.4137845,32.89
2021-06-28 15:24:00.695312500,-55.0,-33.0,-6.0,81.743828125,-25.455,2.4138645625,32.89
2021-06-28 15:24:00.703125000,-55.0,-33.0,-6.0,81.74578125,-26.8,2.413944625,32.89
2021-06-28 15:24:00.710937500,-55.0,-33.0,-6.0,81.747734375,-27.685000000000002,2.4140246875,32.89
2021-06-28 15:24:00.718750000,-55.0,-33.0,-6.0,81.7496875,-28.57,2.41410475,32.89
2021-06-28 15:24:00.726562500,-55.0,-33.0,-6.0,81.751640625,-28.87,2.4141848125,32.89
2021-06-28 15:24:00.734375000,-55.0,-33.0,-6.0,81.75359375,-29.17,2.414264875,32.89
2021-06-28 15:24:00.742187500,-55.0,-33.0,-6.0,81.755546875,-28.865000000000002,2.4143449375,32.89
2021-06-28 15:24:00.750000000,-55.0,-33.0,-6.0,81.7575,-28.56,2.414425,32.89
2021-06-28 15:24:00.757812500,-55.0,-33.0,-6.0,81.759453125,-27.725,2.41418478125,32.89
2021-06-28 15:24:00.765625000,-55.0,-33.0,-6.0,81.76140625,-26.89,2.4139445625000002,32.89
2021-06-28 15:24:00.773437500,-55.0,-33.0,-6.0,81.763359375,-25.634999999999998,2.41370434375,32.89
2021-06-28 15:24:00.781250000,-55.0,-33.0,-6.0,81.7653125,-24.38,2.413464125,32.89
2021-06-28 15:24:00.789062500,-55.0,-33.0,-6.0,81.767265625,-22.835,2.41322390625,32.89
2021-06-28 15:24:00.796875000,-55.0,-33.0,-6.0,81.76921875,-21.29,2.4129836875,32.89
2021-06-28 15:24:00.804687500,-55.0,-33.0,-6.0,81.771171875,-19.545,2.41274346875,32.89
2021-06-28 15:24:00.812500000,-55.0,-33.0,-6.0,81.773125,-17.8,2.41250325,32.89
2021-06-28 15:24:00.820312500,-55.0,-33.0,-5.75,81.775078125,-15.925,2.41226303125,32.89
2021-06-28 15:24:00.828125000,-55.0,-33.0,-5.5,81.77703125,-14.05,2.4120228125,32.89
2021-06-28 15:24:00.835937500,-55.0,-33.0,-5.25,81.778984375,-12.09,2.41178259375,32.89
2021-06-28 15:24:00.843750000,-55.0,-33.0,-5.0,81.7809375,-10.13,2.411542375,32.89
2021-06-28 15:24:00.851562500,-55.0,-33.0,-5.25,81.782890625,-8.13,2.41130215625,32.89
2021-06-28 15:24:00.859375000,-55.0,-33.0,-5.5,81.78484375,-6.13,2.4110619375,32.89
2021-06-28 15:24:00.867187500,-55.0,-33.0,-5.75,81.786796875,-4.16,2.41082171875,32.89
2021-06-28 15:24:00.875000000,-55.0,-33.0,-6.0,81.78875,-2.19,2.4105815,32.89
2021-06-28 15:24:00.882812500,-55.0,-33.0,-6.0,81.790703125,-0.33999999999999986,2.41034128125,32.89
2021-06-28 15:24:00.890625000,-55.0,-33.0,-6.0,81.79265625,1.51,2.4101010625,32.89
2021-06-28 15:24:00.898437500,-55.0,-33.0,-6.0,81.794609375,3.1399999999999997,2.4098608437499998,32.89
2021-06-28 15:24:00.906250000,-55.0,-33.0,-6.0,81.7965625,4.77,2.409620625,32.89
2021-06-28 15:24:00.914062500,-55.0,-32.75,-6.0,81.798515625,6.1,2.40938040625,32.89
2021-06-28 15:24:00.921875000,-55.0,-32.5,-6.0,81.80046875,7.43,2.4091401875,32.89
2021-06-28 15:24:00.929687500,-55.0,-32.25,-6.0,81.802421875,8.43,2.4088999687499997,32.89
2021-06-28 15:24:00.937500000,-55.0,-32.0,-6.0,81.804375,9.43,2.40865975,32.89
2021-06-28 15:24:00.945312500,-55.0,-32.25,-6.0,81.806328125,10.115,2.40841953125,32.89
2021-06-28 15:24:00.953125000,-55.0,-32.5,-6.0,81.80828125,10.8,2.4081793124999997,32.89
2021-06-28 15:24:00.960937500,-55.0,-32.75,-6.0,81.810234375,11.215,2.40793909375,32.89
2021-06-28 15:24:00.968750000,-55.0,-33.0,-6.0,81.8121875,11.63,2.407698875,32.89
2021-06-28 15:24:00.976562500,-55.25,-33.0,-6.0,81.814140625,11.875,2.4074586562499998,32.89
2021-06-28 15:24:00.984375000,-55.5,-33.0,-6.0,81.81609375,12.12,2.4072184374999996,32.89
2021-06-28 15:24:00.992187500,-55.75,-33.0,-6.0,81.818046875,12.27,2.40697821875,32.89
2021-06-28 15:24:01.000000000,-56.0,-33.0,-6.0,81.82,12.42,2.406738,32.89
2021-06-28 15:24:01.007812500,-56.0,-33.0,-6.0,81.8215625,12.55,2.4066179062499997,32.89
2021-06-28 15:24:01.015625000,-56.0,-33.0,-6.0,81.82312499999999,12.68,2.4064978124999996,32.89
2021-06-28 15:24:01.023437500,-56.0,-33.0,-6.0,81.8246875,12.844999999999999,2.40637771875,32.89
2021-06-28 15:24:01.031250000,-56.0,-33.0,-6.0,81.82624999999999,13.01,2.406257625,32.89
2021-06-28 15:24:01.039062500,-56.0,-33.0,-6.0,81.8278125,13.245000000000001,2.4061375312499997,32.89
2021-06-28 15:24:01.046875000,-56.0,-33.0,-6.0,81.829375,13.48,2.4060174375,32.89
2021-06-28 15:24:01.054687500,-56.0,-33.0,-6.0,81.83093749999999,13.805,2.40589734375,32.89
2021-06-28 15:24:01.062500000,-56.0,-33.0,-6.0,81.8325,14.13,2.40577725,32.89
2021-06-28 15:24:01.070312500,-56.0,-33.0,-6.0,81.83406249999999,14.52,2.4056571562499998,32.89
2021-06-28 15:24:01.078125000,-56.0,-33.0,-6.0,81.835625,14.91,2.4055370624999997,32.89
2021-06-28 15:24:01.085937500,-56.0,-33.0,-6.0,81.8371875,15.335,2.40541696875,32.89
2021-06-28 15:24:01.093750000,-56.0,-33.0,-6.0,81.83874999999999,15.76,2.405296875,32.89
2021-06-28 15:24:01.101562500,-55.75,-33.0,-6.0,81.8403125,16.145,2.40517678125,32.89
2021-06-28 15:24:01.109375000,-55.5,-33.0,-6.0,81.84187499999999,16.53,2.4050566875,32.89
2021-06-28 15:24:01.117187500,-55.25,-33.0,-6.0,81.8434375,16.805,2.40493659375,32.89
2021-06-28 15:24:01.125000000,-55.0,-33.0,-6.0,81.845,17.08,2.4048165,32.89
2021-06-28 15:24:01.132812500,-55.0,-32.75,-6.0,81.84656249999999,17.18,2.40469640625,32.89
2021-06-28 15:24:01.140625000,-55.0,-32.5,-6.0,81.848125,17.28,2.4045763124999997,32.89
2021-06-28 15:24:01.148437500,-55.0,-32.25,-6.0,81.84968749999999,17.18,2.40445621875,32.89
2021-06-28 15:24:01.156250000,-55.0,-32.0,-6.0,81.85125,17.08,2.404336125,32.89
2021-06-28 15:24:01.164062500,-55.0,-32.25,-6.0,81.8528125,16.78,2.40421603125,32.89
2021-06-28 15:24:01.171875000,-55.0,-32.5,-6.0,81.85437499999999,16.48,2.4040959375,32.89
2021-06-28 15:24:01.179687500,-55.0,-32.75,-6.0,81.8559375,16.025,2.40397584375,32.89
2021-06-28 15:24:01.187500000,-55.0,-33.0,-6.0,81.85749999999999,15.57,2.40385575,32.89
2021-06-28 15:24:01.195312500,-55.25,-33.0,-6.0,81.8590625,15.01,2.40373565625,32.89
2021-06-28 15:24:01.203125000,-55.5,-33.0,-6.0,81.860625,14.45,2.4036155624999997,32.89
2021-06-28 15:24:01.210937500,-55.75,-33.0,-6.0,81.86218749999999,13.83,2.40349546875,32.89
2021-06-28 15:24:01.218750000,-56.0,-33.0,-6.0,81.86375,13.21,2.403375375,32.89
2021-06-28 15:24:01.226562500,-55.75,-33.0,-6.0,81.86531249999999,12.58,2.40325528125,32.89
2021-06-28 15:24:01.234375000,-55.5,-33.0,-6.0,81.866875,11.95,2.4031351875,32.89
2021-06-28 15:24:01.242187500,-55.25,-33.0,-6.0,81.8684375,11.315,2.40301509375,32.89
2021-06-28 15:24:01.250000000,-55.0,-33.0,-6.0,81.86999999999999,10.68,2.402895,32.89
2021-06-28 15:24:01.257812500,-55.0,-32.75,-6.0,81.8715625,10.030000000000001,2.40301509375,32.89
2021-06-28 15:24:01.265625000,-55.0,-32.5,-6.0,81.87312499999999,9.38,2.4031351875,32.89
2021-06-28 15:24:01.273437500,-55.0,-32.25,-6.0,81.8746875,8.675,2.40325528125,32.89
2021-06-28 15:24:01.281250000,-55.0,-32.0,-6.0,81.87625,7.97,2.403375375,32.89
2021-06-28 15:24:01.289062500,-55.25,-32.25,-6.0,81.87781249999999,7.15,2.40349546875,32.89
2021-06-28 15:24:01.296875000,-55.5,-32.5,-6.0,81.879375,6.33,2.4036155624999997,32.89
2021-06-28 15:24:01.304687500,-55.75,-32.75,-6.0,81.88093749999999,5.345000000000001,2.40373565625,32.89
2021-06-28 15:24:01.312500000,-56.0,-33.0,-6.0,81.8825,4.36,2.40385575,32.89
2021-06-28 15:24:01.320312500,-56.0,-33.0,-6.0,81.8840625,3.205,2.40397584375,32.89
2021-06-28 15:24:01.328125000,-56.0,-33.0,-6.0,81.88562499999999,2.05,2.4040959375,32.89
2021-06-28 15:24:01.335937500,-56.0,-33.0,-6.0,81.8871875,0.7599999999999998,2.40421603125,32.89
2021-06-28 15:24:01.343750000,-56.0,-33.0,-6.0,81.88874999999999,-0.53,2.404336125,32.89
2021-06-28 15:24:01.351562500,-55.75,-33.0,-6.0,81.8903125,-1.8800000000000001,2.40445621875,32.89
2021-06-28 15:24:01.359375000,-55.5,-33.0,-6.0,81.891875,-3.23,2.4045763124999997,32.89
2021-06-28 15:24:01.367187500,-55.25,-33.0,-6.0,81.89343749999999,-4.545,2.40469640625,32.89
2021-06-28 15:24:01.375000000,-55.0,-33.0,-6.0,81.895,-5.86,2.4048165,32.89
2021-06-28 15:24:01.382812500,-55.25,-33.0,-6.0,81.89656249999999,-7.095000000000001,2.40493659375,32.89
2021-06-28 15:24:01.390625000,-55.5,-33.0,-6.0,81.898125,-8.33,2.4050566875,32.89
2021-06-28 15:24:01.398437500,-55.75,-33.0,-6.0,81.8996875,-9.475,2.40517678125,32.89
2021-06-28 15:24:01.406250000,-56.0,-33.0,-6.0,81.90124999999999,-10.62,2.405296875,32.89
2021-06-28 15:24:01.414062500,-55.75,-33.0,-6.0,81.9028125,-11.73,2.40541696875,32.89
2021-06-28 15:24:01.421875000,-55.5,-33.0,-6.0,81.90437499999999,-12.84,2.4055370624999997,32.89
2021-06-28 15:24:01.429687500,-55.25,-33.0,-6.0,81.9059375,-13.995000000000001,2.4056571562499998,32.89
2021-06-28 15:24:01.437500000,-55.0,-33.0,-6.0,81.9075,-15.15,2.40577725,32.89
2021-06-28 15:24:01.445312500,-55.25,-33.0,-5.75,81.90906249999999,-16.435,2.40589734375,32.89
2021-06-28 15:24:01.453125000,-55.5,-33.0,-5.5,81.910625,-17.72,2.4060174375,32.89
2021-06-28 15:24:01.460937500,-55.75,-33.0,-5.25,81.91218749999999,-19.195,2.4061375312499997,32.89
2021-06-28 15:24:01.468750000,-56.0,-33.0,-5.0,81.91375,-20.67,2.406257625,32.89
2021-06-28 15:24:01.476562500,-55.75,-33.0,-5.0,81.9153125,-22.35,2.40637771875,32.89
2021-06-28 15:24:01.484375000,-55.5,-33.0,-5.0,81.91687499999999,-24.03,2.4064978124999996,32.89
2021-06-28 15:24:01.492187500,-55.25,-33.0,-5.0,81.9184375,-25.84,2.4066179062499997,32.89
2021-06-28 15:24:01.500000000,-55.0,-33.0,-5.0,81.91999999999999,-27.65,2.406738,32.89
2021-06-28 15:24:01.507812500,-55.25,-33.0,-5.25,81.9215625,-29.47,2.4063776875,32.89
2021-06-28 15:24:01.515625000,-55.5,-33.0,-5.5,81.923125,-31.29,2.406017375,32.89
2021-06-28 15:24:01.523437500,-55.75,-33.0,-5.75,81.92468749999999,-32.94,2.4056570625,32.89
2021-06-28 15:24:01.531250000,-56.0,-33.0,-6.0,81.92625,-34.59,2.4052967499999998,32.89
2021-06-28 15:24:01.539062500,-55.75,-32.75,-6.0,81.9278125,-35.86,2.4049364375,32.89
2021-06-28 15:24:01.546875000,-55.5,-32.5,-6.0,81.929375,-37.13,2.4045761249999997,32.89
2021-06-28 15:24:01.554687500,-55.25,-32.25,-6.0,81.9309375,-37.83,2.4042158125,32.89
2021-06-28 15:24:01.562500000,-55.0,-32.0,-6.0,81.93249999999999,-38.53,2.4038554999999997,32.89
2021-06-28 15:24:01.570312500,-55.25,-32.25,-6.0,81.9340625,-38.54,2.4034951875,32.89
2021-06-28 15:24:01.578125000,-55.5,-32.5,-6.0,81.935625,-38.55,2.4031348749999997,32.89
2021-06-28 15:24:01.585937500,-55.75,-32.75,-6.0,81.9371875,-37.855,2.4027745625,32.89
2021-06-28 15:24:01.593750000,-56.0,-33.0,-6.0,81.93875,-37.16,2.4024142499999996,32.89
2021-06-28 15:24:01.601562500,-56.0,-33.0,-6.0,81.94031249999999,-35.834999999999994,2.4020539375,32.89
2021-06-28 15:24:01.609375000,-56.0,-33.0,-6.0,81.941875,-34.51,2.4016936249999996,32.89
2021-06-28 15:24:01.617187500,-56.0,-33.0,-6.0,81.9434375,-32.7,2.4013333125,32.89
2021-06-28 15:24:01.625000000,-56.0,-33.0,-6.0,81.945,-30.89,2.4009729999999996,32.89
2021-06-28 15:24:01.632812500,-56.0,-32.75,-6.0,81.9465625,-28.785,2.4006126875,32.89
2021-06-28 15:24:01.640625000,-56.0,-32.5,-6.0,81.94812499999999,-26.68,2.400252375,32.89
2021-06-28 15:24:01.648437500,-56.0,-32.25,-6.0,81.9496875,-24.43,2.3998920624999998,32.89
2021-06-28 15:24:01.656250000,-56.0,-32.0,-6.0,81.95125,-22.18,2.39953175,32.89
2021-06-28 15:24:01.664062500,-55.75,-32.25,-5.75,81.9528125,-19.91,2.3991714374999997,32.89
2021-06-28 15:24:01.671875000,-55.5,-32.5,-5.5,81.954375,-17.64,2.398811125,32.89
2021-06-28 15:24:01.679687500,-55.25,-32.75,-5.25,81.95593749999999,-15.42,2.3984508124999997,32.89
2021-06-28 15:24:01.687500000,-55.0,-33.0,-5.0,81.9575,-13.2,2.3980905,32.89
2021-06-28 15:24:01.695312500,-55.25,-32.75,-5.25,81.9590625,-11.059999999999999,2.3977301874999997,32.89
2021-06-28 15:24:01.703125000,-55.5,-32.5,-5.5,81.960625,-8.92,2.397369875,32.89
2021-06-28 15:24:01.710937500,-55.75,-32.25,-5.75,81.9621875,-6.885,2.3970095624999996,32.89
2021-06-28 15:24:01.718750000,-56.0,-32.0,-6.0,81.96374999999999,-4.85,2.39664925,32.89
2021-06-28 15:24:01.726562500,-55.75,-32.0,-6.0,81.9653125,-2.925,2.3962889374999996,32.89
2021-06-28 15:24:01.734375000,-55.5,-32.0,-6.0,81.966875,-1.0,2.395928625,32.89
2021-06-28 15:24:01.742187500,-55.25,-32.0,-6.0,81.9684375,0.7949999999999999,2.3955683124999996,32.89
2021-06-28 15:24:01.750000000,-55.0,-32.0,-6.0,81.97,2.59,2.395208,32.89
2021-06-28 15:24:01.757812500,-55.0,-32.25,-6.0,81.97156249999999,4.245,2.3951679687499996,32.89
2021-06-28 15:24:01.765625000,-55.0,-32.5,-6.0,81.973125,5.9,2.3951279375,32.89
2021-06-28 15:24:01.773437500,-55.0,-32.75,-6.0,81.9746875,7.355,2.3950879062499997,32.89
2021-06-28 15:24:01.781250000,-55.0,-33.0,-6.0,81.97625,8.81,2.395047875,32.89
2021-06-28 15:24:01.789062500,-55.25,-32.75,-5.75,81.9778125,10.02,2.3950078437499998,32.89
2021-06-28 15:24:01.796875000,-55.5,-32.5,-5.5,81.97937499999999,11.23,2.3949678125,32.89
2021-06-28 15:24:01.804687500,-55.75,-32.25,-5.25,81.9809375,12.125,2.39492778125,32.89
2021-06-28 15:24:01.812500000,-56.0,-32.0,-5.0,81.9825,13.02,2.3948877499999996,32.89
2021-06-28 15:24:01.820312500,-56.0,-32.0,-5.25,81.9840625,13.555,2.39484771875,32.89
2021-06-28 15:24:01.828125000,-56.0,-32.0,-5.5,81.985625,14.09,2.3948076874999997,32.89
2021-06-28 15:24:01.835937500,-56.0,-32.0,-5.75,81.98718749999999,14.280000000000001,2.39476765625,32.89
2021-06-28 15:24:01.843750000,-56.0,-32.0,-6.0,81.98875,14.47,2.394727625,32.89
2021-06-28 15:24:01.851562500,-56.0,-32.25,-6.0,81.9903125,14.415,2.39468759375,32.89
2021-06-28 15:24:01.859375000,-56.0,-32.5,-6.0,81.991875,14.36,2.3946475625,32.89
2021-06-28 15:24:01.867187500,-56.0,-32.75,-6.0,81.9934375,14.225,2.39460753125,32.89
2021-06-28 15:24:01.875000000,-56.0,-33.0,-6.0,81.99499999999999,14.09,2.3945675,32.89
2021-06-28 15:24:01.882812500,-56.0,-32.75,-5.75,81.9965625,14.030000000000001,2.3945274687499998,32.89
2021-06-28 15:24:01.890625000,-56.0,-32.5,-5.5,81.998125,13.97,2.3944874375,32.89
2021-06-28 15:24:01.898437500,-56.0,-32.25,-5.25,81.9996875,14.09,2.39444740625,32.89
2021-06-28 15:24:01.906250000,-56.0,-32.0,-5.0,82.00125,14.21,2.394407375,32.89
2021-06-28 15:24:01.914062500,-56.0,-32.0,-5.25,82.00281249999999,14.505,2.39436734375,32.89
2021-06-28 15:24:01.921875000,-56.0,-32.0,-5.5,82.004375,14.8,2.3943273125,32.89
2021-06-28 15:24:01.929687500,-56.0,-32.0,-5.75,82.0059375,15.175,2.39428728125,32.89
2021-06-28 15:24:01.937500000,-56.0,-32.0,-6.0,82.0075,15.55,2.3942472500000003,32.89
2021-06-28 15:24:01.945312500,-55.75,-32.0,-6.0,82.0090625,15.860000000000001,2.39420721875,32.89
2021-06-28 15:24:01.953125000,-55.5,-32.0,-6.0,82.01062499999999,16.17,2.3941671875,32.89
2021-06-28 15:24:01.960937500,-55.25,-32.0,-6.0,82.0121875,16.3,2.39412715625,32.89
2021-06-28 15:24:01.968750000,-55.0,-32.0,-6.0,82.01375,16.43,2.394087125,32.89
2021-06-28 15:24:01.976562500,-55.25,-32.0,-6.0,82.0153125,16.345,2.3940470937500002,32.89
2021-06-28 15:24:01.984375000,-55.5,-32.0,-6.0,82.016875,16.26,2.3940070625,32.89
2021-06-28 15:24:01.992187500,-55.75,-32.0,-6.0,82.01843749999999,15.98,2.3939670312500003,32.89
2021-06-28 15:24:02.000000000,-56.0,-32.0,-6.0,82.02,15.7,2.393927,32.89
2021-06-28 15:24:02.007812500,-55.75,-32.25,-6.0,82.02140625,15.295,2.39388696875,32.89
2021-06-28 15:24:02.015625000,-55.5,-32.5,-6.0,82.0228125,14.89,2.3938469375,32.89
2021-06-28 15:24:02.023437500,-55.25,-32.75,-6.0,82.02421875,14.41,2.39380690625,32.89
2021-06-28 15:24:02.031250000,-55.0,-33.0,-6.0,82.02562499999999,13.93,2.3937668750000003,32.89
2021-06-28 15:24:02.039062500,-55.0,-33.0,-5.75,82.02703125,13.379999999999999,2.39372684375,32.89
2021-06-28 15:24:02.046875000,-55.0,-33.0,-5.5,82.0284375,12.83,2.3936868125,32.89
2021-06-28 15:24:02.054687500,-55.0,-33.0,-5.25,82.02984375,12.195,2.39364678125,32.89
2021-06-28 15:24:02.062500000,-55.0,-33.0,-5.0,82.03125,11.56,2.39360675,32.89
2021-06-28 15:24:02.070312500,-55.0,-33.0,-5.25,82.03265625,10.82,2.3935667187500003,32.89
2021-06-28 15:24:02.078125000,-55.0,-33.0,-5.5,82.03406249999999,10.08,2.3935266875,32.89
2021-06-28 15:24:02.085937500,-55.0,-33.0,-5.75,82.03546874999999,9.235,2.39348665625,32.89
2021-06-28 15:24:02.093750000,-55.0,-33.0,-6.0,82.036875,8.39,2.393446625,32.89
2021-06-28 15:24:02.101562500,-55.25,-32.75,-6.0,82.03828125,7.460000000000001,2.39340659375,32.89
2021-06-28 15:24:02.109375000,-55.5,-32.5,-6.0,82.0396875,6.53,2.3933665625000002,32.89
2021-06-28 15:24:02.117187500,-55.75,-32.25,-6.0,82.04109375,5.53,2.39332653125,32.89
2021-06-28 15:24:02.125000000,-56.0,-32.0,-6.0,82.04249999999999,4.53,2.3932865000000003,32.89
2021-06-28 15:24:02.132812500,-55.75,-32.25,-6.0,82.04390624999999,3.4850000000000003,2.39324646875,32.89
2021-06-28 15:24:02.140625000,-55.5,-32.5,-6.0,82.0453125,2.44,2.3932064375,32.89
2021-06-28 15:24:02.148437500,-55.25,-32.75,-6.0,82.04671875,1.33,2.39316640625,32.89
2021-06-28 15:24:02.156250000,-55.0,-33.0,-6.0,82.048125,0.22,2.393126375,32.89
2021-06-28 15:24:02.164062500,-55.25,-33.0,-6.0,82.04953125,-0.9700000000000002,2.3930863437500003,32.89
2021-06-28 15:24:02.171875000,-55.5,-33.0,-6.0,82.0509375,-2.16,2.3930463125,32.89
2021-06-28 15:24:02.179687500,-55.75,-33.0,-6.0,82.05234374999999,-3.435,2.39300628125,32.89
2021-06-28 15:24:02.187500000,-56.0,-33.0,-6.0,82.05375,-4.71,2.39296625,32.89
2021-06-28 15:24:02.195312500,-56.0,-33.0,-5.75,82.05515625,-6.05,2.39292621875,32.89
2021-06-28 15:24:02.203125000,-56.0,-33.0,-5.5,82.0565625,-7.39,2.3928861875000003,32.89
2021-06-28 15:24:02.210937500,-56.0,-33.0,-5.25,82.05796875,-8.754999999999999,2.39284615625,32.89
2021-06-28 15:24:02.218750000,-56.0,-33.0,-5.0,82.059375,-10.12,2.392806125,32.89
2021-06-28 15:24:02.226562500,-56.0,-33.0,-5.25,82.06078124999999,-11.465,2.39276609375,32.89
2021-06-28 15:24:02.234375000,-56.0,-33.0,-5.5,82.0621875,-12.81,2.3927260625,32.89
2021-06-28 15:24:02.242187500,-56.0,-33.0,-5.75,82.06359375,-14.120000000000001,2.3926860312500002,32.89
2021-06-28 15:24:02.250000000,-56.0,-33.0,-6.0,82.065,-15.43,2.392646,32.89
2021-06-28 15:24:02.257812500,-55.75,-33.0,-6.0,82.06640625,-16.725,2.39240578125,32.89
2021-06-28 15:24:02.265625000,-55.5,-33.0,-6.0,82.0678125,-18.02,2.3921655625000002,32.89
2021-06-28 15:24:02.273437500,-55.25,-33.0,-6.0,82.06921875,-19.325,2.39192534375,32.89
2021-06-28 15:24:02.281250000,-55.0,-33.0,-6.0,82.07062499999999,-20.63,2.391685125,32.89
2021-06-28 15:24:02.289062500,-55.25,-32.75,-6.0,82.07203125,-21.994999999999997,2.39144490625,32.89
2021-06-28 15:24:02.296875000,-55.5,-32.5,-6.0,82.0734375,-23.36,2.3912046875,32.89
2021-06-28 15:24:02.304687500,-55.75,-32.25,-6.0,82.07484375,-24.79,2.39096446875,32.89
2021-06-28 15:24:02.312500000,-56.0,-32.0,-6.0,82.07625,-26.22,2.39072425,32.89
2021-06-28 15:24:02.320312500,-55.75,-32.25,-6.0,82.07765625,-27.655,2.39048403125,32.89
2021-06-28 15:24:02.328125000,-55.5,-32.5,-6.0,82.07906249999999,-29.09,2.3902438125,32.89
2021-06-28 15:24:02.335937500,-55.25,-32.75,-6.0,82.08046875,-30.425,2.39000359375,32.89
2021-06-28 15:24:02.343750000,-55.0,-33.0,-6.0,82.081875,-31.76,2.389763375,32.89
2021-06-28 15:24:02.351562500,-55.25,-32.75,-6.0,82.08328125,-32.845,2.38952315625,32.89
2021-06-28 15:24:02.359375000,-55.5,-32.5,-6.0,82.0846875,-33.93,2.3892829375,32.89
2021-06-28 15:24:02.367187500,-55.75,-32.25,-6.0,82.08609375,-34.644999999999996,2.38904271875,32.89
2021-06-28 15:24:02.375000000,-56.0,-32.0,-6.0,82.0875,-35.36,2.3888024999999997,32.89
2021-06-28 15:24:02.382812500,-56.0,-32.25,-6.0,82.08890625,-35.629999999999995,2.38856228125,32.89
2021-06-28 15:24:02.390625000,-56.0,-32.5,-6.0,82.0903125,-35.9,2.3883220625,32.89
2021-06-28 15:24:02.398437500,-56.0,-32.75,-6.0,82.09171875,-35.7,2.3880818437499998,32.89
2021-06-28 15:24:02.406250000,-56.0,-33.0,-6.0,82.093125,-35.5,2.387841625,32.89
2021-06-28 15:24:02.414062500,-55.75,-33.0,-6.0,82.09453125,-34.84,2.38760140625,32.89
2021-06-28 15:24:02.421875000,-55.5,-33.0,-6.0,82.0959375,-34.18,2.3873611875,32.89
2021-06-28 15:24:02.429687500,-55.25,-33.0,-6.0,82.09734375,-33.105000000000004,2.3871209687499997,32.89
2021-06-28 15:24:02.437500000,-55.0,-33.0,-6.0,82.09875,-32.03,2.38688075,32.89
2021-06-28 15:24:02.445312500,-55.0,-33.0,-6.0,82.10015625,-30.555,2.38664053125,32.89
2021-06-28 15:24:02.453125000,-55.0,-33.0,-6.0,82.1015625,-29.08,2.3864003124999997,32.89
2021-06-28 15:24:02.460937500,-55.0,-33.0,-6.0,82.10296875,-27.244999999999997,2.38616009375,32.89
2021-06-28 15:24:02.468750000,-55.0,-33.0,-6.0,82.104375,-25.41,2.385919875,32.89
2021-06-28 15:24:02.476562500,-55.0,-33.0,-6.0,82.10578124999999,-23.259999999999998,2.38567965625,32.89
2021-06-28 15:24:02.484375000,-55.0,-33.0,-6.0,82.1071875,-21.11,2.3854394374999996,32.89
2021-06-28 15:24:02.492187500,-55.0,-33.0,-6.0,82.10859375,-18.75,2.38519921875,32.89
2021-06-28 15:24:02.500000000,-55.0,-33.0,-6.0,82.11,-16.39,2.384959,32.89
2021-06-28 15:24:02.507812500,-55.25,-33.0,-6.0,82.11140625,-13.945,2.38475884375,32.89
2021-06-28 15:24:02.515625000,-55.5,-33.0,-6.0,82.1128125,-11.5,2.3845586874999998,32.89
2021-06-28 15:24:02.523437500,-55.75,-33.0,-6.0,82.11421875,-9.14,2.3843585312499997,32.89
2021-06-28 15:24:02.531250000,-56.0,-33.0,-6.0,82.115625,-6.78,2.3841583749999997,32.89
2021-06-28 15:24:02.539062500,-56.0,-33.0,-6.0,82.11703125,-4.635,2.3839582187499997,32.89
2021-06-28 15:24:02.546875000,-56.0,-33.0,-6.0,82.1184375,-2.49,2.3837580624999997,32.89
2021-06-28 15:24:02.554687500,-56.0,-33.0,-6.0,82.11984375,-0.6500000000000001,2.3835579062499996,32.89
2021-06-28 15:24:02.562500000,-56.0,-33.0,-6.0,82.12125,1.19,2.38335775,32.89
2021-06-28 15:24:02.570312500,-55.75,-33.0,-6.0,82.12265625,2.715,2.38315759375,32.89
2021-06-28 15:24:02.578125000,-55.5,-33.0,-6.0,82.1240625,4.24,2.3829574375,32.89
2021-06-28 15:24:02.585937500,-55.25,-33.0,-6.0,82.12546875,5.470000000000001,2.38275728125,32.89
2021-06-28 15:24:02.593750000,-55.0,-33.0,-6.0,82.126875,6.7,2.382557125,32.89
2021-06-28 15:24:02.601562500,-55.0,-33.0,-6.0,82.12828125,7.67,2.38235696875,32.89
2021-06-28 15:24:02.609375000,-55.0,-33.0,-6.0,82.1296875,8.64,2.3821568125,32.89
2021-06-28 15:24:02.617187500,-55.0,-33.0,-6.0,82.13109375,9.370000000000001,2.38195665625,32.89
2021-06-28 15:24:02.625000000,-55.0,-33.0,-6.0,82.1325,10.1,2.3817565,32.89
2021-06-28 15:24:02.632812500,-55.25,-33.0,-6.0,82.13390625,10.58,2.38155634375,32.89
2021-06-28 15:24:02.640625000,-55.5,-33.0,-6.0,82.1353125,11.06,2.3813561874999998,32.89
2021-06-28 15:24:02.648437500,-55.75,-33.0,-6.0,82.13671875,11.325,2.3811560312499997,32.89
2021-06-28 15:24:02.656250000,-56.0,-33.0,-6.0,82.138125,11.59,2.3809558749999997,32.89
2021-06-28 15:24:02.664062500,-55.75,-33.0,-6.0,82.13953125,11.705,2.3807557187499997,32.89
2021-06-28 15:24:02.671875000,-55.5,-33.0,-6.0,82.1409375,11.82,2.3805555624999997,32.89
2021-06-28 15:24:02.679687500,-55.25,-33.0,-6.0,82.14234375,11.885,2.3803554062499996,32.89
2021-06-28 15:24:02.687500000,-55.0,-33.0,-6.0,82.14375,11.95,2.3801552499999996,32.89
2021-06-28 15:24:02.695312500,-55.25,-32.75,-6.0,82.14515625,12.094999999999999,2.37995509375,32.89
2021-06-28 15:24:02.703125000,-55.5,-32.5,-6.0,82.1465625,12.24,2.3797549375,32.89
2021-06-28 15:24:02.710937500,-55.75,-32.25,-6.0,82.14796875,12.530000000000001,2.37955478125,32.89
2021-06-28 15:24:02.718750000,-56.0,-32.0,-6.0,82.149375,12.82,2.379354625,32.89
2021-06-28 15:24:02.726562500,-55.75,-32.0,-6.0,82.15078125,13.254999999999999,2.37915446875,32.89
2021-06-28 15:24:02.734375000,-55.5,-32.0,-6.0,82.1521875,13.69,2.3789543125,32.89
2021-06-28 15:24:02.742187500,-55.25,-32.0,-6.0,82.15359375,14.17,2.37875415625,32.89
2021-06-28 15:24:02.750000000,-55.0,-32.0,-6.0,82.155,14.65,2.378554,32.89
2021-06-28 15:24:02.757812500,-55.0,-32.25,-6.0,82.15640625,15.045,2.3785139687499997,32.89
2021-06-28 15:24:02.765625000,-55.0,-32.5,-6.0,82.1578125,15.44,2.3784739375,32.89
2021-06-28 15:24:02.773437500,-55.0,-32.75,-6.0,82.15921875000001,15.635,2.3784339062499997,32.89
2021-06-28 15:24:02.781250000,-55.0,-33.0,-6.0,82.160625,15.83,2.378393875,32.89
2021-06-28 15:24:02.789062500,-55.0,-33.0,-6.0,82.16203125,15.8,2.37835384375,32.89
2021-06-28 15:24:02.796875000,-55.0,-33.0,-6.0,82.1634375,15.77,2.3783138125,32.89
2021-06-28 15:24:02.804687500,-55.0,-33.0,-6.0,82.16484375,15.55,2.37827378125,32.89
2021-06-28 15:24:02.812500000,-55.0,-33.0,-6.0,82.16625,15.33,2.3782337499999997,32.89
2021-06-28 15:24:02.820312500,-55.0,-33.0,-6.0,82.16765625000001,14.99,2.37819371875,32.89
2021-06-28 15:24:02.828125000,-55.0,-33.0,-6.0,82.1690625,14.65,2.3781536875,32.89
2021-06-28 15:24:02.835937500,-55.0,-33.0,-6.0,82.17046875,14.24,2.37811365625,32.89
2021-06-28 15:24:02.843750000,-55.0,-33.0,-6.0,82.171875,13.83,2.378073625,32.89
2021-06-28 15:24:02.851562500,-55.25,-33.0,-6.0,82.17328125,13.35,2.37803359375,32.89
2021-06-28 15:24:02.859375000,-55.5,-33.0,-6.0,82.1746875,12.87,2.3779935625,32.89
2021-06-28 15:24:02.867187500,-55.75,-33.0,-6.0,82.17609375,12.285,2.37795353125,32.89
2021-06-28 15:24:02.875000000,-56.0,-33.0,-6.0,82.17750000000001,11.7,2.3779135,32.89
2021-06-28 15:24:02.882812500,-55.75,-33.0,-6.0,82.17890625,10.965,2.37787346875,32.89
2021-06-28 15:24:02.890625000,-55.5,-33.0,-6.0,82.1803125,10.23,2.3778334375,32.89
2021-06-28 15:24:02.898437500,-55.25,-33.0,-6.0,82.18171875,9.34,2.37779340625,32.89
2021-06-28 15:24:02.906250000,-55.0,-33.0,-6.0,82.183125,8.45,2.377753375,32.89
2021-06-28 15:24:02.914062500,-55.0,-33.0,-6.0,82.18453125,7.445,2.37771334375,32.89
2021-06-28 15:24:02.921875000,-55.0,-33.0,-6.0,82.18593750000001,6.44,2.3776733125000002,32.89
2021-06-28 15:24:02.929687500,-55.0,-33.0,-6.0,82.18734375,5.390000000000001,2.37763328125,32.89
2021-06-28 15:24:02.937500000,-55.0,-33.0,-6.0,82.18875,4.34,2.3775932500000003,32.89
2021-06-28 15:24:02.945312500,-55.0,-33.0,-6.0,82.19015625,3.295,2.37755321875,32.89
2021-06-28 15:24:02.953125000,-55.0,-33.0,-6.0,82.1915625,2.25,2.3775131875,32.89
2021-06-28 15:24:02.960937500,-55.0,-33.0,-6.0,82.19296875,1.25,2.37747315625,32.89
2021-06-28 15:24:02.968750000,-55.0,-33.0,-6.0,82.19437500000001,0.25,2.377433125,32.89
2021-06-28 15:24:02.976562500,-55.0,-33.0,-6.0,82.19578125,-0.685,2.3773930937500003,32.89
2021-06-28 15:24:02.984375000,-55.0,-33.0,-6.0,82.1971875,-1.62,2.3773530625,32.89
2021-06-28 15:24:02.992187500,-55.0,-33.0,-6.0,82.19859375,-2.505,2.3773130312500004,32.89
2021-06-28 15:24:03.000000000,-55.0,-33.0,-6.0,82.2,-3.39,2.377273,32.89
2021-06-28 15:24:03.007812500,-55.0,-33.0,-6.0,82.201171875,-4.23,2.37695271875,32.89
2021-06-28 15:24:03.015625000,-55.0,-33.0,-6.0,82.20234375,-5.07,2.3766324375,32.89
2021-06-28 15:24:03.023437500,-55.0,-33.0,-6.0,82.20351562500001,-5.890000000000001,2.37631215625,32.89
2021-06-28 15:24:03.031250000,-55.0,-33.0,-6.0,82.2046875,-6.71,2.375991875,32.89
2021-06-28 15:24:03.039062500,-55.0,-33.0,-6.0,82.205859375,-7.574999999999999,2.37567159375,32.89
2021-06-28 15:24:03.046875000,-55.0,-33.0,-6.0,82.20703125,-8.44,2.3753513125000003,32.89
2021-06-28 15:24:03.054687500,-55.0,-33.0,-6.0,82.208203125,-9.445,2.3750310312500003,32.89
2021-06-28 15:24:03.062500000,-55.0,-33.0,-6.0,82.20937500000001,-10.45,2.37471075,32.89
2021-06-28 15:24:03.070312500,-55.0,-33.0,-6.0,82.210546875,-11.715,2.37439046875,32.89
2021-06-28 15:24:03.078125000,-55.0,-33.0,-6.0,82.21171875,-12.98,2.3740701875,32.89
2021-06-28 15:24:03.085937500,-55.0,-33.0,-6.0,82.212890625,-14.585,2.37374990625,32.89
2021-06-28 15:24:03.093750000,-55.0,-33.0,-6.0,82.2140625,-16.19,2.373429625,32.89
2021-06-28 15:24:03.101562500,-55.25,-33.0,-6.0,82.21523437500001,-18.08,2.37310934375,32.89
2021-06-28 15:24:03.109375000,-55.5,-33.0,-6.0,82.21640625,-19.97,2.3727890625,32.89
2021-06-28 15:24:03.117187500,-55.75,-33.0,-6.0,82.217578125,-21.924999999999997,2.37246878125,32.89
2021-06-28 15:24:03.125000000,-56.0,-33.0,-6.0,82.21875,-23.88,2.3721484999999998,32.89
2021-06-28 15:24:03.132812500,-55.75,-33.0,-6.0,82.219921875,-25.56,2.37182821875,32.89
2021-06-28 15:24:03.140625000,-55.5,-33.0,-6.0,82.22109375000001,-27.24,2.3715079375,32.89
2021-06-28 15:24:03.148437500,-55.25,-33.0,-6.0,82.222265625,-28.275,2.37118765625,32.89
2021-06-28 15:24:03.156250000,-55.0,-33.0,-6.0,82.2234375,-29.31,2.370867375,32.89
2021-06-28 15:24:03.164062500,-55.25,-33.0,-6.0,82.224609375,-29.475,2.37054709375,32.89
2021-06-28 15:24:03.171875000,-55.5,-33.0,-6.0,82.22578125,-29.64,2.3702268125,32.89
2021-06-28 15:24:03.179687500,-55.75,-33.0,-6.0,82.226953125,-28.915,2.36990653125,32.89
2021-06-28 15:24:03.187500000,-56.0,-33.0,-6.0,82.228125,-28.19,2.36958625,32.89
2021-06-28 15:24:03.195312500,-55.75,-33.0,-6.0,82.229296875,-26.765,2.3692659687499997,32.89
2021-06-28 15:24:03.203125000,-55.5,-33.0,-6.0,82.23046875,-25.34,2.3689456874999997,32.89
2021-06-28 15:24:03.210937500,-55.25,-33.0,-6.0,82.231640625,-23.515,2.36862540625,32.89
2021-06-28 15:24:03.218750000,-55.0,-33.0,-6.0,82.2328125,-21.69,2.368305125,32.89
2021-06-28 15:24:03.226562500,-55.0,-33.0,-6.0,82.233984375,-19.715,2.36798484375,32.89
2021-06-28 15:24:03.234375000,-55.0,-33.0,-6.0,82.23515625,-17.74,2.3676645625,32.89
2021-06-28 15:24:03.242187500,-55.0,-33.0,-6.0,82.236328125,-15.75,2.36734428125,32.89
2021-06-28 15:24:03.250000000,-55.0,-33.0,-6.0,82.2375,-13.76,2.367024,32.89
2021-06-28 15:24:03.257812500,-55.0,-33.0,-6.0,82.238671875,-11.765,2.3671040624999997,32.89
2021-06-28 15:24:03.265625000,-55.0,-33.0,-6.0,82.23984375,-9.77,2.3671841249999996,32.89
2021-06-28 15:24:03.273437500,-55.0,-33.0,-6.0,82.241015625,-7.72,2.3672641875,32.89
2021-06-28 15:24:03.281250000,-55.0,-33.0,-6.0,82.2421875,-5.67,2.36734425,32.89
2021-06-28 15:24:03.289062500,-55.0,-33.0,-6.0,82.243359375,-3.57,2.3674243125,32.89
2021-06-28 15:24:03.296875000,-55.0,-33.0,-6.0,82.24453125,-1.47,2.3675043749999998,32.89
2021-06-28 15:24:03.304687500,-55.0,-33.0,-6.0,82.245703125,0.5999999999999999,2.3675844374999997,32.89
2021-06-28 15:24:03.312500000,-55.0,-33.0,-6.0,82.246875,2.67,2.3676645,32.89
2021-06-28 15:24:03.320312500,-55.0,-33.0,-6.0,82.248046875,4.555,2.3677445625,32.89
2021-06-28 15:24:03.328125000,-55.0,-33.0,-6.0,82.24921875,6.44,2.367824625,32.89
2021-06-28 15:24:03.335937500,-55.0,-33.0,-6.0,82.250390625,8.025,2.3679046875,32.89
2021-06-28 15:24:03.343750000,-55.0,-33.0,-6.0,82.2515625,9.61,2.3679847499999997,32.89
2021-06-28 15:24:03.351562500,-55.0,-33.0,-6.0,82.252734375,10.870000000000001,2.3680648124999997,32.89
2021-06-28 15:24:03.359375000,-55.0,-33.0,-6.0,82.25390625,12.13,2.368144875,32.89
2021-06-28 15:24:03.367187500,-55.0,-33.0,-6.0,82.255078125,13.14,2.3682249375,32.89
2021-06-28 15:24:03.375000000,-55.0,-33.0,-6.0,82.25625,14.15,2.368305,32.89
2021-06-28 15:24:03.382812500,-55.0,-33.0,-6.0,82.257421875,15.055,2.3683850625,32.89
2021-06-28 15:24:03.390625000,-55.0,-33.0,-6.0,82.25859375,15.96,2.3684651249999997,32.89
2021-06-28 15:24:03.398437500,-55.0,-33.0,-6.0,82.259765625,16.86,2.3685451875,32.89
2021-06-28 15:24:03.406250000,-55.0,-33.0,-6.0,82.2609375,17.76,2.36862525,32.89
2021-06-28 15:24:03.414062500,-55.0,-33.0,-6.0,82.262109375,18.675,2.3687053125,32.89
2021-06-28 15:24:03.421875000,-55.0,-33.0,-6.0,82.26328125,19.59,2.368785375,32.89
2021-06-28 15:24:03.429687500,-55.0,-33.0,-6.0,82.264453125,20.455,2.3688654375,32.89
2021-06-28 15:24:03.437500000,-55.0,-33.0,-6.0,82.265625,21.32,2.3689454999999997,32.89
2021-06-28 15:24:03.445312500,-55.0,-33.0,-6.0,82.266796875,22.03,2.3690255625,32.89
2021-06-28 15:24:03.453125000,-55.0,-33.0,-6.0,82.26796875,22.74,2.369105625,32.89
2021-06-28 15:24:03.460937500,-55.0,-33.0,-6.0,82.269140625,23.25,2.3691856875,32.89
2021-06-28 15:24:03.468750000,-55.0,-33.0,-6.0,82.2703125,23.76,2.36926575,32.89
2021-06-28 15:24:03.476562500,-55.25,-33.0,-6.0,82.271484375,24.060000000000002,2.3693458124999998,32.89
2021-06-28 15:24:03.484375000,-55.5,-33.0,-6.0,82.27265625,24.36,2.369425875,32.89
2021-06-28 15:24:03.492187500,-55.75,-33.0,-6.0,82.273828125,24.52,2.3695059375,32.89
2021-06-28 15:24:03.500000000,-56.0,-33.0,-6.0,82.275,24.68,2.369586,32.89
2021-06-28 15:24:03.507812500,-55.75,-32.75,-6.0,82.276171875,24.744999999999997,2.369425875,32.89
2021-06-28 15:24:03.515625000,-55.5,-32.5,-6.0,82.27734375,24.81,2.36926575,32.89
2021-06-28 15:24:03.523437500,-55.25,-32.25,-6.0,82.278515625,24.795,2.369105625,32.89
2021-06-28 15:24:03.531250000,-55.0,-32.0,-6.0,82.2796875,24.78,2.3689455,32.89
2021-06-28 15:24:03.539062500,-55.0,-32.25,-6.0,82.28085937499999,24.655,2.368785375,32.89
2021-06-28 15:24:03.546875000,-55.0,-32.5,-6.0,82.28203125,24.53,2.36862525,32.89
2021-06-28 15:24:03.554687500,-55.0,-32.75,-6.0,82.283203125,24.240000000000002,2.368465125,32.89
2021-06-28 15:24:03.562500000,-55.0,-33.0,-6.0,82.284375,23.95,2.368305,32.89
2021-06-28 15:24:03.570312500,-55.0,-33.0,-6.0,82.285546875,23.455,2.368144875,32.89
2021-06-28 15:24:03.578125000,-55.0,-33.0,-6.0,82.28671874999999,22.96,2.36798475,32.89
2021-06-28 15:24:03.585937500,-55.0,-33.0,-6.0,82.287890625,22.25,2.367824625,32.89
2021-06-28 15:24:03.593750000,-55.0,-33.0,-6.0,82.2890625,21.54,2.3676645,32.89
2021-06-28 15:24:03.601562500,-55.0,-33.0,-6.0,82.290234375,20.65,2.367504375,32.89
2021-06-28 15:24:03.609375000,-55.0,-33.0,-6.0,82.29140625,19.76,2.36734425,32.89
2021-06-28 15:24:03.617187500,-55.0,-33.0,-6.0,82.29257812499999,18.73,2.367184125,32.89
2021-06-28 15:24:03.625000000,-55.0,-33.0,-6.0,82.29375,17.7,2.367024,32.89
2021-06-28 15:24:03.632812500,-55.0,-33.0,-6.0,82.294921875,16.575,2.366863875,32.89
2021-06-28 15:24:03.640625000,-55.0,-33.0,-6.0,82.29609375,15.45,2.36670375,32.89
2021-06-28 15:24:03.648437500,-55.0,-33.0,-6.0,82.297265625,14.265,2.366543625,32.89
2021-06-28 15:24:03.656250000,-55.0,-33.0,-6.0,82.29843749999999,13.08,2.3663835,32.89
2021-06-28 15:24:03.664062500,-55.0,-33.0,-6.0,82.299609375,11.870000000000001,2.366223375,32.89
2021-06-28 15:24:03.671875000,-55.0,-33.0,-6.0,82.30078125,10.66,2.36606325,32.89
2021-06-28 15:24:03.679687500,-55.0,-33.0,-6.0,82.301953125,9.45,2.365903125,32.89
2021-06-28 15:24:03.687500000,-55.0,-33.0,-6.0,82.303125,8.24,2.365743,32.89
2021-06-28 15:24:03.695312500,-55.0,-33.0,-6.0,82.30429687499999,7.02,2.365582875,32.89
2021-06-28 15:24:03.703125000,-55.0,-33.0,-6.0,82.30546875,5.8,2.36542275,32.89
2021-06-28 15:24:03.710937500,-55.0,-33.0,-6.0,82.306640625,4.5649999999999995,2.365262625,32.89
2021-06-28 15:24:03.718750000,-55.0,-33.0,-6.0,82.3078125,3.33,2.3651025,32.89
2021-06-28 15:24:03.726562500,-55.0,-33.0,-5.75,82.308984375,2.05,2.364942375,32.89
2021-06-28 15:24:03.734375000,-55.0,-33.0,-5.5,82.31015624999999,0.77,2.36478225,32.89
2021-06-28 15:24:03.742187500,-55.0,-33.0,-5.25,82.311328125,-0.605,2.364622125,32.89
2021-06-28 15:24:03.750000000,-55.0,-33.0,-5.0,82.3125,-1.98,2.364462,32.89
2021-06-28 15:24:03.757812500,-55.0,-33.25,-5.25,82.313671875,-3.4450000000000003,2.36442196875,32.89
2021-06-28 15:24:03.765625000,-55.0,-33.5,-5.5,82.31484375,-4.91,2.3643819375,32.89
2021-06-28 15:24:03.773437500,-55.0,-33.75,-5.75,82.31601562499999,-6.46,2.36434190625,32.89
2021-06-28 15:24:03.781250000,-55.0,-34.0,-6.0,82.3171875,-8.01,2.364301875,32.89
2021-06-28 15:24:03.789062500,-55.25,-33.75,-6.0,82.318359375,-9.594999999999999,2.36426184375,32.89
2021-06-28 15:24:03.796875000,-55.5,-33.5,-6.0,82.31953125,-11.18,2.3642218125,32.89
2021-06-28 15:24:03.804687500,-55.75,-33.25,-6.0,82.320703125,-12.765,2.36418178125,32.89
2021-06-28 15:24:03.812500000,-56.0,-33.0,-6.0,82.32187499999999,-14.35,2.36414175,32.89
2021-06-28 15:24:03.820312500,-55.75,-33.0,-6.0,82.323046875,-15.925,2.36410171875,32.89
2021-06-28 15:24:03.828125000,-55.5,-33.0,-6.0,82.32421875,-17.5,2.3640616875,32.89
2021-06-28 15:24:03.835937500,-55.25,-33.0,-6.0,82.325390625,-19.115000000000002,2.36402165625,32.89
2021-06-28 15:24:03.843750000,-55.0,-33.0,-6.0,82.3265625,-20.73,2.363981625,32.89
2021-06-28 15:24:03.851562500,-55.25,-32.75,-6.0,82.32773437499999,-22.425,2.36394159375,32.89
2021-06-28 15:24:03.859375000,-55.5,-32.5,-6.0,82.32890624999999,-24.12,2.3639015625,32.89
2021-06-28 15:24:03.867187500,-55.75,-32.25,-6.0,82.330078125,-25.905,2.36386153125,32.89
2021-06-28 15:24:03.875000000,-56.0,-32.0,-6.0,82.33125,-27.69,2.3638215000000002,32.89
2021-06-28 15:24:03.882812500,-55.75,-32.25,-6.0,82.332421875,-29.46,2.36378146875,32.89
2021-06-28 15:24:03.890625000,-55.5,-32.5,-6.0,82.33359374999999,-31.23,2.3637414375,32.89
2021-06-28 15:24:03.898437500,-55.25,-32.75,-6.0,82.33476562499999,-32.8,2.36370140625,32.89
2021-06-28 15:24:03.906250000,-55.0,-33.0,-6.0,82.3359375,-34.37,2.363661375,32.89
2021-06-28 15:24:03.914062500,-55.0,-33.0,-6.0,82.337109375,-35.465,2.36362134375,32.89
2021-06-28 15:24:03.921875000,-55.0,-33.0,-6.0,82.33828125,-36.56,2.3635813125,32.89
2021-06-28 15:24:03.929687500,-55.0,-33.0,-6.0,82.33945312499999,-36.945,2.36354128125,32.89
2021-06-28 15:24:03.937500000,-55.0,-33.0,-6.0,82.34062499999999,-37.33,2.36350125,32.89
2021-06-28 15:24:03.945312500,-55.0,-33.0,-6.0,82.341796875,-36.91,2.36346121875,32.89
2021-06-28 15:24:03.953125000,-55.0,-33.0,-6.0,82.34296875,-36.49,2.3634211875,32.89
2021-06-28 15:24:03.960937500,-55.0,-33.0,-6.0,82.344140625,-35.305,2.36338115625,32.89
2021-06-28 15:24:03.968750000,-55.0,-33.0,-6.0,82.34531249999999,-34.12,2.363341125,32.89
2021-06-28 15:24:03.976562500,-55.0,-33.5,-6.25,82.34648437499999,-32.339999999999996,2.36330109375,32.89
2021-06-28 15:24:03.984375000,-55.0,-34.0,-6.5,82.34765625,-30.56,2.3632610625,32.89
2021-06-28 15:24:03.992187500,-55.0,-34.5,-6.75,82.348828125,-28.39,2.36322103125,32.89
2021-06-28 15:24:04.000000000,-55.0,-35.0,-7.0,82.35,-26.22,2.363181,32.89
2021-06-28 15:24:04.007812500,-55.0,-34.75,-6.75,82.35117187499999,-23.81,2.3631009375,32.889375
2021-06-28 15:24:04.015625000,-55.0,-34.5,-6.5,82.35234374999999,-21.4,2.363020875,32.88875
2021-06-28 15:24:04.023437500,-55.0,-34.25,-6.25,82.353515625,-18.854999999999997,2.3629408124999998,32.888125
2021-06-28 15:24:04.031250000,-55.0,-34.0,-6.0,82.3546875,-16.31,2.36286075,32.8875
2021-06-28 15:24:04.039062500,-55.0,-33.75,-6.0,82.355859375,-13.684999999999999,2.3627806875,32.886875
2021-06-28 15:24:04.046875000,-55.0,-33.5,-6.0,82.35703124999999,-11.06,2.362700625,32.88625
2021-06-28 15:24:04.054687500,-55.0,-33.25,-6.0,82.35820312499999,-8.405000000000001,2.3626205625,32.885625
2021-06-28 15:24:04.062500000,-55.0,-33.0,-6.0,82.359375,-5.75,2.3625404999999997,32.885
2021-06-28 15:24:04.070312500,-55.25,-33.0,-6.0,82.360546875,-3.16,2.3624604375,32.884375
2021-06-28 15:24:04.078125000,-55.5,-33.0,-6.0,82.36171875,-0.57,2.362380375,32.88375
2021-06-28 15:24:04.085937500,-55.75,-33.0,-6.0,82.36289062499999,1.85,2.3623003125,32.883125
2021-06-28 15:24:04.093750000,-56.0,-33.0,-6.0,82.36406249999999,4.27,2.36222025,32.8825
2021-06-28 15:24:04.101562500,-55.75,-32.75,-6.0,82.365234375,6.4399999999999995,2.3621401875,32.881875
2021-06-28 15:24:04.109375000,-55.5,-32.5,-6.0,82.36640625,8.61,2.3620601249999997,32.88125
2021-06-28 15:24:04.117187500,-55.25,-32.25,-6.0,82.367578125,10.5,2.3619800625,32.880625
2021-06-28 15:24:04.125000000,-55.0,-32.0,-6.0,82.36874999999999,12.39,2.3619,32.879999999999995
2021-06-28 15:24:04.132812500,-55.25,-32.0,-6.0,82.36992187499999,14.004999999999999,2.3618199375,32.879374999999996
2021-06-28 15:24:04.140625000,-55.5,-32.0,-6.0,82.37109375,15.62,2.361739875,32.87875
2021-06-28 15:24:04.148437500,-55.75,-32.0,-6.0,82.372265625,17.005,2.3616598124999997,32.878125
2021-06-28 15:24:04.156250000,-56.0,-32.0,-6.0,82.3734375,18.39,2.3615797499999998,32.8775
2021-06-28 15:24:04.164062500,-55.75,-32.0,-6.0,82.37460937499999,19.564999999999998,2.3614996875,32.876875
2021-06-28 15:24:04.171875000,-55.5,-32.0,-6.0,82.37578124999999,20.74,2.361419625,32.87625
2021-06-28 15:24:04.179687500,-55.25,-32.0,-6.0,82.376953125,21.74,2.3613395625,32.875625
2021-06-28 15:24:04.187500000,-55.0,-32.0,-6.0,82.378125,22.74,2.3612595,32.875
2021-06-28 15:24:04.195312500,-55.25,-32.25,-6.0,82.379296875,23.575,2.3611794374999997,32.874375
2021-06-28 15:24:04.203125000,-55.5,-32.5,-6.0,82.38046874999999,24.41,2.361099375,32.87375
2021-06-28 15:24:04.210937500,-55.75,-32.75,-6.0,82.38164062499999,25.119999999999997,2.3610193125,32.873124999999995
2021-06-28 15:24:04.218750000,-56.0,-33.0,-6.0,82.3828125,25.83,2.36093925,32.872499999999995
2021-06-28 15:24:04.226562500,-56.0,-32.75,-6.0,82.383984375,26.445,2.3608591875,32.871874999999996
2021-06-28 15:24:04.234375000,-56.0,-32.5,-6.0,82.38515625,27.06,2.3607791249999996,32.871249999999996
2021-06-28 15:24:04.242187500,-56.0,-32.25,-6.0,82.38632812499999,27.6,2.3606990624999997,32.870625
2021-06-28 15:24:04.250000000,-56.0,-32.0,-6.0,82.38749999999999,28.14,2.360619,32.87
2021-06-28 15:24:04.257812500,-56.0,-32.25,-6.0,82.388671875,28.57,2.36053890625,32.87
2021-06-28 15:24:04.265625000,-56.0,-32.5,-6.0,82.38984375,29.0,2.3604588124999997,32.87
2021-06-28 15:24:04.273437500,-56.0,-32.75,-6.0,82.391015625,29.27,2.36037871875,32.87
2021-06-28 15:24:04.281250000,-56.0,-33.0,-6.0,82.39218749999999,29.54,2.360298625,32.87
2021-06-28 15:24:04.289062500,-55.75,-32.75,-5.75,82.393359375,29.605,2.3602185312499997,32.87
2021-06-28 15:24:04.296875000,-55.5,-32.5,-5.5,82.39453125,29.67,2.3601384375,32.87
2021-06-28 15:24:04.304687500,-55.25,-32.25,-5.25,82.395703125,29.495,2.36005834375,32.87
2021-06-28 15:24:04.312500000,-55.0,-32.0,-5.0,82.396875,29.32,2.3599782499999997,32.87
2021-06-28 15:24:04.320312500,-55.0,-32.0,-5.25,82.39804687499999,28.93,2.35989815625,32.87
2021-06-28 15:24:04.328125000,-55.0,-32.0,-5.5,82.39921875,28.54,2.3598180625,32.87
2021-06-28 15:24:04.335937500,-55.0,-32.0,-5.75,82.400390625,27.975,2.3597379687499997,32.87
2021-06-28 15:24:04.343750000,-55.0,-32.0,-6.0,82.4015625,27.41,2.359657875,32.87
2021-06-28 15:24:04.351562500,-55.0,-32.0,-6.0,82.402734375,26.715,2.35957778125,32.87
2021-06-28 15:24:04.359375000,-55.0,-32.0,-6.0,82.40390624999999,26.02,2.3594976874999998,32.87
2021-06-28 15:24:04.367187500,-55.0,-32.0,-6.0,82.405078125,25.255,2.35941759375,32.87
2021-06-28 15:24:04.375000000,-55.0,-32.0,-6.0,82.40625,24.49,2.3593374999999996,32.87
2021-06-28 15:24:04.382812500,-55.25,-32.0,-5.75,82.407421875,23.695,2.35925740625,32.87
2021-06-28 15:24:04.390625000,-55.5,-32.0,-5.5,82.40859375,22.9,2.3591773125,32.87
2021-06-28 15:24:04.398437500,-55.75,-32.0,-5.25,82.40976562499999,22.104999999999997,2.3590972187499997,32.87
2021-06-28 15:24:04.406250000,-56.0,-32.0,-5.0,82.4109375,21.31,2.359017125,32.87
2021-06-28 15:24:04.414062500,-56.0,-31.75,-5.0,82.412109375,20.515,2.35893703125,32.87
2021-06-28 15:24:04.421875000,-56.0,-31.5,-5.0,82.41328125,19.72,2.3588569374999997,32.87
2021-06-28 15:24:04.429687500,-56.0,-31.25,-5.0,82.414453125,18.869999999999997,2.35877684375,32.87
2021-06-28 15:24:04.437500000,-56.0,-31.0,-5.0,82.41562499999999,18.02,2.35869675,32.87
2021-06-28 15:24:04.445312500,-56.0,-31.5,-5.25,82.416796875,17.02,2.3586166562499997,32.87
2021-06-28 15:24:04.453125000,-56.0,-32.0,-5.5,82.41796875,16.02,2.3585365625,32.87
2021-06-28 15:24:04.460937500,-56.0,-32.5,-5.75,82.419140625,14.785,2.35845646875,32.87
2021-06-28 15:24:04.468750000,-56.0,-33.0,-6.0,82.4203125,13.55,2.3583763749999997,32.87
2021-06-28 15:24:04.476562500,-56.0,-32.75,-6.0,82.42148437499999,12.055,2.35829628125,32.87
2021-06-28 15:24:04.484375000,-56.0,-32.5,-6.0,82.42265625,10.56,2.3582161875,32.87
2021-06-28 15:24:04.492187500,-56.0,-32.25,-6.0,82.423828125,8.855,2.3581360937499998,32.87
2021-06-28 15:24:04.500000000,-56.0,-32.0,-6.0,82.425,7.15,2.358056,32.87
2021-06-28 15:24:04.507812500,-56.0,-32.25,-6.0,82.426171875,5.345000000000001,2.35793590625,32.87
2021-06-28 15:24:04.515625000,-56.0,-32.5,-6.0,82.42734374999999,3.54,2.3578158125,32.87
2021-06-28 15:24:04.523437500,-56.0,-32.75,-6.0,82.428515625,1.775,2.35769571875,32.87
2021-06-28 15:24:04.531250000,-56.0,-33.0,-6.0,82.4296875,0.01,2.357575625,32.87
2021-06-28 15:24:04.539062500,-55.75,-32.75,-5.75,82.430859375,-1.6449999999999998,2.35745553125,32.87
2021-06-28 15:24:04.546875000,-55.5,-32.5,-5.5,82.43203125,-3.3,2.3573354374999997,32.87
2021-06-28 15:24:04.554687500,-55.25,-32.25,-5.25,82.43320312499999,-4.845,2.35721534375,32.87
2021-06-28 15:24:04.562500000,-55.0,-32.0,-5.0,82.434375,-6.39,2.35709525,32.87
2021-06-28 15:24:04.570312500,-55.25,-32.0,-5.25,82.435546875,-7.895,2.35697515625,32.87
2021-06-28 15:24:04.578125000,-55.5,-32.0,-5.5,82.43671875,-9.4,2.3568550625,32.87
2021-06-28 15:24:04.585937500,-55.75,-32.0,-5.75,82.437890625,-10.969999999999999,2.35673496875,32.87
2021-06-28 15:24:04.593750000,-56.0,-32.0,-6.0,82.43906249999999,-12.54,2.356614875,32.87
2021-06-28 15:24:04.601562500,-55.75,-32.25,-6.0,82.440234375,-14.285,2.35649478125,32.87
2021-06-28 15:24:04.609375000,-55.5,-32.5,-6.0,82.44140625,-16.03,2.3563746875,32.87
2021-06-28 15:24:04.617187500,-55.25,-32.75,-6.0,82.442578125,-18.025,2.35625459375,32.87
2021-06-28 15:24:04.625000000,-55.0,-33.0,-6.0,82.44375,-20.02,2.3561345,32.87
2021-06-28 15:24:04.632812500,-55.25,-32.75,-6.0,82.44492187499999,-22.285,2.35601440625,32.87
2021-06-28 15:24:04.640625000,-55.5,-32.5,-6.0,82.44609375,-24.55,2.3558943125000003,32.87
2021-06-28 15:24:04.648437500,-55.75,-32.25,-6.0,82.447265625,-27.009999999999998,2.35577421875,32.87
2021-06-28 15:24:04.656250000,-56.0,-32.0,-6.0,82.4484375,-29.47,2.355654125,32.87
2021-06-28 15:24:04.664062500,-55.75,-32.25,-6.0,82.449609375,-31.919999999999998,2.35553403125,32.87
2021-06-28 15:24:04.671875000,-55.5,-32.5,-6.0,82.45078124999999,-34.37,2.3554139375,32.87
2021-06-28 15:24:04.679687500,-55.25,-32.75,-6.0,82.451953125,-36.489999999999995,2.35529384375,32.87
2021-06-28 15:24:04.687500000,-55.0,-33.0,-6.0,82.453125,-38.61,2.35517375,32.87
2021-06-28 15:24:04.695312500,-55.25,-32.75,-5.75,82.454296875,-40.03,2.35505365625,32.87
2021-06-28 15:24:04.703125000,-55.5,-32.5,-5.5,82.45546875,-41.45,2.3549335625000003,32.87
2021-06-28 15:24:04.710937500,-55.75,-32.25,-5.25,82.45664062499999,-41.88,2.35481346875,32.87
2021-06-28 15:24:04.718750000,-56.0,-32.0,-5.0,82.4578125,-42.31,2.354693375,32.87
2021-06-28 15:24:04.726562500,-56.0,-32.25,-5.25,82.458984375,-41.635000000000005,2.35457328125,32.87
2021-06-28 15:24:04.734375000,-56.0,-32.5,-5.5,82.46015625,-40.96,2.3544531875,32.87
2021-06-28 15:24:04.742187500,-56.0,-32.75,-5.75,82.461328125,-39.295,2.35433309375,32.87
2021-06-28 15:24:04.750000000,-56.0,-33.0,-6.0,82.4625,-37.63,2.354213,32.87
2021-06-28 15:24:04.757812500,-55.75,-33.25,-6.0,82.463671875,-35.269999999999996,2.35397278125,32.87
2021-06-28 15:24:04.765625000,-55.5,-33.5,-6.0,82.46484375,-32.91,2.3537325625000003,32.87
2021-06-28 15:24:04.773437500,-55.25,-33.75,-6.0,82.466015625,-30.199999999999996,2.35349234375,32.87
2021-06-28 15:24:04.781250000,-55.0,-34.0,-6.0,82.4671875,-27.49,2.353252125,32.87
2021-06-28 15:24:04.789062500,-55.25,-33.5,-5.75,82.468359375,-24.705,2.35301190625,32.87
2021-06-28 15:24:04.796875000,-55.5,-33.0,-5.5,82.46953125,-21.92,2.3527716875,32.87
2021-06-28 15:24:04.804687500,-55.75,-32.5,-5.25,82.470703125,-19.205,2.35253146875,32.87
2021-06-28 15:24:04.812500000,-56.0,-32.0,-5.0,82.471875,-16.49,2.35229125,32.87
2021-06-28 15:24:04.820312500,-55.75,-32.25,-5.0,82.473046875,-13.884999999999998,2.3520510312500003,32.87
2021-06-28 15:24:04.828125000,-55.5,-32.5,-5.0,82.47421875,-11.28,2.3518108125,32.87
2021-06-28 15:24:04.835937500,-55.25,-32.75,-5.0,82.475390625,-8.774999999999999,2.35157059375,32.87
2021-06-28 15:24:04.843750000,-55.0,-33.0,-5.0,82.4765625,-6.27,2.351330375,32.87
2021-06-28 15:24:04.851562500,-55.25,-32.75,-5.25,82.477734375,-3.8449999999999998,2.35109015625,32.87
2021-06-28 15:24:04.859375000,-55.5,-32.5,-5.5,82.47890625,-1.42,2.3508499375,32.87
2021-06-28 15:24:04.867187500,-55.75,-32.25,-5.75,82.480078125,0.9050000000000002,2.35060971875,32.87
2021-06-28 15:24:04.875000000,-56.0,-32.0,-6.0,82.48125,3.23,2.3503695000000002,32.87
2021-06-28 15:24:04.882812500,-56.0,-32.0,-5.75,82.482421875,5.414999999999999,2.35012928125,32.87
2021-06-28 15:24:04.890625000,-56.0,-32.0,-5.5,82.48359375,7.6,2.3498890625,32.87
2021-06-28 15:24:04.898437500,-56.0,-32.0,-5.25,82.484765625,9.605,2.34964884375,32.87
2021-06-28 15:24:04.906250000,-56.0,-32.0,-5.0,82.4859375,11.61,2.349408625,32.87
2021-06-28 15:24:04.914062500,-56.0,-32.0,-5.25,82.487109375,13.399999999999999,2.34916840625,32.87
2021-06-28 15:24:04.921875000,-56.0,-32.0,-5.5,82.48828125,15.19,2.3489281875,32.87
2021-06-28 15:24:04.929687500,-56.0,-32.0,-5.75,82.489453125,16.73,2.3486879687499997,32.87
2021-06-28 15:24:04.937500000,-56.0,-32.0,-6.0,82.490625,18.27,2.34844775,32.87
2021-06-28 15:24:04.945312500,-56.0,-32.25,-6.0,82.491796875,19.52,2.34820753125,32.87
2021-06-28 15:24:04.953125000,-56.0,-32.5,-6.0,82.49296875,20.77,2.3479673125,32.87
2021-06-28 15:24:04.960937500,-56.0,-32.75,-6.0,82.494140625,21.689999999999998,2.34772709375,32.87
2021-06-28 15:24:04.968750000,-56.0,-33.0,-6.0,82.4953125,22.61,2.347486875,32.87
2021-06-28 15:24:04.976562500,-56.0,-33.0,-5.75,82.496484375,23.195,2.34724665625,32.87
2021-06-28 15:24:04.984375000,-56.0,-33.0,-5.5,82.49765625,23.78,2.3470064374999997,32.87
2021-06-28 15:24:04.992187500,-56.0,-33.0,-5.25,82.498828125,24.09,2.34676621875,32.87
2021-06-28 15:24:05.000000000,-56.0,-33.0,-5.0,82.5,24.4,2.346526,32.87
2021-06-28 15:24:05.007812500,-55.75,-33.0,-5.25,82.501015625,24.525,2.3465660625,32.870625
2021-06-28 15:24:05.015625000,-55.5,-33.0,-5.5,82.50203125,24.65,2.346606125,32.871249999999996
2021-06-28 15:24:05.023437500,-55.25,-33.0,-5.75,82.503046875,24.7,2.3466461874999998,32.871874999999996
2021-06-28 15:24:05.031250000,-55.0,-33.0,-6.0,82.5040625,24.75,2.34668625,32.872499999999995
2021-06-28 15:24:05.039062500,-55.25,-33.0,-6.0,82.505078125,24.805,2.3467263125,32.873124999999995
2021-06-28 15:24:05.046875000,-55.5,-33.0,-6.0,82.50609375,24.86,2.346766375,32.87375
2021-06-28 15:24:05.054687500,-55.75,-33.0,-6.0,82.507109375,24.935000000000002,2.3468064374999997,32.874375
2021-06-28 15:24:05.062500000,-56.0,-33.0,-6.0,82.508125,25.01,2.3468465,32.875
2021-06-28 15:24:05.070312500,-55.75,-33.0,-6.0,82.509140625,25.065,2.3468865625,32.875625
2021-06-28 15:24:05.078125000,-55.5,-33.0,-6.0,82.51015625,25.12,2.346926625,32.87625
2021-06-28 15:24:05.085937500,-55.25,-33.0,-6.0,82.511171875,25.075000000000003,2.3469666875,32.876875
2021-06-28 15:24:05.093750000,-55.0,-33.0,-6.0,82.5121875,25.03,2.34700675,32.8775
2021-06-28 15:24:05.101562500,-55.0,-33.0,-6.0,82.513203125,24.825000000000003,2.3470468125,32.878125
2021-06-28 15:24:05.109375000,-55.0,-33.0,-6.0,82.51421875,24.62,2.347086875,32.87875
2021-06-28 15:24:05.117187500,-55.0,-33.0,-6.0,82.515234375,24.23,2.3471269375,32.879374999999996
2021-06-28 15:24:05.125000000,-55.0,-33.0,-6.0,82.51625,23.84,2.347167,32.879999999999995
2021-06-28 15:24:05.132812500,-55.0,-33.0,-5.75,82.517265625,23.27,2.3472070625,32.880625
2021-06-28 15:24:05.140625000,-55.0,-33.0,-5.5,82.51828125,22.7,2.347247125,32.88125
2021-06-28 15:24:05.148437500,-55.0,-33.0,-5.25,82.519296875,22.015,2.3472871875,32.881875
2021-06-28 15:24:05.156250000,-55.0,-33.0,-5.0,82.5203125,21.33,2.34732725,32.8825
2021-06-28 15:24:05.164062500,-55.25,-33.0,-5.25,82.521328125,20.564999999999998,2.3473673125,32.883125
2021-06-28 15:24:05.171875000,-55.5,-33.0,-5.5,82.52234375,19.8,2.347407375,32.88375
2021-06-28 15:24:05.179687500,-55.75,-33.0,-5.75,82.523359375,19.009999999999998,2.3474474375,32.884375
2021-06-28 15:24:05.187500000,-56.0,-33.0,-6.0,82.52437499999999,18.22,2.3474875,32.885
2021-06-28 15:24:05.195312500,-55.75,-32.75,-6.0,82.525390625,17.405,2.3475275625000003,32.885625
2021-06-28 15:24:05.203125000,-55.5,-32.5,-6.0,82.52640625,16.59,2.347567625,32.88625
2021-06-28 15:24:05.210937500,-55.25,-32.25,-6.0,82.527421875,15.74,2.3476076875,32.886875
2021-06-28 15:24:05.218750000,-55.0,-32.0,-6.0,82.5284375,14.89,2.34764775,32.8875
2021-06-28 15:24:05.226562500,-55.25,-32.0,-6.0,82.529453125,13.965,2.3476878125000002,32.888125
2021-06-28 15:24:05.234375000,-55.5,-32.0,-6.0,82.53046875,13.04,2.347727875,32.88875
2021-06-28 15:24:05.242187500,-55.75,-32.0,-6.0,82.531484375,12.0,2.3477679375,32.889375
2021-06-28 15:24:05.250000000,-56.0,-32.0,-6.0,82.5325,10.96,2.347808,32.89
2021-06-28 15:24:05.257812500,-55.75,-32.25,-6.0,82.53351562499999,9.785,2.3476078125,32.89
2021-06-28 15:24:05.265625000,-55.5,-32.5,-6.0,82.53453125,8.61,2.347407625,32.89
2021-06-28 15:24:05.273437500,-55.25,-32.75,-6.0,82.535546875,7.324999999999999,2.3472074375000003,32.89
2021-06-28 15:24:05.281250000,-55.0,-33.0,-6.0,82.5365625,6.04,2.34700725,32.89
2021-06-28 15:24:05.289062500,-55.0,-33.0,-6.0,82.537578125,4.675,2.3468070625,32.89
2021-06-28 15:24:05.296875000,-55.0,-33.0,-6.0,82.53859375,3.31,2.346606875,32.89
2021-06-28 15:24:05.304687500,-55.0,-33.0,-6.0,82.539609375,1.9300000000000002,2.3464066875,32.89
2021-06-28 15:24:05.312500000,-55.0,-33.0,-6.0,82.540625,0.55,2.3462065,32.89
2021-06-28 15:24:05.320312500,-55.0,-33.0,-5.75,82.541640625,-0.825,2.3460063125,32.89
2021-06-28 15:24:05.328125000,-55.0,-33.0,-5.5,82.54265625,-2.2,2.345806125,32.89
2021-06-28 15:24:05.335937500,-55.0,-33.0,-5.25,82.543671875,-3.58,2.3456059375000002,32.89
2021-06-28 15:24:05.343750000,-55.0,-33.0,-5.0,82.5446875,-4.96,2.3454057500000003,32.89
2021-06-28 15:24:05.351562500,-55.0,-33.0,-5.25,82.545703125,-6.4,2.3452055625,32.89
2021-06-28 15:24:05.359375000,-55.0,-33.0,-5.5,82.54671875,-7.84,2.345005375,32.89
2021-06-28 15:24:05.367187500,-55.0,-33.0,-5.75,82.547734375,-9.415,2.3448051875,32.89
2021-06-28 15:24:05.375000000,-55.0,-33.0,-6.0,82.54875,-10.99,2.344605,32.89
2021-06-28 15:24:05.382812500,-55.0,-32.75,-6.0,82.54976562499999,-12.76,2.3444048125,32.89
2021-06-28 15:24:05.390625000,-55.0,-32.5,-6.0,82.55078125,-14.53,2.344204625,32.89
2021-06-28 15:24:05.398437500,-55.0,-32.25,-6.0,82.551796875,-16.52,2.3440044375,32.89
2021-06-28 15:24:05.406250000,-55.0,-32.0,-6.0,82.5528125,-18.51,2.34380425,32.89
2021-06-28 15:24:05.414062500,-55.0,-32.25,-6.0,82.553828125,-20.69,2.3436040625,32.89
2021-06-28 15:24:05.421875000,-55.0,-32.5,-6.0,82.55484375,-22.87,2.343403875,32.89
2021-06-28 15:24:05.429687500,-55.0,-32.75,-6.0,82.555859375,-25.15,2.3432036875,32.89
2021-06-28 15:24:05.437500000,-55.0,-33.0,-6.0,82.55687499999999,-27.43,2.3430035,32.89
2021-06-28 15:24:05.445312500,-55.0,-33.0,-5.75,82.557890625,-29.655,2.3428033125,32.89
2021-06-28 15:24:05.453125000,-55.0,-33.0,-5.5,82.55890624999999,-31.88,2.342603125,32.89
2021-06-28 15:24:05.460937500,-55.0,-33.0,-5.25,82.559921875,-33.855,2.3424029375,32.89
2021-06-28 15:24:05.468750000,-55.0,-33.0,-5.0,82.5609375,-35.83,2.34220275,32.89
2021-06-28 15:24:05.476562500,-55.0,-33.0,-5.25,82.561953125,-37.32,2.3420025625,32.89
2021-06-28 15:24:05.484375000,-55.0,-33.0,-5.5,82.56296875,-38.81,2.341802375,32.89
2021-06-28 15:24:05.492187500,-55.0,-33.0,-5.75,82.563984375,-39.58,2.3416021875,32.89
2021-06-28 15:24:05.500000000,-55.0,-33.0,-6.0,82.565,-40.35,2.341402,32.89
2021-06-28 15:24:05.507812500,-55.0,-33.0,-5.75,82.56601562499999,-40.24,2.34144203125,32.89
2021-06-28 15:24:05.515625000,-55.0,-33.0,-5.5,82.56703125,-40.13,2.3414820625,32.89
2021-06-28 15:24:05.523437500,-55.0,-33.0,-5.25,82.568046875,-39.095,2.34152209375,32.89
2021-06-28 15:24:05.531250000,-55.0,-33.0,-5.0,82.5690625,-38.06,2.341562125,32.89
2021-06-28 15:24:05.539062500,-55.25,-33.0,-5.25,82.570078125,-36.185,2.34160215625,32.89
2021-06-28 15:24:05.546875000,-55.5,-33.0,-5.5,82.57109375,-34.31,2.3416421875,32.89
2021-06-28 15:24:05.554687500,-55.75,-33.0,-5.75,82.572109375,-31.82,2.34168221875,32.89
2021-06-28 15:24:05.562500000,-56.0,-33.0,-6.0,82.573125,-29.33,2.34172225,32.89
2021-06-28 15:24:05.570312500,-55.75,-33.0,-6.0,82.574140625,-26.49,2.34176228125,32.89
2021-06-28 15:24:05.578125000,-55.5,-33.0,-6.0,82.57515624999999,-23.65,2.3418023125,32.89
2021-06-28 15:24:05.585937500,-55.25,-33.0,-6.0,82.576171875,-20.7,2.34184234375,32.89
2021-06-28 15:24:05.593750000,-55.0,-33.0,-6.0,82.5771875,-17.75,2.341882375,32.89
2021-06-28 15:24:05.601562500,-55.0,-33.0,-6.0,82.578203125,-14.865,2.34192240625,32.89
2021-06-28 15:24:05.609375000,-55.0,-33.0,-6.0,82.57921875,-11.98,2.3419624375,32.89
2021-06-28 15:24:05.617187500,-55.0,-33.0,-6.0,82.580234375,-9.255,2.34200246875,32.89
2021-06-28 15:24:05.625000000,-55.0,-33.0,-6.0,82.58125,-6.53,2.3420425,32.89
2021-06-28 15:24:05.632812500,-55.5,-33.0,-6.0,82.58226562499999,-3.995,2.34208253125,32.89
2021-06-28 15:24:05.640625000,-56.0,-33.0,-6.0,82.58328125,-1.46,2.3421225625,32.89
2021-06-28 15:24:05.648437500,-56.5,-33.0,-6.0,82.58429687499999,0.8399999999999999,2.34216259375,32.89
2021-06-28 15:24:05.656250000,-57.0,-33.0,-6.0,82.5853125,3.14,2.342202625,32.89
2021-06-28 15:24:05.664062500,-56.5,-32.75,-5.75,82.586328125,5.16,2.34224265625,32.89
2021-06-28 15:24:05.671875000,-56.0,-32.5,-5.5,82.58734375,7.18,2.3422826875,32.89
2021-06-28 15:24:05.679687500,-55.5,-32.25,-5.25,82.588359375,8.879999999999999,2.34232271875,32.89
2021-06-28 15:24:05.687500000,-55.0,-32.0,-5.0,82.58937499999999,10.58,2.34236275,32.89
2021-06-28 15:24:05.695312500,-55.25,-32.25,-5.25,82.590390625,11.955,2.34240278125,32.89
2021-06-28 15:24:05.703125000,-55.5,-32.5,-5.5,82.59140624999999,13.33,2.3424428125,32.89
2021-06-28 15:24:05.710937500,-55.75,-32.75,-5.75,82.592421875,14.42,2.34248284375,32.89
2021-06-28 15:24:05.718750000,-56.0,-33.0,-6.0,82.5934375,15.51,2.3425228750000002,32.89
2021-06-28 15:24:05.726562500,-55.75,-32.75,-5.75,82.594453125,16.415,2.34256290625,32.89
2021-06-28 15:24:05.734375000,-55.5,-32.5,-5.5,82.59546875,17.32,2.3426029375,32.89
2021-06-28 15:24:05.742187500,-55.25,-32.25,-5.25,82.596484375,18.11,2.34264296875,32.89
2021-06-28 15:24:05.750000000,-55.0,-32.0,-5.0,82.5975,18.9,2.342683,32.89
2021-06-28 15:24:05.757812500,-55.0,-32.25,-5.25,82.59851562499999,19.615,2.3424428125,32.89
2021-06-28 15:24:05.765625000,-55.0,-32.5,-5.5,82.59953125,20.33,2.342202625,32.89
2021-06-28 15:24:05.773437500,-55.0,-32.75,-5.75,82.60054687499999,20.97,2.3419624375,32.89
2021-06-28 15:24:05.781250000,-55.0,-33.0,-6.0,82.6015625,21.61,2.34172225,32.89
2021-06-28 15:24:05.789062500,-55.0,-33.0,-5.75,82.602578125,22.16,2.3414820625,32.89
2021-06-28 15:24:05.796875000,-55.0,-33.0,-5.5,82.60359375,22.71,2.341241875,32.89
2021-06-28 15:24:05.804687500,-55.0,-33.0,-5.25,82.604609375,23.14,2.3410016875,32.89
2021-06-28 15:24:05.812500000,-55.0,-33.0,-5.0,82.605625,23.57,2.3407615,32.89
2021-06-28 15:24:05.820312500,-55.0,-33.0,-5.25,82.606640625,23.880000000000003,2.3405213125,32.89
2021-06-28 15:24:05.828125000,-55.0,-33.0,-5.5,82.60765624999999,24.19,2.340281125,32.89
2021-06-28 15:24:05.835937500,-55.0,-33.0,-5.75,82.608671875,24.395000000000003,2.3400409375,32.89
2021-06-28 15:24:05.843750000,-55.0,-33.0,-6.0,82.60968749999999,24.6,2.33980075,32.89
2021-06-28 15:24:05.851562500,-55.25,-33.0,-6.0,82.610703125,24.675,2.3395605625,32.89
2021-06-28 15:24:05.859375000,-55.5,-33.0,-6.0,82.61171875,24.75,2.3393203750000002,32.89
2021-06-28 15:24:05.867187500,-55.75,-33.0,-6.0,82.612734375,24.68,2.3390801875,32.89
2021-06-28 15:24:05.875000000,-56.0,-33.0,-6.0,82.61375,24.61,2.3388400000000003,32.89
2021-06-28 15:24:05.882812500,-55.75,-33.0,-6.0,82.61476562499999,24.38,2.3385998125,32.89
2021-06-28 15:24:05.890625000,-55.5,-33.0,-6.0,82.61578125,24.15,2.338359625,32.89
2021-06-28 15:24:05.898437500,-55.25,-33.0,-6.0,82.61679687499999,23.785,2.3381194375,32.89
2021-06-28 15:24:05.906250000,-55.0,-33.0,-6.0,82.6178125,23.42,2.33787925,32.89
2021-06-28 15:24:05.914062500,-55.0,-33.0,-6.0,82.618828125,22.965000000000003,2.3376390625,32.89
2021-06-28 15:24:05.921875000,-55.0,-33.0,-6.0,82.61984375,22.51,2.337398875,32.89
2021-06-28 15:24:05.929687500,-55.0,-33.0,-6.0,82.620859375,22.005000000000003,2.3371586875,32.89
2021-06-28 15:24:05.937500000,-55.0,-33.0,-6.0,82.62187499999999,21.5,2.3369185,32.89
2021-06-28 15:24:05.945312500,-55.0,-33.0,-6.0,82.622890625,20.95,2.3366783125,32.89
2021-06-28 15:24:05.953125000,-55.0,-33.0,-6.0,82.62390624999999,20.4,2.336438125,32.89
2021-06-28 15:24:05.960937500,-55.0,-33.0,-6.0,82.624921875,19.759999999999998,2.3361979375,32.89
2021-06-28 15:24:05.968750000,-55.0,-33.0,-6.0,82.62593749999999,19.12,2.33595775,32.89
2021-06-28 15:24:05.976562500,-55.0,-33.0,-5.75,82.626953125,18.33,2.3357175625,32.89
2021-06-28 15:24:05.984375000,-55.0,-33.0,-5.5,82.62796875,17.54,2.335477375,32.89
2021-06-28 15:24:05.992187500,-55.0,-33.0,-5.25,82.628984375,16.55,2.3352371875,32.89
2021-06-28 15:24:06.000000000,-55.0,-33.0,-5.0,82.63,15.56,2.334997,32.89
2021-06-28 15:24:06.007812500,-55.25,-33.0,-5.25,82.630703125,14.42,2.334997,32.889375
2021-06-28 15:24:06.015625000,-55.5,-33.0,-5.5,82.63140625,13.28,2.334997,32.88875
2021-06-28 15:24:06.023437500,-55.75,-33.0,-5.75,82.632109375,12.065,2.334997,32.888125
2021-06-28 15:24:06.031250000,-56.0,-33.0,-6.0,82.6328125,10.85,2.334997,32.8875
2021-06-28 15:24:06.039062500,-55.75,-33.0,-6.0,82.633515625,9.64,2.334997,32.886875
2021-06-28 15:24:06.046875000,-55.5,-33.0,-6.0,82.63421875,8.43,2.334997,32.88625
2021-06-28 15:24:06.054687500,-55.25,-33.0,-6.0,82.63492187499999,7.255,2.334997,32.885625
2021-06-28 15:24:06.062500000,-55.0,-33.0,-6.0,82.63562499999999,6.08,2.334997,32.885
2021-06-28 15:24:06.070312500,-55.0,-32.75,-6.0,82.63632812499999,4.890000000000001,2.334997,32.884375
2021-06-28 15:24:06.078125000,-55.0,-32.5,-6.0,82.63703124999999,3.7,2.334997,32.88375
2021-06-28 15:24:06.085937500,-55.0,-32.25,-6.0,82.637734375,2.425,2.334997,32.883125
2021-06-28 15:24:06.093750000,-55.0,-32.0,-6.0,82.6384375,1.15,2.334997,32.8825
2021-06-28 15:24:06.101562500,-55.0,-32.0,-6.0,82.639140625,-0.28,2.334997,32.881875
2021-06-28 15:24:06.109375000,-55.0,-32.0,-6.0,82.63984375,-1.71,2.334997,32.88125
2021-06-28 15:24:06.117187500,-55.0,-32.0,-6.0,82.640546875,-3.315,2.334997,32.880625
2021-06-28 15:24:06.125000000,-55.0,-32.0,-6.0,82.64125,-4.92,2.334997,32.879999999999995
2021-06-28 15:24:06.132812500,-55.0,-32.25,-6.0,82.641953125,-6.675,2.334997,32.879374999999996
2021-06-28 15:24:06.140625000,-55.0,-32.5,-6.0,82.64265625,-8.43,2.334997,32.87875
2021-06-28 15:24:06.148437500,-55.0,-32.75,-6.0,82.643359375,-10.3,2.334997,32.878125
2021-06-28 15:24:06.156250000,-55.0,-33.0,-6.0,82.64406249999999,-12.17,2.334997,32.8775
2021-06-28 15:24:06.164062500,-55.0,-33.0,-6.0,82.64476562499999,-14.145,2.334997,32.876875
2021-06-28 15:24:06.171875000,-55.0,-33.0,-6.0,82.64546874999999,-16.12,2.334997,32.87625
2021-06-28 15:24:06.179687500,-55.0,-33.0,-6.0,82.646171875,-18.165,2.334997,32.875625
2021-06-28 15:24:06.187500000,-55.0,-33.0,-6.0,82.646875,-20.21,2.334997,32.875
2021-06-28 15:24:06.195312500,-55.0,-33.0,-5.75,82.647578125,-22.285,2.334997,32.874375
2021-06-28 15:24:06.203125000,-55.0,-33.0,-5.5,82.64828125,-24.36,2.334997,32.87375
2021-06-28 15:24:06.210937500,-55.0,-33.0,-5.25,82.648984375,-26.32,2.334997,32.873124999999995
2021-06-28 15:24:06.218750000,-55.0,-33.0,-5.0,82.6496875,-28.28,2.334997,32.872499999999995
2021-06-28 15:24:06.226562500,-55.0,-33.0,-5.25,82.650390625,-29.895000000000003,2.334997,32.871874999999996
2021-06-28 15:24:06.234375000,-55.0,-33.0,-5.5,82.65109375,-31.51,2.334997,32.871249999999996
2021-06-28 15:24:06.242187500,-55.0,-33.0,-5.75,82.651796875,-32.480000000000004,2.334997,32.870625
2021-06-28 15:24:06.250000000,-55.0,-33.0,-6.0,82.6525,-33.45,2.334997,32.87
2021-06-28 15:24:06.257812500,-55.0,-32.75,-6.0,82.65320312499999,-33.505,2.33475678125,32.87
2021-06-28 15:24:06.265625000,-55.0,-32.5,-6.0,82.65390624999999,-33.56,2.3345165625,32.87
2021-06-28 15:24:06.273437500,-55.0,-32.25,-6.0,82.65460937499999,-32.575,2.33427634375,32.87
2021-06-28 15:24:06.281250000,-55.0,-32.0,-6.0,82.6553125,-31.59,2.334036125,32.87
2021-06-28 15:24:06.289062500,-55.0,-32.0,-6.0,82.656015625,-29.615000000000002,2.33379590625,32.87
2021-06-28 15:24:06.296875000,-55.0,-32.0,-6.0,82.65671875,-27.64,2.3335556875,32.87
2021-06-28 15:24:06.304687500,-55.0,-32.0,-6.0,82.657421875,-24.91,2.33331546875,32.87
2021-06-28 15:24:06.312500000,-55.0,-32.0,-6.0,82.658125,-22.18,2.3330752500000003,32.87
2021-06-28 15:24:06.320312500,-55.0,-32.25,-6.0,82.658828125,-19.045,2.33283503125,32.87
2021-06-28 15:24:06.328125000,-55.0,-32.5,-6.0,82.65953125,-15.91,2.3325948125,32.87
2021-06-28 15:24:06.335937500,-55.0,-32.75,-6.0,82.660234375,-12.690000000000001,2.33235459375,32.87
2021-06-28 15:24:06.343750000,-55.0,-33.0,-6.0,82.6609375,-9.47,2.332114375,32.87
2021-06-28 15:24:06.351562500,-55.0,-33.0,-5.75,82.66164062499999,-6.425000000000001,2.33187415625,32.87
2021-06-28 15:24:06.359375000,-55.0,-33.0,-5.5,82.66234374999999,-3.38,2.3316339375,32.87
2021-06-28 15:24:06.367187500,-55.0,-33.0,-5.25,82.66304687499999,-0.6099999999999999,2.3313937187500002,32.87
2021-06-28 15:24:06.375000000,-55.0,-33.0,-5.0,82.66375,2.16,2.3311535,32.87
2021-06-28 15:24:06.382812500,-55.25,-33.0,-5.0,82.664453125,4.645,2.33091328125,32.87
2021-06-28 15:24:06.390625000,-55.5,-33.0,-5.0,82.66515625,7.13,2.3306730625000003,32.87
2021-06-28 15:24:06.398437500,-55.75,-33.0,-5.0,82.665859375,9.355,2.33043284375,32.87
2021-06-28 15:24:06.406250000,-56.0,-33.0,-5.0,82.6665625,11.58,2.330192625,32.87
2021-06-28 15:24:06.414062500,-55.75,-33.0,-5.25,82.667265625,13.555,2.3299524062500003,32.87
2021-06-28 15:24:06.421875000,-55.5,-33.0,-5.5,82.66796875,15.53,2.3297121875,32.87
2021-06-28 15:24:06.429687500,-55.25,-33.0,-5.75,82.668671875,17.235,2.32947196875,32.87
2021-06-28 15:24:06.437500000,-55.0,-33.0,-6.0,82.669375,18.94,2.32923175,32.87
2021-06-28 15:24:06.445312500,-55.0,-33.0,-6.0,82.670078125,20.34,2.3289915312500002,32.87
2021-06-28 15:24:06.453125000,-55.0,-33.0,-6.0,82.67078124999999,21.74,2.3287513125,32.87
2021-06-28 15:24:06.460937500,-55.0,-33.0,-6.0,82.67148437499999,22.81,2.32851109375,32.87
2021-06-28 15:24:06.468750000,-55.0,-33.0,-6.0,82.67218749999999,23.88,2.3282708750000003,32.87
2021-06-28 15:24:06.476562500,-55.0,-33.0,-6.0,82.672890625,24.66,2.32803065625,32.87
2021-06-28 15:24:06.484375000,-55.0,-33.0,-6.0,82.67359375,25.44,2.3277904375,32.87
2021-06-28 15:24:06.492187500,-55.0,-33.0,-6.0,82.674296875,25.955,2.3275502187500003,32.87
2021-06-28 15:24:06.500000000,-55.0,-33.0,-6.0,82.675,26.47,2.32731,32.87
2021-06-28 15:24:06.507812500,-55.25,-32.75,-6.0,82.675703125,26.79,2.32726996875,32.87
2021-06-28 15:24:06.515625000,-55.5,-32.5,-6.0,82.67640625,27.11,2.3272299375000003,32.87
2021-06-28 15:24:06.523437500,-55.75,-32.25,-6.0,82.677109375,27.25,2.32718990625,32.87
2021-06-28 15:24:06.531250000,-56.0,-32.0,-6.0,82.6778125,27.39,2.3271498750000004,32.87
2021-06-28 15:24:06.539062500,-55.75,-32.25,-6.0,82.678515625,27.375,2.32710984375,32.87
2021-06-28 15:24:06.546875000,-55.5,-32.5,-6.0,82.67921875,27.36,2.3270698125,32.87
