TimeStamp,empatica.acc.x,empatica.acc.y,empatica.acc.z,empatica.hr,empatica.bvp,empatica.eda,empatica.temp
2021-07-06 10:34:21.304687500,-46.0,4.0,45.0,94.492578125,-18.61,1.893259125,32.37
2021-07-06 10:34:21.312500000,-46.0,4.0,45.0,94.491875,-20.99,1.893139,32.37
2021-07-06 10:34:21.320312500,-46.0,4.0,45.0,94.491171875,-23.82,1.8930188749999999,32.37
2021-07-06 10:34:21.328125000,-46.0,4.0,45.0,94.49046875,-26.65,1.8928987499999999,32.37
2021-07-06 10:34:21.335937500,-46.0,4.0,45.0,94.489765625,-29.52,1.8927786249999998,32.37
2021-07-06 10:34:21.343750000,-46.0,4.0,45.0,94.4890625,-32.39,1.8926585,32.37
2021-07-06 10:34:21.351562500,-46.0,4.0,45.0,94.488359375,-34.64,1.892538375,32.37
2021-07-06 10:34:21.359375000,-46.0,4.0,45.0,94.48765625,-36.89,1.89241825,32.37
2021-07-06 10:34:21.367187500,-46.0,4.0,45.0,94.486953125,-37.855000000000004,1.892298125,32.37
2021-07-06 10:34:21.375000000,-46.0,4.0,45.0,94.48625,-38.82,1.892178,32.37
2021-07-06 10:34:21.382812500,-46.0,4.0,45.0,94.485546875,-38.004999999999995,1.892057875,32.37
2021-07-06 10:34:21.390625000,-46.0,4.0,45.0,94.48484375,-37.19,1.8919377499999999,32.37
2021-07-06 10:34:21.398437500,-46.0,4.0,45.0,94.484140625,-34.5,1.8918176249999998,32.37
2021-07-06 10:34:21.406250000,-46.0,4.0,45.0,94.4834375,-31.81,1.8916974999999998,32.37
2021-07-06 10:34:21.414062500,-46.0,4.0,45.0,94.482734375,-27.549999999999997,1.891577375,32.37
2021-07-06 10:34:21.421875000,-46.0,4.0,45.0,94.48203125,-23.29,1.89145725,32.37
2021-07-06 10:34:21.429687500,-46.0,4.0,45.0,94.481328125,-18.09,1.891337125,32.37
2021-07-06 10:34:21.437500000,-46.0,4.0,45.0,94.480625,-12.89,1.891217,32.37
2021-07-06 10:34:21.445312500,-46.0,4.0,45.0,94.479921875,-7.48,1.891096875,32.37
2021-07-06 10:34:21.453125000,-46.0,4.0,45.0,94.47921875,-2.07,1.8909767499999999,32.37
2021-07-06 10:34:21.460937500,-46.0,4.0,45.0,94.478515625,2.9099999999999997,1.8908566249999998,32.37
2021-07-06 10:34:21.468750000,-46.0,4.0,45.0,94.4778125,7.89,1.8907365,32.37
2021-07-06 10:34:21.476562500,-46.0,4.0,45.0,94.477109375,12.0,1.890616375,32.37
2021-07-06 10:34:21.484375000,-46.0,4.0,45.0,94.47640625,16.11,1.89049625,32.37
2021-07-06 10:34:21.492187500,-46.0,4.0,45.0,94.475703125,19.15,1.890376125,32.37
2021-07-06 10:34:21.500000000,-46.0,4.0,45.0,94.475,22.19,1.890256,32.37
2021-07-06 10:34:21.507812500,-46.0,4.0,45.0,94.47429687500001,24.14,1.890256,32.37
2021-07-06 10:34:21.515625000,-46.0,4.0,45.0,94.47359375,26.09,1.890256,32.37
2021-07-06 10:34:21.523437500,-46.0,4.0,45.0,94.472890625,27.04,1.890256,32.37
2021-07-06 10:34:21.531250000,-46.0,4.0,45.0,94.4721875,27.99,1.890256,32.37
2021-07-06 10:34:21.539062500,-46.0,4.0,45.0,94.471484375,28.09,1.890256,32.37
2021-07-06 10:34:21.546875000,-46.0,4.0,45.0,94.47078125,28.19,1.890256,32.37
2021-07-06 10:34:21.554687500,-46.0,4.0,45.0,94.470078125,27.630000000000003,1.890256,32.37
2021-07-06 10:34:21.562500000,-46.0,4.0,45.0,94.469375,27.07,1.890256,32.37
2021-07-06 10:34:21.570312500,-46.0,4.0,45.0,94.468671875,26.055,1.890256,32.37
2021-07-06 10:34:21.578125000,-46.0,4.0,45.0,94.46796875,25.04,1.890256,32.37
2021-07-06 10:34:21.585937500,-46.0,4.0,45.0,94.467265625,23.785,1.890256,32.37
2021-07-06 10:34:21.593750000,-46.0,4.0,45.0,94.46656250000001,22.53,1.890256,32.37
2021-07-06 10:34:21.601562500,-46.0,4.0,45.0,94.46585937500001,21.240000000000002,1.890256,32.37
2021-07-06 10:34:21.609375000,-46.0,4.0,45.0,94.46515625,19.95,1.890256,32.37
2021-07-06 10:34:21.617187500,-46.0,4.0,45.0,94.464453125,18.805,1.890256,32.37
2021-07-06 10:34:21.625000000,-46.0,4.0,45.0,94.46375,17.66,1.890256,32.37
2021-07-06 10:34:21.632812500,-46.0,4.0,45.0,94.463046875,16.785,1.890256,32.37
2021-07-06 10:34:21.640625000,-46.0,4.0,45.0,94.46234375,15.91,1.890256,32.37
2021-07-06 10:34:21.648437500,-46.0,4.0,45.0,94.461640625,15.365,1.890256,32.37
2021-07-06 10:34:21.656250000,-46.0,4.0,45.0,94.4609375,14.82,1.890256,32.37
2021-07-06 10:34:21.664062500,-46.0,4.0,45.0,94.460234375,14.575,1.890256,32.37
2021-07-06 10:34:21.671875000,-46.0,4.0,45.0,94.45953125,14.33,1.890256,32.37
2021-07-06 10:34:21.679687500,-46.0,4.0,45.0,94.458828125,14.309999999999999,1.890256,32.37
2021-07-06 10:34:21.687500000,-46.0,4.0,45.0,94.45812500000001,14.29,1.890256,32.37
2021-07-06 10:34:21.695312500,-46.0,4.0,45.0,94.45742187500001,14.36,1.890256,32.37
2021-07-06 10:34:21.703125000,-46.0,4.0,45.0,94.45671875000001,14.43,1.890256,32.37
2021-07-06 10:34:21.710937500,-46.0,4.0,45.0,94.456015625,14.434999999999999,1.890256,32.37
2021-07-06 10:34:21.718750000,-46.0,4.0,45.0,94.4553125,14.44,1.890256,32.37
2021-07-06 10:34:21.726562500,-46.0,4.0,45.0,94.454609375,14.25,1.890256,32.37
2021-07-06 10:34:21.734375000,-46.0,4.0,45.0,94.45390625,14.06,1.890256,32.37
2021-07-06 10:34:21.742187500,-46.0,4.0,45.0,94.453203125,13.575,1.890256,32.37
2021-07-06 10:34:21.750000000,-46.0,4.0,45.0,94.4525,13.09,1.890256,32.37
2021-07-06 10:34:21.757812500,-46.25,4.0,45.0,94.451796875,12.254999999999999,1.8901359062499998,32.37
2021-07-06 10:34:21.765625000,-46.5,4.0,45.0,94.45109375,11.42,1.8900158125,32.37
2021-07-06 10:34:21.773437500,-46.75,4.0,45.0,94.45039062500001,10.254999999999999,1.8898957187499998,32.37
2021-07-06 10:34:21.781250000,-47.0,4.0,45.0,94.44968750000001,9.09,1.889775625,32.37
2021-07-06 10:34:21.789062500,-46.75,4.0,45.0,94.44898437500001,7.640000000000001,1.8896555312499999,32.37
2021-07-06 10:34:21.796875000,-46.5,4.0,45.0,94.44828125000001,6.19,1.8895354375,32.37
2021-07-06 10:34:21.804687500,-46.25,4.0,45.0,94.447578125,4.545,1.8894153437499999,32.37
2021-07-06 10:34:21.812500000,-46.0,4.0,45.0,94.446875,2.9,1.88929525,32.37
2021-07-06 10:34:21.820312500,-46.0,4.0,45.0,94.446171875,1.155,1.8891751562499999,32.37
2021-07-06 10:34:21.828125000,-46.0,4.0,45.0,94.44546875,-0.59,1.8890550625,32.37
2021-07-06 10:34:21.835937500,-46.0,4.0,45.0,94.444765625,-2.36,1.8889349687499999,32.37
2021-07-06 10:34:21.843750000,-46.0,4.0,45.0,94.4440625,-4.13,1.888814875,32.37
2021-07-06 10:34:21.851562500,-46.0,4.0,45.0,94.443359375,-5.87,1.88869478125,32.37
2021-07-06 10:34:21.859375000,-46.0,4.0,45.0,94.44265625,-7.61,1.8885746875,32.37
2021-07-06 10:34:21.867187500,-46.0,4.0,45.0,94.44195312500001,-9.305,1.88845459375,32.37
2021-07-06 10:34:21.875000000,-46.0,4.0,45.0,94.44125000000001,-11.0,1.8883345,32.37
2021-07-06 10:34:21.882812500,-46.0,4.0,45.0,94.44054687500001,-12.675,1.88821440625,32.37
2021-07-06 10:34:21.890625000,-46.0,4.0,45.0,94.43984375000001,-14.35,1.8880943124999998,32.37
2021-07-06 10:34:21.898437500,-46.0,4.0,45.0,94.43914062500001,-16.055,1.88797421875,32.37
2021-07-06 10:34:21.906250000,-46.0,4.0,45.0,94.4384375,-17.76,1.8878541249999998,32.37
2021-07-06 10:34:21.914062500,-46.0,4.0,45.0,94.437734375,-19.615000000000002,1.88773403125,32.37
2021-07-06 10:34:21.921875000,-46.0,4.0,45.0,94.43703125,-21.47,1.8876139374999998,32.37
2021-07-06 10:34:21.929687500,-46.0,4.0,45.0,94.436328125,-23.595,1.88749384375,32.37
2021-07-06 10:34:21.937500000,-46.0,4.0,45.0,94.435625,-25.72,1.8873737499999999,32.37
2021-07-06 10:34:21.945312500,-46.0,4.0,45.0,94.434921875,-28.174999999999997,1.88725365625,32.37
2021-07-06 10:34:21.953125000,-46.0,4.0,45.0,94.43421875,-30.63,1.8871335624999999,32.37
2021-07-06 10:34:21.960937500,-46.0,4.0,45.0,94.43351562500001,-33.339999999999996,1.88701346875,32.37
2021-07-06 10:34:21.968750000,-46.0,4.0,45.0,94.43281250000001,-36.05,1.8868933749999999,32.37
2021-07-06 10:34:21.976562500,-46.0,4.0,45.0,94.43210937500001,-38.709999999999994,1.88677328125,32.37
2021-07-06 10:34:21.984375000,-46.0,4.0,45.0,94.43140625000001,-41.37,1.8866531874999999,32.37
2021-07-06 10:34:21.992187500,-46.0,4.0,45.0,94.43070312500001,-43.459999999999994,1.88653309375,32.37
2021-07-06 10:34:22.000000000,-46.0,4.0,45.0,94.43,-45.55,1.886413,32.37
2021-07-06 10:34:22.007812500,-46.0,4.0,45.0,94.42960937500001,-46.455,1.88653309375,32.370625
2021-07-06 10:34:22.015625000,-46.0,4.0,45.0,94.42921875,-47.36,1.8866531874999999,32.371249999999996
2021-07-06 10:34:22.023437500,-46.0,4.0,45.0,94.42882812500001,-46.585,1.88677328125,32.371874999999996
2021-07-06 10:34:22.031250000,-46.0,4.0,45.0,94.4284375,-45.81,1.8868933749999999,32.372499999999995
2021-07-06 10:34:22.039062500,-46.0,4.0,45.0,94.428046875,-43.165000000000006,1.88701346875,32.373124999999995
2021-07-06 10:34:22.046875000,-46.0,4.0,45.0,94.42765625000001,-40.52,1.8871335624999999,32.37375
2021-07-06 10:34:22.054687500,-46.0,4.0,45.0,94.427265625,-36.225,1.88725365625,32.374375
2021-07-06 10:34:22.062500000,-46.0,4.0,45.0,94.42687500000001,-31.93,1.8873737499999999,32.375
2021-07-06 10:34:22.070312500,-46.0,4.0,45.0,94.426484375,-26.560000000000002,1.88749384375,32.375625
2021-07-06 10:34:22.078125000,-46.0,4.0,45.0,94.42609375,-21.19,1.8876139374999998,32.37625
2021-07-06 10:34:22.085937500,-46.0,4.0,45.0,94.42570312500001,-15.515,1.88773403125,32.376875
2021-07-06 10:34:22.093750000,-46.0,4.0,45.0,94.4253125,-9.84,1.8878541249999998,32.3775
2021-07-06 10:34:22.101562500,-46.0,4.0,45.0,94.42492187500001,-4.58,1.88797421875,32.378125
2021-07-06 10:34:22.109375000,-46.0,4.0,45.0,94.42453125,0.68,1.8880943124999998,32.37875
2021-07-06 10:34:22.117187500,-46.0,4.0,45.0,94.424140625,5.035,1.88821440625,32.379374999999996
2021-07-06 10:34:22.125000000,-46.0,4.0,45.0,94.42375000000001,9.39,1.8883345,32.379999999999995
2021-07-06 10:34:22.132812500,-46.0,4.0,45.0,94.423359375,12.66,1.88845459375,32.380625
2021-07-06 10:34:22.140625000,-46.0,4.0,45.0,94.42296875000001,15.93,1.8885746875,32.38125
2021-07-06 10:34:22.148437500,-46.0,4.0,45.0,94.422578125,18.17,1.88869478125,32.381875
2021-07-06 10:34:22.156250000,-46.0,4.0,45.0,94.4221875,20.41,1.888814875,32.3825
2021-07-06 10:34:22.164062500,-46.0,4.0,45.0,94.421796875,21.79,1.8889349687499999,32.383125
2021-07-06 10:34:22.171875000,-46.0,4.0,45.0,94.42140625,23.17,1.8890550625,32.38375
2021-07-06 10:34:22.179687500,-46.0,4.0,45.0,94.42101562500001,23.865000000000002,1.8891751562499999,32.384375
2021-07-06 10:34:22.187500000,-46.0,4.0,45.0,94.420625,24.56,1.88929525,32.385
2021-07-06 10:34:22.195312500,-46.0,4.0,45.0,94.420234375,24.674999999999997,1.8894153437499999,32.385625
2021-07-06 10:34:22.203125000,-46.0,4.0,45.0,94.41984375,24.79,1.8895354375,32.38625
2021-07-06 10:34:22.210937500,-46.0,4.0,45.0,94.419453125,24.41,1.8896555312499999,32.386875
2021-07-06 10:34:22.218750000,-46.0,4.0,45.0,94.41906250000001,24.03,1.889775625,32.3875
2021-07-06 10:34:22.226562500,-46.0,4.0,45.0,94.418671875,23.28,1.8898957187499998,32.388125
2021-07-06 10:34:22.234375000,-46.0,4.0,45.0,94.41828125,22.53,1.8900158125,32.38875
2021-07-06 10:34:22.242187500,-46.0,4.0,45.0,94.417890625,21.595,1.8901359062499998,32.389375
2021-07-06 10:34:22.250000000,-46.0,4.0,45.0,94.4175,20.66,1.890256,32.39
2021-07-06 10:34:22.257812500,-46.0,4.0,45.0,94.41710937500001,19.77,1.8900958749999999,32.39
2021-07-06 10:34:22.265625000,-46.0,4.0,45.0,94.41671875,18.88,1.88993575,32.39
2021-07-06 10:34:22.273437500,-46.0,4.0,45.0,94.416328125,18.240000000000002,1.889775625,32.39
2021-07-06 10:34:22.281250000,-46.0,4.0,45.0,94.4159375,17.6,1.8896155,32.39
2021-07-06 10:34:22.289062500,-46.0,4.0,45.0,94.415546875,17.29,1.889455375,32.39
2021-07-06 10:34:22.296875000,-46.0,4.0,45.0,94.41515625000001,16.98,1.88929525,32.39
2021-07-06 10:34:22.304687500,-46.0,4.0,45.0,94.414765625,16.945,1.889135125,32.39
2021-07-06 10:34:22.312500000,-46.0,4.0,45.0,94.414375,16.91,1.8889749999999998,32.39
2021-07-06 10:34:22.320312500,-46.25,4.0,45.0,94.413984375,16.990000000000002,1.888814875,32.39
2021-07-06 10:34:22.328125000,-46.5,4.0,45.0,94.41359375,17.07,1.88865475,32.39
2021-07-06 10:34:22.335937500,-46.75,4.0,45.0,94.41320312500001,17.08,1.8884946249999999,32.39
2021-07-06 10:34:22.343750000,-47.0,4.0,45.0,94.4128125,17.09,1.8883345,32.39
2021-07-06 10:34:22.351562500,-46.75,4.0,45.0,94.412421875,16.93,1.888174375,32.39
2021-07-06 10:34:22.359375000,-46.5,4.0,45.0,94.41203125,16.77,1.88801425,32.39
2021-07-06 10:34:22.367187500,-46.25,4.0,45.0,94.411640625,16.435000000000002,1.887854125,32.39
2021-07-06 10:34:22.375000000,-46.0,4.0,45.0,94.41125,16.1,1.887694,32.39
2021-07-06 10:34:22.382812500,-46.25,4.0,45.0,94.410859375,15.635000000000002,1.887533875,32.39
2021-07-06 10:34:22.390625000,-46.5,4.0,45.0,94.41046875,15.17,1.88737375,32.39
2021-07-06 10:34:22.398437500,-46.75,4.0,45.0,94.410078125,14.6,1.887213625,32.39
2021-07-06 10:34:22.406250000,-47.0,4.0,45.0,94.4096875,14.03,1.8870535,32.39
2021-07-06 10:34:22.414062500,-46.75,4.0,45.0,94.409296875,13.355,1.886893375,32.39
2021-07-06 10:34:22.421875000,-46.5,4.0,45.0,94.40890625,12.68,1.88673325,32.39
2021-07-06 10:34:22.429687500,-46.25,4.0,45.0,94.408515625,11.844999999999999,1.886573125,32.39
2021-07-06 10:34:22.437500000,-46.0,4.0,45.0,94.408125,11.01,1.8864130000000001,32.39
2021-07-06 10:34:22.445312500,-46.0,4.0,45.0,94.407734375,9.969999999999999,1.886252875,32.39
2021-07-06 10:34:22.453125000,-46.0,4.0,45.0,94.40734375,8.93,1.88609275,32.39
2021-07-06 10:34:22.460937500,-46.0,4.0,45.0,94.406953125,7.6850000000000005,1.885932625,32.39
2021-07-06 10:34:22.468750000,-46.0,4.0,45.0,94.4065625,6.44,1.8857725,32.39
2021-07-06 10:34:22.476562500,-46.0,4.0,45.0,94.406171875,5.04,1.885612375,32.39
2021-07-06 10:34:22.484375000,-46.0,4.0,45.0,94.40578125,3.64,1.88545225,32.39
2021-07-06 10:34:22.492187500,-46.0,4.0,45.0,94.405390625,2.165,1.885292125,32.39
2021-07-06 10:34:22.500000000,-46.0,4.0,45.0,94.405,0.69,1.885132,32.39
2021-07-06 10:34:22.507812500,-46.0,4.0,45.0,94.404609375,-0.79,1.885132,32.39
2021-07-06 10:34:22.515625000,-46.0,4.0,45.0,94.40421875,-2.27,1.885132,32.39
2021-07-06 10:34:22.523437500,-46.0,4.0,45.0,94.403828125,-3.7350000000000003,1.885132,32.39
2021-07-06 10:34:22.531250000,-46.0,4.0,45.0,94.4034375,-5.2,1.885132,32.39
2021-07-06 10:34:22.539062500,-46.25,4.0,45.0,94.403046875,-6.6899999999999995,1.885132,32.39
2021-07-06 10:34:22.546875000,-46.5,4.0,45.0,94.40265625,-8.18,1.885132,32.39
2021-07-06 10:34:22.554687500,-46.75,4.0,45.0,94.402265625,-9.815,1.885132,32.39
2021-07-06 10:34:22.562500000,-47.0,4.0,45.0,94.401875,-11.45,1.885132,32.39
2021-07-06 10:34:22.570312500,-46.75,4.0,45.0,94.401484375,-13.37,1.885132,32.39
2021-07-06 10:34:22.578125000,-46.5,4.0,45.0,94.40109375,-15.29,1.885132,32.39
2021-07-06 10:34:22.585937500,-46.25,4.0,45.0,94.400703125,-17.625,1.885132,32.39
2021-07-06 10:34:22.593750000,-46.0,4.0,45.0,94.4003125,-19.96,1.885132,32.39
2021-07-06 10:34:22.601562500,-46.0,4.0,45.0,94.399921875,-22.69,1.885132,32.39
2021-07-06 10:34:22.609375000,-46.0,4.0,45.0,94.39953125,-25.42,1.885132,32.39
2021-07-06 10:34:22.617187500,-46.0,4.0,45.0,94.399140625,-28.335,1.885132,32.39
2021-07-06 10:34:22.625000000,-46.0,4.0,45.0,94.39875,-31.25,1.885132,32.39
2021-07-06 10:34:22.632812500,-46.0,4.0,45.0,94.398359375,-33.9,1.885132,32.39
2021-07-06 10:34:22.640625000,-46.0,4.0,45.0,94.39796875,-36.55,1.885132,32.39
2021-07-06 10:34:22.648437500,-46.0,4.0,45.0,94.397578125,-38.33,1.885132,32.39
2021-07-06 10:34:22.656250000,-46.0,4.0,45.0,94.3971875,-40.11,1.885132,32.39
2021-07-06 10:34:22.664062500,-46.25,4.0,45.0,94.39679687499999,-40.45,1.885132,32.39
2021-07-06 10:34:22.671875000,-46.5,4.0,45.0,94.39640625,-40.79,1.885132,32.39
2021-07-06 10:34:22.679687500,-46.75,4.0,45.0,94.396015625,-39.370000000000005,1.885132,32.39
2021-07-06 10:34:22.687500000,-47.0,4.0,45.0,94.395625,-37.95,1.885132,32.39
2021-07-06 10:34:22.695312500,-46.75,4.0,45.0,94.395234375,-34.8,1.885132,32.39
2021-07-06 10:34:22.703125000,-46.5,4.0,45.0,94.39484374999999,-31.65,1.885132,32.39
2021-07-06 10:34:22.710937500,-46.25,4.0,45.0,94.394453125,-27.18,1.885132,32.39
2021-07-06 10:34:22.718750000,-46.0,4.0,45.0,94.3940625,-22.71,1.885132,32.39
2021-07-06 10:34:22.726562500,-46.0,4.0,45.0,94.393671875,-17.595,1.885132,32.39
2021-07-06 10:34:22.734375000,-46.0,4.0,45.0,94.39328125,-12.48,1.885132,32.39
2021-07-06 10:34:22.742187500,-46.0,4.0,45.0,94.39289062499999,-7.3950000000000005,1.885132,32.39
2021-07-06 10:34:22.750000000,-46.0,4.0,45.0,94.3925,-2.31,1.885132,32.39
2021-07-06 10:34:22.757812500,-46.0,4.0,45.0,94.392109375,2.19,1.885132,32.39
2021-07-06 10:34:22.765625000,-46.0,4.0,45.0,94.39171875,6.69,1.885132,32.39
2021-07-06 10:34:22.773437500,-46.0,4.0,45.0,94.391328125,10.290000000000001,1.885132,32.39
2021-07-06 10:34:22.781250000,-46.0,4.0,45.0,94.39093749999999,13.89,1.885132,32.39
2021-07-06 10:34:22.789062500,-46.25,4.0,45.0,94.390546875,16.509999999999998,1.885132,32.39
2021-07-06 10:34:22.796875000,-46.5,4.0,45.0,94.39015625,19.13,1.885132,32.39
2021-07-06 10:34:22.804687500,-46.75,4.0,45.0,94.389765625,20.835,1.885132,32.39
2021-07-06 10:34:22.812500000,-47.0,4.0,45.0,94.389375,22.54,1.885132,32.39
2021-07-06 10:34:22.820312500,-46.75,4.0,45.0,94.38898437499999,23.46,1.885132,32.39
2021-07-06 10:34:22.828125000,-46.5,4.0,45.0,94.38859375,24.38,1.885132,32.39
2021-07-06 10:34:22.835937500,-46.25,4.0,45.0,94.388203125,24.65,1.885132,32.39
2021-07-06 10:34:22.843750000,-46.0,4.0,45.0,94.3878125,24.92,1.885132,32.39
2021-07-06 10:34:22.851562500,-46.0,4.0,45.0,94.387421875,24.67,1.885132,32.39
2021-07-06 10:34:22.859375000,-46.0,4.0,45.0,94.38703124999999,24.42,1.885132,32.39
2021-07-06 10:34:22.867187500,-46.0,4.0,45.0,94.386640625,23.795,1.885132,32.39
2021-07-06 10:34:22.875000000,-46.0,4.0,45.0,94.38624999999999,23.17,1.885132,32.39
2021-07-06 10:34:22.882812500,-46.0,4.0,45.0,94.385859375,22.340000000000003,1.885132,32.39
2021-07-06 10:34:22.890625000,-46.0,4.0,45.0,94.38546875,21.51,1.885132,32.39
2021-07-06 10:34:22.898437500,-46.0,4.0,45.0,94.38507812499999,20.645000000000003,1.885132,32.39
2021-07-06 10:34:22.906250000,-46.0,4.0,45.0,94.3846875,19.78,1.885132,32.39
2021-07-06 10:34:22.914062500,-46.0,4.0,45.0,94.38429687499999,19.045,1.885132,32.39
2021-07-06 10:34:22.921875000,-46.0,4.0,45.0,94.38390625,18.31,1.885132,32.39
2021-07-06 10:34:22.929687500,-46.0,4.0,45.0,94.383515625,17.82,1.885132,32.39
2021-07-06 10:34:22.937500000,-46.0,4.0,45.0,94.38312499999999,17.33,1.885132,32.39
2021-07-06 10:34:22.945312500,-46.0,4.0,45.0,94.382734375,17.119999999999997,1.885132,32.39
2021-07-06 10:34:22.953125000,-46.0,4.0,45.0,94.38234374999999,16.91,1.885132,32.39
2021-07-06 10:34:22.960937500,-46.0,4.0,45.0,94.381953125,16.93,1.885132,32.39
2021-07-06 10:34:22.968750000,-46.0,4.0,45.0,94.3815625,16.95,1.885132,32.39
2021-07-06 10:34:22.976562500,-46.0,4.0,45.0,94.38117187499999,17.105,1.885132,32.39
2021-07-06 10:34:22.984375000,-46.0,4.0,45.0,94.38078125,17.26,1.885132,32.39
2021-07-06 10:34:22.992187500,-46.0,4.0,45.0,94.38039062499999,17.435000000000002,1.885132,32.39
2021-07-06 10:34:23.000000000,-46.0,4.0,45.0,94.38,17.61,1.885132,32.39
2021-07-06 10:34:23.007812500,-46.25,4.0,45.0,94.379609375,17.725,1.8852520937500001,32.39
2021-07-06 10:34:23.015625000,-46.5,4.0,45.0,94.37921874999999,17.84,1.8853721875,32.39
2021-07-06 10:34:23.023437500,-46.75,4.0,45.0,94.378828125,17.845,1.8854922812500001,32.39
2021-07-06 10:34:23.031250000,-47.0,4.0,45.0,94.37843749999999,17.85,1.885612375,32.39
2021-07-06 10:34:23.039062500,-46.75,4.0,45.0,94.378046875,17.735,1.8857324687500001,32.39
2021-07-06 10:34:23.046875000,-46.5,4.0,45.0,94.37765625,17.62,1.8858525625,32.39
2021-07-06 10:34:23.054687500,-46.25,4.0,45.0,94.37726562499999,17.36,1.88597265625,32.39
2021-07-06 10:34:23.062500000,-46.0,4.0,45.0,94.376875,17.1,1.88609275,32.39
2021-07-06 10:34:23.070312500,-46.0,4.0,45.0,94.37648437499999,16.635,1.88621284375,32.39
2021-07-06 10:34:23.078125000,-46.0,4.0,45.0,94.37609375,16.17,1.8863329375,32.39
2021-07-06 10:34:23.085937500,-46.0,4.0,45.0,94.375703125,15.375,1.88645303125,32.39
2021-07-06 10:34:23.093750000,-46.0,4.0,45.0,94.37531249999999,14.58,1.886573125,32.39
2021-07-06 10:34:23.101562500,-46.0,4.0,45.0,94.374921875,13.355,1.88669321875,32.39
2021-07-06 10:34:23.109375000,-46.0,4.0,45.0,94.37453124999999,12.13,1.8868133125,32.39
2021-07-06 10:34:23.117187500,-46.0,4.0,45.0,94.374140625,10.43,1.88693340625,32.39
2021-07-06 10:34:23.125000000,-46.0,4.0,45.0,94.37375,8.73,1.8870535,32.39
2021-07-06 10:34:23.132812500,-46.0,4.0,45.0,94.37335937499999,6.65,1.88717359375,32.39
2021-07-06 10:34:23.140625000,-46.0,4.0,45.0,94.37296875,4.57,1.8872936875000001,32.39
2021-07-06 10:34:23.148437500,-46.0,4.0,45.0,94.37257812499999,2.325,1.88741378125,32.39
2021-07-06 10:34:23.156250000,-46.0,4.0,45.0,94.3721875,0.08,1.8875338750000001,32.39
2021-07-06 10:34:23.164062500,-46.0,4.0,45.0,94.371796875,-2.075,1.88765396875,32.39
2021-07-06 10:34:23.171875000,-46.0,4.0,45.0,94.37140624999999,-4.23,1.8877740625000001,32.39
2021-07-06 10:34:23.179687500,-46.0,4.0,45.0,94.371015625,-6.07,1.88789415625,32.39
2021-07-06 10:34:23.187500000,-46.0,4.0,45.0,94.37062499999999,-7.91,1.8880142500000001,32.39
2021-07-06 10:34:23.195312500,-46.0,4.0,45.0,94.370234375,-9.370000000000001,1.88813434375,32.39
2021-07-06 10:34:23.203125000,-46.0,4.0,45.0,94.36984375,-10.83,1.8882544375,32.39
2021-07-06 10:34:23.210937500,-46.0,4.0,45.0,94.36945312499999,-11.985,1.88837453125,32.39
2021-07-06 10:34:23.218750000,-46.0,4.0,45.0,94.3690625,-13.14,1.888494625,32.39
2021-07-06 10:34:23.226562500,-46.0,4.0,45.0,94.36867187499999,-14.225000000000001,1.88861471875,32.39
2021-07-06 10:34:23.234375000,-46.0,4.0,45.0,94.36828125,-15.31,1.8887348125,32.39
2021-07-06 10:34:23.242187500,-46.0,4.0,45.0,94.367890625,-16.6,1.88885490625,32.39
2021-07-06 10:34:23.250000000,-46.0,4.0,45.0,94.36749999999999,-17.89,1.888975,32.39
2021-07-06 10:34:23.257812500,-46.0,4.0,45.0,94.367109375,-19.625,1.88865471875,32.39
2021-07-06 10:34:23.265625000,-46.0,4.0,45.0,94.36671874999999,-21.36,1.8883344375,32.39
2021-07-06 10:34:23.273437500,-46.0,4.0,45.0,94.366328125,-23.64,1.8880141562500001,32.39
2021-07-06 10:34:23.281250000,-46.0,4.0,45.0,94.3659375,-25.92,1.887693875,32.39
2021-07-06 10:34:23.289062500,-46.0,4.0,45.0,94.36554687499999,-28.625,1.88737359375,32.39
2021-07-06 10:34:23.296875000,-46.0,4.0,45.0,94.36515625,-31.33,1.8870533125,32.39
2021-07-06 10:34:23.304687500,-46.0,4.0,45.0,94.36476562499999,-34.07,1.8867330312500001,32.39
2021-07-06 10:34:23.312500000,-46.0,4.0,45.0,94.364375,-36.81,1.88641275,32.39
2021-07-06 10:34:23.320312500,-46.0,4.0,45.0,94.363984375,-39.010000000000005,1.88609246875,32.39
2021-07-06 10:34:23.328125000,-46.0,4.0,45.0,94.36359374999999,-41.21,1.8857721875,32.39
2021-07-06 10:34:23.335937500,-46.0,4.0,45.0,94.363203125,-42.215,1.88545190625,32.39
2021-07-06 10:34:23.343750000,-46.0,4.0,45.0,94.36281249999999,-43.22,1.885131625,32.39
2021-07-06 10:34:23.351562500,-46.0,4.0,45.0,94.362421875,-42.525,1.88481134375,32.39
2021-07-06 10:34:23.359375000,-46.0,4.0,45.0,94.36203125,-41.83,1.8844910625,32.39
2021-07-06 10:34:23.367187500,-46.0,4.0,45.0,94.36164062499999,-39.295,1.88417078125,32.39
2021-07-06 10:34:23.375000000,-46.0,4.0,45.0,94.36125,-36.76,1.8838504999999999,32.39
2021-07-06 10:34:23.382812500,-46.0,4.0,45.0,94.36085937499999,-32.65,1.88353021875,32.39
2021-07-06 10:34:23.390625000,-46.0,4.0,45.0,94.36046875,-28.54,1.8832099375,32.39
2021-07-06 10:34:23.398437500,-46.0,4.0,45.0,94.360078125,-23.494999999999997,1.88288965625,32.39
2021-07-06 10:34:23.406250000,-46.0,4.0,45.0,94.35968749999999,-18.45,1.8825693749999999,32.39
2021-07-06 10:34:23.414062500,-46.0,4.0,45.0,94.359296875,-13.23,1.88224909375,32.39
2021-07-06 10:34:23.421875000,-46.0,4.0,45.0,94.35890624999999,-8.01,1.8819288125,32.39
2021-07-06 10:34:23.429687500,-46.0,4.0,45.0,94.358515625,-3.2800000000000002,1.88160853125,32.39
2021-07-06 10:34:23.437500000,-46.0,4.0,45.0,94.358125,1.45,1.8812882499999999,32.39
2021-07-06 10:34:23.445312500,-46.0,4.0,45.0,94.35773437499999,5.3,1.8809679687499998,32.39
2021-07-06 10:34:23.453125000,-46.0,4.0,45.0,94.35734375,9.15,1.8806476875,32.39
2021-07-06 10:34:23.460937500,-46.0,4.0,45.0,94.35695312499999,12.0,1.88032740625,32.39
2021-07-06 10:34:23.468750000,-46.0,4.0,45.0,94.3565625,14.85,1.880007125,32.39
2021-07-06 10:34:23.476562500,-46.0,4.0,45.0,94.356171875,16.765,1.8796868437499998,32.39
2021-07-06 10:34:23.484375000,-46.0,4.0,45.0,94.35578124999999,18.68,1.8793665625,32.39
2021-07-06 10:34:23.492187500,-46.0,4.0,45.0,94.355390625,19.79,1.87904628125,32.39
2021-07-06 10:34:23.500000000,-46.0,4.0,45.0,94.35499999999999,20.9,1.878726,32.39
2021-07-06 10:34:23.507812500,-46.0,4.0,45.0,94.354609375,21.29,1.8788861562499999,32.39
2021-07-06 10:34:23.515625000,-46.0,4.0,45.0,94.35421875,21.68,1.8790463124999999,32.39
2021-07-06 10:34:23.523437500,-46.0,4.0,45.0,94.35382812499999,21.435000000000002,1.8792064687499999,32.39
2021-07-06 10:34:23.531250000,-46.0,4.0,45.0,94.3534375,21.19,1.8793666249999998,32.39
2021-07-06 10:34:23.539062500,-46.0,4.0,45.0,94.353046875,20.39,1.8795267812499998,32.39
2021-07-06 10:34:23.546875000,-46.0,4.0,45.0,94.35265625,19.59,1.8796869374999998,32.39
2021-07-06 10:34:23.554687500,-46.0,4.0,45.0,94.352265625,18.41,1.8798470937499998,32.39
2021-07-06 10:34:23.562500000,-46.0,4.0,45.0,94.35187499999999,17.23,1.8800072499999998,32.39
2021-07-06 10:34:23.570312500,-46.0,4.0,45.0,94.351484375,15.895,1.88016740625,32.39
2021-07-06 10:34:23.578125000,-46.0,4.0,45.0,94.35109375,14.56,1.8803275625,32.39
2021-07-06 10:34:23.585937500,-46.0,4.0,45.0,94.350703125,13.32,1.88048771875,32.39
2021-07-06 10:34:23.593750000,-46.0,4.0,45.0,94.3503125,12.08,1.880647875,32.39
2021-07-06 10:34:23.601562500,-46.0,4.0,45.0,94.34992187499999,11.145,1.88080803125,32.39
2021-07-06 10:34:23.609375000,-46.0,4.0,45.0,94.34953125,10.21,1.8809681875,32.39
2021-07-06 10:34:23.617187500,-46.0,4.0,45.0,94.349140625,9.705,1.88112834375,32.39
2021-07-06 10:34:23.625000000,-46.0,4.0,45.0,94.34875,9.2,1.8812885,32.39
2021-07-06 10:34:23.632812500,-46.0,4.0,45.0,94.348359375,9.155,1.88144865625,32.39
2021-07-06 10:34:23.640625000,-46.0,4.0,45.0,94.34796874999999,9.11,1.8816088125,32.39
2021-07-06 10:34:23.648437500,-46.0,4.0,45.0,94.347578125,9.43,1.8817689687499999,32.39
2021-07-06 10:34:23.656250000,-46.0,4.0,45.0,94.3471875,9.75,1.8819291249999999,32.39
2021-07-06 10:34:23.664062500,-46.0,4.0,45.0,94.346796875,10.309999999999999,1.8820892812499999,32.39
2021-07-06 10:34:23.671875000,-46.0,4.0,45.0,94.34640625,10.87,1.8822494374999998,32.39
2021-07-06 10:34:23.679687500,-46.0,4.0,45.0,94.34601562499999,11.489999999999998,1.8824095937499998,32.39
2021-07-06 10:34:23.687500000,-46.0,4.0,45.0,94.345625,12.11,1.88256975,32.39
2021-07-06 10:34:23.695312500,-46.0,4.0,45.0,94.345234375,12.64,1.88272990625,32.39
2021-07-06 10:34:23.703125000,-46.0,4.0,45.0,94.34484375,13.17,1.8828900625,32.39
2021-07-06 10:34:23.710937500,-46.0,4.0,45.0,94.344453125,13.46,1.88305021875,32.39
2021-07-06 10:34:23.718750000,-46.0,4.0,45.0,94.34406249999999,13.75,1.883210375,32.39
2021-07-06 10:34:23.726562500,-46.0,4.0,45.0,94.343671875,13.68,1.88337053125,32.39
2021-07-06 10:34:23.734375000,-46.0,4.0,45.0,94.34328125,13.61,1.8835306875,32.39
2021-07-06 10:34:23.742187500,-46.0,4.0,45.0,94.342890625,13.120000000000001,1.88369084375,32.39
2021-07-06 10:34:23.750000000,-46.0,4.0,45.0,94.3425,12.63,1.883851,32.39
2021-07-06 10:34:23.757812500,-46.0,4.0,45.0,94.34210937499999,11.7,1.88369084375,32.39
2021-07-06 10:34:23.765625000,-46.0,4.0,45.0,94.34171875,10.77,1.8835306875,32.39
2021-07-06 10:34:23.773437500,-46.0,4.0,45.0,94.341328125,9.445,1.88337053125,32.39
2021-07-06 10:34:23.781250000,-46.0,4.0,45.0,94.3409375,8.12,1.883210375,32.39
2021-07-06 10:34:23.789062500,-46.0,4.0,45.0,94.340546875,6.52,1.88305021875,32.39
2021-07-06 10:34:23.796875000,-46.0,4.0,45.0,94.34015624999999,4.92,1.8828900625,32.39
2021-07-06 10:34:23.804687500,-46.0,4.0,45.0,94.339765625,3.2,1.88272990625,32.39
2021-07-06 10:34:23.812500000,-46.0,4.0,45.0,94.339375,1.48,1.88256975,32.39
2021-07-06 10:34:23.820312500,-46.0,4.0,45.0,94.338984375,-0.20999999999999996,1.8824095937499998,32.39
2021-07-06 10:34:23.828125000,-46.0,4.0,45.0,94.33859375,-1.9,1.8822494374999998,32.39
2021-07-06 10:34:23.835937500,-46.0,4.0,45.0,94.33820312499999,-3.42,1.8820892812499999,32.39
2021-07-06 10:34:23.843750000,-46.0,4.0,45.0,94.3378125,-4.94,1.8819291249999999,32.39
2021-07-06 10:34:23.851562500,-46.0,4.0,45.0,94.337421875,-6.245,1.8817689687499999,32.39
2021-07-06 10:34:23.859375000,-46.0,4.0,45.0,94.33703125,-7.55,1.8816088125,32.39
2021-07-06 10:34:23.867187500,-46.0,4.0,45.0,94.336640625,-8.695,1.88144865625,32.39
2021-07-06 10:34:23.875000000,-46.0,4.0,45.0,94.33624999999999,-9.84,1.8812885,32.39
2021-07-06 10:34:23.882812500,-46.0,4.0,45.0,94.335859375,-10.99,1.88112834375,32.39
2021-07-06 10:34:23.890625000,-46.0,4.0,45.0,94.33546875,-12.14,1.8809681875,32.39
2021-07-06 10:34:23.898437500,-46.0,4.0,45.0,94.335078125,-13.530000000000001,1.88080803125,32.39
2021-07-06 10:34:23.906250000,-46.0,4.0,45.0,94.3346875,-14.92,1.880647875,32.39
2021-07-06 10:34:23.914062500,-46.0,4.0,45.0,94.33429687499999,-16.725,1.88048771875,32.39
2021-07-06 10:34:23.921875000,-46.0,4.0,45.0,94.33390625,-18.53,1.8803275625,32.39
2021-07-06 10:34:23.929687500,-46.0,4.0,45.0,94.333515625,-20.810000000000002,1.88016740625,32.39
2021-07-06 10:34:23.937500000,-46.0,4.0,45.0,94.333125,-23.09,1.8800072499999998,32.39
2021-07-06 10:34:23.945312500,-46.0,4.0,45.0,94.332734375,-25.645,1.8798470937499998,32.39
2021-07-06 10:34:23.953125000,-46.0,4.0,45.0,94.33234374999999,-28.2,1.8796869374999998,32.39
2021-07-06 10:34:23.960937500,-46.0,4.0,45.0,94.331953125,-30.589999999999996,1.8795267812499998,32.39
2021-07-06 10:34:23.968750000,-46.0,4.0,45.0,94.3315625,-32.98,1.8793666249999998,32.39
2021-07-06 10:34:23.976562500,-46.0,4.0,45.0,94.331171875,-34.595,1.8792064687499999,32.39
2021-07-06 10:34:23.984375000,-46.0,4.0,45.0,94.33078125,-36.21,1.8790463124999999,32.39
2021-07-06 10:34:23.992187500,-46.0,4.0,45.0,94.33039062499999,-36.45,1.8788861562499999,32.39
2021-07-06 10:34:24.000000000,-46.0,4.0,45.0,94.33,-36.69,1.878726,32.39
2021-07-06 10:34:24.007812500,-46.0,4.0,45.0,94.32953125,-35.209999999999994,1.8787660625,32.389375
2021-07-06 10:34:24.015625000,-46.0,4.0,45.0,94.32906249999999,-33.73,1.8788061249999999,32.38875
2021-07-06 10:34:24.023437500,-46.0,4.0,45.0,94.32859375,-30.57,1.8788461875,32.388125
2021-07-06 10:34:24.031250000,-46.0,4.0,45.0,94.328125,-27.41,1.8788862499999999,32.3875
2021-07-06 10:34:24.039062500,-46.0,4.0,45.0,94.32765625,-23.0,1.8789263125,32.386875
2021-07-06 10:34:24.046875000,-46.0,4.0,45.0,94.3271875,-18.59,1.8789663749999999,32.38625
2021-07-06 10:34:24.054687500,-46.0,4.0,45.0,94.32671875,-13.625,1.8790064375,32.385625
2021-07-06 10:34:24.062500000,-46.0,4.0,45.0,94.32625,-8.66,1.8790464999999998,32.385
2021-07-06 10:34:24.070312500,-46.0,4.0,45.0,94.32578124999999,-3.865,1.8790865625,32.384375
2021-07-06 10:34:24.078125000,-46.0,4.0,45.0,94.3253125,0.93,1.8791266249999998,32.38375
2021-07-06 10:34:24.085937500,-46.0,4.0,45.0,94.32484375,5.0,1.8791666875,32.383125
2021-07-06 10:34:24.093750000,-46.0,4.0,45.0,94.324375,9.07,1.8792067499999998,32.3825
2021-07-06 10:34:24.101562500,-46.0,4.0,45.0,94.32390625,12.125,1.8792468125,32.381875
2021-07-06 10:34:24.109375000,-46.0,4.0,45.0,94.3234375,15.18,1.8792868749999998,32.38125
2021-07-06 10:34:24.117187500,-46.0,4.0,45.0,94.32296875,17.189999999999998,1.8793269375,32.380625
2021-07-06 10:34:24.125000000,-46.0,4.0,45.0,94.32249999999999,19.2,1.8793669999999998,32.379999999999995
2021-07-06 10:34:24.132812500,-46.0,4.0,45.0,94.32203125,20.28,1.8794070625,32.379374999999996
2021-07-06 10:34:24.140625000,-46.0,4.0,45.0,94.3215625,21.36,1.879447125,32.37875
2021-07-06 10:34:24.148437500,-46.0,4.0,45.0,94.32109375,21.705,1.8794871874999999,32.378125
2021-07-06 10:34:24.156250000,-46.0,4.0,45.0,94.32062499999999,22.05,1.87952725,32.3775
2021-07-06 10:34:24.164062500,-46.0,4.0,45.0,94.32015625,21.810000000000002,1.8795673124999999,32.376875
2021-07-06 10:34:24.171875000,-46.0,4.0,45.0,94.3196875,21.57,1.879607375,32.37625
2021-07-06 10:34:24.179687500,-46.0,4.0,45.0,94.31921875,20.875,1.8796474374999999,32.375625
2021-07-06 10:34:24.187500000,-46.0,4.0,45.0,94.31875,20.18,1.8796875,32.375
2021-07-06 10:34:24.195312500,-46.0,4.0,45.0,94.31828125,19.18,1.8797275624999998,32.374375
2021-07-06 10:34:24.203125000,-46.0,4.0,45.0,94.3178125,18.18,1.879767625,32.37375
2021-07-06 10:34:24.210937500,-46.0,4.0,45.0,94.31734374999999,17.035,1.8798076874999998,32.373124999999995
2021-07-06 10:34:24.218750000,-46.0,4.0,45.0,94.316875,15.89,1.87984775,32.372499999999995
2021-07-06 10:34:24.226562500,-46.0,4.0,45.0,94.31640625,14.805,1.8798878124999998,32.371874999999996
2021-07-06 10:34:24.234375000,-46.0,4.0,45.0,94.3159375,13.72,1.879927875,32.371249999999996
2021-07-06 10:34:24.242187500,-46.0,4.0,45.0,94.31546875,12.86,1.8799679374999998,32.370625
2021-07-06 10:34:24.250000000,-46.0,4.0,45.0,94.315,12.0,1.880008,32.37
2021-07-06 10:34:24.257812500,-46.0,4.0,45.0,94.31453125,11.469999999999999,1.8800480312499999,32.37
2021-07-06 10:34:24.265625000,-46.0,4.0,45.0,94.31406249999999,10.94,1.8800880624999998,32.37
2021-07-06 10:34:24.273437500,-46.0,4.0,45.0,94.31359375,10.735,1.88012809375,32.37
2021-07-06 10:34:24.281250000,-46.0,4.0,45.0,94.313125,10.53,1.880168125,32.37
2021-07-06 10:34:24.289062500,-46.0,4.0,45.0,94.31265625,10.565,1.88020815625,32.37
2021-07-06 10:34:24.296875000,-46.0,4.0,45.0,94.3121875,10.6,1.8802481875,32.37
2021-07-06 10:34:24.304687500,-46.0,4.0,45.0,94.31171875,10.76,1.8802882187499999,32.37
2021-07-06 10:34:24.312500000,-46.0,4.0,45.0,94.31125,10.92,1.8803282499999998,32.37
2021-07-06 10:34:24.320312500,-46.0,4.0,45.0,94.31078124999999,11.075,1.88036828125,32.37
2021-07-06 10:34:24.328125000,-46.0,4.0,45.0,94.3103125,11.23,1.8804083125,32.37
2021-07-06 10:34:24.335937500,-46.0,4.0,45.0,94.30984375,11.295,1.88044834375,32.37
2021-07-06 10:34:24.343750000,-46.0,4.0,45.0,94.309375,11.36,1.8804883749999999,32.37
2021-07-06 10:34:24.351562500,-46.0,4.0,45.0,94.30890624999999,11.29,1.8805284062499998,32.37
2021-07-06 10:34:24.359375000,-46.0,4.0,45.0,94.3084375,11.22,1.8805684375,32.37
2021-07-06 10:34:24.367187500,-46.0,4.0,45.0,94.30796875,10.965,1.88060846875,32.37
2021-07-06 10:34:24.375000000,-46.0,4.0,45.0,94.3075,10.71,1.8806485,32.37
2021-07-06 10:34:24.382812500,-46.0,4.0,45.0,94.30703125,10.22,1.88068853125,32.37
2021-07-06 10:34:24.390625000,-46.0,4.0,45.0,94.3065625,9.73,1.8807285624999999,32.37
2021-07-06 10:34:24.398437500,-46.0,4.0,45.0,94.30609375,8.945,1.88076859375,32.37
2021-07-06 10:34:24.406250000,-46.0,4.0,45.0,94.30562499999999,8.16,1.880808625,32.37
2021-07-06 10:34:24.414062500,-46.0,4.0,45.0,94.30515625,7.03,1.88084865625,32.37
2021-07-06 10:34:24.421875000,-46.0,4.0,45.0,94.3046875,5.9,1.8808886875,32.37
2021-07-06 10:34:24.429687500,-46.0,4.0,45.0,94.30421875,4.43,1.88092871875,32.37
2021-07-06 10:34:24.437500000,-46.0,4.0,45.0,94.30375,2.96,1.88096875,32.37
2021-07-06 10:34:24.445312500,-46.0,4.0,45.0,94.30328125,1.205,1.88100878125,32.37
2021-07-06 10:34:24.453125000,-46.0,4.0,45.0,94.3028125,-0.55,1.8810488125,32.37
2021-07-06 10:34:24.460937500,-46.0,4.0,45.0,94.30234374999999,-2.49,1.88108884375,32.37
2021-07-06 10:34:24.468750000,-46.0,4.0,45.0,94.301875,-4.43,1.881128875,32.37
2021-07-06 10:34:24.476562500,-46.0,4.0,45.0,94.30140625,-6.465,1.8811689062499999,32.37
2021-07-06 10:34:24.484375000,-46.0,4.0,45.0,94.3009375,-8.5,1.8812089375,32.37
2021-07-06 10:34:24.492187500,-46.0,4.0,45.0,94.30046875,-10.559999999999999,1.88124896875,32.37
2021-07-06 10:34:24.500000000,-46.0,4.0,45.0,94.3,-12.62,1.881289,32.37
2021-07-06 10:34:24.507812500,-46.0,4.0,45.0,94.29953125,-14.690000000000001,1.88096871875,32.37
2021-07-06 10:34:24.515625000,-46.0,4.0,45.0,94.29906249999999,-16.76,1.8806484375,32.37
2021-07-06 10:34:24.523437500,-46.0,4.0,45.0,94.29859375,-18.885,1.88032815625,32.37
2021-07-06 10:34:24.531250000,-46.0,4.0,45.0,94.298125,-21.01,1.880007875,32.37
2021-07-06 10:34:24.539062500,-46.0,4.0,45.0,94.29765625,-23.26,1.87968759375,32.37
2021-07-06 10:34:24.546875000,-46.0,4.0,45.0,94.29718749999999,-25.51,1.8793673124999999,32.37
2021-07-06 10:34:24.554687500,-46.0,4.0,45.0,94.29671875,-27.93,1.87904703125,32.37
2021-07-06 10:34:24.562500000,-46.0,4.0,45.0,94.29625,-30.35,1.87872675,32.37
2021-07-06 10:34:24.570312500,-46.0,4.0,45.0,94.29578124999999,-32.900000000000006,1.87840646875,32.37
2021-07-06 10:34:24.578125000,-46.0,4.0,45.0,94.2953125,-35.45,1.8780861875000001,32.37
2021-07-06 10:34:24.585937500,-46.0,4.0,45.0,94.29484375,-37.93,1.87776590625,32.37
2021-07-06 10:34:24.593750000,-46.0,4.0,45.0,94.294375,-40.41,1.877445625,32.37
2021-07-06 10:34:24.601562500,-46.0,4.0,45.0,94.29390624999999,-42.415,1.87712534375,32.37
2021-07-06 10:34:24.609375000,-46.0,4.0,45.0,94.2934375,-44.42,1.8768050625,32.37
2021-07-06 10:34:24.617187500,-46.0,4.0,45.0,94.29296875,-45.435,1.87648478125,32.37
2021-07-06 10:34:24.625000000,-46.0,4.0,45.0,94.29249999999999,-46.45,1.8761645,32.37
2021-07-06 10:34:24.632812500,-46.0,4.0,45.0,94.29203125,-45.975,1.87584421875,32.37
2021-07-06 10:34:24.640625000,-46.0,4.0,45.0,94.2915625,-45.5,1.8755239375000001,32.37
2021-07-06 10:34:24.648437500,-46.0,4.0,45.0,94.29109375,-43.260000000000005,1.87520365625,32.37
2021-07-06 10:34:24.656250000,-46.0,4.0,45.0,94.29062499999999,-41.02,1.874883375,32.37
2021-07-06 10:34:24.664062500,-46.25,4.0,45.0,94.29015625,-37.095,1.87456309375,32.37
2021-07-06 10:34:24.671875000,-46.5,4.0,45.0,94.2896875,-33.17,1.8742428125,32.37
2021-07-06 10:34:24.679687500,-46.75,4.0,45.0,94.28921875,-28.03,1.87392253125,32.37
2021-07-06 10:34:24.687500000,-47.0,4.0,45.0,94.28875,-22.89,1.87360225,32.37
2021-07-06 10:34:24.695312500,-46.75,4.0,45.0,94.28828125,-17.27,1.87328196875,32.37
2021-07-06 10:34:24.703125000,-46.5,4.0,45.0,94.2878125,-11.65,1.8729616875000001,32.37
2021-07-06 10:34:24.710937500,-46.25,4.0,45.0,94.28734374999999,-6.315,1.87264140625,32.37
2021-07-06 10:34:24.718750000,-46.0,4.0,45.0,94.286875,-0.98,1.872321125,32.37
2021-07-06 10:34:24.726562500,-46.0,4.0,45.0,94.28640625,3.48,1.87200084375,32.37
2021-07-06 10:34:24.734375000,-46.0,4.0,45.0,94.2859375,7.94,1.8716805625,32.37
2021-07-06 10:34:24.742187500,-46.0,4.0,45.0,94.28546874999999,11.22,1.87136028125,32.37
2021-07-06 10:34:24.750000000,-46.0,4.0,45.0,94.285,14.5,1.87104,32.37
2021-07-06 10:34:24.757812500,-46.0,4.0,45.0,94.28453125,16.605,1.87108003125,32.37
2021-07-06 10:34:24.765625000,-46.0,4.0,45.0,94.28406249999999,18.71,1.8711200625,32.37
2021-07-06 10:34:24.773437500,-46.0,4.0,45.0,94.28359375,19.8,1.87116009375,32.37
2021-07-06 10:34:24.781250000,-46.0,4.0,45.0,94.283125,20.89,1.871200125,32.37
2021-07-06 10:34:24.789062500,-46.0,4.0,45.0,94.28265625,21.200000000000003,1.87124015625,32.37
2021-07-06 10:34:24.796875000,-46.0,4.0,45.0,94.28218749999999,21.51,1.8712801875,32.37
2021-07-06 10:34:24.804687500,-46.0,4.0,45.0,94.28171875,21.23,1.87132021875,32.37
2021-07-06 10:34:24.812500000,-46.0,4.0,45.0,94.28125,20.95,1.87136025,32.37
2021-07-06 10:34:24.820312500,-46.0,4.0,45.0,94.28078124999999,20.22,1.87140028125,32.37
2021-07-06 10:34:24.828125000,-46.0,4.0,45.0,94.2803125,19.49,1.8714403125,32.37
2021-07-06 10:34:24.835937500,-46.0,4.0,45.0,94.27984375,18.435,1.87148034375,32.37
2021-07-06 10:34:24.843750000,-46.0,4.0,45.0,94.279375,17.38,1.871520375,32.37
2021-07-06 10:34:24.851562500,-46.0,4.0,45.0,94.27890624999999,16.165,1.87156040625,32.37
2021-07-06 10:34:24.859375000,-46.0,4.0,45.0,94.2784375,14.95,1.8716004375,32.37
2021-07-06 10:34:24.867187500,-46.0,4.0,45.0,94.27796875,13.785,1.87164046875,32.37
2021-07-06 10:34:24.875000000,-46.0,4.0,45.0,94.2775,12.62,1.8716805,32.37
2021-07-06 10:34:24.882812500,-46.0,4.0,45.0,94.27703125,11.695,1.87172053125,32.37
2021-07-06 10:34:24.890625000,-46.0,4.0,45.0,94.2765625,10.77,1.8717605625,32.37
2021-07-06 10:34:24.898437500,-46.0,4.0,45.0,94.27609375,10.215,1.87180059375,32.37
2021-07-06 10:34:24.906250000,-46.0,4.0,45.0,94.27562499999999,9.66,1.871840625,32.37
2021-07-06 10:34:24.914062500,-46.0,4.0,45.0,94.27515625,9.51,1.8718806562499999,32.37
2021-07-06 10:34:24.921875000,-46.0,4.0,45.0,94.2746875,9.36,1.8719206874999998,32.37
2021-07-06 10:34:24.929687500,-46.0,4.0,45.0,94.27421875,9.535,1.87196071875,32.37
2021-07-06 10:34:24.937500000,-46.0,4.0,45.0,94.27374999999999,9.71,1.87200075,32.37
2021-07-06 10:34:24.945312500,-46.0,4.0,45.0,94.27328125,10.055,1.87204078125,32.37
2021-07-06 10:34:24.953125000,-46.0,4.0,45.0,94.2728125,10.4,1.8720808125,32.37
2021-07-06 10:34:24.960937500,-46.0,4.0,45.0,94.27234374999999,10.73,1.8721208437499999,32.37
2021-07-06 10:34:24.968750000,-46.0,4.0,45.0,94.271875,11.06,1.8721608749999998,32.37
2021-07-06 10:34:24.976562500,-46.0,4.0,45.0,94.27140625,11.235,1.87220090625,32.37
2021-07-06 10:34:24.984375000,-46.0,4.0,45.0,94.2709375,11.41,1.8722409375,32.37
2021-07-06 10:34:24.992187500,-46.0,4.0,45.0,94.27046874999999,11.33,1.87228096875,32.37
2021-07-06 10:34:25.000000000,-46.0,4.0,45.0,94.27,11.25,1.872321,32.37
2021-07-06 10:34:25.007812500,-46.0,4.0,45.0,94.269453125,10.895,1.8722009062499998,32.370625
2021-07-06 10:34:25.015625000,-46.0,4.0,45.0,94.26890625,10.54,1.8720808125,32.371249999999996
2021-07-06 10:34:25.023437500,-46.0,4.0,45.0,94.268359375,9.91,1.87196071875,32.371874999999996
2021-07-06 10:34:25.031250000,-46.0,4.0,45.0,94.26781249999999,9.28,1.871840625,32.372499999999995
2021-07-06 10:34:25.039062500,-46.0,4.0,45.0,94.267265625,8.415,1.8717205312499998,32.373124999999995
2021-07-06 10:34:25.046875000,-46.0,4.0,45.0,94.26671875,7.55,1.8716004375,32.37375
2021-07-06 10:34:25.054687500,-46.0,4.0,45.0,94.266171875,6.465,1.87148034375,32.374375
2021-07-06 10:34:25.062500000,-46.0,4.0,45.0,94.265625,5.38,1.87136025,32.375
2021-07-06 10:34:25.070312500,-46.0,4.0,45.0,94.265078125,4.105,1.8712401562499998,32.375625
2021-07-06 10:34:25.078125000,-46.0,4.0,45.0,94.26453124999999,2.83,1.8711200625,32.37625
2021-07-06 10:34:25.085937500,-46.0,4.0,45.0,94.26398437499999,1.3900000000000001,1.87099996875,32.376875
2021-07-06 10:34:25.093750000,-46.0,4.0,45.0,94.2634375,-0.05,1.870879875,32.3775
2021-07-06 10:34:25.101562500,-46.0,4.0,45.0,94.262890625,-1.62,1.8707597812499999,32.378125
2021-07-06 10:34:25.109375000,-46.0,4.0,45.0,94.26234375,-3.19,1.8706396875,32.37875
2021-07-06 10:34:25.117187500,-46.0,4.0,45.0,94.261796875,-4.86,1.87051959375,32.379374999999996
2021-07-06 10:34:25.125000000,-46.0,4.0,45.0,94.26124999999999,-6.53,1.8703995,32.379999999999995
2021-07-06 10:34:25.132812500,-46.0,4.0,45.0,94.26070312499999,-8.290000000000001,1.8702794062499999,32.380625
2021-07-06 10:34:25.140625000,-46.0,4.0,45.0,94.26015625,-10.05,1.8701593125,32.38125
2021-07-06 10:34:25.148437500,-46.0,4.0,45.0,94.259609375,-11.9,1.8700392187500001,32.381875
2021-07-06 10:34:25.156250000,-46.0,4.0,45.0,94.2590625,-13.75,1.869919125,32.3825
2021-07-06 10:34:25.164062500,-46.0,4.0,45.0,94.258515625,-15.755,1.86979903125,32.383125
2021-07-06 10:34:25.171875000,-46.0,4.0,45.0,94.25796875,-17.76,1.8696789375,32.38375
2021-07-06 10:34:25.179687500,-46.0,4.0,45.0,94.25742187499999,-20.025,1.8695588437500001,32.384375
2021-07-06 10:34:25.187500000,-46.0,4.0,45.0,94.256875,-22.29,1.86943875,32.385
2021-07-06 10:34:25.195312500,-46.0,4.0,45.0,94.256328125,-24.865000000000002,1.86931865625,32.385625
2021-07-06 10:34:25.203125000,-46.0,4.0,45.0,94.25578125,-27.44,1.8691985625,32.38625
2021-07-06 10:34:25.210937500,-46.0,4.0,45.0,94.255234375,-30.259999999999998,1.8690784687500002,32.386875
2021-07-06 10:34:25.218750000,-46.0,4.0,45.0,94.2546875,-33.08,1.868958375,32.3875
2021-07-06 10:34:25.226562500,-46.0,4.0,45.0,94.25414062499999,-35.86,1.86883828125,32.388125
2021-07-06 10:34:25.234375000,-46.0,4.0,45.0,94.25359375,-38.64,1.8687181875,32.38875
2021-07-06 10:34:25.242187500,-46.0,4.0,45.0,94.253046875,-40.894999999999996,1.8685980937500002,32.389375
2021-07-06 10:34:25.250000000,-46.0,4.0,45.0,94.2525,-43.15,1.868478,32.39
2021-07-06 10:34:25.257812500,-46.0,4.0,45.0,94.251953125,-44.29,1.868478,32.39
2021-07-06 10:34:25.265625000,-46.0,4.0,45.0,94.25140625,-45.43,1.868478,32.39
2021-07-06 10:34:25.273437500,-46.0,4.0,45.0,94.250859375,-44.96,1.868478,32.39
2021-07-06 10:34:25.281250000,-46.0,4.0,45.0,94.25031249999999,-44.49,1.868478,32.39
2021-07-06 10:34:25.289062500,-46.0,4.0,45.0,94.249765625,-42.22,1.868478,32.39
2021-07-06 10:34:25.296875000,-46.0,4.0,45.0,94.24921875,-39.95,1.868478,32.39
2021-07-06 10:34:25.304687500,-46.0,4.0,45.0,94.248671875,-36.06,1.868478,32.39
2021-07-06 10:34:25.312500000,-46.0,4.0,45.0,94.248125,-32.17,1.868478,32.39
2021-07-06 10:34:25.320312500,-46.0,4.0,45.0,94.247578125,-27.18,1.868478,32.39
2021-07-06 10:34:25.328125000,-46.0,4.0,45.0,94.24703124999999,-22.19,1.868478,32.39
2021-07-06 10:34:25.335937500,-46.0,4.0,45.0,94.246484375,-16.815,1.868478,32.39
2021-07-06 10:34:25.343750000,-46.0,4.0,45.0,94.2459375,-11.44,1.868478,32.39
2021-07-06 10:34:25.351562500,-46.0,4.0,45.0,94.245390625,-6.35,1.868478,32.39
2021-07-06 10:34:25.359375000,-46.0,4.0,45.0,94.24484375,-1.26,1.868478,32.39
2021-07-06 10:34:25.367187500,-46.0,4.0,45.0,94.244296875,3.0600000000000005,1.868478,32.39
2021-07-06 10:34:25.375000000,-46.0,4.0,45.0,94.24375,7.38,1.868478,32.39
2021-07-06 10:34:25.382812500,-46.0,4.0,45.0,94.243203125,10.705,1.868478,32.39
2021-07-06 10:34:25.390625000,-46.0,4.0,45.0,94.24265625,14.03,1.868478,32.39
2021-07-06 10:34:25.398437500,-46.0,4.0,45.0,94.242109375,16.35,1.868478,32.39
2021-07-06 10:34:25.406250000,-46.0,4.0,45.0,94.2415625,18.67,1.868478,32.39
2021-07-06 10:34:25.414062500,-46.0,4.0,45.0,94.241015625,20.11,1.868478,32.39
2021-07-06 10:34:25.421875000,-46.0,4.0,45.0,94.24046875,21.55,1.868478,32.39
2021-07-06 10:34:25.429687500,-46.0,4.0,45.0,94.239921875,22.265,1.868478,32.39
2021-07-06 10:34:25.437500000,-46.0,4.0,45.0,94.239375,22.98,1.868478,32.39
2021-07-06 10:34:25.445312500,-46.0,4.0,45.0,94.238828125,23.105,1.868478,32.39
2021-07-06 10:34:25.453125000,-46.0,4.0,45.0,94.23828125,23.23,1.868478,32.39
2021-07-06 10:34:25.460937500,-46.0,4.0,45.0,94.237734375,22.880000000000003,1.868478,32.39
2021-07-06 10:34:25.468750000,-46.0,4.0,45.0,94.2371875,22.53,1.868478,32.39
2021-07-06 10:34:25.476562500,-46.0,4.0,45.0,94.23664062499999,21.83,1.868478,32.39
2021-07-06 10:34:25.484375000,-46.0,4.0,45.0,94.23609375,21.13,1.868478,32.39
2021-07-06 10:34:25.492187500,-46.0,4.0,45.0,94.235546875,20.229999999999997,1.868478,32.39
2021-07-06 10:34:25.500000000,-46.0,4.0,45.0,94.235,19.33,1.868478,32.39
2021-07-06 10:34:25.507812500,-46.0,4.0,45.0,94.234453125,18.424999999999997,1.868357875,32.39
2021-07-06 10:34:25.515625000,-46.0,4.0,45.0,94.23390625,17.52,1.86823775,32.39
2021-07-06 10:34:25.523437500,-46.0,4.0,45.0,94.233359375,16.79,1.868117625,32.39
2021-07-06 10:34:25.531250000,-46.0,4.0,45.0,94.2328125,16.06,1.8679975,32.39
2021-07-06 10:34:25.539062500,-46.0,4.0,45.0,94.232265625,15.614999999999998,1.867877375,32.39
2021-07-06 10:34:25.546875000,-46.0,4.0,45.0,94.23171875,15.17,1.8677572500000001,32.39
2021-07-06 10:34:25.554687500,-46.0,4.0,45.0,94.231171875,15.035,1.8676371250000001,32.39
2021-07-06 10:34:25.562500000,-46.0,4.0,45.0,94.230625,14.9,1.867517,32.39
2021-07-06 10:34:25.570312500,-46.0,4.0,45.0,94.230078125,14.985,1.867396875,32.39
2021-07-06 10:34:25.578125000,-46.0,4.0,45.0,94.22953125,15.07,1.86727675,32.39
2021-07-06 10:34:25.585937500,-46.0,4.0,45.0,94.228984375,15.24,1.867156625,32.39
2021-07-06 10:34:25.593750000,-46.0,4.0,45.0,94.2284375,15.41,1.8670365,32.39
2021-07-06 10:34:25.601562500,-46.25,4.0,45.0,94.227890625,15.55,1.866916375,32.39
2021-07-06 10:34:25.609375000,-46.5,4.0,45.0,94.22734375,15.69,1.86679625,32.39
2021-07-06 10:34:25.617187500,-46.75,4.0,45.0,94.226796875,15.705,1.866676125,32.39
2021-07-06 10:34:25.625000000,-47.0,4.0,45.0,94.22625,15.72,1.866556,32.39
2021-07-06 10:34:25.632812500,-46.75,4.0,45.0,94.225703125,15.57,1.866435875,32.39
2021-07-06 10:34:25.640625000,-46.5,4.0,45.0,94.22515625,15.42,1.86631575,32.39
2021-07-06 10:34:25.648437500,-46.25,4.0,45.0,94.224609375,15.075,1.866195625,32.39
2021-07-06 10:34:25.656250000,-46.0,4.0,45.0,94.2240625,14.73,1.8660755,32.39
2021-07-06 10:34:25.664062500,-46.0,4.0,45.0,94.223515625,14.16,1.865955375,32.39
2021-07-06 10:34:25.671875000,-46.0,4.0,45.0,94.22296875,13.59,1.86583525,32.39
2021-07-06 10:34:25.679687500,-46.0,4.0,45.0,94.222421875,12.765,1.865715125,32.39
2021-07-06 10:34:25.687500000,-46.0,4.0,45.0,94.221875,11.94,1.865595,32.39
2021-07-06 10:34:25.695312500,-46.0,4.0,45.0,94.221328125,10.835,1.8654748749999999,32.39
2021-07-06 10:34:25.703125000,-46.0,4.0,45.0,94.22078125,9.73,1.8653547499999998,32.39
2021-07-06 10:34:25.710937500,-46.0,4.0,45.0,94.220234375,8.370000000000001,1.865234625,32.39
2021-07-06 10:34:25.718750000,-46.0,4.0,45.0,94.2196875,7.01,1.8651145,32.39
2021-07-06 10:34:25.726562500,-46.0,4.0,45.0,94.219140625,5.45,1.864994375,32.39
2021-07-06 10:34:25.734375000,-46.0,4.0,45.0,94.21859375,3.89,1.86487425,32.39
2021-07-06 10:34:25.742187500,-46.0,4.0,45.0,94.218046875,2.215,1.864754125,32.39
2021-07-06 10:34:25.750000000,-46.0,4.0,45.0,94.2175,0.54,1.864634,32.39
2021-07-06 10:34:25.757812500,-46.0,4.0,45.0,94.216953125,-1.175,1.86459396875,32.39
2021-07-06 10:34:25.765625000,-46.0,4.0,45.0,94.21640625,-2.89,1.8645539375,32.39
2021-07-06 10:34:25.773437500,-46.0,4.0,45.0,94.21585937500001,-4.615,1.86451390625,32.39
2021-07-06 10:34:25.781250000,-46.0,4.0,45.0,94.2153125,-6.34,1.8644738749999998,32.39
2021-07-06 10:34:25.789062500,-46.0,4.0,45.0,94.214765625,-8.1,1.8644338437499999,32.39
2021-07-06 10:34:25.796875000,-46.0,4.0,45.0,94.21421875,-9.86,1.8643938125,32.39
2021-07-06 10:34:25.804687500,-46.0,4.0,45.0,94.213671875,-11.76,1.86435378125,32.39
2021-07-06 10:34:25.812500000,-46.0,4.0,45.0,94.213125,-13.66,1.86431375,32.39
2021-07-06 10:34:25.820312500,-46.0,4.0,45.0,94.21257812500001,-15.805,1.86427371875,32.39
2021-07-06 10:34:25.828125000,-46.0,4.0,45.0,94.21203125,-17.95,1.8642336874999998,32.39
2021-07-06 10:34:25.835937500,-46.0,4.0,45.0,94.211484375,-20.439999999999998,1.8641936562499999,32.39
2021-07-06 10:34:25.843750000,-46.0,4.0,45.0,94.2109375,-22.93,1.864153625,32.39
2021-07-06 10:34:25.851562500,-46.0,4.0,45.0,94.210390625,-25.73,1.86411359375,32.39
2021-07-06 10:34:25.859375000,-46.0,4.0,45.0,94.20984375,-28.53,1.8640735625,32.39
2021-07-06 10:34:25.867187500,-46.0,4.0,45.0,94.209296875,-31.375,1.86403353125,32.39
2021-07-06 10:34:25.875000000,-46.0,4.0,45.0,94.20875000000001,-34.22,1.8639934999999999,32.39
2021-07-06 10:34:25.882812500,-46.0,4.0,45.0,94.208203125,-36.644999999999996,1.86395346875,32.39
2021-07-06 10:34:25.890625000,-46.0,4.0,45.0,94.20765625,-39.07,1.8639134375,32.39
2021-07-06 10:34:25.898437500,-46.0,4.0,45.0,94.207109375,-40.480000000000004,1.86387340625,32.39
2021-07-06 10:34:25.906250000,-46.0,4.0,45.0,94.2065625,-41.89,1.863833375,32.39
2021-07-06 10:34:25.914062500,-46.0,4.0,45.25,94.206015625,-41.75,1.86379334375,32.39
2021-07-06 10:34:25.921875000,-46.0,4.0,45.5,94.20546875000001,-41.61,1.8637533125,32.39
2021-07-06 10:34:25.929687500,-46.0,4.0,45.75,94.204921875,-39.675,1.86371328125,32.39
2021-07-06 10:34:25.937500000,-46.0,4.0,46.0,94.204375,-37.74,1.86367325,32.39
2021-07-06 10:34:25.945312500,-46.0,4.0,45.75,94.203828125,-34.16,1.86363321875,32.39
2021-07-06 10:34:25.953125000,-46.0,4.0,45.5,94.20328125,-30.58,1.8635931875,32.39
2021-07-06 10:34:25.960937500,-46.0,4.0,45.25,94.202734375,-25.845,1.86355315625,32.39
2021-07-06 10:34:25.968750000,-46.0,4.0,45.0,94.20218750000001,-21.11,1.863513125,32.39
2021-07-06 10:34:25.976562500,-46.0,4.0,45.0,94.201640625,-15.925,1.86347309375,32.39
2021-07-06 10:34:25.984375000,-46.0,4.0,45.0,94.20109375,-10.74,1.8634330625,32.39
2021-07-06 10:34:25.992187500,-46.0,4.0,45.0,94.200546875,-5.775,1.86339303125,32.39
2021-07-06 10:34:26.000000000,-46.0,4.0,45.0,94.2,-0.81,1.863353,32.39
2021-07-06 10:34:26.007812500,-46.0,4.0,45.0,94.199375,3.4600000000000004,1.8632729375000001,32.39
2021-07-06 10:34:26.015625000,-46.0,4.0,45.0,94.19875,7.73,1.863192875,32.39
2021-07-06 10:34:26.023437500,-46.0,4.0,45.0,94.198125,11.075,1.8631128125,32.39
2021-07-06 10:34:26.031250000,-46.0,4.0,45.0,94.1975,14.42,1.8630327500000001,32.39
2021-07-06 10:34:26.039062500,-46.0,4.0,45.0,94.196875,16.795,1.8629526875,32.39
2021-07-06 10:34:26.046875000,-46.0,4.0,45.0,94.19625,19.17,1.862872625,32.39
2021-07-06 10:34:26.054687500,-46.0,4.0,45.0,94.195625,20.67,1.8627925625000001,32.39
2021-07-06 10:34:26.062500000,-46.0,4.0,45.0,94.19500000000001,22.17,1.8627125,32.39
2021-07-06 10:34:26.070312500,-46.0,4.0,45.0,94.19437500000001,22.89,1.8626324375,32.39
2021-07-06 10:34:26.078125000,-46.0,4.0,45.0,94.19375000000001,23.61,1.8625523750000001,32.39
2021-07-06 10:34:26.085937500,-46.0,4.0,45.0,94.19312500000001,23.64,1.8624723125,32.39
2021-07-06 10:34:26.093750000,-46.0,4.0,45.0,94.19250000000001,23.67,1.86239225,32.39
2021-07-06 10:34:26.101562500,-46.0,4.0,45.0,94.191875,23.130000000000003,1.8623121875000002,32.39
2021-07-06 10:34:26.109375000,-46.0,4.0,45.0,94.19125,22.59,1.862232125,32.39
2021-07-06 10:34:26.117187500,-46.0,4.0,45.0,94.190625,21.634999999999998,1.8621520625,32.39
2021-07-06 10:34:26.125000000,-46.0,4.0,45.0,94.19,20.68,1.862072,32.39
2021-07-06 10:34:26.132812500,-46.0,4.0,45.0,94.189375,19.490000000000002,1.8619919375,32.39
2021-07-06 10:34:26.140625000,-46.0,4.0,45.0,94.18875,18.3,1.861911875,32.39
2021-07-06 10:34:26.148437500,-46.0,4.0,45.0,94.188125,17.11,1.8618318125,32.39
2021-07-06 10:34:26.156250000,-46.0,4.0,45.0,94.1875,15.92,1.86175175,32.39
2021-07-06 10:34:26.164062500,-46.0,4.0,45.0,94.186875,14.934999999999999,1.8616716875000001,32.39
2021-07-06 10:34:26.171875000,-46.0,4.0,45.0,94.18625,13.95,1.861591625,32.39
2021-07-06 10:34:26.179687500,-46.0,4.0,45.0,94.185625,13.315,1.8615115625,32.39
2021-07-06 10:34:26.187500000,-46.0,4.0,45.0,94.185,12.68,1.8614315000000001,32.39
2021-07-06 10:34:26.195312500,-46.0,4.0,45.0,94.184375,12.469999999999999,1.8613514375,32.39
2021-07-06 10:34:26.203125000,-46.0,4.0,45.0,94.18375,12.26,1.861271375,32.39
2021-07-06 10:34:26.210937500,-46.0,4.0,45.0,94.183125,12.434999999999999,1.8611913125000001,32.39
2021-07-06 10:34:26.218750000,-46.0,4.0,45.0,94.1825,12.61,1.86111125,32.39
2021-07-06 10:34:26.226562500,-46.0,4.0,45.0,94.181875,13.05,1.8610311875,32.39
2021-07-06 10:34:26.234375000,-46.0,4.0,45.0,94.18125,13.49,1.8609511250000002,32.39
2021-07-06 10:34:26.242187500,-46.0,4.0,45.0,94.180625,14.025,1.8608710625,32.39
2021-07-06 10:34:26.250000000,-46.0,4.0,45.0,94.18,14.56,1.860791,32.39
2021-07-06 10:34:26.257812500,-46.0,4.0,45.0,94.17937500000001,15.015,1.86083103125,32.39
2021-07-06 10:34:26.265625000,-46.0,4.0,45.0,94.17875000000001,15.47,1.8608710625,32.39
2021-07-06 10:34:26.273437500,-46.0,4.0,45.0,94.17812500000001,15.705,1.86091109375,32.39
2021-07-06 10:34:26.281250000,-46.0,4.0,45.0,94.17750000000001,15.94,1.8609511250000002,32.39
2021-07-06 10:34:26.289062500,-46.0,4.0,45.0,94.17687500000001,15.864999999999998,1.8609911562500001,32.39
2021-07-06 10:34:26.296875000,-46.0,4.0,45.0,94.17625000000001,15.79,1.8610311875,32.39
2021-07-06 10:34:26.304687500,-46.0,4.0,45.0,94.175625,15.35,1.86107121875,32.39
2021-07-06 10:34:26.312500000,-46.0,4.0,45.0,94.175,14.91,1.86111125,32.39
2021-07-06 10:34:26.320312500,-46.0,4.0,45.0,94.174375,14.115,1.86115128125,32.39
2021-07-06 10:34:26.328125000,-46.0,4.0,45.0,94.17375,13.32,1.8611913125000001,32.39
2021-07-06 10:34:26.335937500,-46.0,4.0,45.0,94.173125,12.185,1.86123134375,32.39
2021-07-06 10:34:26.343750000,-46.0,4.0,45.0,94.1725,11.05,1.861271375,32.39
2021-07-06 10:34:26.351562500,-46.0,4.0,45.0,94.171875,9.645,1.86131140625,32.39
2021-07-06 10:34:26.359375000,-46.0,4.0,45.0,94.17125,8.24,1.8613514375,32.39
2021-07-06 10:34:26.367187500,-46.0,4.0,45.0,94.170625,6.655,1.86139146875,32.39
2021-07-06 10:34:26.375000000,-46.0,4.0,45.0,94.17,5.07,1.8614315000000001,32.39
2021-07-06 10:34:26.382812500,-46.0,4.0,45.0,94.169375,3.435,1.86147153125,32.39
2021-07-06 10:34:26.390625000,-46.0,4.0,45.0,94.16875,1.8,1.8615115625,32.39
2021-07-06 10:34:26.398437500,-46.0,4.0,45.0,94.168125,0.22499999999999987,1.86155159375,32.39
2021-07-06 10:34:26.406250000,-46.0,4.0,45.0,94.1675,-1.35,1.861591625,32.39
2021-07-06 10:34:26.414062500,-46.25,4.0,45.0,94.166875,-2.7750000000000004,1.86163165625,32.39
2021-07-06 10:34:26.421875000,-46.5,4.0,45.0,94.16625,-4.2,1.8616716875,32.39
2021-07-06 10:34:26.429687500,-46.75,4.0,45.0,94.165625,-5.48,1.86171171875,32.39
2021-07-06 10:34:26.437500000,-47.0,4.0,45.0,94.165,-6.76,1.86175175,32.39
2021-07-06 10:34:26.445312500,-46.75,4.0,45.0,94.164375,-7.9799999999999995,1.86179178125,32.39
2021-07-06 10:34:26.453125000,-46.5,4.0,45.0,94.16375000000001,-9.2,1.8618318125,32.39
2021-07-06 10:34:26.460937500,-46.25,4.0,45.0,94.16312500000001,-10.55,1.86187184375,32.39
2021-07-06 10:34:26.468750000,-46.0,4.0,45.0,94.16250000000001,-11.9,1.8619118749999999,32.39
2021-07-06 10:34:26.476562500,-46.0,4.0,45.0,94.16187500000001,-13.61,1.86195190625,32.39
2021-07-06 10:34:26.484375000,-46.0,4.0,45.0,94.16125000000001,-15.32,1.8619919375,32.39
2021-07-06 10:34:26.492187500,-46.0,4.0,45.0,94.16062500000001,-17.53,1.86203196875,32.39
2021-07-06 10:34:26.500000000,-46.0,4.0,45.0,94.16,-19.74,1.862072,32.39
2021-07-06 10:34:26.507812500,-46.0,4.0,45.0,94.159375,-22.4,1.8619919375,32.39
2021-07-06 10:34:26.515625000,-46.0,4.0,45.0,94.15875,-25.06,1.8619118749999999,32.39
2021-07-06 10:34:26.523437500,-46.0,4.0,45.0,94.158125,-27.814999999999998,1.8618318125,32.39
2021-07-06 10:34:26.531250000,-46.0,4.0,45.0,94.1575,-30.57,1.86175175,32.39
2021-07-06 10:34:26.539062500,-46.0,4.0,45.0,94.156875,-32.84,1.8616716875,32.39
2021-07-06 10:34:26.546875000,-46.0,4.0,45.0,94.15625,-35.11,1.861591625,32.39
2021-07-06 10:34:26.554687500,-46.0,4.0,45.0,94.155625,-36.230000000000004,1.8615115625,32.39
2021-07-06 10:34:26.562500000,-46.0,4.0,45.0,94.155,-37.35,1.8614315,32.39
2021-07-06 10:34:26.570312500,-46.0,4.0,45.0,94.154375,-36.79,1.8613514375,32.39
2021-07-06 10:34:26.578125000,-46.0,4.0,45.0,94.15375,-36.23,1.861271375,32.39
2021-07-06 10:34:26.585937500,-46.0,4.0,45.0,94.153125,-33.86,1.8611913125,32.39
2021-07-06 10:34:26.593750000,-46.0,4.0,45.0,94.1525,-31.49,1.86111125,32.39
2021-07-06 10:34:26.601562500,-46.0,4.0,45.0,94.151875,-27.6,1.8610311875,32.39
2021-07-06 10:34:26.609375000,-46.0,4.0,45.0,94.15125,-23.71,1.860951125,32.39
2021-07-06 10:34:26.617187500,-46.0,4.0,45.0,94.150625,-18.96,1.8608710625,32.39
2021-07-06 10:34:26.625000000,-46.0,4.0,45.0,94.15,-14.21,1.8607909999999999,32.39
2021-07-06 10:34:26.632812500,-46.0,4.0,45.0,94.149375,-9.36,1.8607109375,32.39
2021-07-06 10:34:26.640625000,-46.0,4.0,45.0,94.14875,-4.51,1.860630875,32.39
2021-07-06 10:34:26.648437500,-46.0,4.0,45.0,94.14812500000001,-0.20999999999999996,1.8605508124999999,32.39
2021-07-06 10:34:26.656250000,-46.0,4.0,45.0,94.14750000000001,4.09,1.86047075,32.39
2021-07-06 10:34:26.664062500,-46.0,4.0,45.0,94.14687500000001,7.475,1.8603906875,32.39
2021-07-06 10:34:26.671875000,-46.0,4.0,45.0,94.14625000000001,10.86,1.8603106249999999,32.39
2021-07-06 10:34:26.679687500,-46.0,4.0,45.0,94.14562500000001,13.245000000000001,1.8602305625,32.39
2021-07-06 10:34:26.687500000,-46.0,4.0,45.0,94.14500000000001,15.63,1.8601505,32.39
2021-07-06 10:34:26.695312500,-46.0,4.0,45.0,94.14437500000001,17.12,1.8600704375,32.39
2021-07-06 10:34:26.703125000,-46.0,4.0,45.0,94.14375,18.61,1.859990375,32.39
2021-07-06 10:34:26.710937500,-46.0,4.0,45.0,94.143125,19.369999999999997,1.8599103125,32.39
2021-07-06 10:34:26.718750000,-46.0,4.0,45.0,94.1425,20.13,1.85983025,32.39
2021-07-06 10:34:26.726562500,-46.0,4.0,45.0,94.141875,20.314999999999998,1.8597501875,32.39
2021-07-06 10:34:26.734375000,-46.0,4.0,45.0,94.14125,20.5,1.859670125,32.39
2021-07-06 10:34:26.742187500,-46.0,4.0,45.0,94.140625,20.225,1.8595900625,32.39
2021-07-06 10:34:26.750000000,-46.0,4.0,45.0,94.14,19.95,1.85951,32.39
2021-07-06 10:34:26.757812500,-46.0,4.0,45.0,94.139375,19.345,1.8594299375,32.39
2021-07-06 10:34:26.765625000,-46.0,4.0,45.0,94.13875,18.74,1.859349875,32.39
2021-07-06 10:34:26.773437500,-46.0,4.0,45.0,94.138125,17.939999999999998,1.8592698125,32.39
2021-07-06 10:34:26.781250000,-46.0,4.0,45.0,94.1375,17.14,1.85918975,32.39
2021-07-06 10:34:26.789062500,-46.0,4.0,45.0,94.136875,16.310000000000002,1.8591096875,32.39
2021-07-06 10:34:26.796875000,-46.0,4.0,45.0,94.13625,15.48,1.859029625,32.39
2021-07-06 10:34:26.804687500,-46.0,4.0,45.0,94.135625,14.785,1.8589495625,32.39
2021-07-06 10:34:26.812500000,-46.0,4.0,45.0,94.135,14.09,1.8588695,32.39
2021-07-06 10:34:26.820312500,-46.0,4.0,45.0,94.134375,13.64,1.8587894375,32.39
2021-07-06 10:34:26.828125000,-46.0,4.0,45.0,94.13375,13.19,1.858709375,32.39
2021-07-06 10:34:26.835937500,-46.0,4.0,45.0,94.133125,13.03,1.8586293125,32.39
2021-07-06 10:34:26.843750000,-46.0,4.0,45.0,94.13250000000001,12.87,1.85854925,32.39
2021-07-06 10:34:26.851562500,-46.0,4.0,45.0,94.13187500000001,12.985,1.8584691875000001,32.39
2021-07-06 10:34:26.859375000,-46.0,4.0,45.0,94.13125000000001,13.1,1.858389125,32.39
2021-07-06 10:34:26.867187500,-46.0,4.0,45.0,94.13062500000001,13.43,1.8583090625,32.39
2021-07-06 10:34:26.875000000,-46.0,4.0,45.0,94.13000000000001,13.76,1.8582290000000001,32.39
2021-07-06 10:34:26.882812500,-46.0,4.0,45.0,94.12937500000001,14.2,1.8581489375,32.39
2021-07-06 10:34:26.890625000,-46.0,4.0,45.0,94.12875000000001,14.64,1.858068875,32.39
2021-07-06 10:34:26.898437500,-46.0,4.0,45.0,94.12812500000001,15.05,1.8579888125,32.39
2021-07-06 10:34:26.906250000,-46.0,4.0,45.0,94.1275,15.46,1.85790875,32.39
2021-07-06 10:34:26.914062500,-46.0,4.0,45.0,94.126875,15.670000000000002,1.8578286875,32.39
2021-07-06 10:34:26.921875000,-46.0,4.0,45.0,94.12625,15.88,1.857748625,32.39
2021-07-06 10:34:26.929687500,-46.0,4.0,45.0,94.125625,15.75,1.8576685625,32.39
2021-07-06 10:34:26.937500000,-46.0,4.0,45.0,94.125,15.62,1.8575885,32.39
2021-07-06 10:34:26.945312500,-46.0,4.0,45.0,94.124375,15.07,1.8575084375,32.39
2021-07-06 10:34:26.953125000,-46.0,4.0,45.0,94.12375,14.52,1.857428375,32.39
2021-07-06 10:34:26.960937500,-46.0,4.0,45.0,94.123125,13.55,1.8573483125,32.39
2021-07-06 10:34:26.968750000,-46.0,4.0,45.0,94.1225,12.58,1.85726825,32.39
2021-07-06 10:34:26.976562500,-46.0,4.0,45.0,94.121875,11.285,1.8571881875,32.39
2021-07-06 10:34:26.984375000,-46.0,4.0,45.0,94.12125,9.99,1.857108125,32.39
2021-07-06 10:34:26.992187500,-46.0,4.0,45.0,94.120625,8.52,1.8570280625,32.39
2021-07-06 10:34:27.000000000,-46.0,4.0,45.0,94.12,7.05,1.856948,32.39
2021-07-06 10:34:27.007812500,-46.0,4.0,45.0,94.11984375,5.535,1.85698803125,32.390625
2021-07-06 10:34:27.015625000,-46.0,4.0,45.0,94.1196875,4.02,1.8570280625,32.39125
2021-07-06 10:34:27.023437500,-46.0,4.0,45.0,94.11953125000001,2.54,1.85706809375,32.391875
2021-07-06 10:34:27.031250000,-46.0,4.0,45.0,94.119375,1.06,1.857108125,32.3925
2021-07-06 10:34:27.039062500,-46.0,4.0,45.0,94.11921875,-0.375,1.85714815625,32.393125
2021-07-06 10:34:27.046875000,-46.0,4.0,45.0,94.1190625,-1.81,1.8571881875,32.39375
2021-07-06 10:34:27.054687500,-46.0,4.0,45.0,94.11890625000001,-3.2700000000000005,1.85722821875,32.394375
2021-07-06 10:34:27.062500000,-46.0,4.0,45.0,94.11875,-4.73,1.85726825,32.394999999999996
2021-07-06 10:34:27.070312500,-46.0,4.0,45.0,94.11859375,-6.29,1.85730828125,32.395625
2021-07-06 10:34:27.078125000,-46.0,4.0,45.0,94.1184375,-7.85,1.8573483125,32.39625
2021-07-06 10:34:27.085937500,-46.0,4.0,45.0,94.11828125000001,-9.605,1.85738834375,32.396875
2021-07-06 10:34:27.093750000,-46.0,4.0,45.0,94.118125,-11.36,1.857428375,32.3975
2021-07-06 10:34:27.101562500,-46.0,4.0,45.0,94.11796875,-13.344999999999999,1.85746840625,32.398125
2021-07-06 10:34:27.109375000,-46.0,4.0,45.0,94.1178125,-15.33,1.8575084375,32.39875
2021-07-06 10:34:27.117187500,-46.0,4.0,45.0,94.11765625000001,-17.58,1.85754846875,32.399375
2021-07-06 10:34:27.125000000,-46.0,4.0,45.0,94.1175,-19.83,1.8575884999999999,32.4
2021-07-06 10:34:27.132812500,-46.0,4.0,45.0,94.11734375,-22.345,1.85762853125,32.400625
2021-07-06 10:34:27.140625000,-46.0,4.0,45.0,94.1171875,-24.86,1.8576685625,32.40125
2021-07-06 10:34:27.148437500,-46.0,4.0,45.0,94.11703125,-27.54,1.85770859375,32.401875
2021-07-06 10:34:27.156250000,-46.0,4.0,45.0,94.11687500000001,-30.22,1.857748625,32.402499999999996
2021-07-06 10:34:27.164062500,-46.0,4.0,45.0,94.11671875,-32.864999999999995,1.85778865625,32.403124999999996
2021-07-06 10:34:27.171875000,-46.0,4.0,45.0,94.1165625,-35.51,1.8578286874999999,32.403749999999995
2021-07-06 10:34:27.179687500,-46.0,4.0,45.0,94.11640625,-37.745,1.85786871875,32.404374999999995
2021-07-06 10:34:27.187500000,-46.0,4.0,45.0,94.11625000000001,-39.98,1.85790875,32.405
2021-07-06 10:34:27.195312500,-46.0,4.0,45.0,94.11609375,-41.315,1.85794878125,32.405625
2021-07-06 10:34:27.203125000,-46.0,4.0,45.0,94.1159375,-42.65,1.8579888125,32.40625
2021-07-06 10:34:27.210937500,-46.0,4.0,45.0,94.11578125,-42.59,1.8580288437499999,32.406875
2021-07-06 10:34:27.218750000,-46.0,4.0,45.0,94.11562500000001,-42.53,1.8580688749999998,32.4075
2021-07-06 10:34:27.226562500,-46.0,4.0,45.0,94.11546875,-40.765,1.85810890625,32.408125
2021-07-06 10:34:27.234375000,-46.0,4.0,45.0,94.1153125,-39.0,1.8581489375,32.40875
2021-07-06 10:34:27.242187500,-46.0,4.0,45.0,94.11515625,-35.515,1.85818896875,32.409375
2021-07-06 10:34:27.250000000,-46.0,4.0,45.0,94.11500000000001,-32.03,1.858229,32.41
2021-07-06 10:34:27.257812500,-46.0,4.0,45.0,94.11484375,-27.18,1.8580288125,32.41
2021-07-06 10:34:27.265625000,-46.0,4.0,45.0,94.1146875,-22.33,1.857828625,32.41
2021-07-06 10:34:27.273437500,-46.0,4.0,45.0,94.11453125,-16.759999999999998,1.8576284374999998,32.41
2021-07-06 10:34:27.281250000,-46.0,4.0,45.0,94.114375,-11.19,1.85742825,32.41
2021-07-06 10:34:27.289062500,-46.0,4.0,45.0,94.11421875,-5.66,1.8572280625,32.41
2021-07-06 10:34:27.296875000,-46.0,4.0,45.0,94.1140625,-0.13,1.857027875,32.41
2021-07-06 10:34:27.304687500,-46.0,4.0,45.0,94.11390625,4.710000000000001,1.8568276874999998,32.41
2021-07-06 10:34:27.312500000,-46.0,4.0,45.0,94.11375,9.55,1.8566274999999999,32.41
2021-07-06 10:34:27.320312500,-46.0,4.0,45.0,94.11359375,13.290000000000001,1.8564273125,32.41
2021-07-06 10:34:27.328125000,-46.0,4.0,45.0,94.1134375,17.03,1.856227125,32.41
2021-07-06 10:34:27.335937500,-46.0,4.0,45.0,94.11328125,19.55,1.8560269375,32.41
2021-07-06 10:34:27.343750000,-46.0,4.0,45.0,94.113125,22.07,1.8558267499999999,32.41
2021-07-06 10:34:27.351562500,-46.0,4.0,45.0,94.11296875000001,23.465,1.8556265625,32.41
2021-07-06 10:34:27.359375000,-46.0,4.0,45.0,94.1128125,24.86,1.855426375,32.41
2021-07-06 10:34:27.367187500,-46.0,4.0,45.0,94.11265625,25.335,1.8552261875,32.41
2021-07-06 10:34:27.375000000,-46.0,4.0,45.0,94.1125,25.81,1.855026,32.41
2021-07-06 10:34:27.382812500,-46.0,4.0,45.0,94.11234375,25.585,1.8548258125,32.41
2021-07-06 10:34:27.390625000,-46.0,4.0,45.0,94.1121875,25.36,1.854625625,32.41
2021-07-06 10:34:27.398437500,-46.0,4.0,45.0,94.11203125,24.61,1.8544254375,32.41
2021-07-06 10:34:27.406250000,-46.0,4.0,45.0,94.111875,23.86,1.85422525,32.41
2021-07-06 10:34:27.414062500,-46.0,4.0,45.0,94.11171875,22.740000000000002,1.8540250624999999,32.41
2021-07-06 10:34:27.421875000,-46.0,4.0,45.0,94.1115625,21.62,1.853824875,32.41
2021-07-06 10:34:27.429687500,-46.0,4.0,45.0,94.11140625,20.33,1.8536246875,32.41
2021-07-06 10:34:27.437500000,-46.0,4.0,45.0,94.11125,19.04,1.8534245,32.41
2021-07-06 10:34:27.445312500,-46.0,4.0,45.0,94.11109375,17.78,1.8532243125,32.41
2021-07-06 10:34:27.453125000,-46.0,4.0,45.0,94.1109375,16.52,1.853024125,32.41
2021-07-06 10:34:27.460937500,-46.0,4.0,45.0,94.11078125,15.52,1.8528239375,32.41
2021-07-06 10:34:27.468750000,-46.0,4.0,45.0,94.110625,14.52,1.85262375,32.41
2021-07-06 10:34:27.476562500,-46.0,4.0,45.0,94.11046875,13.905,1.8524235625,32.41
2021-07-06 10:34:27.484375000,-46.0,4.0,45.0,94.1103125,13.29,1.852223375,32.41
2021-07-06 10:34:27.492187500,-46.0,4.0,45.0,94.11015625,13.09,1.8520231875,32.41
2021-07-06 10:34:27.500000000,-46.0,4.0,45.0,94.11,12.89,1.851823,32.41
2021-07-06 10:34:27.507812500,-46.0,4.0,45.0,94.10984375,12.99,1.851943125,32.41
2021-07-06 10:34:27.515625000,-46.0,4.0,45.0,94.10968749999999,13.09,1.85206325,32.41
2021-07-06 10:34:27.523437500,-46.0,4.0,45.0,94.10953125,13.325,1.852183375,32.41
2021-07-06 10:34:27.531250000,-46.0,4.0,45.0,94.109375,13.56,1.8523035,32.41
2021-07-06 10:34:27.539062500,-46.0,4.0,45.0,94.10921875,13.77,1.852423625,32.41
2021-07-06 10:34:27.546875000,-46.0,4.0,45.0,94.1090625,13.98,1.85254375,32.41
2021-07-06 10:34:27.554687500,-46.0,4.0,45.0,94.10890625,14.065000000000001,1.852663875,32.41
2021-07-06 10:34:27.562500000,-46.0,4.0,45.0,94.10875,14.15,1.852784,32.41
2021-07-06 10:34:27.570312500,-46.25,4.0,45.0,94.10859375,14.094999999999999,1.852904125,32.41
2021-07-06 10:34:27.578125000,-46.5,4.0,45.0,94.1084375,14.04,1.85302425,32.41
2021-07-06 10:34:27.585937500,-46.75,4.0,45.0,94.10828125,13.835,1.853144375,32.41
2021-07-06 10:34:27.593750000,-47.0,4.0,45.0,94.108125,13.63,1.8532644999999999,32.41
2021-07-06 10:34:27.601562500,-46.75,4.0,45.0,94.10796875,13.260000000000002,1.853384625,32.41
2021-07-06 10:34:27.609375000,-46.5,4.0,45.0,94.1078125,12.89,1.85350475,32.41
2021-07-06 10:34:27.617187500,-46.25,4.0,45.0,94.10765625,12.280000000000001,1.853624875,32.41
2021-07-06 10:34:27.625000000,-46.0,4.0,45.0,94.1075,11.67,1.853745,32.41
2021-07-06 10:34:27.632812500,-46.0,4.0,45.0,94.10734375,10.745000000000001,1.853865125,32.41
2021-07-06 10:34:27.640625000,-46.0,4.0,45.0,94.1071875,9.82,1.85398525,32.41
2021-07-06 10:34:27.648437500,-46.0,4.0,45.0,94.10703124999999,8.555,1.854105375,32.41
2021-07-06 10:34:27.656250000,-46.0,4.0,45.0,94.106875,7.29,1.8542255,32.41
2021-07-06 10:34:27.664062500,-46.0,4.0,45.0,94.10671875,5.734999999999999,1.8543456249999999,32.41
2021-07-06 10:34:27.671875000,-46.0,4.0,45.0,94.1065625,4.18,1.85446575,32.41
2021-07-06 10:34:27.679687500,-46.0,4.0,45.0,94.10640624999999,2.465,1.854585875,32.41
2021-07-06 10:34:27.687500000,-46.0,4.0,45.0,94.10625,0.75,1.854706,32.41
2021-07-06 10:34:27.695312500,-46.0,4.0,45.0,94.10609375,-1.0,1.854826125,32.41
2021-07-06 10:34:27.703125000,-46.0,4.0,45.0,94.1059375,-2.75,1.85494625,32.41
2021-07-06 10:34:27.710937500,-46.0,4.0,45.0,94.10578124999999,-4.445,1.855066375,32.41
2021-07-06 10:34:27.718750000,-46.0,4.0,45.0,94.105625,-6.14,1.8551864999999998,32.41
2021-07-06 10:34:27.726562500,-46.0,4.0,45.0,94.10546875,-7.779999999999999,1.8553066249999999,32.41
2021-07-06 10:34:27.734375000,-46.0,4.0,45.0,94.1053125,-9.42,1.85542675,32.41
2021-07-06 10:34:27.742187500,-46.0,4.0,45.0,94.10515625,-11.094999999999999,1.855546875,32.41
2021-07-06 10:34:27.750000000,-46.0,4.0,45.0,94.10499999999999,-12.77,1.855667,32.41
2021-07-06 10:34:27.757812500,-46.0,4.0,45.0,94.10484375,-14.615,1.8553867499999999,32.41
2021-07-06 10:34:27.765625000,-46.0,4.0,45.0,94.1046875,-16.46,1.8551065,32.41
2021-07-06 10:34:27.773437500,-46.0,4.0,45.0,94.10453125,-18.61,1.85482625,32.41
2021-07-06 10:34:27.781250000,-46.0,4.0,45.0,94.10437499999999,-20.76,1.854546,32.41
2021-07-06 10:34:27.789062500,-46.0,4.0,45.0,94.10421875,-23.275,1.85426575,32.41
2021-07-06 10:34:27.796875000,-46.0,4.0,45.0,94.1040625,-25.79,1.8539855,32.41
2021-07-06 10:34:27.804687500,-46.0,4.0,45.0,94.10390625,-28.575,1.85370525,32.41
2021-07-06 10:34:27.812500000,-46.0,4.0,45.0,94.10374999999999,-31.36,1.853425,32.41
2021-07-06 10:34:27.820312500,-46.0,4.0,45.0,94.10359375,-34.120000000000005,1.85314475,32.41
2021-07-06 10:34:27.828125000,-46.0,4.0,45.0,94.1034375,-36.88,1.8528645,32.41
2021-07-06 10:34:27.835937500,-46.0,4.0,45.0,94.10328125,-39.125,1.85258425,32.41
2021-07-06 10:34:27.843750000,-46.0,4.0,45.0,94.10312499999999,-41.37,1.852304,32.41
2021-07-06 10:34:27.851562500,-46.0,4.0,45.0,94.10296875,-42.535,1.85202375,32.41
2021-07-06 10:34:27.859375000,-46.0,4.0,45.0,94.1028125,-43.7,1.8517435,32.41
2021-07-06 10:34:27.867187500,-46.0,4.0,45.0,94.10265625,-43.31,1.8514632500000001,32.41
2021-07-06 10:34:27.875000000,-46.0,4.0,45.0,94.10249999999999,-42.92,1.851183,32.41
2021-07-06 10:34:27.882812500,-46.0,4.0,45.0,94.10234374999999,-40.760000000000005,1.85090275,32.41
2021-07-06 10:34:27.890625000,-46.0,4.0,45.0,94.1021875,-38.6,1.8506225,32.41
2021-07-06 10:34:27.898437500,-46.0,4.0,45.0,94.10203125,-34.83,1.85034225,32.41
2021-07-06 10:34:27.906250000,-46.0,4.0,45.0,94.10187499999999,-31.06,1.850062,32.41
2021-07-06 10:34:27.914062500,-46.0,4.0,45.0,94.10171874999999,-26.189999999999998,1.84978175,32.41
2021-07-06 10:34:27.921875000,-46.0,4.0,45.0,94.1015625,-21.32,1.8495015000000001,32.41
2021-07-06 10:34:27.929687500,-46.0,4.0,45.0,94.10140625,-16.035,1.84922125,32.41
2021-07-06 10:34:27.937500000,-46.0,4.0,45.0,94.10125,-10.75,1.848941,32.41
2021-07-06 10:34:27.945312500,-46.0,4.0,45.0,94.10109374999999,-5.71,1.84866075,32.41
2021-07-06 10:34:27.953125000,-46.0,4.0,45.0,94.1009375,-0.67,1.8483805,32.41
2021-07-06 10:34:27.960937500,-46.0,4.0,45.0,94.10078125,3.67,1.84810025,32.41
2021-07-06 10:34:27.968750000,-46.0,4.0,45.0,94.100625,8.01,1.84782,32.41
2021-07-06 10:34:27.976562500,-46.0,4.0,45.0,94.10046874999999,11.455,1.8475397500000001,32.41
2021-07-06 10:34:27.984375000,-46.0,4.0,45.0,94.1003125,14.9,1.8472595,32.41
2021-07-06 10:34:27.992187500,-46.0,4.0,45.0,94.10015625,17.445,1.8469792500000002,32.41
2021-07-06 10:34:28.000000000,-46.0,4.0,45.0,94.1,19.99,1.846699,32.41
2021-07-06 10:34:28.007812500,-46.0,4.0,45.0,94.099609375,21.725,1.8469792500000002,32.41
2021-07-06 10:34:28.015625000,-46.0,4.0,45.0,94.09921874999999,23.46,1.8472595,32.41
2021-07-06 10:34:28.023437500,-46.0,4.0,45.0,94.098828125,24.46,1.8475397500000001,32.41
2021-07-06 10:34:28.031250000,-46.0,4.0,45.0,94.09843749999999,25.46,1.84782,32.41
2021-07-06 10:34:28.039062500,-46.0,4.0,45.0,94.098046875,25.785,1.84810025,32.41
2021-07-06 10:34:28.046875000,-46.0,4.0,45.0,94.09765625,26.11,1.8483805,32.41
2021-07-06 10:34:28.054687500,-46.0,4.0,45.0,94.09726562499999,25.805,1.84866075,32.41
2021-07-06 10:34:28.062500000,-46.0,4.0,45.0,94.096875,25.5,1.848941,32.41
2021-07-06 10:34:28.070312500,-46.25,4.0,45.0,94.09648437499999,24.705,1.84922125,32.41
2021-07-06 10:34:28.078125000,-46.5,4.0,45.0,94.09609375,23.91,1.8495015000000001,32.41
2021-07-06 10:34:28.085937500,-46.75,4.0,45.0,94.095703125,22.835,1.84978175,32.41
2021-07-06 10:34:28.093750000,-47.0,4.0,45.0,94.09531249999999,21.76,1.850062,32.41
2021-07-06 10:34:28.101562500,-46.75,4.0,45.0,94.094921875,20.675,1.85034225,32.41
2021-07-06 10:34:28.109375000,-46.5,4.0,45.0,94.09453124999999,19.59,1.8506225,32.41
2021-07-06 10:34:28.117187500,-46.25,4.0,45.0,94.094140625,18.725,1.85090275,32.41
2021-07-06 10:34:28.125000000,-46.0,4.0,45.0,94.09375,17.86,1.851183,32.41
2021-07-06 10:34:28.132812500,-46.0,4.0,45.0,94.09335937499999,17.36,1.8514632500000001,32.41
2021-07-06 10:34:28.140625000,-46.0,4.0,45.0,94.09296875,16.86,1.8517435,32.41
2021-07-06 10:34:28.148437500,-46.0,4.0,45.0,94.09257812499999,16.740000000000002,1.85202375,32.41
2021-07-06 10:34:28.156250000,-46.0,4.0,45.0,94.0921875,16.62,1.852304,32.41
2021-07-06 10:34:28.164062500,-46.0,4.0,45.0,94.091796875,16.78,1.85258425,32.41
2021-07-06 10:34:28.171875000,-46.0,4.0,45.0,94.09140624999999,16.94,1.8528645,32.41
2021-07-06 10:34:28.179687500,-46.0,4.0,45.0,94.091015625,17.240000000000002,1.85314475,32.41
2021-07-06 10:34:28.187500000,-46.0,4.0,45.0,94.09062499999999,17.54,1.853425,32.41
2021-07-06 10:34:28.195312500,-46.0,4.0,45.0,94.090234375,17.85,1.85370525,32.41
2021-07-06 10:34:28.203125000,-46.0,4.0,45.0,94.08984375,18.16,1.8539855,32.41
2021-07-06 10:34:28.210937500,-46.0,4.0,45.0,94.08945312499999,18.39,1.85426575,32.41
2021-07-06 10:34:28.218750000,-46.0,4.0,45.0,94.0890625,18.62,1.854546,32.41
2021-07-06 10:34:28.226562500,-46.25,4.0,45.0,94.08867187499999,18.700000000000003,1.85482625,32.41
2021-07-06 10:34:28.234375000,-46.5,4.0,45.0,94.08828125,18.78,1.8551065,32.41
2021-07-06 10:34:28.242187500,-46.75,4.0,45.0,94.087890625,18.645000000000003,1.8553867499999999,32.41
2021-07-06 10:34:28.250000000,-47.0,4.0,45.0,94.08749999999999,18.51,1.855667,32.41
2021-07-06 10:34:28.257812500,-46.75,4.0,45.0,94.087109375,18.060000000000002,1.85550684375,32.41
2021-07-06 10:34:28.265625000,-46.5,4.0,45.0,94.08671874999999,17.61,1.8553466875,32.41
2021-07-06 10:34:28.273437500,-46.25,4.0,45.0,94.086328125,16.745,1.85518653125,32.41
2021-07-06 10:34:28.281250000,-46.0,4.0,45.0,94.0859375,15.88,1.855026375,32.41
2021-07-06 10:34:28.289062500,-46.0,4.0,45.0,94.08554687499999,14.555,1.85486621875,32.41
2021-07-06 10:34:28.296875000,-46.0,4.0,45.0,94.08515625,13.23,1.8547060625,32.41
2021-07-06 10:34:28.304687500,-46.0,4.0,45.0,94.08476562499999,11.52,1.85454590625,32.41
2021-07-06 10:34:28.312500000,-46.0,4.0,45.0,94.084375,9.81,1.85438575,32.41
2021-07-06 10:34:28.320312500,-46.0,4.0,45.0,94.083984375,7.890000000000001,1.8542255937499998,32.41
2021-07-06 10:34:28.328125000,-46.0,4.0,45.0,94.08359374999999,5.97,1.8540654374999999,32.41
2021-07-06 10:34:28.335937500,-46.0,4.0,45.0,94.083203125,4.075,1.8539052812499999,32.41
2021-07-06 10:34:28.343750000,-46.0,4.0,45.0,94.08281249999999,2.18,1.8537451249999999,32.41
2021-07-06 10:34:28.351562500,-46.0,4.0,45.0,94.082421875,0.52,1.85358496875,32.41
2021-07-06 10:34:28.359375000,-46.0,4.0,45.0,94.08203125,-1.14,1.8534248125,32.41
2021-07-06 10:34:28.367187500,-46.0,4.0,45.0,94.08164062499999,-2.4850000000000003,1.85326465625,32.41
2021-07-06 10:34:28.375000000,-46.0,4.0,45.0,94.08125,-3.83,1.8531045,32.41
2021-07-06 10:34:28.382812500,-46.25,4.0,45.0,94.08085937499999,-4.92,1.85294434375,32.41
2021-07-06 10:34:28.390625000,-46.5,4.0,45.0,94.08046875,-6.01,1.8527841875,32.41
2021-07-06 10:34:28.398437500,-46.75,4.0,45.0,94.080078125,-7.035,1.85262403125,32.41
2021-07-06 10:34:28.406250000,-47.0,4.0,45.0,94.07968749999999,-8.06,1.852463875,32.41
2021-07-06 10:34:28.414062500,-46.75,4.0,45.0,94.079296875,-9.265,1.85230371875,32.41
2021-07-06 10:34:28.421875000,-46.5,4.0,45.0,94.07890624999999,-10.47,1.8521435625,32.41
2021-07-06 10:34:28.429687500,-46.25,4.0,45.0,94.078515625,-12.09,1.85198340625,32.41
2021-07-06 10:34:28.437500000,-46.0,4.0,45.0,94.078125,-13.71,1.8518232499999998,32.41
2021-07-06 10:34:28.445312500,-46.0,4.0,45.0,94.07773437499999,-15.855,1.8516630937499998,32.41
2021-07-06 10:34:28.453125000,-46.0,4.0,45.0,94.07734375,-18.0,1.8515029374999998,32.41
2021-07-06 10:34:28.460937500,-46.0,4.0,45.0,94.07695312499999,-20.61,1.8513427812499998,32.41
2021-07-06 10:34:28.468750000,-46.0,4.0,45.0,94.0765625,-23.22,1.8511826249999999,32.41
2021-07-06 10:34:28.476562500,-46.0,4.0,45.0,94.076171875,-26.009999999999998,1.8510224687499999,32.41
2021-07-06 10:34:28.484375000,-46.0,4.0,45.0,94.07578124999999,-28.8,1.8508623124999999,32.41
2021-07-06 10:34:28.492187500,-46.0,4.0,45.0,94.075390625,-31.33,1.85070215625,32.41
2021-07-06 10:34:28.500000000,-46.0,4.0,45.0,94.07499999999999,-33.86,1.850542,32.41
2021-07-06 10:34:28.507812500,-46.25,4.0,45.0,94.074609375,-35.57,1.8506220624999998,32.41
2021-07-06 10:34:28.515625000,-46.5,4.0,45.0,94.07421875,-37.28,1.850702125,32.41
2021-07-06 10:34:28.523437500,-46.75,4.0,45.0,94.07382812499999,-37.675,1.8507821875,32.41
2021-07-06 10:34:28.531250000,-47.0,4.0,45.0,94.0734375,-38.07,1.85086225,32.41
2021-07-06 10:34:28.539062500,-46.75,4.0,45.0,94.073046875,-36.85,1.8509423125,32.41
2021-07-06 10:34:28.546875000,-46.5,4.0,45.0,94.07265625,-35.63,1.8510223749999999,32.41
2021-07-06 10:34:28.554687500,-46.25,4.0,45.0,94.072265625,-32.82,1.8511024375,32.41
2021-07-06 10:34:28.562500000,-46.0,4.0,45.0,94.07187499999999,-30.01,1.8511825,32.41
2021-07-06 10:34:28.570312500,-46.0,4.0,45.0,94.071484375,-25.950000000000003,1.8512625624999999,32.41
2021-07-06 10:34:28.578125000,-46.0,4.0,45.0,94.07109375,-21.89,1.851342625,32.41
2021-07-06 10:34:28.585937500,-46.0,4.0,45.0,94.070703125,-17.13,1.8514226875,32.41
2021-07-06 10:34:28.593750000,-46.0,4.0,45.0,94.0703125,-12.37,1.8515027499999999,32.41
2021-07-06 10:34:28.601562500,-46.0,4.0,45.0,94.06992187499999,-7.52,1.8515828125,32.41
2021-07-06 10:34:28.609375000,-46.0,4.0,45.0,94.06953125,-2.67,1.851662875,32.41
2021-07-06 10:34:28.617187500,-46.0,4.0,45.0,94.069140625,1.755,1.8517429375,32.41
2021-07-06 10:34:28.625000000,-46.0,4.0,45.0,94.06875,6.18,1.851823,32.41
2021-07-06 10:34:28.632812500,-46.0,4.0,45.0,94.068359375,9.825,1.8519030625,32.41
2021-07-06 10:34:28.640625000,-46.0,4.0,45.0,94.06796874999999,13.47,1.851983125,32.41
2021-07-06 10:34:28.648437500,-46.0,4.0,45.0,94.067578125,16.18,1.8520631875,32.41
2021-07-06 10:34:28.656250000,-46.0,4.0,45.0,94.0671875,18.89,1.8521432500000001,32.41
2021-07-06 10:34:28.664062500,-46.0,4.0,45.0,94.066796875,20.625,1.8522233125,32.41
2021-07-06 10:34:28.671875000,-46.0,4.0,45.0,94.06640625,22.36,1.852303375,32.41
2021-07-06 10:34:28.679687500,-46.0,4.0,45.0,94.06601562499999,23.18,1.8523834375000001,32.41
2021-07-06 10:34:28.687500000,-46.0,4.0,45.0,94.065625,24.0,1.8524635,32.41
2021-07-06 10:34:28.695312500,-46.0,4.0,45.0,94.065234375,24.03,1.8525435625,32.41
2021-07-06 10:34:28.703125000,-46.0,4.0,45.0,94.06484375,24.06,1.852623625,32.41
2021-07-06 10:34:28.710937500,-46.0,4.0,45.0,94.064453125,23.46,1.8527036875,32.41
2021-07-06 10:34:28.718750000,-46.0,4.0,45.0,94.06406249999999,22.86,1.85278375,32.41
2021-07-06 10:34:28.726562500,-46.0,4.0,45.0,94.063671875,21.85,1.8528638125,32.41
2021-07-06 10:34:28.734375000,-46.0,4.0,45.0,94.06328125,20.84,1.852943875,32.41
2021-07-06 10:34:28.742187500,-46.0,4.0,45.0,94.062890625,19.67,1.8530239375000002,32.41
2021-07-06 10:34:28.750000000,-46.0,4.0,45.0,94.0625,18.5,1.853104,32.41
2021-07-06 10:34:28.757812500,-46.0,4.0,45.0,94.06210937499999,17.405,1.85314403125,32.41
2021-07-06 10:34:28.765625000,-46.0,4.0,45.0,94.06171875,16.31,1.8531840625,32.41
2021-07-06 10:34:28.773437500,-46.0,4.0,45.0,94.061328125,15.45,1.85322409375,32.41
2021-07-06 10:34:28.781250000,-46.0,4.0,45.0,94.0609375,14.59,1.8532641250000002,32.41
2021-07-06 10:34:28.789062500,-46.0,4.0,45.0,94.060546875,14.045,1.8533041562500001,32.41
2021-07-06 10:34:28.796875000,-46.0,4.0,45.0,94.06015624999999,13.5,1.8533441875,32.41
2021-07-06 10:34:28.804687500,-46.0,4.0,45.0,94.059765625,13.245000000000001,1.85338421875,32.41
2021-07-06 10:34:28.812500000,-46.0,4.0,45.0,94.059375,12.99,1.85342425,32.41
2021-07-06 10:34:28.820312500,-46.0,4.0,45.0,94.058984375,12.96,1.85346428125,32.41
2021-07-06 10:34:28.828125000,-46.0,4.0,45.0,94.05859375,12.93,1.8535043125000001,32.41
2021-07-06 10:34:28.835937500,-46.0,4.0,45.0,94.05820312499999,13.030000000000001,1.85354434375,32.41
2021-07-06 10:34:28.843750000,-46.0,4.0,45.0,94.0578125,13.13,1.853584375,32.41
2021-07-06 10:34:28.851562500,-46.0,4.0,45.0,94.057421875,13.305,1.85362440625,32.41
2021-07-06 10:34:28.859375000,-46.0,4.0,45.0,94.05703125,13.48,1.8536644375,32.41
2021-07-06 10:34:28.867187500,-46.0,4.0,45.0,94.056640625,13.690000000000001,1.85370446875,32.41
2021-07-06 10:34:28.875000000,-46.0,4.0,45.0,94.05624999999999,13.9,1.8537445,32.41
2021-07-06 10:34:28.882812500,-46.0,4.0,45.0,94.055859375,14.115,1.85378453125,32.41
2021-07-06 10:34:28.890625000,-46.0,4.0,45.0,94.05546875,14.33,1.8538245625,32.41
2021-07-06 10:34:28.898437500,-46.0,4.0,45.0,94.055078125,14.485,1.85386459375,32.41
2021-07-06 10:34:28.906250000,-46.0,4.0,45.0,94.0546875,14.64,1.853904625,32.41
2021-07-06 10:34:28.914062500,-46.0,4.0,45.0,94.05429687499999,14.615,1.85394465625,32.41
2021-07-06 10:34:28.921875000,-46.0,4.0,45.0,94.05390625,14.59,1.8539846875,32.41
2021-07-06 10:34:28.929687500,-46.0,4.0,45.0,94.053515625,14.265,1.85402471875,32.41
2021-07-06 10:34:28.937500000,-46.0,4.0,45.0,94.053125,13.94,1.85406475,32.41
2021-07-06 10:34:28.945312500,-46.0,4.0,45.0,94.052734375,13.19,1.85410478125,32.41
2021-07-06 10:34:28.953125000,-46.0,4.0,45.0,94.05234374999999,12.44,1.8541448125,32.41
2021-07-06 10:34:28.960937500,-46.0,4.0,45.0,94.051953125,11.25,1.85418484375,32.41
2021-07-06 10:34:28.968750000,-46.0,4.0,45.0,94.0515625,10.06,1.8542248749999999,32.41
2021-07-06 10:34:28.976562500,-46.0,4.0,45.0,94.051171875,8.535,1.85426490625,32.41
2021-07-06 10:34:28.984375000,-46.0,4.0,45.0,94.05078125,7.01,1.8543049375,32.41
2021-07-06 10:34:28.992187500,-46.0,4.0,45.0,94.05039062499999,5.3149999999999995,1.85434496875,32.41
2021-07-06 10:34:29.000000000,-46.0,4.0,45.0,94.05,3.62,1.854385,32.41
2021-07-06 10:34:29.007812500,-46.0,4.0,45.0,94.049453125,1.97,1.8541448125,32.41
2021-07-06 10:34:29.015625000,-46.0,4.0,45.0,94.04890625,0.32,1.853904625,32.41
2021-07-06 10:34:29.023437500,-46.0,4.0,45.0,94.048359375,-1.14,1.8536644375,32.41
2021-07-06 10:34:29.031250000,-46.0,4.0,45.0,94.04781249999999,-2.6,1.85342425,32.41
2021-07-06 10:34:29.039062500,-46.0,4.0,45.0,94.047265625,-3.835,1.8531840625,32.41
2021-07-06 10:34:29.046875000,-46.0,4.0,45.0,94.04671875,-5.07,1.852943875,32.41
2021-07-06 10:34:29.054687500,-46.0,4.0,45.0,94.046171875,-6.140000000000001,1.8527036875,32.41
2021-07-06 10:34:29.062500000,-46.0,4.0,45.0,94.045625,-7.21,1.8524635,32.41
2021-07-06 10:34:29.070312500,-46.0,4.0,45.0,94.045078125,-8.24,1.8522233125,32.41
2021-07-06 10:34:29.078125000,-46.0,4.0,45.0,94.04453124999999,-9.27,1.851983125,32.41
2021-07-06 10:34:29.085937500,-46.0,4.0,45.0,94.043984375,-10.445,1.8517429375,32.41
2021-07-06 10:34:29.093750000,-46.0,4.0,45.0,94.0434375,-11.62,1.85150275,32.41
2021-07-06 10:34:29.101562500,-46.0,4.0,45.0,94.042890625,-13.105,1.8512625625,32.41
2021-07-06 10:34:29.109375000,-46.0,4.0,45.0,94.04234375,-14.59,1.851022375,32.41
2021-07-06 10:34:29.117187500,-46.0,4.0,45.0,94.041796875,-16.47,1.8507821875000001,32.41
2021-07-06 10:34:29.125000000,-46.0,4.0,45.0,94.04124999999999,-18.35,1.850542,32.41
2021-07-06 10:34:29.132812500,-46.0,4.0,45.0,94.040703125,-20.605,1.8503018125,32.41
2021-07-06 10:34:29.140625000,-46.0,4.0,45.0,94.04015625,-22.86,1.850061625,32.41
2021-07-06 10:34:29.148437500,-46.0,4.0,45.0,94.039609375,-25.29,1.8498214375,32.41
2021-07-06 10:34:29.156250000,-46.0,4.0,45.0,94.0390625,-27.72,1.84958125,32.41
2021-07-06 10:34:29.164062500,-46.0,4.0,45.0,94.038515625,-29.935,1.8493410625,32.41
2021-07-06 10:34:29.171875000,-46.0,4.0,45.0,94.03796875,-32.15,1.849100875,32.41
2021-07-06 10:34:29.179687500,-46.0,4.0,45.0,94.03742187499999,-33.629999999999995,1.8488606875,32.41
2021-07-06 10:34:29.187500000,-46.0,4.0,45.0,94.036875,-35.11,1.8486205,32.41
2021-07-06 10:34:29.195312500,-46.0,4.0,45.0,94.036328125,-35.370000000000005,1.8483803125,32.41
2021-07-06 10:34:29.203125000,-46.0,4.0,45.0,94.03578125,-35.63,1.848140125,32.41
2021-07-06 10:34:29.210937500,-46.0,4.0,45.0,94.035234375,-34.345,1.8478999375,32.41
2021-07-06 10:34:29.218750000,-46.0,4.0,45.0,94.0346875,-33.06,1.84765975,32.41
2021-07-06 10:34:29.226562500,-46.0,4.0,45.0,94.03414062499999,-30.23,1.8474195625,32.41
2021-07-06 10:34:29.234375000,-46.0,4.0,45.0,94.03359375,-27.4,1.847179375,32.41
2021-07-06 10:34:29.242187500,-46.0,4.0,45.0,94.033046875,-23.369999999999997,1.8469391875,32.41
2021-07-06 10:34:29.250000000,-46.0,4.0,45.0,94.0325,-19.34,1.846699,32.41
2021-07-06 10:34:29.257812500,-46.0,4.0,45.0,94.031953125,-14.684999999999999,1.846699,32.41
2021-07-06 10:34:29.265625000,-46.0,4.0,45.0,94.03140625,-10.03,1.846699,32.41
2021-07-06 10:34:29.273437500,-46.0,4.0,45.0,94.030859375,-5.404999999999999,1.846699,32.41
2021-07-06 10:34:29.281250000,-46.0,4.0,45.0,94.0303125,-0.78,1.846699,32.41
2021-07-06 10:34:29.289062500,-46.0,4.0,45.0,94.029765625,3.2849999999999993,1.846699,32.41
2021-07-06 10:34:29.296875000,-46.0,4.0,45.0,94.02921875,7.35,1.846699,32.41
2021-07-06 10:34:29.304687500,-46.0,4.0,45.0,94.028671875,10.565,1.846699,32.41
2021-07-06 10:34:29.312500000,-46.0,4.0,45.0,94.028125,13.78,1.846699,32.41
2021-07-06 10:34:29.320312500,-46.0,4.0,45.0,94.027578125,16.05,1.846699,32.41
2021-07-06 10:34:29.328125000,-46.0,4.0,45.0,94.02703125,18.32,1.846699,32.41
2021-07-06 10:34:29.335937500,-46.0,4.0,45.0,94.026484375,19.7,1.846699,32.41
2021-07-06 10:34:29.343750000,-46.0,4.0,45.0,94.0259375,21.08,1.846699,32.41
2021-07-06 10:34:29.351562500,-46.0,4.0,45.0,94.025390625,21.659999999999997,1.846699,32.41
2021-07-06 10:34:29.359375000,-46.0,4.0,45.0,94.02484375,22.24,1.846699,32.41
2021-07-06 10:34:29.367187500,-46.0,4.0,45.0,94.024296875,22.095,1.846699,32.41
2021-07-06 10:34:29.375000000,-46.0,4.0,45.0,94.02375,21.95,1.846699,32.41
2021-07-06 10:34:29.382812500,-46.0,4.0,45.0,94.023203125,21.17,1.846699,32.41
2021-07-06 10:34:29.390625000,-46.0,4.0,45.0,94.02265625,20.39,1.846699,32.41
2021-07-06 10:34:29.398437500,-46.0,4.0,45.0,94.022109375,19.12,1.846699,32.41
2021-07-06 10:34:29.406250000,-46.0,4.0,45.0,94.0215625,17.85,1.846699,32.41
2021-07-06 10:34:29.414062500,-46.0,4.0,45.0,94.021015625,16.310000000000002,1.846699,32.41
2021-07-06 10:34:29.421875000,-46.0,4.0,45.0,94.02046875,14.77,1.846699,32.41
2021-07-06 10:34:29.429687500,-46.0,4.0,45.0,94.019921875,13.245000000000001,1.846699,32.41
2021-07-06 10:34:29.437500000,-46.0,4.0,45.0,94.019375,11.72,1.846699,32.41
2021-07-06 10:34:29.445312500,-46.0,4.0,45.0,94.018828125,10.504999999999999,1.846699,32.41
2021-07-06 10:34:29.453125000,-46.0,4.0,45.0,94.01828125,9.29,1.846699,32.41
2021-07-06 10:34:29.460937500,-46.0,4.0,45.0,94.017734375,8.555,1.846699,32.41
2021-07-06 10:34:29.468750000,-46.0,4.0,45.0,94.0171875,7.82,1.846699,32.41
2021-07-06 10:34:29.476562500,-46.0,4.0,45.0,94.016640625,7.595000000000001,1.846699,32.41
2021-07-06 10:34:29.484375000,-46.0,4.0,45.0,94.01609375,7.37,1.846699,32.41
2021-07-06 10:34:29.492187500,-46.0,4.0,45.0,94.015546875,7.58,1.846699,32.41
2021-07-06 10:34:29.500000000,-46.0,4.0,45.0,94.015,7.79,1.846699,32.41
2021-07-06 10:34:29.507812500,-46.0,4.0,45.0,94.014453125,8.26,1.8466189375000002,32.41
2021-07-06 10:34:29.515625000,-46.0,4.0,45.0,94.01390625,8.73,1.846538875,32.41
2021-07-06 10:34:29.523437500,-46.0,4.0,45.0,94.01335937500001,9.295,1.8464588125,32.41
2021-07-06 10:34:29.531250000,-46.0,4.0,45.0,94.0128125,9.86,1.84637875,32.41
2021-07-06 10:34:29.539062500,-46.0,4.0,45.0,94.012265625,10.399999999999999,1.8462986875,32.41
2021-07-06 10:34:29.546875000,-46.0,4.0,45.0,94.01171875,10.94,1.8462186250000001,32.41
2021-07-06 10:34:29.554687500,-46.0,4.0,45.0,94.011171875,11.35,1.8461385625,32.41
2021-07-06 10:34:29.562500000,-46.0,4.0,45.0,94.010625,11.76,1.8460585,32.41
2021-07-06 10:34:29.570312500,-46.25,4.0,45.0,94.010078125,11.95,1.8459784375000001,32.41
2021-07-06 10:34:29.578125000,-46.5,4.0,45.0,94.00953125,12.14,1.845898375,32.41
2021-07-06 10:34:29.585937500,-46.75,4.0,45.0,94.008984375,12.0,1.8458183125,32.41
2021-07-06 10:34:29.593750000,-47.0,4.0,45.0,94.0084375,11.86,1.8457382500000001,32.41
2021-07-06 10:34:29.601562500,-46.75,4.0,45.0,94.007890625,11.305,1.8456581875,32.41
2021-07-06 10:34:29.609375000,-46.5,4.0,45.0,94.00734375,10.75,1.845578125,32.41
2021-07-06 10:34:29.617187500,-46.25,4.0,45.0,94.006796875,9.754999999999999,1.8454980625,32.41
2021-07-06 10:34:29.625000000,-46.0,4.0,45.0,94.00625,8.76,1.845418,32.41
2021-07-06 10:34:29.632812500,-46.0,4.0,45.0,94.005703125,7.404999999999999,1.8453379375,32.41
2021-07-06 10:34:29.640625000,-46.0,4.0,45.0,94.00515625,6.05,1.845257875,32.41
2021-07-06 10:34:29.648437500,-46.0,4.0,45.0,94.004609375,4.49,1.8451778125,32.41
2021-07-06 10:34:29.656250000,-46.0,4.0,45.0,94.0040625,2.93,1.8450977499999999,32.41
2021-07-06 10:34:29.664062500,-46.0,4.0,45.0,94.003515625,1.35,1.8450176875,32.41
2021-07-06 10:34:29.671875000,-46.0,4.0,45.0,94.00296875000001,-0.23,1.844937625,32.41
2021-07-06 10:34:29.679687500,-46.0,4.0,45.0,94.002421875,-1.68,1.8448575624999999,32.41
2021-07-06 10:34:29.687500000,-46.0,4.0,45.0,94.001875,-3.13,1.8447775,32.41
2021-07-06 10:34:29.695312500,-46.0,4.0,45.0,94.001328125,-4.404999999999999,1.8446974375,32.41
2021-07-06 10:34:29.703125000,-46.0,4.0,45.0,94.00078125,-5.68,1.844617375,32.41
2021-07-06 10:34:29.710937500,-46.0,4.0,45.0,94.000234375,-6.824999999999999,1.8445373125,32.41
2021-07-06 10:34:29.718750000,-46.0,4.0,45.0,93.99968750000001,-7.97,1.84445725,32.41
2021-07-06 10:34:29.726562500,-46.0,4.0,45.0,93.999140625,-9.155,1.8443771875,32.41
2021-07-06 10:34:29.734375000,-46.0,4.0,45.0,93.99859375,-10.34,1.844297125,32.41
2021-07-06 10:34:29.742187500,-46.0,4.0,45.0,93.998046875,-11.76,1.8442170624999998,32.41
2021-07-06 10:34:29.750000000,-46.0,4.0,45.0,93.9975,-13.18,1.844137,32.41
2021-07-06 10:34:29.757812500,-46.0,4.0,45.0,93.996953125,-15.004999999999999,1.844137,32.41
2021-07-06 10:34:29.765625000,-46.0,4.0,45.0,93.99640625,-16.83,1.844137,32.41
2021-07-06 10:34:29.773437500,-46.0,4.0,45.0,93.99585937500001,-19.115,1.844137,32.41
2021-07-06 10:34:29.781250000,-46.0,4.0,45.0,93.9953125,-21.4,1.844137,32.41
2021-07-06 10:34:29.789062500,-46.0,4.0,45.0,93.994765625,-23.99,1.844137,32.41
2021-07-06 10:34:29.796875000,-46.0,4.0,45.0,93.99421875,-26.58,1.844137,32.41
2021-07-06 10:34:29.804687500,-46.0,4.0,45.0,93.993671875,-29.085,1.844137,32.41
2021-07-06 10:34:29.812500000,-46.0,4.0,45.0,93.993125,-31.59,1.844137,32.41
2021-07-06 10:34:29.820312500,-46.0,4.0,45.0,93.99257812500001,-33.465,1.844137,32.41
2021-07-06 10:34:29.828125000,-46.0,4.0,45.0,93.99203125,-35.34,1.844137,32.41
2021-07-06 10:34:29.835937500,-46.0,4.0,45.0,93.991484375,-36.02,1.844137,32.41
2021-07-06 10:34:29.843750000,-46.0,4.0,45.0,93.9909375,-36.7,1.844137,32.41
2021-07-06 10:34:29.851562500,-46.0,4.0,45.0,93.990390625,-35.790000000000006,1.844137,32.41
2021-07-06 10:34:29.859375000,-46.0,4.0,45.0,93.98984375,-34.88,1.844137,32.41
2021-07-06 10:34:29.867187500,-46.0,4.0,45.0,93.98929687500001,-32.315,1.844137,32.41
2021-07-06 10:34:29.875000000,-46.0,4.0,45.0,93.98875000000001,-29.75,1.844137,32.41
2021-07-06 10:34:29.882812500,-46.0,4.0,45.0,93.988203125,-25.825,1.844137,32.41
2021-07-06 10:34:29.890625000,-46.0,4.0,45.0,93.98765625,-21.9,1.844137,32.41
2021-07-06 10:34:29.898437500,-46.0,4.0,45.0,93.987109375,-17.18,1.844137,32.41
2021-07-06 10:34:29.906250000,-46.0,4.0,45.0,93.9865625,-12.46,1.844137,32.41
2021-07-06 10:34:29.914062500,-46.0,4.0,45.0,93.98601562500001,-7.61,1.844137,32.41
2021-07-06 10:34:29.921875000,-46.0,4.0,45.0,93.98546875000001,-2.76,1.844137,32.41
2021-07-06 10:34:29.929687500,-46.0,4.0,45.0,93.984921875,1.6449999999999996,1.844137,32.41
2021-07-06 10:34:29.937500000,-46.0,4.0,45.0,93.984375,6.05,1.844137,32.41
2021-07-06 10:34:29.945312500,-46.0,4.0,45.0,93.983828125,9.64,1.844137,32.41
2021-07-06 10:34:29.953125000,-46.0,4.0,45.0,93.98328125,13.23,1.844137,32.41
2021-07-06 10:34:29.960937500,-46.0,4.0,45.0,93.982734375,15.85,1.844137,32.41
2021-07-06 10:34:29.968750000,-46.0,4.0,45.0,93.98218750000001,18.47,1.844137,32.41
2021-07-06 10:34:29.976562500,-46.0,4.0,45.0,93.981640625,20.145,1.844137,32.41
2021-07-06 10:34:29.984375000,-46.0,4.0,45.0,93.98109375,21.82,1.844137,32.41
2021-07-06 10:34:29.992187500,-46.0,4.0,45.0,93.980546875,22.65,1.844137,32.41
2021-07-06 10:34:30.000000000,-46.0,4.0,45.0,93.98,23.48,1.844137,32.41
2021-07-06 10:34:30.007812500,-46.0,4.0,45.0,93.97953125000001,23.615000000000002,1.84389678125,32.409375
2021-07-06 10:34:30.015625000,-46.0,4.0,45.0,93.9790625,23.75,1.8436565624999999,32.40875
2021-07-06 10:34:30.023437500,-46.0,4.0,45.0,93.97859375,23.335,1.84341634375,32.408125
2021-07-06 10:34:30.031250000,-46.0,4.0,45.0,93.978125,22.92,1.8431761249999998,32.4075
2021-07-06 10:34:30.039062500,-46.0,4.0,45.0,93.97765625000001,22.11,1.84293590625,32.406875
2021-07-06 10:34:30.046875000,-46.0,4.0,45.0,93.9771875,21.3,1.8426956875,32.40625
2021-07-06 10:34:30.054687500,-46.0,4.0,45.0,93.97671875,20.27,1.8424554687499999,32.405625
2021-07-06 10:34:30.062500000,-46.0,4.0,45.0,93.97625000000001,19.24,1.84221525,32.405
2021-07-06 10:34:30.070312500,-46.0,4.0,45.0,93.97578125,18.18,1.8419750312499998,32.404374999999995
2021-07-06 10:34:30.078125000,-46.0,4.0,45.0,93.9753125,17.12,1.8417348125,32.403749999999995
2021-07-06 10:34:30.085937500,-46.0,4.0,45.0,93.97484375,16.2,1.84149459375,32.403124999999996
2021-07-06 10:34:30.093750000,-46.0,4.0,45.0,93.97437500000001,15.28,1.8412543749999999,32.402499999999996
2021-07-06 10:34:30.101562500,-46.0,4.0,45.0,93.97390625,14.629999999999999,1.84101415625,32.401875
2021-07-06 10:34:30.109375000,-46.0,4.0,45.0,93.9734375,13.98,1.8407739374999998,32.40125
2021-07-06 10:34:30.117187500,-46.0,4.0,45.0,93.97296875,13.645,1.84053371875,32.400625
2021-07-06 10:34:30.125000000,-46.0,4.0,45.0,93.9725,13.31,1.8402935,32.4
2021-07-06 10:34:30.132812500,-46.0,4.0,45.0,93.97203125,13.23,1.84005328125,32.399375
2021-07-06 10:34:30.140625000,-46.0,4.0,45.0,93.9715625,13.15,1.8398130625,32.39875
2021-07-06 10:34:30.148437500,-46.0,4.0,45.0,93.97109375000001,13.225000000000001,1.8395728437499999,32.398125
2021-07-06 10:34:30.156250000,-46.0,4.0,45.0,93.970625,13.3,1.839332625,32.3975
2021-07-06 10:34:30.164062500,-46.0,4.0,45.0,93.97015625,13.385000000000002,1.8390924062499998,32.396875
2021-07-06 10:34:30.171875000,-46.0,4.0,45.0,93.9696875,13.47,1.8388521875,32.39625
2021-07-06 10:34:30.179687500,-46.0,4.0,45.0,93.96921875000001,13.5,1.83861196875,32.395625
2021-07-06 10:34:30.187500000,-46.0,4.0,45.0,93.96875,13.53,1.8383717499999999,32.394999999999996
2021-07-06 10:34:30.195312500,-46.0,4.0,45.0,93.96828125,13.48,1.83813153125,32.394375
2021-07-06 10:34:30.203125000,-46.0,4.0,45.0,93.96781250000001,13.43,1.8378913124999998,32.39375
2021-07-06 10:34:30.210937500,-46.0,4.0,45.0,93.96734375,13.305,1.83765109375,32.393125
2021-07-06 10:34:30.218750000,-46.0,4.0,45.0,93.966875,13.18,1.837410875,32.3925
2021-07-06 10:34:30.226562500,-46.25,4.0,45.0,93.96640625,12.955,1.8371706562499999,32.391875
2021-07-06 10:34:30.234375000,-46.5,4.0,45.0,93.96593750000001,12.73,1.8369304375,32.39125
2021-07-06 10:34:30.242187500,-46.75,4.0,45.0,93.96546875,12.33,1.8366902187499998,32.390625
2021-07-06 10:34:30.250000000,-47.0,4.0,45.0,93.965,11.93,1.83645,32.39
2021-07-06 10:34:30.257812500,-46.75,4.0,45.0,93.96453125000001,11.215,1.83657009375,32.39
2021-07-06 10:34:30.265625000,-46.5,4.0,45.0,93.9640625,10.5,1.8366901875,32.39
2021-07-06 10:34:30.273437500,-46.25,4.0,45.0,93.96359375,9.344999999999999,1.83681028125,32.39
2021-07-06 10:34:30.281250000,-46.0,4.0,45.0,93.963125,8.19,1.836930375,32.39
2021-07-06 10:34:30.289062500,-46.0,4.0,45.0,93.96265625000001,6.5649999999999995,1.83705046875,32.39
2021-07-06 10:34:30.296875000,-46.0,4.0,45.0,93.9621875,4.94,1.8371705624999999,32.39
2021-07-06 10:34:30.304687500,-46.0,4.0,45.0,93.96171875,2.95,1.83729065625,32.39
2021-07-06 10:34:30.312500000,-46.0,4.0,45.0,93.96125,0.96,1.8374107499999999,32.39
2021-07-06 10:34:30.320312500,-46.0,4.0,45.0,93.96078125,-1.1950000000000003,1.83753084375,32.39
2021-07-06 10:34:30.328125000,-46.0,4.0,45.0,93.9603125,-3.35,1.8376509374999999,32.39
2021-07-06 10:34:30.335937500,-46.0,4.0,45.0,93.95984375,-5.43,1.83777103125,32.39
2021-07-06 10:34:30.343750000,-46.0,4.0,45.0,93.95937500000001,-7.51,1.8378911249999998,32.39
2021-07-06 10:34:30.351562500,-46.0,4.0,45.0,93.95890625,-9.335,1.83801121875,32.39
2021-07-06 10:34:30.359375000,-46.0,4.0,45.0,93.9584375,-11.16,1.8381313124999998,32.39
2021-07-06 10:34:30.367187500,-46.0,4.0,45.0,93.95796875,-12.665,1.83825140625,32.39
2021-07-06 10:34:30.375000000,-46.0,4.0,45.0,93.95750000000001,-14.17,1.8383715,32.39
2021-07-06 10:34:30.382812500,-46.0,4.0,45.0,93.95703125,-15.425,1.83849159375,32.39
2021-07-06 10:34:30.390625000,-46.0,4.0,45.0,93.9565625,-16.68,1.8386116875,32.39
2021-07-06 10:34:30.398437500,-46.0,4.0,45.0,93.95609375000001,-17.865000000000002,1.83873178125,32.39
2021-07-06 10:34:30.406250000,-46.0,4.0,45.0,93.955625,-19.05,1.838851875,32.39
2021-07-06 10:34:30.414062500,-46.0,4.0,45.0,93.95515625,-20.425,1.83897196875,32.39
2021-07-06 10:34:30.421875000,-46.0,4.0,45.0,93.9546875,-21.8,1.8390920625,32.39
2021-07-06 10:34:30.429687500,-46.0,4.0,45.0,93.95421875000001,-23.57,1.83921215625,32.39
2021-07-06 10:34:30.437500000,-46.0,4.0,45.0,93.95375,-25.34,1.83933225,32.39
2021-07-06 10:34:30.445312500,-46.0,4.0,45.0,93.95328125,-27.575,1.8394523437499999,32.39
2021-07-06 10:34:30.453125000,-46.0,4.0,45.0,93.95281250000001,-29.81,1.8395724375,32.39
2021-07-06 10:34:30.460937500,-46.0,4.0,45.0,93.95234375,-32.32,1.8396925312499999,32.39
2021-07-06 10:34:30.468750000,-46.0,4.0,45.0,93.951875,-34.83,1.839812625,32.39
2021-07-06 10:34:30.476562500,-46.0,4.0,45.0,93.95140625,-37.17,1.8399327187499999,32.39
2021-07-06 10:34:30.484375000,-46.0,4.0,45.0,93.95093750000001,-39.51,1.8400528125,32.39
2021-07-06 10:34:30.492187500,-46.0,4.0,45.0,93.95046875,-41.055,1.8401729062499999,32.39
2021-07-06 10:34:30.500000000,-46.0,4.0,45.0,93.95,-42.6,1.840293,32.39
2021-07-06 10:34:30.507812500,-46.0,4.0,45.0,93.94953125,-42.765,1.8401729062499999,32.39
2021-07-06 10:34:30.515625000,-46.0,4.0,45.0,93.9490625,-42.93,1.8400528125,32.39
2021-07-06 10:34:30.523437500,-46.0,4.0,45.0,93.94859375,-41.370000000000005,1.8399327187499999,32.39
2021-07-06 10:34:30.531250000,-46.0,4.0,45.0,93.948125,-39.81,1.839812625,32.39
2021-07-06 10:34:30.539062500,-46.0,4.0,45.0,93.94765625000001,-36.58,1.8396925312499999,32.39
2021-07-06 10:34:30.546875000,-46.0,4.0,45.0,93.9471875,-33.35,1.8395724375,32.39
2021-07-06 10:34:30.554687500,-46.0,4.0,45.0,93.94671875,-28.885,1.8394523437499999,32.39
2021-07-06 10:34:30.562500000,-46.0,4.0,45.0,93.94625,-24.42,1.83933225,32.39
2021-07-06 10:34:30.570312500,-46.0,4.0,45.0,93.94578125,-19.375,1.83921215625,32.39
2021-07-06 10:34:30.578125000,-46.0,4.0,45.0,93.9453125,-14.33,1.8390920625,32.39
2021-07-06 10:34:30.585937500,-46.0,4.0,45.0,93.94484375,-9.375,1.83897196875,32.39
2021-07-06 10:34:30.593750000,-46.0,4.0,45.0,93.94437500000001,-4.42,1.838851875,32.39
2021-07-06 10:34:30.601562500,-46.25,4.0,45.0,93.94390625,-0.0600000000000005,1.83873178125,32.39
2021-07-06 10:34:30.609375000,-46.5,4.0,45.0,93.9434375,4.3,1.8386116875,32.39
2021-07-06 10:34:30.617187500,-46.75,4.0,45.0,93.94296875,7.83,1.83849159375,32.39
2021-07-06 10:34:30.625000000,-47.0,4.0,45.0,93.9425,11.36,1.8383715,32.39
2021-07-06 10:34:30.632812500,-46.75,4.0,45.0,93.94203125,14.0,1.83825140625,32.39
2021-07-06 10:34:30.640625000,-46.5,4.0,45.0,93.9415625,16.64,1.8381313124999998,32.39
2021-07-06 10:34:30.648437500,-46.25,4.0,45.0,93.94109375000001,18.439999999999998,1.83801121875,32.39
2021-07-06 10:34:30.656250000,-46.0,4.0,45.0,93.940625,20.24,1.8378911249999998,32.39
2021-07-06 10:34:30.664062500,-46.0,4.0,45.0,93.94015625,21.255,1.83777103125,32.39
2021-07-06 10:34:30.671875000,-46.0,4.0,45.0,93.9396875,22.27,1.8376509374999999,32.39
2021-07-06 10:34:30.679687500,-46.0,4.0,45.0,93.93921875000001,22.575,1.83753084375,32.39
2021-07-06 10:34:30.687500000,-46.0,4.0,45.0,93.93875,22.88,1.8374107499999999,32.39
2021-07-06 10:34:30.695312500,-46.0,4.0,45.0,93.93828125,22.575,1.83729065625,32.39
2021-07-06 10:34:30.703125000,-46.0,4.0,45.0,93.9378125,22.27,1.8371705624999999,32.39
2021-07-06 10:34:30.710937500,-46.0,4.0,45.0,93.93734375,21.545,1.83705046875,32.39
2021-07-06 10:34:30.718750000,-46.0,4.0,45.0,93.936875,20.82,1.836930375,32.39
2021-07-06 10:34:30.726562500,-46.0,4.0,45.0,93.93640625,19.935000000000002,1.83681028125,32.39
2021-07-06 10:34:30.734375000,-46.0,4.0,45.0,93.93593750000001,19.05,1.8366901875,32.39
2021-07-06 10:34:30.742187500,-46.0,4.0,45.0,93.93546875,18.29,1.83657009375,32.39
2021-07-06 10:34:30.750000000,-46.0,4.0,45.0,93.935,17.53,1.83645,32.39
2021-07-06 10:34:30.757812500,-46.0,4.0,45.0,93.93453125,17.105,1.83645,32.39
2021-07-06 10:34:30.765625000,-46.0,4.0,45.0,93.9340625,16.68,1.83645,32.39
2021-07-06 10:34:30.773437500,-46.0,4.0,45.0,93.93359375,16.66,1.83645,32.39
2021-07-06 10:34:30.781250000,-46.0,4.0,45.0,93.933125,16.64,1.83645,32.39
2021-07-06 10:34:30.789062500,-46.0,4.0,45.0,93.93265625000001,16.925,1.83645,32.39
2021-07-06 10:34:30.796875000,-46.0,4.0,45.0,93.9321875,17.21,1.83645,32.39
2021-07-06 10:34:30.804687500,-46.0,4.0,45.0,93.93171875,17.61,1.83645,32.39
2021-07-06 10:34:30.812500000,-46.0,4.0,45.0,93.93125,18.01,1.83645,32.39
2021-07-06 10:34:30.820312500,-46.25,4.0,45.0,93.93078125,18.33,1.83645,32.39
2021-07-06 10:34:30.828125000,-46.5,4.0,45.0,93.9303125,18.65,1.83645,32.39
2021-07-06 10:34:30.835937500,-46.75,4.0,45.0,93.92984375,18.765,1.83645,32.39
2021-07-06 10:34:30.843750000,-47.0,4.0,45.0,93.92937500000001,18.88,1.83645,32.39
2021-07-06 10:34:30.851562500,-46.75,4.0,45.0,93.92890625,18.785,1.83645,32.39
2021-07-06 10:34:30.859375000,-46.5,4.0,45.0,93.9284375,18.69,1.83645,32.39
2021-07-06 10:34:30.867187500,-46.25,4.0,45.0,93.92796875,18.455,1.83645,32.39
2021-07-06 10:34:30.875000000,-46.0,4.0,45.0,93.92750000000001,18.22,1.83645,32.39
2021-07-06 10:34:30.882812500,-46.0,4.0,45.0,93.92703125,17.939999999999998,1.83645,32.39
2021-07-06 10:34:30.890625000,-46.0,4.0,45.0,93.9265625,17.66,1.83645,32.39
2021-07-06 10:34:30.898437500,-46.0,4.0,45.0,93.92609375,17.36,1.83645,32.39
2021-07-06 10:34:30.906250000,-46.0,4.0,45.0,93.925625,17.06,1.83645,32.39
2021-07-06 10:34:30.914062500,-46.0,4.0,45.0,93.92515625,16.695,1.83645,32.39
2021-07-06 10:34:30.921875000,-46.0,4.0,45.0,93.9246875,16.33,1.83645,32.39
2021-07-06 10:34:30.929687500,-46.0,4.0,45.0,93.92421875000001,15.78,1.83645,32.39
2021-07-06 10:34:30.937500000,-46.0,4.0,45.0,93.92375,15.23,1.83645,32.39
2021-07-06 10:34:30.945312500,-46.25,4.0,45.0,93.92328125,14.385,1.83645,32.39
2021-07-06 10:34:30.953125000,-46.5,4.0,45.0,93.9228125,13.54,1.83645,32.39
2021-07-06 10:34:30.960937500,-46.75,4.0,45.0,93.92234375,12.305,1.83645,32.39
2021-07-06 10:34:30.968750000,-47.0,4.0,45.0,93.921875,11.07,1.83645,32.39
2021-07-06 10:34:30.976562500,-47.0,4.0,45.0,93.92140625,9.465,1.83645,32.39
2021-07-06 10:34:30.984375000,-47.0,4.0,45.0,93.92093750000001,7.86,1.83645,32.39
2021-07-06 10:34:30.992187500,-47.0,4.0,45.0,93.92046875,5.98,1.83645,32.39
2021-07-06 10:34:31.000000000,-47.0,4.0,45.0,93.92,4.1,1.83645,32.39
2021-07-06 10:34:31.007812500,-46.75,4.0,45.0,93.91921875,2.13,1.83645,32.390625
2021-07-06 10:34:31.015625000,-46.5,4.0,45.0,93.9184375,0.16,1.83645,32.39125
2021-07-06 10:34:31.023437500,-46.25,4.0,45.0,93.91765625000001,-1.7300000000000002,1.83645,32.391875
2021-07-06 10:34:31.031250000,-46.0,4.0,45.0,93.916875,-3.62,1.83645,32.3925
2021-07-06 10:34:31.039062500,-46.0,4.0,45.0,93.91609375,-5.27,1.83645,32.393125
2021-07-06 10:34:31.046875000,-46.0,4.0,45.0,93.9153125,-6.92,1.83645,32.39375
2021-07-06 10:34:31.054687500,-46.0,4.0,45.0,93.91453125,-8.295,1.83645,32.394375
2021-07-06 10:34:31.062500000,-46.0,4.0,45.0,93.91375000000001,-9.67,1.83645,32.394999999999996
2021-07-06 10:34:31.070312500,-46.0,4.0,45.0,93.91296875,-10.84,1.83645,32.395625
2021-07-06 10:34:31.078125000,-46.0,4.0,45.0,93.9121875,-12.01,1.83645,32.39625
2021-07-06 10:34:31.085937500,-46.0,4.0,45.0,93.91140625,-13.145,1.83645,32.396875
2021-07-06 10:34:31.093750000,-46.0,4.0,45.0,93.910625,-14.28,1.83645,32.3975
2021-07-06 10:34:31.101562500,-46.0,4.0,45.0,93.90984375000001,-15.61,1.83645,32.398125
2021-07-06 10:34:31.109375000,-46.0,4.0,45.0,93.9090625,-16.94,1.83645,32.39875
2021-07-06 10:34:31.117187500,-46.0,4.0,45.0,93.90828125,-18.64,1.83645,32.399375
2021-07-06 10:34:31.125000000,-46.0,4.0,45.0,93.9075,-20.34,1.83645,32.4
2021-07-06 10:34:31.132812500,-46.0,4.0,45.0,93.90671875,-22.46,1.83645,32.400625
2021-07-06 10:34:31.140625000,-46.0,4.0,45.0,93.90593750000001,-24.58,1.83645,32.40125
2021-07-06 10:34:31.148437500,-46.0,4.0,45.0,93.90515625,-26.96,1.83645,32.401875
2021-07-06 10:34:31.156250000,-46.0,4.0,45.0,93.904375,-29.34,1.83645,32.402499999999996
2021-07-06 10:34:31.164062500,-46.25,4.0,45.0,93.90359375,-31.64,1.83645,32.403124999999996
2021-07-06 10:34:31.171875000,-46.5,4.0,45.0,93.9028125,-33.94,1.83645,32.403749999999995
2021-07-06 10:34:31.179687500,-46.75,4.0,45.0,93.90203125,-35.69,1.83645,32.404374999999995
2021-07-06 10:34:31.187500000,-47.0,4.0,45.0,93.90125,-37.44,1.83645,32.405
2021-07-06 10:34:31.195312500,-46.75,4.0,45.0,93.90046875,-38.18,1.83645,32.405625
2021-07-06 10:34:31.203125000,-46.5,4.0,45.0,93.8996875,-38.92,1.83645,32.40625
2021-07-06 10:34:31.210937500,-46.25,4.0,45.0,93.89890625,-38.31,1.83645,32.406875
2021-07-06 10:34:31.218750000,-46.0,4.0,45.0,93.898125,-37.7,1.83645,32.4075
2021-07-06 10:34:31.226562500,-46.0,4.0,45.0,93.89734375,-35.635000000000005,1.83645,32.408125
2021-07-06 10:34:31.234375000,-46.0,4.0,45.0,93.8965625,-33.57,1.83645,32.40875
2021-07-06 10:34:31.242187500,-46.0,4.0,45.0,93.89578125,-30.225,1.83645,32.409375
2021-07-06 10:34:31.250000000,-46.0,4.0,45.0,93.895,-26.88,1.83645,32.41
2021-07-06 10:34:31.257812500,-46.0,4.0,45.0,93.89421875,-22.65,1.83620978125,32.41
2021-07-06 10:34:31.265625000,-46.0,4.0,45.0,93.8934375,-18.42,1.8359695624999999,32.41
2021-07-06 10:34:31.273437500,-46.0,4.0,45.0,93.89265625,-13.845,1.83572934375,32.41
2021-07-06 10:34:31.281250000,-46.0,4.0,45.0,93.891875,-9.27,1.8354891249999998,32.41
2021-07-06 10:34:31.289062500,-46.25,4.0,45.0,93.89109375,-4.865,1.83524890625,32.41
2021-07-06 10:34:31.296875000,-46.5,4.0,45.0,93.8903125,-0.46,1.8350086875,32.41
2021-07-06 10:34:31.304687500,-46.75,4.0,45.0,93.88953125,3.355,1.8347684687499999,32.41
2021-07-06 10:34:31.312500000,-47.0,4.0,45.0,93.88875,7.17,1.83452825,32.41
2021-07-06 10:34:31.320312500,-46.75,4.0,45.0,93.88796875,10.165,1.8342880312499998,32.41
2021-07-06 10:34:31.328125000,-46.5,4.0,45.0,93.8871875,13.16,1.8340478125,32.41
2021-07-06 10:34:31.335937500,-46.25,4.0,45.0,93.88640625,15.255,1.83380759375,32.41
2021-07-06 10:34:31.343750000,-46.0,4.0,45.0,93.885625,17.35,1.8335673749999999,32.41
2021-07-06 10:34:31.351562500,-46.0,4.0,45.0,93.88484375,18.615000000000002,1.83332715625,32.41
2021-07-06 10:34:31.359375000,-46.0,4.0,45.0,93.8840625,19.88,1.8330869374999998,32.41
2021-07-06 10:34:31.367187500,-46.0,4.0,45.0,93.88328125,20.424999999999997,1.83284671875,32.41
2021-07-06 10:34:31.375000000,-46.0,4.0,45.0,93.8825,20.97,1.8326064999999998,32.41
2021-07-06 10:34:31.382812500,-46.25,4.0,45.0,93.88171875,20.915,1.83236628125,32.41
2021-07-06 10:34:31.390625000,-46.5,4.0,45.0,93.8809375,20.86,1.8321260625,32.41
2021-07-06 10:34:31.398437500,-46.75,4.0,45.0,93.88015625,20.335,1.8318858437499999,32.41
2021-07-06 10:34:31.406250000,-47.0,4.0,45.0,93.879375,19.81,1.831645625,32.41
2021-07-06 10:34:31.414062500,-46.75,4.0,45.0,93.87859375,18.955,1.8314054062499998,32.41
2021-07-06 10:34:31.421875000,-46.5,4.0,45.0,93.8778125,18.1,1.8311651875,32.41
2021-07-06 10:34:31.429687500,-46.25,4.0,45.0,93.87703125,17.1,1.83092496875,32.41
2021-07-06 10:34:31.437500000,-46.0,4.0,45.0,93.87625,16.1,1.8306847499999999,32.41
2021-07-06 10:34:31.445312500,-46.0,4.0,45.0,93.87546875,15.175,1.83044453125,32.41
2021-07-06 10:34:31.453125000,-46.0,4.0,45.0,93.8746875,14.25,1.8302043124999998,32.41
2021-07-06 10:34:31.460937500,-46.0,4.0,45.0,93.87390625,13.615,1.82996409375,32.41
2021-07-06 10:34:31.468750000,-46.0,4.0,45.0,93.873125,12.98,1.829723875,32.41
2021-07-06 10:34:31.476562500,-46.0,4.0,45.0,93.87234375,12.780000000000001,1.8294836562499999,32.41
2021-07-06 10:34:31.484375000,-46.0,4.0,45.0,93.8715625,12.58,1.8292434375,32.41
2021-07-06 10:34:31.492187500,-46.0,4.0,45.0,93.87078125,12.844999999999999,1.8290032187499998,32.41
2021-07-06 10:34:31.500000000,-46.0,4.0,45.0,93.87,13.11,1.828763,32.41
2021-07-06 10:34:31.507812500,-46.0,4.0,45.0,93.86921875,13.725,1.82884309375,32.41
2021-07-06 10:34:31.515625000,-46.0,4.0,45.0,93.8684375,14.34,1.8289231874999998,32.41
2021-07-06 10:34:31.523437500,-46.0,4.0,45.0,93.86765625,15.11,1.82900328125,32.41
2021-07-06 10:34:31.531250000,-46.0,4.0,45.0,93.866875,15.88,1.829083375,32.41
2021-07-06 10:34:31.539062500,-46.0,4.0,45.0,93.86609374999999,16.57,1.82916346875,32.41
2021-07-06 10:34:31.546875000,-46.0,4.0,45.0,93.8653125,17.26,1.8292435624999999,32.41
2021-07-06 10:34:31.554687500,-46.0,4.0,45.0,93.86453125,17.695,1.82932365625,32.41
2021-07-06 10:34:31.562500000,-46.0,4.0,45.0,93.86375,18.13,1.82940375,32.41
2021-07-06 10:34:31.570312500,-46.0,4.0,45.0,93.86296875,18.225,1.8294838437499998,32.41
2021-07-06 10:34:31.578125000,-46.0,4.0,45.0,93.86218749999999,18.32,1.8295639375,32.41
2021-07-06 10:34:31.585937500,-46.0,4.0,45.0,93.86140625,18.085,1.82964403125,32.41
2021-07-06 10:34:31.593750000,-46.0,4.0,45.0,93.860625,17.85,1.829724125,32.41
2021-07-06 10:34:31.601562500,-46.0,4.0,45.0,93.85984375,17.35,1.8298042187499999,32.41
2021-07-06 10:34:31.609375000,-46.0,4.0,45.0,93.8590625,16.85,1.8298843125,32.41
2021-07-06 10:34:31.617187500,-46.0,4.0,45.0,93.85828124999999,16.165,1.82996440625,32.41
2021-07-06 10:34:31.625000000,-46.0,4.0,45.0,93.8575,15.48,1.8300445,32.41
2021-07-06 10:34:31.632812500,-46.0,4.0,45.0,93.85671875,14.635,1.83012459375,32.41
2021-07-06 10:34:31.640625000,-46.0,4.0,45.0,93.8559375,13.79,1.8302046875,32.41
2021-07-06 10:34:31.648437500,-46.0,4.0,45.0,93.85515625,12.79,1.83028478125,32.41
2021-07-06 10:34:31.656250000,-46.0,4.0,45.0,93.85437499999999,11.79,1.830364875,32.41
2021-07-06 10:34:31.664062500,-46.0,4.0,45.0,93.85359375,10.605,1.83044496875,32.41
2021-07-06 10:34:31.671875000,-46.0,4.0,45.0,93.8528125,9.42,1.8305250625,32.41
2021-07-06 10:34:31.679687500,-46.0,4.0,45.0,93.85203125,8.025,1.83060515625,32.41
2021-07-06 10:34:31.687500000,-46.0,4.0,45.0,93.85125,6.63,1.83068525,32.41
2021-07-06 10:34:31.695312500,-46.0,4.0,45.0,93.85046874999999,5.0649999999999995,1.83076534375,32.41
2021-07-06 10:34:31.703125000,-46.0,4.0,45.0,93.8496875,3.5,1.8308454375,32.41
2021-07-06 10:34:31.710937500,-46.0,4.0,45.0,93.84890625,1.85,1.83092553125,32.41
2021-07-06 10:34:31.718750000,-46.0,4.0,45.0,93.848125,0.2,1.831005625,32.41
2021-07-06 10:34:31.726562500,-46.0,4.0,45.0,93.84734375,-1.3950000000000002,1.83108571875,32.41
2021-07-06 10:34:31.734375000,-46.0,4.0,45.0,93.84656249999999,-2.99,1.8311658125,32.41
2021-07-06 10:34:31.742187500,-46.0,4.0,45.0,93.84578125,-4.4,1.83124590625,32.41
2021-07-06 10:34:31.750000000,-46.0,4.0,45.0,93.845,-5.81,1.831326,32.41
2021-07-06 10:34:31.757812500,-46.0,4.0,45.0,93.84421875,-6.959999999999999,1.8311258125,32.41
2021-07-06 10:34:31.765625000,-46.0,4.0,45.0,93.8434375,-8.11,1.8309256250000001,32.41
2021-07-06 10:34:31.773437500,-46.0,4.0,45.0,93.84265624999999,-9.024999999999999,1.8307254375,32.41
2021-07-06 10:34:31.781250000,-46.0,4.0,45.0,93.841875,-9.94,1.83052525,32.41
2021-07-06 10:34:31.789062500,-46.0,4.0,45.0,93.84109375,-10.745000000000001,1.8303250625,32.41
2021-07-06 10:34:31.796875000,-46.0,4.0,45.0,93.8403125,-11.55,1.830124875,32.41
2021-07-06 10:34:31.804687500,-46.0,4.0,45.0,93.83953125,-12.415,1.8299246875,32.41
2021-07-06 10:34:31.812500000,-46.0,4.0,45.0,93.83874999999999,-13.28,1.8297245,32.41
2021-07-06 10:34:31.820312500,-46.0,4.0,45.0,93.83796875,-14.39,1.8295243125,32.41
2021-07-06 10:34:31.828125000,-46.0,4.0,45.0,93.8371875,-15.5,1.829324125,32.41
2021-07-06 10:34:31.835937500,-46.0,4.0,45.0,93.83640625,-16.98,1.8291239375000001,32.41
2021-07-06 10:34:31.843750000,-46.0,4.0,45.0,93.835625,-18.46,1.82892375,32.41
2021-07-06 10:34:31.851562500,-46.0,4.0,45.0,93.83484374999999,-20.310000000000002,1.8287235625,32.41
2021-07-06 10:34:31.859375000,-46.0,4.0,45.0,93.83406249999999,-22.16,1.828523375,32.41
2021-07-06 10:34:31.867187500,-46.0,4.0,45.0,93.83328125,-24.244999999999997,1.8283231875000001,32.41
2021-07-06 10:34:31.875000000,-46.0,4.0,45.0,93.8325,-26.33,1.8281230000000002,32.41
2021-07-06 10:34:31.882812500,-46.0,4.0,45.0,93.83171875,-28.369999999999997,1.8279228125,32.41
2021-07-06 10:34:31.890625000,-46.0,4.0,45.0,93.83093749999999,-30.41,1.827722625,32.41
2021-07-06 10:34:31.898437500,-46.0,4.0,45.0,93.83015624999999,-32.02,1.8275224375,32.41
2021-07-06 10:34:31.906250000,-46.0,4.0,45.0,93.829375,-33.63,1.8273222500000001,32.41
2021-07-06 10:34:31.914062500,-46.0,4.0,45.0,93.82859375,-34.435,1.8271220625,32.41
2021-07-06 10:34:31.921875000,-46.0,4.0,45.0,93.8278125,-35.24,1.826921875,32.41
2021-07-06 10:34:31.929687500,-46.0,4.0,45.0,93.82703124999999,-34.925,1.8267216875,32.41
2021-07-06 10:34:31.937500000,-46.0,4.0,45.0,93.82624999999999,-34.61,1.8265215000000001,32.41
2021-07-06 10:34:31.945312500,-46.0,4.0,45.0,93.82546875,-33.05,1.8263213125000002,32.41
2021-07-06 10:34:31.953125000,-46.0,4.0,45.0,93.8246875,-31.49,1.826121125,32.41
2021-07-06 10:34:31.960937500,-46.0,4.0,45.0,93.82390625,-28.75,1.8259209375,32.41
2021-07-06 10:34:31.968750000,-46.0,4.0,45.0,93.82312499999999,-26.01,1.8257207500000001,32.41
2021-07-06 10:34:31.976562500,-46.0,4.0,45.0,93.82234374999999,-22.380000000000003,1.8255205625000002,32.41
2021-07-06 10:34:31.984375000,-46.0,4.0,45.0,93.8215625,-18.75,1.825320375,32.41
2021-07-06 10:34:31.992187500,-46.0,4.0,45.0,93.82078125,-14.629999999999999,1.8251201875,32.41
2021-07-06 10:34:32.000000000,-46.0,4.0,45.0,93.82,-10.51,1.82492,32.41
2021-07-06 10:34:32.007812500,-46.0,4.0,45.0,93.81929687499999,-6.359999999999999,1.82496003125,32.409375
2021-07-06 10:34:32.015625000,-46.0,4.0,45.0,93.81859374999999,-2.21,1.8250000625,32.40875
2021-07-06 10:34:32.023437500,-46.0,4.0,45.0,93.81789062499999,1.5499999999999998,1.82504009375,32.408125
2021-07-06 10:34:32.031250000,-46.0,4.0,45.0,93.81718749999999,5.31,1.8250801250000002,32.4075
2021-07-06 10:34:32.039062500,-46.0,4.0,45.0,93.81648437499999,8.37,1.8251201562500001,32.406875
2021-07-06 10:34:32.046875000,-46.0,4.0,45.0,93.81578125,11.43,1.8251601875,32.40625
2021-07-06 10:34:32.054687500,-46.0,4.0,45.0,93.815078125,13.605,1.82520021875,32.405625
2021-07-06 10:34:32.062500000,-46.0,4.0,45.0,93.814375,15.78,1.82524025,32.405
2021-07-06 10:34:32.070312500,-46.0,4.0,45.0,93.813671875,17.005,1.82528028125,32.404374999999995
2021-07-06 10:34:32.078125000,-46.0,4.0,45.0,93.81296875,18.23,1.8253203125000002,32.403749999999995
2021-07-06 10:34:32.085937500,-46.0,4.0,45.0,93.812265625,18.58,1.8253603437500001,32.403124999999996
2021-07-06 10:34:32.093750000,-46.0,4.0,45.0,93.8115625,18.93,1.825400375,32.402499999999996
2021-07-06 10:34:32.101562500,-46.0,4.0,45.0,93.81085937499999,18.57,1.82544040625,32.401875
2021-07-06 10:34:32.109375000,-46.0,4.0,45.0,93.81015624999999,18.21,1.8254804375,32.40125
2021-07-06 10:34:32.117187500,-46.0,4.0,45.0,93.80945312499999,17.345,1.82552046875,32.400625
2021-07-06 10:34:32.125000000,-46.0,4.0,45.0,93.80874999999999,16.48,1.8255605,32.4
2021-07-06 10:34:32.132812500,-46.0,4.0,45.0,93.80804687499999,15.345,1.82560053125,32.399375
2021-07-06 10:34:32.140625000,-46.0,4.0,45.0,93.80734375,14.21,1.8256405625,32.39875
2021-07-06 10:34:32.148437500,-46.0,4.0,45.0,93.806640625,13.025,1.82568059375,32.398125
2021-07-06 10:34:32.156250000,-46.0,4.0,45.0,93.8059375,11.84,1.825720625,32.3975
2021-07-06 10:34:32.164062500,-46.0,4.0,45.0,93.805234375,10.785,1.82576065625,32.396875
2021-07-06 10:34:32.171875000,-46.0,4.0,45.0,93.80453125,9.73,1.8258006875,32.39625
2021-07-06 10:34:32.179687500,-46.0,4.0,45.0,93.803828125,8.965,1.82584071875,32.395625
2021-07-06 10:34:32.187500000,-46.0,4.0,45.0,93.803125,8.2,1.82588075,32.394999999999996
2021-07-06 10:34:32.195312500,-46.0,4.0,45.0,93.802421875,7.82,1.82592078125,32.394375
2021-07-06 10:34:32.203125000,-46.0,4.0,45.0,93.80171874999999,7.44,1.8259608125,32.39375
2021-07-06 10:34:32.210937500,-46.0,4.0,45.0,93.80101562499999,7.465,1.82600084375,32.393125
2021-07-06 10:34:32.218750000,-46.0,4.0,45.0,93.80031249999999,7.49,1.826040875,32.3925
2021-07-06 10:34:32.226562500,-46.0,4.0,45.0,93.79960937499999,7.855,1.82608090625,32.391875
2021-07-06 10:34:32.234375000,-46.0,4.0,45.0,93.79890625,8.22,1.8261209375,32.39125
2021-07-06 10:34:32.242187500,-46.0,4.0,45.0,93.798203125,8.785,1.82616096875,32.390625
2021-07-06 10:34:32.250000000,-46.0,4.0,45.0,93.7975,9.35,1.826201,32.39
