TimeStamp,empatica.acc.x,empatica.acc.y,empatica.acc.z,empatica.hr,empatica.bvp,empatica.eda,empatica.temp
2021-07-06 10:37:26.335937500,-51.25,-3.25,39.0,94.5859375,18.925,5.31132825,32.47
2021-07-06 10:37:26.343750000,-51.0,-3.0,39.0,94.58375000000001,19.07,5.3110479999999995,32.47
2021-07-06 10:37:26.351562500,-51.25,-3.0,39.0,94.5815625,19.195,5.31076775,32.47
2021-07-06 10:37:26.359375000,-51.5,-3.0,39.0,94.57937500000001,19.32,5.3104875,32.47
2021-07-06 10:37:26.367187500,-51.75,-3.0,39.0,94.57718750000001,19.375,5.31020725,32.47
2021-07-06 10:37:26.375000000,-52.0,-3.0,39.0,94.575,19.43,5.309927,32.47
2021-07-06 10:37:26.382812500,-52.0,-3.25,39.0,94.57281250000001,19.32,5.30964675,32.47
2021-07-06 10:37:26.390625000,-52.0,-3.5,39.0,94.570625,19.21,5.3093665,32.47
2021-07-06 10:37:26.398437500,-52.0,-3.75,39.0,94.5684375,18.8,5.30908625,32.47
2021-07-06 10:37:26.406250000,-52.0,-4.0,39.0,94.56625000000001,18.39,5.308806000000001,32.47
2021-07-06 10:37:26.414062500,-52.0,-4.0,39.0,94.5640625,17.59,5.30852575,32.47
2021-07-06 10:37:26.421875000,-52.0,-4.0,39.0,94.561875,16.79,5.3082455,32.47
2021-07-06 10:37:26.429687500,-52.0,-4.0,39.0,94.55968750000001,15.575,5.3079652500000005,32.47
2021-07-06 10:37:26.437500000,-52.0,-4.0,39.0,94.5575,14.36,5.307685,32.47
2021-07-06 10:37:26.445312500,-52.0,-4.0,38.75,94.5553125,12.815,5.30740475,32.47
2021-07-06 10:37:26.453125000,-52.0,-4.0,38.5,94.55312500000001,11.27,5.3071245000000005,32.47
2021-07-06 10:37:26.460937500,-52.0,-4.0,38.25,94.5509375,9.565,5.30684425,32.47
2021-07-06 10:37:26.468750000,-52.0,-4.0,38.0,94.54875000000001,7.86,5.306564,32.47
2021-07-06 10:37:26.476562500,-52.0,-4.0,38.25,94.54656250000001,6.165,5.30628375,32.47
2021-07-06 10:37:26.484375000,-52.0,-4.0,38.5,94.544375,4.47,5.3060035,32.47
2021-07-06 10:37:26.492187500,-52.0,-4.0,38.75,94.54218750000001,2.91,5.305723250000001,32.47
2021-07-06 10:37:26.500000000,-52.0,-4.0,39.0,94.54,1.35,5.305443,32.47
2021-07-06 10:37:26.507812500,-52.0,-4.0,39.0,94.5378125,-0.004999999999999893,5.3056431875,32.47
2021-07-06 10:37:26.515625000,-52.0,-4.0,39.0,94.53562500000001,-1.36,5.305843375,32.47
2021-07-06 10:37:26.523437500,-52.0,-4.0,39.0,94.5334375,-2.545,5.3060435625,32.47
2021-07-06 10:37:26.531250000,-52.0,-4.0,39.0,94.53125,-3.73,5.30624375,32.47
2021-07-06 10:37:26.539062500,-52.0,-4.0,39.0,94.52906250000001,-4.825,5.3064439375,32.47
2021-07-06 10:37:26.546875000,-52.0,-4.0,39.0,94.526875,-5.92,5.306644125,32.47
2021-07-06 10:37:26.554687500,-52.0,-4.0,39.0,94.52468750000001,-7.03,5.3068443125,32.47
2021-07-06 10:37:26.562500000,-52.0,-4.0,39.0,94.52250000000001,-8.14,5.3070445,32.47
2021-07-06 10:37:26.570312500,-52.0,-4.0,38.75,94.5203125,-9.405000000000001,5.3072446875,32.47
2021-07-06 10:37:26.578125000,-52.0,-4.0,38.5,94.51812500000001,-10.67,5.307444875,32.47
2021-07-06 10:37:26.585937500,-52.0,-4.0,38.25,94.5159375,-12.195,5.3076450625,32.47
2021-07-06 10:37:26.593750000,-52.0,-4.0,38.0,94.51375,-13.72,5.30784525,32.47
2021-07-06 10:37:26.601562500,-52.0,-4.0,38.25,94.51156250000001,-15.545000000000002,5.3080454375,32.47
2021-07-06 10:37:26.609375000,-52.0,-4.0,38.5,94.509375,-17.37,5.308245625,32.47
2021-07-06 10:37:26.617187500,-52.0,-4.0,38.75,94.5071875,-19.380000000000003,5.3084458125,32.47
2021-07-06 10:37:26.625000000,-52.0,-4.0,39.0,94.50500000000001,-21.39,5.3086459999999995,32.47
2021-07-06 10:37:26.632812500,-52.0,-4.0,39.0,94.5028125,-23.295,5.3088461875,32.47
2021-07-06 10:37:26.640625000,-52.0,-4.0,39.0,94.500625,-25.2,5.309046375,32.47
2021-07-06 10:37:26.648437500,-52.0,-4.0,39.0,94.49843750000001,-26.560000000000002,5.3092465625,32.47
2021-07-06 10:37:26.656250000,-52.0,-4.0,39.0,94.49625,-27.92,5.30944675,32.47
2021-07-06 10:37:26.664062500,-52.0,-4.0,39.0,94.49406250000001,-28.270000000000003,5.3096469375,32.47
2021-07-06 10:37:26.671875000,-52.0,-4.0,39.0,94.49187500000001,-28.62,5.309847125,32.47
2021-07-06 10:37:26.679687500,-52.0,-4.0,39.0,94.4896875,-27.64,5.3100473125,32.47
2021-07-06 10:37:26.687500000,-52.0,-4.0,39.0,94.48750000000001,-26.66,5.3102475,32.47
2021-07-06 10:37:26.695312500,-52.0,-4.0,39.0,94.4853125,-24.295,5.3104476875,32.47
2021-07-06 10:37:26.703125000,-52.0,-4.0,39.0,94.483125,-21.93,5.310647875,32.47
2021-07-06 10:37:26.710937500,-52.0,-4.0,39.0,94.48093750000001,-18.445,5.3108480625,32.47
2021-07-06 10:37:26.718750000,-52.0,-4.0,39.0,94.47875,-14.96,5.31104825,32.47
2021-07-06 10:37:26.726562500,-52.0,-4.0,39.0,94.4765625,-10.865,5.3112484375,32.47
2021-07-06 10:37:26.734375000,-52.0,-4.0,39.0,94.47437500000001,-6.77,5.311448625,32.47
2021-07-06 10:37:26.742187500,-52.0,-4.0,39.0,94.4721875,-2.6499999999999995,5.3116488125,32.47
2021-07-06 10:37:26.750000000,-52.0,-4.0,39.0,94.47,1.47,5.311849,32.47
2021-07-06 10:37:26.757812500,-52.0,-4.0,39.0,94.46781250000001,5.125,5.31168884375,32.47
2021-07-06 10:37:26.765625000,-52.0,-4.0,39.0,94.465625,8.78,5.311528687499999,32.47
2021-07-06 10:37:26.773437500,-52.0,-4.0,39.0,94.46343750000001,11.67,5.311368531249999,32.47
2021-07-06 10:37:26.781250000,-52.0,-4.0,39.0,94.46125,14.56,5.311208375,32.47
2021-07-06 10:37:26.789062500,-52.0,-4.0,38.75,94.4590625,16.585,5.31104821875,32.47
2021-07-06 10:37:26.796875000,-52.0,-4.0,38.5,94.45687500000001,18.61,5.3108880625,32.47
2021-07-06 10:37:26.804687500,-52.0,-4.0,38.25,94.4546875,19.82,5.3107279062499995,32.47
2021-07-06 10:37:26.812500000,-52.0,-4.0,38.0,94.4525,21.03,5.31056775,32.47
2021-07-06 10:37:26.820312500,-52.0,-4.0,38.0,94.45031250000001,21.535,5.31040759375,32.47
2021-07-06 10:37:26.828125000,-52.0,-4.0,38.0,94.448125,22.04,5.310247437499999,32.47
2021-07-06 10:37:26.835937500,-52.0,-4.0,38.0,94.4459375,21.975,5.3100872812499995,32.47
2021-07-06 10:37:26.843750000,-52.0,-4.0,38.0,94.44375000000001,21.91,5.309927125,32.47
2021-07-06 10:37:26.851562500,-52.0,-4.0,38.0,94.4415625,21.4,5.30976696875,32.47
2021-07-06 10:37:26.859375000,-52.0,-4.0,38.0,94.43937500000001,20.89,5.3096068125,32.47
2021-07-06 10:37:26.867187500,-52.0,-4.0,38.0,94.43718750000001,20.064999999999998,5.30944665625,32.47
2021-07-06 10:37:26.875000000,-52.0,-4.0,38.0,94.435,19.24,5.3092865,32.47
2021-07-06 10:37:26.882812500,-52.0,-4.0,38.25,94.43281250000001,18.255,5.30912634375,32.47
2021-07-06 10:37:26.890625000,-52.0,-4.0,38.5,94.430625,17.27,5.308966187499999,32.47
2021-07-06 10:37:26.898437500,-52.0,-4.0,38.75,94.4284375,16.28,5.30880603125,32.47
2021-07-06 10:37:26.906250000,-52.0,-4.0,39.0,94.42625000000001,15.29,5.308645875,32.47
2021-07-06 10:37:26.914062500,-52.0,-4.0,39.0,94.4240625,14.454999999999998,5.30848571875,32.47
2021-07-06 10:37:26.921875000,-52.0,-4.0,39.0,94.421875,13.62,5.3083255625,32.47
2021-07-06 10:37:26.929687500,-52.0,-4.0,39.0,94.41968750000001,13.045,5.30816540625,32.47
2021-07-06 10:37:26.937500000,-52.0,-4.0,39.0,94.4175,12.47,5.30800525,32.47
2021-07-06 10:37:26.945312500,-52.0,-4.0,38.75,94.4153125,12.175,5.30784509375,32.47
2021-07-06 10:37:26.953125000,-52.0,-4.0,38.5,94.41312500000001,11.88,5.3076849374999995,32.47
2021-07-06 10:37:26.960937500,-52.0,-4.0,38.25,94.4109375,11.795000000000002,5.30752478125,32.47
2021-07-06 10:37:26.968750000,-52.0,-4.0,38.0,94.40875000000001,11.71,5.307364625,32.47
2021-07-06 10:37:26.976562500,-52.0,-4.0,38.0,94.4065625,11.685,5.30720446875,32.47
2021-07-06 10:37:26.984375000,-52.0,-4.0,38.0,94.404375,11.66,5.3070443125,32.47
2021-07-06 10:37:26.992187500,-52.0,-4.0,38.0,94.40218750000001,11.530000000000001,5.30688415625,32.47
2021-07-06 10:37:27.000000000,-52.0,-4.0,38.0,94.4,11.4,5.306724,32.47
2021-07-06 10:37:27.007812500,-52.0,-4.0,38.25,94.3984375,11.045,5.306724,32.470625
2021-07-06 10:37:27.015625000,-52.0,-4.0,38.5,94.39687500000001,10.69,5.306724,32.47125
2021-07-06 10:37:27.023437500,-52.0,-4.0,38.75,94.3953125,10.059999999999999,5.306724,32.471875
2021-07-06 10:37:27.031250000,-52.0,-4.0,39.0,94.39375000000001,9.43,5.306724,32.4725
2021-07-06 10:37:27.039062500,-52.0,-4.0,39.0,94.3921875,8.56,5.306724,32.473124999999996
2021-07-06 10:37:27.046875000,-52.0,-4.0,39.0,94.390625,7.69,5.306724,32.47375
2021-07-06 10:37:27.054687500,-52.0,-4.0,39.0,94.38906250000001,6.675000000000001,5.306724,32.474375
2021-07-06 10:37:27.062500000,-52.0,-4.0,39.0,94.3875,5.66,5.306724,32.475
2021-07-06 10:37:27.070312500,-52.0,-4.0,39.0,94.38593750000001,4.57,5.306724,32.475625
2021-07-06 10:37:27.078125000,-52.0,-4.0,39.0,94.384375,3.48,5.306724,32.47625
2021-07-06 10:37:27.085937500,-52.0,-4.0,39.0,94.3828125,2.335,5.306724,32.476875
2021-07-06 10:37:27.093750000,-52.0,-4.0,39.0,94.38125000000001,1.19,5.306724,32.4775
2021-07-06 10:37:27.101562500,-52.0,-3.75,39.0,94.3796875,-0.04499999999999993,5.306724,32.478125
2021-07-06 10:37:27.109375000,-52.0,-3.5,39.0,94.37812500000001,-1.28,5.306724,32.47875
2021-07-06 10:37:27.117187500,-52.0,-3.25,39.0,94.3765625,-2.665,5.306724,32.479375
2021-07-06 10:37:27.125000000,-52.0,-3.0,39.0,94.375,-4.05,5.306724,32.480000000000004
2021-07-06 10:37:27.132812500,-52.0,-3.0,39.0,94.37343750000001,-5.595,5.306724,32.480625
2021-07-06 10:37:27.140625000,-52.0,-3.0,39.0,94.371875,-7.14,5.306724,32.48125
2021-07-06 10:37:27.148437500,-52.0,-3.0,39.0,94.37031250000001,-8.77,5.306724,32.481875
2021-07-06 10:37:27.156250000,-52.0,-3.0,39.0,94.36875,-10.4,5.306724,32.4825
2021-07-06 10:37:27.164062500,-52.0,-3.25,39.0,94.3671875,-11.995000000000001,5.306724,32.483125
2021-07-06 10:37:27.171875000,-52.0,-3.5,39.0,94.36562500000001,-13.59,5.306724,32.48375
2021-07-06 10:37:27.179687500,-52.0,-3.75,39.0,94.3640625,-15.065,5.306724,32.484375
2021-07-06 10:37:27.187500000,-52.0,-4.0,39.0,94.36250000000001,-16.54,5.306724,32.485
2021-07-06 10:37:27.195312500,-52.0,-4.0,38.75,94.3609375,-17.865000000000002,5.306724,32.485625
2021-07-06 10:37:27.203125000,-52.0,-4.0,38.5,94.359375,-19.19,5.306724,32.48625
2021-07-06 10:37:27.210937500,-52.0,-4.0,38.25,94.35781250000001,-20.47,5.306724,32.486875000000005
2021-07-06 10:37:27.218750000,-52.0,-4.0,38.0,94.35625,-21.75,5.306724,32.487500000000004
2021-07-06 10:37:27.226562500,-52.0,-4.0,38.0,94.35468750000001,-23.145,5.306724,32.488125000000004
2021-07-06 10:37:27.234375000,-52.0,-4.0,38.0,94.353125,-24.54,5.306724,32.48875
2021-07-06 10:37:27.242187500,-52.0,-4.0,38.0,94.3515625,-26.195,5.306724,32.489375
2021-07-06 10:37:27.250000000,-52.0,-4.0,38.0,94.35000000000001,-27.85,5.306724,32.49
2021-07-06 10:37:27.257812500,-52.25,-4.0,38.25,94.3484375,-29.825000000000003,5.30692415625,32.49
2021-07-06 10:37:27.265625000,-52.5,-4.0,38.5,94.34687500000001,-31.8,5.3071243125,32.49
2021-07-06 10:37:27.273437500,-52.75,-4.0,38.75,94.3453125,-33.97,5.30732446875,32.49
2021-07-06 10:37:27.281250000,-53.0,-4.0,39.0,94.34375,-36.14,5.307524625,32.49
2021-07-06 10:37:27.289062500,-52.75,-4.0,39.0,94.34218750000001,-38.215,5.30772478125,32.49
2021-07-06 10:37:27.296875000,-52.5,-4.0,39.0,94.340625,-40.29,5.3079249375,32.49
2021-07-06 10:37:27.304687500,-52.25,-4.0,39.0,94.33906250000001,-41.845,5.30812509375,32.49
2021-07-06 10:37:27.312500000,-52.0,-4.0,39.0,94.3375,-43.4,5.30832525,32.49
2021-07-06 10:37:27.320312500,-52.0,-4.0,38.75,94.3359375,-43.995000000000005,5.30852540625,32.49
2021-07-06 10:37:27.328125000,-52.0,-4.0,38.5,94.33437500000001,-44.59,5.3087255625,32.49
2021-07-06 10:37:27.335937500,-52.0,-4.0,38.25,94.3328125,-43.885000000000005,5.30892571875,32.49
2021-07-06 10:37:27.343750000,-52.0,-4.0,38.0,94.33125000000001,-43.18,5.309125875,32.49
2021-07-06 10:37:27.351562500,-52.0,-4.0,38.25,94.3296875,-41.05,5.30932603125,32.49
2021-07-06 10:37:27.359375000,-52.0,-4.0,38.5,94.328125,-38.92,5.3095261875,32.49
2021-07-06 10:37:27.367187500,-52.0,-4.0,38.75,94.32656250000001,-35.525000000000006,5.30972634375,32.49
2021-07-06 10:37:27.375000000,-52.0,-4.0,39.0,94.325,-32.13,5.3099264999999995,32.49
2021-07-06 10:37:27.382812500,-52.0,-4.0,39.0,94.32343750000001,-27.86,5.31012665625,32.49
2021-07-06 10:37:27.390625000,-52.0,-4.0,39.0,94.321875,-23.59,5.3103268125,32.49
2021-07-06 10:37:27.398437500,-52.0,-4.0,39.0,94.3203125,-18.985,5.31052696875,32.49
2021-07-06 10:37:27.406250000,-52.0,-4.0,39.0,94.31875000000001,-14.38,5.310727125,32.49
2021-07-06 10:37:27.414062500,-52.0,-4.0,38.75,94.3171875,-9.965,5.31092728125,32.49
2021-07-06 10:37:27.421875000,-52.0,-4.0,38.5,94.31562500000001,-5.55,5.3111274375,32.49
2021-07-06 10:37:27.429687500,-52.0,-4.0,38.25,94.3140625,-1.7349999999999999,5.31132759375,32.49
2021-07-06 10:37:27.437500000,-52.0,-4.0,38.0,94.3125,2.08,5.31152775,32.49
2021-07-06 10:37:27.445312500,-52.0,-4.0,38.0,94.31093750000001,5.105,5.31172790625,32.49
2021-07-06 10:37:27.453125000,-52.0,-4.0,38.0,94.309375,8.13,5.3119280625,32.49
2021-07-06 10:37:27.460937500,-52.0,-4.0,38.0,94.30781250000001,10.365,5.31212821875,32.49
2021-07-06 10:37:27.468750000,-52.0,-4.0,38.0,94.30625,12.6,5.312328375,32.49
2021-07-06 10:37:27.476562500,-52.0,-4.0,38.25,94.3046875,14.14,5.31252853125,32.49
2021-07-06 10:37:27.484375000,-52.0,-4.0,38.5,94.30312500000001,15.68,5.3127286875,32.49
2021-07-06 10:37:27.492187500,-52.0,-4.0,38.75,94.3015625,16.68,5.31292884375,32.49
2021-07-06 10:37:27.500000000,-52.0,-4.0,39.0,94.30000000000001,17.68,5.313129,32.49
2021-07-06 10:37:27.507812500,-52.0,-4.0,38.75,94.2984375,18.27,5.313529375,32.49
2021-07-06 10:37:27.515625000,-52.0,-4.0,38.5,94.296875,18.86,5.31392975,32.49
2021-07-06 10:37:27.523437500,-52.0,-4.0,38.25,94.29531250000001,19.155,5.314330125,32.49
2021-07-06 10:37:27.531250000,-52.0,-4.0,38.0,94.29375,19.45,5.3147305,32.49
2021-07-06 10:37:27.539062500,-52.25,-4.0,37.75,94.2921875,19.585,5.315130875,32.49
2021-07-06 10:37:27.546875000,-52.5,-4.0,37.5,94.290625,19.72,5.31553125,32.49
2021-07-06 10:37:27.554687500,-52.75,-4.0,37.25,94.2890625,19.785,5.315931625,32.49
2021-07-06 10:37:27.562500000,-53.0,-4.0,37.0,94.28750000000001,19.85,5.316332,32.49
2021-07-06 10:37:27.570312500,-52.75,-4.0,37.5,94.2859375,19.925,5.316732375,32.49
2021-07-06 10:37:27.578125000,-52.5,-4.0,38.0,94.284375,20.0,5.31713275,32.49
2021-07-06 10:37:27.585937500,-52.25,-4.0,38.5,94.2828125,20.115000000000002,5.317533125,32.49
2021-07-06 10:37:27.593750000,-52.0,-4.0,39.0,94.28125,20.23,5.3179335000000005,32.49
2021-07-06 10:37:27.601562500,-52.0,-4.0,39.0,94.27968750000001,20.355,5.318333875,32.49
2021-07-06 10:37:27.609375000,-52.0,-4.0,39.0,94.278125,20.48,5.31873425,32.49
2021-07-06 10:37:27.617187500,-52.0,-4.0,39.0,94.2765625,20.57,5.319134625,32.49
2021-07-06 10:37:27.625000000,-52.0,-4.0,39.0,94.275,20.66,5.319535,32.49
2021-07-06 10:37:27.632812500,-52.0,-4.0,38.75,94.2734375,20.66,5.319935375,32.49
2021-07-06 10:37:27.640625000,-52.0,-4.0,38.5,94.27187500000001,20.66,5.32033575,32.49
2021-07-06 10:37:27.648437500,-52.0,-4.0,38.25,94.2703125,20.575,5.320736125,32.49
2021-07-06 10:37:27.656250000,-52.0,-4.0,38.0,94.26875,20.49,5.3211365,32.49
2021-07-06 10:37:27.664062500,-52.0,-4.0,38.0,94.2671875,20.33,5.3215368750000005,32.49
2021-07-06 10:37:27.671875000,-52.0,-4.0,38.0,94.265625,20.17,5.32193725,32.49
2021-07-06 10:37:27.679687500,-52.0,-4.0,38.0,94.26406250000001,19.96,5.322337625,32.49
2021-07-06 10:37:27.687500000,-52.0,-4.0,38.0,94.2625,19.75,5.322738,32.49
2021-07-06 10:37:27.695312500,-52.0,-4.0,38.25,94.2609375,19.45,5.323138375,32.49
2021-07-06 10:37:27.703125000,-52.0,-4.0,38.5,94.259375,19.15,5.32353875,32.49
2021-07-06 10:37:27.710937500,-52.0,-4.0,38.75,94.2578125,18.66,5.323939125,32.49
2021-07-06 10:37:27.718750000,-52.0,-4.0,39.0,94.25625000000001,18.17,5.324339500000001,32.49
2021-07-06 10:37:27.726562500,-52.0,-4.0,39.0,94.2546875,17.37,5.324739875000001,32.49
2021-07-06 10:37:27.734375000,-52.0,-4.0,39.0,94.253125,16.57,5.3251402500000005,32.49
2021-07-06 10:37:27.742187500,-52.0,-4.0,39.0,94.2515625,15.344999999999999,5.325540625,32.49
2021-07-06 10:37:27.750000000,-52.0,-4.0,39.0,94.25,14.12,5.325941,32.49
2021-07-06 10:37:27.757812500,-52.0,-4.0,38.75,94.24843750000001,12.44,5.3258609375,32.49
2021-07-06 10:37:27.765625000,-52.0,-4.0,38.5,94.246875,10.76,5.325780875,32.49
2021-07-06 10:37:27.773437500,-52.0,-4.0,38.25,94.2453125,8.675,5.3257008125,32.49
2021-07-06 10:37:27.781250000,-52.0,-4.0,38.0,94.24375,6.59,5.325620750000001,32.49
2021-07-06 10:37:27.789062500,-52.0,-4.0,38.0,94.2421875,4.245,5.3255406875,32.49
2021-07-06 10:37:27.796875000,-52.0,-4.0,38.0,94.24062500000001,1.9,5.325460625,32.49
2021-07-06 10:37:27.804687500,-52.0,-4.0,38.0,94.2390625,-0.5500000000000003,5.3253805625,32.49
2021-07-06 10:37:27.812500000,-52.0,-4.0,38.0,94.2375,-3.0,5.3253005,32.49
2021-07-06 10:37:27.820312500,-52.25,-4.0,38.0,94.2359375,-5.38,5.3252204375000005,32.49
2021-07-06 10:37:27.828125000,-52.5,-4.0,38.0,94.234375,-7.76,5.325140375,32.49
2021-07-06 10:37:27.835937500,-52.75,-4.0,38.0,94.23281250000001,-9.934999999999999,5.3250603125,32.49
2021-07-06 10:37:27.843750000,-53.0,-4.0,38.0,94.23125,-12.11,5.32498025,32.49
2021-07-06 10:37:27.851562500,-53.0,-4.0,38.0,94.2296875,-13.98,5.3249001875,32.49
2021-07-06 10:37:27.859375000,-53.0,-4.0,38.0,94.228125,-15.85,5.3248201250000005,32.49
2021-07-06 10:37:27.867187500,-53.0,-4.0,38.0,94.2265625,-17.385,5.3247400625,32.49
2021-07-06 10:37:27.875000000,-53.0,-4.0,38.0,94.22500000000001,-18.92,5.32466,32.49
2021-07-06 10:37:27.882812500,-52.75,-4.0,38.25,94.2234375,-20.18,5.3245799375,32.49
2021-07-06 10:37:27.890625000,-52.5,-4.0,38.5,94.221875,-21.44,5.324499875,32.49
2021-07-06 10:37:27.898437500,-52.25,-4.0,38.75,94.2203125,-22.575000000000003,5.3244198125,32.49
2021-07-06 10:37:27.906250000,-52.0,-4.0,39.0,94.21875,-23.71,5.32433975,32.49
2021-07-06 10:37:27.914062500,-52.0,-4.0,39.0,94.21718750000001,-24.955,5.324259687500001,32.49
2021-07-06 10:37:27.921875000,-52.0,-4.0,39.0,94.215625,-26.2,5.324179625,32.49
2021-07-06 10:37:27.929687500,-52.0,-4.0,39.0,94.2140625,-27.775,5.3240995625,32.49
2021-07-06 10:37:27.937500000,-52.0,-4.0,39.0,94.2125,-29.35,5.3240195,32.49
2021-07-06 10:37:27.945312500,-52.0,-4.0,38.75,94.2109375,-31.34,5.3239394375,32.49
2021-07-06 10:37:27.953125000,-52.0,-4.0,38.5,94.20937500000001,-33.33,5.3238593750000005,32.49
2021-07-06 10:37:27.960937500,-52.0,-4.0,38.25,94.2078125,-35.599999999999994,5.3237793125,32.49
2021-07-06 10:37:27.968750000,-52.0,-4.0,38.0,94.20625,-37.87,5.32369925,32.49
2021-07-06 10:37:27.976562500,-52.0,-4.0,38.0,94.2046875,-40.03,5.3236191875,32.49
2021-07-06 10:37:27.984375000,-52.0,-4.0,38.0,94.203125,-42.19,5.323539125,32.49
2021-07-06 10:37:27.992187500,-52.0,-4.0,38.0,94.20156250000001,-43.66,5.3234590625000004,32.49
2021-07-06 10:37:28.000000000,-52.0,-4.0,38.0,94.2,-45.13,5.323379,32.49
2021-07-06 10:37:28.007812500,-52.0,-4.0,38.25,94.19828125000001,-45.34,5.3234590625000004,32.489375
2021-07-06 10:37:28.015625000,-52.0,-4.0,38.5,94.1965625,-45.55,5.323539125,32.48875
2021-07-06 10:37:28.023437500,-52.0,-4.0,38.75,94.19484375,-44.15,5.3236191875,32.488125000000004
2021-07-06 10:37:28.031250000,-52.0,-4.0,39.0,94.19312500000001,-42.75,5.32369925,32.487500000000004
2021-07-06 10:37:28.039062500,-52.25,-4.0,38.75,94.19140625,-39.769999999999996,5.3237793125,32.486875000000005
2021-07-06 10:37:28.046875000,-52.5,-4.0,38.5,94.1896875,-36.79,5.3238593750000005,32.48625
2021-07-06 10:37:28.054687500,-52.75,-4.0,38.25,94.18796875,-32.635,5.3239394375,32.485625
2021-07-06 10:37:28.062500000,-53.0,-4.0,38.0,94.18625,-28.48,5.3240195,32.485
2021-07-06 10:37:28.070312500,-53.0,-4.0,38.0,94.18453125,-23.8,5.3240995625,32.484375
2021-07-06 10:37:28.078125000,-53.0,-4.0,38.0,94.1828125,-19.12,5.324179625,32.48375
2021-07-06 10:37:28.085937500,-53.0,-4.0,38.0,94.18109375,-14.575,5.324259687500001,32.483125
2021-07-06 10:37:28.093750000,-53.0,-4.0,38.0,94.17937500000001,-10.03,5.32433975,32.4825
2021-07-06 10:37:28.101562500,-52.75,-4.0,38.0,94.17765625,-6.09,5.3244198125,32.481875
2021-07-06 10:37:28.109375000,-52.5,-4.0,38.0,94.1759375,-2.15,5.324499875,32.48125
2021-07-06 10:37:28.117187500,-52.25,-4.0,38.0,94.17421875000001,0.9899999999999998,5.3245799375,32.480625
2021-07-06 10:37:28.125000000,-52.0,-4.0,38.0,94.1725,4.13,5.32466,32.480000000000004
2021-07-06 10:37:28.132812500,-52.0,-4.0,38.25,94.17078125,6.539999999999999,5.3247400625,32.479375
2021-07-06 10:37:28.140625000,-52.0,-4.0,38.5,94.16906250000001,8.95,5.3248201250000005,32.47875
2021-07-06 10:37:28.148437500,-52.0,-4.0,38.75,94.16734375,10.795,5.3249001875,32.478125
2021-07-06 10:37:28.156250000,-52.0,-4.0,39.0,94.165625,12.64,5.32498025,32.4775
2021-07-06 10:37:28.164062500,-52.0,-4.0,38.75,94.16390625,14.045,5.3250603125,32.476875
2021-07-06 10:37:28.171875000,-52.0,-4.0,38.5,94.1621875,15.45,5.325140375,32.47625
2021-07-06 10:37:28.179687500,-52.0,-4.0,38.25,94.16046875,16.465,5.3252204375000005,32.475625
2021-07-06 10:37:28.187500000,-52.0,-4.0,38.0,94.15875,17.48,5.3253005,32.475
2021-07-06 10:37:28.195312500,-52.0,-4.0,38.0,94.15703125,18.07,5.3253805625,32.474375
2021-07-06 10:37:28.203125000,-52.0,-4.0,38.0,94.15531250000001,18.66,5.325460625,32.47375
2021-07-06 10:37:28.210937500,-52.0,-4.0,38.0,94.15359375,18.825,5.3255406875,32.473124999999996
2021-07-06 10:37:28.218750000,-52.0,-4.0,38.0,94.151875,18.99,5.325620750000001,32.4725
2021-07-06 10:37:28.226562500,-52.0,-4.0,38.0,94.15015625000001,18.805,5.3257008125,32.471875
2021-07-06 10:37:28.234375000,-52.0,-4.0,38.0,94.1484375,18.62,5.325780875,32.47125
2021-07-06 10:37:28.242187500,-52.0,-4.0,38.0,94.14671875,18.275,5.3258609375,32.470625
2021-07-06 10:37:28.250000000,-52.0,-4.0,38.0,94.14500000000001,17.93,5.325941,32.47
2021-07-06 10:37:28.257812500,-52.0,-4.0,38.25,94.14328125,17.625,5.32598103125,32.47
2021-07-06 10:37:28.265625000,-52.0,-4.0,38.5,94.1415625,17.32,5.326021062500001,32.47
2021-07-06 10:37:28.273437500,-52.0,-4.0,38.75,94.13984375,17.2,5.32606109375,32.47
2021-07-06 10:37:28.281250000,-52.0,-4.0,39.0,94.138125,17.08,5.326101125,32.47
2021-07-06 10:37:28.289062500,-52.0,-4.0,39.0,94.13640625000001,17.159999999999997,5.32614115625,32.47
2021-07-06 10:37:28.296875000,-52.0,-4.0,39.0,94.1346875,17.24,5.3261811875000005,32.47
2021-07-06 10:37:28.304687500,-52.0,-4.0,39.0,94.13296875,17.4,5.32622121875,32.47
2021-07-06 10:37:28.312500000,-52.0,-4.0,39.0,94.13125000000001,17.56,5.32626125,32.47
2021-07-06 10:37:28.320312500,-52.0,-4.0,38.75,94.12953125,17.66,5.32630128125,32.47
2021-07-06 10:37:28.328125000,-52.0,-4.0,38.5,94.1278125,17.76,5.3263413125,32.47
2021-07-06 10:37:28.335937500,-52.0,-4.0,38.25,94.12609375000001,17.69,5.3263813437500005,32.47
2021-07-06 10:37:28.343750000,-52.0,-4.0,38.0,94.124375,17.62,5.326421375,32.47
2021-07-06 10:37:28.351562500,-52.0,-4.0,38.25,94.12265625,17.4,5.32646140625,32.47
2021-07-06 10:37:28.359375000,-52.0,-4.0,38.5,94.1209375,17.18,5.3265014375,32.47
2021-07-06 10:37:28.367187500,-52.0,-4.0,38.75,94.11921875,16.905,5.32654146875,32.47
2021-07-06 10:37:28.375000000,-52.0,-4.0,39.0,94.1175,16.63,5.3265815,32.47
2021-07-06 10:37:28.382812500,-52.0,-4.0,39.0,94.11578125,16.415,5.32662153125,32.47
2021-07-06 10:37:28.390625000,-52.0,-4.0,39.0,94.1140625,16.2,5.3266615625,32.47
2021-07-06 10:37:28.398437500,-52.0,-4.0,39.0,94.11234375000001,16.095,5.32670159375,32.47
2021-07-06 10:37:28.406250000,-52.0,-4.0,39.0,94.110625,15.99,5.326741625,32.47
2021-07-06 10:37:28.414062500,-52.0,-4.0,39.0,94.10890625,15.91,5.32678165625,32.47
2021-07-06 10:37:28.421875000,-52.0,-4.0,39.0,94.10718750000001,15.83,5.3268216875,32.47
2021-07-06 10:37:28.429687500,-52.0,-4.0,39.0,94.10546875,15.620000000000001,5.32686171875,32.47
2021-07-06 10:37:28.437500000,-52.0,-4.0,39.0,94.10375,15.41,5.32690175,32.47
2021-07-06 10:37:28.445312500,-52.0,-4.0,38.75,94.10203125000001,14.879999999999999,5.32694178125,32.47
2021-07-06 10:37:28.453125000,-52.0,-4.0,38.5,94.1003125,14.35,5.3269818125,32.47
2021-07-06 10:37:28.460937500,-52.0,-4.0,38.25,94.09859375,13.41,5.32702184375,32.47
2021-07-06 10:37:28.468750000,-52.0,-4.0,38.0,94.096875,12.47,5.327061875,32.47
2021-07-06 10:37:28.476562500,-52.0,-4.0,38.25,94.09515625,11.129999999999999,5.32710190625,32.47
2021-07-06 10:37:28.484375000,-52.0,-4.0,38.5,94.09343750000001,9.79,5.3271419374999995,32.47
2021-07-06 10:37:28.492187500,-52.0,-4.0,38.75,94.09171875,8.174999999999999,5.32718196875,32.47
2021-07-06 10:37:28.500000000,-52.0,-4.0,39.0,94.09,6.56,5.327222,32.47
2021-07-06 10:37:28.507812500,-52.0,-4.0,38.75,94.08828125000001,4.875,5.32706184375,32.47
2021-07-06 10:37:28.515625000,-52.0,-4.0,38.5,94.0865625,3.19,5.3269016874999995,32.47
2021-07-06 10:37:28.523437500,-52.0,-4.0,38.25,94.08484375,1.5999999999999999,5.32674153125,32.47
2021-07-06 10:37:28.531250000,-52.0,-4.0,38.0,94.08312500000001,0.01,5.326581375,32.47
2021-07-06 10:37:28.539062500,-52.0,-4.0,38.25,94.08140625,-1.3749999999999998,5.32642121875,32.47
2021-07-06 10:37:28.546875000,-52.0,-4.0,38.5,94.0796875,-2.76,5.3262610625,32.47
2021-07-06 10:37:28.554687500,-52.0,-4.0,38.75,94.07796875,-3.92,5.32610090625,32.47
2021-07-06 10:37:28.562500000,-52.0,-4.0,39.0,94.07625,-5.08,5.32594075,32.47
2021-07-06 10:37:28.570312500,-52.0,-4.0,38.75,94.07453125,-6.105,5.32578059375,32.47
2021-07-06 10:37:28.578125000,-52.0,-4.0,38.5,94.0728125,-7.13,5.3256204375,32.47
2021-07-06 10:37:28.585937500,-52.0,-4.0,38.25,94.07109375,-8.17,5.32546028125,32.47
2021-07-06 10:37:28.593750000,-52.0,-4.0,38.0,94.06937500000001,-9.21,5.325300125,32.47
2021-07-06 10:37:28.601562500,-52.0,-4.0,38.25,94.06765625,-10.445,5.32513996875,32.47
2021-07-06 10:37:28.609375000,-52.0,-4.0,38.5,94.0659375,-11.68,5.3249798125000005,32.47
2021-07-06 10:37:28.617187500,-52.0,-4.0,38.75,94.06421875000001,-13.27,5.32481965625,32.47
2021-07-06 10:37:28.625000000,-52.0,-4.0,39.0,94.0625,-14.86,5.3246595,32.47
2021-07-06 10:37:28.632812500,-52.0,-4.0,39.0,94.06078125,-16.85,5.32449934375,32.47
2021-07-06 10:37:28.640625000,-52.0,-4.0,39.0,94.05906250000001,-18.84,5.3243391875,32.47
2021-07-06 10:37:28.648437500,-52.0,-4.0,39.0,94.05734375,-21.125,5.32417903125,32.47
2021-07-06 10:37:28.656250000,-52.0,-4.0,39.0,94.055625,-23.41,5.324018875,32.47
2021-07-06 10:37:28.664062500,-52.0,-4.0,38.75,94.05390625,-25.695,5.32385871875,32.47
2021-07-06 10:37:28.671875000,-52.0,-4.0,38.5,94.0521875,-27.98,5.323698562500001,32.47
2021-07-06 10:37:28.679687500,-52.0,-4.0,38.25,94.05046875000001,-29.84,5.32353840625,32.47
2021-07-06 10:37:28.687500000,-52.0,-4.0,38.0,94.04875,-31.7,5.32337825,32.47
2021-07-06 10:37:28.695312500,-52.0,-4.0,38.0,94.04703125,-32.645,5.32321809375,32.47
2021-07-06 10:37:28.703125000,-52.0,-4.0,38.0,94.04531250000001,-33.59,5.3230579375,32.47
2021-07-06 10:37:28.710937500,-52.0,-4.0,38.0,94.04359375,-33.255,5.32289778125,32.47
2021-07-06 10:37:28.718750000,-52.0,-4.0,38.0,94.041875,-32.92,5.322737625,32.47
2021-07-06 10:37:28.726562500,-52.0,-4.0,38.25,94.04015625000001,-31.175,5.3225774687500005,32.47
2021-07-06 10:37:28.734375000,-52.0,-4.0,38.5,94.0384375,-29.43,5.322417312500001,32.47
2021-07-06 10:37:28.742187500,-52.0,-4.0,38.75,94.03671875,-26.405,5.32225715625,32.47
2021-07-06 10:37:28.750000000,-52.0,-4.0,39.0,94.035,-23.38,5.322097,32.47
2021-07-06 10:37:28.757812500,-52.0,-4.0,39.0,94.03328125,-19.49,5.322177062500001,32.47
2021-07-06 10:37:28.765625000,-52.0,-4.0,39.0,94.0315625,-15.6,5.322257125,32.47
2021-07-06 10:37:28.773437500,-52.0,-4.0,39.0,94.02984375,-11.355,5.3223371875000005,32.47
2021-07-06 10:37:28.781250000,-52.0,-4.0,39.0,94.028125,-7.11,5.32241725,32.47
2021-07-06 10:37:28.789062500,-52.0,-4.0,39.0,94.02640625000001,-3.0,5.3224973125,32.47
2021-07-06 10:37:28.796875000,-52.0,-4.0,39.0,94.0246875,1.11,5.322577375,32.47
2021-07-06 10:37:28.804687500,-52.0,-4.0,39.0,94.02296875,4.725,5.3226574375,32.47
2021-07-06 10:37:28.812500000,-52.0,-4.0,39.0,94.02125000000001,8.34,5.322737500000001,32.47
2021-07-06 10:37:28.820312500,-52.0,-4.0,38.75,94.01953125,11.295,5.3228175625,32.47
2021-07-06 10:37:28.828125000,-52.0,-4.0,38.5,94.0178125,14.25,5.322897625,32.47
2021-07-06 10:37:28.835937500,-52.0,-4.0,38.25,94.01609375000001,16.535,5.3229776875,32.47
2021-07-06 10:37:28.843750000,-52.0,-4.0,38.0,94.014375,18.82,5.32305775,32.47
2021-07-06 10:37:28.851562500,-52.0,-4.0,38.0,94.01265625,20.490000000000002,5.3231378125,32.47
2021-07-06 10:37:28.859375000,-52.0,-4.0,38.0,94.0109375,22.16,5.323217875,32.47
2021-07-06 10:37:28.867187500,-52.0,-4.0,38.0,94.00921875,23.265,5.3232979375,32.47
2021-07-06 10:37:28.875000000,-52.0,-4.0,38.0,94.00750000000001,24.37,5.323378,32.47
2021-07-06 10:37:28.882812500,-52.0,-4.0,38.0,94.00578125,24.945,5.3234580625,32.47
2021-07-06 10:37:28.890625000,-52.0,-4.0,38.0,94.0040625,25.52,5.323538125,32.47
2021-07-06 10:37:28.898437500,-52.0,-4.0,38.0,94.00234375000001,25.575,5.3236181875,32.47
2021-07-06 10:37:28.906250000,-52.0,-4.0,38.0,94.000625,25.63,5.32369825,32.47
2021-07-06 10:37:28.914062500,-52.0,-4.0,38.0,93.99890625,25.21,5.3237783125,32.47
2021-07-06 10:37:28.921875000,-52.0,-4.0,38.0,93.99718750000001,24.79,5.3238583749999995,32.47
2021-07-06 10:37:28.929687500,-52.0,-4.0,38.0,93.99546875,24.03,5.3239384375,32.47
2021-07-06 10:37:28.937500000,-52.0,-4.0,38.0,93.99375,23.27,5.324018499999999,32.47
2021-07-06 10:37:28.945312500,-52.0,-4.0,38.0,93.99203125000001,22.38,5.3240985625,32.47
2021-07-06 10:37:28.953125000,-52.0,-4.0,38.0,93.9903125,21.49,5.324178625,32.47
2021-07-06 10:37:28.960937500,-52.0,-4.0,38.0,93.98859375,20.71,5.3242586874999995,32.47
2021-07-06 10:37:28.968750000,-52.0,-4.0,38.0,93.986875,19.93,5.32433875,32.47
2021-07-06 10:37:28.976562500,-52.0,-4.0,38.25,93.98515625,19.48,5.324418812499999,32.47
2021-07-06 10:37:28.984375000,-52.0,-4.0,38.5,93.98343750000001,19.03,5.324498875,32.47
2021-07-06 10:37:28.992187500,-52.0,-4.0,38.75,93.98171875,19.005000000000003,5.324578937499999,32.47
2021-07-06 10:37:29.000000000,-52.0,-4.0,39.0,93.98,18.98,5.324659,32.47
2021-07-06 10:37:29.007812500,-52.0,-3.75,38.75,93.97859375,19.34,5.324378781249999,32.47
2021-07-06 10:37:29.015625000,-52.0,-3.5,38.5,93.9771875,19.7,5.3240985625,32.47
2021-07-06 10:37:29.023437500,-52.0,-3.25,38.25,93.97578125,20.29,5.323818343749999,32.47
2021-07-06 10:37:29.031250000,-52.0,-3.0,38.0,93.97437500000001,20.88,5.323538125,32.47
2021-07-06 10:37:29.039062500,-52.0,-3.25,38.25,93.97296875,21.494999999999997,5.323257906249999,32.47
2021-07-06 10:37:29.046875000,-52.0,-3.5,38.5,93.9715625,22.11,5.3229776875,32.47
2021-07-06 10:37:29.054687500,-52.0,-3.75,38.75,93.97015625,22.605,5.3226974687499995,32.47
2021-07-06 10:37:29.062500000,-52.0,-4.0,39.0,93.96875,23.1,5.32241725,32.47
2021-07-06 10:37:29.070312500,-52.0,-4.0,39.0,93.96734375,23.4,5.32213703125,32.47
2021-07-06 10:37:29.078125000,-52.0,-4.0,39.0,93.96593750000001,23.7,5.3218568125,32.47
2021-07-06 10:37:29.085937500,-52.0,-4.0,39.0,93.96453125000001,23.765,5.32157659375,32.47
2021-07-06 10:37:29.093750000,-52.0,-4.0,39.0,93.963125,23.83,5.321296375,32.47
2021-07-06 10:37:29.101562500,-52.0,-4.0,39.0,93.96171875,23.615,5.32101615625,32.47
2021-07-06 10:37:29.109375000,-52.0,-4.0,39.0,93.9603125,23.4,5.3207359375,32.47
2021-07-06 10:37:29.117187500,-52.0,-4.0,39.0,93.95890625,22.814999999999998,5.32045571875,32.47
2021-07-06 10:37:29.125000000,-52.0,-4.0,39.0,93.95750000000001,22.23,5.3201754999999995,32.47
2021-07-06 10:37:29.132812500,-52.0,-4.0,38.75,93.95609375000001,21.185000000000002,5.31989528125,32.47
2021-07-06 10:37:29.140625000,-52.0,-4.0,38.5,93.9546875,20.14,5.3196150625,32.47
2021-07-06 10:37:29.148437500,-52.0,-4.0,38.25,93.95328125,18.6,5.31933484375,32.47
2021-07-06 10:37:29.156250000,-52.0,-4.0,38.0,93.951875,17.06,5.319054625,32.47
2021-07-06 10:37:29.164062500,-52.0,-4.0,38.25,93.95046875,15.12,5.31877440625,32.47
2021-07-06 10:37:29.171875000,-52.0,-4.0,38.5,93.9490625,13.18,5.3184941875,32.47
2021-07-06 10:37:29.179687500,-52.0,-4.0,38.75,93.94765625000001,11.04,5.31821396875,32.47
2021-07-06 10:37:29.187500000,-52.0,-4.0,39.0,93.94625,8.9,5.31793375,32.47
2021-07-06 10:37:29.195312500,-52.0,-4.0,39.0,93.94484375,6.83,5.31765353125,32.47
2021-07-06 10:37:29.203125000,-52.0,-4.0,39.0,93.9434375,4.76,5.3173733125,32.47
2021-07-06 10:37:29.210937500,-52.0,-4.0,39.0,93.94203125,2.96,5.3170930937500005,32.47
2021-07-06 10:37:29.218750000,-52.0,-4.0,39.0,93.940625,1.16,5.316812875,32.47
2021-07-06 10:37:29.226562500,-52.0,-4.0,39.0,93.93921875000001,-0.31000000000000005,5.316532656250001,32.47
2021-07-06 10:37:29.234375000,-52.0,-4.0,39.0,93.9378125,-1.78,5.3162524375,32.47
2021-07-06 10:37:29.242187500,-52.0,-4.0,39.0,93.93640625,-3.0,5.315972218750001,32.47
2021-07-06 10:37:29.250000000,-52.0,-4.0,39.0,93.935,-4.22,5.315692,32.47
2021-07-06 10:37:29.257812500,-52.0,-4.0,38.75,93.93359375,-5.365,5.3160523125,32.47
2021-07-06 10:37:29.265625000,-52.0,-4.0,38.5,93.9321875,-6.51,5.316412625,32.47
2021-07-06 10:37:29.273437500,-52.0,-4.0,38.25,93.93078125,-7.77,5.316772937500001,32.47
2021-07-06 10:37:29.281250000,-52.0,-4.0,38.0,93.92937500000001,-9.03,5.31713325,32.47
2021-07-06 10:37:29.289062500,-52.0,-4.0,38.0,93.92796875,-10.555,5.3174935625,32.47
2021-07-06 10:37:29.296875000,-52.0,-4.0,38.0,93.9265625,-12.08,5.317853875,32.47
2021-07-06 10:37:29.304687500,-52.0,-4.0,38.0,93.92515625,-13.96,5.318214187500001,32.47
2021-07-06 10:37:29.312500000,-52.0,-4.0,38.0,93.92375,-15.84,5.3185745,32.47
2021-07-06 10:37:29.320312500,-52.0,-4.0,38.25,93.92234375,-18.060000000000002,5.3189348125,32.47
2021-07-06 10:37:29.328125000,-52.0,-4.0,38.5,93.92093750000001,-20.28,5.319295125,32.47
2021-07-06 10:37:29.335937500,-52.0,-4.0,38.75,93.91953125,-22.675,5.3196554375,32.47
2021-07-06 10:37:29.343750000,-52.0,-4.0,39.0,93.918125,-25.07,5.3200157500000005,32.47
2021-07-06 10:37:29.351562500,-52.0,-4.0,39.0,93.91671875,-27.295,5.3203760625,32.47
2021-07-06 10:37:29.359375000,-52.0,-4.0,39.0,93.9153125,-29.52,5.320736375,32.47
2021-07-06 10:37:29.367187500,-52.0,-4.0,39.0,93.91390625,-31.104999999999997,5.3210966875,32.47
2021-07-06 10:37:29.375000000,-52.0,-4.0,39.0,93.9125,-32.69,5.3214570000000005,32.47
2021-07-06 10:37:29.382812500,-52.0,-4.0,39.0,93.91109375,-33.155,5.3218173125,32.47
2021-07-06 10:37:29.390625000,-52.0,-4.0,39.0,93.9096875,-33.62,5.322177625,32.47
2021-07-06 10:37:29.398437500,-52.0,-4.0,39.0,93.90828125,-32.635,5.3225379375,32.47
2021-07-06 10:37:29.406250000,-52.0,-4.0,39.0,93.906875,-31.65,5.32289825,32.47
2021-07-06 10:37:29.414062500,-52.0,-4.0,38.75,93.90546875,-29.189999999999998,5.3232585625,32.47
2021-07-06 10:37:29.421875000,-52.0,-4.0,38.5,93.9040625,-26.73,5.323618875,32.47
2021-07-06 10:37:29.429687500,-52.0,-4.0,38.25,93.90265625,-23.1,5.3239791875,32.47
2021-07-06 10:37:29.437500000,-52.0,-4.0,38.0,93.90125,-19.47,5.3243395,32.47
2021-07-06 10:37:29.445312500,-52.0,-4.0,38.25,93.89984375,-15.215,5.3246998125,32.47
2021-07-06 10:37:29.453125000,-52.0,-4.0,38.5,93.8984375,-10.96,5.325060125,32.47
2021-07-06 10:37:29.460937500,-52.0,-4.0,38.75,93.89703125,-6.69,5.3254204375,32.47
2021-07-06 10:37:29.468750000,-52.0,-4.0,39.0,93.895625,-2.42,5.32578075,32.47
2021-07-06 10:37:29.476562500,-52.0,-4.0,39.0,93.89421875000001,1.3850000000000002,5.3261410625,32.47
2021-07-06 10:37:29.484375000,-52.0,-4.0,39.0,93.8928125,5.19,5.326501375,32.47
2021-07-06 10:37:29.492187500,-52.0,-4.0,39.0,93.89140625,8.26,5.3268616875,32.47
2021-07-06 10:37:29.500000000,-52.0,-4.0,39.0,93.89,11.33,5.327222,32.47
2021-07-06 10:37:29.507812500,-52.0,-4.0,38.75,93.88859375,13.61,5.3273020625,32.47
2021-07-06 10:37:29.515625000,-52.0,-4.0,38.5,93.8871875,15.89,5.327382125,32.47
2021-07-06 10:37:29.523437500,-52.0,-4.0,38.25,93.88578125,17.450000000000003,5.3274621875,32.47
2021-07-06 10:37:29.531250000,-52.0,-4.0,38.0,93.884375,19.01,5.32754225,32.47
2021-07-06 10:37:29.539062500,-52.0,-4.0,38.25,93.88296875,19.945,5.3276223125,32.47
2021-07-06 10:37:29.546875000,-52.0,-4.0,38.5,93.8815625,20.88,5.327702375,32.47
2021-07-06 10:37:29.554687500,-52.0,-4.0,38.75,93.88015625,21.255,5.3277824375,32.47
2021-07-06 10:37:29.562500000,-52.0,-4.0,39.0,93.87875,21.63,5.3278625,32.47
2021-07-06 10:37:29.570312500,-52.0,-4.0,38.75,93.87734375,21.494999999999997,5.3279425625,32.47
2021-07-06 10:37:29.578125000,-52.0,-4.0,38.5,93.8759375,21.36,5.328022625,32.47
2021-07-06 10:37:29.585937500,-52.0,-4.0,38.25,93.87453125,20.799999999999997,5.3281026875,32.47
2021-07-06 10:37:29.593750000,-52.0,-4.0,38.0,93.873125,20.24,5.32818275,32.47
2021-07-06 10:37:29.601562500,-52.0,-4.0,38.0,93.87171875,19.4,5.3282628125,32.47
2021-07-06 10:37:29.609375000,-52.0,-4.0,38.0,93.8703125,18.56,5.328342875,32.47
2021-07-06 10:37:29.617187500,-52.0,-4.0,38.0,93.86890625,17.645,5.3284229375,32.47
2021-07-06 10:37:29.625000000,-52.0,-4.0,38.0,93.8675,16.73,5.3285029999999995,32.47
2021-07-06 10:37:29.632812500,-52.0,-4.0,38.25,93.86609375,15.945,5.3285830625,32.47
2021-07-06 10:37:29.640625000,-52.0,-4.0,38.5,93.8646875,15.16,5.328663125,32.47
2021-07-06 10:37:29.648437500,-52.0,-4.0,38.75,93.86328125,14.66,5.3287431875,32.47
2021-07-06 10:37:29.656250000,-52.0,-4.0,39.0,93.861875,14.16,5.32882325,32.47
2021-07-06 10:37:29.664062500,-52.0,-3.75,39.0,93.86046875,13.96,5.3289033125,32.47
2021-07-06 10:37:29.671875000,-52.0,-3.5,39.0,93.8590625,13.76,5.328983375,32.47
2021-07-06 10:37:29.679687500,-52.0,-3.25,39.0,93.85765625,13.774999999999999,5.3290634375,32.47
2021-07-06 10:37:29.687500000,-52.0,-3.0,39.0,93.85625,13.79,5.3291435,32.47
2021-07-06 10:37:29.695312500,-52.0,-3.25,39.0,93.85484375,13.864999999999998,5.3292235625,32.47
2021-07-06 10:37:29.703125000,-52.0,-3.5,39.0,93.8534375,13.94,5.329303625,32.47
2021-07-06 10:37:29.710937500,-52.0,-3.75,39.0,93.85203125,13.94,5.3293836875,32.47
2021-07-06 10:37:29.718750000,-52.0,-4.0,39.0,93.850625,13.94,5.32946375,32.47
2021-07-06 10:37:29.726562500,-52.0,-4.0,39.0,93.84921875,13.815,5.3295438125,32.47
2021-07-06 10:37:29.734375000,-52.0,-4.0,39.0,93.8478125,13.69,5.329623875,32.47
2021-07-06 10:37:29.742187500,-52.0,-4.0,39.0,93.84640625,13.44,5.3297039375,32.47
2021-07-06 10:37:29.750000000,-52.0,-4.0,39.0,93.845,13.19,5.329784,32.47
2021-07-06 10:37:29.757812500,-52.0,-4.0,39.0,93.84359375,12.844999999999999,5.32982403125,32.47
2021-07-06 10:37:29.765625000,-52.0,-4.0,39.0,93.8421875,12.5,5.3298640625,32.47
2021-07-06 10:37:29.773437500,-52.0,-4.0,39.0,93.84078124999999,12.030000000000001,5.32990409375,32.47
2021-07-06 10:37:29.781250000,-52.0,-4.0,39.0,93.839375,11.56,5.329944125,32.47
2021-07-06 10:37:29.789062500,-52.0,-4.0,39.0,93.83796875,10.870000000000001,5.32998415625,32.47
2021-07-06 10:37:29.796875000,-52.0,-4.0,39.0,93.8365625,10.18,5.3300241875,32.47
2021-07-06 10:37:29.804687500,-52.0,-4.0,39.0,93.83515625,9.149999999999999,5.33006421875,32.47
2021-07-06 10:37:29.812500000,-52.0,-4.0,39.0,93.83375,8.12,5.33010425,32.47
2021-07-06 10:37:29.820312500,-52.0,-4.0,39.0,93.83234374999999,6.645,5.33014428125,32.47
2021-07-06 10:37:29.828125000,-52.0,-4.0,39.0,93.8309375,5.17,5.3301843125,32.47
2021-07-06 10:37:29.835937500,-52.0,-4.0,39.0,93.82953125,3.285,5.33022434375,32.47
2021-07-06 10:37:29.843750000,-52.0,-4.0,39.0,93.828125,1.4,5.330264375,32.47
2021-07-06 10:37:29.851562500,-52.0,-4.0,39.0,93.82671875,-0.7550000000000003,5.33030440625,32.47
2021-07-06 10:37:29.859375000,-52.0,-4.0,39.0,93.8253125,-2.91,5.3303444375,32.47
2021-07-06 10:37:29.867187500,-52.0,-4.0,39.0,93.82390625,-5.12,5.33038446875,32.47
2021-07-06 10:37:29.875000000,-52.0,-4.0,39.0,93.82249999999999,-7.33,5.3304244999999995,32.47
2021-07-06 10:37:29.882812500,-52.0,-4.0,38.75,93.82109375,-9.370000000000001,5.33046453125,32.47
2021-07-06 10:37:29.890625000,-52.0,-4.0,38.5,93.8196875,-11.41,5.3305045625,32.47
2021-07-06 10:37:29.898437500,-52.0,-4.0,38.25,93.81828125,-13.17,5.33054459375,32.47
2021-07-06 10:37:29.906250000,-52.0,-4.0,38.0,93.816875,-14.93,5.330584625,32.47
2021-07-06 10:37:29.914062500,-52.0,-4.0,38.0,93.81546875,-16.41,5.3306246562499995,32.47
2021-07-06 10:37:29.921875000,-52.0,-4.0,38.0,93.81406249999999,-17.89,5.3306646875,32.47
2021-07-06 10:37:29.929687500,-52.0,-4.0,38.0,93.81265625,-19.200000000000003,5.33070471875,32.47
2021-07-06 10:37:29.937500000,-52.0,-4.0,38.0,93.81125,-20.51,5.33074475,32.47
2021-07-06 10:37:29.945312500,-52.0,-4.0,38.0,93.80984375,-21.82,5.33078478125,32.47
2021-07-06 10:37:29.953125000,-52.0,-4.0,38.0,93.8084375,-23.13,5.3308248124999995,32.47
2021-07-06 10:37:29.960937500,-52.0,-4.0,38.0,93.80703125,-24.585,5.33086484375,32.47
2021-07-06 10:37:29.968750000,-52.0,-4.0,38.0,93.80562499999999,-26.04,5.330904875,32.47
2021-07-06 10:37:29.976562500,-52.0,-4.0,38.0,93.80421875,-27.740000000000002,5.33094490625,32.47
2021-07-06 10:37:29.984375000,-52.0,-4.0,38.0,93.8028125,-29.44,5.330984937499999,32.47
2021-07-06 10:37:29.992187500,-52.0,-4.0,38.0,93.80140625,-31.42,5.3310249687499995,32.47
2021-07-06 10:37:30.000000000,-52.0,-4.0,38.0,93.8,-33.4,5.331065,32.47
2021-07-06 10:37:30.007812500,-52.0,-4.0,38.25,93.798984375,-35.585,5.3308648125,32.470625
2021-07-06 10:37:30.015625000,-52.0,-4.0,38.5,93.79796875,-37.77,5.330664625,32.47125
2021-07-06 10:37:30.023437500,-52.0,-4.0,38.75,93.796953125,-39.955,5.3304644375,32.471875
2021-07-06 10:37:30.031250000,-52.0,-4.0,39.0,93.7959375,-42.14,5.33026425,32.4725
2021-07-06 10:37:30.039062500,-52.0,-4.0,39.0,93.794921875,-43.99,5.3300640625,32.473124999999996
2021-07-06 10:37:30.046875000,-52.0,-4.0,39.0,93.79390624999999,-45.84,5.329863875,32.47375
2021-07-06 10:37:30.054687500,-52.0,-4.0,39.0,93.792890625,-46.925,5.3296636875,32.474375
2021-07-06 10:37:30.062500000,-52.0,-4.0,39.0,93.791875,-48.01,5.329463499999999,32.475
2021-07-06 10:37:30.070312500,-52.0,-4.0,39.0,93.790859375,-47.915,5.329263312499999,32.475625
2021-07-06 10:37:30.078125000,-52.0,-4.0,39.0,93.78984375,-47.82,5.329063124999999,32.47625
2021-07-06 10:37:30.085937500,-52.0,-4.0,39.0,93.788828125,-46.275,5.328862937499999,32.476875
2021-07-06 10:37:30.093750000,-52.0,-4.0,39.0,93.7878125,-44.73,5.3286627499999994,32.4775
2021-07-06 10:37:30.101562500,-52.0,-4.0,39.0,93.786796875,-41.739999999999995,5.3284625624999995,32.478125
2021-07-06 10:37:30.109375000,-52.0,-4.0,39.0,93.78578125,-38.75,5.3282623749999996,32.47875
2021-07-06 10:37:30.117187500,-52.0,-4.0,39.0,93.78476562499999,-34.635,5.3280621875,32.479375
2021-07-06 10:37:30.125000000,-52.0,-4.0,39.0,93.78375,-30.52,5.327862,32.480000000000004
2021-07-06 10:37:30.132812500,-52.0,-4.0,38.75,93.782734375,-25.825,5.3276618125,32.480625
2021-07-06 10:37:30.140625000,-52.0,-4.0,38.5,93.78171875,-21.13,5.327461625,32.48125
2021-07-06 10:37:30.148437500,-52.0,-4.0,38.25,93.780703125,-16.47,5.3272614375,32.481875
2021-07-06 10:37:30.156250000,-52.0,-4.0,38.0,93.7796875,-11.81,5.32706125,32.4825
2021-07-06 10:37:30.164062500,-52.0,-4.0,38.25,93.778671875,-7.665,5.3268610625,32.483125
2021-07-06 10:37:30.171875000,-52.0,-4.0,38.5,93.77765624999999,-3.52,5.326660875,32.48375
2021-07-06 10:37:30.179687500,-52.0,-4.0,38.75,93.776640625,-0.17500000000000027,5.3264606875,32.484375
2021-07-06 10:37:30.187500000,-52.0,-4.0,39.0,93.77562499999999,3.17,5.3262605,32.485
2021-07-06 10:37:30.195312500,-52.0,-4.0,38.75,93.774609375,5.695,5.326060312499999,32.485625
2021-07-06 10:37:30.203125000,-52.0,-4.0,38.5,93.77359375,8.22,5.325860124999999,32.48625
2021-07-06 10:37:30.210937500,-52.0,-4.0,38.25,93.772578125,10.030000000000001,5.325659937499999,32.486875000000005
2021-07-06 10:37:30.218750000,-52.0,-4.0,38.0,93.7715625,11.84,5.325459749999999,32.487500000000004
2021-07-06 10:37:30.226562500,-52.0,-4.0,38.25,93.770546875,13.075,5.325259562499999,32.488125000000004
2021-07-06 10:37:30.234375000,-52.0,-4.0,38.5,93.76953125,14.31,5.3250593749999995,32.48875
2021-07-06 10:37:30.242187500,-52.0,-4.0,38.75,93.76851562499999,15.085,5.3248591874999995,32.489375
2021-07-06 10:37:30.250000000,-52.0,-4.0,39.0,93.7675,15.86,5.324659,32.49
2021-07-06 10:37:30.257812500,-52.0,-4.0,38.75,93.766484375,16.22,5.3248591874999995,32.49
2021-07-06 10:37:30.265625000,-52.0,-4.0,38.5,93.76546875,16.58,5.3250593749999995,32.49
2021-07-06 10:37:30.273437500,-52.0,-4.0,38.25,93.764453125,16.57,5.325259562499999,32.49
2021-07-06 10:37:30.281250000,-52.0,-4.0,38.0,93.7634375,16.56,5.325459749999999,32.49
2021-07-06 10:37:30.289062500,-52.0,-4.0,38.0,93.762421875,16.285,5.325659937499999,32.49
2021-07-06 10:37:30.296875000,-52.0,-4.0,38.0,93.76140625,16.01,5.325860124999999,32.49
2021-07-06 10:37:30.304687500,-52.0,-4.0,38.0,93.760390625,15.635000000000002,5.326060312499999,32.49
2021-07-06 10:37:30.312500000,-52.0,-4.0,38.0,93.759375,15.26,5.3262605,32.49
2021-07-06 10:37:30.320312500,-52.0,-4.0,38.0,93.758359375,14.99,5.3264606875,32.49
2021-07-06 10:37:30.328125000,-52.0,-4.0,38.0,93.75734375,14.72,5.326660875,32.49
2021-07-06 10:37:30.335937500,-52.0,-4.0,38.0,93.756328125,14.705,5.3268610625,32.49
2021-07-06 10:37:30.343750000,-52.0,-4.0,38.0,93.7553125,14.69,5.32706125,32.49
2021-07-06 10:37:30.351562500,-52.0,-4.0,38.25,93.754296875,14.985,5.3272614375,32.49
2021-07-06 10:37:30.359375000,-52.0,-4.0,38.5,93.75328125,15.28,5.327461625,32.49
2021-07-06 10:37:30.367187500,-52.0,-4.0,38.75,93.75226562499999,15.8,5.3276618125,32.49
2021-07-06 10:37:30.375000000,-52.0,-4.0,39.0,93.75125,16.32,5.327862,32.49
2021-07-06 10:37:30.382812500,-52.0,-4.0,38.75,93.750234375,16.91,5.3280621875,32.49
2021-07-06 10:37:30.390625000,-52.0,-4.0,38.5,93.74921875,17.5,5.3282623749999996,32.49
2021-07-06 10:37:30.398437500,-52.0,-4.0,38.25,93.748203125,17.994999999999997,5.3284625624999995,32.49
2021-07-06 10:37:30.406250000,-52.0,-4.0,38.0,93.7471875,18.49,5.3286627499999994,32.49
2021-07-06 10:37:30.414062500,-52.0,-4.0,38.0,93.746171875,18.795,5.328862937499999,32.49
2021-07-06 10:37:30.421875000,-52.0,-4.0,38.0,93.74515625,19.1,5.329063124999999,32.49
2021-07-06 10:37:30.429687500,-52.0,-4.0,38.0,93.744140625,19.225,5.329263312499999,32.49
2021-07-06 10:37:30.437500000,-52.0,-4.0,38.0,93.74312499999999,19.35,5.329463499999999,32.49
2021-07-06 10:37:30.445312500,-52.0,-4.0,38.0,93.742109375,19.34,5.3296636875,32.49
2021-07-06 10:37:30.453125000,-52.0,-4.0,38.0,93.74109375,19.33,5.329863875,32.49
2021-07-06 10:37:30.460937500,-52.0,-4.0,38.0,93.740078125,19.21,5.3300640625,32.49
2021-07-06 10:37:30.468750000,-52.0,-4.0,38.0,93.7390625,19.09,5.33026425,32.49
2021-07-06 10:37:30.476562500,-52.0,-4.0,38.25,93.738046875,18.84,5.3304644375,32.49
2021-07-06 10:37:30.484375000,-52.0,-4.0,38.5,93.73703125,18.59,5.330664625,32.49
2021-07-06 10:37:30.492187500,-52.0,-4.0,38.75,93.736015625,18.105,5.3308648125,32.49
2021-07-06 10:37:30.500000000,-52.0,-4.0,39.0,93.735,17.62,5.331065,32.49
2021-07-06 10:37:30.507812500,-52.0,-4.0,38.75,93.733984375,16.785,5.330784749999999,32.49
2021-07-06 10:37:30.515625000,-52.0,-4.0,38.5,93.73296875,15.95,5.3305045,32.49
2021-07-06 10:37:30.523437500,-52.0,-4.0,38.25,93.731953125,14.715,5.33022425,32.49
2021-07-06 10:37:30.531250000,-52.0,-4.0,38.0,93.7309375,13.48,5.329943999999999,32.49
2021-07-06 10:37:30.539062500,-52.0,-4.0,38.0,93.729921875,11.875,5.32966375,32.49
2021-07-06 10:37:30.546875000,-52.0,-4.0,38.0,93.72890625,10.27,5.3293835,32.49
2021-07-06 10:37:30.554687500,-52.0,-4.0,38.0,93.727890625,8.43,5.32910325,32.49
2021-07-06 10:37:30.562500000,-52.0,-4.0,38.0,93.726875,6.59,5.328823,32.49
2021-07-06 10:37:30.570312500,-52.0,-4.0,38.0,93.725859375,4.71,5.3285427499999996,32.49
2021-07-06 10:37:30.578125000,-52.0,-4.0,38.0,93.72484375,2.83,5.3282625,32.49
2021-07-06 10:37:30.585937500,-52.0,-4.0,38.0,93.723828125,1.065,5.32798225,32.49
2021-07-06 10:37:30.593750000,-52.0,-4.0,38.0,93.7228125,-0.7,5.327702,32.49
2021-07-06 10:37:30.601562500,-52.25,-4.0,38.0,93.721796875,-2.2649999999999997,5.32742175,32.49
2021-07-06 10:37:30.609375000,-52.5,-4.0,38.0,93.72078125,-3.83,5.3271415,32.49
2021-07-06 10:37:30.617187500,-52.75,-4.0,38.0,93.719765625,-5.205,5.32686125,32.49
2021-07-06 10:37:30.625000000,-53.0,-4.0,38.0,93.71875,-6.58,5.326581,32.49
2021-07-06 10:37:30.632812500,-52.75,-4.0,38.0,93.717734375,-7.89,5.32630075,32.49
2021-07-06 10:37:30.640625000,-52.5,-4.0,38.0,93.71671875,-9.2,5.3260205,32.49
2021-07-06 10:37:30.648437500,-52.25,-4.0,38.0,93.715703125,-10.62,5.32574025,32.49
2021-07-06 10:37:30.656250000,-52.0,-4.0,38.0,93.7146875,-12.04,5.32546,32.49
2021-07-06 10:37:30.664062500,-52.0,-4.0,38.25,93.713671875,-13.75,5.32517975,32.49
2021-07-06 10:37:30.671875000,-52.0,-4.0,38.5,93.71265625,-15.46,5.3248995,32.49
2021-07-06 10:37:30.679687500,-52.0,-4.0,38.75,93.711640625,-17.585,5.3246192500000005,32.49
2021-07-06 10:37:30.687500000,-52.0,-4.0,39.0,93.710625,-19.71,5.324339,32.49
2021-07-06 10:37:30.695312500,-52.0,-4.0,38.75,93.709609375,-22.245,5.32405875,32.49
2021-07-06 10:37:30.703125000,-52.0,-4.0,38.5,93.70859375,-24.78,5.3237785,32.49
2021-07-06 10:37:30.710937500,-52.0,-4.0,38.25,93.707578125,-27.545,5.32349825,32.49
2021-07-06 10:37:30.718750000,-52.0,-4.0,38.0,93.7065625,-30.31,5.323218000000001,32.49
2021-07-06 10:37:30.726562500,-52.0,-4.0,38.0,93.705546875,-32.97,5.32293775,32.49
2021-07-06 10:37:30.734375000,-52.0,-4.0,38.0,93.70453125,-35.63,5.3226575,32.49
2021-07-06 10:37:30.742187500,-52.0,-4.0,38.0,93.703515625,-37.75,5.322377250000001,32.49
2021-07-06 10:37:30.750000000,-52.0,-4.0,38.0,93.7025,-39.87,5.322097,32.49
2021-07-06 10:37:30.757812500,-52.0,-4.0,38.0,93.701484375,-41.0,5.3222971875,32.49
2021-07-06 10:37:30.765625000,-52.0,-4.0,38.0,93.70046875,-42.13,5.322497375,32.49
2021-07-06 10:37:30.773437500,-52.0,-4.0,38.0,93.699453125,-41.96,5.3226975625,32.49
2021-07-06 10:37:30.781250000,-52.0,-4.0,38.0,93.6984375,-41.79,5.32289775,32.49
2021-07-06 10:37:30.789062500,-52.0,-4.0,38.0,93.697421875,-40.239999999999995,5.3230979375,32.49
2021-07-06 10:37:30.796875000,-52.0,-4.0,38.0,93.69640625,-38.69,5.323298125,32.49
2021-07-06 10:37:30.804687500,-52.0,-4.0,38.0,93.695390625,-35.93,5.3234983125,32.49
2021-07-06 10:37:30.812500000,-52.0,-4.0,38.0,93.69437500000001,-33.17,5.323698500000001,32.49
2021-07-06 10:37:30.820312500,-52.0,-4.0,38.0,93.693359375,-29.565,5.323898687500001,32.49
2021-07-06 10:37:30.828125000,-52.0,-4.0,38.0,93.69234375,-25.96,5.324098875000001,32.49
2021-07-06 10:37:30.835937500,-52.0,-4.0,38.0,93.691328125,-21.97,5.324299062500001,32.49
2021-07-06 10:37:30.843750000,-52.0,-4.0,38.0,93.6903125,-17.98,5.324499250000001,32.49
2021-07-06 10:37:30.851562500,-52.0,-4.0,38.0,93.689296875,-14.025,5.3246994375000005,32.49
2021-07-06 10:37:30.859375000,-52.0,-4.0,38.0,93.68828125,-10.07,5.3248996250000005,32.49
2021-07-06 10:37:30.867187500,-52.0,-4.0,38.0,93.687265625,-6.470000000000001,5.3250998125,32.49
2021-07-06 10:37:30.875000000,-52.0,-4.0,38.0,93.68625,-2.87,5.3253,32.49
2021-07-06 10:37:30.882812500,-52.0,-4.0,38.0,93.68523437500001,0.17999999999999972,5.3255001875,32.49
2021-07-06 10:37:30.890625000,-52.0,-4.0,38.0,93.68421875,3.23,5.325700375,32.49
2021-07-06 10:37:30.898437500,-52.0,-4.0,38.0,93.683203125,5.654999999999999,5.3259005625,32.49
2021-07-06 10:37:30.906250000,-52.0,-4.0,38.0,93.6821875,8.08,5.32610075,32.49
2021-07-06 10:37:30.914062500,-52.0,-4.0,38.25,93.681171875,9.875,5.3263009375,32.49
2021-07-06 10:37:30.921875000,-52.0,-4.0,38.5,93.68015625,11.67,5.326501125,32.49
2021-07-06 10:37:30.929687500,-52.0,-4.0,38.75,93.679140625,12.870000000000001,5.3267013125,32.49
2021-07-06 10:37:30.937500000,-52.0,-4.0,39.0,93.678125,14.07,5.3269015,32.49
2021-07-06 10:37:30.945312500,-52.0,-4.0,38.75,93.677109375,14.745000000000001,5.327101687500001,32.49
2021-07-06 10:37:30.953125000,-52.0,-4.0,38.5,93.67609375,15.42,5.327301875000001,32.49
2021-07-06 10:37:30.960937500,-52.0,-4.0,38.25,93.675078125,15.675,5.327502062500001,32.49
2021-07-06 10:37:30.968750000,-52.0,-4.0,38.0,93.6740625,15.93,5.327702250000001,32.49
2021-07-06 10:37:30.976562500,-52.25,-4.0,38.0,93.673046875,15.899999999999999,5.327902437500001,32.49
2021-07-06 10:37:30.984375000,-52.5,-4.0,38.0,93.67203125,15.87,5.3281026250000005,32.49
2021-07-06 10:37:30.992187500,-52.75,-4.0,38.0,93.671015625,15.704999999999998,5.3283028125000005,32.49
2021-07-06 10:37:31.000000000,-53.0,-4.0,38.0,93.67,15.54,5.328503,32.49
2021-07-06 10:37:31.007812500,-52.75,-4.0,38.25,93.66890625,15.385,5.32846296875,32.489375
2021-07-06 10:37:31.015625000,-52.5,-4.0,38.5,93.6678125,15.23,5.3284229375,32.48875
2021-07-06 10:37:31.023437500,-52.25,-4.0,38.75,93.66671875,15.225000000000001,5.328382906250001,32.488125000000004
2021-07-06 10:37:31.031250000,-52.0,-4.0,39.0,93.665625,15.22,5.328342875000001,32.487500000000004
2021-07-06 10:37:31.039062500,-52.0,-4.0,39.0,93.66453125,15.41,5.32830284375,32.486875000000005
2021-07-06 10:37:31.046875000,-52.0,-4.0,39.0,93.6634375,15.6,5.3282628125,32.48625
2021-07-06 10:37:31.054687500,-52.0,-4.0,39.0,93.66234375,15.965,5.32822278125,32.485625
2021-07-06 10:37:31.062500000,-52.0,-4.0,39.0,93.66125,16.33,5.32818275,32.485
2021-07-06 10:37:31.070312500,-52.0,-4.0,38.75,93.66015625,16.775,5.328142718750001,32.484375
2021-07-06 10:37:31.078125000,-52.0,-4.0,38.5,93.6590625,17.22,5.3281026875,32.48375
2021-07-06 10:37:31.085937500,-52.0,-4.0,38.25,93.65796875,17.625,5.32806265625,32.483125
2021-07-06 10:37:31.093750000,-52.0,-4.0,38.0,93.656875,18.03,5.328022625,32.4825
2021-07-06 10:37:31.101562500,-52.0,-4.0,38.25,93.65578125,18.28,5.32798259375,32.481875
2021-07-06 10:37:31.109375000,-52.0,-4.0,38.5,93.65468750000001,18.53,5.3279425625000005,32.48125
2021-07-06 10:37:31.117187500,-52.0,-4.0,38.75,93.65359375,18.58,5.32790253125,32.480625
2021-07-06 10:37:31.125000000,-52.0,-4.0,39.0,93.6525,18.63,5.3278625,32.480000000000004
2021-07-06 10:37:31.132812500,-52.0,-4.0,39.0,93.65140625000001,18.509999999999998,5.32782246875,32.479375
2021-07-06 10:37:31.140625000,-52.0,-4.0,39.0,93.6503125,18.39,5.3277824375,32.47875
2021-07-06 10:37:31.148437500,-52.0,-4.0,39.0,93.64921875,18.145,5.3277424062500005,32.478125
2021-07-06 10:37:31.156250000,-52.0,-4.0,39.0,93.64812500000001,17.9,5.327702375,32.4775
2021-07-06 10:37:31.164062500,-52.0,-4.0,39.0,93.64703125,17.585,5.32766234375,32.476875
2021-07-06 10:37:31.171875000,-52.0,-4.0,39.0,93.6459375,17.27,5.3276223125,32.47625
2021-07-06 10:37:31.179687500,-52.0,-4.0,39.0,93.64484375,16.89,5.32758228125,32.475625
2021-07-06 10:37:31.187500000,-52.0,-4.0,39.0,93.64375,16.51,5.3275422500000005,32.475
2021-07-06 10:37:31.195312500,-52.0,-4.0,38.75,93.64265625,16.0,5.32750221875,32.474375
2021-07-06 10:37:31.203125000,-52.0,-4.0,38.5,93.6415625,15.49,5.3274621875,32.47375
2021-07-06 10:37:31.210937500,-52.0,-4.0,38.25,93.64046875,14.780000000000001,5.32742215625,32.473124999999996
2021-07-06 10:37:31.218750000,-52.0,-4.0,38.0,93.639375,14.07,5.327382125,32.4725
2021-07-06 10:37:31.226562500,-52.0,-4.0,38.25,93.63828125,13.094999999999999,5.32734209375,32.471875
2021-07-06 10:37:31.234375000,-52.0,-4.0,38.5,93.6371875,12.12,5.3273020625,32.47125
2021-07-06 10:37:31.242187500,-52.0,-4.0,38.75,93.63609375,10.87,5.32726203125,32.470625
2021-07-06 10:37:31.250000000,-52.0,-4.0,39.0,93.635,9.62,5.327222,32.47
2021-07-06 10:37:31.257812500,-52.0,-4.0,39.0,93.63390625,8.149999999999999,5.327382125,32.47
2021-07-06 10:37:31.265625000,-52.0,-4.0,39.0,93.6328125,6.68,5.32754225,32.47
2021-07-06 10:37:31.273437500,-52.0,-4.0,39.0,93.63171875,5.13,5.327702375,32.47
2021-07-06 10:37:31.281250000,-52.0,-4.0,39.0,93.630625,3.58,5.3278625,32.47
2021-07-06 10:37:31.289062500,-52.0,-4.0,38.75,93.62953125,2.08,5.328022625,32.47
2021-07-06 10:37:31.296875000,-52.0,-4.0,38.5,93.6284375,0.58,5.32818275,32.47
2021-07-06 10:37:31.304687500,-52.0,-4.0,38.25,93.62734375000001,-0.745,5.328342875,32.47
2021-07-06 10:37:31.312500000,-52.0,-4.0,38.0,93.62625,-2.07,5.3285029999999995,32.47
2021-07-06 10:37:31.320312500,-52.0,-4.0,38.25,93.62515625,-3.175,5.328663125,32.47
2021-07-06 10:37:31.328125000,-52.0,-4.0,38.5,93.62406250000001,-4.28,5.32882325,32.47
2021-07-06 10:37:31.335937500,-52.0,-4.0,38.75,93.62296875,-5.21,5.328983375,32.47
2021-07-06 10:37:31.343750000,-52.0,-4.0,39.0,93.621875,-6.14,5.3291435,32.47
2021-07-06 10:37:31.351562500,-52.0,-4.0,39.0,93.62078125000001,-7.005,5.329303625,32.47
2021-07-06 10:37:31.359375000,-52.0,-4.0,39.0,93.6196875,-7.87,5.32946375,32.47
2021-07-06 10:37:31.367187500,-52.0,-4.0,39.0,93.61859375,-8.83,5.329623875,32.47
2021-07-06 10:37:31.375000000,-52.0,-4.0,39.0,93.6175,-9.79,5.329784,32.47
2021-07-06 10:37:31.382812500,-52.0,-4.0,39.0,93.61640625,-10.995,5.329944125,32.47
2021-07-06 10:37:31.390625000,-52.0,-4.0,39.0,93.6153125,-12.2,5.33010425,32.47
2021-07-06 10:37:31.398437500,-52.0,-4.0,39.0,93.61421875,-13.75,5.3302643750000005,32.47
2021-07-06 10:37:31.406250000,-52.0,-4.0,39.0,93.613125,-15.3,5.3304245,32.47
2021-07-06 10:37:31.414062500,-52.0,-4.0,39.0,93.61203125,-17.18,5.330584625,32.47
2021-07-06 10:37:31.421875000,-52.0,-4.0,39.0,93.6109375,-19.06,5.33074475,32.47
2021-07-06 10:37:31.429687500,-52.0,-4.0,39.0,93.60984375,-21.1,5.330904875,32.47
2021-07-06 10:37:31.437500000,-52.0,-4.0,39.0,93.60875,-23.14,5.331065000000001,32.47
2021-07-06 10:37:31.445312500,-52.0,-4.0,39.0,93.60765625,-24.995,5.3312251250000005,32.47
2021-07-06 10:37:31.453125000,-52.0,-4.0,39.0,93.6065625,-26.85,5.33138525,32.47
2021-07-06 10:37:31.460937500,-52.0,-4.0,39.0,93.60546875,-28.060000000000002,5.331545375,32.47
2021-07-06 10:37:31.468750000,-52.0,-4.0,39.0,93.604375,-29.27,5.3317055,32.47
2021-07-06 10:37:31.476562500,-52.0,-4.0,39.0,93.60328125,-29.405,5.331865625,32.47
2021-07-06 10:37:31.484375000,-52.0,-4.0,39.0,93.6021875,-29.54,5.332025750000001,32.47
2021-07-06 10:37:31.492187500,-52.0,-4.0,39.0,93.60109375,-28.335,5.332185875,32.47
2021-07-06 10:37:31.500000000,-52.0,-4.0,39.0,93.6,-27.13,5.332346,32.47
2021-07-06 10:37:31.507812500,-52.0,-4.0,39.0,93.59890625,-24.625,5.33250615625,32.47
2021-07-06 10:37:31.515625000,-52.0,-4.0,39.0,93.5978125,-22.12,5.332666312500001,32.47
2021-07-06 10:37:31.523437500,-52.0,-4.0,39.0,93.59671875000001,-18.630000000000003,5.33282646875,32.47
2021-07-06 10:37:31.531250000,-52.0,-4.0,39.0,93.595625,-15.14,5.332986625,32.47
2021-07-06 10:37:31.539062500,-52.0,-4.0,39.0,93.59453125,-11.185,5.33314678125,32.47
2021-07-06 10:37:31.546875000,-52.0,-4.0,39.0,93.59343750000001,-7.23,5.3333069375,32.47
2021-07-06 10:37:31.554687500,-52.0,-4.0,39.0,93.59234375,-3.325,5.33346709375,32.47
2021-07-06 10:37:31.562500000,-52.0,-4.0,39.0,93.59125,0.58,5.33362725,32.47
2021-07-06 10:37:31.570312500,-52.0,-4.0,39.0,93.59015625,4.045,5.33378740625,32.47
2021-07-06 10:37:31.578125000,-52.0,-4.0,39.0,93.5890625,7.51,5.333947562500001,32.47
2021-07-06 10:37:31.585937500,-52.0,-4.0,39.0,93.58796875,10.35,5.33410771875,32.47
2021-07-06 10:37:31.593750000,-52.0,-4.0,39.0,93.586875,13.19,5.334267875,32.47
2021-07-06 10:37:31.601562500,-52.0,-4.0,39.0,93.58578125,15.379999999999999,5.33442803125,32.47
2021-07-06 10:37:31.609375000,-52.0,-4.0,39.0,93.5846875,17.57,5.3345881875,32.47
2021-07-06 10:37:31.617187500,-52.0,-4.0,39.0,93.58359375,19.130000000000003,5.33474834375,32.47
2021-07-06 10:37:31.625000000,-52.0,-4.0,39.0,93.5825,20.69,5.3349085,32.47
2021-07-06 10:37:31.632812500,-52.0,-4.0,39.0,93.58140625,21.67,5.33506865625,32.47
2021-07-06 10:37:31.640625000,-52.0,-4.0,39.0,93.5803125,22.65,5.3352288125000005,32.47
2021-07-06 10:37:31.648437500,-52.0,-4.0,39.0,93.57921875,23.07,5.33538896875,32.47
2021-07-06 10:37:31.656250000,-52.0,-4.0,39.0,93.578125,23.49,5.335549125,32.47
2021-07-06 10:37:31.664062500,-52.0,-4.0,39.0,93.57703125,23.415,5.33570928125,32.47
2021-07-06 10:37:31.671875000,-52.0,-4.0,39.0,93.5759375,23.34,5.3358694374999995,32.47
2021-07-06 10:37:31.679687500,-52.0,-4.0,39.0,93.57484375,22.895,5.33602959375,32.47
2021-07-06 10:37:31.687500000,-52.0,-4.0,39.0,93.57375,22.45,5.33618975,32.47
2021-07-06 10:37:31.695312500,-52.0,-4.0,39.0,93.57265625,21.825,5.33634990625,32.47
2021-07-06 10:37:31.703125000,-52.0,-4.0,39.0,93.5715625,21.2,5.3365100625,32.47
2021-07-06 10:37:31.710937500,-52.0,-4.0,39.0,93.57046875,20.58,5.33667021875,32.47
2021-07-06 10:37:31.718750000,-52.0,-4.0,39.0,93.56937500000001,19.96,5.336830375,32.47
2021-07-06 10:37:31.726562500,-52.0,-4.0,39.0,93.56828125,19.475,5.33699053125,32.47
2021-07-06 10:37:31.734375000,-52.0,-4.0,39.0,93.5671875,18.99,5.337150687499999,32.47
2021-07-06 10:37:31.742187500,-52.0,-4.0,39.0,93.56609375000001,18.71,5.33731084375,32.47
2021-07-06 10:37:31.750000000,-52.0,-4.0,39.0,93.565,18.43,5.337471,32.47
2021-07-06 10:37:31.757812500,-52.0,-4.0,39.0,93.56390625,18.33,5.3377111875,32.47
2021-07-06 10:37:31.765625000,-52.0,-4.0,39.0,93.5628125,18.23,5.337951375,32.47
2021-07-06 10:37:31.773437500,-52.0,-4.0,39.0,93.56171875,18.259999999999998,5.3381915625,32.47
2021-07-06 10:37:31.781250000,-52.0,-4.0,39.0,93.560625,18.29,5.33843175,32.47
2021-07-06 10:37:31.789062500,-52.0,-4.0,39.0,93.55953125,18.39,5.3386719375,32.47
2021-07-06 10:37:31.796875000,-52.0,-4.0,39.0,93.5584375,18.49,5.338912125,32.47
2021-07-06 10:37:31.804687500,-52.0,-4.0,39.0,93.55734375,18.61,5.3391523124999996,32.47
2021-07-06 10:37:31.812500000,-52.0,-4.0,39.0,93.55625,18.73,5.3393925,32.47
2021-07-06 10:37:31.820312500,-52.0,-4.0,39.0,93.55515625,18.835,5.3396326875,32.47
2021-07-06 10:37:31.828125000,-52.0,-4.0,39.0,93.5540625,18.94,5.339872875,32.47
2021-07-06 10:37:31.835937500,-52.0,-4.0,39.0,93.55296875,18.98,5.3401130625,32.47
2021-07-06 10:37:31.843750000,-52.0,-4.0,39.0,93.551875,19.02,5.34035325,32.47
2021-07-06 10:37:31.851562500,-52.0,-4.0,39.0,93.55078125,18.95,5.3405934375,32.47
2021-07-06 10:37:31.859375000,-52.0,-4.0,39.0,93.5496875,18.88,5.340833625,32.47
2021-07-06 10:37:31.867187500,-52.0,-4.0,39.0,93.54859375,18.64,5.3410738125,32.47
2021-07-06 10:37:31.875000000,-52.0,-4.0,39.0,93.5475,18.4,5.341314000000001,32.47
2021-07-06 10:37:31.882812500,-52.0,-4.0,39.0,93.54640625,17.93,5.3415541875,32.47
2021-07-06 10:37:31.890625000,-52.0,-4.0,39.0,93.5453125,17.46,5.341794375,32.47
2021-07-06 10:37:31.898437500,-52.0,-4.0,39.0,93.54421875,16.71,5.3420345625,32.47
2021-07-06 10:37:31.906250000,-52.0,-4.0,39.0,93.543125,15.96,5.3422747500000005,32.47
2021-07-06 10:37:31.914062500,-52.0,-4.0,39.0,93.54203125000001,14.9,5.3425149375,32.47
2021-07-06 10:37:31.921875000,-52.0,-4.0,39.0,93.5409375,13.84,5.342755125,32.47
2021-07-06 10:37:31.929687500,-52.0,-4.0,39.0,93.53984375,12.495000000000001,5.3429953125,32.47
2021-07-06 10:37:31.937500000,-52.0,-4.0,39.0,93.53875000000001,11.15,5.3432355000000005,32.47
2021-07-06 10:37:31.945312500,-52.0,-3.75,39.0,93.53765625,9.58,5.343475687500001,32.47
2021-07-06 10:37:31.953125000,-52.0,-3.5,39.0,93.5365625,8.01,5.343715875,32.47
2021-07-06 10:37:31.960937500,-52.0,-3.25,39.0,93.53546875,6.345,5.3439560625,32.47
2021-07-06 10:37:31.968750000,-52.0,-3.0,39.0,93.534375,4.68,5.34419625,32.47
2021-07-06 10:37:31.976562500,-52.0,-3.25,39.0,93.53328125,3.0349999999999997,5.344436437500001,32.47
2021-07-06 10:37:31.984375000,-52.0,-3.5,39.0,93.5321875,1.39,5.344676625,32.47
2021-07-06 10:37:31.992187500,-52.0,-3.75,39.0,93.53109375,-0.13000000000000012,5.3449168125,32.47
2021-07-06 10:37:32.000000000,-52.0,-4.0,39.0,93.53,-1.65,5.345157,32.47
2021-07-06 10:37:32.007812500,-52.0,-4.0,39.0,93.52859375,-3.0199999999999996,5.345197031250001,32.470625
2021-07-06 10:37:32.015625000,-52.0,-4.0,39.0,93.5271875,-4.39,5.345237062500001,32.47125
2021-07-06 10:37:32.023437500,-52.0,-4.0,39.0,93.52578125,-5.68,5.34527709375,32.471875
2021-07-06 10:37:32.031250000,-52.0,-4.0,39.0,93.524375,-6.97,5.345317125,32.4725
2021-07-06 10:37:32.039062500,-52.0,-4.0,39.0,93.52296875,-8.305,5.34535715625,32.473124999999996
2021-07-06 10:37:32.046875000,-52.0,-4.0,39.0,93.5215625,-9.64,5.345397187500001,32.47375
2021-07-06 10:37:32.054687500,-52.0,-4.0,39.0,93.52015625,-11.15,5.34543721875,32.474375
2021-07-06 10:37:32.062500000,-52.0,-4.0,39.0,93.51875,-12.66,5.34547725,32.475
2021-07-06 10:37:32.070312500,-52.0,-4.0,38.75,93.51734375,-14.43,5.34551728125,32.475625
2021-07-06 10:37:32.078125000,-52.0,-4.0,38.5,93.5159375,-16.2,5.3455573125,32.47625
2021-07-06 10:37:32.085937500,-52.0,-4.0,38.25,93.51453125,-18.205,5.345597343750001,32.476875
2021-07-06 10:37:32.093750000,-52.0,-4.0,38.0,93.513125,-20.21,5.345637375,32.4775
2021-07-06 10:37:32.101562500,-52.0,-4.0,38.25,93.51171875,-22.275,5.34567740625,32.478125
2021-07-06 10:37:32.109375000,-52.0,-4.0,38.5,93.5103125,-24.34,5.3457174375,32.47875
2021-07-06 10:37:32.117187500,-52.0,-4.0,38.75,93.50890625,-26.165,5.3457574687500005,32.479375
2021-07-06 10:37:32.125000000,-52.0,-4.0,39.0,93.5075,-27.99,5.3457975,32.480000000000004
2021-07-06 10:37:32.132812500,-52.0,-4.0,39.0,93.50609375,-29.18,5.34583753125,32.480625
2021-07-06 10:37:32.140625000,-52.0,-4.0,39.0,93.5046875,-30.37,5.3458775625,32.48125
2021-07-06 10:37:32.148437500,-52.0,-4.0,39.0,93.50328125,-30.565,5.34591759375,32.481875
2021-07-06 10:37:32.156250000,-52.0,-4.0,39.0,93.501875,-30.76,5.3459576250000005,32.4825
2021-07-06 10:37:32.164062500,-52.0,-4.0,38.75,93.50046875,-29.73,5.34599765625,32.483125
2021-07-06 10:37:32.171875000,-52.0,-4.0,38.5,93.4990625,-28.7,5.3460376875,32.48375
2021-07-06 10:37:32.179687500,-52.0,-4.0,38.25,93.49765625,-26.45,5.34607771875,32.484375
2021-07-06 10:37:32.187500000,-52.0,-4.0,38.0,93.49625,-24.2,5.34611775,32.485
2021-07-06 10:37:32.195312500,-52.0,-4.0,38.25,93.49484375,-20.98,5.3461577812500005,32.485625
2021-07-06 10:37:32.203125000,-52.0,-4.0,38.5,93.4934375,-17.76,5.3461978125,32.48625
2021-07-06 10:37:32.210937500,-52.0,-4.0,38.75,93.49203125,-13.990000000000002,5.34623784375,32.486875000000005
2021-07-06 10:37:32.218750000,-52.0,-4.0,39.0,93.490625,-10.22,5.346277875,32.487500000000004
2021-07-06 10:37:32.226562500,-52.0,-4.0,38.75,93.48921875,-6.380000000000001,5.34631790625,32.488125000000004
2021-07-06 10:37:32.234375000,-52.0,-4.0,38.5,93.4878125,-2.54,5.3463579375,32.48875
2021-07-06 10:37:32.242187500,-52.0,-4.0,38.25,93.48640625,0.98,5.34639796875,32.489375
2021-07-06 10:37:32.250000000,-52.0,-4.0,38.0,93.485,4.5,5.346438,32.49
2021-07-06 10:37:32.257812500,-52.25,-4.0,38.25,93.48359375,7.48,5.34631790625,32.49
2021-07-06 10:37:32.265625000,-52.5,-4.0,38.5,93.4821875,10.46,5.3461978125,32.49
2021-07-06 10:37:32.273437500,-52.75,-4.0,38.75,93.48078124999999,12.835,5.34607771875,32.49
2021-07-06 10:37:32.281250000,-53.0,-4.0,39.0,93.479375,15.21,5.3459576250000005,32.49
2021-07-06 10:37:32.289062500,-52.75,-4.0,39.0,93.47796875,17.009999999999998,5.34583753125,32.49
2021-07-06 10:37:32.296875000,-52.5,-4.0,39.0,93.4765625,18.81,5.3457174375,32.49
2021-07-06 10:37:32.304687500,-52.25,-4.0,39.0,93.47515625,20.075,5.34559734375,32.49
2021-07-06 10:37:32.312500000,-52.0,-4.0,39.0,93.47375,21.34,5.34547725,32.49
2021-07-06 10:37:32.320312500,-52.0,-4.0,39.0,93.47234375,22.075,5.34535715625,32.49
2021-07-06 10:37:32.328125000,-52.0,-4.0,39.0,93.4709375,22.81,5.3452370625,32.49
2021-07-06 10:37:32.335937500,-52.0,-4.0,39.0,93.46953125,23.03,5.34511696875,32.49
2021-07-06 10:37:32.343750000,-52.0,-4.0,39.0,93.468125,23.25,5.344996875,32.49
2021-07-06 10:37:32.351562500,-52.0,-4.0,39.0,93.46671875,22.990000000000002,5.34487678125,32.49
2021-07-06 10:37:32.359375000,-52.0,-4.0,39.0,93.4653125,22.73,5.3447566875,32.49
2021-07-06 10:37:32.367187500,-52.0,-4.0,39.0,93.46390625,22.08,5.34463659375,32.49
2021-07-06 10:37:32.375000000,-52.0,-4.0,39.0,93.4625,21.43,5.3445165,32.49
2021-07-06 10:37:32.382812500,-52.0,-4.0,39.0,93.46109375,20.560000000000002,5.3443964062500005,32.49
2021-07-06 10:37:32.390625000,-52.0,-4.0,39.0,93.4596875,19.69,5.3442763125,32.49
2021-07-06 10:37:32.398437500,-52.0,-4.0,39.0,93.45828125,18.78,5.34415621875,32.49
2021-07-06 10:37:32.406250000,-52.0,-4.0,39.0,93.456875,17.87,5.344036125000001,32.49
2021-07-06 10:37:32.414062500,-52.0,-4.0,39.0,93.45546875,17.060000000000002,5.34391603125,32.49
2021-07-06 10:37:32.421875000,-52.0,-4.0,39.0,93.45406249999999,16.25,5.3437959375,32.49
2021-07-06 10:37:32.429687500,-52.0,-4.0,39.0,93.45265625,15.61,5.34367584375,32.49
2021-07-06 10:37:32.437500000,-52.0,-4.0,39.0,93.45125,14.97,5.34355575,32.49
2021-07-06 10:37:32.445312500,-52.0,-4.0,39.0,93.44984375,14.495000000000001,5.3434356562500005,32.49
2021-07-06 10:37:32.453125000,-52.0,-4.0,39.0,93.4484375,14.02,5.3433155625,32.49
2021-07-06 10:37:32.460937500,-52.0,-4.0,39.0,93.44703125,13.66,5.34319546875,32.49
2021-07-06 10:37:32.468750000,-52.0,-4.0,39.0,93.44562499999999,13.3,5.343075375,32.49
2021-07-06 10:37:32.476562500,-52.0,-4.0,39.0,93.44421875,12.985,5.34295528125,32.49
2021-07-06 10:37:32.484375000,-52.0,-4.0,39.0,93.4428125,12.67,5.3428351875,32.49
2021-07-06 10:37:32.492187500,-52.0,-4.0,39.0,93.44140625,12.379999999999999,5.34271509375,32.49
2021-07-06 10:37:32.500000000,-52.0,-4.0,39.0,93.44,12.09,5.342595,32.49
2021-07-06 10:37:32.507812500,-52.0,-4.0,39.0,93.43859375,11.825,5.34263503125,32.49
2021-07-06 10:37:32.515625000,-52.0,-4.0,39.0,93.4371875,11.56,5.342675062500001,32.49
2021-07-06 10:37:32.523437500,-52.0,-4.0,39.0,93.43578124999999,11.305,5.34271509375,32.49
2021-07-06 10:37:32.531250000,-52.0,-4.0,39.0,93.434375,11.05,5.342755125,32.49
2021-07-06 10:37:32.539062500,-52.0,-4.0,39.0,93.43296875,10.755,5.34279515625,32.49
2021-07-06 10:37:32.546875000,-52.0,-4.0,39.0,93.4315625,10.46,5.3428351875,32.49
2021-07-06 10:37:32.554687500,-52.0,-4.0,39.0,93.43015625,10.005,5.34287521875,32.49
2021-07-06 10:37:32.562500000,-52.0,-4.0,39.0,93.42875,9.55,5.34291525,32.49
2021-07-06 10:37:32.570312500,-52.0,-4.0,39.0,93.42734374999999,8.775,5.34295528125,32.49
2021-07-06 10:37:32.578125000,-52.0,-4.0,39.0,93.4259375,8.0,5.3429953125,32.49
2021-07-06 10:37:32.585937500,-52.0,-4.0,39.0,93.42453125,6.79,5.34303534375,32.49
2021-07-06 10:37:32.593750000,-52.0,-4.0,39.0,93.423125,5.58,5.343075375,32.49
2021-07-06 10:37:32.601562500,-52.0,-4.0,39.0,93.42171875,3.94,5.34311540625,32.49
2021-07-06 10:37:32.609375000,-52.0,-4.0,39.0,93.4203125,2.3,5.3431554375,32.49
2021-07-06 10:37:32.617187500,-52.0,-4.0,39.0,93.41890624999999,0.3699999999999999,5.34319546875,32.49
2021-07-06 10:37:32.625000000,-52.0,-4.0,39.0,93.41749999999999,-1.56,5.3432355000000005,32.49
2021-07-06 10:37:32.632812500,-52.0,-4.0,39.0,93.41609375,-3.55,5.34327553125,32.49
2021-07-06 10:37:32.640625000,-52.0,-4.0,39.0,93.4146875,-5.54,5.3433155625,32.49
2021-07-06 10:37:32.648437500,-52.0,-4.0,39.0,93.41328125,-7.345000000000001,5.34335559375,32.49
2021-07-06 10:37:32.656250000,-52.0,-4.0,39.0,93.411875,-9.15,5.343395625,32.49
2021-07-06 10:37:32.664062500,-52.0,-4.0,39.0,93.41046874999999,-10.629999999999999,5.34343565625,32.49
2021-07-06 10:37:32.671875000,-52.0,-4.0,39.0,93.40906249999999,-12.11,5.3434756875,32.49
2021-07-06 10:37:32.679687500,-52.0,-4.0,39.0,93.40765625,-13.274999999999999,5.34351571875,32.49
2021-07-06 10:37:32.687500000,-52.0,-4.0,39.0,93.40625,-14.44,5.34355575,32.49
2021-07-06 10:37:32.695312500,-52.0,-4.0,39.0,93.40484375,-15.440000000000001,5.34359578125,32.49
2021-07-06 10:37:32.703125000,-52.0,-4.0,39.0,93.4034375,-16.44,5.3436358125,32.49
2021-07-06 10:37:32.710937500,-52.0,-4.0,39.0,93.40203125,-17.5,5.34367584375,32.49
2021-07-06 10:37:32.718750000,-52.0,-4.0,39.0,93.40062499999999,-18.56,5.343715875,32.49
2021-07-06 10:37:32.726562500,-52.0,-4.0,39.0,93.39921875,-19.915,5.34375590625,32.49
2021-07-06 10:37:32.734375000,-52.0,-4.0,39.0,93.3978125,-21.27,5.3437959374999995,32.49
2021-07-06 10:37:32.742187500,-52.0,-4.0,39.0,93.39640625,-23.085,5.34383596875,32.49
2021-07-06 10:37:32.750000000,-52.0,-4.0,39.0,93.395,-24.9,5.343876,32.49
2021-07-06 10:37:32.757812500,-52.0,-4.0,39.0,93.39359375,-27.185,5.3440761875,32.49
2021-07-06 10:37:32.765625000,-52.0,-4.0,39.0,93.39218749999999,-29.47,5.344276375,32.49
2021-07-06 10:37:32.773437500,-52.0,-4.0,39.0,93.39078124999999,-32.075,5.3444765625,32.49
2021-07-06 10:37:32.781250000,-52.0,-4.0,39.0,93.389375,-34.68,5.34467675,32.49
2021-07-06 10:37:32.789062500,-52.0,-4.0,39.0,93.38796875,-37.25,5.3448769375,32.49
2021-07-06 10:37:32.796875000,-52.0,-4.0,39.0,93.3865625,-39.82,5.3450771249999995,32.49
2021-07-06 10:37:32.804687500,-52.0,-4.0,39.0,93.38515625,-41.870000000000005,5.3452773124999995,32.49
2021-07-06 10:37:32.812500000,-52.0,-4.0,39.0,93.38374999999999,-43.92,5.345477499999999,32.49
2021-07-06 10:37:32.820312500,-52.0,-4.0,39.0,93.38234374999999,-44.93,5.3456776875,32.49
2021-07-06 10:37:32.828125000,-52.0,-4.0,39.0,93.3809375,-45.94,5.345877875,32.49
2021-07-06 10:37:32.835937500,-52.0,-4.0,39.0,93.37953125,-45.525,5.3460780625,32.49
2021-07-06 10:37:32.843750000,-52.0,-4.0,39.0,93.378125,-45.11,5.34627825,32.49
2021-07-06 10:37:32.851562500,-52.0,-4.0,39.0,93.37671875,-43.16,5.3464784375,32.49
2021-07-06 10:37:32.859375000,-52.0,-4.0,39.0,93.37531249999999,-41.21,5.346678625,32.49
2021-07-06 10:37:32.867187500,-52.0,-4.0,39.0,93.37390624999999,-37.945,5.3468788125,32.49
2021-07-06 10:37:32.875000000,-52.0,-4.0,39.0,93.3725,-34.68,5.347079,32.49
2021-07-06 10:37:32.882812500,-52.0,-3.75,38.75,93.37109375,-30.595,5.3472791875,32.49
2021-07-06 10:37:32.890625000,-52.0,-3.5,38.5,93.3696875,-26.51,5.347479375,32.49
2021-07-06 10:37:32.898437500,-52.0,-3.25,38.25,93.36828125,-22.200000000000003,5.3476795625,32.49
2021-07-06 10:37:32.906250000,-52.0,-3.0,38.0,93.366875,-17.89,5.34787975,32.49
2021-07-06 10:37:32.914062500,-52.0,-3.25,38.25,93.36546874999999,-13.870000000000001,5.3480799375,32.49
2021-07-06 10:37:32.921875000,-52.0,-3.5,38.5,93.36406249999999,-9.85,5.348280125,32.49
2021-07-06 10:37:32.929687500,-52.0,-3.75,38.75,93.36265625,-6.445,5.3484803125,32.49
2021-07-06 10:37:32.937500000,-52.0,-4.0,39.0,93.36125,-3.04,5.3486805,32.49
2021-07-06 10:37:32.945312500,-52.0,-4.0,39.0,93.35984375,-0.355,5.3488806875,32.49
2021-07-06 10:37:32.953125000,-52.0,-4.0,39.0,93.3584375,2.33,5.349080875,32.49
2021-07-06 10:37:32.960937500,-52.0,-4.0,39.0,93.35703124999999,4.35,5.3492810625,32.49
2021-07-06 10:37:32.968750000,-52.0,-4.0,39.0,93.35562499999999,6.37,5.34948125,32.49
2021-07-06 10:37:32.976562500,-52.0,-4.0,38.75,93.35421875,7.835000000000001,5.3496814375,32.49
2021-07-06 10:37:32.984375000,-52.0,-4.0,38.5,93.3528125,9.3,5.349881625,32.49
2021-07-06 10:37:32.992187500,-52.0,-4.0,38.25,93.35140625,10.315000000000001,5.3500818125,32.49
2021-07-06 10:37:33.000000000,-52.0,-4.0,38.0,93.35,11.33,5.350282,32.49
2021-07-06 10:37:33.007812500,-52.0,-4.0,38.0,93.34843749999999,11.969999999999999,5.3503620625,32.49
2021-07-06 10:37:33.015625000,-52.0,-4.0,38.0,93.346875,12.61,5.350442125,32.49
2021-07-06 10:37:33.023437500,-52.0,-4.0,38.0,93.34531249999999,12.965,5.3505221875,32.49
2021-07-06 10:37:33.031250000,-52.0,-4.0,38.0,93.34375,13.32,5.35060225,32.49
2021-07-06 10:37:33.039062500,-52.0,-4.0,38.25,93.3421875,13.485,5.3506823125,32.49
2021-07-06 10:37:33.046875000,-52.0,-4.0,38.5,93.34062499999999,13.65,5.350762375,32.49
2021-07-06 10:37:33.054687500,-52.0,-4.0,38.75,93.3390625,13.735,5.3508424375,32.49
2021-07-06 10:37:33.062500000,-52.0,-4.0,39.0,93.33749999999999,13.82,5.3509225,32.49
2021-07-06 10:37:33.070312500,-52.0,-4.0,39.0,93.3359375,13.9,5.3510025625,32.49
2021-07-06 10:37:33.078125000,-52.0,-4.0,39.0,93.334375,13.98,5.351082625,32.49
2021-07-06 10:37:33.085937500,-52.0,-4.0,39.0,93.33281249999999,14.07,5.3511626875000005,32.49
2021-07-06 10:37:33.093750000,-52.0,-4.0,39.0,93.33125,14.16,5.35124275,32.49
2021-07-06 10:37:33.101562500,-52.0,-4.0,39.0,93.32968749999999,14.205,5.3513228125,32.49
2021-07-06 10:37:33.109375000,-52.0,-4.0,39.0,93.328125,14.25,5.351402875,32.49
2021-07-06 10:37:33.117187500,-52.0,-4.0,39.0,93.3265625,14.17,5.3514829375,32.49
2021-07-06 10:37:33.125000000,-52.0,-4.0,39.0,93.32499999999999,14.09,5.3515630000000005,32.49
2021-07-06 10:37:33.132812500,-52.0,-4.0,38.75,93.3234375,13.809999999999999,5.3516430625,32.49
2021-07-06 10:37:33.140625000,-52.0,-4.0,38.5,93.32187499999999,13.53,5.351723125,32.49
2021-07-06 10:37:33.148437500,-52.0,-4.0,38.25,93.3203125,13.055,5.3518031875,32.49
2021-07-06 10:37:33.156250000,-52.0,-4.0,38.0,93.31875,12.58,5.35188325,32.49
2021-07-06 10:37:33.164062500,-52.0,-4.0,38.25,93.3171875,11.98,5.3519633125,32.49
2021-07-06 10:37:33.171875000,-52.0,-4.0,38.5,93.315625,11.38,5.352043375,32.49
2021-07-06 10:37:33.179687500,-52.0,-4.0,38.75,93.31406249999999,10.735,5.3521234375,32.49
2021-07-06 10:37:33.187500000,-52.0,-4.0,39.0,93.3125,10.09,5.3522035,32.49
2021-07-06 10:37:33.195312500,-52.0,-4.0,39.0,93.3109375,9.469999999999999,5.3522835625,32.49
2021-07-06 10:37:33.203125000,-52.0,-4.0,39.0,93.309375,8.85,5.352363625,32.49
2021-07-06 10:37:33.210937500,-52.0,-4.0,39.0,93.3078125,8.235,5.3524436875,32.49
2021-07-06 10:37:33.218750000,-52.0,-4.0,39.0,93.30624999999999,7.62,5.3525237500000005,32.49
2021-07-06 10:37:33.226562500,-52.0,-4.0,38.75,93.3046875,6.965,5.3526038125,32.49
2021-07-06 10:37:33.234375000,-52.0,-4.0,38.5,93.303125,6.31,5.352683875,32.49
2021-07-06 10:37:33.242187500,-52.0,-4.0,38.25,93.3015625,5.529999999999999,5.3527639375,32.49
2021-07-06 10:37:33.250000000,-52.0,-4.0,38.0,93.3,4.75,5.352844,32.49
2021-07-06 10:37:33.257812500,-52.0,-4.0,38.0,93.29843749999999,3.795,5.352723875000001,32.49
2021-07-06 10:37:33.265625000,-52.0,-4.0,38.0,93.296875,2.84,5.35260375,32.49
2021-07-06 10:37:33.273437500,-52.0,-4.0,38.0,93.2953125,1.7,5.3524836250000005,32.49
2021-07-06 10:37:33.281250000,-52.0,-4.0,38.0,93.29375,0.56,5.3523635,32.49
2021-07-06 10:37:33.289062500,-52.0,-4.0,38.0,93.2921875,-0.6949999999999998,5.3522433750000005,32.49
2021-07-06 10:37:33.296875000,-52.0,-4.0,38.0,93.29062499999999,-1.95,5.35212325,32.49
2021-07-06 10:37:33.304687500,-52.0,-4.0,38.0,93.2890625,-3.2349999999999994,5.352003125,32.49
2021-07-06 10:37:33.312500000,-52.0,-4.0,38.0,93.2875,-4.52,5.351883,32.49
2021-07-06 10:37:33.320312500,-52.0,-4.0,38.0,93.2859375,-5.755,5.351762875,32.49
2021-07-06 10:37:33.328125000,-52.0,-4.0,38.0,93.284375,-6.99,5.35164275,32.49
2021-07-06 10:37:33.335937500,-52.0,-4.0,38.0,93.28281249999999,-8.129999999999999,5.351522625,32.49
2021-07-06 10:37:33.343750000,-52.0,-4.0,38.0,93.28125,-9.27,5.3514025,32.49
2021-07-06 10:37:33.351562500,-52.0,-4.0,38.0,93.2796875,-10.33,5.351282375,32.49
2021-07-06 10:37:33.359375000,-52.0,-4.0,38.0,93.278125,-11.39,5.35116225,32.49
2021-07-06 10:37:33.367187500,-52.0,-4.0,38.0,93.2765625,-12.425,5.351042125,32.49
2021-07-06 10:37:33.375000000,-52.0,-4.0,38.0,93.275,-13.46,5.350922000000001,32.49
2021-07-06 10:37:33.382812500,-52.0,-4.0,38.0,93.2734375,-14.575,5.350801875,32.49
2021-07-06 10:37:33.390625000,-52.0,-4.0,38.0,93.271875,-15.69,5.350681750000001,32.49
2021-07-06 10:37:33.398437500,-52.0,-4.0,38.0,93.2703125,-16.995,5.350561625,32.49
2021-07-06 10:37:33.406250000,-52.0,-4.0,38.0,93.26875,-18.3,5.3504415000000005,32.49
2021-07-06 10:37:33.414062500,-52.0,-4.0,38.0,93.2671875,-19.875,5.350321375,32.49
2021-07-06 10:37:33.421875000,-52.0,-4.0,38.0,93.265625,-21.45,5.3502012500000005,32.49
2021-07-06 10:37:33.429687500,-52.0,-4.0,38.0,93.2640625,-23.335,5.350081125,32.49
2021-07-06 10:37:33.437500000,-52.0,-4.0,38.0,93.2625,-25.22,5.349961,32.49
2021-07-06 10:37:33.445312500,-52.0,-4.0,38.0,93.2609375,-27.325,5.349840875,32.49
2021-07-06 10:37:33.453125000,-52.0,-4.0,38.0,93.259375,-29.43,5.34972075,32.49
2021-07-06 10:37:33.460937500,-52.0,-4.0,38.0,93.2578125,-31.505,5.349600625,32.49
2021-07-06 10:37:33.468750000,-52.0,-4.0,38.0,93.25625,-33.58,5.3494805,32.49
2021-07-06 10:37:33.476562500,-52.0,-4.0,38.25,93.2546875,-35.224999999999994,5.349360375,32.49
2021-07-06 10:37:33.484375000,-52.0,-4.0,38.5,93.253125,-36.87,5.34924025,32.49
2021-07-06 10:37:33.492187500,-52.0,-4.0,38.75,93.2515625,-37.644999999999996,5.349120125,32.49
2021-07-06 10:37:33.500000000,-52.0,-4.0,39.0,93.25,-38.42,5.349,32.49
2021-07-06 10:37:33.507812500,-52.0,-4.0,39.0,93.2484375,-37.945,5.349120125,32.49
2021-07-06 10:37:33.515625000,-52.0,-4.0,39.0,93.246875,-37.47,5.34924025,32.49
2021-07-06 10:37:33.523437500,-52.0,-4.0,39.0,93.2453125,-35.575,5.349360375,32.49
2021-07-06 10:37:33.531250000,-52.0,-4.0,39.0,93.24375,-33.68,5.3494805,32.49
2021-07-06 10:37:33.539062500,-52.0,-3.75,38.75,93.2421875,-30.509999999999998,5.349600625,32.49
2021-07-06 10:37:33.546875000,-52.0,-3.5,38.5,93.240625,-27.34,5.34972075,32.49
2021-07-06 10:37:33.554687500,-52.0,-3.25,38.25,93.2390625,-23.29,5.349840875,32.49
2021-07-06 10:37:33.562500000,-52.0,-3.0,38.0,93.2375,-19.24,5.349961,32.49
2021-07-06 10:37:33.570312500,-52.0,-3.25,38.25,93.2359375,-14.875,5.350081125,32.49
2021-07-06 10:37:33.578125000,-52.0,-3.5,38.5,93.234375,-10.51,5.3502012500000005,32.49
2021-07-06 10:37:33.585937500,-52.0,-3.75,38.75,93.2328125,-6.4,5.350321375,32.49
2021-07-06 10:37:33.593750000,-52.0,-4.0,39.0,93.23125,-2.29,5.3504415000000005,32.49
2021-07-06 10:37:33.601562500,-52.0,-4.0,38.75,93.2296875,1.1600000000000001,5.350561625,32.49
2021-07-06 10:37:33.609375000,-52.0,-4.0,38.5,93.228125,4.61,5.350681750000001,32.49
2021-07-06 10:37:33.617187500,-52.0,-4.0,38.25,93.2265625,7.210000000000001,5.350801875,32.49
2021-07-06 10:37:33.625000000,-52.0,-4.0,38.0,93.225,9.81,5.350922000000001,32.49
2021-07-06 10:37:33.632812500,-52.0,-4.0,38.0,93.2234375,11.54,5.351042125,32.49
2021-07-06 10:37:33.640625000,-52.0,-4.0,38.0,93.221875,13.27,5.35116225,32.49
2021-07-06 10:37:33.648437500,-52.0,-4.0,38.0,93.2203125,14.265,5.351282375,32.49
2021-07-06 10:37:33.656250000,-52.0,-4.0,38.0,93.21875,15.26,5.3514025,32.49
2021-07-06 10:37:33.664062500,-52.0,-4.0,38.25,93.21718750000001,15.690000000000001,5.351522625,32.49
2021-07-06 10:37:33.671875000,-52.0,-4.0,38.5,93.215625,16.12,5.35164275,32.49
2021-07-06 10:37:33.679687500,-52.0,-4.0,38.75,93.2140625,16.155,5.351762875,32.49
2021-07-06 10:37:33.687500000,-52.0,-4.0,39.0,93.2125,16.19,5.351883,32.49
2021-07-06 10:37:33.695312500,-52.0,-4.0,39.0,93.2109375,15.99,5.352003125,32.49
2021-07-06 10:37:33.703125000,-52.0,-4.0,39.0,93.20937500000001,15.79,5.35212325,32.49
2021-07-06 10:37:33.710937500,-52.0,-4.0,39.0,93.2078125,15.504999999999999,5.3522433750000005,32.49
2021-07-06 10:37:33.718750000,-52.0,-4.0,39.0,93.20625,15.22,5.3523635,32.49
2021-07-06 10:37:33.726562500,-52.0,-4.0,38.75,93.2046875,14.97,5.3524836250000005,32.49
2021-07-06 10:37:33.734375000,-52.0,-4.0,38.5,93.203125,14.72,5.35260375,32.49
2021-07-06 10:37:33.742187500,-52.0,-4.0,38.25,93.20156250000001,14.595,5.352723875000001,32.49
2021-07-06 10:37:33.750000000,-52.0,-4.0,38.0,93.2,14.47,5.352844,32.49
2021-07-06 10:37:33.757812500,-52.0,-4.0,38.25,93.1984375,14.495000000000001,5.352844,32.49
2021-07-06 10:37:33.765625000,-52.0,-4.0,38.5,93.196875,14.52,5.352844,32.49
2021-07-06 10:37:33.773437500,-52.0,-4.0,38.75,93.1953125,14.675,5.352844,32.49
2021-07-06 10:37:33.781250000,-52.0,-4.0,39.0,93.19375000000001,14.83,5.352844,32.49
2021-07-06 10:37:33.789062500,-52.0,-4.0,39.0,93.1921875,15.035,5.352844,32.49
2021-07-06 10:37:33.796875000,-52.0,-4.0,39.0,93.190625,15.24,5.352844,32.49
2021-07-06 10:37:33.804687500,-52.0,-4.0,39.0,93.1890625,15.4,5.352844,32.49
2021-07-06 10:37:33.812500000,-52.0,-4.0,39.0,93.1875,15.56,5.352844,32.49
2021-07-06 10:37:33.820312500,-52.0,-4.0,39.0,93.18593750000001,15.615,5.352844,32.49
2021-07-06 10:37:33.828125000,-52.0,-4.0,39.0,93.184375,15.67,5.352844,32.49
2021-07-06 10:37:33.835937500,-52.0,-4.0,39.0,93.1828125,15.605,5.352844,32.49
2021-07-06 10:37:33.843750000,-52.0,-4.0,39.0,93.18125,15.54,5.352844,32.49
2021-07-06 10:37:33.851562500,-52.0,-4.0,38.75,93.1796875,15.375,5.352844,32.49
2021-07-06 10:37:33.859375000,-52.0,-4.0,38.5,93.17812500000001,15.21,5.352844,32.49
2021-07-06 10:37:33.867187500,-52.0,-4.0,38.25,93.1765625,14.985,5.352844,32.49
2021-07-06 10:37:33.875000000,-52.0,-4.0,38.0,93.17500000000001,14.76,5.352844,32.49
2021-07-06 10:37:33.882812500,-52.0,-4.0,38.25,93.1734375,14.5,5.352844,32.49
2021-07-06 10:37:33.890625000,-52.0,-4.0,38.5,93.171875,14.24,5.352844,32.49
2021-07-06 10:37:33.898437500,-52.0,-4.0,38.75,93.17031250000001,13.935,5.352844,32.49
2021-07-06 10:37:33.906250000,-52.0,-4.0,39.0,93.16875,13.63,5.352844,32.49
2021-07-06 10:37:33.914062500,-52.0,-4.0,39.0,93.16718750000001,13.205,5.352844,32.49
2021-07-06 10:37:33.921875000,-52.0,-4.0,39.0,93.165625,12.78,5.352844,32.49
2021-07-06 10:37:33.929687500,-52.0,-4.0,39.0,93.1640625,12.18,5.352844,32.49
2021-07-06 10:37:33.937500000,-52.0,-4.0,39.0,93.16250000000001,11.58,5.352844,32.49
2021-07-06 10:37:33.945312500,-52.0,-4.0,38.75,93.1609375,10.719999999999999,5.352844,32.49
2021-07-06 10:37:33.953125000,-52.0,-4.0,38.5,93.15937500000001,9.86,5.352844,32.49
2021-07-06 10:37:33.960937500,-52.0,-4.0,38.25,93.1578125,8.75,5.352844,32.49
2021-07-06 10:37:33.968750000,-52.0,-4.0,38.0,93.15625,7.64,5.352844,32.49
2021-07-06 10:37:33.976562500,-52.0,-4.0,38.25,93.15468750000001,6.33,5.352844,32.49
2021-07-06 10:37:33.984375000,-52.0,-4.0,38.5,93.153125,5.02,5.352844,32.49
2021-07-06 10:37:33.992187500,-52.0,-4.0,38.75,93.15156250000001,3.63,5.352844,32.49
2021-07-06 10:37:34.000000000,-52.0,-4.0,39.0,93.15,2.24,5.352844,32.49
2021-07-06 10:37:34.007812500,-52.0,-4.0,39.0,93.1484375,0.8900000000000001,5.352723875000001,32.49
2021-07-06 10:37:34.015625000,-52.0,-4.0,39.0,93.14687500000001,-0.46,5.35260375,32.49
2021-07-06 10:37:34.023437500,-52.0,-4.0,39.0,93.1453125,-1.695,5.3524836250000005,32.49
2021-07-06 10:37:34.031250000,-52.0,-4.0,39.0,93.14375000000001,-2.93,5.3523635,32.49
2021-07-06 10:37:34.039062500,-52.0,-4.0,39.0,93.1421875,-4.045,5.3522433750000005,32.49
2021-07-06 10:37:34.046875000,-52.0,-4.0,39.0,93.140625,-5.16,5.35212325,32.49
2021-07-06 10:37:34.054687500,-52.0,-4.0,39.0,93.13906250000001,-6.255,5.352003125,32.49
2021-07-06 10:37:34.062500000,-52.0,-4.0,39.0,93.1375,-7.35,5.351883,32.49
2021-07-06 10:37:34.070312500,-52.0,-4.0,39.0,93.13593750000001,-8.585,5.351762875,32.49
2021-07-06 10:37:34.078125000,-52.0,-4.0,39.0,93.134375,-9.82,5.35164275,32.49
2021-07-06 10:37:34.085937500,-52.0,-4.0,39.0,93.1328125,-11.355,5.351522625,32.49
2021-07-06 10:37:34.093750000,-52.0,-4.0,39.0,93.13125000000001,-12.89,5.3514025,32.49
2021-07-06 10:37:34.101562500,-52.0,-4.0,39.0,93.1296875,-14.81,5.351282375,32.49
2021-07-06 10:37:34.109375000,-52.0,-4.0,39.0,93.12812500000001,-16.73,5.35116225,32.49
2021-07-06 10:37:34.117187500,-52.0,-4.0,39.0,93.1265625,-18.93,5.351042125,32.49
2021-07-06 10:37:34.125000000,-52.0,-4.0,39.0,93.125,-21.13,5.350922000000001,32.49
2021-07-06 10:37:34.132812500,-52.0,-4.0,39.0,93.12343750000001,-23.32,5.350801875,32.49
2021-07-06 10:37:34.140625000,-52.0,-4.0,39.0,93.121875,-25.51,5.350681750000001,32.49
2021-07-06 10:37:34.148437500,-52.0,-4.0,39.0,93.12031250000001,-27.235,5.350561625,32.49
2021-07-06 10:37:34.156250000,-52.0,-4.0,39.0,93.11875,-28.96,5.3504415000000005,32.49
2021-07-06 10:37:34.164062500,-52.0,-4.0,39.0,93.1171875,-29.740000000000002,5.350321375,32.49
2021-07-06 10:37:34.171875000,-52.0,-4.0,39.0,93.11562500000001,-30.52,5.3502012500000005,32.49
2021-07-06 10:37:34.179687500,-52.0,-4.0,39.0,93.1140625,-30.0,5.350081125,32.49
2021-07-06 10:37:34.187500000,-52.0,-4.0,39.0,93.11250000000001,-29.48,5.349961,32.49
2021-07-06 10:37:34.195312500,-52.0,-4.0,39.0,93.1109375,-27.57,5.349840875,32.49
2021-07-06 10:37:34.203125000,-52.0,-4.0,39.0,93.109375,-25.66,5.34972075,32.49
2021-07-06 10:37:34.210937500,-52.0,-4.0,39.0,93.10781250000001,-22.59,5.349600625,32.49
2021-07-06 10:37:34.218750000,-52.0,-4.0,39.0,93.10625,-19.52,5.3494805,32.49
2021-07-06 10:37:34.226562500,-52.0,-4.0,39.0,93.10468750000001,-15.735,5.349360375,32.49
2021-07-06 10:37:34.234375000,-52.0,-4.0,39.0,93.103125,-11.95,5.34924025,32.49
2021-07-06 10:37:34.242187500,-52.0,-4.0,39.0,93.1015625,-8.0,5.349120125,32.49
2021-07-06 10:37:34.250000000,-52.0,-4.0,39.0,93.10000000000001,-4.05,5.349,32.49
2021-07-06 10:37:34.257812500,-52.0,-4.0,39.0,93.0984375,-0.3899999999999997,5.3488799062500005,32.49
2021-07-06 10:37:34.265625000,-52.0,-4.0,39.0,93.09687500000001,3.27,5.3487598125,32.49
2021-07-06 10:37:34.273437500,-52.0,-4.0,39.0,93.0953125,6.370000000000001,5.34863971875,32.49
2021-07-06 10:37:34.281250000,-52.0,-4.0,39.0,93.09375,9.47,5.348519625,32.49
2021-07-06 10:37:34.289062500,-52.0,-4.0,39.0,93.09218750000001,11.915,5.34839953125,32.49
2021-07-06 10:37:34.296875000,-52.0,-4.0,39.0,93.090625,14.36,5.3482794375000005,32.49
2021-07-06 10:37:34.304687500,-52.0,-4.0,39.0,93.08906250000001,16.189999999999998,5.34815934375,32.49
2021-07-06 10:37:34.312500000,-52.0,-4.0,39.0,93.0875,18.02,5.34803925,32.49
2021-07-06 10:37:34.320312500,-52.0,-4.0,39.0,93.0859375,19.29,5.347919156250001,32.49
2021-07-06 10:37:34.328125000,-52.0,-4.0,39.0,93.08437500000001,20.56,5.3477990625,32.49
2021-07-06 10:37:34.335937500,-52.0,-4.0,39.0,93.0828125,21.305,5.34767896875,32.49
2021-07-06 10:37:34.343750000,-52.0,-4.0,39.0,93.08125000000001,22.05,5.347558875000001,32.49
2021-07-06 10:37:34.351562500,-52.0,-4.0,39.0,93.0796875,22.28,5.34743878125,32.49
2021-07-06 10:37:34.359375000,-52.0,-4.0,39.0,93.078125,22.51,5.3473186875000005,32.49
2021-07-06 10:37:34.367187500,-52.0,-4.0,39.0,93.07656250000001,22.245,5.34719859375,32.49
2021-07-06 10:37:34.375000000,-52.0,-4.0,39.0,93.075,21.98,5.3470785,32.49
2021-07-06 10:37:34.382812500,-52.0,-4.0,39.0,93.07343750000001,21.310000000000002,5.346958406250001,32.49
2021-07-06 10:37:34.390625000,-52.0,-4.0,39.0,93.071875,20.64,5.3468383125,32.49
2021-07-06 10:37:34.398437500,-52.0,-4.0,39.0,93.0703125,19.73,5.34671821875,32.49
2021-07-06 10:37:34.406250000,-52.0,-4.0,39.0,93.06875000000001,18.82,5.346598125,32.49
2021-07-06 10:37:34.414062500,-52.0,-4.0,39.0,93.0671875,17.9,5.34647803125,32.49
2021-07-06 10:37:34.421875000,-52.0,-4.0,39.0,93.06562500000001,16.98,5.3463579375000005,32.49
2021-07-06 10:37:34.429687500,-52.0,-4.0,39.0,93.0640625,16.265,5.34623784375,32.49
2021-07-06 10:37:34.437500000,-52.0,-4.0,39.0,93.0625,15.55,5.34611775,32.49
2021-07-06 10:37:34.445312500,-52.0,-4.0,39.0,93.06093750000001,15.2,5.345997656250001,32.49
2021-07-06 10:37:34.453125000,-52.0,-4.0,39.0,93.059375,14.85,5.3458775625,32.49
2021-07-06 10:37:34.460937500,-52.0,-4.0,39.0,93.05781250000001,14.899999999999999,5.3457574687500005,32.49
2021-07-06 10:37:34.468750000,-52.0,-4.0,39.0,93.05625,14.95,5.345637375000001,32.49
2021-07-06 10:37:34.476562500,-52.0,-4.0,39.0,93.0546875,15.32,5.34551728125,32.49
2021-07-06 10:37:34.484375000,-52.0,-4.0,39.0,93.05312500000001,15.69,5.345397187500001,32.49
2021-07-06 10:37:34.492187500,-52.0,-4.0,39.0,93.0515625,16.22,5.34527709375,32.49
2021-07-06 10:37:34.500000000,-52.0,-4.0,39.0,93.05000000000001,16.75,5.345157,32.49
2021-07-06 10:37:34.507812500,-52.0,-4.0,39.0,93.0484375,17.259999999999998,5.345197031250001,32.49
2021-07-06 10:37:34.515625000,-52.0,-4.0,39.0,93.046875,17.77,5.345237062500001,32.49
2021-07-06 10:37:34.523437500,-52.0,-4.0,39.0,93.04531250000001,18.1,5.34527709375,32.49
2021-07-06 10:37:34.531250000,-52.0,-4.0,39.0,93.04375,18.43,5.345317125,32.49
2021-07-06 10:37:34.539062500,-52.0,-4.0,39.0,93.0421875,18.475,5.34535715625,32.49
2021-07-06 10:37:34.546875000,-52.0,-4.0,39.0,93.040625,18.52,5.345397187500001,32.49
2021-07-06 10:37:34.554687500,-52.0,-4.0,39.0,93.0390625,18.225,5.34543721875,32.49
2021-07-06 10:37:34.562500000,-52.0,-4.0,39.0,93.03750000000001,17.93,5.34547725,32.49
2021-07-06 10:37:34.570312500,-52.0,-4.0,39.0,93.0359375,17.310000000000002,5.34551728125,32.49
2021-07-06 10:37:34.578125000,-52.0,-4.0,39.0,93.034375,16.69,5.3455573125,32.49
2021-07-06 10:37:34.585937500,-52.0,-4.0,39.0,93.0328125,15.755,5.345597343750001,32.49
2021-07-06 10:37:34.593750000,-52.0,-4.0,39.0,93.03125,14.82,5.345637375,32.49
2021-07-06 10:37:34.601562500,-52.0,-4.0,39.0,93.02968750000001,13.625,5.34567740625,32.49
2021-07-06 10:37:34.609375000,-52.0,-4.0,39.0,93.028125,12.43,5.3457174375,32.49
2021-07-06 10:37:34.617187500,-52.0,-4.0,39.0,93.0265625,11.030000000000001,5.3457574687500005,32.49
2021-07-06 10:37:34.625000000,-52.0,-4.0,39.0,93.025,9.63,5.3457975,32.49
2021-07-06 10:37:34.632812500,-52.0,-4.0,39.0,93.0234375,8.120000000000001,5.34583753125,32.49
2021-07-06 10:37:34.640625000,-52.0,-4.0,39.0,93.02187500000001,6.61,5.3458775625,32.49
2021-07-06 10:37:34.648437500,-52.0,-4.0,39.0,93.0203125,5.08,5.34591759375,32.49
2021-07-06 10:37:34.656250000,-52.0,-4.0,39.0,93.01875,3.55,5.3459576250000005,32.49
2021-07-06 10:37:34.664062500,-52.0,-4.0,39.0,93.0171875,2.075,5.34599765625,32.49
2021-07-06 10:37:34.671875000,-52.0,-4.0,39.0,93.015625,0.6,5.3460376875,32.49
2021-07-06 10:37:34.679687500,-52.0,-4.0,39.0,93.01406250000001,-0.7700000000000001,5.34607771875,32.49
2021-07-06 10:37:34.687500000,-52.0,-4.0,39.0,93.0125,-2.14,5.34611775,32.49
2021-07-06 10:37:34.695312500,-52.0,-4.0,39.0,93.0109375,-3.4450000000000003,5.3461577812500005,32.49
2021-07-06 10:37:34.703125000,-52.0,-4.0,39.0,93.009375,-4.75,5.3461978125,32.49
2021-07-06 10:37:34.710937500,-52.0,-4.0,39.0,93.0078125,-6.07,5.34623784375,32.49
2021-07-06 10:37:34.718750000,-52.0,-4.0,39.0,93.00625000000001,-7.39,5.346277875,32.49
2021-07-06 10:37:34.726562500,-52.0,-4.0,39.0,93.0046875,-8.85,5.34631790625,32.49
2021-07-06 10:37:34.734375000,-52.0,-4.0,39.0,93.003125,-10.31,5.3463579375,32.49
2021-07-06 10:37:34.742187500,-52.0,-4.0,39.0,93.0015625,-12.0,5.34639796875,32.49
2021-07-06 10:37:34.750000000,-52.0,-4.0,39.0,93.0,-13.69,5.346438,32.49
2021-07-06 10:37:34.757812500,-52.0,-3.75,39.0,92.99843750000001,-15.620000000000001,5.34647803125,32.49
2021-07-06 10:37:34.765625000,-52.0,-3.5,39.0,92.996875,-17.55,5.3465180625,32.49
2021-07-06 10:37:34.773437500,-52.0,-3.25,39.0,92.9953125,-19.545,5.34655809375,32.49
2021-07-06 10:37:34.781250000,-52.0,-3.0,39.0,92.99375,-21.54,5.346598125,32.49
2021-07-06 10:37:34.789062500,-52.0,-3.25,39.0,92.9921875,-23.275,5.34663815625,32.49
2021-07-06 10:37:34.796875000,-52.0,-3.5,39.0,92.99062500000001,-25.01,5.3466781875,32.49
2021-07-06 10:37:34.804687500,-52.0,-3.75,39.0,92.9890625,-26.060000000000002,5.3467182187499995,32.49
2021-07-06 10:37:34.812500000,-52.0,-4.0,39.0,92.9875,-27.11,5.34675825,32.49
2021-07-06 10:37:34.820312500,-52.0,-4.0,39.0,92.9859375,-27.07,5.34679828125,32.49
2021-07-06 10:37:34.828125000,-52.0,-4.0,39.0,92.984375,-27.03,5.3468383125,32.49
2021-07-06 10:37:34.835937500,-52.0,-4.0,39.0,92.98281250000001,-25.68,5.34687834375,32.49
2021-07-06 10:37:34.843750000,-52.0,-4.0,39.0,92.98125,-24.33,5.346918375,32.49
2021-07-06 10:37:34.851562500,-52.0,-4.0,39.0,92.9796875,-21.725,5.34695840625,32.49
2021-07-06 10:37:34.859375000,-52.0,-4.0,39.0,92.978125,-19.12,5.3469984375,32.49
2021-07-06 10:37:34.867187500,-52.0,-4.0,39.0,92.9765625,-15.59,5.34703846875,32.49
2021-07-06 10:37:34.875000000,-52.0,-4.0,39.0,92.97500000000001,-12.06,5.3470785,32.49
2021-07-06 10:37:34.882812500,-52.0,-4.0,39.0,92.9734375,-8.14,5.34711853125,32.49
2021-07-06 10:37:34.890625000,-52.0,-4.0,39.0,92.971875,-4.22,5.3471585625,32.49
2021-07-06 10:37:34.898437500,-52.0,-4.0,39.0,92.9703125,-0.44499999999999984,5.34719859375,32.49
2021-07-06 10:37:34.906250000,-52.0,-4.0,39.0,92.96875,3.33,5.347238625,32.49
2021-07-06 10:37:34.914062500,-52.0,-4.0,39.0,92.96718750000001,6.55,5.347278656249999,32.49
2021-07-06 10:37:34.921875000,-52.0,-4.0,39.0,92.965625,9.77,5.3473186875,32.49
2021-07-06 10:37:34.929687500,-52.0,-4.0,39.0,92.9640625,12.24,5.34735871875,32.49
2021-07-06 10:37:34.937500000,-52.0,-4.0,39.0,92.9625,14.71,5.34739875,32.49
2021-07-06 10:37:34.945312500,-52.0,-4.0,39.0,92.9609375,16.43,5.34743878125,32.49
2021-07-06 10:37:34.953125000,-52.0,-4.0,39.0,92.95937500000001,18.15,5.3474788124999995,32.49
2021-07-06 10:37:34.960937500,-52.0,-4.0,39.0,92.9578125,19.235,5.34751884375,32.49
2021-07-06 10:37:34.968750000,-52.0,-4.0,39.0,92.95625,20.32,5.347558875,32.49
2021-07-06 10:37:34.976562500,-52.0,-4.0,39.0,92.9546875,20.880000000000003,5.34759890625,32.49
2021-07-06 10:37:34.984375000,-52.0,-4.0,39.0,92.953125,21.44,5.347638937499999,32.49
2021-07-06 10:37:34.992187500,-52.0,-4.0,39.0,92.95156250000001,21.55,5.3476789687499995,32.49
2021-07-06 10:37:35.000000000,-52.0,-4.0,39.0,92.95,21.66,5.347719,32.49
2021-07-06 10:37:35.007812500,-52.0,-4.0,39.0,92.9484375,21.35,5.347719,32.49
2021-07-06 10:37:35.015625000,-52.0,-4.0,39.0,92.946875,21.04,5.347719,32.49
2021-07-06 10:37:35.023437500,-52.0,-4.0,39.0,92.9453125,20.35,5.347719,32.49
2021-07-06 10:37:35.031250000,-52.0,-4.0,39.0,92.94375000000001,19.66,5.347719,32.49
2021-07-06 10:37:35.039062500,-52.0,-4.0,39.0,92.9421875,18.689999999999998,5.347719,32.49
2021-07-06 10:37:35.046875000,-52.0,-4.0,39.0,92.940625,17.72,5.347719,32.49
2021-07-06 10:37:35.054687500,-52.0,-4.0,39.0,92.9390625,16.634999999999998,5.347719,32.49
2021-07-06 10:37:35.062500000,-52.0,-4.0,39.0,92.9375,15.55,5.347719,32.49
2021-07-06 10:37:35.070312500,-52.0,-4.0,39.0,92.93593750000001,14.55,5.347719,32.49
2021-07-06 10:37:35.078125000,-52.0,-4.0,39.0,92.934375,13.55,5.347719,32.49
2021-07-06 10:37:35.085937500,-52.0,-4.0,39.0,92.9328125,12.785,5.347719,32.49
2021-07-06 10:37:35.093750000,-52.0,-4.0,39.0,92.93125,12.02,5.347719,32.49
2021-07-06 10:37:35.101562500,-52.0,-4.0,39.0,92.9296875,11.57,5.347719,32.49
2021-07-06 10:37:35.109375000,-52.0,-4.0,39.0,92.92812500000001,11.12,5.347719,32.49
2021-07-06 10:37:35.117187500,-52.0,-4.0,39.0,92.9265625,10.95,5.347719,32.49
2021-07-06 10:37:35.125000000,-52.0,-4.0,39.0,92.925,10.78,5.347719,32.49
2021-07-06 10:37:35.132812500,-52.0,-4.0,39.0,92.9234375,10.79,5.347719,32.49
2021-07-06 10:37:35.140625000,-52.0,-4.0,39.0,92.921875,10.8,5.347719,32.49
2021-07-06 10:37:35.148437500,-52.0,-4.0,39.0,92.92031250000001,10.855,5.347719,32.49
2021-07-06 10:37:35.156250000,-52.0,-4.0,39.0,92.91875,10.91,5.347719,32.49
2021-07-06 10:37:35.164062500,-52.0,-4.0,39.0,92.9171875,10.879999999999999,5.347719,32.49
2021-07-06 10:37:35.171875000,-52.0,-4.0,39.0,92.915625,10.85,5.347719,32.49
2021-07-06 10:37:35.179687500,-52.0,-4.0,39.0,92.9140625,10.645,5.347719,32.49
2021-07-06 10:37:35.187500000,-52.0,-4.0,39.0,92.91250000000001,10.44,5.347719,32.49
2021-07-06 10:37:35.195312500,-52.0,-4.0,38.75,92.9109375,10.015,5.347719,32.49
2021-07-06 10:37:35.203125000,-52.0,-4.0,38.5,92.909375,9.59,5.347719,32.49
2021-07-06 10:37:35.210937500,-52.0,-4.0,38.25,92.9078125,8.895,5.347719,32.49
2021-07-06 10:37:35.218750000,-52.0,-4.0,38.0,92.90625,8.2,5.347719,32.49
2021-07-06 10:37:35.226562500,-52.0,-4.0,38.25,92.90468750000001,7.234999999999999,5.347719,32.49
2021-07-06 10:37:35.234375000,-52.0,-4.0,38.5,92.903125,6.27,5.347719,32.49
2021-07-06 10:37:35.242187500,-52.0,-4.0,38.75,92.9015625,5.06,5.347719,32.49
2021-07-06 10:37:35.250000000,-52.0,-4.0,39.0,92.9,3.85,5.347719,32.49
2021-07-06 10:37:35.257812500,-52.0,-4.0,39.0,92.8984375,2.425,5.347558875,32.49
2021-07-06 10:37:35.265625000,-52.0,-4.0,39.0,92.89687500000001,1.0,5.34739875,32.49
2021-07-06 10:37:35.273437500,-52.0,-4.0,39.0,92.8953125,-0.5900000000000001,5.347238625,32.49
2021-07-06 10:37:35.281250000,-52.0,-4.0,39.0,92.89375,-2.18,5.347078499999999,32.49
2021-07-06 10:37:35.289062500,-52.0,-4.0,39.0,92.8921875,-3.8899999999999997,5.346918375,32.49
2021-07-06 10:37:35.296875000,-52.0,-4.0,39.0,92.890625,-5.6,5.34675825,32.49
2021-07-06 10:37:35.304687500,-52.0,-4.0,39.0,92.88906250000001,-7.43,5.346598125,32.49
2021-07-06 10:37:35.312500000,-52.0,-4.0,39.0,92.8875,-9.26,5.346438,32.49
2021-07-06 10:37:35.320312500,-52.0,-4.0,39.0,92.8859375,-11.219999999999999,5.346277875,32.49
2021-07-06 10:37:35.328125000,-52.0,-4.0,39.0,92.884375,-13.18,5.3461177499999994,32.49
2021-07-06 10:37:35.335937500,-52.0,-4.0,39.0,92.8828125,-15.29,5.345957625,32.49
2021-07-06 10:37:35.343750000,-52.0,-4.0,39.0,92.88125000000001,-17.4,5.3457975,32.49
2021-07-06 10:37:35.351562500,-52.0,-4.0,39.0,92.8796875,-19.665,5.345637375,32.49
2021-07-06 10:37:35.359375000,-52.0,-4.0,39.0,92.878125,-21.93,5.34547725,32.49
2021-07-06 10:37:35.367187500,-52.0,-4.0,39.0,92.8765625,-24.33,5.345317125,32.49
2021-07-06 10:37:35.375000000,-52.0,-4.0,39.0,92.875,-26.73,5.345157,32.49
2021-07-06 10:37:35.382812500,-52.0,-4.0,39.0,92.87343750000001,-29.185000000000002,5.344996875,32.49
2021-07-06 10:37:35.390625000,-52.0,-4.0,39.0,92.871875,-31.64,5.34483675,32.49
2021-07-06 10:37:35.398437500,-52.0,-4.0,39.0,92.8703125,-33.995000000000005,5.344676625,32.49
2021-07-06 10:37:35.406250000,-52.0,-4.0,39.0,92.86875,-36.35,5.3445165,32.49
2021-07-06 10:37:35.414062500,-52.0,-4.0,39.0,92.8671875,-38.385000000000005,5.344356375,32.49
2021-07-06 10:37:35.421875000,-52.0,-4.0,39.0,92.86562500000001,-40.42,5.34419625,32.49
2021-07-06 10:37:35.429687500,-52.0,-4.0,39.0,92.8640625,-41.825,5.344036125,32.49
2021-07-06 10:37:35.437500000,-52.0,-4.0,39.0,92.8625,-43.23,5.343876,32.49
2021-07-06 10:37:35.445312500,-52.0,-4.0,39.0,92.8609375,-43.67,5.343715875,32.49
2021-07-06 10:37:35.453125000,-52.0,-4.0,39.0,92.859375,-44.11,5.34355575,32.49
2021-07-06 10:37:35.460937500,-52.0,-4.0,39.0,92.85781250000001,-43.335,5.343395625,32.49
2021-07-06 10:37:35.468750000,-52.0,-4.0,39.0,92.85625,-42.56,5.3432355000000005,32.49
2021-07-06 10:37:35.476562500,-52.0,-4.0,39.0,92.8546875,-40.49,5.343075375,32.49
2021-07-06 10:37:35.484375000,-52.0,-4.0,39.0,92.853125,-38.42,5.34291525,32.49
2021-07-06 10:37:35.492187500,-52.0,-4.0,39.0,92.8515625,-35.22,5.342755125,32.49
2021-07-06 10:37:35.500000000,-52.0,-4.0,39.0,92.85,-32.02,5.342595,32.49
2021-07-06 10:37:35.507812500,-52.0,-3.75,39.0,92.8484375,-28.085,5.34283521875,32.49
2021-07-06 10:37:35.515625000,-52.0,-3.5,39.0,92.846875,-24.15,5.3430754375000005,32.49
2021-07-06 10:37:35.523437500,-52.0,-3.25,39.0,92.8453125,-20.005,5.343315656250001,32.49
2021-07-06 10:37:35.531250000,-52.0,-3.0,39.0,92.84375,-15.86,5.343555875,32.49
2021-07-06 10:37:35.539062500,-52.0,-3.25,39.0,92.8421875,-12.0,5.34379609375,32.49
2021-07-06 10:37:35.546875000,-52.0,-3.5,39.0,92.840625,-8.14,5.3440363125,32.49
2021-07-06 10:37:35.554687500,-52.0,-3.75,39.0,92.8390625,-4.92,5.34427653125,32.49
2021-07-06 10:37:35.562500000,-52.0,-4.0,39.0,92.8375,-1.7,5.34451675,32.49
2021-07-06 10:37:35.570312500,-52.0,-4.0,39.0,92.8359375,0.7449999999999999,5.3447569687500005,32.49
2021-07-06 10:37:35.578125000,-52.0,-4.0,39.0,92.834375,3.19,5.3449971875,32.49
2021-07-06 10:37:35.585937500,-52.0,-4.0,39.0,92.8328125,4.91,5.34523740625,32.49
2021-07-06 10:37:35.593750000,-52.0,-4.0,39.0,92.83125,6.63,5.345477625,32.49
2021-07-06 10:37:35.601562500,-52.0,-4.0,38.75,92.8296875,7.765000000000001,5.34571784375,32.49
2021-07-06 10:37:35.609375000,-52.0,-4.0,38.5,92.828125,8.9,5.3459580625,32.49
2021-07-06 10:37:35.617187500,-52.0,-4.0,38.25,92.8265625,9.615,5.34619828125,32.49
2021-07-06 10:37:35.625000000,-52.0,-4.0,38.0,92.825,10.33,5.3464385,32.49
2021-07-06 10:37:35.632812500,-52.0,-3.75,38.25,92.8234375,10.75,5.34667871875,32.49
2021-07-06 10:37:35.640625000,-52.0,-3.5,38.5,92.821875,11.17,5.3469189375,32.49
2021-07-06 10:37:35.648437500,-52.0,-3.25,38.75,92.8203125,11.365,5.34715915625,32.49
2021-07-06 10:37:35.656250000,-52.0,-3.0,39.0,92.81875,11.56,5.347399375,32.49
2021-07-06 10:37:35.664062500,-52.0,-3.25,39.0,92.8171875,11.595,5.34763959375,32.49
2021-07-06 10:37:35.671875000,-52.0,-3.5,39.0,92.815625,11.63,5.3478798125,32.49
2021-07-06 10:37:35.679687500,-52.0,-3.75,39.0,92.8140625,11.555,5.34812003125,32.49
2021-07-06 10:37:35.687500000,-52.0,-4.0,39.0,92.8125,11.48,5.34836025,32.49
2021-07-06 10:37:35.695312500,-52.0,-4.0,39.0,92.8109375,11.355,5.34860046875,32.49
2021-07-06 10:37:35.703125000,-52.0,-4.0,39.0,92.809375,11.23,5.3488406875,32.49
2021-07-06 10:37:35.710937500,-52.0,-4.0,39.0,92.8078125,11.100000000000001,5.34908090625,32.49
2021-07-06 10:37:35.718750000,-52.0,-4.0,39.0,92.80625,10.97,5.349321125,32.49
2021-07-06 10:37:35.726562500,-52.0,-3.75,39.0,92.8046875,10.885000000000002,5.34956134375,32.49
2021-07-06 10:37:35.734375000,-52.0,-3.5,39.0,92.803125,10.8,5.3498015625,32.49
2021-07-06 10:37:35.742187500,-52.0,-3.25,39.0,92.8015625,10.79,5.35004178125,32.49
2021-07-06 10:37:35.750000000,-52.0,-3.0,39.0,92.8,10.78,5.350282,32.49
2021-07-06 10:37:35.757812500,-52.0,-3.25,39.0,92.7984375,10.85,5.350322,32.49
2021-07-06 10:37:35.765625000,-52.0,-3.5,39.0,92.796875,10.92,5.350362,32.49
2021-07-06 10:37:35.773437500,-52.0,-3.75,39.0,92.7953125,11.065000000000001,5.350402,32.49
2021-07-06 10:37:35.781250000,-52.0,-4.0,39.0,92.79375,11.21,5.350442,32.49
2021-07-06 10:37:35.789062500,-52.0,-4.0,39.0,92.7921875,11.38,5.350482,32.49
2021-07-06 10:37:35.796875000,-52.0,-4.0,39.0,92.790625,11.55,5.350522,32.49
2021-07-06 10:37:35.804687500,-52.0,-4.0,39.0,92.7890625,11.66,5.350562,32.49
2021-07-06 10:37:35.812500000,-52.0,-4.0,39.0,92.7875,11.77,5.350602,32.49
2021-07-06 10:37:35.820312500,-52.0,-4.0,39.0,92.7859375,11.719999999999999,5.350642,32.49
2021-07-06 10:37:35.828125000,-52.0,-4.0,39.0,92.784375,11.67,5.350682,32.49
2021-07-06 10:37:35.835937500,-52.0,-4.0,39.0,92.7828125,11.36,5.350722,32.49
2021-07-06 10:37:35.843750000,-52.0,-4.0,39.0,92.78125,11.05,5.3507620000000005,32.49
2021-07-06 10:37:35.851562500,-51.75,-4.0,39.0,92.7796875,10.435,5.350802,32.49
2021-07-06 10:37:35.859375000,-51.5,-4.0,39.0,92.778125,9.82,5.350842,32.49
2021-07-06 10:37:35.867187500,-51.25,-4.0,39.0,92.7765625,8.92,5.350882,32.49
2021-07-06 10:37:35.875000000,-51.0,-4.0,39.0,92.775,8.02,5.350922000000001,32.49
2021-07-06 10:37:35.882812500,-51.25,-4.0,39.0,92.7734375,6.91,5.350962,32.49
2021-07-06 10:37:35.890625000,-51.5,-4.0,39.0,92.771875,5.8,5.351002,32.49
2021-07-06 10:37:35.898437500,-51.75,-4.0,39.0,92.7703125,4.58,5.3510420000000005,32.49
2021-07-06 10:37:35.906250000,-52.0,-4.0,39.0,92.76875,3.36,5.351082,32.49
2021-07-06 10:37:35.914062500,-52.0,-4.0,39.0,92.7671875,2.11,5.351122,32.49
2021-07-06 10:37:35.921875000,-52.0,-4.0,39.0,92.765625,0.86,5.351162,32.49
2021-07-06 10:37:35.929687500,-52.0,-4.0,39.0,92.7640625,-0.36,5.351202000000001,32.49
2021-07-06 10:37:35.937500000,-52.0,-4.0,39.0,92.7625,-1.58,5.351242,32.49
2021-07-06 10:37:35.945312500,-52.0,-4.0,39.0,92.7609375,-2.795,5.351282,32.49
2021-07-06 10:37:35.953125000,-52.0,-4.0,39.0,92.759375,-4.01,5.351322000000001,32.49
2021-07-06 10:37:35.960937500,-52.0,-4.0,39.0,92.7578125,-5.255,5.351362,32.49
2021-07-06 10:37:35.968750000,-52.0,-4.0,39.0,92.75625,-6.5,5.351402,32.49
2021-07-06 10:37:35.976562500,-52.0,-4.0,39.0,92.7546875,-7.82,5.3514420000000005,32.49
2021-07-06 10:37:35.984375000,-52.0,-4.0,39.0,92.753125,-9.14,5.351482000000001,32.49
2021-07-06 10:37:35.992187500,-52.0,-4.0,39.0,92.7515625,-10.595,5.351522,32.49
2021-07-06 10:37:36.000000000,-52.0,-4.0,39.0,92.75,-12.05,5.351562,32.49
2021-07-06 10:37:36.007812500,-52.0,-4.0,38.75,92.748671875,-13.695,5.351522,32.48875
2021-07-06 10:37:36.015625000,-52.0,-4.0,38.5,92.74734375,-15.34,5.351482000000001,32.487500000000004
2021-07-06 10:37:36.023437500,-52.0,-4.0,38.25,92.746015625,-17.23,5.3514420000000005,32.486250000000005
2021-07-06 10:37:36.031250000,-52.0,-4.0,38.0,92.7446875,-19.12,5.351402,32.485
2021-07-06 10:37:36.039062500,-52.0,-4.0,38.0,92.743359375,-21.245,5.351362,32.48375
2021-07-06 10:37:36.046875000,-52.0,-4.0,38.0,92.74203125,-23.37,5.351322000000001,32.4825
2021-07-06 10:37:36.054687500,-52.0,-4.0,38.0,92.740703125,-25.615000000000002,5.351282,32.48125
2021-07-06 10:37:36.062500000,-52.0,-4.0,38.0,92.739375,-27.86,5.351242,32.480000000000004
2021-07-06 10:37:36.070312500,-52.0,-4.0,38.25,92.738046875,-29.97,5.351202000000001,32.478750000000005
2021-07-06 10:37:36.078125000,-52.0,-4.0,38.5,92.73671875,-32.08,5.351162,32.4775
2021-07-06 10:37:36.085937500,-52.0,-4.0,38.75,92.735390625,-33.655,5.351122,32.47625
2021-07-06 10:37:36.093750000,-52.0,-4.0,39.0,92.7340625,-35.23,5.351082,32.475
2021-07-06 10:37:36.101562500,-52.0,-4.0,39.0,92.732734375,-35.84,5.3510420000000005,32.47375
2021-07-06 10:37:36.109375000,-52.0,-4.0,39.0,92.73140625,-36.45,5.351002,32.472500000000004
2021-07-06 10:37:36.117187500,-52.0,-4.0,39.0,92.730078125,-35.745000000000005,5.350962,32.471250000000005
2021-07-06 10:37:36.125000000,-52.0,-4.0,39.0,92.72875,-35.04,5.350922000000001,32.47
2021-07-06 10:37:36.132812500,-52.0,-4.0,39.0,92.727421875,-32.935,5.350882,32.46875
2021-07-06 10:37:36.140625000,-52.0,-4.0,39.0,92.72609375,-30.83,5.350842,32.4675
2021-07-06 10:37:36.148437500,-52.0,-4.0,39.0,92.724765625,-27.525,5.350802,32.46625
2021-07-06 10:37:36.156250000,-52.0,-4.0,39.0,92.7234375,-24.22,5.3507620000000005,32.465
2021-07-06 10:37:36.164062500,-52.0,-4.0,39.0,92.722109375,-20.174999999999997,5.350722,32.463750000000005
2021-07-06 10:37:36.171875000,-52.0,-4.0,39.0,92.72078125,-16.13,5.350682,32.462500000000006
2021-07-06 10:37:36.179687500,-52.0,-4.0,39.0,92.719453125,-11.934999999999999,5.350642,32.46125
2021-07-06 10:37:36.187500000,-52.0,-4.0,39.0,92.718125,-7.74,5.350602,32.46
2021-07-06 10:37:36.195312500,-52.0,-4.0,38.75,92.716796875,-3.91,5.350562,32.45875
2021-07-06 10:37:36.203125000,-52.0,-4.0,38.5,92.71546875,-0.08,5.350522,32.4575
2021-07-06 10:37:36.210937500,-52.0,-4.0,38.25,92.714140625,3.06,5.350482,32.456250000000004
2021-07-06 10:37:36.218750000,-52.0,-4.0,38.0,92.7128125,6.2,5.350442,32.455000000000005
2021-07-06 10:37:36.226562500,-52.0,-4.0,38.25,92.711484375,8.55,5.350402,32.45375
2021-07-06 10:37:36.234375000,-52.0,-4.0,38.5,92.71015625,10.9,5.350362,32.4525
2021-07-06 10:37:36.242187500,-52.0,-4.0,38.75,92.708828125,12.55,5.350322,32.45125
2021-07-06 10:37:36.250000000,-52.0,-4.0,39.0,92.7075,14.2,5.350282,32.45
2021-07-06 10:37:36.257812500,-52.0,-4.0,39.0,92.706171875,15.299999999999999,5.35004178125,32.45
2021-07-06 10:37:36.265625000,-52.0,-4.0,39.0,92.70484375,16.4,5.3498015625,32.45
2021-07-06 10:37:36.273437500,-52.0,-4.0,39.0,92.703515625,17.104999999999997,5.34956134375,32.45
2021-07-06 10:37:36.281250000,-52.0,-4.0,39.0,92.7021875,17.81,5.349321125,32.45
2021-07-06 10:37:36.289062500,-52.0,-4.0,39.0,92.700859375,18.215,5.34908090625,32.45
2021-07-06 10:37:36.296875000,-52.0,-4.0,39.0,92.69953124999999,18.62,5.3488406875,32.45
2021-07-06 10:37:36.304687500,-52.0,-4.0,39.0,92.698203125,18.78,5.34860046875,32.45
2021-07-06 10:37:36.312500000,-52.0,-4.0,39.0,92.696875,18.94,5.34836025,32.45
2021-07-06 10:37:36.320312500,-52.0,-4.0,38.75,92.695546875,18.9,5.34812003125,32.45
2021-07-06 10:37:36.328125000,-52.0,-4.0,38.5,92.69421875,18.86,5.3478798125,32.45
2021-07-06 10:37:36.335937500,-52.0,-4.0,38.25,92.692890625,18.715,5.34763959375,32.45
2021-07-06 10:37:36.343750000,-52.0,-4.0,38.0,92.6915625,18.57,5.347399375,32.45
2021-07-06 10:37:36.351562500,-52.0,-4.0,38.25,92.690234375,18.43,5.34715915625,32.45
2021-07-06 10:37:36.359375000,-52.0,-4.0,38.5,92.68890625,18.29,5.3469189375,32.45
2021-07-06 10:37:36.367187500,-52.0,-4.0,38.75,92.687578125,18.259999999999998,5.34667871875,32.45
2021-07-06 10:37:36.375000000,-52.0,-4.0,39.0,92.68625,18.23,5.3464385,32.45
2021-07-06 10:37:36.382812500,-52.0,-4.0,39.0,92.684921875,18.365000000000002,5.34619828125,32.45
2021-07-06 10:37:36.390625000,-52.0,-4.0,39.0,92.68359375,18.5,5.3459580625,32.45
2021-07-06 10:37:36.398437500,-52.0,-4.0,39.0,92.682265625,18.75,5.34571784375,32.45
2021-07-06 10:37:36.406250000,-52.0,-4.0,39.0,92.6809375,19.0,5.345477625,32.45
2021-07-06 10:37:36.414062500,-52.0,-4.0,38.75,92.679609375,19.25,5.34523740625,32.45
2021-07-06 10:37:36.421875000,-52.0,-4.0,38.5,92.67828125,19.5,5.3449971875,32.45
2021-07-06 10:37:36.429687500,-52.0,-4.0,38.25,92.676953125,19.630000000000003,5.3447569687500005,32.45
2021-07-06 10:37:36.437500000,-52.0,-4.0,38.0,92.675625,19.76,5.34451675,32.45
2021-07-06 10:37:36.445312500,-52.0,-4.0,38.25,92.674296875,19.69,5.34427653125,32.45
2021-07-06 10:37:36.453125000,-52.0,-4.0,38.5,92.67296875,19.62,5.3440363125,32.45
2021-07-06 10:37:36.460937500,-52.0,-4.0,38.75,92.671640625,19.37,5.34379609375,32.45
2021-07-06 10:37:36.468750000,-52.0,-4.0,39.0,92.6703125,19.12,5.343555875,32.45
2021-07-06 10:37:36.476562500,-52.0,-4.0,39.0,92.668984375,18.765,5.343315656250001,32.45
2021-07-06 10:37:36.484375000,-52.0,-4.0,39.0,92.66765625,18.41,5.3430754375000005,32.45
2021-07-06 10:37:36.492187500,-52.0,-4.0,39.0,92.66632812499999,18.025,5.34283521875,32.45
2021-07-06 10:37:36.500000000,-52.0,-4.0,39.0,92.66499999999999,17.64,5.342595,32.45
2021-07-06 10:37:36.507812500,-52.0,-4.0,38.75,92.663671875,17.245,5.34271509375,32.45
2021-07-06 10:37:36.515625000,-52.0,-4.0,38.5,92.66234375,16.85,5.3428351875,32.45
2021-07-06 10:37:36.523437500,-52.0,-4.0,38.25,92.661015625,16.36,5.34295528125,32.45
2021-07-06 10:37:36.531250000,-52.0,-4.0,38.0,92.6596875,15.87,5.343075375,32.45
2021-07-06 10:37:36.539062500,-52.0,-4.0,38.0,92.658359375,15.155,5.34319546875,32.45
2021-07-06 10:37:36.546875000,-52.0,-4.0,38.0,92.65703125,14.44,5.3433155625,32.45
2021-07-06 10:37:36.554687500,-52.0,-4.0,38.0,92.655703125,13.370000000000001,5.3434356562500005,32.45
2021-07-06 10:37:36.562500000,-52.0,-4.0,38.0,92.654375,12.3,5.34355575,32.45
2021-07-06 10:37:36.570312500,-52.0,-4.0,38.0,92.653046875,10.83,5.34367584375,32.45
2021-07-06 10:37:36.578125000,-52.0,-4.0,38.0,92.65171875,9.36,5.3437959375,32.45
2021-07-06 10:37:36.585937500,-52.0,-4.0,38.0,92.650390625,7.574999999999999,5.34391603125,32.45
2021-07-06 10:37:36.593750000,-52.0,-4.0,38.0,92.6490625,5.79,5.344036125000001,32.45
2021-07-06 10:37:36.601562500,-52.0,-4.0,38.0,92.647734375,3.87,5.34415621875,32.45
2021-07-06 10:37:36.609375000,-52.0,-4.0,38.0,92.64640625,1.95,5.3442763125,32.45
2021-07-06 10:37:36.617187500,-52.0,-4.0,38.0,92.645078125,0.09999999999999987,5.3443964062500005,32.45
2021-07-06 10:37:36.625000000,-52.0,-4.0,38.0,92.64375,-1.75,5.3445165,32.45
2021-07-06 10:37:36.632812500,-52.0,-4.0,38.0,92.642421875,-3.385,5.34463659375,32.45
2021-07-06 10:37:36.640625000,-52.0,-4.0,38.0,92.64109375,-5.02,5.3447566875,32.45
2021-07-06 10:37:36.648437500,-52.0,-4.0,38.0,92.639765625,-6.414999999999999,5.34487678125,32.45
2021-07-06 10:37:36.656250000,-52.0,-4.0,38.0,92.6384375,-7.81,5.344996875,32.45
2021-07-06 10:37:36.664062500,-52.0,-4.0,38.0,92.637109375,-9.084999999999999,5.34511696875,32.45
2021-07-06 10:37:36.671875000,-52.0,-4.0,38.0,92.63578125,-10.36,5.3452370625,32.45
2021-07-06 10:37:36.679687500,-52.0,-4.0,38.0,92.634453125,-11.715,5.34535715625,32.45
2021-07-06 10:37:36.687500000,-52.0,-4.0,38.0,92.63312499999999,-13.07,5.34547725,32.45
2021-07-06 10:37:36.695312500,-52.0,-4.0,38.25,92.63179687499999,-14.705,5.34559734375,32.45
2021-07-06 10:37:36.703125000,-52.0,-4.0,38.5,92.63046875,-16.34,5.3457174375,32.45
2021-07-06 10:37:36.710937500,-52.0,-4.0,38.75,92.629140625,-18.355,5.34583753125,32.45
2021-07-06 10:37:36.718750000,-52.0,-4.0,39.0,92.6278125,-20.37,5.3459576250000005,32.45
2021-07-06 10:37:36.726562500,-52.0,-4.0,39.0,92.626484375,-22.705,5.34607771875,32.45
2021-07-06 10:37:36.734375000,-52.0,-4.0,39.0,92.62515625,-25.04,5.3461978125,32.45
2021-07-06 10:37:36.742187500,-52.0,-4.0,39.0,92.623828125,-27.439999999999998,5.34631790625,32.45
2021-07-06 10:37:36.750000000,-52.0,-4.0,39.0,92.6225,-29.84,5.346438,32.45
2021-07-06 10:37:36.757812500,-52.0,-4.0,39.0,92.621171875,-31.905,5.346558125,32.45
2021-07-06 10:37:36.765625000,-52.0,-4.0,39.0,92.61984375,-33.97,5.34667825,32.45
2021-07-06 10:37:36.773437500,-52.0,-4.0,39.0,92.618515625,-35.254999999999995,5.346798375,32.45
2021-07-06 10:37:36.781250000,-52.0,-4.0,39.0,92.6171875,-36.54,5.3469185,32.45
2021-07-06 10:37:36.789062500,-52.0,-4.0,38.75,92.615859375,-36.7,5.347038625,32.45
2021-07-06 10:37:36.796875000,-52.0,-4.0,38.5,92.61453125,-36.86,5.34715875,32.45
2021-07-06 10:37:36.804687500,-52.0,-4.0,38.25,92.613203125,-35.745000000000005,5.347278875,32.45
2021-07-06 10:37:36.812500000,-52.0,-4.0,38.0,92.611875,-34.63,5.347399,32.45
2021-07-06 10:37:36.820312500,-52.0,-4.0,38.25,92.610546875,-32.345,5.347519125,32.45
2021-07-06 10:37:36.828125000,-52.0,-4.0,38.5,92.60921875,-30.06,5.34763925,32.45
2021-07-06 10:37:36.835937500,-52.0,-4.0,38.75,92.607890625,-26.924999999999997,5.347759375,32.45
2021-07-06 10:37:36.843750000,-52.0,-4.0,39.0,92.6065625,-23.79,5.3478795,32.45
2021-07-06 10:37:36.851562500,-52.0,-4.0,39.0,92.605234375,-20.225,5.347999625,32.45
2021-07-06 10:37:36.859375000,-52.0,-4.0,39.0,92.60390625,-16.66,5.34811975,32.45
2021-07-06 10:37:36.867187500,-52.0,-4.0,39.0,92.602578125,-13.06,5.348239875,32.45
2021-07-06 10:37:36.875000000,-52.0,-4.0,39.0,92.60125,-9.46,5.34836,32.45
2021-07-06 10:37:36.882812500,-52.25,-4.0,39.0,92.59992187499999,-6.125,5.348480125,32.45
2021-07-06 10:37:36.890625000,-52.5,-4.0,39.0,92.59859374999999,-2.79,5.34860025,32.45
2021-07-06 10:37:36.898437500,-52.75,-4.0,39.0,92.59726562499999,0.11500000000000021,5.348720375,32.45
2021-07-06 10:37:36.906250000,-53.0,-4.0,39.0,92.5959375,3.02,5.3488405,32.45
2021-07-06 10:37:36.914062500,-52.75,-4.0,39.0,92.594609375,5.43,5.348960625,32.45
2021-07-06 10:37:36.921875000,-52.5,-4.0,39.0,92.59328125,7.84,5.34908075,32.45
2021-07-06 10:37:36.929687500,-52.25,-4.0,39.0,92.591953125,9.73,5.349200875,32.45
2021-07-06 10:37:36.937500000,-52.0,-4.0,39.0,92.590625,11.62,5.349321,32.45
2021-07-06 10:37:36.945312500,-52.0,-4.0,38.75,92.589296875,12.975,5.349441125,32.45
2021-07-06 10:37:36.953125000,-52.0,-4.0,38.5,92.58796875,14.33,5.34956125,32.45
2021-07-06 10:37:36.960937500,-52.0,-4.0,38.25,92.586640625,15.165,5.349681375,32.45
2021-07-06 10:37:36.968750000,-52.0,-4.0,38.0,92.5853125,16.0,5.3498015,32.45
2021-07-06 10:37:36.976562500,-52.0,-4.0,38.0,92.583984375,16.380000000000003,5.349921625,32.45
2021-07-06 10:37:36.984375000,-52.0,-4.0,38.0,92.58265625,16.76,5.35004175,32.45
2021-07-06 10:37:36.992187500,-52.0,-4.0,38.0,92.581328125,16.815,5.350161875,32.45
2021-07-06 10:37:37.000000000,-52.0,-4.0,38.0,92.58,16.87,5.350282,32.45
2021-07-06 10:37:37.007812500,-52.0,-4.0,38.25,92.57875,16.765,5.35048215625,32.45
2021-07-06 10:37:37.015625000,-52.0,-4.0,38.5,92.5775,16.66,5.3506823125,32.45
2021-07-06 10:37:37.023437500,-52.0,-4.0,38.75,92.57625,16.545,5.35088246875,32.45
2021-07-06 10:37:37.031250000,-52.0,-4.0,39.0,92.575,16.43,5.351082625,32.45
2021-07-06 10:37:37.039062500,-52.0,-4.0,38.75,92.57375,16.41,5.35128278125,32.45
2021-07-06 10:37:37.046875000,-52.0,-4.0,38.5,92.5725,16.39,5.3514829375,32.45
2021-07-06 10:37:37.054687500,-52.0,-4.0,38.25,92.57124999999999,16.48,5.35168309375,32.45
2021-07-06 10:37:37.062500000,-52.0,-4.0,38.0,92.57,16.57,5.35188325,32.45
2021-07-06 10:37:37.070312500,-52.0,-4.0,38.25,92.56875,16.705,5.35208340625,32.45
2021-07-06 10:37:37.078125000,-52.0,-4.0,38.5,92.5675,16.84,5.3522835625,32.45
2021-07-06 10:37:37.085937500,-52.0,-4.0,38.75,92.56625,16.945,5.35248371875,32.45
2021-07-06 10:37:37.093750000,-52.0,-4.0,39.0,92.565,17.05,5.352683875,32.45
2021-07-06 10:37:37.101562500,-52.0,-4.0,39.0,92.56375,17.085,5.35288403125,32.45
2021-07-06 10:37:37.109375000,-52.0,-4.0,39.0,92.5625,17.12,5.3530841875,32.45
2021-07-06 10:37:37.117187500,-52.0,-4.0,39.0,92.56125,17.08,5.35328434375,32.45
2021-07-06 10:37:37.125000000,-52.0,-4.0,39.0,92.56,17.04,5.3534845,32.45
2021-07-06 10:37:37.132812500,-52.0,-4.0,39.0,92.55875,16.97,5.35368465625,32.45
2021-07-06 10:37:37.140625000,-52.0,-4.0,39.0,92.5575,16.9,5.3538848125,32.45
2021-07-06 10:37:37.148437500,-52.0,-4.0,39.0,92.55625,16.865,5.35408496875,32.45
2021-07-06 10:37:37.156250000,-52.0,-4.0,39.0,92.55499999999999,16.83,5.354285125,32.45
2021-07-06 10:37:37.164062500,-52.0,-4.0,39.0,92.55375,16.88,5.35448528125,32.45
2021-07-06 10:37:37.171875000,-52.0,-4.0,39.0,92.5525,16.93,5.3546854375,32.45
2021-07-06 10:37:37.179687500,-52.0,-4.0,39.0,92.55125,17.064999999999998,5.35488559375,32.45
2021-07-06 10:37:37.187500000,-52.0,-4.0,39.0,92.55,17.2,5.35508575,32.45
2021-07-06 10:37:37.195312500,-52.0,-4.0,39.0,92.54875,17.355,5.35528590625,32.45
2021-07-06 10:37:37.203125000,-52.0,-4.0,39.0,92.5475,17.51,5.3554860625,32.45
2021-07-06 10:37:37.210937500,-52.0,-4.0,39.0,92.54625,17.565,5.35568621875,32.45
2021-07-06 10:37:37.218750000,-52.0,-4.0,39.0,92.545,17.62,5.355886375,32.45
2021-07-06 10:37:37.226562500,-52.0,-4.0,39.0,92.54375,17.435000000000002,5.35608653125,32.45
2021-07-06 10:37:37.234375000,-52.0,-4.0,39.0,92.5425,17.25,5.3562866875,32.45
