TimeStamp,empatica.acc.x,empatica.acc.y,empatica.acc.z,empatica.hr,empatica.bvp,empatica.eda,empatica.temp
2021-06-29 11:31:26.484375000,-64.0,13.0,5.0,80.27515625,11.94,12.9664948125,30.03
2021-06-29 11:31:26.492187500,-64.0,13.0,5.0,80.275078125,11.84,12.96601440625,30.03
2021-06-29 11:31:26.500000000,-64.0,13.0,5.0,80.275,11.74,12.965534,30.03
2021-06-29 11:31:26.507812500,-64.0,13.0,5.25,80.274921875,11.4,12.96673503125,30.03
2021-06-29 11:31:26.515625000,-64.0,13.0,5.5,80.27484375,11.06,12.9679360625,30.03
2021-06-29 11:31:26.523437500,-64.0,13.0,5.75,80.274765625,10.56,12.96913709375,30.03
2021-06-29 11:31:26.531250000,-64.0,13.0,6.0,80.2746875,10.06,12.970338125,30.03
2021-06-29 11:31:26.539062500,-64.0,13.0,6.0,80.274609375,9.515,12.97153915625,30.03
2021-06-29 11:31:26.546875000,-64.0,13.0,6.0,80.27453125,8.97,12.9727401875,30.03
2021-06-29 11:31:26.554687500,-64.0,13.0,6.0,80.274453125,8.48,12.97394121875,30.03
2021-06-29 11:31:26.562500000,-64.0,13.0,6.0,80.27437499999999,7.99,12.97514225,30.03
2021-06-29 11:31:26.570312500,-64.0,13.0,5.75,80.274296875,7.6,12.97634328125,30.03
2021-06-29 11:31:26.578125000,-64.0,13.0,5.5,80.27421875,7.21,12.9775443125,30.03
2021-06-29 11:31:26.585937500,-64.0,13.0,5.25,80.274140625,6.925,12.978745343749999,30.03
2021-06-29 11:31:26.593750000,-64.0,13.0,5.0,80.2740625,6.64,12.979946374999999,30.03
2021-06-29 11:31:26.601562500,-64.0,13.0,5.0,80.273984375,6.449999999999999,12.981147406249999,30.03
2021-06-29 11:31:26.609375000,-64.0,13.0,5.0,80.27390625,6.26,12.982348437499999,30.03
2021-06-29 11:31:26.617187500,-64.0,13.0,5.0,80.273828125,6.12,12.983549468749999,30.03
2021-06-29 11:31:26.625000000,-64.0,13.0,5.0,80.27374999999999,5.98,12.9847505,30.03
2021-06-29 11:31:26.632812500,-64.0,13.0,5.25,80.27367187499999,5.855,12.98595153125,30.03
2021-06-29 11:31:26.640625000,-64.0,13.0,5.5,80.27359375,5.73,12.9871525625,30.03
2021-06-29 11:31:26.648437500,-64.0,13.0,5.75,80.273515625,5.565,12.98835359375,30.03
2021-06-29 11:31:26.656250000,-64.0,13.0,6.0,80.2734375,5.4,12.989554625,30.03
2021-06-29 11:31:26.664062500,-64.0,13.0,5.75,80.273359375,5.140000000000001,12.99075565625,30.03
2021-06-29 11:31:26.671875000,-64.0,13.0,5.5,80.27328125,4.88,12.9919566875,30.03
2021-06-29 11:31:26.679687500,-64.0,13.0,5.25,80.273203125,4.46,12.99315771875,30.03
2021-06-29 11:31:26.687500000,-64.0,13.0,5.0,80.273125,4.04,12.99435875,30.03
2021-06-29 11:31:26.695312500,-64.0,13.0,5.0,80.27304687499999,3.46,12.99555978125,30.03
2021-06-29 11:31:26.703125000,-64.0,13.0,5.0,80.27296875,2.88,12.9967608125,30.03
2021-06-29 11:31:26.710937500,-64.0,13.0,5.0,80.272890625,2.1799999999999997,12.99796184375,30.03
2021-06-29 11:31:26.718750000,-64.0,13.0,5.0,80.2728125,1.48,12.999162875,30.03
2021-06-29 11:31:26.726562500,-64.0,13.0,5.25,80.272734375,0.735,13.00036390625,30.03
2021-06-29 11:31:26.734375000,-64.0,13.0,5.5,80.27265625,-0.01,13.0015649375,30.03
2021-06-29 11:31:26.742187500,-64.0,13.0,5.75,80.272578125,-0.715,13.00276596875,30.03
2021-06-29 11:31:26.750000000,-64.0,13.0,6.0,80.2725,-1.42,13.003967,30.03
2021-06-29 11:31:26.757812500,-64.0,13.0,6.0,80.27242187499999,-2.035,13.003446562499999,30.03
2021-06-29 11:31:26.765625000,-64.0,13.0,6.0,80.27234374999999,-2.65,13.002926125,30.03
2021-06-29 11:31:26.773437500,-64.0,13.0,6.0,80.272265625,-3.1950000000000003,13.0024056875,30.03
2021-06-29 11:31:26.781250000,-64.0,13.0,6.0,80.2721875,-3.74,13.001885249999999,30.03
2021-06-29 11:31:26.789062500,-64.0,13.0,6.0,80.272109375,-4.300000000000001,13.0013648125,30.03
2021-06-29 11:31:26.796875000,-64.0,13.0,6.0,80.27203125,-4.86,13.000844375,30.03
2021-06-29 11:31:26.804687500,-64.0,13.0,6.0,80.271953125,-5.505000000000001,13.0003239375,30.03
2021-06-29 11:31:26.812500000,-64.0,13.0,6.0,80.271875,-6.15,12.999803499999999,30.03
2021-06-29 11:31:26.820312500,-64.0,13.0,6.0,80.27179687499999,-6.9350000000000005,12.9992830625,30.03
2021-06-29 11:31:26.828125000,-64.0,13.0,6.0,80.27171874999999,-7.72,12.998762625,30.03
2021-06-29 11:31:26.835937500,-64.0,13.0,6.0,80.271640625,-8.62,12.998242187499999,30.03
2021-06-29 11:31:26.843750000,-64.0,13.0,6.0,80.2715625,-9.52,12.99772175,30.03
2021-06-29 11:31:26.851562500,-64.0,13.0,6.0,80.271484375,-10.45,12.9972013125,30.03
2021-06-29 11:31:26.859375000,-64.0,13.0,6.0,80.27140625,-11.38,12.996680875,30.03
2021-06-29 11:31:26.867187500,-64.0,13.0,6.0,80.271328125,-12.24,12.9961604375,30.03
2021-06-29 11:31:26.875000000,-64.0,13.0,6.0,80.27125,-13.1,12.99564,30.03
2021-06-29 11:31:26.882812500,-64.0,13.0,5.75,80.271171875,-13.77,12.9951195625,30.03
2021-06-29 11:31:26.890625000,-64.0,13.0,5.5,80.27109374999999,-14.44,12.994599125,30.03
2021-06-29 11:31:26.898437500,-64.0,13.0,5.25,80.27101562499999,-14.835,12.9940786875,30.03
2021-06-29 11:31:26.906250000,-64.0,13.0,5.0,80.2709375,-15.23,12.99355825,30.03
2021-06-29 11:31:26.914062500,-64.0,13.0,5.25,80.270859375,-15.245000000000001,12.9930378125,30.03
2021-06-29 11:31:26.921875000,-64.0,13.0,5.5,80.27078125,-15.26,12.992517375,30.03
2021-06-29 11:31:26.929687500,-64.0,13.0,5.75,80.270703125,-14.835,12.9919969375,30.03
2021-06-29 11:31:26.937500000,-64.0,13.0,6.0,80.270625,-14.41,12.991476500000001,30.03
2021-06-29 11:31:26.945312500,-64.0,13.0,5.75,80.270546875,-13.5,12.9909560625,30.03
2021-06-29 11:31:26.953125000,-64.0,13.0,5.5,80.27046874999999,-12.59,12.990435625,30.03
2021-06-29 11:31:26.960937500,-64.0,13.0,5.25,80.27039062499999,-11.26,12.9899151875,30.03
2021-06-29 11:31:26.968750000,-64.0,13.0,5.0,80.2703125,-9.93,12.98939475,30.03
2021-06-29 11:31:26.976562500,-64.0,13.0,5.25,80.270234375,-8.325,12.9888743125,30.03
2021-06-29 11:31:26.984375000,-64.0,13.0,5.5,80.27015625,-6.72,12.988353875,30.03
2021-06-29 11:31:26.992187500,-64.0,13.0,5.75,80.270078125,-5.055,12.9878334375,30.03
2021-06-29 11:31:27.000000000,-64.0,13.0,6.0,80.27,-3.39,12.987313,30.03
2021-06-29 11:31:27.007812500,-64.0,13.0,5.75,80.269921875,-1.875,12.987313,30.03
2021-06-29 11:31:27.015625000,-64.0,13.0,5.5,80.26984374999999,-0.36,12.987313,30.03
2021-06-29 11:31:27.023437500,-64.0,13.0,5.25,80.26976562499999,0.88,12.987313,30.03
2021-06-29 11:31:27.031250000,-64.0,13.0,5.0,80.2696875,2.12,12.987313,30.03
2021-06-29 11:31:27.039062500,-64.0,13.0,5.0,80.269609375,3.075,12.987313,30.03
2021-06-29 11:31:27.046875000,-64.0,13.0,5.0,80.26953125,4.03,12.987313,30.03
2021-06-29 11:31:27.054687500,-64.0,13.0,5.0,80.269453125,4.785,12.987313,30.03
2021-06-29 11:31:27.062500000,-64.0,13.0,5.0,80.269375,5.54,12.987313,30.03
2021-06-29 11:31:27.070312500,-64.0,13.0,5.0,80.269296875,6.2,12.987313,30.03
2021-06-29 11:31:27.078125000,-64.0,13.0,5.0,80.26921875,6.86,12.987313,30.03
2021-06-29 11:31:27.085937500,-64.0,13.0,5.0,80.26914062499999,7.470000000000001,12.987313,30.03
2021-06-29 11:31:27.093750000,-64.0,13.0,5.0,80.26906249999999,8.08,12.987313,30.03
2021-06-29 11:31:27.101562500,-64.0,13.0,5.25,80.268984375,8.635,12.987313,30.03
2021-06-29 11:31:27.109375000,-64.0,13.0,5.5,80.26890625,9.19,12.987313,30.03
2021-06-29 11:31:27.117187500,-64.0,13.0,5.75,80.268828125,9.61,12.987313,30.03
2021-06-29 11:31:27.125000000,-64.0,13.0,6.0,80.26875,10.03,12.987313,30.03
2021-06-29 11:31:27.132812500,-64.0,13.0,5.75,80.268671875,10.285,12.987313,30.03
2021-06-29 11:31:27.140625000,-64.0,13.0,5.5,80.26859375,10.54,12.987313,30.03
2021-06-29 11:31:27.148437500,-64.0,13.0,5.25,80.26851562499999,10.649999999999999,12.987313,30.03
2021-06-29 11:31:27.156250000,-64.0,13.0,5.0,80.2684375,10.76,12.987313,30.03
2021-06-29 11:31:27.164062500,-64.0,13.0,5.0,80.268359375,10.815,12.987313,30.03
2021-06-29 11:31:27.171875000,-64.0,13.0,5.0,80.26828125,10.87,12.987313,30.03
2021-06-29 11:31:27.179687500,-64.0,13.0,5.0,80.268203125,10.969999999999999,12.987313,30.03
2021-06-29 11:31:27.187500000,-64.0,13.0,5.0,80.268125,11.07,12.987313,30.03
2021-06-29 11:31:27.195312500,-64.0,13.0,5.0,80.268046875,11.280000000000001,12.987313,30.03
2021-06-29 11:31:27.203125000,-64.0,13.0,5.0,80.26796875,11.49,12.987313,30.03
2021-06-29 11:31:27.210937500,-64.0,13.0,5.0,80.26789062499999,11.79,12.987313,30.03
2021-06-29 11:31:27.218750000,-64.0,13.0,5.0,80.26781249999999,12.09,12.987313,30.03
2021-06-29 11:31:27.226562500,-64.0,13.0,5.25,80.267734375,12.405000000000001,12.987313,30.03
2021-06-29 11:31:27.234375000,-64.0,13.0,5.5,80.26765625,12.72,12.987313,30.03
2021-06-29 11:31:27.242187500,-64.0,13.0,5.75,80.267578125,12.945,12.987313,30.03
2021-06-29 11:31:27.250000000,-64.0,13.0,6.0,80.2675,13.17,12.987313,30.03
2021-06-29 11:31:27.257812500,-64.0,13.0,6.0,80.267421875,13.24,12.987473125000001,30.03
2021-06-29 11:31:27.265625000,-64.0,13.0,6.0,80.26734375,13.31,12.98763325,30.03
2021-06-29 11:31:27.273437500,-64.0,13.0,6.0,80.267265625,13.21,12.987793375,30.03
2021-06-29 11:31:27.281250000,-64.0,13.0,6.0,80.2671875,13.11,12.9879535,30.03
2021-06-29 11:31:27.289062500,-64.0,13.0,6.0,80.267109375,12.870000000000001,12.988113625,30.03
2021-06-29 11:31:27.296875000,-64.0,13.0,6.0,80.26703125,12.63,12.988273750000001,30.03
2021-06-29 11:31:27.304687500,-64.0,13.0,6.0,80.266953125,12.31,12.988433875,30.03
2021-06-29 11:31:27.312500000,-64.0,13.0,6.0,80.266875,11.99,12.988594,30.03
2021-06-29 11:31:27.320312500,-64.0,13.0,6.0,80.266796875,11.65,12.988754125,30.03
2021-06-29 11:31:27.328125000,-64.0,13.0,6.0,80.26671875,11.31,12.98891425,30.03
2021-06-29 11:31:27.335937500,-64.0,13.0,6.0,80.266640625,11.015,12.989074375000001,30.03
2021-06-29 11:31:27.343750000,-64.0,13.0,6.0,80.26656249999999,10.72,12.9892345,30.03
2021-06-29 11:31:27.351562500,-64.0,13.0,5.75,80.266484375,10.485,12.989394625000001,30.03
2021-06-29 11:31:27.359375000,-64.0,13.0,5.5,80.26640625,10.25,12.98955475,30.03
2021-06-29 11:31:27.367187500,-64.0,13.0,5.25,80.266328125,10.08,12.989714875,30.03
2021-06-29 11:31:27.375000000,-64.0,13.0,5.0,80.26625,9.91,12.989875000000001,30.03
2021-06-29 11:31:27.382812500,-64.0,13.0,5.0,80.266171875,9.775,12.990035125,30.03
2021-06-29 11:31:27.390625000,-64.0,13.0,5.0,80.26609375,9.64,12.990195250000001,30.03
2021-06-29 11:31:27.398437500,-64.0,13.0,5.0,80.266015625,9.455,12.990355375,30.03
2021-06-29 11:31:27.406250000,-64.0,13.0,5.0,80.2659375,9.27,12.9905155,30.03
2021-06-29 11:31:27.414062500,-64.0,13.0,5.0,80.265859375,8.955,12.990675625,30.03
2021-06-29 11:31:27.421875000,-64.0,13.0,5.0,80.26578125,8.64,12.99083575,30.03
2021-06-29 11:31:27.429687500,-64.0,13.0,5.0,80.265703125,8.1,12.990995875000001,30.03
2021-06-29 11:31:27.437500000,-64.0,13.0,5.0,80.265625,7.56,12.991156,30.03
2021-06-29 11:31:27.445312500,-64.0,13.0,5.25,80.265546875,6.77,12.991316125,30.03
2021-06-29 11:31:27.453125000,-64.0,13.0,5.5,80.26546875,5.98,12.99147625,30.03
2021-06-29 11:31:27.460937500,-64.0,13.0,5.75,80.265390625,4.970000000000001,12.991636375,30.03
2021-06-29 11:31:27.468750000,-64.0,13.0,6.0,80.2653125,3.96,12.991796500000001,30.03
2021-06-29 11:31:27.476562500,-64.0,13.0,6.0,80.265234375,2.835,12.991956625,30.03
2021-06-29 11:31:27.484375000,-64.0,13.0,6.0,80.26515625,1.71,12.992116750000001,30.03
2021-06-29 11:31:27.492187500,-64.0,13.0,6.0,80.265078125,0.6000000000000001,12.992276875,30.03
2021-06-29 11:31:27.500000000,-64.0,13.0,6.0,80.265,-0.51,12.992437,30.03
2021-06-29 11:31:27.507812500,-64.0,13.0,5.75,80.264921875,-1.505,12.99327775,30.03
2021-06-29 11:31:27.515625000,-64.0,13.0,5.5,80.26484375,-2.5,12.9941185,30.03
2021-06-29 11:31:27.523437500,-64.0,13.0,5.25,80.264765625,-3.345,12.99495925,30.03
2021-06-29 11:31:27.531250000,-64.0,13.0,5.0,80.26468750000001,-4.19,12.995800000000001,30.03
2021-06-29 11:31:27.539062500,-64.0,13.0,5.25,80.264609375,-4.92,12.996640750000001,30.03
2021-06-29 11:31:27.546875000,-64.0,13.0,5.5,80.26453125,-5.65,12.997481500000001,30.03
2021-06-29 11:31:27.554687500,-64.0,13.0,5.75,80.264453125,-6.355,12.998322250000001,30.03
2021-06-29 11:31:27.562500000,-64.0,13.0,6.0,80.264375,-7.06,12.999163000000001,30.03
2021-06-29 11:31:27.570312500,-64.0,13.0,6.0,80.264296875,-7.83,13.000003750000001,30.03
2021-06-29 11:31:27.578125000,-64.0,13.0,6.0,80.26421875,-8.6,13.000844500000001,30.03
2021-06-29 11:31:27.585937500,-64.0,13.0,6.0,80.264140625,-9.495000000000001,13.001685250000001,30.03
2021-06-29 11:31:27.593750000,-64.0,13.0,6.0,80.2640625,-10.39,13.002526000000001,30.03
2021-06-29 11:31:27.601562500,-64.0,13.0,5.75,80.263984375,-11.405000000000001,13.003366750000001,30.03
2021-06-29 11:31:27.609375000,-64.0,13.0,5.5,80.26390625,-12.42,13.004207500000001,30.03
2021-06-29 11:31:27.617187500,-64.0,13.0,5.25,80.263828125,-13.46,13.005048250000002,30.03
2021-06-29 11:31:27.625000000,-64.0,13.0,5.0,80.26375,-14.5,13.005889,30.03
2021-06-29 11:31:27.632812500,-64.0,13.0,5.0,80.263671875,-15.435,13.00672975,30.03
2021-06-29 11:31:27.640625000,-64.0,13.0,5.0,80.26359375,-16.37,13.0075705,30.03
2021-06-29 11:31:27.648437500,-64.0,13.0,5.0,80.263515625,-17.04,13.00841125,30.03
2021-06-29 11:31:27.656250000,-64.0,13.0,5.0,80.26343750000001,-17.71,13.009252,30.03
2021-06-29 11:31:27.664062500,-64.0,13.0,5.25,80.26335937500001,-17.97,13.01009275,30.03
2021-06-29 11:31:27.671875000,-64.0,13.0,5.5,80.26328125,-18.23,13.0109335,30.03
2021-06-29 11:31:27.679687500,-64.0,13.0,5.75,80.263203125,-18.0,13.01177425,30.03
2021-06-29 11:31:27.687500000,-64.0,13.0,6.0,80.263125,-17.77,13.012615,30.03
2021-06-29 11:31:27.695312500,-64.0,13.0,5.75,80.263046875,-17.02,13.01345575,30.03
2021-06-29 11:31:27.703125000,-64.0,13.0,5.5,80.26296875,-16.27,13.0142965,30.03
2021-06-29 11:31:27.710937500,-64.0,13.0,5.25,80.262890625,-15.045,13.01513725,30.03
2021-06-29 11:31:27.718750000,-64.0,13.0,5.0,80.2628125,-13.82,13.015978,30.03
2021-06-29 11:31:27.726562500,-64.0,13.0,5.25,80.26273437500001,-12.25,13.01681875,30.03
2021-06-29 11:31:27.734375000,-64.0,13.0,5.5,80.26265625,-10.68,13.0176595,30.03
2021-06-29 11:31:27.742187500,-64.0,13.0,5.75,80.262578125,-8.91,13.01850025,30.03
2021-06-29 11:31:27.750000000,-64.0,13.0,6.0,80.2625,-7.14,13.019341,30.03
2021-06-29 11:31:27.757812500,-64.0,13.25,5.75,80.262421875,-5.335,13.019020687500001,30.03
2021-06-29 11:31:27.765625000,-64.0,13.5,5.5,80.26234375,-3.53,13.018700375,30.03
2021-06-29 11:31:27.773437500,-64.0,13.75,5.25,80.262265625,-1.845,13.0183800625,30.03
2021-06-29 11:31:27.781250000,-64.0,14.0,5.0,80.26218750000001,-0.16,13.01805975,30.03
2021-06-29 11:31:27.789062500,-64.0,14.0,5.0,80.26210937500001,1.2950000000000002,13.017739437500001,30.03
2021-06-29 11:31:27.796875000,-64.0,14.0,5.0,80.26203125,2.75,13.017419125,30.03
2021-06-29 11:31:27.804687500,-64.0,14.0,5.0,80.261953125,3.94,13.0170988125,30.03
2021-06-29 11:31:27.812500000,-64.0,14.0,5.0,80.261875,5.13,13.016778500000001,30.03
2021-06-29 11:31:27.820312500,-64.0,13.75,5.0,80.261796875,6.055,13.0164581875,30.03
2021-06-29 11:31:27.828125000,-64.0,13.5,5.0,80.26171875,6.98,13.016137875,30.03
2021-06-29 11:31:27.835937500,-64.0,13.25,5.0,80.261640625,7.680000000000001,13.0158175625,30.03
2021-06-29 11:31:27.843750000,-64.0,13.0,5.0,80.2615625,8.38,13.015497250000001,30.03
2021-06-29 11:31:27.851562500,-64.0,13.0,5.25,80.26148437500001,8.920000000000002,13.0151769375,30.03
2021-06-29 11:31:27.859375000,-64.0,13.0,5.5,80.26140625000001,9.46,13.014856625,30.03
2021-06-29 11:31:27.867187500,-64.0,13.0,5.75,80.261328125,9.895,13.0145363125,30.03
2021-06-29 11:31:27.875000000,-64.0,13.0,6.0,80.26125,10.33,13.014216000000001,30.03
2021-06-29 11:31:27.882812500,-64.0,13.0,6.0,80.261171875,10.690000000000001,13.0138956875,30.03
2021-06-29 11:31:27.890625000,-64.0,13.0,6.0,80.26109375,11.05,13.013575375,30.03
2021-06-29 11:31:27.898437500,-64.0,13.0,6.0,80.261015625,11.355,13.0132550625,30.03
2021-06-29 11:31:27.906250000,-64.0,13.0,6.0,80.26093750000001,11.66,13.01293475,30.03
2021-06-29 11:31:27.914062500,-64.0,13.0,5.75,80.26085937500001,11.905000000000001,13.0126144375,30.03
2021-06-29 11:31:27.921875000,-64.0,13.0,5.5,80.26078125000001,12.15,13.012294125,30.03
2021-06-29 11:31:27.929687500,-64.0,13.0,5.25,80.260703125,12.315000000000001,13.0119738125,30.03
2021-06-29 11:31:27.937500000,-64.0,13.0,5.0,80.260625,12.48,13.0116535,30.03
2021-06-29 11:31:27.945312500,-64.0,13.0,5.25,80.260546875,12.565000000000001,13.0113331875,30.03
2021-06-29 11:31:27.953125000,-64.0,13.0,5.5,80.26046875,12.65,13.011012875,30.03
2021-06-29 11:31:27.960937500,-64.0,13.0,5.75,80.260390625,12.66,13.0106925625,30.03
2021-06-29 11:31:27.968750000,-64.0,13.0,6.0,80.2603125,12.67,13.01037225,30.03
2021-06-29 11:31:27.976562500,-64.0,13.0,6.0,80.26023437500001,12.61,13.0100519375,30.03
2021-06-29 11:31:27.984375000,-64.0,13.0,6.0,80.26015625000001,12.55,13.009731625,30.03
2021-06-29 11:31:27.992187500,-64.0,13.0,6.0,80.260078125,12.45,13.0094113125,30.03
2021-06-29 11:31:28.000000000,-64.0,13.0,6.0,80.26,12.35,13.009091,30.03
2021-06-29 11:31:28.007812500,-64.0,13.0,6.0,80.259921875,12.225,13.00897090625,30.03
2021-06-29 11:31:28.015625000,-64.0,13.0,6.0,80.25984375,12.1,13.0088508125,30.03
2021-06-29 11:31:28.023437500,-64.0,13.0,6.0,80.259765625,11.95,13.00873071875,30.03
2021-06-29 11:31:28.031250000,-64.0,13.0,6.0,80.2596875,11.8,13.008610625,30.03
2021-06-29 11:31:28.039062500,-64.0,13.0,6.0,80.25960937500001,11.61,13.00849053125,30.03
2021-06-29 11:31:28.046875000,-64.0,13.0,6.0,80.25953125000001,11.42,13.0083704375,30.03
2021-06-29 11:31:28.054687500,-64.0,13.0,6.0,80.25945312500001,11.175,13.00825034375,30.03
2021-06-29 11:31:28.062500000,-64.0,13.0,6.0,80.259375,10.93,13.00813025,30.03
2021-06-29 11:31:28.070312500,-64.0,13.0,5.75,80.259296875,10.635,13.00801015625,30.03
2021-06-29 11:31:28.078125000,-64.0,13.0,5.5,80.25921875,10.34,13.0078900625,30.03
2021-06-29 11:31:28.085937500,-64.0,13.0,5.25,80.259140625,10.015,13.007769968749999,30.03
2021-06-29 11:31:28.093750000,-64.0,13.0,5.0,80.2590625,9.69,13.007649875,30.03
2021-06-29 11:31:28.101562500,-64.0,13.25,5.0,80.25898437500001,9.385,13.00752978125,30.03
2021-06-29 11:31:28.109375000,-64.0,13.5,5.0,80.25890625000001,9.08,13.0074096875,30.03
2021-06-29 11:31:28.117187500,-64.0,13.75,5.0,80.25882812500001,8.82,13.00728959375,30.03
2021-06-29 11:31:28.125000000,-64.0,14.0,5.0,80.25875,8.56,13.0071695,30.03
2021-06-29 11:31:28.132812500,-64.0,14.0,5.0,80.258671875,8.345,13.00704940625,30.03
2021-06-29 11:31:28.140625000,-64.0,14.0,5.0,80.25859375,8.13,13.0069293125,30.03
2021-06-29 11:31:28.148437500,-64.0,14.0,5.0,80.258515625,7.9,13.00680921875,30.03
2021-06-29 11:31:28.156250000,-64.0,14.0,5.0,80.2584375,7.67,13.006689125,30.03
2021-06-29 11:31:28.164062500,-64.0,13.75,5.0,80.258359375,7.34,13.00656903125,30.03
2021-06-29 11:31:28.171875000,-64.0,13.5,5.0,80.25828125000001,7.01,13.0064489375,30.03
2021-06-29 11:31:28.179687500,-64.0,13.25,5.0,80.25820312500001,6.505,13.00632884375,30.03
2021-06-29 11:31:28.187500000,-64.0,13.0,5.0,80.258125,6.0,13.006208749999999,30.03
2021-06-29 11:31:28.195312500,-64.0,13.0,5.25,80.258046875,5.285,13.00608865625,30.03
2021-06-29 11:31:28.203125000,-64.0,13.0,5.5,80.25796875,4.57,13.0059685625,30.03
2021-06-29 11:31:28.210937500,-64.0,13.0,5.75,80.257890625,3.68,13.00584846875,30.03
2021-06-29 11:31:28.218750000,-64.0,13.0,6.0,80.2578125,2.79,13.005728375,30.03
2021-06-29 11:31:28.226562500,-64.0,13.0,5.75,80.257734375,1.7850000000000001,13.00560828125,30.03
2021-06-29 11:31:28.234375000,-64.0,13.0,5.5,80.25765625000001,0.78,13.0054881875,30.03
2021-06-29 11:31:28.242187500,-64.0,13.0,5.25,80.25757812500001,-0.26,13.00536809375,30.03
2021-06-29 11:31:28.250000000,-64.0,13.0,5.0,80.25750000000001,-1.3,13.005248,30.03
2021-06-29 11:31:28.257812500,-64.0,13.0,5.0,80.257421875,-2.3200000000000003,13.00528803125,30.03
2021-06-29 11:31:28.265625000,-64.0,13.0,5.0,80.25734375,-3.34,13.0053280625,30.03
2021-06-29 11:31:28.273437500,-64.0,13.0,5.0,80.257265625,-4.3,13.00536809375,30.03
2021-06-29 11:31:28.281250000,-64.0,13.0,5.0,80.2571875,-5.26,13.005408125,30.03
2021-06-29 11:31:28.289062500,-64.0,13.25,5.25,80.257109375,-6.145,13.00544815625,30.03
2021-06-29 11:31:28.296875000,-64.0,13.5,5.5,80.25703125,-7.03,13.0054881875,30.03
2021-06-29 11:31:28.304687500,-64.0,13.75,5.75,80.25695312500001,-7.855,13.00552821875,30.03
2021-06-29 11:31:28.312500000,-64.0,14.0,6.0,80.25687500000001,-8.68,13.00556825,30.03
2021-06-29 11:31:28.320312500,-64.0,13.75,6.0,80.256796875,-9.485,13.00560828125,30.03
2021-06-29 11:31:28.328125000,-64.0,13.5,6.0,80.25671875,-10.29,13.0056483125,30.03
2021-06-29 11:31:28.335937500,-64.0,13.25,6.0,80.256640625,-11.145,13.00568834375,30.03
2021-06-29 11:31:28.343750000,-64.0,13.0,6.0,80.2565625,-12.0,13.005728375,30.03
2021-06-29 11:31:28.351562500,-64.0,13.0,6.0,80.256484375,-12.99,13.00576840625,30.03
2021-06-29 11:31:28.359375000,-64.0,13.0,6.0,80.25640625,-13.98,13.0058084375,30.03
2021-06-29 11:31:28.367187500,-64.0,13.0,6.0,80.25632812500001,-15.13,13.005848468750001,30.03
2021-06-29 11:31:28.375000000,-64.0,13.0,6.0,80.25625000000001,-16.28,13.005888500000001,30.03
2021-06-29 11:31:28.382812500,-64.0,13.0,5.75,80.256171875,-17.515,13.00592853125,30.03
2021-06-29 11:31:28.390625000,-64.0,13.0,5.5,80.25609375,-18.75,13.0059685625,30.03
2021-06-29 11:31:28.398437500,-64.0,13.0,5.25,80.256015625,-19.895,13.00600859375,30.03
2021-06-29 11:31:28.406250000,-64.0,13.0,5.0,80.2559375,-21.04,13.006048625,30.03
2021-06-29 11:31:28.414062500,-64.0,13.0,5.0,80.255859375,-21.83,13.00608865625,30.03
2021-06-29 11:31:28.421875000,-64.0,13.0,5.0,80.25578125,-22.62,13.0061286875,30.03
2021-06-29 11:31:28.429687500,-64.0,13.0,5.0,80.255703125,-22.825000000000003,13.00616871875,30.03
2021-06-29 11:31:28.437500000,-64.0,13.0,5.0,80.25562500000001,-23.03,13.00620875,30.03
2021-06-29 11:31:28.445312500,-64.0,13.25,5.25,80.25554687500001,-22.515,13.006248781250001,30.03
2021-06-29 11:31:28.453125000,-64.0,13.5,5.5,80.25546875,-22.0,13.006288812500001,30.03
2021-06-29 11:31:28.460937500,-64.0,13.75,5.75,80.255390625,-20.77,13.00632884375,30.03
2021-06-29 11:31:28.468750000,-64.0,14.0,6.0,80.2553125,-19.54,13.006368875,30.03
2021-06-29 11:31:28.476562500,-64.0,13.75,5.75,80.255234375,-17.755,13.00640890625,30.03
2021-06-29 11:31:28.484375000,-64.0,13.5,5.5,80.25515625,-15.97,13.0064489375,30.03
2021-06-29 11:31:28.492187500,-64.0,13.25,5.25,80.255078125,-13.865,13.00648896875,30.03
2021-06-29 11:31:28.500000000,-64.0,13.0,5.0,80.255,-11.76,13.006529,30.03
2021-06-29 11:31:28.507812500,-64.0,13.0,5.0,80.25492187500001,-9.57,13.006529,30.03
2021-06-29 11:31:28.515625000,-64.0,13.0,5.0,80.25484375,-7.38,13.006529,30.03
2021-06-29 11:31:28.523437500,-64.0,13.0,5.0,80.254765625,-5.3100000000000005,13.006529,30.03
2021-06-29 11:31:28.531250000,-64.0,13.0,5.0,80.2546875,-3.24,13.006529,30.03
2021-06-29 11:31:28.539062500,-64.0,13.0,5.0,80.254609375,-1.4200000000000002,13.006529,30.03
2021-06-29 11:31:28.546875000,-64.0,13.0,5.0,80.25453125,0.4,13.006529,30.03
2021-06-29 11:31:28.554687500,-64.0,13.0,5.0,80.254453125,1.9100000000000001,13.006529,30.03
2021-06-29 11:31:28.562500000,-64.0,13.0,5.0,80.254375,3.42,13.006529,30.03
2021-06-29 11:31:28.570312500,-64.0,13.0,5.0,80.25429687500001,4.635,13.006529,30.03
2021-06-29 11:31:28.578125000,-64.0,13.0,5.0,80.25421875,5.85,13.006529,30.03
2021-06-29 11:31:28.585937500,-64.0,13.0,5.0,80.254140625,6.855,13.006529,30.03
2021-06-29 11:31:28.593750000,-64.0,13.0,5.0,80.2540625,7.86,13.006529,30.03
2021-06-29 11:31:28.601562500,-64.0,13.0,5.0,80.253984375,8.735,13.006529,30.03
2021-06-29 11:31:28.609375000,-64.0,13.0,5.0,80.25390625,9.61,13.006529,30.03
2021-06-29 11:31:28.617187500,-64.0,13.0,5.0,80.253828125,10.425,13.006529,30.03
2021-06-29 11:31:28.625000000,-64.0,13.0,5.0,80.25375,11.24,13.006529,30.03
2021-06-29 11:31:28.632812500,-64.0,13.0,5.0,80.253671875,11.995000000000001,13.006529,30.03
2021-06-29 11:31:28.640625000,-64.0,13.0,5.0,80.25359375000001,12.75,13.006529,30.03
2021-06-29 11:31:28.648437500,-64.0,13.0,5.0,80.253515625,13.405000000000001,13.006529,30.03
2021-06-29 11:31:28.656250000,-64.0,13.0,5.0,80.2534375,14.06,13.006529,30.03
2021-06-29 11:31:28.664062500,-64.0,13.0,5.0,80.253359375,14.54,13.006529,30.03
2021-06-29 11:31:28.671875000,-64.0,13.0,5.0,80.25328125,15.02,13.006529,30.03
2021-06-29 11:31:28.679687500,-64.0,13.0,5.0,80.253203125,15.285,13.006529,30.03
2021-06-29 11:31:28.687500000,-64.0,13.0,5.0,80.253125,15.55,13.006529,30.03
2021-06-29 11:31:28.695312500,-64.0,13.0,5.0,80.253046875,15.63,13.006529,30.03
2021-06-29 11:31:28.703125000,-64.0,13.0,5.0,80.25296875000001,15.71,13.006529,30.03
2021-06-29 11:31:28.710937500,-64.0,13.0,5.0,80.252890625,15.690000000000001,13.006529,30.03
2021-06-29 11:31:28.718750000,-64.0,13.0,5.0,80.2528125,15.67,13.006529,30.03
2021-06-29 11:31:28.726562500,-64.0,13.0,5.0,80.252734375,15.665,13.006529,30.03
2021-06-29 11:31:28.734375000,-64.0,13.0,5.0,80.25265625,15.66,13.006529,30.03
2021-06-29 11:31:28.742187500,-64.0,13.0,5.0,80.252578125,15.735,13.006529,30.03
2021-06-29 11:31:28.750000000,-64.0,13.0,5.0,80.2525,15.81,13.006529,30.03
2021-06-29 11:31:28.757812500,-64.0,13.0,5.25,80.252421875,15.96,13.006729187500001,30.03
2021-06-29 11:31:28.765625000,-64.0,13.0,5.5,80.25234375,16.11,13.006929375,30.03
2021-06-29 11:31:28.773437500,-64.0,13.0,5.75,80.252265625,16.265,13.007129562500001,30.03
2021-06-29 11:31:28.781250000,-64.0,13.0,6.0,80.2521875,16.42,13.00732975,30.03
2021-06-29 11:31:28.789062500,-64.0,13.0,6.0,80.252109375,16.46,13.007529937500001,30.03
2021-06-29 11:31:28.796875000,-64.0,13.0,6.0,80.25203125,16.5,13.007730125,30.03
2021-06-29 11:31:28.804687500,-64.0,13.0,6.0,80.251953125,16.32,13.007930312500001,30.03
2021-06-29 11:31:28.812500000,-64.0,13.0,6.0,80.251875,16.14,13.0081305,30.03
2021-06-29 11:31:28.820312500,-64.0,13.0,6.0,80.251796875,15.725000000000001,13.0083306875,30.03
2021-06-29 11:31:28.828125000,-64.0,13.0,6.0,80.25171875,15.31,13.008530875,30.03
2021-06-29 11:31:28.835937500,-64.0,13.0,6.0,80.25164062500001,14.7,13.0087310625,30.03
2021-06-29 11:31:28.843750000,-64.0,13.0,6.0,80.2515625,14.09,13.00893125,30.03
2021-06-29 11:31:28.851562500,-64.0,13.0,5.75,80.251484375,13.4,13.0091314375,30.03
2021-06-29 11:31:28.859375000,-64.0,13.0,5.5,80.25140625,12.71,13.009331625,30.03
2021-06-29 11:31:28.867187500,-64.0,13.0,5.25,80.251328125,12.05,13.0095318125,30.03
2021-06-29 11:31:28.875000000,-64.0,13.0,5.0,80.25125,11.39,13.009732,30.03
2021-06-29 11:31:28.882812500,-64.0,13.0,5.0,80.251171875,10.83,13.0099321875,30.03
2021-06-29 11:31:28.890625000,-64.0,13.0,5.0,80.25109375,10.27,13.010132375000001,30.03
2021-06-29 11:31:28.898437500,-64.0,13.0,5.0,80.251015625,9.795,13.0103325625,30.03
2021-06-29 11:31:28.906250000,-64.0,13.0,5.0,80.2509375,9.32,13.010532750000001,30.03
2021-06-29 11:31:28.914062500,-64.0,13.0,5.25,80.250859375,8.84,13.0107329375,30.03
2021-06-29 11:31:28.921875000,-64.0,13.0,5.5,80.25078125,8.36,13.010933125000001,30.03
2021-06-29 11:31:28.929687500,-64.0,13.0,5.75,80.250703125,7.765,13.0111333125,30.03
2021-06-29 11:31:28.937500000,-64.0,13.0,6.0,80.250625,7.17,13.011333500000001,30.03
2021-06-29 11:31:28.945312500,-64.0,13.0,5.75,80.250546875,6.4,13.0115336875,30.03
2021-06-29 11:31:28.953125000,-64.0,13.0,5.5,80.25046875,5.63,13.011733875000001,30.03
2021-06-29 11:31:28.960937500,-64.0,13.0,5.25,80.250390625,4.695,13.0119340625,30.03
2021-06-29 11:31:28.968750000,-64.0,13.0,5.0,80.2503125,3.76,13.01213425,30.03
2021-06-29 11:31:28.976562500,-64.0,13.0,5.25,80.250234375,2.755,13.0123344375,30.03
2021-06-29 11:31:28.984375000,-64.0,13.0,5.5,80.25015625,1.75,13.012534625,30.03
2021-06-29 11:31:28.992187500,-64.0,13.0,5.75,80.250078125,0.785,13.0127348125,30.03
2021-06-29 11:31:29.000000000,-64.0,13.0,6.0,80.25,-0.18,13.012935,30.03
2021-06-29 11:31:29.007812500,-64.0,13.0,6.0,80.25015625,-1.02,13.01285490625,30.029375
2021-06-29 11:31:29.015625000,-64.0,13.0,6.0,80.2503125,-1.86,13.0127748125,30.028750000000002
2021-06-29 11:31:29.023437500,-64.0,13.0,6.0,80.25046875,-2.58,13.01269471875,30.028125000000003
2021-06-29 11:31:29.031250000,-64.0,13.0,6.0,80.250625,-3.3,13.012614625000001,30.0275
2021-06-29 11:31:29.039062500,-64.0,13.0,6.0,80.25078125,-3.96,13.012534531250001,30.026875
2021-06-29 11:31:29.046875000,-64.0,13.0,6.0,80.2509375,-4.62,13.0124544375,30.02625
2021-06-29 11:31:29.054687500,-64.0,13.0,6.0,80.25109375,-5.325,13.01237434375,30.025625
2021-06-29 11:31:29.062500000,-64.0,13.0,6.0,80.25125,-6.03,13.01229425,30.025000000000002
2021-06-29 11:31:29.070312500,-64.0,13.0,5.75,80.25140625,-6.85,13.01221415625,30.024375000000003
2021-06-29 11:31:29.078125000,-64.0,13.0,5.5,80.2515625,-7.67,13.012134062500001,30.02375
2021-06-29 11:31:29.085937500,-64.0,13.0,5.25,80.25171875,-8.65,13.012053968750001,30.023125
2021-06-29 11:31:29.093750000,-64.0,13.0,5.0,80.251875,-9.63,13.011973875,30.0225
2021-06-29 11:31:29.101562500,-64.0,13.0,5.25,80.25203125,-10.75,13.01189378125,30.021875
2021-06-29 11:31:29.109375000,-64.0,13.0,5.5,80.2521875,-11.87,13.0118136875,30.021250000000002
2021-06-29 11:31:29.117187500,-64.0,13.0,5.75,80.25234375,-13.085,13.01173359375,30.020625000000003
2021-06-29 11:31:29.125000000,-64.0,13.0,6.0,80.2525,-14.3,13.011653500000001,30.020000000000003
2021-06-29 11:31:29.132812500,-64.0,13.0,6.0,80.25265625,-15.535,13.011573406250001,30.019375
2021-06-29 11:31:29.140625000,-64.0,13.0,6.0,80.2528125,-16.77,13.0114933125,30.01875
2021-06-29 11:31:29.148437500,-64.0,13.0,6.0,80.25296875,-17.92,13.01141321875,30.018125
2021-06-29 11:31:29.156250000,-64.0,13.0,6.0,80.253125,-19.07,13.011333125,30.017500000000002
2021-06-29 11:31:29.164062500,-64.0,13.0,6.0,80.25328125,-20.025,13.01125303125,30.016875000000002
2021-06-29 11:31:29.171875000,-64.0,13.0,6.0,80.2534375,-20.98,13.0111729375,30.016250000000003
2021-06-29 11:31:29.179687500,-64.0,13.0,6.0,80.25359375,-21.575000000000003,13.011092843750001,30.015625
2021-06-29 11:31:29.187500000,-64.0,13.0,6.0,80.25375,-22.17,13.01101275,30.015
2021-06-29 11:31:29.195312500,-64.0,13.0,6.0,80.25390625,-22.23,13.01093265625,30.014375
2021-06-29 11:31:29.203125000,-64.0,13.0,6.0,80.2540625,-22.29,13.0108525625,30.01375
2021-06-29 11:31:29.210937500,-64.0,13.0,6.0,80.25421874999999,-21.65,13.01077246875,30.013125000000002
2021-06-29 11:31:29.218750000,-64.0,13.0,6.0,80.254375,-21.01,13.010692375,30.012500000000003
2021-06-29 11:31:29.226562500,-64.0,13.0,6.0,80.25453125,-19.61,13.010612281250001,30.011875
2021-06-29 11:31:29.234375000,-64.0,13.0,6.0,80.2546875,-18.21,13.0105321875,30.01125
2021-06-29 11:31:29.242187500,-64.0,13.0,6.0,80.25484374999999,-16.11,13.01045209375,30.010625
2021-06-29 11:31:29.250000000,-64.0,13.0,6.0,80.255,-14.01,13.010372,30.01
2021-06-29 11:31:29.257812500,-64.0,13.0,5.75,80.25515625,-11.425,13.01069228125,30.01
2021-06-29 11:31:29.265625000,-64.0,13.0,5.5,80.2553125,-8.84,13.0110125625,30.01
2021-06-29 11:31:29.273437500,-64.0,13.0,5.25,80.25546875,-6.085,13.01133284375,30.01
2021-06-29 11:31:29.281250000,-64.0,13.0,5.0,80.255625,-3.33,13.011653125,30.01
2021-06-29 11:31:29.289062500,-64.0,13.0,5.0,80.25578125,-0.7349999999999999,13.01197340625,30.01
2021-06-29 11:31:29.296875000,-64.0,13.0,5.0,80.2559375,1.86,13.0122936875,30.01
2021-06-29 11:31:29.304687500,-64.0,13.0,5.0,80.25609375,4.06,13.012613968750001,30.01
2021-06-29 11:31:29.312500000,-64.0,13.0,5.0,80.25625,6.26,13.01293425,30.01
2021-06-29 11:31:29.320312500,-64.0,13.0,5.0,80.25640625,7.97,13.01325453125,30.01
2021-06-29 11:31:29.328125000,-64.0,13.0,5.0,80.2565625,9.68,13.0135748125,30.01
2021-06-29 11:31:29.335937500,-64.0,13.0,5.0,80.25671875,10.945,13.01389509375,30.01
2021-06-29 11:31:29.343750000,-64.0,13.0,5.0,80.256875,12.21,13.014215375000001,30.01
2021-06-29 11:31:29.351562500,-64.0,13.0,5.0,80.25703125,13.145,13.01453565625,30.01
2021-06-29 11:31:29.359375000,-64.0,13.0,5.0,80.2571875,14.08,13.0148559375,30.01
2021-06-29 11:31:29.367187500,-64.0,13.0,5.0,80.25734375,14.809999999999999,13.01517621875,30.01
2021-06-29 11:31:29.375000000,-64.0,13.0,5.0,80.2575,15.54,13.015496500000001,30.01
2021-06-29 11:31:29.382812500,-64.0,13.0,5.25,80.25765625,16.119999999999997,13.01581678125,30.01
2021-06-29 11:31:29.390625000,-64.0,13.0,5.5,80.2578125,16.7,13.0161370625,30.01
2021-06-29 11:31:29.398437500,-64.0,13.0,5.75,80.25796875,17.14,13.01645734375,30.01
2021-06-29 11:31:29.406250000,-64.0,13.0,6.0,80.25812499999999,17.58,13.016777625,30.01
2021-06-29 11:31:29.414062500,-64.0,13.0,5.75,80.25828125,17.845,13.017097906250001,30.01
2021-06-29 11:31:29.421875000,-64.0,13.0,5.5,80.2584375,18.11,13.0174181875,30.01
2021-06-29 11:31:29.429687500,-64.0,13.0,5.25,80.25859375,18.185000000000002,13.01773846875,30.01
2021-06-29 11:31:29.437500000,-64.0,13.0,5.0,80.25874999999999,18.26,13.01805875,30.01
2021-06-29 11:31:29.445312500,-64.0,13.0,5.0,80.25890625,18.16,13.01837903125,30.01
2021-06-29 11:31:29.453125000,-64.0,13.0,5.0,80.2590625,18.06,13.0186993125,30.01
2021-06-29 11:31:29.460937500,-64.0,13.0,5.0,80.25921875,17.845,13.01901959375,30.01
2021-06-29 11:31:29.468750000,-64.0,13.0,5.0,80.25937499999999,17.63,13.019339875,30.01
2021-06-29 11:31:29.476562500,-64.0,13.0,5.0,80.25953125,17.38,13.01966015625,30.01
2021-06-29 11:31:29.484375000,-64.0,13.0,5.0,80.2596875,17.13,13.019980437500001,30.01
2021-06-29 11:31:29.492187500,-64.0,13.0,5.0,80.25984375,16.93,13.02030071875,30.01
2021-06-29 11:31:29.500000000,-64.0,13.0,5.0,80.25999999999999,16.73,13.020621,30.01
2021-06-29 11:31:29.507812500,-64.0,13.0,5.0,80.26015625,16.625,13.0202606875,30.01
2021-06-29 11:31:29.515625000,-64.0,13.0,5.0,80.2603125,16.52,13.019900375,30.01
2021-06-29 11:31:29.523437500,-64.0,13.0,5.0,80.26046875,16.505,13.0195400625,30.01
2021-06-29 11:31:29.531250000,-64.0,13.0,5.0,80.260625,16.49,13.01917975,30.01
2021-06-29 11:31:29.539062500,-64.0,13.0,5.0,80.26078125,16.53,13.0188194375,30.01
2021-06-29 11:31:29.546875000,-64.0,13.0,5.0,80.2609375,16.57,13.018459125,30.01
2021-06-29 11:31:29.554687500,-64.0,13.0,5.0,80.26109375,16.57,13.0180988125,30.01
2021-06-29 11:31:29.562500000,-64.0,13.0,5.0,80.26125,16.57,13.0177385,30.01
2021-06-29 11:31:29.570312500,-64.0,13.0,5.0,80.26140625,16.435000000000002,13.0173781875,30.01
2021-06-29 11:31:29.578125000,-64.0,13.0,5.0,80.2615625,16.3,13.017017875,30.01
2021-06-29 11:31:29.585937500,-64.0,13.0,5.0,80.26171875,15.985,13.0166575625,30.01
2021-06-29 11:31:29.593750000,-64.0,13.0,5.0,80.261875,15.67,13.016297250000001,30.01
2021-06-29 11:31:29.601562500,-64.0,13.0,5.0,80.26203124999999,15.17,13.0159369375,30.01
2021-06-29 11:31:29.609375000,-64.0,13.0,5.0,80.2621875,14.67,13.015576625,30.01
2021-06-29 11:31:29.617187500,-64.0,13.0,5.0,80.26234375,14.025,13.0152163125,30.01
2021-06-29 11:31:29.625000000,-64.0,13.0,5.0,80.2625,13.38,13.014856,30.01
2021-06-29 11:31:29.632812500,-64.0,13.0,5.0,80.26265624999999,12.625,13.0144956875,30.01
2021-06-29 11:31:29.640625000,-64.0,13.0,5.0,80.2628125,11.87,13.014135375,30.01
2021-06-29 11:31:29.648437500,-64.0,13.0,5.0,80.26296875,11.035,13.0137750625,30.01
2021-06-29 11:31:29.656250000,-64.0,13.0,5.0,80.263125,10.2,13.013414749999999,30.01
2021-06-29 11:31:29.664062500,-64.0,13.25,5.0,80.26328124999999,9.26,13.0130544375,30.01
2021-06-29 11:31:29.671875000,-64.0,13.5,5.0,80.2634375,8.32,13.012694125,30.01
2021-06-29 11:31:29.679687500,-64.0,13.75,5.0,80.26359375,7.24,13.0123338125,30.01
2021-06-29 11:31:29.687500000,-64.0,14.0,5.0,80.26375,6.16,13.0119735,30.01
2021-06-29 11:31:29.695312500,-64.0,13.75,5.25,80.26390624999999,4.9350000000000005,13.0116131875,30.01
2021-06-29 11:31:29.703125000,-64.0,13.5,5.5,80.2640625,3.71,13.011252875,30.01
2021-06-29 11:31:29.710937500,-64.0,13.25,5.75,80.26421875,2.395,13.0108925625,30.01
2021-06-29 11:31:29.718750000,-64.0,13.0,6.0,80.264375,1.08,13.01053225,30.01
2021-06-29 11:31:29.726562500,-64.0,13.0,6.0,80.26453124999999,-0.21499999999999986,13.0101719375,30.01
2021-06-29 11:31:29.734375000,-64.0,13.0,6.0,80.2646875,-1.51,13.009811625,30.01
2021-06-29 11:31:29.742187500,-64.0,13.0,6.0,80.26484375,-2.665,13.0094513125,30.01
2021-06-29 11:31:29.750000000,-64.0,13.0,6.0,80.265,-3.82,13.009091,30.01
2021-06-29 11:31:29.757812500,-64.0,13.0,6.0,80.26515625,-4.77,13.009051,30.01
2021-06-29 11:31:29.765625000,-64.0,13.0,6.0,80.2653125,-5.72,13.009011,30.01
2021-06-29 11:31:29.773437500,-64.0,13.0,6.0,80.26546875,-6.484999999999999,13.008970999999999,30.01
2021-06-29 11:31:29.781250000,-64.0,13.0,6.0,80.265625,-7.25,13.008931,30.01
2021-06-29 11:31:29.789062500,-64.0,13.0,5.75,80.26578125,-7.905,13.008891,30.01
2021-06-29 11:31:29.796875000,-64.0,13.0,5.5,80.26593749999999,-8.56,13.008851,30.01
2021-06-29 11:31:29.804687500,-64.0,13.0,5.25,80.26609375,-9.23,13.008811,30.01
2021-06-29 11:31:29.812500000,-64.0,13.0,5.0,80.26625,-9.9,13.008771,30.01
2021-06-29 11:31:29.820312500,-64.0,13.0,5.0,80.26640625,-10.67,13.008731,30.01
2021-06-29 11:31:29.828125000,-64.0,13.0,5.0,80.26656249999999,-11.44,13.008691,30.01
2021-06-29 11:31:29.835937500,-64.0,13.0,5.0,80.26671875,-12.364999999999998,13.008651,30.01
2021-06-29 11:31:29.843750000,-64.0,13.0,5.0,80.266875,-13.29,13.008611,30.01
2021-06-29 11:31:29.851562500,-64.0,13.0,5.0,80.26703125,-14.41,13.008571,30.01
2021-06-29 11:31:29.859375000,-64.0,13.0,5.0,80.26718749999999,-15.53,13.008531,30.01
2021-06-29 11:31:29.867187500,-64.0,13.0,5.0,80.26734375,-16.845,13.008491,30.01
2021-06-29 11:31:29.875000000,-64.0,13.0,5.0,80.2675,-18.16,13.008451,30.01
2021-06-29 11:31:29.882812500,-64.0,13.0,5.25,80.26765625,-19.68,13.008411,30.01
2021-06-29 11:31:29.890625000,-64.0,13.0,5.5,80.26781249999999,-21.2,13.008371,30.01
2021-06-29 11:31:29.898437500,-64.0,13.0,5.75,80.26796875,-22.835,13.008331,30.01
2021-06-29 11:31:29.906250000,-64.0,13.0,6.0,80.268125,-24.47,13.008291,30.01
2021-06-29 11:31:29.914062500,-64.0,13.0,5.75,80.26828125,-26.055,13.008251,30.01
2021-06-29 11:31:29.921875000,-64.0,13.0,5.5,80.26843749999999,-27.64,13.008211,30.01
2021-06-29 11:31:29.929687500,-64.0,13.0,5.25,80.26859375,-28.884999999999998,13.008171,30.01
2021-06-29 11:31:29.937500000,-64.0,13.0,5.0,80.26875,-30.13,13.008131,30.01
2021-06-29 11:31:29.945312500,-64.0,13.0,5.0,80.26890625,-30.705,13.008091,30.01
2021-06-29 11:31:29.953125000,-64.0,13.0,5.0,80.26906249999999,-31.28,13.008051,30.01
2021-06-29 11:31:29.960937500,-64.0,13.0,5.0,80.26921875,-30.955,13.008011,30.01
2021-06-29 11:31:29.968750000,-64.0,13.0,5.0,80.269375,-30.63,13.007971,30.01
2021-06-29 11:31:29.976562500,-64.0,13.0,5.0,80.26953125,-29.35,13.007931000000001,30.01
2021-06-29 11:31:29.984375000,-64.0,13.0,5.0,80.26968749999999,-28.07,13.007891,30.01
2021-06-29 11:31:29.992187500,-64.0,13.0,5.0,80.26984374999999,-26.035,13.007851,30.01
2021-06-29 11:31:30.000000000,-64.0,13.0,5.0,80.27,-24.0,13.007811,30.01
2021-06-29 11:31:30.007812500,-64.0,13.0,5.0,80.27015625,-21.58,13.00985275,30.010625
2021-06-29 11:31:30.015625000,-64.0,13.0,5.0,80.2703125,-19.16,13.0118945,30.01125
2021-06-29 11:31:30.023437500,-64.0,13.0,5.0,80.27046874999999,-16.795,13.01393625,30.011875
2021-06-29 11:31:30.031250000,-64.0,13.0,5.0,80.270625,-14.43,13.015978,30.012500000000003
2021-06-29 11:31:30.039062500,-64.0,13.0,5.0,80.27078125,-12.455,13.01801975,30.013125000000002
2021-06-29 11:31:30.046875000,-64.0,13.0,5.0,80.2709375,-10.48,13.0200615,30.01375
2021-06-29 11:31:30.054687500,-64.0,13.0,5.0,80.27109374999999,-9.075,13.02210325,30.014375
2021-06-29 11:31:30.062500000,-64.0,13.0,5.0,80.27125,-7.67,13.024145,30.015
2021-06-29 11:31:30.070312500,-64.0,13.0,5.0,80.27140625,-6.83,13.02618675,30.015625
2021-06-29 11:31:30.078125000,-64.0,13.0,5.0,80.2715625,-5.99,13.0282285,30.016250000000003
2021-06-29 11:31:30.085937500,-64.0,13.0,5.0,80.27171874999999,-5.63,13.030270250000001,30.016875000000002
2021-06-29 11:31:30.093750000,-64.0,13.0,5.0,80.271875,-5.27,13.032312000000001,30.017500000000002
2021-06-29 11:31:30.101562500,-64.0,13.0,5.0,80.27203125,-5.275,13.034353750000001,30.018125
2021-06-29 11:31:30.109375000,-64.0,13.0,5.0,80.2721875,-5.28,13.036395500000001,30.01875
2021-06-29 11:31:30.117187500,-64.0,13.0,5.0,80.27234374999999,-5.5649999999999995,13.038437250000001,30.019375
2021-06-29 11:31:30.125000000,-64.0,13.0,5.0,80.2725,-5.85,13.040479000000001,30.020000000000003
2021-06-29 11:31:30.132812500,-64.0,13.0,5.0,80.27265625,-6.365,13.04252075,30.020625000000003
2021-06-29 11:31:30.140625000,-64.0,13.0,5.0,80.2728125,-6.88,13.0445625,30.021250000000002
2021-06-29 11:31:30.148437500,-64.0,13.0,5.0,80.27296875,-7.574999999999999,13.04660425,30.021875
2021-06-29 11:31:30.156250000,-64.0,13.0,5.0,80.273125,-8.27,13.048646,30.0225
2021-06-29 11:31:30.164062500,-64.0,13.0,5.0,80.27328125,-9.09,13.05068775,30.023125
2021-06-29 11:31:30.171875000,-64.0,13.0,5.0,80.2734375,-9.91,13.0527295,30.02375
2021-06-29 11:31:30.179687500,-64.0,13.0,5.0,80.27359375,-10.8,13.05477125,30.024375000000003
2021-06-29 11:31:30.187500000,-64.0,13.0,5.0,80.27374999999999,-11.69,13.056813,30.025000000000002
2021-06-29 11:31:30.195312500,-64.0,13.0,5.0,80.27390625,-12.585,13.05885475,30.025625
2021-06-29 11:31:30.203125000,-64.0,13.0,5.0,80.2740625,-13.48,13.0608965,30.02625
2021-06-29 11:31:30.210937500,-64.0,13.0,5.0,80.27421875,-14.34,13.06293825,30.026875
2021-06-29 11:31:30.218750000,-64.0,13.0,5.0,80.27437499999999,-15.2,13.06498,30.0275
2021-06-29 11:31:30.226562500,-64.0,13.0,5.0,80.27453125,-16.005,13.06702175,30.028125000000003
2021-06-29 11:31:30.234375000,-64.0,13.0,5.0,80.2746875,-16.81,13.0690635,30.028750000000002
2021-06-29 11:31:30.242187500,-64.0,13.0,5.0,80.27484375,-17.555,13.07110525,30.029375
2021-06-29 11:31:30.250000000,-64.0,13.0,5.0,80.275,-18.3,13.073147,30.03
2021-06-29 11:31:30.257812500,-64.0,13.0,5.25,80.27515625,-19.0,13.0749885625,30.03
2021-06-29 11:31:30.265625000,-64.0,13.0,5.5,80.2753125,-19.7,13.076830125,30.03
2021-06-29 11:31:30.273437500,-64.0,13.0,5.75,80.27546875,-20.369999999999997,13.0786716875,30.03
2021-06-29 11:31:30.281250000,-64.0,13.0,6.0,80.275625,-21.04,13.080513250000001,30.03
2021-06-29 11:31:30.289062500,-64.0,13.0,5.75,80.27578125,-21.685,13.0823548125,30.03
2021-06-29 11:31:30.296875000,-64.0,13.0,5.5,80.2759375,-22.33,13.084196375000001,30.03
2021-06-29 11:31:30.304687500,-64.0,13.0,5.25,80.27609375,-22.924999999999997,13.0860379375,30.03
2021-06-29 11:31:30.312500000,-64.0,13.0,5.0,80.27625,-23.52,13.0878795,30.03
2021-06-29 11:31:30.320312500,-64.0,13.25,5.0,80.27640625,-23.985,13.0897210625,30.03
2021-06-29 11:31:30.328125000,-64.0,13.5,5.0,80.2765625,-24.45,13.091562625,30.03
2021-06-29 11:31:30.335937500,-64.0,13.75,5.0,80.27671875,-24.67,13.093404187500001,30.03
2021-06-29 11:31:30.343750000,-64.0,14.0,5.0,80.276875,-24.89,13.09524575,30.03
2021-06-29 11:31:30.351562500,-64.0,13.75,5.0,80.27703125,-24.705,13.097087312500001,30.03
2021-06-29 11:31:30.359375000,-64.0,13.5,5.0,80.2771875,-24.52,13.098928875,30.03
2021-06-29 11:31:30.367187500,-64.0,13.25,5.0,80.27734375,-23.79,13.100770437500001,30.03
2021-06-29 11:31:30.375000000,-64.0,13.0,5.0,80.2775,-23.06,13.102612,30.03
2021-06-29 11:31:30.382812500,-64.0,13.25,5.0,80.27765625,-21.735,13.1044535625,30.03
2021-06-29 11:31:30.390625000,-64.0,13.5,5.0,80.2778125,-20.41,13.106295125,30.03
2021-06-29 11:31:30.398437500,-64.0,13.75,5.0,80.27796875,-18.52,13.1081366875,30.03
2021-06-29 11:31:30.406250000,-64.0,14.0,5.0,80.278125,-16.63,13.109978250000001,30.03
2021-06-29 11:31:30.414062500,-64.0,13.75,5.25,80.27828125,-14.29,13.1118198125,30.03
2021-06-29 11:31:30.421875000,-64.0,13.5,5.5,80.2784375,-11.95,13.113661375000001,30.03
2021-06-29 11:31:30.429687500,-64.0,13.25,5.75,80.27859375,-9.315,13.1155029375,30.03
2021-06-29 11:31:30.437500000,-64.0,13.0,6.0,80.27875,-6.68,13.117344500000002,30.03
2021-06-29 11:31:30.445312500,-64.0,13.0,5.75,80.27890625,-3.875,13.1191860625,30.03
2021-06-29 11:31:30.453125000,-64.0,13.0,5.5,80.2790625,-1.07,13.121027625,30.03
2021-06-29 11:31:30.460937500,-64.0,13.0,5.25,80.27921875,1.825,13.122869187500001,30.03
2021-06-29 11:31:30.468750000,-64.0,13.0,5.0,80.279375,4.72,13.12471075,30.03
2021-06-29 11:31:30.476562500,-64.0,13.0,5.0,80.27953125,7.65,13.126552312500001,30.03
2021-06-29 11:31:30.484375000,-64.0,13.0,5.0,80.2796875,10.58,13.128393875,30.03
2021-06-29 11:31:30.492187500,-64.0,13.0,5.0,80.27984375,13.48,13.130235437500001,30.03
2021-06-29 11:31:30.500000000,-64.0,13.0,5.0,80.28,16.38,13.132077,30.03
2021-06-29 11:31:30.507812500,-64.0,13.0,5.25,80.28015625,19.145,13.13359828125,30.03
2021-06-29 11:31:30.515625000,-64.0,13.0,5.5,80.28031250000001,21.91,13.1351195625,30.03
2021-06-29 11:31:30.523437500,-64.0,13.0,5.75,80.28046875,24.405,13.136640843750001,30.03
2021-06-29 11:31:30.531250000,-64.0,13.0,6.0,80.280625,26.9,13.138162125000001,30.03
2021-06-29 11:31:30.539062500,-64.0,13.0,6.0,80.28078125,28.955,13.13968340625,30.03
2021-06-29 11:31:30.546875000,-64.0,13.0,6.0,80.28093750000001,31.01,13.1412046875,30.03
2021-06-29 11:31:30.554687500,-64.0,13.0,6.0,80.28109375,32.47,13.142725968750002,30.03
2021-06-29 11:31:30.562500000,-64.0,13.0,6.0,80.28125,33.93,13.144247250000001,30.03
2021-06-29 11:31:30.570312500,-64.0,13.0,5.75,80.28140625,34.68,13.14576853125,30.03
2021-06-29 11:31:30.578125000,-64.0,13.0,5.5,80.2815625,35.43,13.1472898125,30.03
2021-06-29 11:31:30.585937500,-64.0,13.0,5.25,80.28171875,35.39,13.14881109375,30.03
2021-06-29 11:31:30.593750000,-64.0,13.0,5.0,80.281875,35.35,13.150332375000001,30.03
2021-06-29 11:31:30.601562500,-64.0,13.0,5.0,80.28203125,34.515,13.151853656250001,30.03
2021-06-29 11:31:30.609375000,-64.0,13.0,5.0,80.2821875,33.68,13.1533749375,30.03
2021-06-29 11:31:30.617187500,-64.0,13.0,5.0,80.28234375,32.085,13.15489621875,30.03
2021-06-29 11:31:30.625000000,-64.0,13.0,5.0,80.2825,30.49,13.1564175,30.03
2021-06-29 11:31:30.632812500,-64.0,13.25,5.25,80.28265625,28.27,13.157938781250001,30.03
2021-06-29 11:31:30.640625000,-64.0,13.5,5.5,80.2828125,26.05,13.1594600625,30.03
2021-06-29 11:31:30.648437500,-64.0,13.75,5.75,80.28296875000001,23.439999999999998,13.16098134375,30.03
2021-06-29 11:31:30.656250000,-64.0,14.0,6.0,80.283125,20.83,13.162502625,30.03
2021-06-29 11:31:30.664062500,-64.0,14.0,5.75,80.28328125,18.18,13.164023906250002,30.03
2021-06-29 11:31:30.671875000,-64.0,14.0,5.5,80.2834375,15.53,13.165545187500001,30.03
2021-06-29 11:31:30.679687500,-64.0,14.0,5.25,80.28359375000001,13.265,13.16706646875,30.03
2021-06-29 11:31:30.687500000,-64.0,14.0,5.0,80.28375,11.0,13.16858775,30.03
2021-06-29 11:31:30.695312500,-64.0,13.75,5.0,80.28390625,9.51,13.17010903125,30.03
2021-06-29 11:31:30.703125000,-64.0,13.5,5.0,80.2840625,8.02,13.171630312500001,30.03
2021-06-29 11:31:30.710937500,-64.0,13.25,5.0,80.28421875000001,7.57,13.173151593750001,30.03
2021-06-29 11:31:30.718750000,-64.0,13.0,5.0,80.284375,7.12,13.174672875,30.03
2021-06-29 11:31:30.726562500,-64.0,13.25,5.0,80.28453125,7.744999999999999,13.17619415625,30.03
2021-06-29 11:31:30.734375000,-64.0,13.5,5.0,80.2846875,8.37,13.177715437500002,30.03
2021-06-29 11:31:30.742187500,-64.0,13.75,5.0,80.28484375000001,9.86,13.179236718750001,30.03
2021-06-29 11:31:30.750000000,-64.0,14.0,5.0,80.285,11.35,13.180758,30.03
2021-06-29 11:31:30.757812500,-64.0,14.0,5.0,80.28515625,13.315,13.182959937500002,30.03
2021-06-29 11:31:30.765625000,-64.0,14.0,5.0,80.2853125,15.28,13.185161875,30.03
2021-06-29 11:31:30.773437500,-64.0,14.0,5.0,80.28546875,17.28,13.187363812500001,30.03
2021-06-29 11:31:30.781250000,-64.0,14.0,5.0,80.28562500000001,19.28,13.18956575,30.03
2021-06-29 11:31:30.789062500,-64.0,13.75,5.0,80.28578125,20.97,13.1917676875,30.03
2021-06-29 11:31:30.796875000,-64.0,13.5,5.0,80.2859375,22.66,13.193969625000001,30.03
2021-06-29 11:31:30.804687500,-64.0,13.25,5.0,80.28609375,23.835,13.1961715625,30.03
2021-06-29 11:31:30.812500000,-64.0,13.0,5.0,80.28625000000001,25.01,13.1983735,30.03
2021-06-29 11:31:30.820312500,-64.0,13.0,5.0,80.28640625,25.64,13.200575437500001,30.03
2021-06-29 11:31:30.828125000,-64.0,13.0,5.0,80.2865625,26.27,13.202777375,30.03
2021-06-29 11:31:30.835937500,-64.0,13.0,5.0,80.28671875,26.42,13.2049793125,30.03
2021-06-29 11:31:30.843750000,-64.0,13.0,5.0,80.28687500000001,26.57,13.207181250000001,30.03
2021-06-29 11:31:30.851562500,-64.0,13.0,5.25,80.28703125,26.37,13.2093831875,30.03
2021-06-29 11:31:30.859375000,-64.0,13.0,5.5,80.2871875,26.17,13.211585125000001,30.03
2021-06-29 11:31:30.867187500,-64.0,13.0,5.75,80.28734375,25.75,13.2137870625,30.03
2021-06-29 11:31:30.875000000,-64.0,13.0,6.0,80.28750000000001,25.33,13.215989,30.03
2021-06-29 11:31:30.882812500,-64.0,13.0,6.0,80.28765625000001,24.814999999999998,13.218190937500001,30.03
2021-06-29 11:31:30.890625000,-64.0,13.0,6.0,80.2878125,24.3,13.220392875,30.03
2021-06-29 11:31:30.898437500,-64.0,13.0,6.0,80.28796875,23.79,13.2225948125,30.03
2021-06-29 11:31:30.906250000,-64.0,13.0,6.0,80.28812500000001,23.28,13.22479675,30.03
2021-06-29 11:31:30.914062500,-64.0,13.0,5.75,80.28828125000001,22.85,13.2269986875,30.03
2021-06-29 11:31:30.921875000,-64.0,13.0,5.5,80.2884375,22.42,13.229200625,30.03
2021-06-29 11:31:30.929687500,-64.0,13.0,5.25,80.28859375,22.1,13.2314025625,30.03
2021-06-29 11:31:30.937500000,-64.0,13.0,5.0,80.28875000000001,21.78,13.2336045,30.03
2021-06-29 11:31:30.945312500,-64.0,13.0,5.0,80.28890625000001,21.545,13.2358064375,30.03
2021-06-29 11:31:30.953125000,-64.0,13.0,5.0,80.2890625,21.31,13.238008375,30.03
2021-06-29 11:31:30.960937500,-64.0,13.0,5.0,80.28921875,21.11,13.2402103125,30.03
2021-06-29 11:31:30.968750000,-64.0,13.0,5.0,80.289375,20.91,13.242412250000001,30.03
2021-06-29 11:31:30.976562500,-64.0,13.0,5.0,80.28953125000001,20.675,13.2446141875,30.03
2021-06-29 11:31:30.984375000,-64.0,13.0,5.0,80.2896875,20.44,13.246816125,30.03
2021-06-29 11:31:30.992187500,-64.0,13.0,5.0,80.28984375,20.130000000000003,13.2490180625,30.03
2021-06-29 11:31:31.000000000,-64.0,13.0,5.0,80.29,19.82,13.25122,30.03
2021-06-29 11:31:31.007812500,-64.0,13.0,5.0,80.29015625000001,19.41,13.2514601875,30.03
2021-06-29 11:31:31.015625000,-64.0,13.0,5.0,80.29031250000001,19.0,13.251700375,30.03
2021-06-29 11:31:31.023437500,-64.0,13.0,5.0,80.29046875,18.509999999999998,13.2519405625,30.03
2021-06-29 11:31:31.031250000,-64.0,13.0,5.0,80.290625,18.02,13.25218075,30.03
2021-06-29 11:31:31.039062500,-64.0,13.0,5.0,80.29078125000001,17.485,13.2524209375,30.03
2021-06-29 11:31:31.046875000,-64.0,13.0,5.0,80.29093750000001,16.95,13.252661125,30.03
2021-06-29 11:31:31.054687500,-64.0,13.0,5.0,80.29109375,16.395,13.2529013125,30.03
2021-06-29 11:31:31.062500000,-64.0,13.0,5.0,80.29125,15.84,13.2531415,30.03
2021-06-29 11:31:31.070312500,-64.0,13.0,5.0,80.29140625000001,15.280000000000001,13.2533816875,30.03
2021-06-29 11:31:31.078125000,-64.0,13.0,5.0,80.29156250000001,14.72,13.253621875,30.03
2021-06-29 11:31:31.085937500,-64.0,13.0,5.0,80.29171875,14.175,13.2538620625,30.03
2021-06-29 11:31:31.093750000,-64.0,13.0,5.0,80.291875,13.63,13.254102249999999,30.03
2021-06-29 11:31:31.101562500,-64.0,13.0,5.0,80.29203125000001,13.08,13.2543424375,30.03
2021-06-29 11:31:31.109375000,-64.0,13.0,5.0,80.29218750000001,12.53,13.254582625,30.03
2021-06-29 11:31:31.117187500,-64.0,13.0,5.0,80.29234375,11.96,13.2548228125,30.03
2021-06-29 11:31:31.125000000,-64.0,13.0,5.0,80.2925,11.39,13.255063,30.03
2021-06-29 11:31:31.132812500,-64.0,13.0,5.0,80.29265625000001,10.780000000000001,13.2553031875,30.03
2021-06-29 11:31:31.140625000,-64.0,13.0,5.0,80.29281250000001,10.17,13.255543375,30.03
2021-06-29 11:31:31.148437500,-64.0,13.0,5.0,80.29296875,9.504999999999999,13.2557835625,30.03
2021-06-29 11:31:31.156250000,-64.0,13.0,5.0,80.293125,8.84,13.25602375,30.03
2021-06-29 11:31:31.164062500,-64.0,13.0,5.0,80.29328125,8.11,13.2562639375,30.03
2021-06-29 11:31:31.171875000,-64.0,13.0,5.0,80.29343750000001,7.38,13.256504125,30.03
2021-06-29 11:31:31.179687500,-64.0,13.0,5.0,80.29359375,6.605,13.2567443125,30.03
2021-06-29 11:31:31.187500000,-64.0,13.0,5.0,80.29375,5.83,13.2569845,30.03
2021-06-29 11:31:31.195312500,-64.0,13.0,5.0,80.29390625,5.025,13.257224687499999,30.03
2021-06-29 11:31:31.203125000,-64.0,13.0,5.0,80.29406250000001,4.22,13.257464875,30.03
2021-06-29 11:31:31.210937500,-64.0,13.0,5.0,80.29421875,3.405,13.2577050625,30.03
2021-06-29 11:31:31.218750000,-64.0,13.0,5.0,80.294375,2.59,13.257945249999999,30.03
2021-06-29 11:31:31.226562500,-64.0,13.0,5.0,80.29453125,1.785,13.2581854375,30.03
2021-06-29 11:31:31.234375000,-64.0,13.0,5.0,80.29468750000001,0.98,13.258425625,30.03
2021-06-29 11:31:31.242187500,-64.0,13.0,5.0,80.29484375,0.19999999999999996,13.2586658125,30.03
2021-06-29 11:31:31.250000000,-64.0,13.0,5.0,80.295,-0.58,13.258906,30.03
2021-06-29 11:31:31.257812500,-64.0,13.0,5.0,80.29515625,-1.315,13.2602671875,30.03
2021-06-29 11:31:31.265625000,-64.0,13.0,5.0,80.29531250000001,-2.05,13.261628374999999,30.03
2021-06-29 11:31:31.273437500,-64.0,13.0,5.0,80.29546875000001,-2.71,13.2629895625,30.03
2021-06-29 11:31:31.281250000,-64.0,13.0,5.0,80.295625,-3.37,13.26435075,30.03
2021-06-29 11:31:31.289062500,-64.0,13.0,5.0,80.29578125,-3.95,13.265711937499999,30.03
2021-06-29 11:31:31.296875000,-64.0,13.0,5.0,80.29593750000001,-4.53,13.267073125,30.03
2021-06-29 11:31:31.304687500,-64.0,13.0,5.0,80.29609375000001,-5.07,13.2684343125,30.03
2021-06-29 11:31:31.312500000,-64.0,13.0,5.0,80.29625,-5.61,13.2697955,30.03
2021-06-29 11:31:31.320312500,-64.0,13.0,5.0,80.29640625,-6.18,13.2711566875,30.03
2021-06-29 11:31:31.328125000,-64.0,13.0,5.0,80.29656250000001,-6.75,13.272517875,30.03
2021-06-29 11:31:31.335937500,-64.0,13.0,5.0,80.29671875000001,-7.46,13.2738790625,30.03
2021-06-29 11:31:31.343750000,-64.0,13.0,5.0,80.296875,-8.17,13.27524025,30.03
2021-06-29 11:31:31.351562500,-64.0,13.0,5.25,80.29703125,-9.094999999999999,13.2766014375,30.03
2021-06-29 11:31:31.359375000,-64.0,13.0,5.5,80.2971875,-10.02,13.277962625,30.03
2021-06-29 11:31:31.367187500,-64.0,13.0,5.75,80.29734375000001,-11.184999999999999,13.2793238125,30.03
2021-06-29 11:31:31.375000000,-64.0,13.0,6.0,80.2975,-12.35,13.280685,30.03
2021-06-29 11:31:31.382812500,-64.0,13.0,5.75,80.29765625,-13.67,13.2820461875,30.03
2021-06-29 11:31:31.390625000,-64.0,13.0,5.5,80.2978125,-14.99,13.283407375,30.03
2021-06-29 11:31:31.398437500,-64.0,13.0,5.25,80.29796875000001,-16.305,13.2847685625,30.03
2021-06-29 11:31:31.406250000,-64.0,13.0,5.0,80.298125,-17.62,13.28612975,30.03
2021-06-29 11:31:31.414062500,-64.0,13.0,5.0,80.29828125,-18.73,13.2874909375,30.03
2021-06-29 11:31:31.421875000,-64.0,13.0,5.0,80.2984375,-19.84,13.288852125,30.03
2021-06-29 11:31:31.429687500,-64.0,13.0,5.0,80.29859375000001,-20.545,13.2902133125,30.03
2021-06-29 11:31:31.437500000,-64.0,13.0,5.0,80.29875,-21.25,13.2915745,30.03
2021-06-29 11:31:31.445312500,-64.0,13.0,5.25,80.29890625,-21.395,13.2929356875,30.03
2021-06-29 11:31:31.453125000,-64.0,13.0,5.5,80.2990625,-21.54,13.294296875,30.03
2021-06-29 11:31:31.460937500,-64.0,13.0,5.75,80.29921875000001,-21.049999999999997,13.295658062500001,30.03
2021-06-29 11:31:31.468750000,-64.0,13.0,6.0,80.299375,-20.56,13.29701925,30.03
2021-06-29 11:31:31.476562500,-64.0,13.0,5.75,80.29953125,-19.46,13.2983804375,30.03
2021-06-29 11:31:31.484375000,-64.0,13.0,5.5,80.2996875,-18.36,13.299741625000001,30.03
2021-06-29 11:31:31.492187500,-64.0,13.0,5.25,80.29984375000001,-16.759999999999998,13.3011028125,30.03
2021-06-29 11:31:31.500000000,-64.0,13.0,5.0,80.30000000000001,-15.16,13.302464,30.03
2021-06-29 11:31:31.507812500,-64.0,13.0,5.0,80.30015625,-13.235,13.3027041875,30.03
2021-06-29 11:31:31.515625000,-64.0,13.0,5.0,80.3003125,-11.31,13.302944375000001,30.03
2021-06-29 11:31:31.523437500,-64.0,13.0,5.0,80.30046875000001,-9.275,13.3031845625,30.03
2021-06-29 11:31:31.531250000,-64.0,13.0,5.0,80.30062500000001,-7.24,13.303424750000001,30.03
2021-06-29 11:31:31.539062500,-64.0,13.0,5.0,80.30078125,-5.305,13.3036649375,30.03
2021-06-29 11:31:31.546875000,-64.0,13.0,5.0,80.3009375,-3.37,13.303905125,30.03
2021-06-29 11:31:31.554687500,-64.0,13.0,5.0,80.30109375,-1.69,13.304145312500001,30.03
2021-06-29 11:31:31.562500000,-64.0,13.0,5.0,80.30125000000001,-0.01,13.3043855,30.03
2021-06-29 11:31:31.570312500,-64.0,13.0,5.0,80.30140625,1.335,13.3046256875,30.03
2021-06-29 11:31:31.578125000,-64.0,13.0,5.0,80.3015625,2.68,13.304865875,30.03
2021-06-29 11:31:31.585937500,-64.0,13.0,5.0,80.30171875,3.7,13.3051060625,30.03
2021-06-29 11:31:31.593750000,-64.0,13.0,5.0,80.30187500000001,4.72,13.30534625,30.03
2021-06-29 11:31:31.601562500,-64.0,13.0,5.0,80.30203125,5.455,13.3055864375,30.03
2021-06-29 11:31:31.609375000,-64.0,13.0,5.0,80.3021875,6.19,13.305826625,30.03
2021-06-29 11:31:31.617187500,-64.0,13.0,5.0,80.30234375,6.715,13.306066812500001,30.03
2021-06-29 11:31:31.625000000,-64.0,13.0,5.0,80.30250000000001,7.24,13.306307,30.03
2021-06-29 11:31:31.632812500,-64.0,13.0,5.0,80.30265625,7.605,13.3065471875,30.03
2021-06-29 11:31:31.640625000,-64.0,13.0,5.0,80.3028125,7.97,13.306787375,30.03
2021-06-29 11:31:31.648437500,-64.0,13.0,5.0,80.30296875,8.235,13.3070275625,30.03
2021-06-29 11:31:31.656250000,-64.0,13.0,5.0,80.30312500000001,8.5,13.307267750000001,30.03
2021-06-29 11:31:31.664062500,-64.0,13.0,5.0,80.30328125,8.684999999999999,13.3075079375,30.03
2021-06-29 11:31:31.671875000,-64.0,13.0,5.0,80.3034375,8.87,13.307748125,30.03
2021-06-29 11:31:31.679687500,-64.0,13.0,5.0,80.30359375,9.02,13.307988312500001,30.03
2021-06-29 11:31:31.687500000,-64.0,13.0,5.0,80.30375000000001,9.17,13.3082285,30.03
2021-06-29 11:31:31.695312500,-64.0,13.0,5.0,80.30390625,9.29,13.3084686875,30.03
2021-06-29 11:31:31.703125000,-64.0,13.0,5.0,80.3040625,9.41,13.308708875,30.03
2021-06-29 11:31:31.710937500,-64.0,13.0,5.0,80.30421875,9.52,13.3089490625,30.03
2021-06-29 11:31:31.718750000,-64.0,13.0,5.0,80.30437500000001,9.63,13.30918925,30.03
2021-06-29 11:31:31.726562500,-64.0,13.0,5.25,80.30453125,9.73,13.3094294375,30.03
2021-06-29 11:31:31.734375000,-64.0,13.0,5.5,80.3046875,9.83,13.309669625,30.03
2021-06-29 11:31:31.742187500,-64.0,13.0,5.75,80.30484375,9.945,13.3099098125,30.03
2021-06-29 11:31:31.750000000,-64.0,13.0,6.0,80.305,10.06,13.31015,30.03
2021-06-29 11:31:31.757812500,-64.0,13.0,5.75,80.30515625000001,10.185,13.3109506875,30.03
2021-06-29 11:31:31.765625000,-64.0,13.0,5.5,80.3053125,10.31,13.311751375,30.03
2021-06-29 11:31:31.773437500,-64.0,13.0,5.25,80.30546875,10.440000000000001,13.3125520625,30.03
2021-06-29 11:31:31.781250000,-64.0,13.0,5.0,80.305625,10.57,13.31335275,30.03
2021-06-29 11:31:31.789062500,-64.0,13.0,5.0,80.30578125000001,10.665,13.3141534375,30.03
2021-06-29 11:31:31.796875000,-64.0,13.0,5.0,80.3059375,10.76,13.314954125,30.03
2021-06-29 11:31:31.804687500,-64.0,13.0,5.0,80.30609375,10.77,13.3157548125,30.03
2021-06-29 11:31:31.812500000,-64.0,13.0,5.0,80.30625,10.78,13.3165555,30.03
2021-06-29 11:31:31.820312500,-64.0,13.0,5.0,80.30640625000001,10.645,13.3173561875,30.03
2021-06-29 11:31:31.828125000,-64.0,13.0,5.0,80.3065625,10.51,13.318156875,30.03
2021-06-29 11:31:31.835937500,-64.0,13.0,5.0,80.30671875,10.195,13.3189575625,30.03
2021-06-29 11:31:31.843750000,-64.0,13.0,5.0,80.306875,9.88,13.31975825,30.03
2021-06-29 11:31:31.851562500,-64.0,13.0,5.0,80.30703125000001,9.425,13.3205589375,30.03
2021-06-29 11:31:31.859375000,-64.0,13.0,5.0,80.3071875,8.97,13.321359625,30.03
2021-06-29 11:31:31.867187500,-64.0,13.0,5.0,80.30734375,8.445,13.3221603125,30.03
2021-06-29 11:31:31.875000000,-64.0,13.0,5.0,80.3075,7.92,13.322961,30.03
2021-06-29 11:31:31.882812500,-64.0,13.0,5.0,80.30765625000001,7.415,13.323761687500001,30.03
2021-06-29 11:31:31.890625000,-64.0,13.0,5.0,80.3078125,6.91,13.324562375000001,30.03
2021-06-29 11:31:31.898437500,-64.0,13.0,5.0,80.30796875,6.45,13.325363062500001,30.03
2021-06-29 11:31:31.906250000,-64.0,13.0,5.0,80.308125,5.99,13.326163750000001,30.03
2021-06-29 11:31:31.914062500,-64.0,13.0,5.0,80.30828125000001,5.545,13.326964437500001,30.03
2021-06-29 11:31:31.921875000,-64.0,13.0,5.0,80.3084375,5.1,13.327765125,30.03
2021-06-29 11:31:31.929687500,-64.0,13.0,5.0,80.30859375,4.595,13.3285658125,30.03
2021-06-29 11:31:31.937500000,-64.0,13.0,5.0,80.30875,4.09,13.3293665,30.03
2021-06-29 11:31:31.945312500,-64.0,13.0,5.0,80.30890625,3.465,13.3301671875,30.03
2021-06-29 11:31:31.953125000,-64.0,13.0,5.0,80.3090625,2.84,13.330967875,30.03
2021-06-29 11:31:31.960937500,-64.0,13.0,5.0,80.30921875,2.0949999999999998,13.3317685625,30.03
2021-06-29 11:31:31.968750000,-64.0,13.0,5.0,80.309375,1.35,13.33256925,30.03
2021-06-29 11:31:31.976562500,-64.0,13.0,5.0,80.30953125,0.5800000000000001,13.3333699375,30.03
2021-06-29 11:31:31.984375000,-64.0,13.0,5.0,80.3096875,-0.19,13.334170625,30.03
2021-06-29 11:31:31.992187500,-64.0,13.0,5.0,80.30984375,-0.8700000000000001,13.3349713125,30.03
2021-06-29 11:31:32.000000000,-64.0,13.0,5.0,80.31,-1.55,13.335772,30.03
2021-06-29 11:31:32.007812500,-64.0,13.0,5.0,80.31015625,-2.07,13.336212375,30.03
2021-06-29 11:31:32.015625000,-64.0,13.0,5.0,80.31031250000001,-2.59,13.33665275,30.03
2021-06-29 11:31:32.023437500,-64.0,13.0,5.0,80.31046875,-2.995,13.337093125,30.03
2021-06-29 11:31:32.031250000,-64.0,13.0,5.0,80.310625,-3.4,13.337533500000001,30.03
2021-06-29 11:31:32.039062500,-64.0,13.0,5.0,80.31078125,-3.8200000000000003,13.337973875000001,30.03
2021-06-29 11:31:32.046875000,-64.0,13.0,5.0,80.31093750000001,-4.24,13.33841425,30.03
2021-06-29 11:31:32.054687500,-64.0,13.0,5.0,80.31109375,-4.83,13.338854625,30.03
2021-06-29 11:31:32.062500000,-64.0,13.0,5.0,80.31125,-5.42,13.339295,30.03
2021-06-29 11:31:32.070312500,-64.0,13.0,5.25,80.31140625,-6.275,13.339735375,30.03
2021-06-29 11:31:32.078125000,-64.0,13.0,5.5,80.31156250000001,-7.13,13.34017575,30.03
2021-06-29 11:31:32.085937500,-64.0,13.0,5.75,80.31171875,-8.225,13.340616125,30.03
2021-06-29 11:31:32.093750000,-64.0,13.0,6.0,80.311875,-9.32,13.3410565,30.03
2021-06-29 11:31:32.101562500,-64.0,13.0,5.75,80.31203125,-10.54,13.341496875,30.03
2021-06-29 11:31:32.109375000,-64.0,13.0,5.5,80.31218750000001,-11.76,13.34193725,30.03
2021-06-29 11:31:32.117187500,-64.0,13.0,5.25,80.31234375,-12.965,13.342377625000001,30.03
2021-06-29 11:31:32.125000000,-64.0,13.0,5.0,80.3125,-14.17,13.342818000000001,30.03
2021-06-29 11:31:32.132812500,-64.0,13.0,5.0,80.31265625,-15.245000000000001,13.343258375,30.03
2021-06-29 11:31:32.140625000,-64.0,13.0,5.0,80.3128125,-16.32,13.34369875,30.03
2021-06-29 11:31:32.148437500,-64.0,13.0,5.0,80.31296875,-17.195,13.344139125,30.03
2021-06-29 11:31:32.156250000,-64.0,13.0,5.0,80.313125,-18.07,13.3445795,30.03
2021-06-29 11:31:32.164062500,-64.0,13.0,5.0,80.31328125,-18.685000000000002,13.345019875,30.03
2021-06-29 11:31:32.171875000,-64.0,13.0,5.0,80.3134375,-19.3,13.34546025,30.03
2021-06-29 11:31:32.179687500,-64.0,13.0,5.0,80.31359375,-19.57,13.345900625,30.03
2021-06-29 11:31:32.187500000,-64.0,13.0,5.0,80.31375,-19.84,13.346341,30.03
2021-06-29 11:31:32.195312500,-64.0,13.0,5.0,80.31390625,-19.655,13.346781375,30.03
2021-06-29 11:31:32.203125000,-64.0,13.0,5.0,80.3140625,-19.47,13.347221750000001,30.03
2021-06-29 11:31:32.210937500,-64.0,13.0,5.0,80.31421875,-18.740000000000002,13.347662125,30.03
2021-06-29 11:31:32.218750000,-64.0,13.0,5.0,80.314375,-18.01,13.3481025,30.03
2021-06-29 11:31:32.226562500,-64.0,13.0,5.25,80.31453125,-16.740000000000002,13.348542875,30.03
2021-06-29 11:31:32.234375000,-64.0,13.0,5.5,80.3146875,-15.47,13.34898325,30.03
2021-06-29 11:31:32.242187500,-64.0,13.0,5.75,80.31484375,-13.765,13.349423625,30.03
2021-06-29 11:31:32.250000000,-64.0,13.0,6.0,80.315,-12.06,13.349864,30.03
2021-06-29 11:31:32.257812500,-64.0,13.0,6.0,80.31515625,-10.155000000000001,13.34958378125,30.03
2021-06-29 11:31:32.265625000,-64.0,13.0,6.0,80.3153125,-8.25,13.3493035625,30.03
2021-06-29 11:31:32.273437500,-64.0,13.0,6.0,80.31546875000001,-6.395,13.34902334375,30.03
2021-06-29 11:31:32.281250000,-64.0,13.0,6.0,80.315625,-4.54,13.348743125,30.03
2021-06-29 11:31:32.289062500,-64.0,13.0,5.75,80.31578125,-2.96,13.34846290625,30.03
2021-06-29 11:31:32.296875000,-64.0,13.0,5.5,80.3159375,-1.38,13.3481826875,30.03
2021-06-29 11:31:32.304687500,-64.0,13.0,5.25,80.31609375000001,-0.17499999999999982,13.34790246875,30.03
2021-06-29 11:31:32.312500000,-64.0,13.0,5.0,80.31625,1.03,13.34762225,30.03
2021-06-29 11:31:32.320312500,-64.0,13.0,5.0,80.31640625,1.8599999999999999,13.34734203125,30.03
2021-06-29 11:31:32.328125000,-64.0,13.0,5.0,80.3165625,2.69,13.3470618125,30.03
2021-06-29 11:31:32.335937500,-64.0,13.0,5.0,80.31671875,3.2249999999999996,13.34678159375,30.03
2021-06-29 11:31:32.343750000,-64.0,13.0,5.0,80.316875,3.76,13.346501375,30.03
2021-06-29 11:31:32.351562500,-64.0,13.0,5.0,80.31703125,4.125,13.34622115625,30.03
2021-06-29 11:31:32.359375000,-64.0,13.0,5.0,80.3171875,4.49,13.3459409375,30.03
2021-06-29 11:31:32.367187500,-64.0,13.0,5.0,80.31734375,4.785,13.34566071875,30.03
2021-06-29 11:31:32.375000000,-64.0,13.0,5.0,80.3175,5.08,13.345380500000001,30.03
2021-06-29 11:31:32.382812500,-64.0,13.0,5.0,80.31765625,5.355,13.34510028125,30.03
2021-06-29 11:31:32.390625000,-64.0,13.0,5.0,80.3178125,5.63,13.3448200625,30.03
2021-06-29 11:31:32.398437500,-64.0,13.0,5.0,80.31796875,5.895,13.34453984375,30.03
2021-06-29 11:31:32.406250000,-64.0,13.0,5.0,80.318125,6.16,13.344259625,30.03
2021-06-29 11:31:32.414062500,-64.0,13.0,5.0,80.31828125,6.395,13.34397940625,30.03
2021-06-29 11:31:32.421875000,-64.0,13.0,5.0,80.3184375,6.63,13.3436991875,30.03
2021-06-29 11:31:32.429687500,-64.0,13.0,5.0,80.31859375,6.824999999999999,13.34341896875,30.03
2021-06-29 11:31:32.437500000,-64.0,13.0,5.0,80.31875,7.02,13.34313875,30.03
2021-06-29 11:31:32.445312500,-64.0,13.0,5.0,80.31890625,7.195,13.34285853125,30.03
2021-06-29 11:31:32.453125000,-64.0,13.0,5.0,80.3190625,7.37,13.3425783125,30.03
2021-06-29 11:31:32.460937500,-64.0,13.0,5.0,80.31921875,7.585,13.34229809375,30.03
2021-06-29 11:31:32.468750000,-64.0,13.0,5.0,80.319375,7.8,13.342017875,30.03
2021-06-29 11:31:32.476562500,-64.0,13.0,5.0,80.31953125,8.095,13.34173765625,30.03
2021-06-29 11:31:32.484375000,-64.0,13.0,5.0,80.3196875,8.39,13.3414574375,30.03
2021-06-29 11:31:32.492187500,-64.0,13.0,5.0,80.31984375,8.75,13.34117721875,30.03
2021-06-29 11:31:32.500000000,-64.0,13.0,5.0,80.32,9.11,13.340897,30.03
2021-06-29 11:31:32.507812500,-64.0,13.0,5.25,80.32015625,9.45,13.34001621875,30.03
2021-06-29 11:31:32.515625000,-64.0,13.0,5.5,80.3203125,9.79,13.3391354375,30.03
2021-06-29 11:31:32.523437500,-64.0,13.0,5.75,80.32046875,9.989999999999998,13.33825465625,30.03
2021-06-29 11:31:32.531250000,-64.0,13.0,6.0,80.320625,10.19,13.337373875,30.03
2021-06-29 11:31:32.539062500,-64.0,13.0,6.0,80.32078125,10.14,13.33649309375,30.03
2021-06-29 11:31:32.546875000,-64.0,13.0,6.0,80.3209375,10.09,13.3356123125,30.03
2021-06-29 11:31:32.554687500,-64.0,13.0,6.0,80.32109375,9.780000000000001,13.33473153125,30.03
2021-06-29 11:31:32.562500000,-64.0,13.0,6.0,80.32125,9.47,13.33385075,30.03
2021-06-29 11:31:32.570312500,-64.0,13.0,5.75,80.32140625,8.97,13.33296996875,30.03
2021-06-29 11:31:32.578125000,-64.0,13.0,5.5,80.3215625,8.47,13.3320891875,30.03
2021-06-29 11:31:32.585937500,-64.0,13.0,5.25,80.32171875,7.91,13.33120840625,30.03
2021-06-29 11:31:32.593750000,-64.0,13.0,5.0,80.321875,7.35,13.330327624999999,30.03
2021-06-29 11:31:32.601562500,-64.0,13.0,5.0,80.32203125,6.865,13.32944684375,30.03
2021-06-29 11:31:32.609375000,-64.0,13.0,5.0,80.3221875,6.38,13.3285660625,30.03
2021-06-29 11:31:32.617187500,-64.0,13.0,5.0,80.32234375,6.035,13.32768528125,30.03
2021-06-29 11:31:32.625000000,-64.0,13.0,5.0,80.3225,5.69,13.3268045,30.03
2021-06-29 11:31:32.632812500,-64.0,13.0,5.0,80.32265625,5.445,13.32592371875,30.03
2021-06-29 11:31:32.640625000,-64.0,13.0,5.0,80.3228125,5.2,13.3250429375,30.03
2021-06-29 11:31:32.648437500,-64.0,13.0,5.0,80.32296875,4.98,13.324162156249999,30.03
2021-06-29 11:31:32.656250000,-64.0,13.0,5.0,80.323125,4.76,13.323281375,30.03
2021-06-29 11:31:32.664062500,-64.0,13.0,5.0,80.32328125,4.47,13.32240059375,30.03
2021-06-29 11:31:32.671875000,-64.0,13.0,5.0,80.3234375,4.18,13.3215198125,30.03
2021-06-29 11:31:32.679687500,-64.0,13.0,5.0,80.32359375,3.7649999999999997,13.32063903125,30.03
2021-06-29 11:31:32.687500000,-64.0,13.0,5.0,80.32375,3.35,13.31975825,30.03
2021-06-29 11:31:32.695312500,-63.75,13.0,5.0,80.32390625,2.8,13.31887746875,30.03
2021-06-29 11:31:32.703125000,-63.5,13.0,5.0,80.3240625,2.25,13.317996687499999,30.03
2021-06-29 11:31:32.710937500,-63.25,13.0,5.0,80.32421875,1.605,13.317115906249999,30.03
2021-06-29 11:31:32.718750000,-63.0,13.0,5.0,80.324375,0.96,13.316235124999999,30.03
2021-06-29 11:31:32.726562500,-63.25,13.0,5.25,80.32453124999999,0.2849999999999999,13.31535434375,30.03
2021-06-29 11:31:32.734375000,-63.5,13.0,5.5,80.3246875,-0.39,13.3144735625,30.03
2021-06-29 11:31:32.742187500,-63.75,13.0,5.75,80.32484375,-1.04,13.31359278125,30.03
2021-06-29 11:31:32.750000000,-64.0,13.0,6.0,80.325,-1.69,13.312712,30.03
2021-06-29 11:31:32.757812500,-64.0,13.0,6.0,80.32515625,-2.26,13.312271625,30.03
2021-06-29 11:31:32.765625000,-64.0,13.0,6.0,80.3253125,-2.83,13.31183125,30.03
2021-06-29 11:31:32.773437500,-64.0,13.0,6.0,80.32546875,-3.325,13.311390874999999,30.03
2021-06-29 11:31:32.781250000,-64.0,13.0,6.0,80.325625,-3.82,13.310950499999999,30.03
2021-06-29 11:31:32.789062500,-64.0,13.0,5.75,80.32578125,-4.29,13.310510124999999,30.03
2021-06-29 11:31:32.796875000,-64.0,13.0,5.5,80.3259375,-4.76,13.31006975,30.03
2021-06-29 11:31:32.804687500,-64.0,13.0,5.25,80.32609375,-5.265,13.309629375,30.03
2021-06-29 11:31:32.812500000,-64.0,13.0,5.0,80.32625,-5.77,13.309189,30.03
2021-06-29 11:31:32.820312500,-63.75,13.0,5.0,80.32640625,-6.395,13.308748625,30.03
2021-06-29 11:31:32.828125000,-63.5,13.0,5.0,80.3265625,-7.02,13.30830825,30.03
2021-06-29 11:31:32.835937500,-63.25,13.0,5.0,80.32671875,-7.795,13.307867875,30.03
2021-06-29 11:31:32.843750000,-63.0,13.0,5.0,80.326875,-8.57,13.3074275,30.03
2021-06-29 11:31:32.851562500,-63.25,13.25,5.25,80.32703125,-9.469999999999999,13.306987125,30.03
2021-06-29 11:31:32.859375000,-63.5,13.5,5.5,80.3271875,-10.37,13.306546749999999,30.03
2021-06-29 11:31:32.867187500,-63.75,13.75,5.75,80.32734375,-11.325,13.306106374999999,30.03
2021-06-29 11:31:32.875000000,-64.0,14.0,6.0,80.3275,-12.28,13.305665999999999,30.03
2021-06-29 11:31:32.882812500,-64.0,14.0,6.0,80.32765625,-13.18,13.305225625,30.03
2021-06-29 11:31:32.890625000,-64.0,14.0,6.0,80.3278125,-14.08,13.30478525,30.03
2021-06-29 11:31:32.898437500,-64.0,14.0,6.0,80.32796875,-14.82,13.304344875,30.03
2021-06-29 11:31:32.906250000,-64.0,14.0,6.0,80.328125,-15.56,13.3039045,30.03
2021-06-29 11:31:32.914062500,-64.0,13.75,5.75,80.32828125,-16.04,13.303464125,30.03
2021-06-29 11:31:32.921875000,-64.0,13.5,5.5,80.32843749999999,-16.52,13.30302375,30.03
2021-06-29 11:31:32.929687500,-64.0,13.25,5.25,80.32859375,-16.685000000000002,13.302583375,30.03
2021-06-29 11:31:32.937500000,-64.0,13.0,5.0,80.32875,-16.85,13.302143,30.03
2021-06-29 11:31:32.945312500,-64.0,13.0,5.0,80.32890625,-16.635,13.301702624999999,30.03
2021-06-29 11:31:32.953125000,-64.0,13.0,5.0,80.32906249999999,-16.42,13.301262249999999,30.03
2021-06-29 11:31:32.960937500,-64.0,13.0,5.0,80.32921875,-15.81,13.300821875,30.03
2021-06-29 11:31:32.968750000,-64.0,13.0,5.0,80.329375,-15.2,13.3003815,30.03
2021-06-29 11:31:32.976562500,-64.0,13.0,5.25,80.32953125,-14.21,13.299941125,30.03
2021-06-29 11:31:32.984375000,-64.0,13.0,5.5,80.32968749999999,-13.22,13.29950075,30.03
2021-06-29 11:31:32.992187500,-64.0,13.0,5.75,80.32984375,-11.940000000000001,13.299060375,30.03
2021-06-29 11:31:33.000000000,-64.0,13.0,6.0,80.33,-10.66,13.29862,30.03
2021-06-29 11:31:33.007812500,-64.0,13.0,5.75,80.33015625,-9.26,13.2982596875,30.028750000000002
2021-06-29 11:31:33.015625000,-64.0,13.0,5.5,80.3303125,-7.86,13.297899375,30.0275
2021-06-29 11:31:33.023437500,-64.0,13.0,5.25,80.33046875,-6.54,13.2975390625,30.02625
2021-06-29 11:31:33.031250000,-64.0,13.0,5.0,80.330625,-5.22,13.29717875,30.025000000000002
2021-06-29 11:31:33.039062500,-64.0,13.0,5.0,80.33078125,-4.15,13.296818437499999,30.02375
2021-06-29 11:31:33.046875000,-64.0,13.0,5.0,80.3309375,-3.08,13.296458125,30.0225
2021-06-29 11:31:33.054687500,-64.0,13.0,5.0,80.33109375,-2.33,13.2960978125,30.021250000000002
2021-06-29 11:31:33.062500000,-64.0,13.0,5.0,80.33125,-1.58,13.2957375,30.02
2021-06-29 11:31:33.070312500,-64.0,13.0,5.0,80.33140625,-1.105,13.2953771875,30.01875
2021-06-29 11:31:33.078125000,-64.0,13.0,5.0,80.3315625,-0.63,13.295016875,30.017500000000002
2021-06-29 11:31:33.085937500,-64.0,13.0,5.0,80.33171875,-0.295,13.2946565625,30.01625
2021-06-29 11:31:33.093750000,-64.0,13.0,5.0,80.331875,0.04,13.294296249999999,30.015
2021-06-29 11:31:33.101562500,-64.0,13.25,5.0,80.33203125,0.37999999999999995,13.293935937499999,30.01375
2021-06-29 11:31:33.109375000,-64.0,13.5,5.0,80.3321875,0.72,13.293575624999999,30.0125
2021-06-29 11:31:33.117187500,-64.0,13.75,5.0,80.33234374999999,1.155,13.2932153125,30.01125
2021-06-29 11:31:33.125000000,-64.0,14.0,5.0,80.3325,1.59,13.292855,30.009999999999998
2021-06-29 11:31:33.132812500,-64.0,13.75,5.0,80.33265625,2.1350000000000002,13.2924946875,30.00875
2021-06-29 11:31:33.140625000,-64.0,13.5,5.0,80.3328125,2.68,13.292134375,30.0075
2021-06-29 11:31:33.148437500,-64.0,13.25,5.0,80.33296874999999,3.27,13.2917740625,30.006249999999998
2021-06-29 11:31:33.156250000,-64.0,13.0,5.0,80.333125,3.86,13.29141375,30.005
2021-06-29 11:31:33.164062500,-64.0,13.0,5.0,80.33328125,4.4,13.291053437499999,30.00375
2021-06-29 11:31:33.171875000,-64.0,13.0,5.0,80.3334375,4.94,13.290693124999999,30.002499999999998
2021-06-29 11:31:33.179687500,-64.0,13.0,5.0,80.33359374999999,5.365,13.290332812499999,30.00125
2021-06-29 11:31:33.187500000,-64.0,13.0,5.0,80.33375,5.79,13.2899725,30.0
2021-06-29 11:31:33.195312500,-64.0,13.25,5.0,80.33390625,6.075,13.2896121875,29.998749999999998
2021-06-29 11:31:33.203125000,-64.0,13.5,5.0,80.3340625,6.36,13.289251875,29.9975
2021-06-29 11:31:33.210937500,-64.0,13.75,5.0,80.33421874999999,6.515000000000001,13.2888915625,29.99625
2021-06-29 11:31:33.218750000,-64.0,14.0,5.0,80.334375,6.67,13.288531249999998,29.994999999999997
2021-06-29 11:31:33.226562500,-64.0,13.75,5.0,80.33453125,6.725,13.288170937499999,29.99375
2021-06-29 11:31:33.234375000,-64.0,13.5,5.0,80.3346875,6.78,13.287810624999999,29.9925
2021-06-29 11:31:33.242187500,-64.0,13.25,5.0,80.33484374999999,6.745,13.287450312499999,29.991249999999997
2021-06-29 11:31:33.250000000,-64.0,13.0,5.0,80.335,6.71,13.28709,29.99
2021-06-29 11:31:33.257812500,-64.0,13.0,5.0,80.33515625,6.6,13.286649624999999,29.99
2021-06-29 11:31:33.265625000,-64.0,13.0,5.0,80.3353125,6.49,13.286209249999999,29.99
2021-06-29 11:31:33.273437500,-64.0,13.0,5.0,80.33546875,6.3100000000000005,13.285768874999999,29.99
2021-06-29 11:31:33.281250000,-64.0,13.0,5.0,80.335625,6.13,13.285328499999999,29.99
2021-06-29 11:31:33.289062500,-64.0,13.0,5.0,80.33578125,5.895,13.284888124999998,29.99
2021-06-29 11:31:33.296875000,-64.0,13.0,5.0,80.3359375,5.66,13.28444775,29.99
2021-06-29 11:31:33.304687500,-64.0,13.0,5.0,80.33609375,5.43,13.284007375,29.99
2021-06-29 11:31:33.312500000,-64.0,13.0,5.0,80.33624999999999,5.2,13.283567,29.99
2021-06-29 11:31:33.320312500,-64.0,13.0,5.0,80.33640625,5.02,13.283126625,29.99
2021-06-29 11:31:33.328125000,-64.0,13.0,5.0,80.3365625,4.84,13.28268625,29.99
2021-06-29 11:31:33.335937500,-64.0,13.0,5.0,80.33671875,4.755,13.282245875,29.99
2021-06-29 11:31:33.343750000,-64.0,13.0,5.0,80.33687499999999,4.67,13.281805499999999,29.99
2021-06-29 11:31:33.351562500,-64.0,13.0,5.0,80.33703125,4.665,13.281365124999999,29.99
2021-06-29 11:31:33.359375000,-64.0,13.0,5.0,80.3371875,4.66,13.280924749999999,29.99
2021-06-29 11:31:33.367187500,-64.0,13.0,5.0,80.33734375,4.6850000000000005,13.280484374999999,29.99
2021-06-29 11:31:33.375000000,-64.0,13.0,5.0,80.33749999999999,4.71,13.280044,29.99
2021-06-29 11:31:33.382812500,-64.0,13.25,5.0,80.33765625,4.65,13.279603625,29.99
2021-06-29 11:31:33.390625000,-64.0,13.5,5.0,80.3378125,4.59,13.27916325,29.99
2021-06-29 11:31:33.398437500,-64.0,13.75,5.0,80.33796875,4.359999999999999,13.278722875,29.99
2021-06-29 11:31:33.406250000,-64.0,14.0,5.0,80.33812499999999,4.13,13.2782825,29.99
2021-06-29 11:31:33.414062500,-63.75,13.75,5.0,80.33828125,3.685,13.277842125,29.99
2021-06-29 11:31:33.421875000,-63.5,13.5,5.0,80.3384375,3.24,13.27740175,29.99
2021-06-29 11:31:33.429687500,-63.25,13.25,5.0,80.33859375,2.625,13.276961374999999,29.99
2021-06-29 11:31:33.437500000,-63.0,13.0,5.0,80.33874999999999,2.01,13.276520999999999,29.99
2021-06-29 11:31:33.445312500,-63.25,13.0,5.0,80.33890625,1.3399999999999999,13.276080624999999,29.99
2021-06-29 11:31:33.453125000,-63.5,13.0,5.0,80.3390625,0.67,13.275640249999999,29.99
2021-06-29 11:31:33.460937500,-63.75,13.0,5.0,80.33921875,0.07500000000000007,13.275199875,29.99
2021-06-29 11:31:33.468750000,-64.0,13.0,5.0,80.33937499999999,-0.52,13.2747595,29.99
2021-06-29 11:31:33.476562500,-64.0,13.0,5.0,80.33953125,-0.955,13.274319125,29.99
2021-06-29 11:31:33.484375000,-64.0,13.0,5.0,80.3396875,-1.39,13.27387875,29.99
2021-06-29 11:31:33.492187500,-64.0,13.0,5.0,80.33984375,-1.6749999999999998,13.273438375,29.99
2021-06-29 11:31:33.500000000,-64.0,13.0,5.0,80.34,-1.96,13.272998,29.99
2021-06-29 11:31:33.507812500,-64.0,13.0,5.25,80.34015624999999,-2.205,13.27187703125,29.99
2021-06-29 11:31:33.515625000,-64.0,13.0,5.5,80.3403125,-2.45,13.270756062499999,29.99
2021-06-29 11:31:33.523437500,-64.0,13.0,5.75,80.34046875,-2.79,13.269635093749999,29.99
2021-06-29 11:31:33.531250000,-64.0,13.0,6.0,80.340625,-3.13,13.268514125,29.99
2021-06-29 11:31:33.539062500,-64.0,13.0,5.75,80.34078124999999,-3.675,13.26739315625,29.99
2021-06-29 11:31:33.546875000,-64.0,13.0,5.5,80.3409375,-4.22,13.2662721875,29.99
2021-06-29 11:31:33.554687500,-64.0,13.0,5.25,80.34109375,-4.965,13.265151218749999,29.99
2021-06-29 11:31:33.562500000,-64.0,13.0,5.0,80.34125,-5.71,13.26403025,29.99
2021-06-29 11:31:33.570312500,-64.0,13.0,5.0,80.34140624999999,-6.555,13.26290928125,29.99
2021-06-29 11:31:33.578125000,-64.0,13.0,5.0,80.3415625,-7.4,13.261788312499998,29.99
2021-06-29 11:31:33.585937500,-64.0,13.0,5.0,80.34171875,-8.195,13.260667343749999,29.99
2021-06-29 11:31:33.593750000,-64.0,13.0,5.0,80.341875,-8.99,13.259546375,29.99
2021-06-29 11:31:33.601562500,-64.0,13.0,5.25,80.34203124999999,-9.635,13.25842540625,29.99
2021-06-29 11:31:33.609375000,-64.0,13.0,5.5,80.3421875,-10.28,13.2573044375,29.99
2021-06-29 11:31:33.617187500,-64.0,13.0,5.75,80.34234375,-10.765,13.256183468749999,29.99
2021-06-29 11:31:33.625000000,-64.0,13.0,6.0,80.3425,-11.25,13.2550625,29.99
2021-06-29 11:31:33.632812500,-64.0,13.0,5.75,80.34265624999999,-11.64,13.25394153125,29.99
2021-06-29 11:31:33.640625000,-64.0,13.0,5.5,80.3428125,-12.03,13.252820562499998,29.99
2021-06-29 11:31:33.648437500,-64.0,13.0,5.25,80.34296875,-12.405,13.251699593749999,29.99
2021-06-29 11:31:33.656250000,-64.0,13.0,5.0,80.343125,-12.78,13.250578625,29.99
2021-06-29 11:31:33.664062500,-64.0,13.0,5.0,80.34328124999999,-13.18,13.24945765625,29.99
2021-06-29 11:31:33.671875000,-64.0,13.0,5.0,80.3434375,-13.58,13.2483366875,29.99
2021-06-29 11:31:33.679687500,-64.0,13.0,5.0,80.34359375,-13.93,13.247215718749999,29.99
2021-06-29 11:31:33.687500000,-64.0,13.0,5.0,80.34375,-14.28,13.24609475,29.99
2021-06-29 11:31:33.695312500,-64.0,13.0,5.0,80.34390624999999,-14.434999999999999,13.24497378125,29.99
2021-06-29 11:31:33.703125000,-64.0,13.0,5.0,80.34406249999999,-14.59,13.243852812499998,29.99
2021-06-29 11:31:33.710937500,-64.0,13.0,5.0,80.34421875,-14.405000000000001,13.242731843749999,29.99
2021-06-29 11:31:33.718750000,-64.0,13.0,5.0,80.344375,-14.22,13.241610875,29.99
2021-06-29 11:31:33.726562500,-64.0,13.0,5.0,80.34453124999999,-13.600000000000001,13.24048990625,29.99
2021-06-29 11:31:33.734375000,-64.0,13.0,5.0,80.34468749999999,-12.98,13.2393689375,29.99
2021-06-29 11:31:33.742187500,-64.0,13.0,5.0,80.34484375,-11.965,13.238247968749999,29.99
2021-06-29 11:31:33.750000000,-64.0,13.0,5.0,80.345,-10.95,13.237127,29.99
2021-06-29 11:31:33.757812500,-64.0,13.0,5.0,80.34515625,-9.705,13.23716703125,29.99
2021-06-29 11:31:33.765625000,-64.0,13.0,5.0,80.34531249999999,-8.46,13.2372070625,29.99
2021-06-29 11:31:33.773437500,-64.0,13.0,5.0,80.34546875,-7.195,13.23724709375,29.99
2021-06-29 11:31:33.781250000,-64.0,13.0,5.0,80.345625,-5.93,13.237287125,29.99
2021-06-29 11:31:33.789062500,-64.0,13.0,5.0,80.34578125,-4.835,13.23732715625,29.99
2021-06-29 11:31:33.796875000,-64.0,13.0,5.0,80.34593749999999,-3.74,13.237367187499999,29.99
2021-06-29 11:31:33.804687500,-64.0,13.0,5.0,80.34609375,-2.91,13.237407218749999,29.99
2021-06-29 11:31:33.812500000,-64.0,13.0,5.0,80.34625,-2.08,13.237447249999999,29.99
2021-06-29 11:31:33.820312500,-64.0,13.0,5.0,80.34640625,-1.485,13.237487281249999,29.99
2021-06-29 11:31:33.828125000,-64.0,13.0,5.0,80.34656249999999,-0.89,13.2375273125,29.99
2021-06-29 11:31:33.835937500,-64.0,13.0,5.0,80.34671875,-0.43,13.23756734375,29.99
2021-06-29 11:31:33.843750000,-64.0,13.0,5.0,80.346875,0.03,13.237607375,29.99
2021-06-29 11:31:33.851562500,-64.0,13.0,5.0,80.34703125,0.485,13.23764740625,29.99
2021-06-29 11:31:33.859375000,-64.0,13.0,5.0,80.34718749999999,0.94,13.2376874375,29.99
2021-06-29 11:31:33.867187500,-64.0,13.0,5.0,80.34734375,1.44,13.23772746875,29.99
2021-06-29 11:31:33.875000000,-64.0,13.0,5.0,80.3475,1.94,13.2377675,29.99
2021-06-29 11:31:33.882812500,-64.0,13.0,5.0,80.34765625,2.465,13.237807531249999,29.99
2021-06-29 11:31:33.890625000,-64.0,13.0,5.0,80.34781249999999,2.99,13.237847562499999,29.99
2021-06-29 11:31:33.898437500,-64.0,13.0,5.0,80.34796874999999,3.435,13.23788759375,29.99
2021-06-29 11:31:33.906250000,-64.0,13.0,5.0,80.348125,3.88,13.237927625,29.99
2021-06-29 11:31:33.914062500,-64.0,13.0,5.25,80.34828125,4.16,13.23796765625,29.99
2021-06-29 11:31:33.921875000,-64.0,13.0,5.5,80.34843749999999,4.44,13.2380076875,29.99
2021-06-29 11:31:33.929687500,-64.0,13.0,5.75,80.34859374999999,4.51,13.23804771875,29.99
2021-06-29 11:31:33.937500000,-64.0,13.0,6.0,80.34875,4.58,13.23808775,29.99
2021-06-29 11:31:33.945312500,-64.0,13.0,5.75,80.34890625,4.51,13.23812778125,29.99
2021-06-29 11:31:33.953125000,-64.0,13.0,5.5,80.34906249999999,4.44,13.2381678125,29.99
2021-06-29 11:31:33.960937500,-64.0,13.0,5.25,80.34921874999999,4.35,13.238207843749999,29.99
2021-06-29 11:31:33.968750000,-64.0,13.0,5.0,80.349375,4.26,13.238247874999999,29.99
2021-06-29 11:31:33.976562500,-64.0,13.0,5.0,80.34953125,4.255,13.23828790625,29.99
2021-06-29 11:31:33.984375000,-64.0,13.0,5.0,80.34968749999999,4.25,13.2383279375,29.99
2021-06-29 11:31:33.992187500,-64.0,13.0,5.0,80.34984374999999,4.390000000000001,13.23836796875,29.99
2021-06-29 11:31:34.000000000,-64.0,13.0,5.0,80.35,4.53,13.238408,29.99
2021-06-29 11:31:34.007812500,-64.0,13.0,5.0,80.35015625,4.77,13.23752725,29.990624999999998
2021-06-29 11:31:34.015625000,-64.0,13.0,5.0,80.3503125,5.01,13.236646499999999,29.991249999999997
2021-06-29 11:31:34.023437500,-64.0,13.0,5.0,80.35046874999999,5.255,13.23576575,29.991875
2021-06-29 11:31:34.031250000,-64.0,13.0,5.0,80.350625,5.5,13.234885,29.9925
2021-06-29 11:31:34.039062500,-64.0,13.0,5.0,80.35078125,5.654999999999999,13.23400425,29.993125
2021-06-29 11:31:34.046875000,-64.0,13.0,5.0,80.3509375,5.81,13.2331235,29.99375
2021-06-29 11:31:34.054687500,-64.0,13.0,5.0,80.35109374999999,5.805,13.23224275,29.994374999999998
2021-06-29 11:31:34.062500000,-64.0,13.0,5.0,80.35125,5.8,13.231362,29.994999999999997
2021-06-29 11:31:34.070312500,-64.0,13.0,5.0,80.35140625,5.635,13.23048125,29.995625
2021-06-29 11:31:34.078125000,-64.0,13.0,5.0,80.3515625,5.47,13.2296005,29.99625
2021-06-29 11:31:34.085937500,-64.0,13.0,5.0,80.35171874999999,5.195,13.22871975,29.996875
2021-06-29 11:31:34.093750000,-64.0,13.0,5.0,80.35187499999999,4.92,13.227839,29.9975
2021-06-29 11:31:34.101562500,-64.0,13.0,5.25,80.35203125,4.625,13.22695825,29.998124999999998
2021-06-29 11:31:34.109375000,-64.0,13.0,5.5,80.3521875,4.33,13.2260775,29.99875
2021-06-29 11:31:34.117187500,-64.0,13.0,5.75,80.35234374999999,4.09,13.22519675,29.999375
2021-06-29 11:31:34.125000000,-64.0,13.0,6.0,80.35249999999999,3.85,13.224316,30.0
2021-06-29 11:31:34.132812500,-64.0,13.0,5.75,80.35265625,3.7199999999999998,13.22343525,30.000625
2021-06-29 11:31:34.140625000,-64.0,13.0,5.5,80.3528125,3.59,13.2225545,30.00125
2021-06-29 11:31:34.148437500,-64.0,13.0,5.25,80.35296875,3.5599999999999996,13.22167375,30.001875000000002
2021-06-29 11:31:34.156250000,-64.0,13.0,5.0,80.35312499999999,3.53,13.220793,30.0025
2021-06-29 11:31:34.164062500,-64.0,13.0,5.0,80.35328125,3.5549999999999997,13.21991225,30.003125
2021-06-29 11:31:34.171875000,-64.0,13.0,5.0,80.3534375,3.58,13.2190315,30.00375
2021-06-29 11:31:34.179687500,-64.0,13.0,5.0,80.35359375,3.56,13.21815075,30.004375
2021-06-29 11:31:34.187500000,-64.0,13.0,5.0,80.35374999999999,3.54,13.21727,30.005000000000003
2021-06-29 11:31:34.195312500,-64.0,13.0,5.0,80.35390625,3.415,13.21638925,30.005625000000002
2021-06-29 11:31:34.203125000,-64.0,13.0,5.0,80.3540625,3.29,13.2155085,30.00625
2021-06-29 11:31:34.210937500,-64.0,13.0,5.0,80.35421875,3.02,13.21462775,30.006875
2021-06-29 11:31:34.218750000,-64.0,13.0,5.0,80.35437499999999,2.75,13.213747,30.0075
2021-06-29 11:31:34.226562500,-64.0,13.0,5.25,80.35453125,2.375,13.21286625,30.008125
2021-06-29 11:31:34.234375000,-64.0,13.0,5.5,80.3546875,2.0,13.2119855,30.008750000000003
2021-06-29 11:31:34.242187500,-64.0,13.0,5.75,80.35484375,1.585,13.21110475,30.009375000000002
2021-06-29 11:31:34.250000000,-64.0,13.0,6.0,80.35499999999999,1.17,13.210224,30.01
2021-06-29 11:31:34.257812500,-64.0,13.0,6.0,80.35515625,0.7749999999999999,13.2101439375,30.01
2021-06-29 11:31:34.265625000,-64.0,13.0,6.0,80.3553125,0.38,13.210063875,30.01
2021-06-29 11:31:34.273437500,-64.0,13.0,6.0,80.35546875,0.0050000000000000044,13.2099838125,30.01
2021-06-29 11:31:34.281250000,-64.0,13.0,6.0,80.355625,-0.37,13.20990375,30.01
2021-06-29 11:31:34.289062500,-64.0,13.0,5.75,80.35578124999999,-0.77,13.2098236875,30.01
2021-06-29 11:31:34.296875000,-64.0,13.0,5.5,80.3559375,-1.17,13.209743625,30.01
2021-06-29 11:31:34.304687500,-64.0,13.0,5.25,80.35609375,-1.645,13.2096635625,30.01
2021-06-29 11:31:34.312500000,-64.0,13.0,5.0,80.35625,-2.12,13.2095835,30.01
2021-06-29 11:31:34.320312500,-64.0,13.0,5.0,80.35640624999999,-2.71,13.2095034375,30.01
2021-06-29 11:31:34.328125000,-64.0,13.0,5.0,80.3565625,-3.3,13.209423375,30.01
2021-06-29 11:31:34.335937500,-64.0,13.0,5.0,80.35671875,-3.9699999999999998,13.2093433125,30.01
2021-06-29 11:31:34.343750000,-64.0,13.0,5.0,80.356875,-4.64,13.20926325,30.01
2021-06-29 11:31:34.351562500,-64.0,13.0,5.0,80.35703124999999,-5.305,13.209183187499999,30.01
2021-06-29 11:31:34.359375000,-64.0,13.0,5.0,80.3571875,-5.97,13.209103125,30.01
2021-06-29 11:31:34.367187500,-64.0,13.0,5.0,80.35734375,-6.5600000000000005,13.2090230625,30.01
2021-06-29 11:31:34.375000000,-64.0,13.0,5.0,80.3575,-7.15,13.208943,30.01
2021-06-29 11:31:34.382812500,-64.0,13.0,5.0,80.35765625,-7.635,13.2088629375,30.01
2021-06-29 11:31:34.390625000,-64.0,13.0,5.0,80.3578125,-8.12,13.208782874999999,30.01
2021-06-29 11:31:34.398437500,-64.0,13.0,5.0,80.35796875,-8.504999999999999,13.2087028125,30.01
2021-06-29 11:31:34.406250000,-64.0,13.0,5.0,80.358125,-8.89,13.20862275,30.01
2021-06-29 11:31:34.414062500,-64.0,13.0,5.0,80.35828125,-9.23,13.2085426875,30.01
2021-06-29 11:31:34.421875000,-64.0,13.0,5.0,80.3584375,-9.57,13.208462625,30.01
2021-06-29 11:31:34.429687500,-64.0,13.0,5.0,80.35859375,-9.875,13.208382562499999,30.01
2021-06-29 11:31:34.437500000,-64.0,13.0,5.0,80.35875,-10.18,13.208302499999999,30.01
2021-06-29 11:31:34.445312500,-64.0,13.0,5.0,80.35890625,-10.465,13.2082224375,30.01
2021-06-29 11:31:34.453125000,-64.0,13.0,5.0,80.3590625,-10.75,13.208142375,30.01
2021-06-29 11:31:34.460937500,-64.0,13.0,5.0,80.35921875,-10.975,13.2080623125,30.01
2021-06-29 11:31:34.468750000,-64.0,13.0,5.0,80.359375,-11.2,13.207982249999999,30.01
2021-06-29 11:31:34.476562500,-64.0,13.0,5.0,80.35953125,-11.295,13.207902187499998,30.01
2021-06-29 11:31:34.484375000,-64.0,13.0,5.0,80.35968749999999,-11.39,13.207822125,30.01
2021-06-29 11:31:34.492187500,-64.0,13.0,5.0,80.35984375,-11.280000000000001,13.2077420625,30.01
2021-06-29 11:31:34.500000000,-64.0,13.0,5.0,80.36,-11.17,13.207662,30.01
2021-06-29 11:31:34.507812500,-64.0,13.0,5.0,80.36015625,-10.8,13.2068613125,30.01
2021-06-29 11:31:34.515625000,-64.0,13.0,5.0,80.3603125,-10.43,13.206060625,30.01
2021-06-29 11:31:34.523437500,-64.0,13.0,5.0,80.36046875,-9.77,13.2052599375,30.01
2021-06-29 11:31:34.531250000,-64.0,13.0,5.0,80.360625,-9.11,13.20445925,30.01
2021-06-29 11:31:34.539062500,-64.0,13.0,5.0,80.36078125,-8.19,13.2036585625,30.01
2021-06-29 11:31:34.546875000,-64.0,13.0,5.0,80.3609375,-7.27,13.202857875,30.01
2021-06-29 11:31:34.554687500,-64.0,13.0,5.0,80.36109375,-6.18,13.2020571875,30.01
2021-06-29 11:31:34.562500000,-64.0,13.0,5.0,80.36125,-5.09,13.2012565,30.01
2021-06-29 11:31:34.570312500,-64.0,13.0,5.0,80.36140625,-3.98,13.2004558125,30.01
2021-06-29 11:31:34.578125000,-64.0,13.0,5.0,80.3615625,-2.87,13.199655125,30.01
2021-06-29 11:31:34.585937500,-64.0,13.0,5.0,80.36171875,-1.865,13.1988544375,30.01
2021-06-29 11:31:34.593750000,-64.0,13.0,5.0,80.361875,-0.86,13.19805375,30.01
2021-06-29 11:31:34.601562500,-64.0,13.0,5.0,80.36203125,-0.06500000000000006,13.1972530625,30.01
2021-06-29 11:31:34.609375000,-64.0,13.0,5.0,80.3621875,0.73,13.196452375,30.01
2021-06-29 11:31:34.617187500,-64.0,13.0,5.0,80.36234375,1.31,13.1956516875,30.01
2021-06-29 11:31:34.625000000,-64.0,13.0,5.0,80.3625,1.89,13.194851,30.01
2021-06-29 11:31:34.632812500,-63.75,13.0,5.0,80.36265625,2.295,13.1940503125,30.01
2021-06-29 11:31:34.640625000,-63.5,13.0,5.0,80.3628125,2.7,13.193249625,30.01
2021-06-29 11:31:34.648437500,-63.25,13.0,5.0,80.36296875000001,3.005,13.1924489375,30.01
2021-06-29 11:31:34.656250000,-63.0,13.0,5.0,80.363125,3.31,13.19164825,30.01
2021-06-29 11:31:34.664062500,-63.25,13.0,5.0,80.36328125,3.5549999999999997,13.1908475625,30.01
2021-06-29 11:31:34.671875000,-63.5,13.0,5.0,80.3634375,3.8,13.190046875,30.01
2021-06-29 11:31:34.679687500,-63.75,13.0,5.0,80.36359375,4.01,13.1892461875,30.01
2021-06-29 11:31:34.687500000,-64.0,13.0,5.0,80.36375,4.22,13.1884455,30.01
2021-06-29 11:31:34.695312500,-64.0,13.0,5.0,80.36390625,4.375,13.1876448125,30.01
2021-06-29 11:31:34.703125000,-64.0,13.0,5.0,80.3640625,4.53,13.186844125,30.01
2021-06-29 11:31:34.710937500,-64.0,13.0,5.0,80.36421875,4.625,13.1860434375,30.01
2021-06-29 11:31:34.718750000,-64.0,13.0,5.0,80.364375,4.72,13.18524275,30.01
2021-06-29 11:31:34.726562500,-64.0,13.0,5.0,80.36453125,4.765,13.1844420625,30.01
2021-06-29 11:31:34.734375000,-64.0,13.0,5.0,80.3646875,4.81,13.183641375,30.01
2021-06-29 11:31:34.742187500,-64.0,13.0,5.0,80.36484375,4.82,13.1828406875,30.01
2021-06-29 11:31:34.750000000,-64.0,13.0,5.0,80.36500000000001,4.83,13.18204,30.01
2021-06-29 11:31:34.757812500,-64.0,13.0,5.0,80.36515625,4.84,13.18228021875,30.01
2021-06-29 11:31:34.765625000,-64.0,13.0,5.0,80.3653125,4.85,13.182520437500001,30.01
2021-06-29 11:31:34.773437500,-64.0,13.0,5.0,80.36546875,4.885,13.18276065625,30.01
2021-06-29 11:31:34.781250000,-64.0,13.0,5.0,80.36562500000001,4.92,13.183000875000001,30.01
2021-06-29 11:31:34.789062500,-64.0,13.0,5.25,80.36578125,4.98,13.18324109375,30.01
2021-06-29 11:31:34.796875000,-64.0,13.0,5.5,80.3659375,5.04,13.1834813125,30.01
2021-06-29 11:31:34.804687500,-64.0,13.0,5.75,80.36609375,5.109999999999999,13.18372153125,30.01
2021-06-29 11:31:34.812500000,-64.0,13.0,6.0,80.36625000000001,5.18,13.18396175,30.01
2021-06-29 11:31:34.820312500,-64.0,13.0,6.0,80.36640625,5.21,13.184201968750001,30.01
2021-06-29 11:31:34.828125000,-64.0,13.0,6.0,80.3665625,5.24,13.1844421875,30.01
2021-06-29 11:31:34.835937500,-64.0,13.0,6.0,80.36671875,5.17,13.18468240625,30.01
2021-06-29 11:31:34.843750000,-64.0,13.0,6.0,80.36687500000001,5.1,13.184922625,30.01
2021-06-29 11:31:34.851562500,-64.0,13.0,6.0,80.36703125,4.885,13.18516284375,30.01
2021-06-29 11:31:34.859375000,-64.0,13.0,6.0,80.3671875,4.67,13.1854030625,30.01
2021-06-29 11:31:34.867187500,-64.0,13.0,6.0,80.36734375,4.305,13.18564328125,30.01
2021-06-29 11:31:34.875000000,-64.0,13.0,6.0,80.3675,3.94,13.1858835,30.01
2021-06-29 11:31:34.882812500,-64.0,13.0,5.75,80.36765625000001,3.5149999999999997,13.18612371875,30.01
2021-06-29 11:31:34.890625000,-64.0,13.0,5.5,80.3678125,3.09,13.1863639375,30.01
2021-06-29 11:31:34.898437500,-64.0,13.0,5.25,80.36796875,2.73,13.18660415625,30.01
2021-06-29 11:31:34.906250000,-64.0,13.0,5.0,80.368125,2.37,13.186844375,30.01
2021-06-29 11:31:34.914062500,-64.0,13.0,5.0,80.36828125000001,2.175,13.18708459375,30.01
2021-06-29 11:31:34.921875000,-64.0,13.0,5.0,80.3684375,1.98,13.1873248125,30.01
2021-06-29 11:31:34.929687500,-64.0,13.0,5.0,80.36859375,1.97,13.18756503125,30.01
2021-06-29 11:31:34.937500000,-64.0,13.0,5.0,80.36875,1.96,13.18780525,30.01
2021-06-29 11:31:34.945312500,-64.0,13.0,5.0,80.36890625000001,2.0300000000000002,13.18804546875,30.01
2021-06-29 11:31:34.953125000,-64.0,13.0,5.0,80.3690625,2.1,13.1882856875,30.01
2021-06-29 11:31:34.960937500,-64.0,13.0,5.0,80.36921875,2.075,13.18852590625,30.01
2021-06-29 11:31:34.968750000,-64.0,13.0,5.0,80.369375,2.05,13.188766124999999,30.01
2021-06-29 11:31:34.976562500,-64.0,13.0,5.0,80.36953125000001,1.7999999999999998,13.18900634375,30.01
2021-06-29 11:31:34.984375000,-64.0,13.0,5.0,80.3696875,1.55,13.1892465625,30.01
2021-06-29 11:31:34.992187500,-64.0,13.0,5.0,80.36984375,1.065,13.18948678125,30.01
2021-06-29 11:31:35.000000000,-64.0,13.0,5.0,80.37,0.58,13.189727,30.01
2021-06-29 11:31:35.007812500,-64.0,13.0,5.0,80.369921875,-0.025000000000000022,13.18892628125,30.009375000000002
2021-06-29 11:31:35.015625000,-64.0,13.0,5.0,80.36984375,-0.63,13.1881255625,30.008750000000003
2021-06-29 11:31:35.023437500,-64.0,13.0,5.0,80.369765625,-1.1749999999999998,13.18732484375,30.008125
2021-06-29 11:31:35.031250000,-64.0,13.0,5.0,80.3696875,-1.72,13.186524125,30.0075
2021-06-29 11:31:35.039062500,-64.0,13.0,5.25,80.36960937500001,-2.085,13.18572340625,30.006875
2021-06-29 11:31:35.046875000,-64.0,13.0,5.5,80.36953125000001,-2.45,13.1849226875,30.00625
2021-06-29 11:31:35.054687500,-64.0,13.0,5.75,80.369453125,-2.62,13.18412196875,30.005625000000002
2021-06-29 11:31:35.062500000,-64.0,13.0,6.0,80.369375,-2.79,13.183321249999999,30.005000000000003
2021-06-29 11:31:35.070312500,-64.0,13.0,6.0,80.369296875,-2.885,13.182520531249999,30.004375
2021-06-29 11:31:35.078125000,-64.0,13.0,6.0,80.36921875,-2.98,13.181719812499999,30.00375
2021-06-29 11:31:35.085937500,-64.0,13.0,6.0,80.369140625,-3.12,13.18091909375,30.003125
2021-06-29 11:31:35.093750000,-64.0,13.0,6.0,80.3690625,-3.26,13.180118375,30.0025
2021-06-29 11:31:35.101562500,-63.75,13.0,5.75,80.36898437500001,-3.535,13.17931765625,30.001875000000002
2021-06-29 11:31:35.109375000,-63.5,13.0,5.5,80.36890625000001,-3.81,13.1785169375,30.00125
2021-06-29 11:31:35.117187500,-63.25,13.0,5.25,80.36882812500001,-4.205,13.17771621875,30.000625
2021-06-29 11:31:35.125000000,-63.0,13.0,5.0,80.36875,-4.6,13.1769155,30.0
2021-06-29 11:31:35.132812500,-63.25,13.0,5.0,80.368671875,-5.05,13.17611478125,29.999375
2021-06-29 11:31:35.140625000,-63.5,13.0,5.0,80.36859375,-5.5,13.1753140625,29.99875
2021-06-29 11:31:35.148437500,-63.75,13.0,5.0,80.368515625,-5.955,13.17451334375,29.998124999999998
2021-06-29 11:31:35.156250000,-64.0,13.0,5.0,80.3684375,-6.41,13.173712625,29.9975
2021-06-29 11:31:35.164062500,-64.0,13.0,5.0,80.368359375,-6.859999999999999,13.17291190625,29.996875
2021-06-29 11:31:35.171875000,-64.0,13.0,5.0,80.36828125000001,-7.31,13.1721111875,29.99625
2021-06-29 11:31:35.179687500,-64.0,13.0,5.0,80.36820312500001,-7.789999999999999,13.17131046875,29.995625
2021-06-29 11:31:35.187500000,-64.0,13.0,5.0,80.368125,-8.27,13.17050975,29.994999999999997
2021-06-29 11:31:35.195312500,-64.0,13.0,5.0,80.368046875,-8.785,13.16970903125,29.994374999999998
2021-06-29 11:31:35.203125000,-64.0,13.0,5.0,80.36796875,-9.3,13.1689083125,29.99375
2021-06-29 11:31:35.210937500,-64.0,13.0,5.0,80.367890625,-9.8,13.16810759375,29.993125
2021-06-29 11:31:35.218750000,-64.0,13.0,5.0,80.3678125,-10.3,13.167306875,29.9925
2021-06-29 11:31:35.226562500,-64.0,13.0,5.0,80.367734375,-10.66,13.16650615625,29.991875
2021-06-29 11:31:35.234375000,-64.0,13.0,5.0,80.36765625000001,-11.02,13.1657054375,29.991249999999997
2021-06-29 11:31:35.242187500,-64.0,13.0,5.0,80.36757812500001,-11.115,13.16490471875,29.990624999999998
2021-06-29 11:31:35.250000000,-64.0,13.0,5.0,80.3675,-11.21,13.164104,29.99
2021-06-29 11:31:35.257812500,-64.0,13.0,5.0,80.367421875,-10.965,13.1644643125,29.99
2021-06-29 11:31:35.265625000,-64.0,13.0,5.0,80.36734375,-10.72,13.164824625,29.99
2021-06-29 11:31:35.273437500,-64.0,13.0,5.0,80.367265625,-10.175,13.1651849375,29.99
2021-06-29 11:31:35.281250000,-64.0,13.0,5.0,80.3671875,-9.63,13.165545250000001,29.99
2021-06-29 11:31:35.289062500,-64.0,13.0,5.25,80.367109375,-8.9,13.1659055625,29.99
2021-06-29 11:31:35.296875000,-64.0,13.0,5.5,80.36703125,-8.17,13.166265875,29.99
2021-06-29 11:31:35.304687500,-64.0,13.0,5.75,80.36695312500001,-7.4,13.1666261875,29.99
2021-06-29 11:31:35.312500000,-64.0,13.0,6.0,80.36687500000001,-6.63,13.1669865,29.99
2021-06-29 11:31:35.320312500,-64.0,13.0,5.75,80.366796875,-5.91,13.1673468125,29.99
2021-06-29 11:31:35.328125000,-64.0,13.0,5.5,80.36671875,-5.19,13.167707125,29.99
2021-06-29 11:31:35.335937500,-64.0,13.0,5.25,80.366640625,-4.550000000000001,13.1680674375,29.99
2021-06-29 11:31:35.343750000,-64.0,13.0,5.0,80.3665625,-3.91,13.16842775,29.99
2021-06-29 11:31:35.351562500,-64.0,13.0,5.0,80.366484375,-3.3150000000000004,13.168788062500001,29.99
2021-06-29 11:31:35.359375000,-64.0,13.0,5.0,80.36640625,-2.72,13.169148375,29.99
2021-06-29 11:31:35.367187500,-64.0,13.0,5.0,80.36632812500001,-2.14,13.1695086875,29.99
2021-06-29 11:31:35.375000000,-64.0,13.0,5.0,80.36625000000001,-1.56,13.169869,29.99
2021-06-29 11:31:35.382812500,-64.0,13.0,5.0,80.366171875,-0.99,13.1702293125,29.99
2021-06-29 11:31:35.390625000,-64.0,13.0,5.0,80.36609375,-0.42,13.170589625,29.99
2021-06-29 11:31:35.398437500,-64.0,13.0,5.0,80.366015625,0.08500000000000002,13.1709499375,29.99
2021-06-29 11:31:35.406250000,-64.0,13.0,5.0,80.3659375,0.59,13.171310250000001,29.99
2021-06-29 11:31:35.414062500,-64.0,13.0,5.0,80.365859375,0.9949999999999999,13.171670562500001,29.99
2021-06-29 11:31:35.421875000,-64.0,13.0,5.0,80.36578125,1.4,13.172030875,29.99
2021-06-29 11:31:35.429687500,-64.0,13.0,5.0,80.365703125,1.685,13.1723911875,29.99
2021-06-29 11:31:35.437500000,-64.0,13.0,5.0,80.36562500000001,1.97,13.1727515,29.99
2021-06-29 11:31:35.445312500,-64.0,13.0,5.0,80.365546875,2.18,13.1731118125,29.99
2021-06-29 11:31:35.453125000,-64.0,13.0,5.0,80.36546875,2.39,13.173472125,29.99
2021-06-29 11:31:35.460937500,-64.0,13.0,5.0,80.365390625,2.605,13.1738324375,29.99
2021-06-29 11:31:35.468750000,-64.0,13.0,5.0,80.3653125,2.82,13.17419275,29.99
2021-06-29 11:31:35.476562500,-64.0,13.0,5.25,80.365234375,3.0999999999999996,13.174553062500001,29.99
2021-06-29 11:31:35.484375000,-64.0,13.0,5.5,80.36515625,3.38,13.174913375000001,29.99
2021-06-29 11:31:35.492187500,-64.0,13.0,5.75,80.365078125,3.735,13.1752736875,29.99
2021-06-29 11:31:35.500000000,-64.0,13.0,6.0,80.36500000000001,4.09,13.175634,29.99
2021-06-29 11:31:35.507812500,-64.0,13.0,5.75,80.36492187500001,4.46,13.175834187500001,29.99
2021-06-29 11:31:35.515625000,-64.0,13.0,5.5,80.36484375,4.83,13.176034375,29.99
2021-06-29 11:31:35.523437500,-64.0,13.0,5.25,80.364765625,5.12,13.176234562500001,29.99
2021-06-29 11:31:35.531250000,-64.0,13.0,5.0,80.3646875,5.41,13.17643475,29.99
2021-06-29 11:31:35.539062500,-64.0,13.0,5.0,80.364609375,5.5649999999999995,13.176634937500001,29.99
2021-06-29 11:31:35.546875000,-64.0,13.0,5.0,80.36453125,5.72,13.176835125,29.99
2021-06-29 11:31:35.554687500,-64.0,13.0,5.0,80.364453125,5.715,13.177035312500001,29.99
2021-06-29 11:31:35.562500000,-64.0,13.0,5.0,80.364375,5.71,13.1772355,29.99
2021-06-29 11:31:35.570312500,-64.0,13.0,5.25,80.36429687500001,5.6,13.177435687500001,29.99
2021-06-29 11:31:35.578125000,-64.0,13.0,5.5,80.36421875,5.49,13.177635875,29.99
2021-06-29 11:31:35.585937500,-64.0,13.0,5.75,80.364140625,5.355,13.1778360625,29.99
2021-06-29 11:31:35.593750000,-64.0,13.0,6.0,80.3640625,5.22,13.17803625,29.99
2021-06-29 11:31:35.601562500,-64.0,13.0,6.0,80.363984375,5.145,13.1782364375,29.99
2021-06-29 11:31:35.609375000,-64.0,13.0,6.0,80.36390625,5.07,13.178436625,29.99
2021-06-29 11:31:35.617187500,-64.0,13.0,6.0,80.363828125,5.11,13.1786368125,29.99
2021-06-29 11:31:35.625000000,-64.0,13.0,6.0,80.36375,5.15,13.178837000000001,29.99
2021-06-29 11:31:35.632812500,-64.0,13.0,5.75,80.363671875,5.300000000000001,13.1790371875,29.99
2021-06-29 11:31:35.640625000,-64.0,13.0,5.5,80.36359375,5.45,13.179237375000001,29.99
2021-06-29 11:31:35.648437500,-64.0,13.0,5.25,80.363515625,5.67,13.1794375625,29.99
2021-06-29 11:31:35.656250000,-64.0,13.0,5.0,80.3634375,5.89,13.179637750000001,29.99
2021-06-29 11:31:35.664062500,-64.0,13.0,5.0,80.363359375,6.095,13.1798379375,29.99
2021-06-29 11:31:35.671875000,-64.0,13.0,5.0,80.36328125,6.3,13.180038125000001,29.99
2021-06-29 11:31:35.679687500,-64.0,13.0,5.0,80.363203125,6.395,13.1802383125,29.99
2021-06-29 11:31:35.687500000,-64.0,13.0,5.0,80.363125,6.49,13.180438500000001,29.99
2021-06-29 11:31:35.695312500,-64.0,13.25,5.0,80.363046875,6.4,13.1806386875,29.99
2021-06-29 11:31:35.703125000,-64.0,13.5,5.0,80.36296875000001,6.31,13.180838875000001,29.99
2021-06-29 11:31:35.710937500,-64.0,13.75,5.0,80.362890625,6.0,13.1810390625,29.99
2021-06-29 11:31:35.718750000,-64.0,14.0,5.0,80.3628125,5.69,13.18123925,29.99
2021-06-29 11:31:35.726562500,-64.0,13.75,5.0,80.362734375,5.175000000000001,13.1814394375,29.99
2021-06-29 11:31:35.734375000,-64.0,13.5,5.0,80.36265625,4.66,13.181639625,29.99
2021-06-29 11:31:35.742187500,-64.0,13.25,5.0,80.362578125,3.98,13.1818398125,29.99
2021-06-29 11:31:35.750000000,-64.0,13.0,5.0,80.3625,3.3,13.18204,29.99
2021-06-29 11:31:35.757812500,-64.0,13.0,5.0,80.362421875,2.525,13.18155959375,29.99
2021-06-29 11:31:35.765625000,-64.0,13.0,5.0,80.36234375,1.75,13.1810791875,29.99
2021-06-29 11:31:35.773437500,-64.0,13.0,5.0,80.362265625,0.95,13.180598781250001,29.99
2021-06-29 11:31:35.781250000,-64.0,13.0,5.0,80.3621875,0.15,13.180118375000001,29.99
2021-06-29 11:31:35.789062500,-64.0,13.0,5.0,80.362109375,-0.59,13.17963796875,29.99
2021-06-29 11:31:35.796875000,-64.0,13.0,5.0,80.36203125,-1.33,13.1791575625,29.99
2021-06-29 11:31:35.804687500,-64.0,13.0,5.0,80.361953125,-1.925,13.17867715625,29.99
2021-06-29 11:31:35.812500000,-64.0,13.0,5.0,80.361875,-2.52,13.178196750000001,29.99
2021-06-29 11:31:35.820312500,-64.0,13.0,5.0,80.361796875,-2.9,13.177716343750001,29.99
2021-06-29 11:31:35.828125000,-64.0,13.0,5.0,80.36171875,-3.28,13.1772359375,29.99
2021-06-29 11:31:35.835937500,-64.0,13.0,5.0,80.361640625,-3.42,13.17675553125,29.99
2021-06-29 11:31:35.843750000,-64.0,13.0,5.0,80.3615625,-3.56,13.176275125,29.99
2021-06-29 11:31:35.851562500,-64.0,13.0,5.0,80.361484375,-3.515,13.17579471875,29.99
2021-06-29 11:31:35.859375000,-64.0,13.0,5.0,80.36140625,-3.47,13.175314312500001,29.99
2021-06-29 11:31:35.867187500,-64.0,13.0,5.0,80.361328125,-3.38,13.17483390625,29.99
2021-06-29 11:31:35.875000000,-64.0,13.0,5.0,80.36125,-3.29,13.1743535,29.99
2021-06-29 11:31:35.882812500,-64.0,13.0,5.0,80.361171875,-3.3200000000000003,13.17387309375,29.99
2021-06-29 11:31:35.890625000,-64.0,13.0,5.0,80.36109375,-3.35,13.1733926875,29.99
2021-06-29 11:31:35.898437500,-64.0,13.0,5.0,80.361015625,-3.645,13.172912281250001,29.99
2021-06-29 11:31:35.906250000,-64.0,13.0,5.0,80.3609375,-3.94,13.172431875000001,29.99
2021-06-29 11:31:35.914062500,-64.0,13.0,5.0,80.360859375,-4.55,13.17195146875,29.99
2021-06-29 11:31:35.921875000,-64.0,13.0,5.0,80.36078125,-5.16,13.1714710625,29.99
2021-06-29 11:31:35.929687500,-64.0,13.0,5.0,80.360703125,-6.005,13.17099065625,29.99
2021-06-29 11:31:35.937500000,-64.0,13.0,5.0,80.360625,-6.85,13.17051025,29.99
2021-06-29 11:31:35.945312500,-64.0,13.0,5.0,80.360546875,-7.76,13.170029843750001,29.99
2021-06-29 11:31:35.953125000,-64.0,13.0,5.0,80.36046875,-8.67,13.1695494375,29.99
2021-06-29 11:31:35.960937500,-64.0,13.0,5.0,80.360390625,-9.45,13.16906903125,29.99
2021-06-29 11:31:35.968750000,-64.0,13.0,5.0,80.3603125,-10.23,13.168588625,29.99
2021-06-29 11:31:35.976562500,-64.0,13.0,5.0,80.360234375,-10.71,13.16810821875,29.99
2021-06-29 11:31:35.984375000,-64.0,13.0,5.0,80.36015625,-11.19,13.167627812500001,29.99
2021-06-29 11:31:35.992187500,-64.0,13.0,5.0,80.360078125,-11.265,13.16714740625,29.99
2021-06-29 11:31:36.000000000,-64.0,13.0,5.0,80.36,-11.34,13.166667,29.99
2021-06-29 11:31:36.007812500,-64.0,13.0,5.25,80.359921875,-11.015,13.16658690625,29.990624999999998
2021-06-29 11:31:36.015625000,-64.0,13.0,5.5,80.35984375,-10.69,13.1665068125,29.991249999999997
2021-06-29 11:31:36.023437500,-64.0,13.0,5.75,80.359765625,-10.015,13.16642671875,29.991875
2021-06-29 11:31:36.031250000,-64.0,13.0,6.0,80.35968749999999,-9.34,13.166346625000001,29.9925
2021-06-29 11:31:36.039062500,-64.0,13.0,5.75,80.359609375,-8.435,13.16626653125,29.993125
2021-06-29 11:31:36.046875000,-64.0,13.0,5.5,80.35953125,-7.53,13.1661864375,29.99375
2021-06-29 11:31:36.054687500,-64.0,13.0,5.25,80.359453125,-6.545,13.16610634375,29.994374999999998
2021-06-29 11:31:36.062500000,-64.0,13.0,5.0,80.359375,-5.56,13.16602625,29.994999999999997
2021-06-29 11:31:36.070312500,-64.0,13.0,5.0,80.359296875,-4.635,13.16594615625,29.995625
2021-06-29 11:31:36.078125000,-64.0,13.0,5.0,80.35921875,-3.71,13.165866062500001,29.99625
2021-06-29 11:31:36.085937500,-64.0,13.0,5.0,80.359140625,-2.935,13.16578596875,29.996875
2021-06-29 11:31:36.093750000,-64.0,13.0,5.0,80.3590625,-2.16,13.165705875,29.9975
2021-06-29 11:31:36.101562500,-64.0,13.0,5.0,80.358984375,-1.56,13.16562578125,29.998124999999998
2021-06-29 11:31:36.109375000,-64.0,13.0,5.0,80.35890625,-0.96,13.1655456875,29.99875
2021-06-29 11:31:36.117187500,-64.0,13.0,5.0,80.358828125,-0.5249999999999999,13.16546559375,29.999375
2021-06-29 11:31:36.125000000,-64.0,13.0,5.0,80.35875,-0.09,13.1653855,30.0
2021-06-29 11:31:36.132812500,-64.0,13.0,5.0,80.358671875,0.215,13.16530540625,30.000625
2021-06-29 11:31:36.140625000,-64.0,13.0,5.0,80.35859375,0.52,13.1652253125,30.00125
2021-06-29 11:31:36.148437500,-64.0,13.0,5.0,80.358515625,0.735,13.16514521875,30.001875000000002
2021-06-29 11:31:36.156250000,-64.0,13.0,5.0,80.3584375,0.95,13.165065125,30.0025
2021-06-29 11:31:36.164062500,-64.0,13.0,5.0,80.35835937499999,1.1,13.16498503125,30.003125
2021-06-29 11:31:36.171875000,-64.0,13.0,5.0,80.35828125,1.25,13.1649049375,30.00375
2021-06-29 11:31:36.179687500,-64.0,13.0,5.0,80.358203125,1.355,13.16482484375,30.004375
2021-06-29 11:31:36.187500000,-64.0,13.0,5.0,80.358125,1.46,13.16474475,30.005000000000003
2021-06-29 11:31:36.195312500,-64.0,13.0,5.0,80.358046875,1.545,13.16466465625,30.005625000000002
2021-06-29 11:31:36.203125000,-64.0,13.0,5.0,80.35796875,1.63,13.1645845625,30.00625
2021-06-29 11:31:36.210937500,-64.0,13.0,5.0,80.357890625,1.745,13.16450446875,30.006875
2021-06-29 11:31:36.218750000,-64.0,13.0,5.0,80.3578125,1.86,13.164424375,30.0075
2021-06-29 11:31:36.226562500,-64.0,13.0,5.25,80.35773437499999,2.045,13.164344281250001,30.008125
2021-06-29 11:31:36.234375000,-64.0,13.0,5.5,80.35765625,2.23,13.1642641875,30.008750000000003
2021-06-29 11:31:36.242187500,-64.0,13.0,5.75,80.357578125,2.475,13.16418409375,30.009375000000002
2021-06-29 11:31:36.250000000,-64.0,13.0,6.0,80.3575,2.72,13.164104,30.01
2021-06-29 11:31:36.257812500,-64.0,13.0,5.75,80.357421875,2.995,13.1643041875,30.01
2021-06-29 11:31:36.265625000,-64.0,13.0,5.5,80.35734375,3.27,13.164504375,30.01
2021-06-29 11:31:36.273437500,-64.0,13.0,5.25,80.357265625,3.5,13.1647045625,30.01
2021-06-29 11:31:36.281250000,-64.0,13.0,5.0,80.3571875,3.73,13.16490475,30.01
2021-06-29 11:31:36.289062500,-64.0,13.0,5.0,80.357109375,3.8600000000000003,13.1651049375,30.01
2021-06-29 11:31:36.296875000,-64.0,13.0,5.0,80.35703124999999,3.99,13.165305125,30.01
2021-06-29 11:31:36.304687500,-64.0,13.0,5.0,80.356953125,4.005,13.1655053125,30.01
2021-06-29 11:31:36.312500000,-64.0,13.0,5.0,80.356875,4.02,13.1657055,30.01
2021-06-29 11:31:36.320312500,-64.0,13.0,5.0,80.356796875,3.9399999999999995,13.1659056875,30.01
2021-06-29 11:31:36.328125000,-64.0,13.0,5.0,80.35671875,3.86,13.166105875,30.01
2021-06-29 11:31:36.335937500,-64.0,13.0,5.0,80.356640625,3.75,13.1663060625,30.01
2021-06-29 11:31:36.343750000,-64.0,13.0,5.0,80.3565625,3.64,13.16650625,30.01
2021-06-29 11:31:36.351562500,-64.0,13.0,5.0,80.356484375,3.56,13.1667064375,30.01
2021-06-29 11:31:36.359375000,-64.0,13.0,5.0,80.35640624999999,3.48,13.166906625,30.01
2021-06-29 11:31:36.367187500,-64.0,13.0,5.0,80.356328125,3.45,13.1671068125,30.01
2021-06-29 11:31:36.375000000,-64.0,13.0,5.0,80.35625,3.42,13.167307000000001,30.01
2021-06-29 11:31:36.382812500,-64.0,13.0,5.0,80.356171875,3.435,13.1675071875,30.01
2021-06-29 11:31:36.390625000,-64.0,13.0,5.0,80.35609375,3.45,13.167707375,30.01
2021-06-29 11:31:36.398437500,-64.0,13.0,5.0,80.356015625,3.47,13.1679075625,30.01
2021-06-29 11:31:36.406250000,-64.0,13.0,5.0,80.3559375,3.49,13.16810775,30.01
2021-06-29 11:31:36.414062500,-64.0,13.0,5.0,80.355859375,3.4850000000000003,13.1683079375,30.01
2021-06-29 11:31:36.421875000,-64.0,13.0,5.0,80.35578124999999,3.48,13.168508125,30.01
2021-06-29 11:31:36.429687500,-64.0,13.0,5.0,80.35570312499999,3.4050000000000002,13.1687083125,30.01
2021-06-29 11:31:36.437500000,-64.0,13.0,5.0,80.355625,3.33,13.1689085,30.01
2021-06-29 11:31:36.445312500,-64.0,13.0,5.0,80.355546875,3.185,13.1691086875,30.01
2021-06-29 11:31:36.453125000,-64.0,13.0,5.0,80.35546875,3.04,13.169308875,30.01
2021-06-29 11:31:36.460937500,-64.0,13.0,5.0,80.355390625,2.855,13.1695090625,30.01
2021-06-29 11:31:36.468750000,-64.0,13.0,5.0,80.3553125,2.67,13.16970925,30.01
2021-06-29 11:31:36.476562500,-64.0,13.0,5.0,80.355234375,2.4699999999999998,13.1699094375,30.01
2021-06-29 11:31:36.484375000,-64.0,13.0,5.0,80.35515625,2.27,13.170109625,30.01
2021-06-29 11:31:36.492187500,-64.0,13.0,5.0,80.35507812499999,2.0949999999999998,13.1703098125,30.01
2021-06-29 11:31:36.500000000,-64.0,13.0,5.0,80.35499999999999,1.92,13.17051,30.01
2021-06-29 11:31:36.507812500,-64.0,13.0,5.0,80.354921875,1.775,13.17071015625,30.01
2021-06-29 11:31:36.515625000,-64.0,13.0,5.0,80.35484375,1.63,13.1709103125,30.01
2021-06-29 11:31:36.523437500,-64.0,13.0,5.0,80.354765625,1.48,13.17111046875,30.01
2021-06-29 11:31:36.531250000,-64.0,13.0,5.0,80.3546875,1.33,13.171310625,30.01
2021-06-29 11:31:36.539062500,-64.0,13.0,5.25,80.354609375,1.12,13.17151078125,30.01
2021-06-29 11:31:36.546875000,-64.0,13.0,5.5,80.35453125,0.91,13.1717109375,30.01
2021-06-29 11:31:36.554687500,-64.0,13.0,5.75,80.35445312499999,0.595,13.17191109375,30.01
2021-06-29 11:31:36.562500000,-64.0,13.0,6.0,80.35437499999999,0.28,13.17211125,30.01
2021-06-29 11:31:36.570312500,-64.0,13.0,5.75,80.354296875,-0.15999999999999998,13.17231140625,30.01
2021-06-29 11:31:36.578125000,-64.0,13.0,5.5,80.35421875,-0.6,13.1725115625,30.01
2021-06-29 11:31:36.585937500,-64.0,13.0,5.25,80.354140625,-1.125,13.17271171875,30.01
2021-06-29 11:31:36.593750000,-64.0,13.0,5.0,80.3540625,-1.65,13.172911875,30.01
2021-06-29 11:31:36.601562500,-64.0,13.0,5.0,80.353984375,-2.175,13.17311203125,30.01
2021-06-29 11:31:36.609375000,-64.0,13.0,5.0,80.35390625,-2.7,13.1733121875,30.01
2021-06-29 11:31:36.617187500,-64.0,13.0,5.0,80.35382812499999,-3.1500000000000004,13.17351234375,30.01
2021-06-29 11:31:36.625000000,-64.0,13.0,5.0,80.35374999999999,-3.6,13.1737125,30.01
2021-06-29 11:31:36.632812500,-64.0,13.0,5.0,80.35367187499999,-3.9299999999999997,13.17391265625,30.01
2021-06-29 11:31:36.640625000,-64.0,13.0,5.0,80.35359375,-4.26,13.174112812499999,30.01
2021-06-29 11:31:36.648437500,-64.0,13.0,5.0,80.353515625,-4.505,13.17431296875,30.01
2021-06-29 11:31:36.656250000,-64.0,13.0,5.0,80.3534375,-4.75,13.174513124999999,30.01
2021-06-29 11:31:36.664062500,-64.0,13.0,5.0,80.353359375,-4.99,13.17471328125,30.01
2021-06-29 11:31:36.671875000,-64.0,13.0,5.0,80.35328125,-5.23,13.174913437499999,30.01
2021-06-29 11:31:36.679687500,-64.0,13.0,5.0,80.353203125,-5.565,13.17511359375,30.01
2021-06-29 11:31:36.687500000,-64.0,13.0,5.0,80.35312499999999,-5.9,13.175313749999999,30.01
2021-06-29 11:31:36.695312500,-64.0,13.0,5.0,80.35304687499999,-6.405,13.17551390625,30.01
2021-06-29 11:31:36.703125000,-64.0,13.0,5.0,80.35296875,-6.91,13.175714062499999,30.01
2021-06-29 11:31:36.710937500,-64.0,13.0,5.0,80.352890625,-7.555,13.17591421875,30.01
2021-06-29 11:31:36.718750000,-64.0,13.0,5.0,80.3528125,-8.2,13.176114375,30.01
2021-06-29 11:31:36.726562500,-64.0,13.0,5.0,80.352734375,-8.885,13.17631453125,30.01
2021-06-29 11:31:36.734375000,-64.0,13.0,5.0,80.35265625,-9.57,13.1765146875,30.01
2021-06-29 11:31:36.742187500,-64.0,13.0,5.0,80.352578125,-10.115,13.17671484375,30.01
2021-06-29 11:31:36.750000000,-64.0,13.0,5.0,80.35249999999999,-10.66,13.176915,30.01
2021-06-29 11:31:36.757812500,-64.0,13.0,5.0,80.35242187499999,-10.895,13.176874968749999,30.01
2021-06-29 11:31:36.765625000,-64.0,13.0,5.0,80.35234374999999,-11.13,13.176834937499999,30.01
2021-06-29 11:31:36.773437500,-64.0,13.0,5.0,80.352265625,-10.965,13.176794906249999,30.01
2021-06-29 11:31:36.781250000,-64.0,13.0,5.0,80.3521875,-10.8,13.176754875,30.01
2021-06-29 11:31:36.789062500,-64.0,13.0,5.0,80.352109375,-10.235,13.17671484375,30.01
2021-06-29 11:31:36.796875000,-64.0,13.0,5.0,80.35203125,-9.67,13.1766748125,30.01
2021-06-29 11:31:36.804687500,-64.0,13.0,5.0,80.351953125,-8.815,13.17663478125,30.01
2021-06-29 11:31:36.812500000,-64.0,13.0,5.0,80.35187499999999,-7.96,13.17659475,30.01
2021-06-29 11:31:36.820312500,-63.75,13.0,5.0,80.35179687499999,-6.970000000000001,13.17655471875,30.01
2021-06-29 11:31:36.828125000,-63.5,13.0,5.0,80.35171874999999,-5.98,13.1765146875,30.01
2021-06-29 11:31:36.835937500,-63.25,13.0,5.0,80.351640625,-4.98,13.176474656249999,30.01
2021-06-29 11:31:36.843750000,-63.0,13.0,5.0,80.3515625,-3.98,13.176434624999999,30.01
2021-06-29 11:31:36.851562500,-63.25,13.0,5.0,80.351484375,-3.0549999999999997,13.17639459375,30.01
2021-06-29 11:31:36.859375000,-63.5,13.0,5.0,80.35140625,-2.13,13.1763545625,30.01
2021-06-29 11:31:36.867187500,-63.75,13.0,5.0,80.351328125,-1.2999999999999998,13.17631453125,30.01
2021-06-29 11:31:36.875000000,-64.0,13.0,5.0,80.35125,-0.47,13.1762745,30.01
2021-06-29 11:31:36.882812500,-64.0,13.0,5.0,80.35117187499999,0.2250000000000001,13.17623446875,30.01
2021-06-29 11:31:36.890625000,-64.0,13.0,5.0,80.35109374999999,0.92,13.1761944375,30.01
2021-06-29 11:31:36.898437500,-64.0,13.0,5.0,80.35101562499999,1.44,13.17615440625,30.01
2021-06-29 11:31:36.906250000,-64.0,13.0,5.0,80.3509375,1.96,13.176114375000001,30.01
2021-06-29 11:31:36.914062500,-64.0,13.0,5.0,80.350859375,2.235,13.17607434375,30.01
2021-06-29 11:31:36.921875000,-64.0,13.0,5.0,80.35078125,2.51,13.1760343125,30.01
2021-06-29 11:31:36.929687500,-64.0,13.0,5.0,80.350703125,2.525,13.17599428125,30.01
2021-06-29 11:31:36.937500000,-64.0,13.0,5.0,80.350625,2.54,13.17595425,30.01
2021-06-29 11:31:36.945312500,-64.0,13.0,5.0,80.35054687499999,2.35,13.17591421875,30.01
2021-06-29 11:31:36.953125000,-64.0,13.0,5.0,80.35046874999999,2.16,13.1758741875,30.01
2021-06-29 11:31:36.960937500,-64.0,13.0,5.0,80.35039062499999,1.9,13.17583415625,30.01
2021-06-29 11:31:36.968750000,-64.0,13.0,5.0,80.3503125,1.64,13.175794125,30.01
2021-06-29 11:31:36.976562500,-64.0,13.0,5.0,80.350234375,1.4849999999999999,13.175754093750001,30.01
2021-06-29 11:31:36.984375000,-64.0,13.0,5.0,80.35015625,1.33,13.1757140625,30.01
2021-06-29 11:31:36.992187500,-64.0,13.0,5.0,80.350078125,1.4,13.17567403125,30.01
2021-06-29 11:31:37.000000000,-64.0,13.0,5.0,80.35,1.47,13.175634,30.01
2021-06-29 11:31:37.007812500,-63.75,13.0,5.0,80.34992187499999,1.7799999999999998,13.1759543125,30.009375000000002
2021-06-29 11:31:37.015625000,-63.5,13.0,5.0,80.34984374999999,2.09,13.176274625000001,30.008750000000003
2021-06-29 11:31:37.023437500,-63.25,13.0,5.0,80.34976562499999,2.54,13.1765949375,30.008125
2021-06-29 11:31:37.031250000,-63.0,13.0,5.0,80.34968749999999,2.99,13.17691525,30.0075
2021-06-29 11:31:37.039062500,-63.25,13.0,5.0,80.349609375,3.425,13.1772355625,30.006875
2021-06-29 11:31:37.046875000,-63.5,13.0,5.0,80.34953125,3.86,13.177555875,30.00625
2021-06-29 11:31:37.054687500,-63.75,13.0,5.0,80.349453125,4.14,13.1778761875,30.005625000000002
2021-06-29 11:31:37.062500000,-64.0,13.0,5.0,80.349375,4.42,13.1781965,30.005000000000003
2021-06-29 11:31:37.070312500,-64.0,13.0,5.0,80.349296875,4.484999999999999,13.1785168125,30.004375
2021-06-29 11:31:37.078125000,-64.0,13.0,5.0,80.34921874999999,4.55,13.178837125000001,30.00375
2021-06-29 11:31:37.085937500,-64.0,13.0,5.0,80.34914062499999,4.42,13.1791574375,30.003125
2021-06-29 11:31:37.093750000,-64.0,13.0,5.0,80.3490625,4.29,13.17947775,30.0025
2021-06-29 11:31:37.101562500,-64.0,13.0,5.25,80.348984375,4.045,13.1797980625,30.001875000000002
2021-06-29 11:31:37.109375000,-64.0,13.0,5.5,80.34890625,3.8,13.180118375,30.00125
2021-06-29 11:31:37.117187500,-64.0,13.0,5.75,80.348828125,3.5149999999999997,13.1804386875,30.000625
2021-06-29 11:31:37.125000000,-64.0,13.0,6.0,80.34875,3.23,13.180759,30.0
2021-06-29 11:31:37.132812500,-64.0,13.0,5.75,80.348671875,2.95,13.1810793125,29.999375
2021-06-29 11:31:37.140625000,-64.0,13.0,5.5,80.34859374999999,2.67,13.181399625000001,29.99875
2021-06-29 11:31:37.148437500,-64.0,13.0,5.25,80.34851562499999,2.41,13.1817199375,29.998124999999998
2021-06-29 11:31:37.156250000,-64.0,13.0,5.0,80.34843749999999,2.15,13.18204025,29.9975
2021-06-29 11:31:37.164062500,-64.0,13.0,5.0,80.348359375,1.89,13.1823605625,29.996875
2021-06-29 11:31:37.171875000,-64.0,13.0,5.0,80.34828125,1.63,13.182680874999999,29.99625
2021-06-29 11:31:37.179687500,-64.0,13.0,5.0,80.348203125,1.37,13.1830011875,29.995625
2021-06-29 11:31:37.187500000,-64.0,13.0,5.0,80.348125,1.11,13.1833215,29.994999999999997
2021-06-29 11:31:37.195312500,-64.0,13.0,5.0,80.348046875,0.8600000000000001,13.1836418125,29.994374999999998
2021-06-29 11:31:37.203125000,-64.0,13.0,5.0,80.34796874999999,0.61,13.183962125,29.99375
2021-06-29 11:31:37.210937500,-64.0,13.0,5.0,80.34789062499999,0.4,13.1842824375,29.993125
2021-06-29 11:31:37.218750000,-64.0,13.0,5.0,80.3478125,0.19,13.18460275,29.9925
2021-06-29 11:31:37.226562500,-64.0,13.0,5.0,80.347734375,0.04999999999999999,13.1849230625,29.991875
2021-06-29 11:31:37.234375000,-64.0,13.0,5.0,80.34765625,-0.09,13.185243374999999,29.991249999999997
2021-06-29 11:31:37.242187500,-64.0,13.0,5.0,80.347578125,-0.15,13.1855636875,29.990624999999998
2021-06-29 11:31:37.250000000,-64.0,13.0,5.0,80.3475,-0.21,13.185884,29.99
2021-06-29 11:31:37.257812500,-64.0,13.0,5.0,80.347421875,-0.245,13.185483625,29.99
2021-06-29 11:31:37.265625000,-64.0,13.0,5.0,80.34734375,-0.28,13.18508325,29.99
2021-06-29 11:31:37.273437500,-64.0,13.0,5.0,80.34726562499999,-0.36,13.184682875,29.99
2021-06-29 11:31:37.281250000,-64.0,13.0,5.0,80.34718749999999,-0.44,13.1842825,29.99
2021-06-29 11:31:37.289062500,-64.0,13.0,5.0,80.347109375,-0.62,13.183882125,29.99
2021-06-29 11:31:37.296875000,-64.0,13.0,5.0,80.34703125,-0.8,13.18348175,29.99
2021-06-29 11:31:37.304687500,-64.0,13.0,5.0,80.346953125,-1.0750000000000002,13.183081375,29.99
2021-06-29 11:31:37.312500000,-64.0,13.0,5.0,80.346875,-1.35,13.182680999999999,29.99
2021-06-29 11:31:37.320312500,-64.0,13.0,5.0,80.346796875,-1.67,13.182280624999999,29.99
