TimeStamp,empatica.acc.x,empatica.acc.y,empatica.acc.z,empatica.hr,empatica.bvp,empatica.eda,empatica.temp
2021-06-29 11:50:41.828125000,-52.0,37.0,-11.0,78.78625,-11.12,16.67850475,30.65
2021-06-29 11:50:41.835937500,-52.0,37.0,-11.0,78.786875,-9.225,16.678905125,30.65
2021-06-29 11:50:41.843750000,-52.0,37.0,-11.0,78.7875,-7.33,16.679305499999998,30.65
2021-06-29 11:50:41.851562500,-52.0,37.0,-11.0,78.788125,-5.63,16.679705875,30.65
2021-06-29 11:50:41.859375000,-52.0,37.0,-11.0,78.78875,-3.93,16.680106249999998,30.65
2021-06-29 11:50:41.867187500,-52.0,37.0,-11.0,78.78937499999999,-2.46,16.680506625,30.65
2021-06-29 11:50:41.875000000,-52.0,37.0,-11.0,78.78999999999999,-0.99,16.680906999999998,30.65
2021-06-29 11:50:41.882812500,-52.0,37.0,-11.0,78.79062499999999,0.30000000000000004,16.681307375,30.65
2021-06-29 11:50:41.890625000,-52.0,37.0,-11.0,78.79124999999999,1.59,16.68170775,30.65
2021-06-29 11:50:41.898437500,-52.0,37.0,-11.0,78.79187499999999,2.795,16.682108125,30.65
2021-06-29 11:50:41.906250000,-52.0,37.0,-11.0,78.7925,4.0,16.6825085,30.65
2021-06-29 11:50:41.914062500,-52.25,37.0,-11.0,78.793125,5.195,16.682908875,30.65
2021-06-29 11:50:41.921875000,-52.5,37.0,-11.0,78.79375,6.39,16.68330925,30.65
2021-06-29 11:50:41.929687500,-52.75,37.0,-11.0,78.794375,7.619999999999999,16.683709625,30.65
2021-06-29 11:50:41.937500000,-53.0,37.0,-11.0,78.795,8.85,16.68411,30.65
2021-06-29 11:50:41.945312500,-53.0,37.0,-11.0,78.795625,10.1,16.684510375,30.65
2021-06-29 11:50:41.953125000,-53.0,37.0,-11.0,78.79625,11.35,16.68491075,30.65
2021-06-29 11:50:41.960937500,-53.0,37.0,-11.0,78.796875,12.57,16.685311125,30.65
2021-06-29 11:50:41.968750000,-53.0,37.0,-11.0,78.7975,13.79,16.6857115,30.65
2021-06-29 11:50:41.976562500,-52.75,37.0,-11.0,78.798125,14.91,16.686111874999998,30.65
2021-06-29 11:50:41.984375000,-52.5,37.0,-11.0,78.79875,16.03,16.68651225,30.65
2021-06-29 11:50:41.992187500,-52.25,37.0,-11.0,78.799375,16.955,16.686912624999998,30.65
2021-06-29 11:50:42.000000000,-52.0,37.0,-11.0,78.8,17.88,16.687313,30.65
2021-06-29 11:50:42.007812500,-52.0,37.0,-11.0,78.801171875,18.525,16.687353062499998,30.65
2021-06-29 11:50:42.015625000,-52.0,37.0,-11.0,78.80234374999999,19.17,16.687393125,30.65
2021-06-29 11:50:42.023437500,-52.0,37.0,-11.0,78.803515625,19.445,16.687433187499998,30.65
2021-06-29 11:50:42.031250000,-52.0,37.0,-11.0,78.8046875,19.72,16.68747325,30.65
2021-06-29 11:50:42.039062500,-52.0,37.0,-11.0,78.805859375,19.6,16.6875133125,30.65
2021-06-29 11:50:42.046875000,-52.0,37.0,-11.0,78.80703125,19.48,16.687553375,30.65
2021-06-29 11:50:42.054687500,-52.0,37.0,-11.0,78.80820312499999,19.035,16.6875934375,30.65
2021-06-29 11:50:42.062500000,-52.0,37.0,-11.0,78.809375,18.59,16.6876335,30.65
2021-06-29 11:50:42.070312500,-52.0,37.0,-11.0,78.810546875,17.975,16.6876735625,30.65
2021-06-29 11:50:42.078125000,-52.0,37.0,-11.0,78.81171875,17.36,16.687713625,30.65
2021-06-29 11:50:42.085937500,-52.0,37.0,-11.0,78.812890625,16.795,16.6877536875,30.65
2021-06-29 11:50:42.093750000,-52.0,37.0,-11.0,78.81406249999999,16.23,16.68779375,30.65
2021-06-29 11:50:42.101562500,-52.25,37.0,-11.0,78.815234375,15.895,16.6878338125,30.65
2021-06-29 11:50:42.109375000,-52.5,37.0,-11.0,78.81640625,15.56,16.687873875,30.65
2021-06-29 11:50:42.117187500,-52.75,37.0,-11.0,78.817578125,15.525,16.6879139375,30.65
2021-06-29 11:50:42.125000000,-53.0,37.0,-11.0,78.81875,15.49,16.687953999999998,30.65
2021-06-29 11:50:42.132812500,-52.75,37.0,-11.0,78.81992187499999,15.67,16.6879940625,30.65
2021-06-29 11:50:42.140625000,-52.5,37.0,-11.0,78.82109375,15.85,16.688034124999998,30.65
2021-06-29 11:50:42.148437500,-52.25,37.0,-11.0,78.822265625,16.075,16.6880741875,30.65
2021-06-29 11:50:42.156250000,-52.0,37.0,-11.0,78.8234375,16.3,16.688114249999998,30.65
2021-06-29 11:50:42.164062500,-52.0,37.0,-11.0,78.824609375,16.395,16.6881543125,30.65
2021-06-29 11:50:42.171875000,-52.0,37.0,-11.0,78.82578124999999,16.49,16.688194375,30.65
2021-06-29 11:50:42.179687500,-52.0,37.0,-11.0,78.826953125,16.36,16.6882344375,30.65
2021-06-29 11:50:42.187500000,-52.0,37.0,-11.0,78.828125,16.23,16.6882745,30.65
2021-06-29 11:50:42.195312500,-52.0,37.0,-11.0,78.829296875,15.895,16.6883145625,30.65
2021-06-29 11:50:42.203125000,-52.0,37.0,-11.0,78.83046875,15.56,16.688354625,30.65
2021-06-29 11:50:42.210937500,-52.0,37.0,-11.0,78.83164062499999,15.075,16.6883946875,30.65
2021-06-29 11:50:42.218750000,-52.0,37.0,-11.0,78.8328125,14.59,16.68843475,30.65
2021-06-29 11:50:42.226562500,-52.0,37.0,-11.0,78.833984375,14.0,16.6884748125,30.65
2021-06-29 11:50:42.234375000,-52.0,37.0,-11.0,78.83515625,13.41,16.688514875,30.65
2021-06-29 11:50:42.242187500,-52.0,37.0,-11.0,78.836328125,12.7,16.6885549375,30.65
2021-06-29 11:50:42.250000000,-52.0,37.0,-11.0,78.8375,11.99,16.688595,30.65
2021-06-29 11:50:42.257812500,-52.0,37.0,-11.0,78.838671875,11.08,16.68867503125,30.65
2021-06-29 11:50:42.265625000,-52.0,37.0,-11.0,78.83984375,10.17,16.6887550625,30.65
2021-06-29 11:50:42.273437500,-52.0,37.0,-11.0,78.841015625,9.03,16.68883509375,30.65
2021-06-29 11:50:42.281250000,-52.0,37.0,-11.0,78.8421875,7.89,16.688915125,30.65
2021-06-29 11:50:42.289062500,-52.0,37.0,-10.75,78.843359375,6.58,16.688995156249998,30.65
2021-06-29 11:50:42.296875000,-52.0,37.0,-10.5,78.84453125,5.27,16.6890751875,30.65
2021-06-29 11:50:42.304687500,-52.0,37.0,-10.25,78.845703125,3.945,16.68915521875,30.65
2021-06-29 11:50:42.312500000,-52.0,37.0,-10.0,78.846875,2.62,16.68923525,30.65
2021-06-29 11:50:42.320312500,-52.0,37.0,-10.25,78.848046875,1.4500000000000002,16.68931528125,30.65
2021-06-29 11:50:42.328125000,-52.0,37.0,-10.5,78.84921875,0.28,16.6893953125,30.65
2021-06-29 11:50:42.335937500,-52.0,37.0,-10.75,78.850390625,-0.625,16.68947534375,30.65
2021-06-29 11:50:42.343750000,-52.0,37.0,-11.0,78.8515625,-1.53,16.689555374999998,30.65
2021-06-29 11:50:42.351562500,-52.0,37.0,-11.0,78.852734375,-2.2,16.689635406249998,30.65
2021-06-29 11:50:42.359375000,-52.0,37.0,-11.0,78.85390625,-2.87,16.6897154375,30.65
2021-06-29 11:50:42.367187500,-52.0,37.0,-11.0,78.855078125,-3.445,16.68979546875,30.65
2021-06-29 11:50:42.375000000,-52.0,37.0,-11.0,78.85625,-4.02,16.6898755,30.65
2021-06-29 11:50:42.382812500,-52.0,37.0,-11.0,78.857421875,-4.6899999999999995,16.68995553125,30.65
2021-06-29 11:50:42.390625000,-52.0,37.0,-11.0,78.85859375,-5.36,16.6900355625,30.65
2021-06-29 11:50:42.398437500,-52.0,37.0,-11.0,78.859765625,-6.27,16.69011559375,30.65
2021-06-29 11:50:42.406250000,-52.0,37.0,-11.0,78.8609375,-7.18,16.690195625,30.65
2021-06-29 11:50:42.414062500,-52.0,37.0,-11.0,78.862109375,-8.355,16.690275656249998,30.65
2021-06-29 11:50:42.421875000,-52.0,37.0,-11.0,78.86328125,-9.53,16.6903556875,30.65
2021-06-29 11:50:42.429687500,-52.0,37.0,-11.0,78.864453125,-10.844999999999999,16.69043571875,30.65
2021-06-29 11:50:42.437500000,-52.0,37.0,-11.0,78.865625,-12.16,16.69051575,30.65
2021-06-29 11:50:42.445312500,-52.0,37.0,-11.0,78.866796875,-13.415,16.69059578125,30.65
2021-06-29 11:50:42.453125000,-52.0,37.0,-11.0,78.86796875,-14.67,16.6906758125,30.65
2021-06-29 11:50:42.460937500,-52.0,37.0,-11.0,78.869140625,-15.620000000000001,16.69075584375,30.65
2021-06-29 11:50:42.468750000,-52.0,37.0,-11.0,78.8703125,-16.57,16.690835874999998,30.65
2021-06-29 11:50:42.476562500,-52.0,37.0,-11.25,78.871484375,-17.025,16.690915906249998,30.65
2021-06-29 11:50:42.484375000,-52.0,37.0,-11.5,78.87265625,-17.48,16.6909959375,30.65
2021-06-29 11:50:42.492187500,-52.0,37.0,-11.75,78.873828125,-17.34,16.69107596875,30.65
2021-06-29 11:50:42.500000000,-52.0,37.0,-12.0,78.875,-17.2,16.691156,30.65
2021-06-29 11:50:42.507812500,-52.0,37.0,-11.75,78.876171875,-16.439999999999998,16.6915163125,30.65
2021-06-29 11:50:42.515625000,-52.0,37.0,-11.5,78.87734375,-15.68,16.691876625,30.65
2021-06-29 11:50:42.523437500,-52.0,37.0,-11.25,78.878515625,-14.355,16.6922369375,30.65
2021-06-29 11:50:42.531250000,-52.0,37.0,-11.0,78.8796875,-13.03,16.69259725,30.65
2021-06-29 11:50:42.539062500,-52.0,37.0,-11.0,78.880859375,-11.26,16.6929575625,30.65
2021-06-29 11:50:42.546875000,-52.0,37.0,-11.0,78.88203125,-9.49,16.693317874999998,30.65
2021-06-29 11:50:42.554687500,-52.0,37.0,-11.0,78.883203125,-7.4350000000000005,16.693678187499998,30.65
2021-06-29 11:50:42.562500000,-52.0,37.0,-11.0,78.884375,-5.38,16.694038499999998,30.65
2021-06-29 11:50:42.570312500,-52.0,37.0,-11.0,78.885546875,-3.23,16.6943988125,30.65
2021-06-29 11:50:42.578125000,-52.0,37.0,-11.0,78.88671875,-1.08,16.694759125,30.65
2021-06-29 11:50:42.585937500,-52.0,37.0,-11.0,78.887890625,0.9550000000000001,16.6951194375,30.65
2021-06-29 11:50:42.593750000,-52.0,37.0,-11.0,78.8890625,2.99,16.69547975,30.65
2021-06-29 11:50:42.601562500,-52.0,37.0,-10.75,78.890234375,4.735,16.6958400625,30.65
2021-06-29 11:50:42.609375000,-52.0,37.0,-10.5,78.89140625,6.48,16.696200375,30.65
2021-06-29 11:50:42.617187500,-52.0,37.0,-10.25,78.892578125,7.835,16.6965606875,30.65
2021-06-29 11:50:42.625000000,-52.0,37.0,-10.0,78.89375,9.19,16.696921,30.65
2021-06-29 11:50:42.632812500,-52.0,37.0,-10.25,78.894921875,10.145,16.6972813125,30.65
2021-06-29 11:50:42.640625000,-52.0,37.0,-10.5,78.89609375,11.1,16.697641625,30.65
2021-06-29 11:50:42.648437500,-52.0,37.0,-10.75,78.897265625,11.715,16.6980019375,30.65
2021-06-29 11:50:42.656250000,-52.0,37.0,-11.0,78.8984375,12.33,16.69836225,30.65
2021-06-29 11:50:42.664062500,-52.0,37.0,-11.0,78.899609375,12.71,16.6987225625,30.65
2021-06-29 11:50:42.671875000,-52.0,37.0,-11.0,78.90078125,13.09,16.699082875,30.65
2021-06-29 11:50:42.679687500,-52.0,37.0,-11.0,78.901953125,13.305,16.6994431875,30.65
2021-06-29 11:50:42.687500000,-52.0,37.0,-11.0,78.903125,13.52,16.6998035,30.65
2021-06-29 11:50:42.695312500,-52.0,37.0,-10.75,78.904296875,13.615,16.7001638125,30.65
2021-06-29 11:50:42.703125000,-52.0,37.0,-10.5,78.90546875,13.71,16.700524125,30.65
2021-06-29 11:50:42.710937500,-52.0,37.0,-10.25,78.906640625,13.705,16.7008844375,30.65
2021-06-29 11:50:42.718750000,-52.0,37.0,-10.0,78.9078125,13.7,16.70124475,30.65
2021-06-29 11:50:42.726562500,-52.0,37.0,-10.25,78.908984375,13.605,16.7016050625,30.65
2021-06-29 11:50:42.734375000,-52.0,37.0,-10.5,78.91015625,13.51,16.701965375,30.65
2021-06-29 11:50:42.742187500,-52.0,37.0,-10.75,78.911328125,13.34,16.7023256875,30.65
2021-06-29 11:50:42.750000000,-52.0,37.0,-11.0,78.9125,13.17,16.702686,30.65
2021-06-29 11:50:42.757812500,-52.0,37.0,-11.0,78.913671875,12.969999999999999,16.703807,30.65
2021-06-29 11:50:42.765625000,-52.0,37.0,-11.0,78.91484375,12.77,16.704928,30.65
2021-06-29 11:50:42.773437500,-52.0,37.0,-11.0,78.916015625,12.524999999999999,16.706049,30.65
2021-06-29 11:50:42.781250000,-52.0,37.0,-11.0,78.9171875,12.28,16.70717,30.65
2021-06-29 11:50:42.789062500,-52.0,37.0,-11.0,78.91835937500001,11.955,16.708291,30.65
2021-06-29 11:50:42.796875000,-52.0,37.0,-11.0,78.91953125,11.63,16.709412,30.65
2021-06-29 11:50:42.804687500,-52.0,37.0,-11.0,78.920703125,11.18,16.710533,30.65
2021-06-29 11:50:42.812500000,-52.0,37.0,-11.0,78.921875,10.73,16.711654,30.65
2021-06-29 11:50:42.820312500,-52.0,37.0,-11.0,78.923046875,10.105,16.712775,30.65
2021-06-29 11:50:42.828125000,-52.0,37.0,-11.0,78.92421875000001,9.48,16.713896000000002,30.65
2021-06-29 11:50:42.835937500,-52.0,37.0,-11.0,78.925390625,8.705,16.715017,30.65
2021-06-29 11:50:42.843750000,-52.0,37.0,-11.0,78.9265625,7.93,16.716138,30.65
2021-06-29 11:50:42.851562500,-52.0,37.0,-11.0,78.927734375,7.095,16.717259000000002,30.65
2021-06-29 11:50:42.859375000,-52.0,37.0,-11.0,78.92890625,6.26,16.71838,30.65
2021-06-29 11:50:42.867187500,-52.0,37.0,-11.0,78.93007812500001,5.484999999999999,16.719501,30.65
2021-06-29 11:50:42.875000000,-52.0,37.0,-11.0,78.93125,4.71,16.720622,30.65
2021-06-29 11:50:42.882812500,-52.0,37.0,-11.0,78.932421875,4.08,16.721743,30.65
2021-06-29 11:50:42.890625000,-52.0,37.0,-11.0,78.93359375,3.45,16.722864,30.65
2021-06-29 11:50:42.898437500,-52.0,37.0,-11.0,78.934765625,2.995,16.723985,30.65
2021-06-29 11:50:42.906250000,-52.0,37.0,-11.0,78.93593750000001,2.54,16.725106,30.65
2021-06-29 11:50:42.914062500,-52.0,37.0,-11.0,78.937109375,2.21,16.726227,30.65
2021-06-29 11:50:42.921875000,-52.0,37.0,-11.0,78.93828125,1.88,16.727348,30.65
2021-06-29 11:50:42.929687500,-52.0,37.0,-11.0,78.939453125,1.5899999999999999,16.728469,30.65
2021-06-29 11:50:42.937500000,-52.0,37.0,-11.0,78.940625,1.3,16.72959,30.65
2021-06-29 11:50:42.945312500,-52.0,37.0,-11.0,78.94179687500001,0.995,16.730711,30.65
2021-06-29 11:50:42.953125000,-52.0,37.0,-11.0,78.94296875,0.69,16.731832,30.65
2021-06-29 11:50:42.960937500,-52.0,37.0,-11.0,78.944140625,0.32999999999999996,16.732953000000002,30.65
2021-06-29 11:50:42.968750000,-52.0,37.0,-11.0,78.9453125,-0.03,16.734074,30.65
2021-06-29 11:50:42.976562500,-52.0,37.0,-11.0,78.946484375,-0.46499999999999997,16.735195,30.65
2021-06-29 11:50:42.984375000,-52.0,37.0,-11.0,78.94765625000001,-0.9,16.736316000000002,30.65
2021-06-29 11:50:42.992187500,-52.0,37.0,-11.0,78.948828125,-1.415,16.737437,30.65
2021-06-29 11:50:43.000000000,-52.0,37.0,-11.0,78.95,-1.93,16.738558,30.65
2021-06-29 11:50:43.007812500,-52.0,37.0,-11.0,78.951328125,-2.545,16.73759715625,30.64875
2021-06-29 11:50:43.015625000,-52.0,37.0,-11.0,78.95265625,-3.16,16.7366363125,30.647499999999997
2021-06-29 11:50:43.023437500,-52.0,37.0,-11.0,78.953984375,-3.9050000000000002,16.73567546875,30.64625
2021-06-29 11:50:43.031250000,-52.0,37.0,-11.0,78.9553125,-4.65,16.734714625000002,30.645
2021-06-29 11:50:43.039062500,-52.0,37.0,-11.0,78.956640625,-5.535,16.73375378125,30.643749999999997
2021-06-29 11:50:43.046875000,-52.0,37.0,-11.0,78.95796875,-6.42,16.7327929375,30.6425
2021-06-29 11:50:43.054687500,-52.0,37.0,-11.0,78.959296875,-7.42,16.73183209375,30.64125
2021-06-29 11:50:43.062500000,-52.0,37.0,-11.0,78.96062500000001,-8.42,16.73087125,30.64
2021-06-29 11:50:43.070312500,-52.0,37.0,-11.0,78.96195312500001,-9.49,16.72991040625,30.638749999999998
2021-06-29 11:50:43.078125000,-52.0,37.0,-11.0,78.96328125000001,-10.56,16.728949562500002,30.6375
2021-06-29 11:50:43.085937500,-52.0,37.0,-11.0,78.96460937500001,-11.65,16.72798871875,30.63625
2021-06-29 11:50:43.093750000,-52.0,37.0,-11.0,78.96593750000001,-12.74,16.727027875,30.634999999999998
2021-06-29 11:50:43.101562500,-52.0,37.25,-11.0,78.967265625,-13.825,16.72606703125,30.63375
2021-06-29 11:50:43.109375000,-52.0,37.5,-11.0,78.96859375,-14.91,16.7251061875,30.6325
2021-06-29 11:50:43.117187500,-52.0,37.75,-11.0,78.969921875,-16.0,16.72414534375,30.631249999999998
2021-06-29 11:50:43.125000000,-52.0,38.0,-11.0,78.97125,-17.09,16.723184500000002,30.63
2021-06-29 11:50:43.132812500,-52.0,38.0,-11.0,78.972578125,-18.17,16.72222365625,30.62875
2021-06-29 11:50:43.140625000,-52.0,38.0,-11.0,78.97390625,-19.25,16.7212628125,30.627499999999998
2021-06-29 11:50:43.148437500,-52.0,38.0,-11.0,78.975234375,-20.27,16.72030196875,30.62625
2021-06-29 11:50:43.156250000,-52.0,38.0,-11.0,78.9765625,-21.29,16.719341125,30.625
2021-06-29 11:50:43.164062500,-52.0,37.75,-11.0,78.977890625,-22.145,16.71838028125,30.623749999999998
2021-06-29 11:50:43.171875000,-52.0,37.5,-11.0,78.97921875,-23.0,16.7174194375,30.6225
2021-06-29 11:50:43.179687500,-52.0,37.25,-11.0,78.980546875,-23.494999999999997,16.71645859375,30.62125
2021-06-29 11:50:43.187500000,-52.0,37.0,-11.0,78.981875,-23.99,16.71549775,30.619999999999997
2021-06-29 11:50:43.195312500,-52.0,37.25,-11.0,78.983203125,-23.945,16.71453690625,30.61875
2021-06-29 11:50:43.203125000,-52.0,37.5,-11.0,78.98453125,-23.9,16.7135760625,30.6175
2021-06-29 11:50:43.210937500,-52.0,37.75,-11.0,78.985859375,-23.195,16.71261521875,30.61625
2021-06-29 11:50:43.218750000,-52.0,38.0,-11.0,78.9871875,-22.49,16.711654375,30.615
2021-06-29 11:50:43.226562500,-52.0,37.75,-11.0,78.988515625,-21.08,16.71069353125,30.61375
2021-06-29 11:50:43.234375000,-52.0,37.5,-11.0,78.98984375,-19.67,16.7097326875,30.6125
2021-06-29 11:50:43.242187500,-52.0,37.25,-11.0,78.991171875,-17.665,16.70877184375,30.61125
2021-06-29 11:50:43.250000000,-52.0,37.0,-11.0,78.9925,-15.66,16.707811,30.61
2021-06-29 11:50:43.257812500,-52.0,37.0,-11.0,78.99382812500001,-13.254999999999999,16.707850999999998,30.61
2021-06-29 11:50:43.265625000,-52.0,37.0,-11.0,78.99515625000001,-10.85,16.707891,30.61
2021-06-29 11:50:43.273437500,-52.0,37.0,-11.0,78.99648437500001,-8.295,16.707931,30.61
2021-06-29 11:50:43.281250000,-52.0,37.0,-11.0,78.99781250000001,-5.74,16.707971,30.61
2021-06-29 11:50:43.289062500,-52.0,37.0,-11.0,78.99914062500001,-3.2800000000000002,16.708011,30.61
2021-06-29 11:50:43.296875000,-52.0,37.0,-11.0,79.00046875000001,-0.82,16.708051,30.61
2021-06-29 11:50:43.304687500,-52.0,37.0,-11.0,79.001796875,1.3800000000000003,16.708091,30.61
2021-06-29 11:50:43.312500000,-52.0,37.0,-11.0,79.003125,3.58,16.708131,30.61
2021-06-29 11:50:43.320312500,-52.0,37.25,-11.0,79.004453125,5.43,16.708171,30.61
2021-06-29 11:50:43.328125000,-52.0,37.5,-11.0,79.00578125,7.28,16.708211,30.61
2021-06-29 11:50:43.335937500,-52.0,37.75,-11.0,79.007109375,8.76,16.708251,30.61
2021-06-29 11:50:43.343750000,-52.0,38.0,-11.0,79.0084375,10.24,16.708291,30.61
2021-06-29 11:50:43.351562500,-52.0,37.75,-11.0,79.009765625,11.370000000000001,16.708331,30.61
2021-06-29 11:50:43.359375000,-52.0,37.5,-11.0,79.01109375,12.5,16.708371,30.61
2021-06-29 11:50:43.367187500,-52.0,37.25,-11.0,79.012421875,13.309999999999999,16.708411,30.61
2021-06-29 11:50:43.375000000,-52.0,37.0,-11.0,79.01375,14.12,16.708451,30.61
2021-06-29 11:50:43.382812500,-52.0,37.0,-11.0,79.015078125,14.649999999999999,16.708491,30.61
2021-06-29 11:50:43.390625000,-52.0,37.0,-11.0,79.01640625,15.18,16.708531,30.61
2021-06-29 11:50:43.398437500,-52.0,37.0,-11.0,79.017734375,15.475,16.708571,30.61
2021-06-29 11:50:43.406250000,-52.0,37.0,-11.0,79.0190625,15.77,16.708611,30.61
2021-06-29 11:50:43.414062500,-52.0,37.0,-11.0,79.020390625,15.895,16.708651,30.61
2021-06-29 11:50:43.421875000,-52.0,37.0,-11.0,79.02171875,16.02,16.708691,30.61
2021-06-29 11:50:43.429687500,-52.0,37.0,-11.0,79.023046875,16.07,16.708731,30.61
2021-06-29 11:50:43.437500000,-52.0,37.0,-11.0,79.024375,16.12,16.708771,30.61
2021-06-29 11:50:43.445312500,-52.0,37.0,-11.0,79.025703125,16.19,16.708811,30.61
2021-06-29 11:50:43.453125000,-52.0,37.0,-11.0,79.02703125000001,16.26,16.708851,30.61
2021-06-29 11:50:43.460937500,-52.0,37.0,-11.0,79.02835937500001,16.405,16.708891,30.61
2021-06-29 11:50:43.468750000,-52.0,37.0,-11.0,79.02968750000001,16.55,16.708931,30.61
2021-06-29 11:50:43.476562500,-52.0,37.0,-11.0,79.03101562500001,16.775,16.708971000000002,30.61
2021-06-29 11:50:43.484375000,-52.0,37.0,-11.0,79.03234375000001,17.0,16.709011,30.61
2021-06-29 11:50:43.492187500,-52.0,37.0,-11.0,79.03367187500001,17.240000000000002,16.709051000000002,30.61
2021-06-29 11:50:43.500000000,-52.0,37.0,-11.0,79.035,17.48,16.709091,30.61
2021-06-29 11:50:43.507812500,-52.0,37.0,-11.0,79.036328125,17.67,16.70865065625,30.61
2021-06-29 11:50:43.515625000,-52.0,37.0,-11.0,79.03765625,17.86,16.7082103125,30.61
2021-06-29 11:50:43.523437500,-52.0,37.0,-11.0,79.038984375,17.93,16.70776996875,30.61
2021-06-29 11:50:43.531250000,-52.0,37.0,-11.0,79.0403125,18.0,16.707329625,30.61
2021-06-29 11:50:43.539062500,-52.0,37.0,-11.0,79.041640625,17.925,16.70688928125,30.61
2021-06-29 11:50:43.546875000,-52.0,37.0,-11.0,79.04296875,17.85,16.7064489375,30.61
2021-06-29 11:50:43.554687500,-52.0,37.0,-11.0,79.044296875,17.685000000000002,16.70600859375,30.61
2021-06-29 11:50:43.562500000,-52.0,37.0,-11.0,79.045625,17.52,16.70556825,30.61
2021-06-29 11:50:43.570312500,-52.0,37.0,-11.0,79.046953125,17.355,16.705127906250002,30.61
2021-06-29 11:50:43.578125000,-52.0,37.0,-11.0,79.04828125,17.19,16.704687562500002,30.61
2021-06-29 11:50:43.585937500,-52.0,37.0,-11.0,79.049609375,17.1,16.70424721875,30.61
2021-06-29 11:50:43.593750000,-52.0,37.0,-11.0,79.0509375,17.01,16.703806875,30.61
2021-06-29 11:50:43.601562500,-52.0,37.0,-11.0,79.052265625,17.025,16.70336653125,30.61
2021-06-29 11:50:43.609375000,-52.0,37.0,-11.0,79.05359375,17.04,16.7029261875,30.61
2021-06-29 11:50:43.617187500,-52.0,37.0,-11.0,79.054921875,17.075,16.70248584375,30.61
2021-06-29 11:50:43.625000000,-52.0,37.0,-11.0,79.05625,17.11,16.7020455,30.61
2021-06-29 11:50:43.632812500,-52.0,37.0,-10.75,79.057578125,17.009999999999998,16.70160515625,30.61
2021-06-29 11:50:43.640625000,-52.0,37.0,-10.5,79.05890625,16.91,16.7011648125,30.61
2021-06-29 11:50:43.648437500,-52.0,37.0,-10.25,79.06023437500001,16.490000000000002,16.70072446875,30.61
2021-06-29 11:50:43.656250000,-52.0,37.0,-10.0,79.06156250000001,16.07,16.700284125,30.61
2021-06-29 11:50:43.664062500,-52.0,37.0,-10.25,79.06289062500001,15.2,16.69984378125,30.61
2021-06-29 11:50:43.671875000,-52.0,37.0,-10.5,79.06421875000001,14.33,16.6994034375,30.61
2021-06-29 11:50:43.679687500,-52.0,37.0,-10.75,79.06554687500001,12.99,16.69896309375,30.61
2021-06-29 11:50:43.687500000,-52.0,37.0,-11.0,79.06687500000001,11.65,16.698522750000002,30.61
2021-06-29 11:50:43.695312500,-52.0,37.0,-11.0,79.06820312500001,9.975000000000001,16.698082406250002,30.61
2021-06-29 11:50:43.703125000,-52.0,37.0,-11.0,79.06953125,8.3,16.6976420625,30.61
2021-06-29 11:50:43.710937500,-52.0,37.0,-11.0,79.070859375,6.485,16.69720171875,30.61
2021-06-29 11:50:43.718750000,-52.0,37.0,-11.0,79.0721875,4.67,16.696761375,30.61
2021-06-29 11:50:43.726562500,-52.0,37.0,-11.0,79.073515625,2.91,16.69632103125,30.61
2021-06-29 11:50:43.734375000,-52.0,37.0,-11.0,79.07484375,1.15,16.6958806875,30.61
2021-06-29 11:50:43.742187500,-52.0,37.0,-11.0,79.076171875,-0.43500000000000005,16.69544034375,30.61
2021-06-29 11:50:43.750000000,-52.0,37.0,-11.0,79.0775,-2.02,16.695,30.61
2021-06-29 11:50:43.757812500,-52.0,37.0,-11.0,79.078828125,-3.3949999999999996,16.69516015625,30.61
2021-06-29 11:50:43.765625000,-52.0,37.0,-11.0,79.08015625,-4.77,16.6953203125,30.61
2021-06-29 11:50:43.773437500,-52.0,37.0,-11.0,79.081484375,-5.975,16.69548046875,30.61
2021-06-29 11:50:43.781250000,-52.0,37.0,-11.0,79.0828125,-7.18,16.695640625,30.61
2021-06-29 11:50:43.789062500,-52.0,37.0,-11.0,79.084140625,-8.295,16.69580078125,30.61
2021-06-29 11:50:43.796875000,-52.0,37.0,-11.0,79.08546875,-9.41,16.6959609375,30.61
2021-06-29 11:50:43.804687500,-52.0,37.0,-11.0,79.086796875,-10.495000000000001,16.69612109375,30.61
2021-06-29 11:50:43.812500000,-52.0,37.0,-11.0,79.088125,-11.58,16.69628125,30.61
2021-06-29 11:50:43.820312500,-52.0,37.0,-11.0,79.089453125,-12.690000000000001,16.69644140625,30.61
2021-06-29 11:50:43.828125000,-52.0,37.0,-11.0,79.09078125,-13.8,16.6966015625,30.61
2021-06-29 11:50:43.835937500,-52.0,37.0,-11.0,79.092109375,-14.955,16.69676171875,30.61
2021-06-29 11:50:43.843750000,-52.0,37.0,-11.0,79.09343750000001,-16.11,16.696921875,30.61
2021-06-29 11:50:43.851562500,-52.0,37.0,-11.0,79.09476562500001,-17.275,16.69708203125,30.61
2021-06-29 11:50:43.859375000,-52.0,37.0,-11.0,79.09609375000001,-18.44,16.6972421875,30.61
2021-06-29 11:50:43.867187500,-52.0,37.0,-11.0,79.09742187500001,-19.495,16.69740234375,30.61
2021-06-29 11:50:43.875000000,-52.0,37.0,-11.0,79.09875000000001,-20.55,16.6975625,30.61
2021-06-29 11:50:43.882812500,-52.0,37.0,-11.0,79.10007812500001,-21.295,16.69772265625,30.61
2021-06-29 11:50:43.890625000,-52.0,37.0,-11.0,79.10140625000001,-22.04,16.6978828125,30.61
2021-06-29 11:50:43.898437500,-52.0,37.0,-11.0,79.10273437500001,-22.225,16.69804296875,30.61
2021-06-29 11:50:43.906250000,-52.0,37.0,-11.0,79.1040625,-22.41,16.698203125,30.61
2021-06-29 11:50:43.914062500,-52.0,37.0,-11.0,79.105390625,-21.825,16.69836328125,30.61
2021-06-29 11:50:43.921875000,-52.0,37.0,-11.0,79.10671875,-21.24,16.6985234375,30.61
2021-06-29 11:50:43.929687500,-52.0,37.0,-11.0,79.108046875,-19.81,16.69868359375,30.61
2021-06-29 11:50:43.937500000,-52.0,37.0,-11.0,79.109375,-18.38,16.69884375,30.61
2021-06-29 11:50:43.945312500,-52.0,37.0,-11.0,79.110703125,-16.21,16.69900390625,30.61
2021-06-29 11:50:43.953125000,-52.0,37.0,-11.0,79.11203125,-14.04,16.6991640625,30.61
2021-06-29 11:50:43.960937500,-52.0,37.0,-11.0,79.113359375,-11.425,16.69932421875,30.61
2021-06-29 11:50:43.968750000,-52.0,37.0,-11.0,79.1146875,-8.81,16.699484375,30.61
2021-06-29 11:50:43.976562500,-52.0,37.0,-11.0,79.116015625,-6.135,16.69964453125,30.61
2021-06-29 11:50:43.984375000,-52.0,37.0,-11.0,79.11734375,-3.46,16.6998046875,30.61
2021-06-29 11:50:43.992187500,-52.0,37.0,-11.0,79.118671875,-1.0949999999999998,16.69996484375,30.61
2021-06-29 11:50:44.000000000,-52.0,37.0,-11.0,79.12,1.27,16.700125,30.61
2021-06-29 11:50:44.007812500,-52.0,37.0,-11.0,79.12156250000001,3.09,16.700165,30.61
2021-06-29 11:50:44.015625000,-52.0,37.0,-11.0,79.123125,4.91,16.700205,30.61
2021-06-29 11:50:44.023437500,-52.0,37.0,-11.0,79.12468750000001,6.155,16.700245,30.61
2021-06-29 11:50:44.031250000,-52.0,37.0,-11.0,79.12625,7.4,16.700285,30.61
2021-06-29 11:50:44.039062500,-52.0,37.0,-11.0,79.1278125,8.190000000000001,16.700325,30.61
2021-06-29 11:50:44.046875000,-52.0,37.0,-11.0,79.12937500000001,8.98,16.700365,30.61
2021-06-29 11:50:44.054687500,-52.0,37.0,-11.0,79.1309375,9.52,16.700405,30.61
2021-06-29 11:50:44.062500000,-52.0,37.0,-11.0,79.13250000000001,10.06,16.700445000000002,30.61
2021-06-29 11:50:44.070312500,-52.25,37.0,-11.0,79.1340625,10.510000000000002,16.700485,30.61
2021-06-29 11:50:44.078125000,-52.5,37.0,-11.0,79.135625,10.96,16.700525,30.61
2021-06-29 11:50:44.085937500,-52.75,37.0,-11.0,79.13718750000001,11.375,16.700565,30.61
2021-06-29 11:50:44.093750000,-53.0,37.0,-11.0,79.13875,11.79,16.700605,30.61
2021-06-29 11:50:44.101562500,-52.75,37.0,-11.0,79.14031250000001,12.129999999999999,16.700645,30.61
2021-06-29 11:50:44.109375000,-52.5,37.0,-11.0,79.141875,12.47,16.700685,30.61
2021-06-29 11:50:44.117187500,-52.25,37.0,-11.0,79.1434375,12.64,16.700725000000002,30.61
2021-06-29 11:50:44.125000000,-52.0,37.0,-11.0,79.14500000000001,12.81,16.700765,30.61
2021-06-29 11:50:44.132812500,-52.0,37.0,-11.0,79.1465625,12.765,16.700805,30.61
2021-06-29 11:50:44.140625000,-52.0,37.0,-11.0,79.14812500000001,12.72,16.700845,30.61
2021-06-29 11:50:44.148437500,-52.0,37.0,-11.0,79.1496875,12.47,16.700885,30.61
2021-06-29 11:50:44.156250000,-52.0,37.0,-11.0,79.15125,12.22,16.700925,30.61
2021-06-29 11:50:44.164062500,-52.0,37.0,-11.0,79.1528125,11.835,16.700965,30.61
2021-06-29 11:50:44.171875000,-52.0,37.0,-11.0,79.154375,11.45,16.701005000000002,30.61
2021-06-29 11:50:44.179687500,-52.0,37.0,-11.0,79.15593750000001,11.015,16.701045,30.61
2021-06-29 11:50:44.187500000,-52.0,37.0,-11.0,79.1575,10.58,16.701085,30.61
2021-06-29 11:50:44.195312500,-52.0,37.0,-11.0,79.1590625,10.14,16.701125,30.61
2021-06-29 11:50:44.203125000,-52.0,37.0,-11.0,79.160625,9.7,16.701165,30.61
2021-06-29 11:50:44.210937500,-52.0,37.0,-11.0,79.1621875,9.28,16.701205,30.61
2021-06-29 11:50:44.218750000,-52.0,37.0,-11.0,79.16375000000001,8.86,16.701245,30.61
2021-06-29 11:50:44.226562500,-52.0,37.0,-11.0,79.1653125,8.485,16.701285000000002,30.61
2021-06-29 11:50:44.234375000,-52.0,37.0,-11.0,79.166875,8.11,16.701325,30.61
2021-06-29 11:50:44.242187500,-52.0,37.0,-11.0,79.1684375,7.824999999999999,16.701365000000003,30.61
2021-06-29 11:50:44.250000000,-52.0,37.0,-11.0,79.17,7.54,16.701405,30.61
2021-06-29 11:50:44.257812500,-52.0,37.0,-11.0,79.17156250000001,7.4,16.701565156250002,30.61
2021-06-29 11:50:44.265625000,-52.0,37.0,-11.0,79.173125,7.26,16.701725312500002,30.61
2021-06-29 11:50:44.273437500,-52.0,37.0,-11.0,79.1746875,7.265,16.70188546875,30.61
2021-06-29 11:50:44.281250000,-52.0,37.0,-11.0,79.17625,7.27,16.702045625,30.61
2021-06-29 11:50:44.289062500,-52.0,37.0,-11.0,79.1778125,7.34,16.70220578125,30.61
2021-06-29 11:50:44.296875000,-52.0,37.0,-11.0,79.17937500000001,7.41,16.7023659375,30.61
2021-06-29 11:50:44.304687500,-52.0,37.0,-11.0,79.1809375,7.390000000000001,16.702526093750002,30.61
2021-06-29 11:50:44.312500000,-52.0,37.0,-11.0,79.1825,7.37,16.70268625,30.61
2021-06-29 11:50:44.320312500,-52.25,37.0,-11.0,79.1840625,7.09,16.70284640625,30.61
2021-06-29 11:50:44.328125000,-52.5,37.0,-11.0,79.185625,6.81,16.7030065625,30.61
2021-06-29 11:50:44.335937500,-52.75,37.0,-11.0,79.18718750000001,6.185,16.70316671875,30.61
2021-06-29 11:50:44.343750000,-53.0,37.0,-11.0,79.18875,5.56,16.703326875000002,30.61
2021-06-29 11:50:44.351562500,-52.75,37.0,-11.0,79.1903125,4.64,16.703487031250003,30.61
2021-06-29 11:50:44.359375000,-52.5,37.0,-11.0,79.191875,3.72,16.7036471875,30.61
2021-06-29 11:50:44.367187500,-52.25,37.0,-11.0,79.1934375,2.6550000000000002,16.70380734375,30.61
2021-06-29 11:50:44.375000000,-52.0,37.0,-11.0,79.195,1.59,16.7039675,30.61
2021-06-29 11:50:44.382812500,-52.0,37.0,-11.0,79.1965625,0.53,16.70412765625,30.61
2021-06-29 11:50:44.390625000,-52.0,37.0,-11.0,79.198125,-0.53,16.704287812500002,30.61
2021-06-29 11:50:44.398437500,-52.0,37.0,-11.0,79.1996875,-1.4700000000000002,16.70444796875,30.61
2021-06-29 11:50:44.406250000,-52.0,37.0,-11.0,79.20125,-2.41,16.704608125,30.61
2021-06-29 11:50:44.414062500,-52.0,37.0,-11.0,79.2028125,-3.2,16.70476828125,30.61
2021-06-29 11:50:44.421875000,-52.0,37.0,-11.0,79.204375,-3.99,16.7049284375,30.61
2021-06-29 11:50:44.429687500,-52.0,37.0,-11.0,79.2059375,-4.655,16.705088593750002,30.61
2021-06-29 11:50:44.437500000,-52.0,37.0,-11.0,79.2075,-5.32,16.705248750000003,30.61
2021-06-29 11:50:44.445312500,-52.0,37.0,-11.0,79.2090625,-5.905,16.70540890625,30.61
2021-06-29 11:50:44.453125000,-52.0,37.0,-11.0,79.210625,-6.49,16.7055690625,30.61
2021-06-29 11:50:44.460937500,-52.0,37.0,-11.0,79.2121875,-7.04,16.70572921875,30.61
2021-06-29 11:50:44.468750000,-52.0,37.0,-11.0,79.21375,-7.59,16.705889375,30.61
2021-06-29 11:50:44.476562500,-52.0,37.0,-11.0,79.2153125,-8.17,16.706049531250002,30.61
2021-06-29 11:50:44.484375000,-52.0,37.0,-11.0,79.216875,-8.75,16.7062096875,30.61
2021-06-29 11:50:44.492187500,-52.0,37.0,-11.0,79.2184375,-9.445,16.70636984375,30.61
2021-06-29 11:50:44.500000000,-52.0,37.0,-11.0,79.22,-10.14,16.70653,30.61
2021-06-29 11:50:44.507812500,-52.0,37.0,-11.0,79.2215625,-11.035,16.706089625,30.61
2021-06-29 11:50:44.515625000,-52.0,37.0,-11.0,79.223125,-11.93,16.70564925,30.61
2021-06-29 11:50:44.523437500,-52.0,37.0,-11.0,79.2246875,-13.045,16.705208875,30.61
2021-06-29 11:50:44.531250000,-52.0,37.0,-11.0,79.22625,-14.16,16.7047685,30.61
2021-06-29 11:50:44.539062500,-52.0,37.0,-11.0,79.2278125,-15.43,16.704328125,30.61
2021-06-29 11:50:44.546875000,-52.0,37.0,-11.0,79.229375,-16.7,16.70388775,30.61
2021-06-29 11:50:44.554687500,-52.0,37.0,-11.0,79.2309375,-17.92,16.703447375,30.61
2021-06-29 11:50:44.562500000,-52.0,37.0,-11.0,79.2325,-19.14,16.703007,30.61
2021-06-29 11:50:44.570312500,-52.0,37.0,-11.0,79.2340625,-20.045,16.702566625,30.61
2021-06-29 11:50:44.578125000,-52.0,37.0,-11.0,79.235625,-20.95,16.70212625,30.61
2021-06-29 11:50:44.585937500,-52.0,37.0,-11.0,79.2371875,-21.285,16.701685875,30.61
2021-06-29 11:50:44.593750000,-52.0,37.0,-11.0,79.23875,-21.62,16.7012455,30.61
2021-06-29 11:50:44.601562500,-52.0,37.0,-10.75,79.2403125,-21.225,16.700805125,30.61
2021-06-29 11:50:44.609375000,-52.0,37.0,-10.5,79.241875,-20.83,16.70036475,30.61
2021-06-29 11:50:44.617187500,-52.0,37.0,-10.25,79.2434375,-19.68,16.699924375,30.61
2021-06-29 11:50:44.625000000,-52.0,37.0,-10.0,79.245,-18.53,16.699483999999998,30.61
2021-06-29 11:50:44.632812500,-52.25,37.0,-10.25,79.2465625,-16.735,16.699043625,30.61
2021-06-29 11:50:44.640625000,-52.5,37.0,-10.5,79.248125,-14.94,16.69860325,30.61
2021-06-29 11:50:44.648437500,-52.75,37.0,-10.75,79.2496875,-12.715,16.698162875,30.61
2021-06-29 11:50:44.656250000,-53.0,37.0,-11.0,79.25125,-10.49,16.6977225,30.61
2021-06-29 11:50:44.664062500,-52.75,37.0,-11.0,79.25281249999999,-8.09,16.697282125,30.61
2021-06-29 11:50:44.671875000,-52.5,37.0,-11.0,79.254375,-5.69,16.69684175,30.61
2021-06-29 11:50:44.679687500,-52.25,37.0,-11.0,79.2559375,-3.3800000000000003,16.696401375,30.61
2021-06-29 11:50:44.687500000,-52.0,37.0,-11.0,79.2575,-1.07,16.695961,30.61
2021-06-29 11:50:44.695312500,-52.0,37.0,-11.0,79.2590625,0.9600000000000002,16.695520625,30.61
2021-06-29 11:50:44.703125000,-52.0,37.0,-11.0,79.26062499999999,2.99,16.69508025,30.61
2021-06-29 11:50:44.710937500,-52.0,37.0,-11.0,79.2621875,4.665,16.694639875,30.61
2021-06-29 11:50:44.718750000,-52.0,37.0,-11.0,79.26375,6.34,16.6941995,30.61
2021-06-29 11:50:44.726562500,-52.0,37.0,-11.0,79.2653125,7.665,16.693759125,30.61
2021-06-29 11:50:44.734375000,-52.0,37.0,-11.0,79.266875,8.99,16.69331875,30.61
2021-06-29 11:50:44.742187500,-52.0,37.0,-11.0,79.26843749999999,10.07,16.692878375,30.61
2021-06-29 11:50:44.750000000,-52.0,37.0,-11.0,79.27,11.15,16.692438,30.61
2021-06-29 11:50:44.757812500,-52.25,37.0,-11.0,79.2715625,12.06,16.692037624999998,30.61
2021-06-29 11:50:44.765625000,-52.5,37.0,-11.0,79.273125,12.97,16.69163725,30.61
2021-06-29 11:50:44.773437500,-52.75,37.0,-11.0,79.2746875,13.715,16.691236874999998,30.61
2021-06-29 11:50:44.781250000,-53.0,37.0,-11.0,79.27624999999999,14.46,16.6908365,30.61
2021-06-29 11:50:44.789062500,-52.75,37.0,-11.0,79.2778125,14.98,16.690436124999998,30.61
2021-06-29 11:50:44.796875000,-52.5,37.0,-11.0,79.279375,15.5,16.69003575,30.61
2021-06-29 11:50:44.804687500,-52.25,37.0,-11.0,79.2809375,15.690000000000001,16.689635374999998,30.61
2021-06-29 11:50:44.812500000,-52.0,37.0,-11.0,79.2825,15.88,16.689235,30.61
2021-06-29 11:50:44.820312500,-52.0,37.0,-11.0,79.28406249999999,15.705,16.688834625,30.61
2021-06-29 11:50:44.828125000,-52.0,37.0,-11.0,79.285625,15.53,16.68843425,30.61
2021-06-29 11:50:44.835937500,-52.0,37.0,-11.0,79.2871875,15.024999999999999,16.688033875,30.61
2021-06-29 11:50:44.843750000,-52.0,37.0,-11.0,79.28875,14.52,16.6876335,30.61
2021-06-29 11:50:44.851562500,-52.0,37.0,-11.0,79.2903125,13.825,16.687233125,30.61
2021-06-29 11:50:44.859375000,-52.0,37.0,-11.0,79.29187499999999,13.13,16.68683275,30.61
2021-06-29 11:50:44.867187500,-52.0,37.0,-11.0,79.2934375,12.43,16.686432375,30.61
2021-06-29 11:50:44.875000000,-52.0,37.0,-11.0,79.29499999999999,11.73,16.686031999999997,30.61
2021-06-29 11:50:44.882812500,-52.0,37.0,-11.0,79.2965625,11.18,16.685631625,30.61
2021-06-29 11:50:44.890625000,-52.0,37.0,-11.0,79.298125,10.63,16.685231249999998,30.61
2021-06-29 11:50:44.898437500,-52.0,37.0,-11.0,79.29968749999999,10.295000000000002,16.684830875,30.61
2021-06-29 11:50:44.906250000,-52.0,37.0,-11.0,79.30125,9.96,16.684430499999998,30.61
2021-06-29 11:50:44.914062500,-52.0,37.0,-11.0,79.30281249999999,9.84,16.684030125,30.61
2021-06-29 11:50:44.921875000,-52.0,37.0,-11.0,79.304375,9.72,16.683629749999998,30.61
2021-06-29 11:50:44.929687500,-52.0,37.0,-11.0,79.3059375,9.745000000000001,16.683229375,30.61
2021-06-29 11:50:44.937500000,-52.0,37.0,-11.0,79.30749999999999,9.77,16.682828999999998,30.61
2021-06-29 11:50:44.945312500,-52.0,37.0,-11.0,79.3090625,9.870000000000001,16.682428625,30.61
2021-06-29 11:50:44.953125000,-52.0,37.0,-11.0,79.31062499999999,9.97,16.68202825,30.61
2021-06-29 11:50:44.960937500,-52.0,37.0,-11.0,79.3121875,10.06,16.681627875,30.61
2021-06-29 11:50:44.968750000,-52.0,37.0,-11.0,79.31375,10.15,16.6812275,30.61
2021-06-29 11:50:44.976562500,-52.0,37.0,-11.0,79.31531249999999,10.185,16.680827125,30.61
2021-06-29 11:50:44.984375000,-52.0,37.0,-11.0,79.316875,10.22,16.68042675,30.61
2021-06-29 11:50:44.992187500,-52.0,37.0,-11.0,79.31843749999999,10.155000000000001,16.680026375,30.61
2021-06-29 11:50:45.000000000,-52.0,37.0,-11.0,79.32,10.09,16.679626,30.61
2021-06-29 11:50:45.007812500,-52.0,37.0,-11.0,79.32164062499999,9.865,16.67958596875,30.61
2021-06-29 11:50:45.015625000,-52.0,37.0,-11.0,79.32328125,9.64,16.6795459375,30.61
2021-06-29 11:50:45.023437500,-52.0,37.0,-11.0,79.32492187499999,9.215,16.67950590625,30.61
2021-06-29 11:50:45.031250000,-52.0,37.0,-11.0,79.3265625,8.79,16.679465874999998,30.61
2021-06-29 11:50:45.039062500,-52.0,37.0,-11.0,79.32820312499999,8.115,16.67942584375,30.61
2021-06-29 11:50:45.046875000,-52.0,37.0,-11.0,79.32984375,7.44,16.679385812499998,30.61
2021-06-29 11:50:45.054687500,-52.0,37.0,-11.0,79.33148437499999,6.51,16.67934578125,30.61
2021-06-29 11:50:45.062500000,-52.0,37.0,-11.0,79.333125,5.58,16.679305749999997,30.61
2021-06-29 11:50:45.070312500,-52.0,37.0,-11.0,79.33476562499999,4.425,16.67926571875,30.61
2021-06-29 11:50:45.078125000,-52.0,37.0,-11.0,79.33640625,3.27,16.6792256875,30.61
2021-06-29 11:50:45.085937500,-52.0,37.0,-11.0,79.33804687499999,1.99,16.67918565625,30.61
2021-06-29 11:50:45.093750000,-52.0,37.0,-11.0,79.3396875,0.71,16.679145625,30.61
2021-06-29 11:50:45.101562500,-52.0,37.0,-11.0,79.34132812499999,-0.615,16.67910559375,30.61
2021-06-29 11:50:45.109375000,-52.0,37.0,-11.0,79.34296875,-1.94,16.6790655625,30.61
2021-06-29 11:50:45.117187500,-52.0,37.0,-11.0,79.34460937499999,-3.2350000000000003,16.679025531249998,30.61
2021-06-29 11:50:45.125000000,-52.0,37.0,-11.0,79.34625,-4.53,16.6789855,30.61
2021-06-29 11:50:45.132812500,-52.0,37.0,-11.0,79.34789062499999,-5.805,16.67894546875,30.61
2021-06-29 11:50:45.140625000,-52.0,37.0,-11.0,79.34953125,-7.08,16.6789054375,30.61
2021-06-29 11:50:45.148437500,-52.0,37.0,-11.0,79.35117187499999,-8.415,16.67886540625,30.61
2021-06-29 11:50:45.156250000,-52.0,37.0,-11.0,79.3528125,-9.75,16.678825375,30.61
2021-06-29 11:50:45.164062500,-52.0,37.0,-11.0,79.35445312499999,-11.219999999999999,16.67878534375,30.61
2021-06-29 11:50:45.171875000,-52.0,37.0,-11.0,79.35609375,-12.69,16.6787453125,30.61
2021-06-29 11:50:45.179687500,-52.0,37.0,-11.0,79.35773437499999,-14.33,16.67870528125,30.61
2021-06-29 11:50:45.187500000,-52.0,37.0,-11.0,79.359375,-15.97,16.67866525,30.61
2021-06-29 11:50:45.195312500,-52.0,37.0,-11.0,79.361015625,-17.685,16.67862521875,30.61
2021-06-29 11:50:45.203125000,-52.0,37.0,-11.0,79.36265625,-19.4,16.6785851875,30.61
2021-06-29 11:50:45.210937500,-52.0,37.0,-11.0,79.364296875,-20.985,16.67854515625,30.61
2021-06-29 11:50:45.218750000,-52.0,37.0,-11.0,79.3659375,-22.57,16.678505125,30.61
2021-06-29 11:50:45.226562500,-52.0,37.0,-11.0,79.367578125,-23.73,16.67846509375,30.61
2021-06-29 11:50:45.234375000,-52.0,37.0,-11.0,79.36921875,-24.89,16.6784250625,30.61
2021-06-29 11:50:45.242187500,-52.0,37.0,-11.0,79.370859375,-25.37,16.67838503125,30.61
2021-06-29 11:50:45.250000000,-52.0,37.0,-11.0,79.3725,-25.85,16.678345,30.61
2021-06-29 11:50:45.257812500,-52.0,37.0,-11.0,79.374140625,-25.475,16.6778645625,30.61
2021-06-29 11:50:45.265625000,-52.0,37.0,-11.0,79.37578124999999,-25.1,16.677384125,30.61
2021-06-29 11:50:45.273437500,-52.0,37.0,-11.0,79.377421875,-23.85,16.6769036875,30.61
2021-06-29 11:50:45.281250000,-52.0,37.0,-11.0,79.37906249999999,-22.6,16.67642325,30.61
2021-06-29 11:50:45.289062500,-52.0,37.0,-10.75,79.380703125,-20.595,16.6759428125,30.61
2021-06-29 11:50:45.296875000,-52.0,37.0,-10.5,79.38234374999999,-18.59,16.675462375,30.61
2021-06-29 11:50:45.304687500,-52.0,37.0,-10.25,79.383984375,-16.04,16.6749819375,30.61
2021-06-29 11:50:45.312500000,-52.0,37.0,-10.0,79.38562499999999,-13.49,16.674501499999998,30.61
2021-06-29 11:50:45.320312500,-52.0,37.0,-10.25,79.387265625,-10.69,16.6740210625,30.61
2021-06-29 11:50:45.328125000,-52.0,37.0,-10.5,79.38890624999999,-7.89,16.673540625,30.61
2021-06-29 11:50:45.335937500,-52.0,37.0,-10.75,79.390546875,-5.109999999999999,16.6730601875,30.61
2021-06-29 11:50:45.343750000,-52.0,37.0,-11.0,79.39218749999999,-2.33,16.67257975,30.61
2021-06-29 11:50:45.351562500,-52.0,37.0,-11.0,79.393828125,0.19500000000000028,16.6720993125,30.61
2021-06-29 11:50:45.359375000,-52.0,37.0,-11.0,79.39546874999999,2.72,16.671618875,30.61
2021-06-29 11:50:45.367187500,-52.0,37.0,-11.0,79.397109375,4.85,16.671138437499998,30.61
2021-06-29 11:50:45.375000000,-52.0,37.0,-11.0,79.39874999999999,6.98,16.670658,30.61
2021-06-29 11:50:45.382812500,-52.0,37.0,-11.0,79.400390625,8.65,16.6701775625,30.61
2021-06-29 11:50:45.390625000,-52.0,37.0,-11.0,79.40203125,10.32,16.669697125,30.61
2021-06-29 11:50:45.398437500,-52.0,37.0,-11.0,79.403671875,11.56,16.6692166875,30.61
2021-06-29 11:50:45.406250000,-52.0,37.0,-11.0,79.4053125,12.8,16.66873625,30.61
2021-06-29 11:50:45.414062500,-52.25,37.0,-11.0,79.406953125,13.68,16.6682558125,30.61
2021-06-29 11:50:45.421875000,-52.5,37.0,-11.0,79.40859375,14.56,16.667775374999998,30.61
2021-06-29 11:50:45.429687500,-52.75,37.0,-11.0,79.410234375,15.16,16.6672949375,30.61
2021-06-29 11:50:45.437500000,-53.0,37.0,-11.0,79.411875,15.76,16.6668145,30.61
2021-06-29 11:50:45.445312500,-52.75,37.0,-11.0,79.413515625,16.19,16.6663340625,30.61
2021-06-29 11:50:45.453125000,-52.5,37.0,-11.0,79.41515625,16.62,16.665853625,30.61
2021-06-29 11:50:45.460937500,-52.25,37.0,-11.0,79.416796875,16.975,16.6653731875,30.61
2021-06-29 11:50:45.468750000,-52.0,37.0,-11.0,79.4184375,17.33,16.66489275,30.61
2021-06-29 11:50:45.476562500,-52.0,37.0,-11.0,79.420078125,17.725,16.664412312499998,30.61
2021-06-29 11:50:45.484375000,-52.0,37.0,-11.0,79.42171875,18.12,16.663931875,30.61
2021-06-29 11:50:45.492187500,-52.0,37.0,-11.0,79.423359375,18.64,16.663451437499997,30.61
2021-06-29 11:50:45.500000000,-52.0,37.0,-11.0,79.425,19.16,16.662971,30.61
2021-06-29 11:50:45.507812500,-52.0,37.0,-11.0,79.42664062499999,19.810000000000002,16.663611593749998,30.61
2021-06-29 11:50:45.515625000,-52.0,37.0,-11.0,79.42828125,20.46,16.664252187499997,30.61
2021-06-29 11:50:45.523437500,-52.0,37.0,-11.0,79.42992187499999,21.165,16.66489278125,30.61
2021-06-29 11:50:45.531250000,-52.0,37.0,-11.0,79.4315625,21.87,16.665533375,30.61
2021-06-29 11:50:45.539062500,-52.0,37.0,-11.0,79.43320312499999,22.43,16.666173968749998,30.61
2021-06-29 11:50:45.546875000,-52.0,37.0,-11.0,79.43484375,22.99,16.6668145625,30.61
2021-06-29 11:50:45.554687500,-52.0,37.0,-11.0,79.43648437499999,23.21,16.66745515625,30.61
2021-06-29 11:50:45.562500000,-52.0,37.0,-11.0,79.438125,23.43,16.66809575,30.61
2021-06-29 11:50:45.570312500,-52.0,37.0,-11.0,79.43976562499999,23.155,16.66873634375,30.61
2021-06-29 11:50:45.578125000,-52.0,37.0,-11.0,79.44140625,22.88,16.669376937499997,30.61
2021-06-29 11:50:45.585937500,-52.0,37.0,-11.0,79.443046875,22.11,16.67001753125,30.61
2021-06-29 11:50:45.593750000,-52.0,37.0,-11.0,79.4446875,21.34,16.670658125,30.61
2021-06-29 11:50:45.601562500,-52.0,37.0,-11.0,79.446328125,20.2,16.67129871875,30.61
2021-06-29 11:50:45.609375000,-52.0,37.0,-11.0,79.44796875,19.06,16.6719393125,30.61
2021-06-29 11:50:45.617187500,-52.0,37.0,-11.0,79.449609375,17.765,16.67257990625,30.61
2021-06-29 11:50:45.625000000,-52.0,37.0,-11.0,79.45125,16.47,16.6732205,30.61
2021-06-29 11:50:45.632812500,-52.0,37.0,-11.0,79.452890625,15.204999999999998,16.67386109375,30.61
2021-06-29 11:50:45.640625000,-52.0,37.0,-11.0,79.45453125,13.94,16.674501687499998,30.61
2021-06-29 11:50:45.648437500,-52.0,37.0,-11.0,79.456171875,12.809999999999999,16.67514228125,30.61
2021-06-29 11:50:45.656250000,-52.0,37.0,-11.0,79.4578125,11.68,16.675782875,30.61
2021-06-29 11:50:45.664062500,-52.0,37.0,-11.0,79.459453125,10.69,16.67642346875,30.61
2021-06-29 11:50:45.671875000,-52.0,37.0,-11.0,79.46109375,9.7,16.6770640625,30.61
2021-06-29 11:50:45.679687500,-52.0,37.0,-11.0,79.462734375,8.79,16.67770465625,30.61
2021-06-29 11:50:45.687500000,-52.0,37.0,-11.0,79.464375,7.88,16.67834525,30.61
2021-06-29 11:50:45.695312500,-52.0,37.0,-11.0,79.466015625,7.015000000000001,16.67898584375,30.61
2021-06-29 11:50:45.703125000,-52.0,37.0,-11.0,79.46765625,6.15,16.679626437499998,30.61
2021-06-29 11:50:45.710937500,-52.0,37.0,-11.0,79.469296875,5.305,16.68026703125,30.61
2021-06-29 11:50:45.718750000,-52.0,37.0,-11.0,79.4709375,4.46,16.680907625,30.61
2021-06-29 11:50:45.726562500,-52.25,37.0,-11.0,79.472578125,3.685,16.68154821875,30.61
2021-06-29 11:50:45.734375000,-52.5,37.0,-11.0,79.47421875,2.91,16.6821888125,30.61
2021-06-29 11:50:45.742187500,-52.75,37.0,-11.0,79.475859375,2.25,16.68282940625,30.61
2021-06-29 11:50:45.750000000,-53.0,37.0,-11.0,79.47749999999999,1.59,16.68347,30.61
2021-06-29 11:50:45.757812500,-52.75,36.75,-11.0,79.479140625,1.07,16.68322978125,30.61
2021-06-29 11:50:45.765625000,-52.5,36.5,-11.0,79.48078124999999,0.55,16.6829895625,30.61
2021-06-29 11:50:45.773437500,-52.25,36.25,-11.0,79.482421875,0.125,16.68274934375,30.61
2021-06-29 11:50:45.781250000,-52.0,36.0,-11.0,79.4840625,-0.3,16.682509125,30.61
2021-06-29 11:50:45.789062500,-52.0,36.0,-10.75,79.485703125,-0.7149999999999999,16.68226890625,30.61
2021-06-29 11:50:45.796875000,-52.0,36.0,-10.5,79.48734375,-1.13,16.6820286875,30.61
2021-06-29 11:50:45.804687500,-52.0,36.0,-10.25,79.488984375,-1.65,16.68178846875,30.61
2021-06-29 11:50:45.812500000,-52.0,36.0,-10.0,79.490625,-2.17,16.68154825,30.61
2021-06-29 11:50:45.820312500,-52.0,36.25,-10.25,79.492265625,-2.925,16.68130803125,30.61
2021-06-29 11:50:45.828125000,-52.0,36.5,-10.5,79.49390625,-3.68,16.6810678125,30.61
2021-06-29 11:50:45.835937500,-52.0,36.75,-10.75,79.495546875,-4.745,16.68082759375,30.61
2021-06-29 11:50:45.843750000,-52.0,37.0,-11.0,79.4971875,-5.81,16.680587374999998,30.61
2021-06-29 11:50:45.851562500,-52.25,37.0,-11.0,79.498828125,-7.234999999999999,16.68034715625,30.61
2021-06-29 11:50:45.859375000,-52.5,37.0,-11.0,79.50046875,-8.66,16.6801069375,30.61
2021-06-29 11:50:45.867187500,-52.75,37.0,-11.0,79.502109375,-10.375,16.67986671875,30.61
2021-06-29 11:50:45.875000000,-53.0,37.0,-11.0,79.50375,-12.09,16.679626499999998,30.61
2021-06-29 11:50:45.882812500,-52.75,37.0,-11.0,79.505390625,-13.94,16.67938628125,30.61
2021-06-29 11:50:45.890625000,-52.5,37.0,-11.0,79.50703125,-15.79,16.6791460625,30.61
2021-06-29 11:50:45.898437500,-52.25,37.0,-11.0,79.508671875,-17.535,16.678905843749998,30.61
2021-06-29 11:50:45.906250000,-52.0,37.0,-11.0,79.5103125,-19.28,16.678665625,30.61
2021-06-29 11:50:45.914062500,-52.0,37.0,-11.0,79.511953125,-20.62,16.67842540625,30.61
2021-06-29 11:50:45.921875000,-52.0,37.0,-11.0,79.51359375,-21.96,16.6781851875,30.61
2021-06-29 11:50:45.929687500,-52.0,37.0,-11.0,79.515234375,-22.65,16.677944968749998,30.61
2021-06-29 11:50:45.937500000,-52.0,37.0,-11.0,79.516875,-23.34,16.67770475,30.61
2021-06-29 11:50:45.945312500,-52.0,37.0,-11.0,79.518515625,-23.22,16.67746453125,30.61
2021-06-29 11:50:45.953125000,-52.0,37.0,-11.0,79.52015625,-23.1,16.677224312499998,30.61
2021-06-29 11:50:45.960937500,-52.0,37.0,-11.0,79.521796875,-22.195,16.67698409375,30.61
2021-06-29 11:50:45.968750000,-52.0,37.0,-11.0,79.5234375,-21.29,16.676743875,30.61
2021-06-29 11:50:45.976562500,-52.25,37.0,-11.0,79.52507812500001,-19.72,16.67650365625,30.61
2021-06-29 11:50:45.984375000,-52.5,37.0,-11.0,79.52671875,-18.15,16.676263437499998,30.61
2021-06-29 11:50:45.992187500,-52.75,37.0,-11.0,79.52835937500001,-16.14,16.67602321875,30.61
2021-06-29 11:50:46.000000000,-53.0,37.0,-11.0,79.53,-14.13,16.675783,30.61
2021-06-29 11:50:46.007812500,-52.75,37.0,-11.0,79.5325,-11.895,16.67638353125,30.609375
2021-06-29 11:50:46.015625000,-52.5,37.0,-11.0,79.535,-9.66,16.6769840625,30.60875
2021-06-29 11:50:46.023437500,-52.25,37.0,-11.0,79.5375,-7.37,16.677584593749998,30.608125
2021-06-29 11:50:46.031250000,-52.0,37.0,-11.0,79.54,-5.08,16.678185125,30.607499999999998
2021-06-29 11:50:46.039062500,-52.0,37.0,-11.0,79.5425,-2.865,16.67878565625,30.606875
2021-06-29 11:50:46.046875000,-52.0,37.0,-11.0,79.545,-0.65,16.6793861875,30.60625
2021-06-29 11:50:46.054687500,-52.0,37.0,-11.0,79.5475,1.375,16.679986718749998,30.605625
2021-06-29 11:50:46.062500000,-52.0,37.0,-11.0,79.55,3.4,16.68058725,30.605
2021-06-29 11:50:46.070312500,-52.25,37.0,-11.0,79.5525,5.125,16.68118778125,30.604375
2021-06-29 11:50:46.078125000,-52.5,37.0,-11.0,79.555,6.85,16.6817883125,30.603749999999998
2021-06-29 11:50:46.085937500,-52.75,37.0,-11.0,79.5575,8.184999999999999,16.68238884375,30.603125
2021-06-29 11:50:46.093750000,-53.0,37.0,-11.0,79.56,9.52,16.682989375,30.6025
2021-06-29 11:50:46.101562500,-52.75,37.0,-11.0,79.5625,10.415,16.68358990625,30.601875
2021-06-29 11:50:46.109375000,-52.5,37.0,-11.0,79.565,11.31,16.6841904375,30.60125
2021-06-29 11:50:46.117187500,-52.25,37.0,-11.0,79.5675,11.82,16.68479096875,30.600625
2021-06-29 11:50:46.125000000,-52.0,37.0,-11.0,79.57,12.33,16.6853915,30.6
2021-06-29 11:50:46.132812500,-52.0,37.0,-11.0,79.5725,12.565000000000001,16.68599203125,30.599375
2021-06-29 11:50:46.140625000,-52.0,37.0,-11.0,79.575,12.8,16.6865925625,30.59875
2021-06-29 11:50:46.148437500,-52.0,37.0,-11.0,79.5775,12.92,16.68719309375,30.598125
2021-06-29 11:50:46.156250000,-52.0,37.0,-11.0,79.58,13.04,16.687793625,30.5975
2021-06-29 11:50:46.164062500,-52.0,37.0,-11.0,79.5825,13.175,16.68839415625,30.596875
2021-06-29 11:50:46.171875000,-52.0,37.0,-11.0,79.585,13.31,16.6889946875,30.59625
2021-06-29 11:50:46.179687500,-52.0,37.0,-11.0,79.5875,13.530000000000001,16.68959521875,30.595625
2021-06-29 11:50:46.187500000,-52.0,37.0,-11.0,79.59,13.75,16.69019575,30.595
2021-06-29 11:50:46.195312500,-52.0,37.0,-11.0,79.5925,14.04,16.69079628125,30.594375
2021-06-29 11:50:46.203125000,-52.0,37.0,-11.0,79.595,14.33,16.6913968125,30.59375
2021-06-29 11:50:46.210937500,-52.0,37.0,-11.0,79.5975,14.605,16.69199734375,30.593125
2021-06-29 11:50:46.218750000,-52.0,37.0,-11.0,79.6,14.88,16.692597875,30.5925
2021-06-29 11:50:46.226562500,-52.0,37.0,-11.0,79.6025,15.07,16.69319840625,30.591874999999998
2021-06-29 11:50:46.234375000,-52.0,37.0,-11.0,79.605,15.26,16.6937989375,30.59125
2021-06-29 11:50:46.242187500,-52.0,37.0,-11.0,79.6075,15.285,16.69439946875,30.590625
2021-06-29 11:50:46.250000000,-52.0,37.0,-11.0,79.61,15.31,16.695,30.59
2021-06-29 11:50:46.257812500,-52.25,37.0,-11.0,79.6125,15.145,16.695,30.59
2021-06-29 11:50:46.265625000,-52.5,37.0,-11.0,79.615,14.98,16.695,30.59
2021-06-29 11:50:46.273437500,-52.75,37.0,-11.0,79.61749999999999,14.65,16.695,30.59
2021-06-29 11:50:46.281250000,-53.0,37.0,-11.0,79.62,14.32,16.695,30.59
2021-06-29 11:50:46.289062500,-52.75,37.0,-11.0,79.6225,13.865,16.695,30.59
2021-06-29 11:50:46.296875000,-52.5,37.0,-11.0,79.625,13.41,16.695,30.59
2021-06-29 11:50:46.304687500,-52.25,37.0,-11.0,79.6275,12.905000000000001,16.695,30.59
2021-06-29 11:50:46.312500000,-52.0,37.0,-11.0,79.63,12.4,16.695,30.59
2021-06-29 11:50:46.320312500,-52.0,37.0,-11.0,79.6325,11.925,16.695,30.59
2021-06-29 11:50:46.328125000,-52.0,37.0,-11.0,79.635,11.45,16.695,30.59
2021-06-29 11:50:46.335937500,-52.0,37.0,-11.0,79.6375,11.055,16.695,30.59
2021-06-29 11:50:46.343750000,-52.0,37.0,-11.0,79.64,10.66,16.695,30.59
2021-06-29 11:50:46.351562500,-52.0,37.0,-11.0,79.6425,10.385,16.695,30.59
2021-06-29 11:50:46.359375000,-52.0,37.0,-11.0,79.645,10.11,16.695,30.59
2021-06-29 11:50:46.367187500,-52.0,37.0,-11.0,79.6475,9.955,16.695,30.59
2021-06-29 11:50:46.375000000,-52.0,37.0,-11.0,79.65,9.8,16.695,30.59
2021-06-29 11:50:46.382812500,-52.0,37.0,-11.0,79.6525,9.72,16.695,30.59
2021-06-29 11:50:46.390625000,-52.0,37.0,-11.0,79.655,9.64,16.695,30.59
2021-06-29 11:50:46.398437500,-52.0,37.0,-11.0,79.6575,9.55,16.695,30.59
2021-06-29 11:50:46.406250000,-52.0,37.0,-11.0,79.66,9.46,16.695,30.59
2021-06-29 11:50:46.414062500,-52.0,37.0,-11.0,79.6625,9.245000000000001,16.695,30.59
2021-06-29 11:50:46.421875000,-52.0,37.0,-11.0,79.66499999999999,9.03,16.695,30.59
2021-06-29 11:50:46.429687500,-52.0,37.0,-11.0,79.6675,8.55,16.695,30.59
2021-06-29 11:50:46.437500000,-52.0,37.0,-11.0,79.67,8.07,16.695,30.59
2021-06-29 11:50:46.445312500,-52.0,37.0,-11.0,79.6725,7.225,16.695,30.59
2021-06-29 11:50:46.453125000,-52.0,37.0,-11.0,79.675,6.38,16.695,30.59
2021-06-29 11:50:46.460937500,-52.0,37.0,-11.0,79.6775,5.16,16.695,30.59
2021-06-29 11:50:46.468750000,-52.0,37.0,-11.0,79.67999999999999,3.94,16.695,30.59
2021-06-29 11:50:46.476562500,-52.25,37.0,-11.0,79.6825,2.435,16.695,30.59
2021-06-29 11:50:46.484375000,-52.5,37.0,-11.0,79.685,0.93,16.695,30.59
2021-06-29 11:50:46.492187500,-52.75,37.0,-11.0,79.6875,-0.6900000000000001,16.695,30.59
2021-06-29 11:50:46.500000000,-53.0,37.0,-11.0,79.69,-2.31,16.695,30.59
2021-06-29 11:50:46.507812500,-53.0,37.0,-11.0,79.6925,-3.8550000000000004,16.694959937500002,30.59
2021-06-29 11:50:46.515625000,-53.0,37.0,-11.0,79.695,-5.4,16.694919875,30.59
2021-06-29 11:50:46.523437500,-53.0,37.0,-11.0,79.69749999999999,-6.74,16.6948798125,30.59
2021-06-29 11:50:46.531250000,-53.0,37.0,-11.0,79.7,-8.08,16.69483975,30.59
2021-06-29 11:50:46.539062500,-52.75,37.0,-11.0,79.7025,-9.184999999999999,16.6947996875,30.59
2021-06-29 11:50:46.546875000,-52.5,37.0,-11.0,79.705,-10.29,16.694759625,30.59
2021-06-29 11:50:46.554687500,-52.25,37.0,-11.0,79.7075,-11.225,16.6947195625,30.59
2021-06-29 11:50:46.562500000,-52.0,37.0,-11.0,79.71,-12.16,16.6946795,30.59
2021-06-29 11:50:46.570312500,-52.0,37.0,-11.0,79.71249999999999,-13.035,16.6946394375,30.59
2021-06-29 11:50:46.578125000,-52.0,37.0,-11.0,79.715,-13.91,16.694599375,30.59
2021-06-29 11:50:46.585937500,-52.0,37.0,-11.0,79.7175,-14.8,16.6945593125,30.59
2021-06-29 11:50:46.593750000,-52.0,37.0,-11.0,79.72,-15.69,16.69451925,30.59
2021-06-29 11:50:46.601562500,-52.0,37.0,-11.0,79.7225,-16.58,16.6944791875,30.59
2021-06-29 11:50:46.609375000,-52.0,37.0,-11.0,79.725,-17.47,16.694439125,30.59
2021-06-29 11:50:46.617187500,-52.0,37.0,-11.0,79.72749999999999,-18.28,16.6943990625,30.59
2021-06-29 11:50:46.625000000,-52.0,37.0,-11.0,79.72999999999999,-19.09,16.694359,30.59
2021-06-29 11:50:46.632812500,-52.0,37.0,-11.0,79.7325,-19.675,16.6943189375,30.59
2021-06-29 11:50:46.640625000,-52.0,37.0,-11.0,79.735,-20.26,16.694278875000002,30.59
2021-06-29 11:50:46.648437500,-52.0,37.0,-11.0,79.7375,-20.515,16.6942388125,30.59
2021-06-29 11:50:46.656250000,-52.0,37.0,-11.0,79.74,-20.77,16.69419875,30.59
2021-06-29 11:50:46.664062500,-52.0,37.0,-11.0,79.74249999999999,-20.625,16.6941586875,30.59
2021-06-29 11:50:46.671875000,-52.0,37.0,-11.0,79.74499999999999,-20.48,16.694118625,30.59
2021-06-29 11:50:46.679687500,-52.0,37.0,-11.0,79.7475,-19.92,16.6940785625,30.59
2021-06-29 11:50:46.687500000,-52.0,37.0,-11.0,79.75,-19.36,16.6940385,30.59
2021-06-29 11:50:46.695312500,-52.0,37.0,-11.0,79.7525,-18.4,16.6939984375,30.59
2021-06-29 11:50:46.703125000,-52.0,37.0,-11.0,79.755,-17.44,16.693958375,30.59
2021-06-29 11:50:46.710937500,-52.0,37.0,-11.0,79.7575,-16.165,16.6939183125,30.59
2021-06-29 11:50:46.718750000,-52.0,37.0,-11.0,79.75999999999999,-14.89,16.69387825,30.59
2021-06-29 11:50:46.726562500,-52.0,37.0,-11.0,79.7625,-13.385000000000002,16.6938381875,30.59
2021-06-29 11:50:46.734375000,-52.0,37.0,-11.0,79.765,-11.88,16.693798125,30.59
2021-06-29 11:50:46.742187500,-52.0,37.0,-11.0,79.7675,-10.255,16.6937580625,30.59
2021-06-29 11:50:46.750000000,-52.0,37.0,-11.0,79.77,-8.63,16.693718,30.59
2021-06-29 11:50:46.757812500,-52.0,37.0,-11.0,79.7725,-6.995000000000001,16.693678000000002,30.59
2021-06-29 11:50:46.765625000,-52.0,37.0,-11.0,79.77499999999999,-5.36,16.693638,30.59
2021-06-29 11:50:46.773437500,-52.0,37.0,-11.0,79.77749999999999,-3.805,16.693598,30.59
2021-06-29 11:50:46.781250000,-52.0,37.0,-11.0,79.78,-2.25,16.693558,30.59
2021-06-29 11:50:46.789062500,-52.0,37.0,-11.0,79.7825,-0.8049999999999999,16.693518,30.59
2021-06-29 11:50:46.796875000,-52.0,37.0,-11.0,79.785,0.64,16.693478,30.59
2021-06-29 11:50:46.804687500,-52.0,37.0,-11.0,79.7875,1.9699999999999998,16.693438,30.59
2021-06-29 11:50:46.812500000,-52.0,37.0,-11.0,79.78999999999999,3.3,16.693398000000002,30.59
2021-06-29 11:50:46.820312500,-52.0,37.0,-11.0,79.79249999999999,4.555,16.693358,30.59
2021-06-29 11:50:46.828125000,-52.0,37.0,-11.0,79.795,5.81,16.693318,30.59
2021-06-29 11:50:46.835937500,-52.0,37.0,-11.0,79.7975,7.0,16.693278,30.59
2021-06-29 11:50:46.843750000,-52.0,37.0,-11.0,79.8,8.19,16.693238,30.59
2021-06-29 11:50:46.851562500,-52.0,37.0,-10.75,79.8025,9.305,16.693198,30.59
2021-06-29 11:50:46.859375000,-52.0,37.0,-10.5,79.80499999999999,10.42,16.693158,30.59
2021-06-29 11:50:46.867187500,-52.0,37.0,-10.25,79.80749999999999,11.425,16.693118,30.59
2021-06-29 11:50:46.875000000,-52.0,37.0,-10.0,79.81,12.43,16.693078,30.59
2021-06-29 11:50:46.882812500,-52.0,37.0,-10.25,79.8125,13.25,16.693038,30.59
2021-06-29 11:50:46.890625000,-52.0,37.0,-10.5,79.815,14.07,16.692998,30.59
2021-06-29 11:50:46.898437500,-52.0,37.0,-10.75,79.8175,14.629999999999999,16.692958,30.59
2021-06-29 11:50:46.906250000,-52.0,37.0,-11.0,79.82,15.19,16.692918,30.59
2021-06-29 11:50:46.914062500,-52.0,37.0,-11.0,79.82249999999999,15.42,16.692878,30.59
2021-06-29 11:50:46.921875000,-52.0,37.0,-11.0,79.82499999999999,15.65,16.692838,30.59
2021-06-29 11:50:46.929687500,-52.0,37.0,-11.0,79.8275,15.535,16.692798,30.59
2021-06-29 11:50:46.937500000,-52.0,37.0,-11.0,79.83,15.42,16.692757999999998,30.59
2021-06-29 11:50:46.945312500,-52.0,37.0,-11.0,79.8325,14.969999999999999,16.692718,30.59
2021-06-29 11:50:46.953125000,-52.0,37.0,-11.0,79.835,14.52,16.692678,30.59
2021-06-29 11:50:46.960937500,-52.0,37.0,-11.0,79.83749999999999,13.83,16.692638,30.59
2021-06-29 11:50:46.968750000,-52.0,37.0,-11.0,79.83999999999999,13.14,16.692598,30.59
2021-06-29 11:50:46.976562500,-52.0,37.0,-11.0,79.8425,12.355,16.692558,30.59
2021-06-29 11:50:46.984375000,-52.0,37.0,-11.0,79.845,11.57,16.692518,30.59
2021-06-29 11:50:46.992187500,-52.0,37.0,-11.0,79.8475,10.835,16.692477999999998,30.59
2021-06-29 11:50:47.000000000,-52.0,37.0,-11.0,79.85,10.1,16.692438,30.59
2021-06-29 11:50:47.007812500,-52.25,37.0,-11.0,79.852578125,9.58,16.692477999999998,30.59
2021-06-29 11:50:47.015625000,-52.5,37.0,-11.0,79.85515625,9.06,16.692518,30.59
2021-06-29 11:50:47.023437500,-52.75,37.0,-11.0,79.85773437499999,8.855,16.692558,30.59
2021-06-29 11:50:47.031250000,-53.0,37.0,-11.0,79.86031249999999,8.65,16.692598,30.59
2021-06-29 11:50:47.039062500,-52.75,37.0,-11.0,79.86289062499999,8.785,16.692638,30.59
2021-06-29 11:50:47.046875000,-52.5,37.0,-11.0,79.86546874999999,8.92,16.692678,30.59
2021-06-29 11:50:47.054687500,-52.25,37.0,-11.0,79.86804687499999,9.365,16.692718,30.59
2021-06-29 11:50:47.062500000,-52.0,37.0,-11.0,79.87062499999999,9.81,16.692757999999998,30.59
2021-06-29 11:50:47.070312500,-52.0,37.0,-11.0,79.87320312499999,10.47,16.692798,30.59
2021-06-29 11:50:47.078125000,-52.0,37.0,-11.0,79.87578124999999,11.13,16.692838,30.59
2021-06-29 11:50:47.085937500,-52.0,37.0,-11.0,79.878359375,11.845,16.692878,30.59
2021-06-29 11:50:47.093750000,-52.0,37.0,-11.0,79.8809375,12.56,16.692918,30.59
2021-06-29 11:50:47.101562500,-52.0,37.0,-11.0,79.883515625,13.165,16.692958,30.59
2021-06-29 11:50:47.109375000,-52.0,37.0,-11.0,79.88609375,13.77,16.692998,30.59
2021-06-29 11:50:47.117187500,-52.0,37.0,-11.0,79.888671875,14.105,16.693038,30.59
2021-06-29 11:50:47.125000000,-52.0,37.0,-11.0,79.89125,14.44,16.693078,30.59
2021-06-29 11:50:47.132812500,-52.0,37.0,-11.0,79.893828125,14.375,16.693118,30.59
2021-06-29 11:50:47.140625000,-52.0,37.0,-11.0,79.89640625,14.31,16.693158,30.59
2021-06-29 11:50:47.148437500,-52.0,37.0,-11.0,79.898984375,13.815000000000001,16.693198,30.59
2021-06-29 11:50:47.156250000,-52.0,37.0,-11.0,79.9015625,13.32,16.693238,30.59
2021-06-29 11:50:47.164062500,-52.0,37.0,-11.0,79.904140625,12.415,16.693278,30.59
2021-06-29 11:50:47.171875000,-52.0,37.0,-11.0,79.90671875,11.51,16.693318,30.59
2021-06-29 11:50:47.179687500,-52.0,37.0,-11.0,79.909296875,10.29,16.693358,30.59
2021-06-29 11:50:47.187500000,-52.0,37.0,-11.0,79.911875,9.07,16.693398000000002,30.59
2021-06-29 11:50:47.195312500,-52.0,37.0,-11.0,79.914453125,7.665,16.693438,30.59
2021-06-29 11:50:47.203125000,-52.0,37.0,-11.0,79.91703125,6.26,16.693478,30.59
2021-06-29 11:50:47.210937500,-52.0,37.0,-11.0,79.919609375,4.8,16.693518,30.59
2021-06-29 11:50:47.218750000,-52.0,37.0,-11.0,79.92218749999999,3.34,16.693558,30.59
2021-06-29 11:50:47.226562500,-52.0,37.0,-11.0,79.92476562499999,1.9549999999999998,16.693598,30.59
2021-06-29 11:50:47.234375000,-52.0,37.0,-11.0,79.92734374999999,0.57,16.693638,30.59
2021-06-29 11:50:47.242187500,-52.0,37.0,-11.0,79.92992187499999,-0.65,16.693678000000002,30.59
2021-06-29 11:50:47.250000000,-52.0,37.0,-11.0,79.9325,-1.87,16.693718,30.59
2021-06-29 11:50:47.257812500,-52.0,37.0,-11.0,79.935078125,-2.855,16.69359790625,30.59
2021-06-29 11:50:47.265625000,-52.0,37.0,-11.0,79.93765625,-3.84,16.6934778125,30.59
2021-06-29 11:50:47.273437500,-52.0,37.0,-11.0,79.940234375,-4.615,16.69335771875,30.59
2021-06-29 11:50:47.281250000,-52.0,37.0,-11.0,79.9428125,-5.39,16.693237625000002,30.59
2021-06-29 11:50:47.289062500,-52.0,37.0,-11.0,79.945390625,-6.015,16.69311753125,30.59
2021-06-29 11:50:47.296875000,-52.0,37.0,-11.0,79.94796875,-6.64,16.6929974375,30.59
2021-06-29 11:50:47.304687500,-52.0,37.0,-11.0,79.950546875,-7.27,16.692877343750002,30.59
2021-06-29 11:50:47.312500000,-52.0,37.0,-11.0,79.953125,-7.9,16.69275725,30.59
2021-06-29 11:50:47.320312500,-52.0,37.0,-11.0,79.955703125,-8.695,16.69263715625,30.59
2021-06-29 11:50:47.328125000,-52.0,37.0,-11.0,79.95828125,-9.49,16.692517062500002,30.59
2021-06-29 11:50:47.335937500,-52.0,37.0,-11.0,79.960859375,-10.600000000000001,16.69239696875,30.59
2021-06-29 11:50:47.343750000,-52.0,37.0,-11.0,79.9634375,-11.71,16.692276875,30.59
2021-06-29 11:50:47.351562500,-52.0,37.0,-11.0,79.966015625,-13.14,16.692156781250002,30.59
2021-06-29 11:50:47.359375000,-52.0,37.0,-11.0,79.96859375,-14.57,16.6920366875,30.59
2021-06-29 11:50:47.367187500,-52.0,37.0,-11.0,79.971171875,-16.2,16.69191659375,30.59
2021-06-29 11:50:47.375000000,-52.0,37.0,-11.0,79.97375,-17.83,16.691796500000002,30.59
2021-06-29 11:50:47.382812500,-52.0,37.0,-11.0,79.976328125,-19.405,16.69167640625,30.59
2021-06-29 11:50:47.390625000,-52.0,37.0,-11.0,79.97890625,-20.98,16.6915563125,30.59
2021-06-29 11:50:47.398437500,-52.0,37.0,-11.0,79.981484375,-22.195,16.69143621875,30.59
2021-06-29 11:50:47.406250000,-52.0,37.0,-11.0,79.9840625,-23.41,16.691316125,30.59
2021-06-29 11:50:47.414062500,-52.0,37.0,-11.0,79.98664062499999,-24.015,16.69119603125,30.59
2021-06-29 11:50:47.421875000,-52.0,37.0,-11.0,79.98921875,-24.62,16.6910759375,30.59
2021-06-29 11:50:47.429687500,-52.0,37.0,-11.0,79.991796875,-24.505000000000003,16.69095584375,30.59
2021-06-29 11:50:47.437500000,-52.0,37.0,-11.0,79.994375,-24.39,16.69083575,30.59
2021-06-29 11:50:47.445312500,-52.0,37.0,-11.0,79.996953125,-23.625,16.69071565625,30.59
2021-06-29 11:50:47.453125000,-52.0,37.0,-11.0,79.99953125,-22.86,16.6905955625,30.59
2021-06-29 11:50:47.460937500,-52.0,37.0,-11.0,80.002109375,-21.655,16.69047546875,30.59
2021-06-29 11:50:47.468750000,-52.0,37.0,-11.0,80.0046875,-20.45,16.690355375,30.59
2021-06-29 11:50:47.476562500,-52.0,37.0,-11.0,80.007265625,-19.025,16.69023528125,30.59
2021-06-29 11:50:47.484375000,-52.0,37.0,-11.0,80.00984375,-17.6,16.690115187500002,30.59
2021-06-29 11:50:47.492187500,-52.0,37.0,-11.0,80.012421875,-16.15,16.68999509375,30.59
2021-06-29 11:50:47.500000000,-52.0,37.0,-11.0,80.015,-14.7,16.689875,30.59
2021-06-29 11:50:47.507812500,-52.0,37.0,-11.0,80.017578125,-13.33,16.6897949375,30.59
2021-06-29 11:50:47.515625000,-52.0,37.0,-11.0,80.02015625,-11.96,16.689714875,30.59
2021-06-29 11:50:47.523437500,-52.0,37.0,-11.0,80.022734375,-10.66,16.6896348125,30.59
2021-06-29 11:50:47.531250000,-52.0,37.0,-11.0,80.0253125,-9.36,16.68955475,30.59
2021-06-29 11:50:47.539062500,-52.0,37.0,-11.0,80.027890625,-8.1,16.6894746875,30.59
2021-06-29 11:50:47.546875000,-52.0,37.0,-11.0,80.03046875,-6.84,16.689394625000002,30.59
2021-06-29 11:50:47.554687500,-52.0,37.0,-11.0,80.033046875,-5.59,16.6893145625,30.59
2021-06-29 11:50:47.562500000,-52.0,37.0,-11.0,80.035625,-4.34,16.6892345,30.59
2021-06-29 11:50:47.570312500,-52.0,37.0,-11.0,80.038203125,-3.075,16.6891544375,30.59
2021-06-29 11:50:47.578125000,-52.0,37.0,-11.0,80.04078125,-1.81,16.689074375,30.59
2021-06-29 11:50:47.585937500,-52.0,37.0,-11.0,80.04335937500001,-0.5550000000000002,16.6889943125,30.59
2021-06-29 11:50:47.593750000,-52.0,37.0,-11.0,80.04593750000001,0.7,16.68891425,30.59
2021-06-29 11:50:47.601562500,-52.0,37.0,-11.0,80.04851562500001,1.9200000000000002,16.6888341875,30.59
2021-06-29 11:50:47.609375000,-52.0,37.0,-11.0,80.05109375,3.14,16.688754125,30.59
2021-06-29 11:50:47.617187500,-52.0,37.0,-11.0,80.053671875,4.265,16.6886740625,30.59
2021-06-29 11:50:47.625000000,-52.0,37.0,-11.0,80.05625,5.39,16.688594000000002,30.59
2021-06-29 11:50:47.632812500,-52.0,37.0,-11.0,80.058828125,6.35,16.6885139375,30.59
2021-06-29 11:50:47.640625000,-52.0,37.0,-11.0,80.06140625,7.31,16.688433875,30.59
2021-06-29 11:50:47.648437500,-52.0,37.0,-11.0,80.063984375,8.025,16.6883538125,30.59
2021-06-29 11:50:47.656250000,-52.0,37.0,-11.0,80.0665625,8.74,16.68827375,30.59
2021-06-29 11:50:47.664062500,-52.0,37.0,-11.0,80.069140625,9.15,16.6881936875,30.59
2021-06-29 11:50:47.671875000,-52.0,37.0,-11.0,80.07171875,9.56,16.688113625,30.59
2021-06-29 11:50:47.679687500,-52.0,37.0,-11.0,80.074296875,9.645,16.6880335625,30.59
2021-06-29 11:50:47.687500000,-52.0,37.0,-11.0,80.076875,9.73,16.6879535,30.59
2021-06-29 11:50:47.695312500,-52.0,37.0,-11.0,80.079453125,9.55,16.6878734375,30.59
2021-06-29 11:50:47.703125000,-52.0,37.0,-11.0,80.08203125,9.37,16.687793375,30.59
2021-06-29 11:50:47.710937500,-52.0,37.0,-11.0,80.084609375,9.035,16.6877133125,30.59
2021-06-29 11:50:47.718750000,-52.0,37.0,-11.0,80.0871875,8.7,16.68763325,30.59
2021-06-29 11:50:47.726562500,-52.0,37.0,-11.0,80.089765625,8.33,16.6875531875,30.59
2021-06-29 11:50:47.734375000,-52.0,37.0,-11.0,80.09234375,7.96,16.687473125,30.59
2021-06-29 11:50:47.742187500,-52.0,37.0,-11.0,80.094921875,7.66,16.6873930625,30.59
2021-06-29 11:50:47.750000000,-52.0,37.0,-11.0,80.0975,7.36,16.687313,30.59
2021-06-29 11:50:47.757812500,-52.0,37.0,-11.0,80.10007812500001,7.17,16.68723296875,30.59
2021-06-29 11:50:47.765625000,-52.0,37.0,-11.0,80.10265625000001,6.98,16.6871529375,30.59
2021-06-29 11:50:47.773437500,-52.0,37.0,-11.0,80.10523437500001,6.895,16.68707290625,30.59
2021-06-29 11:50:47.781250000,-52.0,37.0,-11.0,80.10781250000001,6.81,16.686992875,30.59
2021-06-29 11:50:47.789062500,-52.0,37.0,-11.0,80.11039062500001,6.8,16.68691284375,30.59
2021-06-29 11:50:47.796875000,-52.0,37.0,-11.0,80.11296875000001,6.79,16.6868328125,30.59
2021-06-29 11:50:47.804687500,-52.0,37.0,-11.0,80.115546875,6.84,16.68675278125,30.59
2021-06-29 11:50:47.812500000,-52.0,37.0,-11.0,80.118125,6.89,16.68667275,30.59
2021-06-29 11:50:47.820312500,-52.0,37.0,-11.0,80.120703125,6.99,16.68659271875,30.59
2021-06-29 11:50:47.828125000,-52.0,37.0,-11.0,80.12328125,7.09,16.6865126875,30.59
2021-06-29 11:50:47.835937500,-52.0,37.0,-11.0,80.125859375,7.205,16.68643265625,30.59
2021-06-29 11:50:47.843750000,-52.0,37.0,-11.0,80.1284375,7.32,16.686352624999998,30.59
2021-06-29 11:50:47.851562500,-52.0,37.0,-11.0,80.131015625,7.4,16.68627259375,30.59
2021-06-29 11:50:47.859375000,-52.0,37.0,-11.0,80.13359375,7.48,16.6861925625,30.59
2021-06-29 11:50:47.867187500,-52.0,37.0,-11.0,80.136171875,7.43,16.68611253125,30.59
2021-06-29 11:50:47.875000000,-52.0,37.0,-11.0,80.13875,7.38,16.6860325,30.59
2021-06-29 11:50:47.882812500,-52.0,37.0,-11.0,80.141328125,7.12,16.68595246875,30.59
2021-06-29 11:50:47.890625000,-52.0,37.0,-11.0,80.14390625,6.86,16.6858724375,30.59
2021-06-29 11:50:47.898437500,-52.0,37.0,-11.0,80.146484375,6.355,16.68579240625,30.59
2021-06-29 11:50:47.906250000,-52.0,37.0,-11.0,80.1490625,5.85,16.685712375,30.59
2021-06-29 11:50:47.914062500,-52.0,37.0,-11.0,80.151640625,5.135,16.68563234375,30.59
2021-06-29 11:50:47.921875000,-52.0,37.0,-11.0,80.15421875000001,4.42,16.6855523125,30.59
2021-06-29 11:50:47.929687500,-52.0,37.0,-11.0,80.15679687500001,3.5949999999999998,16.68547228125,30.59
2021-06-29 11:50:47.937500000,-52.0,37.0,-11.0,80.15937500000001,2.77,16.68539225,30.59
2021-06-29 11:50:47.945312500,-52.0,37.0,-11.0,80.16195312500001,1.96,16.68531221875,30.59
2021-06-29 11:50:47.953125000,-52.0,37.0,-11.0,80.16453125000001,1.15,16.6852321875,30.59
2021-06-29 11:50:47.960937500,-52.0,37.0,-11.0,80.16710937500001,0.45499999999999996,16.68515215625,30.59
2021-06-29 11:50:47.968750000,-52.0,37.0,-11.0,80.16968750000001,-0.24,16.685072124999998,30.59
2021-06-29 11:50:47.976562500,-52.0,37.0,-11.0,80.17226562500001,-0.8099999999999999,16.68499209375,30.59
2021-06-29 11:50:47.984375000,-52.0,37.0,-11.0,80.17484375000001,-1.38,16.6849120625,30.59
2021-06-29 11:50:47.992187500,-52.0,37.0,-11.0,80.17742187500001,-1.845,16.68483203125,30.59
2021-06-29 11:50:48.000000000,-52.0,37.0,-11.0,80.18,-2.31,16.684752,30.59
2021-06-29 11:50:48.007812500,-52.25,37.0,-11.0,80.1825,-2.76,16.68411140625,30.590625
2021-06-29 11:50:48.015625000,-52.5,37.0,-11.0,80.185,-3.21,16.683470812499998,30.59125
2021-06-29 11:50:48.023437500,-52.75,37.0,-11.0,80.1875,-3.72,16.68283021875,30.591874999999998
2021-06-29 11:50:48.031250000,-53.0,37.0,-11.0,80.19000000000001,-4.23,16.682189625,30.5925
2021-06-29 11:50:48.039062500,-52.75,37.0,-11.0,80.19250000000001,-4.855,16.68154903125,30.593125
2021-06-29 11:50:48.046875000,-52.5,37.0,-11.0,80.19500000000001,-5.48,16.6809084375,30.59375
2021-06-29 11:50:48.054687500,-52.25,37.0,-11.0,80.1975,-6.210000000000001,16.68026784375,30.594375
2021-06-29 11:50:48.062500000,-52.0,37.0,-11.0,80.2,-6.94,16.67962725,30.595
2021-06-29 11:50:48.070312500,-52.25,37.0,-11.0,80.2025,-7.725,16.67898665625,30.595625
2021-06-29 11:50:48.078125000,-52.5,37.0,-11.0,80.20500000000001,-8.51,16.678346062499998,30.59625
2021-06-29 11:50:48.085937500,-52.75,37.0,-11.0,80.20750000000001,-9.26,16.67770546875,30.596875
2021-06-29 11:50:48.093750000,-53.0,37.0,-11.0,80.21000000000001,-10.01,16.677064875,30.5975
2021-06-29 11:50:48.101562500,-52.75,37.0,-11.0,80.2125,-10.635,16.67642428125,30.598125
2021-06-29 11:50:48.109375000,-52.5,37.0,-11.0,80.215,-11.26,16.6757836875,30.59875
2021-06-29 11:50:48.117187500,-52.25,37.0,-11.0,80.2175,-11.695,16.67514309375,30.599375
2021-06-29 11:50:48.125000000,-52.0,37.0,-11.0,80.22,-12.13,16.6745025,30.6
2021-06-29 11:50:48.132812500,-52.0,37.0,-11.0,80.22250000000001,-12.355,16.67386190625,30.600625
2021-06-29 11:50:48.140625000,-52.0,37.0,-11.0,80.22500000000001,-12.58,16.673221312499997,30.60125
2021-06-29 11:50:48.148437500,-52.0,37.0,-11.0,80.2275,-12.615,16.672580718749998,30.601875
2021-06-29 11:50:48.156250000,-52.0,37.0,-11.0,80.23,-12.65,16.671940125,30.6025
2021-06-29 11:50:48.164062500,-52.0,37.0,-11.0,80.2325,-12.555,16.67129953125,30.603125
2021-06-29 11:50:48.171875000,-52.0,37.0,-11.0,80.235,-12.46,16.6706589375,30.603749999999998
2021-06-29 11:50:48.179687500,-52.0,37.0,-11.0,80.23750000000001,-12.305,16.670018343749998,30.604375
2021-06-29 11:50:48.187500000,-52.0,37.0,-11.0,80.24000000000001,-12.15,16.66937775,30.605
2021-06-29 11:50:48.195312500,-52.0,37.0,-11.0,80.2425,-11.99,16.66873715625,30.605625
2021-06-29 11:50:48.203125000,-52.0,37.0,-11.0,80.245,-11.83,16.668096562499997,30.60625
2021-06-29 11:50:48.210937500,-52.0,37.0,-11.0,80.2475,-11.695,16.667455968749998,30.606875
2021-06-29 11:50:48.218750000,-52.0,37.0,-11.0,80.25,-11.56,16.666815375,30.607499999999998
2021-06-29 11:50:48.226562500,-52.0,37.0,-11.0,80.25250000000001,-11.440000000000001,16.66617478125,30.608125
2021-06-29 11:50:48.234375000,-52.0,37.0,-11.0,80.25500000000001,-11.32,16.6655341875,30.60875
2021-06-29 11:50:48.242187500,-52.0,37.0,-11.0,80.25750000000001,-11.165,16.664893593749998,30.609375
2021-06-29 11:50:48.250000000,-52.0,37.0,-11.0,80.26,-11.01,16.664253,30.61
2021-06-29 11:50:48.257812500,-52.0,37.0,-11.0,80.2625,-10.76,16.6646133125,30.61
2021-06-29 11:50:48.265625000,-52.0,37.0,-11.0,80.265,-10.51,16.664973625,30.61
2021-06-29 11:50:48.273437500,-52.0,37.0,-11.0,80.2675,-10.09,16.665333937499998,30.61
2021-06-29 11:50:48.281250000,-52.0,37.0,-11.0,80.27000000000001,-9.67,16.665694249999998,30.61
2021-06-29 11:50:48.289062500,-52.0,37.0,-11.0,80.27250000000001,-9.02,16.666054562499998,30.61
2021-06-29 11:50:48.296875000,-52.0,37.0,-11.0,80.275,-8.37,16.666414874999997,30.61
2021-06-29 11:50:48.304687500,-52.0,37.0,-11.0,80.2775,-7.47,16.666775187499997,30.61
2021-06-29 11:50:48.312500000,-52.0,37.0,-11.0,80.28,-6.57,16.6671355,30.61
2021-06-29 11:50:48.320312500,-52.0,37.0,-11.0,80.2825,-5.445,16.6674958125,30.61
2021-06-29 11:50:48.328125000,-52.0,37.0,-11.0,80.28500000000001,-4.32,16.667856125,30.61
2021-06-29 11:50:48.335937500,-52.0,37.0,-11.0,80.28750000000001,-3.04,16.6682164375,30.61
2021-06-29 11:50:48.343750000,-52.0,37.0,-11.0,80.29,-1.76,16.66857675,30.61
2021-06-29 11:50:48.351562500,-52.0,37.0,-11.0,80.2925,-0.42999999999999994,16.6689370625,30.61
2021-06-29 11:50:48.359375000,-52.0,37.0,-11.0,80.295,0.9,16.669297375,30.61
2021-06-29 11:50:48.367187500,-52.0,37.0,-11.0,80.2975,2.1550000000000002,16.6696576875,30.61
2021-06-29 11:50:48.375000000,-52.0,37.0,-11.0,80.30000000000001,3.41,16.670018,30.61
2021-06-29 11:50:48.382812500,-52.0,37.0,-11.0,80.30250000000001,4.505,16.6703783125,30.61
2021-06-29 11:50:48.390625000,-52.0,37.0,-11.0,80.305,5.6,16.670738625,30.61
2021-06-29 11:50:48.398437500,-52.0,37.0,-11.0,80.3075,6.435,16.6710989375,30.61
2021-06-29 11:50:48.406250000,-52.0,37.0,-11.0,80.31,7.27,16.671459249999998,30.61
2021-06-29 11:50:48.414062500,-52.0,37.0,-11.0,80.3125,7.825,16.671819562499998,30.61
2021-06-29 11:50:48.421875000,-52.0,37.0,-11.0,80.315,8.38,16.672179874999998,30.61
2021-06-29 11:50:48.429687500,-52.0,37.0,-11.0,80.31750000000001,8.66,16.672540187499997,30.61
2021-06-29 11:50:48.437500000,-52.0,37.0,-11.0,80.32000000000001,8.94,16.672900499999997,30.61
2021-06-29 11:50:48.445312500,-52.25,37.0,-11.0,80.3225,9.004999999999999,16.6732608125,30.61
2021-06-29 11:50:48.453125000,-52.5,37.0,-11.0,80.325,9.07,16.673621125,30.61
2021-06-29 11:50:48.460937500,-52.75,37.0,-11.0,80.3275,9.004999999999999,16.6739814375,30.61
2021-06-29 11:50:48.468750000,-53.0,37.0,-11.0,80.33,8.94,16.67434175,30.61
2021-06-29 11:50:48.476562500,-52.75,37.0,-11.0,80.33250000000001,8.82,16.6747020625,30.61
2021-06-29 11:50:48.484375000,-52.5,37.0,-11.0,80.33500000000001,8.7,16.675062375,30.61
2021-06-29 11:50:48.492187500,-52.25,37.0,-11.0,80.3375,8.585,16.6754226875,30.61
2021-06-29 11:50:48.500000000,-52.0,37.0,-11.0,80.34,8.47,16.675783,30.61
2021-06-29 11:50:48.507812500,-52.0,36.75,-11.0,80.3425,8.379999999999999,16.675462749999998,30.61
2021-06-29 11:50:48.515625000,-52.0,36.5,-11.0,80.345,8.29,16.6751425,30.61
2021-06-29 11:50:48.523437500,-52.0,36.25,-11.0,80.3475,8.195,16.67482225,30.61
2021-06-29 11:50:48.531250000,-52.0,36.0,-11.0,80.35000000000001,8.1,16.674502,30.61
2021-06-29 11:50:48.539062500,-52.0,36.0,-11.0,80.3525,7.949999999999999,16.67418175,30.61
2021-06-29 11:50:48.546875000,-52.0,36.0,-11.0,80.355,7.8,16.673861499999997,30.61
2021-06-29 11:50:48.554687500,-52.0,36.0,-11.0,80.3575,7.55,16.67354125,30.61
2021-06-29 11:50:48.562500000,-52.0,36.0,-11.0,80.36,7.3,16.673220999999998,30.61
2021-06-29 11:50:48.570312500,-52.25,36.25,-11.0,80.3625,6.93,16.67290075,30.61
2021-06-29 11:50:48.578125000,-52.5,36.5,-11.0,80.36500000000001,6.56,16.6725805,30.61
2021-06-29 11:50:48.585937500,-52.75,36.75,-11.0,80.3675,6.074999999999999,16.672260249999997,30.61
2021-06-29 11:50:48.593750000,-53.0,37.0,-11.0,80.37,5.59,16.67194,30.61
2021-06-29 11:50:48.601562500,-52.75,37.0,-11.0,80.3725,5.015000000000001,16.671619749999998,30.61
2021-06-29 11:50:48.609375000,-52.5,37.0,-11.0,80.375,4.44,16.6712995,30.61
2021-06-29 11:50:48.617187500,-52.25,37.0,-11.0,80.3775,3.8150000000000004,16.67097925,30.61
2021-06-29 11:50:48.625000000,-52.0,37.0,-11.0,80.38,3.19,16.670659,30.61
2021-06-29 11:50:48.632812500,-52.0,37.0,-11.0,80.38250000000001,2.59,16.67033875,30.61
2021-06-29 11:50:48.640625000,-52.0,37.0,-11.0,80.385,1.99,16.670018499999998,30.61
2021-06-29 11:50:48.648437500,-52.0,37.0,-11.0,80.3875,1.4849999999999999,16.66969825,30.61
2021-06-29 11:50:48.656250000,-52.0,37.0,-11.0,80.39,0.98,16.669378,30.61
2021-06-29 11:50:48.664062500,-52.0,37.0,-11.0,80.3925,0.665,16.66905775,30.61
2021-06-29 11:50:48.671875000,-52.0,37.0,-11.0,80.395,0.35,16.6687375,30.61
2021-06-29 11:50:48.679687500,-52.0,37.0,-11.0,80.39750000000001,0.295,16.668417249999997,30.61
2021-06-29 11:50:48.687500000,-52.0,37.0,-11.0,80.4,0.24,16.668097,30.61
2021-06-29 11:50:48.695312500,-52.0,37.0,-11.0,80.4025,0.455,16.667776749999998,30.61
2021-06-29 11:50:48.703125000,-52.0,37.0,-11.0,80.405,0.67,16.6674565,30.61
2021-06-29 11:50:48.710937500,-52.0,37.0,-11.0,80.4075,1.11,16.66713625,30.61
2021-06-29 11:50:48.718750000,-52.0,37.0,-11.0,80.41,1.55,16.666815999999997,30.61
2021-06-29 11:50:48.726562500,-52.0,37.0,-11.0,80.41250000000001,2.07,16.66649575,30.61
2021-06-29 11:50:48.734375000,-52.0,37.0,-11.0,80.415,2.59,16.666175499999998,30.61
2021-06-29 11:50:48.742187500,-52.0,37.0,-11.0,80.4175,3.0149999999999997,16.66585525,30.61
2021-06-29 11:50:48.750000000,-52.0,37.0,-11.0,80.42,3.44,16.665535,30.61
2021-06-29 11:50:48.757812500,-52.0,37.0,-11.0,80.4225,3.61,16.665655093749997,30.61
2021-06-29 11:50:48.765625000,-52.0,37.0,-11.0,80.425,3.78,16.6657751875,30.61
2021-06-29 11:50:48.773437500,-52.0,37.0,-11.0,80.4275,3.59,16.66589528125,30.61
2021-06-29 11:50:48.781250000,-52.0,37.0,-11.0,80.43,3.4,16.666015374999997,30.61
2021-06-29 11:50:48.789062500,-52.25,37.0,-11.0,80.4325,2.8499999999999996,16.66613546875,30.61
2021-06-29 11:50:48.796875000,-52.5,37.0,-11.0,80.435,2.3,16.666255562499998,30.61
2021-06-29 11:50:48.804687500,-52.75,37.0,-11.0,80.4375,1.5,16.666375656249997,30.61
2021-06-29 11:50:48.812500000,-53.0,37.0,-11.0,80.44,0.7,16.66649575,30.61
2021-06-29 11:50:48.820312500,-53.0,37.0,-11.0,80.4425,-0.235,16.666615843749998,30.61
2021-06-29 11:50:48.828125000,-53.0,37.0,-11.0,80.44500000000001,-1.17,16.666735937499997,30.61
2021-06-29 11:50:48.835937500,-53.0,37.0,-11.0,80.4475,-2.11,16.66685603125,30.61
2021-06-29 11:50:48.843750000,-53.0,37.0,-11.0,80.45,-3.05,16.666976124999998,30.61
2021-06-29 11:50:48.851562500,-53.0,37.0,-11.0,80.4525,-3.905,16.667096218749997,30.61
2021-06-29 11:50:48.859375000,-53.0,37.0,-11.0,80.455,-4.76,16.6672163125,30.61
2021-06-29 11:50:48.867187500,-53.0,37.0,-11.0,80.4575,-5.525,16.667336406249998,30.61
2021-06-29 11:50:48.875000000,-53.0,37.0,-11.0,80.46000000000001,-6.29,16.6674565,30.61
2021-06-29 11:50:48.882812500,-52.75,37.0,-11.0,80.4625,-6.96,16.66757659375,30.61
2021-06-29 11:50:48.890625000,-52.5,37.0,-11.0,80.465,-7.63,16.667696687499998,30.61
2021-06-29 11:50:48.898437500,-52.25,37.0,-11.0,80.4675,-8.22,16.66781678125,30.61
2021-06-29 11:50:48.906250000,-52.0,37.0,-11.0,80.47,-8.81,16.667936875,30.61
2021-06-29 11:50:48.914062500,-52.0,37.0,-11.0,80.4725,-9.335,16.668056968749998,30.61
2021-06-29 11:50:48.921875000,-52.0,37.0,-11.0,80.475,-9.86,16.6681770625,30.61
2021-06-29 11:50:48.929687500,-52.0,37.0,-11.0,80.4775,-10.315,16.66829715625,30.61
2021-06-29 11:50:48.937500000,-52.0,37.0,-11.0,80.48,-10.77,16.668417249999997,30.61
2021-06-29 11:50:48.945312500,-52.0,37.0,-11.0,80.4825,-11.14,16.66853734375,30.61
2021-06-29 11:50:48.953125000,-52.0,37.0,-11.0,80.485,-11.51,16.6686574375,30.61
2021-06-29 11:50:48.960937500,-52.0,37.0,-11.0,80.4875,-11.780000000000001,16.668777531249997,30.61
2021-06-29 11:50:48.968750000,-52.0,37.0,-11.0,80.49,-12.05,16.668897625,30.61
2021-06-29 11:50:48.976562500,-52.0,37.0,-11.0,80.4925,-12.2,16.66901771875,30.61
2021-06-29 11:50:48.984375000,-52.0,37.0,-11.0,80.495,-12.35,16.669137812499997,30.61
2021-06-29 11:50:48.992187500,-52.0,37.0,-11.0,80.4975,-12.344999999999999,16.66925790625,30.61
2021-06-29 11:50:49.000000000,-52.0,37.0,-11.0,80.5,-12.34,16.669378,30.61
2021-06-29 11:50:49.007812500,-52.0,37.0,-11.0,80.501328125,-12.165,16.670178687499998,30.61
2021-06-29 11:50:49.015625000,-52.0,37.0,-11.0,80.50265625,-11.99,16.670979374999998,30.61
2021-06-29 11:50:49.023437500,-52.0,37.0,-11.0,80.503984375,-11.620000000000001,16.671780062499998,30.61
2021-06-29 11:50:49.031250000,-52.0,37.0,-11.0,80.5053125,-11.25,16.672580749999998,30.61
2021-06-29 11:50:49.039062500,-52.0,37.0,-11.0,80.506640625,-10.7,16.673381437499998,30.61
2021-06-29 11:50:49.046875000,-52.0,37.0,-11.0,80.50796875,-10.15,16.674182124999998,30.61
2021-06-29 11:50:49.054687500,-52.0,37.0,-11.0,80.509296875,-9.455,16.674982812499998,30.61
2021-06-29 11:50:49.062500000,-52.0,37.0,-11.0,80.510625,-8.76,16.675783499999998,30.61
2021-06-29 11:50:49.070312500,-52.0,37.0,-11.0,80.511953125,-7.965,16.676584187499998,30.61
2021-06-29 11:50:49.078125000,-52.0,37.0,-11.0,80.51328125,-7.17,16.677384874999998,30.61
2021-06-29 11:50:49.085937500,-52.0,37.0,-11.0,80.514609375,-6.325,16.678185562499998,30.61
2021-06-29 11:50:49.093750000,-52.0,37.0,-11.0,80.5159375,-5.48,16.678986249999998,30.61
2021-06-29 11:50:49.101562500,-52.25,37.0,-11.0,80.517265625,-4.625,16.679786937499998,30.61
2021-06-29 11:50:49.109375000,-52.5,37.0,-11.0,80.51859375,-3.77,16.680587624999998,30.61
2021-06-29 11:50:49.117187500,-52.75,37.0,-11.0,80.519921875,-2.935,16.681388312499998,30.61
2021-06-29 11:50:49.125000000,-53.0,37.0,-11.0,80.52125,-2.1,16.682189,30.61
2021-06-29 11:50:49.132812500,-52.75,37.0,-10.75,80.522578125,-1.3050000000000002,16.6829896875,30.61
2021-06-29 11:50:49.140625000,-52.5,37.0,-10.5,80.52390625,-0.51,16.683790375,30.61
2021-06-29 11:50:49.148437500,-52.25,37.0,-10.25,80.525234375,0.20999999999999996,16.6845910625,30.61
2021-06-29 11:50:49.156250000,-52.0,37.0,-10.0,80.5265625,0.93,16.68539175,30.61
2021-06-29 11:50:49.164062500,-52.0,37.0,-10.25,80.527890625,1.5299999999999998,16.6861924375,30.61
2021-06-29 11:50:49.171875000,-52.0,37.0,-10.5,80.52921875,2.13,16.686993125,30.61
2021-06-29 11:50:49.179687500,-52.0,37.0,-10.75,80.530546875,2.575,16.6877938125,30.61
2021-06-29 11:50:49.187500000,-52.0,37.0,-11.0,80.531875,3.02,16.6885945,30.61
2021-06-29 11:50:49.195312500,-52.0,37.0,-11.0,80.533203125,3.3049999999999997,16.6893951875,30.61
2021-06-29 11:50:49.203125000,-52.0,37.0,-11.0,80.53453125,3.59,16.690195875,30.61
2021-06-29 11:50:49.210937500,-52.0,37.0,-11.0,80.535859375,3.74,16.6909965625,30.61
2021-06-29 11:50:49.218750000,-52.0,37.0,-11.0,80.5371875,3.89,16.69179725,30.61
2021-06-29 11:50:49.226562500,-52.0,37.0,-11.0,80.538515625,3.965,16.6925979375,30.61
2021-06-29 11:50:49.234375000,-52.0,37.0,-11.0,80.53984375,4.04,16.693398625,30.61
2021-06-29 11:50:49.242187500,-52.0,37.0,-11.0,80.541171875,4.12,16.6941993125,30.61
2021-06-29 11:50:49.250000000,-52.0,37.0,-11.0,80.5425,4.2,16.695,30.61
2021-06-29 11:50:49.257812500,-52.25,37.0,-11.0,80.543828125,4.359999999999999,16.6942393125,30.61
2021-06-29 11:50:49.265625000,-52.5,37.0,-11.0,80.54515625,4.52,16.693478625,30.61
2021-06-29 11:50:49.273437500,-52.75,37.0,-11.0,80.546484375,4.779999999999999,16.6927179375,30.61
2021-06-29 11:50:49.281250000,-53.0,37.0,-11.0,80.5478125,5.04,16.69195725,30.61
2021-06-29 11:50:49.289062500,-52.75,37.0,-11.0,80.549140625,5.359999999999999,16.6911965625,30.61
2021-06-29 11:50:49.296875000,-52.5,37.0,-11.0,80.55046875000001,5.68,16.690435875,30.61
2021-06-29 11:50:49.304687500,-52.25,37.0,-11.0,80.551796875,5.984999999999999,16.6896751875,30.61
2021-06-29 11:50:49.312500000,-52.0,37.0,-11.0,80.553125,6.29,16.6889145,30.61
2021-06-29 11:50:49.320312500,-52.0,37.0,-10.75,80.554453125,6.46,16.6881538125,30.61
2021-06-29 11:50:49.328125000,-52.0,37.0,-10.5,80.55578125,6.63,16.687393125,30.61
2021-06-29 11:50:49.335937500,-52.0,37.0,-10.25,80.557109375,6.57,16.6866324375,30.61
2021-06-29 11:50:49.343750000,-52.0,37.0,-10.0,80.5584375,6.51,16.68587175,30.61
2021-06-29 11:50:49.351562500,-52.0,37.0,-10.25,80.559765625,6.165,16.6851110625,30.61
2021-06-29 11:50:49.359375000,-52.0,37.0,-10.5,80.56109375,5.82,16.684350375,30.61
2021-06-29 11:50:49.367187500,-52.0,37.0,-10.75,80.562421875,5.215,16.6835896875,30.61
2021-06-29 11:50:49.375000000,-52.0,37.0,-11.0,80.56375,4.61,16.682828999999998,30.61
2021-06-29 11:50:49.382812500,-52.0,37.0,-11.0,80.565078125,3.845,16.6820683125,30.61
2021-06-29 11:50:49.390625000,-52.0,37.0,-11.0,80.56640625,3.08,16.681307625,30.61
2021-06-29 11:50:49.398437500,-52.0,37.0,-11.0,80.567734375,2.305,16.6805469375,30.61
2021-06-29 11:50:49.406250000,-52.0,37.0,-11.0,80.5690625,1.53,16.67978625,30.61
2021-06-29 11:50:49.414062500,-52.0,37.0,-11.0,80.570390625,0.925,16.6790255625,30.61
2021-06-29 11:50:49.421875000,-52.0,37.0,-11.0,80.57171875,0.32,16.678264875,30.61
2021-06-29 11:50:49.429687500,-52.0,37.0,-11.0,80.573046875,-0.019999999999999962,16.6775041875,30.61
2021-06-29 11:50:49.437500000,-52.0,37.0,-11.0,80.574375,-0.36,16.6767435,30.61
2021-06-29 11:50:49.445312500,-52.0,37.0,-11.0,80.575703125,-0.425,16.6759828125,30.61
2021-06-29 11:50:49.453125000,-52.0,37.0,-11.0,80.57703125,-0.49,16.675222125,30.61
2021-06-29 11:50:49.460937500,-52.0,37.0,-11.0,80.578359375,-0.395,16.6744614375,30.61
2021-06-29 11:50:49.468750000,-52.0,37.0,-11.0,80.5796875,-0.3,16.67370075,30.61
2021-06-29 11:50:49.476562500,-52.0,37.0,-11.0,80.581015625,-0.22,16.6729400625,30.61
2021-06-29 11:50:49.484375000,-52.0,37.0,-11.0,80.58234375,-0.14,16.672179375,30.61
2021-06-29 11:50:49.492187500,-52.0,37.0,-11.0,80.58367187500001,-0.23500000000000001,16.6714186875,30.61
2021-06-29 11:50:49.500000000,-52.0,37.0,-11.0,80.58500000000001,-0.33,16.670658,30.61
2021-06-29 11:50:49.507812500,-52.25,37.0,-11.0,80.586328125,-0.6599999999999999,16.670698062499998,30.61
2021-06-29 11:50:49.515625000,-52.5,37.0,-11.0,80.58765625,-0.99,16.670738125,30.61
2021-06-29 11:50:49.523437500,-52.75,37.0,-11.0,80.588984375,-1.5,16.670778187499998,30.61
2021-06-29 11:50:49.531250000,-53.0,37.0,-11.0,80.5903125,-2.01,16.67081825,30.61
2021-06-29 11:50:49.539062500,-53.0,37.0,-11.0,80.591640625,-2.625,16.6708583125,30.61
2021-06-29 11:50:49.546875000,-53.0,37.0,-11.0,80.59296875,-3.24,16.670898375,30.61
2021-06-29 11:50:49.554687500,-53.0,37.0,-11.0,80.594296875,-3.855,16.6709384375,30.61
2021-06-29 11:50:49.562500000,-53.0,37.0,-11.0,80.595625,-4.47,16.6709785,30.61
2021-06-29 11:50:49.570312500,-53.0,36.75,-11.0,80.596953125,-5.04,16.6710185625,30.61
2021-06-29 11:50:49.578125000,-53.0,36.5,-11.0,80.59828125,-5.61,16.671058625,30.61
2021-06-29 11:50:49.585937500,-53.0,36.25,-11.0,80.599609375,-6.135,16.6710986875,30.61
2021-06-29 11:50:49.593750000,-53.0,36.0,-11.0,80.6009375,-6.66,16.67113875,30.61
2021-06-29 11:50:49.601562500,-52.75,36.25,-11.0,80.602265625,-7.140000000000001,16.6711788125,30.61
2021-06-29 11:50:49.609375000,-52.5,36.5,-11.0,80.60359375,-7.62,16.671218875,30.61
2021-06-29 11:50:49.617187500,-52.25,36.75,-11.0,80.604921875,-8.025,16.6712589375,30.61
2021-06-29 11:50:49.625000000,-52.0,37.0,-11.0,80.60625,-8.43,16.671298999999998,30.61
2021-06-29 11:50:49.632812500,-52.0,37.0,-11.0,80.607578125,-8.74,16.6713390625,30.61
2021-06-29 11:50:49.640625000,-52.0,37.0,-11.0,80.60890625,-9.05,16.671379124999998,30.61
2021-06-29 11:50:49.648437500,-52.0,37.0,-11.0,80.610234375,-9.235,16.6714191875,30.61
2021-06-29 11:50:49.656250000,-52.0,37.0,-11.0,80.6115625,-9.42,16.671459249999998,30.61
2021-06-29 11:50:49.664062500,-52.25,37.0,-11.0,80.612890625,-9.5,16.6714993125,30.61
2021-06-29 11:50:49.671875000,-52.5,37.0,-11.0,80.61421875,-9.58,16.671539375,30.61
2021-06-29 11:50:49.679687500,-52.75,37.0,-11.0,80.615546875,-9.625,16.6715794375,30.61
2021-06-29 11:50:49.687500000,-53.0,37.0,-11.0,80.61687500000001,-9.67,16.6716195,30.61
2021-06-29 11:50:49.695312500,-52.75,37.0,-11.0,80.61820312500001,-9.765,16.6716595625,30.61
2021-06-29 11:50:49.703125000,-52.5,37.0,-11.0,80.61953125,-9.86,16.671699625,30.61
2021-06-29 11:50:49.710937500,-52.25,37.0,-11.0,80.620859375,-10.08,16.6717396875,30.61
2021-06-29 11:50:49.718750000,-52.0,37.0,-11.0,80.6221875,-10.3,16.67177975,30.61
2021-06-29 11:50:49.726562500,-52.0,37.0,-11.0,80.623515625,-10.64,16.6718198125,30.61
2021-06-29 11:50:49.734375000,-52.0,37.0,-11.0,80.62484375,-10.98,16.671859875,30.61
2021-06-29 11:50:49.742187500,-52.0,37.0,-11.0,80.626171875,-11.355,16.6718999375,30.61
2021-06-29 11:50:49.750000000,-52.0,37.0,-11.0,80.6275,-11.73,16.67194,30.61
2021-06-29 11:50:49.757812500,-52.0,37.0,-11.0,80.628828125,-11.99,16.6711393125,30.61
2021-06-29 11:50:49.765625000,-52.0,37.0,-11.0,80.63015625,-12.25,16.670338625,30.61
2021-06-29 11:50:49.773437500,-52.0,37.0,-11.0,80.631484375,-12.254999999999999,16.6695379375,30.61
2021-06-29 11:50:49.781250000,-52.0,37.0,-11.0,80.6328125,-12.26,16.66873725,30.61
2021-06-29 11:50:49.789062500,-52.0,37.0,-11.0,80.634140625,-11.899999999999999,16.6679365625,30.61
2021-06-29 11:50:49.796875000,-52.0,37.0,-11.0,80.63546875,-11.54,16.667135875,30.61
2021-06-29 11:50:49.804687500,-52.0,37.0,-11.0,80.636796875,-10.8,16.6663351875,30.61
2021-06-29 11:50:49.812500000,-52.0,37.0,-11.0,80.638125,-10.06,16.6655345,30.61
2021-06-29 11:50:49.820312500,-52.0,37.0,-11.0,80.639453125,-9.025,16.6647338125,30.61
2021-06-29 11:50:49.828125000,-52.0,37.0,-11.0,80.64078125,-7.99,16.663933125,30.61
2021-06-29 11:50:49.835937500,-52.0,37.0,-11.0,80.642109375,-6.8149999999999995,16.6631324375,30.61
2021-06-29 11:50:49.843750000,-52.0,37.0,-11.0,80.6434375,-5.64,16.66233175,30.61
2021-06-29 11:50:49.851562500,-52.25,37.0,-11.0,80.644765625,-4.5,16.6615310625,30.61
2021-06-29 11:50:49.859375000,-52.5,37.0,-11.0,80.64609375,-3.36,16.660730375,30.61
2021-06-29 11:50:49.867187500,-52.75,37.0,-11.0,80.647421875,-2.3899999999999997,16.6599296875,30.61
2021-06-29 11:50:49.875000000,-53.0,37.0,-11.0,80.64875,-1.42,16.659129,30.61
2021-06-29 11:50:49.882812500,-52.75,37.0,-11.0,80.65007812500001,-0.6549999999999999,16.6583283125,30.61
2021-06-29 11:50:49.890625000,-52.5,37.0,-11.0,80.65140625000001,0.11,16.657527625,30.61
2021-06-29 11:50:49.898437500,-52.25,37.0,-11.0,80.65273437500001,0.71,16.6567269375,30.61
2021-06-29 11:50:49.906250000,-52.0,37.0,-11.0,80.6540625,1.31,16.65592625,30.61
2021-06-29 11:50:49.914062500,-52.0,37.0,-11.0,80.655390625,1.82,16.6551255625,30.61
2021-06-29 11:50:49.921875000,-52.0,37.0,-11.0,80.65671875,2.33,16.654324875,30.61
2021-06-29 11:50:49.929687500,-52.0,37.0,-11.0,80.658046875,2.79,16.6535241875,30.61
2021-06-29 11:50:49.937500000,-52.0,37.0,-11.0,80.659375,3.25,16.6527235,30.61
2021-06-29 11:50:49.945312500,-52.25,37.0,-11.0,80.660703125,3.67,16.6519228125,30.61
2021-06-29 11:50:49.953125000,-52.5,37.0,-11.0,80.66203125,4.09,16.651122125,30.61
2021-06-29 11:50:49.960937500,-52.75,37.0,-11.0,80.663359375,4.4,16.6503214375,30.61
2021-06-29 11:50:49.968750000,-53.0,37.0,-11.0,80.6646875,4.71,16.64952075,30.61
2021-06-29 11:50:49.976562500,-53.0,37.0,-11.0,80.666015625,4.855,16.6487200625,30.61
2021-06-29 11:50:49.984375000,-53.0,37.0,-11.0,80.66734375,5.0,16.647919375,30.61
2021-06-29 11:50:49.992187500,-53.0,37.0,-11.0,80.668671875,4.98,16.6471186875,30.61
2021-06-29 11:50:50.000000000,-53.0,37.0,-11.0,80.67,4.96,16.646318,30.61
2021-06-29 11:50:50.007812500,-52.75,37.0,-11.0,80.67125,4.825,16.64659821875,30.60875
2021-06-29 11:50:50.015625000,-52.5,37.0,-11.0,80.6725,4.69,16.6468784375,30.607499999999998
2021-06-29 11:50:50.023437500,-52.25,37.0,-11.0,80.67375,4.535,16.64715865625,30.60625
2021-06-29 11:50:50.031250000,-52.0,37.0,-11.0,80.675,4.38,16.647438875,30.605
2021-06-29 11:50:50.039062500,-52.25,37.0,-11.0,80.67625,4.324999999999999,16.647719093750002,30.603749999999998
2021-06-29 11:50:50.046875000,-52.5,37.0,-11.0,80.6775,4.27,16.6479993125,30.6025
2021-06-29 11:50:50.054687500,-52.75,37.0,-11.0,80.67875000000001,4.375,16.64827953125,30.60125
2021-06-29 11:50:50.062500000,-53.0,37.0,-11.0,80.68,4.48,16.64855975,30.6
2021-06-29 11:50:50.070312500,-52.75,37.0,-11.0,80.68125,4.73,16.64883996875,30.59875
2021-06-29 11:50:50.078125000,-52.5,37.0,-11.0,80.6825,4.98,16.6491201875,30.5975
2021-06-29 11:50:50.085937500,-52.25,37.0,-11.0,80.68375,5.315,16.64940040625,30.59625
2021-06-29 11:50:50.093750000,-52.0,37.0,-11.0,80.685,5.65,16.649680625000002,30.595
2021-06-29 11:50:50.101562500,-52.0,37.0,-11.0,80.68625,5.9350000000000005,16.64996084375,30.59375
2021-06-29 11:50:50.109375000,-52.0,37.0,-11.0,80.6875,6.22,16.6502410625,30.5925
2021-06-29 11:50:50.117187500,-52.0,37.0,-11.0,80.68875,6.355,16.65052128125,30.59125
2021-06-29 11:50:50.125000000,-52.0,37.0,-11.0,80.69,6.49,16.6508015,30.59
2021-06-29 11:50:50.132812500,-52.0,37.0,-11.0,80.69125,6.390000000000001,16.65108171875,30.58875
2021-06-29 11:50:50.140625000,-52.0,37.0,-11.0,80.6925,6.29,16.6513619375,30.5875
2021-06-29 11:50:50.148437500,-52.0,37.0,-11.0,80.69375,5.904999999999999,16.65164215625,30.58625
2021-06-29 11:50:50.156250000,-52.0,37.0,-11.0,80.69500000000001,5.52,16.651922374999998,30.585
2021-06-29 11:50:50.164062500,-52.0,37.0,-11.0,80.69625,4.869999999999999,16.65220259375,30.58375
2021-06-29 11:50:50.171875000,-52.0,37.0,-11.0,80.6975,4.22,16.6524828125,30.5825
2021-06-29 11:50:50.179687500,-52.0,37.0,-11.0,80.69875,3.3649999999999998,16.65276303125,30.58125
2021-06-29 11:50:50.187500000,-52.0,37.0,-11.0,80.7,2.51,16.65304325,30.58
2021-06-29 11:50:50.195312500,-52.0,37.0,-11.0,80.70125,1.575,16.65332346875,30.57875
2021-06-29 11:50:50.203125000,-52.0,37.0,-11.0,80.7025,0.64,16.6536036875,30.5775
2021-06-29 11:50:50.210937500,-52.0,37.0,-11.0,80.70375,-0.235,16.653883906249998,30.57625
2021-06-29 11:50:50.218750000,-52.0,37.0,-11.0,80.705,-1.11,16.654164125,30.575
2021-06-29 11:50:50.226562500,-52.0,37.0,-11.0,80.70625,-1.7800000000000002,16.65444434375,30.57375
2021-06-29 11:50:50.234375000,-52.0,37.0,-11.0,80.7075,-2.45,16.6547245625,30.5725
2021-06-29 11:50:50.242187500,-52.0,37.0,-11.0,80.70875,-2.8200000000000003,16.65500478125,30.57125
2021-06-29 11:50:50.250000000,-52.0,37.0,-11.0,80.71000000000001,-3.19,16.655285,30.57
2021-06-29 11:50:50.257812500,-52.0,37.0,-11.0,80.71125,-3.27,16.65472453125,30.57
2021-06-29 11:50:50.265625000,-52.0,37.0,-11.0,80.7125,-3.35,16.654164062499998,30.57
2021-06-29 11:50:50.273437500,-52.0,37.0,-11.0,80.71375,-3.25,16.65360359375,30.57
2021-06-29 11:50:50.281250000,-52.0,37.0,-11.0,80.715,-3.15,16.653043125,30.57
2021-06-29 11:50:50.289062500,-52.25,37.0,-11.0,80.71625,-3.0149999999999997,16.65248265625,30.57
2021-06-29 11:50:50.296875000,-52.5,37.0,-11.0,80.7175,-2.88,16.6519221875,30.57
2021-06-29 11:50:50.304687500,-52.75,37.0,-11.0,80.71875,-2.875,16.65136171875,30.57
2021-06-29 11:50:50.312500000,-53.0,37.0,-11.0,80.72,-2.87,16.65080125,30.57
2021-06-29 11:50:50.320312500,-53.0,37.0,-11.0,80.72125,-3.065,16.650240781249998,30.57
2021-06-29 11:50:50.328125000,-53.0,37.0,-11.0,80.7225,-3.26,16.6496803125,30.57
2021-06-29 11:50:50.335937500,-53.0,37.0,-11.0,80.72375,-3.6599999999999997,16.64911984375,30.57
2021-06-29 11:50:50.343750000,-53.0,37.0,-11.0,80.725,-4.06,16.648559375,30.57
2021-06-29 11:50:50.351562500,-53.0,37.0,-11.0,80.72625000000001,-4.58,16.64799890625,30.57
2021-06-29 11:50:50.359375000,-53.0,37.0,-11.0,80.7275,-5.1,16.6474384375,30.57
2021-06-29 11:50:50.367187500,-53.0,37.0,-11.0,80.72875,-5.66,16.64687796875,30.57
2021-06-29 11:50:50.375000000,-53.0,37.0,-11.0,80.73,-6.22,16.646317500000002,30.57
2021-06-29 11:50:50.382812500,-52.75,37.0,-11.0,80.73125,-6.75,16.64575703125,30.57
2021-06-29 11:50:50.390625000,-52.5,37.0,-11.0,80.7325,-7.28,16.6451965625,30.57
2021-06-29 11:50:50.398437500,-52.25,37.0,-11.0,80.73375,-7.77,16.64463609375,30.57
2021-06-29 11:50:50.406250000,-52.0,37.0,-11.0,80.735,-8.26,16.644075625,30.57
2021-06-29 11:50:50.414062500,-52.0,37.0,-10.75,80.73625,-8.719999999999999,16.64351515625,30.57
2021-06-29 11:50:50.421875000,-52.0,37.0,-10.5,80.7375,-9.18,16.6429546875,30.57
2021-06-29 11:50:50.429687500,-52.0,37.0,-10.25,80.73875,-9.649999999999999,16.642394218750002,30.57
2021-06-29 11:50:50.437500000,-52.0,37.0,-10.0,80.74,-10.12,16.64183375,30.57
2021-06-29 11:50:50.445312500,-52.0,37.0,-10.25,80.74125,-10.594999999999999,16.64127328125,30.57
2021-06-29 11:50:50.453125000,-52.0,37.0,-10.5,80.7425,-11.07,16.640712812500002,30.57
2021-06-29 11:50:50.460937500,-52.0,37.0,-10.75,80.74375,-11.535,16.64015234375,30.57
2021-06-29 11:50:50.468750000,-52.0,37.0,-11.0,80.745,-12.0,16.639591875,30.57
2021-06-29 11:50:50.476562500,-52.0,37.0,-11.0,80.74625,-12.42,16.63903140625,30.57
2021-06-29 11:50:50.484375000,-52.0,37.0,-11.0,80.7475,-12.84,16.638470937500003,30.57
2021-06-29 11:50:50.492187500,-52.0,37.0,-11.0,80.74875,-13.15,16.63791046875,30.57
2021-06-29 11:50:50.500000000,-52.0,37.0,-11.0,80.75,-13.46,16.63735,30.57
2021-06-29 11:50:50.507812500,-52.0,37.0,-11.0,80.75125,-13.58,16.637590218750002,30.57
2021-06-29 11:50:50.515625000,-52.0,37.0,-11.0,80.7525,-13.7,16.6378304375,30.57
2021-06-29 11:50:50.523437500,-52.0,37.0,-11.0,80.75375,-13.54,16.63807065625,30.57
2021-06-29 11:50:50.531250000,-52.0,37.0,-11.0,80.755,-13.38,16.638310875000002,30.57
2021-06-29 11:50:50.539062500,-52.25,37.0,-11.0,80.75625,-12.855,16.63855109375,30.57
2021-06-29 11:50:50.546875000,-52.5,37.0,-11.0,80.7575,-12.33,16.6387913125,30.57
2021-06-29 11:50:50.554687500,-52.75,37.0,-11.0,80.75875,-11.434999999999999,16.63903153125,30.57
2021-06-29 11:50:50.562500000,-53.0,37.0,-11.0,80.76,-10.54,16.63927175,30.57
2021-06-29 11:50:50.570312500,-53.0,37.0,-11.0,80.76125,-9.364999999999998,16.63951196875,30.57
2021-06-29 11:50:50.578125000,-53.0,37.0,-11.0,80.7625,-8.19,16.6397521875,30.57
2021-06-29 11:50:50.585937500,-53.0,37.0,-11.0,80.76375,-6.914999999999999,16.639992406250002,30.57
2021-06-29 11:50:50.593750000,-53.0,37.0,-11.0,80.765,-5.64,16.640232625,30.57
2021-06-29 11:50:50.601562500,-52.75,37.0,-11.0,80.76625,-4.5,16.64047284375,30.57
2021-06-29 11:50:50.609375000,-52.5,37.0,-11.0,80.7675,-3.36,16.6407130625,30.57
2021-06-29 11:50:50.617187500,-52.25,37.0,-11.0,80.76875,-2.535,16.64095328125,30.57
2021-06-29 11:50:50.625000000,-52.0,37.0,-11.0,80.77,-1.71,16.6411935,30.57
2021-06-29 11:50:50.632812500,-52.0,37.0,-11.0,80.77125,-1.265,16.64143371875,30.57
2021-06-29 11:50:50.640625000,-52.0,37.0,-11.0,80.7725,-0.82,16.6416739375,30.57
2021-06-29 11:50:50.648437500,-52.0,37.0,-11.0,80.77374999999999,-0.6499999999999999,16.64191415625,30.57
2021-06-29 11:50:50.656250000,-52.0,37.0,-11.0,80.775,-0.48,16.642154375,30.57
2021-06-29 11:50:50.664062500,-52.0,36.75,-11.0,80.77625,-0.385,16.642394593749998,30.57
2021-06-29 11:50:50.671875000,-52.0,36.5,-11.0,80.7775,-0.29,16.6426348125,30.57
2021-06-29 11:50:50.679687500,-52.0,36.25,-11.0,80.77875,-0.044999999999999984,16.64287503125,30.57
2021-06-29 11:50:50.687500000,-52.0,36.0,-11.0,80.78,0.2,16.64311525,30.57
2021-06-29 11:50:50.695312500,-52.25,36.25,-11.0,80.78125,0.74,16.64335546875,30.57
2021-06-29 11:50:50.703125000,-52.5,36.5,-11.0,80.7825,1.28,16.6435956875,30.57
2021-06-29 11:50:50.710937500,-52.75,36.75,-11.0,80.78375,2.115,16.64383590625,30.57
2021-06-29 11:50:50.718750000,-53.0,37.0,-11.0,80.785,2.95,16.644076124999998,30.57
2021-06-29 11:50:50.726562500,-52.75,37.0,-11.0,80.78625,3.94,16.64431634375,30.57
2021-06-29 11:50:50.734375000,-52.5,37.0,-11.0,80.7875,4.93,16.6445565625,30.57
2021-06-29 11:50:50.742187500,-52.25,37.0,-11.0,80.78875,5.84,16.644796781249998,30.57
2021-06-29 11:50:50.750000000,-52.0,37.0,-11.0,80.78999999999999,6.75,16.645037,30.57
2021-06-29 11:50:50.757812500,-52.0,37.0,-11.0,80.79125,7.325,16.64535725,30.57
2021-06-29 11:50:50.765625000,-52.0,37.0,-11.0,80.7925,7.9,16.645677499999998,30.57
2021-06-29 11:50:50.773437500,-52.0,37.0,-11.0,80.79375,7.9750000000000005,16.64599775,30.57
2021-06-29 11:50:50.781250000,-52.0,37.0,-11.0,80.795,8.05,16.646317999999997,30.57
2021-06-29 11:50:50.789062500,-52.0,36.75,-11.0,80.79625,7.61,16.64663825,30.57
2021-06-29 11:50:50.796875000,-52.0,36.5,-11.0,80.7975,7.17,16.6469585,30.57
2021-06-29 11:50:50.804687500,-52.0,36.25,-11.0,80.79875,6.33,16.647278749999998,30.57
2021-06-29 11:50:50.812500000,-52.0,36.0,-11.0,80.8,5.49,16.647599,30.57
2021-06-29 11:50:50.820312500,-52.0,36.25,-11.0,80.80125,4.525,16.647919249999998,30.57
2021-06-29 11:50:50.828125000,-52.0,36.5,-11.0,80.8025,3.56,16.6482395,30.57
2021-06-29 11:50:50.835937500,-52.0,36.75,-11.0,80.80375,2.775,16.64855975,30.57
2021-06-29 11:50:50.843750000,-52.0,37.0,-11.0,80.80499999999999,1.99,16.64888,30.57
2021-06-29 11:50:50.851562500,-52.0,37.0,-11.0,80.80625,1.635,16.64920025,30.57
2021-06-29 11:50:50.859375000,-52.0,37.0,-11.0,80.8075,1.28,16.649520499999998,30.57
2021-06-29 11:50:50.867187500,-52.0,37.0,-11.0,80.80875,1.505,16.64984075,30.57
2021-06-29 11:50:50.875000000,-52.0,37.0,-11.0,80.81,1.73,16.650160999999997,30.57
2021-06-29 11:50:50.882812500,-52.0,37.0,-11.0,80.81125,2.495,16.65048125,30.57
2021-06-29 11:50:50.890625000,-52.0,37.0,-11.0,80.8125,3.26,16.6508015,30.57
2021-06-29 11:50:50.898437500,-52.0,37.0,-11.0,80.81375,4.4,16.651121749999998,30.57
2021-06-29 11:50:50.906250000,-52.0,37.0,-11.0,80.815,5.54,16.651442,30.57
2021-06-29 11:50:50.914062500,-52.0,37.0,-11.0,80.81625,6.800000000000001,16.651762249999997,30.57
2021-06-29 11:50:50.921875000,-52.0,37.0,-11.0,80.8175,8.06,16.6520825,30.57
2021-06-29 11:50:50.929687500,-52.0,37.0,-11.0,80.81875,9.175,16.65240275,30.57
2021-06-29 11:50:50.937500000,-52.0,37.0,-11.0,80.82,10.29,16.652722999999998,30.57
2021-06-29 11:50:50.945312500,-52.0,37.0,-11.0,80.82124999999999,11.015,16.65304325,30.57
2021-06-29 11:50:50.953125000,-52.0,37.0,-11.0,80.8225,11.74,16.653363499999998,30.57
2021-06-29 11:50:50.960937500,-52.0,37.0,-11.0,80.82375,11.89,16.65368375,30.57
2021-06-29 11:50:50.968750000,-52.0,37.0,-11.0,80.825,12.04,16.654004,30.57
2021-06-29 11:50:50.976562500,-52.0,37.0,-11.0,80.82625,11.55,16.65432425,30.57
2021-06-29 11:50:50.984375000,-52.0,37.0,-11.0,80.8275,11.06,16.6546445,30.57
2021-06-29 11:50:50.992187500,-52.0,37.0,-11.0,80.82875,9.96,16.654964749999998,30.57
2021-06-29 11:50:51.000000000,-52.0,37.0,-11.0,80.83,8.86,16.655285,30.57
2021-06-29 11:50:51.007812500,-52.0,37.0,-11.0,80.83078125,7.345,16.655044781249998,30.570625
2021-06-29 11:50:51.015625000,-52.0,37.0,-11.0,80.8315625,5.83,16.6548045625,30.57125
2021-06-29 11:50:51.023437500,-52.0,37.0,-11.0,80.83234374999999,4.1850000000000005,16.65456434375,30.571875
2021-06-29 11:50:51.031250000,-52.0,37.0,-11.0,80.833125,2.54,16.654324125,30.5725
2021-06-29 11:50:51.039062500,-52.25,37.0,-11.0,80.83390625,1.1,16.654083906249998,30.573125
2021-06-29 11:50:51.046875000,-52.5,37.0,-11.0,80.8346875,-0.34,16.6538436875,30.57375
2021-06-29 11:50:51.054687500,-52.75,37.0,-11.0,80.83546875,-1.3199999999999998,16.65360346875,30.574375
2021-06-29 11:50:51.062500000,-53.0,37.0,-11.0,80.83624999999999,-2.3,16.653363249999998,30.575
2021-06-29 11:50:51.070312500,-53.0,37.0,-11.0,80.83703125,-2.7199999999999998,16.65312303125,30.575625
2021-06-29 11:50:51.078125000,-53.0,37.0,-11.0,80.8378125,-3.14,16.6528828125,30.57625
2021-06-29 11:50:51.085937500,-53.0,37.0,-11.0,80.83859375,-3.08,16.65264259375,30.576875
2021-06-29 11:50:51.093750000,-53.0,37.0,-11.0,80.839375,-3.02,16.652402374999998,30.5775
2021-06-29 11:50:51.101562500,-52.75,37.0,-11.0,80.84015624999999,-2.71,16.65216215625,30.578125
2021-06-29 11:50:51.109375000,-52.5,37.0,-11.0,80.8409375,-2.4,16.6519219375,30.57875
2021-06-29 11:50:51.117187500,-52.25,37.0,-11.0,80.84171875,-2.13,16.651681718749998,30.579375
2021-06-29 11:50:51.125000000,-52.0,37.0,-11.0,80.8425,-1.86,16.651441499999997,30.58
2021-06-29 11:50:51.132812500,-52.0,37.0,-11.0,80.84328125,-1.86,16.65120128125,30.580625
2021-06-29 11:50:51.140625000,-52.0,37.0,-11.0,80.84406249999999,-1.86,16.6509610625,30.58125
2021-06-29 11:50:51.148437500,-52.0,37.0,-11.0,80.84484375,-2.265,16.650720843749998,30.581875
2021-06-29 11:50:51.156250000,-52.0,37.0,-11.0,80.845625,-2.67,16.650480625,30.5825
2021-06-29 11:50:51.164062500,-52.0,37.0,-11.0,80.84640625,-3.4899999999999998,16.65024040625,30.583125
2021-06-29 11:50:51.171875000,-52.0,37.0,-11.0,80.8471875,-4.31,16.650000187499998,30.58375
2021-06-29 11:50:51.179687500,-52.0,37.0,-11.0,80.84796875,-5.42,16.649759968749997,30.584375
2021-06-29 11:50:51.187500000,-52.0,37.0,-11.0,80.84875,-6.53,16.64951975,30.585
2021-06-29 11:50:51.195312500,-52.0,37.0,-11.0,80.84953125,-7.77,16.64927953125,30.585625
2021-06-29 11:50:51.203125000,-52.0,37.0,-11.0,80.8503125,-9.01,16.649039312499998,30.58625
2021-06-29 11:50:51.210937500,-52.0,37.0,-11.0,80.85109375,-10.155000000000001,16.64879909375,30.586875
2021-06-29 11:50:51.218750000,-52.0,37.0,-11.0,80.851875,-11.3,16.648558875,30.5875
2021-06-29 11:50:51.226562500,-52.0,37.0,-11.0,80.85265625,-12.155000000000001,16.648318656249998,30.588125
2021-06-29 11:50:51.234375000,-52.0,37.0,-11.0,80.8534375,-13.01,16.648078437499997,30.58875
2021-06-29 11:50:51.242187500,-52.0,37.0,-11.0,80.85421875,-13.42,16.64783821875,30.589375
2021-06-29 11:50:51.250000000,-52.0,37.0,-11.0,80.855,-13.83,16.647598,30.59
2021-06-29 11:50:51.257812500,-52.0,37.0,-11.0,80.85578125,-13.725,16.64747796875,30.59
2021-06-29 11:50:51.265625000,-52.0,37.0,-11.0,80.8565625,-13.62,16.647357937499997,30.59
2021-06-29 11:50:51.273437500,-52.0,37.0,-11.0,80.85734375,-13.05,16.647237906249998,30.59
2021-06-29 11:50:51.281250000,-52.0,37.0,-11.0,80.858125,-12.48,16.647117875,30.59
2021-06-29 11:50:51.289062500,-52.0,37.0,-11.0,80.85890625,-11.575,16.64699784375,30.59
2021-06-29 11:50:51.296875000,-52.0,37.0,-11.0,80.8596875,-10.67,16.646877812499998,30.59
2021-06-29 11:50:51.304687500,-52.0,37.0,-11.0,80.86046875,-9.61,16.64675778125,30.59
2021-06-29 11:50:51.312500000,-52.0,37.0,-11.0,80.86125,-8.55,16.64663775,30.59
2021-06-29 11:50:51.320312500,-52.0,37.0,-11.0,80.86203125,-7.5,16.646517718749998,30.59
2021-06-29 11:50:51.328125000,-52.0,37.0,-11.0,80.8628125,-6.45,16.6463976875,30.59
2021-06-29 11:50:51.335937500,-52.0,37.0,-11.0,80.86359375,-5.505,16.64627765625,30.59
2021-06-29 11:50:51.343750000,-52.0,37.0,-11.0,80.864375,-4.56,16.646157625,30.59
2021-06-29 11:50:51.351562500,-52.0,36.75,-11.0,80.86515625,-3.7399999999999998,16.64603759375,30.59
2021-06-29 11:50:51.359375000,-52.0,36.5,-11.0,80.8659375,-2.92,16.6459175625,30.59
2021-06-29 11:50:51.367187500,-52.0,36.25,-11.0,80.86671875,-2.19,16.64579753125,30.59
2021-06-29 11:50:51.375000000,-52.0,36.0,-11.0,80.8675,-1.46,16.645677499999998,30.59
2021-06-29 11:50:51.382812500,-52.0,36.25,-11.0,80.86828125,-0.785,16.64555746875,30.59
2021-06-29 11:50:51.390625000,-52.0,36.5,-11.0,80.8690625,-0.11,16.6454374375,30.59
2021-06-29 11:50:51.398437500,-52.0,36.75,-11.0,80.86984375,0.535,16.64531740625,30.59
2021-06-29 11:50:51.406250000,-52.0,37.0,-11.0,80.870625,1.18,16.645197375,30.59
2021-06-29 11:50:51.414062500,-52.0,37.0,-11.0,80.87140625,1.7999999999999998,16.64507734375,30.59
2021-06-29 11:50:51.421875000,-52.0,37.0,-11.0,80.8721875,2.42,16.6449573125,30.59
2021-06-29 11:50:51.429687500,-52.0,37.0,-11.0,80.87296875,3.0,16.644837281250002,30.59
2021-06-29 11:50:51.437500000,-52.0,37.0,-11.0,80.87375,3.58,16.64471725,30.59
2021-06-29 11:50:51.445312500,-52.0,37.0,-11.0,80.87453125,4.13,16.64459721875,30.59
2021-06-29 11:50:51.453125000,-52.0,37.0,-11.0,80.8753125,4.68,16.6444771875,30.59
2021-06-29 11:50:51.460937500,-52.0,37.0,-11.0,80.87609375,5.199999999999999,16.64435715625,30.59
2021-06-29 11:50:51.468750000,-52.0,37.0,-11.0,80.876875,5.72,16.644237125,30.59
2021-06-29 11:50:51.476562500,-52.0,37.0,-11.0,80.87765625,6.21,16.64411709375,30.59
2021-06-29 11:50:51.484375000,-52.0,37.0,-11.0,80.8784375,6.7,16.643997062500002,30.59
2021-06-29 11:50:51.492187500,-52.0,37.0,-11.0,80.87921875,7.135,16.64387703125,30.59
2021-06-29 11:50:51.500000000,-52.0,37.0,-11.0,80.88,7.57,16.643757,30.59
2021-06-29 11:50:51.507812500,-52.0,37.0,-11.0,80.88078125,7.8950000000000005,16.64359684375,30.59
2021-06-29 11:50:51.515625000,-52.0,37.0,-11.0,80.8815625,8.22,16.6434366875,30.59
2021-06-29 11:50:51.523437500,-52.0,37.0,-11.0,80.88234375,8.379999999999999,16.643276531250002,30.59
2021-06-29 11:50:51.531250000,-52.0,37.0,-11.0,80.883125,8.54,16.643116375,30.59
2021-06-29 11:50:51.539062500,-52.0,37.0,-11.0,80.88390625000001,8.5,16.64295621875,30.59
2021-06-29 11:50:51.546875000,-52.0,37.0,-11.0,80.8846875,8.46,16.6427960625,30.59
2021-06-29 11:50:51.554687500,-52.0,37.0,-11.0,80.88546875,8.22,16.64263590625,30.59
2021-06-29 11:50:51.562500000,-52.0,37.0,-11.0,80.88625,7.98,16.642475750000003,30.59
2021-06-29 11:50:51.570312500,-52.25,37.0,-11.0,80.88703125,7.6,16.642315593750002,30.59
2021-06-29 11:50:51.578125000,-52.5,37.0,-11.0,80.88781250000001,7.22,16.6421554375,30.59
2021-06-29 11:50:51.585937500,-52.75,37.0,-11.0,80.88859375,6.785,16.64199528125,30.59
2021-06-29 11:50:51.593750000,-53.0,37.0,-11.0,80.889375,6.35,16.641835125,30.59
2021-06-29 11:50:51.601562500,-52.75,37.0,-11.0,80.89015625,5.93,16.64167496875,30.59
2021-06-29 11:50:51.609375000,-52.5,37.0,-11.0,80.8909375,5.51,16.641514812500002,30.59
2021-06-29 11:50:51.617187500,-52.25,37.0,-11.0,80.89171875000001,5.165,16.64135465625,30.59
2021-06-29 11:50:51.625000000,-52.0,37.0,-11.0,80.8925,4.82,16.6411945,30.59
2021-06-29 11:50:51.632812500,-52.0,37.0,-11.0,80.89328125,4.6,16.64103434375,30.59
2021-06-29 11:50:51.640625000,-52.0,37.0,-11.0,80.8940625,4.38,16.6408741875,30.59
2021-06-29 11:50:51.648437500,-52.0,37.0,-11.0,80.89484375,4.275,16.640714031250003,30.59
2021-06-29 11:50:51.656250000,-52.0,37.0,-11.0,80.89562500000001,4.17,16.640553875000002,30.59
2021-06-29 11:50:51.664062500,-52.0,37.0,-11.0,80.89640625,4.16,16.64039371875,30.59
2021-06-29 11:50:51.671875000,-52.0,37.0,-11.0,80.8971875,4.15,16.6402335625,30.59
2021-06-29 11:50:51.679687500,-52.0,37.0,-11.0,80.89796875,4.19,16.64007340625,30.59
2021-06-29 11:50:51.687500000,-52.0,37.0,-11.0,80.89875,4.23,16.63991325,30.59
2021-06-29 11:50:51.695312500,-52.0,37.0,-11.0,80.89953125000001,4.24,16.639753093750002,30.59
2021-06-29 11:50:51.703125000,-52.0,37.0,-11.0,80.9003125,4.25,16.6395929375,30.59
2021-06-29 11:50:51.710937500,-52.0,37.0,-11.0,80.90109375,4.16,16.63943278125,30.59
2021-06-29 11:50:51.718750000,-52.0,37.0,-11.0,80.901875,4.07,16.639272625,30.59
2021-06-29 11:50:51.726562500,-52.25,37.0,-11.0,80.90265625,3.845,16.63911246875,30.59
2021-06-29 11:50:51.734375000,-52.5,37.0,-11.0,80.90343750000001,3.62,16.638952312500003,30.59
2021-06-29 11:50:51.742187500,-52.75,37.0,-11.0,80.90421875,3.2800000000000002,16.638792156250002,30.59
2021-06-29 11:50:51.750000000,-53.0,37.0,-11.0,80.905,2.94,16.638632,30.59
2021-06-29 11:50:51.757812500,-52.75,37.0,-11.0,80.90578125,2.56,16.638872187500002,30.59
2021-06-29 11:50:51.765625000,-52.5,37.0,-11.0,80.9065625,2.18,16.639112375,30.59
2021-06-29 11:50:51.773437500,-52.25,37.0,-11.0,80.90734375000001,1.855,16.6393525625,30.59
2021-06-29 11:50:51.781250000,-52.0,37.0,-11.0,80.908125,1.53,16.639592750000002,30.59
2021-06-29 11:50:51.789062500,-52.0,36.75,-11.0,80.90890625,1.31,16.6398329375,30.59
2021-06-29 11:50:51.796875000,-52.0,36.5,-11.0,80.9096875,1.09,16.640073125,30.59
2021-06-29 11:50:51.804687500,-52.0,36.25,-11.0,80.91046875,0.9550000000000001,16.640313312500002,30.59
2021-06-29 11:50:51.812500000,-52.0,36.0,-11.0,80.91125000000001,0.82,16.640553500000003,30.59
2021-06-29 11:50:51.820312500,-52.25,36.25,-11.0,80.91203125,0.6799999999999999,16.6407936875,30.59
2021-06-29 11:50:51.828125000,-52.5,36.5,-11.0,80.9128125,0.54,16.641033875,30.59
2021-06-29 11:50:51.835937500,-52.75,36.75,-11.0,80.91359375,0.29000000000000004,16.641274062500003,30.59
2021-06-29 11:50:51.843750000,-53.0,37.0,-11.0,80.914375,0.04,16.64151425,30.59
2021-06-29 11:50:51.851562500,-52.75,37.0,-11.0,80.91515625000001,-0.37000000000000005,16.6417544375,30.59
2021-06-29 11:50:51.859375000,-52.5,37.0,-11.0,80.91593750000001,-0.78,16.641994625000002,30.59
2021-06-29 11:50:51.867187500,-52.25,37.0,-11.0,80.91671875,-1.33,16.6422348125,30.59
2021-06-29 11:50:51.875000000,-52.0,37.0,-11.0,80.9175,-1.88,16.642475,30.59
2021-06-29 11:50:51.882812500,-52.0,37.0,-11.0,80.91828125,-2.495,16.642715187500002,30.59
2021-06-29 11:50:51.890625000,-52.0,37.0,-11.0,80.91906250000001,-3.11,16.642955375,30.59
2021-06-29 11:50:51.898437500,-52.0,37.0,-11.0,80.91984375000001,-3.715,16.6431955625,30.59
2021-06-29 11:50:51.906250000,-52.0,37.0,-11.0,80.920625,-4.32,16.643435750000002,30.59
2021-06-29 11:50:51.914062500,-52.0,37.0,-11.0,80.92140625,-4.885,16.6436759375,30.59
2021-06-29 11:50:51.921875000,-52.0,37.0,-11.0,80.9221875,-5.45,16.643916125,30.59
2021-06-29 11:50:51.929687500,-52.0,37.0,-11.0,80.92296875000001,-5.995,16.6441563125,30.59
2021-06-29 11:50:51.937500000,-52.0,37.0,-11.0,80.92375000000001,-6.54,16.6443965,30.59
2021-06-29 11:50:51.945312500,-52.0,37.0,-11.0,80.92453125,-7.125,16.6446366875,30.59
2021-06-29 11:50:51.953125000,-52.0,37.0,-11.0,80.9253125,-7.71,16.644876875,30.59
2021-06-29 11:50:51.960937500,-52.0,37.0,-11.0,80.92609375,-8.355,16.645117062500002,30.59
2021-06-29 11:50:51.968750000,-52.0,37.0,-11.0,80.92687500000001,-9.0,16.64535725,30.59
2021-06-29 11:50:51.976562500,-52.0,37.0,-11.0,80.92765625000001,-9.65,16.6455974375,30.59
2021-06-29 11:50:51.984375000,-52.0,37.0,-11.0,80.9284375,-10.3,16.645837625000002,30.59
2021-06-29 11:50:51.992187500,-52.0,37.0,-11.0,80.92921875,-10.83,16.6460778125,30.59
2021-06-29 11:50:52.000000000,-52.0,37.0,-11.0,80.93,-11.36,16.646318,30.59
2021-06-29 11:50:52.007812500,-52.25,37.0,-11.0,80.93070312500001,-11.625,16.64659821875,30.589375
2021-06-29 11:50:52.015625000,-52.5,37.0,-11.0,80.93140625000001,-11.89,16.6468784375,30.58875
2021-06-29 11:50:52.023437500,-52.75,37.0,-11.0,80.93210937500001,-11.79,16.64715865625,30.588125
2021-06-29 11:50:52.031250000,-53.0,37.0,-11.0,80.93281250000001,-11.69,16.647438875,30.5875
2021-06-29 11:50:52.039062500,-53.0,37.0,-11.0,80.93351562500001,-11.2,16.647719093750002,30.586875
2021-06-29 11:50:52.046875000,-53.0,37.0,-11.0,80.93421875,-10.71,16.6479993125,30.58625
2021-06-29 11:50:52.054687500,-53.0,37.0,-11.0,80.934921875,-9.89,16.64827953125,30.585625
2021-06-29 11:50:52.062500000,-53.0,37.0,-11.0,80.935625,-9.07,16.64855975,30.585
2021-06-29 11:50:52.070312500,-52.75,37.0,-11.0,80.936328125,-8.05,16.64883996875,30.584375
2021-06-29 11:50:52.078125000,-52.5,37.0,-11.0,80.93703125,-7.03,16.6491201875,30.58375
2021-06-29 11:50:52.085937500,-52.25,37.0,-11.0,80.937734375,-5.945,16.64940040625,30.583125
2021-06-29 11:50:52.093750000,-52.0,37.0,-11.0,80.9384375,-4.86,16.649680625000002,30.5825
2021-06-29 11:50:52.101562500,-52.0,36.75,-11.0,80.93914062500001,-3.825,16.64996084375,30.581875
2021-06-29 11:50:52.109375000,-52.0,36.5,-11.0,80.93984375000001,-2.79,16.6502410625,30.58125
2021-06-29 11:50:52.117187500,-52.0,36.25,-11.0,80.94054687500001,-1.87,16.65052128125,30.580625
2021-06-29 11:50:52.125000000,-52.0,36.0,-11.0,80.94125000000001,-0.95,16.6508015,30.58
2021-06-29 11:50:52.132812500,-52.25,36.0,-11.0,80.94195312500001,-0.19499999999999995,16.65108171875,30.579375
2021-06-29 11:50:52.140625000,-52.5,36.0,-11.0,80.94265625,0.56,16.6513619375,30.57875
2021-06-29 11:50:52.148437500,-52.75,36.0,-11.0,80.943359375,1.13,16.65164215625,30.578125
2021-06-29 11:50:52.156250000,-53.0,36.0,-11.0,80.9440625,1.7,16.651922374999998,30.5775
2021-06-29 11:50:52.164062500,-53.0,36.25,-11.0,80.944765625,2.07,16.65220259375,30.576875
2021-06-29 11:50:52.171875000,-53.0,36.5,-11.0,80.94546875,2.44,16.6524828125,30.57625
2021-06-29 11:50:52.179687500,-53.0,36.75,-11.0,80.946171875,2.61,16.65276303125,30.575625
2021-06-29 11:50:52.187500000,-53.0,37.0,-11.0,80.946875,2.78,16.65304325,30.575
2021-06-29 11:50:52.195312500,-52.75,37.0,-11.0,80.947578125,2.8049999999999997,16.65332346875,30.574375
2021-06-29 11:50:52.203125000,-52.5,37.0,-11.0,80.94828125000001,2.83,16.6536036875,30.57375
2021-06-29 11:50:52.210937500,-52.25,37.0,-11.0,80.94898437500001,2.795,16.653883906249998,30.573125
2021-06-29 11:50:52.218750000,-52.0,37.0,-11.0,80.94968750000001,2.76,16.654164125,30.5725
2021-06-29 11:50:52.226562500,-52.25,37.0,-11.0,80.95039062500001,2.795,16.65444434375,30.571875
2021-06-29 11:50:52.234375000,-52.5,37.0,-11.0,80.95109375,2.83,16.6547245625,30.57125
2021-06-29 11:50:52.242187500,-52.75,37.0,-11.0,80.951796875,3.08,16.65500478125,30.570625
2021-06-29 11:50:52.250000000,-53.0,37.0,-11.0,80.9525,3.33,16.655285,30.57
2021-06-29 11:50:52.257812500,-52.75,37.0,-11.0,80.953203125,3.87,16.65492475,30.57
2021-06-29 11:50:52.265625000,-52.5,37.0,-11.0,80.95390625,4.41,16.6545645,30.57
2021-06-29 11:50:52.273437500,-52.25,37.0,-11.0,80.954609375,5.23,16.65420425,30.57
2021-06-29 11:50:52.281250000,-52.0,37.0,-11.0,80.9553125,6.05,16.653844,30.57
2021-06-29 11:50:52.289062500,-52.0,36.75,-11.0,80.956015625,7.02,16.65348375,30.57
2021-06-29 11:50:52.296875000,-52.0,36.5,-11.0,80.95671875000001,7.99,16.6531235,30.57
2021-06-29 11:50:52.304687500,-52.0,36.25,-11.0,80.95742187500001,8.89,16.65276325,30.57
2021-06-29 11:50:52.312500000,-52.0,36.0,-11.0,80.95812500000001,9.79,16.652403,30.57
2021-06-29 11:50:52.320312500,-52.0,36.25,-11.0,80.958828125,10.39,16.65204275,30.57
2021-06-29 11:50:52.328125000,-52.0,36.5,-11.0,80.95953125,10.99,16.6516825,30.57
2021-06-29 11:50:52.335937500,-52.0,36.75,-11.0,80.960234375,11.125,16.65132225,30.57
2021-06-29 11:50:52.343750000,-52.0,37.0,-11.0,80.9609375,11.26,16.650962,30.57
2021-06-29 11:50:52.351562500,-52.0,37.0,-11.0,80.961640625,10.91,16.65060175,30.57
2021-06-29 11:50:52.359375000,-52.0,37.0,-11.0,80.96234375,10.56,16.6502415,30.57
2021-06-29 11:50:52.367187500,-52.0,37.0,-11.0,80.963046875,9.845,16.64988125,30.57
2021-06-29 11:50:52.375000000,-52.0,37.0,-11.0,80.96375,9.13,16.649521,30.57
2021-06-29 11:50:52.382812500,-52.0,37.0,-11.0,80.964453125,8.27,16.64916075,30.57
2021-06-29 11:50:52.390625000,-52.0,37.0,-11.0,80.96515625,7.41,16.6488005,30.57
2021-06-29 11:50:52.398437500,-52.0,37.0,-11.0,80.96585937500001,6.63,16.64844025,30.57
2021-06-29 11:50:52.406250000,-52.0,37.0,-11.0,80.96656250000001,5.85,16.64808,30.57
2021-06-29 11:50:52.414062500,-52.0,37.0,-11.0,80.967265625,5.324999999999999,16.64771975,30.57
2021-06-29 11:50:52.421875000,-52.0,37.0,-11.0,80.96796875,4.8,16.6473595,30.57
2021-06-29 11:50:52.429687500,-52.0,37.0,-11.0,80.968671875,4.57,16.64699925,30.57
2021-06-29 11:50:52.437500000,-52.0,37.0,-11.0,80.969375,4.34,16.646639,30.57
2021-06-29 11:50:52.445312500,-52.0,37.0,-11.0,80.970078125,4.33,16.64627875,30.57
2021-06-29 11:50:52.453125000,-52.0,37.0,-11.0,80.97078125,4.32,16.6459185,30.57
2021-06-29 11:50:52.460937500,-52.0,37.0,-11.0,80.971484375,4.390000000000001,16.64555825,30.57
2021-06-29 11:50:52.468750000,-52.0,37.0,-11.0,80.9721875,4.46,16.645198,30.57
2021-06-29 11:50:52.476562500,-52.0,37.0,-11.0,80.972890625,4.475,16.64483775,30.57
2021-06-29 11:50:52.484375000,-52.0,37.0,-11.0,80.97359375,4.49,16.6444775,30.57
2021-06-29 11:50:52.492187500,-52.0,37.0,-11.0,80.97429687500001,4.365,16.64411725,30.57
2021-06-29 11:50:52.500000000,-52.0,37.0,-11.0,80.975,4.24,16.643757,30.57
2021-06-29 11:50:52.507812500,-52.0,36.75,-11.0,80.975703125,3.9400000000000004,16.64391709375,30.57
2021-06-29 11:50:52.515625000,-52.0,36.5,-11.0,80.97640625,3.64,16.644077187500002,30.57
2021-06-29 11:50:52.523437500,-52.0,36.25,-11.0,80.977109375,3.2,16.64423728125,30.57
2021-06-29 11:50:52.531250000,-52.0,36.0,-11.0,80.9778125,2.76,16.644397375,30.57
2021-06-29 11:50:52.539062500,-52.25,36.25,-11.0,80.978515625,2.2199999999999998,16.64455746875,30.57
2021-06-29 11:50:52.546875000,-52.5,36.5,-11.0,80.97921875,1.68,16.6447175625,30.57
2021-06-29 11:50:52.554687500,-52.75,36.75,-11.0,80.979921875,1.1099999999999999,16.64487765625,30.57
2021-06-29 11:50:52.562500000,-53.0,37.0,-11.0,80.980625,0.54,16.64503775,30.57
2021-06-29 11:50:52.570312500,-53.0,36.75,-11.0,80.981328125,-0.030000000000000027,16.64519784375,30.57
2021-06-29 11:50:52.578125000,-53.0,36.5,-11.0,80.98203125,-0.6,16.645357937500002,30.57
2021-06-29 11:50:52.585937500,-53.0,36.25,-11.0,80.982734375,-1.105,16.64551803125,30.57
2021-06-29 11:50:52.593750000,-53.0,36.0,-11.0,80.9834375,-1.61,16.645678125,30.57
2021-06-29 11:50:52.601562500,-52.75,36.25,-11.0,80.984140625,-1.995,16.64583821875,30.57
2021-06-29 11:50:52.609375000,-52.5,36.5,-11.0,80.98484375,-2.38,16.645998312499998,30.57
