TimeStamp,empatica.acc.x,empatica.acc.y,empatica.acc.z,empatica.hr,empatica.bvp,empatica.eda,empatica.temp
2021-06-30 18:36:54.320312500,-64.0,15.0,1.0,169.540859375,8.879999999999999,3.32045825,33.07
2021-06-30 18:36:54.328125000,-64.0,15.0,1.0,169.54234375,8.72,3.3207385,33.07
2021-06-30 18:36:54.335937500,-64.0,15.0,1.0,169.54382812499998,8.595,3.32101875,33.07
2021-06-30 18:36:54.343750000,-64.0,15.0,1.0,169.5453125,8.47,3.321299,33.07
2021-06-30 18:36:54.351562500,-64.0,15.0,1.0,169.54679687499998,8.41,3.32157925,33.07
2021-06-30 18:36:54.359375000,-64.0,15.0,1.0,169.54828125,8.35,3.3218595,33.07
2021-06-30 18:36:54.367187500,-64.0,15.0,1.0,169.549765625,8.33,3.32213975,33.07
2021-06-30 18:36:54.375000000,-64.0,15.0,1.0,169.55124999999998,8.31,3.32242,33.07
2021-06-30 18:36:54.382812500,-63.75,15.0,1.0,169.552734375,8.280000000000001,3.32270025,33.07
2021-06-30 18:36:54.390625000,-63.5,15.0,1.0,169.55421875,8.25,3.3229805,33.07
2021-06-30 18:36:54.398437500,-63.25,15.0,1.0,169.55570312499998,8.17,3.3232607499999998,33.07
2021-06-30 18:36:54.406250000,-63.0,15.0,1.0,169.5571875,8.09,3.323541,33.07
2021-06-30 18:36:54.414062500,-63.25,15.0,1.0,169.558671875,7.96,3.32382125,33.07
2021-06-30 18:36:54.421875000,-63.5,15.0,1.0,169.56015624999998,7.83,3.3241015,33.07
2021-06-30 18:36:54.429687500,-63.75,15.0,1.0,169.561640625,7.68,3.3243817499999997,33.07
2021-06-30 18:36:54.437500000,-64.0,15.0,1.0,169.56312499999999,7.53,3.324662,33.07
2021-06-30 18:36:54.445312500,-64.0,15.0,1.0,169.56460937499997,7.405,3.32494225,33.07
2021-06-30 18:36:54.453125000,-64.0,15.0,1.0,169.56609375,7.28,3.3252224999999997,33.07
2021-06-30 18:36:54.460937500,-64.0,15.0,1.0,169.56757812499998,7.2,3.32550275,33.07
2021-06-30 18:36:54.468750000,-64.0,15.0,1.0,169.5690625,7.12,3.325783,33.07
2021-06-30 18:36:54.476562500,-64.0,15.0,1.0,169.570546875,7.1,3.32606325,33.07
2021-06-30 18:36:54.484375000,-64.0,15.0,1.0,169.57203124999998,7.08,3.3263434999999997,33.07
2021-06-30 18:36:54.492187500,-64.0,15.0,1.0,169.573515625,7.085,3.32662375,33.07
2021-06-30 18:36:54.500000000,-64.0,15.0,1.0,169.575,7.09,3.326904,33.07
2021-06-30 18:36:54.507812500,-64.0,15.0,1.0,169.57648437499998,7.07,3.32694403125,33.07
2021-06-30 18:36:54.515625000,-64.0,15.0,1.0,169.57796875,7.05,3.3269840625,33.07
2021-06-30 18:36:54.523437500,-64.0,15.0,1.0,169.579453125,6.925,3.32702409375,33.07
2021-06-30 18:36:54.531250000,-64.0,15.0,1.0,169.58093749999998,6.8,3.3270641249999997,33.07
2021-06-30 18:36:54.539062500,-63.75,15.0,1.0,169.582421875,6.475,3.32710415625,33.07
2021-06-30 18:36:54.546875000,-63.5,15.0,1.0,169.58390624999998,6.15,3.3271441875,33.07
2021-06-30 18:36:54.554687500,-63.25,15.0,1.0,169.585390625,5.535,3.32718421875,33.07
2021-06-30 18:36:54.562500000,-63.0,15.0,1.0,169.586875,4.92,3.32722425,33.07
2021-06-30 18:36:54.570312500,-63.25,15.0,1.0,169.58835937499998,3.99,3.3272642812499997,33.07
2021-06-30 18:36:54.578125000,-63.5,15.0,1.0,169.58984375,3.06,3.3273043125,33.07
2021-06-30 18:36:54.585937500,-63.75,15.0,1.0,169.591328125,1.835,3.32734434375,33.07
2021-06-30 18:36:54.593750000,-64.0,15.0,1.0,169.59281249999998,0.61,3.327384375,33.07
2021-06-30 18:36:54.601562500,-64.0,15.0,1.0,169.594296875,-0.805,3.32742440625,33.07
2021-06-30 18:36:54.609375000,-64.0,15.0,1.0,169.59578125,-2.22,3.3274644374999998,33.07
2021-06-30 18:36:54.617187500,-64.0,15.0,1.0,169.59726562499998,-3.67,3.32750446875,33.07
2021-06-30 18:36:54.625000000,-64.0,15.0,1.0,169.59875,-5.12,3.3275445,33.07
2021-06-30 18:36:54.632812500,-64.0,15.0,1.0,169.60023437499999,-6.445,3.32758453125,33.07
2021-06-30 18:36:54.640625000,-64.0,15.0,1.0,169.60171874999997,-7.77,3.3276245625,33.07
2021-06-30 18:36:54.648437500,-64.0,15.0,1.0,169.603203125,-8.844999999999999,3.32766459375,33.07
2021-06-30 18:36:54.656250000,-64.0,15.0,1.0,169.60468749999998,-9.92,3.327704625,33.07
2021-06-30 18:36:54.664062500,-63.75,15.0,1.0,169.606171875,-10.705,3.3277446562499997,33.07
2021-06-30 18:36:54.671875000,-63.5,15.0,1.0,169.60765625,-11.49,3.3277846875,33.07
2021-06-30 18:36:54.679687500,-63.25,15.0,1.0,169.60914062499998,-12.065000000000001,3.32782471875,33.07
2021-06-30 18:36:54.687500000,-63.0,15.0,1.0,169.610625,-12.64,3.32786475,33.07
2021-06-30 18:36:54.695312500,-63.25,15.0,1.0,169.612109375,-13.16,3.32790478125,33.07
2021-06-30 18:36:54.703125000,-63.5,15.0,1.0,169.61359374999998,-13.68,3.3279448124999997,33.07
2021-06-30 18:36:54.710937500,-63.75,15.0,1.0,169.615078125,-14.35,3.32798484375,33.07
2021-06-30 18:36:54.718750000,-64.0,15.0,1.0,169.6165625,-15.02,3.328024875,33.07
2021-06-30 18:36:54.726562500,-63.75,15.0,1.0,169.61804687499998,-16.02,3.32806490625,33.07
2021-06-30 18:36:54.734375000,-63.5,15.0,1.0,169.61953125,-17.02,3.3281049375,33.07
2021-06-30 18:36:54.742187500,-63.25,15.0,1.0,169.62101562499998,-18.4,3.3281449687499998,33.07
2021-06-30 18:36:54.750000000,-63.0,15.0,1.0,169.6225,-19.78,3.328185,33.07
2021-06-30 18:36:54.757812500,-63.25,15.0,1.0,169.623984375,-21.425,3.32822503125,33.07
2021-06-30 18:36:54.765625000,-63.5,15.0,1.0,169.62546874999998,-23.07,3.3282650625,33.07
2021-06-30 18:36:54.773437500,-63.75,15.0,1.0,169.626953125,-24.705,3.32830509375,33.07
2021-06-30 18:36:54.781250000,-64.0,15.0,1.0,169.6284375,-26.34,3.328345125,33.07
2021-06-30 18:36:54.789062500,-64.0,15.0,1.0,169.62992187499998,-27.564999999999998,3.32838515625,33.07
2021-06-30 18:36:54.796875000,-64.0,15.0,1.0,169.63140625,-28.79,3.3284251875,33.07
2021-06-30 18:36:54.804687500,-64.0,15.0,1.0,169.632890625,-29.23,3.32846521875,33.07
2021-06-30 18:36:54.812500000,-64.0,15.0,1.0,169.63437499999998,-29.67,3.32850525,33.07
2021-06-30 18:36:54.820312500,-63.75,15.0,1.0,169.635859375,-29.095,3.32854528125,33.07
2021-06-30 18:36:54.828125000,-63.5,15.0,1.0,169.63734374999999,-28.52,3.3285853125,33.07
2021-06-30 18:36:54.835937500,-63.25,15.0,1.0,169.63882812499997,-26.884999999999998,3.32862534375,33.07
2021-06-30 18:36:54.843750000,-63.0,15.0,1.0,169.6403125,-25.25,3.328665375,33.07
2021-06-30 18:36:54.851562500,-63.25,15.0,1.0,169.64179687499998,-22.740000000000002,3.32870540625,33.07
2021-06-30 18:36:54.859375000,-63.5,15.0,1.0,169.64328125,-20.23,3.3287454375,33.07
2021-06-30 18:36:54.867187500,-63.75,15.0,1.0,169.644765625,-17.155,3.32878546875,33.07
2021-06-30 18:36:54.875000000,-64.0,15.0,1.0,169.64624999999998,-14.08,3.3288254999999998,33.07
2021-06-30 18:36:54.882812500,-64.0,15.0,1.0,169.647734375,-10.81,3.32886553125,33.07
2021-06-30 18:36:54.890625000,-64.0,15.0,1.0,169.64921875,-7.54,3.3289055625,33.07
2021-06-30 18:36:54.898437500,-64.0,15.0,1.0,169.65070312499998,-4.385,3.32894559375,33.07
2021-06-30 18:36:54.906250000,-64.0,15.0,1.0,169.6521875,-1.23,3.328985625,33.07
2021-06-30 18:36:54.914062500,-63.75,15.0,1.0,169.653671875,1.5850000000000004,3.32902565625,33.07
2021-06-30 18:36:54.921875000,-63.5,15.0,1.0,169.65515624999998,4.4,3.3290656875,33.07
2021-06-30 18:36:54.929687500,-63.25,15.0,1.0,169.656640625,6.75,3.32910571875,33.07
2021-06-30 18:36:54.937500000,-63.0,15.0,1.0,169.65812499999998,9.1,3.32914575,33.07
2021-06-30 18:36:54.945312500,-63.25,15.0,1.0,169.65960937499997,10.925,3.32918578125,33.07
2021-06-30 18:36:54.953125000,-63.5,15.0,1.0,169.66109375,12.75,3.3292258125,33.07
2021-06-30 18:36:54.960937500,-63.75,15.0,1.0,169.66257812499998,14.07,3.32926584375,33.07
2021-06-30 18:36:54.968750000,-64.0,15.0,1.0,169.6640625,15.39,3.329305875,33.07
2021-06-30 18:36:54.976562500,-64.0,15.0,1.0,169.665546875,16.259999999999998,3.32934590625,33.07
2021-06-30 18:36:54.984375000,-64.0,15.0,1.0,169.66703124999998,17.13,3.3293859375,33.07
2021-06-30 18:36:54.992187500,-64.0,15.0,1.0,169.668515625,17.634999999999998,3.32942596875,33.07
2021-06-30 18:36:55.000000000,-64.0,15.0,1.0,169.67,18.14,3.329466,33.07
2021-06-30 18:36:55.007812500,-64.0,15.0,1.0,169.67164062499998,18.395,3.329466,33.069375
2021-06-30 18:36:55.015625000,-64.0,15.0,1.0,169.67328124999997,18.65,3.329466,33.06875
2021-06-30 18:36:55.023437500,-64.0,15.0,1.0,169.674921875,18.785,3.329466,33.068125
2021-06-30 18:36:55.031250000,-64.0,15.0,1.0,169.6765625,18.92,3.329466,33.0675
2021-06-30 18:36:55.039062500,-64.0,15.0,1.0,169.67820312499998,19.045,3.329466,33.066875
2021-06-30 18:36:55.046875000,-64.0,15.0,1.0,169.67984374999997,19.17,3.329466,33.06625
2021-06-30 18:36:55.054687500,-64.0,15.0,1.0,169.681484375,19.335,3.329466,33.065625
2021-06-30 18:36:55.062500000,-64.0,15.0,1.0,169.683125,19.5,3.329466,33.065
2021-06-30 18:36:55.070312500,-64.0,15.0,1.0,169.68476562499998,19.72,3.329466,33.064375
2021-06-30 18:36:55.078125000,-64.0,15.0,1.0,169.68640624999998,19.94,3.329466,33.06375
2021-06-30 18:36:55.085937500,-64.0,15.0,1.0,169.688046875,20.185000000000002,3.329466,33.063125
2021-06-30 18:36:55.093750000,-64.0,15.0,1.0,169.6896875,20.43,3.329466,33.0625
2021-06-30 18:36:55.101562500,-64.0,15.0,1.0,169.69132812499998,20.634999999999998,3.329466,33.061875
2021-06-30 18:36:55.109375000,-64.0,15.0,1.0,169.69296874999998,20.84,3.329466,33.06125
2021-06-30 18:36:55.117187500,-64.0,15.0,1.0,169.694609375,20.945,3.329466,33.060625
2021-06-30 18:36:55.125000000,-64.0,15.0,1.0,169.69625,21.05,3.329466,33.06
2021-06-30 18:36:55.132812500,-63.75,15.0,1.0,169.69789062499999,21.02,3.329466,33.059374999999996
2021-06-30 18:36:55.140625000,-63.5,15.0,1.0,169.69953124999998,20.99,3.329466,33.058749999999996
2021-06-30 18:36:55.148437500,-63.25,15.0,1.0,169.701171875,20.805,3.329466,33.058125
2021-06-30 18:36:55.156250000,-63.0,15.0,1.0,169.7028125,20.62,3.329466,33.0575
2021-06-30 18:36:55.164062500,-63.25,15.0,1.0,169.704453125,20.33,3.329466,33.056875
2021-06-30 18:36:55.171875000,-63.5,15.0,1.0,169.70609374999998,20.04,3.329466,33.05625
2021-06-30 18:36:55.179687500,-63.75,15.0,1.0,169.707734375,19.71,3.329466,33.055625
2021-06-30 18:36:55.187500000,-64.0,15.0,1.0,169.709375,19.38,3.329466,33.055
2021-06-30 18:36:55.195312500,-63.75,15.0,1.0,169.711015625,19.119999999999997,3.329466,33.054375
2021-06-30 18:36:55.203125000,-63.5,15.0,1.0,169.71265624999998,18.86,3.329466,33.05375
2021-06-30 18:36:55.210937500,-63.25,15.0,1.0,169.714296875,18.744999999999997,3.329466,33.053124999999994
2021-06-30 18:36:55.218750000,-63.0,15.0,1.0,169.7159375,18.63,3.329466,33.052499999999995
2021-06-30 18:36:55.226562500,-63.25,15.0,1.0,169.717578125,18.685,3.329466,33.051874999999995
2021-06-30 18:36:55.234375000,-63.5,15.0,1.0,169.71921874999998,18.74,3.329466,33.051249999999996
2021-06-30 18:36:55.242187500,-63.75,15.0,1.0,169.720859375,18.875,3.329466,33.050625
2021-06-30 18:36:55.250000000,-64.0,15.0,1.0,169.7225,19.01,3.329466,33.05
2021-06-30 18:36:55.257812500,-63.75,15.0,1.25,169.724140625,19.08,3.32926584375,33.05
2021-06-30 18:36:55.265625000,-63.5,15.0,1.5,169.72578124999998,19.15,3.3290656875,33.05
2021-06-30 18:36:55.273437500,-63.25,15.0,1.75,169.72742187499998,18.97,3.32886553125,33.05
2021-06-30 18:36:55.281250000,-63.0,15.0,2.0,169.7290625,18.79,3.328665375,33.05
2021-06-30 18:36:55.289062500,-63.25,15.0,1.75,169.730703125,18.225,3.32846521875,33.05
2021-06-30 18:36:55.296875000,-63.5,15.0,1.5,169.73234374999998,17.66,3.3282650625,33.05
2021-06-30 18:36:55.304687500,-63.75,15.0,1.25,169.73398437499998,16.705,3.32806490625,33.05
2021-06-30 18:36:55.312500000,-64.0,15.0,1.0,169.735625,15.75,3.32786475,33.05
2021-06-30 18:36:55.320312500,-64.0,15.0,1.0,169.737265625,14.515,3.3276645937500002,33.05
2021-06-30 18:36:55.328125000,-64.0,15.0,1.0,169.73890624999999,13.28,3.3274644375,33.05
2021-06-30 18:36:55.335937500,-64.0,15.0,1.0,169.74054687499998,11.98,3.32726428125,33.05
2021-06-30 18:36:55.343750000,-64.0,15.0,1.0,169.7421875,10.68,3.327064125,33.05
2021-06-30 18:36:55.351562500,-64.0,15.0,1.0,169.743828125,9.504999999999999,3.32686396875,33.05
2021-06-30 18:36:55.359375000,-64.0,15.0,1.0,169.74546875,8.33,3.3266638125,33.05
2021-06-30 18:36:55.367187500,-64.0,15.0,1.0,169.74710937499998,7.38,3.32646365625,33.05
2021-06-30 18:36:55.375000000,-64.0,15.0,1.0,169.74875,6.43,3.3262635,33.05
2021-06-30 18:36:55.382812500,-64.0,15.0,1.0,169.750390625,5.665,3.32606334375,33.05
2021-06-30 18:36:55.390625000,-64.0,15.0,1.0,169.75203125,4.9,3.3258631875,33.05
2021-06-30 18:36:55.398437500,-64.0,15.0,1.0,169.75367187499998,4.16,3.32566303125,33.05
2021-06-30 18:36:55.406250000,-64.0,15.0,1.0,169.7553125,3.42,3.325462875,33.05
2021-06-30 18:36:55.414062500,-64.0,15.0,1.0,169.756953125,2.53,3.32526271875,33.05
2021-06-30 18:36:55.421875000,-64.0,15.0,1.0,169.75859375,1.64,3.3250625625,33.05
2021-06-30 18:36:55.429687500,-64.0,15.0,1.0,169.76023437499998,0.47499999999999987,3.32486240625,33.05
2021-06-30 18:36:55.437500000,-64.0,15.0,1.0,169.761875,-0.69,3.3246622500000003,33.05
2021-06-30 18:36:55.445312500,-63.75,15.0,1.0,169.763515625,-2.19,3.3244620937500002,33.05
2021-06-30 18:36:55.453125000,-63.5,15.0,1.0,169.76515625,-3.69,3.3242619375,33.05
2021-06-30 18:36:55.460937500,-63.25,15.0,1.0,169.76679687499998,-5.45,3.32406178125,33.05
2021-06-30 18:36:55.468750000,-63.0,15.0,1.0,169.7684375,-7.21,3.323861625,33.05
2021-06-30 18:36:55.476562500,-63.25,15.0,1.0,169.770078125,-9.1,3.32366146875,33.05
2021-06-30 18:36:55.484375000,-63.5,15.0,1.0,169.77171875,-10.99,3.3234613125,33.05
2021-06-30 18:36:55.492187500,-63.75,15.0,1.0,169.77335937499998,-12.795,3.32326115625,33.05
2021-06-30 18:36:55.500000000,-64.0,15.0,1.0,169.77499999999998,-14.6,3.323061,33.05
2021-06-30 18:36:55.507812500,-64.0,15.0,1.0,169.776640625,-16.055,3.323061,33.05
2021-06-30 18:36:55.515625000,-64.0,15.0,1.0,169.77828125,-17.51,3.323061,33.05
2021-06-30 18:36:55.523437500,-64.0,15.0,1.0,169.77992187499999,-18.32,3.323061,33.05
2021-06-30 18:36:55.531250000,-64.0,15.0,1.0,169.78156249999998,-19.13,3.323061,33.05
2021-06-30 18:36:55.539062500,-63.75,15.0,1.0,169.783203125,-19.025,3.323061,33.05
2021-06-30 18:36:55.546875000,-63.5,15.0,1.0,169.78484375,-18.92,3.323061,33.05
2021-06-30 18:36:55.554687500,-63.25,15.0,1.0,169.786484375,-17.755000000000003,3.323061,33.05
2021-06-30 18:36:55.562500000,-63.0,15.0,1.0,169.78812499999998,-16.59,3.323061,33.05
2021-06-30 18:36:55.570312500,-63.25,15.0,1.0,169.789765625,-14.415,3.323061,33.05
2021-06-30 18:36:55.578125000,-63.5,15.0,1.0,169.79140625,-12.24,3.323061,33.05
2021-06-30 18:36:55.585937500,-63.75,15.0,1.0,169.793046875,-9.345,3.323061,33.05
2021-06-30 18:36:55.593750000,-64.0,15.0,1.0,169.79468749999998,-6.45,3.323061,33.05
2021-06-30 18:36:55.601562500,-63.75,15.0,1.0,169.796328125,-3.265,3.323061,33.05
2021-06-30 18:36:55.609375000,-63.5,15.0,1.0,169.79796875,-0.08,3.323061,33.05
2021-06-30 18:36:55.617187500,-63.25,15.0,1.0,169.799609375,2.95,3.323061,33.05
2021-06-30 18:36:55.625000000,-63.0,15.0,1.0,169.80124999999998,5.98,3.323061,33.05
2021-06-30 18:36:55.632812500,-63.25,15.0,1.0,169.802890625,8.54,3.323061,33.05
2021-06-30 18:36:55.640625000,-63.5,15.0,1.0,169.80453125,11.1,3.323061,33.05
2021-06-30 18:36:55.648437500,-63.75,15.0,1.0,169.806171875,13.045,3.323061,33.05
2021-06-30 18:36:55.656250000,-64.0,15.0,1.0,169.80781249999998,14.99,3.323061,33.05
2021-06-30 18:36:55.664062500,-64.0,15.0,1.0,169.809453125,16.365,3.323061,33.05
2021-06-30 18:36:55.671875000,-64.0,15.0,1.0,169.81109375,17.74,3.323061,33.05
2021-06-30 18:36:55.679687500,-64.0,15.0,1.0,169.812734375,18.63,3.323061,33.05
2021-06-30 18:36:55.687500000,-64.0,15.0,1.0,169.81437499999998,19.52,3.323061,33.05
2021-06-30 18:36:55.695312500,-64.0,15.0,1.0,169.816015625,19.990000000000002,3.323061,33.05
2021-06-30 18:36:55.703125000,-64.0,15.0,1.0,169.81765625,20.46,3.323061,33.05
2021-06-30 18:36:55.710937500,-64.0,15.0,1.0,169.819296875,20.525,3.323061,33.05
2021-06-30 18:36:55.718750000,-64.0,15.0,1.0,169.82093749999999,20.59,3.323061,33.05
2021-06-30 18:36:55.726562500,-64.0,15.0,1.0,169.822578125,20.275,3.323061,33.05
2021-06-30 18:36:55.734375000,-64.0,15.0,1.0,169.82421875,19.96,3.323061,33.05
2021-06-30 18:36:55.742187500,-64.0,15.0,1.0,169.825859375,19.32,3.323061,33.05
2021-06-30 18:36:55.750000000,-64.0,15.0,1.0,169.8275,18.68,3.323061,33.05
2021-06-30 18:36:55.757812500,-64.0,15.0,1.0,169.82914062499998,17.869999999999997,3.32290084375,33.05
2021-06-30 18:36:55.765625000,-64.0,15.0,1.0,169.83078125,17.06,3.3227406875,33.05
2021-06-30 18:36:55.773437500,-64.0,15.0,1.0,169.832421875,16.275,3.32258053125,33.05
2021-06-30 18:36:55.781250000,-64.0,15.0,1.0,169.8340625,15.49,3.322420375,33.05
2021-06-30 18:36:55.789062500,-64.0,15.0,1.0,169.83570312499998,14.89,3.32226021875,33.05
2021-06-30 18:36:55.796875000,-64.0,15.0,1.0,169.83734375,14.29,3.3221000625,33.05
2021-06-30 18:36:55.804687500,-64.0,15.0,1.0,169.838984375,13.95,3.32193990625,33.05
2021-06-30 18:36:55.812500000,-64.0,15.0,1.0,169.840625,13.61,3.32177975,33.05
2021-06-30 18:36:55.820312500,-64.0,15.0,1.0,169.84226562499998,13.485,3.32161959375,33.05
2021-06-30 18:36:55.828125000,-64.0,15.0,1.0,169.84390625,13.36,3.3214594375,33.05
2021-06-30 18:36:55.835937500,-64.0,15.0,1.0,169.845546875,13.32,3.32129928125,33.05
2021-06-30 18:36:55.843750000,-64.0,15.0,1.0,169.8471875,13.28,3.321139125,33.05
2021-06-30 18:36:55.851562500,-64.0,15.0,1.0,169.84882812499998,13.195,3.32097896875,33.05
2021-06-30 18:36:55.859375000,-64.0,15.0,1.0,169.85046875,13.11,3.3208188125,33.05
2021-06-30 18:36:55.867187500,-64.0,15.0,1.0,169.852109375,12.879999999999999,3.32065865625,33.05
2021-06-30 18:36:55.875000000,-64.0,15.0,1.0,169.85375,12.65,3.3204985000000002,33.05
2021-06-30 18:36:55.882812500,-63.75,15.0,1.0,169.85539062499998,12.25,3.32033834375,33.05
2021-06-30 18:36:55.890625000,-63.5,15.0,1.0,169.85703125,11.85,3.3201781875,33.05
2021-06-30 18:36:55.898437500,-63.25,15.0,1.0,169.858671875,11.305,3.32001803125,33.05
2021-06-30 18:36:55.906250000,-63.0,15.0,1.0,169.8603125,10.76,3.319857875,33.05
2021-06-30 18:36:55.914062500,-63.25,15.0,1.0,169.86195312499999,10.14,3.31969771875,33.05
2021-06-30 18:36:55.921875000,-63.5,15.0,1.0,169.86359375,9.52,3.3195375625,33.05
2021-06-30 18:36:55.929687500,-63.75,15.0,1.0,169.865234375,8.895,3.31937740625,33.05
2021-06-30 18:36:55.937500000,-64.0,15.0,1.0,169.866875,8.27,3.31921725,33.05
2021-06-30 18:36:55.945312500,-64.0,15.0,1.0,169.868515625,7.699999999999999,3.31905709375,33.05
2021-06-30 18:36:55.953125000,-64.0,15.0,1.0,169.87015625,7.13,3.3188969375,33.05
2021-06-30 18:36:55.960937500,-64.0,15.0,1.0,169.871796875,6.62,3.31873678125,33.05
2021-06-30 18:36:55.968750000,-64.0,15.0,1.0,169.8734375,6.11,3.318576625,33.05
2021-06-30 18:36:55.976562500,-64.0,15.0,1.0,169.875078125,5.62,3.31841646875,33.05
2021-06-30 18:36:55.984375000,-64.0,15.0,1.0,169.87671875,5.13,3.3182563125,33.05
2021-06-30 18:36:55.992187500,-64.0,15.0,1.0,169.878359375,4.57,3.31809615625,33.05
2021-06-30 18:36:56.000000000,-64.0,15.0,1.0,169.88,4.01,3.317936,33.05
2021-06-30 18:36:56.007812500,-63.75,15.0,1.0,169.88171875,3.2649999999999997,3.317936,33.050625
2021-06-30 18:36:56.015625000,-63.5,15.0,1.0,169.88343749999999,2.52,3.317936,33.051249999999996
2021-06-30 18:36:56.023437500,-63.25,15.0,1.0,169.88515625,1.5,3.317936,33.051874999999995
2021-06-30 18:36:56.031250000,-63.0,15.0,1.0,169.886875,0.48,3.317936,33.052499999999995
2021-06-30 18:36:56.039062500,-63.25,15.0,1.0,169.88859374999998,-0.8200000000000001,3.317936,33.053124999999994
2021-06-30 18:36:56.046875000,-63.5,15.0,1.0,169.8903125,-2.12,3.317936,33.05375
2021-06-30 18:36:56.054687500,-63.75,15.0,1.0,169.89203125,-3.61,3.317936,33.054375
2021-06-30 18:36:56.062500000,-64.0,15.0,1.0,169.89374999999998,-5.1,3.317936,33.055
2021-06-30 18:36:56.070312500,-64.0,15.0,1.0,169.89546875,-6.62,3.317936,33.055625
2021-06-30 18:36:56.078125000,-64.0,15.0,1.0,169.8971875,-8.14,3.317936,33.05625
2021-06-30 18:36:56.085937500,-64.0,15.0,1.0,169.89890624999998,-9.510000000000002,3.317936,33.056875
2021-06-30 18:36:56.093750000,-64.0,15.0,1.0,169.900625,-10.88,3.317936,33.0575
2021-06-30 18:36:56.101562500,-64.0,15.0,1.0,169.90234375,-12.005,3.317936,33.058125
2021-06-30 18:36:56.109375000,-64.0,15.0,1.0,169.9040625,-13.13,3.317936,33.058749999999996
2021-06-30 18:36:56.117187500,-64.0,15.0,1.0,169.90578125,-14.025,3.317936,33.059374999999996
2021-06-30 18:36:56.125000000,-64.0,15.0,1.0,169.9075,-14.92,3.317936,33.06
2021-06-30 18:36:56.132812500,-63.75,15.0,1.0,169.90921875,-15.71,3.317936,33.060625
2021-06-30 18:36:56.140625000,-63.5,15.0,1.0,169.9109375,-16.5,3.317936,33.06125
2021-06-30 18:36:56.148437500,-63.25,15.0,1.0,169.91265625,-17.380000000000003,3.317936,33.061875
2021-06-30 18:36:56.156250000,-63.0,15.0,1.0,169.914375,-18.26,3.317936,33.0625
2021-06-30 18:36:56.164062500,-63.25,15.0,1.0,169.91609375,-19.42,3.317936,33.063125
2021-06-30 18:36:56.171875000,-63.5,15.0,1.0,169.9178125,-20.58,3.317936,33.06375
2021-06-30 18:36:56.179687500,-63.75,15.0,1.0,169.91953125,-22.1,3.317936,33.064375
2021-06-30 18:36:56.187500000,-64.0,15.0,1.0,169.92125,-23.62,3.317936,33.065
2021-06-30 18:36:56.195312500,-64.0,15.0,1.0,169.92296875,-25.450000000000003,3.317936,33.065625
2021-06-30 18:36:56.203125000,-64.0,15.0,1.0,169.9246875,-27.28,3.317936,33.06625
2021-06-30 18:36:56.210937500,-64.0,15.0,1.0,169.92640624999999,-29.205,3.317936,33.066875
2021-06-30 18:36:56.218750000,-64.0,15.0,1.0,169.928125,-31.13,3.317936,33.0675
2021-06-30 18:36:56.226562500,-64.0,15.0,1.0,169.92984375,-32.815,3.317936,33.068125
2021-06-30 18:36:56.234375000,-64.0,15.0,1.0,169.93156249999998,-34.5,3.317936,33.06875
2021-06-30 18:36:56.242187500,-64.0,15.0,1.0,169.93328125,-35.555,3.317936,33.069375
2021-06-30 18:36:56.250000000,-64.0,15.0,1.0,169.935,-36.61,3.317936,33.07
2021-06-30 18:36:56.257812500,-64.0,15.0,1.0,169.93671874999998,-36.695,3.3178559375,33.07
2021-06-30 18:36:56.265625000,-64.0,15.0,1.0,169.9384375,-36.78,3.317775875,33.07
2021-06-30 18:36:56.273437500,-64.0,15.0,1.0,169.94015625,-35.705,3.3176958125,33.07
2021-06-30 18:36:56.281250000,-64.0,15.0,1.0,169.94187499999998,-34.63,3.31761575,33.07
2021-06-30 18:36:56.289062500,-64.0,15.0,1.0,169.94359375,-32.42,3.3175356875,33.07
2021-06-30 18:36:56.296875000,-64.0,15.0,1.0,169.9453125,-30.21,3.317455625,33.07
2021-06-30 18:36:56.304687500,-64.0,15.0,1.0,169.94703125,-27.134999999999998,3.3173755625,33.07
2021-06-30 18:36:56.312500000,-64.0,15.0,1.0,169.94875,-24.06,3.3172955,33.07
2021-06-30 18:36:56.320312500,-63.75,15.0,1.0,169.95046875,-20.535,3.3172154375,33.07
2021-06-30 18:36:56.328125000,-63.5,15.0,1.0,169.9521875,-17.01,3.317135375,33.07
2021-06-30 18:36:56.335937500,-63.25,15.0,1.0,169.95390625,-13.530000000000001,3.3170553125,33.07
2021-06-30 18:36:56.343750000,-63.0,15.0,1.0,169.955625,-10.05,3.31697525,33.07
2021-06-30 18:36:56.351562500,-63.25,15.0,1.0,169.95734375,-7.0200000000000005,3.3168951875,33.07
2021-06-30 18:36:56.359375000,-63.5,15.0,1.0,169.9590625,-3.99,3.3168151249999998,33.07
2021-06-30 18:36:56.367187500,-63.75,15.0,1.0,169.96078125,-1.6550000000000002,3.3167350625,33.07
2021-06-30 18:36:56.375000000,-64.0,15.0,1.0,169.9625,0.68,3.316655,33.07
2021-06-30 18:36:56.382812500,-63.75,15.0,1.0,169.96421875,2.26,3.3165749375,33.07
2021-06-30 18:36:56.390625000,-63.5,15.0,1.0,169.9659375,3.84,3.316494875,33.07
2021-06-30 18:36:56.398437500,-63.25,15.0,1.0,169.96765625,4.755,3.3164148124999997,33.07
2021-06-30 18:36:56.406250000,-63.0,15.0,1.0,169.96937499999999,5.67,3.3163347499999998,33.07
2021-06-30 18:36:56.414062500,-63.0,15.0,1.0,169.97109375,6.085,3.3162546875,33.07
2021-06-30 18:36:56.421875000,-63.0,15.0,1.0,169.9728125,6.5,3.316174625,33.07
2021-06-30 18:36:56.429687500,-63.0,15.0,1.0,169.97453124999998,6.6,3.3160945625,33.07
2021-06-30 18:36:56.437500000,-63.0,15.0,1.0,169.97625,6.7,3.3160144999999996,33.07
2021-06-30 18:36:56.445312500,-63.25,15.0,1.0,169.97796875,6.65,3.3159344374999997,33.07
2021-06-30 18:36:56.453125000,-63.5,15.0,1.0,169.97968749999998,6.6,3.315854375,33.07
2021-06-30 18:36:56.460937500,-63.75,15.0,1.0,169.98140625,6.51,3.3157743125,33.07
2021-06-30 18:36:56.468750000,-64.0,15.0,1.0,169.983125,6.42,3.31569425,33.07
2021-06-30 18:36:56.476562500,-64.0,15.0,1.25,169.98484374999998,6.365,3.3156141875,33.07
2021-06-30 18:36:56.484375000,-64.0,15.0,1.5,169.9865625,6.31,3.3155341249999997,33.07
2021-06-30 18:36:56.492187500,-64.0,15.0,1.75,169.98828125,6.3149999999999995,3.3154540624999997,33.07
2021-06-30 18:36:56.500000000,-64.0,15.0,2.0,169.99,6.32,3.315374,33.07
2021-06-30 18:36:56.507812500,-64.0,15.0,1.75,169.99171875,6.375,3.31541403125,33.07
2021-06-30 18:36:56.515625000,-64.0,15.0,1.5,169.9934375,6.43,3.3154540624999997,33.07
2021-06-30 18:36:56.523437500,-64.0,15.0,1.25,169.99515625,6.529999999999999,3.31549409375,33.07
2021-06-30 18:36:56.531250000,-64.0,15.0,1.0,169.996875,6.63,3.3155341249999997,33.07
2021-06-30 18:36:56.539062500,-64.0,15.0,0.75,169.99859375,6.765000000000001,3.31557415625,33.07
2021-06-30 18:36:56.546875000,-64.0,15.0,0.5,170.0003125,6.9,3.3156141875,33.07
2021-06-30 18:36:56.554687500,-64.0,15.0,0.25,170.00203125,7.065,3.3156542187499998,33.07
2021-06-30 18:36:56.562500000,-64.0,15.0,0.0,170.00375,7.23,3.31569425,33.07
2021-06-30 18:36:56.570312500,-63.75,15.25,0.25,170.00546875,7.43,3.3157342812499997,33.07
2021-06-30 18:36:56.578125000,-63.5,15.5,0.5,170.0071875,7.63,3.3157743125,33.07
2021-06-30 18:36:56.585937500,-63.25,15.75,0.75,170.00890625,7.845000000000001,3.31581434375,33.07
2021-06-30 18:36:56.593750000,-63.0,16.0,1.0,170.010625,8.06,3.315854375,33.07
2021-06-30 18:36:56.601562500,-63.0,15.75,1.0,170.01234374999999,8.24,3.31589440625,33.07
2021-06-30 18:36:56.609375000,-63.0,15.5,1.0,170.0140625,8.42,3.3159344374999997,33.07
2021-06-30 18:36:56.617187500,-63.0,15.25,1.0,170.01578125,8.51,3.31597446875,33.07
2021-06-30 18:36:56.625000000,-63.0,15.0,1.0,170.01749999999998,8.6,3.3160144999999996,33.07
2021-06-30 18:36:56.632812500,-63.25,15.0,1.0,170.01921875,8.545,3.31605453125,33.07
2021-06-30 18:36:56.640625000,-63.5,15.0,1.0,170.0209375,8.49,3.3160945625,33.07
2021-06-30 18:36:56.648437500,-63.75,15.0,1.0,170.02265624999998,8.295,3.3161345937499997,33.07
2021-06-30 18:36:56.656250000,-64.0,15.0,1.0,170.024375,8.1,3.316174625,33.07
2021-06-30 18:36:56.664062500,-63.75,15.0,1.0,170.02609375,7.81,3.3162146562499997,33.07
2021-06-30 18:36:56.671875000,-63.5,15.0,1.0,170.02781249999998,7.52,3.3162546875,33.07
2021-06-30 18:36:56.679687500,-63.25,15.0,1.0,170.02953125,7.17,3.31629471875,33.07
2021-06-30 18:36:56.687500000,-63.0,15.0,1.0,170.03125,6.82,3.3163347499999998,33.07
2021-06-30 18:36:56.695312500,-63.25,15.0,1.0,170.03296874999998,6.4350000000000005,3.31637478125,33.07
2021-06-30 18:36:56.703125000,-63.5,15.0,1.0,170.0346875,6.05,3.3164148124999997,33.07
2021-06-30 18:36:56.710937500,-63.75,15.0,1.0,170.03640625,5.615,3.31645484375,33.07
2021-06-30 18:36:56.718750000,-64.0,15.0,1.0,170.038125,5.18,3.316494875,33.07
2021-06-30 18:36:56.726562500,-63.75,15.0,1.0,170.03984375,4.654999999999999,3.31653490625,33.07
2021-06-30 18:36:56.734375000,-63.5,15.0,1.0,170.0415625,4.13,3.3165749375,33.07
2021-06-30 18:36:56.742187500,-63.25,15.0,1.0,170.04328125,3.495,3.3166149687499997,33.07
2021-06-30 18:36:56.750000000,-63.0,15.0,1.0,170.045,2.86,3.316655,33.07
2021-06-30 18:36:56.757812500,-63.25,15.0,1.0,170.04671875,2.13,3.3168151249999998,33.07
2021-06-30 18:36:56.765625000,-63.5,15.0,1.0,170.0484375,1.4,3.31697525,33.07
2021-06-30 18:36:56.773437500,-63.75,15.0,1.0,170.05015625,0.615,3.317135375,33.07
2021-06-30 18:36:56.781250000,-64.0,15.0,1.0,170.051875,-0.17,3.3172954999999997,33.07
2021-06-30 18:36:56.789062500,-64.0,15.0,1.0,170.05359375,-0.9750000000000001,3.317455625,33.07
2021-06-30 18:36:56.796875000,-64.0,15.0,1.0,170.05531249999999,-1.78,3.31761575,33.07
2021-06-30 18:36:56.804687500,-64.0,15.0,1.0,170.05703125,-2.595,3.3177758749999997,33.07
2021-06-30 18:36:56.812500000,-64.0,15.0,1.0,170.05875,-3.41,3.317936,33.07
2021-06-30 18:36:56.820312500,-63.75,15.0,1.0,170.06046874999998,-4.255,3.318096125,33.07
2021-06-30 18:36:56.828125000,-63.5,15.0,1.0,170.0621875,-5.1,3.3182562499999997,33.07
2021-06-30 18:36:56.835937500,-63.25,15.0,1.0,170.06390625,-6.01,3.318416375,33.07
2021-06-30 18:36:56.843750000,-63.0,15.0,1.0,170.06562499999998,-6.92,3.3185765,33.07
2021-06-30 18:36:56.851562500,-63.25,15.0,1.0,170.06734375,-7.865,3.3187366249999997,33.07
2021-06-30 18:36:56.859375000,-63.5,15.0,1.0,170.0690625,-8.81,3.31889675,33.07
2021-06-30 18:36:56.867187500,-63.75,15.0,1.0,170.07078124999998,-9.75,3.319056875,33.07
2021-06-30 18:36:56.875000000,-64.0,15.0,1.0,170.0725,-10.69,3.319217,33.07
2021-06-30 18:36:56.882812500,-63.75,15.0,1.0,170.07421875,-11.59,3.319377125,33.07
2021-06-30 18:36:56.890625000,-63.5,15.0,1.0,170.07593749999998,-12.49,3.3195372499999998,33.07
2021-06-30 18:36:56.898437500,-63.25,15.0,1.0,170.07765625,-13.34,3.319697375,33.07
2021-06-30 18:36:56.906250000,-63.0,15.0,1.0,170.079375,-14.19,3.3198575,33.07
2021-06-30 18:36:56.914062500,-63.0,15.0,1.0,170.08109375,-15.055,3.3200176249999998,33.07
2021-06-30 18:36:56.921875000,-63.0,15.0,1.0,170.0828125,-15.92,3.32017775,33.07
2021-06-30 18:36:56.929687500,-63.0,15.0,1.0,170.08453125,-16.91,3.320337875,33.07
2021-06-30 18:36:56.937500000,-63.0,15.0,1.0,170.08625,-17.9,3.3204979999999997,33.07
2021-06-30 18:36:56.945312500,-63.25,15.0,1.0,170.08796875,-19.07,3.320658125,33.07
2021-06-30 18:36:56.953125000,-63.5,15.0,1.0,170.0896875,-20.24,3.32081825,33.07
2021-06-30 18:36:56.960937500,-63.75,15.0,1.0,170.09140625,-21.525,3.3209783749999997,33.07
2021-06-30 18:36:56.968750000,-64.0,15.0,1.0,170.093125,-22.81,3.3211385,33.07
2021-06-30 18:36:56.976562500,-64.0,15.0,1.0,170.09484375,-24.015,3.321298625,33.07
2021-06-30 18:36:56.984375000,-64.0,15.0,1.0,170.0965625,-25.22,3.3214587499999997,33.07
2021-06-30 18:36:56.992187500,-64.0,15.0,1.0,170.09828124999999,-26.02,3.321618875,33.07
2021-06-30 18:36:57.000000000,-64.0,15.0,1.0,170.1,-26.82,3.321779,33.07
2021-06-30 18:36:57.007812500,-63.75,15.0,1.0,170.10171875,-26.895,3.3216589062499997,33.07
2021-06-30 18:36:57.015625000,-63.5,15.0,1.0,170.10343749999998,-26.97,3.3215388125,33.07
2021-06-30 18:36:57.023437500,-63.25,15.0,1.0,170.10515625,-26.09,3.32141871875,33.07
2021-06-30 18:36:57.031250000,-63.0,15.0,1.0,170.106875,-25.21,3.321298625,33.07
2021-06-30 18:36:57.039062500,-63.25,15.0,1.0,170.10859374999998,-23.355,3.3211785312499997,33.07
2021-06-30 18:36:57.046875000,-63.5,15.0,1.0,170.1103125,-21.5,3.3210584374999996,33.07
2021-06-30 18:36:57.054687500,-63.75,15.0,1.0,170.11203125,-18.83,3.32093834375,33.07
2021-06-30 18:36:57.062500000,-64.0,15.0,1.0,170.11374999999998,-16.16,3.32081825,33.07
2021-06-30 18:36:57.070312500,-64.0,15.0,1.0,170.11546875,-13.0,3.3206981562499998,33.07
2021-06-30 18:36:57.078125000,-64.0,15.0,1.0,170.1171875,-9.84,3.3205780625,33.07
2021-06-30 18:36:57.085937500,-64.0,15.0,1.0,170.11890624999998,-6.57,3.32045796875,33.07
2021-06-30 18:36:57.093750000,-64.0,15.0,1.0,170.120625,-3.3,3.320337875,33.07
2021-06-30 18:36:57.101562500,-64.0,15.0,1.0,170.12234375,-0.2599999999999998,3.3202177812499998,33.07
2021-06-30 18:36:57.109375000,-64.0,15.0,1.0,170.1240625,2.78,3.3200976874999997,33.07
2021-06-30 18:36:57.117187500,-64.0,15.0,1.0,170.12578125,5.355,3.31997759375,33.07
2021-06-30 18:36:57.125000000,-64.0,15.0,1.0,170.1275,7.93,3.3198575,33.07
2021-06-30 18:36:57.132812500,-64.0,15.0,1.0,170.12921875,9.899999999999999,3.31973740625,33.07
2021-06-30 18:36:57.140625000,-64.0,15.0,1.0,170.1309375,11.87,3.3196173125,33.07
2021-06-30 18:36:57.148437500,-64.0,15.0,1.0,170.13265625,13.195,3.31949721875,33.07
2021-06-30 18:36:57.156250000,-64.0,15.0,1.0,170.134375,14.52,3.319377125,33.07
2021-06-30 18:36:57.164062500,-64.0,15.0,1.0,170.13609375,15.225,3.31925703125,33.07
2021-06-30 18:36:57.171875000,-64.0,15.0,1.0,170.1378125,15.93,3.3191369374999997,33.07
2021-06-30 18:36:57.179687500,-64.0,15.0,1.0,170.13953125,16.095,3.31901684375,33.07
2021-06-30 18:36:57.187500000,-64.0,15.0,1.0,170.14124999999999,16.26,3.31889675,33.07
2021-06-30 18:36:57.195312500,-64.0,15.0,1.0,170.14296875,16.0,3.31877665625,33.07
2021-06-30 18:36:57.203125000,-64.0,15.0,1.0,170.1446875,15.74,3.3186565625,33.07
2021-06-30 18:36:57.210937500,-64.0,15.0,1.0,170.14640624999998,15.2,3.31853646875,33.07
2021-06-30 18:36:57.218750000,-64.0,15.0,1.0,170.148125,14.66,3.318416375,33.07
2021-06-30 18:36:57.226562500,-64.0,15.0,1.0,170.14984375,14.0,3.31829628125,33.07
2021-06-30 18:36:57.234375000,-64.0,15.0,1.0,170.15156249999998,13.34,3.3181761874999998,33.07
2021-06-30 18:36:57.242187500,-64.0,15.0,1.0,170.15328125,12.715,3.31805609375,33.07
2021-06-30 18:36:57.250000000,-64.0,15.0,1.0,170.155,12.09,3.317936,33.07
2021-06-30 18:36:57.257812500,-63.75,15.0,1.0,170.15671874999998,11.61,3.31781590625,33.07
2021-06-30 18:36:57.265625000,-63.5,15.0,1.0,170.1584375,11.13,3.3176958125000002,33.07
2021-06-30 18:36:57.273437500,-63.25,15.0,1.0,170.16015625,10.825,3.31757571875,33.07
2021-06-30 18:36:57.281250000,-63.0,15.0,1.0,170.16187499999998,10.52,3.317455625,33.07
2021-06-30 18:36:57.289062500,-63.0,15.0,1.0,170.16359375,10.379999999999999,3.31733553125,33.07
2021-06-30 18:36:57.296875000,-63.0,15.0,1.0,170.1653125,10.24,3.3172154375,33.07
2021-06-30 18:36:57.304687500,-63.0,15.0,1.0,170.16703125,10.215,3.31709534375,33.07
2021-06-30 18:36:57.312500000,-63.0,15.0,1.0,170.16875,10.19,3.31697525,33.07
2021-06-30 18:36:57.320312500,-63.25,15.0,1.0,170.17046875,10.21,3.31685515625,33.07
2021-06-30 18:36:57.328125000,-63.5,15.0,1.0,170.1721875,10.23,3.3167350625000003,33.07
2021-06-30 18:36:57.335937500,-63.75,15.0,1.0,170.17390625,10.275,3.31661496875,33.07
2021-06-30 18:36:57.343750000,-64.0,15.0,1.0,170.175625,10.32,3.316494875,33.07
2021-06-30 18:36:57.351562500,-63.75,15.0,1.0,170.17734375,10.36,3.31637478125,33.07
2021-06-30 18:36:57.359375000,-63.5,15.0,1.0,170.1790625,10.4,3.3162546875,33.07
2021-06-30 18:36:57.367187500,-63.25,15.0,1.0,170.18078125,10.445,3.31613459375,33.07
2021-06-30 18:36:57.375000000,-63.0,15.0,1.0,170.1825,10.49,3.3160145,33.07
2021-06-30 18:36:57.382812500,-63.0,15.0,1.0,170.18421874999999,10.535,3.31589440625,33.07
2021-06-30 18:36:57.390625000,-63.0,15.0,1.0,170.1859375,10.58,3.3157743125000003,33.07
2021-06-30 18:36:57.398437500,-63.0,15.0,1.0,170.18765625,10.629999999999999,3.31565421875,33.07
2021-06-30 18:36:57.406250000,-63.0,15.0,1.0,170.18937499999998,10.68,3.315534125,33.07
2021-06-30 18:36:57.414062500,-63.25,15.0,1.0,170.19109375,10.754999999999999,3.31541403125,33.07
2021-06-30 18:36:57.421875000,-63.5,15.0,1.0,170.1928125,10.83,3.3152939375,33.07
2021-06-30 18:36:57.429687500,-63.75,15.0,1.0,170.19453124999998,10.940000000000001,3.3151738437500002,33.07
2021-06-30 18:36:57.437500000,-64.0,15.0,1.0,170.19625,11.05,3.31505375,33.07
2021-06-30 18:36:57.445312500,-63.75,15.0,1.0,170.19796875,11.175,3.31493365625,33.07
2021-06-30 18:36:57.453125000,-63.5,15.0,1.0,170.19968749999998,11.3,3.3148135625000004,33.07
2021-06-30 18:36:57.460937500,-63.25,15.0,1.0,170.20140625,11.38,3.3146934687500003,33.07
2021-06-30 18:36:57.468750000,-63.0,15.0,1.0,170.203125,11.46,3.314573375,33.07
2021-06-30 18:36:57.476562500,-63.25,15.0,1.0,170.20484374999998,11.405000000000001,3.31445328125,33.07
2021-06-30 18:36:57.484375000,-63.5,15.0,1.0,170.2065625,11.35,3.3143331875,33.07
2021-06-30 18:36:57.492187500,-63.75,15.0,1.0,170.20828125,11.065,3.3142130937500003,33.07
2021-06-30 18:36:57.500000000,-64.0,15.0,1.0,170.20999999999998,10.78,3.314093,33.07
2021-06-30 18:36:57.507812500,-64.0,15.0,1.0,170.21171875,10.225,3.31405296875,33.07
2021-06-30 18:36:57.515625000,-64.0,15.0,1.0,170.2134375,9.67,3.3140129375000003,33.07
2021-06-30 18:36:57.523437500,-64.0,15.0,1.0,170.21515625,8.89,3.31397290625,33.07
2021-06-30 18:36:57.531250000,-64.0,15.0,1.0,170.216875,8.11,3.3139328750000003,33.07
2021-06-30 18:36:57.539062500,-64.0,15.0,1.0,170.21859375,7.22,3.31389284375,33.07
2021-06-30 18:36:57.546875000,-64.0,15.0,1.0,170.2203125,6.33,3.3138528125,33.07
2021-06-30 18:36:57.554687500,-64.0,15.0,1.0,170.22203125,5.48,3.3138127812500002,33.07
2021-06-30 18:36:57.562500000,-64.0,15.0,1.0,170.22375,4.63,3.31377275,33.07
2021-06-30 18:36:57.570312500,-64.0,15.0,1.0,170.22546875,3.925,3.3137327187500003,33.07
2021-06-30 18:36:57.578125000,-64.0,15.0,1.0,170.22718749999999,3.22,3.3136926875,33.07
2021-06-30 18:36:57.585937500,-64.0,15.0,1.0,170.22890625,2.68,3.31365265625,33.07
2021-06-30 18:36:57.593750000,-64.0,15.0,1.0,170.230625,2.14,3.313612625,33.07
2021-06-30 18:36:57.601562500,-64.0,15.0,1.0,170.23234374999998,1.7000000000000002,3.31357259375,33.07
2021-06-30 18:36:57.609375000,-64.0,15.0,1.0,170.2340625,1.26,3.3135325625000003,33.07
2021-06-30 18:36:57.617187500,-64.0,15.0,1.0,170.23578125,0.8300000000000001,3.31349253125,33.07
2021-06-30 18:36:57.625000000,-64.0,15.0,1.0,170.23749999999998,0.4,3.3134525000000004,33.07
2021-06-30 18:36:57.632812500,-64.0,15.0,1.0,170.23921875,-0.12,3.31341246875,33.07
2021-06-30 18:36:57.640625000,-64.0,15.0,1.0,170.2409375,-0.64,3.3133724375,33.07
2021-06-30 18:36:57.648437500,-64.0,15.0,1.0,170.24265624999998,-1.2850000000000001,3.3133324062500003,33.07
2021-06-30 18:36:57.656250000,-64.0,15.0,1.0,170.244375,-1.93,3.313292375,33.07
2021-06-30 18:36:57.664062500,-64.0,15.0,1.0,170.24609375,-2.695,3.3132523437500003,33.07
2021-06-30 18:36:57.671875000,-64.0,15.0,1.0,170.24781249999998,-3.46,3.3132123125,33.07
2021-06-30 18:36:57.679687500,-64.0,15.0,1.0,170.24953125,-4.295,3.31317228125,33.07
2021-06-30 18:36:57.687500000,-64.0,15.0,1.0,170.25125,-5.13,3.3131322500000002,33.07
2021-06-30 18:36:57.695312500,-64.0,15.0,1.0,170.25296874999998,-5.9350000000000005,3.31309221875,33.07
2021-06-30 18:36:57.703125000,-64.0,15.0,1.0,170.2546875,-6.74,3.3130521875000003,33.07
2021-06-30 18:36:57.710937500,-64.0,15.0,1.0,170.25640625,-7.36,3.31301215625,33.07
2021-06-30 18:36:57.718750000,-64.0,15.0,1.0,170.258125,-7.98,3.312972125,33.07
2021-06-30 18:36:57.726562500,-64.0,15.0,1.0,170.25984375,-8.215,3.31293209375,33.07
2021-06-30 18:36:57.734375000,-64.0,15.0,1.0,170.2615625,-8.45,3.3128920625,33.07
2021-06-30 18:36:57.742187500,-64.0,15.0,1.0,170.26328125,-8.09,3.3128520312500003,33.07
2021-06-30 18:36:57.750000000,-64.0,15.0,1.0,170.265,-7.73,3.312812,33.07
2021-06-30 18:36:57.757812500,-63.75,15.0,1.0,170.26671875,-6.65,3.31277196875,33.07
2021-06-30 18:36:57.765625000,-63.5,15.0,1.0,170.2684375,-5.57,3.3127319375,33.07
2021-06-30 18:36:57.773437500,-63.25,15.0,1.0,170.27015624999999,-3.79,3.31269190625,33.07
2021-06-30 18:36:57.781250000,-63.0,15.0,1.0,170.271875,-2.01,3.3126518750000002,33.07
2021-06-30 18:36:57.789062500,-63.25,15.0,1.0,170.27359375,0.27500000000000036,3.31261184375,33.07
2021-06-30 18:36:57.796875000,-63.5,15.0,1.0,170.27531249999998,2.56,3.3125718125,33.07
2021-06-30 18:36:57.804687500,-63.75,15.0,1.0,170.27703125,5.039999999999999,3.31253178125,33.07
2021-06-30 18:36:57.812500000,-64.0,15.0,1.0,170.27875,7.52,3.31249175,33.07
2021-06-30 18:36:57.820312500,-64.0,15.0,1.0,170.28046874999998,9.85,3.31245171875,33.07
2021-06-30 18:36:57.828125000,-64.0,15.0,1.0,170.2821875,12.18,3.3124116875,33.07
2021-06-30 18:36:57.835937500,-64.0,15.0,1.0,170.28390625,14.085,3.31237165625,33.07
2021-06-30 18:36:57.843750000,-64.0,15.0,1.0,170.28562499999998,15.99,3.312331625,33.07
2021-06-30 18:36:57.851562500,-64.0,15.0,1.0,170.28734375,17.330000000000002,3.31229159375,33.07
2021-06-30 18:36:57.859375000,-64.0,15.0,1.0,170.2890625,18.67,3.3122515625,33.07
2021-06-30 18:36:57.867187500,-64.0,15.0,1.0,170.29078124999998,19.455,3.31221153125,33.07
2021-06-30 18:36:57.875000000,-64.0,15.0,1.0,170.2925,20.24,3.3121715,33.07
2021-06-30 18:36:57.882812500,-64.0,15.0,1.0,170.29421875,20.555,3.31213146875,33.07
2021-06-30 18:36:57.890625000,-64.0,15.0,1.0,170.29593749999998,20.87,3.3120914375,33.07
2021-06-30 18:36:57.898437500,-64.0,15.0,1.0,170.29765625,20.83,3.31205140625,33.07
2021-06-30 18:36:57.906250000,-64.0,15.0,1.0,170.299375,20.79,3.312011375,33.07
2021-06-30 18:36:57.914062500,-64.0,15.0,1.0,170.30109375,20.5,3.3119713437500002,33.07
2021-06-30 18:36:57.921875000,-64.0,15.0,1.0,170.3028125,20.21,3.3119313125,33.07
2021-06-30 18:36:57.929687500,-64.0,15.0,1.0,170.30453125,19.72,3.31189128125,33.07
2021-06-30 18:36:57.937500000,-64.0,15.0,1.0,170.30625,19.23,3.31185125,33.07
2021-06-30 18:36:57.945312500,-64.0,15.0,1.0,170.30796875,18.585,3.31181121875,33.07
2021-06-30 18:36:57.953125000,-64.0,15.0,1.0,170.3096875,17.94,3.3117711875,33.07
2021-06-30 18:36:57.960937500,-64.0,15.0,1.0,170.31140625,17.21,3.31173115625,33.07
2021-06-30 18:36:57.968750000,-64.0,15.0,1.0,170.31312499999999,16.48,3.311691125,33.07
2021-06-30 18:36:57.976562500,-64.0,15.0,1.0,170.31484375,15.73,3.31165109375,33.07
2021-06-30 18:36:57.984375000,-64.0,15.0,1.0,170.3165625,14.98,3.3116110625,33.07
2021-06-30 18:36:57.992187500,-64.0,15.0,1.0,170.31828124999998,14.325,3.31157103125,33.07
2021-06-30 18:36:58.000000000,-64.0,15.0,1.0,170.32,13.67,3.311531,33.07
2021-06-30 18:36:58.007812500,-64.0,15.0,1.0,170.32234375,13.184999999999999,3.31141090625,33.07
2021-06-30 18:36:58.015625000,-64.0,15.0,1.0,170.32468749999998,12.7,3.3112908125000002,33.07
2021-06-30 18:36:58.023437500,-64.0,15.0,1.0,170.32703125,12.43,3.31117071875,33.07
2021-06-30 18:36:58.031250000,-64.0,15.0,1.0,170.329375,12.16,3.311050625,33.07
2021-06-30 18:36:58.039062500,-64.0,15.0,1.0,170.33171875,12.075,3.31093053125,33.07
2021-06-30 18:36:58.046875000,-64.0,15.0,1.0,170.3340625,11.99,3.3108104375,33.07
2021-06-30 18:36:58.054687500,-64.0,15.0,1.0,170.33640624999998,12.004999999999999,3.31069034375,33.07
2021-06-30 18:36:58.062500000,-64.0,15.0,1.0,170.33875,12.02,3.31057025,33.07
2021-06-30 18:36:58.070312500,-64.0,15.0,1.0,170.34109375,12.015,3.31045015625,33.07
2021-06-30 18:36:58.078125000,-64.0,15.0,1.0,170.3434375,12.01,3.3103300625000003,33.07
2021-06-30 18:36:58.085937500,-64.0,15.0,1.0,170.34578125,11.91,3.31020996875,33.07
2021-06-30 18:36:58.093750000,-64.0,15.0,1.0,170.34812499999998,11.81,3.310089875,33.07
2021-06-30 18:36:58.101562500,-64.0,15.0,1.0,170.35046875,11.565000000000001,3.30996978125,33.07
2021-06-30 18:36:58.109375000,-64.0,15.0,1.0,170.3528125,11.32,3.3098496875,33.07
2021-06-30 18:36:58.117187500,-64.0,15.0,1.0,170.35515625,10.955,3.30972959375,33.07
2021-06-30 18:36:58.125000000,-64.0,15.0,1.0,170.3575,10.59,3.3096095,33.07
2021-06-30 18:36:58.132812500,-64.0,15.0,1.0,170.35984374999998,10.145,3.30948940625,33.07
2021-06-30 18:36:58.140625000,-64.0,15.0,1.0,170.3621875,9.7,3.3093693125000003,33.07
2021-06-30 18:36:58.148437500,-64.0,15.0,1.0,170.36453125,9.215,3.30924921875,33.07
2021-06-30 18:36:58.156250000,-64.0,15.0,1.0,170.366875,8.73,3.309129125,33.07
2021-06-30 18:36:58.164062500,-64.0,15.0,1.0,170.36921875,8.215,3.30900903125,33.07
2021-06-30 18:36:58.171875000,-64.0,15.0,1.0,170.37156249999998,7.7,3.3088889375,33.07
2021-06-30 18:36:58.179687500,-64.0,15.0,1.0,170.37390625,7.13,3.3087688437500002,33.07
2021-06-30 18:36:58.187500000,-64.0,15.0,1.0,170.37625,6.56,3.30864875,33.07
2021-06-30 18:36:58.195312500,-64.0,15.0,1.0,170.37859375,5.91,3.30852865625,33.07
2021-06-30 18:36:58.203125000,-64.0,15.0,1.0,170.3809375,5.26,3.3084085625000004,33.07
2021-06-30 18:36:58.210937500,-64.0,15.0,1.0,170.38328124999998,4.51,3.3082884687500003,33.07
2021-06-30 18:36:58.218750000,-64.0,15.0,1.0,170.385625,3.76,3.308168375,33.07
2021-06-30 18:36:58.226562500,-64.0,15.0,1.0,170.38796875,2.9349999999999996,3.30804828125,33.07
2021-06-30 18:36:58.234375000,-64.0,15.0,1.0,170.3903125,2.11,3.3079281875,33.07
2021-06-30 18:36:58.242187500,-64.0,15.0,1.0,170.39265625,1.24,3.3078080937500003,33.07
2021-06-30 18:36:58.250000000,-64.0,15.0,1.0,170.39499999999998,0.37,3.307688,33.07
2021-06-30 18:36:58.257812500,-64.0,15.0,1.0,170.39734375,-0.5299999999999999,3.3077680625,33.07
2021-06-30 18:36:58.265625000,-64.0,15.0,1.0,170.3996875,-1.43,3.307848125,33.07
2021-06-30 18:36:58.273437500,-64.0,15.0,1.0,170.40203125,-2.36,3.3079281875,33.07
2021-06-30 18:36:58.281250000,-64.0,15.0,1.0,170.404375,-3.29,3.3080082500000003,33.07
2021-06-30 18:36:58.289062500,-64.0,15.0,1.0,170.40671875,-4.295,3.3080883125000002,33.07
2021-06-30 18:36:58.296875000,-64.0,15.0,1.0,170.4090625,-5.3,3.308168375,33.07
2021-06-30 18:36:58.304687500,-64.0,15.0,1.0,170.41140625,-6.41,3.3082484375,33.07
2021-06-30 18:36:58.312500000,-64.0,15.0,1.0,170.41375,-7.52,3.3083285,33.07
2021-06-30 18:36:58.320312500,-64.0,15.0,1.0,170.41609375,-8.71,3.3084085625,33.07
2021-06-30 18:36:58.328125000,-64.0,15.0,1.0,170.4184375,-9.9,3.3084886250000003,33.07
2021-06-30 18:36:58.335937500,-64.0,15.0,1.0,170.42078125,-11.04,3.3085686875,33.07
2021-06-30 18:36:58.343750000,-64.0,15.0,1.0,170.423125,-12.18,3.30864875,33.07
2021-06-30 18:36:58.351562500,-64.0,15.0,1.0,170.42546875,-13.055,3.3087288125,33.07
2021-06-30 18:36:58.359375000,-64.0,15.0,1.0,170.4278125,-13.93,3.308808875,33.07
2021-06-30 18:36:58.367187500,-64.0,15.0,1.0,170.43015625,-14.309999999999999,3.3088889375,33.07
2021-06-30 18:36:58.375000000,-64.0,15.0,1.0,170.4325,-14.69,3.3089690000000003,33.07
2021-06-30 18:36:58.382812500,-64.0,15.0,1.0,170.43484375,-14.399999999999999,3.3090490625,33.07
2021-06-30 18:36:58.390625000,-64.0,15.0,1.0,170.4371875,-14.11,3.309129125,33.07
2021-06-30 18:36:58.398437500,-64.0,15.0,1.0,170.43953125,-13.114999999999998,3.3092091875,33.07
2021-06-30 18:36:58.406250000,-64.0,15.0,1.0,170.441875,-12.12,3.30928925,33.07
2021-06-30 18:36:58.414062500,-63.75,15.0,1.0,170.44421875,-10.524999999999999,3.3093693125,33.07
2021-06-30 18:36:58.421875000,-63.5,15.0,1.0,170.4465625,-8.93,3.309449375,33.07
2021-06-30 18:36:58.429687500,-63.25,15.0,1.0,170.44890625,-6.949999999999999,3.3095294375,33.07
2021-06-30 18:36:58.437500000,-63.0,15.0,1.0,170.45125,-4.97,3.3096095,33.07
2021-06-30 18:36:58.445312500,-63.25,15.0,1.0,170.45359375,-2.87,3.3096895625,33.07
2021-06-30 18:36:58.453125000,-63.5,15.0,1.0,170.4559375,-0.77,3.309769625,33.07
2021-06-30 18:36:58.460937500,-63.75,15.0,1.0,170.45828125,1.23,3.3098496875,33.07
2021-06-30 18:36:58.468750000,-64.0,15.0,1.0,170.460625,3.23,3.30992975,33.07
2021-06-30 18:36:58.476562500,-64.0,15.0,1.0,170.46296875,4.955,3.3100098125,33.07
2021-06-30 18:36:58.484375000,-64.0,15.0,1.0,170.4653125,6.68,3.310089875,33.07
2021-06-30 18:36:58.492187500,-64.0,15.0,1.0,170.46765625,8.0,3.3101699375,33.07
2021-06-30 18:36:58.500000000,-64.0,15.0,1.0,170.47,9.32,3.31025,33.07
2021-06-30 18:36:58.507812500,-64.0,15.0,1.0,170.47234375,10.165,3.31061028125,33.07
2021-06-30 18:36:58.515625000,-64.0,15.0,1.0,170.4746875,11.01,3.3109705625,33.07
2021-06-30 18:36:58.523437500,-64.0,15.0,1.0,170.47703125,11.36,3.31133084375,33.07
2021-06-30 18:36:58.531250000,-64.0,15.0,1.0,170.479375,11.71,3.311691125,33.07
2021-06-30 18:36:58.539062500,-63.75,15.0,1.0,170.48171875,11.59,3.3120514062499997,33.07
2021-06-30 18:36:58.546875000,-63.5,15.0,1.0,170.4840625,11.47,3.3124116875,33.07
2021-06-30 18:36:58.554687500,-63.25,15.0,1.0,170.48640625,10.99,3.31277196875,33.07
2021-06-30 18:36:58.562500000,-63.0,15.0,1.0,170.48875,10.51,3.31313225,33.07
2021-06-30 18:36:58.570312500,-63.25,15.0,1.0,170.49109375,9.82,3.31349253125,33.07
2021-06-30 18:36:58.578125000,-63.5,15.0,1.0,170.4934375,9.13,3.3138528125,33.07
2021-06-30 18:36:58.585937500,-63.75,15.0,1.0,170.49578125,8.38,3.31421309375,33.07
2021-06-30 18:36:58.593750000,-64.0,15.0,1.0,170.498125,7.63,3.3145733749999997,33.07
2021-06-30 18:36:58.601562500,-64.0,15.0,1.0,170.50046875,6.9399999999999995,3.31493365625,33.07
2021-06-30 18:36:58.609375000,-64.0,15.0,1.0,170.5028125,6.25,3.3152939375,33.07
2021-06-30 18:36:58.617187500,-64.0,15.0,1.0,170.50515625,5.65,3.3156542187499998,33.07
2021-06-30 18:36:58.625000000,-64.0,15.0,1.0,170.5075,5.05,3.3160144999999996,33.07
2021-06-30 18:36:58.632812500,-64.0,15.0,1.0,170.50984375,4.529999999999999,3.31637478125,33.07
2021-06-30 18:36:58.640625000,-64.0,15.0,1.0,170.5121875,4.01,3.3167350625,33.07
2021-06-30 18:36:58.648437500,-64.0,15.0,1.0,170.51453125,3.5199999999999996,3.3170953437499997,33.07
2021-06-30 18:36:58.656250000,-64.0,15.0,1.0,170.516875,3.03,3.317455625,33.07
2021-06-30 18:36:58.664062500,-63.75,15.0,1.0,170.51921875,2.5599999999999996,3.31781590625,33.07
2021-06-30 18:36:58.671875000,-63.5,15.0,1.0,170.5215625,2.09,3.3181761874999998,33.07
2021-06-30 18:36:58.679687500,-63.25,15.0,1.0,170.52390625,1.64,3.3185364687499996,33.07
2021-06-30 18:36:58.687500000,-63.0,15.0,1.0,170.52625,1.19,3.31889675,33.07
2021-06-30 18:36:58.695312500,-63.25,15.0,1.0,170.52859375,0.7749999999999999,3.31925703125,33.07
2021-06-30 18:36:58.703125000,-63.5,15.0,1.0,170.5309375,0.36,3.3196173124999997,33.07
2021-06-30 18:36:58.710937500,-63.75,15.0,1.0,170.53328125,-0.015000000000000013,3.31997759375,33.07
2021-06-30 18:36:58.718750000,-64.0,15.0,1.0,170.535625,-0.39,3.320337875,33.07
2021-06-30 18:36:58.726562500,-63.75,15.0,1.0,170.53796875,-0.7350000000000001,3.3206981562499998,33.07
2021-06-30 18:36:58.734375000,-63.5,15.0,1.0,170.5403125,-1.08,3.3210584374999996,33.07
2021-06-30 18:36:58.742187500,-63.25,15.0,1.0,170.54265625,-1.435,3.32141871875,33.07
2021-06-30 18:36:58.750000000,-63.0,15.0,1.0,170.54500000000002,-1.79,3.321779,33.07
2021-06-30 18:36:58.757812500,-63.25,15.0,1.0,170.54734375,-2.1950000000000003,3.3219791874999998,33.07
2021-06-30 18:36:58.765625000,-63.5,15.0,1.0,170.5496875,-2.6,3.3221793749999997,33.07
2021-06-30 18:36:58.773437500,-63.75,15.0,1.0,170.55203125,-3.075,3.3223795624999997,33.07
2021-06-30 18:36:58.781250000,-64.0,15.0,1.0,170.554375,-3.55,3.32257975,33.07
2021-06-30 18:36:58.789062500,-64.0,15.0,1.0,170.55671875000002,-4.109999999999999,3.3227799375,33.07
2021-06-30 18:36:58.796875000,-64.0,15.0,1.0,170.5590625,-4.67,3.322980125,33.07
2021-06-30 18:36:58.804687500,-64.0,15.0,1.0,170.56140625,-5.3,3.3231803125,33.07
2021-06-30 18:36:58.812500000,-64.0,15.0,1.0,170.56375,-5.93,3.3233805,33.07
2021-06-30 18:36:58.820312500,-64.0,15.0,1.0,170.56609375,-6.605,3.3235806875,33.07
2021-06-30 18:36:58.828125000,-64.0,15.0,1.0,170.56843750000002,-7.28,3.3237808749999997,33.07
2021-06-30 18:36:58.835937500,-64.0,15.0,1.0,170.57078125,-7.970000000000001,3.3239810624999997,33.07
2021-06-30 18:36:58.843750000,-64.0,15.0,1.0,170.573125,-8.66,3.3241812499999996,33.07
2021-06-30 18:36:58.851562500,-63.75,15.0,1.0,170.57546875,-9.355,3.3243814375,33.07
2021-06-30 18:36:58.859375000,-63.5,15.0,1.0,170.5778125,-10.05,3.324581625,33.07
2021-06-30 18:36:58.867187500,-63.25,15.0,1.0,170.58015625000002,-10.755,3.3247818125,33.07
2021-06-30 18:36:58.875000000,-63.0,15.0,1.0,170.5825,-11.46,3.324982,33.07
2021-06-30 18:36:58.882812500,-63.25,15.0,1.0,170.58484375,-12.175,3.3251821875,33.07
2021-06-30 18:36:58.890625000,-63.5,15.0,1.0,170.5871875,-12.89,3.325382375,33.07
2021-06-30 18:36:58.898437500,-63.75,15.0,1.0,170.58953125,-13.655000000000001,3.3255825624999997,33.07
2021-06-30 18:36:58.906250000,-64.0,15.0,1.0,170.59187500000002,-14.42,3.32578275,33.07
2021-06-30 18:36:58.914062500,-64.0,15.0,1.0,170.59421875,-15.235,3.3259829375,33.07
2021-06-30 18:36:58.921875000,-64.0,15.0,1.0,170.5965625,-16.05,3.326183125,33.07
2021-06-30 18:36:58.929687500,-64.0,15.0,1.0,170.59890625,-16.939999999999998,3.3263833125,33.07
2021-06-30 18:36:58.937500000,-64.0,15.0,1.0,170.60125,-17.83,3.3265835,33.07
2021-06-30 18:36:58.945312500,-64.0,15.0,1.0,170.60359375000002,-18.805,3.3267836875,33.07
2021-06-30 18:36:58.953125000,-64.0,15.0,1.0,170.6059375,-19.78,3.326983875,33.07
2021-06-30 18:36:58.960937500,-64.0,15.0,1.0,170.60828125,-20.855,3.3271840624999998,33.07
2021-06-30 18:36:58.968750000,-64.0,15.0,1.0,170.610625,-21.93,3.3273842499999997,33.07
2021-06-30 18:36:58.976562500,-64.0,15.0,1.0,170.61296875,-23.060000000000002,3.3275844375,33.07
2021-06-30 18:36:58.984375000,-64.0,15.0,1.0,170.61531250000002,-24.19,3.327784625,33.07
2021-06-30 18:36:58.992187500,-64.0,15.0,1.0,170.61765625,-25.255000000000003,3.3279848125,33.07
2021-06-30 18:36:59.000000000,-64.0,15.0,1.0,170.62,-26.32,3.328185,33.07
2021-06-30 18:36:59.007812500,-63.75,15.0,1.0,170.6228125,-27.12,3.3287054375,33.07
2021-06-30 18:36:59.015625000,-63.5,15.0,1.0,170.625625,-27.92,3.329225875,33.07
2021-06-30 18:36:59.023437500,-63.25,15.0,1.0,170.62843750000002,-28.18,3.3297463124999997,33.07
2021-06-30 18:36:59.031250000,-63.0,15.0,1.0,170.63125,-28.44,3.33026675,33.07
2021-06-30 18:36:59.039062500,-63.0,15.0,1.0,170.6340625,-27.945,3.3307871875,33.07
2021-06-30 18:36:59.046875000,-63.0,15.0,1.0,170.636875,-27.45,3.331307625,33.07
2021-06-30 18:36:59.054687500,-63.0,15.0,1.0,170.6396875,-26.105,3.3318280625,33.07
2021-06-30 18:36:59.062500000,-63.0,15.0,1.0,170.6425,-24.76,3.3323485,33.07
2021-06-30 18:36:59.070312500,-63.25,15.0,1.0,170.64531250000002,-22.67,3.3328689375,33.07
2021-06-30 18:36:59.078125000,-63.5,15.0,1.0,170.648125,-20.58,3.333389375,33.07
2021-06-30 18:36:59.085937500,-63.75,15.0,1.0,170.6509375,-18.02,3.3339098125,33.07
2021-06-30 18:36:59.093750000,-64.0,15.0,1.0,170.65375,-15.46,3.33443025,33.07
2021-06-30 18:36:59.101562500,-64.0,15.0,1.0,170.6565625,-12.765,3.3349506875,33.07
2021-06-30 18:36:59.109375000,-64.0,15.0,1.0,170.659375,-10.07,3.3354711249999998,33.07
2021-06-30 18:36:59.117187500,-64.0,15.0,1.0,170.66218750000002,-7.5649999999999995,3.3359915625,33.07
2021-06-30 18:36:59.125000000,-64.0,15.0,1.0,170.665,-5.06,3.336512,33.07
2021-06-30 18:36:59.132812500,-63.75,15.0,1.0,170.6678125,-2.9499999999999997,3.3370324375,33.07
2021-06-30 18:36:59.140625000,-63.5,15.0,1.0,170.670625,-0.84,3.337552875,33.07
2021-06-30 18:36:59.148437500,-63.25,15.0,1.0,170.6734375,0.7599999999999999,3.3380733124999997,33.07
2021-06-30 18:36:59.156250000,-63.0,15.0,1.0,170.67625,2.36,3.33859375,33.07
2021-06-30 18:36:59.164062500,-63.25,15.0,1.0,170.67906250000001,3.4450000000000003,3.3391141875,33.07
2021-06-30 18:36:59.171875000,-63.5,15.0,1.0,170.681875,4.53,3.339634625,33.07
2021-06-30 18:36:59.179687500,-63.75,15.0,1.0,170.6846875,5.12,3.3401550625,33.07
2021-06-30 18:36:59.187500000,-64.0,15.0,1.0,170.6875,5.71,3.3406754999999997,33.07
2021-06-30 18:36:59.195312500,-64.0,15.0,1.0,170.6903125,5.865,3.3411959374999998,33.07
2021-06-30 18:36:59.203125000,-64.0,15.0,1.0,170.693125,6.02,3.341716375,33.07
2021-06-30 18:36:59.210937500,-64.0,15.0,1.0,170.6959375,5.83,3.3422368125,33.07
2021-06-30 18:36:59.218750000,-64.0,15.0,1.0,170.69875,5.64,3.34275725,33.07
2021-06-30 18:36:59.226562500,-64.0,15.0,1.0,170.7015625,5.234999999999999,3.3432776875,33.07
2021-06-30 18:36:59.234375000,-64.0,15.0,1.0,170.704375,4.83,3.3437981249999997,33.07
2021-06-30 18:36:59.242187500,-64.0,15.0,1.0,170.7071875,4.33,3.3443185625,33.07
2021-06-30 18:36:59.250000000,-64.0,15.0,1.0,170.71,3.83,3.344839,33.07
2021-06-30 18:36:59.257812500,-63.75,15.0,1.0,170.7128125,3.335,3.3447589375,33.07
2021-06-30 18:36:59.265625000,-63.5,15.0,1.0,170.715625,2.84,3.344678875,33.07
2021-06-30 18:36:59.273437500,-63.25,15.0,1.0,170.7184375,2.4,3.3445988125,33.07
2021-06-30 18:36:59.281250000,-63.0,15.0,1.0,170.72125,1.96,3.3445187499999998,33.07
2021-06-30 18:36:59.289062500,-63.25,15.0,1.0,170.7240625,1.5899999999999999,3.3444386875,33.07
2021-06-30 18:36:59.296875000,-63.5,15.0,1.0,170.726875,1.22,3.344358625,33.07
2021-06-30 18:36:59.304687500,-63.75,15.0,1.0,170.7296875,0.8999999999999999,3.3442785625,33.07
2021-06-30 18:36:59.312500000,-64.0,15.0,1.0,170.7325,0.58,3.3441985,33.07
2021-06-30 18:36:59.320312500,-64.0,15.0,1.0,170.7353125,0.31,3.3441184375,33.07
2021-06-30 18:36:59.328125000,-64.0,15.0,1.0,170.738125,0.04,3.344038375,33.07
2021-06-30 18:36:59.335937500,-64.0,15.0,1.0,170.7409375,-0.18999999999999997,3.3439583125,33.07
2021-06-30 18:36:59.343750000,-64.0,15.0,1.0,170.74375,-0.42,3.34387825,33.07
2021-06-30 18:36:59.351562500,-63.75,15.0,1.0,170.7465625,-0.6,3.3437981875,33.07
2021-06-30 18:36:59.359375000,-63.5,15.0,1.0,170.749375,-0.78,3.343718125,33.07
2021-06-30 18:36:59.367187500,-63.25,15.0,1.0,170.7521875,-0.915,3.3436380625,33.07
2021-06-30 18:36:59.375000000,-63.0,15.0,1.0,170.755,-1.05,3.343558,33.07
2021-06-30 18:36:59.382812500,-63.25,15.0,1.0,170.7578125,-1.155,3.3434779375,33.07
2021-06-30 18:36:59.390625000,-63.5,15.0,1.0,170.760625,-1.26,3.343397875,33.07
2021-06-30 18:36:59.398437500,-63.75,15.0,1.0,170.7634375,-1.37,3.3433178125,33.07
2021-06-30 18:36:59.406250000,-64.0,15.0,1.0,170.76624999999999,-1.48,3.34323775,33.07
2021-06-30 18:36:59.414062500,-63.75,15.0,1.0,170.7690625,-1.625,3.3431576875,33.07
2021-06-30 18:36:59.421875000,-63.5,15.0,1.0,170.771875,-1.77,3.3430776250000003,33.07
2021-06-30 18:36:59.429687500,-63.25,15.0,1.0,170.7746875,-1.99,3.3429975625,33.07
2021-06-30 18:36:59.437500000,-63.0,15.0,1.0,170.7775,-2.21,3.3429175,33.07
2021-06-30 18:36:59.445312500,-63.25,15.0,1.0,170.7803125,-2.52,3.3428374375,33.07
2021-06-30 18:36:59.453125000,-63.5,15.0,1.0,170.78312499999998,-2.83,3.342757375,33.07
2021-06-30 18:36:59.460937500,-63.75,15.0,1.0,170.7859375,-3.265,3.3426773125,33.07
2021-06-30 18:36:59.468750000,-64.0,15.0,1.0,170.78875,-3.7,3.3425972500000003,33.07
2021-06-30 18:36:59.476562500,-63.75,15.0,1.0,170.7915625,-4.265000000000001,3.3425171875,33.07
2021-06-30 18:36:59.484375000,-63.5,15.0,1.0,170.794375,-4.83,3.342437125,33.07
2021-06-30 18:36:59.492187500,-63.25,15.0,1.0,170.7971875,-5.515000000000001,3.3423570625,33.07
2021-06-30 18:36:59.500000000,-63.0,15.0,1.0,170.8,-6.2,3.342277,33.07
2021-06-30 18:36:59.507812500,-63.25,15.25,1.0,170.8028125,-6.965,3.34255725,33.07
2021-06-30 18:36:59.515625000,-63.5,15.5,1.0,170.805625,-7.73,3.3428375000000004,33.07
2021-06-30 18:36:59.523437500,-63.75,15.75,1.0,170.8084375,-8.52,3.34311775,33.07
2021-06-30 18:36:59.531250000,-64.0,16.0,1.0,170.81125,-9.31,3.343398,33.07
2021-06-30 18:36:59.539062500,-64.0,16.0,1.0,170.8140625,-10.065000000000001,3.34367825,33.07
2021-06-30 18:36:59.546875000,-64.0,16.0,1.0,170.816875,-10.82,3.3439585000000003,33.07
2021-06-30 18:36:59.554687500,-64.0,16.0,1.0,170.8196875,-11.51,3.34423875,33.07
2021-06-30 18:36:59.562500000,-64.0,16.0,1.0,170.8225,-12.2,3.344519,33.07
2021-06-30 18:36:59.570312500,-64.0,16.0,1.0,170.8253125,-12.844999999999999,3.3447992500000003,33.07
2021-06-30 18:36:59.578125000,-64.0,16.0,1.0,170.828125,-13.49,3.3450795,33.07
2021-06-30 18:36:59.585937500,-64.0,16.0,1.0,170.8309375,-14.16,3.34535975,33.07
2021-06-30 18:36:59.593750000,-64.0,16.0,1.0,170.83375,-14.83,3.34564,33.07
2021-06-30 18:36:59.601562500,-64.0,16.0,1.0,170.83656249999999,-15.625,3.3459202500000003,33.07
2021-06-30 18:36:59.609375000,-64.0,16.0,1.0,170.839375,-16.42,3.3462005,33.07
2021-06-30 18:36:59.617187500,-64.0,16.0,1.0,170.8421875,-17.39,3.34648075,33.07
2021-06-30 18:36:59.625000000,-64.0,16.0,1.0,170.845,-18.36,3.346761,33.07
2021-06-30 18:36:59.632812500,-63.75,15.75,1.0,170.8478125,-19.515,3.34704125,33.07
2021-06-30 18:36:59.640625000,-63.5,15.5,1.0,170.850625,-20.67,3.3473215,33.07
2021-06-30 18:36:59.648437500,-63.25,15.25,1.0,170.85343749999998,-21.9,3.34760175,33.07
2021-06-30 18:36:59.656250000,-63.0,15.0,1.0,170.85625,-23.13,3.3478820000000002,33.07
2021-06-30 18:36:59.664062500,-63.0,15.0,1.0,170.8590625,-24.25,3.34816225,33.07
2021-06-30 18:36:59.671875000,-63.0,15.0,1.0,170.861875,-25.37,3.3484425,33.07
2021-06-30 18:36:59.679687500,-63.0,15.0,1.0,170.8646875,-26.145000000000003,3.34872275,33.07
2021-06-30 18:36:59.687500000,-63.0,15.0,1.0,170.8675,-26.92,3.349003,33.07
2021-06-30 18:36:59.695312500,-63.25,15.25,1.0,170.87031249999998,-27.125,3.34928325,33.07
2021-06-30 18:36:59.703125000,-63.5,15.5,1.0,170.873125,-27.33,3.3495635,33.07
2021-06-30 18:36:59.710937500,-63.75,15.75,1.0,170.8759375,-26.825,3.3498437500000002,33.07
2021-06-30 18:36:59.718750000,-64.0,16.0,1.0,170.87875,-26.32,3.350124,33.07
2021-06-30 18:36:59.726562500,-64.0,16.0,1.0,170.8815625,-25.08,3.35040425,33.07
2021-06-30 18:36:59.734375000,-64.0,16.0,1.0,170.884375,-23.84,3.3506845,33.07
2021-06-30 18:36:59.742187500,-64.0,16.0,1.0,170.88718749999998,-21.96,3.35096475,33.07
2021-06-30 18:36:59.750000000,-64.0,16.0,1.0,170.89,-20.08,3.351245,33.07
2021-06-30 18:36:59.757812500,-63.75,15.75,1.0,170.8928125,-17.785,3.35128503125,33.07
2021-06-30 18:36:59.765625000,-63.5,15.5,1.0,170.895625,-15.49,3.3513250625,33.07
2021-06-30 18:36:59.773437500,-63.25,15.25,1.0,170.8984375,-13.06,3.35136509375,33.07
2021-06-30 18:36:59.781250000,-63.0,15.0,1.0,170.90125,-10.63,3.351405125,33.07
2021-06-30 18:36:59.789062500,-63.0,15.0,1.0,170.90406249999998,-8.335,3.35144515625,33.07
2021-06-30 18:36:59.796875000,-63.0,15.0,1.0,170.90687499999999,-6.04,3.3514851875000002,33.07
2021-06-30 18:36:59.804687500,-63.0,15.0,1.0,170.9096875,-4.11,3.35152521875,33.07
2021-06-30 18:36:59.812500000,-63.0,15.0,1.0,170.9125,-2.18,3.35156525,33.07
2021-06-30 18:36:59.820312500,-63.25,15.25,1.0,170.9153125,-0.7450000000000001,3.35160528125,33.07
2021-06-30 18:36:59.828125000,-63.5,15.5,1.0,170.918125,0.69,3.3516453125,33.07
2021-06-30 18:36:59.835937500,-63.75,15.75,1.0,170.92093749999998,1.605,3.3516853437500003,33.07
2021-06-30 18:36:59.843750000,-64.0,16.0,1.0,170.92374999999998,2.52,3.351725375,33.07
2021-06-30 18:36:59.851562500,-64.0,16.0,1.0,170.9265625,2.96,3.35176540625,33.07
2021-06-30 18:36:59.859375000,-64.0,16.0,1.0,170.929375,3.4,3.3518054375,33.07
2021-06-30 18:36:59.867187500,-64.0,16.0,1.0,170.9321875,3.485,3.35184546875,33.07
2021-06-30 18:36:59.875000000,-64.0,16.0,1.0,170.935,3.57,3.3518855,33.07
2021-06-30 18:36:59.882812500,-63.75,15.75,1.0,170.93781249999998,3.4349999999999996,3.35192553125,33.07
2021-06-30 18:36:59.890625000,-63.5,15.5,1.0,170.94062499999998,3.3,3.3519655625,33.07
2021-06-30 18:36:59.898437500,-63.25,15.25,1.0,170.9434375,3.0549999999999997,3.35200559375,33.07
2021-06-30 18:36:59.906250000,-63.0,15.0,1.0,170.94625,2.81,3.352045625,33.07
2021-06-30 18:36:59.914062500,-63.0,15.0,1.0,170.9490625,2.52,3.35208565625,33.07
2021-06-30 18:36:59.921875000,-63.0,15.0,1.0,170.951875,2.23,3.3521256875,33.07
2021-06-30 18:36:59.929687500,-63.0,15.0,1.0,170.95468749999998,1.935,3.3521657187500002,33.07
2021-06-30 18:36:59.937500000,-63.0,15.0,1.0,170.95749999999998,1.64,3.35220575,33.07
2021-06-30 18:36:59.945312500,-63.0,15.0,1.0,170.9603125,1.3399999999999999,3.35224578125,33.07
2021-06-30 18:36:59.953125000,-63.0,15.0,1.0,170.963125,1.04,3.3522858125,33.07
2021-06-30 18:36:59.960937500,-63.0,15.0,1.0,170.9659375,0.74,3.35232584375,33.07
2021-06-30 18:36:59.968750000,-63.0,15.0,1.0,170.96875,0.44,3.3523658750000003,33.07
2021-06-30 18:36:59.976562500,-63.0,15.0,1.0,170.97156249999998,0.14999999999999997,3.35240590625,33.07
2021-06-30 18:36:59.984375000,-63.0,15.0,1.0,170.97437499999998,-0.14,3.3524459375,33.07
2021-06-30 18:36:59.992187500,-63.0,15.0,1.0,170.97718749999999,-0.39,3.35248596875,33.07
2021-06-30 18:37:00.000000000,-63.0,15.0,1.0,170.98,-0.64,3.352526,33.07
2021-06-30 18:37:00.007812500,-63.25,15.25,1.0,170.98304687499999,-0.81,3.35240590625,33.069375
2021-06-30 18:37:00.015625000,-63.5,15.5,1.0,170.98609374999998,-0.98,3.3522858125,33.06875
2021-06-30 18:37:00.023437500,-63.75,15.75,1.0,170.98914062499998,-1.05,3.3521657187500002,33.068125
2021-06-30 18:37:00.031250000,-64.0,16.0,1.0,170.9921875,-1.12,3.352045625,33.0675
2021-06-30 18:37:00.039062500,-63.75,15.75,1.0,170.995234375,-1.06,3.35192553125,33.066875
2021-06-30 18:37:00.046875000,-63.5,15.5,1.0,170.99828125,-1.0,3.3518054375,33.06625
2021-06-30 18:37:00.054687500,-63.25,15.25,1.0,171.001328125,-0.7949999999999999,3.3516853437500003,33.065625
2021-06-30 18:37:00.062500000,-63.0,15.0,1.0,171.00437499999998,-0.59,3.35156525,33.065
2021-06-30 18:37:00.070312500,-63.0,15.25,1.0,171.00742187499998,-0.26,3.35144515625,33.064375
2021-06-30 18:37:00.078125000,-63.0,15.5,1.0,171.01046875,0.07,3.3513250625,33.06375
2021-06-30 18:37:00.085937500,-63.0,15.75,1.0,171.013515625,0.48500000000000004,3.35120496875,33.063125
2021-06-30 18:37:00.093750000,-63.0,16.0,1.0,171.0165625,0.9,3.351084875,33.0625
2021-06-30 18:37:00.101562500,-63.0,15.75,1.0,171.019609375,1.355,3.35096478125,33.061875
2021-06-30 18:37:00.109375000,-63.0,15.5,1.0,171.02265624999998,1.81,3.3508446875,33.06125
2021-06-30 18:37:00.117187500,-63.0,15.25,1.0,171.02570312499998,2.215,3.35072459375,33.060625
2021-06-30 18:37:00.125000000,-63.0,15.0,1.0,171.02875,2.62,3.3506045,33.06
2021-06-30 18:37:00.132812500,-63.0,15.0,1.0,171.031796875,2.88,3.35048440625,33.059374999999996
2021-06-30 18:37:00.140625000,-63.0,15.0,1.0,171.03484375,3.14,3.3503643125,33.058749999999996
2021-06-30 18:37:00.148437500,-63.0,15.0,1.0,171.037890625,3.18,3.35024421875,33.058125
2021-06-30 18:37:00.156250000,-63.0,15.0,1.0,171.04093749999998,3.22,3.350124125,33.0575
2021-06-30 18:37:00.164062500,-63.25,15.25,1.0,171.04398437499998,3.0,3.35000403125,33.056875
2021-06-30 18:37:00.171875000,-63.5,15.5,1.0,171.04703125,2.78,3.3498839375,33.05625
2021-06-30 18:37:00.179687500,-63.75,15.75,1.0,171.050078125,2.335,3.34976384375,33.055625
2021-06-30 18:37:00.187500000,-64.0,16.0,1.0,171.053125,1.89,3.34964375,33.055
2021-06-30 18:37:00.195312500,-64.0,15.75,1.0,171.056171875,1.295,3.3495236562499997,33.054375
2021-06-30 18:37:00.203125000,-64.0,15.5,1.0,171.05921874999999,0.7,3.3494035625,33.05375
2021-06-30 18:37:00.210937500,-64.0,15.25,1.0,171.06226562499998,0.08999999999999997,3.34928346875,33.053124999999994
2021-06-30 18:37:00.218750000,-64.0,15.0,1.0,171.0653125,-0.52,3.349163375,33.052499999999995
2021-06-30 18:37:00.226562500,-64.0,15.25,1.0,171.068359375,-1.025,3.3490432812499997,33.051874999999995
2021-06-30 18:37:00.234375000,-64.0,15.5,1.0,171.07140625,-1.53,3.3489231875,33.051249999999996
2021-06-30 18:37:00.242187500,-64.0,15.75,1.0,171.074453125,-1.8650000000000002,3.34880309375,33.050625
2021-06-30 18:37:00.250000000,-64.0,16.0,1.0,171.0775,-2.2,3.348683,33.05
2021-06-30 18:37:00.257812500,-64.0,15.75,1.0,171.08054687499998,-2.39,3.348562875,33.05
2021-06-30 18:37:00.265625000,-64.0,15.5,1.0,171.08359375,-2.58,3.34844275,33.05
2021-06-30 18:37:00.273437500,-64.0,15.25,1.0,171.086640625,-2.7350000000000003,3.3483226249999998,33.05
2021-06-30 18:37:00.281250000,-64.0,15.0,1.0,171.0896875,-2.89,3.3482024999999997,33.05
2021-06-30 18:37:00.289062500,-64.0,15.0,1.0,171.092734375,-3.145,3.3480823749999997,33.05
2021-06-30 18:37:00.296875000,-64.0,15.0,1.0,171.09578125,-3.4,3.3479622499999997,33.05
2021-06-30 18:37:00.304687500,-64.0,15.0,1.0,171.09882812499998,-3.885,3.3478421249999997,33.05
2021-06-30 18:37:00.312500000,-64.0,15.0,1.0,171.101875,-4.37,3.347722,33.05
2021-06-30 18:37:00.320312500,-64.0,15.25,1.0,171.104921875,-5.08,3.347601875,33.05
2021-06-30 18:37:00.328125000,-64.0,15.5,1.0,171.10796875,-5.79,3.34748175,33.05
2021-06-30 18:37:00.335937500,-64.0,15.75,1.0,171.111015625,-6.609999999999999,3.347361625,33.05
2021-06-30 18:37:00.343750000,-64.0,16.0,1.0,171.1140625,-7.43,3.3472415,33.05
2021-06-30 18:37:00.351562500,-63.75,15.75,1.0,171.11710937499998,-8.16,3.347121375,33.05
2021-06-30 18:37:00.359375000,-63.5,15.5,1.0,171.12015625,-8.89,3.34700125,33.05
2021-06-30 18:37:00.367187500,-63.25,15.25,1.0,171.123203125,-9.285,3.346881125,33.05
2021-06-30 18:37:00.375000000,-63.0,15.0,1.0,171.12625,-9.68,3.346761,33.05
2021-06-30 18:37:00.382812500,-63.25,15.0,1.0,171.129296875,-9.55,3.346640875,33.05
2021-06-30 18:37:00.390625000,-63.5,15.0,1.0,171.13234375,-9.42,3.34652075,33.05
2021-06-30 18:37:00.398437500,-63.75,15.0,1.0,171.13539062499999,-8.68,3.346400625,33.05
2021-06-30 18:37:00.406250000,-64.0,15.0,1.0,171.1384375,-7.94,3.3462804999999998,33.05
2021-06-30 18:37:00.414062500,-63.75,15.25,1.0,171.141484375,-6.595000000000001,3.3461603749999997,33.05
2021-06-30 18:37:00.421875000,-63.5,15.5,1.0,171.14453125,-5.25,3.3460402499999997,33.05
2021-06-30 18:37:00.429687500,-63.25,15.75,1.0,171.147578125,-3.415,3.3459201249999997,33.05
2021-06-30 18:37:00.437500000,-63.0,16.0,1.0,171.150625,-1.58,3.3457999999999997,33.05
2021-06-30 18:37:00.445312500,-63.0,15.75,1.0,171.153671875,0.5700000000000003,3.345679875,33.05
2021-06-30 18:37:00.453125000,-63.0,15.5,1.0,171.15671875,2.72,3.34555975,33.05
2021-06-30 18:37:00.460937500,-63.0,15.25,1.0,171.159765625,4.970000000000001,3.345439625,33.05
2021-06-30 18:37:00.468750000,-63.0,15.0,1.0,171.1628125,7.22,3.3453195,33.05
2021-06-30 18:37:00.476562500,-63.25,15.0,1.0,171.165859375,9.334999999999999,3.345199375,33.05
2021-06-30 18:37:00.484375000,-63.5,15.0,1.0,171.16890625,11.45,3.34507925,33.05
2021-06-30 18:37:00.492187500,-63.75,15.0,1.0,171.171953125,13.235,3.344959125,33.05
2021-06-30 18:37:00.500000000,-64.0,15.0,1.0,171.175,15.02,3.344839,33.05
2021-06-30 18:37:00.507812500,-63.75,15.0,1.0,171.178046875,16.33,3.34463884375,33.05
2021-06-30 18:37:00.515625000,-63.5,15.0,1.0,171.18109375,17.64,3.3444386875,33.05
2021-06-30 18:37:00.523437500,-63.25,15.0,1.0,171.184140625,18.41,3.34423853125,33.05
2021-06-30 18:37:00.531250000,-63.0,15.0,1.0,171.1871875,19.18,3.344038375,33.05
2021-06-30 18:37:00.539062500,-63.0,15.0,1.0,171.190234375,19.425,3.3438382187499998,33.05
2021-06-30 18:37:00.546875000,-63.0,15.0,1.0,171.19328124999998,19.67,3.3436380624999997,33.05
2021-06-30 18:37:00.554687500,-63.0,15.0,1.0,171.196328125,19.485,3.3434379062499997,33.05
2021-06-30 18:37:00.562500000,-63.0,15.0,1.0,171.199375,19.3,3.34323775,33.05
2021-06-30 18:37:00.570312500,-63.0,15.25,1.0,171.202421875,18.8,3.34303759375,33.05
2021-06-30 18:37:00.578125000,-63.0,15.5,1.0,171.20546875,18.3,3.3428374375,33.05
2021-06-30 18:37:00.585937500,-63.0,15.75,1.0,171.208515625,17.625,3.34263728125,33.05
2021-06-30 18:37:00.593750000,-63.0,16.0,1.0,171.21156249999999,16.95,3.342437125,33.05
2021-06-30 18:37:00.601562500,-63.0,15.75,1.0,171.214609375,16.225,3.34223696875,33.05
2021-06-30 18:37:00.609375000,-63.0,15.5,1.0,171.21765625,15.5,3.3420368125,33.05
2021-06-30 18:37:00.617187500,-63.0,15.25,1.0,171.220703125,14.805,3.34183665625,33.05
2021-06-30 18:37:00.625000000,-63.0,15.0,1.0,171.22375,14.11,3.3416365,33.05
2021-06-30 18:37:00.632812500,-63.0,15.0,1.0,171.226796875,13.515,3.34143634375,33.05
2021-06-30 18:37:00.640625000,-63.0,15.0,1.0,171.22984375,12.92,3.3412361875,33.05
2021-06-30 18:37:00.648437500,-63.0,15.0,1.0,171.232890625,12.465,3.34103603125,33.05
2021-06-30 18:37:00.656250000,-63.0,15.0,1.0,171.2359375,12.01,3.340835875,33.05
2021-06-30 18:37:00.664062500,-63.25,15.25,1.0,171.238984375,11.73,3.3406357187499998,33.05
2021-06-30 18:37:00.671875000,-63.5,15.5,1.0,171.24203125,11.45,3.3404355624999997,33.05
2021-06-30 18:37:00.679687500,-63.75,15.75,1.0,171.245078125,11.35,3.3402354062499997,33.05
2021-06-30 18:37:00.687500000,-64.0,16.0,1.0,171.248125,11.25,3.3400352499999997,33.05
2021-06-30 18:37:00.695312500,-64.0,15.75,1.0,171.251171875,11.305,3.33983509375,33.05
2021-06-30 18:37:00.703125000,-64.0,15.5,1.0,171.25421875,11.36,3.3396349375,33.05
2021-06-30 18:37:00.710937500,-64.0,15.25,1.0,171.257265625,11.515,3.33943478125,33.05
2021-06-30 18:37:00.718750000,-64.0,15.0,1.0,171.2603125,11.67,3.339234625,33.05
2021-06-30 18:37:00.726562500,-63.75,15.0,1.0,171.263359375,11.835,3.33903446875,33.05
2021-06-30 18:37:00.734375000,-63.5,15.0,1.0,171.26640625,12.0,3.3388343125,33.05
2021-06-30 18:37:00.742187500,-63.25,15.0,1.0,171.269453125,12.075,3.33863415625,33.05
2021-06-30 18:37:00.750000000,-63.0,15.0,1.0,171.2725,12.15,3.338434,33.05
2021-06-30 18:37:00.757812500,-63.0,15.0,1.0,171.275546875,12.075,3.3383539375,33.05
2021-06-30 18:37:00.765625000,-63.0,15.0,1.0,171.27859375,12.0,3.338273875,33.05
2021-06-30 18:37:00.773437500,-63.0,15.0,1.0,171.281640625,11.754999999999999,3.3381938125,33.05
2021-06-30 18:37:00.781250000,-63.0,15.0,1.0,171.2846875,11.51,3.3381137499999998,33.05
2021-06-30 18:37:00.789062500,-63.0,15.0,1.0,171.287734375,11.155000000000001,3.3380336875,33.05
2021-06-30 18:37:00.796875000,-63.0,15.0,1.0,171.29078125,10.8,3.337953625,33.05
2021-06-30 18:37:00.804687500,-63.0,15.0,1.0,171.293828125,10.385000000000002,3.3378735625,33.05
2021-06-30 18:37:00.812500000,-63.0,15.0,1.0,171.296875,9.97,3.3377935,33.05
2021-06-30 18:37:00.820312500,-63.25,15.25,1.0,171.299921875,9.55,3.3377134375,33.05
2021-06-30 18:37:00.828125000,-63.5,15.5,1.0,171.30296875,9.13,3.337633375,33.05
2021-06-30 18:37:00.835937500,-63.75,15.75,1.0,171.30601562500001,8.690000000000001,3.3375533125,33.05
2021-06-30 18:37:00.843750000,-64.0,16.0,1.0,171.3090625,8.25,3.33747325,33.05
2021-06-30 18:37:00.851562500,-63.75,15.75,1.0,171.312109375,7.755,3.3373931875,33.05
2021-06-30 18:37:00.859375000,-63.5,15.5,1.0,171.31515625,7.26,3.337313125,33.05
2021-06-30 18:37:00.867187500,-63.25,15.25,1.0,171.318203125,6.63,3.3372330625,33.05
2021-06-30 18:37:00.875000000,-63.0,15.0,1.0,171.32125,6.0,3.337153,33.05
2021-06-30 18:37:00.882812500,-63.25,15.0,1.0,171.32429687500002,5.2,3.3370729375,33.05
2021-06-30 18:37:00.890625000,-63.5,15.0,1.0,171.32734375,4.4,3.336992875,33.05
2021-06-30 18:37:00.898437500,-63.75,15.0,1.0,171.330390625,3.41,3.3369128125,33.05
2021-06-30 18:37:00.906250000,-64.0,15.0,1.0,171.3334375,2.42,3.33683275,33.05
2021-06-30 18:37:00.914062500,-64.0,15.0,1.0,171.336484375,1.2449999999999999,3.3367526875,33.05
2021-06-30 18:37:00.921875000,-64.0,15.0,1.0,171.33953125,0.07,3.3366726250000003,33.05
2021-06-30 18:37:00.929687500,-64.0,15.0,1.0,171.34257812500002,-1.255,3.3365925625,33.05
2021-06-30 18:37:00.937500000,-64.0,15.0,1.0,171.345625,-2.58,3.3365125,33.05
2021-06-30 18:37:00.945312500,-64.0,15.0,1.0,171.348671875,-3.995,3.3364324375,33.05
2021-06-30 18:37:00.953125000,-64.0,15.0,1.0,171.35171875,-5.41,3.336352375,33.05
2021-06-30 18:37:00.960937500,-64.0,15.0,1.0,171.354765625,-6.805,3.3362723125000002,33.05
2021-06-30 18:37:00.968750000,-64.0,15.0,1.0,171.3578125,-8.2,3.3361922500000003,33.05
2021-06-30 18:37:00.976562500,-64.0,15.25,1.0,171.36085937500002,-9.385,3.3361121875,33.05
2021-06-30 18:37:00.984375000,-64.0,15.5,1.0,171.36390625,-10.57,3.336032125,33.05
2021-06-30 18:37:00.992187500,-64.0,15.75,1.0,171.366953125,-11.325,3.3359520625,33.05
2021-06-30 18:37:01.000000000,-64.0,16.0,1.0,171.37,-12.08,3.335872,33.05
2021-06-30 18:37:01.007812500,-63.75,15.75,1.0,171.3728125,-12.184999999999999,3.33543159375,33.05
2021-06-30 18:37:01.015625000,-63.5,15.5,1.0,171.375625,-12.29,3.3349911875,33.05
2021-06-30 18:37:01.023437500,-63.25,15.25,1.0,171.37843750000002,-11.665,3.33455078125,33.05
2021-06-30 18:37:01.031250000,-63.0,15.0,1.0,171.38125,-11.04,3.3341103750000003,33.05
2021-06-30 18:37:01.039062500,-63.0,15.0,1.0,171.3840625,-9.774999999999999,3.33366996875,33.05
2021-06-30 18:37:01.046875000,-63.0,15.0,1.0,171.386875,-8.51,3.3332295625,33.05
2021-06-30 18:37:01.054687500,-63.0,15.0,1.0,171.3896875,-6.83,3.33278915625,33.05
2021-06-30 18:37:01.062500000,-63.0,15.0,1.0,171.3925,-5.15,3.33234875,33.05
2021-06-30 18:37:01.070312500,-63.25,15.0,1.0,171.39531250000002,-3.3550000000000004,3.33190834375,33.05
2021-06-30 18:37:01.078125000,-63.5,15.0,1.0,171.398125,-1.56,3.3314679375000003,33.05
2021-06-30 18:37:01.085937500,-63.75,15.0,1.0,171.4009375,0.09499999999999997,3.33102753125,33.05
2021-06-30 18:37:01.093750000,-64.0,15.0,1.0,171.40375,1.75,3.330587125,33.05
2021-06-30 18:37:01.101562500,-64.0,15.0,1.0,171.4065625,3.115,3.33014671875,33.05
2021-06-30 18:37:01.109375000,-64.0,15.0,1.0,171.409375,4.48,3.3297063125,33.05
2021-06-30 18:37:01.117187500,-64.0,15.0,1.0,171.41218750000002,5.505000000000001,3.32926590625,33.05
2021-06-30 18:37:01.125000000,-64.0,15.0,1.0,171.415,6.53,3.3288254999999998,33.05
2021-06-30 18:37:01.132812500,-63.75,15.0,1.0,171.4178125,7.24,3.32838509375,33.05
2021-06-30 18:37:01.140625000,-63.5,15.0,1.0,171.420625,7.95,3.3279446875,33.05
2021-06-30 18:37:01.148437500,-63.25,15.0,1.0,171.4234375,8.36,3.32750428125,33.05
2021-06-30 18:37:01.156250000,-63.0,15.0,1.0,171.42625,8.77,3.327063875,33.05
2021-06-30 18:37:01.164062500,-63.0,15.0,1.0,171.42906250000001,8.875,3.32662346875,33.05
2021-06-30 18:37:01.171875000,-63.0,15.0,1.0,171.431875,8.98,3.3261830624999997,33.05
2021-06-30 18:37:01.179687500,-63.0,15.0,1.0,171.4346875,8.780000000000001,3.32574265625,33.05
2021-06-30 18:37:01.187500000,-63.0,15.0,1.0,171.4375,8.58,3.32530225,33.05
2021-06-30 18:37:01.195312500,-63.25,15.0,1.0,171.4403125,8.14,3.32486184375,33.05
2021-06-30 18:37:01.203125000,-63.5,15.0,1.0,171.443125,7.7,3.3244214375,33.05
2021-06-30 18:37:01.210937500,-63.75,15.0,1.0,171.4459375,7.12,3.3239810312499998,33.05
2021-06-30 18:37:01.218750000,-64.0,15.0,1.0,171.44875,6.54,3.3235406249999997,33.05
2021-06-30 18:37:01.226562500,-63.75,15.0,1.0,171.4515625,5.995,3.32310021875,33.05
2021-06-30 18:37:01.234375000,-63.5,15.0,1.0,171.454375,5.45,3.3226598125,33.05
2021-06-30 18:37:01.242187500,-63.25,15.0,1.0,171.4571875,5.050000000000001,3.32221940625,33.05
2021-06-30 18:37:01.250000000,-63.0,15.0,1.0,171.46,4.65,3.321779,33.05
2021-06-30 18:37:01.257812500,-63.0,15.0,1.0,171.4628125,4.475,3.32201921875,33.05
2021-06-30 18:37:01.265625000,-63.0,15.0,1.0,171.465625,4.3,3.3222594374999996,33.05
2021-06-30 18:37:01.273437500,-63.0,15.0,1.0,171.4684375,4.3149999999999995,3.3224996562499998,33.05
2021-06-30 18:37:01.281250000,-63.0,15.0,1.0,171.47125,4.33,3.322739875,33.05
2021-06-30 18:37:01.289062500,-63.25,15.0,1.0,171.4740625,4.45,3.32298009375,33.05
2021-06-30 18:37:01.296875000,-63.5,15.0,1.0,171.476875,4.57,3.3232203124999997,33.05
2021-06-30 18:37:01.304687500,-63.75,15.0,1.0,171.4796875,4.68,3.32346053125,33.05
2021-06-30 18:37:01.312500000,-64.0,15.0,1.0,171.4825,4.79,3.32370075,33.05
2021-06-30 18:37:01.320312500,-63.75,15.0,1.0,171.4853125,4.8100000000000005,3.3239409687499997,33.05
2021-06-30 18:37:01.328125000,-63.5,15.0,1.0,171.488125,4.83,3.3241811875,33.05
2021-06-30 18:37:01.335937500,-63.25,15.0,1.0,171.4909375,4.745,3.32442140625,33.05
2021-06-30 18:37:01.343750000,-63.0,15.0,1.0,171.49375,4.66,3.324661625,33.05
2021-06-30 18:37:01.351562500,-63.25,15.0,1.0,171.4965625,4.49,3.3249018437499998,33.05
2021-06-30 18:37:01.359375000,-63.5,15.0,1.0,171.499375,4.32,3.3251420625,33.05
2021-06-30 18:37:01.367187500,-63.75,15.0,1.0,171.5021875,4.12,3.32538228125,33.05
2021-06-30 18:37:01.375000000,-64.0,15.0,1.0,171.505,3.92,3.3256224999999997,33.05
2021-06-30 18:37:01.382812500,-64.0,15.0,1.0,171.5078125,3.745,3.32586271875,33.05
2021-06-30 18:37:01.390625000,-64.0,15.0,1.0,171.510625,3.57,3.3261029375,33.05
2021-06-30 18:37:01.398437500,-64.0,15.0,1.0,171.5134375,3.415,3.32634315625,33.05
2021-06-30 18:37:01.406250000,-64.0,15.0,1.0,171.51624999999999,3.26,3.326583375,33.05
2021-06-30 18:37:01.414062500,-63.75,15.0,1.0,171.5190625,3.08,3.32682359375,33.05
2021-06-30 18:37:01.421875000,-63.5,15.0,1.0,171.521875,2.9,3.3270638125,33.05
2021-06-30 18:37:01.429687500,-63.25,15.0,1.0,171.5246875,2.61,3.32730403125,33.05
2021-06-30 18:37:01.437500000,-63.0,15.0,1.0,171.5275,2.32,3.32754425,33.05
2021-06-30 18:37:01.445312500,-63.25,15.0,1.0,171.5303125,1.845,3.32778446875,33.05
2021-06-30 18:37:01.453125000,-63.5,15.0,1.0,171.53312499999998,1.37,3.3280246875,33.05
2021-06-30 18:37:01.460937500,-63.75,15.0,1.0,171.5359375,0.67,3.32826490625,33.05
2021-06-30 18:37:01.468750000,-64.0,15.0,1.0,171.53875,-0.03,3.328505125,33.05
2021-06-30 18:37:01.476562500,-64.0,15.0,1.0,171.5415625,-0.93,3.32874534375,33.05
2021-06-30 18:37:01.484375000,-64.0,15.0,1.0,171.544375,-1.83,3.3289855625,33.05
2021-06-30 18:37:01.492187500,-64.0,15.0,1.0,171.5471875,-2.9000000000000004,3.32922578125,33.05
2021-06-30 18:37:01.500000000,-64.0,15.0,1.0,171.55,-3.97,3.329466,33.05
2021-06-30 18:37:01.507812500,-64.0,15.0,1.0,171.5528125,-5.15,3.32934590625,33.05
2021-06-30 18:37:01.515625000,-64.0,15.0,1.0,171.555625,-6.33,3.3292258125,33.05
2021-06-30 18:37:01.523437500,-64.0,15.0,1.0,171.5584375,-7.55,3.32910571875,33.05
2021-06-30 18:37:01.531250000,-64.0,15.0,1.0,171.56125,-8.77,3.328985625,33.05
2021-06-30 18:37:01.539062500,-63.75,15.0,1.0,171.5640625,-9.905,3.32886553125,33.05
2021-06-30 18:37:01.546875000,-63.5,15.0,1.0,171.566875,-11.04,3.3287454375000003,33.05
2021-06-30 18:37:01.554687500,-63.25,15.0,1.0,171.5696875,-11.915,3.32862534375,33.05
2021-06-30 18:37:01.562500000,-63.0,15.0,1.0,171.5725,-12.79,3.32850525,33.05
2021-06-30 18:37:01.570312500,-63.25,15.0,1.0,171.5753125,-13.19,3.32838515625,33.05
2021-06-30 18:37:01.578125000,-63.5,15.0,1.0,171.578125,-13.59,3.3282650625,33.05
2021-06-30 18:37:01.585937500,-63.75,15.0,1.0,171.5809375,-13.315,3.32814496875,33.05
2021-06-30 18:37:01.593750000,-64.0,15.0,1.0,171.58375,-13.04,3.328024875,33.05
2021-06-30 18:37:01.601562500,-64.0,15.0,1.0,171.58656249999999,-12.015,3.32790478125,33.05
2021-06-30 18:37:01.609375000,-64.0,15.0,1.0,171.589375,-10.99,3.3277846875000003,33.05
2021-06-30 18:37:01.617187500,-64.0,15.0,1.0,171.5921875,-9.31,3.3276645937500002,33.05
2021-06-30 18:37:01.625000000,-64.0,15.0,1.0,171.595,-7.63,3.3275445,33.05
2021-06-30 18:37:01.632812500,-64.0,15.0,1.0,171.5978125,-5.575,3.32742440625,33.05
2021-06-30 18:37:01.640625000,-64.0,15.0,1.0,171.600625,-3.52,3.3273043125,33.05
2021-06-30 18:37:01.648437500,-64.0,15.0,1.0,171.60343749999998,-1.44,3.3271842187500003,33.05
2021-06-30 18:37:01.656250000,-64.0,15.0,1.0,171.60625,0.64,3.327064125,33.05
2021-06-30 18:37:01.664062500,-63.75,15.0,1.0,171.6090625,2.425,3.32694403125,33.05
2021-06-30 18:37:01.671875000,-63.5,15.0,1.0,171.611875,4.21,3.3268239375000004,33.05
2021-06-30 18:37:01.679687500,-63.25,15.0,1.0,171.6146875,5.505,3.3267038437500003,33.05
2021-06-30 18:37:01.687500000,-63.0,15.0,1.0,171.6175,6.8,3.32658375,33.05
2021-06-30 18:37:01.695312500,-63.25,15.0,1.0,171.62031249999998,7.6,3.32646365625,33.05
2021-06-30 18:37:01.703125000,-63.5,15.0,1.0,171.623125,8.4,3.3263435625,33.05
2021-06-30 18:37:01.710937500,-63.75,15.0,1.0,171.6259375,8.82,3.3262234687500003,33.05
2021-06-30 18:37:01.718750000,-64.0,15.0,1.0,171.62875,9.24,3.326103375,33.05
2021-06-30 18:37:01.726562500,-64.0,15.0,1.0,171.6315625,9.42,3.32598328125,33.05
2021-06-30 18:37:01.734375000,-64.0,15.0,1.0,171.634375,9.6,3.3258631875000004,33.05
2021-06-30 18:37:01.742187500,-64.0,15.0,1.0,171.63718749999998,9.66,3.3257430937500003,33.05
2021-06-30 18:37:01.750000000,-64.0,15.0,1.0,171.64,9.72,3.325623,33.05
2021-06-30 18:37:01.757812500,-63.75,15.0,1.0,171.6428125,9.690000000000001,3.3252226562500002,33.05
2021-06-30 18:37:01.765625000,-63.5,15.0,1.0,171.645625,9.66,3.3248223125000003,33.05
2021-06-30 18:37:01.773437500,-63.25,15.0,1.0,171.6484375,9.51,3.3244219687500003,33.05
2021-06-30 18:37:01.781250000,-63.0,15.0,1.0,171.65125,9.36,3.3240216250000003,33.05
2021-06-30 18:37:01.789062500,-63.25,15.0,1.0,171.65406249999998,9.075,3.3236212812500003,33.05
2021-06-30 18:37:01.796875000,-63.5,15.0,1.0,171.65687499999999,8.79,3.3232209375000004,33.05
2021-06-30 18:37:01.804687500,-63.75,15.0,1.0,171.6596875,8.385,3.3228205937500004,33.05
2021-06-30 18:37:01.812500000,-64.0,15.0,1.0,171.6625,7.98,3.3224202500000004,33.05
2021-06-30 18:37:01.820312500,-63.75,15.0,1.0,171.6653125,7.545,3.32201990625,33.05
2021-06-30 18:37:01.828125000,-63.5,15.0,1.0,171.668125,7.11,3.3216195625,33.05
2021-06-30 18:37:01.835937500,-63.25,15.0,1.0,171.67093749999998,6.78,3.32121921875,33.05
2021-06-30 18:37:01.843750000,-63.0,15.0,1.0,171.67374999999998,6.45,3.320818875,33.05
2021-06-30 18:37:01.851562500,-63.0,15.0,1.0,171.6765625,6.325,3.32041853125,33.05
2021-06-30 18:37:01.859375000,-63.0,15.0,1.0,171.679375,6.2,3.3200181875,33.05
2021-06-30 18:37:01.867187500,-63.0,15.0,1.0,171.6821875,6.300000000000001,3.31961784375,33.05
2021-06-30 18:37:01.875000000,-63.0,15.0,1.0,171.685,6.4,3.3192175,33.05
2021-06-30 18:37:01.882812500,-63.0,15.0,1.0,171.68781249999998,6.640000000000001,3.31881715625,33.05
2021-06-30 18:37:01.890625000,-63.0,15.0,1.0,171.69062499999998,6.88,3.3184168125,33.05
2021-06-30 18:37:01.898437500,-63.0,15.0,1.0,171.6934375,7.1,3.3180164687500002,33.05
2021-06-30 18:37:01.906250000,-63.0,15.0,1.0,171.69625,7.32,3.3176161250000002,33.05
2021-06-30 18:37:01.914062500,-63.25,15.0,1.0,171.6990625,7.375,3.3172157812500003,33.05
2021-06-30 18:37:01.921875000,-63.5,15.0,1.0,171.701875,7.43,3.3168154375000003,33.05
2021-06-30 18:37:01.929687500,-63.75,15.0,1.0,171.70468749999998,7.275,3.3164150937500003,33.05
2021-06-30 18:37:01.937500000,-64.0,15.0,1.0,171.70749999999998,7.12,3.31601475,33.05
2021-06-30 18:37:01.945312500,-64.0,15.0,1.0,171.7103125,6.785,3.31561440625,33.05
2021-06-30 18:37:01.953125000,-64.0,15.0,1.0,171.713125,6.45,3.3152140625,33.05
2021-06-30 18:37:01.960937500,-64.0,15.0,1.0,171.7159375,6.04,3.31481371875,33.05
2021-06-30 18:37:01.968750000,-64.0,15.0,1.0,171.71875,5.63,3.314413375,33.05
2021-06-30 18:37:01.976562500,-64.0,15.0,1.0,171.72156249999998,5.234999999999999,3.31401303125,33.05
2021-06-30 18:37:01.984375000,-64.0,15.0,1.0,171.72437499999998,4.84,3.3136126875,33.05
2021-06-30 18:37:01.992187500,-64.0,15.0,1.0,171.72718749999999,4.475,3.31321234375,33.05
2021-06-30 18:37:02.000000000,-64.0,15.0,1.0,171.73,4.11,3.312812,33.05
2021-06-30 18:37:02.007812500,-64.0,15.0,1.0,171.733515625,3.7350000000000003,3.3128520312500003,33.051249999999996
2021-06-30 18:37:02.015625000,-64.0,15.0,1.0,171.73703125,3.36,3.3128920625,33.052499999999995
2021-06-30 18:37:02.023437500,-64.0,15.0,1.0,171.74054687499998,2.9,3.31293209375,33.05375
2021-06-30 18:37:02.031250000,-64.0,15.0,1.0,171.74406249999998,2.44,3.312972125,33.055
2021-06-30 18:37:02.039062500,-64.0,15.0,1.0,171.747578125,1.825,3.31301215625,33.05625
2021-06-30 18:37:02.046875000,-64.0,15.0,1.0,171.75109375,1.21,3.3130521875000003,33.0575
2021-06-30 18:37:02.054687500,-64.0,15.0,1.0,171.754609375,0.41500000000000004,3.31309221875,33.058749999999996
2021-06-30 18:37:02.062500000,-64.0,15.0,1.0,171.75812499999998,-0.38,3.3131322500000002,33.06
2021-06-30 18:37:02.070312500,-64.0,15.0,1.0,171.76164062499998,-1.335,3.31317228125,33.06125
2021-06-30 18:37:02.078125000,-64.0,15.0,1.0,171.76515625,-2.29,3.3132123125,33.0625
2021-06-30 18:37:02.085937500,-64.0,15.0,1.0,171.768671875,-3.3850000000000002,3.3132523437500003,33.06375
2021-06-30 18:37:02.093750000,-64.0,15.0,1.0,171.7721875,-4.48,3.313292375,33.065
2021-06-30 18:37:02.101562500,-64.0,15.0,1.0,171.77570312499998,-5.655,3.3133324062500003,33.06625
2021-06-30 18:37:02.109375000,-64.0,15.0,1.0,171.77921874999998,-6.83,3.3133724375,33.0675
2021-06-30 18:37:02.117187500,-64.0,15.0,1.0,171.782734375,-7.98,3.31341246875,33.06875
2021-06-30 18:37:02.125000000,-64.0,15.0,1.0,171.78625,-9.13,3.3134525000000004,33.07
2021-06-30 18:37:02.132812500,-64.0,15.0,1.0,171.789765625,-10.095,3.31349253125,33.07125
2021-06-30 18:37:02.140625000,-64.0,15.0,1.0,171.79328124999998,-11.06,3.3135325625000003,33.0725
2021-06-30 18:37:02.148437500,-64.0,15.0,1.0,171.79679687499998,-11.635000000000002,3.31357259375,33.073750000000004
2021-06-30 18:37:02.156250000,-64.0,15.0,1.0,171.8003125,-12.21,3.313612625,33.075
2021-06-30 18:37:02.164062500,-63.75,15.0,1.0,171.803828125,-12.215,3.31365265625,33.07625
2021-06-30 18:37:02.171875000,-63.5,15.0,1.0,171.80734375,-12.22,3.3136926875,33.0775
2021-06-30 18:37:02.179687500,-63.25,15.0,1.0,171.810859375,-11.57,3.3137327187500003,33.07875
2021-06-30 18:37:02.187500000,-63.0,15.0,1.0,171.81437499999998,-10.92,3.31377275,33.08
2021-06-30 18:37:02.195312500,-63.25,15.0,1.0,171.817890625,-9.655000000000001,3.3138127812500002,33.081250000000004
2021-06-30 18:37:02.203125000,-63.5,15.0,1.0,171.82140625,-8.39,3.3138528125,33.0825
2021-06-30 18:37:02.210937500,-63.75,15.0,1.0,171.824921875,-6.68,3.31389284375,33.08375
2021-06-30 18:37:02.218750000,-64.0,15.0,1.0,171.8284375,-4.97,3.3139328750000003,33.085
2021-06-30 18:37:02.226562500,-64.0,15.0,1.0,171.83195312499998,-3.065,3.31397290625,33.08625
2021-06-30 18:37:02.234375000,-64.0,15.0,1.0,171.83546875,-1.16,3.3140129375000003,33.087500000000006
2021-06-30 18:37:02.242187500,-64.0,15.0,1.0,171.838984375,0.7049999999999998,3.31405296875,33.088750000000005
2021-06-30 18:37:02.250000000,-64.0,15.0,1.0,171.8425,2.57,3.314093,33.09
2021-06-30 18:37:02.257812500,-64.0,15.0,1.0,171.846015625,4.215,3.3139328750000003,33.09
2021-06-30 18:37:02.265625000,-64.0,15.0,1.0,171.84953124999998,5.86,3.31377275,33.09
2021-06-30 18:37:02.273437500,-64.0,15.0,1.0,171.853046875,7.1850000000000005,3.313612625,33.09
2021-06-30 18:37:02.281250000,-64.0,15.0,1.0,171.8565625,8.51,3.3134525000000004,33.09
2021-06-30 18:37:02.289062500,-64.0,15.0,1.0,171.860078125,9.475,3.313292375,33.09
2021-06-30 18:37:02.296875000,-64.0,15.0,1.0,171.86359375,10.44,3.3131322500000002,33.09
2021-06-30 18:37:02.304687500,-64.0,15.0,1.0,171.86710937499998,11.059999999999999,3.312972125,33.09
2021-06-30 18:37:02.312500000,-64.0,15.0,1.0,171.870625,11.68,3.312812,33.09
2021-06-30 18:37:02.320312500,-64.0,15.0,1.0,171.874140625,11.99,3.3126518750000002,33.09
2021-06-30 18:37:02.328125000,-64.0,15.0,1.0,171.87765625,12.3,3.31249175,33.09
2021-06-30 18:37:02.335937500,-64.0,15.0,1.0,171.881171875,12.36,3.312331625,33.09
2021-06-30 18:37:02.343750000,-64.0,15.0,1.0,171.88468749999998,12.42,3.3121715,33.09
2021-06-30 18:37:02.351562500,-64.0,15.0,1.0,171.888203125,12.315000000000001,3.312011375,33.09
2021-06-30 18:37:02.359375000,-64.0,15.0,1.0,171.89171875,12.21,3.31185125,33.09
2021-06-30 18:37:02.367187500,-64.0,15.0,1.0,171.895234375,12.030000000000001,3.311691125,33.09
2021-06-30 18:37:02.375000000,-64.0,15.0,1.0,171.89875,11.85,3.311531,33.09
2021-06-30 18:37:02.382812500,-63.75,15.0,1.0,171.90226562499998,11.684999999999999,3.311370875,33.09
2021-06-30 18:37:02.390625000,-63.5,15.0,1.0,171.90578125,11.52,3.31121075,33.09
2021-06-30 18:37:02.398437500,-63.25,15.0,1.0,171.909296875,11.44,3.311050625,33.09
2021-06-30 18:37:02.406250000,-63.0,15.0,1.0,171.9128125,11.36,3.3108905,33.09
2021-06-30 18:37:02.414062500,-63.25,15.0,1.0,171.916328125,11.364999999999998,3.310730375,33.09
2021-06-30 18:37:02.421875000,-63.5,15.0,1.0,171.91984374999998,11.37,3.31057025,33.09
2021-06-30 18:37:02.429687500,-63.75,15.0,1.0,171.923359375,11.405,3.3104101249999998,33.09
2021-06-30 18:37:02.437500000,-64.0,15.0,1.0,171.926875,11.44,3.31025,33.09
2021-06-30 18:37:02.445312500,-64.0,15.0,1.0,171.930390625,11.43,3.310089875,33.09
2021-06-30 18:37:02.453125000,-64.0,15.0,1.0,171.93390625,11.42,3.30992975,33.09
2021-06-30 18:37:02.460937500,-64.0,15.0,1.0,171.93742187499998,11.280000000000001,3.309769625,33.09
2021-06-30 18:37:02.468750000,-64.0,15.0,1.0,171.9409375,11.14,3.3096094999999996,33.09
2021-06-30 18:37:02.476562500,-64.0,15.0,1.0,171.944453125,10.845,3.309449375,33.09
2021-06-30 18:37:02.484375000,-64.0,15.0,1.0,171.94796875,10.55,3.30928925,33.09
2021-06-30 18:37:02.492187500,-64.0,15.0,1.0,171.951484375,10.135000000000002,3.3091291249999997,33.09
2021-06-30 18:37:02.500000000,-64.0,15.0,1.0,171.95499999999998,9.72,3.308969,33.09
2021-06-30 18:37:02.507812500,-63.75,15.0,1.0,171.958515625,9.280000000000001,3.3089289687499996,33.09
2021-06-30 18:37:02.515625000,-63.5,15.0,1.0,171.96203125,8.84,3.3088889375,33.09
2021-06-30 18:37:02.523437500,-63.25,15.0,1.0,171.965546875,8.465,3.3088489062499997,33.09
2021-06-30 18:37:02.531250000,-63.0,15.0,1.0,171.9690625,8.09,3.308808875,33.09
2021-06-30 18:37:02.539062500,-63.25,15.0,1.0,171.972578125,7.8149999999999995,3.30876884375,33.09
2021-06-30 18:37:02.546875000,-63.5,15.0,1.0,171.97609375,7.54,3.3087288125,33.09
2021-06-30 18:37:02.554687500,-63.75,15.0,1.0,171.979609375,7.3149999999999995,3.30868878125,33.09
2021-06-30 18:37:02.562500000,-64.0,15.0,1.0,171.983125,7.09,3.3086487499999997,33.09
2021-06-30 18:37:02.570312500,-64.0,15.0,1.0,171.986640625,6.8149999999999995,3.30860871875,33.09
2021-06-30 18:37:02.578125000,-64.0,15.0,1.0,171.99015625,6.54,3.3085686874999998,33.09
2021-06-30 18:37:02.585937500,-64.0,15.0,1.0,171.993671875,6.09,3.30852865625,33.09
2021-06-30 18:37:02.593750000,-64.0,15.0,1.0,171.9971875,5.64,3.308488625,33.09
2021-06-30 18:37:02.601562500,-64.0,15.0,1.0,172.000703125,4.945,3.30844859375,33.09
2021-06-30 18:37:02.609375000,-64.0,15.0,1.0,172.00421875,4.25,3.3084085625,33.09
2021-06-30 18:37:02.617187500,-64.0,15.0,1.0,172.007734375,3.33,3.30836853125,33.09
2021-06-30 18:37:02.625000000,-64.0,15.0,1.0,172.01125,2.41,3.3083285,33.09
2021-06-30 18:37:02.632812500,-64.0,15.0,1.0,172.014765625,1.36,3.30828846875,33.09
2021-06-30 18:37:02.640625000,-64.0,15.0,1.0,172.01828125,0.31,3.3082484375,33.09
2021-06-30 18:37:02.648437500,-64.0,15.0,1.0,172.021796875,-0.75,3.30820840625,33.09
2021-06-30 18:37:02.656250000,-64.0,15.0,1.0,172.0253125,-1.81,3.308168375,33.09
2021-06-30 18:37:02.664062500,-63.75,15.0,1.0,172.028828125,-2.785,3.30812834375,33.09
2021-06-30 18:37:02.671875000,-63.5,15.0,1.0,172.03234375,-3.76,3.3080883125000002,33.09
2021-06-30 18:37:02.679687500,-63.25,15.0,1.0,172.035859375,-4.609999999999999,3.30804828125,33.09
2021-06-30 18:37:02.687500000,-63.0,15.0,1.0,172.039375,-5.46,3.3080082500000003,33.09
2021-06-30 18:37:02.695312500,-63.0,15.0,1.0,172.042890625,-6.1850000000000005,3.30796821875,33.09
2021-06-30 18:37:02.703125000,-63.0,15.0,1.0,172.04640625,-6.91,3.3079281875,33.09
2021-06-30 18:37:02.710937500,-63.0,15.0,1.0,172.049921875,-7.555,3.30788815625,33.09
2021-06-30 18:37:02.718750000,-63.0,15.0,1.0,172.0534375,-8.2,3.307848125,33.09
2021-06-30 18:37:02.726562500,-63.25,15.0,1.0,172.056953125,-8.825,3.3078080937500003,33.09
2021-06-30 18:37:02.734375000,-63.5,15.0,1.0,172.06046875,-9.45,3.3077680625,33.09
2021-06-30 18:37:02.742187500,-63.75,15.0,1.0,172.063984375,-10.12,3.3077280312500004,33.09
2021-06-30 18:37:02.750000000,-64.0,15.0,1.0,172.0675,-10.79,3.307688,33.09
2021-06-30 18:37:02.757812500,-64.0,15.0,1.0,172.071015625,-11.555,3.30752784375,33.09
2021-06-30 18:37:02.765625000,-64.0,15.0,1.0,172.07453125,-12.32,3.3073676875,33.09
2021-06-30 18:37:02.773437500,-64.0,15.0,1.0,172.078046875,-13.195,3.30720753125,33.09
2021-06-30 18:37:02.781250000,-64.0,15.0,1.0,172.0815625,-14.07,3.3070473750000002,33.09
2021-06-30 18:37:02.789062500,-64.0,15.0,1.0,172.085078125,-14.995000000000001,3.30688721875,33.09
2021-06-30 18:37:02.796875000,-64.0,15.0,1.0,172.08859375,-15.92,3.3067270625000003,33.09
2021-06-30 18:37:02.804687500,-64.0,15.0,1.0,172.092109375,-16.745,3.30656690625,33.09
2021-06-30 18:37:02.812500000,-64.0,15.0,1.0,172.095625,-17.57,3.3064067500000003,33.09
2021-06-30 18:37:02.820312500,-64.0,15.0,1.0,172.099140625,-18.060000000000002,3.30624659375,33.09
2021-06-30 18:37:02.828125000,-64.0,15.0,1.0,172.10265625,-18.55,3.3060864375000003,33.09
2021-06-30 18:37:02.835937500,-64.0,15.0,1.0,172.106171875,-18.46,3.30592628125,33.09
2021-06-30 18:37:02.843750000,-64.0,15.0,1.0,172.1096875,-18.37,3.3057661250000003,33.09
2021-06-30 18:37:02.851562500,-63.75,15.0,1.0,172.113203125,-17.555,3.30560596875,33.09
2021-06-30 18:37:02.859375000,-63.5,15.0,1.0,172.11671875000002,-16.74,3.3054458125000004,33.09
2021-06-30 18:37:02.867187500,-63.25,15.0,1.0,172.120234375,-15.235,3.30528565625,33.09
2021-06-30 18:37:02.875000000,-63.0,15.0,1.0,172.12375,-13.73,3.3051255,33.09
2021-06-30 18:37:02.882812500,-63.25,15.0,1.0,172.127265625,-11.74,3.30496534375,33.09
2021-06-30 18:37:02.890625000,-63.5,15.0,1.0,172.13078125,-9.75,3.3048051875,33.09
2021-06-30 18:37:02.898437500,-63.75,15.0,1.0,172.13429687500002,-7.615,3.30464503125,33.09
2021-06-30 18:37:02.906250000,-64.0,15.0,1.0,172.1378125,-5.48,3.304484875,33.09
2021-06-30 18:37:02.914062500,-64.0,15.0,1.0,172.141328125,-3.5100000000000002,3.3043247187500002,33.09
2021-06-30 18:37:02.921875000,-64.0,15.0,1.0,172.14484375,-1.54,3.3041645625,33.09
2021-06-30 18:37:02.929687500,-64.0,15.0,1.0,172.148359375,0.06000000000000005,3.3040044062500002,33.09
2021-06-30 18:37:02.937500000,-64.0,15.0,1.0,172.15187500000002,1.66,3.30384425,33.09
2021-06-30 18:37:02.945312500,-63.75,15.0,1.0,172.155390625,2.825,3.3036840937500003,33.09
2021-06-30 18:37:02.953125000,-63.5,15.0,1.0,172.15890625,3.99,3.3035239375,33.09
2021-06-30 18:37:02.960937500,-63.25,15.0,1.0,172.162421875,4.78,3.3033637812500003,33.09
2021-06-30 18:37:02.968750000,-63.0,15.0,1.0,172.1659375,5.57,3.303203625,33.09
2021-06-30 18:37:02.976562500,-63.0,15.0,1.0,172.16945312500002,6.09,3.3030434687500003,33.09
2021-06-30 18:37:02.984375000,-63.0,15.0,1.0,172.17296875,6.61,3.3028833125,33.09
2021-06-30 18:37:02.992187500,-63.0,15.0,1.0,172.176484375,6.95,3.3027231562500003,33.09
2021-06-30 18:37:03.000000000,-63.0,15.0,1.0,172.18,7.29,3.302563,33.09
2021-06-30 18:37:03.007812500,-63.25,15.0,1.0,172.182265625,7.49,3.30252296875,33.089375000000004
2021-06-30 18:37:03.015625000,-63.5,15.0,1.0,172.18453125000002,7.69,3.3024829375,33.088750000000005
2021-06-30 18:37:03.023437500,-63.75,15.0,1.0,172.186796875,7.78,3.30244290625,33.088125000000005
2021-06-30 18:37:03.031250000,-64.0,15.0,1.0,172.1890625,7.87,3.3024028750000003,33.087500000000006
2021-06-30 18:37:03.039062500,-63.75,15.0,1.0,172.191328125,7.855,3.30236284375,33.086875000000006
2021-06-30 18:37:03.046875000,-63.5,15.0,1.0,172.19359375000002,7.84,3.3023228125,33.08625
2021-06-30 18:37:03.054687500,-63.25,15.0,1.0,172.195859375,7.745,3.30228278125,33.085625
2021-06-30 18:37:03.062500000,-63.0,15.0,1.0,172.198125,7.65,3.30224275,33.085
2021-06-30 18:37:03.070312500,-63.0,15.0,1.0,172.200390625,7.505000000000001,3.3022027187500003,33.084375
2021-06-30 18:37:03.078125000,-63.0,15.0,1.0,172.20265625000002,7.36,3.3021626875,33.08375
2021-06-30 18:37:03.085937500,-63.0,15.0,1.0,172.204921875,7.2,3.30212265625,33.083125
2021-06-30 18:37:03.093750000,-63.0,15.0,1.0,172.2071875,7.04,3.302082625,33.0825
2021-06-30 18:37:03.101562500,-63.25,15.0,1.0,172.209453125,6.875,3.30204259375,33.081875000000004
2021-06-30 18:37:03.109375000,-63.5,15.0,1.0,172.21171875000002,6.71,3.3020025625000002,33.081250000000004
2021-06-30 18:37:03.117187500,-63.75,15.0,1.0,172.213984375,6.5600000000000005,3.30196253125,33.080625000000005
2021-06-30 18:37:03.125000000,-64.0,15.0,1.0,172.21625,6.41,3.3019225,33.08
2021-06-30 18:37:03.132812500,-64.0,15.0,1.0,172.218515625,6.26,3.30188246875,33.079375
2021-06-30 18:37:03.140625000,-64.0,15.0,1.0,172.22078125000002,6.11,3.3018424375,33.07875
2021-06-30 18:37:03.148437500,-64.0,15.0,1.0,172.223046875,5.945,3.30180240625,33.078125
2021-06-30 18:37:03.156250000,-64.0,15.0,1.0,172.2253125,5.78,3.301762375,33.0775
2021-06-30 18:37:03.164062500,-64.0,15.0,1.0,172.227578125,5.57,3.3017223437500003,33.076875
2021-06-30 18:37:03.171875000,-64.0,15.0,1.0,172.22984375000001,5.36,3.3016823125,33.07625
2021-06-30 18:37:03.179687500,-64.0,15.0,1.0,172.232109375,5.095000000000001,3.30164228125,33.075625
2021-06-30 18:37:03.187500000,-64.0,15.0,1.0,172.234375,4.83,3.30160225,33.075
2021-06-30 18:37:03.195312500,-64.0,15.0,1.0,172.236640625,4.53,3.30156221875,33.074375
2021-06-30 18:37:03.203125000,-64.0,15.0,1.0,172.23890625,4.23,3.3015221875000003,33.073750000000004
2021-06-30 18:37:03.210937500,-64.0,15.0,1.0,172.241171875,3.93,3.30148215625,33.073125
2021-06-30 18:37:03.218750000,-64.0,15.0,1.0,172.2434375,3.63,3.301442125,33.0725
2021-06-30 18:37:03.226562500,-64.0,15.0,1.0,172.245703125,3.3899999999999997,3.30140209375,33.071875
2021-06-30 18:37:03.234375000,-64.0,15.0,1.0,172.24796875,3.15,3.3013620625,33.07125
2021-06-30 18:37:03.242187500,-64.0,15.0,1.0,172.250234375,2.985,3.3013220312500002,33.070625
2021-06-30 18:37:03.250000000,-64.0,15.0,1.0,172.2525,2.82,3.301282,33.07
2021-06-30 18:37:03.257812500,-64.0,15.0,1.0,172.254765625,2.71,3.30116190625,33.07
2021-06-30 18:37:03.265625000,-64.0,15.0,1.0,172.25703125,2.6,3.3010418125,33.07
2021-06-30 18:37:03.273437500,-64.0,15.0,1.0,172.25929687500002,2.49,3.30092171875,33.07
2021-06-30 18:37:03.281250000,-64.0,15.0,1.0,172.2615625,2.38,3.300801625,33.07
2021-06-30 18:37:03.289062500,-63.75,15.0,1.0,172.263828125,2.21,3.30068153125,33.07
2021-06-30 18:37:03.296875000,-63.5,15.0,1.0,172.26609375,2.04,3.3005614375,33.07
2021-06-30 18:37:03.304687500,-63.25,15.0,1.0,172.26835937500002,1.79,3.30044134375,33.07
2021-06-30 18:37:03.312500000,-63.0,15.0,1.0,172.270625,1.54,3.30032125,33.07
2021-06-30 18:37:03.320312500,-63.0,15.0,1.0,172.272890625,1.22,3.30020115625,33.07
2021-06-30 18:37:03.328125000,-63.0,15.0,1.0,172.27515625,0.9,3.3000810625,33.07
2021-06-30 18:37:03.335937500,-63.0,15.0,1.0,172.27742187500002,0.565,3.29996096875,33.07
2021-06-30 18:37:03.343750000,-63.0,15.0,1.0,172.2796875,0.23,3.299840875,33.07
2021-06-30 18:37:03.351562500,-63.0,15.0,1.0,172.281953125,-0.10500000000000001,3.29972078125,33.07
2021-06-30 18:37:03.359375000,-63.0,15.0,1.0,172.28421875,-0.44,3.2996006875,33.07
2021-06-30 18:37:03.367187500,-63.0,15.0,1.0,172.28648437500001,-0.7949999999999999,3.29948059375,33.07
2021-06-30 18:37:03.375000000,-63.0,15.0,1.0,172.28875,-1.15,3.2993604999999997,33.07
2021-06-30 18:37:03.382812500,-63.25,15.0,1.0,172.291015625,-1.5799999999999998,3.29924040625,33.07
2021-06-30 18:37:03.390625000,-63.5,15.0,1.0,172.29328125,-2.01,3.2991203125,33.07
2021-06-30 18:37:03.398437500,-63.75,15.0,1.0,172.295546875,-2.565,3.29900021875,33.07
2021-06-30 18:37:03.406250000,-64.0,15.0,1.0,172.2978125,-3.12,3.2988801249999997,33.07
2021-06-30 18:37:03.414062500,-64.0,15.0,1.0,172.300078125,-3.81,3.29876003125,33.07
2021-06-30 18:37:03.421875000,-64.0,15.0,1.0,172.30234375,-4.5,3.2986399375,33.07
2021-06-30 18:37:03.429687500,-64.0,15.0,1.0,172.304609375,-5.27,3.29851984375,33.07
2021-06-30 18:37:03.437500000,-64.0,15.0,1.0,172.306875,-6.04,3.2983997499999997,33.07
2021-06-30 18:37:03.445312500,-64.0,15.0,1.0,172.309140625,-6.775,3.2982796562499996,33.07
2021-06-30 18:37:03.453125000,-64.0,15.0,1.0,172.31140625,-7.51,3.2981595625,33.07
2021-06-30 18:37:03.460937500,-64.0,15.0,1.0,172.313671875,-8.129999999999999,3.29803946875,33.07
2021-06-30 18:37:03.468750000,-64.0,15.0,1.0,172.3159375,-8.75,3.2979193749999998,33.07
2021-06-30 18:37:03.476562500,-63.75,15.0,1.0,172.318203125,-9.205,3.2977992812499997,33.07
2021-06-30 18:37:03.484375000,-63.5,15.0,1.0,172.32046875,-9.66,3.2976791875,33.07
2021-06-30 18:37:03.492187500,-63.25,15.0,1.0,172.322734375,-10.02,3.29755909375,33.07
2021-06-30 18:37:03.500000000,-63.0,15.0,1.0,172.325,-10.38,3.297439,33.07
2021-06-30 18:37:03.507812500,-63.0,15.0,1.0,172.327265625,-10.760000000000002,3.2971987812499997,33.07
2021-06-30 18:37:03.515625000,-63.0,15.0,1.0,172.32953125,-11.14,3.2969585625,33.07
2021-06-30 18:37:03.523437500,-63.0,15.0,1.0,172.331796875,-11.695,3.29671834375,33.07
2021-06-30 18:37:03.531250000,-63.0,15.0,1.0,172.33406250000002,-12.25,3.2964781249999997,33.07
2021-06-30 18:37:03.539062500,-63.0,15.0,1.0,172.336328125,-13.065000000000001,3.29623790625,33.07
2021-06-30 18:37:03.546875000,-63.0,15.0,1.0,172.33859375,-13.88,3.2959976875,33.07
2021-06-30 18:37:03.554687500,-63.0,15.0,1.0,172.340859375,-14.945,3.2957574687499998,33.07
2021-06-30 18:37:03.562500000,-63.0,15.0,1.0,172.34312500000001,-16.01,3.2955172499999996,33.07
2021-06-30 18:37:03.570312500,-63.0,15.0,1.0,172.345390625,-17.185000000000002,3.29527703125,33.07
2021-06-30 18:37:03.578125000,-63.0,15.0,1.0,172.34765625,-18.36,3.2950368125,33.07
2021-06-30 18:37:03.585937500,-63.0,15.0,1.0,172.349921875,-19.41,3.2947965937499997,33.07
2021-06-30 18:37:03.593750000,-63.0,15.0,1.0,172.3521875,-20.46,3.294556375,33.07
2021-06-30 18:37:03.601562500,-63.25,15.0,1.0,172.354453125,-21.134999999999998,3.29431615625,33.07
2021-06-30 18:37:03.609375000,-63.5,15.0,1.0,172.35671875,-21.81,3.2940759374999997,33.07
2021-06-30 18:37:03.617187500,-63.75,15.0,1.0,172.358984375,-21.9,3.29383571875,33.07
2021-06-30 18:37:03.625000000,-64.0,15.0,1.0,172.36125,-21.99,3.2935955,33.07
2021-06-30 18:37:03.632812500,-63.75,15.0,1.0,172.363515625,-21.409999999999997,3.2933552812499998,33.07
2021-06-30 18:37:03.640625000,-63.5,15.0,1.0,172.36578125,-20.83,3.2931150625,33.07
2021-06-30 18:37:03.648437500,-63.25,15.0,1.0,172.368046875,-19.645,3.29287484375,33.07
2021-06-30 18:37:03.656250000,-63.0,15.0,1.0,172.3703125,-18.46,3.292634625,33.07
2021-06-30 18:37:03.664062500,-63.0,15.0,1.0,172.372578125,-16.87,3.29239440625,33.07
2021-06-30 18:37:03.671875000,-63.0,15.0,1.0,172.37484375,-15.28,3.2921541875,33.07
2021-06-30 18:37:03.679687500,-63.0,15.0,1.0,172.377109375,-13.53,3.29191396875,33.07
2021-06-30 18:37:03.687500000,-63.0,15.0,1.0,172.379375,-11.78,3.29167375,33.07
2021-06-30 18:37:03.695312500,-63.25,15.0,1.0,172.381640625,-10.125,3.29143353125,33.07
2021-06-30 18:37:03.703125000,-63.5,15.0,1.0,172.38390625,-8.47,3.2911933125,33.07
2021-06-30 18:37:03.710937500,-63.75,15.0,1.0,172.386171875,-7.08,3.29095309375,33.07
2021-06-30 18:37:03.718750000,-64.0,15.0,1.0,172.3884375,-5.69,3.290712875,33.07
2021-06-30 18:37:03.726562500,-64.0,15.0,1.0,172.390703125,-4.6450000000000005,3.29047265625,33.07
2021-06-30 18:37:03.734375000,-64.0,15.0,1.0,172.39296875,-3.6,3.2902324375,33.07
2021-06-30 18:37:03.742187500,-64.0,15.0,1.0,172.395234375,-2.9000000000000004,3.28999221875,33.07
2021-06-30 18:37:03.750000000,-64.0,15.0,1.0,172.3975,-2.2,3.289752,33.07
2021-06-30 18:37:03.757812500,-63.75,15.0,1.0,172.39976562500001,-1.7800000000000002,3.289752,33.07
2021-06-30 18:37:03.765625000,-63.5,15.0,1.0,172.40203125,-1.36,3.289752,33.07
2021-06-30 18:37:03.773437500,-63.25,15.0,1.0,172.404296875,-1.1300000000000001,3.289752,33.07
2021-06-30 18:37:03.781250000,-63.0,15.0,1.0,172.4065625,-0.9,3.289752,33.07
2021-06-30 18:37:03.789062500,-63.0,15.0,1.0,172.408828125,-0.75,3.289752,33.07
2021-06-30 18:37:03.796875000,-63.0,15.0,1.0,172.41109375,-0.6,3.289752,33.07
2021-06-30 18:37:03.804687500,-63.0,15.0,1.0,172.413359375,-0.44,3.289752,33.07
2021-06-30 18:37:03.812500000,-63.0,15.0,1.0,172.415625,-0.28,3.289752,33.07
2021-06-30 18:37:03.820312500,-63.25,15.0,1.0,172.417890625,-0.065,3.289752,33.07
2021-06-30 18:37:03.828125000,-63.5,15.0,1.0,172.42015625,0.15,3.289752,33.07
2021-06-30 18:37:03.835937500,-63.75,15.0,1.0,172.422421875,0.42499999999999993,3.289752,33.07
2021-06-30 18:37:03.843750000,-64.0,15.0,1.0,172.4246875,0.7,3.289752,33.07
2021-06-30 18:37:03.851562500,-64.0,15.0,1.0,172.426953125,0.98,3.289752,33.07
2021-06-30 18:37:03.859375000,-64.0,15.0,1.0,172.42921875,1.26,3.289752,33.07
2021-06-30 18:37:03.867187500,-64.0,15.0,1.0,172.431484375,1.48,3.289752,33.07
2021-06-30 18:37:03.875000000,-64.0,15.0,1.0,172.43375,1.7,3.289752,33.07
2021-06-30 18:37:03.882812500,-64.0,15.0,1.25,172.436015625,1.805,3.289752,33.07
2021-06-30 18:37:03.890625000,-64.0,15.0,1.5,172.43828125,1.91,3.289752,33.07
2021-06-30 18:37:03.898437500,-64.0,15.0,1.75,172.440546875,1.88,3.289752,33.07
2021-06-30 18:37:03.906250000,-64.0,15.0,2.0,172.4428125,1.85,3.289752,33.07
2021-06-30 18:37:03.914062500,-64.0,15.0,1.75,172.445078125,1.7200000000000002,3.289752,33.07
2021-06-30 18:37:03.921875000,-64.0,15.0,1.5,172.44734375,1.59,3.289752,33.07
2021-06-30 18:37:03.929687500,-64.0,15.0,1.25,172.449609375,1.425,3.289752,33.07
2021-06-30 18:37:03.937500000,-64.0,15.0,1.0,172.451875,1.26,3.289752,33.07
2021-06-30 18:37:03.945312500,-64.0,15.0,1.0,172.454140625,1.12,3.289752,33.07
2021-06-30 18:37:03.953125000,-64.0,15.0,1.0,172.45640625,0.98,3.289752,33.07
2021-06-30 18:37:03.960937500,-64.0,15.0,1.0,172.458671875,0.885,3.289752,33.07
2021-06-30 18:37:03.968750000,-64.0,15.0,1.0,172.4609375,0.79,3.289752,33.07
2021-06-30 18:37:03.976562500,-63.75,15.0,1.0,172.463203125,0.765,3.289752,33.07
2021-06-30 18:37:03.984375000,-63.5,15.0,1.0,172.46546874999999,0.74,3.289752,33.07
2021-06-30 18:37:03.992187500,-63.25,15.0,1.0,172.467734375,0.765,3.289752,33.07
2021-06-30 18:37:04.000000000,-63.0,15.0,1.0,172.47,0.79,3.289752,33.07
2021-06-30 18:37:04.007812500,-63.25,15.0,1.0,172.4721875,0.8500000000000001,3.28955184375,33.07
2021-06-30 18:37:04.015625000,-63.5,15.0,1.0,172.474375,0.91,3.2893516875,33.07
2021-06-30 18:37:04.023437500,-63.75,15.0,1.0,172.4765625,0.9550000000000001,3.28915153125,33.07
2021-06-30 18:37:04.031250000,-64.0,15.0,1.0,172.47875,1.0,3.288951375,33.07
2021-06-30 18:37:04.039062500,-64.0,15.0,1.0,172.4809375,0.995,3.28875121875,33.07
2021-06-30 18:37:04.046875000,-64.0,15.0,1.0,172.483125,0.99,3.2885510625,33.07
2021-06-30 18:37:04.054687500,-64.0,15.0,1.0,172.4853125,0.885,3.28835090625,33.07
2021-06-30 18:37:04.062500000,-64.0,15.0,1.0,172.4875,0.78,3.28815075,33.07
2021-06-30 18:37:04.070312500,-64.0,15.0,1.0,172.4896875,0.575,3.28795059375,33.07
2021-06-30 18:37:04.078125000,-64.0,15.0,1.0,172.491875,0.37,3.2877504375,33.07
2021-06-30 18:37:04.085937500,-64.0,15.0,1.0,172.4940625,0.07,3.28755028125,33.07
2021-06-30 18:37:04.093750000,-64.0,15.0,1.0,172.49625,-0.23,3.287350125,33.07
2021-06-30 18:37:04.101562500,-64.0,15.0,1.0,172.4984375,-0.5700000000000001,3.28714996875,33.07
2021-06-30 18:37:04.109375000,-64.0,15.0,1.0,172.50062499999999,-0.91,3.2869498125,33.07
2021-06-30 18:37:04.117187500,-64.0,15.0,1.0,172.5028125,-1.24,3.28674965625,33.07
2021-06-30 18:37:04.125000000,-64.0,15.0,1.0,172.505,-1.57,3.2865495,33.07
2021-06-30 18:37:04.132812500,-63.75,15.0,1.0,172.5071875,-1.85,3.28634934375,33.07
2021-06-30 18:37:04.140625000,-63.5,15.0,1.0,172.509375,-2.13,3.2861491875,33.07
2021-06-30 18:37:04.148437500,-63.25,15.0,1.0,172.5115625,-2.365,3.28594903125,33.07
2021-06-30 18:37:04.156250000,-63.0,15.0,1.0,172.51375,-2.6,3.285748875,33.07
2021-06-30 18:37:04.164062500,-63.25,15.0,1.0,172.5159375,-2.81,3.28554871875,33.07
2021-06-30 18:37:04.171875000,-63.5,15.0,1.0,172.518125,-3.02,3.2853485625,33.07
2021-06-30 18:37:04.179687500,-63.75,15.0,1.0,172.5203125,-3.24,3.28514840625,33.07
2021-06-30 18:37:04.187500000,-64.0,15.0,1.0,172.5225,-3.46,3.2849482500000002,33.07
2021-06-30 18:37:04.195312500,-64.0,15.0,1.0,172.5246875,-3.71,3.28474809375,33.07
2021-06-30 18:37:04.203125000,-64.0,15.0,1.0,172.526875,-3.96,3.2845479375,33.07
2021-06-30 18:37:04.210937500,-64.0,15.0,1.0,172.5290625,-4.26,3.28434778125,33.07
2021-06-30 18:37:04.218750000,-64.0,15.0,1.0,172.53125,-4.56,3.284147625,33.07
2021-06-30 18:37:04.226562500,-64.0,15.0,1.0,172.5334375,-4.925,3.28394746875,33.07
2021-06-30 18:37:04.234375000,-64.0,15.0,1.0,172.535625,-5.29,3.2837473125,33.07
2021-06-30 18:37:04.242187500,-64.0,15.0,1.0,172.5378125,-5.715,3.28354715625,33.07
2021-06-30 18:37:04.250000000,-64.0,15.0,1.0,172.54,-6.14,3.283347,33.07
2021-06-30 18:37:04.257812500,-64.0,15.0,1.0,172.5421875,-6.605,3.283347,33.07
2021-06-30 18:37:04.265625000,-64.0,15.0,1.0,172.544375,-7.07,3.283347,33.07
2021-06-30 18:37:04.273437500,-64.0,15.0,1.0,172.5465625,-7.5600000000000005,3.283347,33.07
2021-06-30 18:37:04.281250000,-64.0,15.0,1.0,172.54875,-8.05,3.283347,33.07
2021-06-30 18:37:04.289062500,-64.0,15.0,1.0,172.5509375,-8.525,3.283347,33.07
2021-06-30 18:37:04.296875000,-64.0,15.0,1.0,172.553125,-9.0,3.283347,33.07
2021-06-30 18:37:04.304687500,-64.0,15.0,1.0,172.55531249999999,-9.43,3.283347,33.07
2021-06-30 18:37:04.312500000,-64.0,15.0,1.0,172.5575,-9.86,3.283347,33.07
2021-06-30 18:37:04.320312500,-64.0,15.0,1.0,172.5596875,-10.235,3.283347,33.07
2021-06-30 18:37:04.328125000,-64.0,15.0,1.0,172.561875,-10.61,3.283347,33.07
2021-06-30 18:37:04.335937500,-64.0,15.0,1.0,172.5640625,-10.934999999999999,3.283347,33.07
2021-06-30 18:37:04.343750000,-64.0,15.0,1.0,172.56625,-11.26,3.283347,33.07
2021-06-30 18:37:04.351562500,-64.0,15.0,1.0,172.5684375,-11.55,3.283347,33.07
2021-06-30 18:37:04.359375000,-64.0,15.0,1.0,172.570625,-11.84,3.283347,33.07
2021-06-30 18:37:04.367187500,-64.0,15.0,1.0,172.5728125,-12.120000000000001,3.283347,33.07
2021-06-30 18:37:04.375000000,-64.0,15.0,1.0,172.575,-12.4,3.283347,33.07
2021-06-30 18:37:04.382812500,-64.0,15.0,1.0,172.5771875,-12.685,3.283347,33.07
2021-06-30 18:37:04.390625000,-64.0,15.0,1.0,172.579375,-12.97,3.283347,33.07
2021-06-30 18:37:04.398437500,-64.0,15.0,1.0,172.5815625,-13.245000000000001,3.283347,33.07
2021-06-30 18:37:04.406250000,-64.0,15.0,1.0,172.58375,-13.52,3.283347,33.07
2021-06-30 18:37:04.414062500,-63.75,15.0,1.0,172.5859375,-13.754999999999999,3.283347,33.07
2021-06-30 18:37:04.421875000,-63.5,15.0,1.0,172.588125,-13.99,3.283347,33.07
2021-06-30 18:37:04.429687500,-63.25,15.0,1.0,172.5903125,-14.105,3.283347,33.07
2021-06-30 18:37:04.437500000,-63.0,15.0,1.0,172.5925,-14.22,3.283347,33.07
2021-06-30 18:37:04.445312500,-63.25,15.0,1.0,172.5946875,-14.095,3.283347,33.07
2021-06-30 18:37:04.453125000,-63.5,15.0,1.0,172.596875,-13.97,3.283347,33.07
2021-06-30 18:37:04.460937500,-63.75,15.0,1.0,172.5990625,-13.48,3.283347,33.07
2021-06-30 18:37:04.468750000,-64.0,15.0,1.0,172.60125,-12.99,3.283347,33.07
2021-06-30 18:37:04.476562500,-64.0,15.0,1.0,172.6034375,-12.025,3.283347,33.07
2021-06-30 18:37:04.484375000,-64.0,15.0,1.0,172.605625,-11.06,3.283347,33.07
2021-06-30 18:37:04.492187500,-64.0,15.0,1.0,172.6078125,-9.620000000000001,3.283347,33.07
2021-06-30 18:37:04.500000000,-64.0,15.0,1.0,172.61,-8.18,3.283347,33.07
2021-06-30 18:37:04.507812500,-64.0,15.0,1.0,172.6121875,-6.35,3.283226875,33.07
2021-06-30 18:37:04.515625000,-64.0,15.0,1.0,172.614375,-4.52,3.28310675,33.07
2021-06-30 18:37:04.523437500,-64.0,15.0,1.0,172.6165625,-2.4949999999999997,3.282986625,33.07
2021-06-30 18:37:04.531250000,-64.0,15.0,1.0,172.61875,-0.47,3.2828665,33.07
2021-06-30 18:37:04.539062500,-63.75,15.0,1.0,172.6209375,1.51,3.282746375,33.07
2021-06-30 18:37:04.546875000,-63.5,15.0,1.0,172.623125,3.49,3.28262625,33.07
2021-06-30 18:37:04.554687500,-63.25,15.0,1.0,172.6253125,5.215,3.282506125,33.07
2021-06-30 18:37:04.562500000,-63.0,15.0,1.0,172.6275,6.94,3.282386,33.07
2021-06-30 18:37:04.570312500,-63.25,15.0,1.0,172.6296875,8.290000000000001,3.282265875,33.07
2021-06-30 18:37:04.578125000,-63.5,15.0,1.0,172.631875,9.64,3.28214575,33.07
2021-06-30 18:37:04.585937500,-63.75,15.0,1.0,172.6340625,10.565000000000001,3.282025625,33.07
2021-06-30 18:37:04.593750000,-64.0,15.0,1.0,172.63625,11.49,3.2819055,33.07
2021-06-30 18:37:04.601562500,-64.0,15.0,1.0,172.6384375,12.035,3.281785375,33.07
2021-06-30 18:37:04.609375000,-64.0,15.0,1.0,172.640625,12.58,3.28166525,33.07
2021-06-30 18:37:04.617187500,-64.0,15.0,1.0,172.6428125,12.825,3.281545125,33.07
2021-06-30 18:37:04.625000000,-64.0,15.0,1.0,172.645,13.07,3.281425,33.07
2021-06-30 18:37:04.632812500,-63.75,15.0,1.0,172.6471875,13.105,3.281304875,33.07
2021-06-30 18:37:04.640625000,-63.5,15.0,1.0,172.649375,13.14,3.28118475,33.07
2021-06-30 18:37:04.648437500,-63.25,15.0,1.0,172.6515625,13.075,3.281064625,33.07
2021-06-30 18:37:04.656250000,-63.0,15.0,1.0,172.65375,13.01,3.2809445,33.07
2021-06-30 18:37:04.664062500,-63.25,15.0,1.0,172.6559375,12.925,3.280824375,33.07
2021-06-30 18:37:04.671875000,-63.5,15.0,1.0,172.658125,12.84,3.28070425,33.07
2021-06-30 18:37:04.679687500,-63.75,15.0,1.0,172.6603125,12.809999999999999,3.280584125,33.07
2021-06-30 18:37:04.687500000,-64.0,15.0,1.0,172.6625,12.78,3.2804640000000003,33.07
2021-06-30 18:37:04.695312500,-64.0,15.0,1.0,172.6646875,12.825,3.2803438750000002,33.07
2021-06-30 18:37:04.703125000,-64.0,15.0,1.0,172.666875,12.87,3.28022375,33.07
2021-06-30 18:37:04.710937500,-64.0,15.0,1.0,172.6690625,12.975,3.280103625,33.07
2021-06-30 18:37:04.718750000,-64.0,15.0,1.0,172.67125,13.08,3.2799835,33.07
2021-06-30 18:37:04.726562500,-63.75,15.0,1.0,172.6734375,13.2,3.279863375,33.07
2021-06-30 18:37:04.734375000,-63.5,15.0,1.0,172.675625,13.32,3.27974325,33.07
2021-06-30 18:37:04.742187500,-63.25,15.0,1.0,172.6778125,13.41,3.279623125,33.07
2021-06-30 18:37:04.750000000,-63.0,15.0,1.0,172.68,13.5,3.279503,33.07
2021-06-30 18:37:04.757812500,-63.25,15.0,1.0,172.6821875,13.54,3.2795430312500002,33.07
2021-06-30 18:37:04.765625000,-63.5,15.0,1.0,172.684375,13.58,3.2795830625,33.07
2021-06-30 18:37:04.773437500,-63.75,15.0,1.0,172.6865625,13.594999999999999,3.27962309375,33.07
2021-06-30 18:37:04.781250000,-64.0,15.0,1.0,172.68875,13.61,3.279663125,33.07
2021-06-30 18:37:04.789062500,-64.0,15.0,1.0,172.6909375,13.629999999999999,3.27970315625,33.07
2021-06-30 18:37:04.796875000,-64.0,15.0,1.0,172.693125,13.65,3.2797431875000003,33.07
2021-06-30 18:37:04.804687500,-64.0,15.0,1.0,172.6953125,13.690000000000001,3.27978321875,33.07
2021-06-30 18:37:04.812500000,-64.0,15.0,1.0,172.6975,13.73,3.27982325,33.07
2021-06-30 18:37:04.820312500,-63.75,15.0,1.0,172.6996875,13.785,3.27986328125,33.07
2021-06-30 18:37:04.828125000,-63.5,15.0,1.0,172.701875,13.84,3.2799033125,33.07
2021-06-30 18:37:04.835937500,-63.25,15.0,1.0,172.7040625,13.865,3.2799433437500003,33.07
2021-06-30 18:37:04.843750000,-63.0,15.0,1.0,172.70625,13.89,3.279983375,33.07
2021-06-30 18:37:04.851562500,-63.25,15.0,1.0,172.7084375,13.855,3.28002340625,33.07
2021-06-30 18:37:04.859375000,-63.5,15.0,1.0,172.710625,13.82,3.2800634375,33.07
2021-06-30 18:37:04.867187500,-63.75,15.0,1.0,172.7128125,13.705,3.28010346875,33.07
2021-06-30 18:37:04.875000000,-64.0,15.0,1.0,172.715,13.59,3.2801435000000003,33.07
2021-06-30 18:37:04.882812500,-64.0,15.0,1.0,172.7171875,13.434999999999999,3.28018353125,33.07
2021-06-30 18:37:04.890625000,-64.0,15.0,1.0,172.719375,13.28,3.2802235625000002,33.07
2021-06-30 18:37:04.898437500,-64.0,15.0,1.0,172.7215625,13.11,3.28026359375,33.07
2021-06-30 18:37:04.906250000,-64.0,15.0,1.0,172.72375,12.94,3.280303625,33.07
2021-06-30 18:37:04.914062500,-64.0,15.0,1.0,172.7259375,12.785,3.28034365625,33.07
2021-06-30 18:37:04.921875000,-64.0,15.0,1.0,172.728125,12.63,3.2803836875,33.07
2021-06-30 18:37:04.929687500,-64.0,15.0,1.0,172.7303125,12.485,3.2804237187500003,33.07
2021-06-30 18:37:04.937500000,-64.0,15.0,1.0,172.7325,12.34,3.28046375,33.07
2021-06-30 18:37:04.945312500,-64.0,15.0,1.0,172.7346875,12.18,3.28050378125,33.07
2021-06-30 18:37:04.953125000,-64.0,15.0,1.0,172.736875,12.02,3.2805438125,33.07
2021-06-30 18:37:04.960937500,-64.0,15.0,1.0,172.7390625,11.82,3.28058384375,33.07
2021-06-30 18:37:04.968750000,-64.0,15.0,1.0,172.74125,11.62,3.2806238750000003,33.07
2021-06-30 18:37:04.976562500,-64.0,15.0,1.0,172.7434375,11.36,3.28066390625,33.07
2021-06-30 18:37:04.984375000,-64.0,15.0,1.0,172.745625,11.1,3.2807039375000002,33.07
2021-06-30 18:37:04.992187500,-64.0,15.0,1.0,172.7478125,10.795,3.28074396875,33.07
2021-06-30 18:37:05.000000000,-64.0,15.0,1.0,172.75,10.49,3.280784,33.07
2021-06-30 18:37:05.007812500,-63.75,15.0,1.25,172.752890625,10.14,3.2808240312500003,33.07
2021-06-30 18:37:05.015625000,-63.5,15.0,1.5,172.75578125,9.79,3.2808640625,33.07
2021-06-30 18:37:05.023437500,-63.25,15.0,1.75,172.758671875,9.385,3.2809040937500002,33.07
2021-06-30 18:37:05.031250000,-63.0,15.0,2.0,172.7615625,8.98,3.280944125,33.07
2021-06-30 18:37:05.039062500,-63.0,15.0,1.75,172.764453125,8.495000000000001,3.28098415625,33.07
2021-06-30 18:37:05.046875000,-63.0,15.0,1.5,172.76734375,8.01,3.2810241875,33.07
2021-06-30 18:37:05.054687500,-63.0,15.0,1.25,172.770234375,7.425,3.28106421875,33.07
2021-06-30 18:37:05.062500000,-63.0,15.0,1.0,172.773125,6.84,3.2811042500000003,33.07
2021-06-30 18:37:05.070312500,-63.25,15.0,1.0,172.776015625,6.18,3.28114428125,33.07
2021-06-30 18:37:05.078125000,-63.5,15.0,1.0,172.77890625,5.52,3.2811843125,33.07
2021-06-30 18:37:05.085937500,-63.75,15.0,1.0,172.781796875,4.845,3.28122434375,33.07
2021-06-30 18:37:05.093750000,-64.0,15.0,1.0,172.7846875,4.17,3.281264375,33.07
2021-06-30 18:37:05.101562500,-64.0,15.0,1.0,172.787578125,3.56,3.28130440625,33.07
2021-06-30 18:37:05.109375000,-64.0,15.0,1.0,172.79046875,2.95,3.2813444375,33.07
2021-06-30 18:37:05.117187500,-64.0,15.0,1.0,172.793359375,2.46,3.28138446875,33.07
2021-06-30 18:37:05.125000000,-64.0,15.0,1.0,172.79625,1.97,3.2814245,33.07
2021-06-30 18:37:05.132812500,-64.0,15.0,1.0,172.799140625,1.5899999999999999,3.28146453125,33.07
2021-06-30 18:37:05.140625000,-64.0,15.0,1.0,172.80203125,1.21,3.2815045625,33.07
2021-06-30 18:37:05.148437500,-64.0,15.0,1.0,172.804921875,0.8899999999999999,3.28154459375,33.07
2021-06-30 18:37:05.156250000,-64.0,15.0,1.0,172.8078125,0.57,3.281584625,33.07
2021-06-30 18:37:05.164062500,-64.0,15.0,1.0,172.810703125,0.22999999999999998,3.28162465625,33.07
2021-06-30 18:37:05.171875000,-64.0,15.0,1.0,172.81359375,-0.11,3.2816646874999997,33.07
