TimeStamp,empatica.acc.x,empatica.acc.y,empatica.acc.z,empatica.hr,empatica.bvp,empatica.eda,empatica.temp
2021-07-06 13:19:16.101562500,5.0,45.0,45.0,65.25984375,-1.005,6.18561059375,33.381875
2021-07-06 13:19:16.109375000,5.0,45.0,45.0,65.2590625,2.48,6.1855705625,33.38125
2021-07-06 13:19:16.117187500,5.0,45.0,45.0,65.25828125,5.494999999999999,6.1855305312499995,33.380625
2021-07-06 13:19:16.125000000,5.0,45.0,45.0,65.2575,8.51,6.1854905,33.379999999999995
2021-07-06 13:19:16.132812500,5.0,45.0,44.75,65.25671874999999,11.115,6.18545046875,33.379374999999996
2021-07-06 13:19:16.140625000,5.0,45.0,44.5,65.2559375,13.72,6.1854104375,33.37875
2021-07-06 13:19:16.148437500,5.0,45.0,44.25,65.25515625,15.95,6.18537040625,33.378125
2021-07-06 13:19:16.156250000,5.0,45.0,44.0,65.254375,18.18,6.1853303749999995,33.3775
2021-07-06 13:19:16.164062500,5.0,45.0,44.25,65.25359375,20.035,6.18529034375,33.376875
2021-07-06 13:19:16.171875000,5.0,45.0,44.5,65.25281249999999,21.89,6.1852503125,33.37625
2021-07-06 13:19:16.179687500,5.0,45.0,44.75,65.25203125,23.395,6.18521028125,33.375625
2021-07-06 13:19:16.187500000,5.0,45.0,45.0,65.25125,24.9,6.18517025,33.375
2021-07-06 13:19:16.195312500,5.0,45.0,45.0,65.25046875,26.125,6.1851302187499995,33.374375
2021-07-06 13:19:16.203125000,5.0,45.0,45.0,65.2496875,27.35,6.1850901875,33.37375
2021-07-06 13:19:16.210937500,5.0,45.0,45.0,65.24890624999999,28.365000000000002,6.18505015625,33.373124999999995
2021-07-06 13:19:16.218750000,5.0,45.0,45.0,65.248125,29.38,6.185010125,33.372499999999995
2021-07-06 13:19:16.226562500,5.0,45.0,45.0,65.24734375,30.255,6.18497009375,33.371874999999996
2021-07-06 13:19:16.234375000,5.0,45.0,45.0,65.2465625,31.13,6.1849300625,33.371249999999996
2021-07-06 13:19:16.242187500,5.0,45.0,45.0,65.24578125,31.884999999999998,6.18489003125,33.370625
2021-07-06 13:19:16.250000000,5.0,45.0,45.0,65.245,32.64,6.18485,33.37
2021-07-06 13:19:16.257812500,5.0,45.0,45.0,65.24421875,33.269999999999996,6.184689875,33.37
2021-07-06 13:19:16.265625000,5.0,45.0,45.0,65.2434375,33.9,6.18452975,33.37
2021-07-06 13:19:16.273437500,5.0,45.0,45.0,65.24265625,34.39,6.1843696249999995,33.37
2021-07-06 13:19:16.281250000,5.0,45.0,45.0,65.241875,34.88,6.1842095,33.37
2021-07-06 13:19:16.289062500,5.0,45.0,44.75,65.24109375,35.245000000000005,6.184049375,33.37
2021-07-06 13:19:16.296875000,5.0,45.0,44.5,65.2403125,35.61,6.18388925,33.37
2021-07-06 13:19:16.304687500,5.0,45.0,44.25,65.23953125,35.94,6.183729125,33.37
2021-07-06 13:19:16.312500000,5.0,45.0,44.0,65.23875,36.27,6.183569,33.37
2021-07-06 13:19:16.320312500,5.0,45.0,44.25,65.23796875,36.655,6.183408875,33.37
2021-07-06 13:19:16.328125000,5.0,45.0,44.5,65.2371875,37.04,6.18324875,33.37
2021-07-06 13:19:16.335937500,5.0,45.0,44.75,65.23640625,37.56,6.183088625,33.37
2021-07-06 13:19:16.343750000,5.0,45.0,45.0,65.235625,38.08,6.1829285,33.37
2021-07-06 13:19:16.351562500,5.0,45.0,45.0,65.23484375,38.724999999999994,6.182768375,33.37
2021-07-06 13:19:16.359375000,5.0,45.0,45.0,65.2340625,39.37,6.1826082499999995,33.37
2021-07-06 13:19:16.367187500,5.0,45.0,45.0,65.23328125,40.015,6.182448125,33.37
2021-07-06 13:19:16.375000000,5.0,45.0,45.0,65.2325,40.66,6.182288,33.37
2021-07-06 13:19:16.382812500,5.0,45.0,45.0,65.23171875,41.11,6.182127875,33.37
2021-07-06 13:19:16.390625000,5.0,45.0,45.0,65.2309375,41.56,6.18196775,33.37
2021-07-06 13:19:16.398437500,5.0,45.0,45.0,65.23015625,41.615,6.181807624999999,33.37
2021-07-06 13:19:16.406250000,5.0,45.0,45.0,65.229375,41.67,6.1816474999999995,33.37
2021-07-06 13:19:16.414062500,5.0,45.0,45.0,65.22859375,41.230000000000004,6.181487375,33.37
2021-07-06 13:19:16.421875000,5.0,45.0,45.0,65.2278125,40.79,6.18132725,33.37
2021-07-06 13:19:16.429687500,5.0,45.0,45.0,65.22703125,39.864999999999995,6.181167125,33.37
2021-07-06 13:19:16.437500000,5.0,45.0,45.0,65.22625,38.94,6.181006999999999,33.37
2021-07-06 13:19:16.445312500,5.0,45.0,45.0,65.22546875,37.655,6.180846874999999,33.37
2021-07-06 13:19:16.453125000,5.0,45.0,45.0,65.2246875,36.37,6.18068675,33.37
2021-07-06 13:19:16.460937500,5.0,45.0,45.0,65.22390625,34.894999999999996,6.180526625,33.37
2021-07-06 13:19:16.468750000,5.0,45.0,45.0,65.223125,33.42,6.1803665,33.37
2021-07-06 13:19:16.476562500,5.0,45.0,45.0,65.22234375,31.945,6.180206375,33.37
2021-07-06 13:19:16.484375000,5.0,45.0,45.0,65.2215625,30.47,6.180046249999999,33.37
2021-07-06 13:19:16.492187500,5.0,45.0,45.0,65.22078125,29.13,6.1798861249999995,33.37
2021-07-06 13:19:16.500000000,5.0,45.0,45.0,65.22,27.79,6.179726,33.37
2021-07-06 13:19:16.507812500,5.0,45.0,44.75,65.21921875,26.67,6.1793256874999996,33.37
2021-07-06 13:19:16.515625000,5.0,45.0,44.5,65.2184375,25.55,6.1789253749999995,33.37
2021-07-06 13:19:16.523437500,5.0,45.0,44.25,65.21765625,24.67,6.178525062499999,33.37
2021-07-06 13:19:16.531250000,5.0,45.0,44.0,65.216875,23.79,6.178124749999999,33.37
2021-07-06 13:19:16.539062500,5.0,45.0,44.25,65.21609375,23.115000000000002,6.177724437499999,33.37
2021-07-06 13:19:16.546875000,5.0,45.0,44.5,65.2153125,22.44,6.177324124999999,33.37
2021-07-06 13:19:16.554687500,5.0,45.0,44.75,65.21453125,21.855,6.176923812499999,33.37
2021-07-06 13:19:16.562500000,5.0,45.0,45.0,65.21375,21.27,6.1765235,33.37
2021-07-06 13:19:16.570312500,5.0,45.0,44.75,65.21296875,20.625,6.1761231875,33.37
2021-07-06 13:19:16.578125000,5.0,45.0,44.5,65.2121875,19.98,6.175722875,33.37
2021-07-06 13:19:16.585937500,5.0,45.0,44.25,65.21140625,19.130000000000003,6.1753225625,33.37
2021-07-06 13:19:16.593750000,5.0,45.0,44.0,65.210625,18.28,6.17492225,33.37
2021-07-06 13:19:16.601562500,5.0,45.0,44.0,65.20984375,17.135,6.1745219375,33.37
2021-07-06 13:19:16.609375000,5.0,45.0,44.0,65.2090625,15.99,6.174121625,33.37
2021-07-06 13:19:16.617187500,5.0,45.0,44.0,65.20828125,14.56,6.1737213125,33.37
2021-07-06 13:19:16.625000000,5.0,45.0,44.0,65.2075,13.13,6.173321,33.37
2021-07-06 13:19:16.632812500,5.0,45.0,44.25,65.20671875,11.515,6.1729206875,33.37
2021-07-06 13:19:16.640625000,5.0,45.0,44.5,65.2059375,9.9,6.1725203749999995,33.37
2021-07-06 13:19:16.648437500,5.0,45.0,44.75,65.20515625,8.255,6.1721200624999994,33.37
2021-07-06 13:19:16.656250000,5.0,45.0,45.0,65.204375,6.61,6.171719749999999,33.37
2021-07-06 13:19:16.664062500,5.0,45.0,45.0,65.20359375,5.065,6.171319437499999,33.37
2021-07-06 13:19:16.671875000,5.0,45.0,45.0,65.2028125,3.52,6.170919124999999,33.37
2021-07-06 13:19:16.679687500,5.0,45.0,45.0,65.20203125,2.105,6.170518812499999,33.37
2021-07-06 13:19:16.687500000,5.0,45.0,45.0,65.20125,0.69,6.170118499999999,33.37
2021-07-06 13:19:16.695312500,5.0,45.0,45.0,65.20046875,-0.665,6.1697181875,33.37
2021-07-06 13:19:16.703125000,5.0,45.0,45.0,65.1996875,-2.02,6.169317875,33.37
2021-07-06 13:19:16.710937500,5.0,45.0,45.0,65.19890625,-3.45,6.1689175625,33.37
2021-07-06 13:19:16.718750000,5.0,45.0,45.0,65.198125,-4.88,6.16851725,33.37
2021-07-06 13:19:16.726562500,5.0,45.0,45.0,65.19734375,-6.525,6.1681169375,33.37
2021-07-06 13:19:16.734375000,5.0,45.0,45.0,65.1965625,-8.17,6.167716625,33.37
2021-07-06 13:19:16.742187500,5.0,45.0,45.0,65.19578125,-10.1,6.1673163125,33.37
2021-07-06 13:19:16.750000000,5.0,45.0,45.0,65.195,-12.03,6.166916,33.37
2021-07-06 13:19:16.757812500,5.0,45.0,45.0,65.19421875,-14.21,6.1671561875,33.37
2021-07-06 13:19:16.765625000,5.0,45.0,45.0,65.1934375,-16.39,6.167396375,33.37
2021-07-06 13:19:16.773437500,5.0,45.0,45.0,65.19265625,-18.689999999999998,6.167636562499999,33.37
2021-07-06 13:19:16.781250000,5.0,45.0,45.0,65.191875,-20.99,6.16787675,33.37
2021-07-06 13:19:16.789062500,5.0,45.0,45.0,65.19109375000001,-23.244999999999997,6.1681169375,33.37
2021-07-06 13:19:16.796875000,5.0,45.0,45.0,65.1903125,-25.5,6.168357125,33.37
2021-07-06 13:19:16.804687500,5.0,45.0,45.0,65.18953125,-27.575,6.168597312499999,33.37
2021-07-06 13:19:16.812500000,5.0,45.0,45.0,65.18875,-29.65,6.1688374999999995,33.37
2021-07-06 13:19:16.820312500,5.0,45.25,45.0,65.18796875,-31.495,6.1690776875,33.37
2021-07-06 13:19:16.828125000,5.0,45.5,45.0,65.18718750000001,-33.34,6.169317875,33.37
2021-07-06 13:19:16.835937500,5.0,45.75,45.0,65.18640625,-35.0,6.1695580625,33.37
2021-07-06 13:19:16.843750000,5.0,46.0,45.0,65.185625,-36.66,6.1697982499999995,33.37
2021-07-06 13:19:16.851562500,5.0,45.75,45.0,65.18484375,-38.295,6.1700384375,33.37
2021-07-06 13:19:16.859375000,5.0,45.5,45.0,65.1840625,-39.93,6.170278625,33.37
2021-07-06 13:19:16.867187500,5.0,45.25,45.0,65.18328125000001,-41.754999999999995,6.1705188125,33.37
2021-07-06 13:19:16.875000000,5.0,45.0,45.0,65.1825,-43.58,6.170759,33.37
2021-07-06 13:19:16.882812500,5.0,45.0,45.0,65.18171875,-45.805,6.1709991875,33.37
2021-07-06 13:19:16.890625000,5.0,45.0,45.0,65.1809375,-48.03,6.171239375,33.37
2021-07-06 13:19:16.898437500,5.0,45.0,45.0,65.18015625,-50.81,6.1714795625,33.37
2021-07-06 13:19:16.906250000,5.0,45.0,45.0,65.17937500000001,-53.59,6.17171975,33.37
2021-07-06 13:19:16.914062500,5.0,45.0,45.0,65.17859375,-56.93000000000001,6.1719599375,33.37
2021-07-06 13:19:16.921875000,5.0,45.0,45.0,65.1778125,-60.27,6.172200125,33.37
2021-07-06 13:19:16.929687500,5.0,45.0,45.0,65.17703125,-63.97,6.1724403125,33.37
2021-07-06 13:19:16.937500000,5.0,45.0,45.0,65.17625,-67.67,6.1726805,33.37
2021-07-06 13:19:16.945312500,5.0,45.0,45.0,65.17546875000001,-71.31,6.1729206875000004,33.37
2021-07-06 13:19:16.953125000,5.0,45.0,45.0,65.1746875,-74.95,6.173160875,33.37
2021-07-06 13:19:16.960937500,5.0,45.0,45.0,65.17390625,-77.91499999999999,6.1734010625,33.37
2021-07-06 13:19:16.968750000,5.0,45.0,45.0,65.173125,-80.88,6.17364125,33.37
2021-07-06 13:19:16.976562500,5.0,45.0,45.0,65.17234375,-82.505,6.1738814375,33.37
2021-07-06 13:19:16.984375000,5.0,45.0,45.0,65.17156250000001,-84.13,6.174121625,33.37
2021-07-06 13:19:16.992187500,5.0,45.0,45.0,65.17078125,-83.9,6.1743618125,33.37
2021-07-06 13:19:17.000000000,5.0,45.0,45.0,65.17,-83.67,6.174602,33.37
2021-07-06 13:19:17.007812500,5.0,45.0,45.0,65.16921875,-81.39500000000001,6.17432178125,33.3690625
2021-07-06 13:19:17.015625000,5.0,45.0,45.0,65.1684375,-79.12,6.1740415625,33.368125
2021-07-06 13:19:17.023437500,5.0,45.0,45.0,65.16765625000001,-75.01,6.17376134375,33.3671875
2021-07-06 13:19:17.031250000,5.0,45.0,45.0,65.166875,-70.9,6.173481125,33.36625
2021-07-06 13:19:17.039062500,5.0,45.0,45.0,65.16609375,-65.51,6.17320090625,33.3653125
2021-07-06 13:19:17.046875000,5.0,45.0,45.0,65.1653125,-60.12,6.1729206875000004,33.364374999999995
2021-07-06 13:19:17.054687500,5.0,45.0,45.0,65.16453125,-54.144999999999996,6.17264046875,33.363437499999996
2021-07-06 13:19:17.062500000,5.0,45.0,45.0,65.16375000000001,-48.17,6.1723602500000005,33.3625
2021-07-06 13:19:17.070312500,5.0,45.0,45.0,65.16296875,-42.25,6.17208003125,33.3615625
2021-07-06 13:19:17.078125000,5.0,45.0,45.0,65.1621875,-36.33,6.1717998125,33.360625
2021-07-06 13:19:17.085937500,5.0,45.0,45.0,65.16140625,-30.85,6.17151959375,33.3596875
2021-07-06 13:19:17.093750000,5.0,45.0,45.0,65.160625,-25.37,6.171239375,33.35875
2021-07-06 13:19:17.101562500,5.0,45.0,44.75,65.15984375000001,-20.47,6.17095915625,33.3578125
2021-07-06 13:19:17.109375000,5.0,45.0,44.5,65.1590625,-15.57,6.1706789375,33.356875
2021-07-06 13:19:17.117187500,5.0,45.0,44.25,65.15828125,-11.22,6.1703987187500005,33.3559375
2021-07-06 13:19:17.125000000,5.0,45.0,44.0,65.1575,-6.87,6.1701185,33.355000000000004
2021-07-06 13:19:17.132812500,5.0,45.0,44.25,65.15671875,-2.995,6.16983828125,33.3540625
2021-07-06 13:19:17.140625000,5.0,45.0,44.5,65.15593750000001,0.88,6.1695580625,33.353125
2021-07-06 13:19:17.148437500,5.0,45.0,44.75,65.15515625,4.3,6.16927784375,33.3521875
2021-07-06 13:19:17.156250000,5.0,45.0,45.0,65.154375,7.72,6.168997625,33.35125
2021-07-06 13:19:17.164062500,5.0,45.0,45.0,65.15359375,10.64,6.16871740625,33.3503125
2021-07-06 13:19:17.171875000,5.0,45.0,45.0,65.1528125,13.56,6.1684371875,33.349375
2021-07-06 13:19:17.179687500,5.0,45.0,45.0,65.15203125,15.945,6.16815696875,33.3484375
2021-07-06 13:19:17.187500000,5.0,45.0,45.0,65.15125,18.33,6.16787675,33.347500000000004
2021-07-06 13:19:17.195312500,5.0,45.0,45.0,65.15046875,20.189999999999998,6.16759653125,33.346562500000005
2021-07-06 13:19:17.203125000,5.0,45.0,45.0,65.1496875,22.05,6.1673163125,33.345625000000005
2021-07-06 13:19:17.210937500,5.0,45.0,45.0,65.14890625,23.475,6.16703609375,33.3446875
2021-07-06 13:19:17.218750000,5.0,45.0,45.0,65.148125,24.9,6.166755875,33.34375
2021-07-06 13:19:17.226562500,5.0,45.0,45.0,65.14734375,26.015,6.16647565625,33.3428125
2021-07-06 13:19:17.234375000,5.0,45.0,45.0,65.1465625,27.13,6.1661954375,33.341875
2021-07-06 13:19:17.242187500,5.0,45.0,45.0,65.14578125,28.06,6.16591521875,33.3409375
2021-07-06 13:19:17.250000000,5.0,45.0,45.0,65.145,28.99,6.165635,33.34
2021-07-06 13:19:17.257812500,5.0,45.0,45.0,65.14421875,29.805,6.1657150625,33.34
2021-07-06 13:19:17.265625000,5.0,45.0,45.0,65.1434375,30.62,6.165795125,33.34
2021-07-06 13:19:17.273437500,5.0,45.0,45.0,65.14265625,31.36,6.1658751875,33.34
2021-07-06 13:19:17.281250000,5.0,45.0,45.0,65.141875,32.1,6.16595525,33.34
2021-07-06 13:19:17.289062500,5.0,45.0,45.0,65.14109375,32.754999999999995,6.1660353125,33.34
2021-07-06 13:19:17.296875000,5.0,45.0,45.0,65.1403125,33.41,6.166115375,33.34
2021-07-06 13:19:17.304687500,5.0,45.0,45.0,65.13953125,33.985,6.1661954375,33.34
2021-07-06 13:19:17.312500000,5.0,45.0,45.0,65.13875,34.56,6.1662755,33.34
2021-07-06 13:19:17.320312500,5.0,45.0,45.0,65.13796875,35.06,6.1663555625,33.34
2021-07-06 13:19:17.328125000,5.0,45.0,45.0,65.1371875,35.56,6.166435625,33.34
2021-07-06 13:19:17.335937500,5.0,45.0,45.0,65.13640625,36.03,6.1665156875000005,33.34
2021-07-06 13:19:17.343750000,5.0,45.0,45.0,65.135625,36.5,6.16659575,33.34
2021-07-06 13:19:17.351562500,5.0,45.0,45.0,65.13484375,36.975,6.1666758125,33.34
2021-07-06 13:19:17.359375000,5.0,45.0,45.0,65.1340625,37.45,6.166755875,33.34
2021-07-06 13:19:17.367187500,5.0,45.0,45.0,65.13328125,37.97,6.1668359375,33.34
2021-07-06 13:19:17.375000000,5.0,45.0,45.0,65.1325,38.49,6.1669160000000005,33.34
2021-07-06 13:19:17.382812500,5.0,45.0,45.0,65.13171875,39.065,6.1669960625,33.34
2021-07-06 13:19:17.390625000,5.0,45.0,45.0,65.1309375,39.64,6.167076125,33.34
2021-07-06 13:19:17.398437500,5.0,45.0,45.0,65.13015625,40.235,6.1671561875,33.34
2021-07-06 13:19:17.406250000,5.0,45.0,45.0,65.129375,40.83,6.16723625,33.34
2021-07-06 13:19:17.414062500,4.75,45.0,45.0,65.12859375,41.355000000000004,6.1673163125,33.34
2021-07-06 13:19:17.421875000,4.5,45.0,45.0,65.1278125,41.88,6.167396375,33.34
2021-07-06 13:19:17.429687500,4.25,45.0,45.0,65.12703125,42.19,6.1674764375,33.34
2021-07-06 13:19:17.437500000,4.0,45.0,45.0,65.12625,42.5,6.1675565,33.34
2021-07-06 13:19:17.445312500,4.0,45.0,45.0,65.12546875,42.445,6.1676365625,33.34
2021-07-06 13:19:17.453125000,4.0,45.0,45.0,65.1246875,42.39,6.167716625,33.34
2021-07-06 13:19:17.460937500,4.0,45.0,45.0,65.12390625,41.85,6.1677966875,33.34
2021-07-06 13:19:17.468750000,4.0,45.0,45.0,65.123125,41.31,6.1678767500000005,33.34
2021-07-06 13:19:17.476562500,4.0,45.0,44.75,65.12234375,40.285,6.1679568125,33.34
2021-07-06 13:19:17.484375000,4.0,45.0,44.5,65.1215625,39.26,6.168036875,33.34
2021-07-06 13:19:17.492187500,4.0,45.0,44.25,65.12078125,37.86,6.1681169375,33.34
2021-07-06 13:19:17.500000000,4.0,45.0,44.0,65.12,36.46,6.168197,33.34
2021-07-06 13:19:17.507812500,4.0,45.0,44.25,65.11921875,34.905,6.16791678125,33.34
2021-07-06 13:19:17.515625000,4.0,45.0,44.5,65.1184375,33.35,6.1676365625,33.34
2021-07-06 13:19:17.523437500,4.0,45.0,44.75,65.11765625,31.855,6.16735634375,33.34
2021-07-06 13:19:17.531250000,4.0,45.0,45.0,65.116875,30.36,6.167076125,33.34
2021-07-06 13:19:17.539062500,4.0,45.0,45.0,65.11609374999999,29.045,6.16679590625,33.34
2021-07-06 13:19:17.546875000,4.0,45.0,45.0,65.1153125,27.73,6.1665156875000005,33.34
2021-07-06 13:19:17.554687500,4.0,45.0,45.0,65.11453125,26.6,6.16623546875,33.34
2021-07-06 13:19:17.562500000,4.0,45.0,45.0,65.11375,25.47,6.16595525,33.34
2021-07-06 13:19:17.570312500,4.25,45.0,45.0,65.11296875,24.4,6.16567503125,33.34
2021-07-06 13:19:17.578125000,4.5,45.0,45.0,65.11218749999999,23.33,6.1653948125,33.34
2021-07-06 13:19:17.585937500,4.75,45.0,45.0,65.11140625,22.195,6.16511459375,33.34
2021-07-06 13:19:17.593750000,5.0,45.0,45.0,65.110625,21.06,6.164834375,33.34
2021-07-06 13:19:17.601562500,4.75,45.0,44.75,65.10984375,19.78,6.16455415625,33.34
2021-07-06 13:19:17.609375000,4.5,45.0,44.5,65.1090625,18.5,6.1642739375,33.34
2021-07-06 13:19:17.617187500,4.25,45.0,44.25,65.10828124999999,17.11,6.1639937187500005,33.34
2021-07-06 13:19:17.625000000,4.0,45.0,44.0,65.1075,15.72,6.1637135,33.34
2021-07-06 13:19:17.632812500,4.0,45.0,44.25,65.10671875,14.33,6.16343328125,33.34
2021-07-06 13:19:17.640625000,4.0,45.0,44.5,65.1059375,12.94,6.1631530625,33.34
2021-07-06 13:19:17.648437500,4.0,45.0,44.75,65.10515625,11.684999999999999,6.16287284375,33.34
2021-07-06 13:19:17.656250000,4.0,45.0,45.0,65.10437499999999,10.43,6.162592625,33.34
2021-07-06 13:19:17.664062500,4.0,45.0,44.75,65.10359375,9.365,6.16231240625,33.34
2021-07-06 13:19:17.671875000,4.0,45.0,44.5,65.1028125,8.3,6.1620321875,33.34
2021-07-06 13:19:17.679687500,4.0,45.0,44.25,65.10203125,7.380000000000001,6.16175196875,33.34
2021-07-06 13:19:17.687500000,4.0,45.0,44.0,65.10125,6.46,6.1614717500000005,33.34
2021-07-06 13:19:17.695312500,4.0,45.25,44.0,65.10046874999999,5.545,6.16119153125,33.34
2021-07-06 13:19:17.703125000,4.0,45.5,44.0,65.0996875,4.63,6.1609113125,33.34
2021-07-06 13:19:17.710937500,4.0,45.75,44.0,65.09890625,3.55,6.16063109375,33.34
2021-07-06 13:19:17.718750000,4.0,46.0,44.0,65.098125,2.47,6.160350875,33.34
2021-07-06 13:19:17.726562500,4.0,46.0,44.25,65.09734375,1.08,6.16007065625,33.34
2021-07-06 13:19:17.734375000,4.0,46.0,44.5,65.09656249999999,-0.31,6.1597904375,33.34
2021-07-06 13:19:17.742187500,4.0,46.0,44.75,65.09578125,-2.08,6.15951021875,33.34
2021-07-06 13:19:17.750000000,4.0,46.0,45.0,65.095,-3.85,6.15923,33.34
2021-07-06 13:19:17.757812500,4.0,45.75,45.0,65.09421875,-5.984999999999999,6.15910990625,33.34
2021-07-06 13:19:17.765625000,4.0,45.5,45.0,65.0934375,-8.12,6.1589898125,33.34
2021-07-06 13:19:17.773437500,4.0,45.25,45.0,65.09265624999999,-10.52,6.15886971875,33.34
2021-07-06 13:19:17.781250000,4.0,45.0,45.0,65.091875,-12.92,6.1587496250000004,33.34
2021-07-06 13:19:17.789062500,4.0,45.0,44.75,65.09109375,-15.405000000000001,6.15862953125,33.34
2021-07-06 13:19:17.796875000,4.0,45.0,44.5,65.0903125,-17.89,6.1585094375,33.34
2021-07-06 13:19:17.804687500,4.0,45.0,44.25,65.08953125,-20.275,6.15838934375,33.34
2021-07-06 13:19:17.812500000,4.0,45.0,44.0,65.08874999999999,-22.66,6.15826925,33.34
2021-07-06 13:19:17.820312500,4.0,45.25,44.0,65.08796875,-24.759999999999998,6.15814915625,33.34
2021-07-06 13:19:17.828125000,4.0,45.5,44.0,65.0871875,-26.86,6.1580290625,33.34
2021-07-06 13:19:17.835937500,4.0,45.75,44.0,65.08640625,-28.61,6.15790896875,33.34
2021-07-06 13:19:17.843750000,4.0,46.0,44.0,65.085625,-30.36,6.157788875,33.34
2021-07-06 13:19:17.851562500,4.0,45.75,44.0,65.08484374999999,-31.8,6.15766878125,33.34
2021-07-06 13:19:17.859375000,4.0,45.5,44.0,65.08406249999999,-33.24,6.1575486875,33.34
2021-07-06 13:19:17.867187500,4.0,45.25,44.0,65.08328125,-34.519999999999996,6.15742859375,33.34
2021-07-06 13:19:17.875000000,4.0,45.0,44.0,65.0825,-35.8,6.1573085,33.34
2021-07-06 13:19:17.882812500,4.0,45.0,44.25,65.08171875,-37.16,6.15718840625,33.34
2021-07-06 13:19:17.890625000,4.0,45.0,44.5,65.08093749999999,-38.52,6.1570683125,33.34
2021-07-06 13:19:17.898437500,4.0,45.0,44.75,65.08015624999999,-40.2,6.15694821875,33.34
2021-07-06 13:19:17.906250000,4.0,45.0,45.0,65.079375,-41.88,6.1568281250000005,33.34
2021-07-06 13:19:17.914062500,4.0,45.0,44.75,65.07859375,-44.07,6.15670803125,33.34
2021-07-06 13:19:17.921875000,4.0,45.0,44.5,65.0778125,-46.26,6.1565879375,33.34
2021-07-06 13:19:17.929687500,4.0,45.0,44.25,65.07703124999999,-49.015,6.15646784375,33.34
2021-07-06 13:19:17.937500000,4.0,45.0,44.0,65.07624999999999,-51.77,6.15634775,33.34
2021-07-06 13:19:17.945312500,4.0,45.0,44.25,65.07546875,-54.935,6.1562276562500005,33.34
2021-07-06 13:19:17.953125000,4.0,45.0,44.5,65.0746875,-58.1,6.1561075625,33.34
2021-07-06 13:19:17.960937500,4.0,45.0,44.75,65.07390625,-61.31,6.15598746875,33.34
2021-07-06 13:19:17.968750000,4.0,45.0,45.0,65.07312499999999,-64.52,6.155867375,33.34
2021-07-06 13:19:17.976562500,4.0,45.0,44.75,65.07234374999999,-67.215,6.15574728125,33.34
2021-07-06 13:19:17.984375000,4.0,45.0,44.5,65.0715625,-69.91,6.1556271875,33.34
2021-07-06 13:19:17.992187500,4.0,45.0,44.25,65.07078125,-71.50999999999999,6.15550709375,33.34
2021-07-06 13:19:18.000000000,4.0,45.0,44.0,65.07,-73.11,6.155387,33.34
2021-07-06 13:19:18.007812500,4.0,45.0,44.0,65.06929687499999,-73.13499999999999,6.1553069375,33.3409375
2021-07-06 13:19:18.015625000,4.0,45.0,44.0,65.06859374999999,-73.16,6.155226875,33.341875
2021-07-06 13:19:18.023437500,4.0,45.0,44.0,65.06789062499999,-71.44999999999999,6.1551468125,33.3428125
2021-07-06 13:19:18.031250000,4.0,45.0,44.0,65.06718749999999,-69.74,6.1550667500000005,33.34375
2021-07-06 13:19:18.039062500,4.0,45.0,44.0,65.06648437499999,-66.46,6.1549866875,33.3446875
2021-07-06 13:19:18.046875000,4.0,45.0,44.0,65.06578125,-63.18,6.154906625,33.345625000000005
2021-07-06 13:19:18.054687500,4.0,45.0,44.0,65.065078125,-58.785,6.1548265625,33.346562500000005
2021-07-06 13:19:18.062500000,4.0,45.0,44.0,65.064375,-54.39,6.1547465,33.347500000000004
2021-07-06 13:19:18.070312500,4.0,45.0,44.0,65.063671875,-49.43,6.1546664375,33.3484375
2021-07-06 13:19:18.078125000,4.0,45.0,44.0,65.06296875,-44.47,6.154586375,33.349375
2021-07-06 13:19:18.085937500,4.0,45.0,44.0,65.062265625,-39.425,6.1545063125,33.3503125
2021-07-06 13:19:18.093750000,4.0,45.0,44.0,65.0615625,-34.38,6.15442625,33.35125
2021-07-06 13:19:18.101562500,4.0,45.25,44.0,65.06085937499999,-29.580000000000002,6.1543461875,33.3521875
2021-07-06 13:19:18.109375000,4.0,45.5,44.0,65.06015624999999,-24.78,6.154266125,33.353125
2021-07-06 13:19:18.117187500,4.0,45.75,44.0,65.05945312499999,-20.4,6.1541860625,33.3540625
2021-07-06 13:19:18.125000000,4.0,46.0,44.0,65.05874999999999,-16.02,6.1541060000000005,33.355000000000004
2021-07-06 13:19:18.132812500,4.0,46.0,44.25,65.05804687499999,-12.14,6.1540259375,33.3559375
2021-07-06 13:19:18.140625000,4.0,46.0,44.5,65.05734375,-8.26,6.153945875,33.356875
2021-07-06 13:19:18.148437500,4.0,46.0,44.75,65.056640625,-4.92,6.1538658125,33.3578125
2021-07-06 13:19:18.156250000,4.0,46.0,45.0,65.0559375,-1.58,6.15378575,33.35875
2021-07-06 13:19:18.164062500,4.0,45.75,44.75,65.055234375,1.2349999999999999,6.1537056875000005,33.3596875
2021-07-06 13:19:18.171875000,4.0,45.5,44.5,65.05453125,4.05,6.153625625,33.360625
2021-07-06 13:19:18.179687500,4.0,45.25,44.25,65.053828125,6.395,6.1535455625,33.3615625
2021-07-06 13:19:18.187500000,4.0,45.0,44.0,65.053125,8.74,6.1534655,33.3625
2021-07-06 13:19:18.195312500,4.0,45.0,44.0,65.052421875,10.75,6.1533854375,33.363437499999996
2021-07-06 13:19:18.203125000,4.0,45.0,44.0,65.05171874999999,12.76,6.153305375,33.364374999999995
2021-07-06 13:19:18.210937500,4.0,45.0,44.0,65.05101562499999,14.565000000000001,6.1532253125,33.3653125
2021-07-06 13:19:18.218750000,4.0,45.0,44.0,65.05031249999999,16.37,6.15314525,33.36625
2021-07-06 13:19:18.226562500,4.0,45.0,44.0,65.04960937499999,18.07,6.1530651875,33.3671875
2021-07-06 13:19:18.234375000,4.0,45.0,44.0,65.04890625,19.77,6.152985125,33.368125
2021-07-06 13:19:18.242187500,4.0,45.0,44.0,65.048203125,21.365000000000002,6.1529050625,33.3690625
2021-07-06 13:19:18.250000000,4.0,45.0,44.0,65.0475,22.96,6.152825,33.37
2021-07-06 13:19:18.257812500,4.0,45.0,44.25,65.046796875,24.35,6.15278496875,33.37
2021-07-06 13:19:18.265625000,4.0,45.0,44.5,65.04609375,25.74,6.1527449375,33.37
2021-07-06 13:19:18.273437500,4.0,45.0,44.75,65.045390625,26.814999999999998,6.15270490625,33.37
2021-07-06 13:19:18.281250000,4.0,45.0,45.0,65.0446875,27.89,6.152664875,33.37
2021-07-06 13:19:18.289062500,4.0,45.0,44.75,65.043984375,28.58,6.15262484375,33.37
2021-07-06 13:19:18.296875000,4.0,45.0,44.5,65.04328124999999,29.27,6.1525848125,33.37
2021-07-06 13:19:18.304687500,4.0,45.0,44.25,65.04257812499999,29.59,6.1525447812500005,33.37
2021-07-06 13:19:18.312500000,4.0,45.0,44.0,65.04187499999999,29.91,6.15250475,33.37
2021-07-06 13:19:18.320312500,4.0,45.0,44.0,65.041171875,29.955,6.15246471875,33.37
2021-07-06 13:19:18.328125000,4.0,45.0,44.0,65.04046875,30.0,6.1524246875,33.37
2021-07-06 13:19:18.335937500,4.0,45.0,44.0,65.039765625,29.925,6.15238465625,33.37
2021-07-06 13:19:18.343750000,4.0,45.0,44.0,65.0390625,29.85,6.1523446250000005,33.37
2021-07-06 13:19:18.351562500,4.0,45.0,44.0,65.038359375,29.835,6.15230459375,33.37
2021-07-06 13:19:18.359375000,4.0,45.0,44.0,65.03765625,29.82,6.1522645625,33.37
2021-07-06 13:19:18.367187500,4.0,45.0,44.0,65.036953125,29.990000000000002,6.15222453125,33.37
2021-07-06 13:19:18.375000000,4.0,45.0,44.0,65.03625,30.16,6.152184500000001,33.37
2021-07-06 13:19:18.382812500,4.0,45.0,44.25,65.035546875,30.595,6.15214446875,33.37
2021-07-06 13:19:18.390625000,4.0,45.0,44.5,65.03484375,31.03,6.1521044375,33.37
2021-07-06 13:19:18.398437500,4.0,45.0,44.75,65.03414062499999,31.685000000000002,6.15206440625,33.37
2021-07-06 13:19:18.406250000,4.0,45.0,45.0,65.03343749999999,32.34,6.152024375,33.37
2021-07-06 13:19:18.414062500,4.0,45.0,45.0,65.032734375,33.08,6.151984343750001,33.37
2021-07-06 13:19:18.421875000,4.0,45.0,45.0,65.03203125,33.82,6.1519443125,33.37
2021-07-06 13:19:18.429687500,4.0,45.0,45.0,65.031328125,34.44,6.15190428125,33.37
2021-07-06 13:19:18.437500000,4.0,45.0,45.0,65.030625,35.06,6.15186425,33.37
2021-07-06 13:19:18.445312500,4.0,45.0,45.0,65.029921875,35.365,6.15182421875,33.37
2021-07-06 13:19:18.453125000,4.0,45.0,45.0,65.02921875,35.67,6.1517841875000006,33.37
2021-07-06 13:19:18.460937500,4.0,45.0,45.0,65.028515625,35.53,6.15174415625,33.37
2021-07-06 13:19:18.468750000,4.0,45.0,45.0,65.0278125,35.39,6.151704125,33.37
2021-07-06 13:19:18.476562500,4.0,45.0,45.0,65.027109375,34.81,6.15166409375,33.37
2021-07-06 13:19:18.484375000,4.0,45.0,45.0,65.02640625,34.23,6.151624062500001,33.37
2021-07-06 13:19:18.492187500,4.0,45.0,45.0,65.02570312499999,33.285,6.1515840312500005,33.37
2021-07-06 13:19:18.500000000,4.0,45.0,45.0,65.025,32.34,6.151544,33.37
2021-07-06 13:19:18.507812500,4.0,45.0,45.0,65.024296875,31.195,6.15166409375,33.37
2021-07-06 13:19:18.515625000,4.0,45.0,45.0,65.02359375,30.05,6.1517841875000006,33.37
2021-07-06 13:19:18.523437500,4.0,45.0,45.0,65.022890625,28.865000000000002,6.15190428125,33.37
2021-07-06 13:19:18.531250000,4.0,45.0,45.0,65.0221875,27.68,6.152024375,33.37
2021-07-06 13:19:18.539062500,4.0,45.0,45.0,65.021484375,26.59,6.15214446875,33.37
2021-07-06 13:19:18.546875000,4.0,45.0,45.0,65.02078125,25.5,6.1522645625,33.37
2021-07-06 13:19:18.554687500,4.0,45.0,45.0,65.020078125,24.575,6.152384656250001,33.37
2021-07-06 13:19:18.562500000,4.0,45.0,45.0,65.019375,23.65,6.15250475,33.37
2021-07-06 13:19:18.570312500,4.0,45.25,45.0,65.018671875,22.884999999999998,6.15262484375,33.37
2021-07-06 13:19:18.578125000,4.0,45.5,45.0,65.01796875,22.12,6.1527449375000005,33.37
2021-07-06 13:19:18.585937500,4.0,45.75,45.0,65.017265625,21.425,6.15286503125,33.37
2021-07-06 13:19:18.593750000,4.0,46.0,45.0,65.0165625,20.73,6.152985125000001,33.37
2021-07-06 13:19:18.601562500,4.0,45.75,45.0,65.015859375,19.925,6.15310521875,33.37
2021-07-06 13:19:18.609375000,4.0,45.5,45.0,65.01515625,19.12,6.1532253125,33.37
2021-07-06 13:19:18.617187500,4.0,45.25,45.0,65.014453125,18.065,6.153345406250001,33.37
2021-07-06 13:19:18.625000000,4.0,45.0,45.0,65.01375,17.01,6.1534655,33.37
2021-07-06 13:19:18.632812500,4.0,45.0,45.0,65.013046875,15.63,6.15358559375,33.37
2021-07-06 13:19:18.640625000,4.0,45.0,45.0,65.01234375,14.25,6.1537056875000005,33.37
2021-07-06 13:19:18.648437500,4.0,45.0,45.0,65.011640625,12.615,6.15382578125,33.37
2021-07-06 13:19:18.656250000,4.0,45.0,45.0,65.0109375,10.98,6.153945875,33.37
2021-07-06 13:19:18.664062500,4.0,45.0,44.75,65.010234375,9.285,6.15406596875,33.37
2021-07-06 13:19:18.671875000,4.0,45.0,44.5,65.00953125,7.59,6.1541860625,33.37
2021-07-06 13:19:18.679687500,4.0,45.0,44.25,65.008828125,6.045,6.1543061562500005,33.37
2021-07-06 13:19:18.687500000,4.0,45.0,44.0,65.008125,4.5,6.15442625,33.37
2021-07-06 13:19:18.695312500,4.0,45.0,44.0,65.007421875,3.25,6.15454634375,33.37
2021-07-06 13:19:18.703125000,4.0,45.0,44.0,65.00671875,2.0,6.1546664375,33.37
2021-07-06 13:19:18.710937500,4.0,45.0,44.0,65.006015625,1.02,6.15478653125,33.37
2021-07-06 13:19:18.718750000,4.0,45.0,44.0,65.0053125,0.04,6.154906625000001,33.37
2021-07-06 13:19:18.726562500,4.0,45.0,44.25,65.004609375,-0.85,6.15502671875,33.37
2021-07-06 13:19:18.734375000,4.0,45.0,44.5,65.00390625,-1.74,6.1551468125,33.37
2021-07-06 13:19:18.742187500,4.0,45.0,44.75,65.003203125,-2.755,6.1552669062500005,33.37
2021-07-06 13:19:18.750000000,4.0,45.0,45.0,65.0025,-3.77,6.155387,33.37
2021-07-06 13:19:18.757812500,4.0,45.0,45.0,65.001796875,-5.09,6.15510678125,33.37
2021-07-06 13:19:18.765625000,4.0,45.0,45.0,65.00109375,-6.41,6.1548265625,33.37
2021-07-06 13:19:18.773437500,4.0,45.0,45.0,65.00039062500001,-8.06,6.15454634375,33.37
2021-07-06 13:19:18.781250000,4.0,45.0,45.0,64.99968750000001,-9.71,6.154266125,33.37
2021-07-06 13:19:18.789062500,4.25,45.0,45.0,64.998984375,-11.585,6.15398590625,33.37
2021-07-06 13:19:18.796875000,4.5,45.0,45.0,64.99828125,-13.46,6.1537056875000005,33.37
2021-07-06 13:19:18.804687500,4.75,45.0,45.0,64.997578125,-15.405000000000001,6.15342546875,33.37
2021-07-06 13:19:18.812500000,5.0,45.0,45.0,64.996875,-17.35,6.15314525,33.37
2021-07-06 13:19:18.820312500,5.0,45.0,44.75,64.996171875,-19.225,6.15286503125,33.37
2021-07-06 13:19:18.828125000,5.0,45.0,44.5,64.99546875,-21.1,6.1525848125,33.37
2021-07-06 13:19:18.835937500,5.0,45.0,44.25,64.994765625,-22.835,6.15230459375,33.37
2021-07-06 13:19:18.843750000,5.0,45.0,44.0,64.9940625,-24.57,6.152024375,33.37
2021-07-06 13:19:18.851562500,4.75,45.0,44.0,64.993359375,-26.2,6.15174415625,33.37
2021-07-06 13:19:18.859375000,4.5,45.0,44.0,64.99265625,-27.83,6.1514639375,33.37
2021-07-06 13:19:18.867187500,4.25,45.0,44.0,64.99195312500001,-29.45,6.1511837187500005,33.37
2021-07-06 13:19:18.875000000,4.0,45.0,44.0,64.99125000000001,-31.07,6.1509035,33.37
2021-07-06 13:19:18.882812500,4.0,45.0,44.25,64.990546875,-32.815,6.15062328125,33.37
2021-07-06 13:19:18.890625000,4.0,45.0,44.5,64.98984375,-34.56,6.1503430625,33.37
2021-07-06 13:19:18.898437500,4.0,45.0,44.75,64.989140625,-36.575,6.15006284375,33.37
2021-07-06 13:19:18.906250000,4.0,45.0,45.0,64.9884375,-38.59,6.149782625,33.37
2021-07-06 13:19:18.914062500,4.25,45.0,45.0,64.987734375,-40.985,6.14950240625,33.37
2021-07-06 13:19:18.921875000,4.5,45.0,45.0,64.98703125,-43.38,6.1492221875,33.37
2021-07-06 13:19:18.929687500,4.75,45.0,45.0,64.986328125,-46.175,6.14894196875,33.37
2021-07-06 13:19:18.937500000,5.0,45.0,45.0,64.985625,-48.97,6.1486617500000005,33.37
2021-07-06 13:19:18.945312500,5.0,45.0,45.0,64.984921875,-52.045,6.14838153125,33.37
2021-07-06 13:19:18.953125000,5.0,45.0,45.0,64.98421875,-55.12,6.1481013125,33.37
2021-07-06 13:19:18.960937500,5.0,45.0,45.0,64.98351562500001,-58.15,6.14782109375,33.37
2021-07-06 13:19:18.968750000,5.0,45.0,45.0,64.98281250000001,-61.18,6.147540875,33.37
2021-07-06 13:19:18.976562500,5.0,45.0,44.75,64.98210937500001,-63.685,6.14726065625,33.37
2021-07-06 13:19:18.984375000,5.0,45.0,44.5,64.98140625,-66.19,6.1469804375,33.37
2021-07-06 13:19:18.992187500,5.0,45.0,44.25,64.980703125,-67.62,6.14670021875,33.37
2021-07-06 13:19:19.000000000,5.0,45.0,44.0,64.98,-69.05,6.14642,33.37
2021-07-06 13:19:19.007812500,5.0,45.0,44.25,64.97859375,-68.955,6.14637996875,33.3690625
2021-07-06 13:19:19.015625000,5.0,45.0,44.5,64.9771875,-68.86,6.1463399375,33.368125
2021-07-06 13:19:19.023437500,5.0,45.0,44.75,64.97578125,-67.065,6.14629990625,33.3671875
2021-07-06 13:19:19.031250000,5.0,45.0,45.0,64.97437500000001,-65.27,6.146259875,33.36625
2021-07-06 13:19:19.039062500,5.0,45.0,44.75,64.97296875,-61.964999999999996,6.14621984375,33.3653125
2021-07-06 13:19:19.046875000,5.0,45.0,44.5,64.9715625,-58.66,6.1461798125,33.364374999999995
2021-07-06 13:19:19.054687500,5.0,45.0,44.25,64.97015625,-54.305,6.1461397812500005,33.363437499999996
2021-07-06 13:19:19.062500000,5.0,45.0,44.0,64.96875,-49.95,6.14609975,33.3625
2021-07-06 13:19:19.070312500,5.0,45.0,44.0,64.96734375,-45.120000000000005,6.14605971875,33.3615625
2021-07-06 13:19:19.078125000,5.0,45.0,44.0,64.96593750000001,-40.29,6.1460196875,33.360625
2021-07-06 13:19:19.085937500,5.0,45.0,44.0,64.96453125000001,-35.51,6.14597965625,33.3596875
2021-07-06 13:19:19.093750000,5.0,45.0,44.0,64.963125,-30.73,6.1459396250000005,33.35875
2021-07-06 13:19:19.101562500,5.0,45.0,44.25,64.96171875,-26.310000000000002,6.14589959375,33.3578125
2021-07-06 13:19:19.109375000,5.0,45.0,44.5,64.9603125,-21.89,6.1458595625,33.356875
2021-07-06 13:19:19.117187500,5.0,45.0,44.75,64.95890625,-17.93,6.14581953125,33.3559375
2021-07-06 13:19:19.125000000,5.0,45.0,45.0,64.95750000000001,-13.97,6.1457795,33.355000000000004
2021-07-06 13:19:19.132812500,5.0,45.0,44.75,64.95609375000001,-10.46,6.14573946875,33.3540625
2021-07-06 13:19:19.140625000,5.0,45.0,44.5,64.9546875,-6.95,6.1456994375,33.353125
2021-07-06 13:19:19.148437500,5.0,45.0,44.25,64.95328125,-3.845,6.14565940625,33.3521875
2021-07-06 13:19:19.156250000,5.0,45.0,44.0,64.951875,-0.74,6.145619375,33.35125
2021-07-06 13:19:19.164062500,5.0,45.0,44.25,64.95046875,1.95,6.145579343750001,33.3503125
2021-07-06 13:19:19.171875000,5.0,45.0,44.5,64.9490625,4.64,6.1455393125,33.349375
2021-07-06 13:19:19.179687500,5.0,45.0,44.75,64.94765625000001,6.859999999999999,6.14549928125,33.3484375
2021-07-06 13:19:19.187500000,5.0,45.0,45.0,64.94625,9.08,6.14545925,33.347500000000004
2021-07-06 13:19:19.195312500,5.0,45.0,45.0,64.94484375,10.785,6.14541921875,33.346562500000005
2021-07-06 13:19:19.203125000,5.0,45.0,45.0,64.9434375,12.49,6.145379187500001,33.345625000000005
2021-07-06 13:19:19.210937500,5.0,45.0,45.0,64.94203125,13.71,6.14533915625,33.3446875
2021-07-06 13:19:19.218750000,5.0,45.0,45.0,64.940625,14.93,6.145299125,33.34375
2021-07-06 13:19:19.226562500,5.0,45.0,45.0,64.93921875000001,15.78,6.14525909375,33.3428125
2021-07-06 13:19:19.234375000,5.0,45.0,45.0,64.9378125,16.63,6.145219062500001,33.341875
2021-07-06 13:19:19.242187500,5.0,45.0,45.0,64.93640625,17.275,6.1451790312500005,33.3409375
2021-07-06 13:19:19.250000000,5.0,45.0,45.0,64.935,17.92,6.145139,33.34
2021-07-06 13:19:19.257812500,5.0,45.0,45.0,64.93359375,18.505000000000003,6.144698625,33.34
2021-07-06 13:19:19.265625000,5.0,45.0,45.0,64.9321875,19.09,6.14425825,33.34
2021-07-06 13:19:19.273437500,5.0,45.0,45.0,64.93078125,19.7,6.143817875,33.34
2021-07-06 13:19:19.281250000,5.0,45.0,45.0,64.92937500000001,20.31,6.143377500000001,33.34
2021-07-06 13:19:19.289062500,5.0,45.0,45.0,64.92796875,20.935,6.142937125,33.34
2021-07-06 13:19:19.296875000,5.0,45.0,45.0,64.9265625,21.56,6.14249675,33.34
2021-07-06 13:19:19.304687500,5.0,45.0,45.0,64.92515625,22.15,6.142056375,33.34
2021-07-06 13:19:19.312500000,5.0,45.0,45.0,64.92375,22.74,6.141616,33.34
2021-07-06 13:19:19.320312500,5.0,45.0,44.75,64.92234375,23.24,6.141175625,33.34
2021-07-06 13:19:19.328125000,5.0,45.0,44.5,64.92093750000001,23.74,6.1407352500000005,33.34
2021-07-06 13:19:19.335937500,5.0,45.0,44.25,64.91953125,24.145,6.140294875,33.34
2021-07-06 13:19:19.343750000,5.0,45.0,44.0,64.918125,24.55,6.1398545,33.34
2021-07-06 13:19:19.351562500,4.75,45.0,44.25,64.91671875,24.92,6.139414125,33.34
2021-07-06 13:19:19.359375000,4.5,45.0,44.5,64.9153125,25.29,6.13897375,33.34
2021-07-06 13:19:19.367187500,4.25,45.0,44.75,64.91390625,25.685,6.138533375,33.34
2021-07-06 13:19:19.375000000,4.0,45.0,45.0,64.9125,26.08,6.138093,33.34
2021-07-06 13:19:19.382812500,4.25,45.0,45.0,64.91109375,26.545,6.137652625,33.34
2021-07-06 13:19:19.390625000,4.5,45.0,45.0,64.9096875,27.01,6.13721225,33.34
2021-07-06 13:19:19.398437500,4.75,45.0,45.0,64.90828125,27.515,6.136771875,33.34
2021-07-06 13:19:19.406250000,5.0,45.0,45.0,64.906875,28.02,6.1363315,33.34
2021-07-06 13:19:19.414062500,5.0,45.0,44.75,64.90546875,28.465,6.135891125,33.34
2021-07-06 13:19:19.421875000,5.0,45.0,44.5,64.9040625,28.91,6.1354507499999995,33.34
2021-07-06 13:19:19.429687500,5.0,45.0,44.25,64.90265625,29.175,6.135010375,33.34
2021-07-06 13:19:19.437500000,5.0,45.0,44.0,64.90125,29.44,6.13457,33.34
2021-07-06 13:19:19.445312500,5.0,45.0,44.0,64.89984375,29.4,6.134129625,33.34
2021-07-06 13:19:19.453125000,5.0,45.0,44.0,64.8984375,29.36,6.13368925,33.34
2021-07-06 13:19:19.460937500,5.0,45.0,44.0,64.89703125,28.939999999999998,6.133248875,33.34
2021-07-06 13:19:19.468750000,5.0,45.0,44.0,64.895625,28.52,6.132808499999999,33.34
2021-07-06 13:19:19.476562500,5.0,45.0,44.25,64.89421875000001,27.695,6.132368125,33.34
2021-07-06 13:19:19.484375000,5.0,45.0,44.5,64.8928125,26.87,6.13192775,33.34
2021-07-06 13:19:19.492187500,5.0,45.0,44.75,64.89140625,25.675,6.131487375,33.34
2021-07-06 13:19:19.500000000,5.0,45.0,45.0,64.89,24.48,6.131047,33.34
2021-07-06 13:19:19.507812500,5.0,45.0,44.75,64.88859375,23.03,6.1312071249999995,33.34
2021-07-06 13:19:19.515625000,5.0,45.0,44.5,64.8871875,21.58,6.131367249999999,33.34
2021-07-06 13:19:19.523437500,5.0,45.0,44.25,64.88578125,20.034999999999997,6.131527375,33.34
2021-07-06 13:19:19.531250000,5.0,45.0,44.0,64.884375,18.49,6.1316875,33.34
2021-07-06 13:19:19.539062500,5.0,45.0,44.25,64.88296875,17.025,6.131847625,33.34
2021-07-06 13:19:19.546875000,5.0,45.0,44.5,64.8815625,15.56,6.13200775,33.34
2021-07-06 13:19:19.554687500,5.0,45.0,44.75,64.88015625,14.285,6.1321678749999995,33.34
2021-07-06 13:19:19.562500000,5.0,45.0,45.0,64.87875,13.01,6.132327999999999,33.34
2021-07-06 13:19:19.570312500,5.0,45.0,44.75,64.87734375,11.925,6.132488125,33.34
2021-07-06 13:19:19.578125000,5.0,45.0,44.5,64.8759375,10.84,6.13264825,33.34
2021-07-06 13:19:19.585937500,5.0,45.0,44.25,64.87453125,9.805,6.132808375,33.34
2021-07-06 13:19:19.593750000,5.0,45.0,44.0,64.873125,8.77,6.1329685,33.34
2021-07-06 13:19:19.601562500,5.0,45.0,44.25,64.87171875,7.6,6.1331286249999994,33.34
2021-07-06 13:19:19.609375000,5.0,45.0,44.5,64.8703125,6.43,6.13328875,33.34
2021-07-06 13:19:19.617187500,5.0,45.0,44.75,64.86890625,4.97,6.133448875,33.34
2021-07-06 13:19:19.625000000,5.0,45.0,45.0,64.8675,3.51,6.133609,33.34
2021-07-06 13:19:19.632812500,5.0,45.0,44.75,64.86609375,1.7249999999999999,6.133769125,33.34
2021-07-06 13:19:19.640625000,5.0,45.0,44.5,64.8646875,-0.06,6.1339292499999996,33.34
2021-07-06 13:19:19.648437500,5.0,45.0,44.25,64.86328125,-2.0650000000000004,6.134089375,33.34
2021-07-06 13:19:19.656250000,5.0,45.0,44.0,64.861875,-4.07,6.1342495,33.34
2021-07-06 13:19:19.664062500,5.0,45.0,44.0,64.86046875,-6.08,6.134409625,33.34
2021-07-06 13:19:19.671875000,5.0,45.0,44.0,64.8590625,-8.09,6.13456975,33.34
2021-07-06 13:19:19.679687500,5.0,45.0,44.0,64.85765625,-9.955,6.134729875,33.34
2021-07-06 13:19:19.687500000,5.0,45.0,44.0,64.85625,-11.82,6.13489,33.34
2021-07-06 13:19:19.695312500,5.0,45.0,44.25,64.85484375,-13.465,6.135050125,33.34
2021-07-06 13:19:19.703125000,5.0,45.0,44.5,64.8534375,-15.11,6.13521025,33.34
2021-07-06 13:19:19.710937500,5.0,45.0,44.75,64.85203125,-16.615000000000002,6.135370375,33.34
2021-07-06 13:19:19.718750000,5.0,45.0,45.0,64.850625,-18.12,6.1355305,33.34
2021-07-06 13:19:19.726562500,5.0,45.0,45.0,64.84921875,-19.645000000000003,6.135690625,33.34
2021-07-06 13:19:19.734375000,5.0,45.0,45.0,64.8478125,-21.17,6.13585075,33.34
2021-07-06 13:19:19.742187500,5.0,45.0,45.0,64.84640625,-22.915,6.136010875,33.34
2021-07-06 13:19:19.750000000,5.0,45.0,45.0,64.845,-24.66,6.136171,33.34
2021-07-06 13:19:19.757812500,5.0,45.0,45.0,64.84359375,-26.795,6.136131,33.34
2021-07-06 13:19:19.765625000,5.0,45.0,45.0,64.8421875,-28.93,6.136091,33.34
2021-07-06 13:19:19.773437500,5.0,45.0,45.0,64.84078124999999,-31.544999999999998,6.136051,33.34
2021-07-06 13:19:19.781250000,5.0,45.0,45.0,64.839375,-34.16,6.136011,33.34
2021-07-06 13:19:19.789062500,4.75,45.0,45.0,64.83796875,-37.25,6.135971,33.34
2021-07-06 13:19:19.796875000,4.5,45.0,45.0,64.8365625,-40.34,6.135931,33.34
2021-07-06 13:19:19.804687500,4.25,45.0,45.0,64.83515625,-43.735,6.135891,33.34
2021-07-06 13:19:19.812500000,4.0,45.0,45.0,64.83375,-47.13,6.135851,33.34
2021-07-06 13:19:19.820312500,4.25,45.0,45.0,64.83234374999999,-50.49,6.135811,33.34
2021-07-06 13:19:19.828125000,4.5,45.0,45.0,64.8309375,-53.85,6.135771,33.34
2021-07-06 13:19:19.835937500,4.75,45.0,45.0,64.82953125,-56.665,6.135731,33.34
2021-07-06 13:19:19.843750000,5.0,45.0,45.0,64.828125,-59.48,6.135691,33.34
2021-07-06 13:19:19.851562500,5.0,45.0,45.0,64.82671875,-61.175,6.135651,33.34
2021-07-06 13:19:19.859375000,5.0,45.0,45.0,64.8253125,-62.87,6.135611,33.34
2021-07-06 13:19:19.867187500,5.0,45.0,45.0,64.82390625,-62.965,6.135571,33.34
2021-07-06 13:19:19.875000000,5.0,45.0,45.0,64.82249999999999,-63.06,6.135531,33.34
2021-07-06 13:19:19.882812500,5.0,45.0,44.75,64.82109375,-61.325,6.135491,33.34
2021-07-06 13:19:19.890625000,5.0,45.0,44.5,64.8196875,-59.59,6.135451,33.34
2021-07-06 13:19:19.898437500,5.0,45.0,44.25,64.81828125,-56.165000000000006,6.1354109999999995,33.34
2021-07-06 13:19:19.906250000,5.0,45.0,44.0,64.816875,-52.74,6.135371,33.34
2021-07-06 13:19:19.914062500,5.0,45.0,44.25,64.81546875,-48.085,6.135331,33.34
2021-07-06 13:19:19.921875000,5.0,45.0,44.5,64.81406249999999,-43.43,6.135291,33.34
2021-07-06 13:19:19.929687500,5.0,45.0,44.75,64.81265625,-38.195,6.135250999999999,33.34
2021-07-06 13:19:19.937500000,5.0,45.0,45.0,64.81125,-32.96,6.135211,33.34
2021-07-06 13:19:19.945312500,5.0,45.0,45.0,64.80984375,-27.740000000000002,6.135171,33.34
2021-07-06 13:19:19.953125000,5.0,45.0,45.0,64.8084375,-22.52,6.1351309999999994,33.34
2021-07-06 13:19:19.960937500,5.0,45.0,45.0,64.80703125,-17.735,6.135091,33.34
2021-07-06 13:19:19.968750000,5.0,45.0,45.0,64.80562499999999,-12.95,6.135051,33.34
2021-07-06 13:19:19.976562500,5.0,45.0,44.75,64.80421875,-8.774999999999999,6.1350109999999995,33.34
2021-07-06 13:19:19.984375000,5.0,45.0,44.5,64.8028125,-4.6,6.134970999999999,33.34
2021-07-06 13:19:19.992187500,5.0,45.0,44.25,64.80140625,-1.005,6.134931,33.34
2021-07-06 13:19:20.000000000,5.0,45.0,44.0,64.8,2.59,6.134891,33.34
2021-07-06 13:19:20.007812500,5.0,45.0,44.25,64.79859375,5.7,6.13473084375,33.34
2021-07-06 13:19:20.015625000,5.0,45.0,44.5,64.79718749999999,8.81,6.1345706875,33.34
2021-07-06 13:19:20.023437500,5.0,45.0,44.75,64.79578124999999,11.49,6.1344105312499995,33.34
2021-07-06 13:19:20.031250000,5.0,45.0,45.0,64.794375,14.17,6.134250375,33.34
2021-07-06 13:19:20.039062500,5.0,45.0,44.75,64.79296875,16.405,6.13409021875,33.34
2021-07-06 13:19:20.046875000,5.0,45.0,44.5,64.7915625,18.64,6.133930062499999,33.34
2021-07-06 13:19:20.054687500,5.0,45.0,44.25,64.79015625,20.380000000000003,6.1337699062499995,33.34
2021-07-06 13:19:20.062500000,5.0,45.0,44.0,64.78875,22.12,6.13360975,33.34
2021-07-06 13:19:20.070312500,5.0,45.0,44.25,64.78734374999999,23.345,6.13344959375,33.34
2021-07-06 13:19:20.078125000,5.0,45.0,44.5,64.7859375,24.57,6.1332894375,33.34
2021-07-06 13:19:20.085937500,5.0,45.0,44.75,64.78453125,25.37,6.13312928125,33.34
2021-07-06 13:19:20.093750000,5.0,45.0,45.0,64.783125,26.17,6.132969125,33.34
2021-07-06 13:19:20.101562500,4.75,45.0,45.0,64.78171875,26.71,6.13280896875,33.34
2021-07-06 13:19:20.109375000,4.5,45.0,45.0,64.7803125,27.25,6.132648812499999,33.34
2021-07-06 13:19:20.117187500,4.25,45.0,45.0,64.77890624999999,27.77,6.13248865625,33.34
2021-07-06 13:19:20.125000000,4.0,45.0,45.0,64.7775,28.29,6.1323285,33.34
2021-07-06 13:19:20.132812500,4.25,45.0,45.0,64.77609375,28.939999999999998,6.13216834375,33.34
2021-07-06 13:19:20.140625000,4.5,45.0,45.0,64.7746875,29.59,6.1320081875,33.34
2021-07-06 13:19:20.148437500,4.75,45.0,45.0,64.77328125,30.4,6.13184803125,33.34
2021-07-06 13:19:20.156250000,5.0,45.0,45.0,64.771875,31.21,6.131687875,33.34
2021-07-06 13:19:20.164062500,5.0,45.0,45.0,64.77046874999999,32.085,6.13152771875,33.34
2021-07-06 13:19:20.171875000,5.0,45.0,45.0,64.7690625,32.96,6.1313675624999995,33.34
2021-07-06 13:19:20.179687500,5.0,45.0,45.0,64.76765625,33.715,6.13120740625,33.34
2021-07-06 13:19:20.187500000,5.0,45.0,45.0,64.76625,34.47,6.13104725,33.34
2021-07-06 13:19:20.195312500,5.0,45.0,45.0,64.76484375,34.95,6.13088709375,33.34
2021-07-06 13:19:20.203125000,5.0,45.0,45.0,64.7634375,35.43,6.1307269375,33.34
2021-07-06 13:19:20.210937500,5.0,45.0,45.0,64.76203124999999,35.585,6.13056678125,33.34
2021-07-06 13:19:20.218750000,5.0,45.0,45.0,64.760625,35.74,6.130406625,33.34
2021-07-06 13:19:20.226562500,5.0,45.0,45.0,64.75921875,35.644999999999996,6.13024646875,33.34
2021-07-06 13:19:20.234375000,5.0,45.0,45.0,64.7578125,35.55,6.1300863125,33.34
2021-07-06 13:19:20.242187500,5.0,45.0,45.0,64.75640625,35.355,6.12992615625,33.34
2021-07-06 13:19:20.250000000,5.0,45.0,45.0,64.755,35.16,6.129766,33.34
2021-07-06 13:19:20.257812500,5.0,45.0,45.0,64.75359375,35.004999999999995,6.12980603125,33.34
2021-07-06 13:19:20.265625000,5.0,45.0,45.0,64.7521875,34.85,6.1298460625,33.34
2021-07-06 13:19:20.273437500,5.0,45.0,45.0,64.75078125,34.785,6.12988609375,33.34
2021-07-06 13:19:20.281250000,5.0,45.0,45.0,64.749375,34.72,6.129926125,33.34
2021-07-06 13:19:20.289062500,5.0,45.0,45.0,64.74796875,34.675,6.12996615625,33.34
2021-07-06 13:19:20.296875000,5.0,45.0,45.0,64.7465625,34.63,6.1300061875,33.34
2021-07-06 13:19:20.304687500,5.0,45.0,45.0,64.74515625,34.435,6.1300462187499996,33.34
2021-07-06 13:19:20.312500000,5.0,45.0,45.0,64.74375,34.24,6.13008625,33.34
2021-07-06 13:19:20.320312500,5.0,45.0,44.75,64.74234375,33.725,6.13012628125,33.34
2021-07-06 13:19:20.328125000,5.0,45.0,44.5,64.7409375,33.21,6.1301663125,33.34
2021-07-06 13:19:20.335937500,5.0,45.0,44.25,64.73953125,32.265,6.13020634375,33.34
2021-07-06 13:19:20.343750000,5.0,45.0,44.0,64.738125,31.32,6.130246375,33.34
2021-07-06 13:19:20.351562500,5.0,45.0,44.25,64.73671875,29.96,6.13028640625,33.34
2021-07-06 13:19:20.359375000,5.0,45.0,44.5,64.7353125,28.6,6.1303264375,33.34
2021-07-06 13:19:20.367187500,5.0,45.0,44.75,64.73390625,26.925,6.13036646875,33.34
2021-07-06 13:19:20.375000000,5.0,45.0,45.0,64.7325,25.25,6.130406499999999,33.34
2021-07-06 13:19:20.382812500,5.0,45.0,44.75,64.73109375,23.435000000000002,6.13044653125,33.34
2021-07-06 13:19:20.390625000,5.0,45.0,44.5,64.7296875,21.62,6.1304865625,33.34
2021-07-06 13:19:20.398437500,5.0,45.0,44.25,64.72828125,19.835,6.13052659375,33.34
2021-07-06 13:19:20.406250000,5.0,45.0,44.0,64.726875,18.05,6.130566625,33.34
2021-07-06 13:19:20.414062500,5.0,45.0,44.25,64.72546875,16.415,6.1306066562499995,33.34
2021-07-06 13:19:20.421875000,5.0,45.0,44.5,64.7240625,14.78,6.1306466875,33.34
2021-07-06 13:19:20.429687500,5.0,45.0,44.75,64.72265625,13.344999999999999,6.13068671875,33.34
2021-07-06 13:19:20.437500000,5.0,45.0,45.0,64.72125,11.91,6.13072675,33.34
2021-07-06 13:19:20.445312500,5.0,45.0,45.0,64.71984375,10.620000000000001,6.13076678125,33.34
2021-07-06 13:19:20.453125000,5.0,45.0,45.0,64.71843750000001,9.33,6.1308068124999995,33.34
2021-07-06 13:19:20.460937500,5.0,45.0,45.0,64.71703125,8.075,6.13084684375,33.34
2021-07-06 13:19:20.468750000,5.0,45.0,45.0,64.715625,6.82,6.130886875,33.34
2021-07-06 13:19:20.476562500,5.0,45.0,45.0,64.71421875,5.4350000000000005,6.13092690625,33.34
2021-07-06 13:19:20.484375000,5.0,45.0,45.0,64.7128125,4.05,6.130966937499999,33.34
2021-07-06 13:19:20.492187500,5.0,45.0,45.0,64.71140625,2.415,6.1310069687499995,33.34
2021-07-06 13:19:20.500000000,5.0,45.0,45.0,64.71000000000001,0.78,6.131047,33.34
2021-07-06 13:19:20.507812500,5.0,45.0,45.0,64.70859375,-1.1500000000000001,6.13084684375,33.34
2021-07-06 13:19:20.515625000,5.0,45.0,45.0,64.7071875,-3.08,6.1306466875,33.34
2021-07-06 13:19:20.523437500,5.0,45.0,45.0,64.70578125,-5.245,6.13044653125,33.34
2021-07-06 13:19:20.531250000,5.0,45.0,45.0,64.704375,-7.41,6.130246375,33.34
2021-07-06 13:19:20.539062500,5.0,45.0,45.0,64.70296875,-9.685,6.1300462187499996,33.34
2021-07-06 13:19:20.546875000,5.0,45.0,45.0,64.7015625,-11.96,6.1298460624999995,33.34
2021-07-06 13:19:20.554687500,5.0,45.0,45.0,64.70015625,-14.23,6.1296459062499995,33.34
2021-07-06 13:19:20.562500000,5.0,45.0,45.0,64.69875,-16.5,6.1294457499999995,33.34
2021-07-06 13:19:20.570312500,5.0,45.0,45.0,64.69734375,-18.695,6.129245593749999,33.34
2021-07-06 13:19:20.578125000,5.0,45.0,45.0,64.6959375,-20.89,6.129045437499999,33.34
2021-07-06 13:19:20.585937500,5.0,45.0,45.0,64.69453125,-23.02,6.128845281249999,33.34
2021-07-06 13:19:20.593750000,5.0,45.0,45.0,64.693125,-25.15,6.128645124999999,33.34
2021-07-06 13:19:20.601562500,5.0,45.0,45.0,64.69171875,-27.295,6.128444968749999,33.34
2021-07-06 13:19:20.609375000,5.0,45.0,45.0,64.6903125,-29.44,6.128244812499999,33.34
2021-07-06 13:19:20.617187500,5.0,45.0,45.0,64.68890625,-31.71,6.128044656249999,33.34
2021-07-06 13:19:20.625000000,5.0,45.0,45.0,64.6875,-33.98,6.1278445,33.34
2021-07-06 13:19:20.632812500,5.0,45.0,45.0,64.68609375,-36.465,6.12764434375,33.34
2021-07-06 13:19:20.640625000,5.0,45.0,45.0,64.6846875,-38.95,6.1274441875,33.34
2021-07-06 13:19:20.648437500,5.0,45.0,45.0,64.68328125000001,-41.75,6.12724403125,33.34
2021-07-06 13:19:20.656250000,5.0,45.0,45.0,64.681875,-44.55,6.127043875,33.34
2021-07-06 13:19:20.664062500,5.0,45.0,44.75,64.68046875,-47.705,6.12684371875,33.34
2021-07-06 13:19:20.671875000,5.0,45.0,44.5,64.6790625,-50.86,6.1266435625,33.34
2021-07-06 13:19:20.679687500,5.0,45.0,44.25,64.67765625,-54.31,6.12644340625,33.34
2021-07-06 13:19:20.687500000,5.0,45.0,44.0,64.67625,-57.76,6.12624325,33.34
2021-07-06 13:19:20.695312500,5.0,45.0,44.0,64.67484375000001,-61.239999999999995,6.12604309375,33.34
2021-07-06 13:19:20.703125000,5.0,45.0,44.0,64.6734375,-64.72,6.1258429375,33.34
2021-07-06 13:19:20.710937500,5.0,45.0,44.0,64.67203125,-67.765,6.12564278125,33.34
2021-07-06 13:19:20.718750000,5.0,45.0,44.0,64.670625,-70.81,6.125442625,33.34
2021-07-06 13:19:20.726562500,5.0,45.0,44.25,64.66921875,-72.82,6.12524246875,33.34
2021-07-06 13:19:20.734375000,5.0,45.0,44.5,64.6678125,-74.83,6.1250423125,33.34
2021-07-06 13:19:20.742187500,5.0,45.0,44.75,64.66640625000001,-75.22999999999999,6.12484215625,33.34
2021-07-06 13:19:20.750000000,5.0,45.0,45.0,64.665,-75.63,6.124642,33.34
2021-07-06 13:19:20.757812500,5.0,45.0,45.0,64.66359375,-74.13499999999999,6.124642,33.34
2021-07-06 13:19:20.765625000,5.0,45.0,45.0,64.6621875,-72.64,6.124642,33.34
2021-07-06 13:19:20.773437500,5.0,45.0,45.0,64.66078125,-69.345,6.124642,33.34
2021-07-06 13:19:20.781250000,5.0,45.0,45.0,64.659375,-66.05,6.124642,33.34
2021-07-06 13:19:20.789062500,5.0,45.0,44.75,64.65796875000001,-61.415,6.124642,33.34
2021-07-06 13:19:20.796875000,5.0,45.0,44.5,64.6565625,-56.78,6.124642,33.34
2021-07-06 13:19:20.804687500,5.0,45.0,44.25,64.65515625,-51.46,6.124642,33.34
2021-07-06 13:19:20.812500000,5.0,45.0,44.0,64.65375,-46.14,6.124642,33.34
2021-07-06 13:19:20.820312500,5.0,45.0,44.25,64.65234375,-40.72,6.124642,33.34
2021-07-06 13:19:20.828125000,5.0,45.0,44.5,64.6509375,-35.3,6.124642,33.34
2021-07-06 13:19:20.835937500,5.0,45.0,44.75,64.64953125000001,-30.144999999999996,6.124642,33.34
2021-07-06 13:19:20.843750000,5.0,45.0,45.0,64.64812500000001,-24.99,6.124642,33.34
2021-07-06 13:19:20.851562500,5.0,45.0,45.0,64.64671875,-20.23,6.124642,33.34
2021-07-06 13:19:20.859375000,5.0,45.0,45.0,64.6453125,-15.47,6.124642,33.34
2021-07-06 13:19:20.867187500,5.0,45.0,45.0,64.64390625,-11.085,6.124642,33.34
2021-07-06 13:19:20.875000000,5.0,45.0,45.0,64.6425,-6.7,6.124642,33.34
2021-07-06 13:19:20.882812500,5.0,45.0,45.0,64.64109375000001,-2.6450000000000005,6.124642,33.34
2021-07-06 13:19:20.890625000,5.0,45.0,45.0,64.63968750000001,1.41,6.124642,33.34
2021-07-06 13:19:20.898437500,5.0,45.0,45.0,64.63828125,5.12,6.124642,33.34
2021-07-06 13:19:20.906250000,5.0,45.0,45.0,64.636875,8.83,6.124642,33.34
2021-07-06 13:19:20.914062500,5.0,45.0,45.0,64.63546875,12.145,6.124642,33.34
2021-07-06 13:19:20.921875000,5.0,45.0,45.0,64.6340625,15.46,6.124642,33.34
2021-07-06 13:19:20.929687500,5.0,45.0,45.0,64.63265625000001,18.34,6.124642,33.34
2021-07-06 13:19:20.937500000,5.0,45.0,45.0,64.63125000000001,21.22,6.124642,33.34
2021-07-06 13:19:20.945312500,5.0,45.0,45.0,64.62984375,23.665,6.124642,33.34
2021-07-06 13:19:20.953125000,5.0,45.0,45.0,64.6284375,26.11,6.124642,33.34
2021-07-06 13:19:20.960937500,5.0,45.0,45.0,64.62703125,28.185000000000002,6.124642,33.34
2021-07-06 13:19:20.968750000,5.0,45.0,45.0,64.625625,30.26,6.124642,33.34
2021-07-06 13:19:20.976562500,5.0,45.0,44.75,64.62421875000001,32.04,6.124642,33.34
2021-07-06 13:19:20.984375000,5.0,45.0,44.5,64.62281250000001,33.82,6.124642,33.34
2021-07-06 13:19:20.992187500,5.0,45.0,44.25,64.62140625,35.335,6.124642,33.34
2021-07-06 13:19:21.000000000,5.0,45.0,44.0,64.62,36.85,6.124642,33.34
2021-07-06 13:19:21.007812500,5.0,45.0,44.25,64.61882812500001,38.129999999999995,6.124561937499999,33.3415625
2021-07-06 13:19:21.015625000,5.0,45.0,44.5,64.61765625000001,39.41,6.124481875,33.343125
2021-07-06 13:19:21.023437500,5.0,45.0,44.75,64.616484375,40.43,6.1244018124999995,33.344687500000006
2021-07-06 13:19:21.031250000,5.0,45.0,45.0,64.6153125,41.45,6.12432175,33.346250000000005
2021-07-06 13:19:21.039062500,5.0,45.0,45.0,64.614140625,42.21,6.1242416875,33.3478125
2021-07-06 13:19:21.046875000,5.0,45.0,45.0,64.61296875000001,42.97,6.124161625,33.349375
2021-07-06 13:19:21.054687500,5.0,45.0,45.0,64.61179687500001,43.489999999999995,6.1240815625,33.3509375
2021-07-06 13:19:21.062500000,5.0,45.0,45.0,64.610625,44.01,6.1240015,33.352500000000006
2021-07-06 13:19:21.070312500,5.0,45.0,45.0,64.609453125,44.315,6.1239214375,33.354062500000005
2021-07-06 13:19:21.078125000,5.0,45.0,45.0,64.60828125,44.62,6.123841375,33.355625
2021-07-06 13:19:21.085937500,5.0,45.0,45.0,64.60710937500001,44.76,6.1237613125,33.3571875
2021-07-06 13:19:21.093750000,5.0,45.0,45.0,64.60593750000001,44.9,6.12368125,33.35875
2021-07-06 13:19:21.101562500,5.0,45.0,45.0,64.604765625,44.905,6.1236011875,33.3603125
2021-07-06 13:19:21.109375000,5.0,45.0,45.0,64.60359375,44.91,6.123521125,33.361875000000005
2021-07-06 13:19:21.117187500,5.0,45.0,45.0,64.602421875,44.825,6.1234410625,33.3634375
2021-07-06 13:19:21.125000000,5.0,45.0,45.0,64.60125000000001,44.74,6.123361,33.365
2021-07-06 13:19:21.132812500,5.0,45.0,45.0,64.60007812500001,44.59,6.1232809375,33.3665625
2021-07-06 13:19:21.140625000,5.0,45.0,45.0,64.59890625,44.44,6.123200875,33.368125
2021-07-06 13:19:21.148437500,5.0,45.0,45.0,64.597734375,44.239999999999995,6.1231208125,33.369687500000005
2021-07-06 13:19:21.156250000,5.0,45.0,45.0,64.5965625,44.04,6.12304075,33.37125
2021-07-06 13:19:21.164062500,5.0,45.0,44.75,64.59539062500001,43.775,6.1229606875,33.3728125
2021-07-06 13:19:21.171875000,5.0,45.0,44.5,64.59421875000001,43.51,6.1228806250000005,33.374375
2021-07-06 13:19:21.179687500,5.0,45.0,44.25,64.593046875,43.135,6.1228005625,33.3759375
2021-07-06 13:19:21.187500000,5.0,45.0,44.0,64.591875,42.76,6.1227205,33.3775
2021-07-06 13:19:21.195312500,5.0,45.0,44.25,64.590703125,42.239999999999995,6.1226404375,33.3790625
2021-07-06 13:19:21.203125000,5.0,45.0,44.5,64.58953125000001,41.72,6.122560375,33.380625
2021-07-06 13:19:21.210937500,5.0,45.0,44.75,64.58835937500001,41.04,6.1224803125000005,33.3821875
2021-07-06 13:19:21.218750000,5.0,45.0,45.0,64.5871875,40.36,6.12240025,33.38375
2021-07-06 13:19:21.226562500,5.0,45.0,45.0,64.586015625,39.565,6.122320187500001,33.3853125
2021-07-06 13:19:21.234375000,5.0,45.0,45.0,64.58484375,38.77,6.122240125,33.386875
2021-07-06 13:19:21.242187500,5.0,45.0,45.0,64.58367187500001,37.895,6.122160062500001,33.3884375
2021-07-06 13:19:21.250000000,5.0,45.0,45.0,64.58250000000001,37.02,6.12208,33.39
2021-07-06 13:19:21.257812500,5.0,45.0,45.0,64.581328125,36.09,6.12179978125,33.39
2021-07-06 13:19:21.265625000,5.0,45.0,45.0,64.58015625,35.16,6.1215195625000005,33.39
2021-07-06 13:19:21.273437500,5.0,45.0,45.0,64.578984375,34.16,6.12123934375,33.39
2021-07-06 13:19:21.281250000,5.0,45.0,45.0,64.57781250000001,33.16,6.120959125000001,33.39
2021-07-06 13:19:21.289062500,5.0,45.0,45.0,64.576640625,32.019999999999996,6.12067890625,33.39
2021-07-06 13:19:21.296875000,5.0,45.0,45.0,64.57546875,30.88,6.120398687500001,33.39
2021-07-06 13:19:21.304687500,5.0,45.0,45.0,64.574296875,29.535,6.12011846875,33.39
2021-07-06 13:19:21.312500000,5.0,45.0,45.0,64.573125,28.19,6.119838250000001,33.39
2021-07-06 13:19:21.320312500,5.0,45.0,45.0,64.57195312500001,26.630000000000003,6.11955803125,33.39
2021-07-06 13:19:21.328125000,5.0,45.0,45.0,64.57078125,25.07,6.1192778125,33.39
2021-07-06 13:19:21.335937500,5.0,45.0,45.0,64.569609375,23.35,6.1189975937500005,33.39
2021-07-06 13:19:21.343750000,5.0,45.0,45.0,64.5684375,21.63,6.118717375,33.39
2021-07-06 13:19:21.351562500,5.0,45.0,44.75,64.567265625,19.84,6.118437156250001,33.39
2021-07-06 13:19:21.359375000,5.0,45.0,44.5,64.56609375000001,18.05,6.1181569375,33.39
2021-07-06 13:19:21.367187500,5.0,45.0,44.25,64.564921875,16.27,6.117876718750001,33.39
2021-07-06 13:19:21.375000000,5.0,45.0,44.0,64.56375,14.49,6.1175965,33.39
2021-07-06 13:19:21.382812500,5.0,45.0,44.0,64.562578125,12.73,6.11731628125,33.39
2021-07-06 13:19:21.390625000,5.0,45.0,44.0,64.56140625,10.97,6.1170360625,33.39
2021-07-06 13:19:21.398437500,5.0,45.0,44.0,64.56023437500001,9.185,6.11675584375,33.39
2021-07-06 13:19:21.406250000,5.0,45.0,44.0,64.5590625,7.4,6.1164756250000005,33.39
2021-07-06 13:19:21.414062500,5.0,45.0,44.25,64.557890625,5.5,6.11619540625,33.39
2021-07-06 13:19:21.421875000,5.0,45.0,44.5,64.55671875,3.6,6.115915187500001,33.39
2021-07-06 13:19:21.429687500,5.0,45.0,44.75,64.555546875,1.5150000000000001,6.11563496875,33.39
2021-07-06 13:19:21.437500000,5.0,45.0,45.0,64.55437500000001,-0.57,6.11535475,33.39
2021-07-06 13:19:21.445312500,5.0,45.0,45.0,64.553203125,-2.8299999999999996,6.11507453125,33.39
2021-07-06 13:19:21.453125000,5.0,45.0,45.0,64.55203125,-5.09,6.1147943125,33.39
2021-07-06 13:19:21.460937500,5.0,45.0,45.0,64.550859375,-7.455,6.11451409375,33.39
2021-07-06 13:19:21.468750000,5.0,45.0,45.0,64.5496875,-9.82,6.114233875,33.39
2021-07-06 13:19:21.476562500,4.75,45.0,44.75,64.54851562500001,-12.17,6.1139536562500005,33.39
2021-07-06 13:19:21.484375000,4.5,45.0,44.5,64.54734375,-14.52,6.1136734375,33.39
2021-07-06 13:19:21.492187500,4.25,45.0,44.25,64.546171875,-16.755,6.113393218750001,33.39
2021-07-06 13:19:21.500000000,4.0,45.0,44.0,64.545,-18.99,6.113113,33.39
2021-07-06 13:19:21.507812500,4.25,45.0,44.25,64.543828125,-21.064999999999998,6.1130329375,33.39
2021-07-06 13:19:21.515625000,4.5,45.0,44.5,64.54265625000001,-23.14,6.112952875,33.39
2021-07-06 13:19:21.523437500,4.75,45.0,44.75,64.541484375,-25.085,6.1128728125,33.39
2021-07-06 13:19:21.531250000,5.0,45.0,45.0,64.5403125,-27.03,6.1127927500000006,33.39
2021-07-06 13:19:21.539062500,5.0,45.0,45.0,64.539140625,-28.94,6.1127126875,33.39
2021-07-06 13:19:21.546875000,5.0,45.0,45.0,64.53796875,-30.85,6.112632625,33.39
2021-07-06 13:19:21.554687500,5.0,45.0,45.0,64.53679687500001,-32.915,6.1125525625,33.39
2021-07-06 13:19:21.562500000,5.0,45.0,45.0,64.535625,-34.98,6.1124725,33.39
2021-07-06 13:19:21.570312500,5.0,45.0,45.0,64.534453125,-37.39,6.1123924375000005,33.39
2021-07-06 13:19:21.578125000,5.0,45.0,45.0,64.53328125,-39.8,6.112312375,33.39
2021-07-06 13:19:21.585937500,5.0,45.0,45.0,64.532109375,-42.715,6.1122323125,33.39
2021-07-06 13:19:21.593750000,5.0,45.0,45.0,64.53093750000001,-45.63,6.11215225,33.39
2021-07-06 13:19:21.601562500,5.0,45.0,45.0,64.529765625,-49.105000000000004,6.1120721875,33.39
2021-07-06 13:19:21.609375000,5.0,45.0,45.0,64.52859375,-52.58,6.111992125,33.39
2021-07-06 13:19:21.617187500,5.0,45.0,45.0,64.527421875,-56.474999999999994,6.1119120625,33.39
2021-07-06 13:19:21.625000000,5.0,45.0,45.0,64.52625,-60.37,6.111832,33.39
2021-07-06 13:19:21.632812500,4.75,45.0,44.75,64.52507812500001,-64.315,6.1117519375,33.39
2021-07-06 13:19:21.640625000,4.5,45.0,44.5,64.52390625,-68.26,6.111671875,33.39
2021-07-06 13:19:21.648437500,4.25,45.0,44.25,64.522734375,-71.72,6.1115918125,33.39
2021-07-06 13:19:21.656250000,4.0,45.0,44.0,64.5215625,-75.18,6.11151175,33.39
2021-07-06 13:19:21.664062500,4.25,45.0,44.25,64.520390625,-77.51,6.1114316875000005,33.39
2021-07-06 13:19:21.671875000,4.5,45.0,44.5,64.51921875000001,-79.84,6.111351625,33.39
2021-07-06 13:19:21.679687500,4.75,45.0,44.75,64.518046875,-80.515,6.1112715625,33.39
2021-07-06 13:19:21.687500000,5.0,45.0,45.0,64.516875,-81.19,6.1111915,33.39
2021-07-06 13:19:21.695312500,4.75,45.0,45.0,64.515703125,-79.925,6.1111114375,33.39
2021-07-06 13:19:21.703125000,4.5,45.0,45.0,64.51453125,-78.66,6.1110313750000005,33.39
2021-07-06 13:19:21.710937500,4.25,45.0,45.0,64.51335937500001,-75.50999999999999,6.1109513125,33.39
2021-07-06 13:19:21.718750000,4.0,45.0,45.0,64.5121875,-72.36,6.11087125,33.39
2021-07-06 13:19:21.726562500,4.25,45.0,44.75,64.511015625,-67.725,6.1107911875,33.39
2021-07-06 13:19:21.734375000,4.5,45.0,44.5,64.50984375,-63.09,6.110711125,33.39
2021-07-06 13:19:21.742187500,4.75,45.0,44.25,64.508671875,-57.55500000000001,6.1106310625,33.39
2021-07-06 13:19:21.750000000,5.0,45.0,44.0,64.5075,-52.02,6.110551,33.39
2021-07-06 13:19:21.757812500,5.0,45.0,44.0,64.506328125,-46.195,6.1106310625,33.39
2021-07-06 13:19:21.765625000,5.0,45.0,44.0,64.50515625,-40.37,6.110711125,33.39
2021-07-06 13:19:21.773437500,5.0,45.0,44.0,64.503984375,-34.724999999999994,6.1107911875,33.39
2021-07-06 13:19:21.781250000,5.0,45.0,44.0,64.5028125,-29.08,6.11087125,33.39
2021-07-06 13:19:21.789062500,4.75,45.0,44.25,64.501640625,-23.875,6.1109513125,33.39
2021-07-06 13:19:21.796875000,4.5,45.0,44.5,64.50046875,-18.67,6.1110313750000005,33.39
2021-07-06 13:19:21.804687500,4.25,45.0,44.75,64.499296875,-13.97,6.1111114375,33.39
2021-07-06 13:19:21.812500000,4.0,45.0,45.0,64.498125,-9.27,6.1111915,33.39
2021-07-06 13:19:21.820312500,4.25,45.0,45.0,64.496953125,-5.015,6.1112715625,33.39
2021-07-06 13:19:21.828125000,4.5,45.0,45.0,64.49578125,-0.76,6.111351625,33.39
2021-07-06 13:19:21.835937500,4.75,45.0,45.0,64.494609375,3.1100000000000003,6.1114316875000005,33.39
2021-07-06 13:19:21.843750000,5.0,45.0,45.0,64.4934375,6.98,6.11151175,33.39
2021-07-06 13:19:21.851562500,4.75,45.0,45.0,64.492265625,10.485,6.1115918125,33.39
2021-07-06 13:19:21.859375000,4.5,45.0,45.0,64.49109375,13.99,6.111671875,33.39
2021-07-06 13:19:21.867187500,4.25,45.0,45.0,64.489921875,17.085,6.1117519375,33.39
2021-07-06 13:19:21.875000000,4.0,45.0,45.0,64.48875,20.18,6.111832,33.39
2021-07-06 13:19:21.882812500,4.0,45.0,45.0,64.487578125,22.785,6.1119120625,33.39
2021-07-06 13:19:21.890625000,4.0,45.0,45.0,64.48640625,25.39,6.111992125,33.39
2021-07-06 13:19:21.898437500,4.0,45.0,45.0,64.485234375,27.450000000000003,6.1120721875,33.39
2021-07-06 13:19:21.906250000,4.0,45.0,45.0,64.4840625,29.51,6.11215225,33.39
2021-07-06 13:19:21.914062500,4.0,45.0,44.75,64.482890625,31.050000000000004,6.1122323125,33.39
2021-07-06 13:19:21.921875000,4.0,45.0,44.5,64.48171875,32.59,6.112312375,33.39
2021-07-06 13:19:21.929687500,4.0,45.0,44.25,64.480546875,33.685,6.1123924375000005,33.39
2021-07-06 13:19:21.937500000,4.0,45.0,44.0,64.479375,34.78,6.1124725,33.39
2021-07-06 13:19:21.945312500,4.0,45.0,44.25,64.478203125,35.575,6.1125525625,33.39
2021-07-06 13:19:21.953125000,4.0,45.0,44.5,64.47703125,36.37,6.112632625,33.39
2021-07-06 13:19:21.960937500,4.0,45.0,44.75,64.475859375,37.015,6.1127126875,33.39
2021-07-06 13:19:21.968750000,4.0,45.0,45.0,64.4746875,37.66,6.1127927500000006,33.39
2021-07-06 13:19:21.976562500,4.0,45.0,45.0,64.473515625,38.26,6.1128728125,33.39
2021-07-06 13:19:21.984375000,4.0,45.0,45.0,64.47234375,38.86,6.112952875,33.39
2021-07-06 13:19:21.992187500,4.0,45.0,45.0,64.471171875,39.465,6.1130329375,33.39
2021-07-06 13:19:22.000000000,4.0,45.0,45.0,64.47,40.07,6.113113,33.39
2021-07-06 13:19:22.007812500,4.0,45.0,45.0,64.468828125,40.675,6.113273125,33.389375
2021-07-06 13:19:22.015625000,4.0,45.0,45.0,64.46765625,41.28,6.11343325,33.38875
2021-07-06 13:19:22.023437500,4.0,45.0,45.0,64.466484375,41.86,6.113593375,33.388125
2021-07-06 13:19:22.031250000,4.0,45.0,45.0,64.4653125,42.44,6.1137535000000005,33.3875
2021-07-06 13:19:22.039062500,4.0,45.0,45.0,64.464140625,42.965,6.113913625,33.386875
2021-07-06 13:19:22.046875000,4.0,45.0,45.0,64.46296875,43.49,6.11407375,33.38625
2021-07-06 13:19:22.054687500,4.0,45.0,45.0,64.461796875,43.965,6.114233875,33.385625
2021-07-06 13:19:22.062500000,4.0,45.0,45.0,64.460625,44.44,6.114394,33.385
2021-07-06 13:19:22.070312500,4.0,45.0,45.0,64.459453125,44.87,6.114554125,33.384375
2021-07-06 13:19:22.078125000,4.0,45.0,45.0,64.45828125,45.3,6.1147142500000005,33.38375
2021-07-06 13:19:22.085937500,4.0,45.0,45.0,64.457109375,45.67,6.114874375,33.383125
2021-07-06 13:19:22.093750000,4.0,45.0,45.0,64.4559375,46.04,6.1150345,33.3825
2021-07-06 13:19:22.101562500,4.0,45.0,44.75,64.454765625,46.305,6.115194625,33.381875
2021-07-06 13:19:22.109375000,4.0,45.0,44.5,64.45359375,46.57,6.11535475,33.38125
2021-07-06 13:19:22.117187500,4.0,45.0,44.25,64.452421875,46.65,6.115514875,33.380625
2021-07-06 13:19:22.125000000,4.0,45.0,44.0,64.45125,46.73,6.1156749999999995,33.379999999999995
2021-07-06 13:19:22.132812500,4.0,45.0,44.0,64.450078125,46.545,6.115835125,33.379374999999996
2021-07-06 13:19:22.140625000,4.0,45.0,44.0,64.44890625,46.36,6.11599525,33.37875
2021-07-06 13:19:22.148437500,4.0,45.0,44.0,64.447734375,45.885,6.116155375,33.378125
2021-07-06 13:19:22.156250000,4.0,45.0,44.0,64.4465625,45.41,6.1163155,33.3775
2021-07-06 13:19:22.164062500,4.0,45.0,44.0,64.445390625,44.69499999999999,6.116475625,33.376875
2021-07-06 13:19:22.171875000,4.0,45.0,44.0,64.44421875,43.98,6.1166357499999995,33.37625
2021-07-06 13:19:22.179687500,4.0,45.0,44.0,64.443046875,43.099999999999994,6.116795875,33.375625
2021-07-06 13:19:22.187500000,4.0,45.0,44.0,64.441875,42.22,6.116956,33.375
2021-07-06 13:19:22.195312500,4.0,45.0,44.25,64.440703125,41.269999999999996,6.117116125,33.374375
2021-07-06 13:19:22.203125000,4.0,45.0,44.5,64.43953125,40.32,6.11727625,33.37375
2021-07-06 13:19:22.210937500,4.0,45.0,44.75,64.438359375,39.33,6.117436375,33.373124999999995
2021-07-06 13:19:22.218750000,4.0,45.0,45.0,64.4371875,38.34,6.117596499999999,33.372499999999995
2021-07-06 13:19:22.226562500,4.0,45.0,44.75,64.436015625,37.295,6.117756625,33.371874999999996
2021-07-06 13:19:22.234375000,4.0,45.0,44.5,64.43484375,36.25,6.11791675,33.371249999999996
2021-07-06 13:19:22.242187500,4.0,45.0,44.25,64.433671875,35.1,6.118076875,33.370625
2021-07-06 13:19:22.250000000,4.0,45.0,44.0,64.4325,33.95,6.118237,33.37
2021-07-06 13:19:22.257812500,4.0,45.25,44.0,64.431328125,32.635000000000005,6.11791675,33.37
2021-07-06 13:19:22.265625000,4.0,45.5,44.0,64.43015625,31.32,6.117596499999999,33.37
2021-07-06 13:19:22.273437500,4.0,45.75,44.0,64.428984375,29.83,6.11727625,33.37
2021-07-06 13:19:22.281250000,4.0,46.0,44.0,64.4278125,28.34,6.116956,33.37
2021-07-06 13:19:22.289062500,4.0,46.0,44.0,64.42664062499999,26.689999999999998,6.1166357499999995,33.37
2021-07-06 13:19:22.296875000,4.0,46.0,44.0,64.42546875,25.04,6.1163155,33.37
2021-07-06 13:19:22.304687500,4.0,46.0,44.0,64.424296875,23.295,6.11599525,33.37
2021-07-06 13:19:22.312500000,4.0,46.0,44.0,64.423125,21.55,6.1156749999999995,33.37
2021-07-06 13:19:22.320312500,4.0,45.75,44.25,64.421953125,19.795,6.11535475,33.37
2021-07-06 13:19:22.328125000,4.0,45.5,44.5,64.42078124999999,18.04,6.1150345,33.37
2021-07-06 13:19:22.335937500,4.0,45.25,44.75,64.419609375,16.36,6.11471425,33.37
2021-07-06 13:19:22.343750000,4.0,45.0,45.0,64.4184375,14.68,6.114394,33.37
2021-07-06 13:19:22.351562500,4.0,45.0,45.0,64.417265625,13.120000000000001,6.11407375,33.37
2021-07-06 13:19:22.359375000,4.0,45.0,45.0,64.41609375,11.56,6.1137535,33.37
2021-07-06 13:19:22.367187500,4.0,45.0,45.0,64.41492187499999,10.075,6.11343325,33.37
2021-07-06 13:19:22.375000000,4.0,45.0,45.0,64.41375,8.59,6.113113,33.37
2021-07-06 13:19:22.382812500,4.0,45.0,44.75,64.412578125,7.1,6.11279275,33.37
2021-07-06 13:19:22.390625000,4.0,45.0,44.5,64.41140625,5.61,6.1124725,33.37
2021-07-06 13:19:22.398437500,4.0,45.0,44.25,64.410234375,3.9800000000000004,6.112152249999999,33.37
2021-07-06 13:19:22.406250000,4.0,45.0,44.0,64.40906249999999,2.35,6.111832,33.37
2021-07-06 13:19:22.414062500,4.0,45.25,44.25,64.407890625,0.4650000000000001,6.11151175,33.37
2021-07-06 13:19:22.421875000,4.0,45.5,44.5,64.40671875,-1.42,6.111191499999999,33.37
2021-07-06 13:19:22.429687500,4.0,45.75,44.75,64.405546875,-3.6,6.11087125,33.37
2021-07-06 13:19:22.437500000,4.0,46.0,45.0,64.404375,-5.78,6.110551,33.37
2021-07-06 13:19:22.445312500,4.0,46.0,44.75,64.40320312499999,-8.2,6.1102307499999995,33.37
2021-07-06 13:19:22.453125000,4.0,46.0,44.5,64.40203125,-10.62,6.1099105,33.37
2021-07-06 13:19:22.460937500,4.0,46.0,44.25,64.400859375,-13.155,6.10959025,33.37
2021-07-06 13:19:22.468750000,4.0,46.0,44.0,64.3996875,-15.69,6.1092699999999995,33.37
2021-07-06 13:19:22.476562500,4.0,45.75,44.0,64.398515625,-18.205,6.10894975,33.37
2021-07-06 13:19:22.484375000,4.0,45.5,44.0,64.39734374999999,-20.72,6.1086295,33.37
2021-07-06 13:19:22.492187500,4.0,45.25,44.0,64.396171875,-23.125,6.10830925,33.37
2021-07-06 13:19:22.500000000,4.0,45.0,44.0,64.395,-25.53,6.107989,33.37
2021-07-06 13:19:22.507812500,4.0,45.0,44.0,64.393828125,-27.835,6.1079089374999995,33.37
2021-07-06 13:19:22.515625000,4.0,45.0,44.0,64.39265625,-30.14,6.107828875,33.37
2021-07-06 13:19:22.523437500,4.0,45.0,44.0,64.39148437499999,-32.445,6.1077488125,33.37
2021-07-06 13:19:22.531250000,4.0,45.0,44.0,64.3903125,-34.75,6.10766875,33.37
2021-07-06 13:19:22.539062500,4.0,45.0,44.25,64.389140625,-37.22,6.1075886875,33.37
2021-07-06 13:19:22.546875000,4.0,45.0,44.5,64.38796875,-39.69,6.1075086249999995,33.37
2021-07-06 13:19:22.554687500,4.0,45.0,44.75,64.386796875,-42.489999999999995,6.1074285625,33.37
2021-07-06 13:19:22.562500000,4.0,45.0,45.0,64.38562499999999,-45.29,6.1073485,33.37
2021-07-06 13:19:22.570312500,4.0,45.0,45.0,64.384453125,-48.495000000000005,6.1072684375,33.37
2021-07-06 13:19:22.578125000,4.0,45.0,45.0,64.38328125,-51.7,6.107188375,33.37
2021-07-06 13:19:22.585937500,4.0,45.0,45.0,64.382109375,-55.260000000000005,6.107108312499999,33.37
2021-07-06 13:19:22.593750000,4.0,45.0,45.0,64.3809375,-58.82,6.10702825,33.37
2021-07-06 13:19:22.601562500,4.0,45.0,45.0,64.37976562499999,-62.459999999999994,6.1069481875,33.37
2021-07-06 13:19:22.609375000,4.0,45.0,45.0,64.37859375,-66.1,6.106868125,33.37
2021-07-06 13:19:22.617187500,4.0,45.0,45.0,64.377421875,-69.365,6.1067880625,33.37
2021-07-06 13:19:22.625000000,4.0,45.0,45.0,64.37625,-72.63,6.106707999999999,33.37
2021-07-06 13:19:22.632812500,4.0,45.0,44.75,64.375078125,-74.93,6.1066279375,33.37
2021-07-06 13:19:22.640625000,4.0,45.0,44.5,64.37390624999999,-77.23,6.1065478749999995,33.37
2021-07-06 13:19:22.648437500,4.0,45.0,44.25,64.372734375,-77.99000000000001,6.1064678125,33.37
2021-07-06 13:19:22.656250000,4.0,45.0,44.0,64.3715625,-78.75,6.10638775,33.37
2021-07-06 13:19:22.664062500,4.0,45.0,44.25,64.370390625,-77.61500000000001,6.1063076875,33.37
2021-07-06 13:19:22.671875000,4.0,45.0,44.5,64.36921875,-76.48,6.106227625,33.37
2021-07-06 13:19:22.679687500,4.0,45.0,44.75,64.36804687499999,-73.39,6.1061475624999995,33.37
2021-07-06 13:19:22.687500000,4.0,45.0,45.0,64.366875,-70.3,6.1060675,33.37
2021-07-06 13:19:22.695312500,4.0,45.25,45.0,64.365703125,-65.585,6.1059874375,33.37
2021-07-06 13:19:22.703125000,4.0,45.5,45.0,64.36453125,-60.87,6.105907375,33.37
2021-07-06 13:19:22.710937500,4.0,45.75,45.0,64.363359375,-55.105000000000004,6.1058273125,33.37
2021-07-06 13:19:22.718750000,4.0,46.0,45.0,64.36218749999999,-49.34,6.105747249999999,33.37
2021-07-06 13:19:22.726562500,4.0,45.75,44.75,64.361015625,-43.21,6.1056671875,33.37
2021-07-06 13:19:22.734375000,4.0,45.5,44.5,64.35984375,-37.08,6.105587125,33.37
2021-07-06 13:19:22.742187500,4.0,45.25,44.25,64.358671875,-31.174999999999997,6.1055070625,33.37
2021-07-06 13:19:22.750000000,4.0,45.0,44.0,64.35749999999999,-25.27,6.105427,33.37
2021-07-06 13:19:22.757812500,4.0,45.0,44.0,64.35632812499999,-19.975,6.1051868124999995,33.37
2021-07-06 13:19:22.765625000,4.0,45.0,44.0,64.35515625,-14.68,6.104946625,33.37
2021-07-06 13:19:22.773437500,4.0,45.0,44.0,64.353984375,-10.1,6.1047064375,33.37
2021-07-06 13:19:22.781250000,4.0,45.0,44.0,64.3528125,-5.52,6.10446625,33.37
2021-07-06 13:19:22.789062500,4.0,45.0,44.25,64.35164062499999,-1.58,6.1042260624999995,33.37
2021-07-06 13:19:22.796875000,4.0,45.0,44.5,64.35046874999999,2.36,6.103985874999999,33.37
2021-07-06 13:19:22.804687500,4.0,45.0,44.75,64.349296875,5.8100000000000005,6.1037456875,33.37
2021-07-06 13:19:22.812500000,4.0,45.0,45.0,64.348125,9.26,6.1035055,33.37
2021-07-06 13:19:22.820312500,4.0,45.0,44.75,64.346953125,12.344999999999999,6.1032653125,33.37
2021-07-06 13:19:22.828125000,4.0,45.0,44.5,64.34578124999999,15.43,6.103025125,33.37
2021-07-06 13:19:22.835937500,4.0,45.0,44.25,64.34460937499999,18.18,6.1027849375,33.37
2021-07-06 13:19:22.843750000,4.0,45.0,44.0,64.3434375,20.93,6.10254475,33.37
2021-07-06 13:19:22.851562500,4.0,45.0,44.25,64.342265625,23.28,6.1023045625,33.37
2021-07-06 13:19:22.859375000,4.0,45.0,44.5,64.34109375,25.63,6.102064374999999,33.37
2021-07-06 13:19:22.867187500,4.0,45.0,44.75,64.33992187499999,27.490000000000002,6.1018241875,33.37
2021-07-06 13:19:22.875000000,4.0,45.0,45.0,64.33874999999999,29.35,6.101584,33.37
2021-07-06 13:19:22.882812500,4.25,45.0,45.0,64.337578125,30.69,6.1013438125,33.37
2021-07-06 13:19:22.890625000,4.5,45.0,45.0,64.33640625,32.03,6.101103625,33.37
2021-07-06 13:19:22.898437500,4.75,45.0,45.0,64.335234375,32.935,6.1008634375,33.37
2021-07-06 13:19:22.906250000,5.0,45.0,45.0,64.33406249999999,33.84,6.10062325,33.37
2021-07-06 13:19:22.914062500,4.75,45.0,45.0,64.33289062499999,34.480000000000004,6.1003830625,33.37
2021-07-06 13:19:22.921875000,4.5,45.0,45.0,64.33171875,35.12,6.1001428749999995,33.37
2021-07-06 13:19:22.929687500,4.25,45.0,45.0,64.330546875,35.66,6.0999026875,33.37
2021-07-06 13:19:22.937500000,4.0,45.0,45.0,64.329375,36.2,6.0996625,33.37
2021-07-06 13:19:22.945312500,4.0,45.0,45.0,64.32820312499999,36.755,6.0994223125,33.37
2021-07-06 13:19:22.953125000,4.0,45.0,45.0,64.32703124999999,37.31,6.0991821250000005,33.37
2021-07-06 13:19:22.960937500,4.0,45.0,45.0,64.325859375,37.885000000000005,6.0989419375,33.37
2021-07-06 13:19:22.968750000,4.0,45.0,45.0,64.3246875,38.46,6.09870175,33.37
2021-07-06 13:19:22.976562500,4.0,45.0,45.0,64.323515625,39.015,6.0984615625,33.37
2021-07-06 13:19:22.984375000,4.0,45.0,45.0,64.32234374999999,39.57,6.098221375,33.37
2021-07-06 13:19:22.992187500,4.0,45.0,45.0,64.32117187499999,40.06,6.0979811875,33.37
2021-07-06 13:19:23.000000000,4.0,45.0,45.0,64.32,40.55,6.097741,33.37
2021-07-06 13:19:23.007812500,4.0,45.0,44.75,64.31710937499999,40.97,6.09778103125,33.37
2021-07-06 13:19:23.015625000,4.0,45.0,44.5,64.31421875,41.39,6.0978210625000004,33.37
2021-07-06 13:19:23.023437500,4.0,45.0,44.25,64.31132812499999,41.785,6.09786109375,33.37
2021-07-06 13:19:23.031250000,4.0,45.0,44.0,64.3084375,42.18,6.097901125,33.37
2021-07-06 13:19:23.039062500,4.0,45.0,44.0,64.30554687499999,42.56,6.09794115625,33.37
2021-07-06 13:19:23.046875000,4.0,45.0,44.0,64.30265625,42.94,6.0979811875,33.37
2021-07-06 13:19:23.054687500,4.0,45.0,44.0,64.29976562499999,43.269999999999996,6.09802121875,33.37
2021-07-06 13:19:23.062500000,4.0,45.0,44.0,64.296875,43.6,6.09806125,33.37
2021-07-06 13:19:23.070312500,4.25,45.0,44.25,64.293984375,43.79,6.09810128125,33.37
2021-07-06 13:19:23.078125000,4.5,45.0,44.5,64.29109374999999,43.98,6.0981413125,33.37
2021-07-06 13:19:23.085937500,4.75,45.0,44.75,64.288203125,43.935,6.09818134375,33.37
2021-07-06 13:19:23.093750000,5.0,45.0,45.0,64.28531249999999,43.89,6.098221375,33.37
2021-07-06 13:19:23.101562500,4.75,45.0,45.0,64.282421875,43.56,6.09826140625,33.37
2021-07-06 13:19:23.109375000,4.5,45.0,45.0,64.27953124999999,43.23,6.0983014375,33.37
2021-07-06 13:19:23.117187500,4.25,45.0,45.0,64.276640625,42.655,6.09834146875,33.37
2021-07-06 13:19:23.125000000,4.0,45.0,45.0,64.27374999999999,42.08,6.0983815,33.37
2021-07-06 13:19:23.132812500,4.25,45.0,45.0,64.270859375,41.335,6.09842153125,33.37
2021-07-06 13:19:23.140625000,4.5,45.0,45.0,64.26796875,40.59,6.0984615625,33.37
2021-07-06 13:19:23.148437500,4.75,45.0,45.0,64.26507812499999,39.745000000000005,6.09850159375,33.37
2021-07-06 13:19:23.156250000,5.0,45.0,45.0,64.2621875,38.9,6.098541625,33.37
2021-07-06 13:19:23.164062500,5.0,45.0,44.75,64.25929687499999,37.974999999999994,6.0985816562499995,33.37
2021-07-06 13:19:23.171875000,5.0,45.0,44.5,64.25640625,37.05,6.0986216875,33.37
2021-07-06 13:19:23.179687500,5.0,45.0,44.25,64.25351562499999,36.0,6.09866171875,33.37
2021-07-06 13:19:23.187500000,5.0,45.0,44.0,64.250625,34.95,6.09870175,33.37
2021-07-06 13:19:23.195312500,4.75,45.0,44.0,64.247734375,33.72,6.09874178125,33.37
2021-07-06 13:19:23.203125000,4.5,45.0,44.0,64.24484375,32.49,6.0987818124999995,33.37
2021-07-06 13:19:23.210937500,4.25,45.0,44.0,64.241953125,31.075000000000003,6.09882184375,33.37
2021-07-06 13:19:23.218750000,4.0,45.0,44.0,64.23906249999999,29.66,6.098861875,33.37
2021-07-06 13:19:23.226562500,4.0,45.0,44.25,64.236171875,28.105,6.09890190625,33.37
2021-07-06 13:19:23.234375000,4.0,45.0,44.5,64.23328124999999,26.55,6.098941937499999,33.37
2021-07-06 13:19:23.242187500,4.0,45.0,44.75,64.230390625,24.939999999999998,6.0989819687499995,33.37
2021-07-06 13:19:23.250000000,4.0,45.0,45.0,64.22749999999999,23.33,6.099022,33.37
2021-07-06 13:19:23.257812500,4.25,45.0,45.0,64.224609375,21.759999999999998,6.098541624999999,33.37
2021-07-06 13:19:23.265625000,4.5,45.0,45.0,64.22171875,20.19,6.09806125,33.37
2021-07-06 13:19:23.273437500,4.75,45.0,45.0,64.218828125,18.69,6.097580874999999,33.37
2021-07-06 13:19:23.281250000,5.0,45.0,45.0,64.2159375,17.19,6.0971005,33.37
2021-07-06 13:19:23.289062500,5.0,45.0,45.0,64.21304687499999,15.74,6.096620124999999,33.37
2021-07-06 13:19:23.296875000,5.0,45.0,45.0,64.21015625,14.29,6.09613975,33.37
2021-07-06 13:19:23.304687500,5.0,45.0,45.0,64.20726562499999,12.809999999999999,6.095659374999999,33.37
2021-07-06 13:19:23.312500000,5.0,45.0,45.0,64.204375,11.33,6.095179,33.37
2021-07-06 13:19:23.320312500,4.75,45.0,45.0,64.20148437499999,9.71,6.0946986249999995,33.37
2021-07-06 13:19:23.328125000,4.5,45.0,45.0,64.19859375,8.09,6.09421825,33.37
2021-07-06 13:19:23.335937500,4.25,45.0,45.0,64.195703125,6.25,6.0937378749999995,33.37
2021-07-06 13:19:23.343750000,4.0,45.0,45.0,64.1928125,4.41,6.0932575,33.37
2021-07-06 13:19:23.351562500,4.25,45.0,45.0,64.189921875,2.335,6.092777125,33.37
2021-07-06 13:19:23.359375000,4.5,45.0,45.0,64.18703124999999,0.26,6.09229675,33.37
2021-07-06 13:19:23.367187500,4.75,45.0,45.0,64.184140625,-1.9999999999999998,6.091816375,33.37
2021-07-06 13:19:23.375000000,5.0,45.0,45.0,64.18124999999999,-4.26,6.091336,33.37
2021-07-06 13:19:23.382812500,5.0,45.0,45.0,64.178359375,-6.6049999999999995,6.090855625,33.37
2021-07-06 13:19:23.390625000,5.0,45.0,45.0,64.17546875,-8.95,6.090375249999999,33.37
2021-07-06 13:19:23.398437500,5.0,45.0,45.0,64.172578125,-11.25,6.089894875,33.37
2021-07-06 13:19:23.406250000,5.0,45.0,45.0,64.1696875,-13.55,6.089414499999999,33.37
2021-07-06 13:19:23.414062500,5.0,45.0,45.0,64.166796875,-15.71,6.088934125,33.37
2021-07-06 13:19:23.421875000,5.0,45.0,45.0,64.16390625,-17.87,6.088453749999999,33.37
2021-07-06 13:19:23.429687500,5.0,45.0,45.0,64.16101562499999,-19.845,6.087973375,33.37
2021-07-06 13:19:23.437500000,5.0,45.0,45.0,64.158125,-21.82,6.087492999999999,33.37
2021-07-06 13:19:23.445312500,5.0,45.0,44.75,64.15523437499999,-23.634999999999998,6.087012625,33.37
2021-07-06 13:19:23.453125000,5.0,45.0,44.5,64.15234375,-25.45,6.086532249999999,33.37
2021-07-06 13:19:23.460937500,5.0,45.0,44.25,64.149453125,-27.21,6.086051875,33.37
2021-07-06 13:19:23.468750000,5.0,45.0,44.0,64.1465625,-28.97,6.0855714999999995,33.37
2021-07-06 13:19:23.476562500,5.0,45.0,44.0,64.143671875,-30.84,6.085091125,33.37
2021-07-06 13:19:23.484375000,5.0,45.0,44.0,64.14078125,-32.71,6.0846107499999995,33.37
2021-07-06 13:19:23.492187500,5.0,45.0,44.0,64.137890625,-34.894999999999996,6.084130375,33.37
2021-07-06 13:19:23.500000000,5.0,45.0,44.0,64.13499999999999,-37.08,6.08365,33.37
2021-07-06 13:19:23.507812500,4.75,45.0,44.0,64.132109375,-39.730000000000004,6.08393021875,33.37
2021-07-06 13:19:23.515625000,4.5,45.0,44.0,64.12921874999999,-42.38,6.0842104374999995,33.37
2021-07-06 13:19:23.523437500,4.25,45.0,44.0,64.126328125,-45.5,6.08449065625,33.37
2021-07-06 13:19:23.531250000,4.0,45.0,44.0,64.1234375,-48.62,6.084770874999999,33.37
2021-07-06 13:19:23.539062500,4.0,45.0,44.25,64.120546875,-51.985,6.08505109375,33.37
2021-07-06 13:19:23.546875000,4.0,45.0,44.5,64.11765625,-55.35,6.085331312499999,33.37
2021-07-06 13:19:23.554687500,4.0,45.0,44.75,64.114765625,-58.519999999999996,6.08561153125,33.37
2021-07-06 13:19:23.562500000,4.0,45.0,45.0,64.111875,-61.69,6.08589175,33.37
2021-07-06 13:19:23.570312500,4.25,45.0,45.0,64.108984375,-64.045,6.0861719687499996,33.37
2021-07-06 13:19:23.578125000,4.5,45.0,45.0,64.10609375,-66.4,6.0864521875,33.37
2021-07-06 13:19:23.585937500,4.75,45.0,45.0,64.103203125,-67.355,6.0867324062499994,33.37
2021-07-06 13:19:23.593750000,5.0,45.0,45.0,64.1003125,-68.31,6.087012625,33.37
2021-07-06 13:19:23.601562500,4.75,45.0,45.0,64.097421875,-67.475,6.087292843749999,33.37
2021-07-06 13:19:23.609375000,4.5,45.0,45.0,64.09453125,-66.64,6.0875730625,33.37
2021-07-06 13:19:23.617187500,4.25,45.0,45.0,64.091640625,-63.965,6.087853281249999,33.37
2021-07-06 13:19:23.625000000,4.0,45.0,45.0,64.08875,-61.29,6.0881335,33.37
2021-07-06 13:19:23.632812500,4.25,45.0,45.0,64.085859375,-57.08,6.08841371875,33.37
2021-07-06 13:19:23.640625000,4.5,45.0,45.0,64.08296875,-52.87,6.0886939374999995,33.37
2021-07-06 13:19:23.648437500,4.75,45.0,45.0,64.080078125,-47.675,6.08897415625,33.37
2021-07-06 13:19:23.656250000,5.0,45.0,45.0,64.0771875,-42.48,6.089254374999999,33.37
2021-07-06 13:19:23.664062500,5.0,45.0,45.0,64.074296875,-36.935,6.08953459375,33.37
2021-07-06 13:19:23.671875000,5.0,45.0,45.0,64.07140625,-31.39,6.089814812499999,33.37
2021-07-06 13:19:23.679687500,5.0,45.0,45.0,64.068515625,-26.03,6.09009503125,33.37
2021-07-06 13:19:23.687500000,5.0,45.0,45.0,64.065625,-20.67,6.090375249999999,33.37
2021-07-06 13:19:23.695312500,5.0,45.0,45.0,64.062734375,-15.830000000000002,6.09065546875,33.37
2021-07-06 13:19:23.703125000,5.0,45.0,45.0,64.05984375,-10.99,6.0909356875,33.37
2021-07-06 13:19:23.710937500,5.0,45.0,45.0,64.056953125,-6.815,6.0912159062499995,33.37
2021-07-06 13:19:23.718750000,5.0,45.0,45.0,64.0540625,-2.64,6.091496125,33.37
2021-07-06 13:19:23.726562500,5.0,45.0,45.0,64.051171875,0.8850000000000002,6.091776343749999,33.37
2021-07-06 13:19:23.734375000,5.0,45.0,45.0,64.04828125,4.41,6.0920565625,33.37
2021-07-06 13:19:23.742187500,5.0,45.0,45.0,64.045390625,7.34,6.092336781249999,33.37
2021-07-06 13:19:23.750000000,5.0,45.0,45.0,64.0425,10.27,6.092617,33.37
2021-07-06 13:19:23.757812500,5.0,45.0,45.0,64.039609375,12.655,6.09229671875,33.37
2021-07-06 13:19:23.765625000,5.0,45.0,45.0,64.03671875,15.04,6.0919764375,33.37
2021-07-06 13:19:23.773437500,5.0,45.0,45.0,64.033828125,16.895,6.09165615625,33.37
2021-07-06 13:19:23.781250000,5.0,45.0,45.0,64.03093750000001,18.75,6.0913358749999995,33.37
2021-07-06 13:19:23.789062500,5.0,45.0,45.0,64.028046875,20.08,6.09101559375,33.37
2021-07-06 13:19:23.796875000,5.0,45.0,45.0,64.02515625,21.41,6.090695312499999,33.37
2021-07-06 13:19:23.804687500,5.0,45.0,45.0,64.022265625,22.275,6.09037503125,33.37
2021-07-06 13:19:23.812500000,5.0,45.0,45.0,64.019375,23.14,6.09005475,33.37
2021-07-06 13:19:23.820312500,5.0,45.0,45.0,64.016484375,23.67,6.08973446875,33.37
2021-07-06 13:19:23.828125000,5.0,45.0,45.0,64.01359375,24.2,6.0894141875,33.37
2021-07-06 13:19:23.835937500,5.0,45.0,45.0,64.010703125,24.575,6.08909390625,33.37
2021-07-06 13:19:23.843750000,5.0,45.0,45.0,64.0078125,24.95,6.088773625,33.37
2021-07-06 13:19:23.851562500,5.0,45.0,45.0,64.00492187500001,25.36,6.0884533437499995,33.37
2021-07-06 13:19:23.859375000,5.0,45.0,45.0,64.00203125,25.77,6.0881330625,33.37
2021-07-06 13:19:23.867187500,5.0,45.0,45.0,63.999140625,26.310000000000002,6.087812781249999,33.37
2021-07-06 13:19:23.875000000,5.0,45.0,45.0,63.99625,26.85,6.0874925,33.37
2021-07-06 13:19:23.882812500,5.0,45.0,45.0,63.993359375000004,27.54,6.08717221875,33.37
2021-07-06 13:19:23.890625000,5.0,45.0,45.0,63.990468750000005,28.23,6.0868519375,33.37
2021-07-06 13:19:23.898437500,5.0,45.0,45.0,63.987578125,28.995,6.08653165625,33.37
2021-07-06 13:19:23.906250000,5.0,45.0,45.0,63.9846875,29.76,6.0862113749999995,33.37
2021-07-06 13:19:23.914062500,5.0,45.0,45.0,63.981796875,30.465000000000003,6.08589109375,33.37
2021-07-06 13:19:23.921875000,5.0,45.0,45.0,63.97890625,31.17,6.085570812499999,33.37
2021-07-06 13:19:23.929687500,5.0,45.0,45.0,63.976015625,31.725,6.08525053125,33.37
2021-07-06 13:19:23.937500000,5.0,45.0,45.0,63.973125,32.28,6.084930249999999,33.37
2021-07-06 13:19:23.945312500,5.0,45.0,45.0,63.970234375000004,32.620000000000005,6.08460996875,33.37
2021-07-06 13:19:23.953125000,5.0,45.0,45.0,63.967343750000005,32.96,6.0842896875,33.37
2021-07-06 13:19:23.960937500,5.0,45.0,45.0,63.964453125000006,33.095,6.08396940625,33.37
2021-07-06 13:19:23.968750000,5.0,45.0,45.0,63.9615625,33.23,6.083649125,33.37
2021-07-06 13:19:23.976562500,5.0,45.0,45.0,63.958671875,33.224999999999994,6.0833288437499995,33.37
2021-07-06 13:19:23.984375000,5.0,45.0,45.0,63.95578125,33.22,6.0830085625,33.37
2021-07-06 13:19:23.992187500,5.0,45.0,45.0,63.952890625,33.14,6.082688281249999,33.37
2021-07-06 13:19:24.000000000,5.0,45.0,45.0,63.95,33.06,6.082368,33.37
2021-07-06 13:19:24.007812500,5.0,45.0,45.0,63.947265625,32.945,6.0822479375,33.37
2021-07-06 13:19:24.015625000,5.0,45.0,45.0,63.944531250000004,32.83,6.082127874999999,33.37
2021-07-06 13:19:24.023437500,5.0,45.0,45.0,63.941796875,32.665,6.0820078125,33.37
2021-07-06 13:19:24.031250000,5.0,45.0,45.0,63.939062500000006,32.5,6.08188775,33.37
2021-07-06 13:19:24.039062500,5.0,45.0,45.0,63.936328125,32.205,6.0817676875,33.37
2021-07-06 13:19:24.046875000,5.0,45.0,45.0,63.93359375,31.91,6.081647625,33.37
2021-07-06 13:19:24.054687500,5.0,45.0,45.0,63.930859375000004,31.34,6.0815275625,33.37
2021-07-06 13:19:24.062500000,5.0,45.0,45.0,63.928125,30.77,6.0814075,33.37
2021-07-06 13:19:24.070312500,5.0,45.0,45.0,63.925390625000006,29.83,6.0812874374999994,33.37
2021-07-06 13:19:24.078125000,5.0,45.0,45.0,63.92265625,28.89,6.081167375,33.37
2021-07-06 13:19:24.085937500,5.0,45.0,45.0,63.919921875,27.545,6.0810473125,33.37
2021-07-06 13:19:24.093750000,5.0,45.0,45.0,63.917187500000004,26.2,6.08092725,33.37
2021-07-06 13:19:24.101562500,5.0,45.0,44.75,63.914453125,24.535,6.0808071875,33.37
2021-07-06 13:19:24.109375000,5.0,45.0,44.5,63.911718750000006,22.87,6.080687125,33.37
2021-07-06 13:19:24.117187500,5.0,45.0,44.25,63.908984375,21.05,6.0805670625,33.37
2021-07-06 13:19:24.125000000,5.0,45.0,44.0,63.90625,19.23,6.0804469999999995,33.37
2021-07-06 13:19:24.132812500,5.0,45.0,44.25,63.903515625000004,17.435000000000002,6.0803269375,33.37
2021-07-06 13:19:24.140625000,5.0,45.0,44.5,63.90078125,15.64,6.080206875,33.37
2021-07-06 13:19:24.148437500,5.0,45.0,44.75,63.898046875000006,13.940000000000001,6.0800868125,33.37
2021-07-06 13:19:24.156250000,5.0,45.0,45.0,63.8953125,12.24,6.07996675,33.37
2021-07-06 13:19:24.164062500,5.0,45.0,45.0,63.892578125,10.629999999999999,6.0798466875,33.37
2021-07-06 13:19:24.171875000,5.0,45.0,45.0,63.889843750000004,9.02,6.079726625,33.37
2021-07-06 13:19:24.179687500,5.0,45.0,45.0,63.887109375,7.365,6.0796065625,33.37
2021-07-06 13:19:24.187500000,5.0,45.0,45.0,63.884375000000006,5.71,6.0794865,33.37
2021-07-06 13:19:24.195312500,5.0,45.0,45.0,63.881640625,3.8899999999999997,6.0793664375,33.37
2021-07-06 13:19:24.203125000,5.0,45.0,45.0,63.87890625,2.07,6.079246375,33.37
2021-07-06 13:19:24.210937500,5.0,45.0,45.0,63.876171875000004,0.02499999999999991,6.0791263125,33.37
2021-07-06 13:19:24.218750000,5.0,45.0,45.0,63.8734375,-2.02,6.07900625,33.37
2021-07-06 13:19:24.226562500,4.75,45.0,45.0,63.870703125000006,-4.255000000000001,6.0788861875,33.37
2021-07-06 13:19:24.234375000,4.5,45.0,45.0,63.86796875,-6.49,6.0787661250000005,33.37
2021-07-06 13:19:24.242187500,4.25,45.0,45.0,63.865234375,-8.81,6.0786460625,33.37
2021-07-06 13:19:24.250000000,4.0,45.0,45.0,63.862500000000004,-11.13,6.078526,33.37
2021-07-06 13:19:24.257812500,4.25,45.0,45.0,63.859765625,-13.435,6.07836584375,33.37
2021-07-06 13:19:24.265625000,4.5,45.0,45.0,63.857031250000006,-15.74,6.0782056875,33.37
2021-07-06 13:19:24.273437500,4.75,45.0,45.0,63.854296875,-17.94,6.07804553125,33.37
2021-07-06 13:19:24.281250000,5.0,45.0,45.0,63.8515625,-20.14,6.077885375,33.37
2021-07-06 13:19:24.289062500,5.0,45.0,44.75,63.848828125000004,-22.215,6.07772521875,33.37
2021-07-06 13:19:24.296875000,5.0,45.0,44.5,63.84609375,-24.29,6.0775650625,33.37
2021-07-06 13:19:24.304687500,5.0,45.0,44.25,63.843359375000006,-26.25,6.07740490625,33.37
2021-07-06 13:19:24.312500000,5.0,45.0,44.0,63.840625,-28.21,6.07724475,33.37
2021-07-06 13:19:24.320312500,5.0,45.0,44.25,63.837890625,-30.105,6.0770845937499995,33.37
2021-07-06 13:19:24.328125000,5.0,45.0,44.5,63.835156250000004,-32.0,6.0769244375,33.37
2021-07-06 13:19:24.335937500,5.0,45.0,44.75,63.832421875,-33.91,6.07676428125,33.37
2021-07-06 13:19:24.343750000,5.0,45.0,45.0,63.829687500000006,-35.82,6.076604125,33.37
2021-07-06 13:19:24.351562500,5.0,45.0,45.0,63.826953125,-37.85,6.07644396875,33.37
2021-07-06 13:19:24.359375000,5.0,45.0,45.0,63.82421875,-39.88,6.0762838125,33.37
2021-07-06 13:19:24.367187500,5.0,45.0,45.0,63.821484375000004,-42.18,6.07612365625,33.37
2021-07-06 13:19:24.375000000,5.0,45.0,45.0,63.81875,-44.48,6.0759635,33.37
2021-07-06 13:19:24.382812500,5.0,45.0,44.75,63.816015625000006,-47.19499999999999,6.07580334375,33.37
2021-07-06 13:19:24.390625000,5.0,45.0,44.5,63.81328125,-49.91,6.0756431875,33.37
2021-07-06 13:19:24.398437500,5.0,45.0,44.25,63.810546875,-53.11,6.07548303125,33.37
2021-07-06 13:19:24.406250000,5.0,45.0,44.0,63.807812500000004,-56.31,6.0753228749999995,33.37
2021-07-06 13:19:24.414062500,4.75,45.0,44.25,63.805078125,-59.89,6.07516271875,33.37
2021-07-06 13:19:24.421875000,4.5,45.0,44.5,63.802343750000006,-63.47,6.0750025625,33.37
2021-07-06 13:19:24.429687500,4.25,45.0,44.75,63.799609375,-67.1,6.07484240625,33.37
2021-07-06 13:19:24.437500000,4.0,45.0,45.0,63.796875,-70.73,6.0746822499999995,33.37
2021-07-06 13:19:24.445312500,4.25,45.0,45.0,63.794140625000004,-73.855,6.07452209375,33.37
2021-07-06 13:19:24.453125000,4.5,45.0,45.0,63.79140625,-76.98,6.0743619375,33.37
2021-07-06 13:19:24.460937500,4.75,45.0,45.0,63.788671875000006,-78.985,6.074201781249999,33.37
2021-07-06 13:19:24.468750000,5.0,45.0,45.0,63.7859375,-80.99,6.0740416249999996,33.37
2021-07-06 13:19:24.476562500,5.0,45.0,45.0,63.783203125,-81.34,6.07388146875,33.37
2021-07-06 13:19:24.484375000,5.0,45.0,45.0,63.780468750000004,-81.69,6.0737213125,33.37
2021-07-06 13:19:24.492187500,5.0,45.0,45.0,63.777734375,-80.11500000000001,6.073561156249999,33.37
2021-07-06 13:19:24.500000000,5.0,45.0,45.0,63.775000000000006,-78.54,6.073401,33.37
2021-07-06 13:19:24.507812500,5.0,45.0,45.0,63.772265625,-75.135,6.07344103125,33.37
2021-07-06 13:19:24.515625000,5.0,45.0,45.0,63.76953125,-71.73,6.0734810625,33.37
2021-07-06 13:19:24.523437500,5.0,45.0,45.0,63.766796875000004,-66.88,6.073521093749999,33.37
2021-07-06 13:19:24.531250000,5.0,45.0,45.0,63.7640625,-62.03,6.0735611249999994,33.37
2021-07-06 13:19:24.539062500,5.0,45.0,45.0,63.761328125,-56.31,6.07360115625,33.37
2021-07-06 13:19:24.546875000,5.0,45.0,45.0,63.75859375,-50.59,6.0736411875,33.37
2021-07-06 13:19:24.554687500,5.0,45.0,45.0,63.755859375,-44.565,6.07368121875,33.37
2021-07-06 13:19:24.562500000,5.0,45.0,45.0,63.753125000000004,-38.54,6.07372125,33.37
2021-07-06 13:19:24.570312500,5.0,45.0,45.0,63.750390625,-32.66,6.0737612812499995,33.37
2021-07-06 13:19:24.578125000,5.0,45.0,45.0,63.74765625,-26.78,6.0738013125,33.37
2021-07-06 13:19:24.585937500,5.0,45.0,45.0,63.744921875,-21.3,6.07384134375,33.37
2021-07-06 13:19:24.593750000,5.0,45.0,45.0,63.7421875,-15.82,6.073881375,33.37
2021-07-06 13:19:24.601562500,5.0,45.0,45.0,63.739453125000004,-10.85,6.07392140625,33.37
2021-07-06 13:19:24.609375000,5.0,45.0,45.0,63.73671875,-5.88,6.0739614374999995,33.37
2021-07-06 13:19:24.617187500,5.0,45.0,45.0,63.733984375,-1.4400000000000004,6.07400146875,33.37
2021-07-06 13:19:24.625000000,5.0,45.0,45.0,63.73125,3.0,6.0740415,33.37
2021-07-06 13:19:24.632812500,5.0,45.0,44.75,63.728515625,6.925,6.07408153125,33.37
2021-07-06 13:19:24.640625000,5.0,45.0,44.5,63.725781250000004,10.85,6.0741215625,33.37
2021-07-06 13:19:24.648437500,5.0,45.0,44.25,63.723046875,14.235,6.0741615937499995,33.37
2021-07-06 13:19:24.656250000,5.0,45.0,44.0,63.7203125,17.62,6.074201625,33.37
2021-07-06 13:19:24.664062500,5.0,45.0,44.25,63.717578125,20.44,6.07424165625,33.37
2021-07-06 13:19:24.671875000,5.0,45.0,44.5,63.71484375,23.26,6.0742816875,33.37
2021-07-06 13:19:24.679687500,5.0,45.0,44.75,63.712109375000004,25.48,6.07432171875,33.37
2021-07-06 13:19:24.687500000,5.0,45.0,45.0,63.709375,27.7,6.07436175,33.37
2021-07-06 13:19:24.695312500,5.0,45.0,45.0,63.706640625,29.355,6.07440178125,33.37
2021-07-06 13:19:24.703125000,5.0,45.0,45.0,63.70390625,31.01,6.0744418125,33.37
2021-07-06 13:19:24.710937500,5.0,45.0,45.0,63.701171875,32.175000000000004,6.07448184375,33.37
2021-07-06 13:19:24.718750000,5.0,45.0,45.0,63.698437500000004,33.34,6.074521875,33.37
2021-07-06 13:19:24.726562500,5.0,45.0,45.0,63.695703125,34.150000000000006,6.0745619062500005,33.37
2021-07-06 13:19:24.734375000,5.0,45.0,45.0,63.69296875,34.96,6.0746019375,33.37
2021-07-06 13:19:24.742187500,5.0,45.0,45.0,63.690234375,35.53,6.07464196875,33.37
2021-07-06 13:19:24.750000000,5.0,45.0,45.0,63.6875,36.1,6.074682,33.37
2021-07-06 13:19:24.757812500,5.0,45.0,45.0,63.684765625000004,36.54,6.074842125,33.37
2021-07-06 13:19:24.765625000,5.0,45.0,45.0,63.68203125,36.98,6.07500225,33.37
2021-07-06 13:19:24.773437500,5.0,45.0,45.0,63.679296875,37.345,6.075162375,33.37
2021-07-06 13:19:24.781250000,5.0,45.0,45.0,63.6765625,37.71,6.0753225,33.37
2021-07-06 13:19:24.789062500,5.0,45.0,45.0,63.673828125,38.015,6.075482625,33.37
2021-07-06 13:19:24.796875000,5.0,45.0,45.0,63.671093750000004,38.32,6.07564275,33.37
2021-07-06 13:19:24.804687500,5.0,45.0,45.0,63.668359375,38.575,6.075802875,33.37
2021-07-06 13:19:24.812500000,5.0,45.0,45.0,63.665625,38.83,6.075963,33.37
2021-07-06 13:19:24.820312500,5.0,45.0,45.0,63.662890625,39.07,6.076123125,33.37
2021-07-06 13:19:24.828125000,5.0,45.0,45.0,63.66015625,39.31,6.07628325,33.37
2021-07-06 13:19:24.835937500,5.0,45.0,45.0,63.657421875000004,39.565,6.076443375,33.37
2021-07-06 13:19:24.843750000,5.0,45.0,45.0,63.6546875,39.82,6.0766035,33.37
2021-07-06 13:19:24.851562500,5.0,45.0,45.0,63.651953125,40.129999999999995,6.076763625,33.37
2021-07-06 13:19:24.859375000,5.0,45.0,45.0,63.64921875,40.44,6.07692375,33.37
2021-07-06 13:19:24.867187500,5.0,45.0,45.0,63.646484375,40.8,6.077083875,33.37
2021-07-06 13:19:24.875000000,5.0,45.0,45.0,63.643750000000004,41.16,6.077244,33.37
2021-07-06 13:19:24.882812500,5.0,45.0,45.0,63.641015625,41.51,6.077404125,33.37
2021-07-06 13:19:24.890625000,5.0,45.0,45.0,63.63828125,41.86,6.07756425,33.37
2021-07-06 13:19:24.898437500,5.0,45.0,45.0,63.635546875,42.1,6.077724375,33.37
2021-07-06 13:19:24.906250000,5.0,45.0,45.0,63.6328125,42.34,6.0778845,33.37
2021-07-06 13:19:24.914062500,5.0,45.0,45.0,63.630078125000004,42.355000000000004,6.0780446249999995,33.37
2021-07-06 13:19:24.921875000,5.0,45.0,45.0,63.62734375,42.37,6.078204749999999,33.37
2021-07-06 13:19:24.929687500,5.0,45.0,45.0,63.624609375,42.07,6.078364875,33.37
2021-07-06 13:19:24.937500000,5.0,45.0,45.0,63.621875,41.77,6.078525,33.37
2021-07-06 13:19:24.945312500,5.0,45.0,45.0,63.619140625,41.11,6.078685125,33.37
2021-07-06 13:19:24.953125000,5.0,45.0,45.0,63.616406250000004,40.45,6.07884525,33.37
2021-07-06 13:19:24.960937500,5.0,45.0,45.0,63.613671875,39.44,6.0790053749999995,33.37
2021-07-06 13:19:24.968750000,5.0,45.0,45.0,63.6109375,38.43,6.079165499999999,33.37
2021-07-06 13:19:24.976562500,5.0,45.0,45.0,63.608203125,37.14,6.079325625,33.37
2021-07-06 13:19:24.984375000,5.0,45.0,45.0,63.60546875,35.85,6.07948575,33.37
2021-07-06 13:19:24.992187500,5.0,45.0,45.0,63.602734375000004,34.36,6.079645875,33.37
2021-07-06 13:19:25.000000000,5.0,45.0,45.0,63.6,32.87,6.079806,33.37
2021-07-06 13:19:25.007812500,5.0,45.0,45.0,63.59703125,31.294999999999998,6.079565812499999,33.3690625
2021-07-06 13:19:25.015625000,5.0,45.0,45.0,63.5940625,29.72,6.079325624999999,33.368125
2021-07-06 13:19:25.023437500,5.0,45.0,45.0,63.59109375,28.115000000000002,6.0790854375,33.3671875
2021-07-06 13:19:25.031250000,5.0,45.0,45.0,63.588125,26.51,6.07884525,33.36625
2021-07-06 13:19:25.039062500,5.0,45.0,45.0,63.585156250000004,24.92,6.078605062499999,33.3653125
2021-07-06 13:19:25.046875000,5.0,45.0,45.0,63.5821875,23.33,6.078364875,33.364374999999995
2021-07-06 13:19:25.054687500,5.0,45.0,45.0,63.57921875,21.744999999999997,6.0781246875,33.363437499999996
2021-07-06 13:19:25.062500000,5.0,45.0,45.0,63.57625,20.16,6.0778845,33.3625
2021-07-06 13:19:25.070312500,5.0,45.0,45.0,63.57328125,18.57,6.0776443124999995,33.3615625
2021-07-06 13:19:25.078125000,5.0,45.0,45.0,63.5703125,16.98,6.077404124999999,33.360625
2021-07-06 13:19:25.085937500,5.0,45.0,45.0,63.56734375,15.36,6.0771639375,33.3596875
2021-07-06 13:19:25.093750000,5.0,45.0,45.0,63.564375,13.74,6.07692375,33.35875
2021-07-06 13:19:25.101562500,5.0,45.0,45.0,63.561406250000005,12.08,6.0766835624999995,33.3578125
2021-07-06 13:19:25.109375000,5.0,45.0,45.0,63.558437500000004,10.42,6.076443375,33.356875
2021-07-06 13:19:25.117187500,5.0,45.0,45.0,63.55546875,8.69,6.0762031875,33.3559375
2021-07-06 13:19:25.125000000,5.0,45.0,45.0,63.5525,6.96,6.075963,33.355000000000004
2021-07-06 13:19:25.132812500,5.0,45.0,45.0,63.54953125,5.145,6.0757228125,33.3540625
2021-07-06 13:19:25.140625000,5.0,45.0,45.0,63.5465625,3.33,6.075482624999999,33.353125
2021-07-06 13:19:25.148437500,5.0,45.0,45.0,63.54359375,1.395,6.0752424375,33.3521875
2021-07-06 13:19:25.156250000,5.0,45.0,45.0,63.540625,-0.54,6.07500225,33.35125
2021-07-06 13:19:25.164062500,5.0,45.0,44.75,63.53765625,-2.59,6.0747620625,33.3503125
2021-07-06 13:19:25.171875000,5.0,45.0,44.5,63.534687500000004,-4.64,6.074521875,33.349375
2021-07-06 13:19:25.179687500,5.0,45.0,44.25,63.53171875,-6.785,6.0742816875,33.3484375
2021-07-06 13:19:25.187500000,5.0,45.0,44.0,63.52875,-8.93,6.0740415,33.347500000000004
2021-07-06 13:19:25.195312500,4.75,45.0,44.25,63.52578125,-11.115,6.0738013125,33.346562500000005
2021-07-06 13:19:25.203125000,4.5,45.0,44.5,63.5228125,-13.3,6.0735611249999994,33.345625000000005
2021-07-06 13:19:25.210937500,4.25,45.0,44.75,63.51984375,-15.485000000000001,6.0733209375,33.3446875
2021-07-06 13:19:25.218750000,4.0,45.0,45.0,63.516875,-17.67,6.07308075,33.34375
2021-07-06 13:19:25.226562500,4.25,45.0,45.0,63.51390625,-19.840000000000003,6.0728405625,33.3428125
2021-07-06 13:19:25.234375000,4.5,45.0,45.0,63.510937500000004,-22.01,6.072600375,33.341875
2021-07-06 13:19:25.242187500,4.75,45.0,45.0,63.50796875,-24.23,6.0723601875,33.3409375
2021-07-06 13:19:25.250000000,5.0,45.0,45.0,63.505,-26.45,6.07212,33.34
2021-07-06 13:19:25.257812500,4.75,45.0,45.0,63.50203125,-28.85,6.07207996875,33.34
2021-07-06 13:19:25.265625000,4.5,45.0,45.0,63.4990625,-31.25,6.0720399375,33.34
2021-07-06 13:19:25.273437500,4.25,45.0,45.0,63.49609375,-33.985,6.07199990625,33.34
2021-07-06 13:19:25.281250000,4.0,45.0,45.0,63.493125,-36.72,6.071959875,33.34
2021-07-06 13:19:25.289062500,4.25,45.0,44.75,63.49015625,-39.95,6.07191984375,33.34
2021-07-06 13:19:25.296875000,4.5,45.0,44.5,63.4871875,-43.18,6.0718798125,33.34
2021-07-06 13:19:25.304687500,4.75,45.0,44.25,63.484218750000004,-46.97,6.0718397812500005,33.34
2021-07-06 13:19:25.312500000,5.0,45.0,44.0,63.48125,-50.76,6.07179975,33.34
2021-07-06 13:19:25.320312500,5.0,45.0,44.25,63.47828125,-55.035,6.07175971875,33.34
2021-07-06 13:19:25.328125000,5.0,45.0,44.5,63.4753125,-59.31,6.0717196875,33.34
2021-07-06 13:19:25.335937500,5.0,45.0,44.75,63.47234375,-63.745000000000005,6.07167965625,33.34
2021-07-06 13:19:25.343750000,5.0,45.0,45.0,63.469375,-68.18,6.071639625,33.34
2021-07-06 13:19:25.351562500,5.0,45.0,45.0,63.46640625,-72.23500000000001,6.07159959375,33.34
2021-07-06 13:19:25.359375000,5.0,45.0,45.0,63.4634375,-76.29,6.0715595625,33.34
2021-07-06 13:19:25.367187500,5.0,45.0,45.0,63.460468750000004,-79.29,6.07151953125,33.34
2021-07-06 13:19:25.375000000,5.0,45.0,45.0,63.4575,-82.29,6.071479500000001,33.34
2021-07-06 13:19:25.382812500,5.0,45.0,45.0,63.45453125,-83.56,6.07143946875,33.34
2021-07-06 13:19:25.390625000,5.0,45.0,45.0,63.4515625,-84.83,6.0713994375,33.34
2021-07-06 13:19:25.398437500,5.0,45.0,45.0,63.44859375,-83.955,6.07135940625,33.34
2021-07-06 13:19:25.406250000,5.0,45.0,45.0,63.445625,-83.08,6.071319375,33.34
2021-07-06 13:19:25.414062500,5.0,45.0,44.75,63.44265625,-80.03,6.071279343750001,33.34
2021-07-06 13:19:25.421875000,5.0,45.0,44.5,63.4396875,-76.98,6.0712393125,33.34
2021-07-06 13:19:25.429687500,5.0,45.0,44.25,63.43671875,-72.13,6.07119928125,33.34
2021-07-06 13:19:25.437500000,5.0,45.0,44.0,63.43375,-67.28,6.07115925,33.34
2021-07-06 13:19:25.445312500,5.0,45.0,44.25,63.43078125,-61.32,6.07111921875,33.34
2021-07-06 13:19:25.453125000,5.0,45.0,44.5,63.4278125,-55.36,6.0710791875000005,33.34
2021-07-06 13:19:25.460937500,5.0,45.0,44.75,63.42484375,-49.019999999999996,6.07103915625,33.34
2021-07-06 13:19:25.468750000,5.0,45.0,45.0,63.421875,-42.68,6.070999125,33.34
2021-07-06 13:19:25.476562500,4.75,45.0,45.0,63.41890625,-36.55,6.07095909375,33.34
2021-07-06 13:19:25.484375000,4.5,45.0,45.0,63.4159375,-30.42,6.070919062500001,33.34
2021-07-06 13:19:25.492187500,4.25,45.0,45.0,63.41296875,-24.82,6.0708790312500005,33.34
2021-07-06 13:19:25.500000000,4.0,45.0,45.0,63.41,-19.22,6.070839,33.34
2021-07-06 13:19:25.507812500,4.0,45.0,45.0,63.40703125,-14.209999999999999,6.070518750000001,33.34
2021-07-06 13:19:25.515625000,4.0,45.0,45.0,63.4040625,-9.2,6.0701985,33.34
2021-07-06 13:19:25.523437500,4.0,45.0,45.0,63.40109375,-4.6899999999999995,6.06987825,33.34
2021-07-06 13:19:25.531250000,4.0,45.0,45.0,63.398125,-0.18,6.069558000000001,33.34
2021-07-06 13:19:25.539062500,4.0,45.0,45.0,63.39515625,3.9299999999999993,6.06923775,33.34
2021-07-06 13:19:25.546875000,4.0,45.0,45.0,63.3921875,8.04,6.0689175,33.34
2021-07-06 13:19:25.554687500,4.0,45.0,45.0,63.38921875,11.795,6.06859725,33.34
2021-07-06 13:19:25.562500000,4.0,45.0,45.0,63.38625,15.55,6.068277,33.34
2021-07-06 13:19:25.570312500,4.0,45.0,45.0,63.38328125,18.905,6.0679567500000005,33.34
2021-07-06 13:19:25.578125000,4.0,45.0,45.0,63.3803125,22.26,6.0676365,33.34
2021-07-06 13:19:25.585937500,4.0,45.0,45.0,63.37734375,25.135,6.06731625,33.34
2021-07-06 13:19:25.593750000,4.0,45.0,45.0,63.374375,28.01,6.066996,33.34
2021-07-06 13:19:25.601562500,4.0,45.0,45.0,63.37140625,30.345,6.06667575,33.34
2021-07-06 13:19:25.609375000,4.0,45.0,45.0,63.3684375,32.68,6.0663555,33.34
2021-07-06 13:19:25.617187500,4.0,45.0,45.0,63.36546875,34.485,6.06603525,33.34
2021-07-06 13:19:25.625000000,4.0,45.0,45.0,63.3625,36.29,6.065715,33.34
2021-07-06 13:19:25.632812500,4.0,45.0,44.75,63.359531249999996,37.64,6.06539475,33.34
2021-07-06 13:19:25.640625000,4.0,45.0,44.5,63.3565625,38.99,6.0650745,33.34
2021-07-06 13:19:25.648437500,4.0,45.0,44.25,63.35359375,40.0,6.06475425,33.34
2021-07-06 13:19:25.656250000,4.0,45.0,44.0,63.350625,41.01,6.064434,33.34
2021-07-06 13:19:25.664062500,4.0,45.0,44.25,63.34765625,41.775,6.06411375,33.34
2021-07-06 13:19:25.671875000,4.0,45.0,44.5,63.3446875,42.54,6.0637935,33.34
2021-07-06 13:19:25.679687500,4.0,45.0,44.75,63.34171875,43.129999999999995,6.0634732499999995,33.34
2021-07-06 13:19:25.687500000,4.0,45.0,45.0,63.33875,43.72,6.063153,33.34
2021-07-06 13:19:25.695312500,4.0,45.0,45.0,63.33578125,44.2,6.06283275,33.34
2021-07-06 13:19:25.703125000,4.0,45.0,45.0,63.3328125,44.68,6.0625124999999995,33.34
2021-07-06 13:19:25.710937500,4.0,45.0,45.0,63.32984375,45.075,6.06219225,33.34
2021-07-06 13:19:25.718750000,4.0,45.0,45.0,63.326875,45.47,6.061871999999999,33.34
2021-07-06 13:19:25.726562500,4.25,45.0,45.0,63.32390625,45.855000000000004,6.06155175,33.34
2021-07-06 13:19:25.734375000,4.5,45.0,45.0,63.3209375,46.24,6.0612315,33.34
2021-07-06 13:19:25.742187500,4.75,45.0,45.0,63.31796875,46.675,6.060911249999999,33.34
2021-07-06 13:19:25.750000000,5.0,45.0,45.0,63.315,47.11,6.060591,33.34
2021-07-06 13:19:25.757812500,4.75,45.0,45.0,63.31203125,47.65,6.06063103125,33.34
2021-07-06 13:19:25.765625000,4.5,45.0,45.0,63.309062499999996,48.19,6.0606710625,33.34
2021-07-06 13:19:25.773437500,4.25,45.0,45.0,63.30609375,48.815,6.060711093749999,33.34
2021-07-06 13:19:25.781250000,4.0,45.0,45.0,63.303125,49.44,6.0607511249999995,33.34
2021-07-06 13:19:25.789062500,4.0,45.0,44.75,63.30015625,50.07,6.06079115625,33.34
2021-07-06 13:19:25.796875000,4.0,45.0,44.5,63.2971875,50.7,6.0608311875,33.34
2021-07-06 13:19:25.804687500,4.0,45.0,44.25,63.29421875,51.165000000000006,6.06087121875,33.34
2021-07-06 13:19:25.812500000,4.0,45.0,44.0,63.29125,51.63,6.06091125,33.34
2021-07-06 13:19:25.820312500,4.0,45.25,44.25,63.28828125,51.765,6.0609512812499995,33.34
2021-07-06 13:19:25.828125000,4.0,45.5,44.5,63.285312499999996,51.9,6.0609913125,33.34
2021-07-06 13:19:25.835937500,4.0,45.75,44.75,63.28234375,51.585,6.06103134375,33.34
2021-07-06 13:19:25.843750000,4.0,46.0,45.0,63.279375,51.27,6.061071375,33.34
2021-07-06 13:19:25.851562500,4.0,45.75,45.0,63.27640625,50.495000000000005,6.06111140625,33.34
2021-07-06 13:19:25.859375000,4.0,45.5,45.0,63.2734375,49.72,6.0611514374999995,33.34
2021-07-06 13:19:25.867187500,4.0,45.25,45.0,63.27046875,48.545,6.06119146875,33.34
2021-07-06 13:19:25.875000000,4.0,45.0,45.0,63.2675,47.37,6.0612315,33.34
2021-07-06 13:19:25.882812500,4.0,45.0,45.0,63.26453125,45.955,6.06127153125,33.34
2021-07-06 13:19:25.890625000,4.0,45.0,45.0,63.2615625,44.54,6.0613115625,33.34
2021-07-06 13:19:25.898437500,4.0,45.0,45.0,63.258593749999996,43.035,6.0613515937499995,33.34
2021-07-06 13:19:25.906250000,4.0,45.0,45.0,63.255625,41.53,6.061391625,33.34
2021-07-06 13:19:25.914062500,4.0,45.0,45.0,63.25265625,40.06,6.06143165625,33.34
2021-07-06 13:19:25.921875000,4.0,45.0,45.0,63.2496875,38.59,6.0614716875,33.34
2021-07-06 13:19:25.929687500,4.0,45.0,45.0,63.24671875,37.195,6.06151171875,33.34
2021-07-06 13:19:25.937500000,4.0,45.0,45.0,63.24375,35.8,6.06155175,33.34
2021-07-06 13:19:25.945312500,4.0,45.25,44.75,63.24078125,34.435,6.06159178125,33.34
2021-07-06 13:19:25.953125000,4.0,45.5,44.5,63.2378125,33.07,6.0616318125,33.34
2021-07-06 13:19:25.960937500,4.0,45.75,44.25,63.234843749999996,31.65,6.06167184375,33.34
2021-07-06 13:19:25.968750000,4.0,46.0,44.0,63.231875,30.23,6.061711875,33.34
2021-07-06 13:19:25.976562500,4.0,45.75,44.25,63.22890625,28.66,6.0617519062500005,33.34
2021-07-06 13:19:25.984375000,4.0,45.5,44.5,63.2259375,27.09,6.0617919375,33.34
2021-07-06 13:19:25.992187500,4.0,45.25,44.75,63.22296875,25.345,6.06183196875,33.34
2021-07-06 13:19:26.000000000,4.0,45.0,45.0,63.22,23.6,6.061872,33.34
2021-07-06 13:19:26.007812500,4.0,45.25,44.75,63.216953124999996,21.72,6.0615517500000005,33.3409375
2021-07-06 13:19:26.015625000,4.0,45.5,44.5,63.21390625,19.84,6.0612315,33.341875
2021-07-06 13:19:26.023437500,4.0,45.75,44.25,63.210859375,17.945,6.06091125,33.3428125
2021-07-06 13:19:26.031250000,4.0,46.0,44.0,63.207812499999996,16.05,6.0605910000000005,33.34375
2021-07-06 13:19:26.039062500,4.0,46.0,44.0,63.204765625,14.255,6.06027075,33.3446875
2021-07-06 13:19:26.046875000,4.0,46.0,44.0,63.20171875,12.46,6.0599505,33.345625000000005
2021-07-06 13:19:26.054687500,4.0,46.0,44.0,63.198671875,10.81,6.0596302500000006,33.346562500000005
2021-07-06 13:19:26.062500000,4.0,46.0,44.0,63.195625,9.16,6.05931,33.347500000000004
2021-07-06 13:19:26.070312500,4.0,45.75,44.25,63.192578125,7.62,6.05898975,33.3484375
2021-07-06 13:19:26.078125000,4.0,45.5,44.5,63.18953125,6.08,6.058669500000001,33.349375
2021-07-06 13:19:26.085937500,4.0,45.25,44.75,63.186484375,4.5,6.05834925,33.3503125
2021-07-06 13:19:26.093750000,4.0,45.0,45.0,63.1834375,2.92,6.058029,33.35125
2021-07-06 13:19:26.101562500,4.0,45.0,44.75,63.180390625,1.16,6.057708750000001,33.3521875
2021-07-06 13:19:26.109375000,4.0,45.0,44.5,63.17734375,-0.6,6.0573885,33.353125
2021-07-06 13:19:26.117187500,4.0,45.0,44.25,63.174296874999996,-2.6350000000000002,6.05706825,33.3540625
2021-07-06 13:19:26.125000000,4.0,45.0,44.0,63.17125,-4.67,6.056748000000001,33.355000000000004
2021-07-06 13:19:26.132812500,4.0,45.25,44.0,63.168203125,-6.965,6.05642775,33.3559375
2021-07-06 13:19:26.140625000,4.0,45.5,44.0,63.165156249999995,-9.26,6.0561075,33.356875
2021-07-06 13:19:26.148437500,4.0,45.75,44.0,63.162109375,-11.684999999999999,6.05578725,33.3578125
2021-07-06 13:19:26.156250000,4.0,46.0,44.0,63.1590625,-14.11,6.055467,33.35875
2021-07-06 13:19:26.164062500,4.0,45.75,44.25,63.156015625,-16.525,6.0551467500000005,33.3596875
2021-07-06 13:19:26.171875000,4.0,45.5,44.5,63.15296875,-18.94,6.0548265,33.360625
2021-07-06 13:19:26.179687500,4.0,45.25,44.75,63.149921875,-21.255000000000003,6.05450625,33.3615625
2021-07-06 13:19:26.187500000,4.0,45.0,45.0,63.146875,-23.57,6.0541860000000005,33.3625
2021-07-06 13:19:26.195312500,4.0,45.0,45.0,63.143828125,-25.78,6.05386575,33.363437499999996
2021-07-06 13:19:26.203125000,4.0,45.0,45.0,63.140781249999996,-27.99,6.0535455,33.364374999999995
2021-07-06 13:19:26.210937500,4.0,45.0,45.0,63.137734375,-30.185000000000002,6.053225250000001,33.3653125
2021-07-06 13:19:26.218750000,4.0,45.0,45.0,63.1346875,-32.38,6.052905,33.36625
2021-07-06 13:19:26.226562500,4.0,45.0,45.0,63.131640624999996,-34.745000000000005,6.05258475,33.3671875
2021-07-06 13:19:26.234375000,4.0,45.0,45.0,63.12859375,-37.11,6.052264500000001,33.368125
2021-07-06 13:19:26.242187500,4.0,45.0,45.0,63.125546875,-39.825,6.05194425,33.3690625
2021-07-06 13:19:26.250000000,4.0,45.0,45.0,63.1225,-42.54,6.051624,33.37
2021-07-06 13:19:26.257812500,4.0,45.0,45.0,63.119453125,-45.735,6.051704062500001,33.37
2021-07-06 13:19:26.265625000,4.0,45.0,45.0,63.11640625,-48.93,6.051784125,33.37
2021-07-06 13:19:26.273437500,4.0,45.0,45.0,63.113359375,-52.625,6.0518641875000005,33.37
2021-07-06 13:19:26.281250000,4.0,45.0,45.0,63.1103125,-56.32,6.05194425,33.37
2021-07-06 13:19:26.289062500,4.0,45.25,45.0,63.107265625,-60.345,6.0520243125,33.37
2021-07-06 13:19:26.296875000,4.0,45.5,45.0,63.10421875,-64.37,6.052104375,33.37
2021-07-06 13:19:26.304687500,4.0,45.75,45.0,63.101171875,-68.345,6.0521844375,33.37
2021-07-06 13:19:26.312500000,4.0,46.0,45.0,63.098124999999996,-72.32,6.0522645,33.37
2021-07-06 13:19:26.320312500,4.0,45.75,45.0,63.095078125,-75.66499999999999,6.0523445625,33.37
2021-07-06 13:19:26.328125000,4.0,45.5,45.0,63.09203125,-79.01,6.0524246250000004,33.37
2021-07-06 13:19:26.335937500,4.0,45.25,45.0,63.088984374999995,-81.055,6.0525046875,33.37
2021-07-06 13:19:26.343750000,4.0,45.0,45.0,63.0859375,-83.1,6.05258475,33.37
2021-07-06 13:19:26.351562500,4.0,45.0,44.75,63.082890625,-83.285,6.0526648125,33.37
2021-07-06 13:19:26.359375000,4.0,45.0,44.5,63.07984375,-83.47,6.052744875,33.37
2021-07-06 13:19:26.367187500,4.0,45.0,44.25,63.076796875,-81.53999999999999,6.0528249375,33.37
2021-07-06 13:19:26.375000000,4.0,45.0,44.0,63.07375,-79.61,6.052905,33.37
2021-07-06 13:19:26.382812500,4.0,45.0,44.0,63.070703125,-75.695,6.0529850625,33.37
2021-07-06 13:19:26.390625000,4.0,45.0,44.0,63.06765625,-71.78,6.053065125,33.37
2021-07-06 13:19:26.398437500,4.0,45.0,44.0,63.064609374999996,-66.395,6.0531451875,33.37
2021-07-06 13:19:26.406250000,4.0,45.0,44.0,63.0615625,-61.01,6.05322525,33.37
2021-07-06 13:19:26.414062500,4.0,45.0,44.0,63.058515625,-54.885,6.0533053125,33.37
2021-07-06 13:19:26.421875000,4.0,45.0,44.0,63.055468749999996,-48.76,6.0533853749999995,33.37
2021-07-06 13:19:26.429687500,4.0,45.0,44.0,63.052421875,-42.58,6.0534654375,33.37
2021-07-06 13:19:26.437500000,4.0,45.0,44.0,63.049375,-36.4,6.0535455,33.37
2021-07-06 13:19:26.445312500,4.0,45.25,44.0,63.046328124999995,-30.625,6.0536255625,33.37
2021-07-06 13:19:26.453125000,4.0,45.5,44.0,63.04328125,-24.85,6.053705625,33.37
2021-07-06 13:19:26.460937500,4.0,45.75,44.0,63.040234375,-19.675,6.0537856875,33.37
2021-07-06 13:19:26.468750000,4.0,46.0,44.0,63.0371875,-14.5,6.05386575,33.37
2021-07-06 13:19:26.476562500,4.0,45.75,44.0,63.034140625,-9.885,6.053945812499999,33.37
2021-07-06 13:19:26.484375000,4.0,45.5,44.0,63.03109375,-5.27,6.054025875,33.37
2021-07-06 13:19:26.492187500,4.0,45.25,44.0,63.028046875,-1.0999999999999996,6.054105937499999,33.37
2021-07-06 13:19:26.500000000,4.0,45.0,44.0,63.025,3.07,6.054186,33.37
2021-07-06 13:19:26.507812500,4.0,45.0,44.25,63.021953124999996,6.859999999999999,6.05366559375,33.37
2021-07-06 13:19:26.515625000,4.0,45.0,44.5,63.01890625,10.65,6.053145187499999,33.37
2021-07-06 13:19:26.523437500,4.0,45.0,44.75,63.015859375,14.055,6.05262478125,33.37
2021-07-06 13:19:26.531250000,4.0,45.0,45.0,63.012812499999995,17.46,6.052104375,33.37
2021-07-06 13:19:26.539062500,4.0,45.0,45.0,63.009765625,20.415,6.051583968749999,33.37
2021-07-06 13:19:26.546875000,4.0,45.0,45.0,63.00671875,23.37,6.0510635624999995,33.37
2021-07-06 13:19:26.554687500,4.0,45.0,45.0,63.003671875,25.82,6.05054315625,33.37
2021-07-06 13:19:26.562500000,4.0,45.0,45.0,63.000625,28.27,6.05002275,33.37
2021-07-06 13:19:26.570312500,4.25,45.0,45.0,62.997578125,30.225,6.0495023437499995,33.37
2021-07-06 13:19:26.578125000,4.5,45.0,45.0,62.99453125,32.18,6.0489819375,33.37
2021-07-06 13:19:26.585937500,4.75,45.0,45.0,62.991484375,33.7,6.04846153125,33.37
2021-07-06 13:19:26.593750000,5.0,45.0,45.0,62.988437499999996,35.22,6.0479411249999995,33.37
2021-07-06 13:19:26.601562500,4.75,45.0,45.0,62.985390625,36.405,6.04742071875,33.37
2021-07-06 13:19:26.609375000,4.5,45.0,45.0,62.98234375,37.59,6.0469003125,33.37
2021-07-06 13:19:26.617187500,4.25,45.0,45.0,62.979296874999996,38.53,6.046379906249999,33.37
2021-07-06 13:19:26.625000000,4.0,45.0,45.0,62.97625,39.47,6.0458595,33.37
2021-07-06 13:19:26.632812500,4.0,45.0,44.75,62.973203125,40.254999999999995,6.04533909375,33.37
2021-07-06 13:19:26.640625000,4.0,45.0,44.5,62.970156249999995,41.04,6.044818687499999,33.37
2021-07-06 13:19:26.648437500,4.0,45.0,44.25,62.967109375,41.735,6.04429828125,33.37
2021-07-06 13:19:26.656250000,4.0,45.0,44.0,62.9640625,42.43,6.043777875,33.37
2021-07-06 13:19:26.664062500,4.25,45.0,44.25,62.961015625,43.075,6.043257468749999,33.37
2021-07-06 13:19:26.671875000,4.5,45.0,44.5,62.95796875,43.72,6.0427370625,33.37
2021-07-06 13:19:26.679687500,4.75,45.0,44.75,62.954921875,44.36,6.04221665625,33.37
2021-07-06 13:19:26.687500000,5.0,45.0,45.0,62.951875,45.0,6.041696249999999,33.37
2021-07-06 13:19:26.695312500,4.75,45.0,45.0,62.948828125,45.665,6.04117584375,33.37
2021-07-06 13:19:26.703125000,4.5,45.0,45.0,62.945781249999996,46.33,6.0406554375,33.37
2021-07-06 13:19:26.710937500,4.25,45.0,45.0,62.942734375,47.035,6.04013503125,33.37
2021-07-06 13:19:26.718750000,4.0,45.0,45.0,62.9396875,47.74,6.039614625,33.37
2021-07-06 13:19:26.726562500,4.0,45.0,44.75,62.936640624999995,48.475,6.03909421875,33.37
2021-07-06 13:19:26.734375000,4.0,45.0,44.5,62.93359375,49.21,6.0385738125,33.37
2021-07-06 13:19:26.742187500,4.0,45.0,44.25,62.930546875,49.925,6.0380534062499995,33.37
2021-07-06 13:19:26.750000000,4.0,45.0,44.0,62.927499999999995,50.64,6.037533,33.37
2021-07-06 13:19:26.757812500,4.0,45.0,44.25,62.924453125,51.24,6.037693125,33.37
2021-07-06 13:19:26.765625000,4.0,45.0,44.5,62.92140625,51.84,6.0378532499999995,33.37
2021-07-06 13:19:26.773437500,4.0,45.0,44.75,62.918359375,52.21,6.038013375,33.37
2021-07-06 13:19:26.781250000,4.0,45.0,45.0,62.9153125,52.58,6.0381735,33.37
2021-07-06 13:19:26.789062500,4.0,45.0,44.75,62.912265624999996,52.599999999999994,6.038333625,33.37
2021-07-06 13:19:26.796875000,4.0,45.0,44.5,62.90921875,52.62,6.03849375,33.37
2021-07-06 13:19:26.804687500,4.0,45.0,44.25,62.906171875,52.230000000000004,6.038653875,33.37
2021-07-06 13:19:26.812500000,4.0,45.0,44.0,62.903124999999996,51.84,6.038814,33.37
2021-07-06 13:19:26.820312500,4.0,45.0,44.0,62.900078125,51.07,6.038974125,33.37
2021-07-06 13:19:26.828125000,4.0,45.0,44.0,62.89703125,50.3,6.03913425,33.37
2021-07-06 13:19:26.835937500,4.0,45.0,44.0,62.893984374999995,49.25,6.039294375,33.37
2021-07-06 13:19:26.843750000,4.0,45.0,44.0,62.8909375,48.2,6.0394545,33.37
2021-07-06 13:19:26.851562500,4.0,45.0,44.25,62.887890625,47.035,6.039614625,33.37
2021-07-06 13:19:26.859375000,4.0,45.0,44.5,62.88484375,45.87,6.03977475,33.37
2021-07-06 13:19:26.867187500,4.0,45.0,44.75,62.881796875,44.735,6.039934875,33.37
2021-07-06 13:19:26.875000000,4.0,45.0,45.0,62.87875,43.6,6.040095,33.37
2021-07-06 13:19:26.882812500,4.0,45.0,45.0,62.875703125,42.55,6.040255125,33.37
2021-07-06 13:19:26.890625000,4.0,45.0,45.0,62.87265625,41.5,6.04041525,33.37
2021-07-06 13:19:26.898437500,4.0,45.0,45.0,62.869609374999996,40.5,6.040575375,33.37
2021-07-06 13:19:26.906250000,4.0,45.0,45.0,62.8665625,39.5,6.0407355,33.37
2021-07-06 13:19:26.914062500,4.25,45.0,44.75,62.863515625,38.425,6.040895625,33.37
2021-07-06 13:19:26.921875000,4.5,45.0,44.5,62.860468749999995,37.35,6.04105575,33.37
2021-07-06 13:19:26.929687500,4.75,45.0,44.25,62.857421875,36.055,6.041215875,33.37
2021-07-06 13:19:26.937500000,5.0,45.0,44.0,62.854375,34.76,6.041376,33.37
2021-07-06 13:19:26.945312500,4.75,45.0,44.25,62.851328124999995,33.15,6.041536125,33.37
2021-07-06 13:19:26.953125000,4.5,45.0,44.5,62.84828125,31.54,6.04169625,33.37
2021-07-06 13:19:26.960937500,4.25,45.0,44.75,62.845234375,29.615000000000002,6.041856375,33.37
2021-07-06 13:19:26.968750000,4.0,45.0,45.0,62.8421875,27.69,6.0420165,33.37
2021-07-06 13:19:26.976562500,4.25,45.0,45.0,62.839140625,25.53,6.042176625,33.37
2021-07-06 13:19:26.984375000,4.5,45.0,45.0,62.836093749999996,23.37,6.0423367500000005,33.37
2021-07-06 13:19:26.992187500,4.75,45.0,45.0,62.833046875,21.12,6.042496875,33.37
2021-07-06 13:19:27.000000000,5.0,45.0,45.0,62.83,18.87,6.042657,33.37
2021-07-06 13:19:27.007812500,5.0,45.0,44.75,62.8271875,16.69,6.0424168125,33.37
2021-07-06 13:19:27.015625000,5.0,45.0,44.5,62.824374999999996,14.51,6.042176625,33.37
2021-07-06 13:19:27.023437500,5.0,45.0,44.25,62.8215625,12.515,6.0419364375,33.37
2021-07-06 13:19:27.031250000,5.0,45.0,44.0,62.81875,10.52,6.04169625,33.37
2021-07-06 13:19:27.039062500,4.75,45.0,44.25,62.8159375,8.725,6.0414560625,33.37
2021-07-06 13:19:27.046875000,4.5,45.0,44.5,62.813125,6.93,6.041215875,33.37
2021-07-06 13:19:27.054687500,4.25,45.0,44.75,62.810312499999995,5.234999999999999,6.0409756875000005,33.37
2021-07-06 13:19:27.062500000,4.0,45.0,45.0,62.8075,3.54,6.0407355,33.37
2021-07-06 13:19:27.070312500,4.0,45.0,44.75,62.8046875,1.785,6.0404953125,33.37
