TimeStamp,empatica.acc.x,empatica.acc.y,empatica.acc.z,empatica.hr,empatica.bvp,empatica.eda,empatica.temp
2021-06-21 16:21:38.851562500,-57.0,-0.75,32.25,97.160390625,62.265,0.0484388125,31.67
2021-06-21 16:21:38.859375000,-57.0,-0.5,32.5,97.15984375000001,61.13,0.048518875,31.67
2021-06-21 16:21:38.867187500,-57.0,-0.25,32.75,97.15929687500001,59.715,0.0485989375,31.67
2021-06-21 16:21:38.875000000,-57.0,0.0,33.0,97.15875,58.3,0.048679,31.67
2021-06-21 16:21:38.882812500,-56.75,0.0,33.0,97.158203125,56.765,0.0487590625,31.67
2021-06-21 16:21:38.890625000,-56.5,0.0,33.0,97.15765625,55.23,0.048839125,31.67
2021-06-21 16:21:38.898437500,-56.25,0.0,33.0,97.157109375,53.745,0.0489191875,31.67
2021-06-21 16:21:38.906250000,-56.0,0.0,33.0,97.1565625,52.26,0.04899925,31.67
2021-06-21 16:21:38.914062500,-56.25,0.25,33.0,97.15601562500001,50.97,0.0490793125,31.67
2021-06-21 16:21:38.921875000,-56.5,0.5,33.0,97.15546875000001,49.68,0.049159375,31.67
2021-06-21 16:21:38.929687500,-56.75,0.75,33.0,97.154921875,48.655,0.0492394375,31.67
2021-06-21 16:21:38.937500000,-57.0,1.0,33.0,97.154375,47.63,0.0493195,31.67
2021-06-21 16:21:38.945312500,-56.5,1.0,33.25,97.153828125,46.835,0.0493995625,31.67
2021-06-21 16:21:38.953125000,-56.0,1.0,33.5,97.15328125,46.04,0.049479625,31.67
2021-06-21 16:21:38.960937500,-55.5,1.0,33.75,97.15273437500001,45.370000000000005,0.0495596875,31.67
2021-06-21 16:21:38.968750000,-55.0,1.0,34.0,97.15218750000001,44.7,0.049639749999999996,31.67
2021-06-21 16:21:38.976562500,-55.0,0.75,34.0,97.151640625,43.995000000000005,0.049719812499999995,31.67
2021-06-21 16:21:38.984375000,-55.0,0.5,34.0,97.15109375,43.29,0.049799875,31.67
2021-06-21 16:21:38.992187500,-55.0,0.25,34.0,97.150546875,42.385,0.0498799375,31.67
2021-06-21 16:21:39.000000000,-55.0,0.0,34.0,97.15,41.48,0.04996,31.67
2021-06-21 16:21:39.007812500,-55.25,-0.25,33.75,97.149375,40.239999999999995,0.0498799375,31.668750000000003
2021-06-21 16:21:39.015625000,-55.5,-0.5,33.5,97.14875,39.0,0.049799875,31.6675
2021-06-21 16:21:39.023437500,-55.75,-0.75,33.25,97.14812500000001,37.370000000000005,0.049719812499999995,31.66625
2021-06-21 16:21:39.031250000,-56.0,-1.0,33.0,97.14750000000001,35.74,0.049639749999999996,31.665000000000003
2021-06-21 16:21:39.039062500,-56.0,-0.75,33.0,97.14687500000001,33.715,0.0495596875,31.66375
2021-06-21 16:21:39.046875000,-56.0,-0.5,33.0,97.14625000000001,31.69,0.049479625,31.6625
2021-06-21 16:21:39.054687500,-56.0,-0.25,33.0,97.14562500000001,29.310000000000002,0.0493995625,31.661250000000003
2021-06-21 16:21:39.062500000,-56.0,0.0,33.0,97.14500000000001,26.93,0.0493195,31.66
2021-06-21 16:21:39.070312500,-56.0,0.0,33.0,97.14437500000001,24.28,0.0492394375,31.65875
2021-06-21 16:21:39.078125000,-56.0,0.0,33.0,97.14375000000001,21.63,0.049159375,31.657500000000002
2021-06-21 16:21:39.085937500,-56.0,0.0,33.0,97.143125,18.805,0.0490793125,31.65625
2021-06-21 16:21:39.093750000,-56.0,0.0,33.0,97.1425,15.98,0.04899925,31.655
2021-06-21 16:21:39.101562500,-56.0,0.0,33.0,97.141875,13.075,0.0489191875,31.653750000000002
2021-06-21 16:21:39.109375000,-56.0,0.0,33.0,97.14125,10.17,0.048839125,31.6525
2021-06-21 16:21:39.117187500,-56.0,0.0,33.0,97.140625,7.24,0.0487590625,31.65125
2021-06-21 16:21:39.125000000,-56.0,0.0,33.0,97.14,4.31,0.048679,31.65
2021-06-21 16:21:39.132812500,-56.0,0.25,33.25,97.139375,1.3399999999999999,0.0485989375,31.64875
2021-06-21 16:21:39.140625000,-56.0,0.5,33.5,97.13875,-1.63,0.048518875,31.6475
2021-06-21 16:21:39.148437500,-56.0,0.75,33.75,97.138125,-4.755,0.0484388125,31.64625
2021-06-21 16:21:39.156250000,-56.0,1.0,34.0,97.1375,-7.88,0.04835875,31.645
2021-06-21 16:21:39.164062500,-56.0,0.75,33.75,97.136875,-11.345,0.0482786875,31.64375
2021-06-21 16:21:39.171875000,-56.0,0.5,33.5,97.13625,-14.81,0.048198625,31.6425
2021-06-21 16:21:39.179687500,-56.0,0.25,33.25,97.135625,-18.805,0.0481185625,31.64125
2021-06-21 16:21:39.187500000,-56.0,0.0,33.0,97.135,-22.8,0.0480385,31.64
2021-06-21 16:21:39.195312500,-56.0,0.0,33.0,97.134375,-27.365000000000002,0.0479584375,31.638749999999998
2021-06-21 16:21:39.203125000,-56.0,0.0,33.0,97.13375,-31.93,0.047878375,31.6375
2021-06-21 16:21:39.210937500,-56.0,0.0,33.0,97.133125,-36.86,0.0477983125,31.63625
2021-06-21 16:21:39.218750000,-56.0,0.0,33.0,97.13250000000001,-41.79,0.047718250000000004,31.634999999999998
2021-06-21 16:21:39.226562500,-55.75,0.0,33.0,97.13187500000001,-46.515,0.047638187500000005,31.63375
2021-06-21 16:21:39.234375000,-55.5,0.0,33.0,97.13125000000001,-51.24,0.047558125,31.6325
2021-06-21 16:21:39.242187500,-55.25,0.0,33.0,97.13062500000001,-54.905,0.0474780625,31.631249999999998
2021-06-21 16:21:39.250000000,-55.0,0.0,33.0,97.13,-58.57,0.047398,31.63
2021-06-21 16:21:39.257812500,-55.25,-0.25,33.0,97.129375,-60.269999999999996,0.047518093750000004,31.63
2021-06-21 16:21:39.265625000,-55.5,-0.5,33.0,97.12875,-61.97,0.047638187500000005,31.63
2021-06-21 16:21:39.273437500,-55.75,-0.75,33.0,97.128125,-61.035,0.04775828125,31.63
2021-06-21 16:21:39.281250000,-56.0,-1.0,33.0,97.1275,-60.1,0.047878375,31.63
2021-06-21 16:21:39.289062500,-56.0,-1.0,33.25,97.126875,-56.375,0.04799846875,31.63
2021-06-21 16:21:39.296875000,-56.0,-1.0,33.5,97.12625,-52.65,0.0481185625,31.63
2021-06-21 16:21:39.304687500,-56.0,-1.0,33.75,97.125625,-46.59,0.048238656250000005,31.63
2021-06-21 16:21:39.312500000,-56.0,-1.0,34.0,97.125,-40.53,0.048358750000000006,31.63
2021-06-21 16:21:39.320312500,-56.0,-0.75,34.0,97.124375,-33.075,0.04847884375,31.63
2021-06-21 16:21:39.328125000,-56.0,-0.5,34.0,97.12375,-25.62,0.0485989375,31.63
2021-06-21 16:21:39.335937500,-56.0,-0.25,34.0,97.123125,-17.885,0.04871903125,31.63
2021-06-21 16:21:39.343750000,-56.0,0.0,34.0,97.1225,-10.15,0.048839125000000004,31.63
2021-06-21 16:21:39.351562500,-56.0,0.0,33.75,97.121875,-3.075,0.048959218750000005,31.63
2021-06-21 16:21:39.359375000,-56.0,0.0,33.5,97.12125,4.0,0.0490793125,31.63
2021-06-21 16:21:39.367187500,-56.0,0.0,33.25,97.120625,9.86,0.04919940625,31.63
2021-06-21 16:21:39.375000000,-56.0,0.0,33.0,97.12,15.72,0.0493195,31.63
2021-06-21 16:21:39.382812500,-56.0,0.0,33.0,97.119375,20.23,0.049439593750000004,31.63
2021-06-21 16:21:39.390625000,-56.0,0.0,33.0,97.11875,24.74,0.049559687500000005,31.63
2021-06-21 16:21:39.398437500,-56.0,0.0,33.0,97.118125,28.034999999999997,0.04967978125,31.63
2021-06-21 16:21:39.406250000,-56.0,0.0,33.0,97.1175,31.33,0.049799875,31.63
2021-06-21 16:21:39.414062500,-56.0,0.0,33.0,97.11687500000001,33.625,0.04991996875,31.63
2021-06-21 16:21:39.421875000,-56.0,0.0,33.0,97.11625,35.92,0.0500400625,31.63
2021-06-21 16:21:39.429687500,-56.0,0.0,33.0,97.115625,37.39,0.050160156250000004,31.63
2021-06-21 16:21:39.437500000,-56.0,0.0,33.0,97.115,38.86,0.05028025,31.63
2021-06-21 16:21:39.445312500,-56.25,0.0,33.0,97.114375,39.644999999999996,0.05040034375,31.63
2021-06-21 16:21:39.453125000,-56.5,0.0,33.0,97.11375,40.43,0.0505204375,31.63
2021-06-21 16:21:39.460937500,-56.75,0.0,33.0,97.113125,40.675,0.05064053125,31.63
2021-06-21 16:21:39.468750000,-57.0,0.0,33.0,97.1125,40.92,0.050760625000000004,31.63
2021-06-21 16:21:39.476562500,-56.75,0.0,33.0,97.111875,40.815,0.050880718750000005,31.63
2021-06-21 16:21:39.484375000,-56.5,0.0,33.0,97.11125,40.71,0.0510008125,31.63
2021-06-21 16:21:39.492187500,-56.25,0.0,33.0,97.110625,40.504999999999995,0.05112090625,31.63
2021-06-21 16:21:39.500000000,-56.0,0.0,33.0,97.11,40.3,0.051241,31.63
2021-06-21 16:21:39.507812500,-56.0,0.0,33.0,97.109375,40.19,0.0511609375,31.63
2021-06-21 16:21:39.515625000,-56.0,0.0,33.0,97.10875,40.08,0.051080875000000005,31.63
2021-06-21 16:21:39.523437500,-56.0,0.0,33.0,97.108125,40.185,0.0510008125,31.63
2021-06-21 16:21:39.531250000,-56.0,0.0,33.0,97.1075,40.29,0.05092075,31.63
2021-06-21 16:21:39.539062500,-56.0,0.25,33.0,97.106875,40.585,0.0508406875,31.63
2021-06-21 16:21:39.546875000,-56.0,0.5,33.0,97.10625,40.88,0.050760625000000004,31.63
2021-06-21 16:21:39.554687500,-56.0,0.75,33.0,97.105625,41.265,0.0506805625,31.63
2021-06-21 16:21:39.562500000,-56.0,1.0,33.0,97.105,41.65,0.0506005,31.63
2021-06-21 16:21:39.570312500,-56.0,1.0,33.0,97.104375,42.004999999999995,0.0505204375,31.63
2021-06-21 16:21:39.578125000,-56.0,1.0,33.0,97.10375,42.36,0.050440375,31.63
2021-06-21 16:21:39.585937500,-56.0,1.0,33.0,97.10312499999999,42.644999999999996,0.050360312500000004,31.63
2021-06-21 16:21:39.593750000,-56.0,1.0,33.0,97.10249999999999,42.93,0.05028025,31.63
2021-06-21 16:21:39.601562500,-55.75,0.75,33.0,97.10187499999999,43.155,0.0502001875,31.63
2021-06-21 16:21:39.609375000,-55.5,0.5,33.0,97.10125,43.38,0.050120125,31.63
2021-06-21 16:21:39.617187500,-55.25,0.25,33.0,97.100625,43.595,0.0500400625,31.63
2021-06-21 16:21:39.625000000,-55.0,0.0,33.0,97.1,43.81,0.049960000000000004,31.63
2021-06-21 16:21:39.632812500,-55.25,0.0,33.0,97.099375,44.040000000000006,0.0498799375,31.63
2021-06-21 16:21:39.640625000,-55.5,0.0,33.0,97.09875,44.27,0.049799875,31.63
2021-06-21 16:21:39.648437500,-55.75,0.0,33.0,97.098125,44.465,0.0497198125,31.63
2021-06-21 16:21:39.656250000,-56.0,0.0,33.0,97.0975,44.66,0.04963975,31.63
2021-06-21 16:21:39.664062500,-56.25,0.0,33.0,97.096875,44.69,0.0495596875,31.63
2021-06-21 16:21:39.671875000,-56.5,0.0,33.0,97.09625,44.72,0.049479625,31.63
2021-06-21 16:21:39.679687500,-56.75,0.0,33.0,97.095625,44.46,0.0493995625,31.63
2021-06-21 16:21:39.687500000,-57.0,0.0,33.0,97.095,44.2,0.0493195,31.63
2021-06-21 16:21:39.695312500,-56.75,-0.25,33.0,97.094375,43.585,0.0492394375,31.63
2021-06-21 16:21:39.703125000,-56.5,-0.5,33.0,97.09375,42.97,0.049159375,31.63
2021-06-21 16:21:39.710937500,-56.25,-0.75,33.0,97.093125,42.04,0.0490793125,31.63
2021-06-21 16:21:39.718750000,-56.0,-1.0,33.0,97.0925,41.11,0.04899925,31.63
2021-06-21 16:21:39.726562500,-56.0,-0.75,33.0,97.091875,39.985,0.0489191875,31.63
2021-06-21 16:21:39.734375000,-56.0,-0.5,33.0,97.09125,38.86,0.048839125,31.63
2021-06-21 16:21:39.742187500,-56.0,-0.25,33.0,97.090625,37.69,0.0487590625,31.63
2021-06-21 16:21:39.750000000,-56.0,0.0,33.0,97.09,36.52,0.048679,31.63
2021-06-21 16:21:39.757812500,-56.0,0.0,33.25,97.08937499999999,35.355000000000004,0.0487590625,31.63
2021-06-21 16:21:39.765625000,-56.0,0.0,33.5,97.08874999999999,34.19,0.048839125,31.63
2021-06-21 16:21:39.773437500,-56.0,0.0,33.75,97.08812499999999,32.964999999999996,0.0489191875,31.63
2021-06-21 16:21:39.781250000,-56.0,0.0,34.0,97.08749999999999,31.74,0.04899925,31.63
2021-06-21 16:21:39.789062500,-56.0,0.0,34.0,97.08687499999999,30.255,0.0490793125,31.63
2021-06-21 16:21:39.796875000,-56.0,0.0,34.0,97.08624999999999,28.77,0.049159375,31.63
2021-06-21 16:21:39.804687500,-56.0,0.0,34.0,97.085625,26.799999999999997,0.049239437500000004,31.63
2021-06-21 16:21:39.812500000,-56.0,0.0,34.0,97.085,24.83,0.0493195,31.63
2021-06-21 16:21:39.820312500,-56.0,0.0,33.75,97.084375,22.145,0.0493995625,31.63
2021-06-21 16:21:39.828125000,-56.0,0.0,33.5,97.08375,19.46,0.049479625,31.63
2021-06-21 16:21:39.835937500,-56.0,0.0,33.25,97.083125,15.935,0.0495596875,31.63
2021-06-21 16:21:39.843750000,-56.0,0.0,33.0,97.0825,12.41,0.04963975,31.63
2021-06-21 16:21:39.851562500,-56.0,-0.25,33.0,97.081875,8.02,0.0497198125,31.63
2021-06-21 16:21:39.859375000,-56.0,-0.5,33.0,97.08125,3.63,0.049799875,31.63
2021-06-21 16:21:39.867187500,-56.0,-0.75,33.0,97.080625,-1.545,0.0498799375,31.63
2021-06-21 16:21:39.875000000,-56.0,-1.0,33.0,97.08,-6.72,0.049960000000000004,31.63
2021-06-21 16:21:39.882812500,-56.0,-0.75,33.0,97.079375,-12.43,0.0500400625,31.63
2021-06-21 16:21:39.890625000,-56.0,-0.5,33.0,97.07875,-18.14,0.050120125,31.63
2021-06-21 16:21:39.898437500,-56.0,-0.25,33.0,97.078125,-23.91,0.0502001875,31.63
2021-06-21 16:21:39.906250000,-56.0,0.0,33.0,97.0775,-29.68,0.05028025,31.63
2021-06-21 16:21:39.914062500,-56.0,0.25,33.0,97.076875,-34.85,0.050360312500000004,31.63
2021-06-21 16:21:39.921875000,-56.0,0.5,33.0,97.07624999999999,-40.02,0.050440375,31.63
2021-06-21 16:21:39.929687500,-56.0,0.75,33.0,97.07562499999999,-43.8,0.0505204375,31.63
2021-06-21 16:21:39.937500000,-56.0,1.0,33.0,97.07499999999999,-47.58,0.0506005,31.63
2021-06-21 16:21:39.945312500,-56.0,1.0,33.0,97.07437499999999,-49.269999999999996,0.0506805625,31.63
2021-06-21 16:21:39.953125000,-56.0,1.0,33.0,97.07374999999999,-50.96,0.050760625000000004,31.63
2021-06-21 16:21:39.960937500,-56.0,1.0,33.0,97.07312499999999,-50.175,0.0508406875,31.63
2021-06-21 16:21:39.968750000,-56.0,1.0,33.0,97.07249999999999,-49.39,0.05092075,31.63
2021-06-21 16:21:39.976562500,-56.25,0.75,33.0,97.07187499999999,-46.235,0.0510008125,31.63
2021-06-21 16:21:39.984375000,-56.5,0.5,33.0,97.07124999999999,-43.08,0.051080875000000005,31.63
2021-06-21 16:21:39.992187500,-56.75,0.25,33.0,97.07062499999999,-38.14,0.0511609375,31.63
2021-06-21 16:21:40.000000000,-57.0,0.0,33.0,97.07,-33.2,0.051241,31.63
2021-06-21 16:21:40.007812500,-56.75,0.0,33.0,97.06906249999999,-27.37,0.05112090625,31.630625
2021-06-21 16:21:40.015625000,-56.5,0.0,33.0,97.068125,-21.54,0.0510008125,31.631249999999998
2021-06-21 16:21:40.023437500,-56.25,0.0,33.0,97.06718749999999,-15.715,0.050880718750000005,31.631874999999997
2021-06-21 16:21:40.031250000,-56.0,0.0,33.0,97.06625,-9.89,0.050760625000000004,31.6325
2021-06-21 16:21:40.039062500,-56.0,0.0,33.0,97.06531249999999,-4.71,0.05064053125,31.633125
2021-06-21 16:21:40.046875000,-56.0,0.0,33.0,97.064375,0.47,0.0505204375,31.63375
2021-06-21 16:21:40.054687500,-56.0,0.0,33.0,97.06343749999999,4.709999999999999,0.05040034375,31.634375
2021-06-21 16:21:40.062500000,-56.0,0.0,33.0,97.0625,8.95,0.05028025,31.634999999999998
2021-06-21 16:21:40.070312500,-56.0,0.0,33.0,97.0615625,12.265,0.050160156250000004,31.635624999999997
2021-06-21 16:21:40.078125000,-56.0,0.0,33.0,97.06062499999999,15.58,0.0500400625,31.63625
2021-06-21 16:21:40.085937500,-56.0,0.0,33.0,97.0596875,18.11,0.04991996875,31.636875
2021-06-21 16:21:40.093750000,-56.0,0.0,33.0,97.05874999999999,20.64,0.049799875,31.6375
2021-06-21 16:21:40.101562500,-56.0,0.0,33.0,97.0578125,22.455,0.04967978125,31.638125
2021-06-21 16:21:40.109375000,-56.0,0.0,33.0,97.05687499999999,24.27,0.049559687500000005,31.638749999999998
2021-06-21 16:21:40.117187500,-56.0,0.0,33.0,97.0559375,25.33,0.049439593750000004,31.639374999999998
2021-06-21 16:21:40.125000000,-56.0,0.0,33.0,97.05499999999999,26.39,0.0493195,31.64
2021-06-21 16:21:40.132812500,-56.25,0.25,33.0,97.0540625,26.605,0.04919940625,31.640625
2021-06-21 16:21:40.140625000,-56.5,0.5,33.0,97.053125,26.82,0.0490793125,31.64125
2021-06-21 16:21:40.148437500,-56.75,0.75,33.0,97.05218749999999,26.17,0.048959218750000005,31.641875
2021-06-21 16:21:40.156250000,-57.0,1.0,33.0,97.05125,25.52,0.048839125000000004,31.6425
2021-06-21 16:21:40.164062500,-57.0,1.0,33.0,97.05031249999999,24.174999999999997,0.04871903125,31.643124999999998
2021-06-21 16:21:40.171875000,-57.0,1.0,33.0,97.049375,22.83,0.0485989375,31.643749999999997
2021-06-21 16:21:40.179687500,-57.0,1.0,33.0,97.04843749999999,21.115,0.04847884375,31.644375
2021-06-21 16:21:40.187500000,-57.0,1.0,33.0,97.0475,19.4,0.048358750000000006,31.645
2021-06-21 16:21:40.195312500,-56.75,1.0,33.0,97.0465625,17.77,0.048238656250000005,31.645625
2021-06-21 16:21:40.203125000,-56.5,1.0,33.0,97.045625,16.14,0.0481185625,31.64625
2021-06-21 16:21:40.210937500,-56.25,1.0,33.0,97.0446875,14.98,0.04799846875,31.646874999999998
2021-06-21 16:21:40.218750000,-56.0,1.0,33.0,97.04374999999999,13.82,0.047878375,31.647499999999997
2021-06-21 16:21:40.226562500,-56.0,1.0,33.0,97.0428125,13.355,0.04775828125,31.648125
2021-06-21 16:21:40.234375000,-56.0,1.0,33.0,97.04187499999999,12.89,0.047638187500000005,31.64875
2021-06-21 16:21:40.242187500,-56.0,1.0,33.0,97.0409375,13.120000000000001,0.047518093750000004,31.649375
2021-06-21 16:21:40.250000000,-56.0,1.0,33.0,97.03999999999999,13.35,0.047398,31.65
2021-06-21 16:21:40.257812500,-56.25,1.0,32.75,97.0390625,14.120000000000001,0.047438031250000005,31.65
2021-06-21 16:21:40.265625000,-56.5,1.0,32.5,97.038125,14.89,0.0474780625,31.65
2021-06-21 16:21:40.273437500,-56.75,1.0,32.25,97.0371875,15.94,0.047518093750000004,31.65
2021-06-21 16:21:40.281250000,-57.0,1.0,32.0,97.03625,16.99,0.047558125,31.65
2021-06-21 16:21:40.289062500,-56.75,1.0,32.25,97.03531249999999,18.07,0.04759815625,31.65
2021-06-21 16:21:40.296875000,-56.5,1.0,32.5,97.034375,19.15,0.047638187500000005,31.65
2021-06-21 16:21:40.304687500,-56.25,1.0,32.75,97.03343749999999,20.064999999999998,0.04767821875,31.65
2021-06-21 16:21:40.312500000,-56.0,1.0,33.0,97.0325,20.98,0.047718250000000004,31.65
2021-06-21 16:21:40.320312500,-56.25,1.0,33.0,97.03156249999999,21.62,0.04775828125,31.65
2021-06-21 16:21:40.328125000,-56.5,1.0,33.0,97.030625,22.26,0.0477983125,31.65
2021-06-21 16:21:40.335937500,-56.75,1.0,33.0,97.0296875,22.555,0.047838343750000005,31.65
2021-06-21 16:21:40.343750000,-57.0,1.0,33.0,97.02875,22.85,0.047878375,31.65
2021-06-21 16:21:40.351562500,-56.75,1.0,33.0,97.0278125,22.79,0.047918406250000004,31.65
2021-06-21 16:21:40.359375000,-56.5,1.0,33.0,97.02687499999999,22.73,0.0479584375,31.65
2021-06-21 16:21:40.367187500,-56.25,1.0,33.0,97.0259375,22.28,0.04799846875,31.65
2021-06-21 16:21:40.375000000,-56.0,1.0,33.0,97.02499999999999,21.83,0.0480385,31.65
2021-06-21 16:21:40.382812500,-56.0,0.75,33.0,97.0240625,20.93,0.04807853125,31.65
2021-06-21 16:21:40.390625000,-56.0,0.5,33.0,97.023125,20.03,0.0481185625,31.65
2021-06-21 16:21:40.398437500,-56.0,0.25,33.0,97.0221875,18.62,0.04815859375,31.65
2021-06-21 16:21:40.406250000,-56.0,0.0,33.0,97.02125,17.21,0.048198625,31.65
2021-06-21 16:21:40.414062500,-56.0,0.0,33.0,97.0203125,15.25,0.04823865625,31.65
2021-06-21 16:21:40.421875000,-56.0,0.0,33.0,97.019375,13.29,0.0482786875,31.65
2021-06-21 16:21:40.429687500,-56.0,0.0,33.0,97.01843749999999,10.795,0.04831871875,31.65
2021-06-21 16:21:40.437500000,-56.0,0.0,33.0,97.0175,8.3,0.04835875,31.65
2021-06-21 16:21:40.445312500,-56.25,0.25,33.0,97.01656249999999,5.335000000000001,0.04839878125,31.65
2021-06-21 16:21:40.453125000,-56.5,0.5,33.0,97.015625,2.37,0.0484388125,31.65
2021-06-21 16:21:40.460937500,-56.75,0.75,33.0,97.0146875,-0.9849999999999999,0.04847884375,31.65
2021-06-21 16:21:40.468750000,-57.0,1.0,33.0,97.01375,-4.34,0.048518875,31.65
2021-06-21 16:21:40.476562500,-57.0,1.0,33.0,97.0128125,-8.045,0.04855890625,31.65
2021-06-21 16:21:40.484375000,-57.0,1.0,33.0,97.011875,-11.75,0.0485989375,31.65
2021-06-21 16:21:40.492187500,-57.0,1.0,33.0,97.0109375,-15.805,0.04863896875,31.65
2021-06-21 16:21:40.500000000,-57.0,1.0,33.0,97.00999999999999,-19.86,0.048679,31.65
2021-06-21 16:21:40.507812500,-57.0,1.0,33.0,97.0090625,-24.205,0.04863896875,31.65
2021-06-21 16:21:40.515625000,-57.0,1.0,33.0,97.00812499999999,-28.55,0.0485989375,31.65
2021-06-21 16:21:40.523437500,-57.0,1.0,33.0,97.0071875,-32.98,0.04855890625,31.65
2021-06-21 16:21:40.531250000,-57.0,1.0,33.0,97.00625,-37.41,0.048518875,31.65
2021-06-21 16:21:40.539062500,-56.75,1.0,33.0,97.0053125,-41.44499999999999,0.04847884375,31.65
2021-06-21 16:21:40.546875000,-56.5,1.0,33.0,97.004375,-45.48,0.0484388125,31.65
2021-06-21 16:21:40.554687500,-56.25,1.0,33.0,97.0034375,-48.435,0.04839878125,31.65
2021-06-21 16:21:40.562500000,-56.0,1.0,33.0,97.0025,-51.39,0.04835875,31.65
2021-06-21 16:21:40.570312500,-56.0,1.0,33.0,97.0015625,-52.56,0.04831871875,31.65
2021-06-21 16:21:40.578125000,-56.0,1.0,33.0,97.000625,-53.73,0.0482786875,31.65
2021-06-21 16:21:40.585937500,-56.0,1.0,33.0,96.9996875,-52.635,0.04823865625,31.65
2021-06-21 16:21:40.593750000,-56.0,1.0,33.0,96.99875,-51.54,0.048198625,31.65
2021-06-21 16:21:40.601562500,-56.25,0.75,33.0,96.9978125,-48.16,0.04815859375,31.65
2021-06-21 16:21:40.609375000,-56.5,0.5,33.0,96.996875,-44.78,0.0481185625,31.65
2021-06-21 16:21:40.617187500,-56.75,0.25,33.0,96.9959375,-39.620000000000005,0.04807853125,31.65
2021-06-21 16:21:40.625000000,-57.0,0.0,33.0,96.995,-34.46,0.0480385,31.65
2021-06-21 16:21:40.632812500,-57.0,0.0,32.75,96.9940625,-28.365000000000002,0.04799846875,31.65
2021-06-21 16:21:40.640625000,-57.0,0.0,32.5,96.993125,-22.27,0.0479584375,31.65
2021-06-21 16:21:40.648437500,-57.0,0.0,32.25,96.9921875,-16.16,0.047918406250000004,31.65
2021-06-21 16:21:40.656250000,-57.0,0.0,32.0,96.99125,-10.05,0.047878375,31.65
2021-06-21 16:21:40.664062500,-57.0,0.25,32.25,96.9903125,-4.635000000000001,0.047838343750000005,31.65
2021-06-21 16:21:40.671875000,-57.0,0.5,32.5,96.989375,0.78,0.0477983125,31.65
2021-06-21 16:21:40.679687500,-57.0,0.75,32.75,96.9884375,5.130000000000001,0.04775828125,31.65
2021-06-21 16:21:40.687500000,-57.0,1.0,33.0,96.9875,9.48,0.047718250000000004,31.65
2021-06-21 16:21:40.695312500,-57.0,1.0,33.0,96.9865625,12.735,0.04767821875,31.65
2021-06-21 16:21:40.703125000,-57.0,1.0,33.0,96.985625,15.99,0.047638187500000005,31.65
2021-06-21 16:21:40.710937500,-57.0,1.0,33.0,96.9846875,18.26,0.04759815625,31.65
2021-06-21 16:21:40.718750000,-57.0,1.0,33.0,96.98375,20.53,0.047558125,31.65
2021-06-21 16:21:40.726562500,-56.75,1.0,33.0,96.9828125,21.895000000000003,0.047518093750000004,31.65
2021-06-21 16:21:40.734375000,-56.5,1.0,33.0,96.981875,23.26,0.0474780625,31.65
2021-06-21 16:21:40.742187500,-56.25,1.0,33.0,96.9809375,23.705,0.047438031250000005,31.65
2021-06-21 16:21:40.750000000,-56.0,1.0,33.0,96.98,24.15,0.047398,31.65
2021-06-21 16:21:40.757812500,-56.25,1.0,33.0,96.9790625,23.54,0.0474780625,31.65
2021-06-21 16:21:40.765625000,-56.5,1.0,33.0,96.978125,22.93,0.047558125,31.65
2021-06-21 16:21:40.773437500,-56.75,1.0,33.0,96.9771875,21.165,0.047638187500000005,31.65
2021-06-21 16:21:40.781250000,-57.0,1.0,33.0,96.97625000000001,19.4,0.047718250000000004,31.65
2021-06-21 16:21:40.789062500,-57.0,0.75,32.75,96.9753125,16.555,0.0477983125,31.65
2021-06-21 16:21:40.796875000,-57.0,0.5,32.5,96.974375,13.71,0.047878375,31.65
2021-06-21 16:21:40.804687500,-57.0,0.25,32.25,96.9734375,10.105,0.0479584375,31.65
2021-06-21 16:21:40.812500000,-57.0,0.0,32.0,96.9725,6.5,0.0480385,31.65
2021-06-21 16:21:40.820312500,-56.75,0.25,32.25,96.9715625,2.645,0.0481185625,31.65
2021-06-21 16:21:40.828125000,-56.5,0.5,32.5,96.970625,-1.21,0.048198625,31.65
2021-06-21 16:21:40.835937500,-56.25,0.75,32.75,96.9696875,-4.744999999999999,0.0482786875,31.65
2021-06-21 16:21:40.843750000,-56.0,1.0,33.0,96.96875,-8.28,0.04835875,31.65
2021-06-21 16:21:40.851562500,-56.0,1.0,32.75,96.96781250000001,-11.065,0.0484388125,31.65
2021-06-21 16:21:40.859375000,-56.0,1.0,32.5,96.966875,-13.85,0.048518875,31.65
2021-06-21 16:21:40.867187500,-56.0,1.0,32.25,96.9659375,-15.73,0.0485989375,31.65
2021-06-21 16:21:40.875000000,-56.0,1.0,32.0,96.965,-17.61,0.048679,31.65
2021-06-21 16:21:40.882812500,-56.25,1.0,32.25,96.9640625,-18.715,0.0487590625,31.65
2021-06-21 16:21:40.890625000,-56.5,1.0,32.5,96.963125,-19.82,0.048839125,31.65
2021-06-21 16:21:40.898437500,-56.75,1.0,32.75,96.9621875,-20.47,0.0489191875,31.65
2021-06-21 16:21:40.906250000,-57.0,1.0,33.0,96.96125,-21.12,0.04899925,31.65
2021-06-21 16:21:40.914062500,-57.0,1.0,33.0,96.9603125,-21.64,0.0490793125,31.65
2021-06-21 16:21:40.921875000,-57.0,1.0,33.0,96.95937500000001,-22.16,0.049159375,31.65
2021-06-21 16:21:40.929687500,-57.0,1.0,33.0,96.9584375,-22.795,0.0492394375,31.65
2021-06-21 16:21:40.937500000,-57.0,1.0,33.0,96.9575,-23.43,0.0493195,31.65
2021-06-21 16:21:40.945312500,-57.0,1.0,33.0,96.9565625,-24.240000000000002,0.0493995625,31.65
2021-06-21 16:21:40.953125000,-57.0,1.0,33.0,96.955625,-25.05,0.049479625,31.65
2021-06-21 16:21:40.960937500,-57.0,1.0,33.0,96.9546875,-26.005000000000003,0.0495596875,31.65
2021-06-21 16:21:40.968750000,-57.0,1.0,33.0,96.95375,-26.96,0.049639749999999996,31.65
2021-06-21 16:21:40.976562500,-56.75,0.75,33.0,96.95281250000001,-27.985,0.049719812499999995,31.65
2021-06-21 16:21:40.984375000,-56.5,0.5,33.0,96.951875,-29.01,0.049799875,31.65
2021-06-21 16:21:40.992187500,-56.25,0.25,33.0,96.95093750000001,-30.1,0.0498799375,31.65
2021-06-21 16:21:41.000000000,-56.0,0.0,33.0,96.95,-31.19,0.04996,31.65
2021-06-21 16:21:41.007812500,-56.0,0.25,32.75,96.94898437500001,-32.39,0.049919968749999995,31.65
2021-06-21 16:21:41.015625000,-56.0,0.5,32.5,96.94796875,-33.59,0.0498799375,31.65
2021-06-21 16:21:41.023437500,-56.0,0.75,32.25,96.94695312500001,-34.975,0.049839906249999996,31.65
2021-06-21 16:21:41.031250000,-56.0,1.0,32.0,96.9459375,-36.36,0.049799875,31.65
2021-06-21 16:21:41.039062500,-56.0,0.75,32.25,96.944921875,-38.004999999999995,0.04975984375,31.65
2021-06-21 16:21:41.046875000,-56.0,0.5,32.5,96.94390625,-39.65,0.049719812499999995,31.65
2021-06-21 16:21:41.054687500,-56.0,0.25,32.75,96.942890625,-41.599999999999994,0.04967978125,31.65
2021-06-21 16:21:41.062500000,-56.0,0.0,33.0,96.941875,-43.55,0.049639749999999996,31.65
2021-06-21 16:21:41.070312500,-56.25,0.0,32.75,96.940859375,-45.834999999999994,0.04959971875,31.65
2021-06-21 16:21:41.078125000,-56.5,0.0,32.5,96.93984375000001,-48.12,0.0495596875,31.65
2021-06-21 16:21:41.085937500,-56.75,0.0,32.25,96.938828125,-50.79,0.049519656249999995,31.65
2021-06-21 16:21:41.093750000,-57.0,0.0,32.0,96.9378125,-53.46,0.049479625,31.65
2021-06-21 16:21:41.101562500,-56.75,0.0,32.25,96.936796875,-56.575,0.04943959375,31.65
2021-06-21 16:21:41.109375000,-56.5,0.0,32.5,96.93578125,-59.69,0.0493995625,31.65
2021-06-21 16:21:41.117187500,-56.25,0.0,32.75,96.934765625,-63.17,0.04935953125,31.65
2021-06-21 16:21:41.125000000,-56.0,0.0,33.0,96.93375,-66.65,0.0493195,31.65
2021-06-21 16:21:41.132812500,-56.25,0.25,33.0,96.932734375,-70.24000000000001,0.04927946875,31.65
2021-06-21 16:21:41.140625000,-56.5,0.5,33.0,96.93171875,-73.83,0.0492394375,31.65
2021-06-21 16:21:41.148437500,-56.75,0.75,33.0,96.93070312500001,-76.99000000000001,0.04919940625,31.65
2021-06-21 16:21:41.156250000,-57.0,1.0,33.0,96.9296875,-80.15,0.049159375,31.65
2021-06-21 16:21:41.164062500,-56.75,1.0,33.0,96.928671875,-82.165,0.04911934375,31.65
2021-06-21 16:21:41.171875000,-56.5,1.0,33.0,96.92765625,-84.18,0.0490793125,31.65
2021-06-21 16:21:41.179687500,-56.25,1.0,33.0,96.926640625,-84.33500000000001,0.04903928125,31.65
2021-06-21 16:21:41.187500000,-56.0,1.0,33.0,96.925625,-84.49,0.04899925,31.65
2021-06-21 16:21:41.195312500,-56.25,0.75,33.0,96.924609375,-82.32499999999999,0.04895921875,31.65
2021-06-21 16:21:41.203125000,-56.5,0.5,33.0,96.92359375,-80.16,0.0489191875,31.65
2021-06-21 16:21:41.210937500,-56.75,0.25,33.0,96.922578125,-75.66499999999999,0.04887915625,31.65
2021-06-21 16:21:41.218750000,-57.0,0.0,33.0,96.92156250000001,-71.17,0.048839125,31.65
2021-06-21 16:21:41.226562500,-56.75,0.0,33.0,96.920546875,-64.82,0.04879909375,31.65
2021-06-21 16:21:41.234375000,-56.5,0.0,33.0,96.91953125,-58.47,0.0487590625,31.65
2021-06-21 16:21:41.242187500,-56.25,0.0,33.0,96.918515625,-51.065,0.04871903125,31.65
2021-06-21 16:21:41.250000000,-56.0,0.0,33.0,96.9175,-43.66,0.048679,31.65
2021-06-21 16:21:41.257812500,-56.0,0.0,32.75,96.916484375,-36.08,0.0487590625,31.65
2021-06-21 16:21:41.265625000,-56.0,0.0,32.5,96.91546875,-28.5,0.048839125,31.65
2021-06-21 16:21:41.273437500,-56.0,0.0,32.25,96.914453125,-21.445,0.0489191875,31.65
2021-06-21 16:21:41.281250000,-56.0,0.0,32.0,96.9134375,-14.39,0.04899925,31.65
2021-06-21 16:21:41.289062500,-56.0,0.0,32.25,96.912421875,-8.26,0.0490793125,31.65
2021-06-21 16:21:41.296875000,-56.0,0.0,32.5,96.91140625,-2.13,0.049159375,31.65
2021-06-21 16:21:41.304687500,-56.0,0.0,32.75,96.910390625,2.9400000000000004,0.049239437500000004,31.65
2021-06-21 16:21:41.312500000,-56.0,0.0,33.0,96.909375,8.01,0.0493195,31.65
2021-06-21 16:21:41.320312500,-56.0,0.0,32.75,96.908359375,12.02,0.0493995625,31.65
2021-06-21 16:21:41.328125000,-56.0,0.0,32.5,96.90734375,16.03,0.049479625,31.65
2021-06-21 16:21:41.335937500,-56.0,0.0,32.25,96.906328125,18.990000000000002,0.0495596875,31.65
2021-06-21 16:21:41.343750000,-56.0,0.0,32.0,96.9053125,21.95,0.04963975,31.65
2021-06-21 16:21:41.351562500,-56.0,0.0,32.25,96.904296875,23.795,0.0497198125,31.65
2021-06-21 16:21:41.359375000,-56.0,0.0,32.5,96.90328125,25.64,0.049799875,31.65
2021-06-21 16:21:41.367187500,-56.0,0.0,32.75,96.902265625,26.295,0.0498799375,31.65
2021-06-21 16:21:41.375000000,-56.0,0.0,33.0,96.90125,26.95,0.049960000000000004,31.65
2021-06-21 16:21:41.382812500,-56.25,0.0,33.0,96.900234375,26.415,0.0500400625,31.65
2021-06-21 16:21:41.390625000,-56.5,0.0,33.0,96.89921875,25.88,0.050120125,31.65
2021-06-21 16:21:41.398437500,-56.75,0.0,33.0,96.898203125,24.33,0.0502001875,31.65
2021-06-21 16:21:41.406250000,-57.0,0.0,33.0,96.8971875,22.78,0.05028025,31.65
2021-06-21 16:21:41.414062500,-56.75,0.0,33.0,96.896171875,20.575000000000003,0.050360312500000004,31.65
2021-06-21 16:21:41.421875000,-56.5,0.0,33.0,96.89515625,18.37,0.050440375,31.65
2021-06-21 16:21:41.429687500,-56.25,0.0,33.0,96.894140625,15.97,0.0505204375,31.65
2021-06-21 16:21:41.437500000,-56.0,0.0,33.0,96.893125,13.57,0.0506005,31.65
2021-06-21 16:21:41.445312500,-56.25,0.0,33.0,96.892109375,11.440000000000001,0.0506805625,31.65
2021-06-21 16:21:41.453125000,-56.5,0.0,33.0,96.89109375,9.31,0.050760625000000004,31.65
2021-06-21 16:21:41.460937500,-56.75,0.0,33.0,96.890078125,7.76,0.0508406875,31.65
2021-06-21 16:21:41.468750000,-57.0,0.0,33.0,96.8890625,6.21,0.05092075,31.65
2021-06-21 16:21:41.476562500,-56.75,0.0,33.0,96.888046875,5.305,0.0510008125,31.65
2021-06-21 16:21:41.484375000,-56.5,0.0,33.0,96.88703124999999,4.4,0.051080875000000005,31.65
2021-06-21 16:21:41.492187500,-56.25,0.0,33.0,96.886015625,3.9800000000000004,0.0511609375,31.65
2021-06-21 16:21:41.500000000,-56.0,0.0,33.0,96.88499999999999,3.56,0.051241,31.65
2021-06-21 16:21:41.507812500,-56.0,0.0,33.0,96.883984375,3.325,0.05112090625,31.65
2021-06-21 16:21:41.515625000,-56.0,0.0,33.0,96.88296875,3.09,0.0510008125,31.65
2021-06-21 16:21:41.523437500,-56.0,0.0,33.0,96.881953125,2.745,0.050880718750000005,31.65
2021-06-21 16:21:41.531250000,-56.0,0.0,33.0,96.8809375,2.4,0.050760625000000004,31.65
2021-06-21 16:21:41.539062500,-56.0,0.0,33.0,96.879921875,1.755,0.05064053125,31.65
2021-06-21 16:21:41.546875000,-56.0,0.0,33.0,96.87890625,1.11,0.0505204375,31.65
2021-06-21 16:21:41.554687500,-56.0,0.0,33.0,96.87789062499999,0.15500000000000003,0.05040034375,31.65
2021-06-21 16:21:41.562500000,-56.0,0.0,33.0,96.876875,-0.8,0.05028025,31.65
2021-06-21 16:21:41.570312500,-56.0,0.25,33.0,96.87585937499999,-1.985,0.050160156250000004,31.65
2021-06-21 16:21:41.578125000,-56.0,0.5,33.0,96.87484375,-3.17,0.0500400625,31.65
2021-06-21 16:21:41.585937500,-56.0,0.75,33.0,96.873828125,-4.475,0.04991996875,31.65
2021-06-21 16:21:41.593750000,-56.0,1.0,33.0,96.8728125,-5.78,0.049799875,31.65
2021-06-21 16:21:41.601562500,-56.25,0.75,33.0,96.871796875,-7.16,0.04967978125,31.65
2021-06-21 16:21:41.609375000,-56.5,0.5,33.0,96.87078125,-8.54,0.049559687500000005,31.65
2021-06-21 16:21:41.617187500,-56.75,0.25,33.0,96.869765625,-10.035,0.049439593750000004,31.65
2021-06-21 16:21:41.625000000,-57.0,0.0,33.0,96.86874999999999,-11.53,0.0493195,31.65
2021-06-21 16:21:41.632812500,-56.75,0.0,33.0,96.867734375,-13.225,0.04919940625,31.65
2021-06-21 16:21:41.640625000,-56.5,0.0,33.0,96.86671874999999,-14.92,0.0490793125,31.65
2021-06-21 16:21:41.648437500,-56.25,0.0,33.0,96.865703125,-16.91,0.048959218750000005,31.65
2021-06-21 16:21:41.656250000,-56.0,0.0,33.0,96.8646875,-18.9,0.048839125000000004,31.65
2021-06-21 16:21:41.664062500,-56.0,0.0,33.0,96.863671875,-21.24,0.04871903125,31.65
2021-06-21 16:21:41.671875000,-56.0,0.0,33.0,96.86265625,-23.58,0.0485989375,31.65
2021-06-21 16:21:41.679687500,-56.0,0.0,33.0,96.86164062499999,-26.354999999999997,0.04847884375,31.65
2021-06-21 16:21:41.687500000,-56.0,0.0,33.0,96.860625,-29.13,0.048358750000000006,31.65
2021-06-21 16:21:41.695312500,-56.25,0.0,33.0,96.85960937499999,-32.42,0.048238656250000005,31.65
2021-06-21 16:21:41.703125000,-56.5,0.0,33.0,96.85859375,-35.71,0.0481185625,31.65
2021-06-21 16:21:41.710937500,-56.75,0.0,33.0,96.85757812499999,-39.575,0.04799846875,31.65
2021-06-21 16:21:41.718750000,-57.0,0.0,33.0,96.8565625,-43.44,0.047878375,31.65
2021-06-21 16:21:41.726562500,-56.75,0.0,33.0,96.855546875,-47.785,0.04775828125,31.65
2021-06-21 16:21:41.734375000,-56.5,0.0,33.0,96.85453125,-52.13,0.047638187500000005,31.65
2021-06-21 16:21:41.742187500,-56.25,0.0,33.0,96.853515625,-56.585,0.047518093750000004,31.65
2021-06-21 16:21:41.750000000,-56.0,0.0,33.0,96.85249999999999,-61.04,0.047398,31.65
2021-06-21 16:21:41.757812500,-56.25,0.0,33.0,96.851484375,-64.94,0.047518093750000004,31.65
2021-06-21 16:21:41.765625000,-56.5,0.0,33.0,96.85046874999999,-68.84,0.047638187500000005,31.65
2021-06-21 16:21:41.773437500,-56.75,0.0,33.0,96.849453125,-71.33,0.04775828125,31.65
2021-06-21 16:21:41.781250000,-57.0,0.0,33.0,96.84843749999999,-73.82,0.047878375,31.65
2021-06-21 16:21:41.789062500,-57.0,0.25,33.0,96.847421875,-74.13,0.04799846875,31.65
2021-06-21 16:21:41.796875000,-57.0,0.5,33.0,96.84640625,-74.44,0.0481185625,31.65
2021-06-21 16:21:41.804687500,-57.0,0.75,33.0,96.845390625,-72.155,0.048238656250000005,31.65
2021-06-21 16:21:41.812500000,-57.0,1.0,33.0,96.844375,-69.87,0.048358750000000006,31.65
2021-06-21 16:21:41.820312500,-57.0,0.75,33.0,96.84335937499999,-65.12,0.04847884375,31.65
2021-06-21 16:21:41.828125000,-57.0,0.5,33.0,96.84234375,-60.37,0.0485989375,31.65
2021-06-21 16:21:41.835937500,-57.0,0.25,33.0,96.84132812499999,-53.815,0.04871903125,31.65
2021-06-21 16:21:41.843750000,-57.0,0.0,33.0,96.8403125,-47.26,0.048839125000000004,31.65
2021-06-21 16:21:41.851562500,-56.75,0.0,33.0,96.83929687499999,-39.87,0.048959218750000005,31.65
2021-06-21 16:21:41.859375000,-56.5,0.0,33.0,96.83828125,-32.48,0.0490793125,31.65
2021-06-21 16:21:41.867187500,-56.25,0.0,33.0,96.837265625,-25.24,0.04919940625,31.65
2021-06-21 16:21:41.875000000,-56.0,0.0,33.0,96.83624999999999,-18.0,0.0493195,31.65
2021-06-21 16:21:41.882812500,-56.25,0.0,33.0,96.835234375,-11.675,0.049439593750000004,31.65
2021-06-21 16:21:41.890625000,-56.5,0.0,33.0,96.83421874999999,-5.35,0.049559687500000005,31.65
2021-06-21 16:21:41.898437500,-56.75,0.0,33.0,96.833203125,-0.33000000000000007,0.04967978125,31.65
2021-06-21 16:21:41.906250000,-57.0,0.0,33.0,96.83218749999999,4.69,0.049799875,31.65
2021-06-21 16:21:41.914062500,-56.75,0.0,33.0,96.831171875,8.35,0.04991996875,31.65
2021-06-21 16:21:41.921875000,-56.5,0.0,33.0,96.83015624999999,12.01,0.0500400625,31.65
2021-06-21 16:21:41.929687500,-56.25,0.0,33.0,96.829140625,14.445,0.050160156250000004,31.65
2021-06-21 16:21:41.937500000,-56.0,0.0,33.0,96.828125,16.88,0.05028025,31.65
2021-06-21 16:21:41.945312500,-56.0,0.0,33.0,96.82710937499999,18.275,0.05040034375,31.65
2021-06-21 16:21:41.953125000,-56.0,0.0,33.0,96.82609375,19.67,0.0505204375,31.65
2021-06-21 16:21:41.960937500,-56.0,0.0,33.0,96.82507812499999,20.175,0.05064053125,31.65
2021-06-21 16:21:41.968750000,-56.0,0.0,33.0,96.8240625,20.68,0.050760625000000004,31.65
2021-06-21 16:21:41.976562500,-56.0,0.25,33.0,96.82304687499999,20.395,0.050880718750000005,31.65
2021-06-21 16:21:41.984375000,-56.0,0.5,33.0,96.82203125,20.11,0.0510008125,31.65
2021-06-21 16:21:41.992187500,-56.0,0.75,33.0,96.82101562499999,19.16,0.05112090625,31.65
2021-06-21 16:21:42.000000000,-56.0,1.0,33.0,96.82,18.21,0.051241,31.65
2021-06-21 16:21:42.007812500,-56.0,0.75,33.0,96.81890625,16.825,0.05112090625,31.65
2021-06-21 16:21:42.015625000,-56.0,0.5,33.0,96.81781249999999,15.44,0.0510008125,31.65
2021-06-21 16:21:42.023437500,-56.0,0.25,33.0,96.81671874999999,13.95,0.050880718750000005,31.65
2021-06-21 16:21:42.031250000,-56.0,0.0,33.0,96.815625,12.46,0.050760625000000004,31.65
2021-06-21 16:21:42.039062500,-56.25,0.0,33.0,96.81453124999999,11.215,0.05064053125,31.65
2021-06-21 16:21:42.046875000,-56.5,0.0,33.0,96.81343749999999,9.97,0.0505204375,31.65
2021-06-21 16:21:42.054687500,-56.75,0.0,33.0,96.81234375,9.245000000000001,0.05040034375,31.65
2021-06-21 16:21:42.062500000,-57.0,0.0,33.0,96.81125,8.52,0.05028025,31.65
2021-06-21 16:21:42.070312500,-57.0,0.25,33.0,96.81015624999999,8.399999999999999,0.050160156250000004,31.65
2021-06-21 16:21:42.078125000,-57.0,0.5,33.0,96.8090625,8.28,0.0500400625,31.65
2021-06-21 16:21:42.085937500,-57.0,0.75,33.0,96.80796875,8.67,0.04991996875,31.65
2021-06-21 16:21:42.093750000,-57.0,1.0,33.0,96.80687499999999,9.06,0.049799875,31.65
2021-06-21 16:21:42.101562500,-56.75,0.75,33.0,96.80578125,9.715,0.04967978125,31.65
2021-06-21 16:21:42.109375000,-56.5,0.5,33.0,96.8046875,10.37,0.049559687500000005,31.65
2021-06-21 16:21:42.117187500,-56.25,0.25,33.0,96.80359374999999,11.035,0.049439593750000004,31.65
2021-06-21 16:21:42.125000000,-56.0,0.0,33.0,96.8025,11.7,0.0493195,31.65
2021-06-21 16:21:42.132812500,-56.25,0.0,33.0,96.80140625,12.175,0.04919940625,31.65
2021-06-21 16:21:42.140625000,-56.5,0.0,33.0,96.80031249999999,12.65,0.0490793125,31.65
2021-06-21 16:21:42.148437500,-56.75,0.0,33.0,96.79921875,12.815000000000001,0.048959218750000005,31.65
2021-06-21 16:21:42.156250000,-57.0,0.0,33.0,96.798125,12.98,0.048839125000000004,31.65
2021-06-21 16:21:42.164062500,-57.0,0.25,33.0,96.79703124999999,12.81,0.04871903125,31.65
2021-06-21 16:21:42.171875000,-57.0,0.5,33.0,96.7959375,12.64,0.0485989375,31.65
2021-06-21 16:21:42.179687500,-57.0,0.75,33.0,96.79484375,12.135000000000002,0.04847884375,31.65
2021-06-21 16:21:42.187500000,-57.0,1.0,33.0,96.79374999999999,11.63,0.048358750000000006,31.65
2021-06-21 16:21:42.195312500,-56.75,1.0,33.0,96.79265625,10.815000000000001,0.048238656250000005,31.65
2021-06-21 16:21:42.203125000,-56.5,1.0,33.0,96.7915625,10.0,0.0481185625,31.65
2021-06-21 16:21:42.210937500,-56.25,1.0,33.0,96.79046875,8.92,0.04799846875,31.65
2021-06-21 16:21:42.218750000,-56.0,1.0,33.0,96.78937499999999,7.84,0.047878375,31.65
2021-06-21 16:21:42.226562500,-56.0,0.75,33.0,96.78828125,6.54,0.04775828125,31.65
2021-06-21 16:21:42.234375000,-56.0,0.5,33.0,96.7871875,5.24,0.047638187500000005,31.65
2021-06-21 16:21:42.242187500,-56.0,0.25,33.0,96.78609374999999,3.725,0.047518093750000004,31.65
2021-06-21 16:21:42.250000000,-56.0,0.0,33.0,96.785,2.21,0.047398,31.65
2021-06-21 16:21:42.257812500,-56.25,0.25,33.0,96.78390625,0.45999999999999996,0.047518093750000004,31.65
2021-06-21 16:21:42.265625000,-56.5,0.5,33.0,96.78281249999999,-1.29,0.047638187500000005,31.65
2021-06-21 16:21:42.273437500,-56.75,0.75,33.0,96.78171875,-3.375,0.04775828125,31.65
2021-06-21 16:21:42.281250000,-57.0,1.0,33.0,96.780625,-5.46,0.047878375,31.65
2021-06-21 16:21:42.289062500,-57.0,0.75,32.75,96.77953124999999,-7.975,0.04799846875,31.65
2021-06-21 16:21:42.296875000,-57.0,0.5,32.5,96.7784375,-10.49,0.0481185625,31.65
2021-06-21 16:21:42.304687500,-57.0,0.25,32.25,96.77734375,-13.54,0.048238656250000005,31.65
2021-06-21 16:21:42.312500000,-57.0,0.0,32.0,96.77625,-16.59,0.048358750000000006,31.65
2021-06-21 16:21:42.320312500,-56.75,0.0,32.25,96.77515625,-20.17,0.04847884375,31.65
2021-06-21 16:21:42.328125000,-56.5,0.0,32.5,96.7740625,-23.75,0.0485989375,31.65
2021-06-21 16:21:42.335937500,-56.25,0.0,32.75,96.77296875,-27.725,0.04871903125,31.65
2021-06-21 16:21:42.343750000,-56.0,0.0,33.0,96.771875,-31.7,0.048839125000000004,31.65
2021-06-21 16:21:42.351562500,-56.0,0.25,33.0,96.77078125,-35.735,0.048959218750000005,31.65
2021-06-21 16:21:42.359375000,-56.0,0.5,33.0,96.7696875,-39.77,0.0490793125,31.65
2021-06-21 16:21:42.367187500,-56.0,0.75,33.0,96.76859375,-43.315,0.04919940625,31.65
2021-06-21 16:21:42.375000000,-56.0,1.0,33.0,96.7675,-46.86,0.0493195,31.65
2021-06-21 16:21:42.382812500,-56.0,0.75,33.0,96.76640625,-49.2,0.049439593750000004,31.65
2021-06-21 16:21:42.390625000,-56.0,0.5,33.0,96.7653125,-51.54,0.049559687500000005,31.65
2021-06-21 16:21:42.398437500,-56.0,0.25,33.0,96.76421875,-51.974999999999994,0.04967978125,31.65
2021-06-21 16:21:42.406250000,-56.0,0.0,33.0,96.763125,-52.41,0.049799875,31.65
2021-06-21 16:21:42.414062500,-56.25,0.25,33.0,96.76203124999999,-50.435,0.04991996875,31.65
2021-06-21 16:21:42.421875000,-56.5,0.5,33.0,96.7609375,-48.46,0.0500400625,31.65
2021-06-21 16:21:42.429687500,-56.75,0.75,33.0,96.75984375,-44.010000000000005,0.050160156250000004,31.65
2021-06-21 16:21:42.437500000,-57.0,1.0,33.0,96.75874999999999,-39.56,0.05028025,31.65
2021-06-21 16:21:42.445312500,-57.0,1.0,33.0,96.75765625,-33.09,0.05040034375,31.65
2021-06-21 16:21:42.453125000,-57.0,1.0,33.0,96.7565625,-26.62,0.0505204375,31.65
2021-06-21 16:21:42.460937500,-57.0,1.0,33.0,96.75546875,-18.990000000000002,0.05064053125,31.65
2021-06-21 16:21:42.468750000,-57.0,1.0,33.0,96.754375,-11.36,0.050760625000000004,31.65
2021-06-21 16:21:42.476562500,-57.0,0.75,33.0,96.75328125,-3.5949999999999998,0.050880718750000005,31.65
2021-06-21 16:21:42.484375000,-57.0,0.5,33.0,96.7521875,4.17,0.0510008125,31.65
2021-06-21 16:21:42.492187500,-57.0,0.25,33.0,96.75109375,11.18,0.05112090625,31.65
2021-06-21 16:21:42.500000000,-57.0,0.0,33.0,96.75,18.19,0.051241,31.65
2021-06-21 16:21:42.507812500,-57.0,0.25,32.75,96.74890625,23.905,0.05112090625,31.65
2021-06-21 16:21:42.515625000,-57.0,0.5,32.5,96.7478125,29.62,0.0510008125,31.65
2021-06-21 16:21:42.523437500,-57.0,0.75,32.25,96.74671875,33.9,0.050880718750000005,31.65
2021-06-21 16:21:42.531250000,-57.0,1.0,32.0,96.745625,38.18,0.050760625000000004,31.65
2021-06-21 16:21:42.539062500,-56.75,0.75,32.25,96.74453125,41.135000000000005,0.05064053125,31.65
2021-06-21 16:21:42.546875000,-56.5,0.5,32.5,96.7434375,44.09,0.0505204375,31.65
2021-06-21 16:21:42.554687500,-56.25,0.25,32.75,96.74234375,45.96,0.05040034375,31.65
2021-06-21 16:21:42.562500000,-56.0,0.0,33.0,96.74125000000001,47.83,0.05028025,31.65
2021-06-21 16:21:42.570312500,-56.25,0.0,33.0,96.74015625,48.835,0.050160156250000004,31.65
2021-06-21 16:21:42.578125000,-56.5,0.0,33.0,96.7390625,49.84,0.0500400625,31.65
2021-06-21 16:21:42.585937500,-56.75,0.0,33.0,96.73796875000001,50.13,0.04991996875,31.65
2021-06-21 16:21:42.593750000,-57.0,0.0,33.0,96.736875,50.42,0.049799875,31.65
2021-06-21 16:21:42.601562500,-56.75,0.25,33.0,96.73578125,50.14,0.04967978125,31.65
2021-06-21 16:21:42.609375000,-56.5,0.5,33.0,96.7346875,49.86,0.049559687500000005,31.65
2021-06-21 16:21:42.617187500,-56.25,0.75,33.0,96.73359375,49.15,0.049439593750000004,31.65
2021-06-21 16:21:42.625000000,-56.0,1.0,33.0,96.7325,48.44,0.0493195,31.65
2021-06-21 16:21:42.632812500,-56.0,0.75,33.0,96.73140625,47.45,0.04919940625,31.65
2021-06-21 16:21:42.640625000,-56.0,0.5,33.0,96.7303125,46.46,0.0490793125,31.65
2021-06-21 16:21:42.648437500,-56.0,0.25,33.0,96.72921875,45.35,0.048959218750000005,31.65
2021-06-21 16:21:42.656250000,-56.0,0.0,33.0,96.728125,44.24,0.048839125000000004,31.65
2021-06-21 16:21:42.664062500,-56.25,0.0,33.0,96.72703125,43.135000000000005,0.04871903125,31.65
2021-06-21 16:21:42.671875000,-56.5,0.0,33.0,96.7259375,42.03,0.0485989375,31.65
2021-06-21 16:21:42.679687500,-56.75,0.0,33.0,96.72484375,40.980000000000004,0.04847884375,31.65
2021-06-21 16:21:42.687500000,-57.0,0.0,33.0,96.72375,39.93,0.048358750000000006,31.65
2021-06-21 16:21:42.695312500,-57.0,0.0,33.0,96.72265625,38.965,0.048238656250000005,31.65
2021-06-21 16:21:42.703125000,-57.0,0.0,33.0,96.7215625,38.0,0.0481185625,31.65
2021-06-21 16:21:42.710937500,-57.0,0.0,33.0,96.72046875000001,37.114999999999995,0.04799846875,31.65
2021-06-21 16:21:42.718750000,-57.0,0.0,33.0,96.719375,36.23,0.047878375,31.65
2021-06-21 16:21:42.726562500,-56.75,0.0,33.0,96.71828125,35.405,0.04775828125,31.65
2021-06-21 16:21:42.734375000,-56.5,0.0,33.0,96.71718750000001,34.58,0.047638187500000005,31.65
2021-06-21 16:21:42.742187500,-56.25,0.0,33.0,96.71609375,33.785,0.047518093750000004,31.65
2021-06-21 16:21:42.750000000,-56.0,0.0,33.0,96.715,32.99,0.047398,31.65
2021-06-21 16:21:42.757812500,-56.25,0.0,33.0,96.71390625000001,32.2,0.047518093750000004,31.65
2021-06-21 16:21:42.765625000,-56.5,0.0,33.0,96.7128125,31.41,0.047638187500000005,31.65
2021-06-21 16:21:42.773437500,-56.75,0.0,33.0,96.71171875,30.560000000000002,0.04775828125,31.65
2021-06-21 16:21:42.781250000,-57.0,0.0,33.0,96.71062500000001,29.71,0.047878375,31.65
2021-06-21 16:21:42.789062500,-56.75,0.25,33.0,96.70953125,28.745,0.04799846875,31.65
2021-06-21 16:21:42.796875000,-56.5,0.5,33.0,96.7084375,27.78,0.0481185625,31.65
2021-06-21 16:21:42.804687500,-56.25,0.75,33.0,96.70734375,26.615000000000002,0.048238656250000005,31.65
2021-06-21 16:21:42.812500000,-56.0,1.0,33.0,96.70625000000001,25.45,0.048358750000000006,31.65
2021-06-21 16:21:42.820312500,-56.0,1.0,33.0,96.70515625,24.049999999999997,0.04847884375,31.65
2021-06-21 16:21:42.828125000,-56.0,1.0,33.0,96.7040625,22.65,0.0485989375,31.65
2021-06-21 16:21:42.835937500,-56.0,1.0,33.0,96.70296875000001,20.99,0.04871903125,31.65
2021-06-21 16:21:42.843750000,-56.0,1.0,33.0,96.701875,19.33,0.048839125000000004,31.65
2021-06-21 16:21:42.851562500,-56.0,1.0,33.0,96.70078125,17.45,0.048959218750000005,31.65
2021-06-21 16:21:42.859375000,-56.0,1.0,33.0,96.69968750000001,15.57,0.0490793125,31.65
2021-06-21 16:21:42.867187500,-56.0,1.0,33.0,96.69859375,13.495000000000001,0.04919940625,31.65
2021-06-21 16:21:42.875000000,-56.0,1.0,33.0,96.6975,11.42,0.0493195,31.65
2021-06-21 16:21:42.882812500,-56.25,0.75,33.0,96.69640625000001,9.219999999999999,0.049439593750000004,31.65
2021-06-21 16:21:42.890625000,-56.5,0.5,33.0,96.6953125,7.02,0.049559687500000005,31.65
2021-06-21 16:21:42.898437500,-56.75,0.25,33.0,96.69421875,4.705,0.04967978125,31.65
2021-06-21 16:21:42.906250000,-57.0,0.0,33.0,96.69312500000001,2.39,0.049799875,31.65
2021-06-21 16:21:42.914062500,-57.0,0.0,33.0,96.69203125,-0.07499999999999973,0.04991996875,31.65
2021-06-21 16:21:42.921875000,-57.0,0.0,33.0,96.6909375,-2.54,0.0500400625,31.65
2021-06-21 16:21:42.929687500,-57.0,0.0,33.0,96.68984375000001,-5.285,0.050160156250000004,31.65
2021-06-21 16:21:42.937500000,-57.0,0.0,33.0,96.68875,-8.03,0.05028025,31.65
2021-06-21 16:21:42.945312500,-56.75,0.0,33.0,96.68765625,-11.205,0.05040034375,31.65
2021-06-21 16:21:42.953125000,-56.5,0.0,33.0,96.68656250000001,-14.38,0.0505204375,31.65
2021-06-21 16:21:42.960937500,-56.25,0.0,33.0,96.68546875000001,-18.12,0.05064053125,31.65
2021-06-21 16:21:42.968750000,-56.0,0.0,33.0,96.684375,-21.86,0.050760625000000004,31.65
2021-06-21 16:21:42.976562500,-56.0,0.0,33.0,96.68328125000001,-26.1,0.050880718750000005,31.65
2021-06-21 16:21:42.984375000,-56.0,0.0,33.0,96.68218750000001,-30.34,0.0510008125,31.65
2021-06-21 16:21:42.992187500,-56.0,0.0,33.0,96.68109375,-34.725,0.05112090625,31.65
2021-06-21 16:21:43.000000000,-56.0,0.0,33.0,96.68,-39.11,0.051241,31.65
2021-06-21 16:21:43.007812500,-56.25,0.0,32.75,96.67898437500001,-42.980000000000004,0.05112090625,31.65
2021-06-21 16:21:43.015625000,-56.5,0.0,32.5,96.67796875,-46.85,0.0510008125,31.65
2021-06-21 16:21:43.023437500,-56.75,0.0,32.25,96.67695312500001,-49.325,0.050880718750000005,31.65
2021-06-21 16:21:43.031250000,-57.0,0.0,32.0,96.6759375,-51.8,0.050760625000000004,31.65
2021-06-21 16:21:43.039062500,-57.0,0.0,32.25,96.67492187500001,-52.07,0.05064053125,31.65
2021-06-21 16:21:43.046875000,-57.0,0.0,32.5,96.67390625,-52.34,0.0505204375,31.65
2021-06-21 16:21:43.054687500,-57.0,0.0,32.75,96.67289062500001,-49.94,0.05040034375,31.65
2021-06-21 16:21:43.062500000,-57.0,0.0,33.0,96.671875,-47.54,0.05028025,31.65
2021-06-21 16:21:43.070312500,-57.0,0.0,33.0,96.670859375,-42.599999999999994,0.050160156250000004,31.65
2021-06-21 16:21:43.078125000,-57.0,0.0,33.0,96.66984375000001,-37.66,0.0500400625,31.65
2021-06-21 16:21:43.085937500,-57.0,0.0,33.0,96.668828125,-30.83,0.04991996875,31.65
2021-06-21 16:21:43.093750000,-57.0,0.0,33.0,96.66781250000001,-24.0,0.049799875,31.65
2021-06-21 16:21:43.101562500,-57.0,0.0,33.0,96.666796875,-16.3,0.04967978125,31.65
2021-06-21 16:21:43.109375000,-57.0,0.0,33.0,96.66578125000001,-8.6,0.049559687500000005,31.65
2021-06-21 16:21:43.117187500,-57.0,0.0,33.0,96.664765625,-1.0700000000000003,0.049439593750000004,31.65
2021-06-21 16:21:43.125000000,-57.0,0.0,33.0,96.66375000000001,6.46,0.0493195,31.65
2021-06-21 16:21:43.132812500,-56.75,0.0,33.0,96.662734375,13.05,0.04919940625,31.65
2021-06-21 16:21:43.140625000,-56.5,0.0,33.0,96.66171875,19.64,0.0490793125,31.65
2021-06-21 16:21:43.148437500,-56.25,0.0,33.0,96.66070312500001,24.89,0.048959218750000005,31.65
2021-06-21 16:21:43.156250000,-56.0,0.0,33.0,96.6596875,30.14,0.048839125000000004,31.65
2021-06-21 16:21:43.164062500,-56.25,0.0,33.0,96.65867187500001,34.0,0.04871903125,31.65
2021-06-21 16:21:43.171875000,-56.5,0.0,33.0,96.65765625,37.86,0.0485989375,31.65
2021-06-21 16:21:43.179687500,-56.75,0.0,33.0,96.65664062500001,40.485,0.04847884375,31.65
2021-06-21 16:21:43.187500000,-57.0,0.0,33.0,96.655625,43.11,0.048358750000000006,31.65
2021-06-21 16:21:43.195312500,-56.75,0.0,33.0,96.654609375,44.71,0.048238656250000005,31.65
2021-06-21 16:21:43.203125000,-56.5,0.0,33.0,96.65359375,46.31,0.0481185625,31.65
2021-06-21 16:21:43.210937500,-56.25,0.0,33.0,96.652578125,47.08,0.04799846875,31.65
2021-06-21 16:21:43.218750000,-56.0,0.0,33.0,96.65156250000001,47.85,0.047878375,31.65
2021-06-21 16:21:43.226562500,-56.0,0.0,33.0,96.650546875,47.975,0.04775828125,31.65
2021-06-21 16:21:43.234375000,-56.0,0.0,33.0,96.64953125000001,48.1,0.047638187500000005,31.65
2021-06-21 16:21:43.242187500,-56.0,0.0,33.0,96.648515625,47.765,0.047518093750000004,31.65
2021-06-21 16:21:43.250000000,-56.0,0.0,33.0,96.64750000000001,47.43,0.047398,31.65
2021-06-21 16:21:43.257812500,-56.25,0.0,32.75,96.646484375,46.83,0.047518093750000004,31.65
2021-06-21 16:21:43.265625000,-56.5,0.0,32.5,96.64546875,46.23,0.047638187500000005,31.65
2021-06-21 16:21:43.273437500,-56.75,0.0,32.25,96.644453125,45.519999999999996,0.04775828125,31.65
2021-06-21 16:21:43.281250000,-57.0,0.0,32.0,96.6434375,44.81,0.047878375,31.65
2021-06-21 16:21:43.289062500,-57.0,0.0,32.25,96.64242187500001,44.11,0.04799846875,31.65
2021-06-21 16:21:43.296875000,-57.0,0.0,32.5,96.64140625,43.41,0.0481185625,31.65
2021-06-21 16:21:43.304687500,-57.0,0.0,32.75,96.64039062500001,42.769999999999996,0.048238656250000005,31.65
2021-06-21 16:21:43.312500000,-57.0,0.0,33.0,96.639375,42.13,0.048358750000000006,31.65
2021-06-21 16:21:43.320312500,-56.75,0.0,33.0,96.63835937500001,41.55,0.04847884375,31.65
2021-06-21 16:21:43.328125000,-56.5,0.0,33.0,96.63734375,40.97,0.0485989375,31.65
2021-06-21 16:21:43.335937500,-56.25,0.0,33.0,96.636328125,40.46,0.04871903125,31.65
2021-06-21 16:21:43.343750000,-56.0,0.0,33.0,96.6353125,39.95,0.048839125000000004,31.65
2021-06-21 16:21:43.351562500,-56.0,0.0,32.75,96.634296875,39.525000000000006,0.048959218750000005,31.65
2021-06-21 16:21:43.359375000,-56.0,0.0,32.5,96.63328125000001,39.1,0.0490793125,31.65
2021-06-21 16:21:43.367187500,-56.0,0.0,32.25,96.632265625,38.78,0.04919940625,31.65
2021-06-21 16:21:43.375000000,-56.0,0.0,32.0,96.63125000000001,38.46,0.0493195,31.65
2021-06-21 16:21:43.382812500,-56.25,0.0,32.25,96.630234375,38.225,0.049439593750000004,31.65
2021-06-21 16:21:43.390625000,-56.5,0.0,32.5,96.62921875,37.99,0.049559687500000005,31.65
2021-06-21 16:21:43.398437500,-56.75,0.0,32.75,96.628203125,37.81,0.04967978125,31.65
2021-06-21 16:21:43.406250000,-57.0,0.0,33.0,96.6271875,37.63,0.049799875,31.65
2021-06-21 16:21:43.414062500,-57.0,0.25,33.0,96.626171875,37.42,0.04991996875,31.65
2021-06-21 16:21:43.421875000,-57.0,0.5,33.0,96.62515625,37.21,0.0500400625,31.65
2021-06-21 16:21:43.429687500,-57.0,0.75,33.0,96.62414062500001,36.845,0.050160156250000004,31.65
2021-06-21 16:21:43.437500000,-57.0,1.0,33.0,96.623125,36.48,0.05028025,31.65
2021-06-21 16:21:43.445312500,-57.0,0.75,33.0,96.62210937500001,35.834999999999994,0.05040034375,31.65
2021-06-21 16:21:43.453125000,-57.0,0.5,33.0,96.62109375,35.19,0.0505204375,31.65
2021-06-21 16:21:43.460937500,-57.0,0.25,33.0,96.620078125,34.165,0.05064053125,31.65
2021-06-21 16:21:43.468750000,-57.0,0.0,33.0,96.6190625,33.14,0.050760625000000004,31.65
2021-06-21 16:21:43.476562500,-56.75,0.0,33.0,96.618046875,31.67,0.050880718750000005,31.65
2021-06-21 16:21:43.484375000,-56.5,0.0,33.0,96.61703125,30.2,0.0510008125,31.65
2021-06-21 16:21:43.492187500,-56.25,0.0,33.0,96.616015625,28.299999999999997,0.05112090625,31.65
2021-06-21 16:21:43.500000000,-56.0,0.0,33.0,96.61500000000001,26.4,0.051241,31.65
2021-06-21 16:21:43.507812500,-56.25,0.0,33.0,96.613984375,24.145,0.05112090625,31.65
2021-06-21 16:21:43.515625000,-56.5,0.0,33.0,96.61296875000001,21.89,0.0510008125,31.65
2021-06-21 16:21:43.523437500,-56.75,0.0,33.0,96.611953125,19.405,0.050880718750000005,31.65
2021-06-21 16:21:43.531250000,-57.0,0.0,33.0,96.6109375,16.92,0.050760625000000004,31.65
2021-06-21 16:21:43.539062500,-56.75,0.0,33.0,96.609921875,14.325000000000001,0.05064053125,31.65
2021-06-21 16:21:43.546875000,-56.5,0.0,33.0,96.60890625,11.73,0.0505204375,31.65
2021-06-21 16:21:43.554687500,-56.25,0.0,33.0,96.607890625,9.11,0.05040034375,31.65
2021-06-21 16:21:43.562500000,-56.0,0.0,33.0,96.606875,6.49,0.05028025,31.65
2021-06-21 16:21:43.570312500,-56.25,0.0,33.0,96.605859375,3.84,0.050160156250000004,31.65
2021-06-21 16:21:43.578125000,-56.5,0.0,33.0,96.60484375,1.19,0.0500400625,31.65
2021-06-21 16:21:43.585937500,-56.75,0.0,33.0,96.603828125,-1.6,0.04991996875,31.65
2021-06-21 16:21:43.593750000,-57.0,0.0,33.0,96.6028125,-4.39,0.049799875,31.65
2021-06-21 16:21:43.601562500,-57.0,0.0,33.0,96.601796875,-7.465,0.04967978125,31.65
2021-06-21 16:21:43.609375000,-57.0,0.0,33.0,96.60078125,-10.54,0.049559687500000005,31.65
2021-06-21 16:21:43.617187500,-57.0,0.0,33.0,96.599765625,-14.01,0.049439593750000004,31.65
2021-06-21 16:21:43.625000000,-57.0,0.0,33.0,96.59875,-17.48,0.0493195,31.65
2021-06-21 16:21:43.632812500,-57.0,0.0,33.0,96.597734375,-21.265,0.04919940625,31.65
2021-06-21 16:21:43.640625000,-57.0,0.0,33.0,96.59671875,-25.05,0.0490793125,31.65
2021-06-21 16:21:43.648437500,-57.0,0.0,33.0,96.595703125,-28.785000000000004,0.048959218750000005,31.65
2021-06-21 16:21:43.656250000,-57.0,0.0,33.0,96.5946875,-32.52,0.048839125000000004,31.65
2021-06-21 16:21:43.664062500,-57.0,0.0,33.0,96.593671875,-35.565,0.04871903125,31.65
2021-06-21 16:21:43.671875000,-57.0,0.0,33.0,96.59265625,-38.61,0.0485989375,31.65
2021-06-21 16:21:43.679687500,-57.0,0.0,33.0,96.591640625,-40.205,0.04847884375,31.65
2021-06-21 16:21:43.687500000,-57.0,0.0,33.0,96.590625,-41.8,0.048358750000000006,31.65
2021-06-21 16:21:43.695312500,-57.0,0.0,33.0,96.589609375,-41.28,0.048238656250000005,31.65
2021-06-21 16:21:43.703125000,-57.0,0.0,33.0,96.58859375,-40.76,0.0481185625,31.65
2021-06-21 16:21:43.710937500,-57.0,0.0,33.0,96.587578125,-37.86,0.04799846875,31.65
2021-06-21 16:21:43.718750000,-57.0,0.0,33.0,96.5865625,-34.96,0.047878375,31.65
2021-06-21 16:21:43.726562500,-57.0,0.0,33.0,96.585546875,-29.915,0.04775828125,31.65
2021-06-21 16:21:43.734375000,-57.0,0.0,33.0,96.58453125,-24.87,0.047638187500000005,31.65
2021-06-21 16:21:43.742187500,-57.0,0.0,33.0,96.583515625,-18.39,0.047518093750000004,31.65
2021-06-21 16:21:43.750000000,-57.0,0.0,33.0,96.5825,-11.91,0.047398,31.65
2021-06-21 16:21:43.757812500,-57.0,0.0,33.0,96.581484375,-4.95,0.0474780625,31.65
2021-06-21 16:21:43.765625000,-57.0,0.0,33.0,96.58046875,2.01,0.047558125,31.65
2021-06-21 16:21:43.773437500,-57.0,0.0,33.0,96.579453125,8.535,0.047638187500000005,31.65
2021-06-21 16:21:43.781250000,-57.0,0.0,33.0,96.57843749999999,15.06,0.047718250000000004,31.65
2021-06-21 16:21:43.789062500,-57.0,0.0,32.75,96.577421875,20.545,0.0477983125,31.65
2021-06-21 16:21:43.796875000,-57.0,0.0,32.5,96.57640625,26.03,0.047878375,31.65
2021-06-21 16:21:43.804687500,-57.0,0.0,32.25,96.575390625,30.240000000000002,0.0479584375,31.65
2021-06-21 16:21:43.812500000,-57.0,0.0,32.0,96.574375,34.45,0.0480385,31.65
2021-06-21 16:21:43.820312500,-56.75,0.0,32.25,96.573359375,37.455,0.0481185625,31.65
2021-06-21 16:21:43.828125000,-56.5,0.0,32.5,96.57234375,40.46,0.048198625,31.65
2021-06-21 16:21:43.835937500,-56.25,0.0,32.75,96.571328125,42.46,0.0482786875,31.65
2021-06-21 16:21:43.843750000,-56.0,0.0,33.0,96.5703125,44.46,0.04835875,31.65
2021-06-21 16:21:43.851562500,-56.25,0.0,33.0,96.56929687499999,45.620000000000005,0.0484388125,31.65
2021-06-21 16:21:43.859375000,-56.5,0.0,33.0,96.56828125,46.78,0.048518875,31.65
2021-06-21 16:21:43.867187500,-56.75,0.0,33.0,96.567265625,47.19,0.0485989375,31.65
2021-06-21 16:21:43.875000000,-57.0,0.0,33.0,96.56625,47.6,0.048679,31.65
2021-06-21 16:21:43.882812500,-57.0,0.25,33.0,96.565234375,47.285,0.0487590625,31.65
2021-06-21 16:21:43.890625000,-57.0,0.5,33.0,96.56421875,46.97,0.048839125,31.65
2021-06-21 16:21:43.898437500,-57.0,0.75,33.0,96.563203125,46.004999999999995,0.0489191875,31.65
2021-06-21 16:21:43.906250000,-57.0,1.0,33.0,96.5621875,45.04,0.04899925,31.65
2021-06-21 16:21:43.914062500,-56.75,0.75,33.0,96.561171875,43.599999999999994,0.0490793125,31.65
2021-06-21 16:21:43.921875000,-56.5,0.5,33.0,96.56015624999999,42.16,0.049159375,31.65
2021-06-21 16:21:43.929687500,-56.25,0.25,33.0,96.559140625,40.485,0.0492394375,31.65
2021-06-21 16:21:43.937500000,-56.0,0.0,33.0,96.558125,38.81,0.0493195,31.65
2021-06-21 16:21:43.945312500,-56.0,0.0,33.0,96.557109375,37.165000000000006,0.0493995625,31.65
2021-06-21 16:21:43.953125000,-56.0,0.0,33.0,96.55609375,35.52,0.049479625,31.65
2021-06-21 16:21:43.960937500,-56.0,0.0,33.0,96.555078125,34.105000000000004,0.0495596875,31.65
2021-06-21 16:21:43.968750000,-56.0,0.0,33.0,96.5540625,32.69,0.049639749999999996,31.65
2021-06-21 16:21:43.976562500,-56.0,0.0,32.75,96.55304687499999,31.564999999999998,0.049719812499999995,31.65
2021-06-21 16:21:43.984375000,-56.0,0.0,32.5,96.55203125,30.44,0.049799875,31.65
2021-06-21 16:21:43.992187500,-56.0,0.0,32.25,96.55101562499999,29.53,0.0498799375,31.65
2021-06-21 16:21:44.000000000,-56.0,0.0,32.0,96.55,28.62,0.04996,31.65
2021-06-21 16:21:44.007812500,-56.25,0.0,32.25,96.548984375,27.805,0.0498799375,31.650624999999998
2021-06-21 16:21:44.015625000,-56.5,0.0,32.5,96.54796875,26.99,0.049799875,31.651249999999997
2021-06-21 16:21:44.023437500,-56.75,0.0,32.75,96.546953125,26.14,0.049719812499999995,31.651875
2021-06-21 16:21:44.031250000,-57.0,0.0,33.0,96.5459375,25.29,0.049639749999999996,31.6525
2021-06-21 16:21:44.039062500,-56.75,0.0,33.0,96.544921875,24.32,0.0495596875,31.653125
2021-06-21 16:21:44.046875000,-56.5,0.0,33.0,96.54390624999999,23.35,0.049479625,31.65375
2021-06-21 16:21:44.054687500,-56.25,0.0,33.0,96.542890625,22.275,0.0493995625,31.654374999999998
2021-06-21 16:21:44.062500000,-56.0,0.0,33.0,96.541875,21.2,0.0493195,31.655
2021-06-21 16:21:44.070312500,-56.25,0.0,33.0,96.540859375,20.049999999999997,0.0492394375,31.655625
2021-06-21 16:21:44.078125000,-56.5,0.0,33.0,96.53984375,18.9,0.049159375,31.65625
2021-06-21 16:21:44.085937500,-56.75,0.0,33.0,96.538828125,17.715,0.0490793125,31.656875
2021-06-21 16:21:44.093750000,-57.0,0.0,33.0,96.5378125,16.53,0.04899925,31.6575
2021-06-21 16:21:44.101562500,-56.75,0.0,32.75,96.536796875,15.3,0.0489191875,31.658125
2021-06-21 16:21:44.109375000,-56.5,0.0,32.5,96.53578125,14.07,0.048839125,31.65875
2021-06-21 16:21:44.117187500,-56.25,0.0,32.25,96.53476562499999,12.745000000000001,0.0487590625,31.659375
2021-06-21 16:21:44.125000000,-56.0,0.0,32.0,96.53375,11.42,0.048679,31.66
2021-06-21 16:21:44.132812500,-56.25,0.0,32.25,96.532734375,9.895,0.0485989375,31.660625
2021-06-21 16:21:44.140625000,-56.5,0.0,32.5,96.53171875,8.37,0.048518875,31.66125
2021-06-21 16:21:44.148437500,-56.75,0.0,32.75,96.530703125,6.555,0.0484388125,31.661875000000002
2021-06-21 16:21:44.156250000,-57.0,0.0,33.0,96.5296875,4.74,0.04835875,31.6625
2021-06-21 16:21:44.164062500,-57.0,0.0,32.75,96.528671875,2.5700000000000003,0.0482786875,31.663125
2021-06-21 16:21:44.171875000,-57.0,0.0,32.5,96.52765624999999,0.4,0.048198625,31.66375
2021-06-21 16:21:44.179687500,-57.0,0.0,32.25,96.526640625,-2.1650000000000005,0.0481185625,31.664375
2021-06-21 16:21:44.187500000,-57.0,0.0,32.0,96.52562499999999,-4.73,0.0480385,31.665
2021-06-21 16:21:44.195312500,-57.0,0.0,32.25,96.524609375,-7.69,0.0479584375,31.665625000000002
2021-06-21 16:21:44.203125000,-57.0,0.0,32.5,96.52359375,-10.65,0.047878375,31.66625
2021-06-21 16:21:44.210937500,-57.0,0.0,32.75,96.522578125,-14.02,0.0477983125,31.666875
2021-06-21 16:21:44.218750000,-57.0,0.0,33.0,96.5215625,-17.39,0.047718250000000004,31.6675
2021-06-21 16:21:44.226562500,-57.0,0.25,33.0,96.520546875,-21.175,0.047638187500000005,31.668125
2021-06-21 16:21:44.234375000,-57.0,0.5,33.0,96.51953125,-24.96,0.047558125,31.668750000000003
2021-06-21 16:21:44.242187500,-57.0,0.75,33.0,96.51851562499999,-29.1,0.0474780625,31.669375000000002
2021-06-21 16:21:44.250000000,-57.0,1.0,33.0,96.5175,-33.24,0.047398,31.67
2021-06-21 16:21:44.257812500,-57.0,0.75,33.0,96.516484375,-37.515,0.0474780625,31.67
2021-06-21 16:21:44.265625000,-57.0,0.5,33.0,96.51546875,-41.79,0.047558125,31.67
2021-06-21 16:21:44.273437500,-57.0,0.25,33.0,96.514453125,-45.745000000000005,0.047638187500000005,31.67
2021-06-21 16:21:44.281250000,-57.0,0.0,33.0,96.5134375,-49.7,0.047718250000000004,31.67
2021-06-21 16:21:44.289062500,-57.0,0.0,33.0,96.512421875,-52.665000000000006,0.0477983125,31.67
2021-06-21 16:21:44.296875000,-57.0,0.0,33.0,96.51140625,-55.63,0.047878375,31.67
2021-06-21 16:21:44.304687500,-57.0,0.0,33.0,96.510390625,-56.900000000000006,0.0479584375,31.67
2021-06-21 16:21:44.312500000,-57.0,0.0,33.0,96.509375,-58.17,0.0480385,31.67
2021-06-21 16:21:44.320312500,-56.75,0.0,33.0,96.508359375,-57.22,0.0481185625,31.67
2021-06-21 16:21:44.328125000,-56.5,0.0,33.0,96.50734375,-56.27,0.048198625,31.67
2021-06-21 16:21:44.335937500,-56.25,0.0,33.0,96.506328125,-53.0,0.0482786875,31.67
2021-06-21 16:21:44.343750000,-56.0,0.0,33.0,96.5053125,-49.73,0.04835875,31.67
2021-06-21 16:21:44.351562500,-56.0,0.25,33.0,96.504296875,-44.525,0.0484388125,31.67
2021-06-21 16:21:44.359375000,-56.0,0.5,33.0,96.50328125,-39.32,0.048518875,31.67
2021-06-21 16:21:44.367187500,-56.0,0.75,33.0,96.50226562499999,-32.975,0.0485989375,31.67
2021-06-21 16:21:44.375000000,-56.0,1.0,33.0,96.50125,-26.63,0.048679,31.67
2021-06-21 16:21:44.382812500,-56.25,1.0,33.0,96.500234375,-20.04,0.0487590625,31.67
2021-06-21 16:21:44.390625000,-56.5,1.0,33.0,96.49921875,-13.45,0.048839125,31.67
2021-06-21 16:21:44.398437500,-56.75,1.0,33.0,96.498203125,-7.375,0.0489191875,31.67
2021-06-21 16:21:44.406250000,-57.0,1.0,33.0,96.4971875,-1.3,0.04899925,31.67
2021-06-21 16:21:44.414062500,-56.75,0.75,33.0,96.496171875,3.825,0.0490793125,31.67
2021-06-21 16:21:44.421875000,-56.5,0.5,33.0,96.49515625,8.95,0.049159375,31.67
2021-06-21 16:21:44.429687500,-56.25,0.25,33.0,96.494140625,13.01,0.0492394375,31.67
2021-06-21 16:21:44.437500000,-56.0,0.0,33.0,96.49312499999999,17.07,0.0493195,31.67
2021-06-21 16:21:44.445312500,-56.25,0.0,32.75,96.492109375,20.105,0.0493995625,31.67
2021-06-21 16:21:44.453125000,-56.5,0.0,32.5,96.49109375,23.14,0.049479625,31.67
2021-06-21 16:21:44.460937500,-56.75,0.0,32.25,96.490078125,25.225,0.0495596875,31.67
2021-06-21 16:21:44.468750000,-57.0,0.0,32.0,96.4890625,27.31,0.049639749999999996,31.67
2021-06-21 16:21:44.476562500,-57.0,0.25,32.25,96.488046875,28.41,0.049719812499999995,31.67
2021-06-21 16:21:44.484375000,-57.0,0.5,32.5,96.48703125,29.51,0.049799875,31.67
2021-06-21 16:21:44.492187500,-57.0,0.75,32.75,96.486015625,29.565,0.0498799375,31.67
2021-06-21 16:21:44.500000000,-57.0,1.0,33.0,96.485,29.62,0.04996,31.67
2021-06-21 16:21:44.507812500,-56.75,0.75,33.0,96.483984375,28.634999999999998,0.0498799375,31.67
2021-06-21 16:21:44.515625000,-56.5,0.5,33.0,96.48296875,27.65,0.049799875,31.67
2021-06-21 16:21:44.523437500,-56.25,0.25,33.0,96.481953125,25.79,0.049719812499999995,31.67
2021-06-21 16:21:44.531250000,-56.0,0.0,33.0,96.4809375,23.93,0.049639749999999996,31.67
2021-06-21 16:21:44.539062500,-56.0,0.0,32.75,96.479921875,21.53,0.0495596875,31.67
2021-06-21 16:21:44.546875000,-56.0,0.0,32.5,96.47890625,19.13,0.049479625,31.67
2021-06-21 16:21:44.554687500,-56.0,0.0,32.25,96.477890625,16.634999999999998,0.0493995625,31.67
2021-06-21 16:21:44.562500000,-56.0,0.0,32.0,96.476875,14.14,0.0493195,31.67
2021-06-21 16:21:44.570312500,-56.25,0.0,32.0,96.475859375,11.93,0.0492394375,31.67
2021-06-21 16:21:44.578125000,-56.5,0.0,32.0,96.47484375,9.72,0.049159375,31.67
2021-06-21 16:21:44.585937500,-56.75,0.0,32.0,96.473828125,7.995,0.0490793125,31.67
2021-06-21 16:21:44.593750000,-57.0,0.0,32.0,96.4728125,6.27,0.04899925,31.67
2021-06-21 16:21:44.601562500,-56.75,0.0,32.25,96.471796875,5.015,0.0489191875,31.67
2021-06-21 16:21:44.609375000,-56.5,0.0,32.5,96.47078125,3.76,0.048839125,31.67
2021-06-21 16:21:44.617187500,-56.25,0.0,32.75,96.469765625,2.76,0.0487590625,31.67
2021-06-21 16:21:44.625000000,-56.0,0.0,33.0,96.46875,1.76,0.048679,31.67
2021-06-21 16:21:44.632812500,-56.25,0.25,32.75,96.467734375,0.76,0.0485989375,31.67
2021-06-21 16:21:44.640625000,-56.5,0.5,32.5,96.46671875,-0.24,0.048518875,31.67
2021-06-21 16:21:44.648437500,-56.75,0.75,32.25,96.465703125,-1.43,0.0484388125,31.67
2021-06-21 16:21:44.656250000,-57.0,1.0,32.0,96.4646875,-2.62,0.04835875,31.67
2021-06-21 16:21:44.664062500,-57.0,0.75,32.25,96.463671875,-4.035,0.0482786875,31.67
2021-06-21 16:21:44.671875000,-57.0,0.5,32.5,96.46265625,-5.45,0.048198625,31.67
2021-06-21 16:21:44.679687500,-57.0,0.25,32.75,96.461640625,-7.01,0.0481185625,31.67
2021-06-21 16:21:44.687500000,-57.0,0.0,33.0,96.460625,-8.57,0.0480385,31.67
2021-06-21 16:21:44.695312500,-57.0,0.0,33.0,96.459609375,-10.094999999999999,0.0479584375,31.67
2021-06-21 16:21:44.703125000,-57.0,0.0,33.0,96.45859375,-11.62,0.047878375,31.67
2021-06-21 16:21:44.710937500,-57.0,0.0,33.0,96.457578125,-12.98,0.0477983125,31.67
2021-06-21 16:21:44.718750000,-57.0,0.0,33.0,96.4565625,-14.34,0.047718250000000004,31.67
2021-06-21 16:21:44.726562500,-57.0,0.25,32.75,96.455546875,-15.515,0.047638187500000005,31.67
2021-06-21 16:21:44.734375000,-57.0,0.5,32.5,96.45453125,-16.69,0.047558125,31.67
2021-06-21 16:21:44.742187500,-57.0,0.75,32.25,96.453515625,-17.8,0.0474780625,31.67
2021-06-21 16:21:44.750000000,-57.0,1.0,32.0,96.4525,-18.91,0.047398,31.67
2021-06-21 16:21:44.757812500,-57.0,0.75,32.25,96.451484375,-20.175,0.047518093750000004,31.67
2021-06-21 16:21:44.765625000,-57.0,0.5,32.5,96.45046875,-21.44,0.047638187500000005,31.67
2021-06-21 16:21:44.773437500,-57.0,0.25,32.75,96.449453125,-23.125,0.04775828125,31.67
2021-06-21 16:21:44.781250000,-57.0,0.0,33.0,96.4484375,-24.81,0.047878375,31.67
2021-06-21 16:21:44.789062500,-57.0,0.0,33.0,96.447421875,-27.115000000000002,0.04799846875,31.67
2021-06-21 16:21:44.796875000,-57.0,0.0,33.0,96.44640625,-29.42,0.0481185625,31.67
2021-06-21 16:21:44.804687500,-57.0,0.0,33.0,96.445390625,-32.455,0.048238656250000005,31.67
2021-06-21 16:21:44.812500000,-57.0,0.0,33.0,96.44437500000001,-35.49,0.048358750000000006,31.67
2021-06-21 16:21:44.820312500,-57.0,0.25,33.0,96.443359375,-39.17,0.04847884375,31.67
2021-06-21 16:21:44.828125000,-57.0,0.5,33.0,96.44234375,-42.85,0.0485989375,31.67
2021-06-21 16:21:44.835937500,-57.0,0.75,33.0,96.441328125,-46.89,0.04871903125,31.67
2021-06-21 16:21:44.843750000,-57.0,1.0,33.0,96.4403125,-50.93,0.048839125000000004,31.67
2021-06-21 16:21:44.851562500,-56.75,1.0,33.0,96.439296875,-54.825,0.048959218750000005,31.67
2021-06-21 16:21:44.859375000,-56.5,1.0,33.0,96.43828125,-58.72,0.0490793125,31.67
2021-06-21 16:21:44.867187500,-56.25,1.0,33.0,96.437265625,-61.795,0.04919940625,31.67
2021-06-21 16:21:44.875000000,-56.0,1.0,33.0,96.43625,-64.87,0.0493195,31.67
2021-06-21 16:21:44.882812500,-56.25,0.75,33.0,96.43523437500001,-66.44,0.049439593750000004,31.67
2021-06-21 16:21:44.890625000,-56.5,0.5,33.0,96.43421875,-68.01,0.049559687500000005,31.67
2021-06-21 16:21:44.898437500,-56.75,0.25,33.0,96.433203125,-67.56,0.04967978125,31.67
2021-06-21 16:21:44.906250000,-57.0,0.0,33.0,96.4321875,-67.11,0.049799875,31.67
2021-06-21 16:21:44.914062500,-57.0,0.0,33.0,96.431171875,-64.475,0.04991996875,31.67
2021-06-21 16:21:44.921875000,-57.0,0.0,33.0,96.43015625,-61.84,0.0500400625,31.67
2021-06-21 16:21:44.929687500,-57.0,0.0,33.0,96.429140625,-57.25,0.050160156250000004,31.67
2021-06-21 16:21:44.937500000,-57.0,0.0,33.0,96.428125,-52.66,0.05028025,31.67
2021-06-21 16:21:44.945312500,-56.75,0.25,33.0,96.427109375,-46.69499999999999,0.05040034375,31.67
2021-06-21 16:21:44.953125000,-56.5,0.5,33.0,96.42609375,-40.73,0.0505204375,31.67
2021-06-21 16:21:44.960937500,-56.25,0.75,33.0,96.425078125,-34.12,0.05064053125,31.67
2021-06-21 16:21:44.968750000,-56.0,1.0,33.0,96.4240625,-27.51,0.050760625000000004,31.67
2021-06-21 16:21:44.976562500,-56.25,1.0,33.0,96.423046875,-20.935000000000002,0.050880718750000005,31.67
2021-06-21 16:21:44.984375000,-56.5,1.0,33.0,96.42203125,-14.36,0.0510008125,31.67
2021-06-21 16:21:44.992187500,-56.75,1.0,33.0,96.421015625,-8.305,0.05112090625,31.67
2021-06-21 16:21:45.000000000,-57.0,1.0,33.0,96.42,-2.25,0.051241,31.67
2021-06-21 16:21:45.007812500,-56.75,1.0,33.0,96.41890625,3.0149999999999997,0.05112090625,31.669375000000002
2021-06-21 16:21:45.015625000,-56.5,1.0,33.0,96.4178125,8.28,0.0510008125,31.668750000000003
2021-06-21 16:21:45.023437500,-56.25,1.0,33.0,96.41671875,12.61,0.050880718750000005,31.668125
2021-06-21 16:21:45.031250000,-56.0,1.0,33.0,96.415625,16.94,0.050760625000000004,31.6675
2021-06-21 16:21:45.039062500,-56.25,0.75,32.75,96.41453125,20.205,0.05064053125,31.666875
2021-06-21 16:21:45.046875000,-56.5,0.5,32.5,96.4134375,23.47,0.0505204375,31.66625
2021-06-21 16:21:45.054687500,-56.75,0.25,32.25,96.41234375,25.54,0.05040034375,31.665625000000002
2021-06-21 16:21:45.062500000,-57.0,0.0,32.0,96.41125,27.61,0.05028025,31.665
2021-06-21 16:21:45.070312500,-57.0,0.25,32.0,96.41015625,28.365000000000002,0.050160156250000004,31.664375
2021-06-21 16:21:45.078125000,-57.0,0.5,32.0,96.4090625,29.12,0.0500400625,31.66375
2021-06-21 16:21:45.085937500,-57.0,0.75,32.0,96.40796875,28.555,0.04991996875,31.663125
2021-06-21 16:21:45.093750000,-57.0,1.0,32.0,96.406875,27.99,0.049799875,31.6625
2021-06-21 16:21:45.101562500,-57.0,1.0,32.25,96.40578125,26.29,0.04967978125,31.661875000000002
2021-06-21 16:21:45.109375000,-57.0,1.0,32.5,96.40468750000001,24.59,0.049559687500000005,31.66125
2021-06-21 16:21:45.117187500,-57.0,1.0,32.75,96.40359375,22.125,0.049439593750000004,31.660625
2021-06-21 16:21:45.125000000,-57.0,1.0,33.0,96.4025,19.66,0.0493195,31.66
2021-06-21 16:21:45.132812500,-56.75,1.0,33.0,96.40140625000001,16.89,0.04919940625,31.659375
2021-06-21 16:21:45.140625000,-56.5,1.0,33.0,96.4003125,14.12,0.0490793125,31.65875
2021-06-21 16:21:45.148437500,-56.25,1.0,33.0,96.39921875,11.489999999999998,0.048959218750000005,31.658125
2021-06-21 16:21:45.156250000,-56.0,1.0,33.0,96.39812500000001,8.86,0.048839125000000004,31.6575
2021-06-21 16:21:45.164062500,-56.0,1.0,33.0,96.39703125,6.675,0.04871903125,31.656875
2021-06-21 16:21:45.171875000,-56.0,1.0,33.0,96.3959375,4.49,0.0485989375,31.65625
2021-06-21 16:21:45.179687500,-56.0,1.0,33.0,96.39484375,2.85,0.04847884375,31.655625
2021-06-21 16:21:45.187500000,-56.0,1.0,33.0,96.39375,1.21,0.048358750000000006,31.655
2021-06-21 16:21:45.195312500,-56.25,1.0,33.0,96.39265625,0.010000000000000009,0.048238656250000005,31.654374999999998
2021-06-21 16:21:45.203125000,-56.5,1.0,33.0,96.3915625,-1.19,0.0481185625,31.65375
2021-06-21 16:21:45.210937500,-56.75,1.0,33.0,96.39046875,-2.165,0.04799846875,31.653125
2021-06-21 16:21:45.218750000,-57.0,1.0,33.0,96.389375,-3.14,0.047878375,31.6525
2021-06-21 16:21:45.226562500,-57.0,0.75,33.0,96.38828125,-4.125,0.04775828125,31.651875
2021-06-21 16:21:45.234375000,-57.0,0.5,33.0,96.3871875,-5.11,0.047638187500000005,31.651249999999997
2021-06-21 16:21:45.242187500,-57.0,0.25,33.0,96.38609375,-6.245,0.047518093750000004,31.650624999999998
2021-06-21 16:21:45.250000000,-57.0,0.0,33.0,96.385,-7.38,0.047398,31.65
2021-06-21 16:21:45.257812500,-56.75,0.0,33.0,96.38390625,-8.645,0.047398,31.65
2021-06-21 16:21:45.265625000,-56.5,0.0,33.0,96.3828125,-9.91,0.047398,31.65
2021-06-21 16:21:45.273437500,-56.25,0.0,33.0,96.38171875,-11.215,0.047398,31.65
2021-06-21 16:21:45.281250000,-56.0,0.0,33.0,96.380625,-12.52,0.047398,31.65
2021-06-21 16:21:45.289062500,-56.0,0.0,33.0,96.37953125,-13.75,0.047398,31.65
2021-06-21 16:21:45.296875000,-56.0,0.0,33.0,96.3784375,-14.98,0.047398,31.65
2021-06-21 16:21:45.304687500,-56.0,0.0,33.0,96.37734375000001,-16.12,0.047398,31.65
2021-06-21 16:21:45.312500000,-56.0,0.0,33.0,96.37625,-17.26,0.047398,31.65
2021-06-21 16:21:45.320312500,-56.0,0.25,33.0,96.37515625,-18.445,0.047398,31.65
2021-06-21 16:21:45.328125000,-56.0,0.5,33.0,96.37406250000001,-19.63,0.047398,31.65
2021-06-21 16:21:45.335937500,-56.0,0.75,33.0,96.37296875,-21.104999999999997,0.047398,31.65
2021-06-21 16:21:45.343750000,-56.0,1.0,33.0,96.371875,-22.58,0.047398,31.65
2021-06-21 16:21:45.351562500,-56.25,0.75,33.0,96.37078125000001,-24.604999999999997,0.047398,31.65
2021-06-21 16:21:45.359375000,-56.5,0.5,33.0,96.3696875,-26.63,0.047398,31.65
2021-06-21 16:21:45.367187500,-56.75,0.25,33.0,96.36859375,-29.405,0.047398,31.65
2021-06-21 16:21:45.375000000,-57.0,0.0,33.0,96.3675,-32.18,0.047398,31.65
2021-06-21 16:21:45.382812500,-56.75,0.0,33.0,96.36640625,-35.745000000000005,0.047398,31.65
2021-06-21 16:21:45.390625000,-56.5,0.0,33.0,96.3653125,-39.31,0.047398,31.65
2021-06-21 16:21:45.398437500,-56.25,0.0,33.0,96.36421875,-43.535,0.047398,31.65
2021-06-21 16:21:45.406250000,-56.0,0.0,33.0,96.363125,-47.76,0.047398,31.65
2021-06-21 16:21:45.414062500,-56.25,0.0,32.75,96.36203125,-52.28,0.047398,31.65
2021-06-21 16:21:45.421875000,-56.5,0.0,32.5,96.3609375,-56.8,0.047398,31.65
2021-06-21 16:21:45.429687500,-56.75,0.0,32.25,96.35984375,-61.074999999999996,0.047398,31.65
2021-06-21 16:21:45.437500000,-57.0,0.0,32.0,96.35875,-65.35,0.047398,31.65
2021-06-21 16:21:45.445312500,-57.0,0.25,32.25,96.35765625,-68.68,0.047398,31.65
2021-06-21 16:21:45.453125000,-57.0,0.5,32.5,96.3565625,-72.01,0.047398,31.65
2021-06-21 16:21:45.460937500,-57.0,0.75,32.75,96.35546875,-73.695,0.047398,31.65
2021-06-21 16:21:45.468750000,-57.0,1.0,33.0,96.354375,-75.38,0.047398,31.65
2021-06-21 16:21:45.476562500,-56.75,1.0,33.0,96.35328125,-74.88499999999999,0.047398,31.65
2021-06-21 16:21:45.484375000,-56.5,1.0,33.0,96.3521875,-74.39,0.047398,31.65
2021-06-21 16:21:45.492187500,-56.25,1.0,33.0,96.35109375,-71.53999999999999,0.047398,31.65
2021-06-21 16:21:45.500000000,-56.0,1.0,33.0,96.35,-68.69,0.047398,31.65
2021-06-21 16:21:45.507812500,-56.25,0.75,33.0,96.34890625,-63.769999999999996,0.047398,31.65
2021-06-21 16:21:45.515625000,-56.5,0.5,33.0,96.3478125,-58.85,0.047398,31.65
2021-06-21 16:21:45.523437500,-56.75,0.25,33.0,96.34671875000001,-52.535,0.047398,31.65
2021-06-21 16:21:45.531250000,-57.0,0.0,33.0,96.345625,-46.22,0.047398,31.65
2021-06-21 16:21:45.539062500,-57.0,0.0,33.0,96.34453125,-39.355000000000004,0.047398,31.65
2021-06-21 16:21:45.546875000,-57.0,0.0,33.0,96.34343750000001,-32.49,0.047398,31.65
2021-06-21 16:21:45.554687500,-57.0,0.0,33.0,96.34234375,-25.825000000000003,0.047398,31.65
2021-06-21 16:21:45.562500000,-57.0,0.0,33.0,96.34125,-19.16,0.047398,31.65
2021-06-21 16:21:45.570312500,-56.75,0.25,33.0,96.34015625,-13.195,0.047398,31.65
2021-06-21 16:21:45.578125000,-56.5,0.5,33.0,96.3390625,-7.23,0.047398,31.65
2021-06-21 16:21:45.585937500,-56.25,0.75,33.0,96.33796875,-2.165,0.047398,31.65
2021-06-21 16:21:45.593750000,-56.0,1.0,33.0,96.336875,2.9,0.047398,31.65
2021-06-21 16:21:45.601562500,-56.0,0.75,32.75,96.33578125,7.025,0.047398,31.65
2021-06-21 16:21:45.609375000,-56.0,0.5,32.5,96.3346875,11.15,0.047398,31.65
2021-06-21 16:21:45.617187500,-56.0,0.25,32.25,96.33359375,14.364999999999998,0.047398,31.65
2021-06-21 16:21:45.625000000,-56.0,0.0,32.0,96.3325,17.58,0.047398,31.65
2021-06-21 16:21:45.632812500,-56.0,0.0,32.25,96.33140625,19.825,0.047398,31.65
2021-06-21 16:21:45.640625000,-56.0,0.0,32.5,96.3303125,22.07,0.047398,31.65
2021-06-21 16:21:45.648437500,-56.0,0.0,32.75,96.32921875,23.259999999999998,0.047398,31.65
2021-06-21 16:21:45.656250000,-56.0,0.0,33.0,96.328125,24.45,0.047398,31.65
2021-06-21 16:21:45.664062500,-56.25,0.25,33.0,96.32703125,24.545,0.047398,31.65
2021-06-21 16:21:45.671875000,-56.5,0.5,33.0,96.3259375,24.64,0.047398,31.65
2021-06-21 16:21:45.679687500,-56.75,0.75,33.0,96.32484375,23.735,0.047398,31.65
2021-06-21 16:21:45.687500000,-57.0,1.0,33.0,96.32375,22.83,0.047398,31.65
2021-06-21 16:21:45.695312500,-57.0,0.75,33.0,96.32265625,21.2,0.047398,31.65
2021-06-21 16:21:45.703125000,-57.0,0.5,33.0,96.3215625,19.57,0.047398,31.65
2021-06-21 16:21:45.710937500,-57.0,0.25,33.0,96.32046875,17.595,0.047398,31.65
2021-06-21 16:21:45.718750000,-57.0,0.0,33.0,96.31937500000001,15.62,0.047398,31.65
2021-06-21 16:21:45.726562500,-57.0,0.25,33.0,96.31828125,13.71,0.047398,31.65
2021-06-21 16:21:45.734375000,-57.0,0.5,33.0,96.3171875,11.8,0.047398,31.65
2021-06-21 16:21:45.742187500,-57.0,0.75,33.0,96.31609375000001,10.245000000000001,0.047398,31.65
2021-06-21 16:21:45.750000000,-57.0,1.0,33.0,96.315,8.69,0.047398,31.65
2021-06-21 16:21:45.757812500,-56.75,0.75,33.0,96.31390625,7.64,0.0474780625,31.65
2021-06-21 16:21:45.765625000,-56.5,0.5,33.0,96.3128125,6.59,0.047558125,31.65
2021-06-21 16:21:45.773437500,-56.25,0.25,33.0,96.31171875,6.0,0.047638187500000005,31.65
2021-06-21 16:21:45.781250000,-56.0,0.0,33.0,96.310625,5.41,0.047718250000000004,31.65
2021-06-21 16:21:45.789062500,-56.0,0.0,33.0,96.30953125,5.145,0.0477983125,31.65
2021-06-21 16:21:45.796875000,-56.0,0.0,33.0,96.3084375,4.88,0.047878375,31.65
2021-06-21 16:21:45.804687500,-56.0,0.0,33.0,96.30734375,4.74,0.0479584375,31.65
2021-06-21 16:21:45.812500000,-56.0,0.0,33.0,96.30625,4.6,0.0480385,31.65
2021-06-21 16:21:45.820312500,-56.25,0.0,33.0,96.30515625,4.435,0.0481185625,31.65
2021-06-21 16:21:45.828125000,-56.5,0.0,33.0,96.3040625,4.27,0.048198625,31.65
2021-06-21 16:21:45.835937500,-56.75,0.0,33.0,96.30296875,3.9749999999999996,0.0482786875,31.65
2021-06-21 16:21:45.843750000,-57.0,0.0,33.0,96.301875,3.68,0.04835875,31.65
2021-06-21 16:21:45.851562500,-56.75,0.25,33.0,96.30078125,3.2,0.0484388125,31.65
2021-06-21 16:21:45.859375000,-56.5,0.5,33.0,96.2996875,2.72,0.048518875,31.65
2021-06-21 16:21:45.867187500,-56.25,0.75,33.0,96.29859375,2.04,0.0485989375,31.65
2021-06-21 16:21:45.875000000,-56.0,1.0,33.0,96.2975,1.36,0.048679,31.65
2021-06-21 16:21:45.882812500,-56.0,1.0,33.0,96.29640625,0.48,0.0487590625,31.65
2021-06-21 16:21:45.890625000,-56.0,1.0,33.0,96.2953125,-0.4,0.048839125,31.65
2021-06-21 16:21:45.898437500,-56.0,1.0,33.0,96.29421875,-1.5100000000000002,0.0489191875,31.65
2021-06-21 16:21:45.906250000,-56.0,1.0,33.0,96.293125,-2.62,0.04899925,31.65
2021-06-21 16:21:45.914062500,-56.25,1.0,33.0,96.29203125000001,-4.01,0.0490793125,31.65
2021-06-21 16:21:45.921875000,-56.5,1.0,33.0,96.2909375,-5.4,0.049159375,31.65
2021-06-21 16:21:45.929687500,-56.75,1.0,33.0,96.28984375,-7.17,0.0492394375,31.65
2021-06-21 16:21:45.937500000,-57.0,1.0,33.0,96.28875000000001,-8.94,0.0493195,31.65
2021-06-21 16:21:45.945312500,-57.0,0.75,32.75,96.28765625,-11.19,0.0493995625,31.65
2021-06-21 16:21:45.953125000,-57.0,0.5,32.5,96.2865625,-13.44,0.049479625,31.65
2021-06-21 16:21:45.960937500,-57.0,0.25,32.25,96.28546875,-16.255,0.0495596875,31.65
2021-06-21 16:21:45.968750000,-57.0,0.0,32.0,96.284375,-19.07,0.049639749999999996,31.65
2021-06-21 16:21:45.976562500,-57.0,0.0,32.25,96.28328125,-22.509999999999998,0.049719812499999995,31.65
2021-06-21 16:21:45.984375000,-57.0,0.0,32.5,96.2821875,-25.95,0.049799875,31.65
2021-06-21 16:21:45.992187500,-57.0,0.0,32.75,96.28109375,-29.96,0.0498799375,31.65
2021-06-21 16:21:46.000000000,-57.0,0.0,33.0,96.28,-33.97,0.04996,31.65
2021-06-21 16:21:46.007812500,-56.75,0.25,33.0,96.27898437500001,-38.370000000000005,0.0498799375,31.65
2021-06-21 16:21:46.015625000,-56.5,0.5,33.0,96.27796875,-42.77,0.049799875,31.65
2021-06-21 16:21:46.023437500,-56.25,0.75,33.0,96.276953125,-47.2,0.049719812499999995,31.65
2021-06-21 16:21:46.031250000,-56.0,1.0,33.0,96.2759375,-51.63,0.049639749999999996,31.65
2021-06-21 16:21:46.039062500,-56.0,0.75,33.0,96.274921875,-55.519999999999996,0.0495596875,31.65
2021-06-21 16:21:46.046875000,-56.0,0.5,33.0,96.27390625,-59.41,0.049479625,31.65
2021-06-21 16:21:46.054687500,-56.0,0.25,33.0,96.272890625,-62.074999999999996,0.0493995625,31.65
2021-06-21 16:21:46.062500000,-56.0,0.0,33.0,96.271875,-64.74,0.0493195,31.65
2021-06-21 16:21:46.070312500,-56.25,0.0,33.0,96.270859375,-65.495,0.0492394375,31.65
2021-06-21 16:21:46.078125000,-56.5,0.0,33.0,96.26984375,-66.25,0.049159375,31.65
2021-06-21 16:21:46.085937500,-56.75,0.0,33.0,96.268828125,-64.595,0.0490793125,31.65
2021-06-21 16:21:46.093750000,-57.0,0.0,33.0,96.2678125,-62.94,0.04899925,31.65
2021-06-21 16:21:46.101562500,-57.0,0.25,33.0,96.266796875,-58.775,0.0489191875,31.65
2021-06-21 16:21:46.109375000,-57.0,0.5,33.0,96.26578125,-54.61,0.048839125,31.65
2021-06-21 16:21:46.117187500,-57.0,0.75,33.0,96.264765625,-48.3,0.0487590625,31.65
2021-06-21 16:21:46.125000000,-57.0,1.0,33.0,96.26375,-41.99,0.048679,31.65
2021-06-21 16:21:46.132812500,-57.0,1.0,33.0,96.26273437500001,-34.315,0.0485989375,31.65
2021-06-21 16:21:46.140625000,-57.0,1.0,33.0,96.26171875,-26.64,0.048518875,31.65
2021-06-21 16:21:46.148437500,-57.0,1.0,33.0,96.260703125,-18.565,0.0484388125,31.65
2021-06-21 16:21:46.156250000,-57.0,1.0,33.0,96.2596875,-10.49,0.04835875,31.65
2021-06-21 16:21:46.164062500,-57.0,1.0,33.0,96.258671875,-2.915,0.0482786875,31.65
2021-06-21 16:21:46.171875000,-57.0,1.0,33.0,96.25765625,4.66,0.048198625,31.65
2021-06-21 16:21:46.179687500,-57.0,1.0,33.0,96.256640625,11.1,0.0481185625,31.65
2021-06-21 16:21:46.187500000,-57.0,1.0,33.0,96.25562500000001,17.54,0.0480385,31.65
2021-06-21 16:21:46.195312500,-56.75,0.75,33.0,96.254609375,22.564999999999998,0.0479584375,31.65
2021-06-21 16:21:46.203125000,-56.5,0.5,33.0,96.25359375000001,27.59,0.047878375,31.65
2021-06-21 16:21:46.210937500,-56.25,0.25,33.0,96.252578125,31.200000000000003,0.0477983125,31.65
2021-06-21 16:21:46.218750000,-56.0,0.0,33.0,96.2515625,34.81,0.047718250000000004,31.65
2021-06-21 16:21:46.226562500,-56.25,0.0,33.0,96.250546875,37.16,0.047638187500000005,31.65
2021-06-21 16:21:46.234375000,-56.5,0.0,33.0,96.24953125,39.51,0.047558125,31.65
2021-06-21 16:21:46.242187500,-56.75,0.0,33.0,96.248515625,40.785,0.0474780625,31.65
2021-06-21 16:21:46.250000000,-57.0,0.0,33.0,96.2475,42.06,0.047398,31.65
2021-06-21 16:21:46.257812500,-57.0,0.0,33.0,96.24648437500001,42.45,0.047558125,31.65
2021-06-21 16:21:46.265625000,-57.0,0.0,33.0,96.24546875,42.84,0.047718250000000004,31.65
2021-06-21 16:21:46.273437500,-57.0,0.0,33.0,96.244453125,42.510000000000005,0.047878375,31.65
2021-06-21 16:21:46.281250000,-57.0,0.0,33.0,96.2434375,42.18,0.048038500000000005,31.65
2021-06-21 16:21:46.289062500,-56.75,0.25,33.0,96.242421875,41.295,0.048198625,31.65
2021-06-21 16:21:46.296875000,-56.5,0.5,33.0,96.24140625,40.41,0.04835875,31.65
2021-06-21 16:21:46.304687500,-56.25,0.75,33.0,96.240390625,39.175,0.048518875,31.65
2021-06-21 16:21:46.312500000,-56.0,1.0,33.0,96.239375,37.94,0.048679,31.65
2021-06-21 16:21:46.320312500,-56.0,1.0,33.0,96.238359375,36.575,0.048839125000000004,31.65
2021-06-21 16:21:46.328125000,-56.0,1.0,33.0,96.23734375000001,35.21,0.04899925,31.65
2021-06-21 16:21:46.335937500,-56.0,1.0,33.0,96.236328125,33.94,0.049159375,31.65
2021-06-21 16:21:46.343750000,-56.0,1.0,33.0,96.2353125,32.67,0.0493195,31.65
2021-06-21 16:21:46.351562500,-56.25,0.75,32.75,96.234296875,31.68,0.049479625,31.65
2021-06-21 16:21:46.359375000,-56.5,0.5,32.5,96.23328125,30.69,0.04963975,31.65
2021-06-21 16:21:46.367187500,-56.75,0.25,32.25,96.232265625,30.1,0.049799875,31.65
2021-06-21 16:21:46.375000000,-57.0,0.0,32.0,96.23125,29.51,0.049960000000000004,31.65
2021-06-21 16:21:46.382812500,-57.0,0.0,32.25,96.23023437500001,29.325000000000003,0.050120125,31.65
2021-06-21 16:21:46.390625000,-57.0,0.0,32.5,96.22921875,29.14,0.05028025,31.65
2021-06-21 16:21:46.398437500,-57.0,0.0,32.75,96.22820312500001,29.25,0.050440375,31.65
2021-06-21 16:21:46.406250000,-57.0,0.0,33.0,96.2271875,29.36,0.0506005,31.65
2021-06-21 16:21:46.414062500,-57.0,0.0,33.0,96.226171875,29.6,0.050760625000000004,31.65
2021-06-21 16:21:46.421875000,-57.0,0.0,33.0,96.22515625,29.84,0.05092075,31.65
2021-06-21 16:21:46.429687500,-57.0,0.0,33.0,96.224140625,29.990000000000002,0.051080875,31.65
2021-06-21 16:21:46.437500000,-57.0,0.0,33.0,96.22312500000001,30.14,0.051241,31.65
2021-06-21 16:21:46.445312500,-57.0,0.0,32.75,96.222109375,30.02,0.051401125,31.65
2021-06-21 16:21:46.453125000,-57.0,0.0,32.5,96.22109375000001,29.9,0.05156125,31.65
2021-06-21 16:21:46.460937500,-57.0,0.0,32.25,96.220078125,29.369999999999997,0.051721375,31.65
2021-06-21 16:21:46.468750000,-57.0,0.0,32.0,96.2190625,28.84,0.0518815,31.65
2021-06-21 16:21:46.476562500,-56.75,0.0,32.25,96.218046875,27.835,0.052041625,31.65
2021-06-21 16:21:46.484375000,-56.5,0.0,32.5,96.21703125,26.83,0.05220175,31.65
2021-06-21 16:21:46.492187500,-56.25,0.0,32.75,96.216015625,25.34,0.052361875,31.65
2021-06-21 16:21:46.500000000,-56.0,0.0,33.0,96.215,23.85,0.052522,31.65
2021-06-21 16:21:46.507812500,-56.0,0.25,32.75,96.21398437500001,21.93,0.052361875,31.65
2021-06-21 16:21:46.515625000,-56.0,0.5,32.5,96.21296875,20.01,0.05220175,31.65
2021-06-21 16:21:46.523437500,-56.0,0.75,32.25,96.21195312500001,17.740000000000002,0.052041625,31.65
2021-06-21 16:21:46.531250000,-56.0,1.0,32.0,96.2109375,15.47,0.0518815,31.65
2021-06-21 16:21:46.539062500,-56.25,1.0,32.25,96.209921875,12.98,0.051721375,31.65
2021-06-21 16:21:46.546875000,-56.5,1.0,32.5,96.20890625,10.49,0.05156125,31.65
2021-06-21 16:21:46.554687500,-56.75,1.0,32.75,96.207890625,7.91,0.051401125,31.65
2021-06-21 16:21:46.562500000,-57.0,1.0,33.0,96.206875,5.33,0.051241,31.65
2021-06-21 16:21:46.570312500,-57.0,1.0,33.0,96.205859375,2.74,0.051080875,31.65
2021-06-21 16:21:46.578125000,-57.0,1.0,33.0,96.20484375000001,0.15,0.05092075,31.65
2021-06-21 16:21:46.585937500,-57.0,1.0,33.0,96.203828125,-2.45,0.050760625000000004,31.65
2021-06-21 16:21:46.593750000,-57.0,1.0,33.0,96.20281250000001,-5.05,0.0506005,31.65
2021-06-21 16:21:46.601562500,-57.0,1.0,33.0,96.201796875,-7.77,0.050440375,31.65
2021-06-21 16:21:46.609375000,-57.0,1.0,33.0,96.20078125,-10.49,0.05028025,31.65
2021-06-21 16:21:46.617187500,-57.0,1.0,33.0,96.199765625,-13.52,0.050120125,31.65
2021-06-21 16:21:46.625000000,-57.0,1.0,33.0,96.19875,-16.55,0.049960000000000004,31.65
2021-06-21 16:21:46.632812500,-57.0,1.0,33.0,96.19773437500001,-20.09,0.049799875,31.65
2021-06-21 16:21:46.640625000,-57.0,1.0,33.0,96.19671875,-23.63,0.04963975,31.65
2021-06-21 16:21:46.648437500,-57.0,1.0,33.0,96.19570312500001,-27.735,0.049479625,31.65
2021-06-21 16:21:46.656250000,-57.0,1.0,33.0,96.1946875,-31.84,0.0493195,31.65
2021-06-21 16:21:46.664062500,-57.0,0.75,33.0,96.193671875,-36.265,0.049159375000000005,31.65
2021-06-21 16:21:46.671875000,-57.0,0.5,33.0,96.19265625,-40.69,0.04899925,31.65
2021-06-21 16:21:46.679687500,-57.0,0.25,33.0,96.191640625,-44.89,0.048839125000000004,31.65
2021-06-21 16:21:46.687500000,-57.0,0.0,33.0,96.19062500000001,-49.09,0.048679,31.65
2021-06-21 16:21:46.695312500,-57.0,0.0,32.75,96.189609375,-52.260000000000005,0.048518875,31.65
2021-06-21 16:21:46.703125000,-57.0,0.0,32.5,96.18859375000001,-55.43,0.048358750000000006,31.65
2021-06-21 16:21:46.710937500,-57.0,0.0,32.25,96.187578125,-56.725,0.048198625,31.65
2021-06-21 16:21:46.718750000,-57.0,0.0,32.0,96.18656250000001,-58.02,0.048038500000000005,31.65
2021-06-21 16:21:46.726562500,-57.0,0.0,32.25,96.185546875,-56.83,0.047878375,31.65
2021-06-21 16:21:46.734375000,-57.0,0.0,32.5,96.18453125,-55.64,0.047718250000000004,31.65
2021-06-21 16:21:46.742187500,-57.0,0.0,32.75,96.183515625,-51.835,0.047558125,31.65
2021-06-21 16:21:46.750000000,-57.0,0.0,33.0,96.1825,-48.03,0.047398,31.65
2021-06-21 16:21:46.757812500,-57.0,0.25,33.0,96.18148437500001,-42.025000000000006,0.047518093750000004,31.65
2021-06-21 16:21:46.765625000,-57.0,0.5,33.0,96.18046875,-36.02,0.047638187500000005,31.65
2021-06-21 16:21:46.773437500,-57.0,0.75,33.0,96.17945312500001,-28.635,0.04775828125,31.65
2021-06-21 16:21:46.781250000,-57.0,1.0,33.0,96.1784375,-21.25,0.047878375,31.65
2021-06-21 16:21:46.789062500,-56.75,1.0,33.0,96.17742187500001,-13.5,0.04799846875,31.65
2021-06-21 16:21:46.796875000,-56.5,1.0,33.0,96.17640625,-5.75,0.0481185625,31.65
2021-06-21 16:21:46.804687500,-56.25,1.0,33.0,96.175390625,1.5,0.048238656250000005,31.65
2021-06-21 16:21:46.812500000,-56.0,1.0,33.0,96.174375,8.75,0.048358750000000006,31.65
2021-06-21 16:21:46.820312500,-56.25,1.0,33.0,96.173359375,14.965,0.04847884375,31.65
2021-06-21 16:21:46.828125000,-56.5,1.0,33.0,96.17234375000001,21.18,0.0485989375,31.65
2021-06-21 16:21:46.835937500,-56.75,1.0,33.0,96.171328125,26.185000000000002,0.04871903125,31.65
2021-06-21 16:21:46.843750000,-57.0,1.0,33.0,96.17031250000001,31.19,0.048839125000000004,31.65
2021-06-21 16:21:46.851562500,-57.0,0.75,33.0,96.169296875,35.04,0.048959218750000005,31.65
2021-06-21 16:21:46.859375000,-57.0,0.5,33.0,96.16828125,38.89,0.0490793125,31.65
2021-06-21 16:21:46.867187500,-57.0,0.25,33.0,96.167265625,41.74,0.04919940625,31.65
2021-06-21 16:21:46.875000000,-57.0,0.0,33.0,96.16625,44.59,0.0493195,31.65
2021-06-21 16:21:46.882812500,-56.75,0.25,32.75,96.16523437500001,46.535,0.049439593750000004,31.65
2021-06-21 16:21:46.890625000,-56.5,0.5,32.5,96.16421875,48.48,0.049559687500000005,31.65
2021-06-21 16:21:46.898437500,-56.25,0.75,32.25,96.16320312500001,49.56999999999999,0.04967978125,31.65
2021-06-21 16:21:46.906250000,-56.0,1.0,32.0,96.1621875,50.66,0.049799875,31.65
2021-06-21 16:21:46.914062500,-56.25,0.75,32.25,96.16117187500001,50.94,0.04991996875,31.65
2021-06-21 16:21:46.921875000,-56.5,0.5,32.5,96.16015625,51.22,0.0500400625,31.65
2021-06-21 16:21:46.929687500,-56.75,0.25,32.75,96.159140625,50.83,0.050160156250000004,31.65
2021-06-21 16:21:46.937500000,-57.0,0.0,33.0,96.15812500000001,50.44,0.05028025,31.65
2021-06-21 16:21:46.945312500,-57.0,0.0,32.75,96.157109375,49.635,0.05040034375,31.65
2021-06-21 16:21:46.953125000,-57.0,0.0,32.5,96.15609375000001,48.83,0.0505204375,31.65
2021-06-21 16:21:46.960937500,-57.0,0.0,32.25,96.155078125,47.935,0.05064053125,31.65
2021-06-21 16:21:46.968750000,-57.0,0.0,32.0,96.15406250000001,47.04,0.050760625000000004,31.65
2021-06-21 16:21:46.976562500,-57.0,0.0,32.25,96.153046875,46.34,0.050880718750000005,31.65
2021-06-21 16:21:46.984375000,-57.0,0.0,32.5,96.15203125000001,45.64,0.0510008125,31.65
2021-06-21 16:21:46.992187500,-57.0,0.0,32.75,96.151015625,45.265,0.05112090625,31.65
2021-06-21 16:21:47.000000000,-57.0,0.0,33.0,96.15,44.89,0.051241,31.65
2021-06-21 16:21:47.007812500,-57.0,0.25,33.0,96.14898437500001,44.8,0.0511609375,31.649375
2021-06-21 16:21:47.015625000,-57.0,0.5,33.0,96.14796875,44.71,0.051080875000000005,31.64875
2021-06-21 16:21:47.023437500,-57.0,0.75,33.0,96.14695312500001,44.725,0.0510008125,31.648125
2021-06-21 16:21:47.031250000,-57.0,1.0,33.0,96.1459375,44.74,0.05092075,31.647499999999997
2021-06-21 16:21:47.039062500,-57.0,0.75,33.0,96.14492187500001,44.625,0.0508406875,31.646874999999998
2021-06-21 16:21:47.046875000,-57.0,0.5,33.0,96.14390625,44.51,0.050760625000000004,31.64625
2021-06-21 16:21:47.054687500,-57.0,0.25,33.0,96.142890625,44.16,0.0506805625,31.645625
2021-06-21 16:21:47.062500000,-57.0,0.0,33.0,96.141875,43.81,0.0506005,31.645
2021-06-21 16:21:47.070312500,-56.75,0.0,33.0,96.140859375,43.22,0.0505204375,31.644375
2021-06-21 16:21:47.078125000,-56.5,0.0,33.0,96.13984375000001,42.63,0.050440375,31.643749999999997
2021-06-21 16:21:47.085937500,-56.25,0.0,33.0,96.138828125,41.925,0.050360312500000004,31.643124999999998
2021-06-21 16:21:47.093750000,-56.0,0.0,33.0,96.13781250000001,41.22,0.05028025,31.6425
2021-06-21 16:21:47.101562500,-56.25,0.0,32.75,96.136796875,40.55,0.0502001875,31.641875
2021-06-21 16:21:47.109375000,-56.5,0.0,32.5,96.13578125000001,39.88,0.050120125,31.64125
2021-06-21 16:21:47.117187500,-56.75,0.0,32.25,96.134765625,39.31,0.0500400625,31.640625
2021-06-21 16:21:47.125000000,-57.0,0.0,32.0,96.13375,38.74,0.049960000000000004,31.64
2021-06-21 16:21:47.132812500,-57.0,0.0,32.0,96.132734375,38.205,0.0498799375,31.639374999999998
2021-06-21 16:21:47.140625000,-57.0,0.0,32.0,96.13171875,37.67,0.049799875,31.638749999999998
2021-06-21 16:21:47.148437500,-57.0,0.0,32.0,96.13070312500001,36.955,0.0497198125,31.638125
2021-06-21 16:21:47.156250000,-57.0,0.0,32.0,96.1296875,36.24,0.04963975,31.6375
2021-06-21 16:21:47.164062500,-56.75,0.25,32.25,96.12867187500001,35.095,0.0495596875,31.636875
2021-06-21 16:21:47.171875000,-56.5,0.5,32.5,96.12765625,33.95,0.049479625,31.63625
2021-06-21 16:21:47.179687500,-56.25,0.75,32.75,96.12664062500001,32.175,0.0493995625,31.635624999999997
2021-06-21 16:21:47.187500000,-56.0,1.0,33.0,96.125625,30.4,0.0493195,31.634999999999998
2021-06-21 16:21:47.195312500,-56.25,1.0,33.0,96.124609375,27.97,0.0492394375,31.634375
2021-06-21 16:21:47.203125000,-56.5,1.0,33.0,96.12359375,25.54,0.049159375,31.63375
2021-06-21 16:21:47.210937500,-56.75,1.0,33.0,96.122578125,22.615000000000002,0.0490793125,31.633125
2021-06-21 16:21:47.218750000,-57.0,1.0,33.0,96.12156250000001,19.69,0.04899925,31.6325
2021-06-21 16:21:47.226562500,-57.0,0.75,32.75,96.120546875,16.57,0.0489191875,31.631874999999997
2021-06-21 16:21:47.234375000,-57.0,0.5,32.5,96.11953125000001,13.45,0.048839125,31.631249999999998
2021-06-21 16:21:47.242187500,-57.0,0.25,32.25,96.118515625,10.445,0.0487590625,31.630625
2021-06-21 16:21:47.250000000,-57.0,0.0,32.0,96.1175,7.44,0.048679,31.63
2021-06-21 16:21:47.257812500,-57.0,0.25,32.25,96.116484375,4.735,0.0487590625,31.63
2021-06-21 16:21:47.265625000,-57.0,0.5,32.5,96.11546875,2.03,0.048839125,31.63
2021-06-21 16:21:47.273437500,-57.0,0.75,32.75,96.114453125,-0.36499999999999977,0.0489191875,31.63
2021-06-21 16:21:47.281250000,-57.0,1.0,33.0,96.1134375,-2.76,0.04899925,31.63
2021-06-21 16:21:47.289062500,-57.0,1.0,32.75,96.11242187500001,-5.0,0.0490793125,31.63
2021-06-21 16:21:47.296875000,-57.0,1.0,32.5,96.11140625,-7.24,0.049159375,31.63
2021-06-21 16:21:47.304687500,-57.0,1.0,32.25,96.11039062500001,-9.565000000000001,0.049239437500000004,31.63
2021-06-21 16:21:47.312500000,-57.0,1.0,32.0,96.109375,-11.89,0.0493195,31.63
2021-06-21 16:21:47.320312500,-57.0,1.0,32.0,96.108359375,-14.530000000000001,0.0493995625,31.63
2021-06-21 16:21:47.328125000,-57.0,1.0,32.0,96.10734375,-17.17,0.049479625,31.63
2021-06-21 16:21:47.335937500,-57.0,1.0,32.0,96.106328125,-20.26,0.0495596875,31.63
2021-06-21 16:21:47.343750000,-57.0,1.0,32.0,96.1053125,-23.35,0.04963975,31.63
2021-06-21 16:21:47.351562500,-57.0,0.75,32.25,96.104296875,-26.885,0.0497198125,31.63
2021-06-21 16:21:47.359375000,-57.0,0.5,32.5,96.10328125000001,-30.42,0.049799875,31.63
2021-06-21 16:21:47.367187500,-57.0,0.25,32.75,96.102265625,-34.24,0.0498799375,31.63
2021-06-21 16:21:47.375000000,-57.0,0.0,33.0,96.10125000000001,-38.06,0.049960000000000004,31.63
2021-06-21 16:21:47.382812500,-56.75,0.0,33.0,96.100234375,-41.805,0.0500400625,31.63
2021-06-21 16:21:47.390625000,-56.5,0.0,33.0,96.09921875,-45.55,0.050120125,31.63
2021-06-21 16:21:47.398437500,-56.25,0.0,33.0,96.098203125,-48.644999999999996,0.0502001875,31.63
2021-06-21 16:21:47.406250000,-56.0,0.0,33.0,96.0971875,-51.74,0.05028025,31.63
2021-06-21 16:21:47.414062500,-56.25,0.0,32.75,96.096171875,-53.465,0.050360312500000004,31.63
2021-06-21 16:21:47.421875000,-56.5,0.0,32.5,96.09515625,-55.19,0.050440375,31.63
2021-06-21 16:21:47.429687500,-56.75,0.0,32.25,96.09414062500001,-54.875,0.0505204375,31.63
2021-06-21 16:21:47.437500000,-57.0,0.0,32.0,96.093125,-54.56,0.0506005,31.63
2021-06-21 16:21:47.445312500,-57.0,0.25,32.25,96.092109375,-51.775000000000006,0.0506805625,31.63
2021-06-21 16:21:47.453125000,-57.0,0.5,32.5,96.09109375,-48.99,0.050760625000000004,31.63
2021-06-21 16:21:47.460937500,-57.0,0.75,32.75,96.090078125,-43.815,0.0508406875,31.63
2021-06-21 16:21:47.468750000,-57.0,1.0,33.0,96.0890625,-38.64,0.05092075,31.63
2021-06-21 16:21:47.476562500,-57.0,0.75,33.0,96.088046875,-31.665,0.0510008125,31.63
2021-06-21 16:21:47.484375000,-57.0,0.5,33.0,96.08703125,-24.69,0.051080875000000005,31.63
2021-06-21 16:21:47.492187500,-57.0,0.25,33.0,96.086015625,-16.85,0.0511609375,31.63
2021-06-21 16:21:47.500000000,-57.0,0.0,33.0,96.08500000000001,-9.01,0.051241,31.63
2021-06-21 16:21:47.507812500,-57.0,0.25,32.75,96.083984375,-1.3049999999999997,0.05112090625,31.63
2021-06-21 16:21:47.515625000,-57.0,0.5,32.5,96.08296875,6.4,0.0510008125,31.63
2021-06-21 16:21:47.523437500,-57.0,0.75,32.25,96.081953125,13.219999999999999,0.050880718750000005,31.63
2021-06-21 16:21:47.531250000,-57.0,1.0,32.0,96.0809375,20.04,0.050760625000000004,31.63
2021-06-21 16:21:47.539062500,-56.75,1.0,32.25,96.079921875,25.625,0.05064053125,31.63
2021-06-21 16:21:47.546875000,-56.5,1.0,32.5,96.07890625,31.21,0.0505204375,31.63
2021-06-21 16:21:47.554687500,-56.25,1.0,32.75,96.077890625,35.59,0.05040034375,31.63
2021-06-21 16:21:47.562500000,-56.0,1.0,33.0,96.076875,39.97,0.05028025,31.63
2021-06-21 16:21:47.570312500,-56.25,0.75,33.0,96.075859375,43.34,0.050160156250000004,31.63
2021-06-21 16:21:47.578125000,-56.5,0.5,33.0,96.07484375,46.71,0.0500400625,31.63
2021-06-21 16:21:47.585937500,-56.75,0.25,33.0,96.073828125,49.269999999999996,0.04991996875,31.63
2021-06-21 16:21:47.593750000,-57.0,0.0,33.0,96.0728125,51.83,0.049799875,31.63
2021-06-21 16:21:47.601562500,-57.0,0.0,32.75,96.071796875,53.644999999999996,0.04967978125,31.63
2021-06-21 16:21:47.609375000,-57.0,0.0,32.5,96.07078125,55.46,0.049559687500000005,31.63
2021-06-21 16:21:47.617187500,-57.0,0.0,32.25,96.069765625,56.525000000000006,0.049439593750000004,31.63
2021-06-21 16:21:47.625000000,-57.0,0.0,32.0,96.06875,57.59,0.0493195,31.63
2021-06-21 16:21:47.632812500,-56.75,0.25,32.25,96.067734375,57.91,0.04919940625,31.63
2021-06-21 16:21:47.640625000,-56.5,0.5,32.5,96.06671874999999,58.23,0.0490793125,31.63
2021-06-21 16:21:47.648437500,-56.25,0.75,32.75,96.065703125,57.92,0.048959218750000005,31.63
2021-06-21 16:21:47.656250000,-56.0,1.0,33.0,96.0646875,57.61,0.048839125000000004,31.63
2021-06-21 16:21:47.664062500,-56.25,1.0,32.75,96.063671875,56.925,0.04871903125,31.63
2021-06-21 16:21:47.671875000,-56.5,1.0,32.5,96.06265625,56.24,0.0485989375,31.63
2021-06-21 16:21:47.679687500,-56.75,1.0,32.25,96.061640625,55.495000000000005,0.04847884375,31.63
2021-06-21 16:21:47.687500000,-57.0,1.0,32.0,96.060625,54.75,0.048358750000000006,31.63
2021-06-21 16:21:47.695312500,-57.0,0.75,32.0,96.059609375,54.195,0.048238656250000005,31.63
2021-06-21 16:21:47.703125000,-57.0,0.5,32.0,96.05859375,53.64,0.0481185625,31.63
2021-06-21 16:21:47.710937500,-57.0,0.25,32.0,96.05757812499999,53.379999999999995,0.04799846875,31.63
2021-06-21 16:21:47.718750000,-57.0,0.0,32.0,96.0565625,53.12,0.047878375,31.63
2021-06-21 16:21:47.726562500,-56.75,0.0,32.0,96.055546875,53.105000000000004,0.04775828125,31.63
2021-06-21 16:21:47.734375000,-56.5,0.0,32.0,96.05453125,53.09,0.047638187500000005,31.63
2021-06-21 16:21:47.742187500,-56.25,0.0,32.0,96.053515625,53.150000000000006,0.047518093750000004,31.63
2021-06-21 16:21:47.750000000,-56.0,0.0,32.0,96.0525,53.21,0.047398,31.63
2021-06-21 16:21:47.757812500,-56.25,0.0,32.25,96.051484375,53.144999999999996,0.047518093750000004,31.63
2021-06-21 16:21:47.765625000,-56.5,0.0,32.5,96.05046875,53.08,0.047638187500000005,31.63
2021-06-21 16:21:47.773437500,-56.75,0.0,32.75,96.049453125,52.765,0.04775828125,31.63
2021-06-21 16:21:47.781250000,-57.0,0.0,33.0,96.04843749999999,52.45,0.047878375,31.63
2021-06-21 16:21:47.789062500,-57.0,0.25,33.0,96.047421875,51.86,0.04799846875,31.63
2021-06-21 16:21:47.796875000,-57.0,0.5,33.0,96.04640625,51.27,0.0481185625,31.63
2021-06-21 16:21:47.804687500,-57.0,0.75,33.0,96.045390625,50.465,0.048238656250000005,31.63
2021-06-21 16:21:47.812500000,-57.0,1.0,33.0,96.044375,49.66,0.048358750000000006,31.63
2021-06-21 16:21:47.820312500,-56.75,0.75,33.0,96.043359375,48.73,0.04847884375,31.63
2021-06-21 16:21:47.828125000,-56.5,0.5,33.0,96.04234375,47.8,0.0485989375,31.63
2021-06-21 16:21:47.835937500,-56.25,0.25,33.0,96.04132812499999,46.765,0.04871903125,31.63
2021-06-21 16:21:47.843750000,-56.0,0.0,33.0,96.0403125,45.73,0.048839125000000004,31.63
2021-06-21 16:21:47.851562500,-56.25,0.0,32.75,96.03929687499999,44.53,0.048959218750000005,31.63
2021-06-21 16:21:47.859375000,-56.5,0.0,32.5,96.03828125,43.33,0.0490793125,31.63
2021-06-21 16:21:47.867187500,-56.75,0.0,32.25,96.037265625,41.835,0.04919940625,31.63
2021-06-21 16:21:47.875000000,-57.0,0.0,32.0,96.03625,40.34,0.0493195,31.63
2021-06-21 16:21:47.882812500,-57.0,0.0,32.0,96.035234375,38.425,0.049439593750000004,31.63
2021-06-21 16:21:47.890625000,-57.0,0.0,32.0,96.03421875,36.51,0.049559687500000005,31.63
2021-06-21 16:21:47.898437500,-57.0,0.0,32.0,96.033203125,34.125,0.04967978125,31.63
2021-06-21 16:21:47.906250000,-57.0,0.0,32.0,96.03218749999999,31.74,0.049799875,31.63
2021-06-21 16:21:47.914062500,-57.0,0.25,32.0,96.031171875,28.945,0.04991996875,31.63
2021-06-21 16:21:47.921875000,-57.0,0.5,32.0,96.03015624999999,26.15,0.0500400625,31.63
2021-06-21 16:21:47.929687500,-57.0,0.75,32.0,96.029140625,23.11,0.050160156250000004,31.63
2021-06-21 16:21:47.937500000,-57.0,1.0,32.0,96.028125,20.07,0.05028025,31.63
2021-06-21 16:21:47.945312500,-57.0,1.0,32.0,96.027109375,17.015,0.05040034375,31.63
2021-06-21 16:21:47.953125000,-57.0,1.0,32.0,96.02609375,13.96,0.0505204375,31.63
2021-06-21 16:21:47.960937500,-57.0,1.0,32.0,96.025078125,11.075,0.05064053125,31.63
2021-06-21 16:21:47.968750000,-57.0,1.0,32.0,96.0240625,8.19,0.050760625000000004,31.63
2021-06-21 16:21:47.976562500,-57.0,0.75,32.25,96.02304687499999,5.545,0.050880718750000005,31.63
2021-06-21 16:21:47.984375000,-57.0,0.5,32.5,96.02203125,2.9,0.0510008125,31.63
2021-06-21 16:21:47.992187500,-57.0,0.25,32.75,96.02101562499999,0.44499999999999984,0.05112090625,31.63
2021-06-21 16:21:48.000000000,-57.0,0.0,33.0,96.02,-2.01,0.051241,31.63
2021-06-21 16:21:48.007812500,-57.0,0.0,32.75,96.01890625,-4.475,0.05112090625,31.630625
2021-06-21 16:21:48.015625000,-57.0,0.0,32.5,96.01781249999999,-6.94,0.0510008125,31.631249999999998
2021-06-21 16:21:48.023437500,-57.0,0.0,32.25,96.01671875,-9.665000000000001,0.050880718750000005,31.631874999999997
2021-06-21 16:21:48.031250000,-57.0,0.0,32.0,96.015625,-12.39,0.050760625000000004,31.6325
2021-06-21 16:21:48.039062500,-56.75,0.0,32.0,96.01453124999999,-15.61,0.05064053125,31.633125
2021-06-21 16:21:48.046875000,-56.5,0.0,32.0,96.0134375,-18.83,0.0505204375,31.63375
2021-06-21 16:21:48.054687500,-56.25,0.0,32.0,96.01234375,-22.655,0.05040034375,31.634375
2021-06-21 16:21:48.062500000,-56.0,0.0,32.0,96.01124999999999,-26.48,0.05028025,31.634999999999998
2021-06-21 16:21:48.070312500,-56.0,0.0,32.25,96.01015625,-30.854999999999997,0.050160156250000004,31.635624999999997
2021-06-21 16:21:48.078125000,-56.0,0.0,32.5,96.0090625,-35.23,0.0500400625,31.63625
2021-06-21 16:21:48.085937500,-56.0,0.0,32.75,96.00796874999999,-39.86,0.04991996875,31.636875
2021-06-21 16:21:48.093750000,-56.0,0.0,33.0,96.006875,-44.49,0.049799875,31.6375
2021-06-21 16:21:48.101562500,-56.25,0.0,32.75,96.00578125,-48.84,0.04967978125,31.638125
2021-06-21 16:21:48.109375000,-56.5,0.0,32.5,96.0046875,-53.19,0.049559687500000005,31.638749999999998
2021-06-21 16:21:48.117187500,-56.75,0.0,32.25,96.00359375,-56.58,0.049439593750000004,31.639374999999998
2021-06-21 16:21:48.125000000,-57.0,0.0,32.0,96.0025,-59.97,0.0493195,31.64
2021-06-21 16:21:48.132812500,-57.0,0.0,32.0,96.00140625,-61.71,0.04919940625,31.640625
2021-06-21 16:21:48.140625000,-57.0,0.0,32.0,96.00031249999999,-63.45,0.0490793125,31.64125
2021-06-21 16:21:48.148437500,-57.0,0.0,32.0,95.99921875,-63.010000000000005,0.048959218750000005,31.641875
2021-06-21 16:21:48.156250000,-57.0,0.0,32.0,95.998125,-62.57,0.048839125000000004,31.6425
2021-06-21 16:21:48.164062500,-57.0,0.25,32.25,95.99703124999999,-59.754999999999995,0.04871903125,31.643124999999998
2021-06-21 16:21:48.171875000,-57.0,0.5,32.5,95.9959375,-56.94,0.0485989375,31.643749999999997
2021-06-21 16:21:48.179687500,-57.0,0.75,32.75,95.99484375,-51.985,0.04847884375,31.644375
2021-06-21 16:21:48.187500000,-57.0,1.0,33.0,95.99374999999999,-47.03,0.048358750000000006,31.645
2021-06-21 16:21:48.195312500,-57.0,1.0,33.0,95.99265625,-40.545,0.048238656250000005,31.645625
2021-06-21 16:21:48.203125000,-57.0,1.0,33.0,95.9915625,-34.06,0.0481185625,31.64625
2021-06-21 16:21:48.210937500,-57.0,1.0,33.0,95.99046874999999,-26.895000000000003,0.04799846875,31.646874999999998
2021-06-21 16:21:48.218750000,-57.0,1.0,33.0,95.989375,-19.73,0.047878375,31.647499999999997
2021-06-21 16:21:48.226562500,-57.0,0.75,33.0,95.98828125,-12.745000000000001,0.04775828125,31.648125
2021-06-21 16:21:48.234375000,-57.0,0.5,33.0,95.98718749999999,-5.76,0.047638187500000005,31.64875
2021-06-21 16:21:48.242187500,-57.0,0.25,33.0,95.98609375,0.39000000000000057,0.047518093750000004,31.649375
2021-06-21 16:21:48.250000000,-57.0,0.0,33.0,95.985,6.54,0.047398,31.65
2021-06-21 16:21:48.257812500,-57.0,0.25,33.0,95.98390624999999,11.48,0.047518093750000004,31.65
2021-06-21 16:21:48.265625000,-57.0,0.5,33.0,95.9828125,16.42,0.047638187500000005,31.65
2021-06-21 16:21:48.273437500,-57.0,0.75,33.0,95.98171875,20.060000000000002,0.04775828125,31.65
2021-06-21 16:21:48.281250000,-57.0,1.0,33.0,95.98062499999999,23.7,0.047878375,31.65
2021-06-21 16:21:48.289062500,-56.75,0.75,32.75,95.97953125,26.11,0.04799846875,31.65
2021-06-21 16:21:48.296875000,-56.5,0.5,32.5,95.9784375,28.52,0.0481185625,31.65
2021-06-21 16:21:48.304687500,-56.25,0.25,32.25,95.97734375,29.835,0.048238656250000005,31.65
2021-06-21 16:21:48.312500000,-56.0,0.0,32.0,95.97625,31.15,0.048358750000000006,31.65
2021-06-21 16:21:48.320312500,-56.25,0.25,32.0,95.97515625,31.515,0.04847884375,31.65
2021-06-21 16:21:48.328125000,-56.5,0.5,32.0,95.9740625,31.88,0.0485989375,31.65
2021-06-21 16:21:48.335937500,-56.75,0.75,32.0,95.97296874999999,31.435,0.04871903125,31.65
2021-06-21 16:21:48.343750000,-57.0,1.0,32.0,95.971875,30.99,0.048839125000000004,31.65
2021-06-21 16:21:48.351562500,-57.0,1.0,32.25,95.97078125,29.89,0.048959218750000005,31.65
2021-06-21 16:21:48.359375000,-57.0,1.0,32.5,95.96968749999999,28.79,0.0490793125,31.65
2021-06-21 16:21:48.367187500,-57.0,1.0,32.75,95.96859375,27.235,0.04919940625,31.65
2021-06-21 16:21:48.375000000,-57.0,1.0,33.0,95.9675,25.68,0.0493195,31.65
2021-06-21 16:21:48.382812500,-57.0,0.75,33.0,95.96640624999999,23.9,0.049439593750000004,31.65
2021-06-21 16:21:48.390625000,-57.0,0.5,33.0,95.9653125,22.12,0.049559687500000005,31.65
2021-06-21 16:21:48.398437500,-57.0,0.25,33.0,95.96421875,20.315,0.04967978125,31.65
2021-06-21 16:21:48.406250000,-57.0,0.0,33.0,95.96312499999999,18.51,0.049799875,31.65
2021-06-21 16:21:48.414062500,-57.0,0.0,32.75,95.96203125,16.865000000000002,0.04991996875,31.65
2021-06-21 16:21:48.421875000,-57.0,0.0,32.5,95.9609375,15.22,0.0500400625,31.65
2021-06-21 16:21:48.429687500,-57.0,0.0,32.25,95.95984374999999,13.825,0.050160156250000004,31.65
2021-06-21 16:21:48.437500000,-57.0,0.0,32.0,95.95875,12.43,0.05028025,31.65
2021-06-21 16:21:48.445312500,-57.0,0.25,32.25,95.95765625,11.33,0.05040034375,31.65
2021-06-21 16:21:48.453125000,-57.0,0.5,32.5,95.95656249999999,10.23,0.0505204375,31.65
2021-06-21 16:21:48.460937500,-57.0,0.75,32.75,95.95546875,9.39,0.05064053125,31.65
2021-06-21 16:21:48.468750000,-57.0,1.0,33.0,95.954375,8.55,0.050760625000000004,31.65
2021-06-21 16:21:48.476562500,-57.0,1.0,33.0,95.95328124999999,7.8950000000000005,0.050880718750000005,31.65
2021-06-21 16:21:48.484375000,-57.0,1.0,33.0,95.9521875,7.24,0.0510008125,31.65
2021-06-21 16:21:48.492187500,-57.0,1.0,33.0,95.95109375,6.635,0.05112090625,31.65
2021-06-21 16:21:48.500000000,-57.0,1.0,33.0,95.94999999999999,6.03,0.051241,31.65
2021-06-21 16:21:48.507812500,-56.75,1.0,32.75,95.94890625,5.36,0.051080875000000005,31.65
2021-06-21 16:21:48.515625000,-56.5,1.0,32.5,95.9478125,4.69,0.05092075,31.65
2021-06-21 16:21:48.523437500,-56.25,1.0,32.25,95.94671875,3.835,0.050760625000000004,31.65
2021-06-21 16:21:48.531250000,-56.0,1.0,32.0,95.94562499999999,2.98,0.0506005,31.65
2021-06-21 16:21:48.539062500,-56.25,1.0,32.0,95.94453125,1.87,0.050440375,31.65
2021-06-21 16:21:48.546875000,-56.5,1.0,32.0,95.9434375,0.76,0.05028025,31.65
2021-06-21 16:21:48.554687500,-56.75,1.0,32.0,95.94234374999999,-0.635,0.050120125,31.65
2021-06-21 16:21:48.562500000,-57.0,1.0,32.0,95.94125,-2.03,0.049960000000000004,31.65
2021-06-21 16:21:48.570312500,-57.0,1.0,32.25,95.94015625,-3.6899999999999995,0.049799875,31.65
2021-06-21 16:21:48.578125000,-57.0,1.0,32.5,95.93906249999999,-5.35,0.04963975,31.65
2021-06-21 16:21:48.585937500,-57.0,1.0,32.75,95.93796875,-7.25,0.049479625,31.65
2021-06-21 16:21:48.593750000,-57.0,1.0,33.0,95.936875,-9.15,0.0493195,31.65
2021-06-21 16:21:48.601562500,-56.75,1.0,33.0,95.93578124999999,-11.23,0.049159375,31.65
2021-06-21 16:21:48.609375000,-56.5,1.0,33.0,95.9346875,-13.31,0.04899925,31.65
2021-06-21 16:21:48.617187500,-56.25,1.0,33.0,95.93359375,-15.495000000000001,0.048839125,31.65
2021-06-21 16:21:48.625000000,-56.0,1.0,33.0,95.93249999999999,-17.68,0.048679,31.65
2021-06-21 16:21:48.632812500,-56.25,1.0,33.0,95.93140625,-19.91,0.048518875,31.65
2021-06-21 16:21:48.640625000,-56.5,1.0,33.0,95.9303125,-22.14,0.04835875,31.65
2021-06-21 16:21:48.648437500,-56.75,1.0,33.0,95.92921874999999,-24.39,0.048198625,31.65
2021-06-21 16:21:48.656250000,-57.0,1.0,33.0,95.928125,-26.64,0.0480385,31.65
2021-06-21 16:21:48.664062500,-57.0,1.0,32.75,95.92703125,-28.925,0.047878375,31.65
2021-06-21 16:21:48.671875000,-57.0,1.0,32.5,95.92593749999999,-31.21,0.04771825,31.65
2021-06-21 16:21:48.679687500,-57.0,1.0,32.25,95.92484375,-33.650000000000006,0.047558125,31.65
2021-06-21 16:21:48.687500000,-57.0,1.0,32.0,95.92375,-36.09,0.047397999999999996,31.65
2021-06-21 16:21:48.695312500,-57.0,1.0,32.0,95.92265624999999,-38.83,0.047237875,31.65
2021-06-21 16:21:48.703125000,-57.0,1.0,32.0,95.9215625,-41.57,0.04707775,31.65
2021-06-21 16:21:48.710937500,-57.0,1.0,32.0,95.92046875,-44.765,0.046917625,31.65
2021-06-21 16:21:48.718750000,-57.0,1.0,32.0,95.919375,-47.96,0.0467575,31.65
2021-06-21 16:21:48.726562500,-57.0,0.75,32.0,95.91828124999999,-51.625,0.046597374999999996,31.65
2021-06-21 16:21:48.734375000,-57.0,0.5,32.0,95.9171875,-55.29,0.04643725,31.65
2021-06-21 16:21:48.742187500,-57.0,0.25,32.0,95.91609375,-59.205,0.046277125,31.65
2021-06-21 16:21:48.750000000,-57.0,0.0,32.0,95.91499999999999,-63.12,0.046117,31.65
2021-06-21 16:21:48.757812500,-56.75,0.0,32.25,95.91390625,-66.775,0.046277124999999995,31.65
2021-06-21 16:21:48.765625000,-56.5,0.0,32.5,95.9128125,-70.43,0.04643725,31.65
2021-06-21 16:21:48.773437500,-56.25,0.0,32.75,95.91171874999999,-73.08500000000001,0.046597374999999996,31.65
2021-06-21 16:21:48.781250000,-56.0,0.0,33.0,95.910625,-75.74,0.0467575,31.65
2021-06-21 16:21:48.789062500,-56.25,0.0,33.0,95.90953125,-76.63,0.046917625,31.65
2021-06-21 16:21:48.796875000,-56.5,0.0,33.0,95.90843749999999,-77.52,0.04707775,31.65
2021-06-21 16:21:48.804687500,-56.75,0.0,33.0,95.90734375,-76.07,0.047237875,31.65
2021-06-21 16:21:48.812500000,-57.0,0.0,33.0,95.90625,-74.62,0.047397999999999996,31.65
2021-06-21 16:21:48.820312500,-57.0,0.0,32.75,95.90515624999999,-70.67500000000001,0.047558125,31.65
2021-06-21 16:21:48.828125000,-57.0,0.0,32.5,95.9040625,-66.73,0.04771825,31.65
2021-06-21 16:21:48.835937500,-57.0,0.0,32.25,95.90296875,-60.635000000000005,0.047878375,31.65
2021-06-21 16:21:48.843750000,-57.0,0.0,32.0,95.90187499999999,-54.54,0.0480385,31.65
2021-06-21 16:21:48.851562500,-57.0,0.25,32.0,95.90078125,-47.06,0.048198625,31.65
2021-06-21 16:21:48.859375000,-57.0,0.5,32.0,95.8996875,-39.58,0.04835875,31.65
2021-06-21 16:21:48.867187500,-57.0,0.75,32.0,95.89859374999999,-31.665,0.048518875,31.65
2021-06-21 16:21:48.875000000,-57.0,1.0,32.0,95.8975,-23.75,0.048679,31.65
2021-06-21 16:21:48.882812500,-56.75,1.0,32.25,95.89640625,-16.27,0.048839125,31.65
2021-06-21 16:21:48.890625000,-56.5,1.0,32.5,95.89531249999999,-8.79,0.04899925,31.65
2021-06-21 16:21:48.898437500,-56.25,1.0,32.75,95.89421875,-2.3499999999999996,0.049159375,31.65
2021-06-21 16:21:48.906250000,-56.0,1.0,33.0,95.893125,4.09,0.0493195,31.65
2021-06-21 16:21:48.914062500,-56.25,0.75,33.0,95.89203125,9.23,0.049479625,31.65
2021-06-21 16:21:48.921875000,-56.5,0.5,33.0,95.89093749999999,14.37,0.04963975,31.65
2021-06-21 16:21:48.929687500,-56.75,0.25,33.0,95.88984375,18.23,0.049799875,31.65
2021-06-21 16:21:48.937500000,-57.0,0.0,33.0,95.88875,22.09,0.049960000000000004,31.65
2021-06-21 16:21:48.945312500,-57.0,0.25,32.75,95.88765624999999,24.78,0.050120125,31.65
2021-06-21 16:21:48.953125000,-57.0,0.5,32.5,95.8865625,27.47,0.05028025,31.65
2021-06-21 16:21:48.960937500,-57.0,0.75,32.25,95.88546875,29.14,0.050440375,31.65
2021-06-21 16:21:48.968750000,-57.0,1.0,32.0,95.88437499999999,30.81,0.0506005,31.65
2021-06-21 16:21:48.976562500,-57.0,1.0,32.25,95.88328125,31.525,0.050760625000000004,31.65
2021-06-21 16:21:48.984375000,-57.0,1.0,32.5,95.8821875,32.24,0.05092075,31.65
2021-06-21 16:21:48.992187500,-57.0,1.0,32.75,95.88109374999999,32.035,0.051080875,31.65
2021-06-21 16:21:49.000000000,-57.0,1.0,33.0,95.88,31.83,0.051241,31.65
2021-06-21 16:21:49.007812500,-57.0,1.0,33.0,95.87875,30.79,0.0511609375,31.649375
2021-06-21 16:21:49.015625000,-57.0,1.0,33.0,95.8775,29.75,0.051080875000000005,31.64875
2021-06-21 16:21:49.023437500,-57.0,1.0,33.0,95.87625,28.03,0.0510008125,31.648125
2021-06-21 16:21:49.031250000,-57.0,1.0,33.0,95.875,26.31,0.05092075,31.647499999999997
2021-06-21 16:21:49.039062500,-56.75,1.0,33.0,95.87375,24.189999999999998,0.0508406875,31.646874999999998
2021-06-21 16:21:49.046875000,-56.5,1.0,33.0,95.8725,22.07,0.050760625000000004,31.64625
2021-06-21 16:21:49.054687500,-56.25,1.0,33.0,95.87124999999999,19.884999999999998,0.0506805625,31.645625
2021-06-21 16:21:49.062500000,-56.0,1.0,33.0,95.86999999999999,17.7,0.0506005,31.645
2021-06-21 16:21:49.070312500,-56.0,1.0,33.0,95.86874999999999,15.754999999999999,0.0505204375,31.644375
2021-06-21 16:21:49.078125000,-56.0,1.0,33.0,95.86749999999999,13.81,0.050440375,31.643749999999997
2021-06-21 16:21:49.085937500,-56.0,1.0,33.0,95.86625,12.305,0.050360312500000004,31.643124999999998
2021-06-21 16:21:49.093750000,-56.0,1.0,33.0,95.865,10.8,0.05028025,31.6425
2021-06-21 16:21:49.101562500,-56.0,1.0,32.75,95.86375,9.785,0.0502001875,31.641875
2021-06-21 16:21:49.109375000,-56.0,1.0,32.5,95.8625,8.77,0.050120125,31.64125
2021-06-21 16:21:49.117187500,-56.0,1.0,32.25,95.86125,8.15,0.0500400625,31.640625
2021-06-21 16:21:49.125000000,-56.0,1.0,32.0,95.86,7.53,0.049960000000000004,31.64
2021-06-21 16:21:49.132812500,-56.25,1.0,32.25,95.85875,7.12,0.0498799375,31.639374999999998
2021-06-21 16:21:49.140625000,-56.5,1.0,32.5,95.8575,6.71,0.049799875,31.638749999999998
2021-06-21 16:21:49.148437500,-56.75,1.0,32.75,95.85625,6.3149999999999995,0.0497198125,31.638125
2021-06-21 16:21:49.156250000,-57.0,1.0,33.0,95.85499999999999,5.92,0.04963975,31.6375
2021-06-21 16:21:49.164062500,-56.75,1.0,33.0,95.85374999999999,5.365,0.0495596875,31.636875
2021-06-21 16:21:49.171875000,-56.5,1.0,33.0,95.85249999999999,4.81,0.049479625,31.63625
2021-06-21 16:21:49.179687500,-56.25,1.0,33.0,95.85125,3.965,0.0493995625,31.635624999999997
2021-06-21 16:21:49.187500000,-56.0,1.0,33.0,95.85,3.12,0.0493195,31.634999999999998
2021-06-21 16:21:49.195312500,-56.0,1.0,32.75,95.84875,1.9300000000000002,0.0492394375,31.634375
2021-06-21 16:21:49.203125000,-56.0,1.0,32.5,95.8475,0.74,0.049159375,31.63375
2021-06-21 16:21:49.210937500,-56.0,1.0,32.25,95.84625,-0.8200000000000001,0.0490793125,31.633125
2021-06-21 16:21:49.218750000,-56.0,1.0,32.0,95.845,-2.38,0.04899925,31.6325
2021-06-21 16:21:49.226562500,-56.25,1.0,32.0,95.84375,-4.3,0.0489191875,31.631874999999997
2021-06-21 16:21:49.234375000,-56.5,1.0,32.0,95.8425,-6.22,0.048839125,31.631249999999998
2021-06-21 16:21:49.242187500,-56.75,1.0,32.0,95.84125,-8.459999999999999,0.0487590625,31.630625
2021-06-21 16:21:49.250000000,-57.0,1.0,32.0,95.84,-10.7,0.048679,31.63
2021-06-21 16:21:49.257812500,-57.0,1.0,32.25,95.83874999999999,-13.225,0.0487590625,31.63
2021-06-21 16:21:49.265625000,-57.0,1.0,32.5,95.83749999999999,-15.75,0.048839125,31.63
2021-06-21 16:21:49.273437500,-57.0,1.0,32.75,95.83624999999999,-18.5,0.0489191875,31.63
2021-06-21 16:21:49.281250000,-57.0,1.0,33.0,95.835,-21.25,0.04899925,31.63
2021-06-21 16:21:49.289062500,-57.0,1.0,33.0,95.83375,-24.175,0.0490793125,31.63
2021-06-21 16:21:49.296875000,-57.0,1.0,33.0,95.8325,-27.1,0.049159375,31.63
2021-06-21 16:21:49.304687500,-57.0,1.0,33.0,95.83125,-30.175,0.049239437500000004,31.63
2021-06-21 16:21:49.312500000,-57.0,1.0,33.0,95.83,-33.25,0.0493195,31.63
2021-06-21 16:21:49.320312500,-57.0,0.75,33.0,95.82875,-36.5,0.0493995625,31.63
2021-06-21 16:21:49.328125000,-57.0,0.5,33.0,95.8275,-39.75,0.049479625,31.63
2021-06-21 16:21:49.335937500,-57.0,0.25,33.0,95.82625,-43.239999999999995,0.0495596875,31.63
2021-06-21 16:21:49.343750000,-57.0,0.0,33.0,95.825,-46.73,0.04963975,31.63
2021-06-21 16:21:49.351562500,-57.0,0.25,33.0,95.82374999999999,-50.565,0.0497198125,31.63
2021-06-21 16:21:49.359375000,-57.0,0.5,33.0,95.82249999999999,-54.4,0.049799875,31.63
2021-06-21 16:21:49.367187500,-57.0,0.75,33.0,95.82124999999999,-58.599999999999994,0.0498799375,31.63
2021-06-21 16:21:49.375000000,-57.0,1.0,33.0,95.82,-62.8,0.049960000000000004,31.63
2021-06-21 16:21:49.382812500,-57.0,1.0,32.75,95.81875,-67.175,0.0500400625,31.63
2021-06-21 16:21:49.390625000,-57.0,1.0,32.5,95.8175,-71.55,0.050120125,31.63
2021-06-21 16:21:49.398437500,-57.0,1.0,32.25,95.81625,-75.63499999999999,0.0502001875,31.63
2021-06-21 16:21:49.406250000,-57.0,1.0,32.0,95.815,-79.72,0.05028025,31.63
2021-06-21 16:21:49.414062500,-57.0,0.75,32.0,95.81375,-82.785,0.050360312500000004,31.63
2021-06-21 16:21:49.421875000,-57.0,0.5,32.0,95.8125,-85.85,0.050440375,31.63
2021-06-21 16:21:49.429687500,-57.0,0.25,32.0,95.81125,-87.06,0.0505204375,31.63
2021-06-21 16:21:49.437500000,-57.0,0.0,32.0,95.81,-88.27,0.0506005,31.63
2021-06-21 16:21:49.445312500,-56.75,0.0,32.25,95.80875,-86.985,0.0506805625,31.63
2021-06-21 16:21:49.453125000,-56.5,0.0,32.5,95.80749999999999,-85.7,0.050760625000000004,31.63
2021-06-21 16:21:49.460937500,-56.25,0.0,32.75,95.80624999999999,-81.7,0.0508406875,31.63
2021-06-21 16:21:49.468750000,-56.0,0.0,33.0,95.80499999999999,-77.7,0.05092075,31.63
2021-06-21 16:21:49.476562500,-56.25,0.25,33.0,95.80375,-71.33500000000001,0.0510008125,31.63
2021-06-21 16:21:49.484375000,-56.5,0.5,33.0,95.8025,-64.97,0.051080875000000005,31.63
2021-06-21 16:21:49.492187500,-56.75,0.75,33.0,95.80125,-57.06,0.0511609375,31.63
2021-06-21 16:21:49.500000000,-57.0,1.0,33.0,95.8,-49.15,0.051241,31.63
2021-06-21 16:21:49.507812500,-56.75,1.0,33.0,95.79875,-40.754999999999995,0.0511609375,31.63
2021-06-21 16:21:49.515625000,-56.5,1.0,33.0,95.7975,-32.36,0.051080875000000005,31.63
2021-06-21 16:21:49.523437500,-56.25,1.0,33.0,95.79625,-24.455,0.0510008125,31.63
2021-06-21 16:21:49.531250000,-56.0,1.0,33.0,95.795,-16.55,0.05092075,31.63
2021-06-21 16:21:49.539062500,-56.25,1.0,32.75,95.79375,-9.805,0.0508406875,31.63
2021-06-21 16:21:49.546875000,-56.5,1.0,32.5,95.7925,-3.06,0.050760625000000004,31.63
2021-06-21 16:21:49.554687500,-56.75,1.0,32.25,95.79124999999999,2.23,0.0506805625,31.63
2021-06-21 16:21:49.562500000,-57.0,1.0,32.0,95.78999999999999,7.52,0.0506005,31.63
2021-06-21 16:21:49.570312500,-57.0,1.0,32.0,95.78875,11.375,0.0505204375,31.63
