TimeStamp,empatica.acc.x,empatica.acc.y,empatica.acc.z,empatica.hr,empatica.bvp,empatica.eda,empatica.temp
2021-06-21 16:29:57.968750000,-59.0,2.0,26.0,93.3346875,-22.64,0.05860675,31.39
2021-06-21 16:29:57.976562500,-59.25,2.25,26.0,93.333515625,-24.795,0.0586868125,31.39
2021-06-21 16:29:57.984375000,-59.5,2.5,26.0,93.33234374999999,-26.95,0.058766875,31.39
2021-06-21 16:29:57.992187500,-59.75,2.75,26.0,93.331171875,-27.82,0.0588469375,31.39
2021-06-21 16:29:58.000000000,-60.0,3.0,26.0,93.33,-28.69,0.058927,31.39
2021-06-21 16:29:58.007812500,-60.0,3.0,26.0,93.32921875,-28.315,0.0588469375,31.389375
2021-06-21 16:29:58.015625000,-60.0,3.0,26.0,93.32843749999999,-27.94,0.058766875,31.38875
2021-06-21 16:29:58.023437500,-60.0,3.0,26.0,93.32765625,-26.605,0.0586868125,31.388125000000002
2021-06-21 16:29:58.031250000,-60.0,3.0,26.0,93.326875,-25.27,0.05860675,31.3875
2021-06-21 16:29:58.039062500,-60.0,3.0,26.0,93.32609375,-23.38,0.0585266875,31.386875
2021-06-21 16:29:58.046875000,-60.0,3.0,26.0,93.3253125,-21.49,0.058446625,31.38625
2021-06-21 16:29:58.054687500,-60.0,3.0,26.0,93.32453124999999,-19.39,0.0583665625,31.385625
2021-06-21 16:29:58.062500000,-60.0,3.0,26.0,93.32375,-17.29,0.0582865,31.385
2021-06-21 16:29:58.070312500,-60.0,3.0,26.0,93.32296875,-15.125,0.0582064375,31.384375000000002
2021-06-21 16:29:58.078125000,-60.0,3.0,26.0,93.3221875,-12.96,0.058126375,31.38375
2021-06-21 16:29:58.085937500,-60.0,3.0,26.0,93.32140625,-10.64,0.0580463125,31.383125
2021-06-21 16:29:58.093750000,-60.0,3.0,26.0,93.32062499999999,-8.32,0.05796625,31.3825
2021-06-21 16:29:58.101562500,-60.0,2.75,26.0,93.31984375,-5.58,0.0578861875,31.381875
2021-06-21 16:29:58.109375000,-60.0,2.5,26.0,93.3190625,-2.84,0.057806125,31.38125
2021-06-21 16:29:58.117187500,-60.0,2.25,26.0,93.31828125,0.6299999999999999,0.0577260625,31.380625000000002
2021-06-21 16:29:58.125000000,-60.0,2.0,26.0,93.3175,4.1,0.057646,31.380000000000003
2021-06-21 16:29:58.132812500,-60.0,2.0,26.0,93.31671874999999,8.504999999999999,0.0575659375,31.379375
2021-06-21 16:29:58.140625000,-60.0,2.0,26.0,93.3159375,12.91,0.057485875,31.37875
2021-06-21 16:29:58.148437500,-60.0,2.0,26.0,93.31515625,18.265,0.0574058125,31.378125
2021-06-21 16:29:58.156250000,-60.0,2.0,26.0,93.314375,23.62,0.05732575,31.3775
2021-06-21 16:29:58.164062500,-60.0,2.0,26.0,93.31359375,29.674999999999997,0.057245687499999996,31.376875000000002
2021-06-21 16:29:58.171875000,-60.0,2.0,26.0,93.31281249999999,35.73,0.057165625,31.376250000000002
2021-06-21 16:29:58.179687500,-60.0,2.0,26.0,93.31203125,41.974999999999994,0.0570855625,31.375625
2021-06-21 16:29:58.187500000,-60.0,2.0,26.0,93.31125,48.22,0.0570055,31.375
2021-06-21 16:29:58.195312500,-60.0,2.25,26.0,93.31046875,53.974999999999994,0.056925437499999995,31.374375
2021-06-21 16:29:58.203125000,-60.0,2.5,26.0,93.3096875,59.73,0.056845375,31.37375
2021-06-21 16:29:58.210937500,-60.0,2.75,26.0,93.30890624999999,64.235,0.0567653125,31.373125
2021-06-21 16:29:58.218750000,-60.0,3.0,26.0,93.308125,68.74,0.05668525,31.372500000000002
2021-06-21 16:29:58.226562500,-60.0,3.0,26.0,93.30734375,71.305,0.0566051875,31.371875
2021-06-21 16:29:58.234375000,-60.0,3.0,26.0,93.3065625,73.87,0.056525124999999996,31.37125
2021-06-21 16:29:58.242187500,-60.0,3.0,26.0,93.30578125,74.08500000000001,0.0564450625,31.370625
2021-06-21 16:29:58.250000000,-60.0,3.0,26.0,93.305,74.3,0.056365,31.37
2021-06-21 16:29:58.257812500,-59.75,3.0,26.25,93.30421875,72.125,0.0564450625,31.37
2021-06-21 16:29:58.265625000,-59.5,3.0,26.5,93.3034375,69.95,0.056525124999999996,31.37
2021-06-21 16:29:58.273437500,-59.25,3.0,26.75,93.30265625,65.755,0.0566051875,31.37
2021-06-21 16:29:58.281250000,-59.0,3.0,27.0,93.301875,61.56,0.05668525,31.37
2021-06-21 16:29:58.289062500,-59.25,3.0,26.75,93.30109375,56.035,0.0567653125,31.37
2021-06-21 16:29:58.296875000,-59.5,3.0,26.5,93.3003125,50.51,0.056845375,31.37
2021-06-21 16:29:58.304687500,-59.75,3.0,26.25,93.29953125,44.47,0.0569254375,31.37
2021-06-21 16:29:58.312500000,-60.0,3.0,26.0,93.29875,38.43,0.0570055,31.37
2021-06-21 16:29:58.320312500,-60.0,3.0,26.0,93.29796875,32.615,0.0570855625,31.37
2021-06-21 16:29:58.328125000,-60.0,3.0,26.0,93.2971875,26.8,0.057165625,31.37
2021-06-21 16:29:58.335937500,-60.0,3.0,26.0,93.29640625,21.689999999999998,0.057245687499999996,31.37
2021-06-21 16:29:58.343750000,-60.0,3.0,26.0,93.295625,16.58,0.05732575,31.37
2021-06-21 16:29:58.351562500,-59.75,3.0,26.0,93.29484375,12.355,0.0574058125,31.37
2021-06-21 16:29:58.359375000,-59.5,3.0,26.0,93.2940625,8.13,0.057485875,31.37
2021-06-21 16:29:58.367187500,-59.25,3.0,26.0,93.29328125,4.705,0.0575659375,31.37
2021-06-21 16:29:58.375000000,-59.0,3.0,26.0,93.2925,1.28,0.057646,31.37
2021-06-21 16:29:58.382812500,-59.25,3.0,26.25,93.29171875,-1.5400000000000003,0.0577260625,31.37
2021-06-21 16:29:58.390625000,-59.5,3.0,26.5,93.2909375,-4.36,0.057806125,31.37
2021-06-21 16:29:58.398437500,-59.75,3.0,26.75,93.29015625,-6.73,0.0578861875,31.37
2021-06-21 16:29:58.406250000,-60.0,3.0,27.0,93.289375,-9.1,0.05796625,31.37
2021-06-21 16:29:58.414062500,-60.0,3.0,26.75,93.28859375,-11.024999999999999,0.0580463125,31.37
2021-06-21 16:29:58.421875000,-60.0,3.0,26.5,93.2878125,-12.95,0.058126375,31.37
2021-06-21 16:29:58.429687500,-60.0,3.0,26.25,93.28703125,-14.25,0.0582064375,31.37
2021-06-21 16:29:58.437500000,-60.0,3.0,26.0,93.28625,-15.55,0.0582865,31.37
2021-06-21 16:29:58.445312500,-60.0,2.75,26.25,93.28546875,-15.955,0.0583665625,31.37
2021-06-21 16:29:58.453125000,-60.0,2.5,26.5,93.2846875,-16.36,0.058446625,31.37
2021-06-21 16:29:58.460937500,-60.0,2.25,26.75,93.28390625,-15.605,0.0585266875,31.37
2021-06-21 16:29:58.468750000,-60.0,2.0,27.0,93.283125,-14.85,0.05860675,31.37
2021-06-21 16:29:58.476562500,-59.75,2.25,27.0,93.28234375,-12.844999999999999,0.0586868125,31.37
2021-06-21 16:29:58.484375000,-59.5,2.5,27.0,93.2815625,-10.84,0.058766875,31.37
2021-06-21 16:29:58.492187500,-59.25,2.75,27.0,93.28078125,-7.795,0.0588469375,31.37
2021-06-21 16:29:58.500000000,-59.0,3.0,27.0,93.28,-4.75,0.058927,31.37
2021-06-21 16:29:58.507812500,-59.25,3.0,26.75,93.27921875,-1.185,0.0588469375,31.37
2021-06-21 16:29:58.515625000,-59.5,3.0,26.5,93.2784375,2.38,0.058766875,31.37
2021-06-21 16:29:58.523437500,-59.75,3.0,26.25,93.27765625,5.715,0.0586868125,31.37
2021-06-21 16:29:58.531250000,-60.0,3.0,26.0,93.276875,9.05,0.05860675,31.37
2021-06-21 16:29:58.539062500,-60.0,2.75,26.25,93.27609375,11.395,0.0585266875,31.37
2021-06-21 16:29:58.546875000,-60.0,2.5,26.5,93.2753125,13.74,0.058446625,31.37
2021-06-21 16:29:58.554687500,-60.0,2.25,26.75,93.27453125,14.594999999999999,0.0583665625,31.37
2021-06-21 16:29:58.562500000,-60.0,2.0,27.0,93.27375,15.45,0.0582865,31.37
2021-06-21 16:29:58.570312500,-59.75,2.25,26.75,93.27296875,14.82,0.0582064375,31.37
2021-06-21 16:29:58.578125000,-59.5,2.5,26.5,93.2721875,14.19,0.058126375,31.37
2021-06-21 16:29:58.585937500,-59.25,2.75,26.25,93.27140625,12.649999999999999,0.0580463125,31.37
2021-06-21 16:29:58.593750000,-59.0,3.0,26.0,93.270625,11.11,0.05796625,31.37
2021-06-21 16:29:58.601562500,-59.25,3.0,26.0,93.26984375,9.705,0.0578861875,31.37
2021-06-21 16:29:58.609375000,-59.5,3.0,26.0,93.2690625,8.3,0.057806125,31.37
2021-06-21 16:29:58.617187500,-59.75,3.0,26.0,93.26828125,8.2,0.0577260625,31.37
2021-06-21 16:29:58.625000000,-60.0,3.0,26.0,93.2675,8.1,0.057646,31.37
2021-06-21 16:29:58.632812500,-60.0,3.0,26.0,93.26671875,10.235,0.0575659375,31.37
2021-06-21 16:29:58.640625000,-60.0,3.0,26.0,93.2659375,12.37,0.057485875,31.37
2021-06-21 16:29:58.648437500,-60.0,3.0,26.0,93.26515625,17.075,0.0574058125,31.37
2021-06-21 16:29:58.656250000,-60.0,3.0,26.0,93.264375,21.78,0.05732575,31.37
2021-06-21 16:29:58.664062500,-59.75,3.0,26.0,93.26359375,28.71,0.057245687499999996,31.37
2021-06-21 16:29:58.671875000,-59.5,3.0,26.0,93.2628125,35.64,0.057165625,31.37
2021-06-21 16:29:58.679687500,-59.25,3.0,26.0,93.26203125,43.905,0.0570855625,31.37
2021-06-21 16:29:58.687500000,-59.0,3.0,26.0,93.26125,52.17,0.0570055,31.37
2021-06-21 16:29:58.695312500,-59.25,3.0,26.0,93.26046875,60.63,0.056925437499999995,31.37
2021-06-21 16:29:58.703125000,-59.5,3.0,26.0,93.2596875,69.09,0.056845375,31.37
2021-06-21 16:29:58.710937500,-59.75,3.0,26.0,93.25890625,76.765,0.0567653125,31.37
2021-06-21 16:29:58.718750000,-60.0,3.0,26.0,93.258125,84.44,0.05668525,31.37
2021-06-21 16:29:58.726562500,-60.0,2.75,26.0,93.25734375,90.705,0.0566051875,31.37
2021-06-21 16:29:58.734375000,-60.0,2.5,26.0,93.2565625,96.97,0.056525124999999996,31.37
2021-06-21 16:29:58.742187500,-60.0,2.25,26.0,93.25578125,101.61,0.0564450625,31.37
2021-06-21 16:29:58.750000000,-60.0,2.0,26.0,93.255,106.25,0.056365,31.37
2021-06-21 16:29:58.757812500,-60.0,2.25,26.25,93.25421875,109.305,0.0564450625,31.37
2021-06-21 16:29:58.765625000,-60.0,2.5,26.5,93.2534375,112.36,0.056525124999999996,31.37
2021-06-21 16:29:58.773437500,-60.0,2.75,26.75,93.25265625,113.95,0.0566051875,31.37
2021-06-21 16:29:58.781250000,-60.0,3.0,27.0,93.251875,115.54,0.05668525,31.37
2021-06-21 16:29:58.789062500,-60.0,3.0,26.75,93.25109375000001,115.73,0.0567653125,31.37
2021-06-21 16:29:58.796875000,-60.0,3.0,26.5,93.2503125,115.92,0.056845375,31.37
2021-06-21 16:29:58.804687500,-60.0,3.0,26.25,93.24953125,114.75999999999999,0.0569254375,31.37
2021-06-21 16:29:58.812500000,-60.0,3.0,26.0,93.24875,113.6,0.0570055,31.37
2021-06-21 16:29:58.820312500,-60.0,3.0,26.0,93.24796875,111.22999999999999,0.0570855625,31.37
2021-06-21 16:29:58.828125000,-60.0,3.0,26.0,93.24718750000001,108.86,0.057165625,31.37
2021-06-21 16:29:58.835937500,-60.0,3.0,26.0,93.24640625,105.56,0.057245687499999996,31.37
2021-06-21 16:29:58.843750000,-60.0,3.0,26.0,93.245625,102.26,0.05732575,31.37
2021-06-21 16:29:58.851562500,-59.75,3.0,26.0,93.24484375,98.445,0.0574058125,31.37
2021-06-21 16:29:58.859375000,-59.5,3.0,26.0,93.2440625,94.63,0.057485875,31.37
2021-06-21 16:29:58.867187500,-59.25,3.0,26.0,93.24328125000001,90.72,0.0575659375,31.37
2021-06-21 16:29:58.875000000,-59.0,3.0,26.0,93.2425,86.81,0.057646,31.37
2021-06-21 16:29:58.882812500,-59.25,3.0,26.0,93.24171875,83.08500000000001,0.0577260625,31.37
2021-06-21 16:29:58.890625000,-59.5,3.0,26.0,93.2409375,79.36,0.057806125,31.37
2021-06-21 16:29:58.898437500,-59.75,3.0,26.0,93.24015625,75.91499999999999,0.0578861875,31.37
2021-06-21 16:29:58.906250000,-60.0,3.0,26.0,93.23937500000001,72.47,0.05796625,31.37
2021-06-21 16:29:58.914062500,-60.0,3.0,26.0,93.23859375,69.22999999999999,0.0580463125,31.37
2021-06-21 16:29:58.921875000,-60.0,3.0,26.0,93.2378125,65.99,0.058126375,31.37
2021-06-21 16:29:58.929687500,-60.0,3.0,26.0,93.23703125,62.86,0.0582064375,31.37
2021-06-21 16:29:58.937500000,-60.0,3.0,26.0,93.23625,59.73,0.0582865,31.37
2021-06-21 16:29:58.945312500,-59.75,3.0,26.0,93.23546875000001,56.67,0.0583665625,31.37
2021-06-21 16:29:58.953125000,-59.5,3.0,26.0,93.2346875,53.61,0.058446625,31.37
2021-06-21 16:29:58.960937500,-59.25,3.0,26.0,93.23390625,50.72,0.0585266875,31.37
2021-06-21 16:29:58.968750000,-59.0,3.0,26.0,93.233125,47.83,0.05860675,31.37
2021-06-21 16:29:58.976562500,-59.0,3.0,26.0,93.23234375,45.26,0.0586868125,31.37
2021-06-21 16:29:58.984375000,-59.0,3.0,26.0,93.23156250000001,42.69,0.058766875,31.37
2021-06-21 16:29:58.992187500,-59.0,3.0,26.0,93.23078125,40.56,0.0588469375,31.37
2021-06-21 16:29:59.000000000,-59.0,3.0,26.0,93.23,38.43,0.058927,31.37
2021-06-21 16:29:59.007812500,-59.25,3.0,26.0,93.22953125000001,36.695,0.0588469375,31.37
2021-06-21 16:29:59.015625000,-59.5,3.0,26.0,93.2290625,34.96,0.058766875,31.37
2021-06-21 16:29:59.023437500,-59.75,3.0,26.0,93.22859375,33.39,0.0586868125,31.37
2021-06-21 16:29:59.031250000,-60.0,3.0,26.0,93.228125,31.82,0.05860675,31.37
2021-06-21 16:29:59.039062500,-60.0,3.0,26.0,93.22765625000001,30.07,0.0585266875,31.37
2021-06-21 16:29:59.046875000,-60.0,3.0,26.0,93.2271875,28.32,0.058446625,31.37
2021-06-21 16:29:59.054687500,-60.0,3.0,26.0,93.22671875,26.045,0.0583665625,31.37
2021-06-21 16:29:59.062500000,-60.0,3.0,26.0,93.22625000000001,23.77,0.0582865,31.37
2021-06-21 16:29:59.070312500,-60.0,3.0,26.0,93.22578125,20.75,0.0582064375,31.37
2021-06-21 16:29:59.078125000,-60.0,3.0,26.0,93.2253125,17.73,0.058126375,31.37
2021-06-21 16:29:59.085937500,-60.0,3.0,26.0,93.22484375,13.975000000000001,0.0580463125,31.37
2021-06-21 16:29:59.093750000,-60.0,3.0,26.0,93.22437500000001,10.22,0.05796625,31.37
2021-06-21 16:29:59.101562500,-60.0,3.0,26.0,93.22390625,5.945,0.0578861875,31.37
2021-06-21 16:29:59.109375000,-60.0,3.0,26.0,93.2234375,1.67,0.057806125,31.37
2021-06-21 16:29:59.117187500,-60.0,3.0,26.0,93.22296875,-2.7800000000000002,0.0577260625,31.37
2021-06-21 16:29:59.125000000,-60.0,3.0,26.0,93.2225,-7.23,0.057646,31.37
2021-06-21 16:29:59.132812500,-59.75,3.0,26.25,93.22203125,-11.51,0.0575659375,31.37
2021-06-21 16:29:59.140625000,-59.5,3.0,26.5,93.2215625,-15.79,0.057485875,31.37
2021-06-21 16:29:59.148437500,-59.25,3.0,26.75,93.22109375000001,-19.7,0.0574058125,31.37
2021-06-21 16:29:59.156250000,-59.0,3.0,27.0,93.220625,-23.61,0.05732575,31.37
2021-06-21 16:29:59.164062500,-59.25,3.0,26.75,93.22015625,-27.17,0.057245687499999996,31.37
2021-06-21 16:29:59.171875000,-59.5,3.0,26.5,93.2196875,-30.73,0.057165625,31.37
2021-06-21 16:29:59.179687500,-59.75,3.0,26.25,93.21921875000001,-34.18,0.0570855625,31.37
2021-06-21 16:29:59.187500000,-60.0,3.0,26.0,93.21875,-37.63,0.0570055,31.37
2021-06-21 16:29:59.195312500,-60.0,3.0,26.0,93.21828125,-41.325,0.056925437499999995,31.37
2021-06-21 16:29:59.203125000,-60.0,3.0,26.0,93.21781250000001,-45.02,0.056845375,31.37
2021-06-21 16:29:59.210937500,-60.0,3.0,26.0,93.21734375,-49.325,0.0567653125,31.37
2021-06-21 16:29:59.218750000,-60.0,3.0,26.0,93.216875,-53.63,0.05668525,31.37
2021-06-21 16:29:59.226562500,-59.75,3.0,26.0,93.21640625,-58.715,0.0566051875,31.37
2021-06-21 16:29:59.234375000,-59.5,3.0,26.0,93.21593750000001,-63.8,0.056525124999999996,31.37
2021-06-21 16:29:59.242187500,-59.25,3.0,26.0,93.21546875,-69.505,0.0564450625,31.37
2021-06-21 16:29:59.250000000,-59.0,3.0,26.0,93.215,-75.21,0.056365,31.37
2021-06-21 16:29:59.257812500,-59.25,3.0,26.0,93.21453125000001,-80.975,0.0564450625,31.37
2021-06-21 16:29:59.265625000,-59.5,3.0,26.0,93.2140625,-86.74,0.056525124999999996,31.37
2021-06-21 16:29:59.273437500,-59.75,3.0,26.0,93.21359375,-91.63,0.0566051875,31.37
2021-06-21 16:29:59.281250000,-60.0,3.0,26.0,93.213125,-96.52,0.05668525,31.37
2021-06-21 16:29:59.289062500,-60.0,3.0,26.0,93.21265625000001,-99.47,0.0567653125,31.37
2021-06-21 16:29:59.296875000,-60.0,3.0,26.0,93.2121875,-102.42,0.056845375,31.37
2021-06-21 16:29:59.304687500,-60.0,3.0,26.0,93.21171875,-102.525,0.0569254375,31.37
2021-06-21 16:29:59.312500000,-60.0,3.0,26.0,93.21125,-102.63,0.0570055,31.37
2021-06-21 16:29:59.320312500,-60.0,3.0,26.25,93.21078125,-99.49,0.0570855625,31.37
2021-06-21 16:29:59.328125000,-60.0,3.0,26.5,93.2103125,-96.35,0.057165625,31.37
2021-06-21 16:29:59.335937500,-60.0,3.0,26.75,93.20984375,-90.22999999999999,0.057245687499999996,31.37
2021-06-21 16:29:59.343750000,-60.0,3.0,27.0,93.20937500000001,-84.11,0.05732575,31.37
2021-06-21 16:29:59.351562500,-60.0,3.0,26.75,93.20890625,-75.88499999999999,0.0574058125,31.37
2021-06-21 16:29:59.359375000,-60.0,3.0,26.5,93.2084375,-67.66,0.057485875,31.37
2021-06-21 16:29:59.367187500,-60.0,3.0,26.25,93.20796875,-58.55,0.0575659375,31.37
2021-06-21 16:29:59.375000000,-60.0,3.0,26.0,93.20750000000001,-49.44,0.057646,31.37
2021-06-21 16:29:59.382812500,-60.0,3.0,26.0,93.20703125,-40.61,0.0577260625,31.37
2021-06-21 16:29:59.390625000,-60.0,3.0,26.0,93.2065625,-31.78,0.057806125,31.37
2021-06-21 16:29:59.398437500,-60.0,3.0,26.0,93.20609375000001,-24.08,0.0578861875,31.37
2021-06-21 16:29:59.406250000,-60.0,3.0,26.0,93.205625,-16.38,0.05796625,31.37
2021-06-21 16:29:59.414062500,-59.75,3.0,26.25,93.20515625,-10.205,0.0580463125,31.37
2021-06-21 16:29:59.421875000,-59.5,3.0,26.5,93.2046875,-4.03,0.058126375,31.37
2021-06-21 16:29:59.429687500,-59.25,3.0,26.75,93.20421875000001,0.5800000000000001,0.0582064375,31.37
2021-06-21 16:29:59.437500000,-59.0,3.0,27.0,93.20375,5.19,0.0582865,31.37
2021-06-21 16:29:59.445312500,-59.0,3.0,27.0,93.20328125,8.385,0.0583665625,31.37
2021-06-21 16:29:59.453125000,-59.0,3.0,27.0,93.20281250000001,11.58,0.058446625,31.37
2021-06-21 16:29:59.460937500,-59.0,3.0,27.0,93.20234375,13.525,0.0585266875,31.37
2021-06-21 16:29:59.468750000,-59.0,3.0,27.0,93.201875,15.47,0.05860675,31.37
2021-06-21 16:29:59.476562500,-59.25,3.0,26.75,93.20140625,16.275,0.0586868125,31.37
2021-06-21 16:29:59.484375000,-59.5,3.0,26.5,93.20093750000001,17.08,0.058766875,31.37
2021-06-21 16:29:59.492187500,-59.75,3.0,26.25,93.20046875,16.85,0.0588469375,31.37
2021-06-21 16:29:59.500000000,-60.0,3.0,26.0,93.2,16.62,0.058927,31.37
2021-06-21 16:29:59.507812500,-59.75,3.0,26.25,93.19953125,15.48,0.0588469375,31.37
2021-06-21 16:29:59.515625000,-59.5,3.0,26.5,93.1990625,14.34,0.058766875,31.37
2021-06-21 16:29:59.523437500,-59.25,3.0,26.75,93.19859375,12.545,0.0586868125,31.37
2021-06-21 16:29:59.531250000,-59.0,3.0,27.0,93.198125,10.75,0.05860675,31.37
2021-06-21 16:29:59.539062500,-59.0,3.0,26.75,93.19765625000001,8.635,0.0585266875,31.37
2021-06-21 16:29:59.546875000,-59.0,3.0,26.5,93.1971875,6.52,0.058446625,31.37
2021-06-21 16:29:59.554687500,-59.0,3.0,26.25,93.19671875,4.47,0.0583665625,31.37
2021-06-21 16:29:59.562500000,-59.0,3.0,26.0,93.19625,2.42,0.0582865,31.37
2021-06-21 16:29:59.570312500,-59.25,3.0,26.0,93.19578125,0.78,0.0582064375,31.37
2021-06-21 16:29:59.578125000,-59.5,3.0,26.0,93.1953125,-0.86,0.058126375,31.37
2021-06-21 16:29:59.585937500,-59.75,3.0,26.0,93.19484375,-1.895,0.0580463125,31.37
2021-06-21 16:29:59.593750000,-60.0,3.0,26.0,93.19437500000001,-2.93,0.05796625,31.37
2021-06-21 16:29:59.601562500,-60.0,3.0,26.25,93.19390625,-3.3600000000000003,0.0578861875,31.37
2021-06-21 16:29:59.609375000,-60.0,3.0,26.5,93.1934375,-3.79,0.057806125,31.37
2021-06-21 16:29:59.617187500,-60.0,3.0,26.75,93.19296875,-3.8049999999999997,0.0577260625,31.37
2021-06-21 16:29:59.625000000,-60.0,3.0,27.0,93.1925,-3.82,0.057646,31.37
2021-06-21 16:29:59.632812500,-59.75,3.0,26.75,93.19203125,-3.715,0.0575659375,31.37
2021-06-21 16:29:59.640625000,-59.5,3.0,26.5,93.1915625,-3.61,0.057485875,31.37
2021-06-21 16:29:59.648437500,-59.25,3.0,26.25,93.19109375000001,-3.705,0.0574058125,31.37
2021-06-21 16:29:59.656250000,-59.0,3.0,26.0,93.190625,-3.8,0.05732575,31.37
2021-06-21 16:29:59.664062500,-59.25,3.0,26.0,93.19015625,-4.285,0.057245687499999996,31.37
2021-06-21 16:29:59.671875000,-59.5,3.0,26.0,93.1896875,-4.77,0.057165625,31.37
2021-06-21 16:29:59.679687500,-59.75,3.0,26.0,93.18921875000001,-5.695,0.0570855625,31.37
2021-06-21 16:29:59.687500000,-60.0,3.0,26.0,93.18875,-6.62,0.0570055,31.37
2021-06-21 16:29:59.695312500,-59.75,3.0,26.0,93.18828125,-7.875,0.056925437499999995,31.37
2021-06-21 16:29:59.703125000,-59.5,3.0,26.0,93.1878125,-9.13,0.056845375,31.37
2021-06-21 16:29:59.710937500,-59.25,3.0,26.0,93.18734375,-10.57,0.0567653125,31.37
2021-06-21 16:29:59.718750000,-59.0,3.0,26.0,93.186875,-12.01,0.05668525,31.37
2021-06-21 16:29:59.726562500,-59.0,3.0,26.0,93.18640625,-13.5,0.0566051875,31.37
2021-06-21 16:29:59.734375000,-59.0,3.0,26.0,93.18593750000001,-14.99,0.056525124999999996,31.37
2021-06-21 16:29:59.742187500,-59.0,3.0,26.0,93.18546875,-16.495,0.0564450625,31.37
2021-06-21 16:29:59.750000000,-59.0,3.0,26.0,93.185,-18.0,0.056365,31.37
2021-06-21 16:29:59.757812500,-59.25,3.0,26.0,93.18453125,-19.545,0.0564450625,31.37
2021-06-21 16:29:59.765625000,-59.5,3.0,26.0,93.1840625,-21.09,0.056525124999999996,31.37
2021-06-21 16:29:59.773437500,-59.75,3.0,26.0,93.18359375,-22.79,0.0566051875,31.37
2021-06-21 16:29:59.781250000,-60.0,3.0,26.0,93.183125,-24.49,0.05668525,31.37
2021-06-21 16:29:59.789062500,-60.0,3.0,26.0,93.18265625000001,-26.485,0.0567653125,31.37
2021-06-21 16:29:59.796875000,-60.0,3.0,26.0,93.1821875,-28.48,0.056845375,31.37
2021-06-21 16:29:59.804687500,-60.0,3.0,26.0,93.18171875,-30.97,0.0569254375,31.37
2021-06-21 16:29:59.812500000,-60.0,3.0,26.0,93.18125,-33.46,0.0570055,31.37
2021-06-21 16:29:59.820312500,-59.75,3.0,26.0,93.18078125,-36.655,0.0570855625,31.37
2021-06-21 16:29:59.828125000,-59.5,3.0,26.0,93.1803125,-39.85,0.057165625,31.37
2021-06-21 16:29:59.835937500,-59.25,3.0,26.0,93.17984375,-43.93,0.057245687499999996,31.37
2021-06-21 16:29:59.843750000,-59.0,3.0,26.0,93.17937500000001,-48.01,0.05732575,31.37
2021-06-21 16:29:59.851562500,-59.25,3.0,26.0,93.17890625,-53.015,0.0574058125,31.37
2021-06-21 16:29:59.859375000,-59.5,3.0,26.0,93.1784375,-58.02,0.057485875,31.37
2021-06-21 16:29:59.867187500,-59.75,3.0,26.0,93.17796875,-63.69,0.0575659375,31.37
2021-06-21 16:29:59.875000000,-60.0,3.0,26.0,93.17750000000001,-69.36,0.057646,31.37
2021-06-21 16:29:59.882812500,-60.0,3.0,26.0,93.17703125,-75.08500000000001,0.0577260625,31.37
2021-06-21 16:29:59.890625000,-60.0,3.0,26.0,93.1765625,-80.81,0.057806125,31.37
2021-06-21 16:29:59.898437500,-60.0,3.0,26.0,93.17609375,-85.64500000000001,0.0578861875,31.37
2021-06-21 16:29:59.906250000,-60.0,3.0,26.0,93.175625,-90.48,0.05796625,31.37
2021-06-21 16:29:59.914062500,-60.0,3.0,26.0,93.17515625,-93.35,0.0580463125,31.37
2021-06-21 16:29:59.921875000,-60.0,3.0,26.0,93.1746875,-96.22,0.058126375,31.37
2021-06-21 16:29:59.929687500,-60.0,3.0,26.0,93.17421875000001,-96.25999999999999,0.0582064375,31.37
2021-06-21 16:29:59.937500000,-60.0,3.0,26.0,93.17375,-96.3,0.0582865,31.37
2021-06-21 16:29:59.945312500,-60.0,3.0,26.0,93.17328125,-93.14,0.0583665625,31.37
2021-06-21 16:29:59.953125000,-60.0,3.0,26.0,93.1728125,-89.98,0.058446625,31.37
2021-06-21 16:29:59.960937500,-60.0,3.0,26.0,93.17234375,-83.935,0.0585266875,31.37
2021-06-21 16:29:59.968750000,-60.0,3.0,26.0,93.171875,-77.89,0.05860675,31.37
2021-06-21 16:29:59.976562500,-60.0,3.0,26.0,93.17140625,-69.86,0.0586868125,31.37
2021-06-21 16:29:59.984375000,-60.0,3.0,26.0,93.17093750000001,-61.83,0.058766875,31.37
2021-06-21 16:29:59.992187500,-60.0,3.0,26.0,93.17046875,-53.03,0.0588469375,31.37
2021-06-21 16:30:00.000000000,-60.0,3.0,26.0,93.17,-44.23,0.058927,31.37
2021-06-21 16:30:00.007812500,-59.75,3.0,26.0,93.16960937500001,-35.815,0.0588469375,31.37
2021-06-21 16:30:00.015625000,-59.5,3.0,26.0,93.16921875,-27.4,0.058766875,31.37
2021-06-21 16:30:00.023437500,-59.25,3.0,26.0,93.168828125,-20.14,0.0586868125,31.37
2021-06-21 16:30:00.031250000,-59.0,3.0,26.0,93.1684375,-12.88,0.05860675,31.37
2021-06-21 16:30:00.039062500,-59.25,3.0,26.0,93.168046875,-7.075,0.0585266875,31.37
2021-06-21 16:30:00.046875000,-59.5,3.0,26.0,93.16765625000001,-1.27,0.058446625,31.37
2021-06-21 16:30:00.054687500,-59.75,3.0,26.0,93.167265625,3.155,0.0583665625,31.37
2021-06-21 16:30:00.062500000,-60.0,3.0,26.0,93.166875,7.58,0.0582865,31.37
2021-06-21 16:30:00.070312500,-60.0,3.0,26.0,93.166484375,10.85,0.0582064375,31.37
2021-06-21 16:30:00.078125000,-60.0,3.0,26.0,93.16609375,14.12,0.058126375,31.37
2021-06-21 16:30:00.085937500,-60.0,3.0,26.0,93.16570312500001,16.425,0.0580463125,31.37
2021-06-21 16:30:00.093750000,-60.0,3.0,26.0,93.1653125,18.73,0.05796625,31.37
2021-06-21 16:30:00.101562500,-60.0,3.0,26.0,93.164921875,20.130000000000003,0.0578861875,31.37
2021-06-21 16:30:00.109375000,-60.0,3.0,26.0,93.16453125,21.53,0.057806125,31.37
2021-06-21 16:30:00.117187500,-60.0,3.0,26.0,93.164140625,22.05,0.0577260625,31.37
2021-06-21 16:30:00.125000000,-60.0,3.0,26.0,93.16375000000001,22.57,0.057646,31.37
2021-06-21 16:30:00.132812500,-60.0,3.0,26.0,93.163359375,22.3,0.0575659375,31.37
2021-06-21 16:30:00.140625000,-60.0,3.0,26.0,93.16296875,22.03,0.057485875,31.37
2021-06-21 16:30:00.148437500,-60.0,3.0,26.0,93.162578125,21.215,0.0574058125,31.37
2021-06-21 16:30:00.156250000,-60.0,3.0,26.0,93.1621875,20.4,0.05732575,31.37
2021-06-21 16:30:00.164062500,-60.0,3.0,26.25,93.16179687500001,19.415,0.057245687499999996,31.37
2021-06-21 16:30:00.171875000,-60.0,3.0,26.5,93.16140625,18.43,0.057165625,31.37
2021-06-21 16:30:00.179687500,-60.0,3.0,26.75,93.161015625,17.655,0.0570855625,31.37
2021-06-21 16:30:00.187500000,-60.0,3.0,27.0,93.160625,16.88,0.0570055,31.37
2021-06-21 16:30:00.195312500,-60.0,3.0,26.75,93.160234375,16.575,0.056925437499999995,31.37
2021-06-21 16:30:00.203125000,-60.0,3.0,26.5,93.15984375000001,16.27,0.056845375,31.37
2021-06-21 16:30:00.210937500,-60.0,3.0,26.25,93.159453125,16.515,0.0567653125,31.37
2021-06-21 16:30:00.218750000,-60.0,3.0,26.0,93.1590625,16.76,0.05668525,31.37
2021-06-21 16:30:00.226562500,-60.0,3.0,26.0,93.158671875,17.43,0.0566051875,31.37
2021-06-21 16:30:00.234375000,-60.0,3.0,26.0,93.15828125,18.1,0.056525124999999996,31.37
2021-06-21 16:30:00.242187500,-60.0,3.0,26.0,93.15789062500001,18.975,0.0564450625,31.37
2021-06-21 16:30:00.250000000,-60.0,3.0,26.0,93.1575,19.85,0.056365,31.37
2021-06-21 16:30:00.257812500,-59.75,3.0,26.25,93.157109375,20.645000000000003,0.0564450625,31.37
2021-06-21 16:30:00.265625000,-59.5,3.0,26.5,93.15671875,21.44,0.056525124999999996,31.37
2021-06-21 16:30:00.273437500,-59.25,3.0,26.75,93.156328125,21.92,0.0566051875,31.37
2021-06-21 16:30:00.281250000,-59.0,3.0,27.0,93.15593750000001,22.4,0.05668525,31.37
2021-06-21 16:30:00.289062500,-59.0,3.0,27.0,93.155546875,22.36,0.0567653125,31.37
2021-06-21 16:30:00.296875000,-59.0,3.0,27.0,93.15515625,22.32,0.056845375,31.37
2021-06-21 16:30:00.304687500,-59.0,3.0,27.0,93.154765625,21.675,0.0569254375,31.37
2021-06-21 16:30:00.312500000,-59.0,3.0,27.0,93.154375,21.03,0.0570055,31.37
2021-06-21 16:30:00.320312500,-59.25,3.0,26.75,93.15398437500001,19.770000000000003,0.0570855625,31.37
2021-06-21 16:30:00.328125000,-59.5,3.0,26.5,93.15359375,18.51,0.057165625,31.37
2021-06-21 16:30:00.335937500,-59.75,3.0,26.25,93.153203125,16.725,0.057245687499999996,31.37
2021-06-21 16:30:00.343750000,-60.0,3.0,26.0,93.1528125,14.94,0.05732575,31.37
2021-06-21 16:30:00.351562500,-60.0,3.0,26.0,93.152421875,12.765,0.0574058125,31.37
2021-06-21 16:30:00.359375000,-60.0,3.0,26.0,93.15203125000001,10.59,0.057485875,31.37
2021-06-21 16:30:00.367187500,-60.0,3.0,26.0,93.151640625,8.129999999999999,0.0575659375,31.37
2021-06-21 16:30:00.375000000,-60.0,3.0,26.0,93.15125,5.67,0.057646,31.37
2021-06-21 16:30:00.382812500,-59.75,3.0,26.25,93.150859375,2.965,0.0577260625,31.37
2021-06-21 16:30:00.390625000,-59.5,3.0,26.5,93.15046875,0.26,0.057806125,31.37
2021-06-21 16:30:00.398437500,-59.25,3.0,26.75,93.15007812500001,-2.71,0.0578861875,31.37
2021-06-21 16:30:00.406250000,-59.0,3.0,27.0,93.1496875,-5.68,0.05796625,31.37
2021-06-21 16:30:00.414062500,-59.25,3.0,26.75,93.149296875,-8.985,0.0580463125,31.37
2021-06-21 16:30:00.421875000,-59.5,3.0,26.5,93.14890625,-12.29,0.058126375,31.37
2021-06-21 16:30:00.429687500,-59.75,3.0,26.25,93.148515625,-15.99,0.0582064375,31.37
2021-06-21 16:30:00.437500000,-60.0,3.0,26.0,93.14812500000001,-19.69,0.0582865,31.37
2021-06-21 16:30:00.445312500,-60.0,3.0,26.0,93.147734375,-23.815,0.0583665625,31.37
2021-06-21 16:30:00.453125000,-60.0,3.0,26.0,93.14734375,-27.94,0.058446625,31.37
2021-06-21 16:30:00.460937500,-60.0,3.0,26.0,93.146953125,-32.51,0.0585266875,31.37
2021-06-21 16:30:00.468750000,-60.0,3.0,26.0,93.1465625,-37.08,0.05860675,31.37
2021-06-21 16:30:00.476562500,-59.75,3.0,26.0,93.14617187500001,-42.025,0.0586868125,31.37
2021-06-21 16:30:00.484375000,-59.5,3.0,26.0,93.14578125,-46.97,0.058766875,31.37
2021-06-21 16:30:00.492187500,-59.25,3.0,26.0,93.145390625,-52.07,0.0588469375,31.37
2021-06-21 16:30:00.500000000,-59.0,3.0,26.0,93.14500000000001,-57.17,0.058927,31.37
2021-06-21 16:30:00.507812500,-59.25,3.0,26.0,93.144609375,-61.93,0.0588469375,31.37
2021-06-21 16:30:00.515625000,-59.5,3.0,26.0,93.14421875000001,-66.69,0.058766875,31.37
2021-06-21 16:30:00.523437500,-59.75,3.0,26.0,93.143828125,-70.33500000000001,0.0586868125,31.37
2021-06-21 16:30:00.531250000,-60.0,3.0,26.0,93.1434375,-73.98,0.05860675,31.37
2021-06-21 16:30:00.539062500,-60.0,3.0,26.25,93.14304687500001,-75.6,0.0585266875,31.37
2021-06-21 16:30:00.546875000,-60.0,3.0,26.5,93.14265625,-77.22,0.058446625,31.37
2021-06-21 16:30:00.554687500,-60.0,3.0,26.75,93.14226562500001,-76.03999999999999,0.0583665625,31.37
2021-06-21 16:30:00.562500000,-60.0,3.0,27.0,93.141875,-74.86,0.0582865,31.37
2021-06-21 16:30:00.570312500,-59.75,3.0,27.0,93.141484375,-70.58500000000001,0.0582064375,31.37
2021-06-21 16:30:00.578125000,-59.5,3.0,27.0,93.14109375000001,-66.31,0.058126375,31.37
2021-06-21 16:30:00.585937500,-59.25,3.0,27.0,93.140703125,-59.295,0.0580463125,31.37
2021-06-21 16:30:00.593750000,-59.0,3.0,27.0,93.14031250000001,-52.28,0.05796625,31.37
2021-06-21 16:30:00.601562500,-59.25,3.0,26.75,93.139921875,-43.5,0.0578861875,31.37
2021-06-21 16:30:00.609375000,-59.5,3.0,26.5,93.13953125,-34.72,0.057806125,31.37
2021-06-21 16:30:00.617187500,-59.75,3.0,26.25,93.13914062500001,-25.424999999999997,0.0577260625,31.37
2021-06-21 16:30:00.625000000,-60.0,3.0,26.0,93.13875,-16.13,0.057646,31.37
2021-06-21 16:30:00.632812500,-60.0,3.0,26.0,93.13835937500001,-7.484999999999999,0.0575659375,31.37
2021-06-21 16:30:00.640625000,-60.0,3.0,26.0,93.13796875,1.16,0.057485875,31.37
2021-06-21 16:30:00.648437500,-60.0,3.0,26.0,93.137578125,8.344999999999999,0.0574058125,31.37
2021-06-21 16:30:00.656250000,-60.0,3.0,26.0,93.13718750000001,15.53,0.05732575,31.37
2021-06-21 16:30:00.664062500,-60.0,3.0,26.0,93.136796875,20.94,0.057245687499999996,31.37
2021-06-21 16:30:00.671875000,-60.0,3.0,26.0,93.13640625000001,26.35,0.057165625,31.37
2021-06-21 16:30:00.679687500,-60.0,3.0,26.0,93.136015625,30.03,0.0570855625,31.37
2021-06-21 16:30:00.687500000,-60.0,3.0,26.0,93.135625,33.71,0.0570055,31.37
2021-06-21 16:30:00.695312500,-60.0,3.0,26.0,93.13523437500001,35.92,0.056925437499999995,31.37
2021-06-21 16:30:00.703125000,-60.0,3.0,26.0,93.13484375,38.13,0.056845375,31.37
2021-06-21 16:30:00.710937500,-60.0,3.0,26.0,93.13445312500001,39.165000000000006,0.0567653125,31.37
2021-06-21 16:30:00.718750000,-60.0,3.0,26.0,93.1340625,40.2,0.05668525,31.37
2021-06-21 16:30:00.726562500,-60.0,3.0,26.0,93.133671875,40.34,0.0566051875,31.37
2021-06-21 16:30:00.734375000,-60.0,3.0,26.0,93.13328125000001,40.48,0.056525124999999996,31.37
2021-06-21 16:30:00.742187500,-60.0,3.0,26.0,93.132890625,39.97,0.0564450625,31.37
2021-06-21 16:30:00.750000000,-60.0,3.0,26.0,93.13250000000001,39.46,0.056365,31.37
2021-06-21 16:30:00.757812500,-59.75,3.0,26.25,93.132109375,38.54,0.05648509375,31.37
2021-06-21 16:30:00.765625000,-59.5,3.0,26.5,93.13171875,37.62,0.0566051875,31.37
2021-06-21 16:30:00.773437500,-59.25,3.0,26.75,93.13132812500001,36.51,0.056725281249999995,31.37
2021-06-21 16:30:00.781250000,-59.0,3.0,27.0,93.1309375,35.4,0.056845375,31.37
2021-06-21 16:30:00.789062500,-59.25,3.0,26.75,93.13054687500001,34.285,0.05696546875,31.37
2021-06-21 16:30:00.796875000,-59.5,3.0,26.5,93.13015625,33.17,0.0570855625,31.37
2021-06-21 16:30:00.804687500,-59.75,3.0,26.25,93.129765625,32.175,0.05720565625,31.37
2021-06-21 16:30:00.812500000,-60.0,3.0,26.0,93.12937500000001,31.18,0.057325749999999995,31.37
2021-06-21 16:30:00.820312500,-60.0,3.0,26.0,93.128984375,30.384999999999998,0.057445843749999996,31.37
2021-06-21 16:30:00.828125000,-60.0,3.0,26.0,93.12859375000001,29.59,0.0575659375,31.37
2021-06-21 16:30:00.835937500,-60.0,3.0,26.0,93.128203125,29.015,0.05768603125,31.37
2021-06-21 16:30:00.843750000,-60.0,3.0,26.0,93.1278125,28.44,0.057806125,31.37
2021-06-21 16:30:00.851562500,-60.0,3.0,26.0,93.12742187500001,28.065,0.05792621875,31.37
2021-06-21 16:30:00.859375000,-60.0,3.0,26.0,93.12703125,27.69,0.058046312499999995,31.37
2021-06-21 16:30:00.867187500,-60.0,3.0,26.0,93.12664062500001,27.46,0.05816640625,31.37
2021-06-21 16:30:00.875000000,-60.0,3.0,26.0,93.12625,27.23,0.0582865,31.37
2021-06-21 16:30:00.882812500,-60.0,3.0,26.0,93.125859375,27.064999999999998,0.05840659375,31.37
2021-06-21 16:30:00.890625000,-60.0,3.0,26.0,93.12546875000001,26.9,0.0585266875,31.37
2021-06-21 16:30:00.898437500,-60.0,3.0,26.0,93.125078125,26.665,0.058646781249999995,31.37
2021-06-21 16:30:00.906250000,-60.0,3.0,26.0,93.12468750000001,26.43,0.058766874999999996,31.37
2021-06-21 16:30:00.914062500,-60.0,3.0,26.0,93.124296875,25.97,0.05888696875,31.37
2021-06-21 16:30:00.921875000,-60.0,3.0,26.0,93.12390625,25.51,0.0590070625,31.37
2021-06-21 16:30:00.929687500,-60.0,3.0,26.0,93.12351562500001,24.655,0.05912715625,31.37
2021-06-21 16:30:00.937500000,-60.0,3.0,26.0,93.123125,23.8,0.05924725,31.37
2021-06-21 16:30:00.945312500,-59.75,3.0,26.0,93.12273437500001,22.41,0.059367343749999996,31.37
2021-06-21 16:30:00.953125000,-59.5,3.0,26.0,93.12234375,21.02,0.0594874375,31.37
2021-06-21 16:30:00.960937500,-59.25,3.0,26.0,93.121953125,19.04,0.05960753125,31.37
2021-06-21 16:30:00.968750000,-59.0,3.0,26.0,93.12156250000001,17.06,0.059727625,31.37
2021-06-21 16:30:00.976562500,-59.25,3.0,26.0,93.121171875,14.54,0.05984771875,31.37
2021-06-21 16:30:00.984375000,-59.5,3.0,26.0,93.12078125000001,12.02,0.059967812499999995,31.37
2021-06-21 16:30:00.992187500,-59.75,3.0,26.0,93.120390625,9.094999999999999,0.060087906249999996,31.37
2021-06-21 16:30:01.000000000,-60.0,3.0,26.0,93.12,6.17,0.060208,31.37
2021-06-21 16:30:01.007812500,-60.0,3.0,26.0,93.11984375,3.02,0.060087906249999996,31.37
2021-06-21 16:30:01.015625000,-60.0,3.0,26.0,93.1196875,-0.13,0.059967812499999995,31.37
2021-06-21 16:30:01.023437500,-60.0,3.0,26.0,93.11953125000001,-3.335,0.05984771875,31.37
2021-06-21 16:30:01.031250000,-60.0,3.0,26.0,93.119375,-6.54,0.059727625,31.37
2021-06-21 16:30:01.039062500,-59.75,3.0,26.0,93.11921875,-9.73,0.05960753125,31.37
2021-06-21 16:30:01.046875000,-59.5,3.0,26.0,93.1190625,-12.92,0.0594874375,31.37
2021-06-21 16:30:01.054687500,-59.25,3.0,26.0,93.11890625000001,-16.115,0.059367343749999996,31.37
2021-06-21 16:30:01.062500000,-59.0,3.0,26.0,93.11875,-19.31,0.05924725,31.37
2021-06-21 16:30:01.070312500,-59.25,3.0,26.0,93.11859375,-22.64,0.05912715625,31.37
2021-06-21 16:30:01.078125000,-59.5,3.0,26.0,93.1184375,-25.97,0.0590070625,31.37
2021-06-21 16:30:01.085937500,-59.75,3.0,26.0,93.11828125000001,-29.61,0.05888696875,31.37
2021-06-21 16:30:01.093750000,-60.0,3.0,26.0,93.118125,-33.25,0.058766874999999996,31.37
2021-06-21 16:30:01.101562500,-60.0,3.0,26.0,93.11796875,-37.364999999999995,0.058646781249999995,31.37
2021-06-21 16:30:01.109375000,-60.0,3.0,26.0,93.1178125,-41.48,0.0585266875,31.37
2021-06-21 16:30:01.117187500,-60.0,3.0,26.0,93.11765625000001,-46.12,0.05840659375,31.37
2021-06-21 16:30:01.125000000,-60.0,3.0,26.0,93.1175,-50.76,0.0582865,31.37
2021-06-21 16:30:01.132812500,-60.0,3.0,26.0,93.11734375,-55.76,0.05816640625,31.37
2021-06-21 16:30:01.140625000,-60.0,3.0,26.0,93.1171875,-60.76,0.058046312499999995,31.37
2021-06-21 16:30:01.148437500,-60.0,3.0,26.0,93.11703125,-65.685,0.05792621875,31.37
2021-06-21 16:30:01.156250000,-60.0,3.0,26.0,93.11687500000001,-70.61,0.057806125,31.37
2021-06-21 16:30:01.164062500,-60.0,3.0,26.0,93.11671875,-74.695,0.05768603125,31.37
2021-06-21 16:30:01.171875000,-60.0,3.0,26.0,93.1165625,-78.78,0.0575659375,31.37
2021-06-21 16:30:01.179687500,-60.0,3.0,26.0,93.11640625,-81.125,0.057445843749999996,31.37
2021-06-21 16:30:01.187500000,-60.0,3.0,26.0,93.11625000000001,-83.47,0.057325749999999995,31.37
2021-06-21 16:30:01.195312500,-60.0,3.0,26.0,93.11609375,-83.25999999999999,0.05720565625,31.37
2021-06-21 16:30:01.203125000,-60.0,3.0,26.0,93.1159375,-83.05,0.0570855625,31.37
2021-06-21 16:30:01.210937500,-60.0,3.0,26.0,93.11578125,-79.83500000000001,0.05696546875,31.37
2021-06-21 16:30:01.218750000,-60.0,3.0,26.0,93.11562500000001,-76.62,0.056845375,31.37
2021-06-21 16:30:01.226562500,-59.75,3.0,26.25,93.11546875,-70.535,0.056725281249999995,31.37
2021-06-21 16:30:01.234375000,-59.5,3.0,26.5,93.1153125,-64.45,0.0566051875,31.37
2021-06-21 16:30:01.242187500,-59.25,3.0,26.75,93.11515625,-56.21,0.05648509375,31.37
2021-06-21 16:30:01.250000000,-59.0,3.0,27.0,93.11500000000001,-47.97,0.056365,31.37
2021-06-21 16:30:01.257812500,-59.0,3.0,26.75,93.11484375,-38.665,0.05648509375,31.37
2021-06-21 16:30:01.265625000,-59.0,3.0,26.5,93.1146875,-29.36,0.0566051875,31.37
2021-06-21 16:30:01.273437500,-59.0,3.0,26.25,93.11453125,-20.13,0.056725281249999995,31.37
2021-06-21 16:30:01.281250000,-59.0,3.0,26.0,93.114375,-10.9,0.056845375,31.37
2021-06-21 16:30:01.289062500,-59.25,3.0,26.0,93.11421875,-2.625,0.05696546875,31.37
2021-06-21 16:30:01.296875000,-59.5,3.0,26.0,93.1140625,5.65,0.0570855625,31.37
2021-06-21 16:30:01.304687500,-59.75,3.0,26.0,93.11390625,12.475000000000001,0.05720565625,31.37
2021-06-21 16:30:01.312500000,-60.0,3.0,26.0,93.11375,19.3,0.057325749999999995,31.37
2021-06-21 16:30:01.320312500,-60.0,3.0,26.0,93.11359375,24.57,0.057445843749999996,31.37
2021-06-21 16:30:01.328125000,-60.0,3.0,26.0,93.1134375,29.84,0.0575659375,31.37
2021-06-21 16:30:01.335937500,-60.0,3.0,26.0,93.11328125,33.68,0.05768603125,31.37
2021-06-21 16:30:01.343750000,-60.0,3.0,26.0,93.113125,37.52,0.057806125,31.37
2021-06-21 16:30:01.351562500,-60.0,3.0,26.0,93.11296875000001,40.145,0.05792621875,31.37
2021-06-21 16:30:01.359375000,-60.0,3.0,26.0,93.1128125,42.77,0.058046312499999995,31.37
2021-06-21 16:30:01.367187500,-60.0,3.0,26.0,93.11265625,44.405,0.05816640625,31.37
2021-06-21 16:30:01.375000000,-60.0,3.0,26.0,93.1125,46.04,0.0582865,31.37
2021-06-21 16:30:01.382812500,-60.0,3.0,26.0,93.11234375,46.879999999999995,0.05840659375,31.37
2021-06-21 16:30:01.390625000,-60.0,3.0,26.0,93.1121875,47.72,0.0585266875,31.37
2021-06-21 16:30:01.398437500,-60.0,3.0,26.0,93.11203125,47.955,0.058646781249999995,31.37
2021-06-21 16:30:01.406250000,-60.0,3.0,26.0,93.111875,48.19,0.058766874999999996,31.37
2021-06-21 16:30:01.414062500,-59.75,3.0,26.25,93.11171875,48.019999999999996,0.05888696875,31.37
2021-06-21 16:30:01.421875000,-59.5,3.0,26.5,93.1115625,47.85,0.0590070625,31.37
2021-06-21 16:30:01.429687500,-59.25,3.0,26.75,93.11140625,47.45,0.05912715625,31.37
2021-06-21 16:30:01.437500000,-59.0,3.0,27.0,93.11125,47.05,0.05924725,31.37
2021-06-21 16:30:01.445312500,-59.25,3.0,26.75,93.11109375,46.555,0.059367343749999996,31.37
2021-06-21 16:30:01.453125000,-59.5,3.0,26.5,93.1109375,46.06,0.0594874375,31.37
2021-06-21 16:30:01.460937500,-59.75,3.0,26.25,93.11078125,45.575,0.05960753125,31.37
2021-06-21 16:30:01.468750000,-60.0,3.0,26.0,93.110625,45.09,0.059727625,31.37
2021-06-21 16:30:01.476562500,-59.75,3.0,26.0,93.11046875,44.69,0.05984771875,31.37
2021-06-21 16:30:01.484375000,-59.5,3.0,26.0,93.1103125,44.29,0.059967812499999995,31.37
2021-06-21 16:30:01.492187500,-59.25,3.0,26.0,93.11015625,44.035,0.060087906249999996,31.37
2021-06-21 16:30:01.500000000,-59.0,3.0,26.0,93.11,43.78,0.060208,31.37
2021-06-21 16:30:01.507812500,-59.25,3.0,26.25,93.10984375,43.705,0.060087906249999996,31.37
2021-06-21 16:30:01.515625000,-59.5,3.0,26.5,93.10968749999999,43.63,0.059967812499999995,31.37
2021-06-21 16:30:01.523437500,-59.75,3.0,26.75,93.10953125,43.745000000000005,0.05984771875,31.37
2021-06-21 16:30:01.531250000,-60.0,3.0,27.0,93.109375,43.86,0.059727625,31.37
2021-06-21 16:30:01.539062500,-60.0,3.0,26.75,93.10921875,44.105000000000004,0.05960753125,31.37
2021-06-21 16:30:01.546875000,-60.0,3.0,26.5,93.1090625,44.35,0.0594874375,31.37
2021-06-21 16:30:01.554687500,-60.0,3.0,26.25,93.10890625,44.575,0.059367343749999996,31.37
2021-06-21 16:30:01.562500000,-60.0,3.0,26.0,93.10875,44.8,0.05924725,31.37
2021-06-21 16:30:01.570312500,-60.0,3.0,26.0,93.10859375,44.775,0.05912715625,31.37
2021-06-21 16:30:01.578125000,-60.0,3.0,26.0,93.1084375,44.75,0.0590070625,31.37
2021-06-21 16:30:01.585937500,-60.0,3.0,26.0,93.10828125,44.205,0.05888696875,31.37
2021-06-21 16:30:01.593750000,-60.0,3.0,26.0,93.108125,43.66,0.058766874999999996,31.37
2021-06-21 16:30:01.601562500,-59.75,3.0,26.0,93.10796875,42.375,0.058646781249999995,31.37
2021-06-21 16:30:01.609375000,-59.5,3.0,26.0,93.1078125,41.09,0.0585266875,31.37
2021-06-21 16:30:01.617187500,-59.25,3.0,26.0,93.10765625,38.96,0.05840659375,31.37
2021-06-21 16:30:01.625000000,-59.0,3.0,26.0,93.1075,36.83,0.0582865,31.37
2021-06-21 16:30:01.632812500,-59.25,3.0,26.0,93.10734375,33.89,0.05816640625,31.37
2021-06-21 16:30:01.640625000,-59.5,3.0,26.0,93.1071875,30.95,0.058046312499999995,31.37
2021-06-21 16:30:01.648437500,-59.75,3.0,26.0,93.10703124999999,27.4,0.05792621875,31.37
2021-06-21 16:30:01.656250000,-60.0,3.0,26.0,93.106875,23.85,0.057806125,31.37
2021-06-21 16:30:01.664062500,-60.0,3.0,26.0,93.10671875,19.96,0.05768603125,31.37
2021-06-21 16:30:01.671875000,-60.0,3.0,26.0,93.1065625,16.07,0.0575659375,31.37
2021-06-21 16:30:01.679687500,-60.0,3.0,26.0,93.10640624999999,12.100000000000001,0.057445843749999996,31.37
2021-06-21 16:30:01.687500000,-60.0,3.0,26.0,93.10625,8.13,0.057325749999999995,31.37
2021-06-21 16:30:01.695312500,-59.75,3.0,26.25,93.10609375,4.265000000000001,0.05720565625,31.37
2021-06-21 16:30:01.703125000,-59.5,3.0,26.5,93.1059375,0.4,0.0570855625,31.37
2021-06-21 16:30:01.710937500,-59.25,3.0,26.75,93.10578124999999,-3.33,0.05696546875,31.37
2021-06-21 16:30:01.718750000,-59.0,3.0,27.0,93.105625,-7.06,0.056845375,31.37
2021-06-21 16:30:01.726562500,-59.0,3.0,27.0,93.10546875,-10.75,0.056725281249999995,31.37
2021-06-21 16:30:01.734375000,-59.0,3.0,27.0,93.1053125,-14.44,0.0566051875,31.37
2021-06-21 16:30:01.742187500,-59.0,3.0,27.0,93.10515625,-18.28,0.05648509375,31.37
2021-06-21 16:30:01.750000000,-59.0,3.0,27.0,93.10499999999999,-22.12,0.056365,31.37
2021-06-21 16:30:01.757812500,-59.25,3.0,26.75,93.10484375,-26.335,0.05648509375,31.37
2021-06-21 16:30:01.765625000,-59.5,3.0,26.5,93.1046875,-30.55,0.0566051875,31.37
2021-06-21 16:30:01.773437500,-59.75,3.0,26.25,93.10453125,-35.295,0.056725281249999995,31.37
2021-06-21 16:30:01.781250000,-60.0,3.0,26.0,93.10437499999999,-40.04,0.056845375,31.37
2021-06-21 16:30:01.789062500,-60.0,3.0,26.25,93.10421875,-45.335,0.05696546875,31.37
2021-06-21 16:30:01.796875000,-60.0,3.0,26.5,93.1040625,-50.63,0.0570855625,31.37
2021-06-21 16:30:01.804687500,-60.0,3.0,26.75,93.10390625,-56.235,0.05720565625,31.37
2021-06-21 16:30:01.812500000,-60.0,3.0,27.0,93.10374999999999,-61.84,0.057325749999999995,31.37
2021-06-21 16:30:01.820312500,-60.0,3.0,26.75,93.10359375,-67.18,0.057445843749999996,31.37
2021-06-21 16:30:01.828125000,-60.0,3.0,26.5,93.1034375,-72.52,0.0575659375,31.37
2021-06-21 16:30:01.835937500,-60.0,3.0,26.25,93.10328125,-76.75999999999999,0.05768603125,31.37
2021-06-21 16:30:01.843750000,-60.0,3.0,26.0,93.10312499999999,-81.0,0.057806125,31.37
2021-06-21 16:30:01.851562500,-60.0,3.0,26.0,93.10296875,-83.21000000000001,0.05792621875,31.37
2021-06-21 16:30:01.859375000,-60.0,3.0,26.0,93.1028125,-85.42,0.058046312499999995,31.37
2021-06-21 16:30:01.867187500,-60.0,3.0,26.0,93.10265625,-84.845,0.05816640625,31.37
2021-06-21 16:30:01.875000000,-60.0,3.0,26.0,93.10249999999999,-84.27,0.0582865,31.37
2021-06-21 16:30:01.882812500,-60.0,3.0,26.25,93.10234374999999,-80.655,0.05840659375,31.37
2021-06-21 16:30:01.890625000,-60.0,3.0,26.5,93.1021875,-77.04,0.0585266875,31.37
2021-06-21 16:30:01.898437500,-60.0,3.0,26.75,93.10203125,-70.725,0.058646781249999995,31.37
2021-06-21 16:30:01.906250000,-60.0,3.0,27.0,93.10187499999999,-64.41,0.058766874999999996,31.37
2021-06-21 16:30:01.914062500,-60.0,3.0,26.75,93.10171874999999,-56.3,0.05888696875,31.37
2021-06-21 16:30:01.921875000,-60.0,3.0,26.5,93.1015625,-48.19,0.0590070625,31.37
2021-06-21 16:30:01.929687500,-60.0,3.0,26.25,93.10140625,-39.48,0.05912715625,31.37
2021-06-21 16:30:01.937500000,-60.0,3.0,26.0,93.10125,-30.77,0.05924725,31.37
2021-06-21 16:30:01.945312500,-60.0,3.0,26.0,93.10109374999999,-22.555,0.059367343749999996,31.37
2021-06-21 16:30:01.953125000,-60.0,3.0,26.0,93.1009375,-14.34,0.0594874375,31.37
2021-06-21 16:30:01.960937500,-60.0,3.0,26.0,93.10078125,-7.36,0.05960753125,31.37
2021-06-21 16:30:01.968750000,-60.0,3.0,26.0,93.100625,-0.38,0.059727625,31.37
2021-06-21 16:30:01.976562500,-59.75,3.0,26.0,93.10046874999999,5.085000000000001,0.05984771875,31.37
2021-06-21 16:30:01.984375000,-59.5,3.0,26.0,93.1003125,10.55,0.059967812499999995,31.37
2021-06-21 16:30:01.992187500,-59.25,3.0,26.0,93.10015625,14.575000000000001,0.060087906249999996,31.37
2021-06-21 16:30:02.000000000,-59.0,3.0,26.0,93.1,18.6,0.060208,31.37
2021-06-21 16:30:02.007812500,-59.0,3.0,26.25,93.1,21.455,0.0601279375,31.370625
2021-06-21 16:30:02.015625000,-59.0,3.0,26.5,93.1,24.31,0.060047875,31.37125
2021-06-21 16:30:02.023437500,-59.0,3.0,26.75,93.1,26.235,0.059967812499999995,31.371875
2021-06-21 16:30:02.031250000,-59.0,3.0,27.0,93.1,28.16,0.05988775,31.372500000000002
2021-06-21 16:30:02.039062500,-59.25,3.0,26.75,93.1,29.29,0.0598076875,31.373125
2021-06-21 16:30:02.046875000,-59.5,3.0,26.5,93.1,30.42,0.059727625,31.37375
2021-06-21 16:30:02.054687500,-59.75,3.0,26.25,93.1,30.815,0.0596475625,31.374375
2021-06-21 16:30:02.062500000,-60.0,3.0,26.0,93.1,31.21,0.059567499999999995,31.375
2021-06-21 16:30:02.070312500,-60.0,3.0,26.25,93.1,30.935000000000002,0.0594874375,31.375625
2021-06-21 16:30:02.078125000,-60.0,3.0,26.5,93.1,30.66,0.059407375,31.376250000000002
2021-06-21 16:30:02.085937500,-60.0,3.0,26.75,93.1,29.82,0.0593273125,31.376875000000002
2021-06-21 16:30:02.093750000,-60.0,3.0,27.0,93.1,28.98,0.05924725,31.3775
2021-06-21 16:30:02.101562500,-60.0,3.0,26.75,93.1,27.765,0.0591671875,31.378125
2021-06-21 16:30:02.109375000,-60.0,3.0,26.5,93.1,26.55,0.059087125,31.37875
2021-06-21 16:30:02.117187500,-60.0,3.0,26.25,93.1,25.189999999999998,0.0590070625,31.379375
2021-06-21 16:30:02.125000000,-60.0,3.0,26.0,93.1,23.83,0.058927,31.380000000000003
2021-06-21 16:30:02.132812500,-60.0,3.0,26.0,93.1,22.525,0.0588469375,31.380625000000002
2021-06-21 16:30:02.140625000,-60.0,3.0,26.0,93.1,21.22,0.058766875,31.38125
2021-06-21 16:30:02.148437500,-60.0,3.0,26.0,93.1,20.119999999999997,0.0586868125,31.381875
2021-06-21 16:30:02.156250000,-60.0,3.0,26.0,93.1,19.02,0.05860675,31.3825
2021-06-21 16:30:02.164062500,-60.0,3.0,26.0,93.1,18.215,0.0585266875,31.383125
2021-06-21 16:30:02.171875000,-60.0,3.0,26.0,93.1,17.41,0.058446625,31.38375
2021-06-21 16:30:02.179687500,-60.0,3.0,26.0,93.1,16.935000000000002,0.058366562500000004,31.384375000000002
2021-06-21 16:30:02.187500000,-60.0,3.0,26.0,93.1,16.46,0.058286500000000005,31.385
2021-06-21 16:30:02.195312500,-59.75,3.0,26.0,93.1,16.310000000000002,0.0582064375,31.385625
2021-06-21 16:30:02.203125000,-59.5,3.0,26.0,93.1,16.16,0.058126375,31.38625
2021-06-21 16:30:02.210937500,-59.25,3.0,26.0,93.1,16.28,0.0580463125,31.386875
2021-06-21 16:30:02.218750000,-59.0,3.0,26.0,93.1,16.4,0.057966250000000004,31.3875
2021-06-21 16:30:02.226562500,-59.25,3.25,26.0,93.1,16.655,0.057886187500000005,31.388125000000002
2021-06-21 16:30:02.234375000,-59.5,3.5,26.0,93.1,16.91,0.057806125,31.38875
2021-06-21 16:30:02.242187500,-59.75,3.75,26.0,93.1,17.055,0.0577260625,31.389375
2021-06-21 16:30:02.250000000,-60.0,4.0,26.0,93.1,17.2,0.057646,31.39
2021-06-21 16:30:02.257812500,-59.75,3.75,26.25,93.1,16.935000000000002,0.0577260625,31.39
2021-06-21 16:30:02.265625000,-59.5,3.5,26.5,93.1,16.67,0.057806125,31.39
2021-06-21 16:30:02.273437500,-59.25,3.25,26.75,93.1,15.740000000000002,0.057886187500000005,31.39
2021-06-21 16:30:02.281250000,-59.0,3.0,27.0,93.1,14.81,0.057966250000000004,31.39
2021-06-21 16:30:02.289062500,-59.0,3.0,26.75,93.1,13.08,0.0580463125,31.39
2021-06-21 16:30:02.296875000,-59.0,3.0,26.5,93.1,11.35,0.058126375,31.39
2021-06-21 16:30:02.304687500,-59.0,3.0,26.25,93.1,8.89,0.0582064375,31.39
2021-06-21 16:30:02.312500000,-59.0,3.0,26.0,93.1,6.43,0.058286500000000005,31.39
2021-06-21 16:30:02.320312500,-59.25,2.75,26.0,93.1,3.465,0.058366562500000004,31.39
2021-06-21 16:30:02.328125000,-59.5,2.5,26.0,93.1,0.5,0.058446625,31.39
2021-06-21 16:30:02.335937500,-59.75,2.25,26.0,93.1,-2.695,0.0585266875,31.39
2021-06-21 16:30:02.343750000,-60.0,2.0,26.0,93.1,-5.89,0.05860675,31.39
2021-06-21 16:30:02.351562500,-60.0,2.25,26.0,93.1,-9.09,0.0586868125,31.39
2021-06-21 16:30:02.359375000,-60.0,2.5,26.0,93.1,-12.29,0.058766875,31.39
2021-06-21 16:30:02.367187500,-60.0,2.75,26.0,93.1,-15.385,0.0588469375,31.39
2021-06-21 16:30:02.375000000,-60.0,3.0,26.0,93.1,-18.48,0.058927,31.39
2021-06-21 16:30:02.382812500,-60.0,3.0,26.0,93.1,-21.525,0.0590070625,31.39
2021-06-21 16:30:02.390625000,-60.0,3.0,26.0,93.1,-24.57,0.059087125,31.39
2021-06-21 16:30:02.398437500,-60.0,3.0,26.0,93.1,-27.725,0.0591671875,31.39
2021-06-21 16:30:02.406250000,-60.0,3.0,26.0,93.1,-30.88,0.05924725,31.39
2021-06-21 16:30:02.414062500,-60.0,3.0,26.0,93.1,-34.375,0.0593273125,31.39
2021-06-21 16:30:02.421875000,-60.0,3.0,26.0,93.1,-37.87,0.059407375,31.39
2021-06-21 16:30:02.429687500,-60.0,3.0,26.0,93.1,-41.93,0.0594874375,31.39
2021-06-21 16:30:02.437500000,-60.0,3.0,26.0,93.1,-45.99,0.059567499999999995,31.39
2021-06-21 16:30:02.445312500,-60.0,3.0,26.0,93.1,-50.730000000000004,0.0596475625,31.39
2021-06-21 16:30:02.453125000,-60.0,3.0,26.0,93.1,-55.47,0.059727625,31.39
2021-06-21 16:30:02.460937500,-60.0,3.0,26.0,93.1,-60.735,0.0598076875,31.39
2021-06-21 16:30:02.468750000,-60.0,3.0,26.0,93.1,-66.0,0.05988775,31.39
2021-06-21 16:30:02.476562500,-60.0,3.0,26.0,93.1,-71.295,0.059967812499999995,31.39
2021-06-21 16:30:02.484375000,-60.0,3.0,26.0,93.1,-76.59,0.060047875,31.39
2021-06-21 16:30:02.492187500,-60.0,3.0,26.0,93.1,-81.03999999999999,0.0601279375,31.39
2021-06-21 16:30:02.500000000,-60.0,3.0,26.0,93.1,-85.49,0.060208,31.39
2021-06-21 16:30:02.507812500,-60.0,3.0,26.0,93.1,-88.03,0.060087906249999996,31.39
2021-06-21 16:30:02.515625000,-60.0,3.0,26.0,93.1,-90.57,0.059967812499999995,31.39
2021-06-21 16:30:02.523437500,-60.0,3.0,26.0,93.1,-90.28999999999999,0.05984771875,31.39
2021-06-21 16:30:02.531250000,-60.0,3.0,26.0,93.1,-90.01,0.059727625,31.39
2021-06-21 16:30:02.539062500,-60.0,3.0,26.0,93.1,-86.5,0.05960753125,31.39
2021-06-21 16:30:02.546875000,-60.0,3.0,26.0,93.1,-82.99,0.0594874375,31.39
2021-06-21 16:30:02.554687500,-60.0,3.0,26.0,93.1,-76.54499999999999,0.059367343749999996,31.39
2021-06-21 16:30:02.562500000,-60.0,3.0,26.0,93.1,-70.1,0.05924725,31.39
2021-06-21 16:30:02.570312500,-60.0,3.0,26.0,93.1,-61.66499999999999,0.05912715625,31.39
2021-06-21 16:30:02.578125000,-60.0,3.0,26.0,93.1,-53.23,0.0590070625,31.39
2021-06-21 16:30:02.585937500,-60.0,3.0,26.0,93.1,-44.084999999999994,0.05888696875,31.39
2021-06-21 16:30:02.593750000,-60.0,3.0,26.0,93.1,-34.94,0.058766874999999996,31.39
2021-06-21 16:30:02.601562500,-60.0,3.0,26.0,93.1,-26.29,0.058646781249999995,31.39
2021-06-21 16:30:02.609375000,-60.0,3.0,26.0,93.1,-17.64,0.0585266875,31.39
2021-06-21 16:30:02.617187500,-60.0,3.0,26.0,93.1,-10.31,0.05840659375,31.39
2021-06-21 16:30:02.625000000,-60.0,3.0,26.0,93.1,-2.98,0.0582865,31.39
2021-06-21 16:30:02.632812500,-60.0,3.0,26.0,93.1,2.69,0.05816640625,31.39
2021-06-21 16:30:02.640625000,-60.0,3.0,26.0,93.1,8.36,0.058046312499999995,31.39
2021-06-21 16:30:02.648437500,-60.0,3.0,26.0,93.1,12.435,0.05792621875,31.39
2021-06-21 16:30:02.656250000,-60.0,3.0,26.0,93.1,16.51,0.057806125,31.39
2021-06-21 16:30:02.664062500,-60.0,3.0,26.0,93.1,19.270000000000003,0.05768603125,31.39
2021-06-21 16:30:02.671875000,-60.0,3.0,26.0,93.1,22.03,0.0575659375,31.39
2021-06-21 16:30:02.679687500,-60.0,3.0,26.0,93.1,23.79,0.057445843749999996,31.39
2021-06-21 16:30:02.687500000,-60.0,3.0,26.0,93.1,25.55,0.057325749999999995,31.39
2021-06-21 16:30:02.695312500,-59.75,3.0,26.0,93.1,26.58,0.05720565625,31.39
2021-06-21 16:30:02.703125000,-59.5,3.0,26.0,93.1,27.61,0.0570855625,31.39
2021-06-21 16:30:02.710937500,-59.25,3.0,26.0,93.1,28.11,0.05696546875,31.39
2021-06-21 16:30:02.718750000,-59.0,3.0,26.0,93.1,28.61,0.056845375,31.39
2021-06-21 16:30:02.726562500,-59.25,3.0,26.0,93.1,28.735,0.056725281249999995,31.39
2021-06-21 16:30:02.734375000,-59.5,3.0,26.0,93.1,28.86,0.0566051875,31.39
2021-06-21 16:30:02.742187500,-59.75,3.0,26.0,93.1,28.73,0.05648509375,31.39
2021-06-21 16:30:02.750000000,-60.0,3.0,26.0,93.1,28.6,0.056365,31.39
2021-06-21 16:30:02.757812500,-60.0,3.0,26.0,93.1,28.325000000000003,0.05648509375,31.39
2021-06-21 16:30:02.765625000,-60.0,3.0,26.0,93.1,28.05,0.0566051875,31.39
2021-06-21 16:30:02.773437500,-60.0,3.0,26.0,93.1,27.765,0.056725281249999995,31.39
2021-06-21 16:30:02.781250000,-60.0,3.0,26.0,93.1,27.48,0.056845375,31.39
2021-06-21 16:30:02.789062500,-60.0,3.0,26.0,93.1,27.325000000000003,0.05696546875,31.39
2021-06-21 16:30:02.796875000,-60.0,3.0,26.0,93.1,27.17,0.0570855625,31.39
2021-06-21 16:30:02.804687500,-60.0,3.0,26.0,93.1,27.275,0.05720565625,31.39
2021-06-21 16:30:02.812500000,-60.0,3.0,26.0,93.1,27.38,0.057325749999999995,31.39
2021-06-21 16:30:02.820312500,-60.0,3.0,26.0,93.1,27.845,0.057445843749999996,31.39
2021-06-21 16:30:02.828125000,-60.0,3.0,26.0,93.1,28.31,0.0575659375,31.39
2021-06-21 16:30:02.835937500,-60.0,3.0,26.0,93.1,29.095,0.05768603125,31.39
2021-06-21 16:30:02.843750000,-60.0,3.0,26.0,93.1,29.88,0.057806125,31.39
2021-06-21 16:30:02.851562500,-60.0,3.0,26.0,93.1,30.825,0.05792621875,31.39
2021-06-21 16:30:02.859375000,-60.0,3.0,26.0,93.1,31.77,0.058046312499999995,31.39
2021-06-21 16:30:02.867187500,-60.0,3.0,26.0,93.1,32.615,0.05816640625,31.39
2021-06-21 16:30:02.875000000,-60.0,3.0,26.0,93.1,33.46,0.0582865,31.39
2021-06-21 16:30:02.882812500,-59.75,2.75,26.0,93.1,33.93,0.05840659375,31.39
2021-06-21 16:30:02.890625000,-59.5,2.5,26.0,93.1,34.4,0.0585266875,31.39
2021-06-21 16:30:02.898437500,-59.25,2.25,26.0,93.1,34.345,0.058646781249999995,31.39
2021-06-21 16:30:02.906250000,-59.0,2.0,26.0,93.1,34.29,0.058766874999999996,31.39
2021-06-21 16:30:02.914062500,-59.0,2.25,26.0,93.1,33.69,0.05888696875,31.39
2021-06-21 16:30:02.921875000,-59.0,2.5,26.0,93.1,33.09,0.0590070625,31.39
2021-06-21 16:30:02.929687500,-59.0,2.75,26.0,93.1,32.015,0.05912715625,31.39
2021-06-21 16:30:02.937500000,-59.0,3.0,26.0,93.1,30.94,0.05924725,31.39
2021-06-21 16:30:02.945312500,-59.0,3.0,26.25,93.1,29.475,0.059367343749999996,31.39
2021-06-21 16:30:02.953125000,-59.0,3.0,26.5,93.1,28.01,0.0594874375,31.39
2021-06-21 16:30:02.960937500,-59.0,3.0,26.75,93.1,26.165,0.05960753125,31.39
2021-06-21 16:30:02.968750000,-59.0,3.0,27.0,93.1,24.32,0.059727625,31.39
2021-06-21 16:30:02.976562500,-59.25,3.0,27.0,93.1,22.035,0.05984771875,31.39
2021-06-21 16:30:02.984375000,-59.5,3.0,27.0,93.1,19.75,0.059967812499999995,31.39
2021-06-21 16:30:02.992187500,-59.75,3.0,27.0,93.1,16.91,0.060087906249999996,31.39
2021-06-21 16:30:03.000000000,-60.0,3.0,27.0,93.1,14.07,0.060208,31.39
2021-06-21 16:30:03.007812500,-59.75,3.0,26.75,93.099609375,10.61,0.060167968749999995,31.39
2021-06-21 16:30:03.015625000,-59.5,3.0,26.5,93.09921874999999,7.15,0.0601279375,31.39
2021-06-21 16:30:03.023437500,-59.25,3.0,26.25,93.098828125,3.0549999999999997,0.060087906249999996,31.39
2021-06-21 16:30:03.031250000,-59.0,3.0,26.0,93.09843749999999,-1.04,0.060047875,31.39
2021-06-21 16:30:03.039062500,-59.25,3.0,26.0,93.098046875,-5.7250000000000005,0.06000784375,31.39
2021-06-21 16:30:03.046875000,-59.5,3.0,26.0,93.09765625,-10.41,0.059967812499999995,31.39
2021-06-21 16:30:03.054687500,-59.75,3.0,26.0,93.09726562499999,-15.56,0.05992778125,31.39
2021-06-21 16:30:03.062500000,-60.0,3.0,26.0,93.096875,-20.71,0.05988775,31.39
2021-06-21 16:30:03.070312500,-60.0,2.75,26.0,93.09648437499999,-26.11,0.05984771875,31.39
2021-06-21 16:30:03.078125000,-60.0,2.5,26.0,93.09609375,-31.51,0.0598076875,31.39
2021-06-21 16:30:03.085937500,-60.0,2.25,26.0,93.095703125,-36.745,0.059767656249999995,31.39
2021-06-21 16:30:03.093750000,-60.0,2.0,26.0,93.09531249999999,-41.98,0.059727625,31.39
2021-06-21 16:30:03.101562500,-60.0,2.0,26.0,93.094921875,-46.415,0.05968759375,31.39
2021-06-21 16:30:03.109375000,-60.0,2.0,26.0,93.09453124999999,-50.85,0.0596475625,31.39
2021-06-21 16:30:03.117187500,-60.0,2.0,26.0,93.094140625,-53.7,0.05960753125,31.39
2021-06-21 16:30:03.125000000,-60.0,2.0,26.0,93.09375,-56.55,0.059567499999999995,31.39
2021-06-21 16:30:03.132812500,-60.0,2.5,26.0,93.09335937499999,-57.05,0.05952746875,31.39
2021-06-21 16:30:03.140625000,-60.0,3.0,26.0,93.09296875,-57.55,0.0594874375,31.39
2021-06-21 16:30:03.148437500,-60.0,3.5,26.0,93.09257812499999,-55.22,0.05944740625,31.39
2021-06-21 16:30:03.156250000,-60.0,4.0,26.0,93.0921875,-52.89,0.059407375,31.39
2021-06-21 16:30:03.164062500,-60.0,3.75,26.0,93.091796875,-47.760000000000005,0.05936734375,31.39
2021-06-21 16:30:03.171875000,-60.0,3.5,26.0,93.09140624999999,-42.63,0.0593273125,31.39
2021-06-21 16:30:03.179687500,-60.0,3.25,26.0,93.091015625,-35.28,0.05928728125,31.39
2021-06-21 16:30:03.187500000,-60.0,3.0,26.0,93.09062499999999,-27.93,0.05924725,31.39
2021-06-21 16:30:03.195312500,-59.75,3.0,26.0,93.090234375,-19.365000000000002,0.05920721875,31.39
2021-06-21 16:30:03.203125000,-59.5,3.0,26.0,93.08984375,-10.8,0.0591671875,31.39
2021-06-21 16:30:03.210937500,-59.25,3.0,26.0,93.08945312499999,-2.1500000000000004,0.05912715625,31.39
2021-06-21 16:30:03.218750000,-59.0,3.0,26.0,93.0890625,6.5,0.059087125,31.39
2021-06-21 16:30:03.226562500,-59.25,3.0,26.0,93.08867187499999,14.295,0.05904709375,31.39
2021-06-21 16:30:03.234375000,-59.5,3.0,26.0,93.08828125,22.09,0.0590070625,31.39
2021-06-21 16:30:03.242187500,-59.75,3.0,26.0,93.087890625,28.47,0.05896703125,31.39
2021-06-21 16:30:03.250000000,-60.0,3.0,26.0,93.08749999999999,34.85,0.058927,31.39
2021-06-21 16:30:03.257812500,-60.0,3.0,26.0,93.087109375,39.635000000000005,0.0588469375,31.39
2021-06-21 16:30:03.265625000,-60.0,3.0,26.0,93.08671874999999,44.42,0.058766875,31.39
2021-06-21 16:30:03.273437500,-60.0,3.0,26.0,93.086328125,47.74,0.0586868125,31.39
2021-06-21 16:30:03.281250000,-60.0,3.0,26.0,93.0859375,51.06,0.05860675,31.39
2021-06-21 16:30:03.289062500,-60.0,3.0,26.0,93.08554687499999,53.155,0.0585266875,31.39
2021-06-21 16:30:03.296875000,-60.0,3.0,26.0,93.08515625,55.25,0.058446625,31.39
2021-06-21 16:30:03.304687500,-60.0,3.0,26.0,93.08476562499999,56.315,0.0583665625,31.39
2021-06-21 16:30:03.312500000,-60.0,3.0,26.0,93.084375,57.38,0.0582865,31.39
2021-06-21 16:30:03.320312500,-60.0,3.0,26.0,93.083984375,57.58,0.0582064375,31.39
2021-06-21 16:30:03.328125000,-60.0,3.0,26.0,93.08359374999999,57.78,0.058126375,31.39
2021-06-21 16:30:03.335937500,-60.0,3.0,26.0,93.083203125,57.245000000000005,0.0580463125,31.39
2021-06-21 16:30:03.343750000,-60.0,3.0,26.0,93.08281249999999,56.71,0.05796625,31.39
2021-06-21 16:30:03.351562500,-60.0,3.0,26.0,93.082421875,55.615,0.0578861875,31.39
2021-06-21 16:30:03.359375000,-60.0,3.0,26.0,93.08203125,54.52,0.057806125,31.39
2021-06-21 16:30:03.367187500,-60.0,3.0,26.0,93.08164062499999,53.11,0.0577260625,31.39
2021-06-21 16:30:03.375000000,-60.0,3.0,26.0,93.08125,51.7,0.057646,31.39
2021-06-21 16:30:03.382812500,-60.0,3.0,26.0,93.08085937499999,50.28,0.0575659375,31.39
2021-06-21 16:30:03.390625000,-60.0,3.0,26.0,93.08046875,48.86,0.057485875,31.39
2021-06-21 16:30:03.398437500,-60.0,3.0,26.0,93.080078125,47.67,0.0574058125,31.39
2021-06-21 16:30:03.406250000,-60.0,3.0,26.0,93.07968749999999,46.48,0.05732575,31.39
2021-06-21 16:30:03.414062500,-60.0,3.0,26.0,93.079296875,45.705,0.057245687499999996,31.39
2021-06-21 16:30:03.421875000,-60.0,3.0,26.0,93.07890624999999,44.93,0.057165625,31.39
2021-06-21 16:30:03.429687500,-60.0,3.0,26.0,93.078515625,44.58,0.0570855625,31.39
2021-06-21 16:30:03.437500000,-60.0,3.0,26.0,93.078125,44.23,0.0570055,31.39
2021-06-21 16:30:03.445312500,-60.0,3.0,26.0,93.07773437499999,44.19,0.056925437499999995,31.39
2021-06-21 16:30:03.453125000,-60.0,3.0,26.0,93.07734375,44.15,0.056845375,31.39
2021-06-21 16:30:03.460937500,-60.0,3.0,26.0,93.07695312499999,44.230000000000004,0.0567653125,31.39
2021-06-21 16:30:03.468750000,-60.0,3.0,26.0,93.0765625,44.31,0.05668525,31.39
2021-06-21 16:30:03.476562500,-60.0,3.0,26.0,93.076171875,44.285,0.0566051875,31.39
2021-06-21 16:30:03.484375000,-60.0,3.0,26.0,93.07578124999999,44.26,0.056525124999999996,31.39
2021-06-21 16:30:03.492187500,-60.0,3.0,26.0,93.075390625,43.945,0.0564450625,31.39
2021-06-21 16:30:03.500000000,-60.0,3.0,26.0,93.07499999999999,43.63,0.056365,31.39
2021-06-21 16:30:03.507812500,-60.0,3.0,26.0,93.074609375,42.925,0.056365,31.39
2021-06-21 16:30:03.515625000,-60.0,3.0,26.0,93.07421875,42.22,0.056365,31.39
2021-06-21 16:30:03.523437500,-60.0,3.0,26.0,93.07382812499999,41.114999999999995,0.056365,31.39
2021-06-21 16:30:03.531250000,-60.0,3.0,26.0,93.0734375,40.01,0.056365,31.39
2021-06-21 16:30:03.539062500,-59.75,3.0,26.0,93.073046875,38.55,0.056365,31.39
2021-06-21 16:30:03.546875000,-59.5,3.0,26.0,93.07265625,37.09,0.056365,31.39
2021-06-21 16:30:03.554687500,-59.25,3.0,26.0,93.072265625,35.36,0.056365,31.39
2021-06-21 16:30:03.562500000,-59.0,3.0,26.0,93.07187499999999,33.63,0.056365,31.39
2021-06-21 16:30:03.570312500,-59.25,3.0,26.0,93.071484375,31.68,0.056365,31.39
2021-06-21 16:30:03.578125000,-59.5,3.0,26.0,93.07109375,29.73,0.056365,31.39
2021-06-21 16:30:03.585937500,-59.75,3.0,26.0,93.070703125,27.560000000000002,0.056365,31.39
2021-06-21 16:30:03.593750000,-60.0,3.0,26.0,93.0703125,25.39,0.056365,31.39
2021-06-21 16:30:03.601562500,-60.0,3.0,26.25,93.06992187499999,22.965,0.056365,31.39
2021-06-21 16:30:03.609375000,-60.0,3.0,26.5,93.06953125,20.54,0.056365,31.39
2021-06-21 16:30:03.617187500,-60.0,3.0,26.75,93.069140625,17.79,0.056365,31.39
2021-06-21 16:30:03.625000000,-60.0,3.0,27.0,93.06875,15.04,0.056365,31.39
2021-06-21 16:30:03.632812500,-59.75,2.75,26.75,93.068359375,11.899999999999999,0.056365,31.39
2021-06-21 16:30:03.640625000,-59.5,2.5,26.5,93.06796874999999,8.76,0.056365,31.39
2021-06-21 16:30:03.648437500,-59.25,2.25,26.25,93.067578125,5.165,0.056365,31.39
2021-06-21 16:30:03.656250000,-59.0,2.0,26.0,93.0671875,1.57,0.056365,31.39
2021-06-21 16:30:03.664062500,-59.0,2.25,26.0,93.066796875,-2.55,0.056365,31.39
2021-06-21 16:30:03.671875000,-59.0,2.5,26.0,93.06640625,-6.67,0.056365,31.39
2021-06-21 16:30:03.679687500,-59.0,2.75,26.0,93.06601562499999,-11.375,0.056365,31.39
2021-06-21 16:30:03.687500000,-59.0,3.0,26.0,93.065625,-16.08,0.056365,31.39
2021-06-21 16:30:03.695312500,-59.25,3.0,26.0,93.065234375,-21.325,0.056365,31.39
2021-06-21 16:30:03.703125000,-59.5,3.0,26.0,93.06484375,-26.57,0.056365,31.39
2021-06-21 16:30:03.710937500,-59.75,3.0,26.0,93.064453125,-32.09,0.056365,31.39
2021-06-21 16:30:03.718750000,-60.0,3.0,26.0,93.06406249999999,-37.61,0.056365,31.39
2021-06-21 16:30:03.726562500,-60.0,3.0,26.0,93.063671875,-42.825,0.056365,31.39
2021-06-21 16:30:03.734375000,-60.0,3.0,26.0,93.06328125,-48.04,0.056365,31.39
2021-06-21 16:30:03.742187500,-60.0,3.0,26.0,93.062890625,-52.06,0.056365,31.39
2021-06-21 16:30:03.750000000,-60.0,3.0,26.0,93.0625,-56.08,0.056365,31.39
2021-06-21 16:30:03.757812500,-60.0,3.0,26.0,93.06210937499999,-57.92,0.056365,31.39
2021-06-21 16:30:03.765625000,-60.0,3.0,26.0,93.06171875,-59.76,0.056365,31.39
2021-06-21 16:30:03.773437500,-60.0,3.0,26.0,93.061328125,-58.635,0.056365,31.39
2021-06-21 16:30:03.781250000,-60.0,3.0,26.0,93.0609375,-57.51,0.056365,31.39
2021-06-21 16:30:03.789062500,-60.0,3.0,26.0,93.060546875,-53.16,0.056365,31.39
2021-06-21 16:30:03.796875000,-60.0,3.0,26.0,93.06015624999999,-48.81,0.056365,31.39
2021-06-21 16:30:03.804687500,-60.0,3.0,26.0,93.059765625,-41.67,0.056365,31.39
2021-06-21 16:30:03.812500000,-60.0,3.0,26.0,93.059375,-34.53,0.056365,31.39
2021-06-21 16:30:03.820312500,-60.0,3.0,26.0,93.058984375,-25.634999999999998,0.056365,31.39
2021-06-21 16:30:03.828125000,-60.0,3.0,26.0,93.05859375,-16.74,0.056365,31.39
2021-06-21 16:30:03.835937500,-60.0,3.0,26.0,93.05820312499999,-7.414999999999999,0.056365,31.39
2021-06-21 16:30:03.843750000,-60.0,3.0,26.0,93.0578125,1.91,0.056365,31.39
2021-06-21 16:30:03.851562500,-60.0,3.0,26.0,93.057421875,10.425,0.056365,31.39
2021-06-21 16:30:03.859375000,-60.0,3.0,26.0,93.05703125,18.94,0.056365,31.39
2021-06-21 16:30:03.867187500,-60.0,3.0,26.0,93.056640625,25.835,0.056365,31.39
2021-06-21 16:30:03.875000000,-60.0,3.0,26.0,93.05624999999999,32.73,0.056365,31.39
2021-06-21 16:30:03.882812500,-60.0,3.0,26.25,93.055859375,37.72,0.056365,31.39
2021-06-21 16:30:03.890625000,-60.0,3.0,26.5,93.05546875,42.71,0.056365,31.39
2021-06-21 16:30:03.898437500,-60.0,3.0,26.75,93.055078125,45.955,0.056365,31.39
2021-06-21 16:30:03.906250000,-60.0,3.0,27.0,93.0546875,49.2,0.056365,31.39
2021-06-21 16:30:03.914062500,-60.0,3.0,26.75,93.05429687499999,51.075,0.056365,31.39
2021-06-21 16:30:03.921875000,-60.0,3.0,26.5,93.05390625,52.95,0.056365,31.39
2021-06-21 16:30:03.929687500,-60.0,3.0,26.25,93.053515625,53.815,0.056365,31.39
2021-06-21 16:30:03.937500000,-60.0,3.0,26.0,93.053125,54.68,0.056365,31.39
2021-06-21 16:30:03.945312500,-60.0,3.0,26.0,93.052734375,54.78,0.056365,31.39
2021-06-21 16:30:03.953125000,-60.0,3.0,26.0,93.05234374999999,54.88,0.056365,31.39
2021-06-21 16:30:03.960937500,-60.0,3.0,26.0,93.051953125,54.3,0.056365,31.39
2021-06-21 16:30:03.968750000,-60.0,3.0,26.0,93.0515625,53.72,0.056365,31.39
2021-06-21 16:30:03.976562500,-60.0,3.0,26.0,93.051171875,52.565,0.056365,31.39
2021-06-21 16:30:03.984375000,-60.0,3.0,26.0,93.05078125,51.41,0.056365,31.39
2021-06-21 16:30:03.992187500,-60.0,3.0,26.0,93.05039062499999,49.845,0.056365,31.39
2021-06-21 16:30:04.000000000,-60.0,3.0,26.0,93.05,48.28,0.056365,31.39
2021-06-21 16:30:04.007812500,-60.0,3.0,26.0,93.04976562499999,46.59,0.05640503125,31.389375
2021-06-21 16:30:04.015625000,-60.0,3.0,26.0,93.04953125,44.9,0.0564450625,31.38875
2021-06-21 16:30:04.023437500,-60.0,3.0,26.0,93.049296875,43.42,0.05648509375,31.388125000000002
2021-06-21 16:30:04.031250000,-60.0,3.0,26.0,93.04906249999999,41.94,0.056525124999999996,31.3875
2021-06-21 16:30:04.039062500,-60.0,3.0,26.0,93.048828125,40.92,0.05656515625,31.386875
2021-06-21 16:30:04.046875000,-60.0,3.0,26.0,93.04859375,39.9,0.0566051875,31.38625
2021-06-21 16:30:04.054687500,-60.0,3.0,26.0,93.048359375,39.425,0.05664521875,31.385625
2021-06-21 16:30:04.062500000,-60.0,3.0,26.0,93.048125,38.95,0.05668525,31.385
2021-06-21 16:30:04.070312500,-60.0,3.0,26.0,93.047890625,38.905,0.05672528125,31.384375000000002
2021-06-21 16:30:04.078125000,-60.0,3.0,26.0,93.04765625,38.86,0.0567653125,31.38375
2021-06-21 16:30:04.085937500,-60.0,3.0,26.0,93.047421875,39.01,0.05680534375,31.383125
2021-06-21 16:30:04.093750000,-60.0,3.0,26.0,93.04718749999999,39.16,0.056845375000000004,31.3825
2021-06-21 16:30:04.101562500,-60.0,3.0,26.0,93.046953125,39.224999999999994,0.05688540625,31.381875
2021-06-21 16:30:04.109375000,-60.0,3.0,26.0,93.04671875,39.29,0.0569254375,31.38125
2021-06-21 16:30:04.117187500,-60.0,3.0,26.0,93.04648437499999,39.055,0.05696546875,31.380625000000002
2021-06-21 16:30:04.125000000,-60.0,3.0,26.0,93.04625,38.82,0.0570055,31.380000000000003
2021-06-21 16:30:04.132812500,-60.0,3.0,26.0,93.046015625,38.16,0.05704553125,31.379375
2021-06-21 16:30:04.140625000,-60.0,3.0,26.0,93.04578124999999,37.5,0.0570855625,31.37875
2021-06-21 16:30:04.148437500,-60.0,3.0,26.0,93.045546875,36.345,0.05712559375,31.378125
2021-06-21 16:30:04.156250000,-60.0,3.0,26.0,93.0453125,35.19,0.057165625,31.3775
2021-06-21 16:30:04.164062500,-60.0,3.0,26.0,93.045078125,33.51,0.05720565625,31.376875000000002
2021-06-21 16:30:04.171875000,-60.0,3.0,26.0,93.04484375,31.83,0.0572456875,31.376250000000002
2021-06-21 16:30:04.179687500,-60.0,3.0,26.0,93.044609375,29.6,0.05728571875,31.375625
2021-06-21 16:30:04.187500000,-60.0,3.0,26.0,93.044375,27.37,0.05732575,31.375
2021-06-21 16:30:04.195312500,-60.0,3.0,26.0,93.044140625,24.59,0.057365781250000004,31.374375
2021-06-21 16:30:04.203125000,-60.0,3.0,26.0,93.04390624999999,21.81,0.0574058125,31.37375
2021-06-21 16:30:04.210937500,-60.0,3.0,26.0,93.043671875,18.525,0.05744584375,31.373125
2021-06-21 16:30:04.218750000,-60.0,3.0,26.0,93.0434375,15.24,0.057485875000000006,31.372500000000002
2021-06-21 16:30:04.226562500,-60.0,3.0,26.0,93.04320312499999,11.515,0.05752590625,31.371875
2021-06-21 16:30:04.234375000,-60.0,3.0,26.0,93.04296875,7.79,0.057565937500000004,31.37125
2021-06-21 16:30:04.242187500,-60.0,3.0,26.0,93.042734375,3.6950000000000003,0.05760596875,31.370625
2021-06-21 16:30:04.250000000,-60.0,3.0,26.0,93.04249999999999,-0.4,0.057646,31.37
2021-06-21 16:30:04.257812500,-60.0,3.0,26.0,93.042265625,-4.815,0.05760596875,31.37
2021-06-21 16:30:04.265625000,-60.0,3.0,26.0,93.04203125,-9.23,0.057565937500000004,31.37
2021-06-21 16:30:04.273437500,-60.0,3.0,26.0,93.041796875,-14.025,0.05752590625,31.37
2021-06-21 16:30:04.281250000,-60.0,3.0,26.0,93.0415625,-18.82,0.057485875000000006,31.37
2021-06-21 16:30:04.289062500,-59.75,3.0,26.0,93.04132812499999,-24.11,0.05744584375,31.37
2021-06-21 16:30:04.296875000,-59.5,3.0,26.0,93.04109375,-29.4,0.0574058125,31.37
2021-06-21 16:30:04.304687500,-59.25,3.0,26.0,93.040859375,-35.349999999999994,0.057365781250000004,31.37
2021-06-21 16:30:04.312500000,-59.0,3.0,26.0,93.04062499999999,-41.3,0.05732575,31.37
2021-06-21 16:30:04.320312500,-59.25,3.0,26.0,93.040390625,-47.995,0.05728571875,31.37
2021-06-21 16:30:04.328125000,-59.5,3.0,26.0,93.04015625,-54.69,0.0572456875,31.37
2021-06-21 16:30:04.335937500,-59.75,3.0,26.0,93.03992187499999,-61.949999999999996,0.05720565625,31.37
2021-06-21 16:30:04.343750000,-60.0,3.0,26.0,93.0396875,-69.21,0.057165625,31.37
2021-06-21 16:30:04.351562500,-60.0,3.0,26.0,93.039453125,-76.465,0.05712559375,31.37
2021-06-21 16:30:04.359375000,-60.0,3.0,26.0,93.03921875,-83.72,0.0570855625,31.37
2021-06-21 16:30:04.367187500,-60.0,3.0,26.0,93.038984375,-90.03,0.05704553125,31.37
2021-06-21 16:30:04.375000000,-60.0,3.0,26.0,93.03875,-96.34,0.0570055,31.37
2021-06-21 16:30:04.382812500,-60.0,3.0,26.25,93.038515625,-100.59,0.05696546875,31.37
2021-06-21 16:30:04.390625000,-60.0,3.0,26.5,93.03828125,-104.84,0.0569254375,31.37
2021-06-21 16:30:04.398437500,-60.0,3.0,26.75,93.03804687499999,-106.105,0.05688540625,31.37
2021-06-21 16:30:04.406250000,-60.0,3.0,27.0,93.0378125,-107.37,0.056845375000000004,31.37
2021-06-21 16:30:04.414062500,-60.0,3.0,26.75,93.037578125,-105.26,0.05680534375,31.37
2021-06-21 16:30:04.421875000,-60.0,3.0,26.5,93.03734374999999,-103.15,0.0567653125,31.37
2021-06-21 16:30:04.429687500,-60.0,3.0,26.25,93.037109375,-98.0,0.05672528125,31.37
2021-06-21 16:30:04.437500000,-60.0,3.0,26.0,93.036875,-92.85,0.05668525,31.37
2021-06-21 16:30:04.445312500,-60.0,3.0,26.25,93.03664062499999,-85.615,0.05664521875,31.37
2021-06-21 16:30:04.453125000,-60.0,3.0,26.5,93.03640625,-78.38,0.0566051875,31.37
2021-06-21 16:30:04.460937500,-60.0,3.0,26.75,93.036171875,-70.32,0.05656515625,31.37
2021-06-21 16:30:04.468750000,-60.0,3.0,27.0,93.0359375,-62.26,0.056525124999999996,31.37
2021-06-21 16:30:04.476562500,-60.0,3.0,26.75,93.035703125,-54.53,0.05648509375,31.37
2021-06-21 16:30:04.484375000,-60.0,3.0,26.5,93.03546874999999,-46.8,0.0564450625,31.37
2021-06-21 16:30:04.492187500,-60.0,3.0,26.25,93.035234375,-40.155,0.05640503125,31.37
2021-06-21 16:30:04.500000000,-60.0,3.0,26.0,93.035,-33.51,0.056365,31.37
2021-06-21 16:30:04.507812500,-60.0,3.0,26.0,93.03476562499999,-28.265,0.0564450625,31.37
2021-06-21 16:30:04.515625000,-60.0,3.0,26.0,93.03453125,-23.02,0.056525124999999996,31.37
2021-06-21 16:30:04.523437500,-60.0,3.0,26.0,93.034296875,-19.155,0.0566051875,31.37
2021-06-21 16:30:04.531250000,-60.0,3.0,26.0,93.03406249999999,-15.29,0.05668525,31.37
2021-06-21 16:30:04.539062500,-59.75,3.0,26.25,93.033828125,-12.665,0.0567653125,31.37
2021-06-21 16:30:04.546875000,-59.5,3.0,26.5,93.03359375,-10.04,0.056845375,31.37
2021-06-21 16:30:04.554687500,-59.25,3.0,26.75,93.033359375,-8.565,0.0569254375,31.37
2021-06-21 16:30:04.562500000,-59.0,3.0,27.0,93.033125,-7.09,0.0570055,31.37
2021-06-21 16:30:04.570312500,-59.25,3.0,27.0,93.032890625,-6.715,0.0570855625,31.37
2021-06-21 16:30:04.578125000,-59.5,3.0,27.0,93.03265625,-6.34,0.057165625,31.37
2021-06-21 16:30:04.585937500,-59.75,3.0,27.0,93.032421875,-6.99,0.057245687499999996,31.37
2021-06-21 16:30:04.593750000,-60.0,3.0,27.0,93.03218749999999,-7.64,0.05732575,31.37
2021-06-21 16:30:04.601562500,-60.0,3.0,26.75,93.031953125,-9.14,0.0574058125,31.37
2021-06-21 16:30:04.609375000,-60.0,3.0,26.5,93.03171875,-10.64,0.057485875,31.37
2021-06-21 16:30:04.617187500,-60.0,3.0,26.25,93.03148437499999,-12.655000000000001,0.0575659375,31.37
2021-06-21 16:30:04.625000000,-60.0,3.0,26.0,93.03125,-14.67,0.057646,31.37
2021-06-21 16:30:04.632812500,-60.0,3.0,26.25,93.031015625,-16.77,0.0577260625,31.37
2021-06-21 16:30:04.640625000,-60.0,3.0,26.5,93.03078124999999,-18.87,0.057806125,31.37
2021-06-21 16:30:04.648437500,-60.0,3.0,26.75,93.030546875,-20.64,0.0578861875,31.37
2021-06-21 16:30:04.656250000,-60.0,3.0,27.0,93.0303125,-22.41,0.05796625,31.37
2021-06-21 16:30:04.664062500,-59.75,3.0,26.75,93.030078125,-23.57,0.0580463125,31.37
2021-06-21 16:30:04.671875000,-59.5,3.0,26.5,93.02984375,-24.73,0.058126375,31.37
2021-06-21 16:30:04.679687500,-59.25,3.0,26.25,93.02960937499999,-25.205,0.0582064375,31.37
2021-06-21 16:30:04.687500000,-59.0,3.0,26.0,93.029375,-25.68,0.0582865,31.37
2021-06-21 16:30:04.695312500,-59.25,3.0,26.25,93.029140625,-25.619999999999997,0.0583665625,31.37
2021-06-21 16:30:04.703125000,-59.5,3.0,26.5,93.02890624999999,-25.56,0.058446625,31.37
2021-06-21 16:30:04.710937500,-59.75,3.0,26.75,93.028671875,-25.259999999999998,0.0585266875,31.37
2021-06-21 16:30:04.718750000,-60.0,3.0,27.0,93.0284375,-24.96,0.05860675,31.37
2021-06-21 16:30:04.726562500,-60.0,3.0,27.0,93.02820312499999,-24.71,0.0586868125,31.37
2021-06-21 16:30:04.734375000,-60.0,3.0,27.0,93.02796875,-24.46,0.058766875,31.37
2021-06-21 16:30:04.742187500,-60.0,3.0,27.0,93.027734375,-24.5,0.0588469375,31.37
2021-06-21 16:30:04.750000000,-60.0,3.0,27.0,93.0275,-24.54,0.058927,31.37
2021-06-21 16:30:04.757812500,-60.0,3.0,26.75,93.027265625,-24.965,0.0588469375,31.37
2021-06-21 16:30:04.765625000,-60.0,3.0,26.5,93.02703125,-25.39,0.058766875,31.37
2021-06-21 16:30:04.773437500,-60.0,3.0,26.25,93.026796875,-26.189999999999998,0.0586868125,31.37
2021-06-21 16:30:04.781250000,-60.0,3.0,26.0,93.0265625,-26.99,0.05860675,31.37
2021-06-21 16:30:04.789062500,-60.0,3.0,26.0,93.02632812499999,-28.115,0.0585266875,31.37
2021-06-21 16:30:04.796875000,-60.0,3.0,26.0,93.02609375,-29.24,0.058446625,31.37
2021-06-21 16:30:04.804687500,-60.0,3.0,26.0,93.025859375,-30.655,0.0583665625,31.37
2021-06-21 16:30:04.812500000,-60.0,3.0,26.0,93.02562499999999,-32.07,0.0582865,31.37
2021-06-21 16:30:04.820312500,-59.75,3.0,26.25,93.025390625,-33.760000000000005,0.0582064375,31.37
2021-06-21 16:30:04.828125000,-59.5,3.0,26.5,93.02515625,-35.45,0.058126375,31.37
2021-06-21 16:30:04.835937500,-59.25,3.0,26.75,93.02492187499999,-37.42,0.0580463125,31.37
2021-06-21 16:30:04.843750000,-59.0,3.0,27.0,93.0246875,-39.39,0.05796625,31.37
2021-06-21 16:30:04.851562500,-59.25,3.0,26.75,93.024453125,-41.635000000000005,0.0578861875,31.37
2021-06-21 16:30:04.859375000,-59.5,3.0,26.5,93.02421875,-43.88,0.057806125,31.37
2021-06-21 16:30:04.867187500,-59.75,3.0,26.25,93.023984375,-46.394999999999996,0.0577260625,31.37
2021-06-21 16:30:04.875000000,-60.0,3.0,26.0,93.02374999999999,-48.91,0.057646,31.37
2021-06-21 16:30:04.882812500,-60.0,3.0,26.0,93.023515625,-51.665,0.0575659375,31.37
2021-06-21 16:30:04.890625000,-60.0,3.0,26.0,93.02328125,-54.42,0.057485875,31.37
2021-06-21 16:30:04.898437500,-60.0,3.0,26.0,93.02304687499999,-57.465,0.0574058125,31.37
2021-06-21 16:30:04.906250000,-60.0,3.0,26.0,93.0228125,-60.51,0.05732575,31.37
2021-06-21 16:30:04.914062500,-59.75,3.0,26.0,93.022578125,-63.91,0.057245687499999996,31.37
2021-06-21 16:30:04.921875000,-59.5,3.0,26.0,93.02234374999999,-67.31,0.057165625,31.37
2021-06-21 16:30:04.929687500,-59.25,3.0,26.0,93.022109375,-71.14,0.0570855625,31.37
2021-06-21 16:30:04.937500000,-59.0,3.0,26.0,93.021875,-74.97,0.0570055,31.37
2021-06-21 16:30:04.945312500,-59.25,3.0,26.0,93.02164062499999,-79.15,0.056925437499999995,31.37
2021-06-21 16:30:04.953125000,-59.5,3.0,26.0,93.02140625,-83.33,0.056845375,31.37
2021-06-21 16:30:04.960937500,-59.75,3.0,26.0,93.021171875,-87.49000000000001,0.0567653125,31.37
2021-06-21 16:30:04.968750000,-60.0,3.0,26.0,93.0209375,-91.65,0.05668525,31.37
2021-06-21 16:30:04.976562500,-60.0,3.0,26.0,93.020703125,-95.095,0.0566051875,31.37
2021-06-21 16:30:04.984375000,-60.0,3.0,26.0,93.02046874999999,-98.54,0.056525124999999996,31.37
2021-06-21 16:30:04.992187500,-60.0,3.0,26.0,93.020234375,-100.36500000000001,0.0564450625,31.37
2021-06-21 16:30:05.000000000,-60.0,3.0,26.0,93.02,-102.19,0.056365,31.37
2021-06-21 16:30:05.007812500,-59.75,3.0,26.0,93.019609375,-101.50999999999999,0.05648509375,31.37
2021-06-21 16:30:05.015625000,-59.5,3.0,26.0,93.01921875,-100.83,0.0566051875,31.37
2021-06-21 16:30:05.023437500,-59.25,3.0,26.0,93.018828125,-97.16499999999999,0.056725281249999995,31.37
2021-06-21 16:30:05.031250000,-59.0,3.0,26.0,93.01843749999999,-93.5,0.056845375,31.37
2021-06-21 16:30:05.039062500,-59.0,3.0,26.0,93.018046875,-86.97999999999999,0.05696546875,31.37
2021-06-21 16:30:05.046875000,-59.0,3.0,26.0,93.01765625,-80.46,0.0570855625,31.37
2021-06-21 16:30:05.054687500,-59.0,3.0,26.0,93.017265625,-71.85499999999999,0.05720565625,31.37
2021-06-21 16:30:05.062500000,-59.0,3.0,26.0,93.016875,-63.25,0.057325749999999995,31.37
2021-06-21 16:30:05.070312500,-59.25,3.0,26.0,93.01648437499999,-53.760000000000005,0.057445843749999996,31.37
2021-06-21 16:30:05.078125000,-59.5,3.0,26.0,93.01609375,-44.27,0.0575659375,31.37
2021-06-21 16:30:05.085937500,-59.75,3.0,26.0,93.015703125,-35.155,0.05768603125,31.37
2021-06-21 16:30:05.093750000,-60.0,3.0,26.0,93.0153125,-26.04,0.057806125,31.37
2021-06-21 16:30:05.101562500,-60.0,3.0,26.0,93.014921875,-18.244999999999997,0.05792621875,31.37
2021-06-21 16:30:05.109375000,-60.0,3.0,26.0,93.01453124999999,-10.45,0.058046312499999995,31.37
2021-06-21 16:30:05.117187500,-60.0,3.0,26.0,93.014140625,-4.42,0.05816640625,31.37
2021-06-21 16:30:05.125000000,-60.0,3.0,26.0,93.01375,1.61,0.0582865,31.37
2021-06-21 16:30:05.132812500,-60.0,3.0,26.0,93.013359375,5.885000000000001,0.05840659375,31.37
2021-06-21 16:30:05.140625000,-60.0,3.0,26.0,93.01296875,10.16,0.0585266875,31.37
2021-06-21 16:30:05.148437500,-60.0,3.0,26.0,93.01257812499999,13.0,0.058646781249999995,31.37
2021-06-21 16:30:05.156250000,-60.0,3.0,26.0,93.0121875,15.84,0.058766874999999996,31.37
2021-06-21 16:30:05.164062500,-60.0,3.0,26.0,93.011796875,17.61,0.05888696875,31.37
2021-06-21 16:30:05.171875000,-60.0,3.0,26.0,93.01140625,19.38,0.0590070625,31.37
2021-06-21 16:30:05.179687500,-60.0,3.0,26.0,93.011015625,20.405,0.05912715625,31.37
2021-06-21 16:30:05.187500000,-60.0,3.0,26.0,93.01062499999999,21.43,0.05924725,31.37
2021-06-21 16:30:05.195312500,-60.0,3.0,26.0,93.010234375,21.884999999999998,0.059367343749999996,31.37
2021-06-21 16:30:05.203125000,-60.0,3.0,26.0,93.00984375,22.34,0.0594874375,31.37
2021-06-21 16:30:05.210937500,-60.0,3.0,26.0,93.009453125,22.32,0.05960753125,31.37
2021-06-21 16:30:05.218750000,-60.0,3.0,26.0,93.0090625,22.3,0.059727625,31.37
2021-06-21 16:30:05.226562500,-60.0,3.0,26.0,93.00867187499999,21.875,0.05984771875,31.37
2021-06-21 16:30:05.234375000,-60.0,3.0,26.0,93.00828125,21.45,0.059967812499999995,31.37
2021-06-21 16:30:05.242187500,-60.0,3.0,26.0,93.007890625,20.7,0.060087906249999996,31.37
2021-06-21 16:30:05.250000000,-60.0,3.0,26.0,93.0075,19.95,0.060208,31.37
2021-06-21 16:30:05.257812500,-60.0,2.75,26.0,93.007109375,19.0,0.060087906249999996,31.37
2021-06-21 16:30:05.265625000,-60.0,2.5,26.0,93.00671874999999,18.05,0.059967812499999995,31.37
2021-06-21 16:30:05.273437500,-60.0,2.25,26.0,93.006328125,17.055,0.05984771875,31.37
2021-06-21 16:30:05.281250000,-60.0,2.0,26.0,93.0059375,16.06,0.059727625,31.37
2021-06-21 16:30:05.289062500,-60.0,2.25,26.0,93.005546875,15.174999999999999,0.05960753125,31.37
2021-06-21 16:30:05.296875000,-60.0,2.5,26.0,93.00515625,14.29,0.0594874375,31.37
2021-06-21 16:30:05.304687500,-60.0,2.75,26.0,93.00476562499999,13.614999999999998,0.059367343749999996,31.37
2021-06-21 16:30:05.312500000,-60.0,3.0,26.0,93.004375,12.94,0.05924725,31.37
2021-06-21 16:30:05.320312500,-60.0,3.0,25.75,93.003984375,12.504999999999999,0.05912715625,31.37
2021-06-21 16:30:05.328125000,-60.0,3.0,25.5,93.00359375,12.07,0.0590070625,31.37
2021-06-21 16:30:05.335937500,-60.0,3.0,25.25,93.003203125,11.835,0.05888696875,31.37
2021-06-21 16:30:05.343750000,-60.0,3.0,25.0,93.00281249999999,11.6,0.058766874999999996,31.37
2021-06-21 16:30:05.351562500,-60.0,3.0,25.25,93.002421875,11.455,0.058646781249999995,31.37
2021-06-21 16:30:05.359375000,-60.0,3.0,25.5,93.00203125,11.31,0.0585266875,31.37
2021-06-21 16:30:05.367187500,-60.0,3.0,25.75,93.001640625,11.16,0.05840659375,31.37
2021-06-21 16:30:05.375000000,-60.0,3.0,26.0,93.00125,11.01,0.0582865,31.37
2021-06-21 16:30:05.382812500,-60.0,3.0,26.0,93.00085937499999,10.780000000000001,0.05816640625,31.37
2021-06-21 16:30:05.390625000,-60.0,3.0,26.0,93.00046875,10.55,0.058046312499999995,31.37
2021-06-21 16:30:05.398437500,-60.0,3.0,26.0,93.000078125,10.225000000000001,0.05792621875,31.37
2021-06-21 16:30:05.406250000,-60.0,3.0,26.0,92.9996875,9.9,0.057806125,31.37
2021-06-21 16:30:05.414062500,-60.0,3.0,26.0,92.999296875,9.49,0.05768603125,31.37
2021-06-21 16:30:05.421875000,-60.0,3.0,26.0,92.99890624999999,9.08,0.0575659375,31.37
2021-06-21 16:30:05.429687500,-60.0,3.0,26.0,92.998515625,8.615,0.057445843749999996,31.37
2021-06-21 16:30:05.437500000,-60.0,3.0,26.0,92.998125,8.15,0.057325749999999995,31.37
2021-06-21 16:30:05.445312500,-60.0,3.0,26.0,92.997734375,7.645,0.05720565625,31.37
2021-06-21 16:30:05.453125000,-60.0,3.0,26.0,92.99734375,7.14,0.0570855625,31.37
2021-06-21 16:30:05.460937500,-60.0,3.0,26.0,92.99695312499999,6.58,0.05696546875,31.37
2021-06-21 16:30:05.468750000,-60.0,3.0,26.0,92.9965625,6.02,0.056845375,31.37
2021-06-21 16:30:05.476562500,-60.0,3.0,26.0,92.996171875,5.38,0.056725281249999995,31.37
2021-06-21 16:30:05.484375000,-60.0,3.0,26.0,92.99578125,4.74,0.0566051875,31.37
2021-06-21 16:30:05.492187500,-60.0,3.0,26.0,92.995390625,3.96,0.05648509375,31.37
2021-06-21 16:30:05.500000000,-60.0,3.0,26.0,92.995,3.18,0.056365,31.37
2021-06-21 16:30:05.507812500,-60.0,3.0,26.0,92.994609375,2.17,0.05640503125,31.37
2021-06-21 16:30:05.515625000,-60.0,3.0,26.0,92.99421875,1.16,0.0564450625,31.37
2021-06-21 16:30:05.523437500,-60.0,3.0,26.0,92.993828125,-0.2350000000000001,0.05648509375,31.37
2021-06-21 16:30:05.531250000,-60.0,3.0,26.0,92.9934375,-1.63,0.056525124999999996,31.37
2021-06-21 16:30:05.539062500,-60.0,2.75,26.0,92.993046875,-3.635,0.05656515625,31.37
2021-06-21 16:30:05.546875000,-60.0,2.5,26.0,92.99265625,-5.64,0.0566051875,31.37
2021-06-21 16:30:05.554687500,-60.0,2.25,26.0,92.992265625,-8.47,0.05664521875,31.37
2021-06-21 16:30:05.562500000,-60.0,2.0,26.0,92.991875,-11.3,0.05668525,31.37
2021-06-21 16:30:05.570312500,-60.0,2.25,26.0,92.991484375,-15.030000000000001,0.05672528125,31.37
2021-06-21 16:30:05.578125000,-60.0,2.5,26.0,92.99109375,-18.76,0.0567653125,31.37
2021-06-21 16:30:05.585937500,-60.0,2.75,26.0,92.990703125,-23.215000000000003,0.05680534375,31.37
2021-06-21 16:30:05.593750000,-60.0,3.0,26.0,92.9903125,-27.67,0.056845375000000004,31.37
2021-06-21 16:30:05.601562500,-60.0,3.0,26.0,92.989921875,-32.305,0.05688540625,31.37
2021-06-21 16:30:05.609375000,-60.0,3.0,26.0,92.98953125,-36.94,0.0569254375,31.37
2021-06-21 16:30:05.617187500,-60.0,3.0,26.0,92.989140625,-40.89,0.05696546875,31.37
2021-06-21 16:30:05.625000000,-60.0,3.0,26.0,92.98875,-44.84,0.0570055,31.37
2021-06-21 16:30:05.632812500,-60.0,3.0,26.0,92.988359375,-47.095,0.05704553125,31.37
2021-06-21 16:30:05.640625000,-60.0,3.0,26.0,92.98796875,-49.35,0.0570855625,31.37
2021-06-21 16:30:05.648437500,-60.0,3.0,26.0,92.987578125,-49.04,0.05712559375,31.37
2021-06-21 16:30:05.656250000,-60.0,3.0,26.0,92.9871875,-48.73,0.057165625,31.37
2021-06-21 16:30:05.664062500,-60.0,3.0,26.0,92.986796875,-45.385,0.05720565625,31.37
2021-06-21 16:30:05.671875000,-60.0,3.0,26.0,92.98640625,-42.04,0.0572456875,31.37
2021-06-21 16:30:05.679687500,-60.0,3.0,26.0,92.986015625,-35.785,0.05728571875,31.37
2021-06-21 16:30:05.687500000,-60.0,3.0,26.0,92.985625,-29.53,0.05732575,31.37
2021-06-21 16:30:05.695312500,-60.0,3.0,26.0,92.985234375,-21.060000000000002,0.057365781250000004,31.37
2021-06-21 16:30:05.703125000,-60.0,3.0,26.0,92.98484375,-12.59,0.0574058125,31.37
2021-06-21 16:30:05.710937500,-60.0,3.0,26.0,92.984453125,-2.9849999999999994,0.05744584375,31.37
2021-06-21 16:30:05.718750000,-60.0,3.0,26.0,92.9840625,6.62,0.057485875000000006,31.37
2021-06-21 16:30:05.726562500,-60.0,3.0,26.0,92.983671875,16.22,0.05752590625,31.37
2021-06-21 16:30:05.734375000,-60.0,3.0,26.0,92.98328125,25.82,0.057565937500000004,31.37
2021-06-21 16:30:05.742187500,-60.0,3.0,26.0,92.982890625,34.480000000000004,0.05760596875,31.37
2021-06-21 16:30:05.750000000,-60.0,3.0,26.0,92.9825,43.14,0.057646,31.37
2021-06-21 16:30:05.757812500,-60.0,3.0,26.0,92.982109375,50.3,0.05760596875,31.37
2021-06-21 16:30:05.765625000,-60.0,3.0,26.0,92.98171875,57.46,0.057565937500000004,31.37
2021-06-21 16:30:05.773437500,-60.0,3.0,26.0,92.981328125,62.93000000000001,0.05752590625,31.37
2021-06-21 16:30:05.781250000,-60.0,3.0,26.0,92.9809375,68.4,0.057485875000000006,31.37
2021-06-21 16:30:05.789062500,-60.0,3.0,26.0,92.980546875,72.22,0.05744584375,31.37
2021-06-21 16:30:05.796875000,-60.0,3.0,26.0,92.98015625,76.04,0.0574058125,31.37
2021-06-21 16:30:05.804687500,-60.0,3.0,26.0,92.979765625,78.36000000000001,0.057365781250000004,31.37
2021-06-21 16:30:05.812500000,-60.0,3.0,26.0,92.979375,80.68,0.05732575,31.37
2021-06-21 16:30:05.820312500,-60.0,3.0,26.0,92.978984375,81.64,0.05728571875,31.37
2021-06-21 16:30:05.828125000,-60.0,3.0,26.0,92.97859375,82.6,0.0572456875,31.37
2021-06-21 16:30:05.835937500,-60.0,3.0,26.0,92.978203125,82.335,0.05720565625,31.37
2021-06-21 16:30:05.843750000,-60.0,3.0,26.0,92.9778125,82.07,0.057165625,31.37
2021-06-21 16:30:05.851562500,-59.75,3.0,26.0,92.977421875,80.75999999999999,0.05712559375,31.37
2021-06-21 16:30:05.859375000,-59.5,3.0,26.0,92.97703125,79.45,0.0570855625,31.37
2021-06-21 16:30:05.867187500,-59.25,3.0,26.0,92.976640625,77.38,0.05704553125,31.37
2021-06-21 16:30:05.875000000,-59.0,3.0,26.0,92.97625,75.31,0.0570055,31.37
2021-06-21 16:30:05.882812500,-59.25,3.0,26.0,92.975859375,72.88,0.05696546875,31.37
2021-06-21 16:30:05.890625000,-59.5,3.0,26.0,92.97546875,70.45,0.0569254375,31.37
2021-06-21 16:30:05.898437500,-59.75,3.0,26.0,92.975078125,68.095,0.05688540625,31.37
2021-06-21 16:30:05.906250000,-60.0,3.0,26.0,92.9746875,65.74,0.056845375000000004,31.37
2021-06-21 16:30:05.914062500,-60.0,3.0,26.0,92.974296875,63.83,0.05680534375,31.37
2021-06-21 16:30:05.921875000,-60.0,3.0,26.0,92.97390625,61.92,0.0567653125,31.37
2021-06-21 16:30:05.929687500,-60.0,3.0,26.0,92.973515625,60.665,0.05672528125,31.37
2021-06-21 16:30:05.937500000,-60.0,3.0,26.0,92.973125,59.41,0.05668525,31.37
2021-06-21 16:30:05.945312500,-59.75,3.0,26.0,92.972734375,58.849999999999994,0.05664521875,31.37
2021-06-21 16:30:05.953125000,-59.5,3.0,26.0,92.97234375,58.29,0.0566051875,31.37
2021-06-21 16:30:05.960937500,-59.25,3.0,26.0,92.971953125,58.3,0.05656515625,31.37
2021-06-21 16:30:05.968750000,-59.0,3.0,26.0,92.9715625,58.31,0.056525124999999996,31.37
2021-06-21 16:30:05.976562500,-59.25,3.0,26.0,92.971171875,58.68,0.05648509375,31.37
2021-06-21 16:30:05.984375000,-59.5,3.0,26.0,92.97078125,59.05,0.0564450625,31.37
2021-06-21 16:30:05.992187500,-59.75,3.0,26.0,92.970390625,59.545,0.05640503125,31.37
2021-06-21 16:30:06.000000000,-60.0,3.0,26.0,92.97,60.04,0.056365,31.37
2021-06-21 16:30:06.007812500,-60.0,3.0,26.0,92.96968749999999,60.415,0.0564450625,31.370625
2021-06-21 16:30:06.015625000,-60.0,3.0,26.0,92.969375,60.79,0.056525124999999996,31.37125
2021-06-21 16:30:06.023437500,-60.0,3.0,26.0,92.96906249999999,60.845,0.0566051875,31.371875
2021-06-21 16:30:06.031250000,-60.0,3.0,26.0,92.96875,60.9,0.05668525,31.372500000000002
2021-06-21 16:30:06.039062500,-59.75,3.0,26.0,92.9684375,60.480000000000004,0.0567653125,31.373125
2021-06-21 16:30:06.046875000,-59.5,3.0,26.0,92.968125,60.06,0.056845375,31.37375
2021-06-21 16:30:06.054687500,-59.25,3.0,26.0,92.9678125,59.08,0.0569254375,31.374375
2021-06-21 16:30:06.062500000,-59.0,3.0,26.0,92.9675,58.1,0.0570055,31.375
2021-06-21 16:30:06.070312500,-59.25,3.0,26.0,92.9671875,56.565,0.0570855625,31.375625
2021-06-21 16:30:06.078125000,-59.5,3.0,26.0,92.966875,55.03,0.057165625,31.376250000000002
2021-06-21 16:30:06.085937500,-59.75,3.0,26.0,92.9665625,53.03,0.057245687499999996,31.376875000000002
2021-06-21 16:30:06.093750000,-60.0,3.0,26.0,92.96625,51.03,0.05732575,31.3775
2021-06-21 16:30:06.101562500,-60.0,3.0,26.0,92.9659375,48.69,0.0574058125,31.378125
2021-06-21 16:30:06.109375000,-60.0,3.0,26.0,92.965625,46.35,0.057485875,31.37875
2021-06-21 16:30:06.117187500,-60.0,3.0,26.0,92.9653125,43.81,0.0575659375,31.379375
2021-06-21 16:30:06.125000000,-60.0,3.0,26.0,92.965,41.27,0.057646,31.380000000000003
2021-06-21 16:30:06.132812500,-60.0,3.0,26.0,92.9646875,38.655,0.0577260625,31.380625000000002
2021-06-21 16:30:06.140625000,-60.0,3.0,26.0,92.964375,36.04,0.057806125,31.38125
2021-06-21 16:30:06.148437500,-60.0,3.0,26.0,92.9640625,33.37,0.0578861875,31.381875
2021-06-21 16:30:06.156250000,-60.0,3.0,26.0,92.96375,30.7,0.05796625,31.3825
2021-06-21 16:30:06.164062500,-60.0,2.75,26.0,92.9634375,27.93,0.0580463125,31.383125
2021-06-21 16:30:06.171875000,-60.0,2.5,26.0,92.963125,25.16,0.058126375,31.38375
2021-06-21 16:30:06.179687500,-60.0,2.25,26.0,92.9628125,22.119999999999997,0.0582064375,31.384375000000002
2021-06-21 16:30:06.187500000,-60.0,2.0,26.0,92.9625,19.08,0.0582865,31.385
2021-06-21 16:30:06.195312500,-60.0,2.25,26.0,92.9621875,15.544999999999998,0.0583665625,31.385625
2021-06-21 16:30:06.203125000,-60.0,2.5,26.0,92.961875,12.01,0.058446625,31.38625
2021-06-21 16:30:06.210937500,-60.0,2.75,26.0,92.9615625,7.81,0.0585266875,31.386875
2021-06-21 16:30:06.218750000,-60.0,3.0,26.0,92.96125,3.61,0.05860675,31.3875
2021-06-21 16:30:06.226562500,-59.75,3.0,26.0,92.9609375,-1.2500000000000004,0.0586868125,31.388125000000002
2021-06-21 16:30:06.234375000,-59.5,3.0,26.0,92.96062500000001,-6.11,0.058766875,31.38875
2021-06-21 16:30:06.242187500,-59.25,3.0,26.0,92.9603125,-11.245000000000001,0.0588469375,31.389375
2021-06-21 16:30:06.250000000,-59.0,3.0,26.0,92.96000000000001,-16.38,0.058927,31.39
2021-06-21 16:30:06.257812500,-59.25,3.0,26.0,92.9596875,-21.015,0.0588469375,31.39
2021-06-21 16:30:06.265625000,-59.5,3.0,26.0,92.959375,-25.65,0.058766875,31.39
2021-06-21 16:30:06.273437500,-59.75,3.0,26.0,92.9590625,-28.715,0.0586868125,31.39
2021-06-21 16:30:06.281250000,-60.0,3.0,26.0,92.95875,-31.78,0.05860675,31.39
2021-06-21 16:30:06.289062500,-60.0,3.0,26.0,92.9584375,-32.265,0.0585266875,31.39
2021-06-21 16:30:06.296875000,-60.0,3.0,26.0,92.958125,-32.75,0.058446625,31.39
2021-06-21 16:30:06.304687500,-60.0,3.0,26.0,92.9578125,-30.045,0.0583665625,31.39
2021-06-21 16:30:06.312500000,-60.0,3.0,26.0,92.9575,-27.34,0.0582865,31.39
2021-06-21 16:30:06.320312500,-60.0,3.0,26.0,92.9571875,-21.54,0.0582064375,31.39
2021-06-21 16:30:06.328125000,-60.0,3.0,26.0,92.956875,-15.74,0.058126375,31.39
2021-06-21 16:30:06.335937500,-60.0,3.0,26.0,92.9565625,-7.65,0.0580463125,31.39
2021-06-21 16:30:06.343750000,-60.0,3.0,26.0,92.95625,0.44,0.05796625,31.39
2021-06-21 16:30:06.351562500,-60.0,3.0,26.0,92.9559375,9.53,0.0578861875,31.39
2021-06-21 16:30:06.359375000,-60.0,3.0,26.0,92.955625,18.62,0.057806125,31.39
2021-06-21 16:30:06.367187500,-60.0,3.0,26.0,92.9553125,27.380000000000003,0.0577260625,31.39
2021-06-21 16:30:06.375000000,-60.0,3.0,26.0,92.955,36.14,0.057646,31.39
2021-06-21 16:30:06.382812500,-60.0,3.0,26.0,92.9546875,43.56,0.0575659375,31.39
2021-06-21 16:30:06.390625000,-60.0,3.0,26.0,92.954375,50.98,0.057485875,31.39
2021-06-21 16:30:06.398437500,-60.0,3.0,26.0,92.9540625,56.614999999999995,0.0574058125,31.39
2021-06-21 16:30:06.406250000,-60.0,3.0,26.0,92.95375,62.25,0.05732575,31.39
2021-06-21 16:30:06.414062500,-59.75,3.0,26.0,92.9534375,66.155,0.057245687499999996,31.39
2021-06-21 16:30:06.421875000,-59.5,3.0,26.0,92.953125,70.06,0.057165625,31.39
2021-06-21 16:30:06.429687500,-59.25,3.0,26.0,92.95281250000001,72.56,0.0570855625,31.39
2021-06-21 16:30:06.437500000,-59.0,3.0,26.0,92.9525,75.06,0.0570055,31.39
2021-06-21 16:30:06.445312500,-59.25,3.0,26.0,92.95218750000001,76.475,0.056925437499999995,31.39
2021-06-21 16:30:06.453125000,-59.5,3.0,26.0,92.951875,77.89,0.056845375,31.39
2021-06-21 16:30:06.460937500,-59.75,3.0,26.0,92.95156250000001,78.38,0.0567653125,31.39
2021-06-21 16:30:06.468750000,-60.0,3.0,26.0,92.95125,78.87,0.05668525,31.39
2021-06-21 16:30:06.476562500,-60.0,3.0,26.0,92.95093750000001,78.435,0.0566051875,31.39
2021-06-21 16:30:06.484375000,-60.0,3.0,26.0,92.950625,78.0,0.056525124999999996,31.39
2021-06-21 16:30:06.492187500,-60.0,3.0,26.0,92.95031250000001,76.595,0.0564450625,31.39
2021-06-21 16:30:06.500000000,-60.0,3.0,26.0,92.95,75.19,0.056365,31.39
2021-06-21 16:30:06.507812500,-59.75,3.0,26.0,92.9496875,72.875,0.0564450625,31.39
2021-06-21 16:30:06.515625000,-59.5,3.0,26.0,92.949375,70.56,0.056525124999999996,31.39
2021-06-21 16:30:06.523437500,-59.25,3.0,26.0,92.9490625,67.53999999999999,0.0566051875,31.39
2021-06-21 16:30:06.531250000,-59.0,3.0,26.0,92.94875,64.52,0.05668525,31.39
2021-06-21 16:30:06.539062500,-59.25,3.0,26.0,92.9484375,61.114999999999995,0.0567653125,31.39
2021-06-21 16:30:06.546875000,-59.5,3.0,26.0,92.948125,57.71,0.056845375,31.39
2021-06-21 16:30:06.554687500,-59.75,3.0,26.0,92.9478125,54.24,0.0569254375,31.39
2021-06-21 16:30:06.562500000,-60.0,3.0,26.0,92.9475,50.77,0.0570055,31.39
2021-06-21 16:30:06.570312500,-60.0,3.0,26.0,92.9471875,47.455,0.0570855625,31.39
2021-06-21 16:30:06.578125000,-60.0,3.0,26.0,92.946875,44.14,0.057165625,31.39
2021-06-21 16:30:06.585937500,-60.0,3.0,26.0,92.9465625,41.085,0.057245687499999996,31.39
2021-06-21 16:30:06.593750000,-60.0,3.0,26.0,92.94625,38.03,0.05732575,31.39
2021-06-21 16:30:06.601562500,-59.75,3.0,26.0,92.9459375,35.269999999999996,0.0574058125,31.39
2021-06-21 16:30:06.609375000,-59.5,3.0,26.0,92.945625,32.51,0.057485875,31.39
2021-06-21 16:30:06.617187500,-59.25,3.0,26.0,92.9453125,30.049999999999997,0.0575659375,31.39
2021-06-21 16:30:06.625000000,-59.0,3.0,26.0,92.94500000000001,27.59,0.057646,31.39
2021-06-21 16:30:06.632812500,-59.25,3.0,26.0,92.9446875,25.445,0.0577260625,31.39
2021-06-21 16:30:06.640625000,-59.5,3.0,26.0,92.94437500000001,23.3,0.057806125,31.39
2021-06-21 16:30:06.648437500,-59.75,3.0,26.0,92.9440625,21.48,0.0578861875,31.39
2021-06-21 16:30:06.656250000,-60.0,3.0,26.0,92.94375000000001,19.66,0.05796625,31.39
2021-06-21 16:30:06.664062500,-60.0,3.0,26.0,92.9434375,18.115000000000002,0.0580463125,31.39
2021-06-21 16:30:06.671875000,-60.0,3.0,26.0,92.94312500000001,16.57,0.058126375,31.39
2021-06-21 16:30:06.679687500,-60.0,3.0,26.0,92.9428125,15.190000000000001,0.0582064375,31.39
2021-06-21 16:30:06.687500000,-60.0,3.0,26.0,92.94250000000001,13.81,0.0582865,31.39
2021-06-21 16:30:06.695312500,-59.75,3.0,26.0,92.9421875,12.415,0.0583665625,31.39
2021-06-21 16:30:06.703125000,-59.5,3.0,26.0,92.94187500000001,11.02,0.058446625,31.39
2021-06-21 16:30:06.710937500,-59.25,3.0,26.0,92.9415625,9.469999999999999,0.0585266875,31.39
2021-06-21 16:30:06.718750000,-59.0,3.0,26.0,92.94125000000001,7.92,0.05860675,31.39
2021-06-21 16:30:06.726562500,-59.25,3.0,26.0,92.9409375,6.09,0.0586868125,31.39
2021-06-21 16:30:06.734375000,-59.5,3.0,26.0,92.94062500000001,4.26,0.058766875,31.39
2021-06-21 16:30:06.742187500,-59.75,3.0,26.0,92.9403125,2.135,0.0588469375,31.39
2021-06-21 16:30:06.750000000,-60.0,3.0,26.0,92.94,0.01,0.058927,31.39
2021-06-21 16:30:06.757812500,-60.0,3.0,26.0,92.9396875,-2.4,0.05888696875,31.39
2021-06-21 16:30:06.765625000,-60.0,3.0,26.0,92.939375,-4.81,0.0588469375,31.39
2021-06-21 16:30:06.773437500,-60.0,3.0,26.0,92.9390625,-7.465,0.05880690625,31.39
2021-06-21 16:30:06.781250000,-60.0,3.0,26.0,92.93875,-10.12,0.058766875,31.39
2021-06-21 16:30:06.789062500,-59.75,3.0,26.0,92.9384375,-12.989999999999998,0.05872684375,31.39
2021-06-21 16:30:06.796875000,-59.5,3.0,26.0,92.938125,-15.86,0.0586868125,31.39
2021-06-21 16:30:06.804687500,-59.25,3.0,26.0,92.9378125,-18.915,0.05864678125,31.39
2021-06-21 16:30:06.812500000,-59.0,3.0,26.0,92.9375,-21.97,0.05860675,31.39
2021-06-21 16:30:06.820312500,-59.25,3.0,26.0,92.93718750000001,-25.174999999999997,0.05856671875,31.39
2021-06-21 16:30:06.828125000,-59.5,3.0,26.0,92.936875,-28.38,0.0585266875,31.39
2021-06-21 16:30:06.835937500,-59.75,3.0,26.0,92.93656250000001,-31.714999999999996,0.05848665625,31.39
2021-06-21 16:30:06.843750000,-60.0,3.0,26.0,92.93625,-35.05,0.058446625,31.39
2021-06-21 16:30:06.851562500,-60.0,3.0,26.25,92.93593750000001,-38.474999999999994,0.05840659375,31.39
2021-06-21 16:30:06.859375000,-60.0,3.0,26.5,92.935625,-41.9,0.058366562500000004,31.39
2021-06-21 16:30:06.867187500,-60.0,3.0,26.75,92.93531250000001,-45.325,0.05832653125,31.39
2021-06-21 16:30:06.875000000,-60.0,3.0,27.0,92.935,-48.75,0.058286500000000005,31.39
2021-06-21 16:30:06.882812500,-60.0,3.0,26.75,92.93468750000001,-51.915,0.05824646875,31.39
2021-06-21 16:30:06.890625000,-60.0,3.0,26.5,92.934375,-55.08,0.0582064375,31.39
2021-06-21 16:30:06.898437500,-60.0,3.0,26.25,92.93406250000001,-57.56,0.058166406250000004,31.39
2021-06-21 16:30:06.906250000,-60.0,3.0,26.0,92.93375,-60.04,0.058126375,31.39
2021-06-21 16:30:06.914062500,-60.0,3.0,26.0,92.93343750000001,-61.22,0.058086343750000005,31.39
2021-06-21 16:30:06.921875000,-60.0,3.0,26.0,92.933125,-62.4,0.0580463125,31.39
2021-06-21 16:30:06.929687500,-60.0,3.0,26.0,92.93281250000001,-61.665,0.05800628125,31.39
2021-06-21 16:30:06.937500000,-60.0,3.0,26.0,92.9325,-60.93,0.057966250000000004,31.39
2021-06-21 16:30:06.945312500,-60.0,3.0,26.0,92.93218750000001,-57.879999999999995,0.05792621875,31.39
2021-06-21 16:30:06.953125000,-60.0,3.0,26.0,92.931875,-54.83,0.057886187500000005,31.39
2021-06-21 16:30:06.960937500,-60.0,3.0,26.0,92.93156250000001,-49.504999999999995,0.05784615625,31.39
2021-06-21 16:30:06.968750000,-60.0,3.0,26.0,92.93125,-44.18,0.057806125,31.39
2021-06-21 16:30:06.976562500,-60.0,3.0,26.0,92.93093750000001,-37.095,0.057766093750000004,31.39
2021-06-21 16:30:06.984375000,-60.0,3.0,26.0,92.930625,-30.01,0.0577260625,31.39
2021-06-21 16:30:06.992187500,-60.0,3.0,26.0,92.93031250000001,-22.01,0.057686031250000006,31.39
2021-06-21 16:30:07.000000000,-60.0,3.0,26.0,92.93,-14.01,0.057646,31.39
2021-06-21 16:30:07.007812500,-60.0,3.0,26.0,92.92960937500001,-6.05,0.0577260625,31.389375
2021-06-21 16:30:07.015625000,-60.0,3.0,26.0,92.92921875,1.91,0.057806125,31.38875
2021-06-21 16:30:07.023437500,-60.0,3.0,26.0,92.92882812500001,9.040000000000001,0.057886187500000005,31.388125000000002
2021-06-21 16:30:07.031250000,-60.0,3.0,26.0,92.9284375,16.17,0.057966250000000004,31.3875
2021-06-21 16:30:07.039062500,-60.0,3.0,26.0,92.928046875,22.01,0.0580463125,31.386875
2021-06-21 16:30:07.046875000,-60.0,3.0,26.0,92.92765625000001,27.85,0.058126375,31.38625
2021-06-21 16:30:07.054687500,-60.0,3.0,26.0,92.927265625,32.225,0.0582064375,31.385625
2021-06-21 16:30:07.062500000,-60.0,3.0,26.0,92.92687500000001,36.6,0.058286500000000005,31.385
2021-06-21 16:30:07.070312500,-59.75,3.0,26.0,92.926484375,39.56,0.058366562500000004,31.384375000000002
2021-06-21 16:30:07.078125000,-59.5,3.0,26.0,92.92609375,42.52,0.058446625,31.38375
2021-06-21 16:30:07.085937500,-59.25,3.0,26.0,92.92570312500001,44.185,0.0585266875,31.383125
2021-06-21 16:30:07.093750000,-59.0,3.0,26.0,92.9253125,45.85,0.05860675,31.3825
2021-06-21 16:30:07.101562500,-59.25,3.0,26.0,92.92492187500001,46.32,0.0586868125,31.381875
2021-06-21 16:30:07.109375000,-59.5,3.0,26.0,92.92453125,46.79,0.058766875,31.38125
2021-06-21 16:30:07.117187500,-59.75,3.0,26.0,92.924140625,46.155,0.0588469375,31.380625000000002
2021-06-21 16:30:07.125000000,-60.0,3.0,26.0,92.92375000000001,45.52,0.058927,31.380000000000003
2021-06-21 16:30:07.132812500,-60.0,3.0,26.0,92.923359375,43.875,0.0590070625,31.379375
2021-06-21 16:30:07.140625000,-60.0,3.0,26.0,92.92296875000001,42.23,0.059087125,31.37875
2021-06-21 16:30:07.148437500,-60.0,3.0,26.0,92.922578125,39.739999999999995,0.0591671875,31.378125
2021-06-21 16:30:07.156250000,-60.0,3.0,26.0,92.9221875,37.25,0.05924725,31.3775
2021-06-21 16:30:07.164062500,-60.0,3.0,26.0,92.921796875,34.175,0.0593273125,31.376875000000002
2021-06-21 16:30:07.171875000,-60.0,3.0,26.0,92.92140625,31.1,0.059407375,31.376250000000002
2021-06-21 16:30:07.179687500,-60.0,3.0,26.0,92.92101562500001,27.8,0.0594874375,31.375625
2021-06-21 16:30:07.187500000,-60.0,3.0,26.0,92.920625,24.5,0.059567499999999995,31.375
2021-06-21 16:30:07.195312500,-60.0,3.0,26.0,92.920234375,21.35,0.0596475625,31.374375
2021-06-21 16:30:07.203125000,-60.0,3.0,26.0,92.91984375,18.2,0.059727625,31.37375
2021-06-21 16:30:07.210937500,-60.0,3.0,26.0,92.919453125,15.53,0.0598076875,31.373125
2021-06-21 16:30:07.218750000,-60.0,3.0,26.0,92.91906250000001,12.86,0.05988775,31.372500000000002
2021-06-21 16:30:07.226562500,-60.0,3.0,26.0,92.918671875,10.85,0.059967812499999995,31.371875
2021-06-21 16:30:07.234375000,-60.0,3.0,26.0,92.91828125,8.84,0.060047875,31.37125
2021-06-21 16:30:07.242187500,-60.0,3.0,26.0,92.917890625,7.445,0.0601279375,31.370625
2021-06-21 16:30:07.250000000,-60.0,3.0,26.0,92.9175,6.05,0.060208,31.37
2021-06-21 16:30:07.257812500,-59.75,3.0,26.0,92.91710937500001,5.05,0.060087906249999996,31.37
2021-06-21 16:30:07.265625000,-59.5,3.0,26.0,92.91671875,4.05,0.059967812499999995,31.37
2021-06-21 16:30:07.273437500,-59.25,3.0,26.0,92.916328125,3.09,0.05984771875,31.37
2021-06-21 16:30:07.281250000,-59.0,3.0,26.0,92.9159375,2.13,0.059727625,31.37
2021-06-21 16:30:07.289062500,-59.25,3.0,26.0,92.915546875,0.8599999999999999,0.05960753125,31.37
2021-06-21 16:30:07.296875000,-59.5,3.0,26.0,92.91515625000001,-0.41,0.0594874375,31.37
2021-06-21 16:30:07.304687500,-59.75,3.0,26.0,92.914765625,-2.225,0.059367343749999996,31.37
2021-06-21 16:30:07.312500000,-60.0,3.0,26.0,92.914375,-4.04,0.05924725,31.37
2021-06-21 16:30:07.320312500,-60.0,3.0,26.0,92.913984375,-6.445,0.05912715625,31.37
2021-06-21 16:30:07.328125000,-60.0,3.0,26.0,92.91359375,-8.85,0.0590070625,31.37
2021-06-21 16:30:07.335937500,-60.0,3.0,26.0,92.91320312500001,-11.74,0.05888696875,31.37
2021-06-21 16:30:07.343750000,-60.0,3.0,26.0,92.9128125,-14.63,0.058766874999999996,31.37
2021-06-21 16:30:07.351562500,-60.0,3.0,26.0,92.912421875,-17.78,0.058646781249999995,31.37
2021-06-21 16:30:07.359375000,-60.0,3.0,26.0,92.91203125,-20.93,0.0585266875,31.37
2021-06-21 16:30:07.367187500,-60.0,3.0,26.0,92.911640625,-24.095,0.05840659375,31.37
2021-06-21 16:30:07.375000000,-60.0,3.0,26.0,92.91125,-27.26,0.0582865,31.37
2021-06-21 16:30:07.382812500,-60.0,3.0,26.0,92.910859375,-30.270000000000003,0.05816640625,31.37
2021-06-21 16:30:07.390625000,-60.0,3.0,26.0,92.91046875,-33.28,0.058046312499999995,31.37
2021-06-21 16:30:07.398437500,-60.0,3.0,26.0,92.910078125,-36.07,0.05792621875,31.37
2021-06-21 16:30:07.406250000,-60.0,3.0,26.0,92.9096875,-38.86,0.057806125,31.37
2021-06-21 16:30:07.414062500,-60.0,3.0,26.0,92.909296875,-41.525,0.05768603125,31.37
2021-06-21 16:30:07.421875000,-60.0,3.0,26.0,92.90890625,-44.19,0.0575659375,31.37
2021-06-21 16:30:07.429687500,-60.0,3.0,26.0,92.908515625,-46.955,0.057445843749999996,31.37
2021-06-21 16:30:07.437500000,-60.0,3.0,26.0,92.908125,-49.72,0.057325749999999995,31.37
2021-06-21 16:30:07.445312500,-60.0,3.0,26.0,92.907734375,-52.89,0.05720565625,31.37
2021-06-21 16:30:07.453125000,-60.0,3.0,26.0,92.90734375,-56.06,0.0570855625,31.37
2021-06-21 16:30:07.460937500,-60.0,3.0,26.0,92.906953125,-59.945,0.05696546875,31.37
2021-06-21 16:30:07.468750000,-60.0,3.0,26.0,92.9065625,-63.83,0.056845375,31.37
2021-06-21 16:30:07.476562500,-60.0,3.0,26.0,92.906171875,-68.57499999999999,0.056725281249999995,31.37
2021-06-21 16:30:07.484375000,-60.0,3.0,26.0,92.90578125,-73.32,0.0566051875,31.37
2021-06-21 16:30:07.492187500,-60.0,3.0,26.0,92.905390625,-78.785,0.05648509375,31.37
2021-06-21 16:30:07.500000000,-60.0,3.0,26.0,92.905,-84.25,0.056365,31.37
2021-06-21 16:30:07.507812500,-60.0,3.0,26.0,92.904609375,-89.92,0.0564450625,31.37
2021-06-21 16:30:07.515625000,-60.0,3.0,26.0,92.90421875,-95.59,0.056525124999999996,31.37
2021-06-21 16:30:07.523437500,-60.0,3.0,26.0,92.903828125,-100.6,0.0566051875,31.37
2021-06-21 16:30:07.531250000,-60.0,3.0,26.0,92.9034375,-105.61,0.05668525,31.37
2021-06-21 16:30:07.539062500,-60.0,3.0,26.0,92.903046875,-108.9,0.0567653125,31.37
2021-06-21 16:30:07.546875000,-60.0,3.0,26.0,92.90265625,-112.19,0.056845375,31.37
2021-06-21 16:30:07.554687500,-60.0,3.0,26.0,92.902265625,-112.815,0.0569254375,31.37
2021-06-21 16:30:07.562500000,-60.0,3.0,26.0,92.901875,-113.44,0.0570055,31.37
2021-06-21 16:30:07.570312500,-60.0,3.0,26.0,92.901484375,-110.86,0.0570855625,31.37
2021-06-21 16:30:07.578125000,-60.0,3.0,26.0,92.90109375,-108.28,0.057165625,31.37
2021-06-21 16:30:07.585937500,-60.0,3.0,26.0,92.900703125,-102.57,0.057245687499999996,31.37
2021-06-21 16:30:07.593750000,-60.0,3.0,26.0,92.9003125,-96.86,0.05732575,31.37
2021-06-21 16:30:07.601562500,-60.0,3.0,26.0,92.899921875,-88.725,0.0574058125,31.37
2021-06-21 16:30:07.609375000,-60.0,3.0,26.0,92.89953125,-80.59,0.057485875,31.37
2021-06-21 16:30:07.617187500,-60.0,3.0,26.0,92.899140625,-71.19,0.0575659375,31.37
2021-06-21 16:30:07.625000000,-60.0,3.0,26.0,92.89875,-61.79,0.057646,31.37
2021-06-21 16:30:07.632812500,-60.0,3.0,26.0,92.898359375,-52.4,0.0577260625,31.37
2021-06-21 16:30:07.640625000,-60.0,3.0,26.0,92.89796875,-43.01,0.057806125,31.37
2021-06-21 16:30:07.648437500,-60.0,3.0,26.0,92.897578125,-34.685,0.0578861875,31.37
2021-06-21 16:30:07.656250000,-60.0,3.0,26.0,92.8971875,-26.36,0.05796625,31.37
2021-06-21 16:30:07.664062500,-60.0,3.0,26.0,92.89679687499999,-19.72,0.0580463125,31.37
2021-06-21 16:30:07.671875000,-60.0,3.0,26.0,92.89640625,-13.08,0.058126375,31.37
2021-06-21 16:30:07.679687500,-60.0,3.0,26.0,92.896015625,-8.225,0.0582064375,31.37
2021-06-21 16:30:07.687500000,-60.0,3.0,26.0,92.895625,-3.37,0.0582865,31.37
2021-06-21 16:30:07.695312500,-60.0,3.0,26.0,92.895234375,-0.04499999999999993,0.0583665625,31.37
2021-06-21 16:30:07.703125000,-60.0,3.0,26.0,92.89484374999999,3.28,0.058446625,31.37
2021-06-21 16:30:07.710937500,-60.0,3.0,26.0,92.894453125,5.465,0.0585266875,31.37
2021-06-21 16:30:07.718750000,-60.0,3.0,26.0,92.8940625,7.65,0.05860675,31.37
2021-06-21 16:30:07.726562500,-60.0,3.0,26.0,92.893671875,9.02,0.0586868125,31.37
2021-06-21 16:30:07.734375000,-60.0,3.0,26.0,92.89328125,10.39,0.058766875,31.37
2021-06-21 16:30:07.742187500,-60.0,3.0,26.0,92.89289062499999,11.09,0.0588469375,31.37
2021-06-21 16:30:07.750000000,-60.0,3.0,26.0,92.8925,11.79,0.058927,31.37
2021-06-21 16:30:07.757812500,-60.0,3.0,26.0,92.892109375,11.825,0.0588469375,31.37
2021-06-21 16:30:07.765625000,-60.0,3.0,26.0,92.89171875,11.86,0.058766875,31.37
2021-06-21 16:30:07.773437500,-60.0,3.0,26.0,92.891328125,11.245000000000001,0.0586868125,31.37
2021-06-21 16:30:07.781250000,-60.0,3.0,26.0,92.89093749999999,10.63,0.05860675,31.37
2021-06-21 16:30:07.789062500,-60.0,3.0,26.0,92.890546875,9.5,0.0585266875,31.37
2021-06-21 16:30:07.796875000,-60.0,3.0,26.0,92.89015625,8.37,0.058446625,31.37
2021-06-21 16:30:07.804687500,-60.0,3.0,26.0,92.889765625,7.02,0.0583665625,31.37
2021-06-21 16:30:07.812500000,-60.0,3.0,26.0,92.889375,5.67,0.0582865,31.37
2021-06-21 16:30:07.820312500,-60.0,3.0,26.0,92.88898437499999,4.46,0.0582064375,31.37
2021-06-21 16:30:07.828125000,-60.0,3.0,26.0,92.88859375,3.25,0.058126375,31.37
2021-06-21 16:30:07.835937500,-60.0,3.0,26.0,92.888203125,2.49,0.0580463125,31.37
2021-06-21 16:30:07.843750000,-60.0,3.0,26.0,92.8878125,1.73,0.05796625,31.37
2021-06-21 16:30:07.851562500,-60.0,3.0,26.0,92.887421875,1.55,0.0578861875,31.37
2021-06-21 16:30:07.859375000,-60.0,3.0,26.0,92.88703124999999,1.37,0.057806125,31.37
2021-06-21 16:30:07.867187500,-60.0,3.0,26.0,92.886640625,1.685,0.0577260625,31.37
2021-06-21 16:30:07.875000000,-60.0,3.0,26.0,92.88624999999999,2.0,0.057646,31.37
2021-06-21 16:30:07.882812500,-59.75,3.0,26.0,92.885859375,2.5700000000000003,0.0575659375,31.37
2021-06-21 16:30:07.890625000,-59.5,3.0,26.0,92.88546875,3.14,0.057485875,31.37
2021-06-21 16:30:07.898437500,-59.25,3.0,26.0,92.88507812499999,3.6950000000000003,0.0574058125,31.37
2021-06-21 16:30:07.906250000,-59.0,3.0,26.0,92.8846875,4.25,0.05732575,31.37
2021-06-21 16:30:07.914062500,-59.0,3.0,26.0,92.88429687499999,4.615,0.057245687499999996,31.37
2021-06-21 16:30:07.921875000,-59.0,3.0,26.0,92.88390625,4.98,0.057165625,31.37
2021-06-21 16:30:07.929687500,-59.0,3.0,26.0,92.883515625,5.0600000000000005,0.0570855625,31.37
2021-06-21 16:30:07.937500000,-59.0,3.0,26.0,92.88312499999999,5.14,0.0570055,31.37
2021-06-21 16:30:07.945312500,-59.25,3.0,26.0,92.882734375,4.97,0.056925437499999995,31.37
2021-06-21 16:30:07.953125000,-59.5,3.0,26.0,92.88234374999999,4.8,0.056845375,31.37
2021-06-21 16:30:07.960937500,-59.75,3.0,26.0,92.881953125,4.42,0.0567653125,31.37
2021-06-21 16:30:07.968750000,-60.0,3.0,26.0,92.8815625,4.04,0.05668525,31.37
2021-06-21 16:30:07.976562500,-60.0,3.0,26.0,92.88117187499999,3.48,0.0566051875,31.37
2021-06-21 16:30:07.984375000,-60.0,3.0,26.0,92.88078125,2.92,0.056525124999999996,31.37
2021-06-21 16:30:07.992187500,-60.0,3.0,26.0,92.88039062499999,2.14,0.0564450625,31.37
2021-06-21 16:30:08.000000000,-60.0,3.0,26.0,92.88,1.36,0.056365,31.37
2021-06-21 16:30:08.007812500,-60.0,3.0,26.0,92.87953125,0.2550000000000001,0.05648509375,31.37
2021-06-21 16:30:08.015625000,-60.0,3.0,26.0,92.87906249999999,-0.85,0.0566051875,31.37
2021-06-21 16:30:08.023437500,-60.0,3.0,26.0,92.87859375,-2.4299999999999997,0.056725281249999995,31.37
2021-06-21 16:30:08.031250000,-60.0,3.0,26.0,92.878125,-4.01,0.056845375,31.37
2021-06-21 16:30:08.039062500,-60.0,3.0,26.0,92.87765625,-6.185,0.05696546875,31.37
2021-06-21 16:30:08.046875000,-60.0,3.0,26.0,92.87718749999999,-8.36,0.0570855625,31.37
2021-06-21 16:30:08.054687500,-60.0,3.0,26.0,92.87671875,-11.21,0.05720565625,31.37
2021-06-21 16:30:08.062500000,-60.0,3.0,26.0,92.87625,-14.06,0.057325749999999995,31.37
2021-06-21 16:30:08.070312500,-60.0,3.0,26.0,92.87578124999999,-17.585,0.057445843749999996,31.37
2021-06-21 16:30:08.078125000,-60.0,3.0,26.0,92.87531249999999,-21.11,0.0575659375,31.37
2021-06-21 16:30:08.085937500,-60.0,3.0,26.0,92.87484375,-25.305,0.05768603125,31.37
2021-06-21 16:30:08.093750000,-60.0,3.0,26.0,92.874375,-29.5,0.057806125,31.37
2021-06-21 16:30:08.101562500,-60.0,3.0,26.0,92.87390624999999,-34.35,0.05792621875,31.37
2021-06-21 16:30:08.109375000,-60.0,3.0,26.0,92.8734375,-39.2,0.058046312499999995,31.37
2021-06-21 16:30:08.117187500,-60.0,3.0,26.0,92.87296875,-44.595,0.05816640625,31.37
2021-06-21 16:30:08.125000000,-60.0,3.0,26.0,92.8725,-49.99,0.0582865,31.37
2021-06-21 16:30:08.132812500,-60.0,3.0,26.0,92.87203124999999,-55.63,0.05840659375,31.37
2021-06-21 16:30:08.140625000,-60.0,3.0,26.0,92.8715625,-61.27,0.0585266875,31.37
2021-06-21 16:30:08.148437500,-60.0,3.0,26.0,92.87109375,-66.52,0.058646781249999995,31.37
2021-06-21 16:30:08.156250000,-60.0,3.0,26.0,92.87062499999999,-71.77,0.058766874999999996,31.37
2021-06-21 16:30:08.164062500,-60.0,3.0,26.0,92.87015625,-75.675,0.05888696875,31.37
2021-06-21 16:30:08.171875000,-60.0,3.0,26.0,92.8696875,-79.58,0.0590070625,31.37
2021-06-21 16:30:08.179687500,-60.0,3.0,26.0,92.86921875,-81.08,0.05912715625,31.37
2021-06-21 16:30:08.187500000,-60.0,3.0,26.0,92.86874999999999,-82.58,0.05924725,31.37
2021-06-21 16:30:08.195312500,-60.0,3.0,26.0,92.86828125,-80.89,0.059367343749999996,31.37
2021-06-21 16:30:08.203125000,-60.0,3.0,26.0,92.8678125,-79.2,0.0594874375,31.37
2021-06-21 16:30:08.210937500,-60.0,3.0,26.0,92.86734374999999,-74.12,0.05960753125,31.37
2021-06-21 16:30:08.218750000,-60.0,3.0,26.0,92.866875,-69.04,0.059727625,31.37
2021-06-21 16:30:08.226562500,-60.0,3.0,26.0,92.86640625,-61.120000000000005,0.05984771875,31.37
2021-06-21 16:30:08.234375000,-60.0,3.0,26.0,92.8659375,-53.2,0.059967812499999995,31.37
2021-06-21 16:30:08.242187500,-60.0,3.0,26.0,92.86546874999999,-43.535,0.060087906249999996,31.37
2021-06-21 16:30:08.250000000,-60.0,3.0,26.0,92.865,-33.87,0.060208,31.37
2021-06-21 16:30:08.257812500,-60.0,3.0,26.0,92.86453125,-23.77,0.060087906249999996,31.37
2021-06-21 16:30:08.265625000,-60.0,3.0,26.0,92.86406249999999,-13.67,0.059967812499999995,31.37
2021-06-21 16:30:08.273437500,-60.0,3.0,26.0,92.86359374999999,-4.23,0.05984771875,31.37
2021-06-21 16:30:08.281250000,-60.0,3.0,26.0,92.863125,5.21,0.059727625,31.37
2021-06-21 16:30:08.289062500,-60.0,3.0,26.0,92.86265625,13.32,0.05960753125,31.37
2021-06-21 16:30:08.296875000,-60.0,3.0,26.0,92.86218749999999,21.43,0.0594874375,31.37
2021-06-21 16:30:08.304687500,-60.0,3.0,26.0,92.86171875,27.985,0.059367343749999996,31.37
2021-06-21 16:30:08.312500000,-60.0,3.0,26.0,92.86125,34.54,0.05924725,31.37
2021-06-21 16:30:08.320312500,-60.0,3.0,26.0,92.86078124999999,39.585,0.05912715625,31.37
2021-06-21 16:30:08.328125000,-60.0,3.0,26.0,92.86031249999999,44.63,0.0590070625,31.37
2021-06-21 16:30:08.335937500,-60.0,3.0,26.0,92.85984375,48.295,0.05888696875,31.37
2021-06-21 16:30:08.343750000,-60.0,3.0,26.0,92.859375,51.96,0.058766874999999996,31.37
2021-06-21 16:30:08.351562500,-60.0,3.0,26.0,92.85890624999999,54.355000000000004,0.058646781249999995,31.37
2021-06-21 16:30:08.359375000,-60.0,3.0,26.0,92.8584375,56.75,0.0585266875,31.37
2021-06-21 16:30:08.367187500,-60.0,3.0,26.0,92.85796875,57.965,0.05840659375,31.37
2021-06-21 16:30:08.375000000,-60.0,3.0,26.0,92.85749999999999,59.18,0.0582865,31.37
2021-06-21 16:30:08.382812500,-60.0,3.0,26.0,92.85703124999999,59.355000000000004,0.05816640625,31.37
2021-06-21 16:30:08.390625000,-60.0,3.0,26.0,92.8565625,59.53,0.058046312499999995,31.37
2021-06-21 16:30:08.398437500,-60.0,3.0,26.0,92.85609375,58.879999999999995,0.05792621875,31.37
2021-06-21 16:30:08.406250000,-60.0,3.0,26.0,92.85562499999999,58.23,0.057806125,31.37
2021-06-21 16:30:08.414062500,-60.0,3.0,26.0,92.85515625,57.019999999999996,0.05768603125,31.37
2021-06-21 16:30:08.421875000,-60.0,3.0,26.0,92.8546875,55.81,0.0575659375,31.37
2021-06-21 16:30:08.429687500,-60.0,3.0,26.0,92.85421875,54.315,0.057445843749999996,31.37
2021-06-21 16:30:08.437500000,-60.0,3.0,26.0,92.85374999999999,52.82,0.057325749999999995,31.37
2021-06-21 16:30:08.445312500,-60.0,3.0,26.0,92.85328125,51.265,0.05720565625,31.37
2021-06-21 16:30:08.453125000,-60.0,3.0,26.0,92.8528125,49.71,0.0570855625,31.37
2021-06-21 16:30:08.460937500,-60.0,3.0,26.0,92.85234374999999,48.265,0.05696546875,31.37
2021-06-21 16:30:08.468750000,-60.0,3.0,26.0,92.85187499999999,46.82,0.056845375,31.37
2021-06-21 16:30:08.476562500,-59.75,3.0,26.0,92.85140625,45.61,0.056725281249999995,31.37
2021-06-21 16:30:08.484375000,-59.5,3.0,26.0,92.8509375,44.4,0.0566051875,31.37
2021-06-21 16:30:08.492187500,-59.25,3.0,26.0,92.85046874999999,43.5,0.05648509375,31.37
2021-06-21 16:30:08.500000000,-59.0,3.0,26.0,92.85,42.6,0.056365,31.37
2021-06-21 16:30:08.507812500,-59.25,2.75,26.0,92.84953125,42.04,0.0564450625,31.37
2021-06-21 16:30:08.515625000,-59.5,2.5,26.0,92.84906249999999,41.48,0.056525124999999996,31.37
2021-06-21 16:30:08.523437500,-59.75,2.25,26.0,92.84859374999999,41.19499999999999,0.0566051875,31.37
2021-06-21 16:30:08.531250000,-60.0,2.0,26.0,92.848125,40.91,0.05668525,31.37
2021-06-21 16:30:08.539062500,-60.0,2.25,26.0,92.84765625,40.765,0.0567653125,31.37
2021-06-21 16:30:08.546875000,-60.0,2.5,26.0,92.84718749999999,40.62,0.056845375,31.37
2021-06-21 16:30:08.554687500,-60.0,2.75,26.0,92.84671875,40.385,0.0569254375,31.37
2021-06-21 16:30:08.562500000,-60.0,3.0,26.0,92.84625,40.15,0.0570055,31.37
2021-06-21 16:30:08.570312500,-59.75,3.0,26.0,92.84578124999999,39.565,0.0570855625,31.37
2021-06-21 16:30:08.578125000,-59.5,3.0,26.0,92.84531249999999,38.98,0.057165625,31.37
2021-06-21 16:30:08.585937500,-59.25,3.0,26.0,92.84484375,37.81999999999999,0.057245687499999996,31.37
2021-06-21 16:30:08.593750000,-59.0,3.0,26.0,92.844375,36.66,0.05732575,31.37
2021-06-21 16:30:08.601562500,-59.25,3.0,26.0,92.84390624999999,34.78,0.0574058125,31.37
2021-06-21 16:30:08.609375000,-59.5,3.0,26.0,92.8434375,32.9,0.057485875,31.37
2021-06-21 16:30:08.617187500,-59.75,3.0,26.0,92.84296875,30.295,0.0575659375,31.37
2021-06-21 16:30:08.625000000,-60.0,3.0,26.0,92.8425,27.69,0.057646,31.37
2021-06-21 16:30:08.632812500,-60.0,3.0,26.0,92.84203124999999,24.490000000000002,0.0577260625,31.37
2021-06-21 16:30:08.640625000,-60.0,3.0,26.0,92.8415625,21.29,0.057806125,31.37
2021-06-21 16:30:08.648437500,-60.0,3.0,26.0,92.84109375,17.73,0.0578861875,31.37
2021-06-21 16:30:08.656250000,-60.0,3.0,26.0,92.84062499999999,14.17,0.05796625,31.37
2021-06-21 16:30:08.664062500,-60.0,3.0,26.0,92.84015624999999,10.515,0.0580463125,31.37
2021-06-21 16:30:08.671875000,-60.0,3.0,26.0,92.8396875,6.86,0.058126375,31.37
2021-06-21 16:30:08.679687500,-60.0,3.0,26.0,92.83921875,3.335,0.0582064375,31.37
2021-06-21 16:30:08.687500000,-60.0,3.0,26.0,92.83874999999999,-0.19,0.0582865,31.37
2021-06-21 16:30:08.695312500,-60.0,3.0,26.0,92.83828125,-3.5199999999999996,0.0583665625,31.37
2021-06-21 16:30:08.703125000,-60.0,3.0,26.0,92.8378125,-6.85,0.058446625,31.37
2021-06-21 16:30:08.710937500,-60.0,3.0,26.0,92.83734374999999,-10.07,0.0585266875,31.37
2021-06-21 16:30:08.718750000,-60.0,3.0,26.0,92.83687499999999,-13.29,0.05860675,31.37
2021-06-21 16:30:08.726562500,-60.0,3.0,26.0,92.83640625,-16.685,0.0586868125,31.37
2021-06-21 16:30:08.734375000,-60.0,3.0,26.0,92.8359375,-20.08,0.058766875,31.37
2021-06-21 16:30:08.742187500,-60.0,3.0,26.0,92.83546874999999,-23.994999999999997,0.0588469375,31.37
2021-06-21 16:30:08.750000000,-60.0,3.0,26.0,92.835,-27.91,0.058927,31.37
2021-06-21 16:30:08.757812500,-60.0,3.0,26.0,92.83453125,-32.65,0.0588469375,31.37
2021-06-21 16:30:08.765625000,-60.0,3.0,26.0,92.83406249999999,-37.39,0.058766875,31.37
2021-06-21 16:30:08.773437500,-60.0,3.0,26.0,92.83359374999999,-42.965,0.0586868125,31.37
2021-06-21 16:30:08.781250000,-60.0,3.0,26.0,92.833125,-48.54,0.05860675,31.37
2021-06-21 16:30:08.789062500,-60.0,3.0,26.0,92.83265625,-54.555,0.0585266875,31.37
2021-06-21 16:30:08.796875000,-60.0,3.0,26.0,92.83218749999999,-60.57,0.058446625,31.37
2021-06-21 16:30:08.804687500,-60.0,3.0,26.0,92.83171875,-66.165,0.0583665625,31.37
2021-06-21 16:30:08.812500000,-60.0,3.0,26.0,92.83125,-71.76,0.0582865,31.37
2021-06-21 16:30:08.820312500,-60.0,3.0,26.0,92.83078124999999,-75.795,0.0582064375,31.37
2021-06-21 16:30:08.828125000,-60.0,3.0,26.0,92.83031249999999,-79.83,0.058126375,31.37
2021-06-21 16:30:08.835937500,-60.0,3.0,26.0,92.82984375,-81.215,0.0580463125,31.37
2021-06-21 16:30:08.843750000,-60.0,3.0,26.0,92.829375,-82.6,0.05796625,31.37
2021-06-21 16:30:08.851562500,-60.0,3.0,26.0,92.82890624999999,-80.62,0.0578861875,31.37
2021-06-21 16:30:08.859375000,-60.0,3.0,26.0,92.82843749999999,-78.64,0.057806125,31.37
2021-06-21 16:30:08.867187500,-60.0,3.0,26.0,92.82796875,-73.27000000000001,0.0577260625,31.37
2021-06-21 16:30:08.875000000,-60.0,3.0,26.0,92.82749999999999,-67.9,0.057646,31.37
2021-06-21 16:30:08.882812500,-60.0,3.0,26.0,92.82703124999999,-59.765,0.0575659375,31.37
2021-06-21 16:30:08.890625000,-60.0,3.0,26.0,92.8265625,-51.63,0.057485875,31.37
2021-06-21 16:30:08.898437500,-60.0,3.0,26.0,92.82609375,-41.81,0.0574058125,31.37
2021-06-21 16:30:08.906250000,-60.0,3.0,26.0,92.82562499999999,-31.99,0.05732575,31.37
