TimeStamp,empatica.acc.x,empatica.acc.y,empatica.acc.z,empatica.hr,empatica.bvp,empatica.eda,empatica.temp
2021-07-06 15:34:05.812500000,-26.0,5.0,58.0,90.753125,20.39,27.8113165,33.77
2021-07-06 15:34:05.820312500,-26.0,5.0,58.0,90.753828125,20.02,27.812437437499998,33.77
2021-07-06 15:34:05.828125000,-26.0,5.0,58.0,90.75453125,19.65,27.813558375,33.77
2021-07-06 15:34:05.835937500,-26.0,5.0,58.0,90.755234375,19.415,27.8146793125,33.77
2021-07-06 15:34:05.843750000,-26.0,5.0,58.0,90.7559375,19.18,27.81580025,33.77
2021-07-06 15:34:05.851562500,-26.0,5.0,58.0,90.756640625,19.1,27.8169211875,33.77
2021-07-06 15:34:05.859375000,-26.0,5.0,58.0,90.75734375,19.02,27.818042124999998,33.77
2021-07-06 15:34:05.867187500,-26.0,5.0,58.0,90.75804687499999,19.07,27.8191630625,33.77
2021-07-06 15:34:05.875000000,-26.0,5.0,58.0,90.75874999999999,19.12,27.820284,33.77
2021-07-06 15:34:05.882812500,-26.0,5.0,58.0,90.759453125,19.15,27.8214049375,33.77
2021-07-06 15:34:05.890625000,-26.0,5.0,58.0,90.76015625,19.18,27.822525875,33.77
2021-07-06 15:34:05.898437500,-26.0,5.0,58.0,90.760859375,19.009999999999998,27.823646812499998,33.77
2021-07-06 15:34:05.906250000,-26.0,5.0,58.0,90.7615625,18.84,27.82476775,33.77
2021-07-06 15:34:05.914062500,-26.0,5.0,58.0,90.762265625,18.259999999999998,27.825888687499997,33.77
2021-07-06 15:34:05.921875000,-26.0,5.0,58.0,90.76296875,17.68,27.827009625,33.77
2021-07-06 15:34:05.929687500,-26.0,5.0,58.0,90.763671875,16.55,27.8281305625,33.77
2021-07-06 15:34:05.937500000,-26.0,5.0,58.0,90.764375,15.42,27.829251499999998,33.77
2021-07-06 15:34:05.945312500,-26.0,5.0,58.0,90.765078125,13.715,27.8303724375,33.77
2021-07-06 15:34:05.953125000,-26.0,5.0,58.0,90.76578125,12.01,27.831493374999997,33.77
2021-07-06 15:34:05.960937500,-26.0,5.0,58.0,90.76648437499999,9.805,27.8326143125,33.77
2021-07-06 15:34:05.968750000,-26.0,5.0,58.0,90.76718749999999,7.6,27.83373525,33.77
2021-07-06 15:34:05.976562500,-26.0,5.0,58.0,90.76789062499999,5.074999999999999,27.834856187499998,33.77
2021-07-06 15:34:05.984375000,-26.0,5.0,58.0,90.76859375,2.55,27.835977125,33.77
2021-07-06 15:34:05.992187500,-26.0,5.0,58.0,90.769296875,-0.07500000000000018,27.837098062499997,33.77
2021-07-06 15:34:06.000000000,-26.0,5.0,58.0,90.77,-2.7,27.838219,33.77
2021-07-06 15:34:06.007812500,-26.0,5.0,58.0,90.770234375,-5.215,27.8392599375,33.769375000000004
2021-07-06 15:34:06.015625000,-26.0,5.0,58.0,90.77046874999999,-7.73,27.840300874999997,33.768750000000004
2021-07-06 15:34:06.023437500,-26.0,5.0,58.0,90.770703125,-10.015,27.841341812499998,33.768125000000005
2021-07-06 15:34:06.031250000,-26.0,5.0,58.0,90.7709375,-12.3,27.84238275,33.767500000000005
2021-07-06 15:34:06.039062500,-26.0,5.0,58.0,90.771171875,-14.360000000000001,27.8434236875,33.766875000000006
2021-07-06 15:34:06.046875000,-26.0,5.0,58.0,90.77140625,-16.42,27.844464625,33.76625
2021-07-06 15:34:06.054687500,-26.0,5.0,58.0,90.77164062499999,-18.445,27.845505562499998,33.765625
2021-07-06 15:34:06.062500000,-26.0,5.0,58.0,90.771875,-20.47,27.8465465,33.765
2021-07-06 15:34:06.070312500,-26.0,5.0,58.0,90.772109375,-22.77,27.8475874375,33.764375
2021-07-06 15:34:06.078125000,-26.0,5.0,58.0,90.77234374999999,-25.07,27.848628374999997,33.76375
2021-07-06 15:34:06.085937500,-26.0,5.0,58.0,90.772578125,-27.975,27.849669312499998,33.763125
2021-07-06 15:34:06.093750000,-26.0,5.0,58.0,90.7728125,-30.88,27.85071025,33.7625
2021-07-06 15:34:06.101562500,-26.0,5.0,58.0,90.77304687499999,-34.565,27.8517511875,33.761875
2021-07-06 15:34:06.109375000,-26.0,5.0,58.0,90.77328125,-38.25,27.852792125,33.761250000000004
2021-07-06 15:34:06.117187500,-26.0,5.0,58.0,90.773515625,-42.56,27.853833062499998,33.760625000000005
2021-07-06 15:34:06.125000000,-26.0,5.0,58.0,90.77374999999999,-46.87,27.854874,33.760000000000005
2021-07-06 15:34:06.132812500,-26.0,5.0,58.0,90.773984375,-51.245,27.8559149375,33.759375
2021-07-06 15:34:06.140625000,-26.0,5.0,58.0,90.77421875,-55.62,27.856955874999997,33.75875
2021-07-06 15:34:06.148437500,-26.0,5.0,58.0,90.774453125,-59.135,27.857996812499998,33.758125
2021-07-06 15:34:06.156250000,-26.0,5.0,58.0,90.7746875,-62.65,27.85903775,33.7575
2021-07-06 15:34:06.164062500,-26.0,5.0,58.0,90.77492187499999,-64.29,27.8600786875,33.756875
2021-07-06 15:34:06.171875000,-26.0,5.0,58.0,90.77515625,-65.93,27.861119625,33.75625
2021-07-06 15:34:06.179687500,-26.0,5.0,58.0,90.775390625,-64.905,27.862160562499998,33.755625
2021-07-06 15:34:06.187500000,-26.0,5.0,58.0,90.77562499999999,-63.88,27.8632015,33.755
2021-07-06 15:34:06.195312500,-26.0,5.0,58.0,90.775859375,-59.935,27.8642424375,33.754375
2021-07-06 15:34:06.203125000,-26.0,5.0,58.0,90.77609375,-55.99,27.865283374999997,33.753750000000004
2021-07-06 15:34:06.210937500,-26.0,5.0,58.0,90.77632812499999,-49.53,27.866324312499998,33.753125
2021-07-06 15:34:06.218750000,-26.0,5.0,58.0,90.7765625,-43.07,27.86736525,33.7525
2021-07-06 15:34:06.226562500,-25.75,5.0,58.0,90.776796875,-35.06,27.8684061875,33.751875
2021-07-06 15:34:06.234375000,-25.5,5.0,58.0,90.77703125,-27.05,27.869447125,33.75125
2021-07-06 15:34:06.242187500,-25.25,5.0,58.0,90.777265625,-18.72,27.870488062499998,33.750625
2021-07-06 15:34:06.250000000,-25.0,5.0,58.0,90.7775,-10.39,27.871529,33.75
2021-07-06 15:34:06.257812500,-25.25,5.0,58.0,90.777734375,-2.8550000000000004,27.8718091875,33.75
2021-07-06 15:34:06.265625000,-25.5,5.0,58.0,90.77796875,4.68,27.872089374999998,33.75
2021-07-06 15:34:06.273437500,-25.75,5.0,58.0,90.77820312499999,10.685,27.872369562499998,33.75
2021-07-06 15:34:06.281250000,-26.0,5.0,58.0,90.7784375,16.69,27.87264975,33.75
2021-07-06 15:34:06.289062500,-26.0,5.0,58.0,90.778671875,20.925,27.8729299375,33.75
2021-07-06 15:34:06.296875000,-26.0,5.0,58.0,90.77890624999999,25.16,27.873210125,33.75
2021-07-06 15:34:06.304687500,-26.0,5.0,58.0,90.779140625,27.75,27.8734903125,33.75
2021-07-06 15:34:06.312500000,-26.0,5.0,58.0,90.779375,30.34,27.8737705,33.75
2021-07-06 15:34:06.320312500,-26.0,5.0,58.0,90.77960937499999,31.625,27.8740506875,33.75
2021-07-06 15:34:06.328125000,-26.0,5.0,58.0,90.77984375,32.91,27.874330875,33.75
2021-07-06 15:34:06.335937500,-26.0,5.0,58.0,90.780078125,33.22,27.874611062499998,33.75
2021-07-06 15:34:06.343750000,-26.0,5.0,58.0,90.7803125,33.53,27.874891249999997,33.75
2021-07-06 15:34:06.351562500,-26.0,5.0,58.0,90.780546875,33.065,27.8751714375,33.75
2021-07-06 15:34:06.359375000,-26.0,5.0,58.0,90.78078124999999,32.6,27.875451625,33.75
2021-07-06 15:34:06.367187500,-26.0,5.0,58.0,90.781015625,31.495,27.8757318125,33.75
2021-07-06 15:34:06.375000000,-26.0,5.0,58.0,90.78125,30.39,27.876012,33.75
2021-07-06 15:34:06.382812500,-25.75,5.0,58.0,90.78148437499999,28.72,27.8762921875,33.75
2021-07-06 15:34:06.390625000,-25.5,5.0,58.0,90.78171875,27.05,27.876572375,33.75
2021-07-06 15:34:06.398437500,-25.25,5.0,58.0,90.781953125,24.935000000000002,27.876852562499998,33.75
2021-07-06 15:34:06.406250000,-25.0,5.0,58.0,90.78218749999999,22.82,27.87713275,33.75
2021-07-06 15:34:06.414062500,-25.25,5.0,58.0,90.782421875,20.465,27.8774129375,33.75
2021-07-06 15:34:06.421875000,-25.5,5.0,58.0,90.78265625,18.11,27.877693125,33.75
2021-07-06 15:34:06.429687500,-25.75,5.0,58.0,90.782890625,15.774999999999999,27.8779733125,33.75
2021-07-06 15:34:06.437500000,-26.0,5.0,58.0,90.783125,13.44,27.8782535,33.75
2021-07-06 15:34:06.445312500,-26.0,5.0,58.0,90.783359375,11.445,27.8785336875,33.75
2021-07-06 15:34:06.453125000,-26.0,5.0,58.0,90.78359375,9.45,27.878813875,33.75
2021-07-06 15:34:06.460937500,-26.0,5.0,58.0,90.783828125,8.024999999999999,27.8790940625,33.75
2021-07-06 15:34:06.468750000,-26.0,5.0,58.0,90.78406249999999,6.6,27.879374249999998,33.75
2021-07-06 15:34:06.476562500,-25.75,5.0,58.0,90.784296875,5.869999999999999,27.8796544375,33.75
2021-07-06 15:34:06.484375000,-25.5,5.0,58.0,90.78453125,5.14,27.879934625,33.75
2021-07-06 15:34:06.492187500,-25.25,5.0,58.0,90.78476562499999,5.035,27.8802148125,33.75
2021-07-06 15:34:06.500000000,-25.0,5.0,58.0,90.785,4.93,27.880495,33.75
2021-07-06 15:34:06.507812500,-25.25,5.0,58.0,90.785234375,5.23,27.88145584375,33.75
2021-07-06 15:34:06.515625000,-25.5,5.0,58.0,90.78546874999999,5.53,27.8824166875,33.75
2021-07-06 15:34:06.523437500,-25.75,5.0,58.0,90.785703125,5.945,27.88337753125,33.75
2021-07-06 15:34:06.531250000,-26.0,5.0,58.0,90.7859375,6.36,27.884338375,33.75
2021-07-06 15:34:06.539062500,-26.0,5.0,58.0,90.786171875,6.595000000000001,27.88529921875,33.75
2021-07-06 15:34:06.546875000,-26.0,5.0,58.0,90.78640625,6.83,27.8862600625,33.75
2021-07-06 15:34:06.554687500,-26.0,5.0,58.0,90.78664062499999,6.6899999999999995,27.88722090625,33.75
2021-07-06 15:34:06.562500000,-26.0,5.0,58.0,90.786875,6.55,27.88818175,33.75
2021-07-06 15:34:06.570312500,-26.0,5.0,58.0,90.787109375,5.949999999999999,27.88914259375,33.75
2021-07-06 15:34:06.578125000,-26.0,5.0,58.0,90.78734374999999,5.35,27.8901034375,33.75
2021-07-06 15:34:06.585937500,-26.0,5.0,58.0,90.787578125,4.3,27.89106428125,33.75
2021-07-06 15:34:06.593750000,-26.0,5.0,58.0,90.7878125,3.25,27.892025125,33.75
2021-07-06 15:34:06.601562500,-26.0,5.0,58.0,90.78804687499999,1.8,27.89298596875,33.75
2021-07-06 15:34:06.609375000,-26.0,5.0,58.0,90.78828125,0.35,27.8939468125,33.75
2021-07-06 15:34:06.617187500,-26.0,5.0,58.0,90.788515625,-1.415,27.894907656250002,33.75
2021-07-06 15:34:06.625000000,-26.0,5.0,58.0,90.78875,-3.18,27.8958685,33.75
2021-07-06 15:34:06.632812500,-26.0,5.0,58.0,90.788984375,-5.210000000000001,27.89682934375,33.75
2021-07-06 15:34:06.640625000,-26.0,5.0,58.0,90.78921875,-7.24,27.8977901875,33.75
2021-07-06 15:34:06.648437500,-26.0,5.0,58.0,90.789453125,-9.435,27.89875103125,33.75
2021-07-06 15:34:06.656250000,-26.0,5.0,58.0,90.7896875,-11.63,27.899711875,33.75
2021-07-06 15:34:06.664062500,-26.0,5.0,58.0,90.78992187499999,-13.93,27.900672718750002,33.75
2021-07-06 15:34:06.671875000,-26.0,5.0,58.0,90.79015625,-16.23,27.901633562500002,33.75
2021-07-06 15:34:06.679687500,-26.0,5.0,58.0,90.790390625,-18.57,27.90259440625,33.75
2021-07-06 15:34:06.687500000,-26.0,5.0,58.0,90.79062499999999,-20.91,27.90355525,33.75
2021-07-06 15:34:06.695312500,-26.0,5.0,58.0,90.790859375,-23.35,27.90451609375,33.75
2021-07-06 15:34:06.703125000,-26.0,5.0,58.0,90.79109375,-25.79,27.9054769375,33.75
2021-07-06 15:34:06.710937500,-26.0,5.0,58.0,90.79132812499999,-28.475,27.906437781250002,33.75
2021-07-06 15:34:06.718750000,-26.0,5.0,58.0,90.7915625,-31.16,27.907398625000003,33.75
2021-07-06 15:34:06.726562500,-25.75,5.0,58.0,90.791796875,-34.31,27.90835946875,33.75
2021-07-06 15:34:06.734375000,-25.5,5.0,58.0,90.79203125,-37.46,27.9093203125,33.75
2021-07-06 15:34:06.742187500,-25.25,5.0,58.0,90.792265625,-41.150000000000006,27.91028115625,33.75
2021-07-06 15:34:06.750000000,-25.0,5.0,58.0,90.79249999999999,-44.84,27.911242,33.75
2021-07-06 15:34:06.757812500,-25.0,5.0,58.0,90.792734375,-48.835,27.911402156250002,33.75
2021-07-06 15:34:06.765625000,-25.0,5.0,58.0,90.79296875,-52.83,27.911562312500003,33.75
2021-07-06 15:34:06.773437500,-25.0,5.0,58.0,90.79320312499999,-56.474999999999994,27.91172246875,33.75
2021-07-06 15:34:06.781250000,-25.0,5.0,58.0,90.7934375,-60.12,27.911882625,33.75
2021-07-06 15:34:06.789062500,-25.25,5.0,58.0,90.793671875,-62.45,27.91204278125,33.75
2021-07-06 15:34:06.796875000,-25.5,5.0,58.0,90.79390624999999,-64.78,27.912202937500002,33.75
2021-07-06 15:34:06.804687500,-25.75,5.0,58.0,90.794140625,-64.84,27.912363093750002,33.75
2021-07-06 15:34:06.812500000,-26.0,5.0,58.0,90.794375,-64.9,27.91252325,33.75
2021-07-06 15:34:06.820312500,-25.75,5.0,58.0,90.794609375,-62.08500000000001,27.91268340625,33.75
2021-07-06 15:34:06.828125000,-25.5,5.0,58.0,90.79484375,-59.27,27.9128435625,33.75
2021-07-06 15:34:06.835937500,-25.25,5.0,58.0,90.795078125,-53.635000000000005,27.91300371875,33.75
2021-07-06 15:34:06.843750000,-25.0,5.0,58.0,90.7953125,-48.0,27.913163875000002,33.75
2021-07-06 15:34:06.851562500,-25.0,5.0,58.0,90.795546875,-40.275,27.913324031250003,33.75
2021-07-06 15:34:06.859375000,-25.0,5.0,58.0,90.79578124999999,-32.55,27.9134841875,33.75
2021-07-06 15:34:06.867187500,-25.0,5.0,58.0,90.796015625,-23.93,27.91364434375,33.75
2021-07-06 15:34:06.875000000,-25.0,5.0,58.0,90.79625,-15.31,27.9138045,33.75
2021-07-06 15:34:06.882812500,-25.25,5.0,58.0,90.79648437499999,-7.040000000000001,27.913964656250002,33.75
2021-07-06 15:34:06.890625000,-25.5,5.0,58.0,90.79671875,1.23,27.914124812500003,33.75
2021-07-06 15:34:06.898437500,-25.75,5.0,58.0,90.796953125,8.195,27.91428496875,33.75
2021-07-06 15:34:06.906250000,-26.0,5.0,58.0,90.79718749999999,15.16,27.914445125,33.75
2021-07-06 15:34:06.914062500,-26.0,5.0,58.0,90.797421875,20.345,27.91460528125,33.75
2021-07-06 15:34:06.921875000,-26.0,5.0,58.0,90.79765625,25.53,27.9147654375,33.75
2021-07-06 15:34:06.929687500,-26.0,5.0,58.0,90.797890625,28.935000000000002,27.914925593750002,33.75
2021-07-06 15:34:06.937500000,-26.0,5.0,58.0,90.798125,32.34,27.915085750000003,33.75
2021-07-06 15:34:06.945312500,-26.0,5.0,58.0,90.798359375,34.25,27.91524590625,33.75
2021-07-06 15:34:06.953125000,-26.0,5.0,58.0,90.79859375,36.16,27.9154060625,33.75
2021-07-06 15:34:06.960937500,-26.0,5.0,58.0,90.798828125,36.95,27.91556621875,33.75
2021-07-06 15:34:06.968750000,-26.0,5.0,58.0,90.79906249999999,37.74,27.915726375000002,33.75
2021-07-06 15:34:06.976562500,-26.0,5.0,58.0,90.799296875,37.725,27.915886531250003,33.75
2021-07-06 15:34:06.984375000,-26.0,5.0,58.0,90.79953125,37.71,27.9160466875,33.75
2021-07-06 15:34:06.992187500,-26.0,5.0,58.0,90.79976562499999,37.1,27.91620684375,33.75
2021-07-06 15:34:07.000000000,-26.0,5.0,58.0,90.8,36.49,27.916367,33.75
2021-07-06 15:34:07.007812500,-25.75,5.0,58.0,90.8,35.42,27.91476559375,33.75125
2021-07-06 15:34:07.015625000,-25.5,5.0,58.0,90.8,34.35,27.9131641875,33.7525
2021-07-06 15:34:07.023437500,-25.25,5.0,58.0,90.8,32.925,27.91156278125,33.75375
2021-07-06 15:34:07.031250000,-25.0,5.0,58.0,90.8,31.5,27.909961375,33.755
2021-07-06 15:34:07.039062500,-25.25,5.0,58.25,90.8,29.825,27.908359968750002,33.75625
2021-07-06 15:34:07.046875000,-25.5,5.0,58.5,90.8,28.15,27.906758562500002,33.7575
2021-07-06 15:34:07.054687500,-25.75,5.0,58.75,90.8,26.375,27.905157156250002,33.75875
2021-07-06 15:34:07.062500000,-26.0,5.0,59.0,90.8,24.6,27.903555750000002,33.76
2021-07-06 15:34:07.070312500,-26.0,5.0,58.75,90.8,22.86,27.90195434375,33.76125
2021-07-06 15:34:07.078125000,-26.0,5.0,58.5,90.8,21.12,27.9003529375,33.7625
2021-07-06 15:34:07.085937500,-26.0,5.0,58.25,90.8,19.58,27.89875153125,33.76375
2021-07-06 15:34:07.093750000,-26.0,5.0,58.0,90.8,18.04,27.897150125,33.765
2021-07-06 15:34:07.101562500,-25.75,5.0,58.0,90.8,16.82,27.89554871875,33.76625
2021-07-06 15:34:07.109375000,-25.5,5.0,58.0,90.8,15.6,27.8939473125,33.7675
2021-07-06 15:34:07.117187500,-25.25,5.0,58.0,90.8,14.76,27.89234590625,33.76875
2021-07-06 15:34:07.125000000,-25.0,5.0,58.0,90.8,13.92,27.8907445,33.769999999999996
2021-07-06 15:34:07.132812500,-25.25,5.0,58.0,90.8,13.425,27.88914309375,33.77125
2021-07-06 15:34:07.140625000,-25.5,5.0,58.0,90.8,12.93,27.8875416875,33.7725
2021-07-06 15:34:07.148437500,-25.75,5.0,58.0,90.8,12.665,27.88594028125,33.77375
2021-07-06 15:34:07.156250000,-26.0,5.0,58.0,90.8,12.4,27.884338875,33.775
2021-07-06 15:34:07.164062500,-26.0,5.0,58.0,90.8,12.175,27.88273746875,33.77625
2021-07-06 15:34:07.171875000,-26.0,5.0,58.0,90.8,11.95,27.8811360625,33.777499999999996
2021-07-06 15:34:07.179687500,-26.0,5.0,58.0,90.8,11.565,27.87953465625,33.77875
2021-07-06 15:34:07.187500000,-26.0,5.0,58.0,90.8,11.18,27.877933249999998,33.78
2021-07-06 15:34:07.195312500,-25.75,5.0,58.0,90.8,10.485,27.87633184375,33.78125
2021-07-06 15:34:07.203125000,-25.5,5.0,58.0,90.8,9.79,27.8747304375,33.7825
2021-07-06 15:34:07.210937500,-25.25,5.0,58.0,90.8,8.719999999999999,27.87312903125,33.78375
2021-07-06 15:34:07.218750000,-25.0,5.0,58.0,90.8,7.65,27.871527625,33.785
2021-07-06 15:34:07.226562500,-25.25,5.0,58.0,90.8,6.245,27.86992621875,33.78625
2021-07-06 15:34:07.234375000,-25.5,5.0,58.0,90.8,4.84,27.8683248125,33.7875
2021-07-06 15:34:07.242187500,-25.75,5.0,58.0,90.8,3.175,27.86672340625,33.78875
2021-07-06 15:34:07.250000000,-26.0,5.0,58.0,90.8,1.51,27.865122,33.79
2021-07-06 15:34:07.257812500,-26.0,5.0,58.0,90.8,-0.3600000000000001,27.86520209375,33.79
2021-07-06 15:34:07.265625000,-26.0,5.0,58.0,90.8,-2.23,27.8652821875,33.79
2021-07-06 15:34:07.273437500,-26.0,5.0,58.0,90.8,-4.305,27.86536228125,33.79
2021-07-06 15:34:07.281250000,-26.0,5.0,58.0,90.8,-6.38,27.865442375,33.79
2021-07-06 15:34:07.289062500,-26.0,5.0,58.0,90.8,-8.695,27.86552246875,33.79
2021-07-06 15:34:07.296875000,-26.0,5.0,58.0,90.8,-11.01,27.8656025625,33.79
2021-07-06 15:34:07.304687500,-26.0,5.0,58.0,90.8,-13.59,27.86568265625,33.79
2021-07-06 15:34:07.312500000,-26.0,5.0,58.0,90.8,-16.17,27.865762750000002,33.79
2021-07-06 15:34:07.320312500,-25.75,5.0,58.0,90.8,-19.05,27.86584284375,33.79
2021-07-06 15:34:07.328125000,-25.5,5.0,58.0,90.8,-21.93,27.8659229375,33.79
2021-07-06 15:34:07.335937500,-25.25,5.0,58.0,90.8,-25.134999999999998,27.86600303125,33.79
2021-07-06 15:34:07.343750000,-25.0,5.0,58.0,90.8,-28.34,27.866083125,33.79
2021-07-06 15:34:07.351562500,-25.25,5.0,58.0,90.8,-31.915,27.86616321875,33.79
2021-07-06 15:34:07.359375000,-25.5,5.0,58.0,90.8,-35.49,27.8662433125,33.79
2021-07-06 15:34:07.367187500,-25.75,5.0,58.0,90.8,-39.405,27.86632340625,33.79
2021-07-06 15:34:07.375000000,-26.0,5.0,58.0,90.8,-43.32,27.8664035,33.79
2021-07-06 15:34:07.382812500,-26.0,5.0,58.0,90.8,-47.39,27.86648359375,33.79
2021-07-06 15:34:07.390625000,-26.0,5.0,58.0,90.8,-51.46,27.8665636875,33.79
2021-07-06 15:34:07.398437500,-26.0,5.0,58.0,90.8,-55.2,27.86664378125,33.79
2021-07-06 15:34:07.406250000,-26.0,5.0,58.0,90.8,-58.94,27.866723875,33.79
2021-07-06 15:34:07.414062500,-26.0,5.0,58.0,90.8,-61.6,27.866803968750002,33.79
2021-07-06 15:34:07.421875000,-26.0,5.0,58.0,90.8,-64.26,27.866884062500002,33.79
2021-07-06 15:34:07.429687500,-26.0,5.0,58.0,90.8,-64.945,27.866964156250003,33.79
2021-07-06 15:34:07.437500000,-26.0,5.0,58.0,90.8,-65.63,27.86704425,33.79
2021-07-06 15:34:07.445312500,-26.0,5.0,58.0,90.8,-63.655,27.86712434375,33.79
2021-07-06 15:34:07.453125000,-26.0,5.0,58.0,90.8,-61.68,27.8672044375,33.79
2021-07-06 15:34:07.460937500,-26.0,5.0,58.0,90.8,-56.855000000000004,27.86728453125,33.79
2021-07-06 15:34:07.468750000,-26.0,5.0,58.0,90.8,-52.03,27.867364625,33.79
2021-07-06 15:34:07.476562500,-26.0,5.0,58.0,90.8,-44.82,27.86744471875,33.79
2021-07-06 15:34:07.484375000,-26.0,5.0,58.0,90.8,-37.61,27.8675248125,33.79
2021-07-06 15:34:07.492187500,-26.0,5.0,58.0,90.8,-29.055,27.86760490625,33.79
2021-07-06 15:34:07.500000000,-26.0,5.0,58.0,90.8,-20.5,27.867685,33.79
2021-07-06 15:34:07.507812500,-26.0,5.0,58.0,90.8,-11.85,27.869086187500002,33.79
2021-07-06 15:34:07.515625000,-26.0,5.0,58.0,90.8,-3.2,27.870487375000003,33.79
2021-07-06 15:34:07.523437500,-26.0,5.0,58.0,90.8,4.454999999999999,27.8718885625,33.79
2021-07-06 15:34:07.531250000,-26.0,5.0,58.0,90.8,12.11,27.87328975,33.79
2021-07-06 15:34:07.539062500,-26.0,5.0,58.0,90.8,18.095,27.874690937500002,33.79
2021-07-06 15:34:07.546875000,-26.0,5.0,58.0,90.8,24.08,27.876092125,33.79
2021-07-06 15:34:07.554687500,-26.0,5.0,58.0,90.8,28.24,27.8774933125,33.79
2021-07-06 15:34:07.562500000,-26.0,5.0,58.0,90.8,32.4,27.8788945,33.79
2021-07-06 15:34:07.570312500,-26.0,5.0,58.0,90.8,34.94,27.880295687500002,33.79
2021-07-06 15:34:07.578125000,-26.0,5.0,58.0,90.8,37.48,27.881696875000003,33.79
2021-07-06 15:34:07.585937500,-26.0,5.0,58.0,90.8,38.765,27.8830980625,33.79
2021-07-06 15:34:07.593750000,-26.0,5.0,58.0,90.8,40.05,27.88449925,33.79
2021-07-06 15:34:07.601562500,-26.0,5.0,58.0,90.8,40.43,27.885900437500002,33.79
2021-07-06 15:34:07.609375000,-26.0,5.0,58.0,90.8,40.81,27.887301625,33.79
2021-07-06 15:34:07.617187500,-26.0,5.0,58.0,90.8,40.53,27.8887028125,33.79
2021-07-06 15:34:07.625000000,-26.0,5.0,58.0,90.8,40.25,27.890104,33.79
2021-07-06 15:34:07.632812500,-26.0,5.0,58.0,90.8,39.46,27.8915051875,33.79
2021-07-06 15:34:07.640625000,-26.0,5.0,58.0,90.8,38.67,27.892906375000003,33.79
2021-07-06 15:34:07.648437500,-26.0,5.0,58.0,90.8,37.46,27.8943075625,33.79
2021-07-06 15:34:07.656250000,-26.0,5.0,58.0,90.8,36.25,27.89570875,33.79
2021-07-06 15:34:07.664062500,-26.0,5.0,58.0,90.8,34.71,27.8971099375,33.79
2021-07-06 15:34:07.671875000,-26.0,5.0,58.0,90.8,33.17,27.898511125,33.79
2021-07-06 15:34:07.679687500,-26.0,5.0,58.0,90.8,31.405,27.8999123125,33.79
2021-07-06 15:34:07.687500000,-26.0,5.0,58.0,90.8,29.64,27.9013135,33.79
2021-07-06 15:34:07.695312500,-26.0,5.0,58.0,90.8,27.810000000000002,27.9027146875,33.79
2021-07-06 15:34:07.703125000,-26.0,5.0,58.0,90.8,25.98,27.904115875000002,33.79
2021-07-06 15:34:07.710937500,-26.0,5.0,58.0,90.8,24.25,27.9055170625,33.79
2021-07-06 15:34:07.718750000,-26.0,5.0,58.0,90.8,22.52,27.90691825,33.79
2021-07-06 15:34:07.726562500,-26.0,5.0,58.0,90.8,21.055,27.9083194375,33.79
2021-07-06 15:34:07.734375000,-26.0,5.0,58.0,90.8,19.59,27.909720625,33.79
2021-07-06 15:34:07.742187500,-26.0,5.0,58.0,90.8,18.494999999999997,27.9111218125,33.79
2021-07-06 15:34:07.750000000,-26.0,5.0,58.0,90.8,17.4,27.912523,33.79
2021-07-06 15:34:07.757812500,-26.0,5.0,58.0,90.8,16.689999999999998,27.9146048125,33.79
2021-07-06 15:34:07.765625000,-26.0,5.0,58.0,90.8,15.98,27.916686625,33.79
2021-07-06 15:34:07.773437500,-26.0,5.0,58.0,90.8,15.545,27.9187684375,33.79
2021-07-06 15:34:07.781250000,-26.0,5.0,58.0,90.8,15.11,27.92085025,33.79
2021-07-06 15:34:07.789062500,-26.0,5.0,58.0,90.8,14.745000000000001,27.9229320625,33.79
2021-07-06 15:34:07.796875000,-26.0,5.0,58.0,90.8,14.38,27.925013875,33.79
2021-07-06 15:34:07.804687500,-26.0,5.0,58.0,90.8,13.88,27.9270956875,33.79
2021-07-06 15:34:07.812500000,-26.0,5.0,58.0,90.8,13.38,27.9291775,33.79
2021-07-06 15:34:07.820312500,-26.0,5.0,58.0,90.8,12.58,27.9312593125,33.79
2021-07-06 15:34:07.828125000,-26.0,5.0,58.0,90.8,11.78,27.933341125,33.79
2021-07-06 15:34:07.835937500,-26.0,5.0,58.0,90.8,10.620000000000001,27.9354229375,33.79
2021-07-06 15:34:07.843750000,-26.0,5.0,58.0,90.8,9.46,27.93750475,33.79
2021-07-06 15:34:07.851562500,-26.0,5.0,58.0,90.8,7.965,27.9395865625,33.79
2021-07-06 15:34:07.859375000,-26.0,5.0,58.0,90.8,6.47,27.941668375,33.79
2021-07-06 15:34:07.867187500,-26.0,5.0,58.0,90.8,4.725,27.9437501875,33.79
2021-07-06 15:34:07.875000000,-26.0,5.0,58.0,90.8,2.98,27.945832,33.79
2021-07-06 15:34:07.882812500,-26.0,5.0,58.0,90.8,1.08,27.947913812499998,33.79
2021-07-06 15:34:07.890625000,-26.0,5.0,58.0,90.8,-0.82,27.949995625,33.79
2021-07-06 15:34:07.898437500,-26.0,5.0,58.0,90.8,-2.81,27.952077437499998,33.79
2021-07-06 15:34:07.906250000,-26.0,5.0,58.0,90.8,-4.8,27.95415925,33.79
2021-07-06 15:34:07.914062500,-26.0,5.0,58.0,90.8,-6.859999999999999,27.9562410625,33.79
2021-07-06 15:34:07.921875000,-26.0,5.0,58.0,90.8,-8.92,27.958322875,33.79
2021-07-06 15:34:07.929687500,-26.0,5.0,58.0,90.8,-11.07,27.9604046875,33.79
2021-07-06 15:34:07.937500000,-26.0,5.0,58.0,90.8,-13.22,27.962486499999997,33.79
2021-07-06 15:34:07.945312500,-26.0,5.0,58.0,90.8,-15.54,27.9645683125,33.79
2021-07-06 15:34:07.953125000,-26.0,5.0,58.0,90.8,-17.86,27.966650124999997,33.79
2021-07-06 15:34:07.960937500,-26.0,5.0,58.0,90.8,-20.485,27.9687319375,33.79
2021-07-06 15:34:07.968750000,-26.0,5.0,58.0,90.8,-23.11,27.970813749999998,33.79
2021-07-06 15:34:07.976562500,-26.0,5.0,58.0,90.8,-26.22,27.9728955625,33.79
2021-07-06 15:34:07.984375000,-26.0,5.0,58.0,90.8,-29.33,27.974977374999998,33.79
2021-07-06 15:34:07.992187500,-26.0,5.0,58.0,90.8,-33.03,27.9770591875,33.79
2021-07-06 15:34:08.000000000,-26.0,5.0,58.0,90.8,-36.73,27.979141,33.79
2021-07-06 15:34:08.007812500,-26.0,5.0,58.0,90.8,-40.93,27.981342875,33.78875
2021-07-06 15:34:08.015625000,-26.0,5.0,58.0,90.8,-45.13,27.98354475,33.7875
2021-07-06 15:34:08.023437500,-26.0,5.0,58.0,90.8,-49.400000000000006,27.985746624999997,33.78625
2021-07-06 15:34:08.031250000,-26.0,5.0,58.0,90.8,-53.67,27.987948499999998,33.785
2021-07-06 15:34:08.039062500,-26.0,5.0,58.0,90.8,-57.215,27.990150375,33.78375
2021-07-06 15:34:08.046875000,-26.0,5.0,58.0,90.8,-60.76,27.99235225,33.7825
2021-07-06 15:34:08.054687500,-26.0,5.0,58.0,90.8,-62.620000000000005,27.994554124999997,33.78125
2021-07-06 15:34:08.062500000,-26.0,5.0,58.0,90.8,-64.48,27.996755999999998,33.78
2021-07-06 15:34:08.070312500,-26.0,5.0,58.0,90.8,-63.83,27.998957875,33.77875
2021-07-06 15:34:08.078125000,-26.0,5.0,58.0,90.8,-63.18,28.00115975,33.777499999999996
2021-07-06 15:34:08.085937500,-26.0,5.0,58.0,90.8,-59.635000000000005,28.003361625,33.77625
2021-07-06 15:34:08.093750000,-26.0,5.0,58.0,90.8,-56.09,28.005563499999997,33.775
2021-07-06 15:34:08.101562500,-26.0,5.0,58.0,90.8,-49.935,28.007765374999998,33.77375
2021-07-06 15:34:08.109375000,-26.0,5.0,58.0,90.8,-43.78,28.00996725,33.7725
2021-07-06 15:34:08.117187500,-26.0,5.0,58.0,90.8,-35.86,28.012169125,33.77125
2021-07-06 15:34:08.125000000,-26.0,5.0,58.0,90.8,-27.94,28.014370999999997,33.769999999999996
2021-07-06 15:34:08.132812500,-26.0,5.0,58.0,90.8,-19.42,28.016572874999998,33.76875
2021-07-06 15:34:08.140625000,-26.0,5.0,58.0,90.8,-10.9,28.01877475,33.7675
2021-07-06 15:34:08.148437500,-26.0,5.0,58.0,90.8,-2.9050000000000002,28.020976625,33.76625
2021-07-06 15:34:08.156250000,-26.0,5.0,58.0,90.8,5.09,28.0231785,33.765
2021-07-06 15:34:08.164062500,-26.0,5.0,58.0,90.8,11.76,28.025380374999997,33.76375
2021-07-06 15:34:08.171875000,-26.0,5.0,58.0,90.8,18.43,28.02758225,33.7625
2021-07-06 15:34:08.179687500,-26.0,5.0,58.0,90.8,23.4,28.029784125,33.76125
2021-07-06 15:34:08.187500000,-26.0,5.0,58.0,90.8,28.37,28.031986,33.76
2021-07-06 15:34:08.195312500,-26.0,5.0,58.0,90.8,31.65,28.034187875,33.75875
2021-07-06 15:34:08.203125000,-26.0,5.0,58.0,90.8,34.93,28.036389749999998,33.7575
2021-07-06 15:34:08.210937500,-26.0,5.0,58.0,90.8,36.739999999999995,28.038591625,33.75625
2021-07-06 15:34:08.218750000,-26.0,5.0,58.0,90.8,38.55,28.0407935,33.755
2021-07-06 15:34:08.226562500,-26.0,5.0,58.0,90.8,39.18,28.042995375,33.75375
2021-07-06 15:34:08.234375000,-26.0,5.0,58.0,90.8,39.81,28.045197249999998,33.7525
2021-07-06 15:34:08.242187500,-26.0,5.0,58.0,90.8,39.545,28.047399125,33.75125
2021-07-06 15:34:08.250000000,-26.0,5.0,58.0,90.8,39.28,28.049601,33.75
2021-07-06 15:34:08.257812500,-26.0,5.0,58.0,90.8,38.355000000000004,28.059949843749997,33.75
2021-07-06 15:34:08.265625000,-26.0,5.0,58.0,90.8,37.43,28.0702986875,33.75
2021-07-06 15:34:08.273437500,-26.0,5.0,58.0,90.8,36.06,28.080647531249998,33.75
2021-07-06 15:34:08.281250000,-26.0,5.0,58.0,90.8,34.69,28.090996375,33.75
2021-07-06 15:34:08.289062500,-25.75,5.0,58.0,90.8,33.08,28.101345218749998,33.75
2021-07-06 15:34:08.296875000,-25.5,5.0,58.0,90.8,31.47,28.1116940625,33.75
2021-07-06 15:34:08.304687500,-25.25,5.0,58.0,90.8,29.775,28.122042906249998,33.75
2021-07-06 15:34:08.312500000,-25.0,5.0,58.0,90.8,28.08,28.13239175,33.75
2021-07-06 15:34:08.320312500,-25.25,5.0,58.0,90.8,26.455,28.14274059375,33.75
2021-07-06 15:34:08.328125000,-25.5,5.0,58.0,90.8,24.83,28.1530894375,33.75
2021-07-06 15:34:08.335937500,-25.75,5.0,58.0,90.8,23.395,28.16343828125,33.75
2021-07-06 15:34:08.343750000,-26.0,5.0,58.0,90.8,21.96,28.173787125,33.75
2021-07-06 15:34:08.351562500,-26.0,5.0,58.0,90.8,20.83,28.18413596875,33.75
2021-07-06 15:34:08.359375000,-26.0,5.0,58.0,90.8,19.7,28.1944848125,33.75
2021-07-06 15:34:08.367187500,-26.0,5.0,58.0,90.8,18.95,28.20483365625,33.75
2021-07-06 15:34:08.375000000,-26.0,5.0,58.0,90.8,18.2,28.215182499999997,33.75
2021-07-06 15:34:08.382812500,-26.0,5.0,58.0,90.8,17.84,28.22553134375,33.75
2021-07-06 15:34:08.390625000,-26.0,5.0,58.0,90.8,17.48,28.235880187499998,33.75
2021-07-06 15:34:08.398437500,-26.0,5.0,58.0,90.8,17.43,28.24622903125,33.75
2021-07-06 15:34:08.406250000,-26.0,5.0,58.0,90.8,17.38,28.256577874999998,33.75
2021-07-06 15:34:08.414062500,-26.0,5.0,58.0,90.8,17.490000000000002,28.26692671875,33.75
2021-07-06 15:34:08.421875000,-26.0,5.0,58.0,90.8,17.6,28.277275562499998,33.75
2021-07-06 15:34:08.429687500,-26.0,5.0,58.0,90.8,17.665,28.28762440625,33.75
2021-07-06 15:34:08.437500000,-26.0,5.0,58.0,90.8,17.73,28.29797325,33.75
2021-07-06 15:34:08.445312500,-26.0,5.0,58.0,90.8,17.509999999999998,28.30832209375,33.75
2021-07-06 15:34:08.453125000,-26.0,5.0,58.0,90.8,17.29,28.3186709375,33.75
2021-07-06 15:34:08.460937500,-26.0,5.0,58.0,90.8,16.615,28.32901978125,33.75
2021-07-06 15:34:08.468750000,-26.0,5.0,58.0,90.8,15.94,28.339368625,33.75
2021-07-06 15:34:08.476562500,-26.0,5.0,58.0,90.8,14.705,28.34971746875,33.75
2021-07-06 15:34:08.484375000,-26.0,5.0,58.0,90.8,13.47,28.3600663125,33.75
2021-07-06 15:34:08.492187500,-26.0,5.0,58.0,90.8,11.67,28.37041515625,33.75
2021-07-06 15:34:08.500000000,-26.0,5.0,58.0,90.8,9.87,28.380764,33.75
2021-07-06 15:34:08.507812500,-26.0,5.0,58.0,90.8,7.595,28.380764,33.75
2021-07-06 15:34:08.515625000,-26.0,5.0,58.0,90.8,5.32,28.380764,33.75
2021-07-06 15:34:08.523437500,-26.0,5.0,58.0,90.8,2.745,28.380764,33.75
2021-07-06 15:34:08.531250000,-26.0,5.0,58.0,90.8,0.17,28.380764,33.75
2021-07-06 15:34:08.539062500,-26.0,5.0,58.0,90.8,-2.5,28.380764,33.75
2021-07-06 15:34:08.546875000,-26.0,5.0,58.0,90.8,-5.17,28.380764,33.75
2021-07-06 15:34:08.554687500,-26.0,5.0,58.0,90.8,-7.75,28.380764,33.75
2021-07-06 15:34:08.562500000,-26.0,5.0,58.0,90.8,-10.33,28.380764,33.75
2021-07-06 15:34:08.570312500,-26.0,5.0,58.0,90.8,-12.68,28.380764,33.75
2021-07-06 15:34:08.578125000,-26.0,5.0,58.0,90.8,-15.03,28.380764,33.75
2021-07-06 15:34:08.585937500,-26.0,5.0,58.0,90.8,-17.12,28.380764,33.75
2021-07-06 15:34:08.593750000,-26.0,5.0,58.0,90.8,-19.21,28.380764,33.75
2021-07-06 15:34:08.601562500,-26.0,5.0,58.0,90.8,-21.175,28.380764,33.75
2021-07-06 15:34:08.609375000,-26.0,5.0,58.0,90.8,-23.14,28.380764,33.75
2021-07-06 15:34:08.617187500,-26.0,5.0,58.0,90.8,-25.225,28.380764,33.75
2021-07-06 15:34:08.625000000,-26.0,5.0,58.0,90.8,-27.31,28.380764,33.75
2021-07-06 15:34:08.632812500,-26.0,5.0,58.0,90.8,-29.835,28.380764,33.75
2021-07-06 15:34:08.640625000,-26.0,5.0,58.0,90.8,-32.36,28.380764,33.75
2021-07-06 15:34:08.648437500,-26.0,5.0,58.0,90.8,-35.495000000000005,28.380764,33.75
2021-07-06 15:34:08.656250000,-26.0,5.0,58.0,90.8,-38.63,28.380764,33.75
2021-07-06 15:34:08.664062500,-26.0,5.0,58.0,90.8,-42.260000000000005,28.380764,33.75
2021-07-06 15:34:08.671875000,-26.0,5.0,58.0,90.8,-45.89,28.380764,33.75
2021-07-06 15:34:08.679687500,-26.0,5.0,58.0,90.8,-49.495000000000005,28.380764,33.75
2021-07-06 15:34:08.687500000,-26.0,5.0,58.0,90.8,-53.1,28.380764,33.75
2021-07-06 15:34:08.695312500,-26.0,5.0,58.0,90.8,-55.81,28.380764,33.75
2021-07-06 15:34:08.703125000,-26.0,5.0,58.0,90.8,-58.52,28.380764,33.75
2021-07-06 15:34:08.710937500,-26.0,5.0,58.0,90.8,-59.385000000000005,28.380764,33.75
2021-07-06 15:34:08.718750000,-26.0,5.0,58.0,90.8,-60.25,28.380764,33.75
2021-07-06 15:34:08.726562500,-26.0,5.0,58.0,90.8,-58.555,28.380764,33.75
2021-07-06 15:34:08.734375000,-26.0,5.0,58.0,90.8,-56.86,28.380764,33.75
2021-07-06 15:34:08.742187500,-26.0,5.0,58.0,90.8,-52.44,28.380764,33.75
2021-07-06 15:34:08.750000000,-26.0,5.0,58.0,90.8,-48.02,28.380764,33.75
2021-07-06 15:34:08.757812500,-26.0,5.0,58.0,90.8,-41.365,28.37844196875,33.75
2021-07-06 15:34:08.765625000,-26.0,5.0,58.0,90.8,-34.71,28.3761199375,33.75
2021-07-06 15:34:08.773437500,-26.0,5.0,58.0,90.8,-26.84,28.37379790625,33.75
2021-07-06 15:34:08.781250000,-26.0,5.0,58.0,90.8,-18.97,28.371475874999998,33.75
2021-07-06 15:34:08.789062500,-25.75,5.0,58.0,90.8,-11.084999999999999,28.36915384375,33.75
2021-07-06 15:34:08.796875000,-25.5,5.0,58.0,90.8,-3.2,28.3668318125,33.75
2021-07-06 15:34:08.804687500,-25.25,5.0,58.0,90.8,3.6599999999999993,28.36450978125,33.75
2021-07-06 15:34:08.812500000,-25.0,5.0,58.0,90.8,10.52,28.36218775,33.75
2021-07-06 15:34:08.820312500,-25.25,5.0,58.0,90.8,15.75,28.35986571875,33.75
2021-07-06 15:34:08.828125000,-25.5,5.0,58.0,90.8,20.98,28.357543687499998,33.75
2021-07-06 15:34:08.835937500,-25.75,5.0,58.0,90.8,24.47,28.35522165625,33.75
2021-07-06 15:34:08.843750000,-26.0,5.0,58.0,90.8,27.96,28.352899625,33.75
2021-07-06 15:34:08.851562500,-26.0,5.0,58.0,90.8,29.965,28.35057759375,33.75
2021-07-06 15:34:08.859375000,-26.0,5.0,58.0,90.8,31.97,28.3482555625,33.75
2021-07-06 15:34:08.867187500,-26.0,5.0,58.0,90.8,32.925,28.34593353125,33.75
2021-07-06 15:34:08.875000000,-26.0,5.0,58.0,90.8,33.88,28.3436115,33.75
2021-07-06 15:34:08.882812500,-26.0,5.0,58.0,90.8,34.175,28.34128946875,33.75
2021-07-06 15:34:08.890625000,-26.0,5.0,58.0,90.8,34.47,28.3389674375,33.75
2021-07-06 15:34:08.898437500,-26.0,5.0,58.0,90.8,34.355000000000004,28.33664540625,33.75
2021-07-06 15:34:08.906250000,-26.0,5.0,58.0,90.8,34.24,28.334323375,33.75
2021-07-06 15:34:08.914062500,-26.0,5.0,58.0,90.8,33.769999999999996,28.33200134375,33.75
2021-07-06 15:34:08.921875000,-26.0,5.0,58.0,90.8,33.3,28.3296793125,33.75
2021-07-06 15:34:08.929687500,-26.0,5.0,58.0,90.8,32.47,28.32735728125,33.75
2021-07-06 15:34:08.937500000,-26.0,5.0,58.0,90.8,31.64,28.32503525,33.75
2021-07-06 15:34:08.945312500,-25.75,5.0,58.0,90.8,30.455,28.32271321875,33.75
2021-07-06 15:34:08.953125000,-25.5,5.0,58.0,90.8,29.27,28.3203911875,33.75
2021-07-06 15:34:08.960937500,-25.25,5.0,58.0,90.8,27.825,28.31806915625,33.75
2021-07-06 15:34:08.968750000,-25.0,5.0,58.0,90.8,26.38,28.315747125,33.75
2021-07-06 15:34:08.976562500,-25.25,5.0,58.0,90.8,24.865000000000002,28.31342509375,33.75
2021-07-06 15:34:08.984375000,-25.5,5.0,58.0,90.8,23.35,28.3111030625,33.75
2021-07-06 15:34:08.992187500,-25.75,5.0,58.0,90.8,21.995,28.30878103125,33.75
2021-07-06 15:34:09.000000000,-26.0,5.0,58.0,90.8,20.64,28.306459,33.75
2021-07-06 15:34:09.007812500,-26.0,5.0,58.0,90.79976562499999,19.595,28.3037366875,33.750625
2021-07-06 15:34:09.015625000,-26.0,5.0,58.0,90.79953125,18.55,28.301014375,33.75125
2021-07-06 15:34:09.023437500,-26.0,5.0,58.0,90.799296875,17.855,28.2982920625,33.751875
2021-07-06 15:34:09.031250000,-26.0,5.0,58.0,90.79906249999999,17.16,28.29556975,33.7525
2021-07-06 15:34:09.039062500,-25.75,5.0,58.0,90.798828125,16.7,28.2928474375,33.753125
2021-07-06 15:34:09.046875000,-25.5,5.0,58.0,90.79859375,16.24,28.290125125,33.753750000000004
2021-07-06 15:34:09.054687500,-25.25,5.0,58.0,90.798359375,15.864999999999998,28.2874028125,33.754375
2021-07-06 15:34:09.062500000,-25.0,5.0,58.0,90.798125,15.49,28.2846805,33.755
2021-07-06 15:34:09.070312500,-25.0,5.0,58.0,90.797890625,15.035,28.2819581875,33.755625
2021-07-06 15:34:09.078125000,-25.0,5.0,58.0,90.79765625,14.58,28.279235875,33.75625
2021-07-06 15:34:09.085937500,-25.0,5.0,58.0,90.797421875,13.96,28.2765135625,33.756875
2021-07-06 15:34:09.093750000,-25.0,5.0,58.0,90.79718749999999,13.34,28.273791250000002,33.7575
2021-07-06 15:34:09.101562500,-25.25,5.0,58.0,90.796953125,12.55,28.2710689375,33.758125
2021-07-06 15:34:09.109375000,-25.5,5.0,58.0,90.79671875,11.76,28.268346625,33.75875
2021-07-06 15:34:09.117187500,-25.75,5.0,58.0,90.79648437499999,10.8,28.2656243125,33.759375
2021-07-06 15:34:09.125000000,-26.0,5.0,58.0,90.79625,9.84,28.262902,33.760000000000005
2021-07-06 15:34:09.132812500,-26.0,5.0,58.0,90.796015625,8.69,28.2601796875,33.760625000000005
2021-07-06 15:34:09.140625000,-26.0,5.0,58.0,90.79578124999999,7.54,28.257457375,33.761250000000004
2021-07-06 15:34:09.148437500,-26.0,5.0,58.0,90.795546875,6.13,28.2547350625,33.761875
2021-07-06 15:34:09.156250000,-26.0,5.0,58.0,90.7953125,4.72,28.25201275,33.7625
2021-07-06 15:34:09.164062500,-26.0,5.0,58.0,90.795078125,2.965,28.2492904375,33.763125
2021-07-06 15:34:09.171875000,-26.0,5.0,58.0,90.79484375,1.21,28.246568125,33.76375
2021-07-06 15:34:09.179687500,-26.0,5.0,58.0,90.794609375,-0.9299999999999997,28.243845812500002,33.764375
2021-07-06 15:34:09.187500000,-26.0,5.0,58.0,90.794375,-3.07,28.2411235,33.765
2021-07-06 15:34:09.195312500,-26.0,5.0,58.0,90.794140625,-5.57,28.2384011875,33.765625
2021-07-06 15:34:09.203125000,-26.0,5.0,58.0,90.79390624999999,-8.07,28.235678875,33.76625
2021-07-06 15:34:09.210937500,-26.0,5.0,58.0,90.793671875,-10.81,28.2329565625,33.766875000000006
2021-07-06 15:34:09.218750000,-26.0,5.0,58.0,90.7934375,-13.55,28.230234250000002,33.767500000000005
2021-07-06 15:34:09.226562500,-26.0,5.0,58.0,90.79320312499999,-16.43,28.2275119375,33.768125000000005
2021-07-06 15:34:09.234375000,-26.0,5.0,58.0,90.79296875,-19.31,28.224789625,33.768750000000004
2021-07-06 15:34:09.242187500,-26.0,5.0,58.0,90.792734375,-22.25,28.222067312500002,33.769375000000004
2021-07-06 15:34:09.250000000,-26.0,5.0,58.0,90.79249999999999,-25.19,28.219345,33.77
2021-07-06 15:34:09.257812500,-26.0,5.0,58.0,90.792265625,-28.235,28.2145008125,33.77
2021-07-06 15:34:09.265625000,-26.0,5.0,58.0,90.79203125,-31.28,28.209656625,33.77
2021-07-06 15:34:09.273437500,-26.0,5.0,58.0,90.791796875,-34.480000000000004,28.2048124375,33.77
2021-07-06 15:34:09.281250000,-26.0,5.0,58.0,90.7915625,-37.68,28.19996825,33.77
2021-07-06 15:34:09.289062500,-26.0,5.0,58.0,90.79132812499999,-41.035,28.1951240625,33.77
2021-07-06 15:34:09.296875000,-26.0,5.0,58.0,90.79109375,-44.39,28.190279875,33.77
2021-07-06 15:34:09.304687500,-26.0,5.0,58.0,90.790859375,-47.65,28.1854356875,33.77
2021-07-06 15:34:09.312500000,-26.0,5.0,58.0,90.79062499999999,-50.91,28.1805915,33.77
2021-07-06 15:34:09.320312500,-26.0,5.0,58.0,90.790390625,-53.55,28.1757473125,33.77
2021-07-06 15:34:09.328125000,-26.0,5.0,58.0,90.79015625,-56.19,28.170903125,33.77
2021-07-06 15:34:09.335937500,-26.0,5.0,58.0,90.78992187499999,-57.474999999999994,28.1660589375,33.77
2021-07-06 15:34:09.343750000,-26.0,5.0,58.0,90.7896875,-58.76,28.16121475,33.77
2021-07-06 15:34:09.351562500,-26.0,5.0,58.0,90.789453125,-57.974999999999994,28.1563705625,33.77
2021-07-06 15:34:09.359375000,-26.0,5.0,58.0,90.78921875,-57.19,28.151526375,33.77
2021-07-06 15:34:09.367187500,-26.0,5.0,58.0,90.788984375,-53.945,28.1466821875,33.77
2021-07-06 15:34:09.375000000,-26.0,5.0,58.0,90.78875,-50.7,28.141838,33.77
2021-07-06 15:34:09.382812500,-25.75,5.0,58.0,90.788515625,-45.120000000000005,28.1369938125,33.77
2021-07-06 15:34:09.390625000,-25.5,5.0,58.0,90.78828125,-39.54,28.132149625,33.77
2021-07-06 15:34:09.398437500,-25.25,5.0,58.0,90.78804687499999,-32.35,28.1273054375,33.77
2021-07-06 15:34:09.406250000,-25.0,5.0,58.0,90.7878125,-25.16,28.12246125,33.77
2021-07-06 15:34:09.414062500,-25.25,5.0,58.25,90.787578125,-17.43,28.1176170625,33.77
2021-07-06 15:34:09.421875000,-25.5,5.0,58.5,90.78734374999999,-9.7,28.112772875,33.77
2021-07-06 15:34:09.429687500,-25.75,5.0,58.75,90.787109375,-2.5199999999999996,28.1079286875,33.77
2021-07-06 15:34:09.437500000,-26.0,5.0,59.0,90.786875,4.66,28.1030845,33.77
2021-07-06 15:34:09.445312500,-25.75,5.0,58.75,90.78664062499999,10.48,28.0982403125,33.77
2021-07-06 15:34:09.453125000,-25.5,5.0,58.5,90.78640625,16.3,28.093396124999998,33.77
2021-07-06 15:34:09.460937500,-25.25,5.0,58.25,90.786171875,20.465,28.0885519375,33.77
2021-07-06 15:34:09.468750000,-25.0,5.0,58.0,90.7859375,24.63,28.08370775,33.77
2021-07-06 15:34:09.476562500,-25.0,5.0,58.0,90.785703125,27.275,28.0788635625,33.77
2021-07-06 15:34:09.484375000,-25.0,5.0,58.0,90.78546874999999,29.92,28.074019375,33.77
2021-07-06 15:34:09.492187500,-25.0,5.0,58.0,90.785234375,31.42,28.0691751875,33.77
2021-07-06 15:34:09.500000000,-25.0,5.0,58.0,90.785,32.92,28.064331,33.77
2021-07-06 15:34:09.507812500,-25.25,5.0,58.0,90.78476562499999,33.64,28.06136846875,33.77
2021-07-06 15:34:09.515625000,-25.5,5.0,58.0,90.78453125,34.36,28.058405937499998,33.77
2021-07-06 15:34:09.523437500,-25.75,5.0,58.0,90.784296875,34.51,28.05544340625,33.77
2021-07-06 15:34:09.531250000,-26.0,5.0,58.0,90.78406249999999,34.66,28.052480875,33.77
2021-07-06 15:34:09.539062500,-26.0,5.0,58.0,90.783828125,34.26,28.049518343749998,33.77
2021-07-06 15:34:09.546875000,-26.0,5.0,58.0,90.78359375,33.86,28.0465558125,33.77
2021-07-06 15:34:09.554687500,-26.0,5.0,58.0,90.783359375,32.87,28.04359328125,33.77
2021-07-06 15:34:09.562500000,-26.0,5.0,58.0,90.783125,31.88,28.04063075,33.77
2021-07-06 15:34:09.570312500,-26.0,5.0,58.0,90.782890625,30.335,28.03766821875,33.77
2021-07-06 15:34:09.578125000,-26.0,5.0,58.0,90.78265625,28.79,28.0347056875,33.77
2021-07-06 15:34:09.585937500,-26.0,5.0,58.0,90.782421875,26.865000000000002,28.03174315625,33.77
2021-07-06 15:34:09.593750000,-26.0,5.0,58.0,90.78218749999999,24.94,28.028780625,33.77
2021-07-06 15:34:09.601562500,-25.75,5.0,58.0,90.781953125,22.91,28.02581809375,33.77
2021-07-06 15:34:09.609375000,-25.5,5.0,58.0,90.78171875,20.88,28.0228555625,33.77
2021-07-06 15:34:09.617187500,-25.25,5.0,58.0,90.78148437499999,19.04,28.01989303125,33.77
2021-07-06 15:34:09.625000000,-25.0,5.0,58.0,90.78125,17.2,28.0169305,33.77
2021-07-06 15:34:09.632812500,-25.0,5.0,58.0,90.781015625,15.75,28.01396796875,33.77
2021-07-06 15:34:09.640625000,-25.0,5.0,58.0,90.78078124999999,14.3,28.0110054375,33.77
2021-07-06 15:34:09.648437500,-25.0,5.0,58.0,90.780546875,13.285,28.008042906249997,33.77
2021-07-06 15:34:09.656250000,-25.0,5.0,58.0,90.7803125,12.27,28.005080375,33.77
2021-07-06 15:34:09.664062500,-25.0,5.0,58.0,90.780078125,11.64,28.00211784375,33.77
2021-07-06 15:34:09.671875000,-25.0,5.0,58.0,90.77984375,11.01,27.999155312499997,33.77
2021-07-06 15:34:09.679687500,-25.0,5.0,58.0,90.77960937499999,10.625,27.99619278125,33.77
2021-07-06 15:34:09.687500000,-25.0,5.0,58.0,90.779375,10.24,27.99323025,33.77
2021-07-06 15:34:09.695312500,-25.25,5.0,58.0,90.779140625,9.985,27.990267718749998,33.77
2021-07-06 15:34:09.703125000,-25.5,5.0,58.0,90.77890624999999,9.73,27.9873051875,33.77
2021-07-06 15:34:09.710937500,-25.75,5.0,58.0,90.778671875,9.485,27.98434265625,33.77
2021-07-06 15:34:09.718750000,-26.0,5.0,58.0,90.7784375,9.24,27.981380124999998,33.77
2021-07-06 15:34:09.726562500,-25.75,5.0,58.0,90.77820312499999,8.905000000000001,27.97841759375,33.77
2021-07-06 15:34:09.734375000,-25.5,5.0,58.0,90.77796875,8.57,27.9754550625,33.77
2021-07-06 15:34:09.742187500,-25.25,5.0,58.0,90.777734375,8.035,27.972492531249998,33.77
2021-07-06 15:34:09.750000000,-25.0,5.0,58.0,90.7775,7.5,27.96953,33.77
2021-07-06 15:34:09.757812500,-25.0,5.0,58.0,90.777265625,6.640000000000001,27.9649660625,33.77
2021-07-06 15:34:09.765625000,-25.0,5.0,58.0,90.77703125,5.78,27.960402124999998,33.77
2021-07-06 15:34:09.773437500,-25.0,5.0,58.0,90.776796875,4.5,27.9558381875,33.77
2021-07-06 15:34:09.781250000,-25.0,5.0,58.0,90.7765625,3.22,27.951274249999997,33.77
2021-07-06 15:34:09.789062500,-25.25,5.0,58.0,90.77632812499999,1.4900000000000002,27.9467103125,33.77
2021-07-06 15:34:09.796875000,-25.5,5.0,58.0,90.77609375,-0.24,27.942146375,33.77
2021-07-06 15:34:09.804687500,-25.75,5.0,58.0,90.775859375,-2.335,27.937582437499998,33.77
2021-07-06 15:34:09.812500000,-26.0,5.0,58.0,90.77562499999999,-4.43,27.9330185,33.77
2021-07-06 15:34:09.820312500,-26.0,5.0,58.0,90.775390625,-6.71,27.9284545625,33.77
2021-07-06 15:34:09.828125000,-26.0,5.0,58.0,90.77515625,-8.99,27.923890625,33.77
2021-07-06 15:34:09.835937500,-26.0,5.0,58.0,90.77492187499999,-11.25,27.9193266875,33.77
2021-07-06 15:34:09.843750000,-26.0,5.0,58.0,90.7746875,-13.51,27.91476275,33.77
2021-07-06 15:34:09.851562500,-25.75,5.0,58.0,90.774453125,-15.605,27.9101988125,33.77
2021-07-06 15:34:09.859375000,-25.5,5.0,58.0,90.77421875,-17.7,27.905634875,33.77
2021-07-06 15:34:09.867187500,-25.25,5.0,58.0,90.773984375,-19.619999999999997,27.9010709375,33.77
2021-07-06 15:34:09.875000000,-25.0,5.0,58.0,90.77374999999999,-21.54,27.896507,33.77
2021-07-06 15:34:09.882812500,-25.0,5.0,58.0,90.773515625,-23.46,27.8919430625,33.77
2021-07-06 15:34:09.890625000,-25.0,5.0,58.0,90.77328125,-25.38,27.887379125,33.77
2021-07-06 15:34:09.898437500,-25.0,5.0,58.0,90.77304687499999,-27.615000000000002,27.8828151875,33.77
2021-07-06 15:34:09.906250000,-25.0,5.0,58.0,90.7728125,-29.85,27.878251249999998,33.77
2021-07-06 15:34:09.914062500,-25.25,5.0,58.0,90.772578125,-32.730000000000004,27.8736873125,33.77
2021-07-06 15:34:09.921875000,-25.5,5.0,58.0,90.77234374999999,-35.61,27.869123375,33.77
2021-07-06 15:34:09.929687500,-25.75,5.0,58.0,90.772109375,-39.254999999999995,27.8645594375,33.77
2021-07-06 15:34:09.937500000,-26.0,5.0,58.0,90.771875,-42.9,27.8599955,33.77
2021-07-06 15:34:09.945312500,-26.0,5.0,58.0,90.77164062499999,-47.07,27.8554315625,33.77
2021-07-06 15:34:09.953125000,-26.0,5.0,58.0,90.77140625,-51.24,27.850867625,33.77
2021-07-06 15:34:09.960937500,-26.0,5.0,58.0,90.771171875,-55.255,27.8463036875,33.77
2021-07-06 15:34:09.968750000,-26.0,5.0,58.0,90.7709375,-59.27,27.841739750000002,33.77
2021-07-06 15:34:09.976562500,-25.75,5.0,58.0,90.770703125,-62.14,27.8371758125,33.77
2021-07-06 15:34:09.984375000,-25.5,5.0,58.0,90.77046874999999,-65.01,27.832611875,33.77
2021-07-06 15:34:09.992187500,-25.25,5.0,58.0,90.770234375,-65.755,27.8280479375,33.77
2021-07-06 15:34:10.000000000,-25.0,5.0,58.0,90.77,-66.5,27.823484,33.77
2021-07-06 15:34:10.007812500,-25.25,5.0,58.0,90.76984374999999,-64.495,27.82204278125,33.769375000000004
2021-07-06 15:34:10.015625000,-25.5,5.0,58.0,90.76968749999999,-62.49,27.820601562500002,33.768750000000004
2021-07-06 15:34:10.023437500,-25.75,5.0,58.0,90.76953125,-57.705,27.81916034375,33.768125000000005
2021-07-06 15:34:10.031250000,-26.0,5.0,58.0,90.769375,-52.92,27.817719125,33.767500000000005
2021-07-06 15:34:10.039062500,-26.0,5.0,58.0,90.76921875,-45.97,27.81627790625,33.766875000000006
2021-07-06 15:34:10.046875000,-26.0,5.0,58.0,90.76906249999999,-39.02,27.8148366875,33.76625
2021-07-06 15:34:10.054687500,-26.0,5.0,58.0,90.76890625,-30.950000000000003,27.81339546875,33.765625
2021-07-06 15:34:10.062500000,-26.0,5.0,58.0,90.76875,-22.88,27.81195425,33.765
2021-07-06 15:34:10.070312500,-26.0,5.0,58.0,90.76859375,-14.815,27.81051303125,33.764375
2021-07-06 15:34:10.078125000,-26.0,5.0,58.0,90.76843749999999,-6.75,27.8090718125,33.76375
2021-07-06 15:34:10.085937500,-26.0,5.0,58.0,90.76828125,0.40499999999999936,27.80763059375,33.763125
2021-07-06 15:34:10.093750000,-26.0,5.0,58.0,90.768125,7.56,27.806189375,33.7625
2021-07-06 15:34:10.101562500,-26.0,5.0,58.0,90.76796875,13.280000000000001,27.80474815625,33.761875
2021-07-06 15:34:10.109375000,-26.0,5.0,58.0,90.76781249999999,19.0,27.8033069375,33.761250000000004
2021-07-06 15:34:10.117187500,-26.0,5.0,58.0,90.76765625,23.119999999999997,27.80186571875,33.760625000000005
2021-07-06 15:34:10.125000000,-26.0,5.0,58.0,90.7675,27.24,27.8004245,33.760000000000005
2021-07-06 15:34:10.132812500,-26.0,5.0,58.0,90.76734375,29.86,27.79898328125,33.759375
2021-07-06 15:34:10.140625000,-26.0,5.0,58.0,90.76718749999999,32.48,27.7975420625,33.75875
2021-07-06 15:34:10.148437500,-26.0,5.0,58.0,90.76703125,33.815,27.79610084375,33.758125
2021-07-06 15:34:10.156250000,-26.0,5.0,58.0,90.766875,35.15,27.794659625,33.7575
2021-07-06 15:34:10.164062500,-26.0,5.0,58.0,90.76671875,35.43,27.79321840625,33.756875
2021-07-06 15:34:10.171875000,-26.0,5.0,58.0,90.76656249999999,35.71,27.7917771875,33.75625
2021-07-06 15:34:10.179687500,-26.0,5.0,58.0,90.76640625,35.185,27.79033596875,33.755625
2021-07-06 15:34:10.187500000,-26.0,5.0,58.0,90.76625,34.66,27.78889475,33.755
2021-07-06 15:34:10.195312500,-26.0,5.0,58.0,90.76609375,33.565,27.78745353125,33.754375
2021-07-06 15:34:10.203125000,-26.0,5.0,58.0,90.76593749999999,32.47,27.7860123125,33.753750000000004
2021-07-06 15:34:10.210937500,-26.0,5.0,58.0,90.76578125,31.049999999999997,27.78457109375,33.753125
2021-07-06 15:34:10.218750000,-26.0,5.0,58.0,90.765625,29.63,27.783129875,33.7525
2021-07-06 15:34:10.226562500,-26.0,5.0,58.0,90.76546875,28.145,27.78168865625,33.751875
2021-07-06 15:34:10.234375000,-26.0,5.0,58.0,90.7653125,26.66,27.780247437499998,33.75125
2021-07-06 15:34:10.242187500,-26.0,5.0,58.0,90.76515625,25.3,27.77880621875,33.750625
2021-07-06 15:34:10.250000000,-26.0,5.0,58.0,90.765,23.94,27.777365,33.75
2021-07-06 15:34:10.257812500,-26.0,5.0,58.0,90.76484375,22.845,27.77464265625,33.75
2021-07-06 15:34:10.265625000,-26.0,5.0,58.0,90.7646875,21.75,27.7719203125,33.75
2021-07-06 15:34:10.273437500,-26.0,5.0,58.0,90.76453124999999,20.945,27.76919796875,33.75
2021-07-06 15:34:10.281250000,-26.0,5.0,58.0,90.764375,20.14,27.766475624999998,33.75
2021-07-06 15:34:10.289062500,-26.0,5.0,58.0,90.76421875,19.564999999999998,27.76375328125,33.75
2021-07-06 15:34:10.296875000,-26.0,5.0,58.0,90.7640625,18.99,27.7610309375,33.75
2021-07-06 15:34:10.304687500,-26.0,5.0,58.0,90.76390624999999,18.52,27.758308593749998,33.75
2021-07-06 15:34:10.312500000,-26.0,5.0,58.0,90.76375,18.05,27.75558625,33.75
2021-07-06 15:34:10.320312500,-26.0,5.0,58.0,90.76359375,17.560000000000002,27.75286390625,33.75
2021-07-06 15:34:10.328125000,-26.0,5.0,58.0,90.7634375,17.07,27.750141562499998,33.75
2021-07-06 15:34:10.335937500,-26.0,5.0,58.0,90.76328124999999,16.495,27.74741921875,33.75
2021-07-06 15:34:10.343750000,-26.0,5.0,58.0,90.763125,15.92,27.744696875,33.75
2021-07-06 15:34:10.351562500,-26.0,5.0,58.0,90.76296875,15.265,27.741974531249998,33.75
2021-07-06 15:34:10.359375000,-26.0,5.0,58.0,90.7628125,14.61,27.7392521875,33.75
2021-07-06 15:34:10.367187500,-26.0,5.0,58.0,90.76265624999999,13.955,27.73652984375,33.75
2021-07-06 15:34:10.375000000,-26.0,5.0,58.0,90.7625,13.3,27.733807499999998,33.75
2021-07-06 15:34:10.382812500,-26.0,5.0,58.0,90.76234375,12.705,27.73108515625,33.75
2021-07-06 15:34:10.390625000,-26.0,5.0,58.0,90.7621875,12.11,27.7283628125,33.75
2021-07-06 15:34:10.398437500,-26.0,5.0,58.0,90.76203124999999,11.565,27.72564046875,33.75
2021-07-06 15:34:10.406250000,-26.0,5.0,58.0,90.761875,11.02,27.722918125,33.75
2021-07-06 15:34:10.414062500,-26.0,5.0,58.0,90.76171875,10.370000000000001,27.72019578125,33.75
2021-07-06 15:34:10.421875000,-26.0,5.0,58.0,90.7615625,9.72,27.7174734375,33.75
2021-07-06 15:34:10.429687500,-26.0,5.0,58.0,90.76140625,8.76,27.71475109375,33.75
2021-07-06 15:34:10.437500000,-26.0,5.0,58.0,90.76125,7.8,27.712028749999998,33.75
2021-07-06 15:34:10.445312500,-26.0,5.0,58.0,90.76109375,6.295,27.70930640625,33.75
2021-07-06 15:34:10.453125000,-26.0,5.0,58.0,90.7609375,4.79,27.7065840625,33.75
2021-07-06 15:34:10.460937500,-26.0,5.0,58.0,90.76078125,2.645,27.703861718749998,33.75
2021-07-06 15:34:10.468750000,-26.0,5.0,58.0,90.760625,0.5,27.701139375,33.75
2021-07-06 15:34:10.476562500,-26.0,5.0,58.0,90.76046875,-2.23,27.69841703125,33.75
2021-07-06 15:34:10.484375000,-26.0,5.0,58.0,90.7603125,-4.96,27.695694687499998,33.75
2021-07-06 15:34:10.492187500,-26.0,5.0,58.0,90.76015625,-8.05,27.69297234375,33.75
2021-07-06 15:34:10.500000000,-26.0,5.0,58.0,90.75999999999999,-11.14,27.69025,33.75
2021-07-06 15:34:10.507812500,-26.0,5.0,58.0,90.75984375,-14.290000000000001,27.68996975,33.75
2021-07-06 15:34:10.515625000,-26.0,5.0,58.0,90.7596875,-17.44,27.6896895,33.75
2021-07-06 15:34:10.523437500,-26.0,5.0,58.0,90.75953125,-20.375,27.68940925,33.75
2021-07-06 15:34:10.531250000,-26.0,5.0,58.0,90.75937499999999,-23.31,27.689128999999998,33.75
2021-07-06 15:34:10.539062500,-26.0,5.0,58.0,90.75921875,-25.895,27.68884875,33.75
2021-07-06 15:34:10.546875000,-26.0,5.0,58.0,90.7590625,-28.48,27.6885685,33.75
2021-07-06 15:34:10.554687500,-26.0,5.0,58.0,90.75890625,-30.770000000000003,27.68828825,33.75
2021-07-06 15:34:10.562500000,-26.0,5.0,58.0,90.75874999999999,-33.06,27.688008,33.75
2021-07-06 15:34:10.570312500,-26.0,5.0,58.0,90.75859375,-35.3,27.68772775,33.75
2021-07-06 15:34:10.578125000,-26.0,5.0,58.0,90.7584375,-37.54,27.687447499999998,33.75
2021-07-06 15:34:10.585937500,-26.0,5.0,58.0,90.75828125,-40.065,27.687167249999998,33.75
2021-07-06 15:34:10.593750000,-26.0,5.0,58.0,90.75812499999999,-42.59,27.686887,33.75
2021-07-06 15:34:10.601562500,-26.0,5.0,58.0,90.75796875,-45.725,27.68660675,33.75
2021-07-06 15:34:10.609375000,-26.0,5.0,58.0,90.7578125,-48.86,27.6863265,33.75
2021-07-06 15:34:10.617187500,-26.0,5.0,58.0,90.75765625,-52.739999999999995,27.68604625,33.75
2021-07-06 15:34:10.625000000,-26.0,5.0,58.0,90.7575,-56.62,27.685766,33.75
2021-07-06 15:34:10.632812500,-26.0,5.0,58.0,90.75734375,-61.05499999999999,27.685485749999998,33.75
2021-07-06 15:34:10.640625000,-26.0,5.0,58.0,90.7571875,-65.49,27.6852055,33.75
2021-07-06 15:34:10.648437500,-26.0,5.0,58.0,90.75703125,-69.88499999999999,27.68492525,33.75
2021-07-06 15:34:10.656250000,-26.0,5.0,58.0,90.756875,-74.28,27.684645,33.75
2021-07-06 15:34:10.664062500,-26.0,5.0,58.0,90.75671875,-77.765,27.68436475,33.75
2021-07-06 15:34:10.671875000,-26.0,5.0,58.0,90.7565625,-81.25,27.6840845,33.75
2021-07-06 15:34:10.679687500,-26.0,5.0,58.0,90.75640625,-82.83,27.683804249999998,33.75
2021-07-06 15:34:10.687500000,-26.0,5.0,58.0,90.75625,-84.41,27.683524,33.75
2021-07-06 15:34:10.695312500,-26.0,5.0,58.0,90.75609375,-83.35499999999999,27.68324375,33.75
2021-07-06 15:34:10.703125000,-26.0,5.0,58.0,90.7559375,-82.3,27.6829635,33.75
2021-07-06 15:34:10.710937500,-26.0,5.0,58.0,90.75578125,-78.35499999999999,27.68268325,33.75
2021-07-06 15:34:10.718750000,-26.0,5.0,58.0,90.755625,-74.41,27.682403,33.75
2021-07-06 15:34:10.726562500,-26.0,5.0,58.0,90.75546875,-67.94,27.682122749999998,33.75
2021-07-06 15:34:10.734375000,-26.0,5.0,58.0,90.7553125,-61.47,27.6818425,33.75
2021-07-06 15:34:10.742187500,-26.0,5.0,58.0,90.75515625,-53.345,27.68156225,33.75
2021-07-06 15:34:10.750000000,-26.0,5.0,58.0,90.755,-45.22,27.681282,33.75
2021-07-06 15:34:10.757812500,-26.0,5.0,58.0,90.75484374999999,-36.54,27.67888,33.75
2021-07-06 15:34:10.765625000,-26.0,5.0,58.0,90.7546875,-27.86,27.676478,33.75
2021-07-06 15:34:10.773437500,-26.0,5.0,58.0,90.75453125,-19.595,27.674076,33.75
2021-07-06 15:34:10.781250000,-26.0,5.0,58.0,90.754375,-11.33,27.671674,33.75
2021-07-06 15:34:10.789062500,-26.0,5.0,58.0,90.75421874999999,-4.135,27.669272,33.75
2021-07-06 15:34:10.796875000,-26.0,5.0,58.0,90.7540625,3.06,27.66687,33.75
2021-07-06 15:34:10.804687500,-26.0,5.0,58.0,90.75390625,8.93,27.664468,33.75
2021-07-06 15:34:10.812500000,-26.0,5.0,58.0,90.75375,14.8,27.662066,33.75
2021-07-06 15:34:10.820312500,-26.0,5.0,58.0,90.75359375,19.365000000000002,27.659664,33.75
2021-07-06 15:34:10.828125000,-26.0,5.0,58.0,90.7534375,23.93,27.657262,33.75
2021-07-06 15:34:10.835937500,-26.0,5.0,58.0,90.75328125,27.335,27.65486,33.75
2021-07-06 15:34:10.843750000,-26.0,5.0,58.0,90.753125,30.74,27.652458,33.75
2021-07-06 15:34:10.851562500,-26.0,5.0,58.0,90.75296875,33.135,27.650056,33.75
2021-07-06 15:34:10.859375000,-26.0,5.0,58.0,90.7528125,35.53,27.647654,33.75
2021-07-06 15:34:10.867187500,-26.0,5.0,58.0,90.75265625,37.035,27.645252,33.75
2021-07-06 15:34:10.875000000,-26.0,5.0,58.0,90.7525,38.54,27.64285,33.75
2021-07-06 15:34:10.882812500,-26.0,5.0,58.0,90.75234375,39.245000000000005,27.640448,33.75
2021-07-06 15:34:10.890625000,-26.0,5.0,58.0,90.7521875,39.95,27.638046,33.75
2021-07-06 15:34:10.898437500,-26.0,5.0,58.0,90.75203125,39.99,27.635644,33.75
2021-07-06 15:34:10.906250000,-26.0,5.0,58.0,90.751875,40.03,27.633242,33.75
2021-07-06 15:34:10.914062500,-26.0,5.0,58.0,90.75171875,39.57,27.63084,33.75
2021-07-06 15:34:10.921875000,-26.0,5.0,58.0,90.7515625,39.11,27.628438,33.75
2021-07-06 15:34:10.929687500,-26.0,5.0,58.0,90.75140625,38.364999999999995,27.626036,33.75
2021-07-06 15:34:10.937500000,-26.0,5.0,58.0,90.75125,37.62,27.623634,33.75
2021-07-06 15:34:10.945312500,-26.0,5.0,58.0,90.75109375,36.81,27.621232,33.75
2021-07-06 15:34:10.953125000,-26.0,5.0,58.0,90.7509375,36.0,27.61883,33.75
2021-07-06 15:34:10.960937500,-26.0,5.0,58.0,90.75078125,35.355000000000004,27.616428,33.75
2021-07-06 15:34:10.968750000,-26.0,5.0,58.0,90.750625,34.71,27.614026,33.75
2021-07-06 15:34:10.976562500,-26.0,5.0,58.0,90.75046875,34.42,27.611624,33.75
2021-07-06 15:34:10.984375000,-26.0,5.0,58.0,90.7503125,34.13,27.609222,33.75
2021-07-06 15:34:10.992187500,-26.0,5.0,58.0,90.75015625,34.31,27.60682,33.75
2021-07-06 15:34:11.000000000,-26.0,5.0,58.0,90.75,34.49,27.604418,33.75
2021-07-06 15:34:11.007812500,-26.0,5.0,58.0,90.74984375,35.11,27.60493840625,33.75
2021-07-06 15:34:11.015625000,-26.0,5.0,58.0,90.7496875,35.73,27.6054588125,33.75
2021-07-06 15:34:11.023437500,-26.0,5.0,58.0,90.74953125,36.67,27.60597921875,33.75
2021-07-06 15:34:11.031250000,-26.0,5.0,58.0,90.749375,37.61,27.606499624999998,33.75
2021-07-06 15:34:11.039062500,-26.0,5.0,58.0,90.74921875,38.61,27.60702003125,33.75
2021-07-06 15:34:11.046875000,-26.0,5.0,58.0,90.7490625,39.61,27.6075404375,33.75
2021-07-06 15:34:11.054687500,-26.0,5.0,58.0,90.74890625,40.394999999999996,27.60806084375,33.75
2021-07-06 15:34:11.062500000,-26.0,5.0,58.0,90.74875,41.18,27.60858125,33.75
2021-07-06 15:34:11.070312500,-26.0,5.0,58.0,90.74859375,41.489999999999995,27.60910165625,33.75
2021-07-06 15:34:11.078125000,-26.0,5.0,58.0,90.7484375,41.8,27.609622062499998,33.75
2021-07-06 15:34:11.085937500,-26.0,5.0,58.0,90.74828125,41.489999999999995,27.61014246875,33.75
2021-07-06 15:34:11.093750000,-26.0,5.0,58.0,90.748125,41.18,27.610662875,33.75
2021-07-06 15:34:11.101562500,-26.0,5.0,58.0,90.74796875,40.230000000000004,27.61118328125,33.75
2021-07-06 15:34:11.109375000,-26.0,5.0,58.0,90.7478125,39.28,27.6117036875,33.75
2021-07-06 15:34:11.117187500,-26.0,5.0,58.0,90.74765625,37.78,27.61222409375,33.75
2021-07-06 15:34:11.125000000,-26.0,5.0,58.0,90.7475,36.28,27.612744499999998,33.75
2021-07-06 15:34:11.132812500,-26.0,5.0,58.0,90.74734375,34.385000000000005,27.61326490625,33.75
2021-07-06 15:34:11.140625000,-26.0,5.0,58.0,90.7471875,32.49,27.6137853125,33.75
2021-07-06 15:34:11.148437500,-26.0,5.0,58.0,90.74703125,30.35,27.61430571875,33.75
2021-07-06 15:34:11.156250000,-26.0,5.0,58.0,90.746875,28.21,27.614826125,33.75
2021-07-06 15:34:11.164062500,-26.0,5.0,58.0,90.74671875,25.925,27.61534653125,33.75
2021-07-06 15:34:11.171875000,-26.0,5.0,58.0,90.7465625,23.64,27.6158669375,33.75
2021-07-06 15:34:11.179687500,-26.0,5.0,58.0,90.74640625,21.225,27.61638734375,33.75
2021-07-06 15:34:11.187500000,-26.0,5.0,58.0,90.74625,18.81,27.61690775,33.75
2021-07-06 15:34:11.195312500,-26.0,5.0,58.0,90.74609375,16.22,27.61742815625,33.75
2021-07-06 15:34:11.203125000,-26.0,5.0,58.0,90.7459375,13.63,27.6179485625,33.75
2021-07-06 15:34:11.210937500,-26.0,5.0,58.0,90.74578125000001,10.76,27.61846896875,33.75
2021-07-06 15:34:11.218750000,-26.0,5.0,58.0,90.745625,7.89,27.618989375,33.75
2021-07-06 15:34:11.226562500,-26.0,5.0,58.0,90.74546875,4.675,27.61950978125,33.75
2021-07-06 15:34:11.234375000,-26.0,5.0,58.0,90.7453125,1.46,27.6200301875,33.75
2021-07-06 15:34:11.242187500,-26.0,5.0,58.0,90.74515625000001,-2.06,27.62055059375,33.75
2021-07-06 15:34:11.250000000,-26.0,5.0,58.0,90.745,-5.58,27.621071,33.75
2021-07-06 15:34:11.257812500,-26.0,5.0,58.0,90.74484375,-9.280000000000001,27.62091090625,33.75
2021-07-06 15:34:11.265625000,-26.0,5.0,58.0,90.7446875,-12.98,27.6207508125,33.75
2021-07-06 15:34:11.273437500,-26.0,5.0,58.0,90.74453125,-16.67,27.62059071875,33.75
2021-07-06 15:34:11.281250000,-26.0,5.0,58.0,90.744375,-20.36,27.620430625,33.75
2021-07-06 15:34:11.289062500,-26.0,5.0,58.0,90.74421875,-23.83,27.62027053125,33.75
2021-07-06 15:34:11.296875000,-26.0,5.0,58.0,90.7440625,-27.3,27.6201104375,33.75
2021-07-06 15:34:11.304687500,-26.0,5.0,58.0,90.74390625,-30.445,27.619950343750002,33.75
2021-07-06 15:34:11.312500000,-26.0,5.0,58.0,90.74375,-33.59,27.61979025,33.75
2021-07-06 15:34:11.320312500,-26.0,5.0,58.0,90.74359375,-36.405,27.61963015625,33.75
2021-07-06 15:34:11.328125000,-26.0,5.0,58.0,90.7434375,-39.22,27.6194700625,33.75
2021-07-06 15:34:11.335937500,-26.0,5.0,58.0,90.74328125,-41.84,27.61930996875,33.75
2021-07-06 15:34:11.343750000,-26.0,5.0,58.0,90.743125,-44.46,27.619149875,33.75
2021-07-06 15:34:11.351562500,-26.0,5.0,58.0,90.74296875,-47.14,27.61898978125,33.75
2021-07-06 15:34:11.359375000,-26.0,5.0,58.0,90.7428125,-49.82,27.6188296875,33.75
2021-07-06 15:34:11.367187500,-26.0,5.0,58.0,90.74265625,-52.864999999999995,27.61866959375,33.75
2021-07-06 15:34:11.375000000,-26.0,5.0,58.0,90.7425,-55.91,27.618509500000002,33.75
2021-07-06 15:34:11.382812500,-26.0,5.0,58.0,90.74234375,-59.58,27.61834940625,33.75
2021-07-06 15:34:11.390625000,-26.0,5.0,58.0,90.7421875,-63.25,27.6181893125,33.75
2021-07-06 15:34:11.398437500,-26.0,5.0,58.0,90.74203125,-67.63,27.61802921875,33.75
2021-07-06 15:34:11.406250000,-26.0,5.0,58.0,90.74187500000001,-72.01,27.617869125,33.75
2021-07-06 15:34:11.414062500,-26.0,5.0,58.0,90.74171875,-76.83000000000001,27.61770903125,33.75
2021-07-06 15:34:11.421875000,-26.0,5.0,58.0,90.7415625,-81.65,27.6175489375,33.75
2021-07-06 15:34:11.429687500,-26.0,5.0,58.0,90.74140625,-86.255,27.61738884375,33.75
2021-07-06 15:34:11.437500000,-26.0,5.0,58.0,90.74125000000001,-90.86,27.61722875,33.75
2021-07-06 15:34:11.445312500,-26.0,5.0,58.0,90.74109375,-94.265,27.617068656249998,33.75
2021-07-06 15:34:11.453125000,-26.0,5.0,58.0,90.7409375,-97.67,27.6169085625,33.75
2021-07-06 15:34:11.460937500,-26.0,5.0,58.0,90.74078125,-98.80000000000001,27.61674846875,33.75
2021-07-06 15:34:11.468750000,-26.0,5.0,58.0,90.74062500000001,-99.93,27.616588375,33.75
2021-07-06 15:34:11.476562500,-26.0,5.0,58.0,90.74046875,-98.005,27.61642828125,33.75
2021-07-06 15:34:11.484375000,-26.0,5.0,58.0,90.7403125,-96.08,27.6162681875,33.75
2021-07-06 15:34:11.492187500,-26.0,5.0,58.0,90.74015625,-90.89,27.61610809375,33.75
2021-07-06 15:34:11.500000000,-26.0,5.0,58.0,90.74000000000001,-85.7,27.615948,33.75
2021-07-06 15:34:11.507812500,-26.0,5.0,58.0,90.73984375,-77.75999999999999,27.61626825,33.75
2021-07-06 15:34:11.515625000,-26.0,5.0,58.0,90.7396875,-69.82,27.6165885,33.75
2021-07-06 15:34:11.523437500,-26.0,5.0,58.0,90.73953125,-60.19,27.61690875,33.75
2021-07-06 15:34:11.531250000,-26.0,5.0,58.0,90.739375,-50.56,27.617229,33.75
2021-07-06 15:34:11.539062500,-26.0,5.0,58.0,90.73921875,-40.535000000000004,27.61754925,33.75
2021-07-06 15:34:11.546875000,-26.0,5.0,58.0,90.7390625,-30.51,27.6178695,33.75
2021-07-06 15:34:11.554687500,-26.0,5.0,58.0,90.73890625,-21.215,27.61818975,33.75
2021-07-06 15:34:11.562500000,-26.0,5.0,58.0,90.73875,-11.92,27.61851,33.75
2021-07-06 15:34:11.570312500,-26.0,5.0,58.0,90.73859375,-4.0649999999999995,27.61883025,33.75
2021-07-06 15:34:11.578125000,-26.0,5.0,58.0,90.7384375,3.79,27.6191505,33.75
2021-07-06 15:34:11.585937500,-26.0,5.0,58.0,90.73828125,9.96,27.61947075,33.75
2021-07-06 15:34:11.593750000,-26.0,5.0,58.0,90.738125,16.13,27.619791,33.75
2021-07-06 15:34:11.601562500,-26.0,5.0,58.0,90.73796875000001,20.735,27.62011125,33.75
2021-07-06 15:34:11.609375000,-26.0,5.0,58.0,90.7378125,25.34,27.6204315,33.75
2021-07-06 15:34:11.617187500,-26.0,5.0,58.0,90.73765625,28.634999999999998,27.62075175,33.75
2021-07-06 15:34:11.625000000,-26.0,5.0,58.0,90.7375,31.93,27.621071999999998,33.75
2021-07-06 15:34:11.632812500,-26.0,5.0,58.0,90.73734375000001,34.15,27.62139225,33.75
2021-07-06 15:34:11.640625000,-26.0,5.0,58.0,90.7371875,36.37,27.6217125,33.75
2021-07-06 15:34:11.648437500,-26.0,5.0,58.0,90.73703125,37.65,27.62203275,33.75
2021-07-06 15:34:11.656250000,-26.0,5.0,58.0,90.736875,38.93,27.622353,33.75
2021-07-06 15:34:11.664062500,-26.0,5.0,58.0,90.73671875000001,39.364999999999995,27.62267325,33.75
2021-07-06 15:34:11.671875000,-26.0,5.0,58.0,90.7365625,39.8,27.6229935,33.75
2021-07-06 15:34:11.679687500,-26.0,5.0,58.0,90.73640625,39.515,27.62331375,33.75
2021-07-06 15:34:11.687500000,-26.0,5.0,58.0,90.73625,39.23,27.623634,33.75
2021-07-06 15:34:11.695312500,-25.75,5.0,58.0,90.73609375000001,38.44499999999999,27.62395425,33.75
2021-07-06 15:34:11.703125000,-25.5,5.0,58.0,90.7359375,37.66,27.6242745,33.75
2021-07-06 15:34:11.710937500,-25.25,5.0,58.0,90.73578125,36.69,27.62459475,33.75
2021-07-06 15:34:11.718750000,-25.0,5.0,58.0,90.735625,35.72,27.624915,33.75
2021-07-06 15:34:11.726562500,-25.25,5.0,58.0,90.73546875000001,34.875,27.62523525,33.75
2021-07-06 15:34:11.734375000,-25.5,5.0,58.0,90.7353125,34.03,27.6255555,33.75
2021-07-06 15:34:11.742187500,-25.75,5.0,58.0,90.73515625,33.525000000000006,27.62587575,33.75
2021-07-06 15:34:11.750000000,-26.0,5.0,58.0,90.735,33.02,27.626196,33.75
2021-07-06 15:34:11.757812500,-26.0,5.0,58.0,90.73484375,32.885000000000005,27.6271568125,33.75
2021-07-06 15:34:11.765625000,-26.0,5.0,58.0,90.7346875,32.75,27.628117625,33.75
2021-07-06 15:34:11.773437500,-26.0,5.0,58.0,90.73453125,32.84,27.6290784375,33.75
2021-07-06 15:34:11.781250000,-26.0,5.0,58.0,90.734375,32.93,27.63003925,33.75
2021-07-06 15:34:11.789062500,-26.0,5.0,58.0,90.73421875,33.015,27.6310000625,33.75
2021-07-06 15:34:11.796875000,-26.0,5.0,58.0,90.73406250000001,33.1,27.631960875,33.75
2021-07-06 15:34:11.804687500,-26.0,5.0,58.0,90.73390625,32.995000000000005,27.6329216875,33.75
2021-07-06 15:34:11.812500000,-26.0,5.0,58.0,90.73375,32.89,27.6338825,33.75
2021-07-06 15:34:11.820312500,-25.75,5.0,58.0,90.73359375,32.58,27.6348433125,33.75
2021-07-06 15:34:11.828125000,-25.5,5.0,58.0,90.73343750000001,32.27,27.635804125,33.75
2021-07-06 15:34:11.835937500,-25.25,5.0,58.0,90.73328125,31.875,27.6367649375,33.75
2021-07-06 15:34:11.843750000,-25.0,5.0,58.0,90.733125,31.48,27.63772575,33.75
2021-07-06 15:34:11.851562500,-25.0,5.0,58.0,90.73296875,31.185000000000002,27.638686562500002,33.75
2021-07-06 15:34:11.859375000,-25.0,5.0,58.0,90.73281250000001,30.89,27.639647375,33.75
2021-07-06 15:34:11.867187500,-25.0,5.0,58.0,90.73265625,30.765,27.6406081875,33.75
2021-07-06 15:34:11.875000000,-25.0,5.0,58.0,90.7325,30.64,27.641569,33.75
2021-07-06 15:34:11.882812500,-25.25,5.0,58.0,90.73234375,30.55,27.6425298125,33.75
2021-07-06 15:34:11.890625000,-25.5,5.0,58.0,90.73218750000001,30.46,27.643490625000002,33.75
2021-07-06 15:34:11.898437500,-25.75,5.0,58.0,90.73203125,30.09,27.6444514375,33.75
2021-07-06 15:34:11.906250000,-26.0,5.0,58.0,90.731875,29.72,27.64541225,33.75
2021-07-06 15:34:11.914062500,-26.0,5.0,58.0,90.73171875,28.685,27.6463730625,33.75
2021-07-06 15:34:11.921875000,-26.0,5.0,58.0,90.73156250000001,27.65,27.647333875,33.75
2021-07-06 15:34:11.929687500,-26.0,5.0,58.0,90.73140625,25.655,27.6482946875,33.75
2021-07-06 15:34:11.937500000,-26.0,5.0,58.0,90.73125,23.66,27.649255500000002,33.75
2021-07-06 15:34:11.945312500,-26.0,5.0,58.0,90.73109375,20.65,27.6502163125,33.75
2021-07-06 15:34:11.953125000,-26.0,5.0,58.0,90.73093750000001,17.64,27.651177125,33.75
2021-07-06 15:34:11.960937500,-26.0,5.0,58.0,90.73078125,13.83,27.6521379375,33.75
2021-07-06 15:34:11.968750000,-26.0,5.0,58.0,90.730625,10.02,27.65309875,33.75
2021-07-06 15:34:11.976562500,-26.0,5.0,58.0,90.73046875,5.81,27.654059562500002,33.75
2021-07-06 15:34:11.984375000,-26.0,5.0,58.0,90.73031250000001,1.6,27.655020375,33.75
2021-07-06 15:34:11.992187500,-26.0,5.0,58.0,90.73015625000001,-2.565,27.6559811875,33.75
2021-07-06 15:34:12.000000000,-26.0,5.0,58.0,90.73,-6.73,27.656942,33.75
2021-07-06 15:34:12.007812500,-26.0,5.0,58.0,90.72898437500001,-10.5,27.658783562500002,33.749375
2021-07-06 15:34:12.015625000,-26.0,5.0,58.0,90.72796875,-14.27,27.660625125,33.74875
2021-07-06 15:34:12.023437500,-26.0,5.0,58.0,90.72695312500001,-17.525,27.6624666875,33.748125
2021-07-06 15:34:12.031250000,-26.0,5.0,58.0,90.7259375,-20.78,27.66430825,33.7475
2021-07-06 15:34:12.039062500,-26.0,5.0,58.0,90.724921875,-23.575000000000003,27.666149812500002,33.746875
2021-07-06 15:34:12.046875000,-26.0,5.0,58.0,90.72390625,-26.37,27.667991375,33.746249999999996
2021-07-06 15:34:12.054687500,-26.0,5.0,58.0,90.722890625,-28.975,27.6698329375,33.745625
2021-07-06 15:34:12.062500000,-26.0,5.0,58.0,90.721875,-31.58,27.6716745,33.745
2021-07-06 15:34:12.070312500,-25.75,5.0,58.0,90.720859375,-34.355000000000004,27.6735160625,33.744375
2021-07-06 15:34:12.078125000,-25.5,5.0,58.0,90.71984375000001,-37.13,27.675357625,33.74375
2021-07-06 15:34:12.085937500,-25.25,5.0,58.0,90.718828125,-40.42,27.6771991875,33.743125
2021-07-06 15:34:12.093750000,-25.0,5.0,58.0,90.71781250000001,-43.71,27.679040750000002,33.7425
2021-07-06 15:34:12.101562500,-25.25,5.0,58.0,90.716796875,-47.78,27.6808823125,33.741875
2021-07-06 15:34:12.109375000,-25.5,5.0,58.0,90.71578125,-51.85,27.682723875,33.74125
2021-07-06 15:34:12.117187500,-25.75,5.0,58.0,90.714765625,-56.705,27.6845654375,33.740625
2021-07-06 15:34:12.125000000,-26.0,5.0,58.0,90.71375,-61.56,27.686407000000003,33.739999999999995
2021-07-06 15:34:12.132812500,-25.75,5.0,58.0,90.712734375,-66.86500000000001,27.6882485625,33.739374999999995
2021-07-06 15:34:12.140625000,-25.5,5.0,58.0,90.71171875,-72.17,27.690090125,33.738749999999996
2021-07-06 15:34:12.148437500,-25.25,5.0,58.0,90.71070312500001,-77.15,27.691931687500002,33.738125
2021-07-06 15:34:12.156250000,-25.0,5.0,58.0,90.7096875,-82.13,27.69377325,33.7375
2021-07-06 15:34:12.164062500,-25.25,5.0,58.0,90.70867187500001,-85.725,27.6956148125,33.736875
2021-07-06 15:34:12.171875000,-25.5,5.0,58.0,90.70765625,-89.32,27.697456375,33.73625
2021-07-06 15:34:12.179687500,-25.75,5.0,58.0,90.706640625,-90.4,27.699297937500003,33.735625
2021-07-06 15:34:12.187500000,-26.0,5.0,58.0,90.705625,-91.48,27.7011395,33.735
2021-07-06 15:34:12.195312500,-26.0,5.0,58.0,90.704609375,-89.255,27.7029810625,33.734375
2021-07-06 15:34:12.203125000,-26.0,5.0,58.0,90.70359375,-87.03,27.704822625000002,33.73375
2021-07-06 15:34:12.210937500,-26.0,5.0,58.0,90.702578125,-81.31,27.7066641875,33.733124999999994
2021-07-06 15:34:12.218750000,-26.0,5.0,58.0,90.70156250000001,-75.59,27.70850575,33.732499999999995
2021-07-06 15:34:12.226562500,-26.0,5.0,58.0,90.700546875,-66.93,27.7103473125,33.731874999999995
2021-07-06 15:34:12.234375000,-26.0,5.0,58.0,90.69953125,-58.27,27.712188875000002,33.731249999999996
2021-07-06 15:34:12.242187500,-26.0,5.0,58.0,90.698515625,-47.80500000000001,27.7140304375,33.730624999999996
2021-07-06 15:34:12.250000000,-26.0,5.0,58.0,90.6975,-37.34,27.715872,33.73
2021-07-06 15:34:12.257812500,-26.0,5.0,58.0,90.696484375,-26.410000000000004,27.71635240625,33.73
2021-07-06 15:34:12.265625000,-26.0,5.0,58.0,90.69546875,-15.48,27.7168328125,33.73
2021-07-06 15:34:12.273437500,-26.0,5.0,58.0,90.694453125,-5.26,27.71731321875,33.73
2021-07-06 15:34:12.281250000,-26.0,5.0,58.0,90.6934375,4.96,27.717793625000002,33.73
2021-07-06 15:34:12.289062500,-26.0,5.0,58.0,90.69242187500001,13.715,27.71827403125,33.73
2021-07-06 15:34:12.296875000,-26.0,5.0,58.0,90.69140625,22.47,27.7187544375,33.73
2021-07-06 15:34:12.304687500,-26.0,5.0,58.0,90.690390625,29.47,27.71923484375,33.73
2021-07-06 15:34:12.312500000,-26.0,5.0,58.0,90.689375,36.47,27.71971525,33.73
2021-07-06 15:34:12.320312500,-25.75,5.0,58.0,90.688359375,41.730000000000004,27.720195656250002,33.73
2021-07-06 15:34:12.328125000,-25.5,5.0,58.0,90.68734375,46.99,27.7206760625,33.73
2021-07-06 15:34:12.335937500,-25.25,5.0,58.0,90.686328125,50.625,27.72115646875,33.73
2021-07-06 15:34:12.343750000,-25.0,5.0,58.0,90.6853125,54.26,27.721636875,33.73
2021-07-06 15:34:12.351562500,-25.25,5.0,58.0,90.684296875,56.375,27.72211728125,33.73
2021-07-06 15:34:12.359375000,-25.5,5.0,58.0,90.68328125000001,58.49,27.722597687500002,33.73
2021-07-06 15:34:12.367187500,-25.75,5.0,58.0,90.682265625,59.185,27.72307809375,33.73
2021-07-06 15:34:12.375000000,-26.0,5.0,58.0,90.68125,59.88,27.723558500000003,33.73
2021-07-06 15:34:12.382812500,-26.0,5.0,58.0,90.680234375,59.31,27.72403890625,33.73
2021-07-06 15:34:12.390625000,-26.0,5.0,58.0,90.67921875,58.74,27.7245193125,33.73
2021-07-06 15:34:12.398437500,-26.0,5.0,58.0,90.678203125,57.215,27.724999718750002,33.73
2021-07-06 15:34:12.406250000,-26.0,5.0,58.0,90.6771875,55.69,27.725480125,33.73
2021-07-06 15:34:12.414062500,-25.75,5.0,58.0,90.676171875,53.69,27.725960531250003,33.73
2021-07-06 15:34:12.421875000,-25.5,5.0,58.0,90.67515625,51.69,27.7264409375,33.73
2021-07-06 15:34:12.429687500,-25.25,5.0,58.0,90.674140625,49.72,27.72692134375,33.73
2021-07-06 15:34:12.437500000,-25.0,5.0,58.0,90.673125,47.75,27.727401750000002,33.73
2021-07-06 15:34:12.445312500,-25.25,5.0,58.0,90.672109375,46.22,27.72788215625,33.73
2021-07-06 15:34:12.453125000,-25.5,5.0,58.0,90.67109375,44.69,27.728362562500003,33.73
2021-07-06 15:34:12.460937500,-25.75,5.0,58.0,90.670078125,43.805,27.72884296875,33.73
2021-07-06 15:34:12.468750000,-26.0,5.0,58.0,90.6690625,42.92,27.729323375,33.73
2021-07-06 15:34:12.476562500,-26.0,5.0,58.0,90.668046875,42.625,27.729803781250002,33.73
2021-07-06 15:34:12.484375000,-26.0,5.0,58.0,90.66703125,42.33,27.7302841875,33.73
2021-07-06 15:34:12.492187500,-26.0,5.0,58.0,90.666015625,42.4,27.730764593750003,33.73
2021-07-06 15:34:12.500000000,-26.0,5.0,58.0,90.66499999999999,42.47,27.731245,33.73
2021-07-06 15:34:12.507812500,-26.0,5.0,58.0,90.663984375,42.595,27.733406875,33.73
2021-07-06 15:34:12.515625000,-26.0,5.0,58.0,90.66296875,42.72,27.735568750000002,33.73
2021-07-06 15:34:12.523437500,-26.0,5.0,58.0,90.661953125,42.67,27.737730625,33.73
2021-07-06 15:34:12.531250000,-26.0,5.0,58.0,90.6609375,42.62,27.7398925,33.73
2021-07-06 15:34:12.539062500,-26.0,5.0,58.0,90.659921875,42.32,27.742054375000002,33.73
2021-07-06 15:34:12.546875000,-26.0,5.0,58.0,90.65890625,42.02,27.74421625,33.73
2021-07-06 15:34:12.554687500,-26.0,5.0,58.0,90.657890625,41.53,27.746378125,33.73
2021-07-06 15:34:12.562500000,-26.0,5.0,58.0,90.656875,41.04,27.748540000000002,33.73
2021-07-06 15:34:12.570312500,-25.75,5.0,58.0,90.65585937499999,40.46,27.750701875,33.73
2021-07-06 15:34:12.578125000,-25.5,5.0,58.0,90.65484375,39.88,27.75286375,33.73
2021-07-06 15:34:12.585937500,-25.25,5.0,58.0,90.653828125,39.255,27.755025625000002,33.73
2021-07-06 15:34:12.593750000,-25.0,5.0,58.0,90.6528125,38.63,27.7571875,33.73
2021-07-06 15:34:12.601562500,-25.0,5.0,58.0,90.651796875,37.875,27.759349375,33.73
2021-07-06 15:34:12.609375000,-25.0,5.0,58.0,90.65078125,37.12,27.76151125,33.73
2021-07-06 15:34:12.617187500,-25.0,5.0,58.0,90.649765625,36.0,27.763673125,33.73
2021-07-06 15:34:12.625000000,-25.0,5.0,58.0,90.64874999999999,34.88,27.765835000000003,33.73
2021-07-06 15:34:12.632812500,-25.25,5.0,58.0,90.647734375,33.09,27.767996875,33.73
2021-07-06 15:34:12.640625000,-25.5,5.0,58.0,90.64671874999999,31.3,27.77015875,33.73
2021-07-06 15:34:12.648437500,-25.75,5.0,58.0,90.645703125,28.6,27.772320625000003,33.73
2021-07-06 15:34:12.656250000,-26.0,5.0,58.0,90.6446875,25.9,27.7744825,33.73
2021-07-06 15:34:12.664062500,-25.75,5.0,58.0,90.643671875,22.205,27.776644375,33.73
2021-07-06 15:34:12.671875000,-25.5,5.0,58.0,90.64265625,18.51,27.778806250000002,33.73
2021-07-06 15:34:12.679687500,-25.25,5.0,58.0,90.641640625,14.010000000000002,27.780968125,33.73
2021-07-06 15:34:12.687500000,-25.0,5.0,58.0,90.640625,9.51,27.78313,33.73
2021-07-06 15:34:12.695312500,-25.0,5.0,58.0,90.63960937499999,4.575,27.785291875000002,33.73
2021-07-06 15:34:12.703125000,-25.0,5.0,58.0,90.63859375,-0.36,27.78745375,33.73
2021-07-06 15:34:12.710937500,-25.0,5.0,58.0,90.63757812499999,-5.235,27.789615625,33.73
2021-07-06 15:34:12.718750000,-25.0,5.0,58.0,90.6365625,-10.11,27.791777500000002,33.73
2021-07-06 15:34:12.726562500,-25.25,5.0,58.0,90.635546875,-14.51,27.793939375,33.73
2021-07-06 15:34:12.734375000,-25.5,5.0,58.0,90.63453125,-18.91,27.79610125,33.73
2021-07-06 15:34:12.742187500,-25.75,5.0,58.0,90.633515625,-22.634999999999998,27.798263125000002,33.73
2021-07-06 15:34:12.750000000,-26.0,5.0,58.0,90.6325,-26.36,27.800425,33.73
2021-07-06 15:34:12.757812500,-25.75,5.0,58.0,90.631484375,-29.475,27.80086540625,33.73
2021-07-06 15:34:12.765625000,-25.5,5.0,58.0,90.63046874999999,-32.59,27.8013058125,33.73
2021-07-06 15:34:12.773437500,-25.25,5.0,58.0,90.629453125,-35.400000000000006,27.80174621875,33.73
2021-07-06 15:34:12.781250000,-25.0,5.0,58.0,90.62843749999999,-38.21,27.802186625,33.73
2021-07-06 15:34:12.789062500,-25.0,5.0,58.0,90.627421875,-41.2,27.80262703125,33.73
2021-07-06 15:34:12.796875000,-25.0,5.0,58.0,90.62640625,-44.19,27.8030674375,33.73
2021-07-06 15:34:12.804687500,-25.0,5.0,58.0,90.625390625,-47.834999999999994,27.80350784375,33.73
2021-07-06 15:34:12.812500000,-25.0,5.0,58.0,90.624375,-51.48,27.80394825,33.73
2021-07-06 15:34:12.820312500,-25.0,5.0,58.0,90.62335937499999,-56.095,27.80438865625,33.73
2021-07-06 15:34:12.828125000,-25.0,5.0,58.0,90.62234375,-60.71,27.8048290625,33.73
2021-07-06 15:34:12.835937500,-25.0,5.0,58.0,90.62132812499999,-66.295,27.80526946875,33.73
2021-07-06 15:34:12.843750000,-25.0,5.0,58.0,90.6203125,-71.88,27.805709875,33.73
2021-07-06 15:34:12.851562500,-25.0,5.0,58.0,90.61929687499999,-77.94999999999999,27.80615028125,33.73
2021-07-06 15:34:12.859375000,-25.0,5.0,58.0,90.61828125,-84.02,27.8065906875,33.73
2021-07-06 15:34:12.867187500,-25.0,5.0,58.0,90.617265625,-89.63,27.807031093750002,33.73
2021-07-06 15:34:12.875000000,-25.0,5.0,58.0,90.61625,-95.24,27.8074715,33.73
2021-07-06 15:34:12.882812500,-25.0,5.0,58.0,90.615234375,-99.14,27.80791190625,33.73
2021-07-06 15:34:12.890625000,-25.0,5.0,58.0,90.61421874999999,-103.04,27.8083523125,33.73
2021-07-06 15:34:12.898437500,-25.0,5.0,58.0,90.613203125,-103.97,27.80879271875,33.73
2021-07-06 15:34:12.906250000,-25.0,5.0,58.0,90.61218749999999,-104.9,27.809233125,33.73
2021-07-06 15:34:12.914062500,-25.25,5.0,58.0,90.611171875,-102.035,27.80967353125,33.73
2021-07-06 15:34:12.921875000,-25.5,5.0,58.0,90.61015624999999,-99.17,27.8101139375,33.73
2021-07-06 15:34:12.929687500,-25.75,5.0,58.0,90.609140625,-92.37,27.81055434375,33.73
2021-07-06 15:34:12.937500000,-26.0,5.0,58.0,90.608125,-85.57,27.81099475,33.73
2021-07-06 15:34:12.945312500,-26.0,5.0,58.0,90.607109375,-75.495,27.81143515625,33.73
2021-07-06 15:34:12.953125000,-26.0,5.0,58.0,90.60609375,-65.42,27.8118755625,33.73
2021-07-06 15:34:12.960937500,-26.0,5.0,58.0,90.60507812499999,-53.325,27.81231596875,33.73
2021-07-06 15:34:12.968750000,-26.0,5.0,58.0,90.6040625,-41.23,27.812756375,33.73
2021-07-06 15:34:12.976562500,-25.75,5.0,58.0,90.60304687499999,-28.57,27.81319678125,33.73
2021-07-06 15:34:12.984375000,-25.5,5.0,58.0,90.60203125,-15.91,27.8136371875,33.73
2021-07-06 15:34:12.992187500,-25.25,5.0,58.0,90.60101562499999,-3.9800000000000004,27.81407759375,33.73
2021-07-06 15:34:13.000000000,-25.0,5.0,58.0,90.6,7.95,27.814518,33.73
2021-07-06 15:34:13.007812500,-25.0,5.0,58.0,90.598828125,18.285,27.814918312499998,33.730624999999996
2021-07-06 15:34:13.015625000,-25.0,5.0,58.0,90.59765625,28.62,27.815318625,33.731249999999996
2021-07-06 15:34:13.023437500,-25.0,5.0,58.0,90.59648437499999,36.96,27.8157189375,33.731874999999995
2021-07-06 15:34:13.031250000,-25.0,5.0,58.0,90.59531249999999,45.3,27.81611925,33.732499999999995
2021-07-06 15:34:13.039062500,-25.0,5.0,58.0,90.594140625,51.57,27.816519562499998,33.733124999999994
2021-07-06 15:34:13.046875000,-25.0,5.0,58.0,90.59296875,57.84,27.816919875,33.73375
2021-07-06 15:34:13.054687500,-25.0,5.0,58.0,90.591796875,62.190000000000005,27.817320187500002,33.734375
2021-07-06 15:34:13.062500000,-25.0,5.0,58.0,90.59062499999999,66.54,27.8177205,33.735
2021-07-06 15:34:13.070312500,-25.25,5.0,58.0,90.58945312499999,69.165,27.8181208125,33.735625
2021-07-06 15:34:13.078125000,-25.5,5.0,58.0,90.58828125,71.79,27.818521125,33.73625
2021-07-06 15:34:13.085937500,-25.75,5.0,58.0,90.587109375,72.92500000000001,27.818921437500002,33.736875
2021-07-06 15:34:13.093750000,-26.0,5.0,58.0,90.5859375,74.06,27.81932175,33.7375
2021-07-06 15:34:13.101562500,-25.75,5.0,58.0,90.58476562499999,73.97,27.8197220625,33.738125
2021-07-06 15:34:13.109375000,-25.5,5.0,58.0,90.58359374999999,73.88,27.820122375,33.738749999999996
2021-07-06 15:34:13.117187500,-25.25,5.0,58.0,90.582421875,72.875,27.820522687500002,33.739374999999995
2021-07-06 15:34:13.125000000,-25.0,5.0,58.0,90.58125,71.87,27.820923,33.739999999999995
2021-07-06 15:34:13.132812500,-25.0,5.0,58.0,90.580078125,70.30000000000001,27.8213233125,33.740625
2021-07-06 15:34:13.140625000,-25.0,5.0,58.0,90.57890624999999,68.73,27.821723625,33.74125
2021-07-06 15:34:13.148437500,-25.0,5.0,58.0,90.57773437499999,66.95,27.822123937500002,33.741875
2021-07-06 15:34:13.156250000,-25.0,5.0,58.0,90.5765625,65.17,27.82252425,33.7425
2021-07-06 15:34:13.164062500,-25.0,5.0,58.0,90.575390625,63.505,27.8229245625,33.743125
2021-07-06 15:34:13.171875000,-25.0,5.0,58.0,90.57421875,61.84,27.823324875,33.74375
2021-07-06 15:34:13.179687500,-25.0,5.0,58.0,90.573046875,60.525000000000006,27.823725187500003,33.744375
2021-07-06 15:34:13.187500000,-25.0,5.0,58.0,90.57187499999999,59.21,27.8241255,33.745
2021-07-06 15:34:13.195312500,-25.25,5.0,58.0,90.570703125,58.355000000000004,27.8245258125,33.745625
2021-07-06 15:34:13.203125000,-25.5,5.0,58.0,90.56953125,57.5,27.824926125,33.746249999999996
2021-07-06 15:34:13.210937500,-25.75,5.0,58.0,90.568359375,57.045,27.825326437500003,33.746875
2021-07-06 15:34:13.218750000,-26.0,5.0,58.0,90.5671875,56.59,27.82572675,33.7475
2021-07-06 15:34:13.226562500,-26.0,5.0,58.0,90.56601562499999,56.38,27.8261270625,33.748125
2021-07-06 15:34:13.234375000,-26.0,5.0,58.0,90.56484375,56.17,27.826527375,33.74875
2021-07-06 15:34:13.242187500,-26.0,5.0,58.0,90.563671875,55.97,27.826927687500003,33.749375
2021-07-06 15:34:13.250000000,-26.0,5.0,58.0,90.5625,55.77,27.827328,33.75
2021-07-06 15:34:13.257812500,-25.75,5.0,58.0,90.561328125,55.385000000000005,27.82744809375,33.75
2021-07-06 15:34:13.265625000,-25.5,5.0,58.0,90.56015624999999,55.0,27.827568187500002,33.75
2021-07-06 15:34:13.273437500,-25.25,5.0,58.0,90.558984375,54.34,27.82768828125,33.75
2021-07-06 15:34:13.281250000,-25.0,5.0,58.0,90.5578125,53.68,27.827808375,33.75
2021-07-06 15:34:13.289062500,-25.0,5.0,58.0,90.556640625,52.765,27.827928468750002,33.75
2021-07-06 15:34:13.296875000,-25.0,5.0,58.0,90.55546875,51.85,27.8280485625,33.75
2021-07-06 15:34:13.304687500,-25.0,5.0,58.0,90.55429687499999,50.760000000000005,27.82816865625,33.75
2021-07-06 15:34:13.312500000,-25.0,5.0,58.0,90.553125,49.67,27.828288750000002,33.75
2021-07-06 15:34:13.320312500,-25.0,5.0,58.0,90.551953125,48.445,27.82840884375,33.75
2021-07-06 15:34:13.328125000,-25.0,5.0,58.0,90.55078125,47.22,27.8285289375,33.75
2021-07-06 15:34:13.335937500,-25.0,5.0,58.0,90.549609375,45.805,27.828649031250002,33.75
2021-07-06 15:34:13.343750000,-25.0,5.0,58.0,90.54843749999999,44.39,27.828769125,33.75
2021-07-06 15:34:13.351562500,-25.25,5.0,58.0,90.547265625,42.56,27.82888921875,33.75
2021-07-06 15:34:13.359375000,-25.5,5.0,58.0,90.54609375,40.73,27.829009312500002,33.75
2021-07-06 15:34:13.367187500,-25.75,5.0,58.0,90.544921875,38.2,27.82912940625,33.75
2021-07-06 15:34:13.375000000,-26.0,5.0,58.0,90.54375,35.67,27.829249500000003,33.75
2021-07-06 15:34:13.382812500,-25.75,5.0,58.0,90.54257812499999,32.22,27.829369593750002,33.75
2021-07-06 15:34:13.390625000,-25.5,5.0,58.0,90.54140625,28.77,27.8294896875,33.75
2021-07-06 15:34:13.398437500,-25.25,5.0,58.0,90.540234375,24.384999999999998,27.829609781250003,33.75
2021-07-06 15:34:13.406250000,-25.0,5.0,58.0,90.5390625,20.0,27.829729875,33.75
2021-07-06 15:34:13.414062500,-25.25,5.0,58.0,90.537890625,14.95,27.82984996875,33.75
2021-07-06 15:34:13.421875000,-25.5,5.0,58.0,90.53671874999999,9.9,27.829970062500003,33.75
2021-07-06 15:34:13.429687500,-25.75,5.0,58.0,90.535546875,4.665,27.83009015625,33.75
2021-07-06 15:34:13.437500000,-26.0,5.0,58.0,90.534375,-0.57,27.83021025,33.75
2021-07-06 15:34:13.445312500,-26.0,5.0,58.0,90.533203125,-5.465,27.830330343750003,33.75
2021-07-06 15:34:13.453125000,-26.0,5.0,58.0,90.53203125,-10.36,27.8304504375,33.75
2021-07-06 15:34:13.460937500,-26.0,5.0,58.0,90.53085937499999,-14.53,27.83057053125,33.75
2021-07-06 15:34:13.468750000,-26.0,5.0,58.0,90.5296875,-18.7,27.830690625000003,33.75
2021-07-06 15:34:13.476562500,-26.0,5.0,58.0,90.528515625,-22.064999999999998,27.83081071875,33.75
2021-07-06 15:34:13.484375000,-26.0,5.0,58.0,90.52734375,-25.43,27.8309308125,33.75
2021-07-06 15:34:13.492187500,-26.0,5.0,58.0,90.526171875,-28.235,27.831050906250002,33.75
2021-07-06 15:34:13.500000000,-26.0,5.0,58.0,90.525,-31.04,27.831171,33.75
2021-07-06 15:34:13.507812500,-26.0,5.0,58.0,90.523828125,-33.745000000000005,27.831131000000003,33.75
2021-07-06 15:34:13.515625000,-26.0,5.0,58.0,90.52265625,-36.45,27.831091,33.75
2021-07-06 15:34:13.523437500,-26.0,5.0,58.0,90.521484375,-39.59,27.831051000000002,33.75
2021-07-06 15:34:13.531250000,-26.0,5.0,58.0,90.5203125,-42.73,27.831011,33.75
2021-07-06 15:34:13.539062500,-26.0,5.0,58.0,90.519140625,-46.769999999999996,27.830971,33.75
2021-07-06 15:34:13.546875000,-26.0,5.0,58.0,90.51796875,-50.81,27.830931,33.75
2021-07-06 15:34:13.554687500,-26.0,5.0,58.0,90.516796875,-55.945,27.830891,33.75
2021-07-06 15:34:13.562500000,-26.0,5.0,58.0,90.515625,-61.08,27.830851000000003,33.75
2021-07-06 15:34:13.570312500,-26.0,5.0,58.0,90.514453125,-67.13,27.830811,33.75
2021-07-06 15:34:13.578125000,-26.0,5.0,58.0,90.51328125,-73.18,27.830771000000002,33.75
2021-07-06 15:34:13.585937500,-26.0,5.0,58.0,90.512109375,-79.465,27.830731,33.75
2021-07-06 15:34:13.593750000,-26.0,5.0,58.0,90.5109375,-85.75,27.830691,33.75
2021-07-06 15:34:13.601562500,-25.75,5.0,58.0,90.509765625,-91.14,27.830651,33.75
2021-07-06 15:34:13.609375000,-25.5,5.0,58.0,90.50859375,-96.53,27.830611,33.75
2021-07-06 15:34:13.617187500,-25.25,5.0,58.0,90.507421875,-99.675,27.830571,33.75
2021-07-06 15:34:13.625000000,-25.0,5.0,58.0,90.50625,-102.82,27.830531,33.75
2021-07-06 15:34:13.632812500,-25.25,5.0,58.0,90.505078125,-102.49,27.830491000000002,33.75
2021-07-06 15:34:13.640625000,-25.5,5.0,58.0,90.50390625,-102.16,27.830451,33.75
2021-07-06 15:34:13.648437500,-25.75,5.0,58.0,90.502734375,-97.675,27.830411,33.75
2021-07-06 15:34:13.656250000,-26.0,5.0,58.0,90.5015625,-93.19,27.830371,33.75
2021-07-06 15:34:13.664062500,-26.0,5.0,58.0,90.500390625,-84.69,27.830331,33.75
2021-07-06 15:34:13.671875000,-26.0,5.0,58.0,90.49921875,-76.19,27.830291,33.75
2021-07-06 15:34:13.679687500,-26.0,5.0,58.0,90.498046875,-64.66,27.830251,33.75
2021-07-06 15:34:13.687500000,-26.0,5.0,58.0,90.496875,-53.13,27.830211,33.75
2021-07-06 15:34:13.695312500,-26.0,5.0,58.0,90.495703125,-40.075,27.830171,33.75
2021-07-06 15:34:13.703125000,-26.0,5.0,58.0,90.49453125,-27.02,27.830131,33.75
2021-07-06 15:34:13.710937500,-26.0,5.0,58.0,90.493359375,-14.045,27.830091,33.75
2021-07-06 15:34:13.718750000,-26.0,5.0,58.0,90.4921875,-1.07,27.830051,33.75
2021-07-06 15:34:13.726562500,-26.0,5.0,58.0,90.491015625,10.56,27.830011,33.75
2021-07-06 15:34:13.734375000,-26.0,5.0,58.0,90.48984375,22.19,27.829971,33.75
2021-07-06 15:34:13.742187500,-26.0,5.0,58.0,90.488671875,31.755000000000003,27.829931,33.75
2021-07-06 15:34:13.750000000,-26.0,5.0,58.0,90.4875,41.32,27.829891,33.75
2021-07-06 15:34:13.757812500,-26.0,5.0,58.0,90.486328125,48.64,27.8292504375,33.75
2021-07-06 15:34:13.765625000,-26.0,5.0,58.0,90.48515625,55.96,27.828609875,33.75
2021-07-06 15:34:13.773437500,-26.0,5.0,58.0,90.483984375,61.19500000000001,27.8279693125,33.75
2021-07-06 15:34:13.781250000,-26.0,5.0,58.0,90.4828125,66.43,27.82732875,33.75
2021-07-06 15:34:13.789062500,-26.0,5.0,58.0,90.481640625,69.86000000000001,27.8266881875,33.75
2021-07-06 15:34:13.796875000,-26.0,5.0,58.0,90.48046875,73.29,27.826047625,33.75
2021-07-06 15:34:13.804687500,-26.0,5.0,58.0,90.479296875,75.18,27.8254070625,33.75
2021-07-06 15:34:13.812500000,-26.0,5.0,58.0,90.478125,77.07,27.8247665,33.75
2021-07-06 15:34:13.820312500,-25.75,5.0,58.0,90.476953125,77.595,27.8241259375,33.75
2021-07-06 15:34:13.828125000,-25.5,5.0,58.0,90.47578125,78.12,27.823485375,33.75
2021-07-06 15:34:13.835937500,-25.25,5.0,58.0,90.474609375,77.49000000000001,27.8228448125,33.75
2021-07-06 15:34:13.843750000,-25.0,5.0,58.0,90.4734375,76.86,27.82220425,33.75
2021-07-06 15:34:13.851562500,-25.25,5.0,58.0,90.472265625,75.35,27.8215636875,33.75
2021-07-06 15:34:13.859375000,-25.5,5.0,58.0,90.47109375000001,73.84,27.820923125,33.75
2021-07-06 15:34:13.867187500,-25.75,5.0,58.0,90.469921875,71.845,27.8202825625,33.75
2021-07-06 15:34:13.875000000,-26.0,5.0,58.0,90.46875,69.85,27.819642,33.75
2021-07-06 15:34:13.882812500,-26.0,5.0,58.0,90.467578125,67.835,27.8190014375,33.75
2021-07-06 15:34:13.890625000,-26.0,5.0,58.0,90.46640625,65.82,27.818360875,33.75
2021-07-06 15:34:13.898437500,-26.0,5.0,58.0,90.46523437500001,64.16,27.8177203125,33.75
2021-07-06 15:34:13.906250000,-26.0,5.0,58.0,90.4640625,62.5,27.81707975,33.75
2021-07-06 15:34:13.914062500,-26.0,5.0,58.0,90.462890625,61.415,27.8164391875,33.75
2021-07-06 15:34:13.921875000,-26.0,5.0,58.0,90.46171875,60.33,27.815798625,33.75
2021-07-06 15:34:13.929687500,-26.0,5.0,58.0,90.460546875,59.754999999999995,27.8151580625,33.75
2021-07-06 15:34:13.937500000,-26.0,5.0,58.0,90.45937500000001,59.18,27.8145175,33.75
2021-07-06 15:34:13.945312500,-26.0,5.0,58.0,90.458203125,58.855000000000004,27.8138769375,33.75
2021-07-06 15:34:13.953125000,-26.0,5.0,58.0,90.45703125,58.53,27.813236375,33.75
2021-07-06 15:34:13.960937500,-26.0,5.0,58.0,90.455859375,58.135000000000005,27.8125958125,33.75
2021-07-06 15:34:13.968750000,-26.0,5.0,58.0,90.4546875,57.74,27.81195525,33.75
2021-07-06 15:34:13.976562500,-26.0,5.25,58.0,90.45351562500001,57.085,27.8113146875,33.75
2021-07-06 15:34:13.984375000,-26.0,5.5,58.0,90.45234375,56.43,27.810674125,33.75
2021-07-06 15:34:13.992187500,-26.0,5.75,58.0,90.451171875,55.525,27.8100335625,33.75
2021-07-06 15:34:14.000000000,-26.0,6.0,58.0,90.45,54.62,27.809393,33.75
2021-07-06 15:34:14.007812500,-25.75,6.0,57.75,90.448671875,53.625,27.80951309375,33.75
2021-07-06 15:34:14.015625000,-25.5,6.0,57.5,90.44734375,52.63,27.8096331875,33.75
2021-07-06 15:34:14.023437500,-25.25,6.0,57.25,90.446015625,51.730000000000004,27.80975328125,33.75
2021-07-06 15:34:14.031250000,-25.0,6.0,57.0,90.4446875,50.83,27.809873375,33.75
2021-07-06 15:34:14.039062500,-25.25,5.75,57.25,90.443359375,50.04,27.80999346875,33.75
2021-07-06 15:34:14.046875000,-25.5,5.5,57.5,90.44203125,49.25,27.8101135625,33.75
2021-07-06 15:34:14.054687500,-25.75,5.25,57.75,90.440703125,48.34,27.81023365625,33.75
2021-07-06 15:34:14.062500000,-26.0,5.0,58.0,90.439375,47.43,27.81035375,33.75
2021-07-06 15:34:14.070312500,-26.0,5.0,58.0,90.438046875,45.995000000000005,27.81047384375,33.75
2021-07-06 15:34:14.078125000,-26.0,5.0,58.0,90.43671875,44.56,27.8105939375,33.75
2021-07-06 15:34:14.085937500,-26.0,5.0,58.0,90.435390625,42.185,27.81071403125,33.75
2021-07-06 15:34:14.093750000,-26.0,5.0,58.0,90.4340625,39.81,27.810834125,33.75
2021-07-06 15:34:14.101562500,-26.0,5.0,58.0,90.43273437500001,36.255,27.81095421875,33.75
2021-07-06 15:34:14.109375000,-26.0,5.0,58.0,90.43140625000001,32.7,27.8110743125,33.75
2021-07-06 15:34:14.117187500,-26.0,5.0,58.0,90.43007812500001,28.075000000000003,27.81119440625,33.75
2021-07-06 15:34:14.125000000,-26.0,5.0,58.0,90.42875000000001,23.45,27.8113145,33.75
2021-07-06 15:34:14.132812500,-26.0,5.0,58.0,90.42742187500001,18.145,27.81143459375,33.75
2021-07-06 15:34:14.140625000,-26.0,5.0,58.0,90.42609375,12.84,27.8115546875,33.75
2021-07-06 15:34:14.148437500,-26.0,5.0,58.0,90.424765625,7.445,27.81167478125,33.75
2021-07-06 15:34:14.156250000,-26.0,5.0,58.0,90.4234375,2.05,27.811794875,33.75
2021-07-06 15:34:14.164062500,-26.0,5.0,58.0,90.422109375,-2.8850000000000007,27.81191496875,33.75
2021-07-06 15:34:14.171875000,-26.0,5.0,58.0,90.42078125,-7.82,27.8120350625,33.75
2021-07-06 15:34:14.179687500,-26.0,5.0,58.0,90.419453125,-11.97,27.81215515625,33.75
2021-07-06 15:34:14.187500000,-26.0,5.0,58.0,90.418125,-16.12,27.81227525,33.75
2021-07-06 15:34:14.195312500,-26.0,5.0,58.0,90.416796875,-19.48,27.81239534375,33.75
2021-07-06 15:34:14.203125000,-26.0,5.0,58.0,90.41546875,-22.84,27.8125154375,33.75
2021-07-06 15:34:14.210937500,-26.0,5.0,58.0,90.414140625,-25.695,27.81263553125,33.75
2021-07-06 15:34:14.218750000,-26.0,5.0,58.0,90.4128125,-28.55,27.812755625,33.75
2021-07-06 15:34:14.226562500,-26.0,5.0,58.0,90.411484375,-31.369999999999997,27.81287571875,33.75
2021-07-06 15:34:14.234375000,-26.0,5.0,58.0,90.41015625,-34.19,27.8129958125,33.75
2021-07-06 15:34:14.242187500,-26.0,5.0,58.0,90.408828125,-37.474999999999994,27.81311590625,33.75
2021-07-06 15:34:14.250000000,-26.0,5.0,58.0,90.4075,-40.76,27.813236,33.75
2021-07-06 15:34:14.257812500,-26.0,5.0,58.0,90.406171875,-44.879999999999995,27.81411678125,33.75
2021-07-06 15:34:14.265625000,-26.0,5.0,58.0,90.40484375,-49.0,27.8149975625,33.75
2021-07-06 15:34:14.273437500,-26.0,5.0,58.0,90.403515625,-54.11,27.81587834375,33.75
2021-07-06 15:34:14.281250000,-26.0,5.0,58.0,90.4021875,-59.22,27.816759125,33.75
2021-07-06 15:34:14.289062500,-26.0,5.0,58.0,90.400859375,-65.08500000000001,27.81763990625,33.75
2021-07-06 15:34:14.296875000,-26.0,5.0,58.0,90.39953125,-70.95,27.8185206875,33.75
2021-07-06 15:34:14.304687500,-26.0,5.0,58.0,90.39820312500001,-76.88499999999999,27.81940146875,33.75
2021-07-06 15:34:14.312500000,-26.0,5.0,58.0,90.39687500000001,-82.82,27.820282249999998,33.75
2021-07-06 15:34:14.320312500,-26.0,5.0,58.0,90.39554687500001,-87.72,27.82116303125,33.75
2021-07-06 15:34:14.328125000,-26.0,5.0,58.0,90.39421875000001,-92.62,27.8220438125,33.75
2021-07-06 15:34:14.335937500,-26.0,5.0,58.0,90.392890625,-95.13,27.82292459375,33.75
2021-07-06 15:34:14.343750000,-26.0,5.0,58.0,90.3915625,-97.64,27.823805375,33.75
2021-07-06 15:34:14.351562500,-26.0,5.0,58.0,90.390234375,-96.58,27.82468615625,33.75
2021-07-06 15:34:14.359375000,-26.0,5.0,58.0,90.38890625,-95.52,27.8255669375,33.75
2021-07-06 15:34:14.367187500,-26.0,5.0,58.0,90.387578125,-90.28,27.82644771875,33.75
2021-07-06 15:34:14.375000000,-26.0,5.0,58.0,90.38625,-85.04,27.8273285,33.75
2021-07-06 15:34:14.382812500,-26.25,5.0,58.0,90.384921875,-75.89500000000001,27.82820928125,33.75
2021-07-06 15:34:14.390625000,-26.5,5.0,58.0,90.38359375,-66.75,27.8290900625,33.75
2021-07-06 15:34:14.398437500,-26.75,5.0,58.0,90.382265625,-54.83,27.82997084375,33.75
2021-07-06 15:34:14.406250000,-27.0,5.0,58.0,90.3809375,-42.91,27.830851625,33.75
2021-07-06 15:34:14.414062500,-26.75,5.0,58.0,90.379609375,-29.869999999999997,27.83173240625,33.75
2021-07-06 15:34:14.421875000,-26.5,5.0,58.0,90.37828125,-16.83,27.8326131875,33.75
2021-07-06 15:34:14.429687500,-26.25,5.0,58.0,90.376953125,-4.3149999999999995,27.833493968750002,33.75
2021-07-06 15:34:14.437500000,-26.0,5.0,58.0,90.375625,8.2,27.834374750000002,33.75
2021-07-06 15:34:14.445312500,-26.0,5.0,58.0,90.374296875,18.985,27.83525553125,33.75
2021-07-06 15:34:14.453125000,-26.0,5.0,58.0,90.37296875,29.77,27.8361363125,33.75
2021-07-06 15:34:14.460937500,-26.0,5.0,58.0,90.371640625,38.22,27.83701709375,33.75
2021-07-06 15:34:14.468750000,-26.0,5.0,58.0,90.3703125,46.67,27.837897875,33.75
2021-07-06 15:34:14.476562500,-26.0,5.0,58.0,90.368984375,52.71,27.83877865625,33.75
2021-07-06 15:34:14.484375000,-26.0,5.0,58.0,90.36765625,58.75,27.8396594375,33.75
2021-07-06 15:34:14.492187500,-26.0,5.0,58.0,90.366328125,62.595,27.84054021875,33.75
2021-07-06 15:34:14.500000000,-26.0,5.0,58.0,90.36500000000001,66.44,27.841421,33.75
2021-07-06 15:34:14.507812500,-26.0,5.0,58.0,90.36367187500001,68.32499999999999,27.84286225,33.75
2021-07-06 15:34:14.515625000,-26.0,5.0,58.0,90.36234375000001,70.21,27.8443035,33.75
2021-07-06 15:34:14.523437500,-26.0,5.0,58.0,90.36101562500001,70.375,27.84574475,33.75
2021-07-06 15:34:14.531250000,-26.0,5.0,58.0,90.3596875,70.54,27.847186,33.75
2021-07-06 15:34:14.539062500,-26.0,5.0,58.0,90.358359375,69.26,27.84862725,33.75
2021-07-06 15:34:14.546875000,-26.0,5.0,58.0,90.35703125,67.98,27.8500685,33.75
2021-07-06 15:34:14.554687500,-26.0,5.0,58.0,90.355703125,65.64,27.85150975,33.75
2021-07-06 15:34:14.562500000,-26.0,5.0,58.0,90.354375,63.3,27.852951,33.75
2021-07-06 15:34:14.570312500,-26.0,5.0,58.0,90.353046875,60.425,27.85439225,33.75
2021-07-06 15:34:14.578125000,-26.0,5.0,58.0,90.35171875,57.55,27.8558335,33.75
2021-07-06 15:34:14.585937500,-26.0,5.0,58.0,90.350390625,54.724999999999994,27.85727475,33.75
2021-07-06 15:34:14.593750000,-26.0,5.0,58.0,90.3490625,51.9,27.858716,33.75
2021-07-06 15:34:14.601562500,-26.0,5.0,58.0,90.347734375,49.57,27.86015725,33.75
2021-07-06 15:34:14.609375000,-26.0,5.0,58.0,90.34640625,47.24,27.8615985,33.75
2021-07-06 15:34:14.617187500,-26.0,5.0,58.0,90.345078125,45.615,27.86303975,33.75
2021-07-06 15:34:14.625000000,-26.0,5.0,58.0,90.34375,43.99,27.864480999999998,33.75
2021-07-06 15:34:14.632812500,-26.0,5.0,58.0,90.342421875,43.0,27.86592225,33.75
2021-07-06 15:34:14.640625000,-26.0,5.0,58.0,90.34109375,42.01,27.8673635,33.75
2021-07-06 15:34:14.648437500,-26.0,5.0,58.0,90.339765625,41.43,27.86880475,33.75
2021-07-06 15:34:14.656250000,-26.0,5.0,58.0,90.3384375,40.85,27.870245999999998,33.75
2021-07-06 15:34:14.664062500,-26.0,5.0,58.0,90.337109375,40.385000000000005,27.87168725,33.75
2021-07-06 15:34:14.671875000,-26.0,5.0,58.0,90.33578125,39.92,27.8731285,33.75
2021-07-06 15:34:14.679687500,-26.0,5.0,58.0,90.334453125,39.43,27.87456975,33.75
2021-07-06 15:34:14.687500000,-26.0,5.0,58.0,90.333125,38.94,27.876011,33.75
2021-07-06 15:34:14.695312500,-26.0,5.0,58.0,90.331796875,38.415,27.877452249999997,33.75
2021-07-06 15:34:14.703125000,-26.0,5.0,58.0,90.33046875000001,37.89,27.8788935,33.75
2021-07-06 15:34:14.710937500,-26.0,5.0,58.0,90.32914062500001,37.465,27.88033475,33.75
2021-07-06 15:34:14.718750000,-26.0,5.0,58.0,90.32781250000001,37.04,27.881776,33.75
2021-07-06 15:34:14.726562500,-26.0,5.0,58.0,90.326484375,36.835,27.883217249999998,33.75
2021-07-06 15:34:14.734375000,-26.0,5.0,58.0,90.32515625,36.63,27.8846585,33.75
2021-07-06 15:34:14.742187500,-26.0,5.0,58.0,90.323828125,36.63,27.88609975,33.75
2021-07-06 15:34:14.750000000,-26.0,5.0,58.0,90.3225,36.63,27.887541,33.75
2021-07-06 15:34:14.757812500,-26.0,5.0,58.0,90.321171875,36.61,27.888181499999998,33.75
2021-07-06 15:34:14.765625000,-26.0,5.0,58.0,90.31984375,36.59,27.888821999999998,33.75
2021-07-06 15:34:14.773437500,-26.0,5.0,58.0,90.318515625,36.135000000000005,27.8894625,33.75
2021-07-06 15:34:14.781250000,-26.0,5.0,58.0,90.3171875,35.68,27.890103,33.75
2021-07-06 15:34:14.789062500,-26.0,5.0,58.0,90.315859375,34.375,27.8907435,33.75
2021-07-06 15:34:14.796875000,-26.0,5.0,58.0,90.31453125,33.07,27.891384,33.75
2021-07-06 15:34:14.804687500,-26.0,5.0,58.0,90.313203125,30.645,27.892024499999998,33.75
2021-07-06 15:34:14.812500000,-26.0,5.0,58.0,90.311875,28.22,27.892665,33.75
2021-07-06 15:34:14.820312500,-26.0,5.0,58.0,90.310546875,24.689999999999998,27.8933055,33.75
2021-07-06 15:34:14.828125000,-26.0,5.0,58.0,90.30921875,21.16,27.893946,33.75
2021-07-06 15:34:14.835937500,-26.0,5.0,58.0,90.307890625,16.84,27.8945865,33.75
2021-07-06 15:34:14.843750000,-26.0,5.0,58.0,90.3065625,12.52,27.895227,33.75
2021-07-06 15:34:14.851562500,-26.0,5.0,58.0,90.305234375,7.895,27.895867499999998,33.75
2021-07-06 15:34:14.859375000,-26.0,5.0,58.0,90.30390625,3.27,27.896508,33.75
2021-07-06 15:34:14.867187500,-26.0,5.0,58.0,90.302578125,-1.1750000000000003,27.8971485,33.75
2021-07-06 15:34:14.875000000,-26.0,5.0,58.0,90.30125,-5.62,27.897789,33.75
2021-07-06 15:34:14.882812500,-26.0,5.0,58.0,90.299921875,-9.58,27.8984295,33.75
2021-07-06 15:34:14.890625000,-26.0,5.0,58.0,90.29859375,-13.54,27.89907,33.75
2021-07-06 15:34:14.898437500,-26.0,5.0,58.0,90.297265625,-16.935,27.8997105,33.75
2021-07-06 15:34:14.906250000,-26.0,5.0,58.0,90.29593750000001,-20.33,27.900351,33.75
2021-07-06 15:34:14.914062500,-26.0,5.0,58.0,90.29460937500001,-23.36,27.9009915,33.75
2021-07-06 15:34:14.921875000,-26.0,5.0,58.0,90.29328125,-26.39,27.901632,33.75
2021-07-06 15:34:14.929687500,-26.0,5.0,58.0,90.291953125,-29.415,27.9022725,33.75
2021-07-06 15:34:14.937500000,-26.0,5.0,58.0,90.290625,-32.44,27.902912999999998,33.75
2021-07-06 15:34:14.945312500,-26.0,5.0,58.0,90.289296875,-35.925,27.9035535,33.75
2021-07-06 15:34:14.953125000,-26.0,5.0,58.0,90.28796875,-39.41,27.904194,33.75
2021-07-06 15:34:14.960937500,-26.0,5.0,58.0,90.286640625,-43.715,27.9048345,33.75
2021-07-06 15:34:14.968750000,-26.0,5.0,58.0,90.2853125,-48.02,27.905475,33.75
2021-07-06 15:34:14.976562500,-26.0,5.0,58.0,90.283984375,-53.25,27.9061155,33.75
2021-07-06 15:34:14.984375000,-26.0,5.0,58.0,90.28265625,-58.48,27.906756,33.75
2021-07-06 15:34:14.992187500,-26.0,5.0,58.0,90.281328125,-64.265,27.9073965,33.75
2021-07-06 15:34:15.000000000,-26.0,5.0,58.0,90.28,-70.05,27.908037,33.75
2021-07-06 15:34:15.007812500,-26.0,5.0,58.0,90.2784375,-75.505,27.90423375,33.750625
2021-07-06 15:34:15.015625000,-26.0,5.0,58.0,90.276875,-80.96,27.9004305,33.75125
2021-07-06 15:34:15.023437500,-26.0,5.0,58.0,90.2753125,-84.82499999999999,27.89662725,33.751875
2021-07-06 15:34:15.031250000,-26.0,5.0,58.0,90.27375,-88.69,27.892824,33.7525
2021-07-06 15:34:15.039062500,-25.75,5.0,58.0,90.2721875,-89.655,27.88902075,33.753125
2021-07-06 15:34:15.046875000,-25.5,5.0,58.0,90.270625,-90.62,27.8852175,33.753750000000004
2021-07-06 15:34:15.054687500,-25.25,5.0,58.0,90.2690625,-87.80000000000001,27.88141425,33.754375
2021-07-06 15:34:15.062500000,-25.0,5.0,58.0,90.2675,-84.98,27.877611,33.755
2021-07-06 15:34:15.070312500,-25.25,5.0,58.0,90.2659375,-78.25,27.87380775,33.755625
2021-07-06 15:34:15.078125000,-25.5,5.0,58.0,90.264375,-71.52,27.8700045,33.75625
2021-07-06 15:34:15.085937500,-25.75,5.0,58.0,90.2628125,-61.64,27.86620125,33.756875
2021-07-06 15:34:15.093750000,-26.0,5.0,58.0,90.26125,-51.76,27.862398,33.7575
2021-07-06 15:34:15.101562500,-26.0,5.0,58.0,90.2596875,-40.144999999999996,27.858594749999998,33.758125
2021-07-06 15:34:15.109375000,-26.0,5.0,58.0,90.258125,-28.53,27.8547915,33.75875
2021-07-06 15:34:15.117187500,-26.0,5.0,58.0,90.2565625,-16.835,27.85098825,33.759375
2021-07-06 15:34:15.125000000,-26.0,5.0,58.0,90.255,-5.14,27.847185,33.760000000000005
2021-07-06 15:34:15.132812500,-26.0,5.0,58.0,90.2534375,5.235,27.84338175,33.760625000000005
2021-07-06 15:34:15.140625000,-26.0,5.0,58.0,90.251875,15.61,27.8395785,33.761250000000004
2021-07-06 15:34:15.148437500,-26.0,5.0,58.0,90.2503125,23.835,27.83577525,33.761875
2021-07-06 15:34:15.156250000,-26.0,5.0,58.0,90.24875,32.06,27.831972,33.7625
2021-07-06 15:34:15.164062500,-26.0,5.0,58.0,90.2471875,37.905,27.82816875,33.763125
2021-07-06 15:34:15.171875000,-26.0,5.0,58.0,90.245625,43.75,27.8243655,33.76375
2021-07-06 15:34:15.179687500,-26.0,5.0,58.0,90.2440625,47.45,27.82056225,33.764375
2021-07-06 15:34:15.187500000,-26.0,5.0,58.0,90.2425,51.15,27.816758999999998,33.765
2021-07-06 15:34:15.195312500,-25.75,5.0,58.0,90.2409375,53.099999999999994,27.81295575,33.765625
2021-07-06 15:34:15.203125000,-25.5,5.0,58.0,90.239375,55.05,27.8091525,33.76625
2021-07-06 15:34:15.210937500,-25.25,5.0,58.0,90.2378125,55.635,27.80534925,33.766875000000006
2021-07-06 15:34:15.218750000,-25.0,5.0,58.0,90.23625,56.22,27.801546,33.767500000000005
2021-07-06 15:34:15.226562500,-25.0,5.0,58.0,90.2346875,55.7,27.797742749999998,33.768125000000005
2021-07-06 15:34:15.234375000,-25.0,5.0,58.0,90.233125,55.18,27.7939395,33.768750000000004
2021-07-06 15:34:15.242187500,-25.0,5.0,58.0,90.2315625,53.705,27.79013625,33.769375000000004
2021-07-06 15:34:15.250000000,-25.0,5.0,58.0,90.23,52.23,27.786333,33.77
2021-07-06 15:34:15.257812500,-25.25,5.0,58.0,90.2284375,49.955,27.790976968749998,33.77
2021-07-06 15:34:15.265625000,-25.5,5.0,58.0,90.226875,47.68,27.7956209375,33.77
2021-07-06 15:34:15.273437500,-25.75,5.0,58.0,90.2253125,44.835,27.80026490625,33.77
2021-07-06 15:34:15.281250000,-26.0,5.0,58.0,90.22375,41.99,27.804908875,33.77
2021-07-06 15:34:15.289062500,-25.75,5.0,58.0,90.2221875,38.915000000000006,27.809552843749998,33.77
2021-07-06 15:34:15.296875000,-25.5,5.0,58.0,90.220625,35.84,27.8141968125,33.77
2021-07-06 15:34:15.304687500,-25.25,5.0,58.0,90.2190625,32.905,27.81884078125,33.77
2021-07-06 15:34:15.312500000,-25.0,5.0,58.0,90.2175,29.97,27.82348475,33.77
2021-07-06 15:34:15.320312500,-25.25,5.0,58.0,90.2159375,27.5,27.82812871875,33.77
2021-07-06 15:34:15.328125000,-25.5,5.0,58.0,90.214375,25.03,27.8327726875,33.77
2021-07-06 15:34:15.335937500,-25.75,5.0,58.0,90.2128125,23.21,27.83741665625,33.77
2021-07-06 15:34:15.343750000,-26.0,5.0,58.0,90.21125,21.39,27.842060625,33.77
2021-07-06 15:34:15.351562500,-26.0,5.0,58.0,90.2096875,20.235,27.84670459375,33.77
2021-07-06 15:34:15.359375000,-26.0,5.0,58.0,90.208125,19.08,27.8513485625,33.77
2021-07-06 15:34:15.367187500,-26.0,5.0,58.0,90.2065625,18.415,27.85599253125,33.77
2021-07-06 15:34:15.375000000,-26.0,5.0,58.0,90.205,17.75,27.8606365,33.77
2021-07-06 15:34:15.382812500,-26.0,5.0,58.0,90.2034375,17.314999999999998,27.86528046875,33.77
2021-07-06 15:34:15.390625000,-26.0,5.0,58.0,90.201875,16.88,27.8699244375,33.77
2021-07-06 15:34:15.398437500,-26.0,5.0,58.0,90.2003125,16.4,27.87456840625,33.77
2021-07-06 15:34:15.406250000,-26.0,5.0,58.0,90.19875,15.92,27.879212375,33.77
2021-07-06 15:34:15.414062500,-26.0,5.0,58.0,90.1971875,15.18,27.88385634375,33.77
2021-07-06 15:34:15.421875000,-26.0,5.0,58.0,90.195625,14.44,27.8885003125,33.77
2021-07-06 15:34:15.429687500,-26.0,5.0,58.0,90.1940625,13.355,27.89314428125,33.77
2021-07-06 15:34:15.437500000,-26.0,5.0,58.0,90.1925,12.27,27.89778825,33.77
2021-07-06 15:34:15.445312500,-26.0,5.0,58.0,90.1909375,10.84,27.90243221875,33.77
2021-07-06 15:34:15.453125000,-26.0,5.0,58.0,90.189375,9.41,27.9070761875,33.77
2021-07-06 15:34:15.460937500,-26.0,5.0,58.0,90.1878125,7.715,27.911720156250002,33.77
2021-07-06 15:34:15.468750000,-26.0,5.0,58.0,90.18625,6.02,27.916364125,33.77
2021-07-06 15:34:15.476562500,-26.0,5.0,58.0,90.1846875,4.145,27.92100809375,33.77
2021-07-06 15:34:15.484375000,-26.0,5.0,58.0,90.183125,2.27,27.9256520625,33.77
2021-07-06 15:34:15.492187500,-26.0,5.0,58.0,90.1815625,0.28,27.930296031250002,33.77
2021-07-06 15:34:15.500000000,-26.0,5.0,58.0,90.18,-1.71,27.93494,33.77
2021-07-06 15:34:15.507812500,-26.0,5.0,58.0,90.1784375,-3.82,27.934459593750002,33.77
2021-07-06 15:34:15.515625000,-26.0,5.0,58.0,90.176875,-5.93,27.9339791875,33.77
2021-07-06 15:34:15.523437500,-26.0,5.0,58.0,90.1753125,-8.21,27.93349878125,33.77
2021-07-06 15:34:15.531250000,-26.0,5.0,58.0,90.17375,-10.49,27.933018375,33.77
2021-07-06 15:34:15.539062500,-26.0,5.0,58.0,90.17218749999999,-13.05,27.93253796875,33.77
2021-07-06 15:34:15.546875000,-26.0,5.0,58.0,90.170625,-15.61,27.932057562500002,33.77
2021-07-06 15:34:15.554687500,-26.0,5.0,58.0,90.1690625,-18.595,27.93157715625,33.77
2021-07-06 15:34:15.562500000,-26.0,5.0,58.0,90.1675,-21.58,27.931096750000002,33.77
2021-07-06 15:34:15.570312500,-26.0,5.0,58.0,90.1659375,-25.119999999999997,27.93061634375,33.77
2021-07-06 15:34:15.578125000,-26.0,5.0,58.0,90.16437499999999,-28.66,27.9301359375,33.77
2021-07-06 15:34:15.585937500,-26.0,5.0,58.0,90.1628125,-32.85,27.929655531250003,33.77
2021-07-06 15:34:15.593750000,-26.0,5.0,58.0,90.16125,-37.04,27.929175125,33.77
2021-07-06 15:34:15.601562500,-25.75,5.0,58.0,90.1596875,-41.795,27.928694718750002,33.77
2021-07-06 15:34:15.609375000,-25.5,5.0,58.0,90.158125,-46.55,27.9282143125,33.77
2021-07-06 15:34:15.617187500,-25.25,5.0,58.0,90.15656249999999,-51.515,27.92773390625,33.77
2021-07-06 15:34:15.625000000,-25.0,5.0,58.0,90.155,-56.48,27.9272535,33.77
2021-07-06 15:34:15.632812500,-25.0,5.0,58.0,90.1534375,-60.974999999999994,27.92677309375,33.77
2021-07-06 15:34:15.640625000,-25.0,5.0,58.0,90.151875,-65.47,27.926292687500002,33.77
2021-07-06 15:34:15.648437500,-25.0,5.0,58.0,90.1503125,-68.53,27.92581228125,33.77
2021-07-06 15:34:15.656250000,-25.0,5.0,58.0,90.14874999999999,-71.59,27.925331875,33.77
2021-07-06 15:34:15.664062500,-25.25,5.0,58.0,90.1471875,-72.225,27.92485146875,33.77
2021-07-06 15:34:15.671875000,-25.5,5.0,58.0,90.145625,-72.86,27.9243710625,33.77
2021-07-06 15:34:15.679687500,-25.75,5.0,58.0,90.1440625,-70.375,27.923890656250002,33.77
2021-07-06 15:34:15.687500000,-26.0,5.0,58.0,90.1425,-67.89,27.92341025,33.77
2021-07-06 15:34:15.695312500,-26.0,5.0,58.0,90.14093749999999,-62.19,27.92292984375,33.77
2021-07-06 15:34:15.703125000,-26.0,5.0,58.0,90.139375,-56.49,27.9224494375,33.77
2021-07-06 15:34:15.710937500,-26.0,5.0,58.0,90.1378125,-48.18,27.92196903125,33.77
2021-07-06 15:34:15.718750000,-26.0,5.0,58.0,90.13625,-39.87,27.921488625000002,33.77
2021-07-06 15:34:15.726562500,-26.0,5.0,58.0,90.1346875,-30.115,27.92100821875,33.77
2021-07-06 15:34:15.734375000,-26.0,5.0,58.0,90.13312499999999,-20.36,27.9205278125,33.77
2021-07-06 15:34:15.742187500,-26.0,5.0,58.0,90.1315625,-10.549999999999999,27.92004740625,33.77
2021-07-06 15:34:15.750000000,-26.0,5.0,58.0,90.13,-0.74,27.919567,33.77
2021-07-06 15:34:15.757812500,-25.75,5.0,58.0,90.1284375,7.93,27.91764534375,33.77
2021-07-06 15:34:15.765625000,-25.5,5.0,58.0,90.126875,16.6,27.9157236875,33.77
2021-07-06 15:34:15.773437500,-25.25,5.0,58.0,90.12531249999999,23.39,27.91380203125,33.77
2021-07-06 15:34:15.781250000,-25.0,5.0,58.0,90.12375,30.18,27.911880375,33.77
2021-07-06 15:34:15.789062500,-25.0,5.0,58.0,90.1221875,34.875,27.90995871875,33.77
2021-07-06 15:34:15.796875000,-25.0,5.0,58.0,90.120625,39.57,27.9080370625,33.77
2021-07-06 15:34:15.804687500,-25.0,5.0,58.0,90.1190625,42.315,27.90611540625,33.77
2021-07-06 15:34:15.812500000,-25.0,5.0,58.0,90.11749999999999,45.06,27.90419375,33.77
2021-07-06 15:34:15.820312500,-25.25,5.0,58.0,90.1159375,46.18,27.90227209375,33.77
2021-07-06 15:34:15.828125000,-25.5,5.0,58.0,90.114375,47.3,27.9003504375,33.77
2021-07-06 15:34:15.835937500,-25.75,5.0,58.0,90.1128125,47.06,27.89842878125,33.77
2021-07-06 15:34:15.843750000,-26.0,5.0,58.0,90.11125,46.82,27.896507125,33.77
2021-07-06 15:34:15.851562500,-26.0,5.0,58.0,90.10968749999999,45.405,27.894585468749998,33.77
2021-07-06 15:34:15.859375000,-26.0,5.0,58.0,90.108125,43.99,27.8926638125,33.77
2021-07-06 15:34:15.867187500,-26.0,5.0,58.0,90.1065625,41.555,27.89074215625,33.77
2021-07-06 15:34:15.875000000,-26.0,5.0,58.0,90.105,39.12,27.8888205,33.77
2021-07-06 15:34:15.882812500,-25.75,5.0,58.0,90.1034375,35.9,27.88689884375,33.77
2021-07-06 15:34:15.890625000,-25.5,5.0,58.0,90.10187499999999,32.68,27.8849771875,33.77
2021-07-06 15:34:15.898437500,-25.25,5.0,58.0,90.1003125,29.04,27.88305553125,33.77
2021-07-06 15:34:15.906250000,-25.0,5.0,58.0,90.09875,25.4,27.881133875,33.77
2021-07-06 15:34:15.914062500,-25.0,5.0,58.0,90.0971875,21.825,27.87921221875,33.77
2021-07-06 15:34:15.921875000,-25.0,5.0,58.0,90.095625,18.25,27.8772905625,33.77
2021-07-06 15:34:15.929687500,-25.0,5.0,58.0,90.09406249999999,15.245000000000001,27.87536890625,33.77
2021-07-06 15:34:15.937500000,-25.0,5.0,58.0,90.0925,12.24,27.873447249999998,33.77
2021-07-06 15:34:15.945312500,-25.25,5.0,58.0,90.0909375,10.14,27.87152559375,33.77
2021-07-06 15:34:15.953125000,-25.5,5.0,58.0,90.089375,8.04,27.8696039375,33.77
2021-07-06 15:34:15.960937500,-25.75,5.0,58.0,90.0878125,6.91,27.867682281249998,33.77
2021-07-06 15:34:15.968750000,-26.0,5.0,58.0,90.08624999999999,5.78,27.865760625,33.77
2021-07-06 15:34:15.976562500,-25.75,5.0,58.0,90.0846875,5.380000000000001,27.86383896875,33.77
2021-07-06 15:34:15.984375000,-25.5,5.0,58.0,90.083125,4.98,27.861917312499997,33.77
2021-07-06 15:34:15.992187500,-25.25,5.0,58.0,90.0815625,4.895,27.85999565625,33.77
2021-07-06 15:34:16.000000000,-25.0,5.0,58.0,90.08,4.81,27.858074,33.77
2021-07-06 15:34:16.007812500,-25.0,5.0,58.0,90.07875,4.6,27.859955656249998,33.77
2021-07-06 15:34:16.015625000,-25.0,5.0,58.0,90.0775,4.39,27.861837312499997,33.77
2021-07-06 15:34:16.023437500,-25.0,5.0,58.0,90.07625,3.8049999999999997,27.86371896875,33.77
2021-07-06 15:34:16.031250000,-25.0,5.0,58.0,90.075,3.22,27.865600625,33.77
2021-07-06 15:34:16.039062500,-25.0,5.0,58.0,90.07375,2.23,27.86748228125,33.77
2021-07-06 15:34:16.046875000,-25.0,5.0,58.0,90.0725,1.24,27.869363937499998,33.77
2021-07-06 15:34:16.054687500,-25.0,5.0,58.0,90.07124999999999,0.030000000000000027,27.87124559375,33.77
2021-07-06 15:34:16.062500000,-25.0,5.0,58.0,90.07,-1.18,27.87312725,33.77
2021-07-06 15:34:16.070312500,-25.0,5.0,58.0,90.06875,-2.4050000000000002,27.87500890625,33.77
2021-07-06 15:34:16.078125000,-25.0,5.0,58.0,90.0675,-3.63,27.876890562499998,33.77
2021-07-06 15:34:16.085937500,-25.0,5.0,58.0,90.06625,-4.779999999999999,27.878772218749997,33.77
2021-07-06 15:34:16.093750000,-25.0,5.0,58.0,90.065,-5.93,27.880653875,33.77
2021-07-06 15:34:16.101562500,-25.0,5.0,58.0,90.06375,-7.1049999999999995,27.88253553125,33.77
2021-07-06 15:34:16.109375000,-25.0,5.0,58.0,90.0625,-8.28,27.8844171875,33.77
2021-07-06 15:34:16.117187500,-25.0,5.0,58.0,90.06125,-9.725,27.886298843749998,33.77
2021-07-06 15:34:16.125000000,-25.0,5.0,58.0,90.06,-11.17,27.888180499999997,33.77
2021-07-06 15:34:16.132812500,-25.25,5.0,58.0,90.05875,-13.18,27.89006215625,33.77
2021-07-06 15:34:16.140625000,-25.5,5.0,58.0,90.0575,-15.19,27.8919438125,33.77
2021-07-06 15:34:16.148437500,-25.75,5.0,58.0,90.05625,-18.009999999999998,27.89382546875,33.77
2021-07-06 15:34:16.156250000,-26.0,5.0,58.0,90.05499999999999,-20.83,27.895707124999998,33.77
2021-07-06 15:34:16.164062500,-26.0,5.0,58.0,90.05375,-24.595,27.89758878125,33.77
2021-07-06 15:34:16.171875000,-26.0,5.0,58.0,90.0525,-28.36,27.8994704375,33.77
2021-07-06 15:34:16.179687500,-26.0,5.0,58.0,90.05125,-33.065,27.90135209375,33.77
2021-07-06 15:34:16.187500000,-26.0,5.0,58.0,90.05,-37.77,27.90323375,33.77
2021-07-06 15:34:16.195312500,-25.75,5.0,58.0,90.04875,-43.215,27.905115406249998,33.77
2021-07-06 15:34:16.203125000,-25.5,5.0,58.0,90.0475,-48.66,27.9069970625,33.77
2021-07-06 15:34:16.210937500,-25.25,5.0,58.0,90.04625,-54.345,27.90887871875,33.77
2021-07-06 15:34:16.218750000,-25.0,5.0,58.0,90.045,-60.03,27.910760375,33.77
2021-07-06 15:34:16.226562500,-25.0,5.0,58.0,90.04375,-65.14500000000001,27.912642031249998,33.77
2021-07-06 15:34:16.234375000,-25.0,5.0,58.0,90.0425,-70.26,27.9145236875,33.77
2021-07-06 15:34:16.242187500,-25.0,5.0,58.0,90.04125,-73.735,27.91640534375,33.77
2021-07-06 15:34:16.250000000,-25.0,5.0,58.0,90.03999999999999,-77.21,27.918287,33.77
2021-07-06 15:34:16.257812500,-25.25,5.0,58.0,90.03875,-78.00999999999999,27.91852721875,33.77
2021-07-06 15:34:16.265625000,-25.5,5.0,58.0,90.0375,-78.81,27.918767437499998,33.77
2021-07-06 15:34:16.273437500,-25.75,5.0,58.0,90.03625,-76.255,27.91900765625,33.77
2021-07-06 15:34:16.281250000,-26.0,5.0,58.0,90.035,-73.7,27.919247875,33.77
2021-07-06 15:34:16.289062500,-26.0,5.0,58.0,90.03375,-67.805,27.91948809375,33.77
2021-07-06 15:34:16.296875000,-26.0,5.0,58.0,90.0325,-61.91,27.9197283125,33.77
2021-07-06 15:34:16.304687500,-26.0,5.0,58.0,90.03125,-53.394999999999996,27.91996853125,33.77
2021-07-06 15:34:16.312500000,-26.0,5.0,58.0,90.03,-44.88,27.92020875,33.77
2021-07-06 15:34:16.320312500,-26.0,5.0,58.0,90.02875,-34.995000000000005,27.920448968749998,33.77
2021-07-06 15:34:16.328125000,-26.0,5.0,58.0,90.0275,-25.11,27.9206891875,33.77
2021-07-06 15:34:16.335937500,-26.0,5.0,58.0,90.02625,-15.184999999999999,27.92092940625,33.77
2021-07-06 15:34:16.343750000,-26.0,5.0,58.0,90.025,-5.26,27.921169625,33.77
2021-07-06 15:34:16.351562500,-25.75,5.0,58.0,90.02374999999999,3.625,27.92140984375,33.77
2021-07-06 15:34:16.359375000,-25.5,5.0,58.0,90.0225,12.51,27.9216500625,33.77
2021-07-06 15:34:16.367187500,-25.25,5.0,58.0,90.02125,19.794999999999998,27.92189028125,33.77
2021-07-06 15:34:16.375000000,-25.0,5.0,58.0,90.02,27.08,27.9221305,33.77
2021-07-06 15:34:16.382812500,-25.0,5.0,58.0,90.01875,32.625,27.92237071875,33.77
2021-07-06 15:34:16.390625000,-25.0,5.0,58.0,90.0175,38.17,27.9226109375,33.77
2021-07-06 15:34:16.398437500,-25.0,5.0,58.0,90.01625,42.06,27.92285115625,33.77
2021-07-06 15:34:16.406250000,-25.0,5.0,58.0,90.015,45.95,27.923091375,33.77
2021-07-06 15:34:16.414062500,-25.25,5.0,58.0,90.01375,48.285,27.92333159375,33.77
2021-07-06 15:34:16.421875000,-25.5,5.0,58.0,90.0125,50.62,27.9235718125,33.77
2021-07-06 15:34:16.429687500,-25.75,5.0,58.0,90.01125,51.435,27.92381203125,33.77
2021-07-06 15:34:16.437500000,-26.0,5.0,58.0,90.01,52.25,27.92405225,33.77
2021-07-06 15:34:16.445312500,-25.75,5.0,58.0,90.00875,51.57,27.92429246875,33.77
2021-07-06 15:34:16.453125000,-25.5,5.0,58.0,90.0075,50.89,27.9245326875,33.77
2021-07-06 15:34:16.460937500,-25.25,5.0,58.0,90.00625,48.879999999999995,27.92477290625,33.77
2021-07-06 15:34:16.468750000,-25.0,5.0,58.0,90.005,46.87,27.925013125,33.77
2021-07-06 15:34:16.476562500,-25.0,5.0,58.0,90.00375,43.905,27.92525334375,33.77
2021-07-06 15:34:16.484375000,-25.0,5.0,58.0,90.0025,40.94,27.9254935625,33.77
2021-07-06 15:34:16.492187500,-25.0,5.0,58.0,90.00125,37.59,27.92573378125,33.77
2021-07-06 15:34:16.500000000,-25.0,5.0,58.0,90.0,34.24,27.925974,33.77
2021-07-06 15:34:16.507812500,-25.25,5.0,58.0,89.99875,31.090000000000003,27.9300574375,33.77
2021-07-06 15:34:16.515625000,-25.5,5.0,58.0,89.9975,27.94,27.934140875,33.77
2021-07-06 15:34:16.523437500,-25.75,5.0,58.0,89.99625,25.435000000000002,27.9382243125,33.77
2021-07-06 15:34:16.531250000,-26.0,5.0,58.0,89.995,22.93,27.94230775,33.77
2021-07-06 15:34:16.539062500,-25.75,5.0,58.0,89.99375,21.2,27.9463911875,33.77
2021-07-06 15:34:16.546875000,-25.5,5.0,58.0,89.9925,19.47,27.950474625,33.77
2021-07-06 15:34:16.554687500,-25.25,5.0,58.0,89.99125,18.354999999999997,27.9545580625,33.77
2021-07-06 15:34:16.562500000,-25.0,5.0,58.0,89.99,17.24,27.9586415,33.77
2021-07-06 15:34:16.570312500,-25.0,5.0,58.0,89.98875,16.384999999999998,27.9627249375,33.77
2021-07-06 15:34:16.578125000,-25.0,5.0,58.0,89.9875,15.53,27.966808375,33.77
2021-07-06 15:34:16.585937500,-25.0,5.0,58.0,89.98625,14.58,27.9708918125,33.77
2021-07-06 15:34:16.593750000,-25.0,5.0,58.0,89.985,13.63,27.97497525,33.77
2021-07-06 15:34:16.601562500,-25.0,5.0,58.0,89.98375,12.4,27.9790586875,33.77
2021-07-06 15:34:16.609375000,-25.0,5.0,58.0,89.9825,11.17,27.983142125,33.77
2021-07-06 15:34:16.617187500,-25.0,5.0,58.0,89.98125,9.684999999999999,27.9872255625,33.77
2021-07-06 15:34:16.625000000,-25.0,5.0,58.0,89.98,8.2,27.991309,33.77
2021-07-06 15:34:16.632812500,-25.25,5.0,58.0,89.97875,6.675,27.995392437499998,33.77
2021-07-06 15:34:16.640625000,-25.5,5.0,58.0,89.9775,5.15,27.999475874999998,33.77
2021-07-06 15:34:16.648437500,-25.75,5.0,58.0,89.97625000000001,3.795,28.0035593125,33.77
2021-07-06 15:34:16.656250000,-26.0,5.0,58.0,89.975,2.44,28.00764275,33.77
2021-07-06 15:34:16.664062500,-25.75,5.0,58.0,89.97375,1.335,28.0117261875,33.77
2021-07-06 15:34:16.671875000,-25.5,5.0,58.0,89.9725,0.23,28.015809625,33.77
2021-07-06 15:34:16.679687500,-25.25,5.0,58.0,89.97125,-0.74,28.0198930625,33.77
2021-07-06 15:34:16.687500000,-25.0,5.0,58.0,89.97,-1.71,28.0239765,33.77
2021-07-06 15:34:16.695312500,-25.0,5.0,58.0,89.96875,-2.83,28.0280599375,33.77
2021-07-06 15:34:16.703125000,-25.0,5.0,58.0,89.9675,-3.95,28.032143375,33.77
2021-07-06 15:34:16.710937500,-25.0,5.0,58.0,89.96625,-5.555,28.036226812499997,33.77
2021-07-06 15:34:16.718750000,-25.0,5.0,58.0,89.965,-7.16,28.040310249999997,33.77
2021-07-06 15:34:16.726562500,-25.0,5.0,58.0,89.96375,-9.57,28.044393687499998,33.77
2021-07-06 15:34:16.734375000,-25.0,5.0,58.0,89.9625,-11.98,28.048477124999998,33.77
2021-07-06 15:34:16.742187500,-25.0,5.0,58.0,89.96125,-15.39,28.0525605625,33.77
2021-07-06 15:34:16.750000000,-25.0,5.0,58.0,89.96000000000001,-18.8,28.056644,33.77
2021-07-06 15:34:16.757812500,-25.25,5.0,58.0,89.95875,-23.259999999999998,28.05864578125,33.77
2021-07-06 15:34:16.765625000,-25.5,5.0,58.0,89.9575,-27.72,28.060647562499998,33.77
2021-07-06 15:34:16.773437500,-25.75,5.0,58.0,89.95625,-33.075,28.06264934375,33.77
2021-07-06 15:34:16.781250000,-26.0,5.0,58.0,89.955,-38.43,28.064651124999997,33.77
2021-07-06 15:34:16.789062500,-25.75,5.0,58.0,89.95375,-44.25,28.06665290625,33.77
2021-07-06 15:34:16.796875000,-25.5,5.0,58.0,89.9525,-50.07,28.0686546875,33.77
2021-07-06 15:34:16.804687500,-25.25,5.0,58.0,89.95125,-55.6,28.07065646875,33.77
2021-07-06 15:34:16.812500000,-25.0,5.0,58.0,89.95,-61.13,28.07265825,33.77
