TimeStamp,empatica.acc.x,empatica.acc.y,empatica.acc.z,empatica.hr,empatica.bvp,empatica.eda,empatica.temp
2021-07-06 15:39:14.656250000,-34.0,8.0,54.0,93.7740625,-72.69,29.87609825,33.89
2021-07-06 15:39:14.664062500,-34.0,8.0,54.0,93.773515625,-73.565,29.8764185625,33.89
2021-07-06 15:39:14.671875000,-34.0,8.0,54.0,93.77296875,-74.44,29.876738875,33.89
2021-07-06 15:39:14.679687500,-34.0,8.0,54.0,93.77242187499999,-72.36,29.8770591875,33.89
2021-07-06 15:39:14.687500000,-34.0,8.0,54.0,93.771875,-70.28,29.8773795,33.89
2021-07-06 15:39:14.695312500,-34.0,8.0,54.0,93.771328125,-65.09,29.8776998125,33.89
2021-07-06 15:39:14.703125000,-34.0,8.0,54.0,93.77078125,-59.9,29.878020125,33.89
2021-07-06 15:39:14.710937500,-34.0,8.0,54.0,93.770234375,-52.155,29.8783404375,33.89
2021-07-06 15:39:14.718750000,-34.0,8.0,54.0,93.7696875,-44.41,29.87866075,33.89
2021-07-06 15:39:14.726562500,-34.0,8.0,54.0,93.76914062499999,-35.17,29.8789810625,33.89
2021-07-06 15:39:14.734375000,-34.0,8.0,54.0,93.76859375,-25.93,29.879301375,33.89
2021-07-06 15:39:14.742187500,-34.0,8.0,54.0,93.768046875,-16.465,29.8796216875,33.89
2021-07-06 15:39:14.750000000,-34.0,8.0,54.0,93.7675,-7.0,29.879942,33.89
2021-07-06 15:39:14.757812500,-34.0,8.0,54.0,93.766953125,1.620000000000001,29.880702625,33.89
2021-07-06 15:39:14.765625000,-34.0,8.0,54.0,93.76640625,10.24,29.88146325,33.89
2021-07-06 15:39:14.773437500,-34.0,8.0,54.0,93.765859375,17.330000000000002,29.882223875,33.89
2021-07-06 15:39:14.781250000,-34.0,8.0,54.0,93.7653125,24.42,29.8829845,33.89
2021-07-06 15:39:14.789062500,-34.0,8.0,54.0,93.764765625,29.715,29.883745125,33.89
2021-07-06 15:39:14.796875000,-34.0,8.0,54.0,93.76421875,35.01,29.88450575,33.89
2021-07-06 15:39:14.804687500,-34.0,8.0,54.0,93.763671875,38.59,29.885266375,33.89
2021-07-06 15:39:14.812500000,-34.0,8.0,54.0,93.763125,42.17,29.886027,33.89
2021-07-06 15:39:14.820312500,-34.0,8.0,54.0,93.762578125,44.265,29.886787625,33.89
2021-07-06 15:39:14.828125000,-34.0,8.0,54.0,93.76203124999999,46.36,29.88754825,33.89
2021-07-06 15:39:14.835937500,-34.0,8.0,54.0,93.761484375,47.225,29.888308875,33.89
2021-07-06 15:39:14.843750000,-34.0,8.0,54.0,93.7609375,48.09,29.889069499999998,33.89
2021-07-06 15:39:14.851562500,-34.0,8.25,54.0,93.760390625,47.935,29.889830125,33.89
2021-07-06 15:39:14.859375000,-34.0,8.5,54.0,93.75984375,47.78,29.890590749999998,33.89
2021-07-06 15:39:14.867187500,-34.0,8.75,54.0,93.759296875,46.795,29.891351375,33.89
2021-07-06 15:39:14.875000000,-34.0,9.0,54.0,93.75874999999999,45.81,29.892111999999997,33.89
2021-07-06 15:39:14.882812500,-34.0,9.0,54.0,93.758203125,44.2,29.892872625,33.89
2021-07-06 15:39:14.890625000,-34.0,9.0,54.0,93.75765625,42.59,29.89363325,33.89
2021-07-06 15:39:14.898437500,-34.0,9.0,54.0,93.757109375,40.650000000000006,29.894393875,33.89
2021-07-06 15:39:14.906250000,-34.0,9.0,54.0,93.7565625,38.71,29.8951545,33.89
2021-07-06 15:39:14.914062500,-34.0,8.75,54.0,93.756015625,36.75,29.895915125,33.89
2021-07-06 15:39:14.921875000,-34.0,8.5,54.0,93.75546875,34.79,29.89667575,33.89
2021-07-06 15:39:14.929687500,-34.0,8.25,54.0,93.754921875,33.115,29.897436374999998,33.89
2021-07-06 15:39:14.937500000,-34.0,8.0,54.0,93.754375,31.44,29.898197,33.89
2021-07-06 15:39:14.945312500,-34.0,8.0,54.0,93.753828125,30.22,29.898957624999998,33.89
2021-07-06 15:39:14.953125000,-34.0,8.0,54.0,93.75328125,29.0,29.89971825,33.89
2021-07-06 15:39:14.960937500,-34.0,8.0,54.0,93.752734375,28.244999999999997,29.900478874999997,33.89
2021-07-06 15:39:14.968750000,-34.0,8.0,54.0,93.7521875,27.49,29.9012395,33.89
2021-07-06 15:39:14.976562500,-34.0,8.25,54.0,93.751640625,27.045,29.902000124999997,33.89
2021-07-06 15:39:14.984375000,-34.0,8.5,54.0,93.75109375,26.6,29.90276075,33.89
2021-07-06 15:39:14.992187500,-34.0,8.75,54.0,93.750546875,26.25,29.903521374999997,33.89
2021-07-06 15:39:15.000000000,-34.0,9.0,54.0,93.75,25.9,29.904282,33.89
2021-07-06 15:39:15.007812500,-34.0,9.0,54.0,93.749765625,25.52,29.90400178125,33.889375
2021-07-06 15:39:15.015625000,-34.0,9.0,54.0,93.74953125,25.14,29.9037215625,33.88875
2021-07-06 15:39:15.023437500,-34.0,9.0,54.0,93.749296875,24.725,29.90344134375,33.888125
2021-07-06 15:39:15.031250000,-34.0,9.0,54.0,93.7490625,24.31,29.903161124999997,33.8875
2021-07-06 15:39:15.039062500,-34.0,8.75,54.0,93.748828125,23.965,29.902880906249997,33.886875
2021-07-06 15:39:15.046875000,-34.0,8.5,54.0,93.74859375,23.62,29.902600687499998,33.88625
2021-07-06 15:39:15.054687500,-34.0,8.25,54.0,93.748359375,23.425,29.90232046875,33.885625
2021-07-06 15:39:15.062500000,-34.0,8.0,54.0,93.748125,23.23,29.90204025,33.885
2021-07-06 15:39:15.070312500,-34.0,8.0,54.0,93.747890625,23.085,29.90176003125,33.884375
2021-07-06 15:39:15.078125000,-34.0,8.0,54.0,93.74765625,22.94,29.9014798125,33.88375
2021-07-06 15:39:15.085937500,-34.0,8.0,54.0,93.747421875,22.565,29.90119959375,33.883125
2021-07-06 15:39:15.093750000,-34.0,8.0,54.0,93.7471875,22.19,29.900919375,33.8825
2021-07-06 15:39:15.101562500,-34.0,8.0,54.0,93.746953125,21.195,29.900639156249998,33.881875
2021-07-06 15:39:15.109375000,-34.0,8.0,54.0,93.74671875,20.2,29.9003589375,33.88125
2021-07-06 15:39:15.117187500,-34.0,8.0,54.0,93.746484375,18.305,29.90007871875,33.880625
2021-07-06 15:39:15.125000000,-34.0,8.0,54.0,93.74625,16.41,29.8997985,33.879999999999995
2021-07-06 15:39:15.132812500,-34.0,8.0,54.0,93.746015625,13.59,29.89951828125,33.879374999999996
2021-07-06 15:39:15.140625000,-34.0,8.0,54.0,93.74578125,10.77,29.8992380625,33.87875
2021-07-06 15:39:15.148437500,-34.0,8.0,54.0,93.745546875,7.3149999999999995,29.89895784375,33.878125
2021-07-06 15:39:15.156250000,-34.0,8.0,54.0,93.7453125,3.86,29.898677624999998,33.8775
2021-07-06 15:39:15.164062500,-34.0,8.0,54.0,93.745078125,0.2650000000000001,29.898397406249998,33.876875
2021-07-06 15:39:15.171875000,-34.0,8.0,54.0,93.74484375,-3.33,29.8981171875,33.87625
2021-07-06 15:39:15.179687500,-34.0,8.0,54.0,93.744609375,-6.6,29.89783696875,33.875625
2021-07-06 15:39:15.187500000,-34.0,8.0,54.0,93.744375,-9.87,29.89755675,33.875
2021-07-06 15:39:15.195312500,-34.0,8.0,54.0,93.744140625,-12.575,29.89727653125,33.874375
2021-07-06 15:39:15.203125000,-34.0,8.0,54.0,93.74390625,-15.28,29.8969963125,33.87375
2021-07-06 15:39:15.210937500,-34.0,8.0,54.0,93.743671875,-17.47,29.89671609375,33.873124999999995
2021-07-06 15:39:15.218750000,-34.0,8.0,54.0,93.7434375,-19.66,29.896435875,33.872499999999995
2021-07-06 15:39:15.226562500,-34.0,8.0,54.0,93.743203125,-21.66,29.89615565625,33.871874999999996
2021-07-06 15:39:15.234375000,-34.0,8.0,54.0,93.74296875,-23.66,29.8958754375,33.871249999999996
2021-07-06 15:39:15.242187500,-34.0,8.0,54.0,93.742734375,-25.93,29.89559521875,33.870625
2021-07-06 15:39:15.250000000,-34.0,8.0,54.0,93.7425,-28.2,29.895315,33.87
2021-07-06 15:39:15.257812500,-34.25,8.0,53.75,93.742265625,-31.17,29.8935935,33.87
2021-07-06 15:39:15.265625000,-34.5,8.0,53.5,93.74203125,-34.14,29.891872,33.87
2021-07-06 15:39:15.273437500,-34.75,8.0,53.25,93.741796875,-38.03,29.8901505,33.87
2021-07-06 15:39:15.281250000,-35.0,8.0,53.0,93.7415625,-41.92,29.888429,33.87
2021-07-06 15:39:15.289062500,-34.75,8.0,53.25,93.741328125,-46.64,29.8867075,33.87
2021-07-06 15:39:15.296875000,-34.5,8.0,53.5,93.74109375,-51.36,29.884986,33.87
2021-07-06 15:39:15.304687500,-34.25,8.0,53.75,93.740859375,-56.415,29.8832645,33.87
2021-07-06 15:39:15.312500000,-34.0,8.0,54.0,93.740625,-61.47,29.881543,33.87
2021-07-06 15:39:15.320312500,-34.0,8.0,54.0,93.740390625,-65.985,29.8798215,33.87
2021-07-06 15:39:15.328125000,-34.0,8.0,54.0,93.74015625,-70.5,29.8781,33.87
2021-07-06 15:39:15.335937500,-34.0,8.0,54.0,93.739921875,-73.39500000000001,29.8763785,33.87
2021-07-06 15:39:15.343750000,-34.0,8.0,54.0,93.7396875,-76.29,29.874657,33.87
2021-07-06 15:39:15.351562500,-34.0,8.0,54.0,93.739453125,-76.575,29.8729355,33.87
2021-07-06 15:39:15.359375000,-34.0,8.0,54.0,93.73921875,-76.86,29.871214,33.87
2021-07-06 15:39:15.367187500,-34.0,8.0,54.0,93.738984375,-73.96000000000001,29.8694925,33.87
2021-07-06 15:39:15.375000000,-34.0,8.0,54.0,93.73875,-71.06,29.867770999999998,33.87
2021-07-06 15:39:15.382812500,-34.0,8.0,54.0,93.738515625,-65.08500000000001,29.8660495,33.87
2021-07-06 15:39:15.390625000,-34.0,8.0,54.0,93.73828125,-59.11,29.864328,33.87
2021-07-06 15:39:15.398437500,-34.0,8.0,54.0,93.738046875,-50.825,29.8626065,33.87
2021-07-06 15:39:15.406250000,-34.0,8.0,54.0,93.7378125,-42.54,29.860885,33.87
2021-07-06 15:39:15.414062500,-34.0,8.0,54.0,93.737578125,-33.165,29.859163499999998,33.87
2021-07-06 15:39:15.421875000,-34.0,8.0,54.0,93.73734375,-23.79,29.857442,33.87
2021-07-06 15:39:15.429687500,-34.0,8.0,54.0,93.737109375,-14.575,29.8557205,33.87
2021-07-06 15:39:15.437500000,-34.0,8.0,54.0,93.736875,-5.36,29.853998999999998,33.87
2021-07-06 15:39:15.445312500,-34.0,8.0,54.0,93.73664062499999,2.755,29.8522775,33.87
2021-07-06 15:39:15.453125000,-34.0,8.0,54.0,93.73640625,10.87,29.850555999999997,33.87
2021-07-06 15:39:15.460937500,-34.0,8.0,54.0,93.736171875,17.455,29.8488345,33.87
2021-07-06 15:39:15.468750000,-34.0,8.0,54.0,93.7359375,24.04,29.847113,33.87
2021-07-06 15:39:15.476562500,-34.0,8.0,54.0,93.735703125,29.075,29.845391499999998,33.87
2021-07-06 15:39:15.484375000,-34.0,8.0,54.0,93.73546875,34.11,29.84367,33.87
2021-07-06 15:39:15.492187500,-34.0,8.0,54.0,93.735234375,37.825,29.841948499999997,33.87
2021-07-06 15:39:15.500000000,-34.0,8.0,54.0,93.735,41.54,29.840227,33.87
2021-07-06 15:39:15.507812500,-34.0,8.0,54.0,93.734765625,44.14,29.840427156249998,33.87
2021-07-06 15:39:15.515625000,-34.0,8.0,54.0,93.73453125,46.74,29.840627312499997,33.87
2021-07-06 15:39:15.523437500,-34.0,8.0,54.0,93.734296875,48.34,29.84082746875,33.87
2021-07-06 15:39:15.531250000,-34.0,8.0,54.0,93.7340625,49.94,29.841027625,33.87
2021-07-06 15:39:15.539062500,-34.0,8.0,54.0,93.733828125,50.575,29.841227781249998,33.87
2021-07-06 15:39:15.546875000,-34.0,8.0,54.0,93.73359375,51.21,29.8414279375,33.87
2021-07-06 15:39:15.554687500,-34.0,8.0,54.0,93.733359375,50.935,29.84162809375,33.87
2021-07-06 15:39:15.562500000,-34.0,8.0,54.0,93.733125,50.66,29.84182825,33.87
2021-07-06 15:39:15.570312500,-34.0,8.0,54.0,93.732890625,49.635,29.842028406249998,33.87
2021-07-06 15:39:15.578125000,-34.0,8.0,54.0,93.73265625,48.61,29.842228562499997,33.87
2021-07-06 15:39:15.585937500,-34.0,8.0,54.0,93.732421875,47.125,29.84242871875,33.87
2021-07-06 15:39:15.593750000,-34.0,8.0,54.0,93.7321875,45.64,29.842628875,33.87
2021-07-06 15:39:15.601562500,-34.0,8.0,54.0,93.731953125,44.015,29.842829031249998,33.87
2021-07-06 15:39:15.609375000,-34.0,8.0,54.0,93.73171875,42.39,29.8430291875,33.87
2021-07-06 15:39:15.617187500,-34.0,8.0,54.0,93.731484375,40.925,29.84322934375,33.87
2021-07-06 15:39:15.625000000,-34.0,8.0,54.0,93.73125,39.46,29.8434295,33.87
2021-07-06 15:39:15.632812500,-34.0,8.0,54.0,93.731015625,38.295,29.84362965625,33.87
2021-07-06 15:39:15.640625000,-34.0,8.0,54.0,93.73078124999999,37.13,29.843829812499997,33.87
2021-07-06 15:39:15.648437500,-34.0,8.0,54.0,93.730546875,36.25,29.84402996875,33.87
2021-07-06 15:39:15.656250000,-34.0,8.0,54.0,93.7303125,35.37,29.844230125,33.87
2021-07-06 15:39:15.664062500,-34.0,8.0,54.0,93.730078125,34.644999999999996,29.84443028125,33.87
2021-07-06 15:39:15.671875000,-34.0,8.0,54.0,93.72984375,33.92,29.8446304375,33.87
2021-07-06 15:39:15.679687500,-34.0,8.0,54.0,93.729609375,33.2,29.84483059375,33.87
2021-07-06 15:39:15.687500000,-34.0,8.0,54.0,93.729375,32.48,29.84503075,33.87
2021-07-06 15:39:15.695312500,-34.0,8.0,54.0,93.729140625,31.685,29.84523090625,33.87
2021-07-06 15:39:15.703125000,-34.0,8.0,54.0,93.72890625,30.89,29.845431062499998,33.87
2021-07-06 15:39:15.710937500,-34.0,8.0,54.0,93.728671875,30.075000000000003,29.84563121875,33.87
2021-07-06 15:39:15.718750000,-34.0,8.0,54.0,93.7284375,29.26,29.845831375,33.87
2021-07-06 15:39:15.726562500,-34.0,8.0,54.0,93.728203125,28.590000000000003,29.84603153125,33.87
2021-07-06 15:39:15.734375000,-34.0,8.0,54.0,93.72796875,27.92,29.8462316875,33.87
2021-07-06 15:39:15.742187500,-34.0,8.0,54.0,93.727734375,27.555,29.84643184375,33.87
2021-07-06 15:39:15.750000000,-34.0,8.0,54.0,93.72749999999999,27.19,29.846632,33.87
2021-07-06 15:39:15.757812500,-34.0,8.0,54.0,93.727265625,27.165,29.84579128125,33.87
2021-07-06 15:39:15.765625000,-34.0,8.0,54.0,93.72703125,27.14,29.8449505625,33.87
2021-07-06 15:39:15.773437500,-34.0,8.0,54.0,93.726796875,27.265,29.84410984375,33.87
2021-07-06 15:39:15.781250000,-34.0,8.0,54.0,93.7265625,27.39,29.843269125,33.87
2021-07-06 15:39:15.789062500,-34.0,8.0,54.0,93.726328125,27.275,29.84242840625,33.87
2021-07-06 15:39:15.796875000,-34.0,8.0,54.0,93.72609375,27.16,29.8415876875,33.87
2021-07-06 15:39:15.804687500,-34.0,8.0,54.0,93.725859375,26.34,29.84074696875,33.87
2021-07-06 15:39:15.812500000,-34.0,8.0,54.0,93.725625,25.52,29.83990625,33.87
2021-07-06 15:39:15.820312500,-34.0,8.0,54.0,93.725390625,23.67,29.83906553125,33.87
2021-07-06 15:39:15.828125000,-34.0,8.0,54.0,93.72515625,21.82,29.8382248125,33.87
2021-07-06 15:39:15.835937500,-34.0,8.0,54.0,93.72492187499999,18.915,29.83738409375,33.87
2021-07-06 15:39:15.843750000,-34.0,8.0,54.0,93.7246875,16.01,29.836543374999998,33.87
2021-07-06 15:39:15.851562500,-34.0,8.0,53.75,93.724453125,12.360000000000001,29.83570265625,33.87
2021-07-06 15:39:15.859375000,-34.0,8.0,53.5,93.72421875,8.71,29.834861937499998,33.87
2021-07-06 15:39:15.867187500,-34.0,8.0,53.25,93.723984375,4.82,29.83402121875,33.87
2021-07-06 15:39:15.875000000,-34.0,8.0,53.0,93.72375,0.93,29.833180499999997,33.87
2021-07-06 15:39:15.882812500,-34.0,8.0,53.25,93.723515625,-2.6799999999999997,29.83233978125,33.87
2021-07-06 15:39:15.890625000,-34.0,8.0,53.5,93.72328125,-6.29,29.8314990625,33.87
2021-07-06 15:39:15.898437500,-34.0,8.0,53.75,93.723046875,-9.315,29.83065834375,33.87
2021-07-06 15:39:15.906250000,-34.0,8.0,54.0,93.7228125,-12.34,29.829817625,33.87
2021-07-06 15:39:15.914062500,-34.0,8.25,54.0,93.722578125,-14.77,29.82897690625,33.87
2021-07-06 15:39:15.921875000,-34.0,8.5,54.0,93.72234375,-17.2,29.8281361875,33.87
2021-07-06 15:39:15.929687500,-34.0,8.75,54.0,93.722109375,-19.28,29.82729546875,33.87
2021-07-06 15:39:15.937500000,-34.0,9.0,54.0,93.721875,-21.36,29.82645475,33.87
2021-07-06 15:39:15.945312500,-34.0,9.0,54.0,93.72164062499999,-23.48,29.825614031249998,33.87
2021-07-06 15:39:15.953125000,-34.0,9.0,54.0,93.72140625,-25.6,29.8247733125,33.87
2021-07-06 15:39:15.960937500,-34.0,9.0,54.0,93.721171875,-28.135,29.823932593749998,33.87
2021-07-06 15:39:15.968750000,-34.0,9.0,54.0,93.7209375,-30.67,29.823091875,33.87
2021-07-06 15:39:15.976562500,-34.0,8.75,54.0,93.720703125,-33.88,29.822251156249997,33.87
2021-07-06 15:39:15.984375000,-34.0,8.5,54.0,93.72046875,-37.09,29.8214104375,33.87
2021-07-06 15:39:15.992187500,-34.0,8.25,54.0,93.720234375,-41.05500000000001,29.820569718749997,33.87
2021-07-06 15:39:16.000000000,-34.0,8.0,54.0,93.72,-45.02,29.819729,33.87
2021-07-06 15:39:16.007812500,-34.0,8.25,54.0,93.71968749999999,-49.565,29.819929218749998,33.87
2021-07-06 15:39:16.015625000,-34.0,8.5,54.0,93.719375,-54.11,29.8201294375,33.87
2021-07-06 15:39:16.023437500,-34.0,8.75,54.0,93.71906249999999,-58.769999999999996,29.82032965625,33.87
2021-07-06 15:39:16.031250000,-34.0,9.0,54.0,93.71875,-63.43,29.820529875,33.87
2021-07-06 15:39:16.039062500,-34.0,9.0,54.0,93.7184375,-67.455,29.82073009375,33.87
2021-07-06 15:39:16.046875000,-34.0,9.0,54.0,93.718125,-71.48,29.8209303125,33.87
2021-07-06 15:39:16.054687500,-34.0,9.0,54.0,93.7178125,-73.945,29.82113053125,33.87
2021-07-06 15:39:16.062500000,-34.0,9.0,54.0,93.7175,-76.41,29.82133075,33.87
2021-07-06 15:39:16.070312500,-34.0,8.75,54.0,93.7171875,-76.43,29.82153096875,33.87
2021-07-06 15:39:16.078125000,-34.0,8.5,54.0,93.716875,-76.45,29.8217311875,33.87
2021-07-06 15:39:16.085937500,-34.0,8.25,54.0,93.7165625,-73.50999999999999,29.82193140625,33.87
2021-07-06 15:39:16.093750000,-34.0,8.0,54.0,93.71625,-70.57,29.822131625,33.87
2021-07-06 15:39:16.101562500,-34.0,8.0,54.0,93.7159375,-64.745,29.82233184375,33.87
2021-07-06 15:39:16.109375000,-34.0,8.0,54.0,93.715625,-58.92,29.8225320625,33.87
2021-07-06 15:39:16.117187500,-34.0,8.0,54.0,93.7153125,-50.89,29.82273228125,33.87
2021-07-06 15:39:16.125000000,-34.0,8.0,54.0,93.715,-42.86,29.8229325,33.87
2021-07-06 15:39:16.132812500,-34.0,8.0,54.0,93.7146875,-33.74,29.82313271875,33.87
2021-07-06 15:39:16.140625000,-34.0,8.0,54.0,93.714375,-24.62,29.823332937500002,33.87
2021-07-06 15:39:16.148437500,-34.0,8.0,54.0,93.7140625,-15.61,29.82353315625,33.87
2021-07-06 15:39:16.156250000,-34.0,8.0,54.0,93.71375,-6.6,29.823733375,33.87
2021-07-06 15:39:16.164062500,-34.0,8.0,54.0,93.7134375,1.3550000000000004,29.823933593750002,33.87
2021-07-06 15:39:16.171875000,-34.0,8.0,54.0,93.713125,9.31,29.8241338125,33.87
2021-07-06 15:39:16.179687500,-34.0,8.0,54.0,93.7128125,15.675,29.82433403125,33.87
2021-07-06 15:39:16.187500000,-34.0,8.0,54.0,93.7125,22.04,29.82453425,33.87
2021-07-06 15:39:16.195312500,-34.0,8.25,54.0,93.7121875,26.7,29.824734468750002,33.87
2021-07-06 15:39:16.203125000,-34.0,8.5,54.0,93.711875,31.36,29.8249346875,33.87
2021-07-06 15:39:16.210937500,-34.0,8.75,54.0,93.7115625,34.465,29.82513490625,33.87
2021-07-06 15:39:16.218750000,-34.0,9.0,54.0,93.71125,37.57,29.825335125000002,33.87
2021-07-06 15:39:16.226562500,-34.0,8.75,54.0,93.7109375,39.370000000000005,29.82553534375,33.87
2021-07-06 15:39:16.234375000,-34.0,8.5,54.0,93.71062500000001,41.17,29.8257355625,33.87
2021-07-06 15:39:16.242187500,-34.0,8.25,54.0,93.7103125,41.875,29.825935781250003,33.87
2021-07-06 15:39:16.250000000,-34.0,8.0,54.0,93.71000000000001,42.58,29.826136,33.87
2021-07-06 15:39:16.257812500,-34.0,8.25,54.0,93.7096875,42.385,29.826656406250002,33.87
2021-07-06 15:39:16.265625000,-34.0,8.5,54.0,93.709375,42.19,29.827176812500003,33.87
2021-07-06 15:39:16.273437500,-34.0,8.75,54.0,93.7090625,41.28,29.82769721875,33.87
2021-07-06 15:39:16.281250000,-34.0,9.0,54.0,93.70875,40.37,29.828217625,33.87
2021-07-06 15:39:16.289062500,-34.0,9.0,54.0,93.7084375,38.985,29.82873803125,33.87
2021-07-06 15:39:16.296875000,-34.0,9.0,54.0,93.708125,37.6,29.829258437500002,33.87
2021-07-06 15:39:16.304687500,-34.0,9.0,54.0,93.7078125,36.010000000000005,29.829778843750002,33.87
2021-07-06 15:39:16.312500000,-34.0,9.0,54.0,93.7075,34.42,29.830299250000003,33.87
2021-07-06 15:39:16.320312500,-34.0,8.75,54.0,93.7071875,32.905,29.83081965625,33.87
2021-07-06 15:39:16.328125000,-34.0,8.5,54.0,93.706875,31.39,29.8313400625,33.87
2021-07-06 15:39:16.335937500,-34.0,8.25,54.0,93.7065625,30.17,29.83186046875,33.87
2021-07-06 15:39:16.343750000,-34.0,8.0,54.0,93.70625,28.95,29.832380875000002,33.87
2021-07-06 15:39:16.351562500,-34.0,8.25,54.0,93.7059375,28.08,29.832901281250003,33.87
2021-07-06 15:39:16.359375000,-34.0,8.5,54.0,93.705625,27.21,29.8334216875,33.87
2021-07-06 15:39:16.367187500,-34.0,8.75,54.0,93.7053125,26.634999999999998,29.83394209375,33.87
2021-07-06 15:39:16.375000000,-34.0,9.0,54.0,93.705,26.06,29.8344625,33.87
2021-07-06 15:39:16.382812500,-34.0,9.0,54.0,93.7046875,25.634999999999998,29.83498290625,33.87
2021-07-06 15:39:16.390625000,-34.0,9.0,54.0,93.704375,25.21,29.835503312500002,33.87
2021-07-06 15:39:16.398437500,-34.0,9.0,54.0,93.7040625,24.79,29.83602371875,33.87
2021-07-06 15:39:16.406250000,-34.0,9.0,54.0,93.70375,24.37,29.836544125,33.87
2021-07-06 15:39:16.414062500,-34.0,9.0,54.0,93.7034375,23.875,29.83706453125,33.87
2021-07-06 15:39:16.421875000,-34.0,9.0,54.0,93.703125,23.38,29.8375849375,33.87
2021-07-06 15:39:16.429687500,-34.0,9.0,54.0,93.70281250000001,22.86,29.83810534375,33.87
2021-07-06 15:39:16.437500000,-34.0,9.0,54.0,93.7025,22.34,29.83862575,33.87
2021-07-06 15:39:16.445312500,-34.0,9.0,54.0,93.70218750000001,21.905,29.83914615625,33.87
2021-07-06 15:39:16.453125000,-34.0,9.0,54.0,93.701875,21.47,29.8396665625,33.87
2021-07-06 15:39:16.460937500,-34.0,9.0,54.0,93.70156250000001,21.18,29.84018696875,33.87
2021-07-06 15:39:16.468750000,-34.0,9.0,54.0,93.70125,20.89,29.840707375,33.87
2021-07-06 15:39:16.476562500,-34.0,8.75,54.0,93.70093750000001,20.685000000000002,29.84122778125,33.87
2021-07-06 15:39:16.484375000,-34.0,8.5,54.0,93.700625,20.48,29.8417481875,33.87
2021-07-06 15:39:16.492187500,-34.0,8.25,54.0,93.70031250000001,20.12,29.84226859375,33.87
2021-07-06 15:39:16.500000000,-34.0,8.0,54.0,93.7,19.76,29.842789,33.87
2021-07-06 15:39:16.507812500,-34.0,8.25,54.0,93.6996875,18.91,29.8427089375,33.87
2021-07-06 15:39:16.515625000,-34.0,8.5,54.0,93.699375,18.06,29.842628875,33.87
2021-07-06 15:39:16.523437500,-34.0,8.75,54.0,93.6990625,16.445,29.8425488125,33.87
2021-07-06 15:39:16.531250000,-34.0,9.0,54.0,93.69875,14.83,29.84246875,33.87
2021-07-06 15:39:16.539062500,-34.0,9.0,54.0,93.6984375,12.36,29.842388687499998,33.87
2021-07-06 15:39:16.546875000,-34.0,9.0,54.0,93.698125,9.89,29.842308625,33.87
2021-07-06 15:39:16.554687500,-34.0,9.0,54.0,93.6978125,6.735,29.8422285625,33.87
2021-07-06 15:39:16.562500000,-34.0,9.0,54.0,93.6975,3.58,29.8421485,33.87
2021-07-06 15:39:16.570312500,-34.0,8.75,54.0,93.6971875,0.11500000000000021,29.8420684375,33.87
2021-07-06 15:39:16.578125000,-34.0,8.5,54.0,93.696875,-3.35,29.841988375,33.87
2021-07-06 15:39:16.585937500,-34.0,8.25,54.0,93.6965625,-6.6899999999999995,29.8419083125,33.87
2021-07-06 15:39:16.593750000,-34.0,8.0,54.0,93.69625,-10.03,29.84182825,33.87
2021-07-06 15:39:16.601562500,-34.0,8.0,54.0,93.6959375,-12.945,29.8417481875,33.87
2021-07-06 15:39:16.609375000,-34.0,8.0,54.0,93.695625,-15.86,29.841668124999998,33.87
2021-07-06 15:39:16.617187500,-34.0,8.0,54.0,93.6953125,-18.240000000000002,29.841588062499998,33.87
2021-07-06 15:39:16.625000000,-34.0,8.0,54.0,93.69500000000001,-20.62,29.841507999999997,33.87
2021-07-06 15:39:16.632812500,-34.0,8.25,54.0,93.6946875,-22.59,29.8414279375,33.87
2021-07-06 15:39:16.640625000,-34.0,8.5,54.0,93.69437500000001,-24.56,29.841347875,33.87
2021-07-06 15:39:16.648437500,-34.0,8.75,54.0,93.6940625,-26.395,29.8412678125,33.87
2021-07-06 15:39:16.656250000,-34.0,9.0,54.0,93.69375000000001,-28.23,29.84118775,33.87
2021-07-06 15:39:16.664062500,-34.0,8.75,54.0,93.6934375,-30.235,29.8411076875,33.87
2021-07-06 15:39:16.671875000,-34.0,8.5,54.0,93.69312500000001,-32.24,29.841027625,33.87
2021-07-06 15:39:16.679687500,-34.0,8.25,54.0,93.6928125,-34.7,29.8409475625,33.87
2021-07-06 15:39:16.687500000,-34.0,8.0,54.0,93.69250000000001,-37.16,29.840867499999998,33.87
2021-07-06 15:39:16.695312500,-34.0,8.25,54.0,93.6921875,-40.239999999999995,29.840787437499998,33.87
2021-07-06 15:39:16.703125000,-34.0,8.5,54.0,93.69187500000001,-43.32,29.840707374999997,33.87
2021-07-06 15:39:16.710937500,-34.0,8.75,54.0,93.6915625,-46.985,29.8406273125,33.87
2021-07-06 15:39:16.718750000,-34.0,9.0,54.0,93.69125000000001,-50.65,29.84054725,33.87
2021-07-06 15:39:16.726562500,-34.0,9.0,54.0,93.6909375,-54.59,29.8404671875,33.87
2021-07-06 15:39:16.734375000,-34.0,9.0,54.0,93.69062500000001,-58.53,29.840387125,33.87
2021-07-06 15:39:16.742187500,-34.0,9.0,54.0,93.6903125,-62.11,29.8403070625,33.87
2021-07-06 15:39:16.750000000,-34.0,9.0,54.0,93.69,-65.69,29.840227,33.87
2021-07-06 15:39:16.757812500,-34.0,9.0,54.0,93.6896875,-68.07499999999999,29.84074746875,33.87
2021-07-06 15:39:16.765625000,-34.0,9.0,54.0,93.689375,-70.46,29.8412679375,33.87
2021-07-06 15:39:16.773437500,-34.0,9.0,54.0,93.6890625,-70.805,29.84178840625,33.87
2021-07-06 15:39:16.781250000,-34.0,9.0,54.0,93.68875,-71.15,29.842308875,33.87
2021-07-06 15:39:16.789062500,-34.0,8.75,54.0,93.6884375,-68.915,29.842829343749997,33.87
2021-07-06 15:39:16.796875000,-34.0,8.5,54.0,93.688125,-66.68,29.843349812499998,33.87
2021-07-06 15:39:16.804687500,-34.0,8.25,54.0,93.6878125,-61.825,29.84387028125,33.87
2021-07-06 15:39:16.812500000,-34.0,8.0,54.0,93.6875,-56.97,29.84439075,33.87
2021-07-06 15:39:16.820312500,-34.0,8.0,54.0,93.68718750000001,-50.045,29.84491121875,33.87
2021-07-06 15:39:16.828125000,-34.0,8.0,54.0,93.686875,-43.12,29.8454316875,33.87
2021-07-06 15:39:16.835937500,-34.0,8.0,54.0,93.68656250000001,-35.055,29.84595215625,33.87
2021-07-06 15:39:16.843750000,-34.0,8.0,54.0,93.68625,-26.99,29.846472624999997,33.87
2021-07-06 15:39:16.851562500,-34.0,8.25,54.0,93.68593750000001,-18.85,29.846993093749997,33.87
2021-07-06 15:39:16.859375000,-34.0,8.5,54.0,93.685625,-10.71,29.847513562499998,33.87
2021-07-06 15:39:16.867187500,-34.0,8.75,54.0,93.68531250000001,-3.37,29.84803403125,33.87
2021-07-06 15:39:16.875000000,-34.0,9.0,54.0,93.685,3.97,29.8485545,33.87
2021-07-06 15:39:16.882812500,-34.0,9.0,54.0,93.68468750000001,9.98,29.84907496875,33.87
2021-07-06 15:39:16.890625000,-34.0,9.0,54.0,93.684375,15.99,29.8495954375,33.87
2021-07-06 15:39:16.898437500,-34.0,9.0,54.0,93.68406250000001,20.47,29.85011590625,33.87
2021-07-06 15:39:16.906250000,-34.0,9.0,54.0,93.68375,24.95,29.850636375,33.87
2021-07-06 15:39:16.914062500,-33.75,8.75,54.0,93.68343750000001,27.93,29.851156843749997,33.87
2021-07-06 15:39:16.921875000,-33.5,8.5,54.0,93.683125,30.91,29.851677312499998,33.87
2021-07-06 15:39:16.929687500,-33.25,8.25,54.0,93.68281250000001,32.52,29.85219778125,33.87
2021-07-06 15:39:16.937500000,-33.0,8.0,54.0,93.6825,34.13,29.85271825,33.87
2021-07-06 15:39:16.945312500,-33.25,8.25,54.0,93.68218750000001,34.565,29.85323871875,33.87
2021-07-06 15:39:16.953125000,-33.5,8.5,54.0,93.681875,35.0,29.8537591875,33.87
2021-07-06 15:39:16.960937500,-33.75,8.75,54.0,93.68156250000001,34.465,29.85427965625,33.87
2021-07-06 15:39:16.968750000,-34.0,9.0,54.0,93.68125,33.93,29.854800124999997,33.87
2021-07-06 15:39:16.976562500,-34.0,9.0,54.0,93.68093750000001,32.7,29.855320593749997,33.87
2021-07-06 15:39:16.984375000,-34.0,9.0,54.0,93.680625,31.47,29.855841062499998,33.87
2021-07-06 15:39:16.992187500,-34.0,9.0,54.0,93.68031250000001,29.845,29.85636153125,33.87
2021-07-06 15:39:17.000000000,-34.0,9.0,54.0,93.68,28.22,29.856882,33.87
2021-07-06 15:39:17.007812500,-34.0,8.75,54.0,93.679921875,26.505,29.856641781249998,33.87
2021-07-06 15:39:17.015625000,-34.0,8.5,54.0,93.67984375,24.79,29.8564015625,33.87
2021-07-06 15:39:17.023437500,-34.0,8.25,54.0,93.679765625,23.225,29.85616134375,33.87
2021-07-06 15:39:17.031250000,-34.0,8.0,54.0,93.6796875,21.66,29.855921125,33.87
2021-07-06 15:39:17.039062500,-34.0,8.25,54.0,93.67960937500001,20.36,29.85568090625,33.87
2021-07-06 15:39:17.046875000,-34.0,8.5,54.0,93.67953125000001,19.06,29.8554406875,33.87
2021-07-06 15:39:17.054687500,-34.0,8.75,54.0,93.67945312500001,18.075,29.85520046875,33.87
2021-07-06 15:39:17.062500000,-34.0,9.0,54.0,93.67937500000001,17.09,29.854960249999998,33.87
2021-07-06 15:39:17.070312500,-34.0,9.0,54.0,93.679296875,16.365000000000002,29.85472003125,33.87
2021-07-06 15:39:17.078125000,-34.0,9.0,54.0,93.67921875,15.64,29.8544798125,33.87
2021-07-06 15:39:17.085937500,-34.0,9.0,54.0,93.679140625,15.145,29.85423959375,33.87
2021-07-06 15:39:17.093750000,-34.0,9.0,54.0,93.6790625,14.65,29.853999375,33.87
2021-07-06 15:39:17.101562500,-34.0,8.75,54.0,93.67898437500001,14.365,29.85375915625,33.87
2021-07-06 15:39:17.109375000,-34.0,8.5,54.0,93.67890625000001,14.08,29.8535189375,33.87
2021-07-06 15:39:17.117187500,-34.0,8.25,54.0,93.67882812500001,14.015,29.85327871875,33.87
2021-07-06 15:39:17.125000000,-34.0,8.0,54.0,93.67875000000001,13.95,29.8530385,33.87
2021-07-06 15:39:17.132812500,-34.0,8.0,54.0,93.678671875,14.09,29.85279828125,33.87
2021-07-06 15:39:17.140625000,-34.0,8.0,54.0,93.67859375,14.23,29.8525580625,33.87
2021-07-06 15:39:17.148437500,-34.0,8.0,54.0,93.678515625,14.465,29.85231784375,33.87
2021-07-06 15:39:17.156250000,-34.0,8.0,54.0,93.6784375,14.7,29.852077625,33.87
2021-07-06 15:39:17.164062500,-34.0,8.25,54.0,93.678359375,14.835,29.851837406250002,33.87
2021-07-06 15:39:17.171875000,-34.0,8.5,54.0,93.67828125000001,14.97,29.8515971875,33.87
2021-07-06 15:39:17.179687500,-34.0,8.75,54.0,93.67820312500001,14.754999999999999,29.85135696875,33.87
2021-07-06 15:39:17.187500000,-34.0,9.0,54.0,93.67812500000001,14.54,29.851116750000003,33.87
2021-07-06 15:39:17.195312500,-34.0,9.0,54.0,93.678046875,13.76,29.85087653125,33.87
2021-07-06 15:39:17.203125000,-34.0,9.0,54.0,93.67796875,12.98,29.8506363125,33.87
2021-07-06 15:39:17.210937500,-34.0,9.0,54.0,93.677890625,11.52,29.85039609375,33.87
2021-07-06 15:39:17.218750000,-34.0,9.0,54.0,93.6778125,10.06,29.850155875000002,33.87
2021-07-06 15:39:17.226562500,-34.0,9.0,54.0,93.677734375,7.93,29.84991565625,33.87
2021-07-06 15:39:17.234375000,-34.0,9.0,54.0,93.67765625000001,5.8,29.8496754375,33.87
2021-07-06 15:39:17.242187500,-34.0,9.0,54.0,93.67757812500001,3.17,29.849435218750003,33.87
2021-07-06 15:39:17.250000000,-34.0,9.0,54.0,93.67750000000001,0.54,29.849195,33.87
2021-07-06 15:39:17.257812500,-34.0,9.0,54.0,93.67742187500001,-2.38,29.84975546875,33.87
2021-07-06 15:39:17.265625000,-34.0,9.0,54.0,93.67734375,-5.3,29.850315937500003,33.87
2021-07-06 15:39:17.273437500,-34.0,9.0,54.0,93.677265625,-8.265,29.850876406250002,33.87
2021-07-06 15:39:17.281250000,-34.0,9.0,54.0,93.6771875,-11.23,29.851436875,33.87
2021-07-06 15:39:17.289062500,-34.0,9.0,54.0,93.677109375,-14.08,29.85199734375,33.87
2021-07-06 15:39:17.296875000,-34.0,9.0,54.0,93.67703125,-16.93,29.852557812500002,33.87
2021-07-06 15:39:17.304687500,-34.0,9.0,54.0,93.67695312500001,-19.595,29.85311828125,33.87
2021-07-06 15:39:17.312500000,-34.0,9.0,54.0,93.67687500000001,-22.26,29.85367875,33.87
2021-07-06 15:39:17.320312500,-34.0,9.0,54.0,93.67679687500001,-24.770000000000003,29.854239218750003,33.87
2021-07-06 15:39:17.328125000,-34.0,9.0,54.0,93.67671875,-27.28,29.8547996875,33.87
2021-07-06 15:39:17.335937500,-34.0,9.0,54.0,93.676640625,-29.79,29.85536015625,33.87
2021-07-06 15:39:17.343750000,-34.0,9.0,54.0,93.6765625,-32.3,29.855920625,33.87
2021-07-06 15:39:17.351562500,-34.0,9.0,54.0,93.676484375,-35.08,29.856481093750002,33.87
2021-07-06 15:39:17.359375000,-34.0,9.0,54.0,93.67640625,-37.86,29.8570415625,33.87
2021-07-06 15:39:17.367187500,-34.0,9.0,54.0,93.67632812500001,-41.15,29.85760203125,33.87
2021-07-06 15:39:17.375000000,-34.0,9.0,54.0,93.67625000000001,-44.44,29.8581625,33.87
2021-07-06 15:39:17.382812500,-34.0,9.0,54.0,93.67617187500001,-48.325,29.85872296875,33.87
2021-07-06 15:39:17.390625000,-34.0,9.0,54.0,93.67609375,-52.21,29.8592834375,33.87
2021-07-06 15:39:17.398437500,-34.0,9.0,54.0,93.676015625,-56.44,29.85984390625,33.87
2021-07-06 15:39:17.406250000,-34.0,9.0,54.0,93.6759375,-60.67,29.860404375,33.87
2021-07-06 15:39:17.414062500,-34.0,9.0,54.0,93.675859375,-64.535,29.86096484375,33.87
2021-07-06 15:39:17.421875000,-34.0,9.0,54.0,93.67578125,-68.4,29.8615253125,33.87
2021-07-06 15:39:17.429687500,-34.0,9.0,54.0,93.675703125,-70.93,29.86208578125,33.87
2021-07-06 15:39:17.437500000,-34.0,9.0,54.0,93.67562500000001,-73.46,29.86264625,33.87
2021-07-06 15:39:17.445312500,-34.0,9.0,54.0,93.67554687500001,-73.68,29.86320671875,33.87
2021-07-06 15:39:17.453125000,-34.0,9.0,54.0,93.67546875000001,-73.9,29.8637671875,33.87
2021-07-06 15:39:17.460937500,-34.0,9.0,54.0,93.675390625,-71.20500000000001,29.86432765625,33.87
2021-07-06 15:39:17.468750000,-34.0,9.0,54.0,93.6753125,-68.51,29.864888125,33.87
2021-07-06 15:39:17.476562500,-34.0,8.75,54.0,93.675234375,-62.94,29.86544859375,33.87
2021-07-06 15:39:17.484375000,-34.0,8.5,54.0,93.67515625,-57.37,29.866009062499998,33.87
2021-07-06 15:39:17.492187500,-34.0,8.25,54.0,93.675078125,-49.614999999999995,29.86656953125,33.87
2021-07-06 15:39:17.500000000,-34.0,8.0,54.0,93.67500000000001,-41.86,29.86713,33.87
2021-07-06 15:39:17.507812500,-34.0,8.25,54.0,93.67492187500001,-33.03,29.86741028125,33.87
2021-07-06 15:39:17.515625000,-34.0,8.5,54.0,93.67484375000001,-24.2,29.867690562499998,33.87
2021-07-06 15:39:17.523437500,-34.0,8.75,54.0,93.674765625,-15.475,29.86797084375,33.87
2021-07-06 15:39:17.531250000,-34.0,9.0,54.0,93.6746875,-6.75,29.868251125,33.87
2021-07-06 15:39:17.539062500,-34.0,9.0,54.0,93.674609375,0.9550000000000001,29.86853140625,33.87
2021-07-06 15:39:17.546875000,-34.0,9.0,54.0,93.67453125,8.66,29.8688116875,33.87
2021-07-06 15:39:17.554687500,-34.0,9.0,54.0,93.674453125,14.855,29.86909196875,33.87
2021-07-06 15:39:17.562500000,-34.0,9.0,54.0,93.674375,21.05,29.869372249999998,33.87
2021-07-06 15:39:17.570312500,-34.0,8.75,54.0,93.67429687500001,25.65,29.86965253125,33.87
2021-07-06 15:39:17.578125000,-34.0,8.5,54.0,93.67421875000001,30.25,29.8699328125,33.87
2021-07-06 15:39:17.585937500,-34.0,8.25,54.0,93.674140625,33.405,29.87021309375,33.87
2021-07-06 15:39:17.593750000,-34.0,8.0,54.0,93.6740625,36.56,29.870493375,33.87
2021-07-06 15:39:17.601562500,-34.0,8.0,54.0,93.673984375,38.475,29.870773656249998,33.87
2021-07-06 15:39:17.609375000,-34.0,8.0,54.0,93.67390625,40.39,29.8710539375,33.87
2021-07-06 15:39:17.617187500,-34.0,8.0,54.0,93.673828125,41.275,29.87133421875,33.87
2021-07-06 15:39:17.625000000,-34.0,8.0,54.0,93.67375,42.16,29.8716145,33.87
2021-07-06 15:39:17.632812500,-34.0,8.25,54.0,93.673671875,42.165,29.87189478125,33.87
2021-07-06 15:39:17.640625000,-34.0,8.5,54.0,93.67359375000001,42.17,29.8721750625,33.87
2021-07-06 15:39:17.648437500,-34.0,8.75,54.0,93.67351562500001,41.49,29.87245534375,33.87
2021-07-06 15:39:17.656250000,-34.0,9.0,54.0,93.6734375,40.81,29.872735625,33.87
2021-07-06 15:39:17.664062500,-34.0,9.0,53.75,93.673359375,39.665000000000006,29.87301590625,33.87
2021-07-06 15:39:17.671875000,-34.0,9.0,53.5,93.67328125,38.52,29.8732961875,33.87
2021-07-06 15:39:17.679687500,-34.0,9.0,53.25,93.673203125,37.165000000000006,29.87357646875,33.87
2021-07-06 15:39:17.687500000,-34.0,9.0,53.0,93.673125,35.81,29.87385675,33.87
2021-07-06 15:39:17.695312500,-34.0,8.75,53.25,93.673046875,34.480000000000004,29.87413703125,33.87
2021-07-06 15:39:17.703125000,-34.0,8.5,53.5,93.67296875000001,33.15,29.8744173125,33.87
2021-07-06 15:39:17.710937500,-34.0,8.25,53.75,93.67289062500001,32.015,29.87469759375,33.87
2021-07-06 15:39:17.718750000,-34.0,8.0,54.0,93.6728125,30.88,29.874977875,33.87
2021-07-06 15:39:17.726562500,-34.0,8.25,54.0,93.672734375,29.979999999999997,29.87525815625,33.87
2021-07-06 15:39:17.734375000,-34.0,8.5,54.0,93.67265625,29.08,29.8755384375,33.87
2021-07-06 15:39:17.742187500,-34.0,8.75,54.0,93.672578125,28.38,29.87581871875,33.87
2021-07-06 15:39:17.750000000,-34.0,9.0,54.0,93.6725,27.68,29.876099,33.87
2021-07-06 15:39:17.757812500,-34.0,9.0,54.0,93.672421875,27.075,29.875978875,33.87
2021-07-06 15:39:17.765625000,-34.0,9.0,54.0,93.67234375,26.47,29.87585875,33.87
2021-07-06 15:39:17.773437500,-34.0,9.0,54.0,93.67226562500001,25.905,29.875738625,33.87
2021-07-06 15:39:17.781250000,-34.0,9.0,54.0,93.6721875,25.34,29.8756185,33.87
2021-07-06 15:39:17.789062500,-34.0,9.0,54.0,93.672109375,24.810000000000002,29.875498375,33.87
2021-07-06 15:39:17.796875000,-34.0,9.0,54.0,93.67203125,24.28,29.87537825,33.87
2021-07-06 15:39:17.804687500,-34.0,9.0,54.0,93.671953125,23.865000000000002,29.875258125,33.87
2021-07-06 15:39:17.812500000,-34.0,9.0,54.0,93.671875,23.45,29.875138,33.87
2021-07-06 15:39:17.820312500,-34.0,9.0,54.0,93.671796875,23.225,29.875017875,33.87
2021-07-06 15:39:17.828125000,-34.0,9.0,54.0,93.67171875,23.0,29.87489775,33.87
2021-07-06 15:39:17.835937500,-34.0,9.0,54.0,93.67164062500001,22.915,29.874777625,33.87
2021-07-06 15:39:17.843750000,-34.0,9.0,54.0,93.67156250000001,22.83,29.874657499999998,33.87
2021-07-06 15:39:17.851562500,-34.0,8.75,54.0,93.671484375,22.715,29.874537375,33.87
2021-07-06 15:39:17.859375000,-34.0,8.5,54.0,93.67140625,22.6,29.87441725,33.87
2021-07-06 15:39:17.867187500,-34.0,8.25,54.0,93.671328125,22.12,29.874297125,33.87
2021-07-06 15:39:17.875000000,-34.0,8.0,54.0,93.67125,21.64,29.874177,33.87
2021-07-06 15:39:17.882812500,-34.0,8.0,54.0,93.671171875,20.46,29.874056875,33.87
2021-07-06 15:39:17.890625000,-34.0,8.0,54.0,93.67109375,19.28,29.87393675,33.87
2021-07-06 15:39:17.898437500,-34.0,8.0,54.0,93.671015625,17.205000000000002,29.873816625,33.87
2021-07-06 15:39:17.906250000,-34.0,8.0,54.0,93.67093750000001,15.13,29.8736965,33.87
2021-07-06 15:39:17.914062500,-34.0,8.0,54.0,93.670859375,12.24,29.873576375,33.87
2021-07-06 15:39:17.921875000,-34.0,8.0,54.0,93.67078125,9.35,29.87345625,33.87
2021-07-06 15:39:17.929687500,-34.0,8.0,54.0,93.670703125,5.975,29.873336124999998,33.87
2021-07-06 15:39:17.937500000,-34.0,8.0,54.0,93.670625,2.6,29.873216,33.87
2021-07-06 15:39:17.945312500,-34.0,8.0,54.0,93.670546875,-0.7899999999999996,29.873095875,33.87
2021-07-06 15:39:17.953125000,-34.0,8.0,54.0,93.67046875,-4.18,29.87297575,33.87
2021-07-06 15:39:17.960937500,-34.0,8.0,54.0,93.670390625,-7.205,29.872855625,33.87
2021-07-06 15:39:17.968750000,-34.0,8.0,54.0,93.67031250000001,-10.23,29.872735499999997,33.87
2021-07-06 15:39:17.976562500,-34.0,8.0,54.0,93.670234375,-12.735,29.872615375,33.87
2021-07-06 15:39:17.984375000,-34.0,8.0,54.0,93.67015625,-15.24,29.87249525,33.87
2021-07-06 15:39:17.992187500,-34.0,8.0,54.0,93.670078125,-17.385,29.872375124999998,33.87
2021-07-06 15:39:18.000000000,-34.0,8.0,54.0,93.67,-19.53,29.872255,33.87
2021-07-06 15:39:18.007812500,-34.0,8.0,54.0,93.670078125,-21.695,29.872695375,33.87
2021-07-06 15:39:18.015625000,-34.0,8.0,54.0,93.67015625,-23.86,29.87313575,33.87
2021-07-06 15:39:18.023437500,-34.0,8.0,54.0,93.670234375,-26.525,29.873576125,33.87
2021-07-06 15:39:18.031250000,-34.0,8.0,54.0,93.67031250000001,-29.19,29.8740165,33.87
2021-07-06 15:39:18.039062500,-34.0,8.0,54.0,93.670390625,-32.695,29.874456875,33.87
2021-07-06 15:39:18.046875000,-34.0,8.0,54.0,93.67046875,-36.2,29.87489725,33.87
2021-07-06 15:39:18.054687500,-34.0,8.0,54.0,93.670546875,-40.63,29.875337625,33.87
2021-07-06 15:39:18.062500000,-34.0,8.0,54.0,93.670625,-45.06,29.875778,33.87
2021-07-06 15:39:18.070312500,-34.0,8.0,54.0,93.670703125,-50.105000000000004,29.876218375,33.87
2021-07-06 15:39:18.078125000,-34.0,8.0,54.0,93.67078125,-55.15,29.87665875,33.87
2021-07-06 15:39:18.085937500,-34.0,8.0,54.0,93.670859375,-60.129999999999995,29.877099125,33.87
2021-07-06 15:39:18.093750000,-34.0,8.0,54.0,93.67093750000001,-65.11,29.8775395,33.87
2021-07-06 15:39:18.101562500,-34.0,8.0,54.0,93.671015625,-69.06,29.877979875,33.87
2021-07-06 15:39:18.109375000,-34.0,8.0,54.0,93.67109375,-73.01,29.87842025,33.87
2021-07-06 15:39:18.117187500,-34.0,8.0,54.0,93.671171875,-74.92,29.878860625,33.87
2021-07-06 15:39:18.125000000,-34.0,8.0,54.0,93.67125,-76.83,29.879300999999998,33.87
2021-07-06 15:39:18.132812500,-34.0,8.0,53.75,93.671328125,-75.93,29.879741375,33.87
2021-07-06 15:39:18.140625000,-34.0,8.0,53.5,93.67140625,-75.03,29.88018175,33.87
2021-07-06 15:39:18.148437500,-34.0,8.0,53.25,93.671484375,-71.035,29.880622125,33.87
2021-07-06 15:39:18.156250000,-34.0,8.0,53.0,93.67156250000001,-67.04,29.8810625,33.87
2021-07-06 15:39:18.164062500,-34.0,8.0,53.0,93.67164062500001,-60.31,29.881502875,33.87
2021-07-06 15:39:18.171875000,-34.0,8.0,53.0,93.67171875,-53.58,29.88194325,33.87
2021-07-06 15:39:18.179687500,-34.0,8.0,53.0,93.671796875,-45.01,29.882383625,33.87
2021-07-06 15:39:18.187500000,-34.0,8.0,53.0,93.671875,-36.44,29.882824,33.87
2021-07-06 15:39:18.195312500,-34.0,8.0,53.25,93.671953125,-27.185,29.883264375,33.87
2021-07-06 15:39:18.203125000,-34.0,8.0,53.5,93.67203125,-17.93,29.88370475,33.87
2021-07-06 15:39:18.210937500,-34.0,8.0,53.75,93.672109375,-9.08,29.884145125,33.87
2021-07-06 15:39:18.218750000,-34.0,8.0,54.0,93.6721875,-0.23,29.8845855,33.87
2021-07-06 15:39:18.226562500,-34.25,8.0,54.0,93.67226562500001,7.43,29.885025875,33.87
2021-07-06 15:39:18.234375000,-34.5,8.0,54.0,93.67234375,15.09,29.88546625,33.87
2021-07-06 15:39:18.242187500,-34.75,8.0,54.0,93.672421875,21.17,29.885906625,33.87
2021-07-06 15:39:18.250000000,-35.0,8.0,54.0,93.6725,27.25,29.886347,33.87
2021-07-06 15:39:18.257812500,-34.75,8.0,54.0,93.672578125,31.68,29.88646709375,33.87
2021-07-06 15:39:18.265625000,-34.5,8.0,54.0,93.67265625,36.11,29.8865871875,33.87
2021-07-06 15:39:18.273437500,-34.25,8.0,54.0,93.672734375,38.995000000000005,29.88670728125,33.87
2021-07-06 15:39:18.281250000,-34.0,8.0,54.0,93.6728125,41.88,29.886827375,33.87
2021-07-06 15:39:18.289062500,-34.0,8.0,54.0,93.67289062500001,43.400000000000006,29.88694746875,33.87
2021-07-06 15:39:18.296875000,-34.0,8.0,54.0,93.67296875000001,44.92,29.8870675625,33.87
2021-07-06 15:39:18.304687500,-34.0,8.0,54.0,93.673046875,45.28,29.88718765625,33.87
2021-07-06 15:39:18.312500000,-34.0,8.0,54.0,93.673125,45.64,29.88730775,33.87
2021-07-06 15:39:18.320312500,-34.25,8.25,53.75,93.673203125,45.095,29.88742784375,33.87
2021-07-06 15:39:18.328125000,-34.5,8.5,53.5,93.67328125,44.55,29.8875479375,33.87
2021-07-06 15:39:18.335937500,-34.75,8.75,53.25,93.673359375,43.405,29.88766803125,33.87
2021-07-06 15:39:18.343750000,-35.0,9.0,53.0,93.6734375,42.26,29.887788125,33.87
2021-07-06 15:39:18.351562500,-35.0,8.75,53.25,93.67351562500001,40.864999999999995,29.88790821875,33.87
2021-07-06 15:39:18.359375000,-35.0,8.5,53.5,93.67359375000001,39.47,29.8880283125,33.87
2021-07-06 15:39:18.367187500,-35.0,8.25,53.75,93.673671875,38.15,29.88814840625,33.87
2021-07-06 15:39:18.375000000,-35.0,8.0,54.0,93.67375,36.83,29.888268500000002,33.87
2021-07-06 15:39:18.382812500,-34.75,8.0,54.0,93.673828125,35.79,29.88838859375,33.87
2021-07-06 15:39:18.390625000,-34.5,8.0,54.0,93.67390625,34.75,29.8885086875,33.87
2021-07-06 15:39:18.398437500,-34.25,8.0,54.0,93.673984375,34.035,29.888628781250002,33.87
2021-07-06 15:39:18.406250000,-34.0,8.0,54.0,93.6740625,33.32,29.888748875,33.87
2021-07-06 15:39:18.414062500,-34.0,8.0,54.0,93.674140625,32.84,29.88886896875,33.87
2021-07-06 15:39:18.421875000,-34.0,8.0,54.0,93.67421875000001,32.36,29.888989062500002,33.87
2021-07-06 15:39:18.429687500,-34.0,8.0,54.0,93.67429687500001,31.945,29.88910915625,33.87
2021-07-06 15:39:18.437500000,-34.0,8.0,54.0,93.674375,31.53,29.88922925,33.87
2021-07-06 15:39:18.445312500,-34.0,8.0,54.0,93.674453125,31.035,29.889349343750002,33.87
2021-07-06 15:39:18.453125000,-34.0,8.0,54.0,93.67453125,30.54,29.8894694375,33.87
2021-07-06 15:39:18.460937500,-34.0,8.0,54.0,93.674609375,29.945,29.88958953125,33.87
2021-07-06 15:39:18.468750000,-34.0,8.0,54.0,93.6746875,29.35,29.889709625000002,33.87
2021-07-06 15:39:18.476562500,-34.25,8.0,54.0,93.674765625,28.75,29.88982971875,33.87
2021-07-06 15:39:18.484375000,-34.5,8.0,54.0,93.67484375000001,28.15,29.8899498125,33.87
2021-07-06 15:39:18.492187500,-34.75,8.0,54.0,93.67492187500001,27.72,29.89006990625,33.87
2021-07-06 15:39:18.500000000,-35.0,8.0,54.0,93.67500000000001,27.29,29.89019,33.87
2021-07-06 15:39:18.507812500,-34.75,8.25,54.0,93.675078125,27.15,29.888868875,33.87
2021-07-06 15:39:18.515625000,-34.5,8.5,54.0,93.67515625,27.01,29.88754775,33.87
2021-07-06 15:39:18.523437500,-34.25,8.75,54.0,93.675234375,27.115000000000002,29.886226625,33.87
2021-07-06 15:39:18.531250000,-34.0,9.0,54.0,93.6753125,27.22,29.884905500000002,33.87
2021-07-06 15:39:18.539062500,-34.0,8.75,54.0,93.675390625,27.299999999999997,29.883584375,33.87
2021-07-06 15:39:18.546875000,-34.0,8.5,54.0,93.67546875000001,27.38,29.88226325,33.87
2021-07-06 15:39:18.554687500,-34.0,8.25,54.0,93.67554687500001,27.03,29.880942125,33.87
2021-07-06 15:39:18.562500000,-34.0,8.0,54.0,93.67562500000001,26.68,29.879621,33.87
2021-07-06 15:39:18.570312500,-34.0,8.0,53.75,93.675703125,25.535,29.878299875,33.87
2021-07-06 15:39:18.578125000,-34.0,8.0,53.5,93.67578125,24.39,29.87697875,33.87
2021-07-06 15:39:18.585937500,-34.0,8.0,53.25,93.675859375,22.27,29.875657625,33.87
2021-07-06 15:39:18.593750000,-34.0,8.0,53.0,93.6759375,20.15,29.8743365,33.87
2021-07-06 15:39:18.601562500,-34.0,8.0,53.25,93.676015625,17.18,29.873015375,33.87
2021-07-06 15:39:18.609375000,-34.0,8.0,53.5,93.67609375,14.21,29.87169425,33.87
2021-07-06 15:39:18.617187500,-34.0,8.0,53.75,93.67617187500001,10.74,29.870373125,33.87
2021-07-06 15:39:18.625000000,-34.0,8.0,54.0,93.67625000000001,7.27,29.869052,33.87
2021-07-06 15:39:18.632812500,-34.0,8.0,54.0,93.67632812500001,3.73,29.867730875,33.87
2021-07-06 15:39:18.640625000,-34.0,8.0,54.0,93.67640625,0.19,29.86640975,33.87
2021-07-06 15:39:18.648437500,-34.0,8.0,54.0,93.676484375,-3.0700000000000003,29.865088625,33.87
2021-07-06 15:39:18.656250000,-34.0,8.0,54.0,93.6765625,-6.33,29.8637675,33.87
2021-07-06 15:39:18.664062500,-34.0,8.0,53.75,93.676640625,-9.175,29.862446375,33.87
2021-07-06 15:39:18.671875000,-34.0,8.0,53.5,93.67671875,-12.02,29.86112525,33.87
2021-07-06 15:39:18.679687500,-34.0,8.0,53.25,93.67679687500001,-14.545,29.859804125,33.87
2021-07-06 15:39:18.687500000,-34.0,8.0,53.0,93.67687500000001,-17.07,29.858483,33.87
2021-07-06 15:39:18.695312500,-34.0,8.0,53.25,93.67695312500001,-19.515,29.857161875,33.87
2021-07-06 15:39:18.703125000,-34.0,8.0,53.5,93.67703125,-21.96,29.85584075,33.87
2021-07-06 15:39:18.710937500,-34.0,8.0,53.75,93.677109375,-24.655,29.854519625,33.87
2021-07-06 15:39:18.718750000,-34.0,8.0,54.0,93.6771875,-27.35,29.853198499999998,33.87
2021-07-06 15:39:18.726562500,-34.0,8.0,54.0,93.677265625,-30.6,29.851877375,33.87
2021-07-06 15:39:18.734375000,-34.0,8.0,54.0,93.67734375,-33.85,29.85055625,33.87
2021-07-06 15:39:18.742187500,-34.0,8.0,54.0,93.67742187500001,-37.81,29.849235125,33.87
2021-07-06 15:39:18.750000000,-34.0,8.0,54.0,93.67750000000001,-41.77,29.847914,33.87
2021-07-06 15:39:18.757812500,-34.0,8.0,54.0,93.67757812500001,-46.36,29.8482743125,33.87
2021-07-06 15:39:18.765625000,-34.0,8.0,54.0,93.67765625000001,-50.95,29.848634625,33.87
2021-07-06 15:39:18.773437500,-34.0,8.0,54.0,93.677734375,-55.72,29.8489949375,33.87
2021-07-06 15:39:18.781250000,-34.0,8.0,54.0,93.6778125,-60.49,29.84935525,33.87
2021-07-06 15:39:18.789062500,-34.0,8.0,53.75,93.677890625,-64.64,29.8497155625,33.87
2021-07-06 15:39:18.796875000,-34.0,8.0,53.5,93.67796875,-68.79,29.850075874999998,33.87
2021-07-06 15:39:18.804687500,-34.0,8.0,53.25,93.678046875,-71.285,29.850436187499998,33.87
2021-07-06 15:39:18.812500000,-34.0,8.0,53.0,93.67812500000001,-73.78,29.8507965,33.87
2021-07-06 15:39:18.820312500,-34.0,8.25,53.25,93.67820312500001,-73.675,29.8511568125,33.87
2021-07-06 15:39:18.828125000,-34.0,8.5,53.5,93.67828125000001,-73.57,29.851517125,33.87
2021-07-06 15:39:18.835937500,-34.0,8.75,53.75,93.678359375,-70.32,29.8518774375,33.87
2021-07-06 15:39:18.843750000,-34.0,9.0,54.0,93.6784375,-67.07,29.85223775,33.87
2021-07-06 15:39:18.851562500,-34.0,9.0,53.75,93.678515625,-60.81999999999999,29.8525980625,33.87
2021-07-06 15:39:18.859375000,-34.0,9.0,53.5,93.67859375,-54.57,29.852958375,33.87
2021-07-06 15:39:18.867187500,-34.0,9.0,53.25,93.678671875,-46.11,29.8533186875,33.87
2021-07-06 15:39:18.875000000,-34.0,9.0,53.0,93.67875000000001,-37.65,29.853679,33.87
2021-07-06 15:39:18.882812500,-34.0,8.75,53.25,93.67882812500001,-28.205,29.8540393125,33.87
2021-07-06 15:39:18.890625000,-34.0,8.5,53.5,93.67890625000001,-18.76,29.854399625,33.87
2021-07-06 15:39:18.898437500,-34.0,8.25,53.75,93.67898437500001,-9.605,29.8547599375,33.87
2021-07-06 15:39:18.906250000,-34.0,8.0,54.0,93.6790625,-0.45,29.85512025,33.87
2021-07-06 15:39:18.914062500,-34.0,8.25,54.0,93.679140625,7.47,29.8554805625,33.87
2021-07-06 15:39:18.921875000,-34.0,8.5,54.0,93.67921875,15.39,29.855840875,33.87
2021-07-06 15:39:18.929687500,-34.0,8.75,54.0,93.679296875,21.6,29.856201187499998,33.87
2021-07-06 15:39:18.937500000,-34.0,9.0,54.0,93.67937500000001,27.81,29.856561499999998,33.87
2021-07-06 15:39:18.945312500,-34.0,8.75,54.0,93.67945312500001,32.265,29.8569218125,33.87
2021-07-06 15:39:18.953125000,-34.0,8.5,54.0,93.67953125000001,36.72,29.857282125,33.87
2021-07-06 15:39:18.960937500,-34.0,8.25,54.0,93.67960937500001,39.65,29.8576424375,33.87
2021-07-06 15:39:18.968750000,-34.0,8.0,54.0,93.6796875,42.58,29.85800275,33.87
2021-07-06 15:39:18.976562500,-34.0,8.0,54.0,93.679765625,44.239999999999995,29.8583630625,33.87
2021-07-06 15:39:18.984375000,-34.0,8.0,54.0,93.67984375,45.9,29.858723375,33.87
2021-07-06 15:39:18.992187500,-34.0,8.0,54.0,93.679921875,46.485,29.8590836875,33.87
2021-07-06 15:39:19.000000000,-34.0,8.0,54.0,93.68,47.07,29.859444,33.87
2021-07-06 15:39:19.007812500,-34.0,8.25,54.0,93.68015625000001,46.71,29.86028471875,33.87
2021-07-06 15:39:19.015625000,-34.0,8.5,54.0,93.68031250000001,46.35,29.8611254375,33.87
2021-07-06 15:39:19.023437500,-34.0,8.75,54.0,93.68046875,45.185,29.86196615625,33.87
2021-07-06 15:39:19.031250000,-34.0,9.0,54.0,93.680625,44.02,29.862806875,33.87
2021-07-06 15:39:19.039062500,-34.0,8.75,54.0,93.68078125000001,42.255,29.86364759375,33.87
2021-07-06 15:39:19.046875000,-34.0,8.5,54.0,93.68093750000001,40.49,29.8644883125,33.87
2021-07-06 15:39:19.054687500,-34.0,8.25,54.0,93.68109375,38.44,29.86532903125,33.87
2021-07-06 15:39:19.062500000,-34.0,8.0,54.0,93.68125,36.39,29.86616975,33.87
2021-07-06 15:39:19.070312500,-34.0,8.0,54.0,93.68140625000001,34.365,29.86701046875,33.87
2021-07-06 15:39:19.078125000,-34.0,8.0,54.0,93.68156250000001,32.34,29.8678511875,33.87
2021-07-06 15:39:19.085937500,-34.0,8.0,54.0,93.68171875,30.590000000000003,29.86869190625,33.87
2021-07-06 15:39:19.093750000,-34.0,8.0,54.0,93.681875,28.84,29.869532625,33.87
2021-07-06 15:39:19.101562500,-34.0,8.0,54.0,93.68203125000001,27.490000000000002,29.87037334375,33.87
2021-07-06 15:39:19.109375000,-34.0,8.0,54.0,93.68218750000001,26.14,29.8712140625,33.87
2021-07-06 15:39:19.117187500,-34.0,8.0,54.0,93.68234375,25.165,29.87205478125,33.87
2021-07-06 15:39:19.125000000,-34.0,8.0,54.0,93.6825,24.19,29.8728955,33.87
2021-07-06 15:39:19.132812500,-34.0,8.0,54.0,93.68265625000001,23.485,29.87373621875,33.87
2021-07-06 15:39:19.140625000,-34.0,8.0,54.0,93.68281250000001,22.78,29.8745769375,33.87
2021-07-06 15:39:19.148437500,-34.0,8.0,54.0,93.68296875,22.23,29.87541765625,33.87
2021-07-06 15:39:19.156250000,-34.0,8.0,54.0,93.683125,21.68,29.876258375,33.87
2021-07-06 15:39:19.164062500,-34.0,8.0,54.0,93.68328125000001,21.225,29.87709909375,33.87
2021-07-06 15:39:19.171875000,-34.0,8.0,54.0,93.68343750000001,20.77,29.8779398125,33.87
2021-07-06 15:39:19.179687500,-34.0,8.0,54.0,93.68359375,20.4,29.87878053125,33.87
2021-07-06 15:39:19.187500000,-34.0,8.0,54.0,93.68375,20.03,29.87962125,33.87
2021-07-06 15:39:19.195312500,-34.0,8.0,54.0,93.68390625,19.745,29.88046196875,33.87
2021-07-06 15:39:19.203125000,-34.0,8.0,54.0,93.68406250000001,19.46,29.8813026875,33.87
2021-07-06 15:39:19.210937500,-34.0,8.0,54.0,93.68421875,19.200000000000003,29.88214340625,33.87
2021-07-06 15:39:19.218750000,-34.0,8.0,54.0,93.684375,18.94,29.882984125,33.87
2021-07-06 15:39:19.226562500,-34.0,8.25,54.0,93.68453125,18.55,29.883824843750002,33.87
2021-07-06 15:39:19.234375000,-34.0,8.5,54.0,93.68468750000001,18.16,29.8846655625,33.87
2021-07-06 15:39:19.242187500,-34.0,8.75,54.0,93.68484375,17.41,29.885506281250002,33.87
2021-07-06 15:39:19.250000000,-34.0,9.0,54.0,93.685,16.66,29.886347,33.87
2021-07-06 15:39:19.257812500,-34.0,8.75,54.0,93.68515625,15.335,29.88642703125,33.87
2021-07-06 15:39:19.265625000,-34.0,8.5,54.0,93.68531250000001,14.01,29.8865070625,33.87
2021-07-06 15:39:19.273437500,-34.0,8.25,54.0,93.68546875000001,12.02,29.886587093750002,33.87
2021-07-06 15:39:19.281250000,-34.0,8.0,54.0,93.685625,10.03,29.886667125000002,33.87
2021-07-06 15:39:19.289062500,-34.0,8.0,54.0,93.68578125,7.459999999999999,29.88674715625,33.87
2021-07-06 15:39:19.296875000,-34.0,8.0,54.0,93.68593750000001,4.89,29.8868271875,33.87
2021-07-06 15:39:19.304687500,-34.0,8.0,54.0,93.68609375000001,2.005,29.88690721875,33.87
2021-07-06 15:39:19.312500000,-34.0,8.0,54.0,93.68625,-0.88,29.88698725,33.87
2021-07-06 15:39:19.320312500,-34.0,8.0,54.0,93.68640625,-3.75,29.88706728125,33.87
2021-07-06 15:39:19.328125000,-34.0,8.0,54.0,93.68656250000001,-6.62,29.8871473125,33.87
2021-07-06 15:39:19.335937500,-34.0,8.0,54.0,93.68671875000001,-9.175,29.887227343750002,33.87
2021-07-06 15:39:19.343750000,-34.0,8.0,54.0,93.686875,-11.73,29.887307375,33.87
2021-07-06 15:39:19.351562500,-34.0,8.0,54.0,93.68703125,-13.870000000000001,29.88738740625,33.87
2021-07-06 15:39:19.359375000,-34.0,8.0,54.0,93.68718750000001,-16.01,29.8874674375,33.87
2021-07-06 15:39:19.367187500,-34.0,8.0,54.0,93.68734375000001,-17.86,29.88754746875,33.87
2021-07-06 15:39:19.375000000,-34.0,8.0,54.0,93.6875,-19.71,29.8876275,33.87
2021-07-06 15:39:19.382812500,-34.0,8.0,54.0,93.68765625,-21.595,29.88770753125,33.87
2021-07-06 15:39:19.390625000,-34.0,8.0,54.0,93.6878125,-23.48,29.8877875625,33.87
2021-07-06 15:39:19.398437500,-34.0,8.0,54.0,93.68796875000001,-25.85,29.887867593750002,33.87
2021-07-06 15:39:19.406250000,-34.0,8.0,54.0,93.688125,-28.22,29.887947625000002,33.87
2021-07-06 15:39:19.414062500,-34.0,8.25,54.0,93.68828125,-31.415,29.88802765625,33.87
2021-07-06 15:39:19.421875000,-34.0,8.5,54.0,93.6884375,-34.61,29.8881076875,33.87
2021-07-06 15:39:19.429687500,-34.0,8.75,54.0,93.68859375000001,-38.705,29.88818771875,33.87
2021-07-06 15:39:19.437500000,-34.0,9.0,54.0,93.68875,-42.8,29.88826775,33.87
2021-07-06 15:39:19.445312500,-34.0,9.0,54.0,93.68890625,-47.445,29.88834778125,33.87
2021-07-06 15:39:19.453125000,-34.0,9.0,54.0,93.6890625,-52.09,29.8884278125,33.87
2021-07-06 15:39:19.460937500,-34.0,9.0,54.0,93.68921875000001,-56.49,29.888507843750002,33.87
2021-07-06 15:39:19.468750000,-34.0,9.0,54.0,93.689375,-60.89,29.888587875,33.87
2021-07-06 15:39:19.476562500,-34.0,9.0,54.0,93.68953125,-63.99,29.88866790625,33.87
2021-07-06 15:39:19.484375000,-34.0,9.0,54.0,93.6896875,-67.09,29.8887479375,33.87
2021-07-06 15:39:19.492187500,-34.0,9.0,54.0,93.68984375000001,-67.875,29.88882796875,33.87
2021-07-06 15:39:19.500000000,-34.0,9.0,54.0,93.69,-68.66,29.888908,33.87
2021-07-06 15:39:19.507812500,-34.0,9.0,54.0,93.69015625,-66.49,29.88942846875,33.87
2021-07-06 15:39:19.515625000,-34.0,9.0,54.0,93.6903125,-64.32,29.8899489375,33.87
2021-07-06 15:39:19.523437500,-34.0,9.0,54.0,93.69046875000001,-59.175,29.890469406250002,33.87
2021-07-06 15:39:19.531250000,-34.0,9.0,54.0,93.69062500000001,-54.03,29.890989875000002,33.87
2021-07-06 15:39:19.539062500,-34.0,8.75,54.0,93.69078125,-46.58,29.89151034375,33.87
2021-07-06 15:39:19.546875000,-34.0,8.5,54.0,93.6909375,-39.13,29.8920308125,33.87
2021-07-06 15:39:19.554687500,-34.0,8.25,54.0,93.69109375000001,-30.485,29.89255128125,33.87
2021-07-06 15:39:19.562500000,-34.0,8.0,54.0,93.69125000000001,-21.84,29.89307175,33.87
2021-07-06 15:39:19.570312500,-34.0,8.0,54.0,93.69140625,-13.24,29.89359221875,33.87
2021-07-06 15:39:19.578125000,-34.0,8.0,54.0,93.6915625,-4.64,29.8941126875,33.87
2021-07-06 15:39:19.585937500,-34.0,8.0,54.0,93.69171875,2.915,29.894633156250002,33.87
2021-07-06 15:39:19.593750000,-34.0,8.0,54.0,93.69187500000001,10.47,29.895153625,33.87
2021-07-06 15:39:19.601562500,-34.0,8.0,54.0,93.69203125,16.445,29.89567409375,33.87
2021-07-06 15:39:19.609375000,-34.0,8.0,54.0,93.6921875,22.42,29.8961945625,33.87
2021-07-06 15:39:19.617187500,-34.0,8.0,54.0,93.69234375,26.72,29.89671503125,33.87
2021-07-06 15:39:19.625000000,-34.0,8.0,54.0,93.69250000000001,31.02,29.8972355,33.87
2021-07-06 15:39:19.632812500,-34.0,8.25,54.0,93.69265625,33.805,29.89775596875,33.87
2021-07-06 15:39:19.640625000,-34.0,8.5,54.0,93.6928125,36.59,29.8982764375,33.87
2021-07-06 15:39:19.648437500,-34.0,8.75,54.0,93.69296875,38.09,29.898796906250002,33.87
2021-07-06 15:39:19.656250000,-34.0,9.0,54.0,93.69312500000001,39.59,29.899317375000003,33.87
2021-07-06 15:39:19.664062500,-33.75,9.0,54.0,93.69328125,39.96,29.89983784375,33.87
2021-07-06 15:39:19.671875000,-33.5,9.0,54.0,93.6934375,40.33,29.9003583125,33.87
2021-07-06 15:39:19.679687500,-33.25,9.0,54.0,93.69359375,39.64,29.90087878125,33.87
2021-07-06 15:39:19.687500000,-33.0,9.0,54.0,93.69375000000001,38.95,29.90139925,33.87
2021-07-06 15:39:19.695312500,-33.25,9.0,54.0,93.69390625,37.3,29.90191971875,33.87
2021-07-06 15:39:19.703125000,-33.5,9.0,54.0,93.6940625,35.65,29.9024401875,33.87
2021-07-06 15:39:19.710937500,-33.75,9.0,54.0,93.69421875,33.26,29.902960656250002,33.87
2021-07-06 15:39:19.718750000,-34.0,9.0,54.0,93.69437500000001,30.87,29.903481125,33.87
2021-07-06 15:39:19.726562500,-34.0,8.75,54.0,93.69453125,28.09,29.90400159375,33.87
2021-07-06 15:39:19.734375000,-34.0,8.5,54.0,93.6946875,25.31,29.9045220625,33.87
2021-07-06 15:39:19.742187500,-34.0,8.25,54.0,93.69484375,22.564999999999998,29.90504253125,33.87
2021-07-06 15:39:19.750000000,-34.0,8.0,54.0,93.69500000000001,19.82,29.905563,33.87
2021-07-06 15:39:19.757812500,-34.0,8.0,54.0,93.69515625000001,17.475,29.90788496875,33.87
2021-07-06 15:39:19.765625000,-34.0,8.0,54.0,93.6953125,15.13,29.9102069375,33.87
2021-07-06 15:39:19.773437500,-34.0,8.0,54.0,93.69546875,13.420000000000002,29.91252890625,33.87
2021-07-06 15:39:19.781250000,-34.0,8.0,54.0,93.695625,11.71,29.914850875,33.87
2021-07-06 15:39:19.789062500,-34.0,8.0,54.0,93.69578125000001,10.66,29.917172843750002,33.87
2021-07-06 15:39:19.796875000,-34.0,8.0,54.0,93.6959375,9.61,29.9194948125,33.87
2021-07-06 15:39:19.804687500,-34.0,8.0,54.0,93.69609375,9.085,29.92181678125,33.87
2021-07-06 15:39:19.812500000,-34.0,8.0,54.0,93.69625,8.56,29.92413875,33.87
2021-07-06 15:39:19.820312500,-34.0,8.0,54.0,93.69640625000001,8.33,29.92646071875,33.87
2021-07-06 15:39:19.828125000,-34.0,8.0,54.0,93.6965625,8.1,29.9287826875,33.87
2021-07-06 15:39:19.835937500,-34.0,8.0,54.0,93.69671875,7.9399999999999995,29.93110465625,33.87
2021-07-06 15:39:19.843750000,-34.0,8.0,54.0,93.696875,7.78,29.933426625000003,33.87
2021-07-06 15:39:19.851562500,-34.0,8.0,54.0,93.69703125000001,7.51,29.935748593750002,33.87
2021-07-06 15:39:19.859375000,-34.0,8.0,54.0,93.6971875,7.24,29.938070562500002,33.87
2021-07-06 15:39:19.867187500,-34.0,8.0,54.0,93.69734375,6.755,29.94039253125,33.87
2021-07-06 15:39:19.875000000,-34.0,8.0,54.0,93.6975,6.27,29.9427145,33.87
2021-07-06 15:39:19.882812500,-34.0,8.25,54.0,93.69765625000001,5.525,29.94503646875,33.87
2021-07-06 15:39:19.890625000,-34.0,8.5,54.0,93.6978125,4.78,29.9473584375,33.87
2021-07-06 15:39:19.898437500,-34.0,8.75,54.0,93.69796875,3.7600000000000002,29.94968040625,33.87
2021-07-06 15:39:19.906250000,-34.0,9.0,54.0,93.698125,2.74,29.952002375,33.87
2021-07-06 15:39:19.914062500,-34.0,8.75,54.0,93.69828125000001,1.435,29.954324343750002,33.87
2021-07-06 15:39:19.921875000,-34.0,8.5,54.0,93.6984375,0.13,29.956646312500002,33.87
2021-07-06 15:39:19.929687500,-34.0,8.25,54.0,93.69859375,-1.4699999999999998,29.95896828125,33.87
2021-07-06 15:39:19.937500000,-34.0,8.0,54.0,93.69875,-3.07,29.96129025,33.87
2021-07-06 15:39:19.945312500,-34.0,8.0,54.0,93.69890625000001,-4.975,29.96361221875,33.87
2021-07-06 15:39:19.953125000,-34.0,8.0,54.0,93.6990625,-6.88,29.9659341875,33.87
2021-07-06 15:39:19.960937500,-34.0,8.0,54.0,93.69921875,-9.084999999999999,29.96825615625,33.87
2021-07-06 15:39:19.968750000,-34.0,8.0,54.0,93.699375,-11.29,29.970578125000003,33.87
2021-07-06 15:39:19.976562500,-34.0,8.0,54.0,93.69953125,-13.76,29.972900093750003,33.87
2021-07-06 15:39:19.984375000,-34.0,8.0,54.0,93.6996875,-16.23,29.975222062500002,33.87
2021-07-06 15:39:19.992187500,-34.0,8.0,54.0,93.69984375,-18.925,29.97754403125,33.87
2021-07-06 15:39:20.000000000,-34.0,8.0,54.0,93.7,-21.62,29.979866,33.87
2021-07-06 15:39:20.007812500,-34.0,8.25,54.0,93.7,-24.555,29.97970590625,33.870625
2021-07-06 15:39:20.015625000,-34.0,8.5,54.0,93.7,-27.49,29.9795458125,33.871249999999996
2021-07-06 15:39:20.023437500,-34.0,8.75,54.0,93.7,-30.75,29.979385718750002,33.871874999999996
2021-07-06 15:39:20.031250000,-34.0,9.0,54.0,93.7,-34.01,29.979225625,33.872499999999995
2021-07-06 15:39:20.039062500,-34.0,8.75,54.0,93.7,-37.715,29.97906553125,33.873124999999995
2021-07-06 15:39:20.046875000,-34.0,8.5,54.0,93.7,-41.42,29.9789054375,33.87375
2021-07-06 15:39:20.054687500,-34.0,8.25,54.0,93.7,-45.525000000000006,29.978745343750003,33.874375
2021-07-06 15:39:20.062500000,-34.0,8.0,54.0,93.7,-49.63,29.978585250000002,33.875
2021-07-06 15:39:20.070312500,-34.0,8.0,54.0,93.7,-53.8,29.97842515625,33.875625
2021-07-06 15:39:20.078125000,-34.0,8.0,54.0,93.7,-57.97,29.9782650625,33.87625
2021-07-06 15:39:20.085937500,-34.0,8.0,54.0,93.7,-61.485,29.97810496875,33.876875
2021-07-06 15:39:20.093750000,-34.0,8.0,54.0,93.7,-65.0,29.977944875000002,33.8775
2021-07-06 15:39:20.101562500,-33.75,8.0,54.0,93.7,-66.88,29.97778478125,33.878125
2021-07-06 15:39:20.109375000,-33.5,8.0,54.0,93.7,-68.76,29.9776246875,33.87875
2021-07-06 15:39:20.117187500,-33.25,8.0,54.0,93.7,-68.1,29.97746459375,33.879374999999996
2021-07-06 15:39:20.125000000,-33.0,8.0,54.0,93.7,-67.44,29.977304500000002,33.879999999999995
2021-07-06 15:39:20.132812500,-33.25,8.25,54.0,93.7,-63.78,29.97714440625,33.880625
2021-07-06 15:39:20.140625000,-33.5,8.5,54.0,93.7,-60.12,29.9769843125,33.88125
2021-07-06 15:39:20.148437500,-33.75,8.75,54.0,93.7,-53.705,29.97682421875,33.881875
2021-07-06 15:39:20.156250000,-34.0,9.0,54.0,93.7,-47.29,29.976664125,33.8825
2021-07-06 15:39:20.164062500,-34.0,8.75,54.0,93.7,-39.019999999999996,29.976504031250002,33.883125
2021-07-06 15:39:20.171875000,-34.0,8.5,54.0,93.7,-30.75,29.9763439375,33.88375
2021-07-06 15:39:20.179687500,-34.0,8.25,54.0,93.7,-21.9,29.97618384375,33.884375
2021-07-06 15:39:20.187500000,-34.0,8.0,54.0,93.7,-13.05,29.97602375,33.885
2021-07-06 15:39:20.195312500,-34.0,8.25,54.0,93.7,-4.825000000000001,29.97586365625,33.885625
2021-07-06 15:39:20.203125000,-34.0,8.5,54.0,93.7,3.4,29.9757035625,33.88625
2021-07-06 15:39:20.210937500,-34.0,8.75,54.0,93.7,10.18,29.97554346875,33.886875
2021-07-06 15:39:20.218750000,-34.0,9.0,54.0,93.7,16.96,29.975383375,33.8875
2021-07-06 15:39:20.226562500,-34.0,9.0,54.0,93.7,22.005000000000003,29.97522328125,33.888125
2021-07-06 15:39:20.234375000,-34.0,9.0,54.0,93.7,27.05,29.9750631875,33.88875
2021-07-06 15:39:20.242187500,-34.0,9.0,54.0,93.7,30.490000000000002,29.97490309375,33.889375
2021-07-06 15:39:20.250000000,-34.0,9.0,54.0,93.7,33.93,29.974743,33.89
2021-07-06 15:39:20.257812500,-33.75,9.0,54.0,93.7,36.019999999999996,29.97214078125,33.89
2021-07-06 15:39:20.265625000,-33.5,9.0,54.0,93.7,38.11,29.9695385625,33.89
2021-07-06 15:39:20.273437500,-33.25,9.0,54.0,93.7,39.04,29.96693634375,33.89
2021-07-06 15:39:20.281250000,-33.0,9.0,54.0,93.7,39.97,29.964334125,33.89
2021-07-06 15:39:20.289062500,-33.25,8.75,54.0,93.7,39.81,29.96173190625,33.89
2021-07-06 15:39:20.296875000,-33.5,8.5,54.0,93.7,39.65,29.9591296875,33.89
2021-07-06 15:39:20.304687500,-33.75,8.25,54.0,93.7,38.415,29.95652746875,33.89
2021-07-06 15:39:20.312500000,-34.0,8.0,54.0,93.7,37.18,29.95392525,33.89
2021-07-06 15:39:20.320312500,-34.0,8.25,54.0,93.7,34.97,29.95132303125,33.89
2021-07-06 15:39:20.328125000,-34.0,8.5,54.0,93.7,32.76,29.9487208125,33.89
2021-07-06 15:39:20.335937500,-34.0,8.75,54.0,93.7,29.9,29.94611859375,33.89
2021-07-06 15:39:20.343750000,-34.0,9.0,54.0,93.7,27.04,29.943516375,33.89
2021-07-06 15:39:20.351562500,-34.0,8.75,54.0,93.7,23.990000000000002,29.94091415625,33.89
2021-07-06 15:39:20.359375000,-34.0,8.5,54.0,93.7,20.94,29.9383119375,33.89
2021-07-06 15:39:20.367187500,-34.0,8.25,54.0,93.7,18.245,29.93570971875,33.89
2021-07-06 15:39:20.375000000,-34.0,8.0,54.0,93.7,15.55,29.9331075,33.89
2021-07-06 15:39:20.382812500,-34.0,8.0,54.0,93.7,13.595,29.93050528125,33.89
2021-07-06 15:39:20.390625000,-34.0,8.0,54.0,93.7,11.64,29.9279030625,33.89
2021-07-06 15:39:20.398437500,-34.0,8.0,54.0,93.7,10.555,29.92530084375,33.89
2021-07-06 15:39:20.406250000,-34.0,8.0,54.0,93.7,9.47,29.922698625,33.89
2021-07-06 15:39:20.414062500,-34.0,8.0,54.0,93.7,9.08,29.92009640625,33.89
2021-07-06 15:39:20.421875000,-34.0,8.0,54.0,93.7,8.69,29.9174941875,33.89
2021-07-06 15:39:20.429687500,-34.0,8.0,54.0,93.7,8.614999999999998,29.914891968750002,33.89
2021-07-06 15:39:20.437500000,-34.0,8.0,54.0,93.7,8.54,29.91228975,33.89
2021-07-06 15:39:20.445312500,-34.0,8.0,54.0,93.7,8.36,29.90968753125,33.89
2021-07-06 15:39:20.453125000,-34.0,8.0,54.0,93.7,8.18,29.9070853125,33.89
2021-07-06 15:39:20.460937500,-34.0,8.0,54.0,93.7,7.585,29.90448309375,33.89
2021-07-06 15:39:20.468750000,-34.0,8.0,54.0,93.7,6.99,29.901880875,33.89
2021-07-06 15:39:20.476562500,-34.0,8.25,54.0,93.7,5.895,29.89927865625,33.89
2021-07-06 15:39:20.484375000,-34.0,8.5,54.0,93.7,4.8,29.896676437500002,33.89
2021-07-06 15:39:20.492187500,-34.0,8.75,54.0,93.7,3.325,29.89407421875,33.89
2021-07-06 15:39:20.500000000,-34.0,9.0,54.0,93.7,1.85,29.891472,33.89
2021-07-06 15:39:20.507812500,-34.0,9.0,54.0,93.7,0.2250000000000001,29.89167215625,33.89
2021-07-06 15:39:20.515625000,-34.0,9.0,54.0,93.7,-1.4,29.8918723125,33.89
2021-07-06 15:39:20.523437500,-34.0,9.0,54.0,93.7,-2.96,29.89207246875,33.89
2021-07-06 15:39:20.531250000,-34.0,9.0,54.0,93.7,-4.52,29.892272625,33.89
2021-07-06 15:39:20.539062500,-34.0,8.75,53.75,93.7,-5.914999999999999,29.89247278125,33.89
2021-07-06 15:39:20.546875000,-34.0,8.5,53.5,93.7,-7.31,29.892672937500002,33.89
2021-07-06 15:39:20.554687500,-34.0,8.25,53.25,93.7,-8.59,29.89287309375,33.89
2021-07-06 15:39:20.562500000,-34.0,8.0,53.0,93.7,-9.87,29.89307325,33.89
2021-07-06 15:39:20.570312500,-34.0,8.0,53.25,93.7,-11.225,29.89327340625,33.89
2021-07-06 15:39:20.578125000,-34.0,8.0,53.5,93.7,-12.58,29.8934735625,33.89
2021-07-06 15:39:20.585937500,-34.0,8.0,53.75,93.7,-14.280000000000001,29.89367371875,33.89
2021-07-06 15:39:20.593750000,-34.0,8.0,54.0,93.7,-15.98,29.893873875,33.89
2021-07-06 15:39:20.601562500,-34.0,8.0,54.0,93.7,-18.265,29.89407403125,33.89
2021-07-06 15:39:20.609375000,-34.0,8.0,54.0,93.7,-20.55,29.894274187500002,33.89
2021-07-06 15:39:20.617187500,-34.0,8.0,54.0,93.7,-23.630000000000003,29.89447434375,33.89
2021-07-06 15:39:20.625000000,-34.0,8.0,54.0,93.7,-26.71,29.8946745,33.89
2021-07-06 15:39:20.632812500,-34.0,8.0,54.0,93.7,-30.695,29.89487465625,33.89
2021-07-06 15:39:20.640625000,-34.0,8.0,54.0,93.7,-34.68,29.8950748125,33.89
2021-07-06 15:39:20.648437500,-34.0,8.0,54.0,93.7,-39.47,29.89527496875,33.89
2021-07-06 15:39:20.656250000,-34.0,8.0,54.0,93.7,-44.26,29.895475125,33.89
2021-07-06 15:39:20.664062500,-34.25,8.0,53.75,93.7,-49.459999999999994,29.89567528125,33.89
2021-07-06 15:39:20.671875000,-34.5,8.0,53.5,93.7,-54.66,29.895875437500003,33.89
2021-07-06 15:39:20.679687500,-34.75,8.0,53.25,93.7,-59.54,29.896075593750002,33.89
2021-07-06 15:39:20.687500000,-35.0,8.0,53.0,93.7,-64.42,29.89627575,33.89
2021-07-06 15:39:20.695312500,-34.75,8.0,53.25,93.7,-67.965,29.89647590625,33.89
2021-07-06 15:39:20.703125000,-34.5,8.0,53.5,93.7,-71.51,29.8966760625,33.89
2021-07-06 15:39:20.710937500,-34.25,8.0,53.75,93.7,-72.695,29.896876218750002,33.89
2021-07-06 15:39:20.718750000,-34.0,8.0,54.0,93.7,-73.88,29.897076375,33.89
2021-07-06 15:39:20.726562500,-34.0,8.25,54.0,93.7,-71.97,29.89727653125,33.89
2021-07-06 15:39:20.734375000,-34.0,8.5,54.0,93.7,-70.06,29.897476687500003,33.89
2021-07-06 15:39:20.742187500,-34.0,8.75,54.0,93.7,-64.95,29.897676843750002,33.89
2021-07-06 15:39:20.750000000,-34.0,9.0,54.0,93.7,-59.84,29.897877,33.89
2021-07-06 15:39:20.757812500,-34.0,8.75,54.0,93.7,-52.08,29.89523471875,33.89
2021-07-06 15:39:20.765625000,-34.0,8.5,54.0,93.7,-44.32,29.8925924375,33.89
2021-07-06 15:39:20.773437500,-34.0,8.25,54.0,93.7,-35.045,29.889950156250002,33.89
2021-07-06 15:39:20.781250000,-34.0,8.0,54.0,93.7,-25.77,29.887307875,33.89
2021-07-06 15:39:20.789062500,-34.0,8.0,54.0,93.7,-16.285,29.88466559375,33.89
2021-07-06 15:39:20.796875000,-34.0,8.0,54.0,93.7,-6.8,29.882023312500003,33.89
2021-07-06 15:39:20.804687500,-34.0,8.0,54.0,93.7,1.7800000000000002,29.879381031250002,33.89
2021-07-06 15:39:20.812500000,-34.0,8.0,54.0,93.7,10.36,29.87673875,33.89
2021-07-06 15:39:20.820312500,-34.0,8.0,54.0,93.7,17.345,29.87409646875,33.89
2021-07-06 15:39:20.828125000,-34.0,8.0,54.0,93.7,24.33,29.8714541875,33.89
2021-07-06 15:39:20.835937500,-34.0,8.0,54.0,93.7,29.509999999999998,29.868811906250002,33.89
2021-07-06 15:39:20.843750000,-34.0,8.0,54.0,93.7,34.69,29.866169625,33.89
2021-07-06 15:39:20.851562500,-34.0,8.0,54.0,93.7,38.17,29.86352734375,33.89
2021-07-06 15:39:20.859375000,-34.0,8.0,54.0,93.7,41.65,29.860885062500003,33.89
2021-07-06 15:39:20.867187500,-34.0,8.0,54.0,93.7,43.66,29.858242781250002,33.89
2021-07-06 15:39:20.875000000,-34.0,8.0,54.0,93.7,45.67,29.8556005,33.89
2021-07-06 15:39:20.882812500,-34.0,8.0,54.0,93.7,46.42,29.85295821875,33.89
2021-07-06 15:39:20.890625000,-34.0,8.0,54.0,93.7,47.17,29.8503159375,33.89
2021-07-06 15:39:20.898437500,-34.0,8.0,54.0,93.7,46.795,29.847673656250002,33.89
2021-07-06 15:39:20.906250000,-34.0,8.0,54.0,93.7,46.42,29.845031375,33.89
2021-07-06 15:39:20.914062500,-34.0,8.25,54.0,93.7,45.04,29.84238909375,33.89
2021-07-06 15:39:20.921875000,-34.0,8.5,54.0,93.7,43.66,29.839746812500003,33.89
2021-07-06 15:39:20.929687500,-34.0,8.75,54.0,93.7,41.474999999999994,29.837104531250002,33.89
2021-07-06 15:39:20.937500000,-34.0,9.0,54.0,93.7,39.29,29.83446225,33.89
2021-07-06 15:39:20.945312500,-34.0,8.75,54.0,93.7,36.59,29.83181996875,33.89
2021-07-06 15:39:20.953125000,-34.0,8.5,54.0,93.7,33.89,29.8291776875,33.89
2021-07-06 15:39:20.960937500,-34.0,8.25,54.0,93.7,31.055,29.826535406250002,33.89
2021-07-06 15:39:20.968750000,-34.0,8.0,54.0,93.7,28.22,29.823893125,33.89
2021-07-06 15:39:20.976562500,-34.0,8.0,54.0,93.7,25.65,29.82125084375,33.89
2021-07-06 15:39:20.984375000,-34.0,8.0,54.0,93.7,23.08,29.818608562500003,33.89
2021-07-06 15:39:20.992187500,-34.0,8.0,54.0,93.7,21.08,29.815966281250002,33.89
2021-07-06 15:39:21.000000000,-34.0,8.0,54.0,93.7,19.08,29.813324,33.89
2021-07-06 15:39:21.007812500,-34.0,8.0,54.0,93.69984375,17.759999999999998,29.812883625,33.889375
2021-07-06 15:39:21.015625000,-34.0,8.0,54.0,93.6996875,16.44,29.81244325,33.88875
2021-07-06 15:39:21.023437500,-34.0,8.0,54.0,93.69953125,15.72,29.812002875,33.888125
2021-07-06 15:39:21.031250000,-34.0,8.0,54.0,93.699375,15.0,29.8115625,33.8875
2021-07-06 15:39:21.039062500,-34.0,8.0,54.0,93.69921875,14.559999999999999,29.811122125,33.886875
2021-07-06 15:39:21.046875000,-34.0,8.0,54.0,93.6990625,14.12,29.81068175,33.88625
2021-07-06 15:39:21.054687500,-34.0,8.0,54.0,93.69890625000001,13.61,29.810241375,33.885625
2021-07-06 15:39:21.062500000,-34.0,8.0,54.0,93.69875,13.1,29.809801,33.885
2021-07-06 15:39:21.070312500,-34.0,8.0,54.0,93.69859375,12.219999999999999,29.809360625,33.884375
2021-07-06 15:39:21.078125000,-34.0,8.0,54.0,93.6984375,11.34,29.80892025,33.88375
2021-07-06 15:39:21.085937500,-34.0,8.0,54.0,93.69828125000001,9.985,29.808479875,33.883125
2021-07-06 15:39:21.093750000,-34.0,8.0,54.0,93.698125,8.63,29.8080395,33.8825
2021-07-06 15:39:21.101562500,-34.0,8.0,54.0,93.69796875,6.91,29.807599125,33.881875
2021-07-06 15:39:21.109375000,-34.0,8.0,54.0,93.6978125,5.19,29.80715875,33.88125
2021-07-06 15:39:21.117187500,-34.0,8.0,54.0,93.69765625000001,3.3400000000000003,29.806718375,33.880625
2021-07-06 15:39:21.125000000,-34.0,8.0,54.0,93.6975,1.49,29.806278,33.879999999999995
2021-07-06 15:39:21.132812500,-34.0,8.0,54.0,93.69734375,-0.28,29.805837625000002,33.879374999999996
2021-07-06 15:39:21.140625000,-34.0,8.0,54.0,93.6971875,-2.05,29.805397250000002,33.87875
2021-07-06 15:39:21.148437500,-34.0,8.0,54.0,93.69703125000001,-3.685,29.804956875000002,33.878125
2021-07-06 15:39:21.156250000,-34.0,8.0,54.0,93.696875,-5.32,29.804516500000002,33.8775
2021-07-06 15:39:21.164062500,-34.0,8.0,54.0,93.69671875,-6.92,29.804076125,33.876875
2021-07-06 15:39:21.171875000,-34.0,8.0,54.0,93.6965625,-8.52,29.80363575,33.87625
2021-07-06 15:39:21.179687500,-34.0,8.0,54.0,93.69640625000001,-10.335,29.803195375,33.875625
2021-07-06 15:39:21.187500000,-34.0,8.0,54.0,93.69625,-12.15,29.802755,33.875
2021-07-06 15:39:21.195312500,-34.0,8.0,54.0,93.69609375,-14.434999999999999,29.802314625,33.874375
2021-07-06 15:39:21.203125000,-34.0,8.0,54.0,93.6959375,-16.72,29.80187425,33.87375
2021-07-06 15:39:21.210937500,-34.0,8.0,54.0,93.69578125000001,-19.695,29.801433875,33.873124999999995
2021-07-06 15:39:21.218750000,-34.0,8.0,54.0,93.695625,-22.67,29.8009935,33.872499999999995
2021-07-06 15:39:21.226562500,-34.0,8.0,54.0,93.69546875,-26.445,29.800553125,33.871874999999996
2021-07-06 15:39:21.234375000,-34.0,8.0,54.0,93.6953125,-30.22,29.80011275,33.871249999999996
2021-07-06 15:39:21.242187500,-34.0,8.0,54.0,93.69515625000001,-34.795,29.799672375,33.870625
2021-07-06 15:39:21.250000000,-34.0,8.0,54.0,93.69500000000001,-39.37,29.799232,33.87
2021-07-06 15:39:21.257812500,-34.0,8.0,54.0,93.69484375,-44.535,29.80011271875,33.87
2021-07-06 15:39:21.265625000,-34.0,8.0,54.0,93.6946875,-49.7,29.8009934375,33.87
2021-07-06 15:39:21.273437500,-34.0,8.0,54.0,93.69453125,-54.965,29.80187415625,33.87
2021-07-06 15:39:21.281250000,-34.0,8.0,54.0,93.69437500000001,-60.23,29.802754874999998,33.87
2021-07-06 15:39:21.289062500,-34.0,8.25,54.0,93.69421875,-64.80499999999999,29.80363559375,33.87
2021-07-06 15:39:21.296875000,-34.0,8.5,54.0,93.6940625,-69.38,29.8045163125,33.87
2021-07-06 15:39:21.304687500,-34.0,8.75,54.0,93.69390625,-72.22999999999999,29.80539703125,33.87
2021-07-06 15:39:21.312500000,-34.0,9.0,54.0,93.69375000000001,-75.08,29.80627775,33.87
2021-07-06 15:39:21.320312500,-34.0,8.75,54.0,93.69359375,-75.225,29.80715846875,33.87
2021-07-06 15:39:21.328125000,-34.0,8.5,54.0,93.6934375,-75.37,29.8080391875,33.87
2021-07-06 15:39:21.335937500,-34.0,8.25,54.0,93.69328125,-72.20500000000001,29.80891990625,33.87
2021-07-06 15:39:21.343750000,-34.0,8.0,54.0,93.69312500000001,-69.04,29.809800625,33.87
2021-07-06 15:39:21.351562500,-34.0,8.25,54.0,93.69296875,-62.650000000000006,29.810681343749998,33.87
2021-07-06 15:39:21.359375000,-34.0,8.5,54.0,93.6928125,-56.26,29.8115620625,33.87
2021-07-06 15:39:21.367187500,-34.0,8.75,54.0,93.69265625,-47.435,29.81244278125,33.87
2021-07-06 15:39:21.375000000,-34.0,9.0,54.0,93.69250000000001,-38.61,29.8133235,33.87
2021-07-06 15:39:21.382812500,-34.0,8.75,54.0,93.69234375,-28.64,29.81420421875,33.87
2021-07-06 15:39:21.390625000,-34.0,8.5,54.0,93.6921875,-18.67,29.8150849375,33.87
2021-07-06 15:39:21.398437500,-34.0,8.25,54.0,93.69203125,-8.885000000000002,29.81596565625,33.87
2021-07-06 15:39:21.406250000,-34.0,8.0,54.0,93.69187500000001,0.9,29.816846374999997,33.87
2021-07-06 15:39:21.414062500,-34.0,8.25,54.0,93.69171875,9.440000000000001,29.817727093749998,33.87
2021-07-06 15:39:21.421875000,-34.0,8.5,54.0,93.6915625,17.98,29.818607812499998,33.87
2021-07-06 15:39:21.429687500,-34.0,8.75,54.0,93.69140625,24.740000000000002,29.81948853125,33.87
2021-07-06 15:39:21.437500000,-34.0,9.0,54.0,93.69125000000001,31.5,29.82036925,33.87
2021-07-06 15:39:21.445312500,-34.0,8.75,54.0,93.69109375000001,36.39,29.82124996875,33.87
2021-07-06 15:39:21.453125000,-34.0,8.5,54.0,93.6909375,41.28,29.8221306875,33.87
2021-07-06 15:39:21.460937500,-34.0,8.25,54.0,93.69078125,44.475,29.82301140625,33.87
2021-07-06 15:39:21.468750000,-34.0,8.0,54.0,93.69062500000001,47.67,29.823892125,33.87
2021-07-06 15:39:21.476562500,-34.0,8.0,54.0,93.69046875000001,49.415,29.824772843749997,33.87
2021-07-06 15:39:21.484375000,-34.0,8.0,54.0,93.6903125,51.16,29.825653562499998,33.87
2021-07-06 15:39:21.492187500,-34.0,8.0,54.0,93.69015625,51.644999999999996,29.826534281249998,33.87
2021-07-06 15:39:21.500000000,-34.0,8.0,54.0,93.69,52.13,29.827415,33.87
2021-07-06 15:39:21.507812500,-34.25,8.25,54.0,93.68984375000001,51.5,29.827535124999997,33.87
2021-07-06 15:39:21.515625000,-34.5,8.5,54.0,93.6896875,50.87,29.82765525,33.87
2021-07-06 15:39:21.523437500,-34.75,8.75,54.0,93.68953125,49.305,29.827775374999998,33.87
2021-07-06 15:39:21.531250000,-35.0,9.0,54.0,93.689375,47.74,29.827895499999997,33.87
2021-07-06 15:39:21.539062500,-34.75,8.75,54.0,93.68921875000001,45.485,29.828015625,33.87
2021-07-06 15:39:21.546875000,-34.5,8.5,54.0,93.6890625,43.23,29.828135749999998,33.87
2021-07-06 15:39:21.554687500,-34.25,8.25,54.0,93.68890625,40.599999999999994,29.828255875,33.87
2021-07-06 15:39:21.562500000,-34.0,8.0,54.0,93.68875,37.97,29.828376,33.87
2021-07-06 15:39:21.570312500,-34.0,8.0,54.0,93.68859375000001,35.335,29.828496124999997,33.87
2021-07-06 15:39:21.578125000,-34.0,8.0,54.0,93.6884375,32.7,29.82861625,33.87
2021-07-06 15:39:21.585937500,-34.0,8.0,54.0,93.68828125,30.365000000000002,29.828736375,33.87
2021-07-06 15:39:21.593750000,-34.0,8.0,54.0,93.688125,28.03,29.8288565,33.87
2021-07-06 15:39:21.601562500,-34.0,8.0,54.0,93.68796875000001,26.205,29.828976625,33.87
2021-07-06 15:39:21.609375000,-34.0,8.0,54.0,93.6878125,24.38,29.829096749999998,33.87
2021-07-06 15:39:21.617187500,-34.0,8.0,54.0,93.68765625,23.14,29.829216875,33.87
2021-07-06 15:39:21.625000000,-34.0,8.0,54.0,93.6875,21.9,29.829337,33.87
2021-07-06 15:39:21.632812500,-34.0,8.25,54.0,93.68734375000001,21.15,29.829457124999998,33.87
2021-07-06 15:39:21.640625000,-34.0,8.5,54.0,93.68718750000001,20.4,29.82957725,33.87
2021-07-06 15:39:21.648437500,-34.0,8.75,54.0,93.68703125,19.95,29.829697375,33.87
2021-07-06 15:39:21.656250000,-34.0,9.0,54.0,93.686875,19.5,29.829817499999997,33.87
2021-07-06 15:39:21.664062500,-34.0,8.75,54.0,93.68671875000001,19.060000000000002,29.829937625,33.87
2021-07-06 15:39:21.671875000,-34.0,8.5,54.0,93.68656250000001,18.62,29.830057749999998,33.87
2021-07-06 15:39:21.679687500,-34.0,8.25,54.0,93.68640625,17.93,29.830177875,33.87
2021-07-06 15:39:21.687500000,-34.0,8.0,54.0,93.68625,17.24,29.830298,33.87
2021-07-06 15:39:21.695312500,-34.0,8.0,54.0,93.68609375000001,16.115,29.830418124999998,33.87
2021-07-06 15:39:21.703125000,-34.0,8.0,54.0,93.68593750000001,14.99,29.83053825,33.87
2021-07-06 15:39:21.710937500,-34.0,8.0,54.0,93.68578125,13.385,29.830658375,33.87
2021-07-06 15:39:21.718750000,-34.0,8.0,54.0,93.685625,11.78,29.8307785,33.87
2021-07-06 15:39:21.726562500,-34.0,8.0,54.0,93.68546875000001,9.77,29.830898625,33.87
2021-07-06 15:39:21.734375000,-34.0,8.0,54.0,93.68531250000001,7.76,29.83101875,33.87
2021-07-06 15:39:21.742187500,-34.0,8.0,54.0,93.68515625,5.5,29.831138875,33.87
2021-07-06 15:39:21.750000000,-34.0,8.0,54.0,93.685,3.24,29.831259,33.87
2021-07-06 15:39:21.757812500,-34.0,8.0,54.0,93.68484375,0.8700000000000001,29.831739406249998,33.87
2021-07-06 15:39:21.765625000,-34.0,8.0,54.0,93.68468750000001,-1.5,29.8322198125,33.87
2021-07-06 15:39:21.773437500,-34.0,8.0,54.0,93.68453125,-3.94,29.83270021875,33.87
2021-07-06 15:39:21.781250000,-34.0,8.0,54.0,93.684375,-6.38,29.833180625,33.87
2021-07-06 15:39:21.789062500,-34.0,8.0,54.0,93.68421875,-8.959999999999999,29.83366103125,33.87
2021-07-06 15:39:21.796875000,-34.0,8.0,54.0,93.68406250000001,-11.54,29.834141437499998,33.87
2021-07-06 15:39:21.804687500,-34.0,8.0,54.0,93.68390625,-14.445,29.83462184375,33.87
2021-07-06 15:39:21.812500000,-34.0,8.0,54.0,93.68375,-17.35,29.83510225,33.87
2021-07-06 15:39:21.820312500,-34.0,8.0,54.0,93.68359375,-20.810000000000002,29.83558265625,33.87
2021-07-06 15:39:21.828125000,-34.0,8.0,54.0,93.68343750000001,-24.27,29.8360630625,33.87
2021-07-06 15:39:21.835937500,-34.0,8.0,54.0,93.68328125000001,-28.485,29.836543468749998,33.87
2021-07-06 15:39:21.843750000,-34.0,8.0,54.0,93.683125,-32.7,29.837023875,33.87
2021-07-06 15:39:21.851562500,-34.0,8.0,54.0,93.68296875,-37.735,29.83750428125,33.87
2021-07-06 15:39:21.859375000,-34.0,8.0,54.0,93.68281250000001,-42.77,29.8379846875,33.87
2021-07-06 15:39:21.867187500,-34.0,8.0,54.0,93.68265625000001,-48.445,29.83846509375,33.87
2021-07-06 15:39:21.875000000,-34.0,8.0,54.0,93.6825,-54.12,29.8389455,33.87
2021-07-06 15:39:21.882812500,-34.25,8.0,54.0,93.68234375,-59.900000000000006,29.83942590625,33.87
2021-07-06 15:39:21.890625000,-34.5,8.0,54.0,93.68218750000001,-65.68,29.8399063125,33.87
2021-07-06 15:39:21.898437500,-34.75,8.0,54.0,93.68203125000001,-70.67,29.84038671875,33.87
2021-07-06 15:39:21.906250000,-35.0,8.0,54.0,93.681875,-75.66,29.840867125,33.87
2021-07-06 15:39:21.914062500,-34.75,8.25,54.0,93.68171875,-78.775,29.84134753125,33.87
2021-07-06 15:39:21.921875000,-34.5,8.5,54.0,93.68156250000001,-81.89,29.8418279375,33.87
2021-07-06 15:39:21.929687500,-34.25,8.75,54.0,93.68140625000001,-82.11500000000001,29.84230834375,33.87
2021-07-06 15:39:21.937500000,-34.0,9.0,54.0,93.68125,-82.34,29.84278875,33.87
2021-07-06 15:39:21.945312500,-34.0,9.0,54.0,93.68109375,-79.1,29.84326915625,33.87
2021-07-06 15:39:21.953125000,-34.0,9.0,54.0,93.68093750000001,-75.86,29.8437495625,33.87
2021-07-06 15:39:21.960937500,-34.0,9.0,54.0,93.68078125000001,-69.265,29.84422996875,33.87
2021-07-06 15:39:21.968750000,-34.0,9.0,54.0,93.680625,-62.67,29.844710375,33.87
2021-07-06 15:39:21.976562500,-34.0,8.75,54.0,93.68046875,-53.55,29.84519078125,33.87
2021-07-06 15:39:21.984375000,-34.0,8.5,54.0,93.68031250000001,-44.43,29.8456711875,33.87
2021-07-06 15:39:21.992187500,-34.0,8.25,54.0,93.68015625000001,-34.1,29.84615159375,33.87
2021-07-06 15:39:22.000000000,-34.0,8.0,54.0,93.68,-23.77,29.846632,33.87
2021-07-06 15:39:22.007812500,-34.0,8.0,54.0,93.68,-13.655,29.84643184375,33.870625
2021-07-06 15:39:22.015625000,-34.0,8.0,54.0,93.68,-3.54,29.8462316875,33.871249999999996
2021-07-06 15:39:22.023437500,-34.0,8.0,54.0,93.68,5.260000000000001,29.84603153125,33.871874999999996
2021-07-06 15:39:22.031250000,-34.0,8.0,54.0,93.68,14.06,29.845831375,33.872499999999995
2021-07-06 15:39:22.039062500,-34.0,8.25,54.0,93.68,20.97,29.84563121875,33.873124999999995
2021-07-06 15:39:22.046875000,-34.0,8.5,54.0,93.68,27.88,29.845431062499998,33.87375
2021-07-06 15:39:22.054687500,-34.0,8.75,54.0,93.68,32.85,29.84523090625,33.874375
2021-07-06 15:39:22.062500000,-34.0,9.0,54.0,93.68,37.82,29.84503075,33.875
2021-07-06 15:39:22.070312500,-34.0,8.75,54.0,93.68,41.135000000000005,29.84483059375,33.875625
2021-07-06 15:39:22.078125000,-34.0,8.5,54.0,93.68,44.45,29.8446304375,33.87625
2021-07-06 15:39:22.085937500,-34.0,8.25,54.0,93.68,46.41,29.84443028125,33.876875
2021-07-06 15:39:22.093750000,-34.0,8.0,54.0,93.68,48.37,29.844230125,33.8775
2021-07-06 15:39:22.101562500,-34.0,8.25,54.0,93.68,49.19,29.84402996875,33.878125
2021-07-06 15:39:22.109375000,-34.0,8.5,54.0,93.68,50.01,29.843829812499997,33.87875
2021-07-06 15:39:22.117187500,-34.0,8.75,54.0,93.68,49.754999999999995,29.84362965625,33.879374999999996
2021-07-06 15:39:22.125000000,-34.0,9.0,54.0,93.68,49.5,29.8434295,33.879999999999995
2021-07-06 15:39:22.132812500,-34.0,8.75,54.0,93.68,48.21,29.84322934375,33.880625
2021-07-06 15:39:22.140625000,-34.0,8.5,54.0,93.68,46.92,29.8430291875,33.88125
2021-07-06 15:39:22.148437500,-34.0,8.25,54.0,93.68,44.769999999999996,29.842829031249998,33.881875
2021-07-06 15:39:22.156250000,-34.0,8.0,54.0,93.68,42.62,29.842628875,33.8825
2021-07-06 15:39:22.164062500,-34.0,8.0,54.0,93.68,39.965,29.84242871875,33.883125
2021-07-06 15:39:22.171875000,-34.0,8.0,54.0,93.68,37.31,29.842228562499997,33.88375
2021-07-06 15:39:22.179687500,-34.0,8.0,54.0,93.68,34.620000000000005,29.842028406249998,33.884375
2021-07-06 15:39:22.187500000,-34.0,8.0,54.0,93.68,31.93,29.84182825,33.885
2021-07-06 15:39:22.195312500,-34.0,8.25,54.0,93.68,29.634999999999998,29.84162809375,33.885625
2021-07-06 15:39:22.203125000,-34.0,8.5,54.0,93.68,27.34,29.8414279375,33.88625
2021-07-06 15:39:22.210937500,-34.0,8.75,54.0,93.68,25.695,29.841227781249998,33.886875
2021-07-06 15:39:22.218750000,-34.0,9.0,54.0,93.68,24.05,29.841027625,33.8875
2021-07-06 15:39:22.226562500,-34.0,9.0,54.0,93.68,23.055,29.84082746875,33.888125
2021-07-06 15:39:22.234375000,-34.0,9.0,54.0,93.68,22.06,29.840627312499997,33.88875
2021-07-06 15:39:22.242187500,-34.0,9.0,54.0,93.68,21.465,29.840427156249998,33.889375
2021-07-06 15:39:22.250000000,-34.0,9.0,54.0,93.68,20.87,29.840227,33.89
2021-07-06 15:39:22.257812500,-34.0,9.0,54.0,93.68,20.335,29.840627375,33.89
2021-07-06 15:39:22.265625000,-34.0,9.0,54.0,93.68,19.8,29.84102775,33.89
2021-07-06 15:39:22.273437500,-34.0,9.0,54.0,93.68,19.064999999999998,29.841428125,33.89
2021-07-06 15:39:22.281250000,-34.0,9.0,54.0,93.68,18.33,29.8418285,33.89
2021-07-06 15:39:22.289062500,-34.0,9.0,54.0,93.68,17.265,29.842228875,33.89
2021-07-06 15:39:22.296875000,-34.0,9.0,54.0,93.68,16.2,29.842629249999998,33.89
2021-07-06 15:39:22.304687500,-34.0,9.0,54.0,93.68,14.86,29.843029625,33.89
2021-07-06 15:39:22.312500000,-34.0,9.0,54.0,93.68,13.52,29.843429999999998,33.89
2021-07-06 15:39:22.320312500,-34.0,8.75,54.0,93.68,12.004999999999999,29.843830375,33.89
2021-07-06 15:39:22.328125000,-34.0,8.5,54.0,93.68,10.49,29.844230749999998,33.89
2021-07-06 15:39:22.335937500,-34.0,8.25,54.0,93.68,8.875,29.844631125,33.89
2021-07-06 15:39:22.343750000,-34.0,8.0,54.0,93.68,7.26,29.845031499999997,33.89
2021-07-06 15:39:22.351562500,-34.0,8.0,54.0,93.68,5.545,29.845431875,33.89
2021-07-06 15:39:22.359375000,-34.0,8.0,54.0,93.68,3.83,29.845832249999997,33.89
2021-07-06 15:39:22.367187500,-34.0,8.0,54.0,93.68,1.8900000000000001,29.846232625,33.89
2021-07-06 15:39:22.375000000,-34.0,8.0,54.0,93.68,-0.05,29.846632999999997,33.89
2021-07-06 15:39:22.382812500,-34.0,8.25,54.0,93.68,-2.34,29.847033375,33.89
2021-07-06 15:39:22.390625000,-34.0,8.5,54.0,93.68,-4.63,29.84743375,33.89
2021-07-06 15:39:22.398437500,-34.0,8.75,54.0,93.68,-7.380000000000001,29.847834125,33.89
2021-07-06 15:39:22.406250000,-34.0,9.0,54.0,93.68,-10.13,29.8482345,33.89
2021-07-06 15:39:22.414062500,-34.0,8.75,54.0,93.68,-13.400000000000002,29.848634875,33.89
2021-07-06 15:39:22.421875000,-34.0,8.5,54.0,93.68,-16.67,29.84903525,33.89
2021-07-06 15:39:22.429687500,-34.0,8.25,54.0,93.68,-20.515,29.849435624999998,33.89
2021-07-06 15:39:22.437500000,-34.0,8.0,54.0,93.68,-24.36,29.849836,33.89
2021-07-06 15:39:22.445312500,-34.0,8.0,54.0,93.68,-28.815,29.850236374999998,33.89
2021-07-06 15:39:22.453125000,-34.0,8.0,54.0,93.68,-33.27,29.85063675,33.89
2021-07-06 15:39:22.460937500,-34.0,8.0,54.0,93.68,-38.35,29.851037124999998,33.89
2021-07-06 15:39:22.468750000,-34.0,8.0,54.0,93.68,-43.43,29.8514375,33.89
2021-07-06 15:39:22.476562500,-34.0,8.0,54.0,93.68,-48.94,29.851837874999998,33.89
2021-07-06 15:39:22.484375000,-34.0,8.0,54.0,93.68,-54.45,29.85223825,33.89
2021-07-06 15:39:22.492187500,-34.0,8.0,54.0,93.68,-59.865,29.852638624999997,33.89
2021-07-06 15:39:22.500000000,-34.0,8.0,54.0,93.68,-65.28,29.853039,33.89
2021-07-06 15:39:22.507812500,-34.0,8.25,54.0,93.68,-69.71000000000001,29.85456028125,33.89
2021-07-06 15:39:22.515625000,-34.0,8.5,54.0,93.68,-74.14,29.8560815625,33.89
2021-07-06 15:39:22.523437500,-34.0,8.75,54.0,93.68,-76.46000000000001,29.857602843749998,33.89
2021-07-06 15:39:22.531250000,-34.0,9.0,54.0,93.68,-78.78,29.859124125,33.89
2021-07-06 15:39:22.539062500,-34.0,8.75,54.0,93.68,-78.025,29.86064540625,33.89
2021-07-06 15:39:22.546875000,-34.0,8.5,54.0,93.68,-77.27,29.8621666875,33.89
2021-07-06 15:39:22.554687500,-34.0,8.25,54.0,93.68,-73.0,29.86368796875,33.89
2021-07-06 15:39:22.562500000,-34.0,8.0,54.0,93.68,-68.73,29.86520925,33.89
2021-07-06 15:39:22.570312500,-34.0,8.0,54.0,93.68,-61.285000000000004,29.86673053125,33.89
2021-07-06 15:39:22.578125000,-34.0,8.0,54.0,93.68,-53.84,29.8682518125,33.89
2021-07-06 15:39:22.585937500,-34.0,8.0,54.0,93.68,-44.245000000000005,29.86977309375,33.89
2021-07-06 15:39:22.593750000,-34.0,8.0,54.0,93.68,-34.65,29.871294374999998,33.89
2021-07-06 15:39:22.601562500,-34.0,8.25,54.0,93.68,-24.325,29.87281565625,33.89
2021-07-06 15:39:22.609375000,-34.0,8.5,54.0,93.68,-14.0,29.8743369375,33.89
2021-07-06 15:39:22.617187500,-34.0,8.75,54.0,93.68,-4.245000000000001,29.87585821875,33.89
2021-07-06 15:39:22.625000000,-34.0,9.0,54.0,93.68,5.51,29.8773795,33.89
2021-07-06 15:39:22.632812500,-34.0,8.75,54.0,93.68,13.784999999999998,29.87890078125,33.89
2021-07-06 15:39:22.640625000,-34.0,8.5,54.0,93.68,22.06,29.8804220625,33.89
2021-07-06 15:39:22.648437500,-34.0,8.25,54.0,93.68,28.490000000000002,29.88194334375,33.89
2021-07-06 15:39:22.656250000,-34.0,8.0,54.0,93.68,34.92,29.883464625000002,33.89
2021-07-06 15:39:22.664062500,-34.0,8.0,54.0,93.68,39.525000000000006,29.88498590625,33.89
2021-07-06 15:39:22.671875000,-34.0,8.0,54.0,93.68,44.13,29.8865071875,33.89
2021-07-06 15:39:22.679687500,-34.0,8.0,54.0,93.68,47.07,29.88802846875,33.89
2021-07-06 15:39:22.687500000,-34.0,8.0,54.0,93.68,50.01,29.88954975,33.89
2021-07-06 15:39:22.695312500,-34.0,8.25,54.0,93.68,51.415,29.89107103125,33.89
2021-07-06 15:39:22.703125000,-34.0,8.5,54.0,93.68,52.82,29.8925923125,33.89
2021-07-06 15:39:22.710937500,-34.0,8.75,54.0,93.68,52.760000000000005,29.89411359375,33.89
2021-07-06 15:39:22.718750000,-34.0,9.0,54.0,93.68,52.7,29.895634875,33.89
2021-07-06 15:39:22.726562500,-34.0,9.0,54.0,93.68,51.25,29.897156156250002,33.89
2021-07-06 15:39:22.734375000,-34.0,9.0,54.0,93.68,49.8,29.8986774375,33.89
2021-07-06 15:39:22.742187500,-34.0,9.0,54.0,93.68,47.195,29.90019871875,33.89
2021-07-06 15:39:22.750000000,-34.0,9.0,54.0,93.68,44.59,29.90172,33.89
2021-07-06 15:39:22.757812500,-34.0,9.0,54.0,93.68,41.260000000000005,29.90047890625,33.89
2021-07-06 15:39:22.765625000,-34.0,9.0,54.0,93.68,37.93,29.8992378125,33.89
2021-07-06 15:39:22.773437500,-34.0,9.0,54.0,93.68,34.415,29.89799671875,33.89
2021-07-06 15:39:22.781250000,-34.0,9.0,54.0,93.68,30.9,29.896755625,33.89
2021-07-06 15:39:22.789062500,-34.0,9.0,54.0,93.68,27.77,29.89551453125,33.89
2021-07-06 15:39:22.796875000,-34.0,9.0,54.0,93.68,24.64,29.8942734375,33.89
2021-07-06 15:39:22.804687500,-34.0,9.0,54.0,93.68,22.335,29.89303234375,33.89
2021-07-06 15:39:22.812500000,-34.0,9.0,54.0,93.68,20.03,29.89179125,33.89
2021-07-06 15:39:22.820312500,-34.0,8.75,54.0,93.68,18.735,29.89055015625,33.89
2021-07-06 15:39:22.828125000,-34.0,8.5,54.0,93.68,17.44,29.8893090625,33.89
2021-07-06 15:39:22.835937500,-34.0,8.25,54.0,93.68,17.035,29.88806796875,33.89
2021-07-06 15:39:22.843750000,-34.0,8.0,54.0,93.68,16.63,29.886826875,33.89
2021-07-06 15:39:22.851562500,-34.0,8.25,54.0,93.68,16.765,29.88558578125,33.89
2021-07-06 15:39:22.859375000,-34.0,8.5,54.0,93.68,16.9,29.8843446875,33.89
2021-07-06 15:39:22.867187500,-34.0,8.75,54.0,93.68,17.115,29.88310359375,33.89
2021-07-06 15:39:22.875000000,-34.0,9.0,54.0,93.68,17.33,29.8818625,33.89
2021-07-06 15:39:22.882812500,-34.0,9.0,54.0,93.68,17.195,29.88062140625,33.89
2021-07-06 15:39:22.890625000,-34.0,9.0,54.0,93.68,17.06,29.8793803125,33.89
2021-07-06 15:39:22.898437500,-34.0,9.0,54.0,93.68,16.345,29.87813921875,33.89
2021-07-06 15:39:22.906250000,-34.0,9.0,54.0,93.68,15.63,29.876898125,33.89
2021-07-06 15:39:22.914062500,-34.0,8.75,54.0,93.68,14.32,29.87565703125,33.89
2021-07-06 15:39:22.921875000,-34.0,8.5,54.0,93.68,13.01,29.8744159375,33.89
2021-07-06 15:39:22.929687500,-34.0,8.25,54.0,93.68,11.24,29.87317484375,33.89
2021-07-06 15:39:22.937500000,-34.0,8.0,54.0,93.68,9.47,29.87193375,33.89
2021-07-06 15:39:22.945312500,-34.0,8.25,54.0,93.68,7.445,29.87069265625,33.89
2021-07-06 15:39:22.953125000,-34.0,8.5,54.0,93.68,5.42,29.8694515625,33.89
2021-07-06 15:39:22.960937500,-34.0,8.75,54.0,93.68,3.225,29.86821046875,33.89
2021-07-06 15:39:22.968750000,-34.0,9.0,54.0,93.68,1.03,29.866969375,33.89
2021-07-06 15:39:22.976562500,-34.0,9.0,54.0,93.68,-1.34,29.86572828125,33.89
2021-07-06 15:39:22.984375000,-34.0,9.0,54.0,93.68,-3.71,29.8644871875,33.89
2021-07-06 15:39:22.992187500,-34.0,9.0,54.0,93.68,-6.34,29.86324609375,33.89
2021-07-06 15:39:23.000000000,-34.0,9.0,54.0,93.68,-8.97,29.862005,33.89
2021-07-06 15:39:23.007812500,-34.0,9.0,54.0,93.68015625000001,-11.955,29.86248540625,33.889375
2021-07-06 15:39:23.015625000,-34.0,9.0,54.0,93.68031250000001,-14.94,29.8629658125,33.88875
2021-07-06 15:39:23.023437500,-34.0,9.0,54.0,93.68046875,-18.345,29.86344621875,33.888125
2021-07-06 15:39:23.031250000,-34.0,9.0,54.0,93.680625,-21.75,29.863926625,33.8875
2021-07-06 15:39:23.039062500,-34.0,9.0,54.0,93.68078125000001,-25.64,29.86440703125,33.886875
2021-07-06 15:39:23.046875000,-34.0,9.0,54.0,93.68093750000001,-29.53,29.8648874375,33.88625
2021-07-06 15:39:23.054687500,-34.0,9.0,54.0,93.68109375,-34.010000000000005,29.86536784375,33.885625
2021-07-06 15:39:23.062500000,-34.0,9.0,54.0,93.68125,-38.49,29.86584825,33.885
2021-07-06 15:39:23.070312500,-34.0,9.0,54.0,93.68140625000001,-43.644999999999996,29.86632865625,33.884375
2021-07-06 15:39:23.078125000,-34.0,9.0,54.0,93.68156250000001,-48.8,29.8668090625,33.88375
2021-07-06 15:39:23.085937500,-34.0,9.0,54.0,93.68171875,-54.489999999999995,29.86728946875,33.883125
2021-07-06 15:39:23.093750000,-34.0,9.0,54.0,93.681875,-60.18,29.867769875,33.8825
2021-07-06 15:39:23.101562500,-34.0,9.0,54.0,93.68203125000001,-65.875,29.86825028125,33.881875
2021-07-06 15:39:23.109375000,-34.0,9.0,54.0,93.68218750000001,-71.57,29.8687306875,33.88125
2021-07-06 15:39:23.117187500,-34.0,9.0,54.0,93.68234375,-76.255,29.86921109375,33.880625
2021-07-06 15:39:23.125000000,-34.0,9.0,54.0,93.6825,-80.94,29.869691500000002,33.879999999999995
2021-07-06 15:39:23.132812500,-34.0,8.75,54.0,93.68265625000001,-83.32499999999999,29.87017190625,33.879374999999996
2021-07-06 15:39:23.140625000,-34.0,8.5,54.0,93.68281250000001,-85.71,29.8706523125,33.87875
2021-07-06 15:39:23.148437500,-34.0,8.25,54.0,93.68296875,-84.66499999999999,29.87113271875,33.878125
2021-07-06 15:39:23.156250000,-34.0,8.0,54.0,93.683125,-83.62,29.871613125,33.8775
2021-07-06 15:39:23.164062500,-34.0,8.0,54.0,93.68328125000001,-78.61500000000001,29.87209353125,33.876875
2021-07-06 15:39:23.171875000,-34.0,8.0,54.0,93.68343750000001,-73.61,29.8725739375,33.87625
2021-07-06 15:39:23.179687500,-34.0,8.0,54.0,93.68359375,-65.00999999999999,29.87305434375,33.875625
2021-07-06 15:39:23.187500000,-34.0,8.0,54.0,93.68375,-56.41,29.87353475,33.875
2021-07-06 15:39:23.195312500,-34.0,8.0,54.0,93.68390625,-45.375,29.87401515625,33.874375
2021-07-06 15:39:23.203125000,-34.0,8.0,54.0,93.68406250000001,-34.34,29.8744955625,33.87375
2021-07-06 15:39:23.210937500,-34.0,8.0,54.0,93.68421875,-22.465000000000003,29.87497596875,33.873124999999995
2021-07-06 15:39:23.218750000,-34.0,8.0,54.0,93.684375,-10.59,29.875456375,33.872499999999995
2021-07-06 15:39:23.226562500,-34.0,8.25,54.0,93.68453125,0.5949999999999989,29.87593678125,33.871874999999996
2021-07-06 15:39:23.234375000,-34.0,8.5,54.0,93.68468750000001,11.78,29.8764171875,33.871249999999996
2021-07-06 15:39:23.242187500,-34.0,8.75,54.0,93.68484375,21.229999999999997,29.87689759375,33.870625
2021-07-06 15:39:23.250000000,-34.0,9.0,54.0,93.685,30.68,29.877378,33.87
2021-07-06 15:39:23.257812500,-34.0,8.75,54.0,93.68515625,37.935,29.877177875,33.87
2021-07-06 15:39:23.265625000,-34.0,8.5,54.0,93.68531250000001,45.19,29.876977750000002,33.87
2021-07-06 15:39:23.273437500,-34.0,8.25,54.0,93.68546875000001,50.3,29.876777625,33.87
2021-07-06 15:39:23.281250000,-34.0,8.0,54.0,93.685625,55.41,29.8765775,33.87
2021-07-06 15:39:23.289062500,-34.0,8.25,54.0,93.68578125,58.65,29.876377375,33.87
2021-07-06 15:39:23.296875000,-34.0,8.5,54.0,93.68593750000001,61.89,29.87617725,33.87
2021-07-06 15:39:23.304687500,-34.0,8.75,54.0,93.68609375000001,63.6,29.875977125,33.87
2021-07-06 15:39:23.312500000,-34.0,9.0,54.0,93.68625,65.31,29.875777,33.87
2021-07-06 15:39:23.320312500,-34.0,9.0,54.0,93.68640625,65.765,29.875576875,33.87
2021-07-06 15:39:23.328125000,-34.0,9.0,54.0,93.68656250000001,66.22,29.87537675,33.87
2021-07-06 15:39:23.335937500,-34.0,9.0,54.0,93.68671875000001,65.64,29.875176625,33.87
2021-07-06 15:39:23.343750000,-34.0,9.0,54.0,93.686875,65.06,29.8749765,33.87
2021-07-06 15:39:23.351562500,-34.0,8.75,54.0,93.68703125,63.66,29.874776375,33.87
2021-07-06 15:39:23.359375000,-34.0,8.5,54.0,93.68718750000001,62.26,29.87457625,33.87
2021-07-06 15:39:23.367187500,-34.0,8.25,54.0,93.68734375000001,60.315,29.874376125,33.87
2021-07-06 15:39:23.375000000,-34.0,8.0,54.0,93.6875,58.37,29.874176,33.87
2021-07-06 15:39:23.382812500,-34.0,8.0,54.0,93.68765625,56.17,29.873975875,33.87
2021-07-06 15:39:23.390625000,-34.0,8.0,54.0,93.6878125,53.97,29.87377575,33.87
2021-07-06 15:39:23.398437500,-34.0,8.0,54.0,93.68796875000001,51.8,29.873575625,33.87
2021-07-06 15:39:23.406250000,-34.0,8.0,54.0,93.688125,49.63,29.8733755,33.87
2021-07-06 15:39:23.414062500,-34.0,8.0,54.0,93.68828125,47.695,29.873175375,33.87
2021-07-06 15:39:23.421875000,-34.0,8.0,54.0,93.6884375,45.76,29.87297525,33.87
2021-07-06 15:39:23.429687500,-34.0,8.0,54.0,93.68859375000001,44.19,29.872775125,33.87
2021-07-06 15:39:23.437500000,-34.0,8.0,54.0,93.68875,42.62,29.872575,33.87
2021-07-06 15:39:23.445312500,-34.0,8.25,54.0,93.68890625,41.465,29.872374875000002,33.87
2021-07-06 15:39:23.453125000,-34.0,8.5,54.0,93.6890625,40.31,29.87217475,33.87
2021-07-06 15:39:23.460937500,-34.0,8.75,54.0,93.68921875000001,39.535,29.871974625,33.87
2021-07-06 15:39:23.468750000,-34.0,9.0,54.0,93.689375,38.76,29.8717745,33.87
2021-07-06 15:39:23.476562500,-34.0,8.75,54.0,93.68953125,38.29,29.871574375,33.87
2021-07-06 15:39:23.484375000,-34.0,8.5,54.0,93.6896875,37.82,29.87137425,33.87
2021-07-06 15:39:23.492187500,-34.0,8.25,54.0,93.68984375000001,37.54,29.871174125,33.87
2021-07-06 15:39:23.500000000,-34.0,8.0,54.0,93.69,37.26,29.870974,33.87
2021-07-06 15:39:23.507812500,-34.0,8.25,54.0,93.69015625,37.0,29.869092375,33.87
2021-07-06 15:39:23.515625000,-34.0,8.5,54.0,93.6903125,36.74,29.86721075,33.87
2021-07-06 15:39:23.523437500,-34.0,8.75,54.0,93.69046875000001,36.290000000000006,29.865329125,33.87
2021-07-06 15:39:23.531250000,-34.0,9.0,54.0,93.69062500000001,35.84,29.8634475,33.87
2021-07-06 15:39:23.539062500,-34.25,8.75,54.0,93.69078125,34.975,29.861565875,33.87
2021-07-06 15:39:23.546875000,-34.5,8.5,54.0,93.6909375,34.11,29.85968425,33.87
2021-07-06 15:39:23.554687500,-34.75,8.25,54.0,93.69109375000001,32.64,29.857802625,33.87
2021-07-06 15:39:23.562500000,-35.0,8.0,54.0,93.69125000000001,31.17,29.855921000000002,33.87
2021-07-06 15:39:23.570312500,-34.75,8.0,54.0,93.69140625,28.995,29.854039375,33.87
2021-07-06 15:39:23.578125000,-34.5,8.0,54.0,93.6915625,26.82,29.85215775,33.87
2021-07-06 15:39:23.585937500,-34.25,8.0,54.0,93.69171875,23.975,29.850276125,33.87
2021-07-06 15:39:23.593750000,-34.0,8.0,54.0,93.69187500000001,21.13,29.8483945,33.87
2021-07-06 15:39:23.601562500,-34.0,8.0,54.0,93.69203125,17.785,29.846512875000002,33.87
2021-07-06 15:39:23.609375000,-34.0,8.0,54.0,93.6921875,14.44,29.84463125,33.87
2021-07-06 15:39:23.617187500,-34.0,8.0,54.0,93.69234375,10.825,29.842749625,33.87
2021-07-06 15:39:23.625000000,-34.0,8.0,54.0,93.69250000000001,7.21,29.840868,33.87
2021-07-06 15:39:23.632812500,-34.0,8.0,54.0,93.69265625,3.58,29.838986375,33.87
2021-07-06 15:39:23.640625000,-34.0,8.0,54.0,93.6928125,-0.05,29.83710475,33.87
2021-07-06 15:39:23.648437500,-34.0,8.0,54.0,93.69296875,-3.56,29.835223125,33.87
2021-07-06 15:39:23.656250000,-34.0,8.0,54.0,93.69312500000001,-7.07,29.8333415,33.87
2021-07-06 15:39:23.664062500,-34.0,8.0,54.0,93.69328125,-10.49,29.831459875,33.87
2021-07-06 15:39:23.671875000,-34.0,8.0,54.0,93.6934375,-13.91,29.82957825,33.87
2021-07-06 15:39:23.679687500,-34.0,8.0,54.0,93.69359375,-17.455,29.827696625,33.87
2021-07-06 15:39:23.687500000,-34.0,8.0,54.0,93.69375000000001,-21.0,29.825815,33.87
2021-07-06 15:39:23.695312500,-34.0,8.0,53.75,93.69390625,-25.009999999999998,29.823933375,33.87
2021-07-06 15:39:23.703125000,-34.0,8.0,53.5,93.6940625,-29.02,29.82205175,33.87
2021-07-06 15:39:23.710937500,-34.0,8.0,53.25,93.69421875,-33.8,29.820170125,33.87
2021-07-06 15:39:23.718750000,-34.0,8.0,53.0,93.69437500000001,-38.58,29.8182885,33.87
2021-07-06 15:39:23.726562500,-34.0,8.0,53.25,93.69453125,-44.135,29.816406875000002,33.87
2021-07-06 15:39:23.734375000,-34.0,8.0,53.5,93.6946875,-49.69,29.81452525,33.87
2021-07-06 15:39:23.742187500,-34.0,8.0,53.75,93.69484375,-55.555,29.812643625,33.87
2021-07-06 15:39:23.750000000,-34.0,8.0,54.0,93.69500000000001,-61.42,29.810762,33.87
2021-07-06 15:39:23.757812500,-34.0,8.0,54.0,93.69515625000001,-66.6,29.81128240625,33.87
2021-07-06 15:39:23.765625000,-34.0,8.0,54.0,93.6953125,-71.78,29.8118028125,33.87
2021-07-06 15:39:23.773437500,-34.0,8.0,54.0,93.69546875,-74.98,29.81232321875,33.87
2021-07-06 15:39:23.781250000,-34.0,8.0,54.0,93.695625,-78.18,29.812843625,33.87
2021-07-06 15:39:23.789062500,-34.0,8.0,54.0,93.69578125000001,-78.185,29.81336403125,33.87
2021-07-06 15:39:23.796875000,-34.0,8.0,54.0,93.6959375,-78.19,29.8138844375,33.87
2021-07-06 15:39:23.804687500,-34.0,8.0,54.0,93.69609375,-74.34,29.81440484375,33.87
2021-07-06 15:39:23.812500000,-34.0,8.0,54.0,93.69625,-70.49,29.81492525,33.87
2021-07-06 15:39:23.820312500,-34.0,8.0,54.0,93.69640625000001,-62.949999999999996,29.81544565625,33.87
2021-07-06 15:39:23.828125000,-34.0,8.0,54.0,93.6965625,-55.41,29.8159660625,33.87
2021-07-06 15:39:23.835937500,-34.0,8.0,54.0,93.69671875,-45.17,29.81648646875,33.87
2021-07-06 15:39:23.843750000,-34.0,8.0,54.0,93.696875,-34.93,29.817006875,33.87
2021-07-06 15:39:23.851562500,-34.0,8.0,54.0,93.69703125000001,-23.509999999999998,29.81752728125,33.87
2021-07-06 15:39:23.859375000,-34.0,8.0,54.0,93.6971875,-12.09,29.8180476875,33.87
2021-07-06 15:39:23.867187500,-34.0,8.0,54.0,93.69734375,-1.004999999999999,29.81856809375,33.87
2021-07-06 15:39:23.875000000,-34.0,8.0,54.0,93.6975,10.08,29.8190885,33.87
2021-07-06 15:39:23.882812500,-34.0,8.0,54.0,93.69765625000001,19.700000000000003,29.81960890625,33.87
2021-07-06 15:39:23.890625000,-34.0,8.0,54.0,93.6978125,29.32,29.8201293125,33.87
2021-07-06 15:39:23.898437500,-34.0,8.0,54.0,93.69796875,36.95,29.820649718749998,33.87
2021-07-06 15:39:23.906250000,-34.0,8.0,54.0,93.698125,44.58,29.821170125,33.87
2021-07-06 15:39:23.914062500,-34.0,8.0,54.0,93.69828125000001,50.21,29.82169053125,33.87
2021-07-06 15:39:23.921875000,-34.0,8.0,54.0,93.6984375,55.84,29.8222109375,33.87
2021-07-06 15:39:23.929687500,-34.0,8.0,54.0,93.69859375,59.74,29.82273134375,33.87
2021-07-06 15:39:23.937500000,-34.0,8.0,54.0,93.69875,63.64,29.823251749999997,33.87
2021-07-06 15:39:23.945312500,-34.0,8.0,54.0,93.69890625000001,66.095,29.823772156249998,33.87
2021-07-06 15:39:23.953125000,-34.0,8.0,54.0,93.6990625,68.55,29.8242925625,33.87
2021-07-06 15:39:23.960937500,-34.0,8.0,54.0,93.69921875,69.74000000000001,29.82481296875,33.87
2021-07-06 15:39:23.968750000,-34.0,8.0,54.0,93.699375,70.93,29.825333375,33.87
2021-07-06 15:39:23.976562500,-34.0,8.0,54.0,93.69953125,70.95500000000001,29.82585378125,33.87
2021-07-06 15:39:23.984375000,-34.0,8.0,54.0,93.6996875,70.98,29.826374187499997,33.87
2021-07-06 15:39:23.992187500,-34.0,8.0,54.0,93.69984375,69.95500000000001,29.826894593749998,33.87
2021-07-06 15:39:24.000000000,-34.0,8.0,54.0,93.7,68.93,29.827415,33.87
2021-07-06 15:39:24.007812500,-34.0,8.0,54.0,93.70023437500001,67.12,29.827895437499997,33.871249999999996
2021-07-06 15:39:24.015625000,-34.0,8.0,54.0,93.70046875,65.31,29.828375875,33.872499999999995
2021-07-06 15:39:24.023437500,-34.0,8.0,54.0,93.700703125,63.115,29.828856312499997,33.873749999999994
2021-07-06 15:39:24.031250000,-34.0,8.0,54.0,93.70093750000001,60.92,29.82933675,33.875
2021-07-06 15:39:24.039062500,-34.25,8.0,54.0,93.701171875,58.79,29.829817187499998,33.87625
2021-07-06 15:39:24.046875000,-34.5,8.0,54.0,93.70140625,56.66,29.830297625,33.8775
2021-07-06 15:39:24.054687500,-34.75,8.0,54.0,93.701640625,54.965,29.8307780625,33.87875
2021-07-06 15:39:24.062500000,-35.0,8.0,54.0,93.701875,53.27,29.831258499999997,33.879999999999995
2021-07-06 15:39:24.070312500,-34.75,8.0,54.0,93.702109375,52.17,29.8317389375,33.881249999999994
2021-07-06 15:39:24.078125000,-34.5,8.0,54.0,93.70234375,51.07,29.832219374999998,33.8825
2021-07-06 15:39:24.085937500,-34.25,8.0,54.0,93.702578125,50.475,29.8326998125,33.88375
2021-07-06 15:39:24.093750000,-34.0,8.0,54.0,93.70281250000001,49.88,29.833180249999998,33.885
2021-07-06 15:39:24.101562500,-34.0,8.0,54.0,93.703046875,49.56,29.8336606875,33.88625
2021-07-06 15:39:24.109375000,-34.0,8.0,54.0,93.70328125,49.24,29.834141125,33.887499999999996
2021-07-06 15:39:24.117187500,-34.0,8.0,54.0,93.70351562500001,48.935,29.8346215625,33.888749999999995
2021-07-06 15:39:24.125000000,-34.0,8.0,54.0,93.70375,48.63,29.835102,33.89
2021-07-06 15:39:24.132812500,-34.0,8.25,54.0,93.703984375,48.185,29.835582437499998,33.89125
2021-07-06 15:39:24.140625000,-34.0,8.5,54.0,93.70421875000001,47.74,29.836062875,33.8925
2021-07-06 15:39:24.148437500,-34.0,8.75,54.0,93.704453125,47.165000000000006,29.836543312499998,33.89375
2021-07-06 15:39:24.156250000,-34.0,9.0,54.0,93.7046875,46.59,29.83702375,33.894999999999996
2021-07-06 15:39:24.164062500,-34.0,8.75,54.0,93.704921875,45.975,29.8375041875,33.896249999999995
2021-07-06 15:39:24.171875000,-34.0,8.5,54.0,93.70515625,45.36,29.837984625,33.897499999999994
2021-07-06 15:39:24.179687500,-34.0,8.25,54.0,93.705390625,44.8,29.8384650625,33.89875
2021-07-06 15:39:24.187500000,-34.0,8.0,54.0,93.705625,44.24,29.8389455,33.9
2021-07-06 15:39:24.195312500,-34.0,8.0,54.0,93.705859375,43.72,29.8394259375,33.90125
2021-07-06 15:39:24.203125000,-34.0,8.0,54.0,93.70609375000001,43.2,29.839906374999998,33.902499999999996
2021-07-06 15:39:24.210937500,-34.0,8.0,54.0,93.706328125,42.545,29.8403868125,33.903749999999995
2021-07-06 15:39:24.218750000,-34.0,8.0,54.0,93.7065625,41.89,29.84086725,33.904999999999994
2021-07-06 15:39:24.226562500,-34.0,8.25,54.0,93.70679687500001,40.835,29.8413476875,33.90625
2021-07-06 15:39:24.234375000,-34.0,8.5,54.0,93.70703125,39.78,29.841828125,33.9075
2021-07-06 15:39:24.242187500,-34.0,8.75,54.0,93.707265625,38.019999999999996,29.8423085625,33.90875
2021-07-06 15:39:24.250000000,-34.0,9.0,54.0,93.70750000000001,36.26,29.842789,33.91
2021-07-06 15:39:24.257812500,-34.0,8.75,54.0,93.707734375,33.6,29.84258884375,33.91
2021-07-06 15:39:24.265625000,-34.0,8.5,54.0,93.70796875,30.94,29.842388687499998,33.91
2021-07-06 15:39:24.273437500,-34.0,8.25,54.0,93.708203125,27.37,29.84218853125,33.91
2021-07-06 15:39:24.281250000,-34.0,8.0,54.0,93.7084375,23.8,29.841988375,33.91
2021-07-06 15:39:24.289062500,-34.0,8.0,54.0,93.70867187500001,19.53,29.84178821875,33.91
2021-07-06 15:39:24.296875000,-34.0,8.0,54.0,93.70890625,15.26,29.8415880625,33.91
2021-07-06 15:39:24.304687500,-34.0,8.0,54.0,93.709140625,10.69,29.84138790625,33.91
2021-07-06 15:39:24.312500000,-34.0,8.0,54.0,93.70937500000001,6.12,29.84118775,33.91
2021-07-06 15:39:24.320312500,-34.0,8.25,54.0,93.709609375,1.7199999999999998,29.84098759375,33.91
2021-07-06 15:39:24.328125000,-34.0,8.5,54.0,93.70984375,-2.68,29.840787437499998,33.91
2021-07-06 15:39:24.335937500,-34.0,8.75,54.0,93.71007812500001,-6.5,29.84058728125,33.91
2021-07-06 15:39:24.343750000,-34.0,9.0,54.0,93.7103125,-10.32,29.840387125,33.91
2021-07-06 15:39:24.351562500,-34.0,8.75,54.0,93.710546875,-13.4,29.84018696875,33.91
2021-07-06 15:39:24.359375000,-34.0,8.5,54.0,93.71078125,-16.48,29.8399868125,33.91
2021-07-06 15:39:24.367187500,-34.0,8.25,54.0,93.711015625,-18.925,29.83978665625,33.91
2021-07-06 15:39:24.375000000,-34.0,8.0,54.0,93.71125,-21.37,29.8395865,33.91
2021-07-06 15:39:24.382812500,-34.0,8.0,54.0,93.711484375,-23.53,29.83938634375,33.91
2021-07-06 15:39:24.390625000,-34.0,8.0,54.0,93.71171875,-25.69,29.839186187499998,33.91
2021-07-06 15:39:24.398437500,-34.0,8.0,54.0,93.71195312500001,-28.065,29.83898603125,33.91
2021-07-06 15:39:24.406250000,-34.0,8.0,54.0,93.7121875,-30.44,29.838785875,33.91
2021-07-06 15:39:24.414062500,-34.0,8.0,54.0,93.712421875,-33.485,29.83858571875,33.91
2021-07-06 15:39:24.421875000,-34.0,8.0,54.0,93.71265625000001,-36.53,29.8383855625,33.91
2021-07-06 15:39:24.429687500,-34.0,8.0,54.0,93.712890625,-40.55,29.83818540625,33.91
2021-07-06 15:39:24.437500000,-34.0,8.0,54.0,93.713125,-44.57,29.83798525,33.91
2021-07-06 15:39:24.445312500,-34.0,8.0,54.0,93.71335937500001,-49.525,29.83778509375,33.91
2021-07-06 15:39:24.453125000,-34.0,8.0,54.0,93.71359375,-54.48,29.837584937499997,33.91
2021-07-06 15:39:24.460937500,-34.0,8.0,54.0,93.713828125,-59.94,29.837384781249998,33.91
2021-07-06 15:39:24.468750000,-34.0,8.0,54.0,93.7140625,-65.4,29.837184625,33.91
2021-07-06 15:39:24.476562500,-34.0,8.0,54.0,93.714296875,-70.52000000000001,29.83698446875,33.91
2021-07-06 15:39:24.484375000,-34.0,8.0,54.0,93.71453125000001,-75.64,29.8367843125,33.91
2021-07-06 15:39:24.492187500,-34.0,8.0,54.0,93.714765625,-79.285,29.836584156249998,33.91
2021-07-06 15:39:24.500000000,-34.0,8.0,54.0,93.715,-82.93,29.836384,33.91
2021-07-06 15:39:24.507812500,-34.0,8.0,54.0,93.71523437500001,-83.97,29.83666425,33.91
2021-07-06 15:39:24.515625000,-34.0,8.0,54.0,93.71546875,-85.01,29.836944499999998,33.91
2021-07-06 15:39:24.523437500,-34.0,8.0,54.0,93.715703125,-82.64,29.837224749999997,33.91
2021-07-06 15:39:24.531250000,-34.0,8.0,54.0,93.71593750000001,-80.27,29.837505,33.91
2021-07-06 15:39:24.539062500,-34.0,8.0,54.0,93.716171875,-74.35,29.83778525,33.91
2021-07-06 15:39:24.546875000,-34.0,8.0,54.0,93.71640625,-68.43,29.8380655,33.91
2021-07-06 15:39:24.554687500,-34.0,8.0,54.0,93.716640625,-59.565000000000005,29.83834575,33.91
2021-07-06 15:39:24.562500000,-34.0,8.0,54.0,93.716875,-50.7,29.838625999999998,33.91
2021-07-06 15:39:24.570312500,-34.0,8.25,54.0,93.717109375,-40.08,29.838906249999997,33.91
2021-07-06 15:39:24.578125000,-34.0,8.5,54.0,93.71734375,-29.46,29.8391865,33.91
2021-07-06 15:39:24.585937500,-34.0,8.75,54.0,93.717578125,-18.505000000000003,29.83946675,33.91
2021-07-06 15:39:24.593750000,-34.0,9.0,54.0,93.71781250000001,-7.55,29.839747,33.91
2021-07-06 15:39:24.601562500,-34.0,8.75,54.0,93.718046875,2.5100000000000007,29.84002725,33.91
2021-07-06 15:39:24.609375000,-34.0,8.5,54.0,93.71828125,12.57,29.840307499999998,33.91
2021-07-06 15:39:24.617187500,-34.0,8.25,54.0,93.71851562500001,20.97,29.840587749999997,33.91
2021-07-06 15:39:24.625000000,-34.0,8.0,54.0,93.71875,29.37,29.840868,33.91
2021-07-06 15:39:24.632812500,-34.0,8.25,54.0,93.718984375,35.815,29.84114825,33.91
2021-07-06 15:39:24.640625000,-34.0,8.5,54.0,93.71921875000001,42.26,29.8414285,33.91
2021-07-06 15:39:24.648437500,-34.0,8.75,54.0,93.719453125,46.86,29.84170875,33.91
2021-07-06 15:39:24.656250000,-34.0,9.0,54.0,93.7196875,51.46,29.841988999999998,33.91
2021-07-06 15:39:24.664062500,-34.0,9.0,54.0,93.719921875,54.480000000000004,29.842269249999998,33.91
2021-07-06 15:39:24.671875000,-34.0,9.0,54.0,93.72015625,57.5,29.842549499999997,33.91
2021-07-06 15:39:24.679687500,-34.0,9.0,54.0,93.72039062500001,59.235,29.84282975,33.91
2021-07-06 15:39:24.687500000,-34.0,9.0,54.0,93.720625,60.97,29.84311,33.91
2021-07-06 15:39:24.695312500,-34.0,8.75,54.0,93.720859375,61.665,29.84339025,33.91
2021-07-06 15:39:24.703125000,-34.0,8.5,54.0,93.72109375000001,62.36,29.843670499999998,33.91
2021-07-06 15:39:24.710937500,-34.0,8.25,54.0,93.721328125,62.230000000000004,29.843950749999998,33.91
2021-07-06 15:39:24.718750000,-34.0,8.0,54.0,93.7215625,62.1,29.844230999999997,33.91
2021-07-06 15:39:24.726562500,-34.0,8.25,54.0,93.72179687500001,61.345,29.84451125,33.91
2021-07-06 15:39:24.734375000,-34.0,8.5,54.0,93.72203125,60.59,29.8447915,33.91
2021-07-06 15:39:24.742187500,-34.0,8.75,54.0,93.722265625,59.435,29.84507175,33.91
2021-07-06 15:39:24.750000000,-34.0,9.0,54.0,93.7225,58.28,29.845352,33.91
2021-07-06 15:39:24.757812500,-34.0,8.75,54.0,93.722734375,56.905,29.845191843749998,33.91
2021-07-06 15:39:24.765625000,-34.0,8.5,54.0,93.72296875,55.53,29.845031687499997,33.91
2021-07-06 15:39:24.773437500,-34.0,8.25,54.0,93.723203125,54.07,29.84487153125,33.91
2021-07-06 15:39:24.781250000,-34.0,8.0,54.0,93.7234375,52.61,29.844711375,33.91
2021-07-06 15:39:24.789062500,-34.0,8.25,54.0,93.72367187500001,51.165,29.84455121875,33.91
2021-07-06 15:39:24.796875000,-34.0,8.5,54.0,93.72390625,49.72,29.844391062499998,33.91
2021-07-06 15:39:24.804687500,-34.0,8.75,54.0,93.724140625,48.364999999999995,29.844230906249997,33.91
2021-07-06 15:39:24.812500000,-34.0,9.0,54.0,93.72437500000001,47.01,29.84407075,33.91
2021-07-06 15:39:24.820312500,-34.0,9.0,54.0,93.724609375,45.81,29.84391059375,33.91
2021-07-06 15:39:24.828125000,-34.0,9.0,54.0,93.72484375,44.61,29.8437504375,33.91
2021-07-06 15:39:24.835937500,-34.0,9.0,54.0,93.72507812500001,43.629999999999995,29.84359028125,33.91
2021-07-06 15:39:24.843750000,-34.0,9.0,54.0,93.7253125,42.65,29.843430124999998,33.91
2021-07-06 15:39:24.851562500,-34.0,8.75,54.0,93.725546875,41.955,29.843269968749997,33.91
2021-07-06 15:39:24.859375000,-34.0,8.5,54.0,93.72578125,41.26,29.8431098125,33.91
2021-07-06 15:39:24.867187500,-34.0,8.25,54.0,93.726015625,40.87,29.84294965625,33.91
2021-07-06 15:39:24.875000000,-34.0,8.0,54.0,93.72625000000001,40.48,29.8427895,33.91
2021-07-06 15:39:24.882812500,-33.75,8.25,54.0,93.726484375,40.349999999999994,29.842629343749998,33.91
2021-07-06 15:39:24.890625000,-33.5,8.5,54.0,93.72671875,40.22,29.842469187499997,33.91
2021-07-06 15:39:24.898437500,-33.25,8.75,54.0,93.72695312500001,40.2,29.84230903125,33.91
2021-07-06 15:39:24.906250000,-33.0,9.0,54.0,93.7271875,40.18,29.842148875,33.91
2021-07-06 15:39:24.914062500,-33.25,9.0,54.0,93.727421875,40.05,29.84198871875,33.91
2021-07-06 15:39:24.921875000,-33.5,9.0,54.0,93.72765625000001,39.92,29.841828562499998,33.91
2021-07-06 15:39:24.929687500,-33.75,9.0,54.0,93.727890625,39.405,29.841668406249998,33.91
2021-07-06 15:39:24.937500000,-34.0,9.0,54.0,93.728125,38.89,29.841508249999997,33.91
2021-07-06 15:39:24.945312500,-34.0,9.0,54.0,93.72835937500001,37.785,29.84134809375,33.91
2021-07-06 15:39:24.953125000,-34.0,9.0,54.0,93.72859375,36.68,29.8411879375,33.91
2021-07-06 15:39:24.960937500,-34.0,9.0,54.0,93.728828125,34.91,29.84102778125,33.91
2021-07-06 15:39:24.968750000,-34.0,9.0,54.0,93.7290625,33.14,29.840867624999998,33.91
2021-07-06 15:39:24.976562500,-34.0,8.75,54.0,93.729296875,30.83,29.840707468749997,33.91
2021-07-06 15:39:24.984375000,-34.0,8.5,54.0,93.72953125000001,28.52,29.8405473125,33.91
2021-07-06 15:39:24.992187500,-34.0,8.25,54.0,93.729765625,25.9,29.84038715625,33.91
2021-07-06 15:39:25.000000000,-34.0,8.0,54.0,93.73,23.28,29.840227,33.91
2021-07-06 15:39:25.007812500,-34.0,8.0,54.0,93.730546875,20.61,29.840507249999998,33.91
2021-07-06 15:39:25.015625000,-34.0,8.0,54.0,93.73109375,17.94,29.840787499999998,33.91
2021-07-06 15:39:25.023437500,-34.0,8.0,54.0,93.731640625,15.385000000000002,29.84106775,33.91
2021-07-06 15:39:25.031250000,-34.0,8.0,54.0,93.73218750000001,12.83,29.841348,33.91
2021-07-06 15:39:25.039062500,-34.0,8.25,54.0,93.732734375,10.385,29.84162825,33.91
2021-07-06 15:39:25.046875000,-34.0,8.5,54.0,93.73328125,7.94,29.8419085,33.91
2021-07-06 15:39:25.054687500,-34.0,8.75,54.0,93.733828125,5.470000000000001,29.84218875,33.91
2021-07-06 15:39:25.062500000,-34.0,9.0,54.0,93.734375,3.0,29.842469,33.91
2021-07-06 15:39:25.070312500,-34.0,9.0,54.0,93.734921875,0.33999999999999986,29.84274925,33.91
2021-07-06 15:39:25.078125000,-34.0,9.0,54.0,93.73546875000001,-2.32,29.8430295,33.91
2021-07-06 15:39:25.085937500,-34.0,9.0,54.0,93.73601562500001,-5.254999999999999,29.84330975,33.91
2021-07-06 15:39:25.093750000,-34.0,9.0,54.0,93.7365625,-8.19,29.84359,33.91
2021-07-06 15:39:25.101562500,-34.0,8.75,54.0,93.737109375,-11.315,29.84387025,33.91
2021-07-06 15:39:25.109375000,-34.0,8.5,54.0,93.73765625,-14.44,29.8441505,33.91
2021-07-06 15:39:25.117187500,-34.0,8.25,54.0,93.738203125,-17.535,29.84443075,33.91
2021-07-06 15:39:25.125000000,-34.0,8.0,54.0,93.73875000000001,-20.63,29.844711,33.91
2021-07-06 15:39:25.132812500,-34.0,8.25,54.0,93.73929687500001,-23.445,29.84499125,33.91
2021-07-06 15:39:25.140625000,-34.0,8.5,54.0,93.73984375,-26.26,29.8452715,33.91
2021-07-06 15:39:25.148437500,-34.0,8.75,54.0,93.740390625,-28.635,29.845551750000002,33.91
2021-07-06 15:39:25.156250000,-34.0,9.0,54.0,93.7409375,-31.01,29.845832,33.91
2021-07-06 15:39:25.164062500,-34.0,8.75,54.0,93.741484375,-32.94,29.84611225,33.91
2021-07-06 15:39:25.171875000,-34.0,8.5,54.0,93.74203125,-34.87,29.8463925,33.91
2021-07-06 15:39:25.179687500,-34.0,8.25,54.0,93.74257812500001,-36.525,29.84667275,33.91
2021-07-06 15:39:25.187500000,-34.0,8.0,54.0,93.743125,-38.18,29.846953,33.91
2021-07-06 15:39:25.195312500,-34.0,8.0,54.0,93.743671875,-39.81,29.847233250000002,33.91
2021-07-06 15:39:25.203125000,-34.0,8.0,54.0,93.74421875,-41.44,29.8475135,33.91
2021-07-06 15:39:25.210937500,-34.0,8.0,54.0,93.744765625,-43.355000000000004,29.84779375,33.91
2021-07-06 15:39:25.218750000,-34.0,8.0,54.0,93.7453125,-45.27,29.848074,33.91
2021-07-06 15:39:25.226562500,-34.0,8.0,54.0,93.74585937500001,-47.74,29.84835425,33.91
2021-07-06 15:39:25.234375000,-34.0,8.0,54.0,93.74640625,-50.21,29.848634500000003,33.91
2021-07-06 15:39:25.242187500,-34.0,8.0,54.0,93.746953125,-53.405,29.848914750000002,33.91
2021-07-06 15:39:25.250000000,-34.0,8.0,54.0,93.7475,-56.6,29.849195,33.91
2021-07-06 15:39:25.257812500,-34.0,8.0,54.0,93.748046875,-60.45,29.84903484375,33.91
2021-07-06 15:39:25.265625000,-34.0,8.0,54.0,93.74859375,-64.3,29.8488746875,33.91
2021-07-06 15:39:25.273437500,-34.0,8.0,54.0,93.749140625,-68.44,29.84871453125,33.91
2021-07-06 15:39:25.281250000,-34.0,8.0,54.0,93.74968750000001,-72.58,29.848554375000003,33.91
2021-07-06 15:39:25.289062500,-34.0,8.25,54.0,93.750234375,-76.25,29.848394218750002,33.91
2021-07-06 15:39:25.296875000,-34.0,8.5,54.0,93.75078125,-79.92,29.8482340625,33.91
2021-07-06 15:39:25.304687500,-34.0,8.75,54.0,93.751328125,-82.11,29.84807390625,33.91
2021-07-06 15:39:25.312500000,-34.0,9.0,54.0,93.751875,-84.3,29.84791375,33.91
2021-07-06 15:39:25.320312500,-34.0,8.75,54.0,93.752421875,-84.03999999999999,29.84775359375,33.91
2021-07-06 15:39:25.328125000,-34.0,8.5,54.0,93.75296875000001,-83.78,29.847593437500002,33.91
2021-07-06 15:39:25.335937500,-34.0,8.25,54.0,93.753515625,-80.45,29.84743328125,33.91
2021-07-06 15:39:25.343750000,-34.0,8.0,54.0,93.7540625,-77.12,29.847273125,33.91
2021-07-06 15:39:25.351562500,-34.0,8.0,54.0,93.754609375,-70.775,29.84711296875,33.91
2021-07-06 15:39:25.359375000,-34.0,8.0,54.0,93.75515625,-64.43,29.8469528125,33.91
2021-07-06 15:39:25.367187500,-34.0,8.0,54.0,93.755703125,-55.800000000000004,29.84679265625,33.91
2021-07-06 15:39:25.375000000,-34.0,8.0,54.0,93.75625,-47.17,29.8466325,33.91
2021-07-06 15:39:25.382812500,-34.0,8.25,54.0,93.756796875,-37.445,29.84647234375,33.91
2021-07-06 15:39:25.390625000,-34.0,8.5,54.0,93.75734375,-27.72,29.8463121875,33.91
2021-07-06 15:39:25.398437500,-34.0,8.75,54.0,93.757890625,-18.145,29.84615203125,33.91
2021-07-06 15:39:25.406250000,-34.0,9.0,54.0,93.7584375,-8.57,29.845991875,33.91
2021-07-06 15:39:25.414062500,-34.0,8.75,54.0,93.758984375,-0.11500000000000021,29.84583171875,33.91
2021-07-06 15:39:25.421875000,-34.0,8.5,54.0,93.75953125,8.34,29.845671562499998,33.91
2021-07-06 15:39:25.429687500,-34.0,8.25,54.0,93.760078125,15.16,29.84551140625,33.91
2021-07-06 15:39:25.437500000,-34.0,8.0,54.0,93.760625,21.98,29.84535125,33.91
2021-07-06 15:39:25.445312500,-34.0,8.25,54.0,93.761171875,27.095,29.84519109375,33.91
2021-07-06 15:39:25.453125000,-34.0,8.5,54.0,93.76171875,32.21,29.8450309375,33.91
2021-07-06 15:39:25.460937500,-34.0,8.75,54.0,93.762265625,35.765,29.84487078125,33.91
2021-07-06 15:39:25.468750000,-34.0,9.0,54.0,93.7628125,39.32,29.844710624999998,33.91
2021-07-06 15:39:25.476562500,-34.0,8.75,54.0,93.76335937500001,41.545,29.84455046875,33.91
2021-07-06 15:39:25.484375000,-34.0,8.5,54.0,93.76390625,43.77,29.8443903125,33.91
2021-07-06 15:39:25.492187500,-34.0,8.25,54.0,93.764453125,44.84,29.84423015625,33.91
2021-07-06 15:39:25.500000000,-34.0,8.0,54.0,93.765,45.91,29.84407,33.91
2021-07-06 15:39:25.507812500,-34.0,8.25,54.0,93.765546875,45.974999999999994,29.8441500625,33.91
2021-07-06 15:39:25.515625000,-34.0,8.5,54.0,93.76609375,46.04,29.844230125,33.91
2021-07-06 15:39:25.523437500,-34.0,8.75,54.0,93.766640625,45.3,29.8443101875,33.91
2021-07-06 15:39:25.531250000,-34.0,9.0,54.0,93.7671875,44.56,29.84439025,33.91
2021-07-06 15:39:25.539062500,-34.0,9.0,54.0,93.767734375,43.269999999999996,29.8444703125,33.91
