TimeStamp,empatica.acc.x,empatica.acc.y,empatica.acc.z,empatica.hr,empatica.bvp,empatica.eda,empatica.temp
2021-07-06 15:38:31.164062500,-33.75,9.0,54.0,86.287734375,24.915,30.885046843749997,33.79
2021-07-06 15:38:31.171875000,-33.5,9.0,54.0,86.28953125,23.92,30.885567312499997,33.79
2021-07-06 15:38:31.179687500,-33.25,9.0,54.0,86.291328125,23.39,30.886087781249998,33.79
2021-07-06 15:38:31.187500000,-33.0,9.0,54.0,86.293125,22.86,30.88660825,33.79
2021-07-06 15:38:31.195312500,-33.0,8.75,54.0,86.294921875,22.83,30.88712871875,33.79
2021-07-06 15:38:31.203125000,-33.0,8.5,54.0,86.29671875,22.8,30.8876491875,33.79
2021-07-06 15:38:31.210937500,-33.0,8.25,54.0,86.29851562500001,23.16,30.88816965625,33.79
2021-07-06 15:38:31.218750000,-33.0,8.0,54.0,86.3003125,23.52,30.888690124999997,33.79
2021-07-06 15:38:31.226562500,-33.25,8.0,54.0,86.302109375,24.095,30.889210593749997,33.79
2021-07-06 15:38:31.234375000,-33.5,8.0,54.0,86.30390625,24.67,30.889731062499997,33.79
2021-07-06 15:38:31.242187500,-33.75,8.0,54.0,86.30570312500001,25.270000000000003,30.890251531249998,33.79
2021-07-06 15:38:31.250000000,-34.0,8.0,54.0,86.3075,25.87,30.890772,33.79
2021-07-06 15:38:31.257812500,-34.0,8.25,54.0,86.309296875,26.310000000000002,30.8904116875,33.79
2021-07-06 15:38:31.265625000,-34.0,8.5,54.0,86.31109375,26.75,30.890051375,33.79
2021-07-06 15:38:31.273437500,-34.0,8.75,54.0,86.312890625,26.905,30.8896910625,33.79
2021-07-06 15:38:31.281250000,-34.0,9.0,54.0,86.3146875,27.06,30.88933075,33.79
2021-07-06 15:38:31.289062500,-33.75,9.0,54.0,86.316484375,26.86,30.8889704375,33.79
2021-07-06 15:38:31.296875000,-33.5,9.0,54.0,86.31828125,26.66,30.888610125,33.79
2021-07-06 15:38:31.304687500,-33.25,9.0,54.0,86.320078125,26.075,30.8882498125,33.79
2021-07-06 15:38:31.312500000,-33.0,9.0,54.0,86.321875,25.49,30.8878895,33.79
2021-07-06 15:38:31.320312500,-33.25,9.0,54.0,86.323671875,24.494999999999997,30.8875291875,33.79
2021-07-06 15:38:31.328125000,-33.5,9.0,54.0,86.32546875,23.5,30.887168875,33.79
2021-07-06 15:38:31.335937500,-33.75,9.0,54.0,86.327265625,22.11,30.8868085625,33.79
2021-07-06 15:38:31.343750000,-34.0,9.0,54.0,86.3290625,20.72,30.88644825,33.79
2021-07-06 15:38:31.351562500,-34.0,9.0,54.0,86.330859375,18.955,30.8860879375,33.79
2021-07-06 15:38:31.359375000,-34.0,9.0,54.0,86.33265625,17.19,30.885727625,33.79
2021-07-06 15:38:31.367187500,-34.0,9.0,54.0,86.334453125,15.100000000000001,30.8853673125,33.79
2021-07-06 15:38:31.375000000,-34.0,9.0,54.0,86.33625,13.01,30.885007,33.79
2021-07-06 15:38:31.382812500,-33.75,9.0,54.0,86.338046875,10.66,30.8846466875,33.79
2021-07-06 15:38:31.390625000,-33.5,9.0,54.0,86.33984375,8.31,30.884286375,33.79
2021-07-06 15:38:31.398437500,-33.25,9.0,54.0,86.341640625,5.76,30.8839260625,33.79
2021-07-06 15:38:31.406250000,-33.0,9.0,54.0,86.34343750000001,3.21,30.88356575,33.79
2021-07-06 15:38:31.414062500,-33.25,9.0,54.0,86.345234375,0.54,30.8832054375,33.79
2021-07-06 15:38:31.421875000,-33.5,9.0,54.0,86.34703125,-2.13,30.882845125,33.79
2021-07-06 15:38:31.429687500,-33.75,9.0,54.0,86.348828125,-4.865,30.8824848125,33.79
2021-07-06 15:38:31.437500000,-34.0,9.0,54.0,86.35062500000001,-7.6,30.8821245,33.79
2021-07-06 15:38:31.445312500,-33.75,9.0,54.0,86.352421875,-10.33,30.8817641875,33.79
2021-07-06 15:38:31.453125000,-33.5,9.0,54.0,86.35421875,-13.06,30.881403875,33.79
2021-07-06 15:38:31.460937500,-33.25,9.0,54.0,86.356015625,-15.725000000000001,30.8810435625,33.79
2021-07-06 15:38:31.468750000,-33.0,9.0,54.0,86.35781250000001,-18.39,30.88068325,33.79
2021-07-06 15:38:31.476562500,-33.0,8.75,54.0,86.359609375,-20.884999999999998,30.8803229375,33.79
2021-07-06 15:38:31.484375000,-33.0,8.5,54.0,86.36140625,-23.38,30.879962625,33.79
2021-07-06 15:38:31.492187500,-33.0,8.25,54.0,86.363203125,-25.63,30.8796023125,33.79
2021-07-06 15:38:31.500000000,-33.0,8.0,54.0,86.36500000000001,-27.88,30.879242,33.79
2021-07-06 15:38:31.507812500,-33.25,8.0,54.0,86.366796875,-29.83,30.87980246875,33.79
2021-07-06 15:38:31.515625000,-33.5,8.0,54.0,86.36859375,-31.78,30.880362937500003,33.79
2021-07-06 15:38:31.523437500,-33.75,8.0,54.0,86.370390625,-33.445,30.88092340625,33.79
2021-07-06 15:38:31.531250000,-34.0,8.0,54.0,86.3721875,-35.11,30.881483875,33.79
2021-07-06 15:38:31.539062500,-34.0,8.0,54.0,86.373984375,-36.64,30.88204434375,33.79
2021-07-06 15:38:31.546875000,-34.0,8.0,54.0,86.37578125,-38.17,30.882604812500002,33.79
2021-07-06 15:38:31.554687500,-34.0,8.0,54.0,86.377578125,-39.8,30.88316528125,33.79
2021-07-06 15:38:31.562500000,-34.0,8.0,54.0,86.379375,-41.43,30.88372575,33.79
2021-07-06 15:38:31.570312500,-34.0,8.25,54.0,86.381171875,-43.47,30.884286218750002,33.79
2021-07-06 15:38:31.578125000,-34.0,8.5,54.0,86.38296875,-45.51,30.8848466875,33.79
2021-07-06 15:38:31.585937500,-34.0,8.75,54.0,86.384765625,-48.16,30.88540715625,33.79
2021-07-06 15:38:31.593750000,-34.0,9.0,54.0,86.3865625,-50.81,30.885967625,33.79
2021-07-06 15:38:31.601562500,-34.0,9.0,54.0,86.38835937500001,-54.075,30.88652809375,33.79
2021-07-06 15:38:31.609375000,-34.0,9.0,54.0,86.39015625,-57.34,30.8870885625,33.79
2021-07-06 15:38:31.617187500,-34.0,9.0,54.0,86.391953125,-60.870000000000005,30.88764903125,33.79
2021-07-06 15:38:31.625000000,-34.0,9.0,54.0,86.39375,-64.4,30.888209500000002,33.79
2021-07-06 15:38:31.632812500,-34.0,8.75,54.0,86.39554687500001,-67.495,30.88876996875,33.79
2021-07-06 15:38:31.640625000,-34.0,8.5,54.0,86.39734375,-70.59,30.8893304375,33.79
2021-07-06 15:38:31.648437500,-34.0,8.25,54.0,86.399140625,-72.345,30.88989090625,33.79
2021-07-06 15:38:31.656250000,-34.0,8.0,54.0,86.4009375,-74.1,30.890451375,33.79
2021-07-06 15:38:31.664062500,-33.75,8.25,54.0,86.40273437500001,-73.66999999999999,30.89101184375,33.79
2021-07-06 15:38:31.671875000,-33.5,8.5,54.0,86.40453125,-73.24,30.8915723125,33.79
2021-07-06 15:38:31.679687500,-33.25,8.75,54.0,86.406328125,-70.16,30.892132781249998,33.79
2021-07-06 15:38:31.687500000,-33.0,9.0,54.0,86.408125,-67.08,30.89269325,33.79
2021-07-06 15:38:31.695312500,-33.25,9.0,54.0,86.40992187500001,-61.445,30.89325371875,33.79
2021-07-06 15:38:31.703125000,-33.5,9.0,54.0,86.41171875,-55.81,30.8938141875,33.79
2021-07-06 15:38:31.710937500,-33.75,9.0,54.0,86.413515625,-48.31,30.89437465625,33.79
2021-07-06 15:38:31.718750000,-34.0,9.0,54.0,86.4153125,-40.81,30.894935125,33.79
2021-07-06 15:38:31.726562500,-34.0,8.75,54.0,86.41710937500001,-32.480000000000004,30.89549559375,33.79
2021-07-06 15:38:31.734375000,-34.0,8.5,54.0,86.41890625,-24.15,30.896056062499998,33.79
2021-07-06 15:38:31.742187500,-34.0,8.25,54.0,86.420703125,-16.064999999999998,30.89661653125,33.79
2021-07-06 15:38:31.750000000,-34.0,8.0,54.0,86.4225,-7.98,30.897177,33.79
2021-07-06 15:38:31.757812500,-34.0,8.0,54.0,86.424296875,-0.9299999999999997,30.89725703125,33.79
2021-07-06 15:38:31.765625000,-34.0,8.0,54.0,86.42609375,6.12,30.8973370625,33.79
2021-07-06 15:38:31.773437500,-34.0,8.0,54.0,86.427890625,11.77,30.89741709375,33.79
2021-07-06 15:38:31.781250000,-34.0,8.0,54.0,86.4296875,17.42,30.897497125,33.79
2021-07-06 15:38:31.789062500,-34.0,8.25,54.0,86.431484375,21.71,30.897577156249998,33.79
2021-07-06 15:38:31.796875000,-34.0,8.5,54.0,86.43328125000001,26.0,30.8976571875,33.79
2021-07-06 15:38:31.804687500,-34.0,8.75,54.0,86.435078125,29.14,30.89773721875,33.79
2021-07-06 15:38:31.812500000,-34.0,9.0,54.0,86.436875,32.28,30.89781725,33.79
2021-07-06 15:38:31.820312500,-34.0,8.75,54.0,86.438671875,34.485,30.89789728125,33.79
2021-07-06 15:38:31.828125000,-34.0,8.5,54.0,86.44046875000001,36.69,30.8979773125,33.79
2021-07-06 15:38:31.835937500,-34.0,8.25,54.0,86.442265625,38.06,30.89805734375,33.79
2021-07-06 15:38:31.843750000,-34.0,8.0,54.0,86.4440625,39.43,30.898137374999997,33.79
2021-07-06 15:38:31.851562500,-34.0,8.0,54.0,86.445859375,39.975,30.898217406249998,33.79
2021-07-06 15:38:31.859375000,-34.0,8.0,54.0,86.44765625000001,40.52,30.8982974375,33.79
2021-07-06 15:38:31.867187500,-34.0,8.0,54.0,86.449453125,40.285,30.89837746875,33.79
2021-07-06 15:38:31.875000000,-34.0,8.0,54.0,86.45125,40.05,30.8984575,33.79
2021-07-06 15:38:31.882812500,-34.0,8.25,54.0,86.453046875,39.19,30.89853753125,33.79
2021-07-06 15:38:31.890625000,-34.0,8.5,54.0,86.45484375000001,38.33,30.8986175625,33.79
2021-07-06 15:38:31.898437500,-34.0,8.75,54.0,86.456640625,37.129999999999995,30.89869759375,33.79
2021-07-06 15:38:31.906250000,-34.0,9.0,54.0,86.4584375,35.93,30.898777625,33.79
2021-07-06 15:38:31.914062500,-34.0,8.75,54.0,86.460234375,34.715,30.898857656249998,33.79
2021-07-06 15:38:31.921875000,-34.0,8.5,54.0,86.46203125000001,33.5,30.8989376875,33.79
2021-07-06 15:38:31.929687500,-34.0,8.25,54.0,86.463828125,32.51,30.89901771875,33.79
2021-07-06 15:38:31.937500000,-34.0,8.0,54.0,86.465625,31.52,30.89909775,33.79
2021-07-06 15:38:31.945312500,-34.0,8.25,54.0,86.467421875,30.85,30.89917778125,33.79
2021-07-06 15:38:31.953125000,-34.0,8.5,54.0,86.46921875000001,30.18,30.8992578125,33.79
2021-07-06 15:38:31.960937500,-34.0,8.75,54.0,86.471015625,29.744999999999997,30.89933784375,33.79
2021-07-06 15:38:31.968750000,-34.0,9.0,54.0,86.4728125,29.31,30.899417874999997,33.79
2021-07-06 15:38:31.976562500,-34.0,9.0,54.0,86.474609375,28.97,30.899497906249998,33.79
2021-07-06 15:38:31.984375000,-34.0,9.0,54.0,86.47640625000001,28.63,30.8995779375,33.79
2021-07-06 15:38:31.992187500,-34.0,9.0,54.0,86.47820312500001,28.27,30.89965796875,33.79
2021-07-06 15:38:32.000000000,-34.0,9.0,54.0,86.48,27.91,30.899738,33.79
2021-07-06 15:38:32.007812500,-34.0,9.0,54.0,86.48234375,27.560000000000002,30.89953784375,33.790625
2021-07-06 15:38:32.015625000,-34.0,9.0,54.0,86.4846875,27.21,30.8993376875,33.79125
2021-07-06 15:38:32.023437500,-34.0,9.0,54.0,86.48703125,27.025,30.89913753125,33.791875
2021-07-06 15:38:32.031250000,-34.0,9.0,54.0,86.48937500000001,26.84,30.898937375,33.7925
2021-07-06 15:38:32.039062500,-34.0,8.75,54.0,86.49171875,26.994999999999997,30.89873721875,33.793124999999996
2021-07-06 15:38:32.046875000,-34.0,8.5,54.0,86.4940625,27.15,30.898537062499997,33.79375
2021-07-06 15:38:32.054687500,-34.0,8.25,54.0,86.49640625,27.71,30.898336906249998,33.794375
2021-07-06 15:38:32.062500000,-34.0,8.0,54.0,86.49875,28.27,30.89813675,33.795
2021-07-06 15:38:32.070312500,-34.0,8.25,54.0,86.50109375000001,29.1,30.89793659375,33.795625
2021-07-06 15:38:32.078125000,-34.0,8.5,54.0,86.5034375,29.93,30.8977364375,33.79625
2021-07-06 15:38:32.085937500,-34.0,8.75,54.0,86.50578125,30.7,30.897536281249998,33.796875
2021-07-06 15:38:32.093750000,-34.0,9.0,54.0,86.508125,31.47,30.897336125,33.7975
2021-07-06 15:38:32.101562500,-34.0,8.75,54.0,86.51046875,31.74,30.89713596875,33.798125
2021-07-06 15:38:32.109375000,-34.0,8.5,54.0,86.51281250000001,32.01,30.896935812499997,33.79875
2021-07-06 15:38:32.117187500,-34.0,8.25,54.0,86.51515625,31.455,30.896735656249998,33.799375
2021-07-06 15:38:32.125000000,-34.0,8.0,54.0,86.5175,30.9,30.8965355,33.8
2021-07-06 15:38:32.132812500,-34.0,8.0,54.0,86.51984375,29.39,30.89633534375,33.800625000000004
2021-07-06 15:38:32.140625000,-34.0,8.0,54.0,86.5221875,27.88,30.8961351875,33.80125
2021-07-06 15:38:32.148437500,-34.0,8.0,54.0,86.52453125000001,25.6,30.895935031249998,33.801875
2021-07-06 15:38:32.156250000,-34.0,8.0,54.0,86.526875,23.32,30.895734875,33.8025
2021-07-06 15:38:32.164062500,-34.0,8.0,54.0,86.52921875,20.66,30.89553471875,33.803125
2021-07-06 15:38:32.171875000,-34.0,8.0,54.0,86.5315625,18.0,30.895334562499997,33.80375
2021-07-06 15:38:32.179687500,-34.0,8.0,54.0,86.53390625,15.395,30.895134406249998,33.804375
2021-07-06 15:38:32.187500000,-34.0,8.0,54.0,86.53625000000001,12.79,30.89493425,33.805
2021-07-06 15:38:32.195312500,-34.0,8.0,54.0,86.53859375,10.59,30.89473409375,33.805625
2021-07-06 15:38:32.203125000,-34.0,8.0,54.0,86.5409375,8.39,30.8945339375,33.80625
2021-07-06 15:38:32.210937500,-34.0,8.0,54.0,86.54328125,6.7,30.894333781249998,33.806875000000005
2021-07-06 15:38:32.218750000,-34.0,8.0,54.0,86.545625,5.01,30.894133625,33.807500000000005
2021-07-06 15:38:32.226562500,-34.0,8.0,54.0,86.54796875000001,3.7199999999999998,30.89393346875,33.808125000000004
2021-07-06 15:38:32.234375000,-34.0,8.0,54.0,86.5503125,2.43,30.893733312499997,33.80875
2021-07-06 15:38:32.242187500,-34.0,8.0,54.0,86.55265625,1.245,30.893533156249998,33.809375
2021-07-06 15:38:32.250000000,-34.0,8.0,54.0,86.555,0.06,30.893333,33.81
2021-07-06 15:38:32.257812500,-34.0,8.25,54.0,86.55734375,-1.335,30.891211218749998,33.81
2021-07-06 15:38:32.265625000,-34.0,8.5,54.0,86.55968750000001,-2.73,30.889089437499997,33.81
2021-07-06 15:38:32.273437500,-34.0,8.75,54.0,86.56203125,-4.575,30.886967656249997,33.81
2021-07-06 15:38:32.281250000,-34.0,9.0,54.0,86.564375,-6.42,30.884845875,33.81
2021-07-06 15:38:32.289062500,-34.0,8.75,54.0,86.56671875,-8.780000000000001,30.88272409375,33.81
2021-07-06 15:38:32.296875000,-34.0,8.5,54.0,86.5690625,-11.14,30.8806023125,33.81
2021-07-06 15:38:32.304687500,-34.0,8.25,54.0,86.57140625000001,-13.9,30.87848053125,33.81
2021-07-06 15:38:32.312500000,-34.0,8.0,54.0,86.57375,-16.66,30.876358749999998,33.81
2021-07-06 15:38:32.320312500,-34.0,8.25,54.0,86.57609375,-19.564999999999998,30.874236968749997,33.81
2021-07-06 15:38:32.328125000,-34.0,8.5,54.0,86.5784375,-22.47,30.8721151875,33.81
2021-07-06 15:38:32.335937500,-34.0,8.75,54.0,86.58078125,-25.225,30.86999340625,33.81
2021-07-06 15:38:32.343750000,-34.0,9.0,54.0,86.58312500000001,-27.98,30.867871625,33.81
2021-07-06 15:38:32.351562500,-34.0,8.75,54.0,86.58546875,-30.380000000000003,30.86574984375,33.81
2021-07-06 15:38:32.359375000,-34.0,8.5,54.0,86.5878125,-32.78,30.8636280625,33.81
2021-07-06 15:38:32.367187500,-34.0,8.25,54.0,86.59015625,-34.765,30.861506281249998,33.81
2021-07-06 15:38:32.375000000,-34.0,8.0,54.0,86.5925,-36.75,30.859384499999997,33.81
2021-07-06 15:38:32.382812500,-34.0,8.0,54.0,86.59484375000001,-38.44,30.85726271875,33.81
2021-07-06 15:38:32.390625000,-34.0,8.0,54.0,86.5971875,-40.13,30.8551409375,33.81
2021-07-06 15:38:32.398437500,-34.0,8.0,54.0,86.59953125,-41.760000000000005,30.85301915625,33.81
2021-07-06 15:38:32.406250000,-34.0,8.0,54.0,86.601875,-43.39,30.850897375,33.81
2021-07-06 15:38:32.414062500,-34.0,8.0,54.0,86.60421875,-45.260000000000005,30.84877559375,33.81
2021-07-06 15:38:32.421875000,-34.0,8.0,54.0,86.60656250000001,-47.13,30.846653812499998,33.81
2021-07-06 15:38:32.429687500,-34.0,8.0,54.0,86.60890625,-49.46,30.84453203125,33.81
2021-07-06 15:38:32.437500000,-34.0,8.0,54.0,86.61125,-51.79,30.84241025,33.81
2021-07-06 15:38:32.445312500,-34.0,8.0,54.0,86.61359375,-54.65,30.84028846875,33.81
2021-07-06 15:38:32.453125000,-34.0,8.0,54.0,86.6159375,-57.51,30.8381666875,33.81
2021-07-06 15:38:32.460937500,-34.0,8.0,54.0,86.61828125000001,-60.69,30.83604490625,33.81
2021-07-06 15:38:32.468750000,-34.0,8.0,54.0,86.620625,-63.87,30.833923125,33.81
2021-07-06 15:38:32.476562500,-34.0,8.25,54.0,86.62296875,-66.87,30.83180134375,33.81
2021-07-06 15:38:32.484375000,-34.0,8.5,54.0,86.6253125,-69.87,30.8296795625,33.81
2021-07-06 15:38:32.492187500,-34.0,8.75,54.0,86.62765625,-71.93,30.82755778125,33.81
2021-07-06 15:38:32.500000000,-34.0,9.0,54.0,86.63,-73.99,30.825436,33.81
2021-07-06 15:38:32.507812500,-34.0,9.0,54.0,86.63234375,-74.305,30.8256761875,33.81
2021-07-06 15:38:32.515625000,-34.0,9.0,54.0,86.6346875,-74.62,30.825916375,33.81
2021-07-06 15:38:32.523437500,-34.0,9.0,54.0,86.63703125,-72.61500000000001,30.8261565625,33.81
2021-07-06 15:38:32.531250000,-34.0,9.0,54.0,86.639375,-70.61,30.82639675,33.81
2021-07-06 15:38:32.539062500,-34.0,9.0,54.0,86.64171875,-66.145,30.8266369375,33.81
2021-07-06 15:38:32.546875000,-34.0,9.0,54.0,86.6440625,-61.68,30.826877125,33.81
2021-07-06 15:38:32.554687500,-34.0,9.0,54.0,86.64640625,-55.17,30.8271173125,33.81
2021-07-06 15:38:32.562500000,-34.0,9.0,54.0,86.64875,-48.66,30.827357499999998,33.81
2021-07-06 15:38:32.570312500,-34.0,8.75,54.0,86.65109375,-40.974999999999994,30.8275976875,33.81
2021-07-06 15:38:32.578125000,-34.0,8.5,54.0,86.6534375,-33.29,30.827837875,33.81
2021-07-06 15:38:32.585937500,-34.0,8.25,54.0,86.65578125,-25.439999999999998,30.8280780625,33.81
2021-07-06 15:38:32.593750000,-34.0,8.0,54.0,86.658125,-17.59,30.82831825,33.81
2021-07-06 15:38:32.601562500,-34.0,8.0,54.0,86.66046875,-10.445,30.8285584375,33.81
2021-07-06 15:38:32.609375000,-34.0,8.0,54.0,86.6628125,-3.3,30.828798625,33.81
2021-07-06 15:38:32.617187500,-34.0,8.0,54.0,86.66515625,2.62,30.8290388125,33.81
2021-07-06 15:38:32.625000000,-34.0,8.0,54.0,86.6675,8.54,30.829279,33.81
2021-07-06 15:38:32.632812500,-34.0,8.25,54.0,86.66984375,13.09,30.8295191875,33.81
2021-07-06 15:38:32.640625000,-34.0,8.5,54.0,86.6721875,17.64,30.829759375,33.81
2021-07-06 15:38:32.648437500,-34.0,8.75,54.0,86.67453125,20.935000000000002,30.8299995625,33.81
2021-07-06 15:38:32.656250000,-34.0,9.0,54.0,86.676875,24.23,30.83023975,33.81
2021-07-06 15:38:32.664062500,-34.0,8.75,54.0,86.67921875,26.439999999999998,30.830479937499998,33.81
2021-07-06 15:38:32.671875000,-34.0,8.5,54.0,86.6815625,28.65,30.830720125,33.81
2021-07-06 15:38:32.679687500,-34.0,8.25,54.0,86.68390625,29.945,30.8309603125,33.81
2021-07-06 15:38:32.687500000,-34.0,8.0,54.0,86.68625,31.24,30.8312005,33.81
2021-07-06 15:38:32.695312500,-34.0,8.0,54.0,86.68859375,31.740000000000002,30.8314406875,33.81
2021-07-06 15:38:32.703125000,-34.0,8.0,54.0,86.6909375,32.24,30.831680875,33.81
2021-07-06 15:38:32.710937500,-34.0,8.0,54.0,86.69328125,32.085,30.8319210625,33.81
2021-07-06 15:38:32.718750000,-34.0,8.0,54.0,86.695625,31.93,30.83216125,33.81
2021-07-06 15:38:32.726562500,-34.0,8.25,54.0,86.69796875,31.32,30.8324014375,33.81
2021-07-06 15:38:32.734375000,-34.0,8.5,54.0,86.7003125,30.71,30.832641625,33.81
2021-07-06 15:38:32.742187500,-34.0,8.75,54.0,86.70265625,29.86,30.8328818125,33.81
2021-07-06 15:38:32.750000000,-34.0,9.0,54.0,86.705,29.01,30.833122,33.81
2021-07-06 15:38:32.757812500,-34.0,9.0,54.0,86.70734375,28.145000000000003,30.83124034375,33.81
2021-07-06 15:38:32.765625000,-34.0,9.0,54.0,86.7096875,27.28,30.8293586875,33.81
2021-07-06 15:38:32.773437500,-34.0,9.0,54.0,86.71203125,26.54,30.827477031249998,33.81
2021-07-06 15:38:32.781250000,-34.0,9.0,54.0,86.714375,25.8,30.825595375,33.81
2021-07-06 15:38:32.789062500,-33.75,9.0,54.0,86.71671875,25.255000000000003,30.82371371875,33.81
2021-07-06 15:38:32.796875000,-33.5,9.0,54.0,86.7190625,24.71,30.8218320625,33.81
2021-07-06 15:38:32.804687500,-33.25,9.0,54.0,86.72140625,24.33,30.819950406249998,33.81
2021-07-06 15:38:32.812500000,-33.0,9.0,54.0,86.72375,23.95,30.81806875,33.81
2021-07-06 15:38:32.820312500,-33.25,9.0,54.0,86.72609375,23.665,30.81618709375,33.81
2021-07-06 15:38:32.828125000,-33.5,9.0,54.0,86.7284375,23.38,30.8143054375,33.81
2021-07-06 15:38:32.835937500,-33.75,9.0,54.0,86.73078125,23.119999999999997,30.81242378125,33.81
2021-07-06 15:38:32.843750000,-34.0,9.0,54.0,86.733125,22.86,30.810542124999998,33.81
2021-07-06 15:38:32.851562500,-34.0,9.0,54.0,86.73546875,22.59,30.80866046875,33.81
2021-07-06 15:38:32.859375000,-34.0,9.0,54.0,86.7378125,22.32,30.8067788125,33.81
2021-07-06 15:38:32.867187500,-34.0,9.0,54.0,86.74015625,22.060000000000002,30.80489715625,33.81
2021-07-06 15:38:32.875000000,-34.0,9.0,54.0,86.7425,21.8,30.8030155,33.81
2021-07-06 15:38:32.882812500,-33.75,9.0,54.0,86.74484375,21.615000000000002,30.801133843749998,33.81
2021-07-06 15:38:32.890625000,-33.5,9.0,54.0,86.7471875,21.43,30.7992521875,33.81
2021-07-06 15:38:32.898437500,-33.25,9.0,54.0,86.74953125,21.4,30.79737053125,33.81
2021-07-06 15:38:32.906250000,-33.0,9.0,54.0,86.751875,21.37,30.795488875,33.81
2021-07-06 15:38:32.914062500,-33.25,9.0,54.0,86.75421875,21.495,30.793607218749997,33.81
2021-07-06 15:38:32.921875000,-33.5,9.0,54.0,86.7565625,21.62,30.791725562499998,33.81
2021-07-06 15:38:32.929687500,-33.75,9.0,54.0,86.75890625,21.78,30.78984390625,33.81
2021-07-06 15:38:32.937500000,-34.0,9.0,54.0,86.76125,21.94,30.78796225,33.81
2021-07-06 15:38:32.945312500,-34.0,9.0,54.0,86.76359375,21.905,30.78608059375,33.81
2021-07-06 15:38:32.953125000,-34.0,9.0,54.0,86.7659375,21.87,30.784198937499998,33.81
2021-07-06 15:38:32.960937500,-34.0,9.0,54.0,86.76828125,21.405,30.78231728125,33.81
2021-07-06 15:38:32.968750000,-34.0,9.0,54.0,86.770625,20.94,30.780435625,33.81
2021-07-06 15:38:32.976562500,-34.0,8.75,54.0,86.77296875,19.875,30.77855396875,33.81
2021-07-06 15:38:32.984375000,-34.0,8.5,54.0,86.7753125,18.81,30.776672312499997,33.81
2021-07-06 15:38:32.992187500,-34.0,8.25,54.0,86.77765625,17.185,30.774790656249998,33.81
2021-07-06 15:38:33.000000000,-34.0,8.0,54.0,86.78,15.56,30.772909,33.81
2021-07-06 15:38:33.007812500,-33.75,8.25,54.0,86.78289062500001,13.585,30.77342946875,33.809375
2021-07-06 15:38:33.015625000,-33.5,8.5,54.0,86.78578125,11.61,30.7739499375,33.80875
2021-07-06 15:38:33.023437500,-33.25,8.75,54.0,86.788671875,9.575,30.77447040625,33.808125000000004
2021-07-06 15:38:33.031250000,-33.0,9.0,54.0,86.7915625,7.54,30.774990875,33.807500000000005
2021-07-06 15:38:33.039062500,-33.0,9.0,54.0,86.794453125,5.6850000000000005,30.775511343749997,33.806875000000005
2021-07-06 15:38:33.046875000,-33.0,9.0,54.0,86.79734375,3.83,30.776031812499998,33.80625
2021-07-06 15:38:33.054687500,-33.0,9.0,54.0,86.800234375,2.2199999999999998,30.776552281249998,33.805625
2021-07-06 15:38:33.062500000,-33.0,9.0,54.0,86.803125,0.61,30.77707275,33.805
2021-07-06 15:38:33.070312500,-33.0,8.75,54.0,86.806015625,-0.8549999999999999,30.77759321875,33.804375
2021-07-06 15:38:33.078125000,-33.0,8.5,54.0,86.80890625,-2.32,30.7781136875,33.80375
2021-07-06 15:38:33.085937500,-33.0,8.25,54.0,86.811796875,-3.885,30.77863415625,33.803125
2021-07-06 15:38:33.093750000,-33.0,8.0,54.0,86.8146875,-5.45,30.779154624999997,33.8025
2021-07-06 15:38:33.101562500,-33.25,8.25,54.0,86.817578125,-7.324999999999999,30.779675093749997,33.801875
2021-07-06 15:38:33.109375000,-33.5,8.5,54.0,86.82046875,-9.2,30.780195562499998,33.80125
2021-07-06 15:38:33.117187500,-33.75,8.75,54.0,86.823359375,-11.475,30.780716031249998,33.800625000000004
2021-07-06 15:38:33.125000000,-34.0,9.0,54.0,86.82625,-13.75,30.7812365,33.8
2021-07-06 15:38:33.132812500,-34.0,9.0,54.0,86.82914062500001,-16.345,30.78175696875,33.799375
2021-07-06 15:38:33.140625000,-34.0,9.0,54.0,86.83203125,-18.94,30.7822774375,33.79875
2021-07-06 15:38:33.148437500,-34.0,9.0,54.0,86.834921875,-21.6,30.78279790625,33.798125
2021-07-06 15:38:33.156250000,-34.0,9.0,54.0,86.8378125,-24.26,30.783318375,33.7975
2021-07-06 15:38:33.164062500,-34.0,8.75,54.0,86.840703125,-26.69,30.783838843749997,33.796875
2021-07-06 15:38:33.171875000,-34.0,8.5,54.0,86.84359375,-29.12,30.784359312499998,33.79625
2021-07-06 15:38:33.179687500,-34.0,8.25,54.0,86.846484375,-31.08,30.784879781249998,33.795625
2021-07-06 15:38:33.187500000,-34.0,8.0,54.0,86.84937500000001,-33.04,30.78540025,33.795
2021-07-06 15:38:33.195312500,-34.0,8.25,54.0,86.852265625,-34.445,30.78592071875,33.794375
2021-07-06 15:38:33.203125000,-34.0,8.5,54.0,86.85515625000001,-35.85,30.7864411875,33.79375
2021-07-06 15:38:33.210937500,-34.0,8.75,54.0,86.858046875,-36.815,30.78696165625,33.793124999999996
2021-07-06 15:38:33.218750000,-34.0,9.0,54.0,86.8609375,-37.78,30.787482124999997,33.7925
2021-07-06 15:38:33.226562500,-34.0,9.0,54.0,86.863828125,-38.58,30.788002593749997,33.791875
2021-07-06 15:38:33.234375000,-34.0,9.0,54.0,86.86671875,-39.38,30.788523062499998,33.79125
2021-07-06 15:38:33.242187500,-34.0,9.0,54.0,86.869609375,-40.39,30.789043531249998,33.790625
2021-07-06 15:38:33.250000000,-34.0,9.0,54.0,86.8725,-41.4,30.789564,33.79
2021-07-06 15:38:33.257812500,-34.0,9.0,54.0,86.87539062500001,-42.985,30.79008446875,33.79
2021-07-06 15:38:33.265625000,-34.0,9.0,54.0,86.87828125,-44.57,30.7906049375,33.79
2021-07-06 15:38:33.273437500,-34.0,9.0,54.0,86.881171875,-46.96,30.79112540625,33.79
2021-07-06 15:38:33.281250000,-34.0,9.0,54.0,86.8840625,-49.35,30.791645875,33.79
2021-07-06 15:38:33.289062500,-34.0,9.0,54.0,86.886953125,-52.5,30.792166343749997,33.79
2021-07-06 15:38:33.296875000,-34.0,9.0,54.0,86.88984375,-55.65,30.792686812499998,33.79
2021-07-06 15:38:33.304687500,-34.0,9.0,54.0,86.892734375,-59.175,30.793207281249998,33.79
2021-07-06 15:38:33.312500000,-34.0,9.0,54.0,86.895625,-62.7,30.79372775,33.79
2021-07-06 15:38:33.320312500,-34.0,9.0,54.0,86.898515625,-65.89500000000001,30.79424821875,33.79
2021-07-06 15:38:33.328125000,-34.0,9.0,54.0,86.90140625000001,-69.09,30.7947686875,33.79
2021-07-06 15:38:33.335937500,-34.0,9.0,54.0,86.904296875,-71.015,30.79528915625,33.79
2021-07-06 15:38:33.343750000,-34.0,9.0,54.0,86.9071875,-72.94,30.795809624999997,33.79
2021-07-06 15:38:33.351562500,-33.75,9.0,54.0,86.910078125,-72.71000000000001,30.796330093749997,33.79
2021-07-06 15:38:33.359375000,-33.5,9.0,54.0,86.91296875,-72.48,30.796850562499998,33.79
2021-07-06 15:38:33.367187500,-33.25,9.0,54.0,86.915859375,-69.565,30.797371031249998,33.79
2021-07-06 15:38:33.375000000,-33.0,9.0,54.0,86.91875,-66.65,30.7978915,33.79
2021-07-06 15:38:33.382812500,-33.0,9.0,54.0,86.92164062500001,-61.11,30.79841196875,33.79
2021-07-06 15:38:33.390625000,-33.0,9.0,54.0,86.92453125,-55.57,30.7989324375,33.79
2021-07-06 15:38:33.398437500,-33.0,9.0,54.0,86.92742187500001,-48.085,30.79945290625,33.79
2021-07-06 15:38:33.406250000,-33.0,9.0,54.0,86.9303125,-40.6,30.799973375,33.79
2021-07-06 15:38:33.414062500,-33.25,9.0,54.0,86.933203125,-32.275,30.800493843749997,33.79
2021-07-06 15:38:33.421875000,-33.5,9.0,54.0,86.93609375,-23.95,30.801014312499998,33.79
2021-07-06 15:38:33.429687500,-33.75,9.0,54.0,86.938984375,-15.955,30.801534781249998,33.79
2021-07-06 15:38:33.437500000,-34.0,9.0,54.0,86.94187500000001,-7.96,30.80205525,33.79
2021-07-06 15:38:33.445312500,-33.75,8.75,54.0,86.944765625,-1.1800000000000006,30.80257571875,33.79
2021-07-06 15:38:33.453125000,-33.5,8.5,54.0,86.94765625000001,5.6,30.8030961875,33.79
2021-07-06 15:38:33.460937500,-33.25,8.25,54.0,86.950546875,10.719999999999999,30.80361665625,33.79
2021-07-06 15:38:33.468750000,-33.0,8.0,54.0,86.9534375,15.84,30.804137124999997,33.79
2021-07-06 15:38:33.476562500,-33.25,8.25,54.0,86.956328125,19.32,30.804657593749997,33.79
2021-07-06 15:38:33.484375000,-33.5,8.5,54.0,86.95921875,22.8,30.805178062499998,33.79
2021-07-06 15:38:33.492187500,-33.75,8.75,54.0,86.962109375,24.89,30.80569853125,33.79
2021-07-06 15:38:33.500000000,-34.0,9.0,54.0,86.965,26.98,30.806219,33.79
2021-07-06 15:38:33.507812500,-34.0,9.0,54.0,86.96789062500001,27.985,30.806058843749998,33.79
2021-07-06 15:38:33.515625000,-34.0,9.0,54.0,86.97078125,28.99,30.805898687499997,33.79
2021-07-06 15:38:33.523437500,-34.0,9.0,54.0,86.97367187500001,29.115,30.80573853125,33.79
2021-07-06 15:38:33.531250000,-34.0,9.0,54.0,86.9765625,29.24,30.805578375,33.79
2021-07-06 15:38:33.539062500,-33.75,9.0,54.0,86.979453125,28.619999999999997,30.80541821875,33.79
2021-07-06 15:38:33.546875000,-33.5,9.0,54.0,86.98234375,28.0,30.8052580625,33.79
2021-07-06 15:38:33.554687500,-33.25,9.0,54.0,86.985234375,26.744999999999997,30.805097906249998,33.79
2021-07-06 15:38:33.562500000,-33.0,9.0,54.0,86.988125,25.49,30.80493775,33.79
2021-07-06 15:38:33.570312500,-33.0,9.0,54.0,86.991015625,23.805,30.80477759375,33.79
2021-07-06 15:38:33.578125000,-33.0,9.0,54.0,86.99390625000001,22.12,30.8046174375,33.79
2021-07-06 15:38:33.585937500,-33.0,9.0,54.0,86.996796875,20.275,30.80445728125,33.79
2021-07-06 15:38:33.593750000,-33.0,9.0,54.0,86.99968750000001,18.43,30.804297124999998,33.79
2021-07-06 15:38:33.601562500,-33.25,9.0,54.0,87.002578125,16.740000000000002,30.804136968749997,33.79
2021-07-06 15:38:33.609375000,-33.5,9.0,54.0,87.00546875,15.05,30.8039768125,33.79
2021-07-06 15:38:33.617187500,-33.75,9.0,54.0,87.008359375,13.74,30.80381665625,33.79
2021-07-06 15:38:33.625000000,-34.0,9.0,54.0,87.01125,12.43,30.8036565,33.79
2021-07-06 15:38:33.632812500,-34.0,9.0,54.0,87.01414062500001,11.6,30.80349634375,33.79
2021-07-06 15:38:33.640625000,-34.0,9.0,54.0,87.01703125,10.77,30.803336187499998,33.79
2021-07-06 15:38:33.648437500,-34.0,9.0,54.0,87.01992187500001,10.35,30.80317603125,33.79
2021-07-06 15:38:33.656250000,-34.0,9.0,54.0,87.0228125,9.93,30.803015875,33.79
2021-07-06 15:38:33.664062500,-34.0,8.75,54.0,87.025703125,9.754999999999999,30.80285571875,33.79
2021-07-06 15:38:33.671875000,-34.0,8.5,54.0,87.02859375,9.58,30.8026955625,33.79
2021-07-06 15:38:33.679687500,-34.0,8.25,54.0,87.031484375,9.48,30.802535406249998,33.79
2021-07-06 15:38:33.687500000,-34.0,8.0,54.0,87.03437500000001,9.38,30.802375249999997,33.79
2021-07-06 15:38:33.695312500,-33.75,8.25,54.0,87.037265625,9.235,30.80221509375,33.79
2021-07-06 15:38:33.703125000,-33.5,8.5,54.0,87.04015625000001,9.09,30.8020549375,33.79
2021-07-06 15:38:33.710937500,-33.25,8.75,54.0,87.043046875,8.9,30.80189478125,33.79
2021-07-06 15:38:33.718750000,-33.0,9.0,54.0,87.04593750000001,8.71,30.801734624999998,33.79
2021-07-06 15:38:33.726562500,-33.0,9.0,54.0,87.048828125,8.54,30.801574468749997,33.79
2021-07-06 15:38:33.734375000,-33.0,9.0,54.0,87.05171875,8.37,30.8014143125,33.79
2021-07-06 15:38:33.742187500,-33.0,9.0,54.0,87.054609375,8.3,30.80125415625,33.79
2021-07-06 15:38:33.750000000,-33.0,9.0,54.0,87.0575,8.23,30.801094,33.79
2021-07-06 15:38:33.757812500,-33.0,8.75,54.0,87.06039062500001,8.26,30.80169453125,33.79
2021-07-06 15:38:33.765625000,-33.0,8.5,54.0,87.06328125,8.29,30.8022950625,33.79
2021-07-06 15:38:33.773437500,-33.0,8.25,54.0,87.06617187500001,8.329999999999998,30.802895593749998,33.79
2021-07-06 15:38:33.781250000,-33.0,8.0,54.0,87.0690625,8.37,30.803496125,33.79
2021-07-06 15:38:33.789062500,-33.0,8.0,54.0,87.07195312500001,8.25,30.80409665625,33.79
2021-07-06 15:38:33.796875000,-33.0,8.0,54.0,87.07484375,8.13,30.8046971875,33.79
2021-07-06 15:38:33.804687500,-33.0,8.0,54.0,87.077734375,7.655,30.805297718749998,33.79
2021-07-06 15:38:33.812500000,-33.0,8.0,54.0,87.080625,7.18,30.80589825,33.79
2021-07-06 15:38:33.820312500,-33.0,8.25,54.0,87.083515625,6.21,30.80649878125,33.79
2021-07-06 15:38:33.828125000,-33.0,8.5,54.0,87.08640625000001,5.24,30.8070993125,33.79
2021-07-06 15:38:33.835937500,-33.0,8.75,54.0,87.089296875,3.7350000000000003,30.80769984375,33.79
2021-07-06 15:38:33.843750000,-33.0,9.0,54.0,87.09218750000001,2.23,30.808300374999998,33.79
2021-07-06 15:38:33.851562500,-33.0,9.0,54.0,87.095078125,0.2450000000000001,30.80890090625,33.79
2021-07-06 15:38:33.859375000,-33.0,9.0,54.0,87.09796875,-1.74,30.8095014375,33.79
2021-07-06 15:38:33.867187500,-33.0,9.0,54.0,87.100859375,-4.045,30.81010196875,33.79
2021-07-06 15:38:33.875000000,-33.0,9.0,54.0,87.10375,-6.35,30.810702499999998,33.79
2021-07-06 15:38:33.882812500,-33.0,9.0,54.0,87.10664062500001,-8.780000000000001,30.81130303125,33.79
2021-07-06 15:38:33.890625000,-33.0,9.0,54.0,87.10953125,-11.21,30.8119035625,33.79
2021-07-06 15:38:33.898437500,-33.0,9.0,54.0,87.11242187500001,-13.59,30.81250409375,33.79
2021-07-06 15:38:33.906250000,-33.0,9.0,54.0,87.1153125,-15.97,30.813104625,33.79
2021-07-06 15:38:33.914062500,-33.0,9.0,54.0,87.11820312500001,-18.155,30.81370515625,33.79
2021-07-06 15:38:33.921875000,-33.0,9.0,54.0,87.12109375,-20.34,30.8143056875,33.79
2021-07-06 15:38:33.929687500,-33.0,9.0,54.0,87.123984375,-22.259999999999998,30.81490621875,33.79
2021-07-06 15:38:33.937500000,-33.0,9.0,54.0,87.12687500000001,-24.18,30.81550675,33.79
2021-07-06 15:38:33.945312500,-33.0,9.0,54.0,87.129765625,-25.835,30.81610728125,33.79
2021-07-06 15:38:33.953125000,-33.0,9.0,54.0,87.13265625000001,-27.49,30.8167078125,33.79
2021-07-06 15:38:33.960937500,-33.0,9.0,54.0,87.135546875,-28.965,30.81730834375,33.79
2021-07-06 15:38:33.968750000,-33.0,9.0,54.0,87.13843750000001,-30.44,30.817908875,33.79
2021-07-06 15:38:33.976562500,-33.25,9.0,54.0,87.141328125,-31.875,30.81850940625,33.79
2021-07-06 15:38:33.984375000,-33.5,9.0,54.0,87.14421875000001,-33.31,30.8191099375,33.79
2021-07-06 15:38:33.992187500,-33.75,9.0,54.0,87.147109375,-34.905,30.81971046875,33.79
2021-07-06 15:38:34.000000000,-34.0,9.0,54.0,87.15,-36.5,30.820311,33.79
2021-07-06 15:38:34.007812500,-33.75,8.75,54.0,87.151953125,-38.45,30.81963040625,33.79
2021-07-06 15:38:34.015625000,-33.5,8.5,54.0,87.15390625,-40.4,30.8189498125,33.79
2021-07-06 15:38:34.023437500,-33.25,8.25,54.0,87.155859375,-42.8,30.81826921875,33.79
2021-07-06 15:38:34.031250000,-33.0,8.0,54.0,87.1578125,-45.2,30.817588625,33.79
2021-07-06 15:38:34.039062500,-33.0,8.25,54.0,87.159765625,-47.980000000000004,30.81690803125,33.79
2021-07-06 15:38:34.046875000,-33.0,8.5,54.0,87.16171875,-50.76,30.8162274375,33.79
2021-07-06 15:38:34.054687500,-33.0,8.75,54.0,87.163671875,-53.584999999999994,30.81554684375,33.79
2021-07-06 15:38:34.062500000,-33.0,9.0,54.0,87.165625,-56.41,30.81486625,33.79
2021-07-06 15:38:34.070312500,-33.0,8.75,54.0,87.167578125,-58.7,30.81418565625,33.79
2021-07-06 15:38:34.078125000,-33.0,8.5,54.0,87.16953125,-60.99,30.8135050625,33.79
2021-07-06 15:38:34.085937500,-33.0,8.25,54.0,87.171484375,-62.055,30.81282446875,33.79
2021-07-06 15:38:34.093750000,-33.0,8.0,54.0,87.1734375,-63.12,30.812143875,33.79
2021-07-06 15:38:34.101562500,-33.0,8.25,54.0,87.175390625,-62.375,30.81146328125,33.79
2021-07-06 15:38:34.109375000,-33.0,8.5,54.0,87.17734375,-61.63,30.8107826875,33.79
2021-07-06 15:38:34.117187500,-33.0,8.75,54.0,87.179296875,-58.8,30.81010209375,33.79
2021-07-06 15:38:34.125000000,-33.0,9.0,54.0,87.18125,-55.97,30.8094215,33.79
2021-07-06 15:38:34.132812500,-33.0,9.0,54.0,87.183203125,-51.195,30.80874090625,33.79
2021-07-06 15:38:34.140625000,-33.0,9.0,54.0,87.18515625,-46.42,30.8080603125,33.79
2021-07-06 15:38:34.148437500,-33.0,9.0,54.0,87.187109375,-40.24,30.807379718750003,33.79
2021-07-06 15:38:34.156250000,-33.0,9.0,54.0,87.1890625,-34.06,30.806699125,33.79
2021-07-06 15:38:34.164062500,-33.25,9.0,54.0,87.191015625,-27.21,30.80601853125,33.79
2021-07-06 15:38:34.171875000,-33.5,9.0,54.0,87.19296875,-20.36,30.805337937500003,33.79
2021-07-06 15:38:34.179687500,-33.75,9.0,54.0,87.194921875,-13.58,30.80465734375,33.79
2021-07-06 15:38:34.187500000,-34.0,9.0,54.0,87.196875,-6.8,30.80397675,33.79
2021-07-06 15:38:34.195312500,-34.0,9.0,54.0,87.198828125,-0.7000000000000002,30.803296156250003,33.79
2021-07-06 15:38:34.203125000,-34.0,9.0,54.0,87.20078125,5.4,30.8026155625,33.79
2021-07-06 15:38:34.210937500,-34.0,9.0,54.0,87.202734375,10.455,30.80193496875,33.79
2021-07-06 15:38:34.218750000,-34.0,9.0,54.0,87.2046875,15.51,30.801254375000003,33.79
2021-07-06 15:38:34.226562500,-33.75,9.0,54.0,87.206640625,19.355,30.80057378125,33.79
2021-07-06 15:38:34.234375000,-33.5,9.0,54.0,87.20859375,23.2,30.7998931875,33.79
2021-07-06 15:38:34.242187500,-33.25,9.0,54.0,87.210546875,25.785,30.799212593750003,33.79
2021-07-06 15:38:34.250000000,-33.0,9.0,54.0,87.2125,28.37,30.798532,33.79
2021-07-06 15:38:34.257812500,-33.0,9.0,54.0,87.214453125,29.755000000000003,30.79765125,33.79
2021-07-06 15:38:34.265625000,-33.0,9.0,54.0,87.21640625,31.14,30.7967705,33.79
2021-07-06 15:38:34.273437500,-33.0,9.0,54.0,87.218359375,31.47,30.79588975,33.79
2021-07-06 15:38:34.281250000,-33.0,9.0,54.0,87.2203125,31.8,30.795009,33.79
2021-07-06 15:38:34.289062500,-33.25,9.0,54.0,87.222265625,31.310000000000002,30.79412825,33.79
2021-07-06 15:38:34.296875000,-33.5,9.0,54.0,87.22421875,30.82,30.7932475,33.79
2021-07-06 15:38:34.304687500,-33.75,9.0,54.0,87.226171875,29.83,30.79236675,33.79
2021-07-06 15:38:34.312500000,-34.0,9.0,54.0,87.228125,28.84,30.791486,33.79
2021-07-06 15:38:34.320312500,-34.0,8.75,54.0,87.230078125,27.689999999999998,30.790605250000002,33.79
2021-07-06 15:38:34.328125000,-34.0,8.5,54.0,87.23203125,26.54,30.789724500000002,33.79
2021-07-06 15:38:34.335937500,-34.0,8.25,54.0,87.233984375,25.48,30.78884375,33.79
2021-07-06 15:38:34.343750000,-34.0,8.0,54.0,87.2359375,24.42,30.787963,33.79
2021-07-06 15:38:34.351562500,-33.75,8.25,54.0,87.237890625,23.58,30.78708225,33.79
2021-07-06 15:38:34.359375000,-33.5,8.5,54.0,87.23984375,22.74,30.7862015,33.79
2021-07-06 15:38:34.367187500,-33.25,8.75,54.0,87.241796875,22.1,30.78532075,33.79
2021-07-06 15:38:34.375000000,-33.0,9.0,54.0,87.24375,21.46,30.78444,33.79
2021-07-06 15:38:34.382812500,-33.25,9.0,54.0,87.245703125,20.925,30.78355925,33.79
2021-07-06 15:38:34.390625000,-33.5,9.0,54.0,87.24765625,20.39,30.7826785,33.79
2021-07-06 15:38:34.398437500,-33.75,9.0,54.0,87.249609375,19.85,30.78179775,33.79
2021-07-06 15:38:34.406250000,-34.0,9.0,54.0,87.2515625,19.31,30.780917,33.79
2021-07-06 15:38:34.414062500,-33.75,8.75,54.0,87.253515625,18.695,30.78003625,33.79
2021-07-06 15:38:34.421875000,-33.5,8.5,54.0,87.25546875,18.08,30.779155499999998,33.79
2021-07-06 15:38:34.429687500,-33.25,8.25,54.0,87.257421875,17.405,30.778274749999998,33.79
2021-07-06 15:38:34.437500000,-33.0,8.0,54.0,87.259375,16.73,30.777394,33.79
2021-07-06 15:38:34.445312500,-33.0,8.25,54.0,87.261328125,16.05,30.77651325,33.79
2021-07-06 15:38:34.453125000,-33.0,8.5,54.0,87.26328125,15.37,30.7756325,33.79
2021-07-06 15:38:34.460937500,-33.0,8.75,54.0,87.265234375,14.75,30.77475175,33.79
2021-07-06 15:38:34.468750000,-33.0,9.0,54.0,87.2671875,14.13,30.773871,33.79
2021-07-06 15:38:34.476562500,-33.25,9.0,54.0,87.269140625,13.615,30.77299025,33.79
2021-07-06 15:38:34.484375000,-33.5,9.0,54.0,87.27109375,13.1,30.7721095,33.79
2021-07-06 15:38:34.492187500,-33.75,9.0,54.0,87.273046875,12.665,30.77122875,33.79
2021-07-06 15:38:34.500000000,-34.0,9.0,54.0,87.275,12.23,30.770348,33.79
2021-07-06 15:38:34.507812500,-34.0,9.0,54.0,87.276953125,11.795,30.770628249999998,33.79
2021-07-06 15:38:34.515625000,-34.0,9.0,54.0,87.27890625,11.36,30.770908499999997,33.79
2021-07-06 15:38:34.523437500,-34.0,9.0,54.0,87.280859375,10.79,30.77118875,33.79
2021-07-06 15:38:34.531250000,-34.0,9.0,54.0,87.2828125,10.22,30.771469,33.79
2021-07-06 15:38:34.539062500,-34.0,9.0,54.0,87.284765625,9.370000000000001,30.77174925,33.79
2021-07-06 15:38:34.546875000,-34.0,9.0,54.0,87.28671875,8.52,30.7720295,33.79
2021-07-06 15:38:34.554687500,-34.0,9.0,54.0,87.288671875,7.25,30.772309749999998,33.79
2021-07-06 15:38:34.562500000,-34.0,9.0,54.0,87.290625,5.98,30.77259,33.79
2021-07-06 15:38:34.570312500,-33.75,8.75,54.0,87.292578125,4.24,30.77287025,33.79
2021-07-06 15:38:34.578125000,-33.5,8.5,54.0,87.29453125,2.5,30.7731505,33.79
2021-07-06 15:38:34.585937500,-33.25,8.25,54.0,87.296484375,0.34499999999999975,30.77343075,33.79
2021-07-06 15:38:34.593750000,-33.0,8.0,54.0,87.2984375,-1.81,30.773711,33.79
2021-07-06 15:38:34.601562500,-33.0,8.25,54.0,87.300390625,-4.210000000000001,30.773991249999998,33.79
2021-07-06 15:38:34.609375000,-33.0,8.5,54.0,87.30234375,-6.61,30.7742715,33.79
2021-07-06 15:38:34.617187500,-33.0,8.75,54.0,87.304296875,-9.03,30.77455175,33.79
2021-07-06 15:38:34.625000000,-33.0,9.0,54.0,87.30625,-11.45,30.774832,33.79
2021-07-06 15:38:34.632812500,-33.25,9.0,54.0,87.308203125,-13.7,30.77511225,33.79
2021-07-06 15:38:34.640625000,-33.5,9.0,54.0,87.31015625,-15.95,30.7753925,33.79
2021-07-06 15:38:34.648437500,-33.75,9.0,54.0,87.312109375,-17.945,30.775672750000002,33.79
2021-07-06 15:38:34.656250000,-34.0,9.0,54.0,87.3140625,-19.94,30.775953,33.79
2021-07-06 15:38:34.664062500,-34.0,8.75,54.0,87.316015625,-21.79,30.77623325,33.79
2021-07-06 15:38:34.671875000,-34.0,8.5,54.0,87.31796875,-23.64,30.7765135,33.79
2021-07-06 15:38:34.679687500,-34.0,8.25,54.0,87.319921875,-25.555,30.77679375,33.79
2021-07-06 15:38:34.687500000,-34.0,8.0,54.0,87.321875,-27.47,30.777074,33.79
2021-07-06 15:38:34.695312500,-34.0,8.25,54.0,87.323828125,-29.745,30.777354250000002,33.79
2021-07-06 15:38:34.703125000,-34.0,8.5,54.0,87.32578125,-32.02,30.7776345,33.79
2021-07-06 15:38:34.710937500,-34.0,8.75,54.0,87.327734375,-34.895,30.77791475,33.79
2021-07-06 15:38:34.718750000,-34.0,9.0,54.0,87.3296875,-37.77,30.778195,33.79
2021-07-06 15:38:34.726562500,-34.0,8.75,54.0,87.331640625,-41.295,30.77847525,33.79
2021-07-06 15:38:34.734375000,-34.0,8.5,54.0,87.33359375,-44.82,30.778755500000003,33.79
2021-07-06 15:38:34.742187500,-34.0,8.25,54.0,87.335546875,-48.78,30.779035750000002,33.79
2021-07-06 15:38:34.750000000,-34.0,8.0,54.0,87.3375,-52.74,30.779316,33.79
2021-07-06 15:38:34.757812500,-34.0,8.0,54.0,87.339453125,-56.64,30.77835515625,33.79
2021-07-06 15:38:34.765625000,-34.0,8.0,54.0,87.34140625,-60.54,30.7773943125,33.79
2021-07-06 15:38:34.773437500,-34.0,8.0,54.0,87.343359375,-63.635000000000005,30.77643346875,33.79
2021-07-06 15:38:34.781250000,-34.0,8.0,54.0,87.3453125,-66.73,30.775472625000003,33.79
2021-07-06 15:38:34.789062500,-34.0,8.25,54.0,87.347265625,-68.195,30.774511781250002,33.79
2021-07-06 15:38:34.796875000,-34.0,8.5,54.0,87.34921875,-69.66,30.7735509375,33.79
2021-07-06 15:38:34.804687500,-34.0,8.75,54.0,87.351171875,-68.85,30.77259009375,33.79
2021-07-06 15:38:34.812500000,-34.0,9.0,54.0,87.353125,-68.04,30.77162925,33.79
2021-07-06 15:38:34.820312500,-34.0,8.75,54.0,87.355078125,-64.71000000000001,30.77066840625,33.79
2021-07-06 15:38:34.828125000,-34.0,8.5,54.0,87.35703125,-61.38,30.769707562500002,33.79
2021-07-06 15:38:34.835937500,-34.0,8.25,54.0,87.358984375,-55.8,30.768746718750002,33.79
2021-07-06 15:38:34.843750000,-34.0,8.0,54.0,87.3609375,-50.22,30.767785875,33.79
2021-07-06 15:38:34.851562500,-34.0,8.0,54.0,87.362890625,-43.165,30.76682503125,33.79
2021-07-06 15:38:34.859375000,-34.0,8.0,54.0,87.36484375,-36.11,30.7658641875,33.79
2021-07-06 15:38:34.867187500,-34.0,8.0,54.0,87.366796875,-28.585,30.76490334375,33.79
2021-07-06 15:38:34.875000000,-34.0,8.0,54.0,87.36875,-21.06,30.7639425,33.79
2021-07-06 15:38:34.882812500,-34.0,8.25,54.0,87.370703125,-14.04,30.762981656250002,33.79
2021-07-06 15:38:34.890625000,-34.0,8.5,54.0,87.37265625,-7.02,30.7620208125,33.79
2021-07-06 15:38:34.898437500,-34.0,8.75,54.0,87.374609375,-1.1449999999999996,30.76105996875,33.79
2021-07-06 15:38:34.906250000,-34.0,9.0,54.0,87.3765625,4.73,30.760099125,33.79
2021-07-06 15:38:34.914062500,-34.0,8.75,54.0,87.378515625,9.205,30.75913828125,33.79
2021-07-06 15:38:34.921875000,-34.0,8.5,54.0,87.38046875,13.68,30.7581774375,33.79
2021-07-06 15:38:34.929687500,-34.0,8.25,54.0,87.382421875,16.855,30.75721659375,33.79
2021-07-06 15:38:34.937500000,-34.0,8.0,54.0,87.384375,20.03,30.75625575,33.79
2021-07-06 15:38:34.945312500,-34.0,8.0,54.0,87.386328125,22.16,30.75529490625,33.79
2021-07-06 15:38:34.953125000,-34.0,8.0,54.0,87.38828125,24.29,30.7543340625,33.79
2021-07-06 15:38:34.960937500,-34.0,8.0,54.0,87.390234375,25.6,30.75337321875,33.79
2021-07-06 15:38:34.968750000,-34.0,8.0,54.0,87.3921875,26.91,30.752412375,33.79
2021-07-06 15:38:34.976562500,-34.0,8.0,54.0,87.394140625,27.575,30.75145153125,33.79
2021-07-06 15:38:34.984375000,-34.0,8.0,54.0,87.39609375,28.24,30.7504906875,33.79
2021-07-06 15:38:34.992187500,-34.0,8.0,54.0,87.398046875,28.325,30.74952984375,33.79
2021-07-06 15:38:35.000000000,-34.0,8.0,54.0,87.4,28.41,30.748569,33.79
2021-07-06 15:38:35.007812500,-34.0,8.0,54.0,87.40289062500001,28.009999999999998,30.747568125,33.790625
2021-07-06 15:38:35.015625000,-34.0,8.0,54.0,87.40578125,27.61,30.74656725,33.79125
2021-07-06 15:38:35.023437500,-34.0,8.0,54.0,87.40867187500001,26.855,30.745566375,33.791875
2021-07-06 15:38:35.031250000,-34.0,8.0,54.0,87.4115625,26.1,30.7445655,33.7925
2021-07-06 15:38:35.039062500,-34.0,8.0,54.0,87.41445312500001,25.145000000000003,30.743564625,33.793124999999996
2021-07-06 15:38:35.046875000,-34.0,8.0,54.0,87.41734375,24.19,30.74256375,33.79375
2021-07-06 15:38:35.054687500,-34.0,8.0,54.0,87.420234375,23.19,30.741562875,33.794375
2021-07-06 15:38:35.062500000,-34.0,8.0,54.0,87.423125,22.19,30.740562,33.795
2021-07-06 15:38:35.070312500,-34.0,8.0,54.0,87.426015625,21.240000000000002,30.739561124999998,33.795625
2021-07-06 15:38:35.078125000,-34.0,8.0,54.0,87.42890625000001,20.29,30.73856025,33.79625
2021-07-06 15:38:35.085937500,-34.0,8.0,54.0,87.431796875,19.42,30.737559375,33.796875
2021-07-06 15:38:35.093750000,-34.0,8.0,54.0,87.43468750000001,18.55,30.7365585,33.7975
2021-07-06 15:38:35.101562500,-34.0,8.25,54.0,87.437578125,17.759999999999998,30.735557625,33.798125
2021-07-06 15:38:35.109375000,-34.0,8.5,54.0,87.44046875000001,16.97,30.73455675,33.79875
2021-07-06 15:38:35.117187500,-34.0,8.75,54.0,87.443359375,16.27,30.733555875,33.799375
2021-07-06 15:38:35.125000000,-34.0,9.0,54.0,87.44625,15.57,30.732554999999998,33.8
2021-07-06 15:38:35.132812500,-34.0,8.75,54.0,87.449140625,15.0,30.731554125,33.800625000000004
2021-07-06 15:38:35.140625000,-34.0,8.5,54.0,87.45203125,14.43,30.73055325,33.80125
2021-07-06 15:38:35.148437500,-34.0,8.25,54.0,87.45492187500001,14.05,30.729552375,33.801875
2021-07-06 15:38:35.156250000,-34.0,8.0,54.0,87.4578125,13.67,30.7285515,33.8025
2021-07-06 15:38:35.164062500,-34.0,8.0,54.0,87.46070312500001,13.485,30.727550625,33.803125
2021-07-06 15:38:35.171875000,-34.0,8.0,54.0,87.46359375,13.3,30.72654975,33.80375
2021-07-06 15:38:35.179687500,-34.0,8.0,54.0,87.46648437500001,13.21,30.725548875,33.804375
2021-07-06 15:38:35.187500000,-34.0,8.0,54.0,87.469375,13.12,30.724548,33.805
2021-07-06 15:38:35.195312500,-34.0,8.25,54.0,87.472265625,12.954999999999998,30.723547125,33.805625
2021-07-06 15:38:35.203125000,-34.0,8.5,54.0,87.47515625,12.79,30.72254625,33.80625
2021-07-06 15:38:35.210937500,-34.0,8.75,54.0,87.478046875,12.32,30.721545374999998,33.806875000000005
2021-07-06 15:38:35.218750000,-34.0,9.0,54.0,87.48093750000001,11.85,30.7205445,33.807500000000005
2021-07-06 15:38:35.226562500,-34.0,8.75,54.0,87.483828125,10.905000000000001,30.719543625,33.808125000000004
2021-07-06 15:38:35.234375000,-34.0,8.5,54.0,87.48671875000001,9.96,30.71854275,33.80875
2021-07-06 15:38:35.242187500,-34.0,8.25,54.0,87.489609375,8.475000000000001,30.717541875,33.809375
2021-07-06 15:38:35.250000000,-34.0,8.0,54.0,87.4925,6.99,30.716541,33.81
2021-07-06 15:38:35.257812500,-34.0,8.0,54.0,87.495390625,5.035,30.71682128125,33.81
2021-07-06 15:38:35.265625000,-34.0,8.0,54.0,87.49828125,3.08,30.717101562499998,33.81
2021-07-06 15:38:35.273437500,-34.0,8.0,54.0,87.501171875,0.8250000000000002,30.71738184375,33.81
2021-07-06 15:38:35.281250000,-34.0,8.0,54.0,87.5040625,-1.43,30.717662125,33.81
2021-07-06 15:38:35.289062500,-34.0,8.0,54.0,87.50695312500001,-3.7800000000000002,30.71794240625,33.81
2021-07-06 15:38:35.296875000,-34.0,8.0,54.0,87.50984375,-6.13,30.7182226875,33.81
2021-07-06 15:38:35.304687500,-34.0,8.0,54.0,87.51273437500001,-8.415,30.71850296875,33.81
2021-07-06 15:38:35.312500000,-34.0,8.0,54.0,87.515625,-10.7,30.71878325,33.81
2021-07-06 15:38:35.320312500,-34.0,8.0,54.0,87.518515625,-12.885,30.71906353125,33.81
2021-07-06 15:38:35.328125000,-34.0,8.0,54.0,87.52140625,-15.07,30.7193438125,33.81
2021-07-06 15:38:35.335937500,-34.0,8.0,54.0,87.524296875,-17.255000000000003,30.71962409375,33.81
2021-07-06 15:38:35.343750000,-34.0,8.0,54.0,87.5271875,-19.44,30.719904375,33.81
2021-07-06 15:38:35.351562500,-34.0,8.0,54.0,87.530078125,-21.87,30.720184656249998,33.81
2021-07-06 15:38:35.359375000,-34.0,8.0,54.0,87.53296875000001,-24.3,30.7204649375,33.81
2021-07-06 15:38:35.367187500,-34.0,8.0,54.0,87.535859375,-27.259999999999998,30.72074521875,33.81
2021-07-06 15:38:35.375000000,-34.0,8.0,54.0,87.53875000000001,-30.22,30.7210255,33.81
2021-07-06 15:38:35.382812500,-34.0,8.0,54.0,87.541640625,-33.905,30.72130578125,33.81
2021-07-06 15:38:35.390625000,-34.0,8.0,54.0,87.54453125,-37.59,30.7215860625,33.81
2021-07-06 15:38:35.398437500,-34.0,8.0,54.0,87.547421875,-41.905,30.72186634375,33.81
2021-07-06 15:38:35.406250000,-34.0,8.0,54.0,87.5503125,-46.22,30.722146625,33.81
2021-07-06 15:38:35.414062500,-34.25,8.0,54.0,87.553203125,-50.7,30.72242690625,33.81
2021-07-06 15:38:35.421875000,-34.5,8.0,54.0,87.55609375,-55.18,30.7227071875,33.81
2021-07-06 15:38:35.429687500,-34.75,8.0,54.0,87.55898437500001,-58.96,30.72298746875,33.81
2021-07-06 15:38:35.437500000,-35.0,8.0,54.0,87.561875,-62.74,30.723267749999998,33.81
2021-07-06 15:38:35.445312500,-34.75,8.0,54.0,87.564765625,-64.8,30.72354803125,33.81
2021-07-06 15:38:35.453125000,-34.5,8.0,54.0,87.56765625,-66.86,30.7238283125,33.81
2021-07-06 15:38:35.460937500,-34.25,8.0,54.0,87.570546875,-66.35499999999999,30.72410859375,33.81
2021-07-06 15:38:35.468750000,-34.0,8.0,54.0,87.5734375,-65.85,30.724388875,33.81
2021-07-06 15:38:35.476562500,-34.0,8.0,54.0,87.576328125,-62.435,30.72466915625,33.81
2021-07-06 15:38:35.484375000,-34.0,8.0,54.0,87.57921875,-59.02,30.7249494375,33.81
2021-07-06 15:38:35.492187500,-34.0,8.0,54.0,87.582109375,-53.010000000000005,30.72522971875,33.81
2021-07-06 15:38:35.500000000,-34.0,8.0,54.0,87.58500000000001,-47.0,30.72551,33.81
2021-07-06 15:38:35.507812500,-34.0,8.25,54.0,87.587890625,-39.285,30.72462921875,33.81
2021-07-06 15:38:35.515625000,-34.0,8.5,54.0,87.59078125,-31.57,30.7237484375,33.81
2021-07-06 15:38:35.523437500,-34.0,8.75,54.0,87.593671875,-23.34,30.72286765625,33.81
2021-07-06 15:38:35.531250000,-34.0,9.0,54.0,87.5965625,-15.11,30.721986875,33.81
2021-07-06 15:38:35.539062500,-34.0,8.75,54.0,87.599453125,-7.455,30.72110609375,33.81
2021-07-06 15:38:35.546875000,-34.0,8.5,54.0,87.60234375,0.2,30.7202253125,33.81
2021-07-06 15:38:35.554687500,-34.0,8.25,54.0,87.605234375,6.545000000000001,30.719344531249998,33.81
2021-07-06 15:38:35.562500000,-34.0,8.0,54.0,87.608125,12.89,30.718463749999998,33.81
2021-07-06 15:38:35.570312500,-34.0,8.0,54.0,87.611015625,17.65,30.71758296875,33.81
2021-07-06 15:38:35.578125000,-34.0,8.0,54.0,87.61390625,22.41,30.7167021875,33.81
2021-07-06 15:38:35.585937500,-34.0,8.0,54.0,87.616796875,25.665,30.71582140625,33.81
2021-07-06 15:38:35.593750000,-34.0,8.0,54.0,87.6196875,28.92,30.714940625,33.81
2021-07-06 15:38:35.601562500,-34.0,8.0,54.0,87.622578125,30.905,30.71405984375,33.81
2021-07-06 15:38:35.609375000,-34.0,8.0,54.0,87.62546875,32.89,30.7131790625,33.81
2021-07-06 15:38:35.617187500,-34.0,8.0,54.0,87.628359375,33.84,30.71229828125,33.81
2021-07-06 15:38:35.625000000,-34.0,8.0,54.0,87.63125,34.79,30.7114175,33.81
2021-07-06 15:38:35.632812500,-34.0,8.0,54.0,87.634140625,34.870000000000005,30.71053671875,33.81
2021-07-06 15:38:35.640625000,-34.0,8.0,54.0,87.63703124999999,34.95,30.7096559375,33.81
2021-07-06 15:38:35.648437500,-34.0,8.0,54.0,87.639921875,34.265,30.70877515625,33.81
2021-07-06 15:38:35.656250000,-34.0,8.0,54.0,87.6428125,33.58,30.707894375,33.81
2021-07-06 15:38:35.664062500,-34.0,8.0,54.0,87.645703125,32.275,30.70701359375,33.81
2021-07-06 15:38:35.671875000,-34.0,8.0,54.0,87.64859375,30.97,30.706132812499998,33.81
2021-07-06 15:38:35.679687500,-34.0,8.0,54.0,87.651484375,29.25,30.705252031249998,33.81
2021-07-06 15:38:35.687500000,-34.0,8.0,54.0,87.654375,27.53,30.70437125,33.81
2021-07-06 15:38:35.695312500,-34.0,8.0,54.0,87.657265625,25.68,30.70349046875,33.81
2021-07-06 15:38:35.703125000,-34.0,8.0,54.0,87.66015625,23.83,30.7026096875,33.81
2021-07-06 15:38:35.710937500,-34.0,8.0,54.0,87.66304687499999,22.125,30.70172890625,33.81
2021-07-06 15:38:35.718750000,-34.0,8.0,54.0,87.6659375,20.42,30.700848125,33.81
2021-07-06 15:38:35.726562500,-34.25,8.0,54.0,87.668828125,19.08,30.69996734375,33.81
2021-07-06 15:38:35.734375000,-34.5,8.0,54.0,87.67171875,17.74,30.6990865625,33.81
2021-07-06 15:38:35.742187500,-34.75,8.0,54.0,87.674609375,16.855,30.69820578125,33.81
2021-07-06 15:38:35.750000000,-35.0,8.0,54.0,87.6775,15.97,30.697325,33.81
2021-07-06 15:38:35.757812500,-34.75,8.0,54.0,87.680390625,15.495000000000001,30.69760525,33.81
2021-07-06 15:38:35.765625000,-34.5,8.0,54.0,87.68328125,15.02,30.697885499999998,33.81
2021-07-06 15:38:35.773437500,-34.25,8.0,54.0,87.686171875,14.8,30.698165749999998,33.81
2021-07-06 15:38:35.781250000,-34.0,8.0,54.0,87.68906249999999,14.58,30.698446,33.81
2021-07-06 15:38:35.789062500,-34.0,8.0,54.0,87.691953125,14.415,30.69872625,33.81
2021-07-06 15:38:35.796875000,-34.0,8.0,54.0,87.69484375,14.25,30.6990065,33.81
2021-07-06 15:38:35.804687500,-34.0,8.0,54.0,87.697734375,13.965,30.69928675,33.81
2021-07-06 15:38:35.812500000,-34.0,8.0,54.0,87.700625,13.68,30.699567,33.81
2021-07-06 15:38:35.820312500,-34.0,8.0,54.0,87.703515625,13.175,30.699847249999998,33.81
2021-07-06 15:38:35.828125000,-34.0,8.0,54.0,87.70640625,12.67,30.7001275,33.81
2021-07-06 15:38:35.835937500,-34.0,8.0,54.0,87.70929687499999,11.895,30.70040775,33.81
2021-07-06 15:38:35.843750000,-34.0,8.0,54.0,87.7121875,11.12,30.700688,33.81
2021-07-06 15:38:35.851562500,-34.0,8.0,54.0,87.71507812499999,10.075,30.70096825,33.81
2021-07-06 15:38:35.859375000,-34.0,8.0,54.0,87.71796875,9.03,30.7012485,33.81
2021-07-06 15:38:35.867187500,-34.0,8.0,54.0,87.720859375,7.7749999999999995,30.701528749999998,33.81
2021-07-06 15:38:35.875000000,-34.0,8.0,54.0,87.72375,6.52,30.701808999999997,33.81
2021-07-06 15:38:35.882812500,-34.0,8.0,54.0,87.726640625,5.08,30.70208925,33.81
2021-07-06 15:38:35.890625000,-34.0,8.0,54.0,87.72953125,3.64,30.7023695,33.81
2021-07-06 15:38:35.898437500,-34.0,8.0,54.0,87.732421875,2.085,30.70264975,33.81
2021-07-06 15:38:35.906250000,-34.0,8.0,54.0,87.73531249999999,0.53,30.70293,33.81
2021-07-06 15:38:35.914062500,-34.0,8.0,54.0,87.738203125,-1.0999999999999999,30.703210249999998,33.81
2021-07-06 15:38:35.921875000,-34.0,8.0,54.0,87.74109374999999,-2.73,30.703490499999997,33.81
2021-07-06 15:38:35.929687500,-34.0,8.0,54.0,87.743984375,-4.425,30.70377075,33.81
2021-07-06 15:38:35.937500000,-34.0,8.0,54.0,87.746875,-6.12,30.704051,33.81
2021-07-06 15:38:35.945312500,-34.0,8.0,54.0,87.749765625,-7.92,30.70433125,33.81
2021-07-06 15:38:35.953125000,-34.0,8.0,54.0,87.75265625,-9.72,30.7046115,33.81
2021-07-06 15:38:35.960937500,-34.0,8.0,54.0,87.755546875,-11.775,30.704891749999998,33.81
2021-07-06 15:38:35.968750000,-34.0,8.0,54.0,87.7584375,-13.83,30.705171999999997,33.81
2021-07-06 15:38:35.976562500,-34.0,8.0,54.0,87.76132812499999,-16.37,30.70545225,33.81
2021-07-06 15:38:35.984375000,-34.0,8.0,54.0,87.76421875,-18.91,30.7057325,33.81
2021-07-06 15:38:35.992187500,-34.0,8.0,54.0,87.76710937499999,-22.165,30.70601275,33.81
2021-07-06 15:38:36.000000000,-34.0,8.0,54.0,87.77,-25.42,30.706293,33.81
2021-07-06 15:38:36.007812500,-34.0,8.0,54.0,87.7728125,-29.465,30.707133718749997,33.809375
2021-07-06 15:38:36.015625000,-34.0,8.0,54.0,87.77562499999999,-33.51,30.7079744375,33.80875
2021-07-06 15:38:36.023437500,-34.0,8.0,54.0,87.7784375,-38.12,30.708815156249997,33.808125000000004
2021-07-06 15:38:36.031250000,-34.0,8.0,54.0,87.78125,-42.73,30.709655875,33.807500000000005
2021-07-06 15:38:36.039062500,-34.0,8.0,54.0,87.78406249999999,-47.29,30.710496593749998,33.806875000000005
2021-07-06 15:38:36.046875000,-34.0,8.0,54.0,87.786875,-51.85,30.7113373125,33.80625
2021-07-06 15:38:36.054687500,-34.0,8.0,54.0,87.7896875,-55.435,30.712178031249998,33.805625
2021-07-06 15:38:36.062500000,-34.0,8.0,54.0,87.79249999999999,-59.02,30.71301875,33.805
2021-07-06 15:38:36.070312500,-34.0,8.0,54.0,87.7953125,-60.675,30.713859468749998,33.804375
2021-07-06 15:38:36.078125000,-34.0,8.0,54.0,87.798125,-62.33,30.7147001875,33.80375
2021-07-06 15:38:36.085937500,-34.0,8.0,54.0,87.80093749999999,-61.375,30.71554090625,33.803125
2021-07-06 15:38:36.093750000,-34.0,8.0,54.0,87.80375,-60.42,30.716381625,33.8025
2021-07-06 15:38:36.101562500,-34.0,8.25,54.0,87.8065625,-56.7,30.71722234375,33.801875
2021-07-06 15:38:36.109375000,-34.0,8.5,54.0,87.809375,-52.98,30.7180630625,33.80125
2021-07-06 15:38:36.117187500,-34.0,8.75,54.0,87.8121875,-46.959999999999994,30.71890378125,33.800625000000004
2021-07-06 15:38:36.125000000,-34.0,9.0,54.0,87.815,-40.94,30.719744499999997,33.8
2021-07-06 15:38:36.132812500,-34.0,9.0,54.0,87.8178125,-33.489999999999995,30.72058521875,33.799375
2021-07-06 15:38:36.140625000,-34.0,9.0,54.0,87.82062499999999,-26.04,30.721425937499998,33.79875
2021-07-06 15:38:36.148437500,-34.0,9.0,54.0,87.8234375,-18.205,30.72226665625,33.798125
2021-07-06 15:38:36.156250000,-34.0,9.0,54.0,87.82625,-10.37,30.723107374999998,33.7975
2021-07-06 15:38:36.164062500,-34.0,9.0,54.0,87.82906249999999,-3.0649999999999995,30.72394809375,33.796875
2021-07-06 15:38:36.171875000,-34.0,9.0,54.0,87.831875,4.24,30.724788812499998,33.79625
2021-07-06 15:38:36.179687500,-34.0,9.0,54.0,87.8346875,10.420000000000002,30.72562953125,33.795625
2021-07-06 15:38:36.187500000,-34.0,9.0,54.0,87.83749999999999,16.6,30.72647025,33.795
2021-07-06 15:38:36.195312500,-34.0,8.75,54.0,87.8403125,21.41,30.72731096875,33.794375
2021-07-06 15:38:36.203125000,-34.0,8.5,54.0,87.843125,26.22,30.7281516875,33.79375
2021-07-06 15:38:36.210937500,-34.0,8.25,54.0,87.84593749999999,29.63,30.72899240625,33.793124999999996
2021-07-06 15:38:36.218750000,-34.0,8.0,54.0,87.84875,33.04,30.729833125,33.7925
2021-07-06 15:38:36.226562500,-34.0,8.0,54.0,87.8515625,35.155,30.73067384375,33.791875
2021-07-06 15:38:36.234375000,-34.0,8.0,54.0,87.85437499999999,37.27,30.7315145625,33.79125
2021-07-06 15:38:36.242187500,-34.0,8.0,54.0,87.8571875,38.165000000000006,30.73235528125,33.790625
2021-07-06 15:38:36.250000000,-34.0,8.0,54.0,87.86,39.06,30.733196,33.79
2021-07-06 15:38:36.257812500,-34.0,8.0,54.0,87.86281249999999,38.83,30.73315596875,33.79
2021-07-06 15:38:36.265625000,-34.0,8.0,54.0,87.865625,38.6,30.7331159375,33.79
2021-07-06 15:38:36.273437500,-34.0,8.0,54.0,87.8684375,37.370000000000005,30.73307590625,33.79
2021-07-06 15:38:36.281250000,-34.0,8.0,54.0,87.87124999999999,36.14,30.733035875,33.79
2021-07-06 15:38:36.289062500,-34.0,8.0,54.0,87.8740625,34.14,30.73299584375,33.79
2021-07-06 15:38:36.296875000,-34.0,8.0,54.0,87.876875,32.14,30.7329558125,33.79
2021-07-06 15:38:36.304687500,-34.0,8.0,54.0,87.8796875,29.72,30.73291578125,33.79
2021-07-06 15:38:36.312500000,-34.0,8.0,54.0,87.8825,27.3,30.732875749999998,33.79
2021-07-06 15:38:36.320312500,-34.0,8.0,54.0,87.8853125,24.875,30.73283571875,33.79
2021-07-06 15:38:36.328125000,-34.0,8.0,54.0,87.888125,22.45,30.7327956875,33.79
2021-07-06 15:38:36.335937500,-34.0,8.0,54.0,87.89093749999999,20.39,30.73275565625,33.79
2021-07-06 15:38:36.343750000,-34.0,8.0,54.0,87.89375,18.33,30.732715625,33.79
2021-07-06 15:38:36.351562500,-34.0,8.0,54.0,87.8965625,16.849999999999998,30.73267559375,33.79
2021-07-06 15:38:36.359375000,-34.0,8.0,54.0,87.89937499999999,15.37,30.7326355625,33.79
2021-07-06 15:38:36.367187500,-34.0,8.0,54.0,87.9021875,14.475,30.73259553125,33.79
2021-07-06 15:38:36.375000000,-34.0,8.0,54.0,87.905,13.58,30.7325555,33.79
2021-07-06 15:38:36.382812500,-34.0,8.0,54.0,87.90781249999999,13.07,30.73251546875,33.79
2021-07-06 15:38:36.390625000,-34.0,8.0,54.0,87.910625,12.56,30.7324754375,33.79
2021-07-06 15:38:36.398437500,-34.0,8.0,54.0,87.9134375,12.15,30.73243540625,33.79
2021-07-06 15:38:36.406250000,-34.0,8.0,54.0,87.91624999999999,11.74,30.732395375,33.79
2021-07-06 15:38:36.414062500,-34.0,8.0,54.0,87.9190625,11.205,30.73235534375,33.79
2021-07-06 15:38:36.421875000,-34.0,8.0,54.0,87.921875,10.67,30.7323153125,33.79
2021-07-06 15:38:36.429687500,-34.0,8.0,54.0,87.92468749999999,9.934999999999999,30.73227528125,33.79
2021-07-06 15:38:36.437500000,-34.0,8.0,54.0,87.9275,9.2,30.732235250000002,33.79
2021-07-06 15:38:36.445312500,-34.0,8.0,54.0,87.9303125,8.344999999999999,30.73219521875,33.79
2021-07-06 15:38:36.453125000,-34.0,8.0,54.0,87.93312499999999,7.49,30.732155187500002,33.79
2021-07-06 15:38:36.460937500,-34.0,8.0,54.0,87.9359375,6.67,30.73211515625,33.79
2021-07-06 15:38:36.468750000,-34.0,8.0,54.0,87.93875,5.85,30.732075125,33.79
2021-07-06 15:38:36.476562500,-34.0,8.0,54.0,87.94156249999999,5.1899999999999995,30.73203509375,33.79
2021-07-06 15:38:36.484375000,-34.0,8.0,54.0,87.944375,4.53,30.7319950625,33.79
2021-07-06 15:38:36.492187500,-34.0,8.0,54.0,87.9471875,4.01,30.73195503125,33.79
2021-07-06 15:38:36.500000000,-34.0,8.0,54.0,87.94999999999999,3.49,30.731915,33.79
2021-07-06 15:38:36.507812500,-34.0,8.25,54.0,87.9528125,2.935,30.7311543125,33.79
2021-07-06 15:38:36.515625000,-34.0,8.5,54.0,87.955625,2.38,30.730393625,33.79
2021-07-06 15:38:36.523437500,-34.0,8.75,54.0,87.9584375,1.505,30.7296329375,33.79
2021-07-06 15:38:36.531250000,-34.0,9.0,54.0,87.96124999999999,0.63,30.728872250000002,33.79
2021-07-06 15:38:36.539062500,-34.0,9.0,54.0,87.9640625,-0.86,30.7281115625,33.79
2021-07-06 15:38:36.546875000,-34.0,9.0,54.0,87.966875,-2.35,30.727350875,33.79
2021-07-06 15:38:36.554687500,-34.0,9.0,54.0,87.96968749999999,-4.695,30.7265901875,33.79
2021-07-06 15:38:36.562500000,-34.0,9.0,54.0,87.9725,-7.04,30.7258295,33.79
2021-07-06 15:38:36.570312500,-34.0,8.75,54.0,87.9753125,-10.33,30.7250688125,33.79
2021-07-06 15:38:36.578125000,-34.0,8.5,54.0,87.97812499999999,-13.62,30.724308125,33.79
2021-07-06 15:38:36.585937500,-34.0,8.25,54.0,87.9809375,-17.785,30.7235474375,33.79
2021-07-06 15:38:36.593750000,-34.0,8.0,54.0,87.98375,-21.95,30.72278675,33.79
2021-07-06 15:38:36.601562500,-34.0,8.0,54.0,87.98656249999999,-26.674999999999997,30.7220260625,33.79
2021-07-06 15:38:36.609375000,-34.0,8.0,54.0,87.989375,-31.4,30.721265375,33.79
2021-07-06 15:38:36.617187500,-34.0,8.0,54.0,87.9921875,-36.17,30.7205046875,33.79
2021-07-06 15:38:36.625000000,-34.0,8.0,54.0,87.99499999999999,-40.94,30.719744,33.79
2021-07-06 15:38:36.632812500,-34.0,8.25,54.0,87.9978125,-45.03,30.7189833125,33.79
2021-07-06 15:38:36.640625000,-34.0,8.5,54.0,88.000625,-49.12,30.718222625,33.79
2021-07-06 15:38:36.648437500,-34.0,8.75,54.0,88.00343749999999,-51.705,30.7174619375,33.79
2021-07-06 15:38:36.656250000,-34.0,9.0,54.0,88.00625,-54.29,30.71670125,33.79
2021-07-06 15:38:36.664062500,-34.0,9.0,54.0,88.0090625,-54.69,30.715940562500002,33.79
2021-07-06 15:38:36.671875000,-34.0,9.0,54.0,88.01187499999999,-55.09,30.715179875,33.79
2021-07-06 15:38:36.679687500,-34.0,9.0,54.0,88.0146875,-52.95,30.7144191875,33.79
2021-07-06 15:38:36.687500000,-34.0,9.0,54.0,88.0175,-50.81,30.7136585,33.79
2021-07-06 15:38:36.695312500,-34.0,9.0,54.0,88.02031249999999,-46.285,30.7128978125,33.79
2021-07-06 15:38:36.703125000,-34.0,9.0,54.0,88.023125,-41.76,30.712137125,33.79
2021-07-06 15:38:36.710937500,-34.0,9.0,54.0,88.0259375,-35.48,30.7113764375,33.79
2021-07-06 15:38:36.718750000,-34.0,9.0,54.0,88.02875,-29.2,30.71061575,33.79
2021-07-06 15:38:36.726562500,-33.75,8.75,54.0,88.03156249999999,-22.085,30.7098550625,33.79
2021-07-06 15:38:36.734375000,-33.5,8.5,54.0,88.034375,-14.97,30.709094375,33.79
2021-07-06 15:38:36.742187500,-33.25,8.25,54.0,88.0371875,-7.970000000000001,30.7083336875,33.79
2021-07-06 15:38:36.750000000,-33.0,8.0,54.0,88.03999999999999,-0.97,30.707573,33.79
2021-07-06 15:38:36.757812500,-33.25,8.25,54.0,88.0428125,5.15,30.7074929375,33.79
2021-07-06 15:38:36.765625000,-33.5,8.5,54.0,88.045625,11.27,30.707412875,33.79
2021-07-06 15:38:36.773437500,-33.75,8.75,54.0,88.04843749999999,16.09,30.7073328125,33.79
2021-07-06 15:38:36.781250000,-34.0,9.0,54.0,88.05125,20.91,30.70725275,33.79
2021-07-06 15:38:36.789062500,-34.0,8.75,54.0,88.0540625,24.275,30.707172687499998,33.79
2021-07-06 15:38:36.796875000,-34.0,8.5,54.0,88.05687499999999,27.64,30.707092625,33.79
2021-07-06 15:38:36.804687500,-34.0,8.25,54.0,88.0596875,29.560000000000002,30.7070125625,33.79
2021-07-06 15:38:36.812500000,-34.0,8.0,54.0,88.0625,31.48,30.7069325,33.79
2021-07-06 15:38:36.820312500,-34.0,8.25,54.0,88.06531249999999,32.04,30.7068524375,33.79
2021-07-06 15:38:36.828125000,-34.0,8.5,54.0,88.068125,32.6,30.706772375,33.79
2021-07-06 15:38:36.835937500,-34.0,8.75,54.0,88.0709375,31.92,30.7066923125,33.79
2021-07-06 15:38:36.843750000,-34.0,9.0,54.0,88.07374999999999,31.24,30.70661225,33.79
2021-07-06 15:38:36.851562500,-34.0,9.0,54.0,88.0765625,29.53,30.7065321875,33.79
2021-07-06 15:38:36.859375000,-34.0,9.0,54.0,88.079375,27.82,30.706452125,33.79
2021-07-06 15:38:36.867187500,-34.0,9.0,54.0,88.08218749999999,25.384999999999998,30.706372062499998,33.79
2021-07-06 15:38:36.875000000,-34.0,9.0,54.0,88.085,22.95,30.706291999999998,33.79
2021-07-06 15:38:36.882812500,-34.0,9.0,54.0,88.0878125,20.195,30.7062119375,33.79
2021-07-06 15:38:36.890625000,-34.0,9.0,54.0,88.09062499999999,17.44,30.706131875,33.79
2021-07-06 15:38:36.898437500,-34.0,9.0,54.0,88.0934375,14.77,30.7060518125,33.79
2021-07-06 15:38:36.906250000,-34.0,9.0,54.0,88.09625,12.1,30.70597175,33.79
2021-07-06 15:38:36.914062500,-34.0,9.0,54.0,88.0990625,9.815,30.7058916875,33.79
2021-07-06 15:38:36.921875000,-34.0,9.0,54.0,88.10187499999999,7.53,30.705811625,33.79
2021-07-06 15:38:36.929687500,-34.0,9.0,54.0,88.1046875,5.755,30.7057315625,33.79
2021-07-06 15:38:36.937500000,-34.0,9.0,54.0,88.1075,3.98,30.7056515,33.79
2021-07-06 15:38:36.945312500,-34.0,8.75,54.0,88.11031249999999,2.675,30.705571437499998,33.79
2021-07-06 15:38:36.953125000,-34.0,8.5,54.0,88.113125,1.37,30.705491374999998,33.79
2021-07-06 15:38:36.960937500,-34.0,8.25,54.0,88.1159375,0.3800000000000001,30.7054113125,33.79
2021-07-06 15:38:36.968750000,-34.0,8.0,54.0,88.11874999999999,-0.61,30.70533125,33.79
2021-07-06 15:38:36.976562500,-33.75,8.25,54.0,88.1215625,-1.46,30.7052511875,33.79
2021-07-06 15:38:36.984375000,-33.5,8.5,54.0,88.124375,-2.31,30.705171125,33.79
2021-07-06 15:38:36.992187500,-33.25,8.75,54.0,88.12718749999999,-3.13,30.7050910625,33.79
2021-07-06 15:38:37.000000000,-33.0,9.0,54.0,88.13,-3.95,30.705011,33.79
2021-07-06 15:38:37.007812500,-33.0,8.75,54.0,88.132734375,-4.76,30.704330437499998,33.79125
2021-07-06 15:38:37.015625000,-33.0,8.5,54.0,88.13546875,-5.57,30.703649875,33.7925
2021-07-06 15:38:37.023437500,-33.0,8.25,54.0,88.13820312499999,-6.33,30.7029693125,33.793749999999996
2021-07-06 15:38:37.031250000,-33.0,8.0,54.0,88.14093749999999,-7.09,30.70228875,33.795
2021-07-06 15:38:37.039062500,-33.25,8.25,54.0,88.143671875,-7.735,30.7016081875,33.79625
2021-07-06 15:38:37.046875000,-33.5,8.5,54.0,88.14640625,-8.38,30.700927625,33.7975
2021-07-06 15:38:37.054687500,-33.75,8.75,54.0,88.149140625,-8.89,30.7002470625,33.79875
2021-07-06 15:38:37.062500000,-34.0,9.0,54.0,88.15187499999999,-9.4,30.6995665,33.8
2021-07-06 15:38:37.070312500,-34.0,9.0,54.0,88.15460937499999,-9.855,30.6988859375,33.801249999999996
2021-07-06 15:38:37.078125000,-34.0,9.0,54.0,88.15734375,-10.31,30.698205375,33.8025
2021-07-06 15:38:37.085937500,-34.0,9.0,54.0,88.160078125,-10.93,30.6975248125,33.80375
2021-07-06 15:38:37.093750000,-34.0,9.0,54.0,88.1628125,-11.55,30.696844249999998,33.805
2021-07-06 15:38:37.101562500,-34.0,8.75,54.0,88.16554687499999,-12.675,30.6961636875,33.80625
2021-07-06 15:38:37.109375000,-34.0,8.5,54.0,88.16828124999999,-13.8,30.695483125,33.8075
2021-07-06 15:38:37.117187500,-34.0,8.25,54.0,88.171015625,-15.815,30.6948025625,33.808749999999996
2021-07-06 15:38:37.125000000,-34.0,8.0,54.0,88.17375,-17.83,30.694122,33.81
2021-07-06 15:38:37.132812500,-34.0,8.0,54.0,88.176484375,-20.979999999999997,30.6934414375,33.81125
2021-07-06 15:38:37.140625000,-34.0,8.0,54.0,88.17921874999999,-24.13,30.692760875,33.8125
2021-07-06 15:38:37.148437500,-34.0,8.0,54.0,88.18195312499999,-28.369999999999997,30.6920803125,33.81375
2021-07-06 15:38:37.156250000,-34.0,8.0,54.0,88.1846875,-32.61,30.691399750000002,33.815
2021-07-06 15:38:37.164062500,-34.0,8.0,54.0,88.187421875,-37.485,30.6907191875,33.81625
2021-07-06 15:38:37.171875000,-34.0,8.0,54.0,88.19015625,-42.36,30.690038625,33.817499999999995
2021-07-06 15:38:37.179687500,-34.0,8.0,54.0,88.192890625,-46.995000000000005,30.689358062500002,33.81875
2021-07-06 15:38:37.187500000,-34.0,8.0,54.0,88.19562499999999,-51.63,30.6886775,33.82
2021-07-06 15:38:37.195312500,-34.0,8.25,54.0,88.198359375,-54.945,30.6879969375,33.82125
2021-07-06 15:38:37.203125000,-34.0,8.5,54.0,88.20109375,-58.26,30.687316375,33.8225
2021-07-06 15:38:37.210937500,-34.0,8.75,54.0,88.203828125,-59.28,30.6866358125,33.82375
2021-07-06 15:38:37.218750000,-34.0,9.0,54.0,88.2065625,-60.3,30.68595525,33.824999999999996
2021-07-06 15:38:37.226562500,-34.0,9.0,54.0,88.20929687499999,-58.485,30.6852746875,33.82625
2021-07-06 15:38:37.234375000,-34.0,9.0,54.0,88.21203125,-56.67,30.684594125,33.8275
2021-07-06 15:38:37.242187500,-34.0,9.0,54.0,88.214765625,-52.115,30.683913562500003,33.82875
2021-07-06 15:38:37.250000000,-34.0,9.0,54.0,88.2175,-47.56,30.683233,33.83
2021-07-06 15:38:37.257812500,-33.75,9.0,54.0,88.220234375,-40.95,30.683393093750002,33.83
2021-07-06 15:38:37.265625000,-33.5,9.0,54.0,88.22296874999999,-34.34,30.683553187500003,33.83
2021-07-06 15:38:37.273437500,-33.25,9.0,54.0,88.225703125,-26.725,30.68371328125,33.83
2021-07-06 15:38:37.281250000,-33.0,9.0,54.0,88.2284375,-19.11,30.683873375,33.83
2021-07-06 15:38:37.289062500,-33.25,8.75,54.0,88.231171875,-11.55,30.684033468750002,33.83
2021-07-06 15:38:37.296875000,-33.5,8.5,54.0,88.23390625,-3.99,30.6841935625,33.83
2021-07-06 15:38:37.304687500,-33.75,8.25,54.0,88.23664062499999,2.6799999999999997,30.68435365625,33.83
2021-07-06 15:38:37.312500000,-34.0,8.0,54.0,88.239375,9.35,30.68451375,33.83
2021-07-06 15:38:37.320312500,-34.0,8.25,54.0,88.242109375,14.71,30.68467384375,33.83
2021-07-06 15:38:37.328125000,-34.0,8.5,54.0,88.24484375,20.07,30.684833937500002,33.83
2021-07-06 15:38:37.335937500,-34.0,8.75,54.0,88.247578125,23.975,30.68499403125,33.83
2021-07-06 15:38:37.343750000,-34.0,9.0,54.0,88.25031249999999,27.88,30.685154125,33.83
2021-07-06 15:38:37.351562500,-34.0,8.75,54.0,88.253046875,30.405,30.68531421875,33.83
2021-07-06 15:38:37.359375000,-34.0,8.5,54.0,88.25578125,32.93,30.6854743125,33.83
2021-07-06 15:38:37.367187500,-34.0,8.25,54.0,88.258515625,34.165,30.68563440625,33.83
2021-07-06 15:38:37.375000000,-34.0,8.0,54.0,88.26125,35.4,30.6857945,33.83
2021-07-06 15:38:37.382812500,-34.0,8.25,54.0,88.26398437499999,35.45,30.68595459375,33.83
2021-07-06 15:38:37.390625000,-34.0,8.5,54.0,88.26671875,35.5,30.6861146875,33.83
2021-07-06 15:38:37.398437500,-34.0,8.75,54.0,88.269453125,34.475,30.68627478125,33.83
2021-07-06 15:38:37.406250000,-34.0,9.0,54.0,88.2721875,33.45,30.686434875,33.83
2021-07-06 15:38:37.414062500,-34.0,8.75,54.0,88.274921875,31.57,30.68659496875,33.83
2021-07-06 15:38:37.421875000,-34.0,8.5,54.0,88.27765624999999,29.69,30.686755062499998,33.83
2021-07-06 15:38:37.429687500,-34.0,8.25,54.0,88.280390625,27.310000000000002,30.68691515625,33.83
2021-07-06 15:38:37.437500000,-34.0,8.0,54.0,88.283125,24.93,30.68707525,33.83
2021-07-06 15:38:37.445312500,-34.0,8.25,54.0,88.285859375,22.425,30.68723534375,33.83
2021-07-06 15:38:37.453125000,-34.0,8.5,54.0,88.28859375,19.92,30.6873954375,33.83
2021-07-06 15:38:37.460937500,-34.0,8.75,54.0,88.29132812499999,17.61,30.68755553125,33.83
2021-07-06 15:38:37.468750000,-34.0,9.0,54.0,88.2940625,15.3,30.687715625,33.83
2021-07-06 15:38:37.476562500,-34.0,9.0,54.0,88.296796875,13.325,30.68787571875,33.83
2021-07-06 15:38:37.484375000,-34.0,9.0,54.0,88.29953125,11.35,30.688035812499997,33.83
2021-07-06 15:38:37.492187500,-34.0,9.0,54.0,88.302265625,9.66,30.688195906249998,33.83
2021-07-06 15:38:37.500000000,-34.0,9.0,54.0,88.305,7.97,30.688356,33.83
2021-07-06 15:38:37.507812500,-33.75,9.0,54.0,88.307734375,6.4,30.687595406249997,33.83
2021-07-06 15:38:37.515625000,-33.5,9.0,54.0,88.31046875,4.83,30.6868348125,33.83
2021-07-06 15:38:37.523437500,-33.25,9.0,54.0,88.313203125,3.22,30.68607421875,33.83
2021-07-06 15:38:37.531250000,-33.0,9.0,54.0,88.3159375,1.61,30.685313625,33.83
2021-07-06 15:38:37.539062500,-33.25,8.75,54.0,88.318671875,-0.04499999999999993,30.684553031249997,33.83
2021-07-06 15:38:37.546875000,-33.5,8.5,54.0,88.32140625,-1.7,30.6837924375,33.83
2021-07-06 15:38:37.554687500,-33.75,8.25,54.0,88.324140625,-3.26,30.68303184375,33.83
2021-07-06 15:38:37.562500000,-34.0,8.0,54.0,88.326875,-4.82,30.68227125,33.83
2021-07-06 15:38:37.570312500,-34.0,8.25,54.0,88.329609375,-6.0649999999999995,30.681510656249998,33.83
2021-07-06 15:38:37.578125000,-34.0,8.5,54.0,88.33234375,-7.31,30.6807500625,33.83
2021-07-06 15:38:37.585937500,-34.0,8.75,54.0,88.335078125,-8.125,30.67998946875,33.83
2021-07-06 15:38:37.593750000,-34.0,9.0,54.0,88.3378125,-8.94,30.679228875,33.83
2021-07-06 15:38:37.601562500,-33.75,8.75,54.0,88.340546875,-9.415,30.678468281249998,33.83
2021-07-06 15:38:37.609375000,-33.5,8.5,54.0,88.34328125,-9.89,30.6777076875,33.83
2021-07-06 15:38:37.617187500,-33.25,8.25,54.0,88.346015625,-10.355,30.67694709375,33.83
2021-07-06 15:38:37.625000000,-33.0,8.0,54.0,88.34875,-10.82,30.6761865,33.83
2021-07-06 15:38:37.632812500,-33.25,8.0,54.0,88.351484375,-11.76,30.67542590625,33.83
2021-07-06 15:38:37.640625000,-33.5,8.0,54.0,88.35421875,-12.7,30.6746653125,33.83
2021-07-06 15:38:37.648437500,-33.75,8.0,54.0,88.356953125,-14.61,30.673904718750002,33.83
2021-07-06 15:38:37.656250000,-34.0,8.0,54.0,88.3596875,-16.52,30.673144125,33.83
2021-07-06 15:38:37.664062500,-34.0,8.25,54.0,88.362421875,-19.740000000000002,30.67238353125,33.83
2021-07-06 15:38:37.671875000,-34.0,8.5,54.0,88.36515625,-22.96,30.6716229375,33.83
2021-07-06 15:38:37.679687500,-34.0,8.75,54.0,88.367890625,-27.54,30.670862343750002,33.83
2021-07-06 15:38:37.687500000,-34.0,9.0,54.0,88.370625,-32.12,30.67010175,33.83
2021-07-06 15:38:37.695312500,-33.75,8.75,54.0,88.373359375,-37.68,30.66934115625,33.83
2021-07-06 15:38:37.703125000,-33.5,8.5,54.0,88.37609375,-43.24,30.6685805625,33.83
2021-07-06 15:38:37.710937500,-33.25,8.25,54.0,88.378828125,-48.980000000000004,30.667819968750003,33.83
2021-07-06 15:38:37.718750000,-33.0,8.0,54.0,88.3815625,-54.72,30.667059375,33.83
2021-07-06 15:38:37.726562500,-33.25,8.25,54.0,88.384296875,-59.49,30.66629878125,33.83
2021-07-06 15:38:37.734375000,-33.5,8.5,54.0,88.38703125,-64.26,30.6655381875,33.83
2021-07-06 15:38:37.742187500,-33.75,8.75,54.0,88.389765625,-66.86,30.664777593750003,33.83
2021-07-06 15:38:37.750000000,-34.0,9.0,54.0,88.3925,-69.46,30.664017,33.83
2021-07-06 15:38:37.757812500,-34.0,8.75,54.0,88.395234375,-68.94,30.663176281250003,33.83
2021-07-06 15:38:37.765625000,-34.0,8.5,54.0,88.39796875,-68.42,30.6623355625,33.83
2021-07-06 15:38:37.773437500,-34.0,8.25,54.0,88.400703125,-64.475,30.661494843750003,33.83
2021-07-06 15:38:37.781250000,-34.0,8.0,54.0,88.4034375,-60.53,30.660654125,33.83
2021-07-06 15:38:37.789062500,-34.0,8.25,54.0,88.406171875,-53.565,30.659813406250002,33.83
2021-07-06 15:38:37.796875000,-34.0,8.5,54.0,88.40890625,-46.6,30.6589726875,33.83
2021-07-06 15:38:37.804687500,-34.0,8.75,54.0,88.411640625,-37.67,30.658131968750002,33.83
2021-07-06 15:38:37.812500000,-34.0,9.0,54.0,88.414375,-28.74,30.65729125,33.83
2021-07-06 15:38:37.820312500,-33.75,9.0,54.0,88.417109375,-19.16,30.65645053125,33.83
2021-07-06 15:38:37.828125000,-33.5,9.0,54.0,88.41984375,-9.58,30.6556098125,33.83
2021-07-06 15:38:37.835937500,-33.25,9.0,54.0,88.422578125,-0.5449999999999999,30.65476909375,33.83
2021-07-06 15:38:37.843750000,-33.0,9.0,54.0,88.4253125,8.49,30.653928375,33.83
2021-07-06 15:38:37.851562500,-33.0,9.0,54.0,88.428046875,16.2,30.65308765625,33.83
2021-07-06 15:38:37.859375000,-33.0,9.0,54.0,88.43078125000001,23.91,30.6522469375,33.83
2021-07-06 15:38:37.867187500,-33.0,9.0,54.0,88.433515625,29.945,30.65140621875,33.83
2021-07-06 15:38:37.875000000,-33.0,9.0,54.0,88.43625,35.98,30.6505655,33.83
2021-07-06 15:38:37.882812500,-33.25,9.0,54.0,88.438984375,40.315,30.64972478125,33.83
2021-07-06 15:38:37.890625000,-33.5,9.0,54.0,88.44171875,44.65,30.648884062500002,33.83
2021-07-06 15:38:37.898437500,-33.75,9.0,54.0,88.44445312500001,47.394999999999996,30.64804334375,33.83
2021-07-06 15:38:37.906250000,-34.0,9.0,54.0,88.4471875,50.14,30.647202625000002,33.83
2021-07-06 15:38:37.914062500,-34.0,9.0,54.0,88.449921875,51.379999999999995,30.64636190625,33.83
2021-07-06 15:38:37.921875000,-34.0,9.0,54.0,88.45265625,52.62,30.6455211875,33.83
2021-07-06 15:38:37.929687500,-34.0,9.0,54.0,88.455390625,52.474999999999994,30.64468046875,33.83
2021-07-06 15:38:37.937500000,-34.0,9.0,54.0,88.45812500000001,52.33,30.64383975,33.83
2021-07-06 15:38:37.945312500,-34.0,8.75,54.0,88.460859375,51.01,30.64299903125,33.83
2021-07-06 15:38:37.953125000,-34.0,8.5,54.0,88.46359375,49.69,30.6421583125,33.83
2021-07-06 15:38:37.960937500,-34.0,8.25,54.0,88.466328125,47.54,30.64131759375,33.83
2021-07-06 15:38:37.968750000,-34.0,8.0,54.0,88.4690625,45.39,30.640476875,33.83
2021-07-06 15:38:37.976562500,-34.0,8.25,54.0,88.47179687500001,42.84,30.63963615625,33.83
2021-07-06 15:38:37.984375000,-34.0,8.5,54.0,88.47453125,40.29,30.6387954375,33.83
2021-07-06 15:38:37.992187500,-34.0,8.75,54.0,88.477265625,37.765,30.63795471875,33.83
2021-07-06 15:38:38.000000000,-34.0,9.0,54.0,88.48,35.24,30.637114,33.83
2021-07-06 15:38:38.007812500,-34.0,8.75,54.0,88.483125,32.985,30.637434250000002,33.829375
2021-07-06 15:38:38.015625000,-34.0,8.5,54.0,88.48625,30.73,30.6377545,33.82875
2021-07-06 15:38:38.023437500,-34.0,8.25,54.0,88.48937500000001,28.78,30.63807475,33.828125
2021-07-06 15:38:38.031250000,-34.0,8.0,54.0,88.4925,26.83,30.638395,33.8275
2021-07-06 15:38:38.039062500,-34.0,8.0,54.0,88.495625,25.02,30.63871525,33.826875
2021-07-06 15:38:38.046875000,-34.0,8.0,54.0,88.49875,23.21,30.639035500000002,33.82625
2021-07-06 15:38:38.054687500,-34.0,8.0,54.0,88.501875,21.325000000000003,30.63935575,33.825625
2021-07-06 15:38:38.062500000,-34.0,8.0,54.0,88.50500000000001,19.44,30.639676,33.825
2021-07-06 15:38:38.070312500,-34.0,8.0,54.0,88.508125,17.365000000000002,30.63999625,33.824374999999996
2021-07-06 15:38:38.078125000,-34.0,8.0,54.0,88.51125,15.29,30.6403165,33.82375
2021-07-06 15:38:38.085937500,-34.0,8.0,54.0,88.514375,13.075,30.640636750000002,33.823125
2021-07-06 15:38:38.093750000,-34.0,8.0,54.0,88.5175,10.86,30.640957,33.8225
2021-07-06 15:38:38.101562500,-34.0,8.0,54.0,88.52062500000001,8.719999999999999,30.64127725,33.821875
2021-07-06 15:38:38.109375000,-34.0,8.0,54.0,88.52375,6.58,30.6415975,33.82125
2021-07-06 15:38:38.117187500,-34.0,8.0,54.0,88.526875,4.765000000000001,30.64191775,33.820625
2021-07-06 15:38:38.125000000,-34.0,8.0,54.0,88.53,2.95,30.642238,33.82
2021-07-06 15:38:38.132812500,-34.0,8.0,54.0,88.533125,1.57,30.64255825,33.819375
2021-07-06 15:38:38.140625000,-34.0,8.0,54.0,88.53625000000001,0.19,30.642878500000002,33.81875
2021-07-06 15:38:38.148437500,-34.0,8.0,54.0,88.539375,-0.865,30.64319875,33.818125
2021-07-06 15:38:38.156250000,-34.0,8.0,54.0,88.5425,-1.92,30.643519,33.8175
2021-07-06 15:38:38.164062500,-34.0,8.25,54.0,88.545625,-3.025,30.64383925,33.816875
2021-07-06 15:38:38.171875000,-34.0,8.5,54.0,88.54875,-4.13,30.6441595,33.816250000000004
2021-07-06 15:38:38.179687500,-34.0,8.75,54.0,88.551875,-5.805,30.644479750000002,33.815625000000004
2021-07-06 15:38:38.187500000,-34.0,9.0,54.0,88.555,-7.48,30.6448,33.815
2021-07-06 15:38:38.195312500,-34.0,8.75,54.0,88.558125,-10.245000000000001,30.64512025,33.814375
2021-07-06 15:38:38.203125000,-34.0,8.5,54.0,88.56125,-13.01,30.6454405,33.81375
2021-07-06 15:38:38.210937500,-34.0,8.25,54.0,88.564375,-17.15,30.64576075,33.813125
2021-07-06 15:38:38.218750000,-34.0,8.0,54.0,88.5675,-21.29,30.646081000000002,33.8125
2021-07-06 15:38:38.226562500,-34.0,8.25,54.0,88.570625,-26.73,30.64640125,33.811875
2021-07-06 15:38:38.234375000,-34.0,8.5,54.0,88.57375,-32.17,30.6467215,33.81125
2021-07-06 15:38:38.242187500,-34.0,8.75,54.0,88.576875,-38.35,30.64704175,33.810625
2021-07-06 15:38:38.250000000,-34.0,9.0,54.0,88.58,-44.53,30.647362,33.81
2021-07-06 15:38:38.257812500,-34.0,8.75,54.0,88.583125,-50.46,30.64648128125,33.81
2021-07-06 15:38:38.265625000,-34.0,8.5,54.0,88.58625,-56.39,30.6456005625,33.81
2021-07-06 15:38:38.273437500,-34.0,8.25,54.0,88.589375,-60.82,30.64471984375,33.81
2021-07-06 15:38:38.281250000,-34.0,8.0,54.0,88.5925,-65.25,30.643839125,33.81
2021-07-06 15:38:38.289062500,-34.0,8.0,54.0,88.595625,-66.995,30.64295840625,33.81
2021-07-06 15:38:38.296875000,-34.0,8.0,54.0,88.59875,-68.74,30.642077687500002,33.81
2021-07-06 15:38:38.304687500,-34.0,8.0,54.0,88.601875,-67.03,30.641196968750002,33.81
2021-07-06 15:38:38.312500000,-34.0,8.0,54.0,88.605,-65.32,30.64031625,33.81
2021-07-06 15:38:38.320312500,-34.0,8.0,54.0,88.608125,-60.084999999999994,30.63943553125,33.81
2021-07-06 15:38:38.328125000,-34.0,8.0,54.0,88.61125,-54.85,30.6385548125,33.81
2021-07-06 15:38:38.335937500,-34.0,8.0,54.0,88.614375,-46.74,30.63767409375,33.81
2021-07-06 15:38:38.343750000,-34.0,8.0,54.0,88.6175,-38.63,30.636793375,33.81
2021-07-06 15:38:38.351562500,-34.0,8.0,54.0,88.620625,-28.855,30.63591265625,33.81
2021-07-06 15:38:38.359375000,-34.0,8.0,54.0,88.62375,-19.08,30.6350319375,33.81
2021-07-06 15:38:38.367187500,-34.0,8.0,54.0,88.626875,-9.01,30.63415121875,33.81
2021-07-06 15:38:38.375000000,-34.0,8.0,54.0,88.63,1.06,30.633270500000002,33.81
2021-07-06 15:38:38.382812500,-34.0,8.0,54.0,88.633125,10.295000000000002,30.63238978125,33.81
2021-07-06 15:38:38.390625000,-34.0,8.0,54.0,88.63625,19.53,30.6315090625,33.81
2021-07-06 15:38:38.398437500,-34.0,8.0,54.0,88.639375,27.26,30.63062834375,33.81
2021-07-06 15:38:38.406250000,-34.0,8.0,54.0,88.6425,34.99,30.629747625,33.81
2021-07-06 15:38:38.414062500,-34.0,8.0,54.0,88.645625,41.045,30.62886690625,33.81
2021-07-06 15:38:38.421875000,-34.0,8.0,54.0,88.64875,47.1,30.6279861875,33.81
2021-07-06 15:38:38.429687500,-34.0,8.0,54.0,88.651875,51.655,30.62710546875,33.81
2021-07-06 15:38:38.437500000,-34.0,8.0,54.0,88.655,56.21,30.62622475,33.81
2021-07-06 15:38:38.445312500,-34.0,8.0,54.0,88.658125,59.49,30.62534403125,33.81
2021-07-06 15:38:38.453125000,-34.0,8.0,54.0,88.66125,62.77,30.624463312499998,33.81
2021-07-06 15:38:38.460937500,-34.0,8.0,54.0,88.664375,64.915,30.62358259375,33.81
2021-07-06 15:38:38.468750000,-34.0,8.0,54.0,88.6675,67.06,30.622701875,33.81
2021-07-06 15:38:38.476562500,-34.0,8.0,54.0,88.670625,68.08500000000001,30.62182115625,33.81
2021-07-06 15:38:38.484375000,-34.0,8.0,54.0,88.67375,69.11,30.6209404375,33.81
2021-07-06 15:38:38.492187500,-34.0,8.0,54.0,88.676875,69.0,30.62005971875,33.81
2021-07-06 15:38:38.500000000,-34.0,8.0,54.0,88.68,68.89,30.619179,33.81
2021-07-06 15:38:38.507812500,-34.0,8.25,54.0,88.683125,67.7,30.61969940625,33.81
2021-07-06 15:38:38.515625000,-34.0,8.5,54.0,88.68625,66.51,30.6202198125,33.81
2021-07-06 15:38:38.523437500,-34.0,8.75,54.0,88.689375,64.48,30.62074021875,33.81
2021-07-06 15:38:38.531250000,-34.0,9.0,54.0,88.6925,62.45,30.621260624999998,33.81
2021-07-06 15:38:38.539062500,-34.0,8.75,54.0,88.69562499999999,59.945,30.62178103125,33.81
2021-07-06 15:38:38.546875000,-34.0,8.5,54.0,88.69875,57.44,30.6223014375,33.81
2021-07-06 15:38:38.554687500,-34.0,8.25,54.0,88.701875,54.875,30.62282184375,33.81
2021-07-06 15:38:38.562500000,-34.0,8.0,54.0,88.705,52.31,30.62334225,33.81
2021-07-06 15:38:38.570312500,-34.0,8.0,54.0,88.708125,50.015,30.62386265625,33.81
2021-07-06 15:38:38.578125000,-34.0,8.0,54.0,88.71124999999999,47.72,30.624383062499998,33.81
2021-07-06 15:38:38.585937500,-34.0,8.0,54.0,88.714375,45.864999999999995,30.62490346875,33.81
2021-07-06 15:38:38.593750000,-34.0,8.0,54.0,88.7175,44.01,30.625423875,33.81
2021-07-06 15:38:38.601562500,-34.0,8.0,54.0,88.720625,42.555,30.62594428125,33.81
2021-07-06 15:38:38.609375000,-34.0,8.0,54.0,88.72375,41.1,30.6264646875,33.81
2021-07-06 15:38:38.617187500,-34.0,8.0,54.0,88.72687499999999,39.879999999999995,30.62698509375,33.81
2021-07-06 15:38:38.625000000,-34.0,8.0,54.0,88.73,38.66,30.627505499999998,33.81
2021-07-06 15:38:38.632812500,-34.0,8.0,54.0,88.733125,37.43,30.62802590625,33.81
2021-07-06 15:38:38.640625000,-34.0,8.0,54.0,88.73625,36.2,30.6285463125,33.81
2021-07-06 15:38:38.648437500,-34.0,8.0,54.0,88.739375,34.730000000000004,30.62906671875,33.81
2021-07-06 15:38:38.656250000,-34.0,8.0,54.0,88.74249999999999,33.26,30.629587125,33.81
2021-07-06 15:38:38.664062500,-34.0,8.0,54.0,88.745625,31.445,30.63010753125,33.81
2021-07-06 15:38:38.671875000,-34.0,8.0,54.0,88.74875,29.63,30.6306279375,33.81
2021-07-06 15:38:38.679687500,-34.0,8.0,54.0,88.751875,27.479999999999997,30.63114834375,33.81
2021-07-06 15:38:38.687500000,-34.0,8.0,54.0,88.755,25.33,30.63166875,33.81
2021-07-06 15:38:38.695312500,-34.0,8.0,54.0,88.75812499999999,22.96,30.63218915625,33.81
2021-07-06 15:38:38.703125000,-34.0,8.0,54.0,88.76125,20.59,30.6327095625,33.81
2021-07-06 15:38:38.710937500,-34.0,8.0,54.0,88.764375,18.155,30.63322996875,33.81
2021-07-06 15:38:38.718750000,-34.0,8.0,54.0,88.7675,15.72,30.633750375,33.81
2021-07-06 15:38:38.726562500,-33.75,8.25,54.0,88.770625,13.31,30.63427078125,33.81
2021-07-06 15:38:38.734375000,-33.5,8.5,54.0,88.77374999999999,10.9,30.6347911875,33.81
2021-07-06 15:38:38.742187500,-33.25,8.75,54.0,88.776875,8.495000000000001,30.63531159375,33.81
2021-07-06 15:38:38.750000000,-33.0,9.0,54.0,88.78,6.09,30.635832,33.81
2021-07-06 15:38:38.757812500,-33.25,8.75,54.0,88.783125,3.55,30.633750250000002,33.81
2021-07-06 15:38:38.765625000,-33.5,8.5,54.0,88.78625,1.01,30.6316685,33.81
2021-07-06 15:38:38.773437500,-33.75,8.25,54.0,88.78937499999999,-1.8799999999999997,30.62958675,33.81
2021-07-06 15:38:38.781250000,-34.0,8.0,54.0,88.7925,-4.77,30.627505,33.81
2021-07-06 15:38:38.789062500,-34.0,8.0,54.0,88.795625,-8.26,30.62542325,33.81
2021-07-06 15:38:38.796875000,-34.0,8.0,54.0,88.79875,-11.75,30.623341500000002,33.81
2021-07-06 15:38:38.804687500,-34.0,8.0,54.0,88.801875,-16.04,30.62125975,33.81
2021-07-06 15:38:38.812500000,-34.0,8.0,54.0,88.80499999999999,-20.33,30.619178,33.81
2021-07-06 15:38:38.820312500,-34.0,8.0,54.0,88.808125,-25.5,30.61709625,33.81
2021-07-06 15:38:38.828125000,-34.0,8.0,54.0,88.81125,-30.67,30.6150145,33.81
2021-07-06 15:38:38.835937500,-34.0,8.0,54.0,88.814375,-36.565,30.612932750000002,33.81
2021-07-06 15:38:38.843750000,-34.0,8.0,54.0,88.8175,-42.46,30.610851,33.81
2021-07-06 15:38:38.851562500,-34.0,8.0,54.0,88.82062499999999,-48.58,30.60876925,33.81
2021-07-06 15:38:38.859375000,-34.0,8.0,54.0,88.82374999999999,-54.7,30.6066875,33.81
2021-07-06 15:38:38.867187500,-34.0,8.0,54.0,88.826875,-60.15,30.60460575,33.81
2021-07-06 15:38:38.875000000,-34.0,8.0,54.0,88.83,-65.6,30.602524000000003,33.81
2021-07-06 15:38:38.882812500,-34.0,8.25,54.0,88.833125,-69.24,30.60044225,33.81
2021-07-06 15:38:38.890625000,-34.0,8.5,54.0,88.83624999999999,-72.88,30.598360500000002,33.81
2021-07-06 15:38:38.898437500,-34.0,8.75,54.0,88.83937499999999,-73.57,30.59627875,33.81
2021-07-06 15:38:38.906250000,-34.0,9.0,54.0,88.8425,-74.26,30.594197,33.81
2021-07-06 15:38:38.914062500,-34.0,8.75,54.0,88.845625,-71.285,30.59211525,33.81
2021-07-06 15:38:38.921875000,-34.0,8.5,54.0,88.84875,-68.31,30.5900335,33.81
2021-07-06 15:38:38.929687500,-34.0,8.25,54.0,88.85187499999999,-61.655,30.587951750000002,33.81
2021-07-06 15:38:38.937500000,-34.0,8.0,54.0,88.85499999999999,-55.0,30.58587,33.81
2021-07-06 15:38:38.945312500,-34.0,8.25,54.0,88.858125,-45.44,30.58378825,33.81
2021-07-06 15:38:38.953125000,-34.0,8.5,54.0,88.86125,-35.88,30.5817065,33.81
2021-07-06 15:38:38.960937500,-34.0,8.75,54.0,88.864375,-24.785,30.57962475,33.81
2021-07-06 15:38:38.968750000,-34.0,9.0,54.0,88.86749999999999,-13.69,30.577543000000002,33.81
2021-07-06 15:38:38.976562500,-34.0,8.75,54.0,88.87062499999999,-2.5549999999999997,30.57546125,33.81
2021-07-06 15:38:38.984375000,-34.0,8.5,54.0,88.87375,8.58,30.5733795,33.81
2021-07-06 15:38:38.992187500,-34.0,8.25,54.0,88.876875,18.549999999999997,30.57129775,33.81
2021-07-06 15:38:39.000000000,-34.0,8.0,54.0,88.88,28.52,30.569216,33.81
2021-07-06 15:38:39.007812500,-34.0,8.0,54.0,88.8834375,36.66,30.563342000000002,33.81
2021-07-06 15:38:39.015625000,-34.0,8.0,54.0,88.88687499999999,44.8,30.557468,33.81
2021-07-06 15:38:39.023437500,-34.0,8.0,54.0,88.8903125,50.98,30.551594,33.81
2021-07-06 15:38:39.031250000,-34.0,8.0,54.0,88.89375,57.16,30.54572,33.81
2021-07-06 15:38:39.039062500,-34.0,8.25,54.0,88.8971875,61.589999999999996,30.539846,33.81
2021-07-06 15:38:39.046875000,-34.0,8.5,54.0,88.90062499999999,66.02,30.533972000000002,33.81
2021-07-06 15:38:39.054687500,-34.0,8.75,54.0,88.9040625,68.985,30.528098,33.81
2021-07-06 15:38:39.062500000,-34.0,9.0,54.0,88.9075,71.95,30.522224,33.81
2021-07-06 15:38:39.070312500,-34.0,9.0,54.0,88.91093749999999,73.64500000000001,30.51635,33.81
2021-07-06 15:38:39.078125000,-34.0,9.0,54.0,88.91437499999999,75.34,30.510476,33.81
2021-07-06 15:38:39.085937500,-34.0,9.0,54.0,88.9178125,75.905,30.504602000000002,33.81
2021-07-06 15:38:39.093750000,-34.0,9.0,54.0,88.92125,76.47,30.498728,33.81
2021-07-06 15:38:39.101562500,-34.0,9.0,54.0,88.92468749999999,76.065,30.492854,33.81
2021-07-06 15:38:39.109375000,-34.0,9.0,54.0,88.928125,75.66,30.48698,33.81
2021-07-06 15:38:39.117187500,-34.0,9.0,54.0,88.9315625,74.53,30.481106,33.81
2021-07-06 15:38:39.125000000,-34.0,9.0,54.0,88.935,73.4,30.475232,33.81
2021-07-06 15:38:39.132812500,-34.0,9.0,54.0,88.93843749999999,71.905,30.469358,33.81
2021-07-06 15:38:39.140625000,-34.0,9.0,54.0,88.941875,70.41,30.463484,33.81
2021-07-06 15:38:39.148437500,-34.0,9.0,54.0,88.9453125,68.89,30.45761,33.81
2021-07-06 15:38:39.156250000,-34.0,9.0,54.0,88.94874999999999,67.37,30.451736,33.81
2021-07-06 15:38:39.164062500,-34.0,8.75,54.0,88.9521875,66.07,30.445861999999998,33.81
2021-07-06 15:38:39.171875000,-34.0,8.5,54.0,88.955625,64.77,30.439988,33.81
2021-07-06 15:38:39.179687500,-34.0,8.25,54.0,88.9590625,63.769999999999996,30.434114,33.81
2021-07-06 15:38:39.187500000,-34.0,8.0,54.0,88.96249999999999,62.77,30.42824,33.81
2021-07-06 15:38:39.195312500,-34.0,8.0,54.0,88.9659375,62.010000000000005,30.422366,33.81
2021-07-06 15:38:39.203125000,-34.0,8.0,54.0,88.969375,61.25,30.416491999999998,33.81
2021-07-06 15:38:39.210937500,-34.0,8.0,54.0,88.97281249999999,60.61,30.410618,33.81
2021-07-06 15:38:39.218750000,-34.0,8.0,54.0,88.97625,59.97,30.404744,33.81
2021-07-06 15:38:39.226562500,-34.0,8.0,54.0,88.9796875,59.349999999999994,30.39887,33.81
2021-07-06 15:38:39.234375000,-34.0,8.0,54.0,88.983125,58.73,30.392996,33.81
2021-07-06 15:38:39.242187500,-34.0,8.0,54.0,88.98656249999999,58.114999999999995,30.387121999999998,33.81
2021-07-06 15:38:39.250000000,-34.0,8.0,54.0,88.99,57.5,30.381248,33.81
2021-07-06 15:38:39.257812500,-34.0,8.25,54.0,88.9934375,56.925,30.381968625,33.81
2021-07-06 15:38:39.265625000,-34.0,8.5,54.0,88.99687499999999,56.35,30.38268925,33.81
2021-07-06 15:38:39.273437500,-34.0,8.75,54.0,89.00031249999999,55.885000000000005,30.383409874999998,33.81
2021-07-06 15:38:39.281250000,-34.0,9.0,54.0,89.00375,55.42,30.384130499999998,33.81
2021-07-06 15:38:39.289062500,-34.0,9.0,54.0,89.0071875,55.095,30.384851125,33.81
2021-07-06 15:38:39.296875000,-34.0,9.0,54.0,89.01062499999999,54.77,30.38557175,33.81
2021-07-06 15:38:39.304687500,-34.0,9.0,54.0,89.0140625,54.525000000000006,30.386292375,33.81
2021-07-06 15:38:39.312500000,-34.0,9.0,54.0,89.0175,54.28,30.387013,33.81
2021-07-06 15:38:39.320312500,-34.0,8.75,54.0,89.02093749999999,53.955,30.387733625,33.81
2021-07-06 15:38:39.328125000,-34.0,8.5,54.0,89.02437499999999,53.63,30.38845425,33.81
2021-07-06 15:38:39.335937500,-34.0,8.25,54.0,89.0278125,52.980000000000004,30.389174875,33.81
2021-07-06 15:38:39.343750000,-34.0,8.0,54.0,89.03125,52.33,30.3898955,33.81
2021-07-06 15:38:39.351562500,-34.0,8.0,54.0,89.03468749999999,51.099999999999994,30.390616125,33.81
2021-07-06 15:38:39.359375000,-34.0,8.0,54.0,89.038125,49.87,30.39133675,33.81
2021-07-06 15:38:39.367187500,-34.0,8.0,54.0,89.0415625,47.885,30.392057375,33.81
2021-07-06 15:38:39.375000000,-34.0,8.0,54.0,89.04499999999999,45.9,30.392778,33.81
2021-07-06 15:38:39.382812500,-34.0,8.25,54.0,89.04843749999999,43.165,30.393498625,33.81
2021-07-06 15:38:39.390625000,-34.0,8.5,54.0,89.051875,40.43,30.39421925,33.81
2021-07-06 15:38:39.398437500,-34.0,8.75,54.0,89.0553125,37.125,30.394939875,33.81
2021-07-06 15:38:39.406250000,-34.0,9.0,54.0,89.05874999999999,33.82,30.395660499999998,33.81
2021-07-06 15:38:39.414062500,-34.0,9.0,54.0,89.0621875,30.285,30.396381125,33.81
2021-07-06 15:38:39.421875000,-34.0,9.0,54.0,89.065625,26.75,30.39710175,33.81
2021-07-06 15:38:39.429687500,-34.0,9.0,54.0,89.0690625,23.35,30.397822375,33.81
2021-07-06 15:38:39.437500000,-34.0,9.0,54.0,89.07249999999999,19.95,30.398543,33.81
2021-07-06 15:38:39.445312500,-33.75,9.0,54.0,89.0759375,16.95,30.399263625,33.81
2021-07-06 15:38:39.453125000,-33.5,9.0,54.0,89.079375,13.95,30.39998425,33.81
2021-07-06 15:38:39.460937500,-33.25,9.0,54.0,89.08281249999999,11.42,30.400704875,33.81
2021-07-06 15:38:39.468750000,-33.0,9.0,54.0,89.08624999999999,8.89,30.401425500000002,33.81
2021-07-06 15:38:39.476562500,-33.25,9.0,54.0,89.0896875,6.68,30.402146125,33.81
2021-07-06 15:38:39.484375000,-33.5,9.0,54.0,89.093125,4.47,30.40286675,33.81
2021-07-06 15:38:39.492187500,-33.75,9.0,54.0,89.09656249999999,2.2849999999999997,30.403587375,33.81
2021-07-06 15:38:39.500000000,-34.0,9.0,54.0,89.1,0.1,30.404308,33.81
2021-07-06 15:38:39.507812500,-34.0,8.75,54.0,89.1034375,-2.3349999999999995,30.40458821875,33.81
2021-07-06 15:38:39.515625000,-34.0,8.5,54.0,89.10687499999999,-4.77,30.4048684375,33.81
2021-07-06 15:38:39.523437500,-34.0,8.25,54.0,89.11031249999999,-7.64,30.40514865625,33.81
2021-07-06 15:38:39.531250000,-34.0,8.0,54.0,89.11375,-10.51,30.405428875,33.81
2021-07-06 15:38:39.539062500,-34.0,8.25,54.0,89.1171875,-13.79,30.40570909375,33.81
2021-07-06 15:38:39.546875000,-34.0,8.5,54.0,89.12062499999999,-17.07,30.4059893125,33.81
2021-07-06 15:38:39.554687500,-34.0,8.75,54.0,89.1240625,-20.560000000000002,30.40626953125,33.81
2021-07-06 15:38:39.562500000,-34.0,9.0,54.0,89.1275,-24.05,30.40654975,33.81
2021-07-06 15:38:39.570312500,-34.0,9.0,54.0,89.13093749999999,-27.439999999999998,30.40682996875,33.81
2021-07-06 15:38:39.578125000,-34.0,9.0,54.0,89.13437499999999,-30.83,30.4071101875,33.81
2021-07-06 15:38:39.585937500,-34.0,9.0,54.0,89.1378125,-33.82,30.40739040625,33.81
2021-07-06 15:38:39.593750000,-34.0,9.0,54.0,89.14125,-36.81,30.407670625,33.81
2021-07-06 15:38:39.601562500,-34.0,8.75,54.0,89.14468749999999,-39.205,30.40795084375,33.81
2021-07-06 15:38:39.609375000,-34.0,8.5,54.0,89.148125,-41.6,30.4082310625,33.81
2021-07-06 15:38:39.617187500,-34.0,8.25,54.0,89.1515625,-43.43,30.40851128125,33.81
2021-07-06 15:38:39.625000000,-34.0,8.0,54.0,89.155,-45.26,30.4087915,33.81
2021-07-06 15:38:39.632812500,-34.0,8.0,54.0,89.15843749999999,-46.75,30.40907171875,33.81
2021-07-06 15:38:39.640625000,-34.0,8.0,54.0,89.161875,-48.24,30.4093519375,33.81
2021-07-06 15:38:39.648437500,-34.0,8.0,54.0,89.1653125,-49.815,30.409632156249998,33.81
2021-07-06 15:38:39.656250000,-34.0,8.0,54.0,89.16874999999999,-51.39,30.409912374999998,33.81
2021-07-06 15:38:39.664062500,-34.0,8.0,54.0,89.17218749999999,-53.515,30.41019259375,33.81
2021-07-06 15:38:39.671875000,-34.0,8.0,54.0,89.175625,-55.64,30.4104728125,33.81
2021-07-06 15:38:39.679687500,-34.0,8.0,54.0,89.1790625,-58.72,30.41075303125,33.81
2021-07-06 15:38:39.687500000,-34.0,8.0,54.0,89.18249999999999,-61.8,30.41103325,33.81
2021-07-06 15:38:39.695312500,-34.0,8.25,54.0,89.1859375,-65.965,30.41131346875,33.81
2021-07-06 15:38:39.703125000,-34.0,8.5,54.0,89.189375,-70.13,30.411593687499998,33.81
2021-07-06 15:38:39.710937500,-34.0,8.75,54.0,89.19281249999999,-75.08,30.411873906249998,33.81
2021-07-06 15:38:39.718750000,-34.0,9.0,54.0,89.19624999999999,-80.03,30.412154125,33.81
2021-07-06 15:38:39.726562500,-34.0,9.0,54.0,89.1996875,-84.985,30.41243434375,33.81
2021-07-06 15:38:39.734375000,-34.0,9.0,54.0,89.203125,-89.94,30.4127145625,33.81
2021-07-06 15:38:39.742187500,-34.0,9.0,54.0,89.20656249999999,-93.725,30.41299478125,33.81
2021-07-06 15:38:39.750000000,-34.0,9.0,54.0,89.21,-97.51,30.413275,33.81
2021-07-06 15:38:39.757812500,-34.0,9.0,54.0,89.2134375,-98.88,30.413835499999998,33.81
2021-07-06 15:38:39.765625000,-34.0,9.0,54.0,89.21687499999999,-100.25,30.414396,33.81
2021-07-06 15:38:39.773437500,-34.0,9.0,54.0,89.22031249999999,-98.27000000000001,30.4149565,33.81
2021-07-06 15:38:39.781250000,-34.0,9.0,54.0,89.22375,-96.29,30.415516999999998,33.81
2021-07-06 15:38:39.789062500,-34.0,9.0,54.0,89.2271875,-90.70500000000001,30.4160775,33.81
2021-07-06 15:38:39.796875000,-34.0,9.0,54.0,89.23062499999999,-85.12,30.416638,33.81
2021-07-06 15:38:39.804687500,-34.0,9.0,54.0,89.2340625,-76.47,30.417198499999998,33.81
2021-07-06 15:38:39.812500000,-34.0,9.0,54.0,89.2375,-67.82,30.417759,33.81
2021-07-06 15:38:39.820312500,-34.0,8.75,54.0,89.24093749999999,-57.28999999999999,30.4183195,33.81
2021-07-06 15:38:39.828125000,-34.0,8.5,54.0,89.24437499999999,-46.76,30.418879999999998,33.81
2021-07-06 15:38:39.835937500,-34.0,8.25,54.0,89.2478125,-35.78,30.4194405,33.81
2021-07-06 15:38:39.843750000,-34.0,8.0,54.0,89.25125,-24.8,30.420001,33.81
2021-07-06 15:38:39.851562500,-34.0,8.25,54.0,89.25468749999999,-14.64,30.420561499999998,33.81
2021-07-06 15:38:39.859375000,-34.0,8.5,54.0,89.25812499999999,-4.48,30.421122,33.81
2021-07-06 15:38:39.867187500,-34.0,8.75,54.0,89.2615625,4.050000000000001,30.4216825,33.81
2021-07-06 15:38:39.875000000,-34.0,9.0,54.0,89.26499999999999,12.58,30.422243,33.81
2021-07-06 15:38:39.882812500,-34.0,9.0,54.0,89.26843749999999,19.15,30.4228035,33.81
2021-07-06 15:38:39.890625000,-34.0,9.0,54.0,89.271875,25.72,30.423364,33.81
2021-07-06 15:38:39.898437500,-34.0,9.0,54.0,89.2753125,30.419999999999998,30.423924500000002,33.81
2021-07-06 15:38:39.906250000,-34.0,9.0,54.0,89.27874999999999,35.12,30.424485,33.81
2021-07-06 15:38:39.914062500,-34.0,9.0,54.0,89.28218749999999,38.185,30.4250455,33.81
2021-07-06 15:38:39.921875000,-34.0,9.0,54.0,89.285625,41.25,30.425606000000002,33.81
2021-07-06 15:38:39.929687500,-34.0,9.0,54.0,89.2890625,42.945,30.4261665,33.81
2021-07-06 15:38:39.937500000,-34.0,9.0,54.0,89.29249999999999,44.64,30.426727,33.81
2021-07-06 15:38:39.945312500,-34.0,8.75,54.0,89.2959375,45.175,30.427287500000002,33.81
2021-07-06 15:38:39.953125000,-34.0,8.5,54.0,89.299375,45.71,30.427848,33.81
2021-07-06 15:38:39.960937500,-34.0,8.25,54.0,89.30281249999999,45.29,30.4284085,33.81
2021-07-06 15:38:39.968750000,-34.0,8.0,54.0,89.30624999999999,44.87,30.428969000000002,33.81
2021-07-06 15:38:39.976562500,-34.0,8.0,54.0,89.3096875,43.76,30.4295295,33.81
2021-07-06 15:38:39.984375000,-34.0,8.0,54.0,89.313125,42.65,30.43009,33.81
2021-07-06 15:38:39.992187500,-34.0,8.0,54.0,89.31656249999999,41.17,30.430650500000002,33.81
2021-07-06 15:38:40.000000000,-34.0,8.0,54.0,89.32,39.69,30.431211,33.81
2021-07-06 15:38:40.007812500,-34.0,8.25,54.0,89.323515625,38.175,30.43381321875,33.81
2021-07-06 15:38:40.015625000,-34.0,8.5,54.0,89.32703124999999,36.66,30.436415437500003,33.81
2021-07-06 15:38:40.023437500,-34.0,8.75,54.0,89.330546875,35.385,30.43901765625,33.81
2021-07-06 15:38:40.031250000,-34.0,9.0,54.0,89.33406249999999,34.11,30.441619875,33.81
2021-07-06 15:38:40.039062500,-34.0,9.0,54.0,89.337578125,33.195,30.44422209375,33.81
2021-07-06 15:38:40.046875000,-34.0,9.0,54.0,89.34109375,32.28,30.446824312500002,33.81
2021-07-06 15:38:40.054687500,-34.0,9.0,54.0,89.34460937499999,31.68,30.44942653125,33.81
2021-07-06 15:38:40.062500000,-34.0,9.0,54.0,89.348125,31.08,30.45202875,33.81
2021-07-06 15:38:40.070312500,-33.75,8.75,54.0,89.35164062499999,30.63,30.454630968750003,33.81
2021-07-06 15:38:40.078125000,-33.5,8.5,54.0,89.35515625,30.18,30.4572331875,33.81
2021-07-06 15:38:40.085937500,-33.25,8.25,54.0,89.358671875,29.705,30.45983540625,33.81
2021-07-06 15:38:40.093750000,-33.0,8.0,54.0,89.36218749999999,29.23,30.462437625,33.81
2021-07-06 15:38:40.101562500,-33.25,8.25,54.0,89.365703125,28.625,30.465039843750002,33.81
2021-07-06 15:38:40.109375000,-33.5,8.5,54.0,89.36921874999999,28.02,30.4676420625,33.81
2021-07-06 15:38:40.117187500,-33.75,8.75,54.0,89.372734375,27.33,30.47024428125,33.81
2021-07-06 15:38:40.125000000,-34.0,9.0,54.0,89.37625,26.64,30.472846500000003,33.81
2021-07-06 15:38:40.132812500,-34.0,8.75,54.0,89.37976562499999,26.015,30.475448718750002,33.81
2021-07-06 15:38:40.140625000,-34.0,8.5,54.0,89.38328125,25.39,30.4780509375,33.81
2021-07-06 15:38:40.148437500,-34.0,8.25,54.0,89.38679687499999,24.97,30.48065315625,33.81
2021-07-06 15:38:40.156250000,-34.0,8.0,54.0,89.3903125,24.55,30.483255375000002,33.81
2021-07-06 15:38:40.164062500,-34.0,8.25,54.0,89.393828125,24.375,30.48585759375,33.81
2021-07-06 15:38:40.171875000,-34.0,8.5,54.0,89.39734374999999,24.2,30.4884598125,33.81
2021-07-06 15:38:40.179687500,-34.0,8.75,54.0,89.400859375,24.09,30.49106203125,33.81
2021-07-06 15:38:40.187500000,-34.0,9.0,54.0,89.40437499999999,23.98,30.493664250000002,33.81
2021-07-06 15:38:40.195312500,-34.0,9.0,54.0,89.407890625,23.615000000000002,30.49626646875,33.81
2021-07-06 15:38:40.203125000,-34.0,9.0,54.0,89.41140625,23.25,30.4988686875,33.81
2021-07-06 15:38:40.210937500,-34.0,9.0,54.0,89.41492187499999,22.255000000000003,30.501470906250002,33.81
2021-07-06 15:38:40.218750000,-34.0,9.0,54.0,89.4184375,21.26,30.504073125,33.81
2021-07-06 15:38:40.226562500,-33.75,9.0,54.0,89.42195312499999,19.4,30.50667534375,33.81
2021-07-06 15:38:40.234375000,-33.5,9.0,54.0,89.42546875,17.54,30.5092775625,33.81
2021-07-06 15:38:40.242187500,-33.25,9.0,54.0,89.428984375,14.8,30.511879781250002,33.81
2021-07-06 15:38:40.250000000,-33.0,9.0,54.0,89.43249999999999,12.06,30.514482,33.81
2021-07-06 15:38:40.257812500,-33.0,9.0,54.0,89.436015625,8.67,30.514522,33.81
2021-07-06 15:38:40.265625000,-33.0,9.0,54.0,89.43953124999999,5.28,30.514562,33.81
2021-07-06 15:38:40.273437500,-33.0,9.0,54.0,89.443046875,1.62,30.514602,33.81
2021-07-06 15:38:40.281250000,-33.0,9.0,54.0,89.4465625,-2.04,30.514642000000002,33.81
2021-07-06 15:38:40.289062500,-33.25,9.0,54.0,89.45007812499999,-5.539999999999999,30.514682,33.81
2021-07-06 15:38:40.296875000,-33.5,9.0,54.0,89.45359375,-9.04,30.514722,33.81
2021-07-06 15:38:40.304687500,-33.75,9.0,54.0,89.45710937499999,-12.055,30.514762,33.81
2021-07-06 15:38:40.312500000,-34.0,9.0,54.0,89.460625,-15.07,30.514802,33.81
2021-07-06 15:38:40.320312500,-34.0,9.0,54.0,89.464140625,-17.48,30.514842,33.81
2021-07-06 15:38:40.328125000,-34.0,9.0,54.0,89.46765624999999,-19.89,30.514882,33.81
2021-07-06 15:38:40.335937500,-34.0,9.0,54.0,89.471171875,-21.79,30.514922,33.81
2021-07-06 15:38:40.343750000,-34.0,9.0,54.0,89.47468749999999,-23.69,30.514962,33.81
2021-07-06 15:38:40.351562500,-34.0,8.75,54.0,89.478203125,-25.380000000000003,30.515002,33.81
2021-07-06 15:38:40.359375000,-34.0,8.5,54.0,89.48171875,-27.07,30.515042,33.81
2021-07-06 15:38:40.367187500,-34.0,8.25,54.0,89.48523437499999,-28.96,30.515082,33.81
2021-07-06 15:38:40.375000000,-34.0,8.0,54.0,89.48875,-30.85,30.515121999999998,33.81
2021-07-06 15:38:40.382812500,-34.0,8.25,54.0,89.49226562499999,-33.335,30.515162,33.81
2021-07-06 15:38:40.390625000,-34.0,8.5,54.0,89.49578125,-35.82,30.515202,33.81
2021-07-06 15:38:40.398437500,-34.0,8.75,54.0,89.499296875,-39.120000000000005,30.515242,33.81
2021-07-06 15:38:40.406250000,-34.0,9.0,54.0,89.50281249999999,-42.42,30.515282,33.81
2021-07-06 15:38:40.414062500,-34.0,9.0,54.0,89.506328125,-46.435,30.515322,33.81
2021-07-06 15:38:40.421875000,-34.0,9.0,54.0,89.50984374999999,-50.45,30.515362,33.81
2021-07-06 15:38:40.429687500,-34.0,9.0,54.0,89.513359375,-54.675,30.515401999999998,33.81
2021-07-06 15:38:40.437500000,-34.0,9.0,54.0,89.516875,-58.9,30.515442,33.81
2021-07-06 15:38:40.445312500,-34.0,8.75,54.0,89.52039062499999,-62.455,30.515482,33.81
2021-07-06 15:38:40.453125000,-34.0,8.5,54.0,89.52390625,-66.01,30.515522,33.81
2021-07-06 15:38:40.460937500,-34.0,8.25,54.0,89.52742187499999,-67.87,30.515562,33.81
2021-07-06 15:38:40.468750000,-34.0,8.0,54.0,89.5309375,-69.73,30.515601999999998,33.81
2021-07-06 15:38:40.476562500,-34.0,8.0,54.0,89.534453125,-69.03,30.515642,33.81
2021-07-06 15:38:40.484375000,-34.0,8.0,54.0,89.53796874999999,-68.33,30.515681999999998,33.81
2021-07-06 15:38:40.492187500,-34.0,8.0,54.0,89.541484375,-64.69,30.515722,33.81
2021-07-06 15:38:40.500000000,-34.0,8.0,54.0,89.54499999999999,-61.05,30.515762,33.81
2021-07-06 15:38:40.507812500,-34.0,8.25,54.0,89.548515625,-54.724999999999994,30.513119781249998,33.81
2021-07-06 15:38:40.515625000,-34.0,8.5,54.0,89.55203125,-48.4,30.5104775625,33.81
2021-07-06 15:38:40.523437500,-34.0,8.75,54.0,89.55554687499999,-40.235,30.50783534375,33.81
2021-07-06 15:38:40.531250000,-34.0,9.0,54.0,89.5590625,-32.07,30.505193124999998,33.81
2021-07-06 15:38:40.539062500,-34.0,9.0,54.0,89.562578125,-23.19,30.50255090625,33.81
2021-07-06 15:38:40.546875000,-34.0,9.0,54.0,89.56609375,-14.31,30.4999086875,33.81
2021-07-06 15:38:40.554687500,-34.0,9.0,54.0,89.569609375,-5.805,30.49726646875,33.81
2021-07-06 15:38:40.562500000,-34.0,9.0,54.0,89.57312499999999,2.7,30.49462425,33.81
2021-07-06 15:38:40.570312500,-34.0,9.0,54.0,89.576640625,10.085,30.49198203125,33.81
2021-07-06 15:38:40.578125000,-34.0,9.0,54.0,89.58015625,17.47,30.4893398125,33.81
2021-07-06 15:38:40.585937500,-34.0,9.0,54.0,89.583671875,23.42,30.486697593749998,33.81
2021-07-06 15:38:40.593750000,-34.0,9.0,54.0,89.5871875,29.37,30.484055375,33.81
2021-07-06 15:38:40.601562500,-34.0,9.0,54.0,89.59070312499999,33.895,30.48141315625,33.81
2021-07-06 15:38:40.609375000,-34.0,9.0,54.0,89.59421875,38.42,30.4787709375,33.81
2021-07-06 15:38:40.617187500,-34.0,9.0,54.0,89.597734375,41.685,30.47612871875,33.81
2021-07-06 15:38:40.625000000,-34.0,9.0,54.0,89.60125,44.95,30.4734865,33.81
2021-07-06 15:38:40.632812500,-34.0,9.0,54.0,89.604765625,47.075,30.47084428125,33.81
2021-07-06 15:38:40.640625000,-34.0,9.0,54.0,89.60828124999999,49.2,30.4682020625,33.81
2021-07-06 15:38:40.648437500,-34.0,9.0,54.0,89.611796875,50.235,30.46555984375,33.81
2021-07-06 15:38:40.656250000,-34.0,9.0,54.0,89.6153125,51.27,30.462917625,33.81
2021-07-06 15:38:40.664062500,-34.0,9.0,54.0,89.618828125,51.24,30.460275406250002,33.81
2021-07-06 15:38:40.671875000,-34.0,9.0,54.0,89.62234375,51.21,30.4576331875,33.81
2021-07-06 15:38:40.679687500,-34.0,9.0,54.0,89.62585937499999,50.254999999999995,30.45499096875,33.81
2021-07-06 15:38:40.687500000,-34.0,9.0,54.0,89.629375,49.3,30.45234875,33.81
2021-07-06 15:38:40.695312500,-34.0,9.0,54.0,89.632890625,47.735,30.44970653125,33.81
2021-07-06 15:38:40.703125000,-34.0,9.0,54.0,89.63640625,46.17,30.4470643125,33.81
2021-07-06 15:38:40.710937500,-34.0,9.0,54.0,89.639921875,44.41,30.44442209375,33.81
2021-07-06 15:38:40.718750000,-34.0,9.0,54.0,89.64343749999999,42.65,30.441779875,33.81
2021-07-06 15:38:40.726562500,-34.0,9.0,54.0,89.646953125,41.120000000000005,30.43913765625,33.81
2021-07-06 15:38:40.734375000,-34.0,9.0,54.0,89.65046875,39.59,30.4364954375,33.81
2021-07-06 15:38:40.742187500,-34.0,9.0,54.0,89.653984375,38.58,30.433853218750002,33.81
2021-07-06 15:38:40.750000000,-34.0,9.0,54.0,89.6575,37.57,30.431211,33.81
2021-07-06 15:38:40.757812500,-34.0,9.0,54.0,89.66101562499999,37.120000000000005,30.4316113125,33.81
2021-07-06 15:38:40.765625000,-34.0,9.0,54.0,89.66453125,36.67,30.432011625,33.81
2021-07-06 15:38:40.773437500,-34.0,9.0,54.0,89.668046875,36.66,30.4324119375,33.81
2021-07-06 15:38:40.781250000,-34.0,9.0,54.0,89.6715625,36.65,30.43281225,33.81
2021-07-06 15:38:40.789062500,-34.0,8.75,54.0,89.675078125,36.855000000000004,30.4332125625,33.81
2021-07-06 15:38:40.796875000,-34.0,8.5,54.0,89.67859374999999,37.06,30.433612875,33.81
2021-07-06 15:38:40.804687500,-34.0,8.25,54.0,89.682109375,37.305,30.4340131875,33.81
2021-07-06 15:38:40.812500000,-34.0,8.0,54.0,89.685625,37.55,30.4344135,33.81
2021-07-06 15:38:40.820312500,-33.75,8.0,54.0,89.689140625,37.73,30.4348138125,33.81
2021-07-06 15:38:40.828125000,-33.5,8.0,54.0,89.69265625,37.91,30.435214125,33.81
2021-07-06 15:38:40.835937500,-33.25,8.0,54.0,89.69617187499999,37.995,30.4356144375,33.81
2021-07-06 15:38:40.843750000,-33.0,8.0,54.0,89.6996875,38.08,30.436014750000002,33.81
2021-07-06 15:38:40.851562500,-33.25,8.25,54.0,89.703203125,38.045,30.4364150625,33.81
2021-07-06 15:38:40.859375000,-33.5,8.5,54.0,89.70671875,38.01,30.436815375000002,33.81
2021-07-06 15:38:40.867187500,-33.75,8.75,54.0,89.710234375,37.78,30.4372156875,33.81
2021-07-06 15:38:40.875000000,-34.0,9.0,54.0,89.71374999999999,37.55,30.437616,33.81
2021-07-06 15:38:40.882812500,-34.0,9.0,54.0,89.717265625,36.98,30.4380163125,33.81
2021-07-06 15:38:40.890625000,-34.0,9.0,54.0,89.72078125,36.41,30.438416625,33.81
2021-07-06 15:38:40.898437500,-34.0,9.0,54.0,89.724296875,35.36,30.4388169375,33.81
2021-07-06 15:38:40.906250000,-34.0,9.0,54.0,89.7278125,34.31,30.43921725,33.81
2021-07-06 15:38:40.914062500,-33.75,9.0,54.0,89.73132812499999,32.705,30.4396175625,33.81
2021-07-06 15:38:40.921875000,-33.5,9.0,54.0,89.73484375,31.1,30.440017875,33.81
2021-07-06 15:38:40.929687500,-33.25,9.0,54.0,89.738359375,28.96,30.4404181875,33.81
2021-07-06 15:38:40.937500000,-33.0,9.0,54.0,89.741875,26.82,30.4408185,33.81
2021-07-06 15:38:40.945312500,-33.25,9.0,54.0,89.745390625,24.314999999999998,30.4412188125,33.81
2021-07-06 15:38:40.953125000,-33.5,9.0,54.0,89.74890624999999,21.81,30.441619125,33.81
2021-07-06 15:38:40.960937500,-33.75,9.0,54.0,89.752421875,19.189999999999998,30.4420194375,33.81
2021-07-06 15:38:40.968750000,-34.0,9.0,54.0,89.7559375,16.57,30.44241975,33.81
2021-07-06 15:38:40.976562500,-34.0,8.75,54.0,89.759453125,14.08,30.4428200625,33.81
2021-07-06 15:38:40.984375000,-34.0,8.5,54.0,89.76296875,11.59,30.443220375,33.81
2021-07-06 15:38:40.992187500,-34.0,8.25,54.0,89.76648437499999,9.39,30.4436206875,33.81
2021-07-06 15:38:41.000000000,-34.0,8.0,54.0,89.77,7.19,30.444021,33.81
2021-07-06 15:38:41.007812500,-34.0,8.0,54.0,89.77390625,5.265000000000001,30.44498184375,33.810625
2021-07-06 15:38:41.015625000,-34.0,8.0,54.0,89.7778125,3.34,30.4459426875,33.81125
2021-07-06 15:38:41.023437500,-34.0,8.0,54.0,89.78171875,1.5,30.44690353125,33.811875
2021-07-06 15:38:41.031250000,-34.0,8.0,54.0,89.785625,-0.34,30.447864374999998,33.8125
2021-07-06 15:38:41.039062500,-34.0,8.0,54.0,89.78953125,-2.36,30.44882521875,33.813125
2021-07-06 15:38:41.046875000,-34.0,8.0,54.0,89.7934375,-4.38,30.4497860625,33.81375
2021-07-06 15:38:41.054687500,-34.0,8.0,54.0,89.79734375,-6.765000000000001,30.45074690625,33.814375
2021-07-06 15:38:41.062500000,-34.0,8.0,54.0,89.80125,-9.15,30.45170775,33.815
2021-07-06 15:38:41.070312500,-34.0,8.0,54.0,89.80515625,-11.92,30.45266859375,33.815625000000004
2021-07-06 15:38:41.078125000,-34.0,8.0,54.0,89.8090625,-14.69,30.4536294375,33.816250000000004
2021-07-06 15:38:41.085937500,-34.0,8.0,54.0,89.81296875,-17.645,30.45459028125,33.816875
2021-07-06 15:38:41.093750000,-34.0,8.0,54.0,89.816875,-20.6,30.455551125,33.8175
2021-07-06 15:38:41.101562500,-34.0,8.25,54.0,89.82078125,-23.4,30.45651196875,33.818125
2021-07-06 15:38:41.109375000,-34.0,8.5,54.0,89.8246875,-26.2,30.4574728125,33.81875
2021-07-06 15:38:41.117187500,-34.0,8.75,54.0,89.82859375,-28.564999999999998,30.45843365625,33.819375
2021-07-06 15:38:41.125000000,-34.0,9.0,54.0,89.8325,-30.93,30.459394500000002,33.82
2021-07-06 15:38:41.132812500,-34.0,8.75,54.0,89.83640625,-32.730000000000004,30.46035534375,33.820625
2021-07-06 15:38:41.140625000,-34.0,8.5,54.0,89.8403125,-34.53,30.4613161875,33.82125
2021-07-06 15:38:41.148437500,-34.0,8.25,54.0,89.84421875,-35.905,30.46227703125,33.821875
2021-07-06 15:38:41.156250000,-34.0,8.0,54.0,89.848125,-37.28,30.463237875,33.8225
2021-07-06 15:38:41.164062500,-34.0,8.0,54.0,89.85203125,-38.56,30.46419871875,33.823125
2021-07-06 15:38:41.171875000,-34.0,8.0,54.0,89.8559375,-39.84,30.465159562500002,33.82375
2021-07-06 15:38:41.179687500,-34.0,8.0,54.0,89.85984375,-41.44,30.46612040625,33.824374999999996
2021-07-06 15:38:41.187500000,-34.0,8.0,54.0,89.86375,-43.04,30.46708125,33.825
2021-07-06 15:38:41.195312500,-34.0,8.0,54.0,89.86765625,-45.335,30.46804209375,33.825625
2021-07-06 15:38:41.203125000,-34.0,8.0,54.0,89.8715625,-47.63,30.4690029375,33.82625
2021-07-06 15:38:41.210937500,-34.0,8.0,54.0,89.87546875,-50.85,30.46996378125,33.826875
2021-07-06 15:38:41.218750000,-34.0,8.0,54.0,89.879375,-54.07,30.470924625000002,33.8275
2021-07-06 15:38:41.226562500,-34.0,8.0,54.0,89.88328125,-58.129999999999995,30.47188546875,33.828125
2021-07-06 15:38:41.234375000,-34.0,8.0,54.0,89.8871875,-62.19,30.4728463125,33.82875
2021-07-06 15:38:41.242187500,-34.0,8.0,54.0,89.89109375,-66.63,30.47380715625,33.829375
2021-07-06 15:38:41.250000000,-34.0,8.0,54.0,89.895,-71.07,30.474768,33.83
2021-07-06 15:38:41.257812500,-34.0,8.0,54.0,89.89890625,-75.06,30.474367625,33.83
2021-07-06 15:38:41.265625000,-34.0,8.0,54.0,89.9028125,-79.05,30.47396725,33.83
2021-07-06 15:38:41.273437500,-34.0,8.0,54.0,89.90671875,-81.505,30.473566875,33.83
2021-07-06 15:38:41.281250000,-34.0,8.0,54.0,89.910625,-83.96,30.4731665,33.83
2021-07-06 15:38:41.289062500,-34.0,8.0,54.0,89.91453125,-83.875,30.472766125,33.83
2021-07-06 15:38:41.296875000,-34.0,8.0,54.0,89.9184375,-83.79,30.47236575,33.83
2021-07-06 15:38:41.304687500,-34.0,8.0,54.0,89.92234375,-80.575,30.471965375,33.83
2021-07-06 15:38:41.312500000,-34.0,8.0,54.0,89.92625,-77.36,30.471565000000002,33.83
2021-07-06 15:38:41.320312500,-34.0,8.0,54.0,89.93015625,-71.08500000000001,30.471164625,33.83
2021-07-06 15:38:41.328125000,-34.0,8.0,54.0,89.9340625,-64.81,30.470764250000002,33.83
2021-07-06 15:38:41.335937500,-34.0,8.0,54.0,89.93796875,-56.235,30.470363875,33.83
2021-07-06 15:38:41.343750000,-34.0,8.0,54.0,89.941875,-47.66,30.469963500000002,33.83
2021-07-06 15:38:41.351562500,-34.0,8.0,54.0,89.94578125,-37.995,30.469563125,33.83
2021-07-06 15:38:41.359375000,-34.0,8.0,54.0,89.9496875,-28.33,30.469162750000002,33.83
2021-07-06 15:38:41.367187500,-34.0,8.0,54.0,89.95359375,-18.84,30.468762375,33.83
2021-07-06 15:38:41.375000000,-34.0,8.0,54.0,89.9575,-9.35,30.468362,33.83
2021-07-06 15:38:41.382812500,-34.0,8.0,54.0,89.96140625,-1.0199999999999996,30.467961625,33.83
2021-07-06 15:38:41.390625000,-34.0,8.0,54.0,89.9653125,7.31,30.46756125,33.83
2021-07-06 15:38:41.398437500,-34.0,8.0,54.0,89.96921875,13.98,30.467160875,33.83
2021-07-06 15:38:41.406250000,-34.0,8.0,54.0,89.973125,20.65,30.4667605,33.83
2021-07-06 15:38:41.414062500,-34.0,8.0,54.0,89.97703125,25.604999999999997,30.466360125,33.83
2021-07-06 15:38:41.421875000,-34.0,8.0,54.0,89.9809375,30.56,30.46595975,33.83
2021-07-06 15:38:41.429687500,-34.0,8.0,54.0,89.98484375,34.015,30.465559375,33.83
2021-07-06 15:38:41.437500000,-34.0,8.0,54.0,89.98875,37.47,30.465159,33.83
2021-07-06 15:38:41.445312500,-34.0,8.25,54.0,89.99265625,39.739999999999995,30.464758625,33.83
2021-07-06 15:38:41.453125000,-34.0,8.5,54.0,89.9965625,42.01,30.46435825,33.83
2021-07-06 15:38:41.460937500,-34.0,8.75,54.0,90.00046875,43.345,30.463957875000002,33.83
2021-07-06 15:38:41.468750000,-34.0,9.0,54.0,90.004375,44.68,30.4635575,33.83
2021-07-06 15:38:41.476562500,-34.0,9.0,54.0,90.00828125,45.275,30.463157125000002,33.83
2021-07-06 15:38:41.484375000,-34.0,9.0,54.0,90.0121875,45.87,30.46275675,33.83
2021-07-06 15:38:41.492187500,-34.0,9.0,54.0,90.01609375,45.894999999999996,30.462356375000002,33.83
2021-07-06 15:38:41.500000000,-34.0,9.0,54.0,90.02,45.92,30.461956,33.83
2021-07-06 15:38:41.507812500,-34.0,8.75,54.0,90.02390625,45.56,30.45999434375,33.83
2021-07-06 15:38:41.515625000,-34.0,8.5,54.0,90.0278125,45.2,30.4580326875,33.83
2021-07-06 15:38:41.523437500,-34.0,8.25,54.0,90.03171875,44.635000000000005,30.45607103125,33.83
2021-07-06 15:38:41.531250000,-34.0,8.0,54.0,90.035625,44.07,30.454109375,33.83
2021-07-06 15:38:41.539062500,-34.0,8.0,54.0,90.03953125,43.475,30.452147718750002,33.83
2021-07-06 15:38:41.546875000,-34.0,8.0,54.0,90.0434375,42.88,30.450186062500002,33.83
2021-07-06 15:38:41.554687500,-34.0,8.0,54.0,90.04734375,42.375,30.448224406250002,33.83
2021-07-06 15:38:41.562500000,-34.0,8.0,54.0,90.05125,41.87,30.446262750000002,33.83
2021-07-06 15:38:41.570312500,-34.0,8.0,54.0,90.05515625,41.504999999999995,30.44430109375,33.83
2021-07-06 15:38:41.578125000,-34.0,8.0,54.0,90.0590625,41.14,30.4423394375,33.83
2021-07-06 15:38:41.585937500,-34.0,8.0,54.0,90.06296875,40.870000000000005,30.44037778125,33.83
2021-07-06 15:38:41.593750000,-34.0,8.0,54.0,90.066875,40.6,30.438416125,33.83
2021-07-06 15:38:41.601562500,-34.0,8.0,54.0,90.07078125,40.335,30.43645446875,33.83
2021-07-06 15:38:41.609375000,-34.0,8.0,54.0,90.0746875,40.07,30.4344928125,33.83
2021-07-06 15:38:41.617187500,-34.0,8.0,54.0,90.07859375,39.725,30.43253115625,33.83
2021-07-06 15:38:41.625000000,-34.0,8.0,54.0,90.0825,39.38,30.4305695,33.83
2021-07-06 15:38:41.632812500,-34.0,8.0,54.0,90.08640625,38.925,30.42860784375,33.83
2021-07-06 15:38:41.640625000,-34.0,8.0,54.0,90.0903125,38.47,30.4266461875,33.83
2021-07-06 15:38:41.648437500,-34.0,8.0,54.0,90.09421875,37.965,30.42468453125,33.83
2021-07-06 15:38:41.656250000,-34.0,8.0,54.0,90.098125,37.46,30.422722875,33.83
2021-07-06 15:38:41.664062500,-34.0,8.0,54.0,90.10203125,37.019999999999996,30.420761218750002,33.83
2021-07-06 15:38:41.671875000,-34.0,8.0,54.0,90.1059375,36.58,30.418799562500002,33.83
2021-07-06 15:38:41.679687500,-34.0,8.0,54.0,90.10984375,36.305,30.416837906250002,33.83
2021-07-06 15:38:41.687500000,-34.0,8.0,54.0,90.11375,36.03,30.41487625,33.83
2021-07-06 15:38:41.695312500,-34.0,8.0,53.75,90.11765625,35.935,30.41291459375,33.83
2021-07-06 15:38:41.703125000,-34.0,8.0,53.5,90.1215625,35.84,30.4109529375,33.83
2021-07-06 15:38:41.710937500,-34.0,8.0,53.25,90.12546875,35.790000000000006,30.40899128125,33.83
2021-07-06 15:38:41.718750000,-34.0,8.0,53.0,90.129375,35.74,30.407029625,33.83
2021-07-06 15:38:41.726562500,-34.0,8.0,53.25,90.13328125,35.49,30.40506796875,33.83
2021-07-06 15:38:41.734375000,-34.0,8.0,53.5,90.1371875,35.24,30.4031063125,33.83
2021-07-06 15:38:41.742187500,-34.0,8.0,53.75,90.14109375,34.53,30.40114465625,33.83
2021-07-06 15:38:41.750000000,-34.0,8.0,54.0,90.145,33.82,30.399183,33.83
2021-07-06 15:38:41.757812500,-34.0,8.0,54.0,90.14890625,32.49,30.40186528125,33.83
2021-07-06 15:38:41.765625000,-34.0,8.0,54.0,90.1528125,31.16,30.4045475625,33.83
2021-07-06 15:38:41.773437500,-34.0,8.0,54.0,90.15671875,29.235,30.407229843750002,33.83
2021-07-06 15:38:41.781250000,-34.0,8.0,54.0,90.160625,27.31,30.409912125,33.83
2021-07-06 15:38:41.789062500,-34.0,8.0,54.0,90.16453125,25.025,30.41259440625,33.83
2021-07-06 15:38:41.796875000,-34.0,8.0,54.0,90.1684375,22.74,30.4152766875,33.83
2021-07-06 15:38:41.804687500,-34.0,8.0,54.0,90.17234375,20.384999999999998,30.41795896875,33.83
2021-07-06 15:38:41.812500000,-34.0,8.0,54.0,90.17625,18.03,30.420641250000003,33.83
2021-07-06 15:38:41.820312500,-34.0,8.0,54.0,90.18015625,15.875,30.423323531250002,33.83
2021-07-06 15:38:41.828125000,-34.0,8.0,54.0,90.1840625,13.72,30.4260058125,33.83
2021-07-06 15:38:41.835937500,-34.0,8.0,54.0,90.18796875,11.84,30.42868809375,33.83
2021-07-06 15:38:41.843750000,-34.0,8.0,54.0,90.191875,9.96,30.431370375,33.83
2021-07-06 15:38:41.851562500,-34.0,8.0,54.0,90.19578125,8.280000000000001,30.43405265625,33.83
2021-07-06 15:38:41.859375000,-34.0,8.0,54.0,90.1996875,6.6,30.436734937500002,33.83
2021-07-06 15:38:41.867187500,-34.0,8.0,54.0,90.20359375,4.92,30.439417218750002,33.83
2021-07-06 15:38:41.875000000,-34.0,8.0,54.0,90.2075,3.24,30.4420995,33.83
2021-07-06 15:38:41.882812500,-34.0,8.0,54.0,90.21140625,1.3650000000000002,30.44478178125,33.83
2021-07-06 15:38:41.890625000,-34.0,8.0,54.0,90.2153125,-0.51,30.4474640625,33.83
2021-07-06 15:38:41.898437500,-34.0,8.0,54.0,90.21921875,-2.675,30.450146343750003,33.83
2021-07-06 15:38:41.906250000,-34.0,8.0,54.0,90.223125,-4.84,30.452828625000002,33.83
2021-07-06 15:38:41.914062500,-34.0,8.0,54.0,90.22703125,-7.27,30.45551090625,33.83
2021-07-06 15:38:41.921875000,-34.0,8.0,54.0,90.2309375,-9.7,30.4581931875,33.83
2021-07-06 15:38:41.929687500,-34.0,8.0,54.0,90.23484375,-12.254999999999999,30.46087546875,33.83
2021-07-06 15:38:41.937500000,-34.0,8.0,54.0,90.23875,-14.81,30.46355775,33.83
2021-07-06 15:38:41.945312500,-34.0,8.0,54.0,90.24265625,-17.355,30.466240031250003,33.83
2021-07-06 15:38:41.953125000,-34.0,8.0,54.0,90.2465625,-19.9,30.468922312500002,33.83
