TimeStamp,empatica.acc.x,empatica.acc.y,empatica.acc.z,empatica.hr,empatica.bvp,empatica.eda,empatica.temp
2021-06-25 11:23:05.812500000,-30.0,-9.0,54.0,91.93875,26.48,1.114925,238.65
2021-06-25 11:23:05.820312500,-29.75,-8.75,54.5,91.93796875,25.235,1.114764875,238.65
2021-06-25 11:23:05.828125000,-29.5,-8.5,55.0,91.93718750000001,23.99,1.11460475,238.65
2021-06-25 11:23:05.835937500,-29.25,-8.25,55.5,91.93640625,22.875,1.114444625,238.65
2021-06-25 11:23:05.843750000,-29.0,-8.0,56.0,91.935625,21.76,1.1142845,238.65
2021-06-25 11:23:05.851562500,-28.75,-7.75,56.5,91.93484375,20.96,1.114124375,238.65
2021-06-25 11:23:05.859375000,-28.5,-7.5,57.0,91.9340625,20.16,1.11396425,238.65
2021-06-25 11:23:05.867187500,-28.25,-7.25,57.5,91.93328125000001,19.755000000000003,1.113804125,238.65
2021-06-25 11:23:05.875000000,-28.0,-7.0,58.0,91.9325,19.35,1.1136439999999999,238.65
2021-06-25 11:23:05.882812500,-28.5,-7.0,57.0,91.93171875,19.275,1.113483875,238.65
2021-06-25 11:23:05.890625000,-29.0,-7.0,56.0,91.9309375,19.2,1.11332375,238.65
2021-06-25 11:23:05.898437500,-29.5,-7.0,55.0,91.93015625,19.310000000000002,1.1131636249999999,238.65
2021-06-25 11:23:05.906250000,-30.0,-7.0,54.0,91.92937500000001,19.42,1.1130035,238.65
2021-06-25 11:23:05.914062500,-29.75,-7.0,54.25,91.92859375,19.520000000000003,1.112843375,238.65
2021-06-25 11:23:05.921875000,-29.5,-7.0,54.5,91.9278125,19.62,1.11268325,238.65
2021-06-25 11:23:05.929687500,-29.25,-7.0,54.75,91.92703125,19.565,1.1125231249999998,238.65
2021-06-25 11:23:05.937500000,-29.0,-7.0,55.0,91.92625,19.51,1.112363,238.65
2021-06-25 11:23:05.945312500,-29.0,-6.75,55.5,91.92546875000001,19.205,1.112202875,238.65
2021-06-25 11:23:05.953125000,-29.0,-6.5,56.0,91.9246875,18.9,1.1120427499999999,238.65
2021-06-25 11:23:05.960937500,-29.0,-6.25,56.5,91.92390625,18.299999999999997,1.111882625,238.65
2021-06-25 11:23:05.968750000,-29.0,-6.0,57.0,91.923125,17.7,1.1117225,238.65
2021-06-25 11:23:05.976562500,-28.5,-6.0,57.0,91.92234375,16.785,1.1115623749999999,238.65
2021-06-25 11:23:05.984375000,-28.0,-6.0,57.0,91.92156250000001,15.87,1.1114022499999998,238.65
2021-06-25 11:23:05.992187500,-27.5,-6.0,57.0,91.92078125,14.649999999999999,1.111242125,238.65
2021-06-25 11:23:06.000000000,-27.0,-6.0,57.0,91.92,13.43,1.111082,238.65
2021-06-25 11:23:06.007812500,-27.0,-5.75,57.25,91.91921875,11.92,1.11104196875,238.65
2021-06-25 11:23:06.015625000,-27.0,-5.5,57.5,91.9184375,10.41,1.1110019375,238.65
2021-06-25 11:23:06.023437500,-27.0,-5.25,57.75,91.91765625000001,8.67,1.11096190625,238.65
2021-06-25 11:23:06.031250000,-27.0,-5.0,58.0,91.916875,6.93,1.1109218749999998,238.65
2021-06-25 11:23:06.039062500,-27.75,-4.75,58.25,91.91609375,5.06,1.1108818437499999,238.65
2021-06-25 11:23:06.046875000,-28.5,-4.5,58.5,91.9153125,3.19,1.1108418125,238.65
2021-06-25 11:23:06.054687500,-29.25,-4.25,58.75,91.91453125,1.305,1.11080178125,238.65
2021-06-25 11:23:06.062500000,-30.0,-4.0,59.0,91.91375000000001,-0.58,1.11076175,238.65
2021-06-25 11:23:06.070312500,-30.5,-3.5,59.25,91.91296875,-2.365,1.11072171875,238.65
2021-06-25 11:23:06.078125000,-31.0,-3.0,59.5,91.9121875,-4.15,1.1106816874999998,238.65
2021-06-25 11:23:06.085937500,-31.5,-2.5,59.75,91.91140625,-5.775,1.1106416562499999,238.65
2021-06-25 11:23:06.093750000,-32.0,-2.0,60.0,91.910625,-7.4,1.110601625,238.65
2021-06-25 11:23:06.101562500,-31.75,-2.25,59.5,91.90984375000001,-8.844999999999999,1.11056159375,238.65
2021-06-25 11:23:06.109375000,-31.5,-2.5,59.0,91.9090625,-10.29,1.1105215625,238.65
2021-06-25 11:23:06.117187500,-31.25,-2.75,58.5,91.90828125,-11.594999999999999,1.11048153125,238.65
2021-06-25 11:23:06.125000000,-31.0,-3.0,58.0,91.9075,-12.9,1.1104414999999999,238.65
2021-06-25 11:23:06.132812500,-30.25,-2.75,57.75,91.90671875,-14.205,1.11040146875,238.65
2021-06-25 11:23:06.140625000,-29.5,-2.5,57.5,91.90593750000001,-15.51,1.1103614375,238.65
2021-06-25 11:23:06.148437500,-28.75,-2.25,57.25,91.90515625,-17.025,1.11032140625,238.65
2021-06-25 11:23:06.156250000,-28.0,-2.0,57.0,91.904375,-18.54,1.110281375,238.65
2021-06-25 11:23:06.164062500,-27.75,-1.75,57.25,91.90359375,-20.505,1.11024134375,238.65
2021-06-25 11:23:06.171875000,-27.5,-1.5,57.5,91.9028125,-22.47,1.1102013125,238.65
2021-06-25 11:23:06.179687500,-27.25,-1.25,57.75,91.90203125,-25.045,1.11016128125,238.65
2021-06-25 11:23:06.187500000,-27.0,-1.0,58.0,91.90125,-27.62,1.11012125,238.65
2021-06-25 11:23:06.195312500,-27.0,-2.0,58.0,91.90046875,-30.79,1.11008121875,238.65
2021-06-25 11:23:06.203125000,-27.0,-3.0,58.0,91.8996875,-33.96,1.1100411875,238.65
2021-06-25 11:23:06.210937500,-27.0,-4.0,58.0,91.89890625,-37.39,1.11000115625,238.65
2021-06-25 11:23:06.218750000,-27.0,-5.0,58.0,91.898125,-40.82,1.109961125,238.65
2021-06-25 11:23:06.226562500,-27.25,-4.5,57.75,91.89734375,-43.91,1.10992109375,238.65
2021-06-25 11:23:06.234375000,-27.5,-4.0,57.5,91.8965625,-47.0,1.1098810625,238.65
2021-06-25 11:23:06.242187500,-27.75,-3.5,57.25,91.89578125,-49.015,1.10984103125,238.65
2021-06-25 11:23:06.250000000,-28.0,-3.0,57.0,91.895,-51.03,1.109801,238.65
2021-06-25 11:23:06.257812500,-28.0,-2.5,57.75,91.89421875,-51.32,1.10964084375,238.65
2021-06-25 11:23:06.265625000,-28.0,-2.0,58.5,91.8934375,-51.61,1.1094806875,238.65
2021-06-25 11:23:06.273437500,-28.0,-1.5,59.25,91.89265625,-49.835,1.10932053125,238.65
2021-06-25 11:23:06.281250000,-28.0,-1.0,60.0,91.891875,-48.06,1.109160375,238.65
2021-06-25 11:23:06.289062500,-28.0,-2.0,59.5,91.89109375,-44.34,1.10900021875,238.65
2021-06-25 11:23:06.296875000,-28.0,-3.0,59.0,91.8903125,-40.62,1.1088400625000001,238.65
2021-06-25 11:23:06.304687500,-28.0,-4.0,58.5,91.88953125,-35.455,1.1086799062500001,238.65
2021-06-25 11:23:06.312500000,-28.0,-5.0,58.0,91.88875,-30.29,1.1085197500000001,238.65
2021-06-25 11:23:06.320312500,-28.25,-3.75,58.0,91.88796875,-24.445,1.10835959375,238.65
2021-06-25 11:23:06.328125000,-28.5,-2.5,58.0,91.8871875,-18.6,1.1081994375,238.65
2021-06-25 11:23:06.335937500,-28.75,-1.25,58.0,91.88640625,-12.84,1.10803928125,238.65
2021-06-25 11:23:06.343750000,-29.0,0.0,58.0,91.885625,-7.08,1.107879125,238.65
2021-06-25 11:23:06.351562500,-29.0,0.0,57.5,91.88484375,-1.9749999999999996,1.10771896875,238.65
2021-06-25 11:23:06.359375000,-29.0,0.0,57.0,91.8840625,3.13,1.1075588125,238.65
2021-06-25 11:23:06.367187500,-29.0,0.0,56.5,91.88328125,7.31,1.10739865625,238.65
2021-06-25 11:23:06.375000000,-29.0,0.0,56.0,91.8825,11.49,1.1072385,238.65
2021-06-25 11:23:06.382812500,-28.0,1.25,56.0,91.88171875,14.73,1.10707834375,238.65
2021-06-25 11:23:06.390625000,-27.0,2.5,56.0,91.8809375,17.97,1.1069181875,238.65
2021-06-25 11:23:06.398437500,-26.0,3.75,56.0,91.88015625,20.439999999999998,1.10675803125,238.65
2021-06-25 11:23:06.406250000,-25.0,5.0,56.0,91.879375,22.91,1.106597875,238.65
2021-06-25 11:23:06.414062500,-25.0,5.0,56.0,91.87859375,24.810000000000002,1.10643771875,238.65
2021-06-25 11:23:06.421875000,-25.0,5.0,56.0,91.8778125,26.71,1.1062775625,238.65
2021-06-25 11:23:06.429687500,-25.0,5.0,56.0,91.87703125,28.21,1.10611740625,238.65
2021-06-25 11:23:06.437500000,-25.0,5.0,56.0,91.87625,29.71,1.10595725,238.65
2021-06-25 11:23:06.445312500,-26.0,5.0,55.5,91.87546875,30.89,1.10579709375,238.65
2021-06-25 11:23:06.453125000,-27.0,5.0,55.0,91.8746875,32.07,1.1056369375,238.65
2021-06-25 11:23:06.460937500,-28.0,5.0,54.5,91.87390625,32.965,1.10547678125,238.65
2021-06-25 11:23:06.468750000,-29.0,5.0,54.0,91.873125,33.86,1.105316625,238.65
2021-06-25 11:23:06.476562500,-29.0,5.0,54.0,91.87234375,34.480000000000004,1.10515646875,238.65
2021-06-25 11:23:06.484375000,-29.0,5.0,54.0,91.8715625,35.1,1.1049963125,238.65
2021-06-25 11:23:06.492187500,-29.0,5.0,54.0,91.87078125,35.45,1.10483615625,238.65
2021-06-25 11:23:06.500000000,-29.0,5.0,54.0,91.87,35.8,1.104676,238.65
2021-06-25 11:23:06.507812500,-28.75,4.75,54.0,91.86921875,35.879999999999995,1.104796125,238.65
2021-06-25 11:23:06.515625000,-28.5,4.5,54.0,91.8684375,35.96,1.10491625,238.65
2021-06-25 11:23:06.523437500,-28.25,4.25,54.0,91.86765625,35.760000000000005,1.105036375,238.65
2021-06-25 11:23:06.531250000,-28.0,4.0,54.0,91.866875,35.56,1.1051565,238.65
2021-06-25 11:23:06.539062500,-28.25,3.75,53.0,91.86609374999999,35.125,1.105276625,238.65
2021-06-25 11:23:06.546875000,-28.5,3.5,52.0,91.8653125,34.69,1.10539675,238.65
2021-06-25 11:23:06.554687500,-28.75,3.25,51.0,91.86453125,34.129999999999995,1.105516875,238.65
2021-06-25 11:23:06.562500000,-29.0,3.0,50.0,91.86375,33.57,1.105637,238.65
2021-06-25 11:23:06.570312500,-29.25,2.25,51.75,91.86296875,33.05,1.105757125,238.65
2021-06-25 11:23:06.578125000,-29.5,1.5,53.5,91.86218749999999,32.53,1.10587725,238.65
2021-06-25 11:23:06.585937500,-29.75,0.75,55.25,91.86140625,32.285,1.105997375,238.65
2021-06-25 11:23:06.593750000,-30.0,0.0,57.0,91.860625,32.04,1.1061174999999999,238.65
2021-06-25 11:23:06.601562500,-31.0,-0.25,59.0,91.85984375,32.235,1.106237625,238.65
2021-06-25 11:23:06.609375000,-32.0,-0.5,61.0,91.8590625,32.43,1.10635775,238.65
2021-06-25 11:23:06.617187500,-33.0,-0.75,63.0,91.85828124999999,33.11,1.106477875,238.65
2021-06-25 11:23:06.625000000,-34.0,-1.0,65.0,91.8575,33.79,1.106598,238.65
2021-06-25 11:23:06.632812500,-31.25,-0.75,64.5,91.85671875,34.81,1.106718125,238.65
2021-06-25 11:23:06.640625000,-28.5,-0.5,64.0,91.8559375,35.83,1.10683825,238.65
2021-06-25 11:23:06.648437500,-25.75,-0.25,63.5,91.85515625,36.915,1.106958375,238.65
2021-06-25 11:23:06.656250000,-23.0,0.0,63.0,91.85437499999999,38.0,1.1070785,238.65
2021-06-25 11:23:06.664062500,-22.5,0.25,62.25,91.85359375,38.83,1.1071986249999999,238.65
2021-06-25 11:23:06.671875000,-22.0,0.5,61.5,91.8528125,39.66,1.10731875,238.65
2021-06-25 11:23:06.679687500,-21.5,0.75,60.75,91.85203125,40.004999999999995,1.107438875,238.65
2021-06-25 11:23:06.687500000,-21.0,1.0,60.0,91.85125,40.35,1.107559,238.65
2021-06-25 11:23:06.695312500,-23.0,0.25,59.75,91.85046874999999,40.125,1.107679125,238.65
2021-06-25 11:23:06.703125000,-25.0,-0.5,59.5,91.8496875,39.9,1.10779925,238.65
2021-06-25 11:23:06.710937500,-27.0,-1.25,59.25,91.84890625,39.185,1.107919375,238.65
2021-06-25 11:23:06.718750000,-29.0,-2.0,59.0,91.848125,38.47,1.1080394999999998,238.65
2021-06-25 11:23:06.726562500,-29.5,-1.25,57.75,91.84734375,37.480000000000004,1.1081596249999999,238.65
2021-06-25 11:23:06.734375000,-30.0,-0.5,56.5,91.84656249999999,36.49,1.10827975,238.65
2021-06-25 11:23:06.742187500,-30.5,0.25,55.25,91.84578125,35.5,1.108399875,238.65
2021-06-25 11:23:06.750000000,-31.0,1.0,54.0,91.845,34.51,1.10852,238.65
2021-06-25 11:23:06.757812500,-29.5,-1.25,54.5,91.84421875,33.76,1.10847996875,238.65
2021-06-25 11:23:06.765625000,-28.0,-3.5,55.0,91.8434375,33.01,1.1084399375,238.65
2021-06-25 11:23:06.773437500,-26.5,-5.75,55.5,91.84265624999999,32.69,1.10839990625,238.65
2021-06-25 11:23:06.781250000,-25.0,-8.0,56.0,91.841875,32.37,1.1083598749999999,238.65
2021-06-25 11:23:06.789062500,-26.25,-8.0,56.75,91.84109375,32.53,1.10831984375,238.65
2021-06-25 11:23:06.796875000,-27.5,-8.0,57.5,91.8403125,32.69,1.1082798125,238.65
2021-06-25 11:23:06.804687500,-28.75,-8.0,58.25,91.83953125,33.230000000000004,1.10823978125,238.65
2021-06-25 11:23:06.812500000,-30.0,-8.0,59.0,91.83874999999999,33.77,1.10819975,238.65
2021-06-25 11:23:06.820312500,-31.0,-8.75,57.75,91.83796875,34.445,1.10815971875,238.65
2021-06-25 11:23:06.828125000,-32.0,-9.5,56.5,91.8371875,35.12,1.1081196875,238.65
2021-06-25 11:23:06.835937500,-33.0,-10.25,55.25,91.83640625,35.62,1.10807965625,238.65
2021-06-25 11:23:06.843750000,-34.0,-11.0,54.0,91.835625,36.12,1.108039625,238.65
2021-06-25 11:23:06.851562500,-33.75,-10.5,53.75,91.83484374999999,36.185,1.10799959375,238.65
2021-06-25 11:23:06.859375000,-33.5,-10.0,53.5,91.83406249999999,36.25,1.1079595625,238.65
2021-06-25 11:23:06.867187500,-33.25,-9.5,53.25,91.83328125,35.78,1.10791953125,238.65
2021-06-25 11:23:06.875000000,-33.0,-9.0,53.0,91.8325,35.31,1.1078795000000001,238.65
2021-06-25 11:23:06.882812500,-33.0,-7.75,53.5,91.83171875,34.46,1.10783946875,238.65
2021-06-25 11:23:06.890625000,-33.0,-6.5,54.0,91.83093749999999,33.61,1.1077994375,238.65
2021-06-25 11:23:06.898437500,-33.0,-5.25,54.5,91.83015624999999,32.805,1.10775940625,238.65
2021-06-25 11:23:06.906250000,-33.0,-4.0,55.0,91.829375,32.0,1.107719375,238.65
2021-06-25 11:23:06.914062500,-32.5,-4.0,55.5,91.82859375,31.825,1.10767934375,238.65
2021-06-25 11:23:06.921875000,-32.0,-4.0,56.0,91.8278125,31.65,1.1076393125000001,238.65
2021-06-25 11:23:06.929687500,-31.5,-4.0,56.5,91.82703124999999,32.635,1.10759928125,238.65
2021-06-25 11:23:06.937500000,-31.0,-4.0,57.0,91.82624999999999,33.62,1.10755925,238.65
2021-06-25 11:23:06.945312500,-31.0,-4.0,56.75,91.82546875,35.959999999999994,1.10751921875,238.65
2021-06-25 11:23:06.953125000,-31.0,-4.0,56.5,91.8246875,38.3,1.1074791875,238.65
2021-06-25 11:23:06.960937500,-31.0,-4.0,56.25,91.82390625,41.709999999999994,1.1074391562500001,238.65
2021-06-25 11:23:06.968750000,-31.0,-4.0,56.0,91.82312499999999,45.12,1.1073991250000002,238.65
2021-06-25 11:23:06.976562500,-31.25,-4.0,55.75,91.82234374999999,48.86,1.10735909375,238.65
2021-06-25 11:23:06.984375000,-31.5,-4.0,55.5,91.8215625,52.6,1.1073190625,238.65
2021-06-25 11:23:06.992187500,-31.75,-4.0,55.25,91.82078125,55.715,1.10727903125,238.65
2021-06-25 11:23:07.000000000,-32.0,-4.0,55.0,91.82,58.83,1.107239,238.65
2021-06-25 11:23:07.007812500,-32.0,-4.25,55.0,91.81906249999999,60.545,1.1070388125000001,238.65
2021-06-25 11:23:07.015625000,-32.0,-4.5,55.0,91.818125,62.26,1.106838625,238.65
2021-06-25 11:23:07.023437500,-32.0,-4.75,55.0,91.81718749999999,62.18,1.1066384375,238.65
2021-06-25 11:23:07.031250000,-32.0,-5.0,55.0,91.81625,62.1,1.10643825,238.65
2021-06-25 11:23:07.039062500,-31.5,-5.0,55.0,91.81531249999999,60.295,1.1062380625000001,238.65
2021-06-25 11:23:07.046875000,-31.0,-5.0,55.0,91.814375,58.49,1.1060378750000002,238.65
2021-06-25 11:23:07.054687500,-30.5,-5.0,55.0,91.81343749999999,55.325,1.1058376875,238.65
2021-06-25 11:23:07.062500000,-30.0,-5.0,55.0,91.8125,52.16,1.1056375,238.65
2021-06-25 11:23:07.070312500,-30.5,-5.0,55.25,91.8115625,48.045,1.1054373125,238.65
2021-06-25 11:23:07.078125000,-31.0,-5.0,55.5,91.81062499999999,43.93,1.105237125,238.65
2021-06-25 11:23:07.085937500,-31.5,-5.0,55.75,91.8096875,39.155,1.1050369375,238.65
2021-06-25 11:23:07.093750000,-32.0,-5.0,56.0,91.80874999999999,34.38,1.10483675,238.65
2021-06-25 11:23:07.101562500,-32.25,-4.75,55.75,91.8078125,29.12,1.1046365625,238.65
2021-06-25 11:23:07.109375000,-32.5,-4.5,55.5,91.80687499999999,23.86,1.1044363750000001,238.65
2021-06-25 11:23:07.117187500,-32.75,-4.25,55.25,91.8059375,18.235,1.1042361875,238.65
2021-06-25 11:23:07.125000000,-33.0,-4.0,55.0,91.80499999999999,12.61,1.104036,238.65
2021-06-25 11:23:07.132812500,-33.0,-4.0,55.0,91.8040625,6.77,1.1038358125,238.65
2021-06-25 11:23:07.140625000,-33.0,-4.0,55.0,91.803125,0.93,1.103635625,238.65
2021-06-25 11:23:07.148437500,-33.0,-4.0,55.0,91.80218749999999,-4.88,1.1034354375,238.65
2021-06-25 11:23:07.156250000,-33.0,-4.0,55.0,91.80125,-10.69,1.10323525,238.65
2021-06-25 11:23:07.164062500,-33.0,-4.25,55.0,91.80031249999999,-16.22,1.1030350625,238.65
2021-06-25 11:23:07.171875000,-33.0,-4.5,55.0,91.799375,-21.75,1.102834875,238.65
2021-06-25 11:23:07.179687500,-33.0,-4.75,55.0,91.79843749999999,-26.759999999999998,1.1026346875,238.65
2021-06-25 11:23:07.187500000,-33.0,-5.0,55.0,91.7975,-31.77,1.1024345,238.65
2021-06-25 11:23:07.195312500,-32.75,-5.0,55.0,91.7965625,-36.105,1.1022343125,238.65
2021-06-25 11:23:07.203125000,-32.5,-5.0,55.0,91.795625,-40.44,1.1020341249999999,238.65
2021-06-25 11:23:07.210937500,-32.25,-5.0,55.0,91.7946875,-44.019999999999996,1.1018339375,238.65
2021-06-25 11:23:07.218750000,-32.0,-5.0,55.0,91.79374999999999,-47.6,1.10163375,238.65
2021-06-25 11:23:07.226562500,-32.0,-5.0,55.0,91.7928125,-50.39,1.1014335625,238.65
2021-06-25 11:23:07.234375000,-32.0,-5.0,55.0,91.79187499999999,-53.18,1.101233375,238.65
2021-06-25 11:23:07.242187500,-32.0,-5.0,55.0,91.7909375,-55.17,1.1010331875,238.65
2021-06-25 11:23:07.250000000,-32.0,-5.0,55.0,91.78999999999999,-57.16,1.100833,238.65
2021-06-25 11:23:07.257812500,-32.0,-5.0,55.0,91.7890625,-58.34,1.10095309375,238.65
2021-06-25 11:23:07.265625000,-32.0,-5.0,55.0,91.788125,-59.52,1.1010731875,238.65
2021-06-25 11:23:07.273437500,-32.0,-5.0,55.0,91.7871875,-59.730000000000004,1.10119328125,238.65
2021-06-25 11:23:07.281250000,-32.0,-5.0,55.0,91.78625,-59.94,1.101313375,238.65
2021-06-25 11:23:07.289062500,-32.0,-4.75,55.0,91.78531249999999,-58.87,1.10143346875,238.65
2021-06-25 11:23:07.296875000,-32.0,-4.5,55.0,91.784375,-57.8,1.1015535625,238.65
2021-06-25 11:23:07.304687500,-32.0,-4.25,55.0,91.78343749999999,-55.07,1.10167365625,238.65
2021-06-25 11:23:07.312500000,-32.0,-4.0,55.0,91.7825,-52.34,1.10179375,238.65
2021-06-25 11:23:07.320312500,-32.0,-4.0,55.0,91.78156249999999,-47.730000000000004,1.10191384375,238.65
2021-06-25 11:23:07.328125000,-32.0,-4.0,55.0,91.780625,-43.12,1.1020339375,238.65
2021-06-25 11:23:07.335937500,-32.0,-4.0,55.0,91.7796875,-36.82,1.10215403125,238.65
2021-06-25 11:23:07.343750000,-32.0,-4.0,55.0,91.77875,-30.52,1.1022741249999999,238.65
2021-06-25 11:23:07.351562500,-32.0,-4.0,55.0,91.7778125,-23.189999999999998,1.10239421875,238.65
2021-06-25 11:23:07.359375000,-32.0,-4.0,55.0,91.77687499999999,-15.86,1.1025143124999999,238.65
2021-06-25 11:23:07.367187500,-32.0,-4.0,55.0,91.7759375,-8.43,1.10263440625,238.65
2021-06-25 11:23:07.375000000,-32.0,-4.0,55.0,91.77499999999999,-1.0,1.1027545,238.65
2021-06-25 11:23:07.382812500,-32.0,-4.0,55.0,91.7740625,5.71,1.10287459375,238.65
2021-06-25 11:23:07.390625000,-32.0,-4.0,55.0,91.773125,12.42,1.1029946875,238.65
2021-06-25 11:23:07.398437500,-32.0,-4.0,55.0,91.7721875,17.96,1.10311478125,238.65
2021-06-25 11:23:07.406250000,-32.0,-4.0,55.0,91.77125,23.5,1.103234875,238.65
2021-06-25 11:23:07.414062500,-32.25,-4.25,55.0,91.7703125,27.85,1.10335496875,238.65
2021-06-25 11:23:07.421875000,-32.5,-4.5,55.0,91.769375,32.2,1.1034750625,238.65
2021-06-25 11:23:07.429687500,-32.75,-4.75,55.0,91.76843749999999,35.55,1.10359515625,238.65
2021-06-25 11:23:07.437500000,-33.0,-5.0,55.0,91.7675,38.9,1.10371525,238.65
2021-06-25 11:23:07.445312500,-32.75,-4.75,55.0,91.76656249999999,41.379999999999995,1.10383534375,238.65
2021-06-25 11:23:07.453125000,-32.5,-4.5,55.0,91.765625,43.86,1.1039554375,238.65
2021-06-25 11:23:07.460937500,-32.25,-4.25,55.0,91.7646875,45.445,1.10407553125,238.65
2021-06-25 11:23:07.468750000,-32.0,-4.0,55.0,91.76375,47.03,1.104195625,238.65
2021-06-25 11:23:07.476562500,-32.0,-4.25,55.0,91.7628125,47.71,1.10431571875,238.65
2021-06-25 11:23:07.484375000,-32.0,-4.5,55.0,91.761875,48.39,1.1044358125,238.65
2021-06-25 11:23:07.492187500,-32.0,-4.75,55.0,91.7609375,48.35,1.1045559062499999,238.65
2021-06-25 11:23:07.500000000,-32.0,-5.0,55.0,91.75999999999999,48.31,1.104676,238.65
2021-06-25 11:23:07.507812500,-32.25,-5.0,55.0,91.7590625,48.025000000000006,1.10447584375,238.65
2021-06-25 11:23:07.515625000,-32.5,-5.0,55.0,91.75812499999999,47.74,1.1042756875,238.65
2021-06-25 11:23:07.523437500,-32.75,-5.0,55.0,91.7571875,47.785,1.10407553125,238.65
2021-06-25 11:23:07.531250000,-33.0,-5.0,55.0,91.75625,47.83,1.1038753749999999,238.65
2021-06-25 11:23:07.539062500,-33.0,-5.0,55.0,91.7553125,48.525,1.10367521875,238.65
2021-06-25 11:23:07.546875000,-33.0,-5.0,55.0,91.754375,49.22,1.1034750625,238.65
2021-06-25 11:23:07.554687500,-33.0,-5.0,55.0,91.7534375,50.349999999999994,1.10327490625,238.65
2021-06-25 11:23:07.562500000,-33.0,-5.0,55.0,91.7525,51.48,1.10307475,238.65
2021-06-25 11:23:07.570312500,-32.75,-5.0,55.0,91.7515625,52.33,1.10287459375,238.65
2021-06-25 11:23:07.578125000,-32.5,-5.0,55.0,91.750625,53.18,1.1026744375,238.65
2021-06-25 11:23:07.585937500,-32.25,-5.0,55.0,91.7496875,52.955,1.10247428125,238.65
2021-06-25 11:23:07.593750000,-32.0,-5.0,55.0,91.74875,52.73,1.102274125,238.65
2021-06-25 11:23:07.601562500,-32.0,-5.0,55.0,91.7478125,50.995,1.10207396875,238.65
2021-06-25 11:23:07.609375000,-32.0,-5.0,55.0,91.746875,49.26,1.1018738125,238.65
2021-06-25 11:23:07.617187500,-32.0,-5.0,55.0,91.7459375,46.265,1.10167365625,238.65
2021-06-25 11:23:07.625000000,-32.0,-5.0,55.0,91.745,43.27,1.1014735,238.65
2021-06-25 11:23:07.632812500,-32.0,-5.0,55.0,91.7440625,39.785,1.10127334375,238.65
2021-06-25 11:23:07.640625000,-32.0,-5.0,55.0,91.743125,36.3,1.1010731875,238.65
2021-06-25 11:23:07.648437500,-32.0,-5.0,55.0,91.7421875,33.239999999999995,1.10087303125,238.65
2021-06-25 11:23:07.656250000,-32.0,-5.0,55.0,91.74125,30.18,1.1006728749999999,238.65
2021-06-25 11:23:07.664062500,-32.0,-5.0,55.0,91.7403125,28.085,1.10047271875,238.65
2021-06-25 11:23:07.671875000,-32.0,-5.0,55.0,91.739375,25.99,1.1002725625,238.65
2021-06-25 11:23:07.679687500,-32.0,-5.0,55.0,91.7384375,24.81,1.10007240625,238.65
2021-06-25 11:23:07.687500000,-32.0,-5.0,55.0,91.7375,23.63,1.09987225,238.65
2021-06-25 11:23:07.695312500,-32.0,-5.0,55.0,91.7365625,22.84,1.09967209375,238.65
2021-06-25 11:23:07.703125000,-32.0,-5.0,55.0,91.735625,22.05,1.0994719375,238.65
2021-06-25 11:23:07.710937500,-32.0,-5.0,55.0,91.7346875,21.015,1.09927178125,238.65
2021-06-25 11:23:07.718750000,-32.0,-5.0,55.0,91.73375,19.98,1.099071625,238.65
2021-06-25 11:23:07.726562500,-32.0,-5.0,55.0,91.7328125,18.395,1.09887146875,238.65
2021-06-25 11:23:07.734375000,-32.0,-5.0,55.0,91.731875,16.81,1.0986713125,238.65
2021-06-25 11:23:07.742187500,-32.0,-5.0,55.0,91.7309375,14.834999999999999,1.09847115625,238.65
2021-06-25 11:23:07.750000000,-32.0,-5.0,55.0,91.73,12.86,1.098271,238.65
2021-06-25 11:23:07.757812500,-32.0,-5.0,55.0,91.7290625,10.989999999999998,1.09831103125,238.65
2021-06-25 11:23:07.765625000,-32.0,-5.0,55.0,91.728125,9.12,1.0983510625,238.65
2021-06-25 11:23:07.773437500,-32.0,-5.0,55.0,91.7271875,7.715,1.09839109375,238.65
2021-06-25 11:23:07.781250000,-32.0,-5.0,55.0,91.72625000000001,6.31,1.098431125,238.65
2021-06-25 11:23:07.789062500,-32.0,-5.0,55.0,91.7253125,5.115,1.09847115625,238.65
2021-06-25 11:23:07.796875000,-32.0,-5.0,55.0,91.724375,3.92,1.0985111875,238.65
2021-06-25 11:23:07.804687500,-32.0,-5.0,55.0,91.7234375,1.96,1.09855121875,238.65
2021-06-25 11:23:07.812500000,-32.0,-5.0,55.0,91.7225,0.0,1.0985912500000001,238.65
2021-06-25 11:23:07.820312500,-32.0,-5.0,55.0,91.7215625,-4.08,1.09863128125,238.65
2021-06-25 11:23:07.828125000,-32.0,-5.0,55.0,91.720625,-8.16,1.0986713125,238.65
2021-06-25 11:23:07.835937500,-32.0,-5.0,55.0,91.7196875,-15.38,1.09871134375,238.65
2021-06-25 11:23:07.843750000,-32.0,-5.0,55.0,91.71875,-22.6,1.098751375,238.65
2021-06-25 11:23:07.851562500,-32.0,-5.0,55.0,91.71781250000001,-33.07,1.09879140625,238.65
2021-06-25 11:23:07.859375000,-32.0,-5.0,55.0,91.716875,-43.54,1.0988314375000001,238.65
2021-06-25 11:23:07.867187500,-32.0,-5.0,55.0,91.7159375,-56.370000000000005,1.09887146875,238.65
2021-06-25 11:23:07.875000000,-32.0,-5.0,55.0,91.715,-69.2,1.0989115,238.65
2021-06-25 11:23:07.882812500,-32.0,-5.0,55.0,91.7140625,-83.02000000000001,1.09895153125,238.65
2021-06-25 11:23:07.890625000,-32.0,-5.0,55.0,91.713125,-96.84,1.0989915625,238.65
2021-06-25 11:23:07.898437500,-32.0,-5.0,55.0,91.7121875,-110.59,1.0990315937500001,238.65
2021-06-25 11:23:07.906250000,-32.0,-5.0,55.0,91.71125,-124.34,1.099071625,238.65
2021-06-25 11:23:07.914062500,-32.0,-5.0,55.0,91.7103125,-137.845,1.09911165625,238.65
2021-06-25 11:23:07.921875000,-32.0,-5.0,55.0,91.70937500000001,-151.35,1.0991516875,238.65
2021-06-25 11:23:07.929687500,-32.0,-5.0,55.0,91.7084375,-165.305,1.09919171875,238.65
2021-06-25 11:23:07.937500000,-32.0,-5.0,55.0,91.7075,-179.26,1.09923175,238.65
2021-06-25 11:23:07.945312500,-32.0,-5.0,55.0,91.7065625,-194.51999999999998,1.0992717812500001,238.65
2021-06-25 11:23:07.953125000,-32.0,-5.0,55.0,91.705625,-209.78,1.0993118125,238.65
2021-06-25 11:23:07.960937500,-32.0,-5.0,55.0,91.7046875,-226.465,1.09935184375,238.65
2021-06-25 11:23:07.968750000,-32.0,-5.0,55.0,91.70375,-243.15,1.099391875,238.65
2021-06-25 11:23:07.976562500,-32.0,-5.0,55.0,91.70281250000001,-260.03000000000003,1.09943190625,238.65
2021-06-25 11:23:07.984375000,-32.0,-5.0,55.0,91.701875,-276.91,1.0994719375000002,238.65
2021-06-25 11:23:07.992187500,-32.0,-5.0,55.0,91.70093750000001,-291.56500000000005,1.0995119687500001,238.65
2021-06-25 11:23:08.000000000,-32.0,-5.0,55.0,91.7,-306.22,1.099552,238.65
2021-06-25 11:23:08.007812500,-32.0,-5.0,55.0,91.698671875,-315.95500000000004,1.09935184375,238.65
2021-06-25 11:23:08.015625000,-32.0,-5.0,55.0,91.69734375,-325.69,1.0991516875,238.65
2021-06-25 11:23:08.023437500,-32.0,-5.0,55.0,91.696015625,-328.58000000000004,1.09895153125,238.65
2021-06-25 11:23:08.031250000,-32.0,-5.0,55.0,91.6946875,-331.47,1.098751375,238.65
2021-06-25 11:23:08.039062500,-32.0,-5.0,55.0,91.693359375,-327.07500000000005,1.0985512187500002,238.65
2021-06-25 11:23:08.046875000,-32.0,-5.0,55.0,91.69203125,-322.68,1.0983510625000001,238.65
2021-06-25 11:23:08.054687500,-32.0,-5.0,55.0,91.690703125,-312.1,1.0981509062500001,238.65
2021-06-25 11:23:08.062500000,-32.0,-5.0,55.0,91.689375,-301.52,1.09795075,238.65
2021-06-25 11:23:08.070312500,-32.0,-5.0,55.0,91.688046875,-286.78499999999997,1.09775059375,238.65
2021-06-25 11:23:08.078125000,-32.0,-5.0,55.0,91.68671875,-272.05,1.0975504375,238.65
2021-06-25 11:23:08.085937500,-32.0,-5.0,55.0,91.685390625,-255.27,1.09735028125,238.65
2021-06-25 11:23:08.093750000,-32.0,-5.0,55.0,91.6840625,-238.49,1.0971501250000002,238.65
2021-06-25 11:23:08.101562500,-32.0,-5.0,55.0,91.68273437500001,-221.26,1.0969499687500002,238.65
2021-06-25 11:23:08.109375000,-32.0,-5.0,55.0,91.68140625000001,-204.03,1.0967498125000001,238.65
2021-06-25 11:23:08.117187500,-32.0,-5.0,55.0,91.68007812500001,-187.235,1.0965496562500001,238.65
2021-06-25 11:23:08.125000000,-32.0,-5.0,55.0,91.67875000000001,-170.44,1.0963495,238.65
2021-06-25 11:23:08.132812500,-32.0,-5.0,55.0,91.67742187500001,-154.505,1.09614934375,238.65
2021-06-25 11:23:08.140625000,-32.0,-5.0,55.0,91.67609375,-138.57,1.0959491875,238.65
2021-06-25 11:23:08.148437500,-32.0,-5.0,55.0,91.674765625,-123.725,1.09574903125,238.65
2021-06-25 11:23:08.156250000,-32.0,-5.0,55.0,91.6734375,-108.88,1.095548875,238.65
2021-06-25 11:23:08.164062500,-32.0,-5.0,55.0,91.672109375,-95.4,1.0953487187500002,238.65
2021-06-25 11:23:08.171875000,-32.0,-5.0,55.0,91.67078125,-81.92,1.0951485625000001,238.65
2021-06-25 11:23:08.179687500,-32.0,-5.0,55.0,91.669453125,-70.08,1.0949484062500001,238.65
2021-06-25 11:23:08.187500000,-32.0,-5.0,55.0,91.668125,-58.24,1.09474825,238.65
2021-06-25 11:23:08.195312500,-32.0,-5.0,55.0,91.666796875,-48.185,1.09454809375,238.65
2021-06-25 11:23:08.203125000,-32.0,-5.0,55.0,91.66546875,-38.13,1.0943479375,238.65
2021-06-25 11:23:08.210937500,-32.0,-5.0,55.0,91.664140625,-29.660000000000004,1.09414778125,238.65
2021-06-25 11:23:08.218750000,-32.0,-5.0,55.0,91.6628125,-21.19,1.0939476250000002,238.65
2021-06-25 11:23:08.226562500,-32.0,-5.0,55.0,91.661484375,-13.74,1.0937474687500002,238.65
2021-06-25 11:23:08.234375000,-32.0,-5.0,55.0,91.66015625,-6.29,1.0935473125000001,238.65
2021-06-25 11:23:08.242187500,-32.0,-5.0,55.0,91.658828125,0.8549999999999995,1.0933471562500001,238.65
2021-06-25 11:23:08.250000000,-32.0,-5.0,55.0,91.6575,8.0,1.093147,238.65
2021-06-25 11:23:08.257812500,-32.0,-5.0,55.0,91.656171875,15.405,1.09318703125,238.65
2021-06-25 11:23:08.265625000,-32.0,-5.0,55.0,91.65484375,22.81,1.0932270625,238.65
2021-06-25 11:23:08.273437500,-32.0,-5.0,55.0,91.653515625,30.58,1.09326709375,238.65
2021-06-25 11:23:08.281250000,-32.0,-5.0,55.0,91.6521875,38.35,1.0933071250000002,238.65
2021-06-25 11:23:08.289062500,-32.0,-5.0,55.0,91.650859375,46.06,1.0933471562500001,238.65
2021-06-25 11:23:08.296875000,-32.0,-5.0,55.0,91.64953125,53.77,1.0933871875,238.65
2021-06-25 11:23:08.304687500,-32.0,-5.0,55.0,91.64820312500001,60.614999999999995,1.09342721875,238.65
2021-06-25 11:23:08.312500000,-32.0,-5.0,55.0,91.64687500000001,67.46,1.09346725,238.65
2021-06-25 11:23:08.320312500,-32.0,-5.0,55.0,91.64554687500001,72.58,1.09350728125,238.65
2021-06-25 11:23:08.328125000,-32.0,-5.0,55.0,91.64421875000001,77.7,1.0935473125000001,238.65
2021-06-25 11:23:08.335937500,-32.0,-5.0,55.0,91.642890625,80.58,1.09358734375,238.65
2021-06-25 11:23:08.343750000,-32.0,-5.0,55.0,91.6415625,83.46,1.093627375,238.65
2021-06-25 11:23:08.351562500,-32.0,-5.0,55.0,91.640234375,84.115,1.09366740625,238.65
2021-06-25 11:23:08.359375000,-32.0,-5.0,55.0,91.63890625,84.77,1.0937074375,238.65
2021-06-25 11:23:08.367187500,-32.0,-5.0,55.0,91.637578125,83.755,1.09374746875,238.65
2021-06-25 11:23:08.375000000,-32.0,-5.0,55.0,91.63625,82.74,1.0937875,238.65
2021-06-25 11:23:08.382812500,-32.0,-5.0,55.0,91.634921875,80.895,1.09382753125,238.65
2021-06-25 11:23:08.390625000,-32.0,-5.0,55.0,91.63359375,79.05,1.0938675625,238.65
2021-06-25 11:23:08.398437500,-32.0,-5.0,55.0,91.632265625,77.18,1.09390759375,238.65
2021-06-25 11:23:08.406250000,-32.0,-5.0,55.0,91.6309375,75.31,1.093947625,238.65
2021-06-25 11:23:08.414062500,-32.0,-5.0,55.0,91.629609375,73.99000000000001,1.09398765625,238.65
2021-06-25 11:23:08.421875000,-32.0,-5.0,55.0,91.62828125,72.67,1.0940276875,238.65
2021-06-25 11:23:08.429687500,-32.0,-5.0,55.0,91.626953125,72.105,1.09406771875,238.65
2021-06-25 11:23:08.437500000,-32.0,-5.0,55.0,91.625625,71.54,1.09410775,238.65
2021-06-25 11:23:08.445312500,-32.0,-5.0,55.0,91.624296875,71.61500000000001,1.09414778125,238.65
2021-06-25 11:23:08.453125000,-32.0,-5.0,55.0,91.62296875,71.69,1.0941878125,238.65
2021-06-25 11:23:08.460937500,-32.0,-5.0,55.0,91.621640625,72.065,1.09422784375,238.65
2021-06-25 11:23:08.468750000,-32.0,-5.0,55.0,91.6203125,72.44,1.094267875,238.65
2021-06-25 11:23:08.476562500,-32.0,-5.0,55.0,91.618984375,72.67,1.09430790625,238.65
2021-06-25 11:23:08.484375000,-32.0,-5.0,55.0,91.61765625,72.9,1.0943479375,238.65
2021-06-25 11:23:08.492187500,-32.0,-5.0,55.0,91.616328125,72.575,1.09438796875,238.65
2021-06-25 11:23:08.500000000,-32.0,-5.0,55.0,91.61500000000001,72.25,1.094428,238.65
2021-06-25 11:23:08.507812500,-32.0,-5.0,55.0,91.61367187500001,71.1,1.0943479375,238.65
2021-06-25 11:23:08.515625000,-32.0,-5.0,55.0,91.61234375000001,69.95,1.094267875,238.65
2021-06-25 11:23:08.523437500,-32.0,-5.0,55.0,91.61101562500001,67.94,1.0941878125,238.65
2021-06-25 11:23:08.531250000,-32.0,-5.0,55.0,91.6096875,65.93,1.09410775,238.65
2021-06-25 11:23:08.539062500,-32.0,-5.0,55.0,91.608359375,63.285000000000004,1.0940276875,238.65
2021-06-25 11:23:08.546875000,-32.0,-5.0,55.0,91.60703125,60.64,1.093947625,238.65
2021-06-25 11:23:08.554687500,-32.0,-5.0,55.0,91.605703125,57.795,1.0938675625,238.65
2021-06-25 11:23:08.562500000,-32.0,-5.0,55.0,91.604375,54.95,1.0937875,238.65
2021-06-25 11:23:08.570312500,-32.0,-5.0,55.0,91.603046875,52.325,1.0937074375,238.65
2021-06-25 11:23:08.578125000,-32.0,-5.0,55.0,91.60171875,49.7,1.093627375,238.65
2021-06-25 11:23:08.585937500,-32.0,-5.0,55.0,91.600390625,47.540000000000006,1.0935473125,238.65
2021-06-25 11:23:08.593750000,-32.0,-5.0,55.0,91.5990625,45.38,1.09346725,238.65
2021-06-25 11:23:08.601562500,-32.0,-5.0,55.0,91.597734375,43.644999999999996,1.0933871875,238.65
2021-06-25 11:23:08.609375000,-32.0,-5.0,55.0,91.59640625,41.91,1.093307125,238.65
2021-06-25 11:23:08.617187500,-32.0,-5.0,55.0,91.595078125,40.355,1.0932270625,238.65
2021-06-25 11:23:08.625000000,-32.0,-5.0,55.0,91.59375,38.8,1.093147,238.65
2021-06-25 11:23:08.632812500,-32.0,-5.0,55.0,91.592421875,37.12,1.0930669375,238.65
2021-06-25 11:23:08.640625000,-32.0,-5.0,55.0,91.59109375,35.44,1.092986875,238.65
2021-06-25 11:23:08.648437500,-32.0,-5.0,55.0,91.589765625,33.51,1.0929068124999999,238.65
2021-06-25 11:23:08.656250000,-32.0,-5.0,55.0,91.5884375,31.58,1.09282675,238.65
2021-06-25 11:23:08.664062500,-32.0,-5.0,55.0,91.587109375,29.479999999999997,1.0927466875,238.65
2021-06-25 11:23:08.671875000,-32.0,-5.0,55.0,91.58578125,27.38,1.092666625,238.65
2021-06-25 11:23:08.679687500,-32.0,-5.0,55.0,91.584453125,25.345,1.0925865625,238.65
2021-06-25 11:23:08.687500000,-32.0,-5.0,55.0,91.583125,23.31,1.0925065,238.65
2021-06-25 11:23:08.695312500,-32.0,-5.0,55.0,91.581796875,21.52,1.0924264375,238.65
2021-06-25 11:23:08.703125000,-32.0,-5.0,55.0,91.58046875000001,19.73,1.092346375,238.65
2021-06-25 11:23:08.710937500,-32.0,-5.0,55.0,91.57914062500001,18.16,1.0922663125,238.65
2021-06-25 11:23:08.718750000,-32.0,-5.0,55.0,91.57781250000001,16.59,1.09218625,238.65
2021-06-25 11:23:08.726562500,-32.0,-5.0,55.0,91.576484375,14.98,1.0921061875,238.65
2021-06-25 11:23:08.734375000,-32.0,-5.0,55.0,91.57515625,13.37,1.092026125,238.65
2021-06-25 11:23:08.742187500,-32.0,-5.0,55.0,91.573828125,11.344999999999999,1.0919460625,238.65
2021-06-25 11:23:08.750000000,-32.0,-5.0,55.0,91.5725,9.32,1.091866,238.65
2021-06-25 11:23:08.757812500,-32.0,-5.0,55.0,91.571171875,6.55,1.091866,238.65
2021-06-25 11:23:08.765625000,-32.0,-5.0,55.0,91.56984375,3.78,1.091866,238.65
2021-06-25 11:23:08.773437500,-32.0,-5.0,55.0,91.568515625,0.14500000000000002,1.091866,238.65
2021-06-25 11:23:08.781250000,-32.0,-5.0,55.0,91.5671875,-3.49,1.091866,238.65
2021-06-25 11:23:08.789062500,-32.0,-5.0,55.0,91.565859375,-7.82,1.091866,238.65
2021-06-25 11:23:08.796875000,-32.0,-5.0,55.0,91.56453125,-12.15,1.091866,238.65
2021-06-25 11:23:08.804687500,-32.0,-5.0,55.0,91.563203125,-16.745,1.091866,238.65
2021-06-25 11:23:08.812500000,-32.0,-5.0,55.0,91.561875,-21.34,1.091866,238.65
2021-06-25 11:23:08.820312500,-32.0,-5.0,55.0,91.560546875,-25.59,1.091866,238.65
2021-06-25 11:23:08.828125000,-32.0,-5.0,55.0,91.55921875,-29.84,1.091866,238.65
2021-06-25 11:23:08.835937500,-32.0,-5.0,55.0,91.557890625,-33.095,1.091866,238.65
2021-06-25 11:23:08.843750000,-32.0,-5.0,55.0,91.5565625,-36.35,1.091866,238.65
2021-06-25 11:23:08.851562500,-32.0,-5.0,55.0,91.555234375,-38.035,1.091866,238.65
2021-06-25 11:23:08.859375000,-32.0,-5.0,55.0,91.55390625,-39.72,1.091866,238.65
2021-06-25 11:23:08.867187500,-32.0,-5.0,55.0,91.552578125,-39.504999999999995,1.091866,238.65
2021-06-25 11:23:08.875000000,-32.0,-5.0,55.0,91.55125,-39.29,1.091866,238.65
2021-06-25 11:23:08.882812500,-32.0,-5.0,55.0,91.549921875,-37.120000000000005,1.091866,238.65
2021-06-25 11:23:08.890625000,-32.0,-5.0,55.0,91.54859375,-34.95,1.091866,238.65
2021-06-25 11:23:08.898437500,-32.0,-5.0,55.0,91.547265625,-31.145000000000003,1.091866,238.65
2021-06-25 11:23:08.906250000,-32.0,-5.0,55.0,91.54593750000001,-27.34,1.091866,238.65
2021-06-25 11:23:08.914062500,-32.0,-5.0,55.0,91.54460937500001,-22.475,1.091866,238.65
2021-06-25 11:23:08.921875000,-32.0,-5.0,55.0,91.54328125,-17.61,1.091866,238.65
2021-06-25 11:23:08.929687500,-32.0,-5.0,55.0,91.541953125,-12.41,1.091866,238.65
2021-06-25 11:23:08.937500000,-32.0,-5.0,55.0,91.540625,-7.21,1.091866,238.65
2021-06-25 11:23:08.945312500,-32.0,-5.0,55.0,91.539296875,-2.33,1.091866,238.65
2021-06-25 11:23:08.953125000,-32.0,-5.0,55.0,91.53796875,2.55,1.091866,238.65
2021-06-25 11:23:08.960937500,-32.0,-5.0,55.0,91.536640625,6.659999999999999,1.091866,238.65
2021-06-25 11:23:08.968750000,-32.0,-5.0,55.0,91.5353125,10.77,1.091866,238.65
2021-06-25 11:23:08.976562500,-32.0,-5.0,55.0,91.533984375,13.98,1.091866,238.65
2021-06-25 11:23:08.984375000,-32.0,-5.0,55.0,91.53265625,17.19,1.091866,238.65
2021-06-25 11:23:08.992187500,-32.0,-5.0,55.0,91.531328125,19.625,1.091866,238.65
2021-06-25 11:23:09.000000000,-32.0,-5.0,55.0,91.53,22.06,1.091866,238.65
2021-06-25 11:23:09.007812500,-32.0,-5.0,55.0,91.5284375,23.965,1.09166584375,238.65
2021-06-25 11:23:09.015625000,-32.0,-5.0,55.0,91.526875,25.87,1.0914656875,238.65
2021-06-25 11:23:09.023437500,-32.0,-5.0,55.0,91.5253125,27.465,1.09126553125,238.65
2021-06-25 11:23:09.031250000,-32.0,-5.0,55.0,91.52375,29.06,1.091065375,238.65
2021-06-25 11:23:09.039062500,-32.0,-5.0,55.0,91.5221875,30.42,1.09086521875,238.65
2021-06-25 11:23:09.046875000,-32.0,-5.0,55.0,91.520625,31.78,1.0906650625,238.65
2021-06-25 11:23:09.054687500,-32.0,-5.0,55.0,91.5190625,32.85,1.09046490625,238.65
2021-06-25 11:23:09.062500000,-32.0,-5.0,55.0,91.5175,33.92,1.09026475,238.65
2021-06-25 11:23:09.070312500,-32.0,-5.0,55.0,91.5159375,34.58,1.09006459375,238.65
2021-06-25 11:23:09.078125000,-32.0,-5.0,55.0,91.514375,35.24,1.0898644375,238.65
2021-06-25 11:23:09.085937500,-32.0,-5.0,55.0,91.5128125,35.42,1.08966428125,238.65
2021-06-25 11:23:09.093750000,-32.0,-5.0,55.0,91.51125,35.6,1.0894641250000001,238.65
2021-06-25 11:23:09.101562500,-32.0,-5.0,55.0,91.5096875,35.325,1.08926396875,238.65
2021-06-25 11:23:09.109375000,-32.0,-5.0,55.0,91.508125,35.05,1.0890638125,238.65
2021-06-25 11:23:09.117187500,-32.0,-5.0,55.0,91.5065625,34.44,1.08886365625,238.65
2021-06-25 11:23:09.125000000,-32.0,-5.0,55.0,91.505,33.83,1.0886635,238.65
2021-06-25 11:23:09.132812500,-32.0,-5.0,55.0,91.5034375,33.055,1.08846334375,238.65
2021-06-25 11:23:09.140625000,-32.0,-5.0,55.0,91.501875,32.28,1.0882631875,238.65
2021-06-25 11:23:09.148437500,-32.0,-5.0,55.0,91.5003125,31.445,1.08806303125,238.65
2021-06-25 11:23:09.156250000,-32.0,-5.0,55.0,91.49875,30.61,1.087862875,238.65
2021-06-25 11:23:09.164062500,-32.0,-5.0,55.0,91.4971875,29.77,1.08766271875,238.65
2021-06-25 11:23:09.171875000,-32.0,-5.0,55.0,91.495625,28.93,1.0874625625,238.65
2021-06-25 11:23:09.179687500,-32.0,-5.0,55.0,91.4940625,28.085,1.08726240625,238.65
2021-06-25 11:23:09.187500000,-32.0,-5.0,55.0,91.4925,27.24,1.08706225,238.65
2021-06-25 11:23:09.195312500,-32.0,-5.0,55.0,91.4909375,26.409999999999997,1.08686209375,238.65
2021-06-25 11:23:09.203125000,-32.0,-5.0,55.0,91.489375,25.58,1.0866619375,238.65
2021-06-25 11:23:09.210937500,-32.0,-5.0,55.0,91.4878125,24.835,1.08646178125,238.65
2021-06-25 11:23:09.218750000,-32.0,-5.0,55.0,91.48625,24.09,1.0862616250000001,238.65
2021-06-25 11:23:09.226562500,-32.0,-5.0,55.0,91.4846875,23.525,1.08606146875,238.65
2021-06-25 11:23:09.234375000,-32.0,-5.0,55.0,91.483125,22.96,1.0858613125,238.65
2021-06-25 11:23:09.242187500,-32.0,-5.0,55.0,91.4815625,22.61,1.08566115625,238.65
2021-06-25 11:23:09.250000000,-32.0,-5.0,55.0,91.48,22.26,1.085461,238.65
2021-06-25 11:23:09.257812500,-32.0,-5.0,55.0,91.4784375,22.05,1.0855410625,238.65
2021-06-25 11:23:09.265625000,-32.0,-5.0,55.0,91.476875,21.84,1.085621125,238.65
2021-06-25 11:23:09.273437500,-32.0,-5.0,55.0,91.4753125,21.6,1.0857011875,238.65
2021-06-25 11:23:09.281250000,-32.0,-5.0,55.0,91.47375,21.36,1.08578125,238.65
2021-06-25 11:23:09.289062500,-32.0,-5.0,55.0,91.4721875,20.875,1.0858613125,238.65
2021-06-25 11:23:09.296875000,-32.0,-5.0,55.0,91.470625,20.39,1.085941375,238.65
2021-06-25 11:23:09.304687500,-32.0,-5.0,55.0,91.4690625,19.495,1.0860214375,238.65
2021-06-25 11:23:09.312500000,-32.0,-5.0,55.0,91.4675,18.6,1.0861015,238.65
2021-06-25 11:23:09.320312500,-32.0,-5.0,55.0,91.4659375,17.3,1.0861815625,238.65
2021-06-25 11:23:09.328125000,-32.0,-5.0,55.0,91.464375,16.0,1.086261625,238.65
2021-06-25 11:23:09.335937500,-32.0,-5.0,55.0,91.4628125,14.42,1.0863416875,238.65
2021-06-25 11:23:09.343750000,-32.0,-5.0,55.0,91.46125,12.84,1.08642175,238.65
2021-06-25 11:23:09.351562500,-32.0,-5.0,55.0,91.4596875,11.18,1.0865018124999999,238.65
2021-06-25 11:23:09.359375000,-32.0,-5.0,55.0,91.458125,9.52,1.086581875,238.65
2021-06-25 11:23:09.367187500,-32.0,-5.0,55.0,91.4565625,7.965,1.0866619375,238.65
2021-06-25 11:23:09.375000000,-32.0,-5.0,55.0,91.455,6.41,1.086742,238.65
2021-06-25 11:23:09.382812500,-32.0,-5.0,55.0,91.4534375,5.04,1.0868220625,238.65
2021-06-25 11:23:09.390625000,-32.0,-5.0,55.0,91.451875,3.67,1.086902125,238.65
2021-06-25 11:23:09.398437500,-32.0,-5.0,55.0,91.4503125,2.435,1.0869821875,238.65
2021-06-25 11:23:09.406250000,-32.0,-5.0,55.0,91.44875,1.2,1.08706225,238.65
2021-06-25 11:23:09.414062500,-32.0,-5.0,55.0,91.4471875,-0.040000000000000036,1.0871423125,238.65
2021-06-25 11:23:09.421875000,-32.0,-5.0,55.0,91.445625,-1.28,1.087222375,238.65
2021-06-25 11:23:09.429687500,-32.0,-5.0,55.0,91.4440625,-2.74,1.0873024375,238.65
2021-06-25 11:23:09.437500000,-32.0,-5.0,55.0,91.4425,-4.2,1.0873825,238.65
2021-06-25 11:23:09.445312500,-32.0,-5.0,55.0,91.4409375,-6.08,1.0874625625,238.65
2021-06-25 11:23:09.453125000,-32.0,-5.0,55.0,91.439375,-7.96,1.087542625,238.65
2021-06-25 11:23:09.460937500,-32.0,-5.0,55.0,91.4378125,-10.37,1.0876226875,238.65
2021-06-25 11:23:09.468750000,-32.0,-5.0,55.0,91.43625,-12.78,1.08770275,238.65
2021-06-25 11:23:09.476562500,-32.0,-5.0,55.0,91.4346875,-15.66,1.0877828125,238.65
2021-06-25 11:23:09.484375000,-32.0,-5.0,55.0,91.433125,-18.54,1.087862875,238.65
2021-06-25 11:23:09.492187500,-32.0,-5.0,55.0,91.4315625,-21.545,1.0879429375,238.65
2021-06-25 11:23:09.500000000,-32.0,-5.0,55.0,91.43,-24.55,1.088023,238.65
2021-06-25 11:23:09.507812500,-32.0,-5.0,55.0,91.4284375,-27.130000000000003,1.08798296875,238.65
2021-06-25 11:23:09.515625000,-32.0,-5.0,55.0,91.426875,-29.71,1.0879429375,238.65
2021-06-25 11:23:09.523437500,-32.0,-5.0,55.0,91.4253125,-31.18,1.08790290625,238.65
2021-06-25 11:23:09.531250000,-32.0,-5.0,55.0,91.42375,-32.65,1.087862875,238.65
2021-06-25 11:23:09.539062500,-32.0,-5.0,55.0,91.42218749999999,-32.445,1.08782284375,238.65
2021-06-25 11:23:09.546875000,-32.0,-5.0,55.0,91.420625,-32.24,1.0877828125,238.65
2021-06-25 11:23:09.554687500,-32.0,-5.0,55.0,91.4190625,-30.105,1.08774278125,238.65
2021-06-25 11:23:09.562500000,-32.0,-5.0,55.0,91.4175,-27.97,1.08770275,238.65
2021-06-25 11:23:09.570312500,-32.0,-5.0,55.0,91.4159375,-24.125,1.08766271875,238.65
2021-06-25 11:23:09.578125000,-32.0,-5.0,55.0,91.41437499999999,-20.28,1.0876226875,238.65
2021-06-25 11:23:09.585937500,-32.0,-5.0,55.0,91.4128125,-15.32,1.08758265625,238.65
2021-06-25 11:23:09.593750000,-32.0,-5.0,55.0,91.41125,-10.36,1.087542625,238.65
2021-06-25 11:23:09.601562500,-32.0,-5.0,55.0,91.4096875,-5.1,1.08750259375,238.65
2021-06-25 11:23:09.609375000,-32.0,-5.0,55.0,91.408125,0.16,1.0874625625,238.65
2021-06-25 11:23:09.617187500,-32.0,-5.0,55.0,91.40656249999999,4.97,1.08742253125,238.65
2021-06-25 11:23:09.625000000,-32.0,-5.0,55.0,91.405,9.78,1.0873825,238.65
2021-06-25 11:23:09.632812500,-32.0,-5.0,55.0,91.4034375,13.665,1.08734246875,238.65
2021-06-25 11:23:09.640625000,-32.0,-5.0,55.0,91.401875,17.55,1.0873024375,238.65
2021-06-25 11:23:09.648437500,-32.0,-5.0,55.0,91.4003125,20.380000000000003,1.08726240625,238.65
2021-06-25 11:23:09.656250000,-32.0,-5.0,55.0,91.39874999999999,23.21,1.087222375,238.65
2021-06-25 11:23:09.664062500,-32.0,-5.0,55.0,91.3971875,25.145,1.0871823437500001,238.65
2021-06-25 11:23:09.671875000,-32.0,-5.0,55.0,91.395625,27.08,1.0871423125000002,238.65
2021-06-25 11:23:09.679687500,-32.0,-5.0,55.0,91.3940625,28.395,1.08710228125,238.65
2021-06-25 11:23:09.687500000,-32.0,-5.0,55.0,91.3925,29.71,1.08706225,238.65
2021-06-25 11:23:09.695312500,-32.0,-5.0,55.0,91.39093749999999,30.655,1.08702221875,238.65
2021-06-25 11:23:09.703125000,-32.0,-5.0,55.0,91.389375,31.6,1.0869821875,238.65
2021-06-25 11:23:09.710937500,-32.0,-5.0,55.0,91.3878125,32.305,1.0869421562500001,238.65
2021-06-25 11:23:09.718750000,-32.0,-5.0,55.0,91.38625,33.01,1.0869021250000002,238.65
2021-06-25 11:23:09.726562500,-32.0,-5.0,55.0,91.3846875,33.489999999999995,1.08686209375,238.65
2021-06-25 11:23:09.734375000,-32.0,-5.0,55.0,91.38312499999999,33.97,1.0868220625,238.65
2021-06-25 11:23:09.742187500,-32.0,-5.0,55.0,91.3815625,34.17,1.08678203125,238.65
2021-06-25 11:23:09.750000000,-32.0,-5.0,55.0,91.38,34.37,1.086742,238.65
2021-06-25 11:23:09.757812500,-32.0,-5.0,55.0,91.3784375,34.254999999999995,1.0865018125,238.65
2021-06-25 11:23:09.765625000,-32.0,-5.0,55.0,91.376875,34.14,1.0862616250000001,238.65
2021-06-25 11:23:09.773437500,-32.0,-5.0,55.0,91.37531249999999,33.75,1.0860214375000001,238.65
2021-06-25 11:23:09.781250000,-32.0,-5.0,55.0,91.37375,33.36,1.0857812500000001,238.65
2021-06-25 11:23:09.789062500,-32.0,-5.0,55.25,91.3721875,32.785,1.0855410625000002,238.65
2021-06-25 11:23:09.796875000,-32.0,-5.0,55.5,91.370625,32.21,1.0853008750000002,238.65
2021-06-25 11:23:09.804687500,-32.0,-5.0,55.75,91.3690625,31.565,1.0850606875000002,238.65
2021-06-25 11:23:09.812500000,-32.0,-5.0,56.0,91.36749999999999,30.92,1.0848205000000002,238.65
2021-06-25 11:23:09.820312500,-32.0,-5.0,55.75,91.3659375,30.29,1.0845803125,238.65
2021-06-25 11:23:09.828125000,-32.0,-5.0,55.5,91.364375,29.66,1.084340125,238.65
2021-06-25 11:23:09.835937500,-32.0,-5.0,55.25,91.3628125,29.064999999999998,1.0840999375,238.65
2021-06-25 11:23:09.843750000,-32.0,-5.0,55.0,91.36125,28.47,1.08385975,238.65
2021-06-25 11:23:09.851562500,-32.0,-5.0,55.0,91.35968749999999,27.9,1.0836195625,238.65
2021-06-25 11:23:09.859375000,-32.0,-5.0,55.0,91.358125,27.33,1.083379375,238.65
2021-06-25 11:23:09.867187500,-32.0,-5.0,55.0,91.3565625,26.765,1.0831391875,238.65
2021-06-25 11:23:09.875000000,-32.0,-5.0,55.0,91.355,26.2,1.082899,238.65
2021-06-25 11:23:09.882812500,-32.0,-5.0,55.0,91.3534375,25.595,1.0826588125,238.65
2021-06-25 11:23:09.890625000,-32.0,-5.0,55.0,91.35187499999999,24.99,1.082418625,238.65
2021-06-25 11:23:09.898437500,-32.0,-5.0,55.0,91.3503125,24.325,1.0821784375,238.65
2021-06-25 11:23:09.906250000,-32.0,-5.0,55.0,91.34875,23.66,1.08193825,238.65
2021-06-25 11:23:09.914062500,-32.0,-5.0,55.0,91.3471875,22.91,1.0816980625000001,238.65
2021-06-25 11:23:09.921875000,-32.0,-5.0,55.0,91.345625,22.16,1.0814578750000001,238.65
2021-06-25 11:23:09.929687500,-32.0,-5.0,55.0,91.34406249999999,21.275,1.0812176875000001,238.65
2021-06-25 11:23:09.937500000,-32.0,-5.0,55.0,91.3425,20.39,1.0809775,238.65
2021-06-25 11:23:09.945312500,-32.0,-5.0,55.0,91.3409375,19.345,1.0807373125,238.65
2021-06-25 11:23:09.953125000,-32.0,-5.0,55.0,91.339375,18.3,1.080497125,238.65
2021-06-25 11:23:09.960937500,-32.0,-5.0,55.0,91.3378125,17.08,1.0802569375,238.65
2021-06-25 11:23:09.968750000,-32.0,-5.0,55.0,91.33624999999999,15.86,1.08001675,238.65
2021-06-25 11:23:09.976562500,-32.0,-5.0,55.0,91.3346875,14.48,1.0797765625,238.65
2021-06-25 11:23:09.984375000,-32.0,-5.0,55.0,91.333125,13.1,1.079536375,238.65
2021-06-25 11:23:09.992187500,-32.0,-5.0,55.0,91.3315625,11.635,1.0792961875,238.65
2021-06-25 11:23:10.000000000,-32.0,-5.0,55.0,91.33,10.17,1.079056,238.65
2021-06-25 11:23:10.007812500,-32.0,-5.0,55.0,91.3278125,8.705,1.0791760937500001,238.65
2021-06-25 11:23:10.015625000,-32.0,-5.0,55.0,91.325625,7.24,1.0792961875,238.65
2021-06-25 11:23:10.023437500,-32.0,-5.0,55.0,91.3234375,5.86,1.07941628125,238.65
2021-06-25 11:23:10.031250000,-32.0,-5.0,55.0,91.32124999999999,4.48,1.079536375,238.65
2021-06-25 11:23:10.039062500,-32.0,-5.0,55.0,91.3190625,3.21,1.07965646875,238.65
2021-06-25 11:23:10.046875000,-32.0,-5.0,55.0,91.316875,1.94,1.0797765625,238.65
2021-06-25 11:23:10.054687500,-32.0,-5.0,55.0,91.3146875,0.7349999999999999,1.07989665625,238.65
2021-06-25 11:23:10.062500000,-32.0,-5.0,55.0,91.3125,-0.47,1.08001675,238.65
2021-06-25 11:23:10.070312500,-32.0,-5.0,55.0,91.3103125,-1.7499999999999998,1.08013684375,238.65
2021-06-25 11:23:10.078125000,-32.0,-5.0,55.0,91.308125,-3.03,1.0802569375,238.65
2021-06-25 11:23:10.085937500,-32.0,-5.0,55.0,91.3059375,-4.585,1.08037703125,238.65
2021-06-25 11:23:10.093750000,-32.0,-5.0,55.0,91.30375,-6.14,1.080497125,238.65
2021-06-25 11:23:10.101562500,-32.0,-5.0,55.0,91.3015625,-8.16,1.08061721875,238.65
2021-06-25 11:23:10.109375000,-32.0,-5.0,55.0,91.299375,-10.18,1.0807373125,238.65
2021-06-25 11:23:10.117187500,-32.0,-5.0,55.0,91.29718749999999,-12.719999999999999,1.08085740625,238.65
2021-06-25 11:23:10.125000000,-32.0,-5.0,55.0,91.295,-15.26,1.0809775,238.65
2021-06-25 11:23:10.132812500,-32.0,-5.0,55.0,91.2928125,-18.135,1.08109759375,238.65
2021-06-25 11:23:10.140625000,-32.0,-5.0,55.0,91.29062499999999,-21.01,1.0812176875000001,238.65
2021-06-25 11:23:10.148437500,-32.0,-5.0,55.0,91.2884375,-23.745,1.08133778125,238.65
2021-06-25 11:23:10.156250000,-32.0,-5.0,55.0,91.28625,-26.48,1.0814578750000001,238.65
2021-06-25 11:23:10.164062500,-32.0,-5.0,55.0,91.2840625,-28.439999999999998,1.08157796875,238.65
2021-06-25 11:23:10.171875000,-32.0,-5.0,55.0,91.281875,-30.4,1.0816980625000001,238.65
2021-06-25 11:23:10.179687500,-32.0,-5.0,55.0,91.2796875,-30.97,1.08181815625,238.65
2021-06-25 11:23:10.187500000,-32.0,-5.0,55.0,91.2775,-31.54,1.08193825,238.65
2021-06-25 11:23:10.195312500,-32.0,-5.0,55.0,91.2753125,-30.35,1.08205834375,238.65
2021-06-25 11:23:10.203125000,-32.0,-5.0,55.0,91.273125,-29.16,1.0821784375,238.65
2021-06-25 11:23:10.210937500,-32.0,-5.0,55.0,91.2709375,-26.23,1.08229853125,238.65
2021-06-25 11:23:10.218750000,-32.0,-5.0,55.0,91.26875,-23.3,1.082418625,238.65
2021-06-25 11:23:10.226562500,-32.0,-5.0,55.0,91.26656249999999,-19.02,1.08253871875,238.65
2021-06-25 11:23:10.234375000,-32.0,-5.0,55.0,91.264375,-14.74,1.0826588125,238.65
2021-06-25 11:23:10.242187500,-32.0,-5.0,55.0,91.2621875,-9.75,1.08277890625,238.65
2021-06-25 11:23:10.250000000,-32.0,-5.0,55.0,91.25999999999999,-4.76,1.082899,238.65
2021-06-25 11:23:10.257812500,-32.0,-5.0,55.25,91.2578125,0.26500000000000057,1.0825787500000001,238.65
2021-06-25 11:23:10.265625000,-32.0,-5.0,55.5,91.255625,5.29,1.0822585,238.65
2021-06-25 11:23:10.273437500,-32.0,-5.0,55.75,91.2534375,9.79,1.08193825,238.65
2021-06-25 11:23:10.281250000,-32.0,-5.0,56.0,91.25125,14.29,1.081618,238.65
2021-06-25 11:23:10.289062500,-32.0,-5.0,55.75,91.2490625,17.92,1.08129775,238.65
2021-06-25 11:23:10.296875000,-32.0,-5.0,55.5,91.246875,21.55,1.0809775000000001,238.65
2021-06-25 11:23:10.304687500,-32.0,-5.0,55.25,91.2446875,24.16,1.08065725,238.65
2021-06-25 11:23:10.312500000,-32.0,-5.0,55.0,91.24249999999999,26.77,1.080337,238.65
2021-06-25 11:23:10.320312500,-32.0,-5.0,55.0,91.2403125,28.39,1.08001675,238.65
2021-06-25 11:23:10.328125000,-32.0,-5.0,55.0,91.238125,30.01,1.0796965,238.65
2021-06-25 11:23:10.335937500,-32.0,-5.0,55.0,91.23593749999999,30.745,1.0793762500000001,238.65
2021-06-25 11:23:10.343750000,-32.0,-5.0,55.0,91.23375,31.48,1.079056,238.65
2021-06-25 11:23:10.351562500,-32.0,-5.0,55.0,91.2315625,31.509999999999998,1.07873575,238.65
2021-06-25 11:23:10.359375000,-32.0,-5.0,55.0,91.229375,31.54,1.0784155,238.65
2021-06-25 11:23:10.367187500,-32.0,-5.0,55.0,91.2271875,31.08,1.07809525,238.65
2021-06-25 11:23:10.375000000,-32.0,-5.0,55.0,91.225,30.62,1.077775,238.65
2021-06-25 11:23:10.382812500,-32.0,-5.0,55.0,91.2228125,29.86,1.07745475,238.65
2021-06-25 11:23:10.390625000,-32.0,-5.0,55.0,91.220625,29.1,1.0771345,238.65
2021-06-25 11:23:10.398437500,-32.0,-5.0,55.0,91.2184375,28.235,1.07681425,238.65
2021-06-25 11:23:10.406250000,-32.0,-5.0,55.0,91.21625,27.37,1.076494,238.65
2021-06-25 11:23:10.414062500,-32.0,-5.0,55.0,91.2140625,26.5,1.07617375,238.65
2021-06-25 11:23:10.421875000,-32.0,-5.0,55.0,91.21187499999999,25.63,1.0758535,238.65
2021-06-25 11:23:10.429687500,-32.0,-5.0,55.0,91.2096875,24.825,1.07553325,238.65
2021-06-25 11:23:10.437500000,-32.0,-5.0,55.0,91.2075,24.02,1.075213,238.65
2021-06-25 11:23:10.445312500,-32.0,-5.0,55.0,91.20531249999999,23.275,1.07489275,238.65
2021-06-25 11:23:10.453125000,-32.0,-5.0,55.0,91.203125,22.53,1.0745725,238.65
2021-06-25 11:23:10.460937500,-32.0,-5.0,55.0,91.2009375,21.85,1.07425225,238.65
2021-06-25 11:23:10.468750000,-32.0,-5.0,55.0,91.19875,21.17,1.073932,238.65
2021-06-25 11:23:10.476562500,-32.0,-5.0,55.25,91.1965625,20.560000000000002,1.07361175,238.65
2021-06-25 11:23:10.484375000,-32.0,-5.0,55.5,91.194375,19.95,1.0732915,238.65
2021-06-25 11:23:10.492187500,-32.0,-5.0,55.75,91.1921875,19.445,1.07297125,238.65
2021-06-25 11:23:10.500000000,-32.0,-5.0,56.0,91.19,18.94,1.072651,238.65
2021-06-25 11:23:10.507812500,-31.75,-5.0,55.75,91.18781249999999,18.55,1.07269103125,238.65
2021-06-25 11:23:10.515625000,-31.5,-5.0,55.5,91.185625,18.16,1.0727310625,238.65
2021-06-25 11:23:10.523437500,-31.25,-5.0,55.25,91.1834375,17.845,1.0727710937500001,238.65
2021-06-25 11:23:10.531250000,-31.0,-5.0,55.0,91.18124999999999,17.53,1.072811125,238.65
2021-06-25 11:23:10.539062500,-31.25,-5.0,55.0,91.1790625,17.21,1.07285115625,238.65
2021-06-25 11:23:10.546875000,-31.5,-5.0,55.0,91.176875,16.89,1.0728911875,238.65
2021-06-25 11:23:10.554687500,-31.75,-5.0,55.0,91.1746875,16.415,1.07293121875,238.65
2021-06-25 11:23:10.562500000,-32.0,-5.0,55.0,91.1725,15.94,1.0729712500000002,238.65
2021-06-25 11:23:10.570312500,-31.75,-5.0,55.0,91.1703125,15.175,1.0730112812500001,238.65
2021-06-25 11:23:10.578125000,-31.5,-5.0,55.0,91.168125,14.41,1.0730513125,238.65
2021-06-25 11:23:10.585937500,-31.25,-5.0,55.0,91.1659375,13.26,1.07309134375,238.65
2021-06-25 11:23:10.593750000,-31.0,-5.0,55.0,91.16375,12.11,1.073131375,238.65
2021-06-25 11:23:10.601562500,-31.25,-5.0,55.0,91.1615625,10.58,1.07317140625,238.65
2021-06-25 11:23:10.609375000,-31.5,-5.0,55.0,91.159375,9.05,1.0732114375000001,238.65
2021-06-25 11:23:10.617187500,-31.75,-5.0,55.0,91.15718749999999,7.23,1.07325146875,238.65
2021-06-25 11:23:10.625000000,-32.0,-5.0,55.0,91.155,5.41,1.0732915,238.65
2021-06-25 11:23:10.632812500,-31.75,-5.0,55.0,91.1528125,3.45,1.07333153125,238.65
2021-06-25 11:23:10.640625000,-31.5,-5.0,55.0,91.15062499999999,1.49,1.0733715625,238.65
2021-06-25 11:23:10.648437500,-31.25,-5.0,55.0,91.1484375,-0.4600000000000002,1.0734115937500002,238.65
2021-06-25 11:23:10.656250000,-31.0,-5.0,55.0,91.14625,-2.41,1.0734516250000001,238.65
2021-06-25 11:23:10.664062500,-31.0,-5.0,55.0,91.1440625,-4.255,1.07349165625,238.65
2021-06-25 11:23:10.671875000,-31.0,-5.0,55.0,91.141875,-6.1,1.0735316875,238.65
2021-06-25 11:23:10.679687500,-31.0,-5.0,55.0,91.1396875,-7.795,1.07357171875,238.65
2021-06-25 11:23:10.687500000,-31.0,-5.0,55.0,91.1375,-9.49,1.07361175,238.65
2021-06-25 11:23:10.695312500,-31.0,-5.0,55.0,91.1353125,-11.035,1.0736517812500002,238.65
2021-06-25 11:23:10.703125000,-31.0,-5.0,55.0,91.13312499999999,-12.58,1.0736918125000001,238.65
2021-06-25 11:23:10.710937500,-31.0,-5.0,55.0,91.1309375,-14.02,1.07373184375,238.65
2021-06-25 11:23:10.718750000,-31.0,-5.0,55.0,91.12875,-15.46,1.073771875,238.65
2021-06-25 11:23:10.726562500,-31.25,-5.0,55.25,91.12656249999999,-16.86,1.07381190625,238.65
2021-06-25 11:23:10.734375000,-31.5,-5.0,55.5,91.124375,-18.26,1.0738519375000002,238.65
2021-06-25 11:23:10.742187500,-31.75,-5.0,55.75,91.1221875,-19.740000000000002,1.0738919687500001,238.65
2021-06-25 11:23:10.750000000,-32.0,-5.0,56.0,91.12,-21.22,1.073932,238.65
2021-06-25 11:23:10.757812500,-32.0,-5.0,55.75,91.1178125,-22.884999999999998,1.0736918125000001,238.65
2021-06-25 11:23:10.765625000,-32.0,-5.0,55.5,91.115625,-24.55,1.0734516250000001,238.65
2021-06-25 11:23:10.773437500,-32.0,-5.0,55.25,91.1134375,-26.475,1.0732114375000001,238.65
2021-06-25 11:23:10.781250000,-32.0,-5.0,55.0,91.11125,-28.4,1.0729712500000002,238.65
2021-06-25 11:23:10.789062500,-31.75,-5.0,55.0,91.1090625,-30.46,1.0727310625000002,238.65
2021-06-25 11:23:10.796875000,-31.5,-5.0,55.0,91.106875,-32.52,1.0724908750000002,238.65
2021-06-25 11:23:10.804687500,-31.25,-5.0,55.0,91.1046875,-34.370000000000005,1.0722506875000002,238.65
2021-06-25 11:23:10.812500000,-31.0,-5.0,55.0,91.10249999999999,-36.22,1.0720105000000002,238.65
2021-06-25 11:23:10.820312500,-31.0,-5.0,55.0,91.1003125,-37.36,1.0717703125,238.65
2021-06-25 11:23:10.828125000,-31.0,-5.0,55.0,91.098125,-38.5,1.071530125,238.65
2021-06-25 11:23:10.835937500,-31.0,-5.0,55.0,91.09593749999999,-38.39,1.0712899375,238.65
2021-06-25 11:23:10.843750000,-31.0,-5.0,55.0,91.09375,-38.28,1.07104975,238.65
2021-06-25 11:23:10.851562500,-31.25,-5.0,55.0,91.0915625,-36.6,1.0708095625,238.65
2021-06-25 11:23:10.859375000,-31.5,-5.0,55.0,91.089375,-34.92,1.070569375,238.65
2021-06-25 11:23:10.867187500,-31.75,-5.0,55.0,91.0871875,-31.685000000000002,1.0703291875,238.65
2021-06-25 11:23:10.875000000,-32.0,-5.0,55.0,91.085,-28.45,1.070089,238.65
2021-06-25 11:23:10.882812500,-31.75,-5.0,55.0,91.0828125,-24.064999999999998,1.0698488125,238.65
2021-06-25 11:23:10.890625000,-31.5,-5.0,55.0,91.080625,-19.68,1.069608625,238.65
2021-06-25 11:23:10.898437500,-31.25,-5.0,55.0,91.07843749999999,-14.754999999999999,1.0693684375,238.65
2021-06-25 11:23:10.906250000,-31.0,-5.0,55.0,91.07625,-9.83,1.0691282500000001,238.65
2021-06-25 11:23:10.914062500,-31.0,-5.0,55.0,91.0740625,-5.03,1.0688880625000001,238.65
2021-06-25 11:23:10.921875000,-31.0,-5.0,55.0,91.07187499999999,-0.23,1.0686478750000001,238.65
2021-06-25 11:23:10.929687500,-31.0,-5.0,55.0,91.0696875,3.98,1.0684076875000001,238.65
2021-06-25 11:23:10.937500000,-31.0,-5.0,55.0,91.0675,8.19,1.0681675,238.65
2021-06-25 11:23:10.945312500,-31.0,-5.0,55.0,91.06531249999999,11.59,1.0679273125,238.65
2021-06-25 11:23:10.953125000,-31.0,-5.0,55.0,91.063125,14.99,1.067687125,238.65
2021-06-25 11:23:10.960937500,-31.0,-5.0,55.0,91.0609375,17.580000000000002,1.0674469375,238.65
2021-06-25 11:23:10.968750000,-31.0,-5.0,55.0,91.05875,20.17,1.06720675,238.65
2021-06-25 11:23:10.976562500,-31.0,-5.0,55.0,91.0565625,22.055,1.0669665625,238.65
2021-06-25 11:23:10.984375000,-31.0,-5.0,55.0,91.054375,23.94,1.066726375,238.65
2021-06-25 11:23:10.992187500,-31.0,-5.0,55.0,91.0521875,25.270000000000003,1.0664861875,238.65
2021-06-25 11:23:11.000000000,-31.0,-5.0,55.0,91.05,26.6,1.066246,238.65
2021-06-25 11:23:11.007812500,-31.25,-5.0,55.0,91.048203125,27.455,1.0663660937500001,238.65
2021-06-25 11:23:11.015625000,-31.5,-5.0,55.0,91.04640625,28.31,1.0664861875,238.65
2021-06-25 11:23:11.023437500,-31.75,-5.0,55.0,91.044609375,28.740000000000002,1.0666062812500001,238.65
2021-06-25 11:23:11.031250000,-32.0,-5.0,55.0,91.0428125,29.17,1.066726375,238.65
2021-06-25 11:23:11.039062500,-31.75,-5.0,55.0,91.041015625,29.205,1.06684646875,238.65
2021-06-25 11:23:11.046875000,-31.5,-5.0,55.0,91.03921875,29.24,1.0669665625,238.65
2021-06-25 11:23:11.054687500,-31.25,-5.0,55.0,91.03742187499999,28.895,1.06708665625,238.65
2021-06-25 11:23:11.062500000,-31.0,-5.0,55.0,91.035625,28.55,1.06720675,238.65
2021-06-25 11:23:11.070312500,-31.0,-5.0,55.25,91.033828125,27.89,1.06732684375,238.65
2021-06-25 11:23:11.078125000,-31.0,-5.0,55.5,91.03203125,27.23,1.0674469375,238.65
2021-06-25 11:23:11.085937500,-31.0,-5.0,55.75,91.03023437499999,26.345,1.06756703125,238.65
2021-06-25 11:23:11.093750000,-31.0,-5.0,56.0,91.0284375,25.46,1.067687125,238.65
2021-06-25 11:23:11.101562500,-31.0,-5.0,56.0,91.026640625,24.485,1.06780721875,238.65
2021-06-25 11:23:11.109375000,-31.0,-5.0,56.0,91.02484375,23.51,1.0679273125,238.65
2021-06-25 11:23:11.117187500,-31.0,-5.0,56.0,91.02304687499999,22.560000000000002,1.06804740625,238.65
2021-06-25 11:23:11.125000000,-31.0,-5.0,56.0,91.02125,21.61,1.0681675,238.65
2021-06-25 11:23:11.132812500,-31.0,-5.0,55.75,91.019453125,20.79,1.06828759375,238.65
2021-06-25 11:23:11.140625000,-31.0,-5.0,55.5,91.01765625,19.97,1.0684076875000001,238.65
2021-06-25 11:23:11.148437500,-31.0,-5.0,55.25,91.01585937499999,19.32,1.06852778125,238.65
2021-06-25 11:23:11.156250000,-31.0,-5.0,55.0,91.0140625,18.67,1.0686478750000001,238.65
2021-06-25 11:23:11.164062500,-31.0,-5.0,55.0,91.012265625,18.195,1.06876796875,238.65
2021-06-25 11:23:11.171875000,-31.0,-5.0,55.0,91.01046875,17.72,1.0688880625000001,238.65
2021-06-25 11:23:11.179687500,-31.0,-5.0,55.0,91.00867187499999,17.384999999999998,1.06900815625,238.65
2021-06-25 11:23:11.187500000,-31.0,-5.0,55.0,91.006875,17.05,1.0691282500000001,238.65
2021-06-25 11:23:11.195312500,-31.0,-5.0,55.0,91.005078125,16.8,1.06924834375,238.65
2021-06-25 11:23:11.203125000,-31.0,-5.0,55.0,91.00328125,16.55,1.0693684375,238.65
2021-06-25 11:23:11.210937500,-31.0,-5.0,55.0,91.00148437499999,16.32,1.06948853125,238.65
2021-06-25 11:23:11.218750000,-31.0,-5.0,55.0,90.9996875,16.09,1.069608625,238.65
2021-06-25 11:23:11.226562500,-31.25,-5.0,55.0,90.997890625,15.780000000000001,1.06972871875,238.65
2021-06-25 11:23:11.234375000,-31.5,-5.0,55.0,90.99609375,15.47,1.0698488125,238.65
2021-06-25 11:23:11.242187500,-31.75,-5.0,55.0,90.99429687499999,14.96,1.06996890625,238.65
2021-06-25 11:23:11.250000000,-32.0,-5.0,55.0,90.99249999999999,14.45,1.070089,238.65
2021-06-25 11:23:11.257812500,-31.75,-5.0,55.0,90.990703125,13.614999999999998,1.06988884375,238.65
2021-06-25 11:23:11.265625000,-31.5,-5.0,55.0,90.98890625,12.78,1.0696886875,238.65
2021-06-25 11:23:11.273437500,-31.25,-5.0,55.0,90.987109375,11.53,1.06948853125,238.65
2021-06-25 11:23:11.281250000,-31.0,-5.0,55.0,90.98531249999999,10.28,1.0692883750000002,238.65
2021-06-25 11:23:11.289062500,-31.0,-5.0,55.0,90.983515625,8.61,1.0690882187500002,238.65
2021-06-25 11:23:11.296875000,-31.0,-5.0,55.0,90.98171875,6.94,1.0688880625000001,238.65
2021-06-25 11:23:11.304687500,-31.0,-5.0,55.0,90.979921875,4.975,1.06868790625,238.65
2021-06-25 11:23:11.312500000,-31.0,-5.0,55.0,90.97812499999999,3.01,1.06848775,238.65
2021-06-25 11:23:11.320312500,-31.0,-5.0,55.0,90.976328125,0.935,1.06828759375,238.65
2021-06-25 11:23:11.328125000,-31.0,-5.0,55.0,90.97453125,-1.14,1.0680874375,238.65
2021-06-25 11:23:11.335937500,-31.0,-5.0,55.0,90.972734375,-3.0949999999999998,1.06788728125,238.65
2021-06-25 11:23:11.343750000,-31.0,-5.0,55.0,90.97093749999999,-5.05,1.067687125,238.65
2021-06-25 11:23:11.351562500,-31.25,-5.0,55.0,90.969140625,-6.744999999999999,1.0674869687500002,238.65
2021-06-25 11:23:11.359375000,-31.5,-5.0,55.0,90.96734375,-8.44,1.0672868125000001,238.65
2021-06-25 11:23:11.367187500,-31.75,-5.0,55.0,90.965546875,-9.82,1.06708665625,238.65
2021-06-25 11:23:11.375000000,-32.0,-5.0,55.0,90.96374999999999,-11.2,1.0668865,238.65
2021-06-25 11:23:11.382812500,-31.75,-5.0,55.25,90.961953125,-12.375,1.06668634375,238.65
2021-06-25 11:23:11.390625000,-31.5,-5.0,55.5,90.96015625,-13.55,1.0664861875,238.65
2021-06-25 11:23:11.398437500,-31.25,-5.0,55.75,90.958359375,-14.705,1.06628603125,238.65
2021-06-25 11:23:11.406250000,-31.0,-5.0,56.0,90.95656249999999,-15.86,1.0660858750000002,238.65
2021-06-25 11:23:11.414062500,-31.0,-5.0,55.75,90.954765625,-17.23,1.0658857187500002,238.65
2021-06-25 11:23:11.421875000,-31.0,-5.0,55.5,90.95296875,-18.6,1.0656855625000001,238.65
2021-06-25 11:23:11.429687500,-31.0,-5.0,55.25,90.951171875,-20.335,1.06548540625,238.65
2021-06-25 11:23:11.437500000,-31.0,-5.0,55.0,90.94937499999999,-22.07,1.06528525,238.65
2021-06-25 11:23:11.445312500,-31.25,-5.0,55.0,90.94757812499999,-24.185000000000002,1.06508509375,238.65
2021-06-25 11:23:11.453125000,-31.5,-5.0,55.0,90.94578125,-26.3,1.0648849375,238.65
2021-06-25 11:23:11.460937500,-31.75,-5.0,55.0,90.943984375,-28.575000000000003,1.06468478125,238.65
2021-06-25 11:23:11.468750000,-32.0,-5.0,55.0,90.94218749999999,-30.85,1.064484625,238.65
2021-06-25 11:23:11.476562500,-32.0,-5.0,55.0,90.94039062499999,-32.870000000000005,1.0642844687500002,238.65
2021-06-25 11:23:11.484375000,-32.0,-5.0,55.0,90.93859375,-34.89,1.0640843125000001,238.65
2021-06-25 11:23:11.492187500,-32.0,-5.0,55.0,90.936796875,-36.144999999999996,1.06388415625,238.65
2021-06-25 11:23:11.500000000,-32.0,-5.0,55.0,90.935,-37.4,1.063684,238.65
2021-06-25 11:23:11.507812500,-31.75,-5.0,55.0,90.93320312499999,-37.41,1.06380409375,238.65
2021-06-25 11:23:11.515625000,-31.5,-5.0,55.0,90.93140625,-37.42,1.0639241875,238.65
2021-06-25 11:23:11.523437500,-31.25,-5.0,55.0,90.929609375,-35.925,1.0640442812500002,238.65
2021-06-25 11:23:11.531250000,-31.0,-5.0,55.0,90.9278125,-34.43,1.064164375,238.65
2021-06-25 11:23:11.539062500,-31.25,-5.0,55.0,90.92601562499999,-31.465,1.06428446875,238.65
2021-06-25 11:23:11.546875000,-31.5,-5.0,55.0,90.92421875,-28.5,1.0644045625,238.65
2021-06-25 11:23:11.554687500,-31.75,-5.0,55.0,90.922421875,-24.425,1.0645246562500001,238.65
2021-06-25 11:23:11.562500000,-32.0,-5.0,55.0,90.920625,-20.35,1.06464475,238.65
2021-06-25 11:23:11.570312500,-32.0,-5.0,55.0,90.91882812499999,-15.700000000000001,1.06476484375,238.65
2021-06-25 11:23:11.578125000,-32.0,-5.0,55.0,90.91703125,-11.05,1.0648849375,238.65
2021-06-25 11:23:11.585937500,-32.0,-5.0,55.0,90.915234375,-6.405,1.0650050312500001,238.65
2021-06-25 11:23:11.593750000,-32.0,-5.0,55.0,90.9134375,-1.76,1.065125125,238.65
2021-06-25 11:23:11.601562500,-31.75,-5.0,55.25,90.91164062499999,2.4300000000000006,1.06524521875,238.65
2021-06-25 11:23:11.609375000,-31.5,-5.0,55.5,90.90984375,6.62,1.0653653125,238.65
2021-06-25 11:23:11.617187500,-31.25,-5.0,55.75,90.908046875,10.1,1.06548540625,238.65
2021-06-25 11:23:11.625000000,-31.0,-5.0,56.0,90.90625,13.58,1.0656055,238.65
2021-06-25 11:23:11.632812500,-31.0,-5.0,55.75,90.90445312499999,16.305,1.0657255937499999,238.65
2021-06-25 11:23:11.640625000,-31.0,-5.0,55.5,90.90265624999999,19.03,1.0658456875,238.65
2021-06-25 11:23:11.648437500,-31.0,-5.0,55.25,90.900859375,21.09,1.06596578125,238.65
2021-06-25 11:23:11.656250000,-31.0,-5.0,55.0,90.8990625,23.15,1.066085875,238.65
2021-06-25 11:23:11.664062500,-31.0,-5.0,55.0,90.89726562499999,24.655,1.0662059687499998,238.65
2021-06-25 11:23:11.671875000,-31.0,-5.0,55.0,90.89546874999999,26.16,1.0663260625,238.65
2021-06-25 11:23:11.679687500,-31.0,-5.0,55.0,90.893671875,27.175,1.06644615625,238.65
2021-06-25 11:23:11.687500000,-31.0,-5.0,55.0,90.891875,28.19,1.06656625,238.65
2021-06-25 11:23:11.695312500,-31.0,-5.0,55.0,90.89007812499999,28.735,1.0666863437499998,238.65
2021-06-25 11:23:11.703125000,-31.0,-5.0,55.0,90.88828124999999,29.28,1.0668064375,238.65
2021-06-25 11:23:11.710937500,-31.0,-5.0,55.0,90.886484375,29.345,1.06692653125,238.65
2021-06-25 11:23:11.718750000,-31.0,-5.0,55.0,90.8846875,29.41,1.067046625,238.65
2021-06-25 11:23:11.726562500,-31.0,-5.0,55.0,90.88289062499999,29.035,1.0671667187499998,238.65
2021-06-25 11:23:11.734375000,-31.0,-5.0,55.0,90.88109374999999,28.66,1.0672868125,238.65
2021-06-25 11:23:11.742187500,-31.0,-5.0,55.0,90.879296875,27.97,1.06740690625,238.65
2021-06-25 11:23:11.750000000,-31.0,-5.0,55.0,90.8775,27.28,1.067527,238.65
2021-06-25 11:23:11.757812500,-31.0,-5.0,55.25,90.875703125,26.425,1.06748696875,238.65
2021-06-25 11:23:11.765625000,-31.0,-5.0,55.5,90.87390624999999,25.57,1.0674469375,238.65
2021-06-25 11:23:11.773437500,-31.0,-5.0,55.75,90.872109375,24.71,1.06740690625,238.65
2021-06-25 11:23:11.781250000,-31.0,-5.0,56.0,90.8703125,23.85,1.0673668749999998,238.65
2021-06-25 11:23:11.789062500,-31.0,-5.0,55.75,90.868515625,23.05,1.0673268437499999,238.65
2021-06-25 11:23:11.796875000,-31.0,-5.0,55.5,90.86671874999999,22.25,1.0672868125,238.65
2021-06-25 11:23:11.804687500,-31.0,-5.0,55.25,90.864921875,21.52,1.06724678125,238.65
2021-06-25 11:23:11.812500000,-31.0,-5.0,55.0,90.863125,20.79,1.06720675,238.65
2021-06-25 11:23:11.820312500,-31.0,-5.0,55.25,90.861328125,20.064999999999998,1.06716671875,238.65
2021-06-25 11:23:11.828125000,-31.0,-5.0,55.5,90.85953124999999,19.34,1.0671266874999998,238.65
2021-06-25 11:23:11.835937500,-31.0,-5.0,55.75,90.85773437499999,18.595,1.0670866562499999,238.65
2021-06-25 11:23:11.843750000,-31.0,-5.0,56.0,90.8559375,17.85,1.067046625,238.65
2021-06-25 11:23:11.851562500,-31.0,-5.0,56.0,90.854140625,17.11,1.06700659375,238.65
2021-06-25 11:23:11.859375000,-31.0,-5.0,56.0,90.85234374999999,16.37,1.0669665625,238.65
2021-06-25 11:23:11.867187500,-31.0,-5.0,56.0,90.85054687499999,15.71,1.06692653125,238.65
2021-06-25 11:23:11.875000000,-31.0,-5.0,56.0,90.84875,15.05,1.0668864999999998,238.65
2021-06-25 11:23:11.882812500,-31.0,-5.0,55.75,90.846953125,14.54,1.0668464687499999,238.65
2021-06-25 11:23:11.890625000,-31.0,-5.0,55.5,90.84515624999999,14.03,1.0668064375,238.65
2021-06-25 11:23:11.898437500,-31.0,-5.0,55.25,90.84335937499999,13.67,1.06676640625,238.65
2021-06-25 11:23:11.906250000,-31.0,-5.0,55.0,90.8415625,13.31,1.066726375,238.65
2021-06-25 11:23:11.914062500,-31.0,-5.0,55.0,90.839765625,12.98,1.06668634375,238.65
2021-06-25 11:23:11.921875000,-31.0,-5.0,55.0,90.83796874999999,12.65,1.0666463125,238.65
2021-06-25 11:23:11.929687500,-31.0,-5.0,55.0,90.83617187499999,12.16,1.06660628125,238.65
2021-06-25 11:23:11.937500000,-31.0,-5.0,55.0,90.834375,11.67,1.06656625,238.65
2021-06-25 11:23:11.945312500,-31.0,-5.0,55.0,90.832578125,10.83,1.06652621875,238.65
2021-06-25 11:23:11.953125000,-31.0,-5.0,55.0,90.83078124999999,9.99,1.0664861875,238.65
2021-06-25 11:23:11.960937500,-31.0,-5.0,55.0,90.82898437499999,8.695,1.06644615625,238.65
2021-06-25 11:23:11.968750000,-31.0,-5.0,55.0,90.8271875,7.4,1.066406125,238.65
2021-06-25 11:23:11.976562500,-31.0,-5.0,55.0,90.825390625,5.695,1.06636609375,238.65
2021-06-25 11:23:11.984375000,-31.0,-5.0,55.0,90.82359374999999,3.99,1.0663260625,238.65
2021-06-25 11:23:11.992187500,-31.0,-5.0,55.0,90.82179687499999,2.035,1.06628603125,238.65
2021-06-25 11:23:12.000000000,-31.0,-5.0,55.0,90.82,0.08,1.066246,238.65
2021-06-25 11:23:12.007812500,-31.0,-5.0,55.0,90.81765625,-1.875,1.06604584375,238.65
2021-06-25 11:23:12.015625000,-31.0,-5.0,55.0,90.81531249999999,-3.83,1.0658456875,238.65
2021-06-25 11:23:12.023437500,-31.0,-5.0,55.0,90.81296875,-5.545,1.06564553125,238.65
2021-06-25 11:23:12.031250000,-31.0,-5.0,55.0,90.81062499999999,-7.26,1.065445375,238.65
2021-06-25 11:23:12.039062500,-31.0,-5.0,55.0,90.80828125,-8.58,1.0652452187500001,238.65
2021-06-25 11:23:12.046875000,-31.0,-5.0,55.0,90.8059375,-9.9,1.0650450625,238.65
2021-06-25 11:23:12.054687500,-31.0,-5.0,55.0,90.80359374999999,-10.82,1.06484490625,238.65
2021-06-25 11:23:12.062500000,-31.0,-5.0,55.0,90.80125,-11.74,1.06464475,238.65
2021-06-25 11:23:12.070312500,-31.25,-5.0,55.25,90.79890624999999,-12.385,1.06444459375,238.65
2021-06-25 11:23:12.078125000,-31.5,-5.0,55.5,90.7965625,-13.03,1.0642444375,238.65
2021-06-25 11:23:12.085937500,-31.75,-5.0,55.75,90.79421875,-13.649999999999999,1.06404428125,238.65
2021-06-25 11:23:12.093750000,-32.0,-5.0,56.0,90.79187499999999,-14.27,1.0638441250000001,238.65
2021-06-25 11:23:12.101562500,-31.75,-5.0,55.75,90.78953125,-15.14,1.0636439687500001,238.65
2021-06-25 11:23:12.109375000,-31.5,-5.0,55.5,90.78718749999999,-16.01,1.0634438125,238.65
2021-06-25 11:23:12.117187500,-31.25,-5.0,55.25,90.78484375,-17.365000000000002,1.06324365625,238.65
2021-06-25 11:23:12.125000000,-31.0,-5.0,55.0,90.7825,-18.72,1.0630435,238.65
2021-06-25 11:23:12.132812500,-31.0,-5.0,55.25,90.78015624999999,-20.685,1.06284334375,238.65
2021-06-25 11:23:12.140625000,-31.0,-5.0,55.5,90.7778125,-22.65,1.0626431875,238.65
2021-06-25 11:23:12.148437500,-31.0,-5.0,55.75,90.77546874999999,-25.134999999999998,1.06244303125,238.65
2021-06-25 11:23:12.156250000,-31.0,-5.0,56.0,90.773125,-27.62,1.062242875,238.65
2021-06-25 11:23:12.164062500,-31.0,-5.0,55.75,90.77078125,-30.335,1.0620427187500001,238.65
2021-06-25 11:23:12.171875000,-31.0,-5.0,55.5,90.76843749999999,-33.05,1.0618425625,238.65
2021-06-25 11:23:12.179687500,-31.0,-5.0,55.25,90.76609375,-35.489999999999995,1.06164240625,238.65
2021-06-25 11:23:12.187500000,-31.0,-5.0,55.0,90.76374999999999,-37.93,1.06144225,238.65
2021-06-25 11:23:12.195312500,-31.0,-5.0,55.0,90.76140625,-39.495000000000005,1.06124209375,238.65
2021-06-25 11:23:12.203125000,-31.0,-5.0,55.0,90.7590625,-41.06,1.0610419375,238.65
2021-06-25 11:23:12.210937500,-31.0,-5.0,55.0,90.75671874999999,-41.21,1.06084178125,238.65
2021-06-25 11:23:12.218750000,-31.0,-5.0,55.0,90.754375,-41.36,1.0606416250000001,238.65
2021-06-25 11:23:12.226562500,-31.0,-5.0,55.0,90.75203124999999,-39.81,1.0604414687500001,238.65
2021-06-25 11:23:12.234375000,-31.0,-5.0,55.0,90.7496875,-38.26,1.0602413125,238.65
2021-06-25 11:23:12.242187500,-31.0,-5.0,55.0,90.74734375,-35.07,1.06004115625,238.65
2021-06-25 11:23:12.250000000,-31.0,-5.0,55.0,90.74499999999999,-31.88,1.059841,238.65
2021-06-25 11:23:12.257812500,-31.25,-5.0,55.0,90.74265625,-27.479999999999997,1.0599610937500001,238.65
2021-06-25 11:23:12.265625000,-31.5,-5.0,55.0,90.74031249999999,-23.08,1.0600811875,238.65
2021-06-25 11:23:12.273437500,-31.75,-5.0,55.0,90.73796875,-18.134999999999998,1.0602012812500001,238.65
2021-06-25 11:23:12.281250000,-32.0,-5.0,55.0,90.735625,-13.19,1.060321375,238.65
2021-06-25 11:23:12.289062500,-31.75,-5.0,55.0,90.73328124999999,-8.41,1.0604414687500001,238.65
2021-06-25 11:23:12.296875000,-31.5,-5.0,55.0,90.7309375,-3.63,1.0605615625,238.65
2021-06-25 11:23:12.304687500,-31.25,-5.0,55.0,90.72859374999999,0.4500000000000002,1.06068165625,238.65
2021-06-25 11:23:12.312500000,-31.0,-5.0,55.0,90.72625,4.53,1.06080175,238.65
2021-06-25 11:23:12.320312500,-31.0,-5.0,55.25,90.72390625,7.635,1.06092184375,238.65
2021-06-25 11:23:12.328125000,-31.0,-5.0,55.5,90.72156249999999,10.74,1.0610419375,238.65
2021-06-25 11:23:12.335937500,-31.0,-5.0,55.75,90.71921875,12.86,1.06116203125,238.65
2021-06-25 11:23:12.343750000,-31.0,-5.0,56.0,90.71687499999999,14.98,1.061282125,238.65
2021-06-25 11:23:12.351562500,-31.0,-5.0,56.0,90.71453125,16.265,1.06140221875,238.65
2021-06-25 11:23:12.359375000,-31.0,-5.0,56.0,90.7121875,17.55,1.0615223125,238.65
2021-06-25 11:23:12.367187500,-31.0,-5.0,56.0,90.70984374999999,18.195,1.06164240625,238.65
2021-06-25 11:23:12.375000000,-31.0,-5.0,56.0,90.7075,18.84,1.0617625,238.65
2021-06-25 11:23:12.382812500,-31.0,-5.0,56.0,90.70515624999999,19.025,1.06188259375,238.65
2021-06-25 11:23:12.390625000,-31.0,-5.0,56.0,90.7028125,19.21,1.0620026875000002,238.65
2021-06-25 11:23:12.398437500,-31.0,-5.0,56.0,90.70046875,19.060000000000002,1.06212278125,238.65
2021-06-25 11:23:12.406250000,-31.0,-5.0,56.0,90.69812499999999,18.91,1.0622428750000001,238.65
2021-06-25 11:23:12.414062500,-31.0,-5.0,55.75,90.69578125,18.525,1.06236296875,238.65
2021-06-25 11:23:12.421875000,-31.0,-5.0,55.5,90.69343749999999,18.14,1.0624830625000001,238.65
2021-06-25 11:23:12.429687500,-31.0,-5.0,55.25,90.69109375,17.615000000000002,1.06260315625,238.65
2021-06-25 11:23:12.437500000,-31.0,-5.0,55.0,90.68875,17.09,1.0627232500000001,238.65
2021-06-25 11:23:12.445312500,-31.0,-5.0,55.25,90.68640624999999,16.54,1.06284334375,238.65
2021-06-25 11:23:12.453125000,-31.0,-5.0,55.5,90.6840625,15.99,1.0629634375,238.65
2021-06-25 11:23:12.460937500,-31.0,-5.0,55.75,90.68171874999999,15.515,1.06308353125,238.65
2021-06-25 11:23:12.468750000,-31.0,-5.0,56.0,90.679375,15.04,1.063203625,238.65
2021-06-25 11:23:12.476562500,-31.0,-5.0,55.75,90.67703125,14.704999999999998,1.06332371875,238.65
2021-06-25 11:23:12.484375000,-31.0,-5.0,55.5,90.67468749999999,14.37,1.0634438125,238.65
2021-06-25 11:23:12.492187500,-31.0,-5.0,55.25,90.67234375,14.16,1.06356390625,238.65
2021-06-25 11:23:12.500000000,-31.0,-5.0,55.0,90.66999999999999,13.95,1.063684,238.65
2021-06-25 11:23:12.507812500,-31.0,-5.0,55.25,90.66765625,13.774999999999999,1.06348384375,238.65
2021-06-25 11:23:12.515625000,-31.0,-5.0,55.5,90.6653125,13.6,1.0632836875,238.65
2021-06-25 11:23:12.523437500,-31.0,-5.0,55.75,90.66296874999999,13.344999999999999,1.06308353125,238.65
2021-06-25 11:23:12.531250000,-31.0,-5.0,56.0,90.660625,13.09,1.0628833750000002,238.65
2021-06-25 11:23:12.539062500,-31.0,-5.0,55.75,90.65828125,12.7,1.0626832187500002,238.65
2021-06-25 11:23:12.546875000,-31.0,-5.0,55.5,90.6559375,12.31,1.0624830625000001,238.65
2021-06-25 11:23:12.554687500,-31.0,-5.0,55.25,90.65359375,11.825,1.06228290625,238.65
2021-06-25 11:23:12.562500000,-31.0,-5.0,55.0,90.65124999999999,11.34,1.06208275,238.65
2021-06-25 11:23:12.570312500,-31.0,-5.0,55.25,90.64890625,10.844999999999999,1.06188259375,238.65
2021-06-25 11:23:12.578125000,-31.0,-5.0,55.5,90.6465625,10.35,1.0616824375,238.65
2021-06-25 11:23:12.585937500,-31.0,-5.0,55.75,90.64421875,9.925,1.06148228125,238.65
2021-06-25 11:23:12.593750000,-31.0,-5.0,56.0,90.641875,9.5,1.061282125,238.65
2021-06-25 11:23:12.601562500,-31.0,-5.0,56.0,90.63953124999999,9.125,1.0610819687500002,238.65
2021-06-25 11:23:12.609375000,-31.0,-5.0,56.0,90.6371875,8.75,1.0608818125000001,238.65
2021-06-25 11:23:12.617187500,-31.0,-5.0,56.0,90.63484375,8.28,1.06068165625,238.65
2021-06-25 11:23:12.625000000,-31.0,-5.0,56.0,90.6325,7.81,1.0604815,238.65
2021-06-25 11:23:12.632812500,-31.0,-5.0,55.75,90.63015625,7.05,1.06028134375,238.65
2021-06-25 11:23:12.640625000,-31.0,-5.0,55.5,90.62781249999999,6.29,1.0600811875,238.65
2021-06-25 11:23:12.648437500,-31.0,-5.0,55.25,90.62546875,5.12,1.05988103125,238.65
2021-06-25 11:23:12.656250000,-31.0,-5.0,55.0,90.623125,3.95,1.0596808750000002,238.65
2021-06-25 11:23:12.664062500,-31.0,-5.0,55.25,90.62078125,2.3600000000000003,1.0594807187500002,238.65
2021-06-25 11:23:12.671875000,-31.0,-5.0,55.5,90.6184375,0.77,1.0592805625000001,238.65
2021-06-25 11:23:12.679687500,-31.0,-5.0,55.75,90.61609374999999,-1.08,1.05908040625,238.65
2021-06-25 11:23:12.687500000,-31.0,-5.0,56.0,90.61375,-2.93,1.05888025,238.65
2021-06-25 11:23:12.695312500,-31.0,-5.0,55.75,90.61140625,-4.805,1.05868009375,238.65
2021-06-25 11:23:12.703125000,-31.0,-5.0,55.5,90.6090625,-6.68,1.0584799375,238.65
2021-06-25 11:23:12.710937500,-31.0,-5.0,55.25,90.60671875,-8.375,1.05827978125,238.65
2021-06-25 11:23:12.718750000,-31.0,-5.0,55.0,90.60437499999999,-10.07,1.058079625,238.65
2021-06-25 11:23:12.726562500,-31.0,-5.0,55.25,90.60203125,-11.495000000000001,1.0578794687500002,238.65
2021-06-25 11:23:12.734375000,-31.0,-5.0,55.5,90.5996875,-12.92,1.0576793125000001,238.65
2021-06-25 11:23:12.742187500,-31.0,-5.0,55.75,90.59734375,-14.11,1.05747915625,238.65
2021-06-25 11:23:12.750000000,-31.0,-5.0,56.0,90.595,-15.3,1.057279,238.65
2021-06-25 11:23:12.757812500,-31.0,-5.0,55.75,90.59265624999999,-16.405,1.0573590625,238.65
2021-06-25 11:23:12.765625000,-31.0,-5.0,55.5,90.5903125,-17.51,1.0574391250000001,238.65
2021-06-25 11:23:12.773437500,-31.0,-5.0,55.25,90.58796875,-18.705,1.0575191875,238.65
2021-06-25 11:23:12.781250000,-31.0,-5.0,55.0,90.585625,-19.9,1.05759925,238.65
2021-06-25 11:23:12.789062500,-31.0,-5.0,55.0,90.58328125,-21.314999999999998,1.0576793125000001,238.65
2021-06-25 11:23:12.796875000,-31.0,-5.0,55.0,90.58093749999999,-22.73,1.057759375,238.65
2021-06-25 11:23:12.804687500,-31.0,-5.0,55.0,90.57859375,-24.405,1.0578394375,238.65
2021-06-25 11:23:12.812500000,-31.0,-5.0,55.0,90.57625,-26.08,1.0579195000000001,238.65
2021-06-25 11:23:12.820312500,-31.0,-5.0,55.25,90.57390625,-27.895,1.0579995625,238.65
2021-06-25 11:23:12.828125000,-31.0,-5.0,55.5,90.5715625,-29.71,1.058079625,238.65
2021-06-25 11:23:12.835937500,-31.0,-5.0,55.75,90.56921874999999,-31.365000000000002,1.0581596875000001,238.65
2021-06-25 11:23:12.843750000,-31.0,-5.0,56.0,90.566875,-33.02,1.05823975,238.65
2021-06-25 11:23:12.851562500,-31.0,-5.0,55.75,90.56453125,-34.1,1.0583198125,238.65
2021-06-25 11:23:12.859375000,-31.0,-5.0,55.5,90.5621875,-35.18,1.058399875,238.65
2021-06-25 11:23:12.867187500,-31.0,-5.0,55.25,90.55984375,-35.245000000000005,1.0584799375,238.65
2021-06-25 11:23:12.875000000,-31.0,-5.0,55.0,90.55749999999999,-35.31,1.05856,238.65
2021-06-25 11:23:12.882812500,-31.0,-5.0,55.25,90.55515625,-34.09,1.0586400625,238.65
2021-06-25 11:23:12.890625000,-31.0,-5.0,55.5,90.5528125,-32.87,1.058720125,238.65
2021-06-25 11:23:12.898437500,-31.0,-5.0,55.75,90.55046875,-30.354999999999997,1.0588001875000002,238.65
2021-06-25 11:23:12.906250000,-31.0,-5.0,56.0,90.548125,-27.84,1.05888025,238.65
2021-06-25 11:23:12.914062500,-31.0,-5.0,56.0,90.54578124999999,-24.310000000000002,1.0589603125,238.65
2021-06-25 11:23:12.921875000,-31.0,-5.0,56.0,90.5434375,-20.78,1.0590403750000001,238.65
2021-06-25 11:23:12.929687500,-31.0,-5.0,56.0,90.54109375,-16.735,1.0591204375,238.65
2021-06-25 11:23:12.937500000,-31.0,-5.0,56.0,90.53875,-12.69,1.0592005,238.65
2021-06-25 11:23:12.945312500,-31.0,-5.0,56.0,90.53640625,-8.67,1.0592805625000001,238.65
2021-06-25 11:23:12.953125000,-31.0,-5.0,56.0,90.53406249999999,-4.65,1.059360625,238.65
2021-06-25 11:23:12.960937500,-31.0,-5.0,56.0,90.53171875,-1.085,1.0594406875,238.65
2021-06-25 11:23:12.968750000,-31.0,-5.0,56.0,90.529375,2.48,1.0595207500000001,238.65
2021-06-25 11:23:12.976562500,-31.0,-5.0,55.75,90.52703125,5.375,1.0596008125,238.65
2021-06-25 11:23:12.984375000,-31.0,-5.0,55.5,90.5246875,8.27,1.059680875,238.65
2021-06-25 11:23:12.992187500,-31.0,-5.0,55.25,90.52234374999999,10.455,1.0597609375,238.65
2021-06-25 11:23:13.000000000,-31.0,-5.0,55.0,90.52,12.64,1.059841,238.65
2021-06-25 11:23:13.007812500,-31.0,-5.0,55.0,90.51734375,14.185,1.05956078125,238.65
2021-06-25 11:23:13.015625000,-31.0,-5.0,55.0,90.5146875,15.73,1.0592805625000001,238.65
2021-06-25 11:23:13.023437500,-31.0,-5.0,55.0,90.51203124999999,16.705,1.05900034375,238.65
2021-06-25 11:23:13.031250000,-31.0,-5.0,55.0,90.50937499999999,17.68,1.058720125,238.65
2021-06-25 11:23:13.039062500,-31.0,-5.0,55.25,90.50671874999999,18.119999999999997,1.05843990625,238.65
2021-06-25 11:23:13.046875000,-31.0,-5.0,55.5,90.5040625,18.56,1.0581596875000001,238.65
2021-06-25 11:23:13.054687500,-31.0,-5.0,55.75,90.50140625,18.45,1.05787946875,238.65
2021-06-25 11:23:13.062500000,-31.0,-5.0,56.0,90.49875,18.34,1.05759925,238.65
2021-06-25 11:23:13.070312500,-31.0,-5.0,56.0,90.49609375,17.7,1.05731903125,238.65
2021-06-25 11:23:13.078125000,-31.0,-5.0,56.0,90.4934375,17.06,1.0570388125,238.65
2021-06-25 11:23:13.085937500,-31.0,-5.0,56.0,90.49078125,15.969999999999999,1.0567585937500001,238.65
2021-06-25 11:23:13.093750000,-31.0,-5.0,56.0,90.488125,14.88,1.056478375,238.65
2021-06-25 11:23:13.101562500,-31.0,-5.0,55.75,90.48546875,13.525,1.05619815625,238.65
2021-06-25 11:23:13.109375000,-31.0,-5.0,55.5,90.4828125,12.17,1.0559179375,238.65
2021-06-25 11:23:13.117187500,-31.0,-5.0,55.25,90.48015625,10.809999999999999,1.0556377187500001,238.65
2021-06-25 11:23:13.125000000,-31.0,-5.0,55.0,90.47749999999999,9.45,1.0553575,238.65
2021-06-25 11:23:13.132812500,-31.0,-5.0,55.25,90.47484374999999,8.315,1.05507728125,238.65
2021-06-25 11:23:13.140625000,-31.0,-5.0,55.5,90.4721875,7.18,1.0547970625,238.65
2021-06-25 11:23:13.148437500,-31.0,-5.0,55.75,90.46953125,6.4350000000000005,1.05451684375,238.65
2021-06-25 11:23:13.156250000,-31.0,-5.0,56.0,90.466875,5.69,1.0542366250000001,238.65
2021-06-25 11:23:13.164062500,-31.25,-5.0,56.0,90.46421875,5.36,1.05395640625,238.65
2021-06-25 11:23:13.171875000,-31.5,-5.0,56.0,90.4615625,5.03,1.0536761875,238.65
2021-06-25 11:23:13.179687500,-31.75,-5.0,56.0,90.45890625,5.03,1.05339596875,238.65
2021-06-25 11:23:13.187500000,-32.0,-5.0,56.0,90.45625,5.03,1.0531157500000001,238.65
2021-06-25 11:23:13.195312500,-31.75,-5.0,55.75,90.45359375,5.17,1.0528355312500002,238.65
2021-06-25 11:23:13.203125000,-31.5,-5.0,55.5,90.4509375,5.31,1.0525553125,238.65
2021-06-25 11:23:13.210937500,-31.25,-5.0,55.25,90.44828125,5.43,1.05227509375,238.65
2021-06-25 11:23:13.218750000,-31.0,-5.0,55.0,90.44562499999999,5.55,1.051994875,238.65
2021-06-25 11:23:13.226562500,-31.0,-5.0,55.0,90.44296874999999,5.52,1.0517146562500002,238.65
2021-06-25 11:23:13.234375000,-31.0,-5.0,55.0,90.4403125,5.49,1.0514344375,238.65
2021-06-25 11:23:13.242187500,-31.0,-5.0,55.0,90.43765625,5.25,1.05115421875,238.65
2021-06-25 11:23:13.250000000,-31.0,-5.0,55.0,90.435,5.01,1.050874,238.65
2021-06-25 11:23:13.257812500,-31.0,-5.0,55.0,90.43234375,4.55,1.05091403125,238.65
2021-06-25 11:23:13.265625000,-31.0,-5.0,55.0,90.4296875,4.09,1.0509540625,238.65
2021-06-25 11:23:13.273437500,-31.0,-5.0,55.0,90.42703125,3.395,1.05099409375,238.65
2021-06-25 11:23:13.281250000,-31.0,-5.0,55.0,90.424375,2.7,1.0510341250000002,238.65
2021-06-25 11:23:13.289062500,-31.0,-5.0,55.25,90.42171875,1.7400000000000002,1.0510741562500001,238.65
2021-06-25 11:23:13.296875000,-31.0,-5.0,55.5,90.4190625,0.78,1.0511141875,238.65
2021-06-25 11:23:13.304687500,-31.0,-5.0,55.75,90.41640625,-0.4650000000000001,1.05115421875,238.65
2021-06-25 11:23:13.312500000,-31.0,-5.0,56.0,90.41375,-1.71,1.05119425,238.65
2021-06-25 11:23:13.320312500,-31.0,-5.0,56.0,90.41109375,-3.225,1.05123428125,238.65
2021-06-25 11:23:13.328125000,-31.0,-5.0,56.0,90.4084375,-4.74,1.0512743125000001,238.65
2021-06-25 11:23:13.335937500,-31.0,-5.0,56.0,90.40578125,-6.445,1.05131434375,238.65
2021-06-25 11:23:13.343750000,-31.0,-5.0,56.0,90.403125,-8.15,1.051354375,238.65
2021-06-25 11:23:13.351562500,-31.0,-5.0,55.75,90.40046875,-9.915,1.05139440625,238.65
2021-06-25 11:23:13.359375000,-31.0,-5.0,55.5,90.3978125,-11.68,1.0514344375,238.65
2021-06-25 11:23:13.367187500,-31.0,-5.0,55.25,90.39515625,-13.399999999999999,1.05147446875,238.65
2021-06-25 11:23:13.375000000,-31.0,-5.0,55.0,90.3925,-15.12,1.0515145000000001,238.65
2021-06-25 11:23:13.382812500,-31.0,-5.0,55.25,90.38984375,-16.77,1.05155453125,238.65
2021-06-25 11:23:13.390625000,-31.0,-5.0,55.5,90.3871875,-18.42,1.0515945625,238.65
2021-06-25 11:23:13.398437500,-31.0,-5.0,55.75,90.38453125,-20.055,1.05163459375,238.65
2021-06-25 11:23:13.406250000,-31.0,-5.0,56.0,90.381875,-21.69,1.051674625,238.65
2021-06-25 11:23:13.414062500,-31.0,-5.0,56.0,90.37921875,-23.41,1.05171465625,238.65
2021-06-25 11:23:13.421875000,-31.0,-5.0,56.0,90.3765625,-25.13,1.0517546875,238.65
2021-06-25 11:23:13.429687500,-31.0,-5.0,56.0,90.37390625,-26.965,1.05179471875,238.65
2021-06-25 11:23:13.437500000,-31.0,-5.0,56.0,90.37125,-28.8,1.05183475,238.65
2021-06-25 11:23:13.445312500,-31.0,-5.0,56.0,90.36859375,-30.619999999999997,1.05187478125,238.65
2021-06-25 11:23:13.453125000,-31.0,-5.0,56.0,90.3659375,-32.44,1.0519148125,238.65
2021-06-25 11:23:13.460937500,-31.0,-5.0,56.0,90.36328125,-33.93,1.05195484375,238.65
2021-06-25 11:23:13.468750000,-31.0,-5.0,56.0,90.360625,-35.42,1.0519948749999999,238.65
2021-06-25 11:23:13.476562500,-31.0,-5.0,55.75,90.35796875,-36.16,1.05203490625,238.65
2021-06-25 11:23:13.484375000,-31.0,-5.0,55.5,90.3553125,-36.9,1.0520749375,238.65
2021-06-25 11:23:13.492187500,-31.0,-5.0,55.25,90.35265625,-36.504999999999995,1.05211496875,238.65
2021-06-25 11:23:13.500000000,-31.0,-5.0,55.0,90.35,-36.11,1.052155,238.65
2021-06-25 11:23:13.507812500,-31.0,-5.0,55.25,90.34734375000001,-34.415,1.0520749062499999,238.65
2021-06-25 11:23:13.515625000,-31.0,-5.0,55.5,90.3446875,-32.72,1.0519948125,238.65
2021-06-25 11:23:13.523437500,-31.0,-5.0,55.75,90.34203125,-29.805,1.05191471875,238.65
2021-06-25 11:23:13.531250000,-31.0,-5.0,56.0,90.339375,-26.89,1.051834625,238.65
2021-06-25 11:23:13.539062500,-31.0,-5.0,56.0,90.33671875,-23.09,1.05175453125,238.65
2021-06-25 11:23:13.546875000,-31.0,-5.0,56.0,90.3340625,-19.29,1.0516744375,238.65
2021-06-25 11:23:13.554687500,-31.0,-5.0,56.0,90.33140625,-15.085,1.05159434375,238.65
2021-06-25 11:23:13.562500000,-31.0,-5.0,56.0,90.32875,-10.88,1.0515142499999999,238.65
2021-06-25 11:23:13.570312500,-31.0,-5.0,56.0,90.32609375,-6.74,1.05143415625,238.65
2021-06-25 11:23:13.578125000,-31.0,-5.0,56.0,90.3234375,-2.6,1.0513540625,238.65
2021-06-25 11:23:13.585937500,-31.0,-5.0,56.0,90.32078125,1.1099999999999999,1.05127396875,238.65
2021-06-25 11:23:13.593750000,-31.0,-5.0,56.0,90.31812500000001,4.82,1.051193875,238.65
2021-06-25 11:23:13.601562500,-31.0,-5.0,55.75,90.31546875000001,7.875,1.05111378125,238.65
2021-06-25 11:23:13.609375000,-31.0,-5.0,55.5,90.3128125,10.93,1.0510336875,238.65
2021-06-25 11:23:13.617187500,-31.0,-5.0,55.25,90.31015625,13.280000000000001,1.05095359375,238.65
2021-06-25 11:23:13.625000000,-31.0,-5.0,55.0,90.3075,15.63,1.0508735,238.65
2021-06-25 11:23:13.632812500,-31.0,-5.0,55.25,90.30484375,17.29,1.05079340625,238.65
2021-06-25 11:23:13.640625000,-31.0,-5.0,55.5,90.3021875,18.95,1.0507133125,238.65
2021-06-25 11:23:13.648437500,-31.0,-5.0,55.75,90.29953125,19.965,1.05063321875,238.65
2021-06-25 11:23:13.656250000,-31.0,-5.0,56.0,90.296875,20.98,1.050553125,238.65
2021-06-25 11:23:13.664062500,-31.0,-5.0,56.0,90.29421875,21.4,1.0504730312500001,238.65
2021-06-25 11:23:13.671875000,-31.0,-5.0,56.0,90.2915625,21.82,1.0503929375,238.65
2021-06-25 11:23:13.679687500,-31.0,-5.0,56.0,90.28890625,21.72,1.05031284375,238.65
2021-06-25 11:23:13.687500000,-31.0,-5.0,56.0,90.28625000000001,21.62,1.0502327500000002,238.65
2021-06-25 11:23:13.695312500,-31.0,-5.0,56.0,90.28359375000001,21.12,1.05015265625,238.65
2021-06-25 11:23:13.703125000,-31.0,-5.0,56.0,90.28093750000001,20.62,1.0500725625,238.65
2021-06-25 11:23:13.710937500,-31.0,-5.0,56.0,90.27828125,19.89,1.04999246875,238.65
2021-06-25 11:23:13.718750000,-31.0,-5.0,56.0,90.275625,19.16,1.0499123750000001,238.65
2021-06-25 11:23:13.726562500,-31.0,-5.0,56.0,90.27296875,18.375,1.04983228125,238.65
2021-06-25 11:23:13.734375000,-31.0,-5.0,56.0,90.2703125,17.59,1.0497521875,238.65
2021-06-25 11:23:13.742187500,-31.0,-5.0,56.0,90.26765625,16.865000000000002,1.0496720937500001,238.65
2021-06-25 11:23:13.750000000,-31.0,-5.0,56.0,90.265,16.14,1.049592,238.65
2021-06-25 11:23:13.757812500,-31.0,-5.0,56.0,90.26234375,15.5,1.04975215625,238.65
2021-06-25 11:23:13.765625000,-31.0,-5.0,56.0,90.2596875,14.86,1.0499123125,238.65
2021-06-25 11:23:13.773437500,-31.0,-5.0,56.0,90.25703125000001,14.274999999999999,1.05007246875,238.65
2021-06-25 11:23:13.781250000,-31.0,-5.0,56.0,90.25437500000001,13.69,1.050232625,238.65
2021-06-25 11:23:13.789062500,-31.0,-5.0,55.75,90.25171875000001,13.094999999999999,1.05039278125,238.65
2021-06-25 11:23:13.796875000,-31.0,-5.0,55.5,90.24906250000001,12.5,1.0505529375,238.65
2021-06-25 11:23:13.804687500,-31.0,-5.0,55.25,90.24640625,11.905000000000001,1.05071309375,238.65
2021-06-25 11:23:13.812500000,-31.0,-5.0,55.0,90.24375,11.31,1.05087325,238.65
2021-06-25 11:23:13.820312500,-31.0,-5.0,55.0,90.24109375,10.765,1.05103340625,238.65
2021-06-25 11:23:13.828125000,-31.0,-5.0,55.0,90.2384375,10.22,1.0511935625,238.65
2021-06-25 11:23:13.835937500,-31.0,-5.0,55.0,90.23578125,9.83,1.05135371875,238.65
2021-06-25 11:23:13.843750000,-31.0,-5.0,55.0,90.233125,9.44,1.051513875,238.65
2021-06-25 11:23:13.851562500,-31.0,-5.0,55.25,90.23046875,9.239999999999998,1.05167403125,238.65
2021-06-25 11:23:13.859375000,-31.0,-5.0,55.5,90.2278125,9.04,1.0518341875,238.65
2021-06-25 11:23:13.867187500,-31.0,-5.0,55.75,90.22515625000001,8.96,1.05199434375,238.65
2021-06-25 11:23:13.875000000,-31.0,-5.0,56.0,90.22250000000001,8.88,1.0521544999999999,238.65
2021-06-25 11:23:13.882812500,-31.0,-5.0,55.75,90.21984375000001,8.735,1.05231465625,238.65
2021-06-25 11:23:13.890625000,-31.0,-5.0,55.5,90.21718750000001,8.59,1.0524748125,238.65
2021-06-25 11:23:13.898437500,-31.0,-5.0,55.25,90.21453125000001,8.18,1.05263496875,238.65
2021-06-25 11:23:13.906250000,-31.0,-5.0,55.0,90.211875,7.77,1.052795125,238.65
2021-06-25 11:23:13.914062500,-31.0,-5.0,55.0,90.20921875,6.935,1.05295528125,238.65
2021-06-25 11:23:13.921875000,-31.0,-5.0,55.0,90.2065625,6.1,1.0531154375,238.65
2021-06-25 11:23:13.929687500,-31.0,-5.0,55.0,90.20390625,4.845,1.05327559375,238.65
2021-06-25 11:23:13.937500000,-31.0,-5.0,55.0,90.20125,3.59,1.05343575,238.65
2021-06-25 11:23:13.945312500,-31.0,-5.0,55.25,90.19859375,2.05,1.05359590625,238.65
2021-06-25 11:23:13.953125000,-31.0,-5.0,55.5,90.1959375,0.51,1.0537560625,238.65
2021-06-25 11:23:13.960937500,-31.0,-5.0,55.75,90.19328125000001,-1.1500000000000001,1.05391621875,238.65
2021-06-25 11:23:13.968750000,-31.0,-5.0,56.0,90.19062500000001,-2.81,1.054076375,238.65
2021-06-25 11:23:13.976562500,-31.0,-5.0,55.75,90.18796875000001,-4.45,1.05423653125,238.65
2021-06-25 11:23:13.984375000,-31.0,-5.0,55.5,90.18531250000001,-6.09,1.0543966875,238.65
2021-06-25 11:23:13.992187500,-31.0,-5.0,55.25,90.18265625000001,-7.68,1.05455684375,238.65
2021-06-25 11:23:14.000000000,-31.0,-5.0,55.0,90.18,-9.27,1.054717,238.65
2021-06-25 11:23:14.007812500,-31.0,-5.0,55.25,90.1771875,-10.875,1.05447678125,238.65
2021-06-25 11:23:14.015625000,-31.0,-5.0,55.5,90.17437500000001,-12.48,1.0542365624999999,238.65
2021-06-25 11:23:14.023437500,-31.0,-5.0,55.75,90.17156250000001,-14.21,1.05399634375,238.65
2021-06-25 11:23:14.031250000,-31.0,-5.0,56.0,90.16875,-15.94,1.0537561249999998,238.65
2021-06-25 11:23:14.039062500,-31.0,-5.0,56.0,90.16593750000001,-17.875,1.05351590625,238.65
2021-06-25 11:23:14.046875000,-31.0,-5.0,56.0,90.16312500000001,-19.81,1.0532756875,238.65
2021-06-25 11:23:14.054687500,-31.0,-5.0,56.0,90.1603125,-21.975,1.0530354687499999,238.65
2021-06-25 11:23:14.062500000,-31.0,-5.0,56.0,90.1575,-24.14,1.05279525,238.65
2021-06-25 11:23:14.070312500,-31.0,-5.0,56.0,90.15468750000001,-26.495,1.0525550312499998,238.65
2021-06-25 11:23:14.078125000,-31.0,-5.0,56.0,90.151875,-28.85,1.0523148125,238.65
2021-06-25 11:23:14.085937500,-31.0,-5.0,56.0,90.1490625,-31.205000000000002,1.05207459375,238.65
2021-06-25 11:23:14.093750000,-31.0,-5.0,56.0,90.14625000000001,-33.56,1.0518343749999999,238.65
2021-06-25 11:23:14.101562500,-31.0,-5.0,56.0,90.1434375,-35.66,1.05159415625,238.65
2021-06-25 11:23:14.109375000,-31.0,-5.0,56.0,90.140625,-37.76,1.0513539374999998,238.65
2021-06-25 11:23:14.117187500,-31.0,-5.0,56.0,90.13781250000001,-39.209999999999994,1.05111371875,238.65
2021-06-25 11:23:14.125000000,-31.0,-5.0,56.0,90.135,-40.66,1.0508734999999998,238.65
2021-06-25 11:23:14.132812500,-31.0,-5.0,56.0,90.1321875,-41.065,1.0506332812499999,238.65
2021-06-25 11:23:14.140625000,-31.0,-5.0,56.0,90.12937500000001,-41.47,1.0503930625,238.65
2021-06-25 11:23:14.148437500,-31.0,-5.0,56.0,90.1265625,-40.485,1.0501528437499998,238.65
2021-06-25 11:23:14.156250000,-31.0,-5.0,56.0,90.12375,-39.5,1.049912625,238.65
2021-06-25 11:23:14.164062500,-31.0,-5.0,56.0,90.12093750000001,-37.004999999999995,1.0496724062499998,238.65
2021-06-25 11:23:14.171875000,-31.0,-5.0,56.0,90.118125,-34.51,1.0494321875,238.65
2021-06-25 11:23:14.179687500,-31.0,-5.0,56.0,90.1153125,-30.689999999999998,1.04919196875,238.65
2021-06-25 11:23:14.187500000,-31.0,-5.0,56.0,90.11250000000001,-26.87,1.0489517499999998,238.65
2021-06-25 11:23:14.195312500,-31.0,-5.0,56.0,90.1096875,-22.200000000000003,1.04871153125,238.65
2021-06-25 11:23:14.203125000,-31.0,-5.0,56.0,90.106875,-17.53,1.0484713124999998,238.65
2021-06-25 11:23:14.210937500,-31.0,-5.0,56.0,90.1040625,-12.675,1.04823109375,238.65
2021-06-25 11:23:14.218750000,-31.0,-5.0,56.0,90.10125000000001,-7.82,1.047990875,238.65
2021-06-25 11:23:14.226562500,-31.0,-5.0,56.0,90.0984375,-3.41,1.0477506562499999,238.65
2021-06-25 11:23:14.234375000,-31.0,-5.0,56.0,90.095625,1.0,1.0475104375,238.65
2021-06-25 11:23:14.242187500,-31.0,-5.0,56.0,90.09281250000001,4.515,1.0472702187499998,238.65
2021-06-25 11:23:14.250000000,-31.0,-5.0,56.0,90.09,8.03,1.04703,238.65
2021-06-25 11:23:14.257812500,-31.0,-5.0,56.0,90.0871875,10.504999999999999,1.04719015625,238.65
2021-06-25 11:23:14.265625000,-31.0,-5.0,56.0,90.08437500000001,12.98,1.0473503124999999,238.65
2021-06-25 11:23:14.273437500,-31.0,-5.0,56.0,90.0815625,14.535,1.0475104687499999,238.65
2021-06-25 11:23:14.281250000,-31.0,-5.0,56.0,90.07875,16.09,1.0476706249999999,238.65
2021-06-25 11:23:14.289062500,-31.0,-5.0,56.0,90.07593750000001,16.994999999999997,1.0478307812499998,238.65
2021-06-25 11:23:14.296875000,-31.0,-5.0,56.0,90.073125,17.9,1.0479909374999998,238.65
2021-06-25 11:23:14.304687500,-31.0,-5.0,56.0,90.0703125,18.465,1.0481510937499998,238.65
2021-06-25 11:23:14.312500000,-31.0,-5.0,56.0,90.0675,19.03,1.0483112499999998,238.65
2021-06-25 11:23:14.320312500,-31.0,-5.0,56.0,90.0646875,19.475,1.04847140625,238.65
2021-06-25 11:23:14.328125000,-31.0,-5.0,56.0,90.061875,19.92,1.0486315625,238.65
2021-06-25 11:23:14.335937500,-31.0,-5.0,56.0,90.0590625,20.365000000000002,1.04879171875,238.65
2021-06-25 11:23:14.343750000,-31.0,-5.0,56.0,90.05625,20.81,1.048951875,238.65
2021-06-25 11:23:14.351562500,-31.0,-5.0,56.0,90.0534375,21.259999999999998,1.04911203125,238.65
2021-06-25 11:23:14.359375000,-31.0,-5.0,56.0,90.050625,21.71,1.0492721875,238.65
2021-06-25 11:23:14.367187500,-31.0,-5.0,56.0,90.0478125,22.095,1.04943234375,238.65
2021-06-25 11:23:14.375000000,-31.0,-5.0,56.0,90.045,22.48,1.0495925,238.65
2021-06-25 11:23:14.382812500,-31.0,-5.0,56.0,90.0421875,22.675,1.04975265625,238.65
2021-06-25 11:23:14.390625000,-31.0,-5.0,56.0,90.039375,22.87,1.0499128125,238.65
2021-06-25 11:23:14.398437500,-31.0,-5.0,56.0,90.0365625,22.765,1.05007296875,238.65
2021-06-25 11:23:14.406250000,-31.0,-5.0,56.0,90.03375,22.66,1.0502331249999999,238.65
2021-06-25 11:23:14.414062500,-31.0,-5.0,56.0,90.03093750000001,22.195,1.0503932812499999,238.65
2021-06-25 11:23:14.421875000,-31.0,-5.0,56.0,90.028125,21.73,1.0505534374999999,238.65
2021-06-25 11:23:14.429687500,-31.0,-5.0,56.0,90.0253125,20.945,1.0507135937499998,238.65
2021-06-25 11:23:14.437500000,-31.0,-5.0,56.0,90.02250000000001,20.16,1.05087375,238.65
2021-06-25 11:23:14.445312500,-31.0,-5.0,56.0,90.0196875,19.189999999999998,1.05103390625,238.65
2021-06-25 11:23:14.453125000,-31.0,-5.0,56.0,90.016875,18.22,1.0511940625,238.65
2021-06-25 11:23:14.460937500,-31.0,-5.0,56.0,90.0140625,17.259999999999998,1.05135421875,238.65
2021-06-25 11:23:14.468750000,-31.0,-5.0,56.0,90.01125,16.3,1.051514375,238.65
2021-06-25 11:23:14.476562500,-31.0,-5.0,56.0,90.0084375,15.54,1.05167453125,238.65
2021-06-25 11:23:14.484375000,-31.0,-5.0,56.0,90.005625,14.78,1.0518346875,238.65
2021-06-25 11:23:14.492187500,-31.0,-5.0,56.0,90.0028125,14.305,1.05199484375,238.65
2021-06-25 11:23:14.500000000,-31.0,-5.0,56.0,90.0,13.83,1.052155,238.65
2021-06-25 11:23:14.507812500,-31.0,-5.0,55.75,89.9971875,13.575,1.0518747499999999,238.65
2021-06-25 11:23:14.515625000,-31.0,-5.0,55.5,89.994375,13.32,1.0515945,238.65
2021-06-25 11:23:14.523437500,-31.0,-5.0,55.25,89.9915625,13.135,1.05131425,238.65
2021-06-25 11:23:14.531250000,-31.0,-5.0,55.0,89.98875,12.95,1.051034,238.65
2021-06-25 11:23:14.539062500,-31.0,-5.0,55.25,89.9859375,12.62,1.05075375,238.65
2021-06-25 11:23:14.546875000,-31.0,-5.0,55.5,89.983125,12.29,1.0504735,238.65
2021-06-25 11:23:14.554687500,-31.0,-5.0,55.75,89.9803125,11.66,1.05019325,238.65
2021-06-25 11:23:14.562500000,-31.0,-5.0,56.0,89.97749999999999,11.03,1.049913,238.65
2021-06-25 11:23:14.570312500,-31.0,-5.0,56.0,89.9746875,10.035,1.04963275,238.65
2021-06-25 11:23:14.578125000,-31.0,-5.0,56.0,89.971875,9.04,1.0493525,238.65
2021-06-25 11:23:14.585937500,-31.0,-5.0,56.0,89.96906249999999,7.74,1.04907225,238.65
2021-06-25 11:23:14.593750000,-31.0,-5.0,56.0,89.96625,6.44,1.048792,238.65
2021-06-25 11:23:14.601562500,-31.0,-5.0,56.0,89.9634375,4.93,1.04851175,238.65
2021-06-25 11:23:14.609375000,-31.0,-5.0,56.0,89.960625,3.42,1.0482315,238.65
2021-06-25 11:23:14.617187500,-31.0,-5.0,56.0,89.9578125,1.82,1.0479512500000001,238.65
2021-06-25 11:23:14.625000000,-31.0,-5.0,56.0,89.955,0.22,1.047671,238.65
2021-06-25 11:23:14.632812500,-31.0,-5.0,55.75,89.9521875,-1.3650000000000002,1.04739075,238.65
2021-06-25 11:23:14.640625000,-31.0,-5.0,55.5,89.949375,-2.95,1.0471105,238.65
2021-06-25 11:23:14.648437500,-31.0,-5.0,55.25,89.9465625,-4.470000000000001,1.04683025,238.65
2021-06-25 11:23:14.656250000,-31.0,-5.0,55.0,89.94375,-5.99,1.04655,238.65
2021-06-25 11:23:14.664062500,-31.0,-5.0,55.0,89.9409375,-7.42,1.04626975,238.65
2021-06-25 11:23:14.671875000,-31.0,-5.0,55.0,89.938125,-8.85,1.0459895000000001,238.65
2021-06-25 11:23:14.679687500,-31.0,-5.0,55.0,89.9353125,-10.23,1.04570925,238.65
2021-06-25 11:23:14.687500000,-31.0,-5.0,55.0,89.9325,-11.61,1.045429,238.65
2021-06-25 11:23:14.695312500,-31.0,-5.0,55.25,89.9296875,-13.0,1.04514875,238.65
2021-06-25 11:23:14.703125000,-31.0,-5.0,55.5,89.926875,-14.39,1.0448685,238.65
2021-06-25 11:23:14.710937500,-31.0,-5.0,55.75,89.92406249999999,-15.9,1.04458825,238.65
2021-06-25 11:23:14.718750000,-31.0,-5.0,56.0,89.92125,-17.41,1.044308,238.65
2021-06-25 11:23:14.726562500,-31.0,-5.0,56.0,89.9184375,-19.15,1.0440277500000001,238.65
2021-06-25 11:23:14.734375000,-31.0,-5.0,56.0,89.91562499999999,-20.89,1.0437475,238.65
2021-06-25 11:23:14.742187500,-31.0,-5.0,56.0,89.9128125,-22.9,1.0434672500000002,238.65
2021-06-25 11:23:14.750000000,-31.0,-5.0,56.0,89.91,-24.91,1.043187,238.65
2021-06-25 11:23:14.757812500,-31.0,-5.0,56.0,89.90718749999999,-27.075,1.0433070937500002,238.65
2021-06-25 11:23:14.765625000,-31.0,-5.0,56.0,89.904375,-29.24,1.0434271875,238.65
2021-06-25 11:23:14.773437500,-31.0,-5.0,56.0,89.9015625,-31.259999999999998,1.04354728125,238.65
2021-06-25 11:23:14.781250000,-31.0,-5.0,56.0,89.89874999999999,-33.28,1.043667375,238.65
2021-06-25 11:23:14.789062500,-31.0,-5.0,56.0,89.8959375,-34.665,1.0437874687500002,238.65
2021-06-25 11:23:14.796875000,-31.0,-5.0,56.0,89.893125,-36.05,1.0439075625,238.65
2021-06-25 11:23:14.804687500,-31.0,-5.0,56.0,89.8903125,-36.29,1.04402765625,238.65
2021-06-25 11:23:14.812500000,-31.0,-5.0,56.0,89.88749999999999,-36.53,1.04414775,238.65
2021-06-25 11:23:14.820312500,-31.0,-5.0,55.75,89.8846875,-35.25,1.0442678437500001,238.65
2021-06-25 11:23:14.828125000,-31.0,-5.0,55.5,89.881875,-33.97,1.0443879375,238.65
2021-06-25 11:23:14.835937500,-31.0,-5.0,55.25,89.87906249999999,-31.115000000000002,1.04450803125,238.65
2021-06-25 11:23:14.843750000,-31.0,-5.0,55.0,89.87625,-28.26,1.044628125,238.65
2021-06-25 11:23:14.851562500,-31.0,-5.0,55.0,89.8734375,-24.125,1.0447482187500001,238.65
2021-06-25 11:23:14.859375000,-31.0,-5.0,55.0,89.87062499999999,-19.99,1.0448683125,238.65
2021-06-25 11:23:14.867187500,-31.0,-5.0,55.0,89.8678125,-15.204999999999998,1.04498840625,238.65
2021-06-25 11:23:14.875000000,-31.0,-5.0,55.0,89.865,-10.42,1.0451085,238.65
2021-06-25 11:23:14.882812500,-31.0,-5.0,55.25,89.86218749999999,-5.735,1.04522859375,238.65
2021-06-25 11:23:14.890625000,-31.0,-5.0,55.5,89.859375,-1.05,1.0453486875,238.65
2021-06-25 11:23:14.898437500,-31.0,-5.0,55.75,89.8565625,2.91,1.0454687812499999,238.65
2021-06-25 11:23:14.906250000,-31.0,-5.0,56.0,89.85374999999999,6.87,1.045588875,238.65
2021-06-25 11:23:14.914062500,-31.0,-5.0,56.0,89.8509375,9.74,1.04570896875,238.65
2021-06-25 11:23:14.921875000,-31.0,-5.0,56.0,89.848125,12.61,1.0458290625,238.65
2021-06-25 11:23:14.929687500,-31.0,-5.0,56.0,89.84531249999999,14.37,1.0459491562499998,238.65
2021-06-25 11:23:14.937500000,-31.0,-5.0,56.0,89.8425,16.13,1.04606925,238.65
2021-06-25 11:23:14.945312500,-31.0,-5.0,56.0,89.8396875,16.994999999999997,1.04618934375,238.65
2021-06-25 11:23:14.953125000,-31.0,-5.0,56.0,89.83687499999999,17.86,1.0463094375,238.65
2021-06-25 11:23:14.960937500,-31.0,-5.0,56.0,89.83406249999999,18.16,1.0464295312499998,238.65
2021-06-25 11:23:14.968750000,-31.0,-5.0,56.0,89.83125,18.46,1.046549625,238.65
2021-06-25 11:23:14.976562500,-31.0,-5.0,56.0,89.82843749999999,18.495,1.04666971875,238.65
2021-06-25 11:23:14.984375000,-31.0,-5.0,56.0,89.82562499999999,18.53,1.0467898125,238.65
2021-06-25 11:23:14.992187500,-31.0,-5.0,56.0,89.8228125,18.48,1.0469099062499998,238.65
2021-06-25 11:23:15.000000000,-31.0,-5.0,56.0,89.82,18.43,1.04703,238.65
2021-06-25 11:23:15.007812500,-31.0,-5.0,56.0,89.81734374999999,18.384999999999998,1.0469499375,238.65
2021-06-25 11:23:15.015625000,-31.0,-5.0,56.0,89.81468749999999,18.34,1.0468698749999998,238.65
2021-06-25 11:23:15.023437500,-31.0,-5.0,56.0,89.81203124999999,18.345,1.0467898125,238.65
2021-06-25 11:23:15.031250000,-31.0,-5.0,56.0,89.80937499999999,18.35,1.04670975,238.65
2021-06-25 11:23:15.039062500,-31.0,-5.0,56.0,89.80671874999999,18.41,1.0466296874999999,238.65
2021-06-25 11:23:15.046875000,-31.0,-5.0,56.0,89.8040625,18.47,1.046549625,238.65
2021-06-25 11:23:15.054687500,-31.0,-5.0,56.0,89.80140625,18.585,1.0464695625,238.65
2021-06-25 11:23:15.062500000,-31.0,-5.0,56.0,89.79875,18.7,1.0463894999999999,238.65
2021-06-25 11:23:15.070312500,-31.0,-5.0,56.0,89.79609375,18.825,1.0463094375,238.65
2021-06-25 11:23:15.078125000,-31.0,-5.0,56.0,89.7934375,18.95,1.046229375,238.65
2021-06-25 11:23:15.085937500,-31.0,-5.0,56.0,89.79078125,18.985,1.0461493124999999,238.65
2021-06-25 11:23:15.093750000,-31.0,-5.0,56.0,89.788125,19.02,1.04606925,238.65
2021-06-25 11:23:15.101562500,-31.0,-5.0,56.0,89.78546874999999,18.85,1.0459891875,238.65
2021-06-25 11:23:15.109375000,-31.0,-5.0,56.0,89.78281249999999,18.68,1.0459091249999999,238.65
2021-06-25 11:23:15.117187500,-31.0,-5.0,56.0,89.78015624999999,18.195,1.0458290625,238.65
2021-06-25 11:23:15.125000000,-31.0,-5.0,56.0,89.77749999999999,17.71,1.0457489999999998,238.65
2021-06-25 11:23:15.132812500,-31.0,-5.0,56.0,89.77484374999999,16.875,1.0456689375,238.65
2021-06-25 11:23:15.140625000,-31.0,-5.0,56.0,89.7721875,16.04,1.045588875,238.65
2021-06-25 11:23:15.148437500,-31.0,-5.0,56.0,89.76953125,14.915,1.0455088124999998,238.65
2021-06-25 11:23:15.156250000,-31.0,-5.0,56.0,89.766875,13.79,1.04542875,238.65
2021-06-25 11:23:15.164062500,-31.0,-5.0,56.0,89.76421875,12.504999999999999,1.0453486875,238.65
2021-06-25 11:23:15.171875000,-31.0,-5.0,56.0,89.7615625,11.22,1.0452686249999998,238.65
2021-06-25 11:23:15.179687500,-31.0,-5.0,56.0,89.75890625,9.945,1.0451885625,238.65
2021-06-25 11:23:15.187500000,-31.0,-5.0,56.0,89.75625,8.67,1.0451085,238.65
2021-06-25 11:23:15.195312500,-31.0,-5.0,56.0,89.75359375,7.525,1.0450284374999999,238.65
2021-06-25 11:23:15.203125000,-31.0,-5.0,56.0,89.75093749999999,6.38,1.044948375,238.65
2021-06-25 11:23:15.210937500,-31.0,-5.0,56.0,89.74828124999999,5.43,1.0448683125,238.65
2021-06-25 11:23:15.218750000,-31.0,-5.0,56.0,89.74562499999999,4.48,1.0447882499999999,238.65
2021-06-25 11:23:15.226562500,-31.0,-5.0,56.0,89.74296874999999,3.71,1.0447081875,238.65
2021-06-25 11:23:15.234375000,-31.0,-5.0,56.0,89.7403125,2.94,1.044628125,238.65
2021-06-25 11:23:15.242187500,-31.0,-5.0,56.0,89.73765625,2.27,1.0445480624999999,238.65
2021-06-25 11:23:15.250000000,-31.0,-5.0,56.0,89.735,1.6,1.044468,238.65
2021-06-25 11:23:15.257812500,-31.0,-5.0,56.0,89.73234375,0.915,1.04418778125,238.65
2021-06-25 11:23:15.265625000,-31.0,-5.0,56.0,89.7296875,0.23,1.0439075625,238.65
2021-06-25 11:23:15.273437500,-31.0,-5.0,56.0,89.72703125,-0.61,1.0436273437499999,238.65
2021-06-25 11:23:15.281250000,-31.0,-5.0,56.0,89.724375,-1.45,1.043347125,238.65
2021-06-25 11:23:15.289062500,-31.0,-5.0,55.75,89.72171875,-2.5250000000000004,1.04306690625,238.65
2021-06-25 11:23:15.296875000,-31.0,-5.0,55.5,89.71906249999999,-3.6,1.0427866875,238.65
2021-06-25 11:23:15.304687500,-31.0,-5.0,55.25,89.71640624999999,-4.935,1.0425064687499999,238.65
2021-06-25 11:23:15.312500000,-31.0,-5.0,55.0,89.71374999999999,-6.27,1.04222625,238.65
2021-06-25 11:23:15.320312500,-31.0,-5.0,55.25,89.71109375,-7.795,1.04194603125,238.65
2021-06-25 11:23:15.328125000,-31.0,-5.0,55.5,89.7084375,-9.32,1.0416658125,238.65
2021-06-25 11:23:15.335937500,-31.0,-5.0,55.75,89.70578125,-10.955,1.04138559375,238.65
2021-06-25 11:23:15.343750000,-31.0,-5.0,56.0,89.703125,-12.59,1.0411053749999999,238.65
2021-06-25 11:23:15.351562500,-31.0,-5.0,56.0,89.70046875,-14.285,1.04082515625,238.65
2021-06-25 11:23:15.359375000,-31.0,-5.0,56.0,89.6978125,-15.98,1.0405449375,238.65
2021-06-25 11:23:15.367187500,-31.0,-5.0,56.0,89.69515625,-17.765,1.04026471875,238.65
2021-06-25 11:23:15.375000000,-31.0,-5.0,56.0,89.6925,-19.55,1.0399845,238.65
2021-06-25 11:23:15.382812500,-31.0,-5.0,56.0,89.68984375,-21.505000000000003,1.03970428125,238.65
2021-06-25 11:23:15.390625000,-31.0,-5.0,56.0,89.6871875,-23.46,1.0394240625,238.65
2021-06-25 11:23:15.398437500,-31.0,-5.0,56.0,89.68453124999999,-25.55,1.03914384375,238.65
2021-06-25 11:23:15.406250000,-31.0,-5.0,56.0,89.68187499999999,-27.64,1.038863625,238.65
2021-06-25 11:23:15.414062500,-31.0,-5.0,56.0,89.67921875,-29.66,1.03858340625,238.65
2021-06-25 11:23:15.421875000,-31.0,-5.0,56.0,89.6765625,-31.68,1.0383031875,238.65
2021-06-25 11:23:15.429687500,-31.0,-5.0,56.0,89.67390625,-33.18,1.03802296875,238.65
2021-06-25 11:23:15.437500000,-31.0,-5.0,56.0,89.67125,-34.68,1.03774275,238.65
2021-06-25 11:23:15.445312500,-31.0,-5.0,56.0,89.66859375,-35.114999999999995,1.03746253125,238.65
2021-06-25 11:23:15.453125000,-31.0,-5.0,56.0,89.6659375,-35.55,1.0371823125,238.65
2021-06-25 11:23:15.460937500,-31.0,-5.0,56.0,89.66328125,-34.48,1.03690209375,238.65
2021-06-25 11:23:15.468750000,-31.0,-5.0,56.0,89.660625,-33.41,1.036621875,238.65
2021-06-25 11:23:15.476562500,-31.0,-5.0,55.75,89.65796875,-30.735,1.03634165625,238.65
2021-06-25 11:23:15.484375000,-31.0,-5.0,55.5,89.6553125,-28.06,1.0360614375,238.65
2021-06-25 11:23:15.492187500,-31.0,-5.0,55.25,89.65265624999999,-24.085,1.03578121875,238.65
2021-06-25 11:23:15.500000000,-31.0,-5.0,55.0,89.65,-20.11,1.035501,238.65
2021-06-25 11:23:15.507812500,-31.0,-5.0,55.25,89.64734375,-15.504999999999999,1.035661125,238.65
2021-06-25 11:23:15.515625000,-31.0,-5.0,55.5,89.6446875,-10.9,1.03582125,238.65
2021-06-25 11:23:15.523437500,-31.0,-5.0,55.75,89.64203125,-6.42,1.035981375,238.65
2021-06-25 11:23:15.531250000,-31.0,-5.0,56.0,89.639375,-1.94,1.0361415,238.65
2021-06-25 11:23:15.539062500,-31.0,-5.0,56.0,89.63671875,1.8249999999999997,1.036301625,238.65
2021-06-25 11:23:15.546875000,-31.0,-5.0,56.0,89.6340625,5.59,1.03646175,238.65
2021-06-25 11:23:15.554687500,-31.0,-5.0,56.0,89.63140625,8.365,1.036621875,238.65
2021-06-25 11:23:15.562500000,-31.0,-5.0,56.0,89.62875,11.14,1.036782,238.65
2021-06-25 11:23:15.570312500,-31.0,-5.0,56.0,89.62609375,12.985,1.036942125,238.65
2021-06-25 11:23:15.578125000,-31.0,-5.0,56.0,89.6234375,14.83,1.03710225,238.65
2021-06-25 11:23:15.585937500,-31.0,-5.0,56.0,89.62078125,15.995000000000001,1.037262375,238.65
2021-06-25 11:23:15.593750000,-31.0,-5.0,56.0,89.618125,17.16,1.0374225,238.65
2021-06-25 11:23:15.601562500,-31.0,-5.0,56.0,89.61546875,17.884999999999998,1.037582625,238.65
2021-06-25 11:23:15.609375000,-31.0,-5.0,56.0,89.6128125,18.61,1.03774275,238.65
2021-06-25 11:23:15.617187500,-31.0,-5.0,56.0,89.61015625,19.015,1.037902875,238.65
2021-06-25 11:23:15.625000000,-31.0,-5.0,56.0,89.6075,19.42,1.038063,238.65
2021-06-25 11:23:15.632812500,-31.0,-5.0,56.0,89.60484375,19.475,1.038223125,238.65
2021-06-25 11:23:15.640625000,-31.0,-5.0,56.0,89.6021875,19.53,1.0383832499999999,238.65
2021-06-25 11:23:15.648437500,-31.0,-5.0,56.0,89.59953125,19.15,1.038543375,238.65
2021-06-25 11:23:15.656250000,-31.0,-5.0,56.0,89.596875,18.77,1.0387035,238.65
2021-06-25 11:23:15.664062500,-31.0,-5.0,56.0,89.59421875,17.924999999999997,1.0388636249999998,238.65
2021-06-25 11:23:15.671875000,-31.0,-5.0,56.0,89.5915625,17.08,1.03902375,238.65
2021-06-25 11:23:15.679687500,-31.0,-5.0,56.0,89.58890625,15.884999999999998,1.039183875,238.65
2021-06-25 11:23:15.687500000,-31.0,-5.0,56.0,89.58625,14.69,1.0393439999999998,238.65
2021-06-25 11:23:15.695312500,-31.0,-5.0,56.0,89.58359375,13.385,1.039504125,238.65
2021-06-25 11:23:15.703125000,-31.0,-5.0,56.0,89.5809375,12.08,1.03966425,238.65
2021-06-25 11:23:15.710937500,-31.0,-5.0,56.0,89.57828125,10.95,1.039824375,238.65
2021-06-25 11:23:15.718750000,-31.0,-5.0,56.0,89.575625,9.82,1.0399844999999999,238.65
2021-06-25 11:23:15.726562500,-31.0,-5.0,56.0,89.57296875,9.09,1.040144625,238.65
2021-06-25 11:23:15.734375000,-31.0,-5.0,56.0,89.5703125,8.36,1.04030475,238.65
2021-06-25 11:23:15.742187500,-31.0,-5.0,56.0,89.56765625,8.084999999999999,1.0404648749999998,238.65
2021-06-25 11:23:15.750000000,-31.0,-5.0,56.0,89.565,7.81,1.040625,238.65
2021-06-25 11:23:15.757812500,-31.0,-5.0,56.0,89.56234375,7.865,1.0404648749999998,238.65
2021-06-25 11:23:15.765625000,-31.0,-5.0,56.0,89.5596875,7.92,1.04030475,238.65
2021-06-25 11:23:15.773437500,-31.0,-5.0,56.0,89.55703125000001,8.085,1.040144625,238.65
2021-06-25 11:23:15.781250000,-31.0,-5.0,56.0,89.55437500000001,8.25,1.0399844999999999,238.65
2021-06-25 11:23:15.789062500,-31.0,-5.0,56.0,89.55171875,8.309999999999999,1.039824375,238.65
2021-06-25 11:23:15.796875000,-31.0,-5.0,56.0,89.5490625,8.37,1.03966425,238.65
2021-06-25 11:23:15.804687500,-31.0,-5.0,56.0,89.54640625,8.18,1.039504125,238.65
2021-06-25 11:23:15.812500000,-31.0,-5.0,56.0,89.54375,7.99,1.0393439999999998,238.65
2021-06-25 11:23:15.820312500,-31.0,-5.0,56.0,89.54109375,7.52,1.039183875,238.65
2021-06-25 11:23:15.828125000,-31.0,-5.0,56.0,89.5384375,7.05,1.03902375,238.65
2021-06-25 11:23:15.835937500,-31.0,-5.0,56.0,89.53578125,6.35,1.0388636249999998,238.65
2021-06-25 11:23:15.843750000,-31.0,-5.0,56.0,89.533125,5.65,1.0387035,238.65
2021-06-25 11:23:15.851562500,-31.0,-5.0,56.0,89.53046875,4.800000000000001,1.038543375,238.65
2021-06-25 11:23:15.859375000,-31.0,-5.0,56.0,89.5278125,3.95,1.0383832499999999,238.65
2021-06-25 11:23:15.867187500,-31.0,-5.0,56.0,89.52515625000001,2.98,1.038223125,238.65
2021-06-25 11:23:15.875000000,-31.0,-5.0,56.0,89.52250000000001,2.01,1.038063,238.65
2021-06-25 11:23:15.882812500,-31.0,-5.0,56.0,89.51984375,0.9149999999999998,1.037902875,238.65
2021-06-25 11:23:15.890625000,-31.0,-5.0,56.0,89.5171875,-0.18,1.03774275,238.65
2021-06-25 11:23:15.898437500,-31.0,-5.0,56.0,89.51453125,-1.4149999999999998,1.037582625,238.65
2021-06-25 11:23:15.906250000,-31.0,-5.0,56.0,89.511875,-2.65,1.0374225,238.65
2021-06-25 11:23:15.914062500,-31.0,-5.0,56.0,89.50921875,-4.04,1.037262375,238.65
2021-06-25 11:23:15.921875000,-31.0,-5.0,56.0,89.5065625,-5.43,1.03710225,238.65
2021-06-25 11:23:15.929687500,-31.0,-5.0,56.0,89.50390625,-6.95,1.036942125,238.65
2021-06-25 11:23:15.937500000,-31.0,-5.0,56.0,89.50125,-8.47,1.036782,238.65
2021-06-25 11:23:15.945312500,-31.0,-5.0,56.0,89.49859375,-10.08,1.036621875,238.65
2021-06-25 11:23:15.953125000,-31.0,-5.0,56.0,89.4959375,-11.69,1.03646175,238.65
2021-06-25 11:23:15.960937500,-31.0,-5.0,56.0,89.49328125000001,-13.335,1.036301625,238.65
2021-06-25 11:23:15.968750000,-31.0,-5.0,56.0,89.49062500000001,-14.98,1.0361415,238.65
2021-06-25 11:23:15.976562500,-31.0,-5.0,56.0,89.48796875000001,-16.68,1.035981375,238.65
2021-06-25 11:23:15.984375000,-31.0,-5.0,56.0,89.4853125,-18.38,1.03582125,238.65
2021-06-25 11:23:15.992187500,-31.0,-5.0,56.0,89.48265625,-20.195,1.035661125,238.65
2021-06-25 11:23:16.000000000,-31.0,-5.0,56.0,89.48,-22.01,1.035501,238.65
2021-06-25 11:23:16.007812500,-31.0,-5.0,56.0,89.478046875,-24.0,1.035340875,238.65
2021-06-25 11:23:16.015625000,-31.0,-5.0,56.0,89.47609375,-25.99,1.03518075,238.65
2021-06-25 11:23:16.023437500,-31.0,-5.0,56.0,89.474140625,-28.104999999999997,1.035020625,238.65
2021-06-25 11:23:16.031250000,-31.0,-5.0,56.0,89.4721875,-30.22,1.0348605,238.65
2021-06-25 11:23:16.039062500,-31.0,-5.0,56.0,89.470234375,-32.224999999999994,1.0347003750000001,238.65
2021-06-25 11:23:16.046875000,-31.0,-5.0,56.0,89.46828125,-34.23,1.03454025,238.65
2021-06-25 11:23:16.054687500,-31.0,-5.0,56.0,89.466328125,-35.72,1.034380125,238.65
2021-06-25 11:23:16.062500000,-31.0,-5.0,56.0,89.464375,-37.21,1.03422,238.65
2021-06-25 11:23:16.070312500,-31.0,-5.0,56.0,89.462421875,-37.675,1.034059875,238.65
2021-06-25 11:23:16.078125000,-31.0,-5.0,56.0,89.46046875,-38.14,1.03389975,238.65
2021-06-25 11:23:16.085937500,-31.0,-5.0,56.0,89.458515625,-37.2,1.033739625,238.65
2021-06-25 11:23:16.093750000,-31.0,-5.0,56.0,89.4565625,-36.26,1.0335795,238.65
2021-06-25 11:23:16.101562500,-31.0,-5.0,56.0,89.454609375,-33.769999999999996,1.033419375,238.65
2021-06-25 11:23:16.109375000,-31.0,-5.0,56.0,89.45265625,-31.28,1.03325925,238.65
2021-06-25 11:23:16.117187500,-31.0,-5.0,56.0,89.450703125,-27.475,1.0330991250000001,238.65
2021-06-25 11:23:16.125000000,-31.0,-5.0,56.0,89.44875,-23.67,1.032939,238.65
2021-06-25 11:23:16.132812500,-31.0,-5.0,56.0,89.446796875,-19.055,1.032778875,238.65
2021-06-25 11:23:16.140625000,-31.0,-5.0,56.0,89.44484375,-14.44,1.0326187500000001,238.65
2021-06-25 11:23:16.148437500,-31.0,-5.0,56.0,89.442890625,-9.69,1.032458625,238.65
2021-06-25 11:23:16.156250000,-31.0,-5.0,56.0,89.4409375,-4.94,1.0322985,238.65
2021-06-25 11:23:16.164062500,-31.0,-5.0,56.0,89.438984375,-0.6550000000000002,1.0321383750000002,238.65
2021-06-25 11:23:16.171875000,-31.0,-5.0,56.0,89.43703125,3.63,1.03197825,238.65
2021-06-25 11:23:16.179687500,-31.0,-5.0,56.0,89.435078125,7.050000000000001,1.031818125,238.65
2021-06-25 11:23:16.187500000,-31.0,-5.0,56.0,89.433125,10.47,1.0316580000000002,238.65
2021-06-25 11:23:16.195312500,-31.0,-5.0,55.75,89.431171875,12.92,1.0314978750000001,238.65
2021-06-25 11:23:16.203125000,-31.0,-5.0,55.5,89.42921875,15.37,1.03133775,238.65
2021-06-25 11:23:16.210937500,-31.0,-5.0,55.25,89.427265625,16.974999999999998,1.031177625,238.65
2021-06-25 11:23:16.218750000,-31.0,-5.0,55.0,89.4253125,18.58,1.0310175000000001,238.65
2021-06-25 11:23:16.226562500,-31.0,-5.0,55.25,89.423359375,19.575,1.030857375,238.65
2021-06-25 11:23:16.234375000,-31.0,-5.0,55.5,89.42140625,20.57,1.03069725,238.65
2021-06-25 11:23:16.242187500,-31.0,-5.0,55.75,89.419453125,21.18,1.0305371250000002,238.65
2021-06-25 11:23:16.250000000,-31.0,-5.0,56.0,89.4175,21.79,1.030377,238.65
2021-06-25 11:23:16.257812500,-31.0,-5.0,56.0,89.415546875,22.13,1.03025690625,238.65
2021-06-25 11:23:16.265625000,-31.0,-5.0,56.0,89.41359375,22.47,1.0301368125,238.65
2021-06-25 11:23:16.273437500,-31.0,-5.0,56.0,89.411640625,22.57,1.03001671875,238.65
2021-06-25 11:23:16.281250000,-31.0,-5.0,56.0,89.4096875,22.67,1.0298966250000001,238.65
2021-06-25 11:23:16.289062500,-31.0,-5.0,56.0,89.407734375,22.505000000000003,1.02977653125,238.65
2021-06-25 11:23:16.296875000,-31.0,-5.0,56.0,89.40578125,22.34,1.0296564375000001,238.65
2021-06-25 11:23:16.304687500,-31.0,-5.0,56.0,89.403828125,21.915,1.02953634375,238.65
2021-06-25 11:23:16.312500000,-31.0,-5.0,56.0,89.401875,21.49,1.0294162500000001,238.65
2021-06-25 11:23:16.320312500,-31.0,-5.0,56.0,89.399921875,20.845,1.02929615625,238.65
2021-06-25 11:23:16.328125000,-31.0,-5.0,56.0,89.39796875,20.2,1.0291760625000002,238.65
2021-06-25 11:23:16.335937500,-31.0,-5.0,56.0,89.396015625,19.4,1.02905596875,238.65
2021-06-25 11:23:16.343750000,-31.0,-5.0,56.0,89.3940625,18.6,1.0289358750000002,238.65
2021-06-25 11:23:16.351562500,-31.0,-5.0,56.0,89.392109375,17.72,1.02881578125,238.65
2021-06-25 11:23:16.359375000,-31.0,-5.0,56.0,89.39015625,16.84,1.0286956875000002,238.65
2021-06-25 11:23:16.367187500,-31.0,-5.0,56.0,89.388203125,15.92,1.02857559375,238.65
2021-06-25 11:23:16.375000000,-31.0,-5.0,56.0,89.38625,15.0,1.0284555000000002,238.65
2021-06-25 11:23:16.382812500,-31.0,-5.0,56.0,89.384296875,14.08,1.02833540625,238.65
2021-06-25 11:23:16.390625000,-31.0,-5.0,56.0,89.38234375,13.16,1.0282153125,238.65
2021-06-25 11:23:16.398437500,-31.0,-5.0,56.0,89.380390625,12.285,1.02809521875,238.65
2021-06-25 11:23:16.406250000,-31.0,-5.0,56.0,89.3784375,11.41,1.027975125,238.65
2021-06-25 11:23:16.414062500,-31.0,-5.0,56.0,89.376484375,10.655000000000001,1.02785503125,238.65
2021-06-25 11:23:16.421875000,-31.0,-5.0,56.0,89.37453125,9.9,1.0277349375,238.65
2021-06-25 11:23:16.429687500,-31.0,-5.0,56.0,89.372578125,9.335,1.0276148437500001,238.65
2021-06-25 11:23:16.437500000,-31.0,-5.0,56.0,89.370625,8.77,1.02749475,238.65
2021-06-25 11:23:16.445312500,-31.0,-5.0,56.0,89.368671875,8.42,1.0273746562500001,238.65
2021-06-25 11:23:16.453125000,-31.0,-5.0,56.0,89.36671875,8.07,1.0272545625,238.65
2021-06-25 11:23:16.460937500,-31.0,-5.0,56.0,89.364765625,7.845000000000001,1.0271344687500001,238.65
2021-06-25 11:23:16.468750000,-31.0,-5.0,56.0,89.3628125,7.62,1.027014375,238.65
2021-06-25 11:23:16.476562500,-31.0,-5.0,56.0,89.360859375,7.355,1.0268942812500002,238.65
2021-06-25 11:23:16.484375000,-31.0,-5.0,56.0,89.35890625,7.09,1.0267741875,238.65
2021-06-25 11:23:16.492187500,-31.0,-5.0,56.0,89.356953125,6.6,1.0266540937500002,238.65
2021-06-25 11:23:16.500000000,-31.0,-5.0,56.0,89.355,6.11,1.026534,238.65
2021-06-25 11:23:16.507812500,-31.0,-5.0,56.0,89.353046875,5.265000000000001,1.0266540937500002,238.65
2021-06-25 11:23:16.515625000,-31.0,-5.0,56.0,89.35109375,4.42,1.0267741875,238.65
2021-06-25 11:23:16.523437500,-31.0,-5.0,56.0,89.349140625,3.2199999999999998,1.0268942812500002,238.65
2021-06-25 11:23:16.531250000,-31.0,-5.0,56.0,89.3471875,2.02,1.027014375,238.65
2021-06-25 11:23:16.539062500,-31.0,-5.0,56.0,89.345234375,0.5700000000000001,1.0271344687500001,238.65
2021-06-25 11:23:16.546875000,-31.0,-5.0,56.0,89.34328125,-0.88,1.0272545625,238.65
2021-06-25 11:23:16.554687500,-31.0,-5.0,56.0,89.341328125,-2.4499999999999997,1.0273746562500001,238.65
