TimeStamp,empatica.acc.x,empatica.acc.y,empatica.acc.z,empatica.hr,empatica.bvp,empatica.eda,empatica.temp
2021-06-29 12:31:23.351562500,-30.75,3.0,56.0,60.632109375,94.405,0.1573258125,33.84
2021-06-29 12:31:23.359375000,-30.5,3.0,56.0,60.63015625,95.61,0.157405875,33.84
2021-06-29 12:31:23.367187500,-30.25,3.0,56.0,60.628203125,95.97999999999999,0.1574859375,33.84
2021-06-29 12:31:23.375000000,-30.0,3.0,56.0,60.62625,96.35,0.15756599999999998,33.84
2021-06-29 12:31:23.382812500,-30.0,3.0,56.0,60.624296875,95.91,0.1576460625,33.84
2021-06-29 12:31:23.390625000,-30.0,3.0,56.0,60.62234375,95.47,0.157726125,33.84
2021-06-29 12:31:23.398437500,-30.0,3.0,56.0,60.620390625,94.35,0.1578061875,33.84
2021-06-29 12:31:23.406250000,-30.0,3.0,56.0,60.6184375,93.23,0.15788625,33.84
2021-06-29 12:31:23.414062500,-30.25,3.0,56.0,60.616484375,91.62,0.15796631249999998,33.84
2021-06-29 12:31:23.421875000,-30.5,3.0,56.0,60.61453125,90.01,0.158046375,33.84
2021-06-29 12:31:23.429687500,-30.75,3.0,56.0,60.612578125,88.05000000000001,0.1581264375,33.84
2021-06-29 12:31:23.437500000,-31.0,3.0,56.0,60.610625,86.09,0.1582065,33.84
2021-06-29 12:31:23.445312500,-31.0,3.0,56.0,60.608671875,83.88,0.1582865625,33.84
2021-06-29 12:31:23.453125000,-31.0,3.0,56.0,60.60671875,81.67,0.15836662499999998,33.84
2021-06-29 12:31:23.460937500,-31.0,3.0,56.0,60.604765625,79.295,0.1584466875,33.84
2021-06-29 12:31:23.468750000,-31.0,3.0,56.0,60.6028125,76.92,0.15852675,33.84
2021-06-29 12:31:23.476562500,-31.25,3.0,56.0,60.600859375,74.47,0.1586068125,33.84
2021-06-29 12:31:23.484375000,-31.5,3.0,56.0,60.59890625,72.02,0.15868687499999998,33.84
2021-06-29 12:31:23.492187500,-31.75,3.0,56.0,60.596953125,69.55,0.15876693749999998,33.84
2021-06-29 12:31:23.500000000,-32.0,3.0,56.0,60.595,67.08,0.158847,33.84
2021-06-29 12:31:23.507812500,-32.25,3.0,55.75,60.593046875,64.66,0.15876693749999998,33.84
2021-06-29 12:31:23.515625000,-32.5,3.0,55.5,60.59109375,62.24,0.15868687499999998,33.84
2021-06-29 12:31:23.523437500,-32.75,3.0,55.25,60.589140625,59.91,0.1586068125,33.84
2021-06-29 12:31:23.531250000,-33.0,3.0,55.0,60.5871875,57.58,0.15852675,33.84
2021-06-29 12:31:23.539062500,-32.75,3.0,55.25,60.585234375,55.345,0.1584466875,33.84
2021-06-29 12:31:23.546875000,-32.5,3.0,55.5,60.58328125,53.11,0.15836662499999998,33.84
2021-06-29 12:31:23.554687500,-32.25,3.0,55.75,60.581328125,50.95,0.1582865625,33.84
2021-06-29 12:31:23.562500000,-32.0,3.0,56.0,60.579375,48.79,0.1582065,33.84
2021-06-29 12:31:23.570312500,-31.75,3.0,56.0,60.577421875,46.65,0.1581264375,33.84
2021-06-29 12:31:23.578125000,-31.5,3.0,56.0,60.57546875,44.51,0.158046375,33.84
2021-06-29 12:31:23.585937500,-31.25,3.0,56.0,60.573515625,42.26,0.15796631249999998,33.84
2021-06-29 12:31:23.593750000,-31.0,3.0,56.0,60.5715625,40.01,0.15788625,33.84
2021-06-29 12:31:23.601562500,-31.0,3.0,56.0,60.569609375,37.51,0.1578061875,33.84
2021-06-29 12:31:23.609375000,-31.0,3.0,56.0,60.56765625,35.01,0.157726125,33.84
2021-06-29 12:31:23.617187500,-31.0,3.0,56.0,60.565703125,32.11,0.1576460625,33.84
2021-06-29 12:31:23.625000000,-31.0,3.0,56.0,60.56375,29.21,0.15756599999999998,33.84
2021-06-29 12:31:23.632812500,-31.25,3.0,56.0,60.561796875,25.815,0.1574859375,33.84
2021-06-29 12:31:23.640625000,-31.5,3.0,56.0,60.55984375,22.42,0.157405875,33.84
2021-06-29 12:31:23.648437500,-31.75,3.0,56.0,60.557890625,18.560000000000002,0.1573258125,33.84
2021-06-29 12:31:23.656250000,-32.0,3.0,56.0,60.5559375,14.7,0.15724575,33.84
2021-06-29 12:31:23.664062500,-32.0,2.75,55.75,60.553984375,10.5,0.1571656875,33.84
2021-06-29 12:31:23.671875000,-32.0,2.5,55.5,60.55203125,6.3,0.157085625,33.84
2021-06-29 12:31:23.679687500,-32.0,2.25,55.25,60.550078125,1.9349999999999996,0.1570055625,33.84
2021-06-29 12:31:23.687500000,-32.0,2.0,55.0,60.548125,-2.43,0.1569255,33.84
2021-06-29 12:31:23.695312500,-32.0,2.25,55.0,60.546171875,-6.790000000000001,0.1568454375,33.84
2021-06-29 12:31:23.703125000,-32.0,2.5,55.0,60.54421875,-11.15,0.156765375,33.84
2021-06-29 12:31:23.710937500,-32.0,2.75,55.0,60.542265625,-15.39,0.1566853125,33.84
2021-06-29 12:31:23.718750000,-32.0,3.0,55.0,60.5403125,-19.63,0.15660525,33.84
2021-06-29 12:31:23.726562500,-32.0,3.0,55.25,60.538359375,-23.695,0.1565251875,33.84
2021-06-29 12:31:23.734375000,-32.0,3.0,55.5,60.53640625,-27.76,0.15644512500000002,33.84
2021-06-29 12:31:23.742187500,-32.0,3.0,55.75,60.534453125,-31.619999999999997,0.1563650625,33.84
2021-06-29 12:31:23.750000000,-32.0,3.0,56.0,60.5325,-35.48,0.156285,33.84
2021-06-29 12:31:23.757812500,-32.0,3.0,55.75,60.530546875,-39.125,0.15644512500000002,33.84
2021-06-29 12:31:23.765625000,-32.0,3.0,55.5,60.52859375,-42.77,0.15660525,33.84
2021-06-29 12:31:23.773437500,-32.0,3.0,55.25,60.526640625,-46.205,0.156765375,33.84
2021-06-29 12:31:23.781250000,-32.0,3.0,55.0,60.5246875,-49.64,0.1569255,33.84
2021-06-29 12:31:23.789062500,-31.75,3.0,55.25,60.522734375,-52.875,0.157085625,33.84
2021-06-29 12:31:23.796875000,-31.5,3.0,55.5,60.52078125,-56.11,0.15724575000000002,33.84
2021-06-29 12:31:23.804687500,-31.25,3.0,55.75,60.518828125,-59.175,0.157405875,33.84
2021-06-29 12:31:23.812500000,-31.0,3.0,56.0,60.516875,-62.24,0.157566,33.84
2021-06-29 12:31:23.820312500,-31.0,2.75,56.0,60.514921875,-65.145,0.157726125,33.84
2021-06-29 12:31:23.828125000,-31.0,2.5,56.0,60.51296875,-68.05,0.15788625,33.84
2021-06-29 12:31:23.835937500,-31.0,2.25,56.0,60.511015625,-70.77,0.15804637500000002,33.84
2021-06-29 12:31:23.843750000,-31.0,2.0,56.0,60.5090625,-73.49,0.1582065,33.84
2021-06-29 12:31:23.851562500,-31.0,2.25,56.0,60.507109375,-75.97,0.158366625,33.84
2021-06-29 12:31:23.859375000,-31.0,2.5,56.0,60.50515625,-78.45,0.15852675,33.84
2021-06-29 12:31:23.867187500,-31.0,2.75,56.0,60.503203125,-80.61,0.158686875,33.84
2021-06-29 12:31:23.875000000,-31.0,3.0,56.0,60.50125,-82.77,0.15884700000000002,33.84
2021-06-29 12:31:23.882812500,-31.0,3.0,56.0,60.499296875,-84.56,0.159007125,33.84
2021-06-29 12:31:23.890625000,-31.0,3.0,56.0,60.49734375,-86.35,0.15916725,33.84
2021-06-29 12:31:23.898437500,-31.0,3.0,56.0,60.495390625,-87.815,0.159327375,33.84
2021-06-29 12:31:23.906250000,-31.0,3.0,56.0,60.4934375,-89.28,0.1594875,33.84
2021-06-29 12:31:23.914062500,-31.25,3.0,55.75,60.491484375,-90.575,0.159647625,33.84
2021-06-29 12:31:23.921875000,-31.5,3.0,55.5,60.48953125,-91.87,0.15980775,33.84
2021-06-29 12:31:23.929687500,-31.75,3.0,55.25,60.487578125,-93.265,0.159967875,33.84
2021-06-29 12:31:23.937500000,-32.0,3.0,55.0,60.485625,-94.66,0.160128,33.84
2021-06-29 12:31:23.945312500,-32.0,3.0,55.25,60.483671875,-96.49,0.160288125,33.84
2021-06-29 12:31:23.953125000,-32.0,3.0,55.5,60.48171875,-98.32,0.16044825,33.84
2021-06-29 12:31:23.960937500,-32.0,3.0,55.75,60.479765625,-100.85,0.160608375,33.84
2021-06-29 12:31:23.968750000,-32.0,3.0,56.0,60.4778125,-103.38,0.1607685,33.84
2021-06-29 12:31:23.976562500,-31.75,3.0,56.0,60.475859375,-106.66999999999999,0.160928625,33.84
2021-06-29 12:31:23.984375000,-31.5,3.0,56.0,60.47390625,-109.96,0.16108875,33.84
2021-06-29 12:31:23.992187500,-31.25,3.0,56.0,60.471953125,-113.74,0.16124887499999999,33.84
2021-06-29 12:31:24.000000000,-31.0,3.0,56.0,60.47,-117.52,0.161409,33.84
2021-06-29 12:31:24.007812500,-31.0,3.0,56.0,60.467890624999995,-121.16499999999999,0.16124887499999999,33.84
2021-06-29 12:31:24.015625000,-31.0,3.0,56.0,60.46578125,-124.81,0.16108875,33.84
2021-06-29 12:31:24.023437500,-31.0,3.0,56.0,60.463671874999996,-127.435,0.160928625,33.84
2021-06-29 12:31:24.031250000,-31.0,3.0,56.0,60.4615625,-130.06,0.1607685,33.84
2021-06-29 12:31:24.039062500,-31.0,3.0,56.0,60.459453124999996,-130.8,0.160608375,33.84
2021-06-29 12:31:24.046875000,-31.0,3.0,56.0,60.45734375,-131.54,0.16044825,33.84
2021-06-29 12:31:24.054687500,-31.0,3.0,56.0,60.455234374999996,-129.8,0.160288125,33.84
2021-06-29 12:31:24.062500000,-31.0,3.0,56.0,60.453125,-128.06,0.160128,33.84
2021-06-29 12:31:24.070312500,-31.0,3.0,56.0,60.451015625,-123.74000000000001,0.159967875,33.84
2021-06-29 12:31:24.078125000,-31.0,3.0,56.0,60.44890625,-119.42,0.15980775,33.84
2021-06-29 12:31:24.085937500,-31.0,3.0,56.0,60.446796875,-112.95,0.159647625,33.84
2021-06-29 12:31:24.093750000,-31.0,3.0,56.0,60.4446875,-106.48,0.1594875,33.84
2021-06-29 12:31:24.101562500,-31.0,3.0,55.75,60.442578125,-98.66,0.159327375,33.84
2021-06-29 12:31:24.109375000,-31.0,3.0,55.5,60.44046875,-90.84,0.15916725,33.84
2021-06-29 12:31:24.117187500,-31.0,3.0,55.25,60.438359375,-82.605,0.159007125,33.84
2021-06-29 12:31:24.125000000,-31.0,3.0,55.0,60.43625,-74.37,0.15884700000000002,33.84
2021-06-29 12:31:24.132812500,-31.0,3.0,55.25,60.434140625,-66.48,0.158686875,33.84
2021-06-29 12:31:24.140625000,-31.0,3.0,55.5,60.43203125,-58.59,0.15852675,33.84
2021-06-29 12:31:24.148437500,-31.0,3.0,55.75,60.429921875,-51.535,0.158366625,33.84
2021-06-29 12:31:24.156250000,-31.0,3.0,56.0,60.4278125,-44.48,0.1582065,33.84
2021-06-29 12:31:24.164062500,-31.0,3.0,56.0,60.425703125,-38.415,0.15804637500000002,33.84
2021-06-29 12:31:24.171875000,-31.0,3.0,56.0,60.42359375,-32.35,0.15788625,33.84
2021-06-29 12:31:24.179687500,-31.0,3.0,56.0,60.421484375,-27.205,0.157726125,33.84
2021-06-29 12:31:24.187500000,-31.0,3.0,56.0,60.419375,-22.06,0.157566,33.84
2021-06-29 12:31:24.195312500,-31.0,3.0,56.0,60.417265625,-17.615,0.157405875,33.84
2021-06-29 12:31:24.203125000,-31.0,3.0,56.0,60.41515625,-13.17,0.15724575000000002,33.84
2021-06-29 12:31:24.210937500,-31.0,3.0,56.0,60.413046875,-9.16,0.157085625,33.84
2021-06-29 12:31:24.218750000,-31.0,3.0,56.0,60.4109375,-5.15,0.1569255,33.84
2021-06-29 12:31:24.226562500,-31.0,3.0,56.0,60.408828125,-1.35,0.156765375,33.84
2021-06-29 12:31:24.234375000,-31.0,3.0,56.0,60.40671875,2.45,0.15660525,33.84
2021-06-29 12:31:24.242187500,-31.0,3.0,56.0,60.404609375,6.210000000000001,0.15644512500000002,33.84
2021-06-29 12:31:24.250000000,-31.0,3.0,56.0,60.4025,9.97,0.156285,33.84
2021-06-29 12:31:24.257812500,-31.0,3.0,56.0,60.400390625,13.760000000000002,0.15640509375,33.84
2021-06-29 12:31:24.265625000,-31.0,3.0,56.0,60.39828125,17.55,0.1565251875,33.84
2021-06-29 12:31:24.273437500,-31.0,3.0,56.0,60.396171875,21.335,0.15664528125000002,33.84
2021-06-29 12:31:24.281250000,-31.0,3.0,56.0,60.3940625,25.12,0.156765375,33.84
2021-06-29 12:31:24.289062500,-31.0,3.0,56.0,60.391953125,28.75,0.15688546875,33.84
2021-06-29 12:31:24.296875000,-31.0,3.0,56.0,60.38984375,32.38,0.1570055625,33.84
2021-06-29 12:31:24.304687500,-31.0,3.0,56.0,60.387734375,35.635000000000005,0.15712565625,33.84
2021-06-29 12:31:24.312500000,-31.0,3.0,56.0,60.385625,38.89,0.15724575000000002,33.84
2021-06-29 12:31:24.320312500,-31.0,3.0,56.25,60.383515625,41.545,0.15736584375,33.84
2021-06-29 12:31:24.328125000,-31.0,3.0,56.5,60.38140625,44.2,0.1574859375,33.84
2021-06-29 12:31:24.335937500,-31.0,3.0,56.75,60.379296875,46.11,0.15760603125,33.84
2021-06-29 12:31:24.343750000,-31.0,3.0,57.0,60.3771875,48.02,0.157726125,33.84
2021-06-29 12:31:24.351562500,-31.25,3.0,56.5,60.375078125,49.155,0.15784621875,33.84
2021-06-29 12:31:24.359375000,-31.5,3.0,56.0,60.37296875,50.29,0.1579663125,33.84
2021-06-29 12:31:24.367187500,-31.75,3.0,55.5,60.370859375,50.745000000000005,0.15808640625,33.84
2021-06-29 12:31:24.375000000,-32.0,3.0,55.0,60.36875,51.2,0.1582065,33.84
2021-06-29 12:31:24.382812500,-32.75,3.0,54.75,60.366640625,51.165000000000006,0.15832659375,33.84
2021-06-29 12:31:24.390625000,-33.5,3.0,54.5,60.36453125,51.13,0.1584466875,33.84
2021-06-29 12:31:24.398437500,-34.25,3.0,54.25,60.362421875,50.81,0.15856678125,33.84
2021-06-29 12:31:24.406250000,-35.0,3.0,54.0,60.3603125,50.49,0.158686875,33.84
2021-06-29 12:31:24.414062500,-33.5,3.0,54.75,60.358203125,50.035,0.15880696875,33.84
2021-06-29 12:31:24.421875000,-32.0,3.0,55.5,60.35609375,49.58,0.1589270625,33.84
2021-06-29 12:31:24.429687500,-30.5,3.0,56.25,60.353984375,49.06,0.15904715625,33.84
2021-06-29 12:31:24.437500000,-29.0,3.0,57.0,60.351875,48.54,0.15916724999999998,33.84
2021-06-29 12:31:24.445312500,-29.5,3.0,56.75,60.349765625,47.985,0.15928734375,33.84
2021-06-29 12:31:24.453125000,-30.0,3.0,56.5,60.34765625,47.43,0.1594074375,33.84
2021-06-29 12:31:24.460937500,-30.5,3.0,56.25,60.345546875000004,46.83,0.15952753125,33.84
2021-06-29 12:31:24.468750000,-31.0,3.0,56.0,60.3434375,46.23,0.159647625,33.84
2021-06-29 12:31:24.476562500,-31.0,3.0,56.0,60.341328125000004,45.584999999999994,0.15976771874999998,33.84
2021-06-29 12:31:24.484375000,-31.0,3.0,56.0,60.33921875,44.94,0.1598878125,33.84
2021-06-29 12:31:24.492187500,-31.0,3.0,56.0,60.337109375000004,44.254999999999995,0.16000790625,33.84
2021-06-29 12:31:24.500000000,-31.0,3.0,56.0,60.335,43.57,0.160128,33.84
2021-06-29 12:31:24.507812500,-31.0,3.0,56.0,60.332890625,42.805,0.16008796875,33.84
2021-06-29 12:31:24.515625000,-31.0,3.0,56.0,60.33078125,42.04,0.1600479375,33.84
2021-06-29 12:31:24.523437500,-31.0,3.0,56.0,60.328671875,41.144999999999996,0.16000790625,33.84
2021-06-29 12:31:24.531250000,-31.0,3.0,56.0,60.3265625,40.25,0.15996787499999998,33.84
2021-06-29 12:31:24.539062500,-31.0,3.0,56.0,60.324453125,39.17,0.15992784375,33.84
2021-06-29 12:31:24.546875000,-31.0,3.0,56.0,60.32234375,38.09,0.1598878125,33.84
2021-06-29 12:31:24.554687500,-31.0,3.0,56.0,60.320234375,36.82,0.15984778125,33.84
2021-06-29 12:31:24.562500000,-31.0,3.0,56.0,60.318125,35.55,0.15980775,33.84
2021-06-29 12:31:24.570312500,-31.0,3.0,56.0,60.316015625,34.15,0.15976771874999998,33.84
2021-06-29 12:31:24.578125000,-31.0,3.0,56.0,60.31390625,32.75,0.1597276875,33.84
2021-06-29 12:31:24.585937500,-31.0,3.0,56.0,60.311796875,31.355,0.15968765625,33.84
2021-06-29 12:31:24.593750000,-31.0,3.0,56.0,60.3096875,29.96,0.159647625,33.84
2021-06-29 12:31:24.601562500,-31.25,3.0,55.75,60.307578125,28.700000000000003,0.15960759375,33.84
2021-06-29 12:31:24.609375000,-31.5,3.0,55.5,60.30546875,27.44,0.15956756249999998,33.84
2021-06-29 12:31:24.617187500,-31.75,3.0,55.25,60.303359375,26.375,0.15952753125,33.84
2021-06-29 12:31:24.625000000,-32.0,3.0,55.0,60.30125,25.31,0.1594875,33.84
2021-06-29 12:31:24.632812500,-32.0,3.25,55.25,60.299140625,24.42,0.15944746875,33.84
2021-06-29 12:31:24.640625000,-32.0,3.5,55.5,60.29703125,23.53,0.1594074375,33.84
2021-06-29 12:31:24.648437500,-32.0,3.75,55.75,60.294921875,22.72,0.15936740624999998,33.84
2021-06-29 12:31:24.656250000,-32.0,4.0,56.0,60.292812500000004,21.91,0.159327375,33.84
2021-06-29 12:31:24.664062500,-31.5,3.75,56.0,60.290703125,21.09,0.15928734374999998,33.84
2021-06-29 12:31:24.671875000,-31.0,3.5,56.0,60.288593750000004,20.27,0.1592473125,33.84
2021-06-29 12:31:24.679687500,-30.5,3.25,56.0,60.286484375,19.39,0.15920728125,33.84
2021-06-29 12:31:24.687500000,-30.0,3.0,56.0,60.284375000000004,18.51,0.15916724999999998,33.84
2021-06-29 12:31:24.695312500,-30.0,3.0,56.0,60.282265625,17.575000000000003,0.15912721875,33.84
2021-06-29 12:31:24.703125000,-30.0,3.0,56.0,60.280156250000005,16.64,0.15908718749999998,33.84
2021-06-29 12:31:24.710937500,-30.0,3.0,56.0,60.278046875,15.695,0.15904715625,33.84
2021-06-29 12:31:24.718750000,-30.0,3.0,56.0,60.275937500000005,14.75,0.159007125,33.84
2021-06-29 12:31:24.726562500,-30.75,3.0,55.75,60.273828125,13.84,0.15896709374999998,33.84
2021-06-29 12:31:24.734375000,-31.5,3.0,55.5,60.271718750000005,12.93,0.1589270625,33.84
2021-06-29 12:31:24.742187500,-32.25,3.0,55.25,60.269609375,12.059999999999999,0.15888703124999998,33.84
2021-06-29 12:31:24.750000000,-33.0,3.0,55.0,60.2675,11.19,0.158847,33.84
2021-06-29 12:31:24.757812500,-33.0,3.0,55.0,60.265390625,10.344999999999999,0.15880696875,33.84
2021-06-29 12:31:24.765625000,-33.0,3.0,55.0,60.26328125,9.5,0.15876693749999998,33.84
2021-06-29 12:31:24.773437500,-33.0,3.0,55.0,60.261171875,8.675,0.15872690625,33.84
2021-06-29 12:31:24.781250000,-33.0,3.0,55.0,60.2590625,7.85,0.158686875,33.84
2021-06-29 12:31:24.789062500,-32.75,3.0,55.25,60.256953125,7.035,0.15864684375,33.84
2021-06-29 12:31:24.796875000,-32.5,3.0,55.5,60.25484375,6.22,0.1586068125,33.84
2021-06-29 12:31:24.804687500,-32.25,3.0,55.75,60.252734375,5.4350000000000005,0.15856678124999998,33.84
2021-06-29 12:31:24.812500000,-32.0,3.0,56.0,60.250625,4.65,0.15852675,33.84
2021-06-29 12:31:24.820312500,-32.0,3.0,55.75,60.248515625,3.92,0.15848671875,33.84
2021-06-29 12:31:24.828125000,-32.0,3.0,55.5,60.24640625,3.19,0.1584466875,33.84
2021-06-29 12:31:24.835937500,-32.0,3.0,55.25,60.244296875,2.48,0.15840665625,33.84
2021-06-29 12:31:24.843750000,-32.0,3.0,55.0,60.2421875,1.77,0.15836662499999998,33.84
2021-06-29 12:31:24.851562500,-32.0,2.75,55.25,60.240078125000004,1.0150000000000001,0.15832659375,33.84
2021-06-29 12:31:24.859375000,-32.0,2.5,55.5,60.23796875,0.26,0.1582865625,33.84
2021-06-29 12:31:24.867187500,-32.0,2.25,55.75,60.235859375000004,-0.655,0.15824653125,33.84
2021-06-29 12:31:24.875000000,-32.0,2.0,56.0,60.23375,-1.57,0.1582065,33.84
2021-06-29 12:31:24.882812500,-32.0,2.25,55.75,60.231640625000004,-2.7649999999999997,0.15816646875,33.84
2021-06-29 12:31:24.890625000,-32.0,2.5,55.5,60.22953125,-3.96,0.1581264375,33.84
2021-06-29 12:31:24.898437500,-32.0,2.75,55.25,60.227421875000005,-5.49,0.15808640625,33.84
2021-06-29 12:31:24.906250000,-32.0,3.0,55.0,60.2253125,-7.02,0.15804637500000002,33.84
2021-06-29 12:31:24.914062500,-31.75,3.0,55.0,60.223203125000005,-8.855,0.15800634375,33.84
2021-06-29 12:31:24.921875000,-31.5,3.0,55.0,60.22109375,-10.69,0.1579663125,33.84
2021-06-29 12:31:24.929687500,-31.25,3.0,55.0,60.218984375000005,-12.695,0.15792628125,33.84
2021-06-29 12:31:24.937500000,-31.0,3.0,55.0,60.216875,-14.7,0.15788625,33.84
2021-06-29 12:31:24.945312500,-31.25,3.0,55.5,60.214765625000005,-16.7,0.15784621875000002,33.84
2021-06-29 12:31:24.953125000,-31.5,3.0,56.0,60.21265625,-18.7,0.1578061875,33.84
2021-06-29 12:31:24.960937500,-31.75,3.0,56.5,60.210546875000006,-20.535,0.15776615625,33.84
2021-06-29 12:31:24.968750000,-32.0,3.0,57.0,60.2084375,-22.37,0.157726125,33.84
2021-06-29 12:31:24.976562500,-32.0,2.75,56.75,60.206328125000006,-24.0,0.15768609375,33.84
2021-06-29 12:31:24.984375000,-32.0,2.5,56.5,60.20421875,-25.63,0.15764606250000002,33.84
2021-06-29 12:31:24.992187500,-32.0,2.25,56.25,60.202109375000006,-27.115000000000002,0.15760603125,33.84
2021-06-29 12:31:25.000000000,-32.0,2.0,56.0,60.2,-28.6,0.157566,33.84
2021-06-29 12:31:25.007812500,-32.0,2.25,55.75,60.197890625,-30.1,0.15760603125,33.84
2021-06-29 12:31:25.015625000,-32.0,2.5,55.5,60.19578125,-31.6,0.15764606250000002,33.84
2021-06-29 12:31:25.023437500,-32.0,2.75,55.25,60.193671875,-33.315,0.15768609375,33.84
2021-06-29 12:31:25.031250000,-32.0,3.0,55.0,60.1915625,-35.03,0.157726125,33.84
2021-06-29 12:31:25.039062500,-32.0,3.0,55.0,60.189453125,-37.129999999999995,0.15776615625,33.84
2021-06-29 12:31:25.046875000,-32.0,3.0,55.0,60.187343750000004,-39.23,0.1578061875,33.84
2021-06-29 12:31:25.054687500,-32.0,3.0,55.0,60.185234375,-41.825,0.15784621875000002,33.84
2021-06-29 12:31:25.062500000,-32.0,3.0,55.0,60.183125000000004,-44.42,0.15788625,33.84
2021-06-29 12:31:25.070312500,-31.75,3.0,55.25,60.181015625,-47.535,0.15792628125,33.84
2021-06-29 12:31:25.078125000,-31.5,3.0,55.5,60.178906250000004,-50.65,0.1579663125,33.84
2021-06-29 12:31:25.085937500,-31.25,3.0,55.75,60.176796875,-54.155,0.15800634375,33.84
2021-06-29 12:31:25.093750000,-31.0,3.0,56.0,60.174687500000005,-57.66,0.15804637500000002,33.84
2021-06-29 12:31:25.101562500,-30.75,3.0,56.0,60.172578125,-61.245,0.15808640625,33.84
2021-06-29 12:31:25.109375000,-30.5,3.0,56.0,60.170468750000005,-64.83,0.1581264375,33.84
2021-06-29 12:31:25.117187500,-30.25,3.0,56.0,60.168359375,-67.975,0.15816646875,33.84
2021-06-29 12:31:25.125000000,-30.0,3.0,56.0,60.166250000000005,-71.12,0.1582065,33.84
2021-06-29 12:31:25.132812500,-30.25,2.75,56.0,60.164140625,-73.16499999999999,0.15824653125,33.84
2021-06-29 12:31:25.140625000,-30.5,2.5,56.0,60.162031250000005,-75.21,0.1582865625,33.84
2021-06-29 12:31:25.148437500,-30.75,2.25,56.0,60.159921875,-75.53999999999999,0.15832659375,33.84
2021-06-29 12:31:25.156250000,-31.0,2.0,56.0,60.157812500000006,-75.87,0.15836662499999998,33.84
2021-06-29 12:31:25.164062500,-31.25,2.25,55.75,60.155703125,-74.095,0.15840665625,33.84
2021-06-29 12:31:25.171875000,-31.5,2.5,55.5,60.15359375,-72.32,0.1584466875,33.84
2021-06-29 12:31:25.179687500,-31.75,2.75,55.25,60.151484375,-68.46,0.15848671875,33.84
2021-06-29 12:31:25.187500000,-32.0,3.0,55.0,60.149375,-64.6,0.15852675,33.84
2021-06-29 12:31:25.195312500,-32.0,3.0,55.25,60.147265625,-59.095,0.15856678124999998,33.84
2021-06-29 12:31:25.203125000,-32.0,3.0,55.5,60.14515625,-53.59,0.1586068125,33.84
2021-06-29 12:31:25.210937500,-32.0,3.0,55.75,60.143046875,-47.185,0.15864684375,33.84
2021-06-29 12:31:25.218750000,-32.0,3.0,56.0,60.1409375,-40.78,0.158686875,33.84
2021-06-29 12:31:25.226562500,-31.75,2.75,56.0,60.138828125,-34.295,0.15872690625,33.84
2021-06-29 12:31:25.234375000,-31.5,2.5,56.0,60.13671875,-27.81,0.15876693749999998,33.84
2021-06-29 12:31:25.242187500,-31.25,2.25,56.0,60.134609375000004,-21.91,0.15880696875,33.84
2021-06-29 12:31:25.250000000,-31.0,2.0,56.0,60.1325,-16.01,0.158847,33.84
2021-06-29 12:31:25.257812500,-31.25,2.25,56.0,60.130390625000004,-11.055,0.15876693749999998,33.84
2021-06-29 12:31:25.265625000,-31.5,2.5,56.0,60.12828125,-6.1,0.15868687499999998,33.84
2021-06-29 12:31:25.273437500,-31.75,2.75,56.0,60.126171875000004,-2.125,0.1586068125,33.84
2021-06-29 12:31:25.281250000,-32.0,3.0,56.0,60.1240625,1.85,0.15852675,33.84
2021-06-29 12:31:25.289062500,-31.5,3.0,56.0,60.121953125000005,5.055,0.1584466875,33.84
2021-06-29 12:31:25.296875000,-31.0,3.0,56.0,60.11984375,8.26,0.15836662499999998,33.84
2021-06-29 12:31:25.304687500,-30.5,3.0,56.0,60.117734375000005,11.015,0.1582865625,33.84
2021-06-29 12:31:25.312500000,-30.0,3.0,56.0,60.115625,13.77,0.1582065,33.84
2021-06-29 12:31:25.320312500,-30.0,3.0,56.0,60.113515625000005,16.384999999999998,0.1581264375,33.84
2021-06-29 12:31:25.328125000,-30.0,3.0,56.0,60.11140625,19.0,0.158046375,33.84
2021-06-29 12:31:25.335937500,-30.0,3.0,56.0,60.109296875,21.65,0.15796631249999998,33.84
2021-06-29 12:31:25.343750000,-30.0,3.0,56.0,60.1071875,24.3,0.15788625,33.84
2021-06-29 12:31:25.351562500,-30.5,3.0,56.0,60.105078125,27.009999999999998,0.1578061875,33.84
2021-06-29 12:31:25.359375000,-31.0,3.0,56.0,60.10296875,29.72,0.157726125,33.84
2021-06-29 12:31:25.367187500,-31.5,3.0,56.0,60.100859375,32.4,0.1576460625,33.84
2021-06-29 12:31:25.375000000,-32.0,3.0,56.0,60.09875,35.08,0.15756599999999998,33.84
2021-06-29 12:31:25.382812500,-32.0,2.75,55.75,60.096640625,37.57,0.1574859375,33.84
2021-06-29 12:31:25.390625000,-32.0,2.5,55.5,60.09453125,40.06,0.157405875,33.84
2021-06-29 12:31:25.398437500,-32.0,2.25,55.25,60.092421875,42.205,0.1573258125,33.84
2021-06-29 12:31:25.406250000,-32.0,2.0,55.0,60.0903125,44.35,0.15724575,33.84
2021-06-29 12:31:25.414062500,-31.5,2.25,55.25,60.088203125,46.065,0.1571656875,33.84
2021-06-29 12:31:25.421875000,-31.0,2.5,55.5,60.08609375,47.78,0.157085625,33.84
2021-06-29 12:31:25.429687500,-30.5,2.75,55.75,60.083984375,49.09,0.1570055625,33.84
2021-06-29 12:31:25.437500000,-30.0,3.0,56.0,60.081875000000004,50.4,0.1569255,33.84
2021-06-29 12:31:25.445312500,-30.25,2.75,56.0,60.079765625,51.41,0.1568454375,33.84
2021-06-29 12:31:25.453125000,-30.5,2.5,56.0,60.077656250000004,52.42,0.156765375,33.84
2021-06-29 12:31:25.460937500,-30.75,2.25,56.0,60.075546875,53.29,0.1566853125,33.84
2021-06-29 12:31:25.468750000,-31.0,2.0,56.0,60.073437500000004,54.16,0.15660525,33.84
2021-06-29 12:31:25.476562500,-31.25,2.25,56.0,60.071328125,55.06999999999999,0.1565251875,33.84
2021-06-29 12:31:25.484375000,-31.5,2.5,56.0,60.069218750000005,55.98,0.15644512500000002,33.84
2021-06-29 12:31:25.492187500,-31.75,2.75,56.0,60.067109375,57.09,0.1563650625,33.84
2021-06-29 12:31:25.500000000,-32.0,3.0,56.0,60.065,58.2,0.156285,33.84
2021-06-29 12:31:25.507812500,-31.75,3.0,56.0,60.062890625,59.620000000000005,0.15632503125,33.84
2021-06-29 12:31:25.515625000,-31.5,3.0,56.0,60.06078125,61.04,0.1563650625,33.84
2021-06-29 12:31:25.523437500,-31.25,3.0,56.0,60.058671875,62.84,0.15640509375,33.84
2021-06-29 12:31:25.531250000,-31.0,3.0,56.0,60.0565625,64.64,0.15644512500000002,33.84
2021-06-29 12:31:25.539062500,-30.5,3.0,56.25,60.054453125,66.795,0.15648515625,33.84
2021-06-29 12:31:25.546875000,-30.0,3.0,56.5,60.05234375,68.95,0.1565251875,33.84
2021-06-29 12:31:25.554687500,-29.5,3.0,56.75,60.050234375,71.315,0.15656521875,33.84
2021-06-29 12:31:25.562500000,-29.0,3.0,57.0,60.048125,73.68,0.15660525,33.84
2021-06-29 12:31:25.570312500,-29.5,3.0,56.75,60.046015625,75.995,0.15664528125000002,33.84
2021-06-29 12:31:25.578125000,-30.0,3.0,56.5,60.04390625,78.31,0.1566853125,33.84
2021-06-29 12:31:25.585937500,-30.5,3.0,56.25,60.041796875,80.245,0.15672534375,33.84
2021-06-29 12:31:25.593750000,-31.0,3.0,56.0,60.0396875,82.18,0.156765375,33.84
2021-06-29 12:31:25.601562500,-31.25,3.0,56.0,60.037578125,83.43,0.15680540625,33.84
2021-06-29 12:31:25.609375000,-31.5,3.0,56.0,60.03546875,84.68,0.15684543750000002,33.84
2021-06-29 12:31:25.617187500,-31.75,3.0,56.0,60.033359375,85.1,0.15688546875,33.84
2021-06-29 12:31:25.625000000,-32.0,3.0,56.0,60.03125,85.52,0.1569255,33.84
2021-06-29 12:31:25.632812500,-31.75,3.0,55.75,60.029140625000004,85.16,0.15696553125,33.84
2021-06-29 12:31:25.640625000,-31.5,3.0,55.5,60.02703125,84.8,0.1570055625,33.84
2021-06-29 12:31:25.648437500,-31.25,3.0,55.25,60.024921875000004,83.895,0.15704559375000002,33.84
2021-06-29 12:31:25.656250000,-31.0,3.0,55.0,60.0228125,82.99,0.157085625,33.84
2021-06-29 12:31:25.664062500,-31.25,3.0,55.25,60.020703125000004,81.86,0.15712565625000002,33.84
2021-06-29 12:31:25.671875000,-31.5,3.0,55.5,60.01859375,80.73,0.1571656875,33.84
2021-06-29 12:31:25.679687500,-31.75,3.0,55.75,60.016484375,79.635,0.15720571875,33.84
2021-06-29 12:31:25.687500000,-32.0,3.0,56.0,60.014375,78.54,0.15724575000000002,33.84
2021-06-29 12:31:25.695312500,-31.75,3.0,56.0,60.012265625,77.61500000000001,0.15728578125,33.84
2021-06-29 12:31:25.703125000,-31.5,3.0,56.0,60.01015625,76.69,0.15732581250000002,33.84
2021-06-29 12:31:25.710937500,-31.25,3.0,56.0,60.008046875,75.94,0.15736584375,33.84
2021-06-29 12:31:25.718750000,-31.0,3.0,56.0,60.0059375,75.19,0.157405875,33.84
2021-06-29 12:31:25.726562500,-31.0,3.0,56.0,60.003828125,74.525,0.15744590625000002,33.84
2021-06-29 12:31:25.734375000,-31.0,3.0,56.0,60.00171875,73.86,0.1574859375,33.84
2021-06-29 12:31:25.742187500,-31.0,3.0,56.0,59.999609375,73.19,0.15752596875000002,33.84
2021-06-29 12:31:25.750000000,-31.0,3.0,56.0,59.9975,72.52,0.157566,33.84
2021-06-29 12:31:25.757812500,-31.0,3.0,56.0,59.995390625,71.77,0.15752596875000002,33.84
2021-06-29 12:31:25.765625000,-31.0,3.0,56.0,59.99328125,71.02,0.1574859375,33.84
2021-06-29 12:31:25.773437500,-31.0,3.0,56.0,59.991171875,70.12,0.15744590625000002,33.84
2021-06-29 12:31:25.781250000,-31.0,3.0,56.0,59.9890625,69.22,0.157405875,33.84
2021-06-29 12:31:25.789062500,-31.0,3.0,56.0,59.986953125,68.095,0.15736584375,33.84
2021-06-29 12:31:25.796875000,-31.0,3.0,56.0,59.98484375,66.97,0.15732581250000002,33.84
2021-06-29 12:31:25.804687500,-31.0,3.0,56.0,59.982734375,65.49000000000001,0.15728578125,33.84
2021-06-29 12:31:25.812500000,-31.0,3.0,56.0,59.980625,64.01,0.15724575000000002,33.84
2021-06-29 12:31:25.820312500,-31.0,3.0,56.0,59.978515625,62.075,0.15720571875,33.84
2021-06-29 12:31:25.828125000,-31.0,3.0,56.0,59.976406250000004,60.14,0.1571656875,33.84
2021-06-29 12:31:25.835937500,-31.0,3.0,56.0,59.974296875,57.705,0.15712565625000002,33.84
2021-06-29 12:31:25.843750000,-31.0,3.0,56.0,59.9721875,55.27,0.157085625,33.84
2021-06-29 12:31:25.851562500,-31.0,3.0,56.0,59.970078125,52.39,0.15704559375000002,33.84
2021-06-29 12:31:25.859375000,-31.0,3.0,56.0,59.96796875,49.51,0.1570055625,33.84
2021-06-29 12:31:25.867187500,-31.0,3.0,56.0,59.965859375,46.3,0.15696553125,33.84
2021-06-29 12:31:25.875000000,-31.0,3.0,56.0,59.96375,43.09,0.1569255,33.84
2021-06-29 12:31:25.882812500,-31.0,3.0,56.0,59.961640625,39.665000000000006,0.15688546875,33.84
2021-06-29 12:31:25.890625000,-31.0,3.0,56.0,59.95953125,36.24,0.15684543750000002,33.84
2021-06-29 12:31:25.898437500,-31.0,3.0,56.0,59.957421875,32.635000000000005,0.15680540625,33.84
2021-06-29 12:31:25.906250000,-31.0,3.0,56.0,59.9553125,29.03,0.156765375,33.84
2021-06-29 12:31:25.914062500,-30.75,3.0,56.25,59.953203125,25.185000000000002,0.15672534375,33.84
2021-06-29 12:31:25.921875000,-30.5,3.0,56.5,59.95109375,21.34,0.1566853125,33.84
2021-06-29 12:31:25.929687500,-30.25,3.0,56.75,59.948984375,17.15,0.15664528125000002,33.84
2021-06-29 12:31:25.937500000,-30.0,3.0,57.0,59.946875,12.96,0.15660525,33.84
2021-06-29 12:31:25.945312500,-29.75,3.0,56.75,59.944765625,8.335,0.15656521875,33.84
2021-06-29 12:31:25.953125000,-29.5,3.0,56.5,59.94265625,3.71,0.1565251875,33.84
2021-06-29 12:31:25.960937500,-29.25,3.0,56.25,59.940546875,-1.37,0.15648515625,33.84
2021-06-29 12:31:25.968750000,-29.0,3.0,56.0,59.9384375,-6.45,0.15644512500000002,33.84
2021-06-29 12:31:25.976562500,-29.5,3.0,56.0,59.936328125,-11.915,0.15640509375,33.84
2021-06-29 12:31:25.984375000,-30.0,3.0,56.0,59.93421875,-17.38,0.1563650625,33.84
2021-06-29 12:31:25.992187500,-30.5,3.0,56.0,59.932109375,-23.104999999999997,0.15632503125,33.84
2021-06-29 12:31:26.000000000,-31.0,3.0,56.0,59.93,-28.83,0.156285,33.84
2021-06-29 12:31:26.007812500,-31.25,3.0,56.0,59.92796875,-34.67,0.1563650625,33.84
2021-06-29 12:31:26.015625000,-31.5,3.0,56.0,59.925937499999996,-40.51,0.15644512500000002,33.84
2021-06-29 12:31:26.023437500,-31.75,3.0,56.0,59.92390625,-46.345,0.1565251875,33.84
2021-06-29 12:31:26.031250000,-32.0,3.0,56.0,59.921875,-52.18,0.15660525,33.84
2021-06-29 12:31:26.039062500,-32.5,3.25,55.75,59.91984375,-57.91,0.1566853125,33.84
2021-06-29 12:31:26.046875000,-33.0,3.5,55.5,59.9178125,-63.64,0.156765375,33.84
2021-06-29 12:31:26.054687500,-33.5,3.75,55.25,59.91578125,-69.215,0.1568454375,33.84
2021-06-29 12:31:26.062500000,-34.0,4.0,55.0,59.91375,-74.79,0.1569255,33.84
2021-06-29 12:31:26.070312500,-33.5,3.75,55.0,59.91171875,-80.25,0.1570055625,33.84
2021-06-29 12:31:26.078125000,-33.0,3.5,55.0,59.9096875,-85.71,0.157085625,33.84
2021-06-29 12:31:26.085937500,-32.5,3.25,55.0,59.90765625,-91.19999999999999,0.1571656875,33.84
2021-06-29 12:31:26.093750000,-32.0,3.0,55.0,59.905625,-96.69,0.15724575,33.84
2021-06-29 12:31:26.101562500,-32.25,3.0,55.0,59.90359375,-102.4,0.1573258125,33.84
2021-06-29 12:31:26.109375000,-32.5,3.0,55.0,59.9015625,-108.11,0.157405875,33.84
2021-06-29 12:31:26.117187500,-32.75,3.0,55.0,59.89953125,-114.19,0.1574859375,33.84
2021-06-29 12:31:26.125000000,-33.0,3.0,55.0,59.8975,-120.27,0.15756599999999998,33.84
2021-06-29 12:31:26.132812500,-32.75,3.0,55.0,59.89546875,-126.63499999999999,0.1576460625,33.84
2021-06-29 12:31:26.140625000,-32.5,3.0,55.0,59.8934375,-133.0,0.157726125,33.84
2021-06-29 12:31:26.148437500,-32.25,3.0,55.0,59.89140625,-139.255,0.1578061875,33.84
2021-06-29 12:31:26.156250000,-32.0,3.0,55.0,59.889375,-145.51,0.15788625,33.84
2021-06-29 12:31:26.164062500,-32.0,3.0,55.0,59.88734375,-150.945,0.15796631249999998,33.84
2021-06-29 12:31:26.171875000,-32.0,3.0,55.0,59.8853125,-156.38,0.158046375,33.84
2021-06-29 12:31:26.179687500,-32.0,3.0,55.0,59.88328125,-160.14999999999998,0.1581264375,33.84
2021-06-29 12:31:26.187500000,-32.0,3.0,55.0,59.88125,-163.92,0.1582065,33.84
2021-06-29 12:31:26.195312500,-32.0,3.0,55.0,59.87921875,-165.315,0.1582865625,33.84
2021-06-29 12:31:26.203125000,-32.0,3.0,55.0,59.8771875,-166.71,0.15836662499999998,33.84
2021-06-29 12:31:26.210937500,-32.0,3.0,55.0,59.87515625,-165.41500000000002,0.1584466875,33.84
2021-06-29 12:31:26.218750000,-32.0,3.0,55.0,59.873125,-164.12,0.15852675,33.84
2021-06-29 12:31:26.226562500,-32.25,3.0,55.0,59.87109375,-160.37,0.1586068125,33.84
2021-06-29 12:31:26.234375000,-32.5,3.0,55.0,59.8690625,-156.62,0.15868687499999998,33.84
2021-06-29 12:31:26.242187500,-32.75,3.0,55.0,59.867031250000004,-151.10000000000002,0.15876693749999998,33.84
2021-06-29 12:31:26.250000000,-33.0,3.0,55.0,59.865,-145.58,0.158847,33.84
2021-06-29 12:31:26.257812500,-32.5,3.0,55.25,59.86296875,-139.195,0.15880696875,33.84
2021-06-29 12:31:26.265625000,-32.0,3.0,55.5,59.8609375,-132.81,0.15876693749999998,33.84
2021-06-29 12:31:26.273437500,-31.5,3.0,55.75,59.85890625,-126.36,0.15872690625,33.84
2021-06-29 12:31:26.281250000,-31.0,3.0,56.0,59.856875,-119.91,0.158686875,33.84
2021-06-29 12:31:26.289062500,-31.0,3.0,55.75,59.85484375,-113.91499999999999,0.15864684375,33.84
2021-06-29 12:31:26.296875000,-31.0,3.0,55.5,59.8528125,-107.92,0.1586068125,33.84
2021-06-29 12:31:26.304687500,-31.0,3.0,55.25,59.85078125,-102.495,0.15856678124999998,33.84
2021-06-29 12:31:26.312500000,-31.0,3.0,55.0,59.84875,-97.07,0.15852675,33.84
2021-06-29 12:31:26.320312500,-31.0,3.0,55.25,59.84671875,-92.05,0.15848671875,33.84
2021-06-29 12:31:26.328125000,-31.0,3.0,55.5,59.8446875,-87.03,0.1584466875,33.84
2021-06-29 12:31:26.335937500,-31.0,3.0,55.75,59.84265625,-82.13,0.15840665625,33.84
2021-06-29 12:31:26.343750000,-31.0,3.0,56.0,59.840625,-77.23,0.15836662499999998,33.84
2021-06-29 12:31:26.351562500,-31.25,3.0,56.0,59.83859375,-72.23,0.15832659375,33.84
2021-06-29 12:31:26.359375000,-31.5,3.0,56.0,59.8365625,-67.23,0.1582865625,33.84
2021-06-29 12:31:26.367187500,-31.75,3.0,56.0,59.83453125,-62.005,0.15824653125,33.84
2021-06-29 12:31:26.375000000,-32.0,3.0,56.0,59.8325,-56.78,0.1582065,33.84
2021-06-29 12:31:26.382812500,-31.75,3.0,56.0,59.83046875,-51.379999999999995,0.15816646875,33.84
2021-06-29 12:31:26.390625000,-31.5,3.0,56.0,59.8284375,-45.98,0.1581264375,33.84
2021-06-29 12:31:26.398437500,-31.25,3.0,56.0,59.82640625,-40.51,0.15808640625,33.84
2021-06-29 12:31:26.406250000,-31.0,3.0,56.0,59.824375,-35.04,0.15804637500000002,33.84
2021-06-29 12:31:26.414062500,-31.0,3.0,56.0,59.82234375,-29.63,0.15800634375,33.84
2021-06-29 12:31:26.421875000,-31.0,3.0,56.0,59.8203125,-24.22,0.1579663125,33.84
2021-06-29 12:31:26.429687500,-31.0,3.0,56.0,59.81828125,-19.015,0.15792628125,33.84
2021-06-29 12:31:26.437500000,-31.0,3.0,56.0,59.816250000000004,-13.81,0.15788625,33.84
2021-06-29 12:31:26.445312500,-30.75,3.0,56.0,59.81421875,-8.965,0.15784621875000002,33.84
2021-06-29 12:31:26.453125000,-30.5,3.0,56.0,59.8121875,-4.12,0.1578061875,33.84
2021-06-29 12:31:26.460937500,-30.25,3.0,56.0,59.81015625,0.21499999999999986,0.15776615625,33.84
2021-06-29 12:31:26.468750000,-30.0,3.0,56.0,59.808125000000004,4.55,0.157726125,33.84
2021-06-29 12:31:26.476562500,-30.0,3.0,56.0,59.80609375,8.23,0.15768609375,33.84
2021-06-29 12:31:26.484375000,-30.0,3.0,56.0,59.8040625,11.91,0.15764606250000002,33.84
2021-06-29 12:31:26.492187500,-30.0,3.0,56.0,59.80203125,14.845,0.15760603125,33.84
2021-06-29 12:31:26.500000000,-30.0,3.0,56.0,59.8,17.78,0.157566,33.84
2021-06-29 12:31:26.507812500,-30.25,3.25,55.75,59.79796875,19.990000000000002,0.15752596875000002,33.84
2021-06-29 12:31:26.515625000,-30.5,3.5,55.5,59.7959375,22.2,0.1574859375,33.84
2021-06-29 12:31:26.523437500,-30.75,3.75,55.25,59.79390625,23.805,0.15744590625000002,33.84
2021-06-29 12:31:26.531250000,-31.0,4.0,55.0,59.791875,25.41,0.157405875,33.84
2021-06-29 12:31:26.539062500,-31.5,3.75,55.0,59.78984375,26.634999999999998,0.15736584375,33.84
2021-06-29 12:31:26.546875000,-32.0,3.5,55.0,59.7878125,27.86,0.15732581250000002,33.84
2021-06-29 12:31:26.554687500,-32.5,3.25,55.0,59.78578125,28.95,0.15728578125,33.84
2021-06-29 12:31:26.562500000,-33.0,3.0,55.0,59.78375,30.04,0.15724575000000002,33.84
2021-06-29 12:31:26.570312500,-32.75,3.0,55.0,59.78171875,31.205,0.15720571875,33.84
2021-06-29 12:31:26.578125000,-32.5,3.0,55.0,59.7796875,32.37,0.1571656875,33.84
2021-06-29 12:31:26.585937500,-32.25,3.0,55.0,59.77765625,33.72,0.15712565625000002,33.84
2021-06-29 12:31:26.593750000,-32.0,3.0,55.0,59.775625,35.07,0.157085625,33.84
2021-06-29 12:31:26.601562500,-32.25,3.0,55.25,59.77359375,36.614999999999995,0.15704559375000002,33.84
2021-06-29 12:31:26.609375000,-32.5,3.0,55.5,59.7715625,38.16,0.1570055625,33.84
2021-06-29 12:31:26.617187500,-32.75,3.0,55.75,59.76953125,39.8,0.15696553125,33.84
2021-06-29 12:31:26.625000000,-33.0,3.0,56.0,59.7675,41.44,0.1569255,33.84
2021-06-29 12:31:26.632812500,-32.5,3.0,56.0,59.765468750000004,43.019999999999996,0.15688546875,33.84
2021-06-29 12:31:26.640625000,-32.0,3.0,56.0,59.7634375,44.6,0.15684543750000002,33.84
2021-06-29 12:31:26.648437500,-31.5,3.0,56.0,59.76140625,46.0,0.15680540625,33.84
2021-06-29 12:31:26.656250000,-31.0,3.0,56.0,59.759375,47.4,0.156765375,33.84
2021-06-29 12:31:26.664062500,-31.0,3.0,55.75,59.757343750000004,48.56,0.15672534375,33.84
2021-06-29 12:31:26.671875000,-31.0,3.0,55.5,59.7553125,49.72,0.1566853125,33.84
2021-06-29 12:31:26.679687500,-31.0,3.0,55.25,59.75328125,50.7,0.15664528125000002,33.84
2021-06-29 12:31:26.687500000,-31.0,3.0,55.0,59.75125,51.68,0.15660525,33.84
2021-06-29 12:31:26.695312500,-31.0,3.25,55.25,59.749218750000004,52.620000000000005,0.15656521875,33.84
2021-06-29 12:31:26.703125000,-31.0,3.5,55.5,59.7471875,53.56,0.1565251875,33.84
2021-06-29 12:31:26.710937500,-31.0,3.75,55.75,59.74515625,54.625,0.15648515625,33.84
2021-06-29 12:31:26.718750000,-31.0,4.0,56.0,59.743125,55.69,0.15644512500000002,33.84
2021-06-29 12:31:26.726562500,-31.25,3.75,56.0,59.741093750000005,56.974999999999994,0.15640509375,33.84
2021-06-29 12:31:26.734375000,-31.5,3.5,56.0,59.7390625,58.26,0.1563650625,33.84
2021-06-29 12:31:26.742187500,-31.75,3.25,56.0,59.73703125,59.739999999999995,0.15632503125,33.84
2021-06-29 12:31:26.750000000,-32.0,3.0,56.0,59.735,61.22,0.156285,33.84
2021-06-29 12:31:26.757812500,-31.75,3.25,56.0,59.73296875,62.74,0.1563650625,33.84
2021-06-29 12:31:26.765625000,-31.5,3.5,56.0,59.7309375,64.26,0.15644512500000002,33.84
2021-06-29 12:31:26.773437500,-31.25,3.75,56.0,59.72890625,65.61,0.1565251875,33.84
2021-06-29 12:31:26.781250000,-31.0,4.0,56.0,59.726875,66.96,0.15660525,33.84
2021-06-29 12:31:26.789062500,-31.25,3.75,56.0,59.72484375,67.935,0.1566853125,33.84
2021-06-29 12:31:26.796875000,-31.5,3.5,56.0,59.7228125,68.91,0.156765375,33.84
2021-06-29 12:31:26.804687500,-31.75,3.25,56.0,59.72078125,69.405,0.1568454375,33.84
2021-06-29 12:31:26.812500000,-32.0,3.0,56.0,59.71875,69.9,0.1569255,33.84
2021-06-29 12:31:26.820312500,-31.75,3.0,56.0,59.71671875,69.88,0.1570055625,33.84
2021-06-29 12:31:26.828125000,-31.5,3.0,56.0,59.714687500000004,69.86,0.157085625,33.84
2021-06-29 12:31:26.835937500,-31.25,3.0,56.0,59.71265625,69.36,0.1571656875,33.84
2021-06-29 12:31:26.843750000,-31.0,3.0,56.0,59.710625,68.86,0.15724575,33.84
2021-06-29 12:31:26.851562500,-31.25,3.0,56.0,59.70859375,67.945,0.1573258125,33.84
2021-06-29 12:31:26.859375000,-31.5,3.0,56.0,59.706562500000004,67.03,0.157405875,33.84
2021-06-29 12:31:26.867187500,-31.75,3.0,56.0,59.70453125,65.755,0.1574859375,33.84
2021-06-29 12:31:26.875000000,-32.0,3.0,56.0,59.7025,64.48,0.15756599999999998,33.84
2021-06-29 12:31:26.882812500,-31.75,3.25,56.25,59.70046875,62.925,0.1576460625,33.84
2021-06-29 12:31:26.890625000,-31.5,3.5,56.5,59.698437500000004,61.37,0.157726125,33.84
2021-06-29 12:31:26.898437500,-31.25,3.75,56.75,59.69640625,59.625,0.1578061875,33.84
2021-06-29 12:31:26.906250000,-31.0,4.0,57.0,59.694375,57.88,0.15788625,33.84
2021-06-29 12:31:26.914062500,-31.75,3.25,56.5,59.69234375,56.015,0.15796631249999998,33.84
2021-06-29 12:31:26.921875000,-32.5,2.5,56.0,59.690312500000005,54.15,0.158046375,33.84
2021-06-29 12:31:26.929687500,-33.25,1.75,55.5,59.68828125,52.205,0.1581264375,33.84
2021-06-29 12:31:26.937500000,-34.0,1.0,55.0,59.68625,50.26,0.1582065,33.84
2021-06-29 12:31:26.945312500,-33.25,2.0,55.25,59.68421875,48.209999999999994,0.1582865625,33.84
2021-06-29 12:31:26.953125000,-32.5,3.0,55.5,59.682187500000005,46.16,0.15836662499999998,33.84
2021-06-29 12:31:26.960937500,-31.75,4.0,55.75,59.68015625,43.925,0.1584466875,33.84
2021-06-29 12:31:26.968750000,-31.0,5.0,56.0,59.678125,41.69,0.15852675,33.84
2021-06-29 12:31:26.976562500,-31.0,4.5,56.0,59.67609375,39.215,0.1586068125,33.84
2021-06-29 12:31:26.984375000,-31.0,4.0,56.0,59.674062500000005,36.74,0.15868687499999998,33.84
2021-06-29 12:31:26.992187500,-31.0,3.5,56.0,59.67203125,34.015,0.15876693749999998,33.84
2021-06-29 12:31:27.000000000,-31.0,3.0,56.0,59.67,31.29,0.158847,33.84
2021-06-29 12:31:27.007812500,-31.0,3.25,56.0,59.66828125,28.4,0.15880696875,33.8409375
2021-06-29 12:31:27.015625000,-31.0,3.5,56.0,59.666562500000005,25.51,0.15876693749999998,33.841875
2021-06-29 12:31:27.023437500,-31.0,3.75,56.0,59.66484375,22.575000000000003,0.15872690625,33.8428125
2021-06-29 12:31:27.031250000,-31.0,4.0,56.0,59.663125,19.64,0.158686875,33.84375
2021-06-29 12:31:27.039062500,-31.25,3.75,55.75,59.66140625,16.75,0.15864684375,33.8446875
2021-06-29 12:31:27.046875000,-31.5,3.5,55.5,59.659687500000004,13.86,0.1586068125,33.845625000000005
2021-06-29 12:31:27.054687500,-31.75,3.25,55.25,59.65796875,10.995000000000001,0.15856678124999998,33.846562500000005
2021-06-29 12:31:27.062500000,-32.0,3.0,55.0,59.65625,8.13,0.15852675,33.847500000000004
2021-06-29 12:31:27.070312500,-32.0,3.0,55.0,59.654531250000005,5.205,0.15848671875,33.8484375
2021-06-29 12:31:27.078125000,-32.0,3.0,55.0,59.6528125,2.28,0.1584466875,33.849375
2021-06-29 12:31:27.085937500,-32.0,3.0,55.0,59.65109375,-0.8450000000000002,0.15840665625,33.8503125
2021-06-29 12:31:27.093750000,-32.0,3.0,55.0,59.649375,-3.97,0.15836662499999998,33.85125
2021-06-29 12:31:27.101562500,-31.75,3.25,55.25,59.647656250000004,-7.375,0.15832659375,33.8521875
2021-06-29 12:31:27.109375000,-31.5,3.5,55.5,59.6459375,-10.78,0.1582865625,33.853125
2021-06-29 12:31:27.117187500,-31.25,3.75,55.75,59.64421875,-14.425,0.15824653125,33.8540625
2021-06-29 12:31:27.125000000,-31.0,4.0,56.0,59.6425,-18.07,0.1582065,33.855000000000004
2021-06-29 12:31:27.132812500,-31.5,3.5,56.0,59.64078125,-21.814999999999998,0.15816646875,33.8559375
2021-06-29 12:31:27.140625000,-32.0,3.0,56.0,59.6390625,-25.56,0.1581264375,33.856875
2021-06-29 12:31:27.148437500,-32.5,2.5,56.0,59.63734375,-29.205,0.15808640625,33.8578125
2021-06-29 12:31:27.156250000,-33.0,2.0,56.0,59.635625000000005,-32.85,0.15804637500000002,33.85875
2021-06-29 12:31:27.164062500,-32.5,2.5,56.0,59.63390625,-36.195,0.15800634375,33.8596875
2021-06-29 12:31:27.171875000,-32.0,3.0,56.0,59.6321875,-39.54,0.1579663125,33.860625
2021-06-29 12:31:27.179687500,-31.5,3.5,56.0,59.63046875,-42.485,0.15792628125,33.8615625
2021-06-29 12:31:27.187500000,-31.0,4.0,56.0,59.628750000000004,-45.43,0.15788625,33.8625
2021-06-29 12:31:27.195312500,-31.0,3.75,56.0,59.62703125,-47.985,0.15784621875000002,33.863437499999996
2021-06-29 12:31:27.203125000,-31.0,3.5,56.0,59.6253125,-50.54,0.1578061875,33.864374999999995
2021-06-29 12:31:27.210937500,-31.0,3.25,56.0,59.623593750000005,-52.84,0.15776615625,33.8653125
2021-06-29 12:31:27.218750000,-31.0,3.0,56.0,59.621875,-55.14,0.157726125,33.86625
2021-06-29 12:31:27.226562500,-31.25,3.0,56.0,59.62015625,-57.415,0.15768609375,33.8671875
2021-06-29 12:31:27.234375000,-31.5,3.0,56.0,59.6184375,-59.69,0.15764606250000002,33.868125
2021-06-29 12:31:27.242187500,-31.75,3.0,56.0,59.616718750000004,-62.214999999999996,0.15760603125,33.8690625
2021-06-29 12:31:27.250000000,-32.0,3.0,56.0,59.615,-64.74,0.157566,33.87
2021-06-29 12:31:27.257812500,-32.0,3.0,55.75,59.61328125,-67.75999999999999,0.15760603125,33.87
2021-06-29 12:31:27.265625000,-32.0,3.0,55.5,59.611562500000005,-70.78,0.15764606250000002,33.87
2021-06-29 12:31:27.273437500,-32.0,3.0,55.25,59.60984375,-74.39,0.15768609375,33.87
2021-06-29 12:31:27.281250000,-32.0,3.0,55.0,59.608125,-78.0,0.157726125,33.87
2021-06-29 12:31:27.289062500,-32.0,3.0,55.25,59.60640625,-82.05,0.15776615625,33.87
2021-06-29 12:31:27.296875000,-32.0,3.0,55.5,59.604687500000004,-86.1,0.1578061875,33.87
2021-06-29 12:31:27.304687500,-32.0,3.0,55.75,59.60296875,-90.145,0.15784621875000002,33.87
2021-06-29 12:31:27.312500000,-32.0,3.0,56.0,59.60125,-94.19,0.15788625,33.87
2021-06-29 12:31:27.320312500,-32.0,3.0,56.0,59.599531250000005,-97.525,0.15792628125,33.87
2021-06-29 12:31:27.328125000,-32.0,3.0,56.0,59.5978125,-100.86,0.1579663125,33.87
2021-06-29 12:31:27.335937500,-32.0,3.0,56.0,59.59609375,-102.71000000000001,0.15800634375,33.87
2021-06-29 12:31:27.343750000,-32.0,3.0,56.0,59.594375,-104.56,0.15804637500000002,33.87
2021-06-29 12:31:27.351562500,-32.0,3.0,55.75,59.592656250000005,-104.315,0.15808640625,33.87
2021-06-29 12:31:27.359375000,-32.0,3.0,55.5,59.5909375,-104.07,0.1581264375,33.87
2021-06-29 12:31:27.367187500,-32.0,3.0,55.25,59.58921875,-101.51499999999999,0.15816646875,33.87
2021-06-29 12:31:27.375000000,-32.0,3.0,55.0,59.587500000000006,-98.96,0.1582065,33.87
2021-06-29 12:31:27.382812500,-31.75,3.25,55.5,59.585781250000004,-94.4,0.15824653125,33.87
2021-06-29 12:31:27.390625000,-31.5,3.5,56.0,59.5840625,-89.84,0.1582865625,33.87
2021-06-29 12:31:27.398437500,-31.25,3.75,56.5,59.58234375,-83.975,0.15832659375,33.87
2021-06-29 12:31:27.406250000,-31.0,4.0,57.0,59.580625000000005,-78.11,0.15836662499999998,33.87
2021-06-29 12:31:27.414062500,-31.5,3.25,56.5,59.57890625,-71.81,0.15840665625,33.87
2021-06-29 12:31:27.421875000,-32.0,2.5,56.0,59.5771875,-65.51,0.1584466875,33.87
2021-06-29 12:31:27.429687500,-32.5,1.75,55.5,59.57546875,-59.515,0.15848671875,33.87
2021-06-29 12:31:27.437500000,-33.0,1.0,55.0,59.573750000000004,-53.52,0.15852675,33.87
2021-06-29 12:31:27.445312500,-32.75,1.75,55.0,59.57203125,-48.21,0.15856678124999998,33.87
2021-06-29 12:31:27.453125000,-32.5,2.5,55.0,59.5703125,-42.9,0.1586068125,33.87
2021-06-29 12:31:27.460937500,-32.25,3.25,55.0,59.568593750000005,-38.26,0.15864684375,33.87
2021-06-29 12:31:27.468750000,-32.0,4.0,55.0,59.566875,-33.62,0.158686875,33.87
2021-06-29 12:31:27.476562500,-31.75,3.5,55.25,59.56515625,-29.36,0.15872690625,33.87
2021-06-29 12:31:27.484375000,-31.5,3.0,55.5,59.5634375,-25.1,0.15876693749999998,33.87
2021-06-29 12:31:27.492187500,-31.25,2.5,55.75,59.561718750000004,-20.83,0.15880696875,33.87
2021-06-29 12:31:27.500000000,-31.0,2.0,56.0,59.56,-16.56,0.158847,33.87
2021-06-29 12:31:27.507812500,-31.25,2.25,55.75,59.55828125,-12.035,0.15876693749999998,33.87
2021-06-29 12:31:27.515625000,-31.5,2.5,55.5,59.556562500000005,-7.51,0.15868687499999998,33.87
2021-06-29 12:31:27.523437500,-31.75,2.75,55.25,59.55484375,-2.6399999999999997,0.1586068125,33.87
2021-06-29 12:31:27.531250000,-32.0,3.0,55.0,59.553125,2.23,0.15852675,33.87
2021-06-29 12:31:27.539062500,-32.0,3.0,55.0,59.55140625,7.35,0.1584466875,33.87
2021-06-29 12:31:27.546875000,-32.0,3.0,55.0,59.549687500000005,12.47,0.15836662499999998,33.87
2021-06-29 12:31:27.554687500,-32.0,3.0,55.0,59.54796875,17.69,0.1582865625,33.87
2021-06-29 12:31:27.562500000,-32.0,3.0,55.0,59.54625,22.91,0.1582065,33.87
2021-06-29 12:31:27.570312500,-32.0,3.0,55.25,59.544531250000006,28.055,0.1581264375,33.87
2021-06-29 12:31:27.578125000,-32.0,3.0,55.5,59.542812500000004,33.2,0.158046375,33.87
2021-06-29 12:31:27.585937500,-32.0,3.0,55.75,59.54109375,38.145,0.15796631249999998,33.87
2021-06-29 12:31:27.593750000,-32.0,3.0,56.0,59.539375,43.09,0.15788625,33.87
2021-06-29 12:31:27.601562500,-32.0,3.0,56.0,59.537656250000005,47.7,0.1578061875,33.87
2021-06-29 12:31:27.609375000,-32.0,3.0,56.0,59.5359375,52.31,0.157726125,33.87
2021-06-29 12:31:27.617187500,-32.0,3.0,56.0,59.53421875,56.44,0.1576460625,33.87
2021-06-29 12:31:27.625000000,-32.0,3.0,56.0,59.5325,60.57,0.15756599999999998,33.87
2021-06-29 12:31:27.632812500,-32.0,3.0,56.0,59.530781250000004,64.065,0.1574859375,33.87
2021-06-29 12:31:27.640625000,-32.0,3.0,56.0,59.5290625,67.56,0.157405875,33.87
2021-06-29 12:31:27.648437500,-32.0,3.0,56.0,59.52734375,70.275,0.1573258125,33.87
2021-06-29 12:31:27.656250000,-32.0,3.0,56.0,59.525625000000005,72.99,0.15724575,33.87
2021-06-29 12:31:27.664062500,-32.0,3.0,55.75,59.52390625,74.86,0.1571656875,33.87
2021-06-29 12:31:27.671875000,-32.0,3.0,55.5,59.5221875,76.73,0.157085625,33.87
2021-06-29 12:31:27.679687500,-32.0,3.0,55.25,59.52046875,77.815,0.1570055625,33.87
2021-06-29 12:31:27.687500000,-32.0,3.0,55.0,59.518750000000004,78.9,0.1569255,33.87
2021-06-29 12:31:27.695312500,-32.0,3.0,55.25,59.51703125,79.375,0.1568454375,33.87
2021-06-29 12:31:27.703125000,-32.0,3.0,55.5,59.5153125,79.85,0.156765375,33.87
2021-06-29 12:31:27.710937500,-32.0,3.0,55.75,59.513593750000005,79.985,0.1566853125,33.87
2021-06-29 12:31:27.718750000,-32.0,3.0,56.0,59.511875,80.12,0.15660525,33.87
2021-06-29 12:31:27.726562500,-32.0,3.0,55.75,59.51015625,80.185,0.1565251875,33.87
2021-06-29 12:31:27.734375000,-32.0,3.0,55.5,59.5084375,80.25,0.15644512500000002,33.87
2021-06-29 12:31:27.742187500,-32.0,3.0,55.25,59.506718750000005,80.435,0.1563650625,33.87
2021-06-29 12:31:27.750000000,-32.0,3.0,55.0,59.505,80.62,0.156285,33.87
2021-06-29 12:31:27.757812500,-32.0,3.0,55.0,59.50328125,80.975,0.1563650625,33.87
2021-06-29 12:31:27.765625000,-32.0,3.0,55.0,59.501562500000006,81.33,0.15644512500000002,33.87
2021-06-29 12:31:27.773437500,-32.0,3.0,55.0,59.499843750000004,81.785,0.1565251875,33.87
2021-06-29 12:31:27.781250000,-32.0,3.0,55.0,59.498125,82.24,0.15660525,33.87
2021-06-29 12:31:27.789062500,-31.75,3.0,55.0,59.49640625,82.625,0.1566853125,33.87
2021-06-29 12:31:27.796875000,-31.5,3.0,55.0,59.494687500000005,83.01,0.156765375,33.87
2021-06-29 12:31:27.804687500,-31.25,3.0,55.0,59.49296875,83.11,0.1568454375,33.87
2021-06-29 12:31:27.812500000,-31.0,3.0,55.0,59.49125,83.21,0.1569255,33.87
2021-06-29 12:31:27.820312500,-31.25,3.0,55.5,59.489531250000006,82.87,0.1570055625,33.87
2021-06-29 12:31:27.828125000,-31.5,3.0,56.0,59.487812500000004,82.53,0.157085625,33.87
2021-06-29 12:31:27.835937500,-31.75,3.0,56.5,59.48609375,81.66,0.1571656875,33.87
2021-06-29 12:31:27.843750000,-32.0,3.0,57.0,59.484375,80.79,0.15724575,33.87
2021-06-29 12:31:27.851562500,-31.5,3.25,56.5,59.482656250000005,79.445,0.1573258125,33.87
2021-06-29 12:31:27.859375000,-31.0,3.5,56.0,59.4809375,78.1,0.157405875,33.87
2021-06-29 12:31:27.867187500,-30.5,3.75,55.5,59.47921875,76.41999999999999,0.1574859375,33.87
2021-06-29 12:31:27.875000000,-30.0,4.0,55.0,59.477500000000006,74.74,0.15756599999999998,33.87
2021-06-29 12:31:27.882812500,-30.5,4.0,55.0,59.475781250000004,72.91,0.1576460625,33.87
2021-06-29 12:31:27.890625000,-31.0,4.0,55.0,59.4740625,71.08,0.157726125,33.87
2021-06-29 12:31:27.898437500,-31.5,4.0,55.0,59.47234375,69.28,0.1578061875,33.87
2021-06-29 12:31:27.906250000,-32.0,4.0,55.0,59.470625000000005,67.48,0.15788625,33.87
2021-06-29 12:31:27.914062500,-32.0,3.75,55.25,59.46890625,65.795,0.15796631249999998,33.87
2021-06-29 12:31:27.921875000,-32.0,3.5,55.5,59.4671875,64.11,0.158046375,33.87
2021-06-29 12:31:27.929687500,-32.0,3.25,55.75,59.46546875,62.525,0.1581264375,33.87
2021-06-29 12:31:27.937500000,-32.0,3.0,56.0,59.463750000000005,60.94,0.1582065,33.87
2021-06-29 12:31:27.945312500,-32.0,3.0,55.75,59.46203125,59.364999999999995,0.1582865625,33.87
2021-06-29 12:31:27.953125000,-32.0,3.0,55.5,59.4603125,57.79,0.15836662499999998,33.87
2021-06-29 12:31:27.960937500,-32.0,3.0,55.25,59.458593750000006,56.120000000000005,0.1584466875,33.87
2021-06-29 12:31:27.968750000,-32.0,3.0,55.0,59.456875000000004,54.45,0.15852675,33.87
2021-06-29 12:31:27.976562500,-32.0,3.25,55.0,59.45515625,52.63,0.1586068125,33.87
2021-06-29 12:31:27.984375000,-32.0,3.5,55.0,59.4534375,50.81,0.15868687499999998,33.87
2021-06-29 12:31:27.992187500,-32.0,3.75,55.0,59.451718750000005,48.84,0.15876693749999998,33.87
2021-06-29 12:31:28.000000000,-32.0,4.0,55.0,59.45,46.87,0.158847,33.87
2021-06-29 12:31:28.007812500,-32.0,3.75,55.0,59.44828125,44.834999999999994,0.15876693749999998,33.8690625
2021-06-29 12:31:28.015625000,-32.0,3.5,55.0,59.446562500000006,42.8,0.15868687499999998,33.868125
2021-06-29 12:31:28.023437500,-32.0,3.25,55.0,59.444843750000004,40.785,0.1586068125,33.8671875
2021-06-29 12:31:28.031250000,-32.0,3.0,55.0,59.443125,38.77,0.15852675,33.86625
2021-06-29 12:31:28.039062500,-32.0,3.25,55.0,59.44140625,36.835,0.1584466875,33.8653125
2021-06-29 12:31:28.046875000,-32.0,3.5,55.0,59.439687500000005,34.9,0.15836662499999998,33.864374999999995
2021-06-29 12:31:28.054687500,-32.0,3.75,55.0,59.43796875,33.08,0.1582865625,33.863437499999996
2021-06-29 12:31:28.062500000,-32.0,4.0,55.0,59.43625,31.26,0.1582065,33.8625
2021-06-29 12:31:28.070312500,-32.5,3.5,55.25,59.43453125,29.54,0.1581264375,33.8615625
2021-06-29 12:31:28.078125000,-33.0,3.0,55.5,59.432812500000004,27.82,0.158046375,33.860625
2021-06-29 12:31:28.085937500,-33.5,2.5,55.75,59.43109375,26.17,0.15796631249999998,33.8596875
2021-06-29 12:31:28.093750000,-34.0,2.0,56.0,59.429375,24.52,0.15788625,33.85875
2021-06-29 12:31:28.101562500,-33.0,2.25,55.75,59.427656250000005,22.875,0.1578061875,33.8578125
2021-06-29 12:31:28.109375000,-32.0,2.5,55.5,59.4259375,21.23,0.157726125,33.856875
2021-06-29 12:31:28.117187500,-31.0,2.75,55.25,59.42421875,19.515,0.1576460625,33.8559375
2021-06-29 12:31:28.125000000,-30.0,3.0,55.0,59.4225,17.8,0.15756599999999998,33.855000000000004
2021-06-29 12:31:28.132812500,-30.5,2.75,55.0,59.420781250000005,15.92,0.1574859375,33.8540625
2021-06-29 12:31:28.140625000,-31.0,2.5,55.0,59.4190625,14.04,0.157405875,33.853125
2021-06-29 12:31:28.148437500,-31.5,2.25,55.0,59.41734375,11.925,0.1573258125,33.8521875
2021-06-29 12:31:28.156250000,-32.0,2.0,55.0,59.415625,9.81,0.15724575,33.85125
2021-06-29 12:31:28.164062500,-32.0,2.25,55.25,59.413906250000004,7.460000000000001,0.1571656875,33.8503125
2021-06-29 12:31:28.171875000,-32.0,2.5,55.5,59.4121875,5.11,0.157085625,33.849375
2021-06-29 12:31:28.179687500,-32.0,2.75,55.75,59.41046875,2.625,0.1570055625,33.8484375
2021-06-29 12:31:28.187500000,-32.0,3.0,56.0,59.408750000000005,0.14,0.1569255,33.847500000000004
2021-06-29 12:31:28.195312500,-32.0,3.0,55.75,59.40703125,-2.3349999999999995,0.1568454375,33.846562500000005
2021-06-29 12:31:28.203125000,-32.0,3.0,55.5,59.4053125,-4.81,0.156765375,33.845625000000005
2021-06-29 12:31:28.210937500,-32.0,3.0,55.25,59.40359375,-7.140000000000001,0.1566853125,33.8446875
2021-06-29 12:31:28.218750000,-32.0,3.0,55.0,59.401875000000004,-9.47,0.15660525,33.84375
2021-06-29 12:31:28.226562500,-32.0,3.0,55.25,59.40015625,-11.620000000000001,0.1565251875,33.8428125
2021-06-29 12:31:28.234375000,-32.0,3.0,55.5,59.3984375,-13.77,0.15644512500000002,33.841875
2021-06-29 12:31:28.242187500,-32.0,3.0,55.75,59.39671875,-15.82,0.1563650625,33.8409375
2021-06-29 12:31:28.250000000,-32.0,3.0,56.0,59.395,-17.87,0.156285,33.84
2021-06-29 12:31:28.257812500,-32.0,3.0,55.75,59.39328125,-20.0,0.15640509375,33.84
2021-06-29 12:31:28.265625000,-32.0,3.0,55.5,59.3915625,-22.13,0.1565251875,33.84
2021-06-29 12:31:28.273437500,-32.0,3.0,55.25,59.389843750000004,-24.509999999999998,0.15664528125000002,33.84
2021-06-29 12:31:28.281250000,-32.0,3.0,55.0,59.388125,-26.89,0.156765375,33.84
2021-06-29 12:31:28.289062500,-32.0,3.25,55.0,59.38640625,-29.57,0.15688546875,33.84
2021-06-29 12:31:28.296875000,-32.0,3.5,55.0,59.3846875,-32.25,0.1570055625,33.84
2021-06-29 12:31:28.304687500,-32.0,3.75,55.0,59.38296875,-35.165,0.15712565625,33.84
2021-06-29 12:31:28.312500000,-32.0,4.0,55.0,59.38125,-38.08,0.15724575000000002,33.84
2021-06-29 12:31:28.320312500,-32.5,3.75,55.25,59.37953125,-41.06,0.15736584375,33.84
2021-06-29 12:31:28.328125000,-33.0,3.5,55.5,59.3778125,-44.04,0.1574859375,33.84
2021-06-29 12:31:28.335937500,-33.5,3.25,55.75,59.37609375,-46.875,0.15760603125,33.84
2021-06-29 12:31:28.343750000,-34.0,3.0,56.0,59.374375,-49.71,0.157726125,33.84
2021-06-29 12:31:28.351562500,-33.75,2.75,55.75,59.37265625,-52.295,0.15784621875,33.84
2021-06-29 12:31:28.359375000,-33.5,2.5,55.5,59.370937500000004,-54.88,0.1579663125,33.84
2021-06-29 12:31:28.367187500,-33.25,2.25,55.25,59.36921875,-57.2,0.15808640625,33.84
2021-06-29 12:31:28.375000000,-33.0,2.0,55.0,59.3675,-59.52,0.1582065,33.84
2021-06-29 12:31:28.382812500,-32.75,2.5,55.25,59.36578125,-61.71,0.15832659375,33.84
2021-06-29 12:31:28.390625000,-32.5,3.0,55.5,59.3640625,-63.9,0.1584466875,33.84
2021-06-29 12:31:28.398437500,-32.25,3.5,55.75,59.36234375,-66.175,0.15856678125,33.84
2021-06-29 12:31:28.406250000,-32.0,4.0,56.0,59.360625,-68.45,0.158686875,33.84
2021-06-29 12:31:28.414062500,-32.0,3.75,55.75,59.35890625,-71.09,0.15880696875,33.84
2021-06-29 12:31:28.421875000,-32.0,3.5,55.5,59.3571875,-73.73,0.1589270625,33.84
2021-06-29 12:31:28.429687500,-32.0,3.25,55.25,59.35546875,-76.965,0.15904715625,33.84
2021-06-29 12:31:28.437500000,-32.0,3.0,55.0,59.35375,-80.2,0.15916724999999998,33.84
2021-06-29 12:31:28.445312500,-32.0,3.0,55.0,59.35203125,-84.13499999999999,0.15928734375,33.84
2021-06-29 12:31:28.453125000,-32.0,3.0,55.0,59.3503125,-88.07,0.1594074375,33.84
2021-06-29 12:31:28.460937500,-32.0,3.0,55.0,59.34859375,-92.53,0.15952753125,33.84
2021-06-29 12:31:28.468750000,-32.0,3.0,55.0,59.346875,-96.99,0.159647625,33.84
2021-06-29 12:31:28.476562500,-32.0,3.0,55.0,59.34515625,-101.485,0.15976771874999998,33.84
2021-06-29 12:31:28.484375000,-32.0,3.0,55.0,59.3434375,-105.98,0.1598878125,33.84
2021-06-29 12:31:28.492187500,-32.0,3.0,55.0,59.34171875,-109.735,0.16000790625,33.84
2021-06-29 12:31:28.500000000,-32.0,3.0,55.0,59.34,-113.49,0.160128,33.84
2021-06-29 12:31:28.507812500,-32.0,3.0,55.0,59.33828125,-115.615,0.16008796875,33.84
2021-06-29 12:31:28.515625000,-32.0,3.0,55.0,59.3365625,-117.74,0.1600479375,33.84
2021-06-29 12:31:28.523437500,-32.0,3.0,55.0,59.33484375,-117.55,0.16000790625,33.84
2021-06-29 12:31:28.531250000,-32.0,3.0,55.0,59.333125,-117.36,0.15996787499999998,33.84
2021-06-29 12:31:28.539062500,-32.0,3.0,55.0,59.33140625,-114.62,0.15992784375,33.84
2021-06-29 12:31:28.546875000,-32.0,3.0,55.0,59.3296875,-111.88,0.1598878125,33.84
2021-06-29 12:31:28.554687500,-32.0,3.0,55.0,59.32796875,-106.895,0.15984778125,33.84
2021-06-29 12:31:28.562500000,-32.0,3.0,55.0,59.32625,-101.91,0.15980775,33.84
2021-06-29 12:31:28.570312500,-31.75,3.0,55.0,59.32453125,-95.47,0.15976771874999998,33.84
2021-06-29 12:31:28.578125000,-31.5,3.0,55.0,59.3228125,-89.03,0.1597276875,33.84
2021-06-29 12:31:28.585937500,-31.25,3.0,55.0,59.32109375,-82.08,0.15968765625,33.84
2021-06-29 12:31:28.593750000,-31.0,3.0,55.0,59.319375,-75.13,0.159647625,33.84
2021-06-29 12:31:28.601562500,-31.25,3.0,55.25,59.31765625,-68.52,0.15960759375,33.84
2021-06-29 12:31:28.609375000,-31.5,3.0,55.5,59.3159375,-61.91,0.15956756249999998,33.84
2021-06-29 12:31:28.617187500,-31.75,3.0,55.75,59.31421875,-56.099999999999994,0.15952753125,33.84
2021-06-29 12:31:28.625000000,-32.0,3.0,56.0,59.3125,-50.29,0.1594875,33.84
2021-06-29 12:31:28.632812500,-32.0,3.0,56.0,59.31078125,-45.349999999999994,0.15944746875,33.84
2021-06-29 12:31:28.640625000,-32.0,3.0,56.0,59.309062499999996,-40.41,0.1594074375,33.84
2021-06-29 12:31:28.648437500,-32.0,3.0,56.0,59.30734375,-36.14,0.15936740624999998,33.84
2021-06-29 12:31:28.656250000,-32.0,3.0,56.0,59.305625,-31.87,0.159327375,33.84
2021-06-29 12:31:28.664062500,-32.0,3.0,56.0,59.30390625,-27.955,0.15928734374999998,33.84
2021-06-29 12:31:28.671875000,-32.0,3.0,56.0,59.3021875,-24.04,0.1592473125,33.84
2021-06-29 12:31:28.679687500,-32.0,3.0,56.0,59.30046875,-20.235,0.15920728125,33.84
2021-06-29 12:31:28.687500000,-32.0,3.0,56.0,59.29875,-16.43,0.15916724999999998,33.84
2021-06-29 12:31:28.695312500,-32.0,3.0,56.0,59.297031249999996,-12.594999999999999,0.15912721875,33.84
2021-06-29 12:31:28.703125000,-32.0,3.0,56.0,59.2953125,-8.76,0.15908718749999998,33.84
2021-06-29 12:31:28.710937500,-32.0,3.0,56.0,59.29359375,-4.845,0.15904715625,33.84
2021-06-29 12:31:28.718750000,-32.0,3.0,56.0,59.291875,-0.93,0.159007125,33.84
2021-06-29 12:31:28.726562500,-32.0,3.0,56.0,59.290156249999995,3.0449999999999995,0.15896709374999998,33.84
2021-06-29 12:31:28.734375000,-32.0,3.0,56.0,59.2884375,7.02,0.1589270625,33.84
2021-06-29 12:31:28.742187500,-32.0,3.0,56.0,59.28671875,10.99,0.15888703124999998,33.84
2021-06-29 12:31:28.750000000,-32.0,3.0,56.0,59.285,14.96,0.158847,33.84
2021-06-29 12:31:28.757812500,-32.0,3.0,56.0,59.28328125,18.815,0.15876693749999998,33.84
2021-06-29 12:31:28.765625000,-32.0,3.0,56.0,59.2815625,22.67,0.15868687499999998,33.84
2021-06-29 12:31:28.773437500,-32.0,3.0,56.0,59.27984375,26.235,0.1586068125,33.84
2021-06-29 12:31:28.781250000,-32.0,3.0,56.0,59.278124999999996,29.8,0.15852675,33.84
2021-06-29 12:31:28.789062500,-32.0,3.0,56.0,59.27640625,32.895,0.1584466875,33.84
2021-06-29 12:31:28.796875000,-32.0,3.0,56.0,59.2746875,35.99,0.15836662499999998,33.84
2021-06-29 12:31:28.804687500,-32.0,3.0,56.0,59.27296875,38.45,0.1582865625,33.84
2021-06-29 12:31:28.812500000,-32.0,3.0,56.0,59.271249999999995,40.91,0.1582065,33.84
2021-06-29 12:31:28.820312500,-32.0,3.0,56.0,59.26953125,42.685,0.1581264375,33.84
2021-06-29 12:31:28.828125000,-32.0,3.0,56.0,59.2678125,44.46,0.158046375,33.84
2021-06-29 12:31:28.835937500,-32.0,3.0,56.0,59.266093749999996,45.629999999999995,0.15796631249999998,33.84
2021-06-29 12:31:28.843750000,-32.0,3.0,56.0,59.264375,46.8,0.15788625,33.84
2021-06-29 12:31:28.851562500,-31.75,3.0,56.0,59.26265625,47.57,0.1578061875,33.84
2021-06-29 12:31:28.859375000,-31.5,3.0,56.0,59.2609375,48.34,0.157726125,33.84
2021-06-29 12:31:28.867187500,-31.25,3.0,56.0,59.259218749999995,48.955,0.1576460625,33.84
2021-06-29 12:31:28.875000000,-31.0,3.0,56.0,59.2575,49.57,0.15756599999999998,33.84
2021-06-29 12:31:28.882812500,-31.25,3.0,56.0,59.25578125,50.225,0.1574859375,33.84
2021-06-29 12:31:28.890625000,-31.5,3.0,56.0,59.254062499999996,50.88,0.157405875,33.84
2021-06-29 12:31:28.898437500,-31.75,3.0,56.0,59.252343749999994,51.68,0.1573258125,33.84
2021-06-29 12:31:28.906250000,-32.0,3.0,56.0,59.250625,52.48,0.15724575,33.84
2021-06-29 12:31:28.914062500,-31.75,3.0,55.75,59.24890625,53.379999999999995,0.1571656875,33.84
2021-06-29 12:31:28.921875000,-31.5,3.0,55.5,59.247187499999995,54.28,0.157085625,33.84
2021-06-29 12:31:28.929687500,-31.25,3.0,55.25,59.24546875,55.18,0.1570055625,33.84
2021-06-29 12:31:28.937500000,-31.0,3.0,55.0,59.24375,56.08,0.1569255,33.84
2021-06-29 12:31:28.945312500,-31.25,3.0,55.0,59.24203125,56.81,0.1568454375,33.84
2021-06-29 12:31:28.953125000,-31.5,3.0,55.0,59.240312499999995,57.54,0.156765375,33.84
2021-06-29 12:31:28.960937500,-31.75,3.0,55.0,59.23859375,57.974999999999994,0.1566853125,33.84
2021-06-29 12:31:28.968750000,-32.0,3.0,55.0,59.236875,58.41,0.15660525,33.84
2021-06-29 12:31:28.976562500,-32.0,3.0,55.25,59.235156249999996,58.47,0.1565251875,33.84
2021-06-29 12:31:28.984375000,-32.0,3.0,55.5,59.233437499999994,58.53,0.15644512500000002,33.84
2021-06-29 12:31:28.992187500,-32.0,3.0,55.75,59.23171875,58.185,0.1563650625,33.84
2021-06-29 12:31:29.000000000,-32.0,3.0,56.0,59.23,57.84,0.156285,33.84
2021-06-29 12:31:29.007812500,-31.75,3.0,56.0,59.228359375,57.125,0.1563650625,33.84
2021-06-29 12:31:29.015625000,-31.5,3.0,56.0,59.226718749999996,56.41,0.15644512500000002,33.84
2021-06-29 12:31:29.023437500,-31.25,3.0,56.0,59.225078124999996,55.394999999999996,0.1565251875,33.84
2021-06-29 12:31:29.031250000,-31.0,3.0,56.0,59.223437499999996,54.38,0.15660525,33.84
2021-06-29 12:31:29.039062500,-31.25,3.0,56.0,59.221796874999995,53.155,0.1566853125,33.84
2021-06-29 12:31:29.046875000,-31.5,3.0,56.0,59.220156249999995,51.93,0.156765375,33.84
2021-06-29 12:31:29.054687500,-31.75,3.0,56.0,59.218515624999995,50.605000000000004,0.1568454375,33.84
2021-06-29 12:31:29.062500000,-32.0,3.0,56.0,59.216874999999995,49.28,0.1569255,33.84
2021-06-29 12:31:29.070312500,-31.75,3.0,56.0,59.215234374999994,47.94,0.1570055625,33.84
2021-06-29 12:31:29.078125000,-31.5,3.0,56.0,59.213593749999994,46.6,0.157085625,33.84
2021-06-29 12:31:29.085937500,-31.25,3.0,56.0,59.211953125,45.305,0.1571656875,33.84
2021-06-29 12:31:29.093750000,-31.0,3.0,56.0,59.2103125,44.01,0.15724575,33.84
2021-06-29 12:31:29.101562500,-31.25,3.0,55.75,59.208671875,42.76,0.1573258125,33.84
2021-06-29 12:31:29.109375000,-31.5,3.0,55.5,59.20703125,41.51,0.157405875,33.84
2021-06-29 12:31:29.117187500,-31.75,3.0,55.25,59.205390625,40.29,0.1574859375,33.84
2021-06-29 12:31:29.125000000,-32.0,3.0,55.0,59.20375,39.07,0.15756599999999998,33.84
2021-06-29 12:31:29.132812500,-31.75,3.0,55.25,59.202109375,37.83,0.1576460625,33.84
2021-06-29 12:31:29.140625000,-31.5,3.0,55.5,59.20046875,36.59,0.157726125,33.84
2021-06-29 12:31:29.148437500,-31.25,3.0,55.75,59.198828125,35.335,0.1578061875,33.84
2021-06-29 12:31:29.156250000,-31.0,3.0,56.0,59.1971875,34.08,0.15788625,33.84
2021-06-29 12:31:29.164062500,-31.0,3.0,56.0,59.195546875,32.84,0.15796631249999998,33.84
2021-06-29 12:31:29.171875000,-31.0,3.0,56.0,59.19390625,31.6,0.158046375,33.84
2021-06-29 12:31:29.179687500,-31.0,3.0,56.0,59.192265625,30.43,0.1581264375,33.84
2021-06-29 12:31:29.187500000,-31.0,3.0,56.0,59.190625,29.26,0.1582065,33.84
2021-06-29 12:31:29.195312500,-31.0,3.0,56.0,59.188984375,28.185000000000002,0.1582865625,33.84
2021-06-29 12:31:29.203125000,-31.0,3.0,56.0,59.18734375,27.11,0.15836662499999998,33.84
2021-06-29 12:31:29.210937500,-31.0,3.0,56.0,59.185703124999996,26.119999999999997,0.1584466875,33.84
2021-06-29 12:31:29.218750000,-31.0,3.0,56.0,59.184062499999996,25.13,0.15852675,33.84
2021-06-29 12:31:29.226562500,-31.25,3.0,56.0,59.182421874999996,24.14,0.1586068125,33.84
2021-06-29 12:31:29.234375000,-31.5,3.0,56.0,59.180781249999995,23.15,0.15868687499999998,33.84
2021-06-29 12:31:29.242187500,-31.75,3.0,56.0,59.179140624999995,22.025,0.15876693749999998,33.84
2021-06-29 12:31:29.250000000,-32.0,3.0,56.0,59.177499999999995,20.9,0.158847,33.84
2021-06-29 12:31:29.257812500,-32.0,3.0,55.75,59.175859375,19.525,0.15880696875,33.84
2021-06-29 12:31:29.265625000,-32.0,3.0,55.5,59.17421875,18.15,0.15876693749999998,33.84
2021-06-29 12:31:29.273437500,-32.0,3.0,55.25,59.172578125,16.455,0.15872690625,33.84
2021-06-29 12:31:29.281250000,-32.0,3.0,55.0,59.1709375,14.76,0.158686875,33.84
2021-06-29 12:31:29.289062500,-32.0,3.0,55.25,59.169296875,12.79,0.15864684375,33.84
2021-06-29 12:31:29.296875000,-32.0,3.0,55.5,59.16765625,10.82,0.1586068125,33.84
2021-06-29 12:31:29.304687500,-32.0,3.0,55.75,59.166015625,8.67,0.15856678124999998,33.84
2021-06-29 12:31:29.312500000,-32.0,3.0,56.0,59.164375,6.52,0.15852675,33.84
2021-06-29 12:31:29.320312500,-32.0,3.0,55.75,59.162734375,4.335,0.15848671875,33.84
2021-06-29 12:31:29.328125000,-32.0,3.0,55.5,59.16109375,2.15,0.1584466875,33.84
2021-06-29 12:31:29.335937500,-32.0,3.0,55.25,59.159453125,0.02499999999999991,0.15840665625,33.84
2021-06-29 12:31:29.343750000,-32.0,3.0,55.0,59.1578125,-2.1,0.15836662499999998,33.84
2021-06-29 12:31:29.351562500,-31.75,3.0,55.25,59.156171875,-4.135,0.15832659375,33.84
2021-06-29 12:31:29.359375000,-31.5,3.0,55.5,59.15453125,-6.17,0.1582865625,33.84
2021-06-29 12:31:29.367187500,-31.25,3.0,55.75,59.152890625,-8.165,0.15824653125,33.84
2021-06-29 12:31:29.375000000,-31.0,3.0,56.0,59.15125,-10.16,0.1582065,33.84
2021-06-29 12:31:29.382812500,-31.25,3.0,55.75,59.149609375,-12.190000000000001,0.15816646875,33.84
2021-06-29 12:31:29.390625000,-31.5,3.0,55.5,59.14796875,-14.22,0.1581264375,33.84
2021-06-29 12:31:29.398437500,-31.75,3.0,55.25,59.146328125,-16.365000000000002,0.15808640625,33.84
2021-06-29 12:31:29.406250000,-32.0,3.0,55.0,59.144687499999996,-18.51,0.15804637500000002,33.84
2021-06-29 12:31:29.414062500,-32.0,3.0,55.25,59.143046874999996,-20.79,0.15800634375,33.84
2021-06-29 12:31:29.421875000,-32.0,3.0,55.5,59.14140625,-23.07,0.1579663125,33.84
2021-06-29 12:31:29.429687500,-32.0,3.0,55.75,59.139765625,-25.45,0.15792628125,33.84
2021-06-29 12:31:29.437500000,-32.0,3.0,56.0,59.138125,-27.83,0.15788625,33.84
2021-06-29 12:31:29.445312500,-32.0,3.0,56.0,59.136484375,-30.244999999999997,0.15784621875000002,33.84
2021-06-29 12:31:29.453125000,-32.0,3.0,56.0,59.13484375,-32.66,0.1578061875,33.84
2021-06-29 12:31:29.460937500,-32.0,3.0,56.0,59.133203125,-35.05,0.15776615625,33.84
2021-06-29 12:31:29.468750000,-32.0,3.0,56.0,59.1315625,-37.44,0.157726125,33.84
2021-06-29 12:31:29.476562500,-32.0,3.0,55.75,59.129921875,-39.785,0.15768609375,33.84
2021-06-29 12:31:29.484375000,-32.0,3.0,55.5,59.12828125,-42.13,0.15764606250000002,33.84
2021-06-29 12:31:29.492187500,-32.0,3.0,55.25,59.126640625,-44.45,0.15760603125,33.84
2021-06-29 12:31:29.500000000,-32.0,3.0,55.0,59.125,-46.77,0.157566,33.84
2021-06-29 12:31:29.507812500,-31.75,3.0,55.25,59.123359375,-49.16,0.15760603125,33.84
2021-06-29 12:31:29.515625000,-31.5,3.0,55.5,59.12171875,-51.55,0.15764606250000002,33.84
2021-06-29 12:31:29.523437500,-31.25,3.0,55.75,59.120078125,-54.144999999999996,0.15768609375,33.84
2021-06-29 12:31:29.531250000,-31.0,3.0,56.0,59.1184375,-56.74,0.157726125,33.84
2021-06-29 12:31:29.539062500,-31.0,3.0,56.0,59.116796875,-59.735,0.15776615625,33.84
2021-06-29 12:31:29.546875000,-31.0,3.0,56.0,59.11515625,-62.73,0.1578061875,33.84
2021-06-29 12:31:29.554687500,-31.0,3.0,56.0,59.113515625,-66.28,0.15784621875000002,33.84
2021-06-29 12:31:29.562500000,-31.0,3.0,56.0,59.111875,-69.83,0.15788625,33.84
2021-06-29 12:31:29.570312500,-31.0,3.0,56.0,59.110234375,-73.925,0.15792628125,33.84
2021-06-29 12:31:29.578125000,-31.0,3.0,56.0,59.10859375,-78.02,0.1579663125,33.84
2021-06-29 12:31:29.585937500,-31.0,3.0,56.0,59.106953125000004,-82.375,0.15800634375,33.84
2021-06-29 12:31:29.593750000,-31.0,3.0,56.0,59.105312500000004,-86.73,0.15804637500000002,33.84
2021-06-29 12:31:29.601562500,-31.0,3.0,56.0,59.103671875,-90.76,0.15808640625,33.84
2021-06-29 12:31:29.609375000,-31.0,3.0,56.0,59.10203125,-94.79,0.1581264375,33.84
2021-06-29 12:31:29.617187500,-31.0,3.0,56.0,59.100390625,-97.68,0.15816646875,33.84
2021-06-29 12:31:29.625000000,-31.0,3.0,56.0,59.09875,-100.57,0.1582065,33.84
2021-06-29 12:31:29.632812500,-31.0,3.0,56.0,59.097109375,-101.56,0.15824653125,33.84
2021-06-29 12:31:29.640625000,-31.0,3.0,56.0,59.09546875,-102.55,0.1582865625,33.84
2021-06-29 12:31:29.648437500,-31.0,3.0,56.0,59.093828125,-101.18,0.15832659375,33.84
2021-06-29 12:31:29.656250000,-31.0,3.0,56.0,59.0921875,-99.81,0.15836662499999998,33.84
2021-06-29 12:31:29.664062500,-31.0,3.0,56.0,59.090546875,-96.105,0.15840665625,33.84
2021-06-29 12:31:29.671875000,-31.0,3.0,56.0,59.08890625,-92.4,0.1584466875,33.84
2021-06-29 12:31:29.679687500,-31.0,3.0,56.0,59.087265625,-86.87,0.15848671875,33.84
2021-06-29 12:31:29.687500000,-31.0,3.0,56.0,59.085625,-81.34,0.15852675,33.84
2021-06-29 12:31:29.695312500,-31.25,3.0,55.75,59.083984375,-74.785,0.15856678124999998,33.84
2021-06-29 12:31:29.703125000,-31.5,3.0,55.5,59.08234375,-68.23,0.1586068125,33.84
2021-06-29 12:31:29.710937500,-31.75,3.0,55.25,59.080703125,-61.46,0.15864684375,33.84
2021-06-29 12:31:29.718750000,-32.0,3.0,55.0,59.0790625,-54.69,0.158686875,33.84
2021-06-29 12:31:29.726562500,-32.0,3.0,55.0,59.077421875,-48.32,0.15872690625,33.84
2021-06-29 12:31:29.734375000,-32.0,3.0,55.0,59.07578125,-41.95,0.15876693749999998,33.84
2021-06-29 12:31:29.742187500,-32.0,3.0,55.0,59.074140625,-36.29,0.15880696875,33.84
2021-06-29 12:31:29.750000000,-32.0,3.0,55.0,59.072500000000005,-30.63,0.158847,33.84
2021-06-29 12:31:29.757812500,-31.75,3.0,55.25,59.070859375000005,-25.729999999999997,0.15876693749999998,33.84
2021-06-29 12:31:29.765625000,-31.5,3.0,55.5,59.069218750000005,-20.83,0.15868687499999998,33.84
2021-06-29 12:31:29.773437500,-31.25,3.0,55.75,59.067578125000004,-16.58,0.1586068125,33.84
2021-06-29 12:31:29.781250000,-31.0,3.0,56.0,59.065937500000004,-12.33,0.15852675,33.84
2021-06-29 12:31:29.789062500,-31.0,3.0,56.0,59.064296875000004,-8.555,0.1584466875,33.84
2021-06-29 12:31:29.796875000,-31.0,3.0,56.0,59.06265625,-4.78,0.15836662499999998,33.84
2021-06-29 12:31:29.804687500,-31.0,3.0,56.0,59.061015625,-1.3050000000000002,0.1582865625,33.84
2021-06-29 12:31:29.812500000,-31.0,3.0,56.0,59.059375,2.17,0.1582065,33.84
2021-06-29 12:31:29.820312500,-31.25,3.0,56.0,59.057734375,5.4799999999999995,0.1581264375,33.84
2021-06-29 12:31:29.828125000,-31.5,3.0,56.0,59.05609375,8.79,0.158046375,33.84
2021-06-29 12:31:29.835937500,-31.75,3.0,56.0,59.054453125,12.024999999999999,0.15796631249999998,33.84
2021-06-29 12:31:29.843750000,-32.0,3.0,56.0,59.0528125,15.26,0.15788625,33.84
2021-06-29 12:31:29.851562500,-32.0,3.0,56.0,59.051171875,18.419999999999998,0.1578061875,33.84
2021-06-29 12:31:29.859375000,-32.0,3.0,56.0,59.04953125,21.58,0.157726125,33.84
2021-06-29 12:31:29.867187500,-32.0,3.0,56.0,59.047890625,24.6,0.1576460625,33.84
2021-06-29 12:31:29.875000000,-32.0,3.0,56.0,59.04625,27.62,0.15756599999999998,33.84
2021-06-29 12:31:29.882812500,-31.75,3.0,56.0,59.044609375,30.375,0.1574859375,33.84
2021-06-29 12:31:29.890625000,-31.5,3.0,56.0,59.04296875,33.13,0.157405875,33.84
2021-06-29 12:31:29.898437500,-31.25,3.0,56.0,59.041328125,35.510000000000005,0.1573258125,33.84
2021-06-29 12:31:29.906250000,-31.0,3.0,56.0,59.0396875,37.89,0.15724575,33.84
2021-06-29 12:31:29.914062500,-31.0,3.0,56.0,59.038046875,39.815,0.1571656875,33.84
2021-06-29 12:31:29.921875000,-31.0,3.0,56.0,59.036406250000006,41.74,0.157085625,33.84
2021-06-29 12:31:29.929687500,-31.0,3.0,56.0,59.034765625000006,43.19,0.1570055625,33.84
2021-06-29 12:31:29.937500000,-31.0,3.0,56.0,59.033125000000005,44.64,0.1569255,33.84
2021-06-29 12:31:29.945312500,-31.25,3.0,56.0,59.031484375000005,45.635000000000005,0.1568454375,33.84
2021-06-29 12:31:29.953125000,-31.5,3.0,56.0,59.029843750000005,46.63,0.156765375,33.84
2021-06-29 12:31:29.960937500,-31.75,3.0,56.0,59.028203125000005,47.230000000000004,0.1566853125,33.84
2021-06-29 12:31:29.968750000,-32.0,3.0,56.0,59.026562500000004,47.83,0.15660525,33.84
2021-06-29 12:31:29.976562500,-32.0,3.0,56.0,59.024921875000004,48.099999999999994,0.1565251875,33.84
2021-06-29 12:31:29.984375000,-32.0,3.0,56.0,59.023281250000004,48.37,0.15644512500000002,33.84
2021-06-29 12:31:29.992187500,-32.0,3.0,56.0,59.021640625,48.415,0.1563650625,33.84
2021-06-29 12:31:30.000000000,-32.0,3.0,56.0,59.02,48.46,0.156285,33.84
2021-06-29 12:31:30.007812500,-32.0,3.0,56.0,59.018515625000006,48.405,0.15632503125,33.839687500000004
2021-06-29 12:31:30.015625000,-32.0,3.0,56.0,59.01703125,48.35,0.1563650625,33.839375000000004
2021-06-29 12:31:30.023437500,-32.0,3.0,56.0,59.015546875000005,48.33,0.15640509375,33.839062500000004
2021-06-29 12:31:30.031250000,-32.0,3.0,56.0,59.0140625,48.31,0.15644512500000002,33.838750000000005
2021-06-29 12:31:30.039062500,-31.75,3.0,56.0,59.012578125000005,48.415000000000006,0.15648515625,33.838437500000005
2021-06-29 12:31:30.046875000,-31.5,3.0,56.0,59.01109375,48.52,0.1565251875,33.838125000000005
2021-06-29 12:31:30.054687500,-31.25,3.0,56.0,59.009609375000004,48.730000000000004,0.15656521875,33.837812500000005
2021-06-29 12:31:30.062500000,-31.0,3.0,56.0,59.008125,48.94,0.15660525,33.837500000000006
2021-06-29 12:31:30.070312500,-31.25,3.0,55.75,59.006640625,49.175,0.15664528125000002,33.8371875
2021-06-29 12:31:30.078125000,-31.5,3.0,55.5,59.005156250000006,49.41,0.1566853125,33.836875
2021-06-29 12:31:30.085937500,-31.75,3.0,55.25,59.003671875,49.519999999999996,0.15672534375,33.8365625
2021-06-29 12:31:30.093750000,-32.0,3.0,55.0,59.002187500000005,49.63,0.156765375,33.83625
2021-06-29 12:31:30.101562500,-32.0,3.0,55.0,59.000703125,49.485,0.15680540625,33.8359375
2021-06-29 12:31:30.109375000,-32.0,3.0,55.0,58.999218750000004,49.34,0.15684543750000002,33.835625
2021-06-29 12:31:30.117187500,-32.0,3.0,55.0,58.997734375,48.89,0.15688546875,33.8353125
2021-06-29 12:31:30.125000000,-32.0,3.0,55.0,58.99625,48.44,0.1569255,33.835
2021-06-29 12:31:30.132812500,-31.75,3.0,55.25,58.994765625,47.685,0.15696553125,33.8346875
2021-06-29 12:31:30.140625000,-31.5,3.0,55.5,58.99328125,46.93,0.1570055625,33.834375
2021-06-29 12:31:30.148437500,-31.25,3.0,55.75,58.991796875000006,45.94,0.15704559375000002,33.8340625
2021-06-29 12:31:30.156250000,-31.0,3.0,56.0,58.9903125,44.95,0.157085625,33.83375
2021-06-29 12:31:30.164062500,-31.0,3.0,56.0,58.988828125000005,43.83,0.15712565625000002,33.8334375
2021-06-29 12:31:30.171875000,-31.0,3.0,56.0,58.98734375,42.71,0.1571656875,33.833125
2021-06-29 12:31:30.179687500,-31.0,3.0,56.0,58.985859375000004,41.55,0.15720571875,33.8328125
2021-06-29 12:31:30.187500000,-31.0,3.0,56.0,58.984375,40.39,0.15724575000000002,33.832499999999996
2021-06-29 12:31:30.195312500,-31.25,3.0,55.75,58.982890625,39.265,0.15728578125,33.832187499999996
2021-06-29 12:31:30.203125000,-31.5,3.0,55.5,58.98140625,38.14,0.15732581250000002,33.831875
2021-06-29 12:31:30.210937500,-31.75,3.0,55.25,58.979921875,37.085,0.15736584375,33.8315625
2021-06-29 12:31:30.218750000,-32.0,3.0,55.0,58.978437500000005,36.03,0.157405875,33.83125
2021-06-29 12:31:30.226562500,-31.75,3.0,55.25,58.976953125,34.995000000000005,0.15744590625000002,33.8309375
2021-06-29 12:31:30.234375000,-31.5,3.0,55.5,58.975468750000005,33.96,0.1574859375,33.830625
2021-06-29 12:31:30.242187500,-31.25,3.0,55.75,58.973984375,32.875,0.15752596875000002,33.8303125
2021-06-29 12:31:30.250000000,-31.0,3.0,56.0,58.972500000000004,31.79,0.157566,33.83
2021-06-29 12:31:30.257812500,-31.0,3.0,56.0,58.971015625,30.555,0.157566,33.83
2021-06-29 12:31:30.265625000,-31.0,3.0,56.0,58.96953125,29.32,0.157566,33.83
2021-06-29 12:31:30.273437500,-31.0,3.0,56.0,58.968046875,27.865000000000002,0.157566,33.83
2021-06-29 12:31:30.281250000,-31.0,3.0,56.0,58.9665625,26.41,0.157566,33.83
2021-06-29 12:31:30.289062500,-31.0,3.0,56.0,58.965078125000005,24.715,0.157566,33.83
2021-06-29 12:31:30.296875000,-31.0,3.0,56.0,58.96359375,23.02,0.157566,33.83
2021-06-29 12:31:30.304687500,-31.0,3.0,56.0,58.962109375000004,21.13,0.157566,33.83
2021-06-29 12:31:30.312500000,-31.0,3.0,56.0,58.960625,19.24,0.157566,33.83
2021-06-29 12:31:30.320312500,-31.25,3.0,56.0,58.959140625,17.225,0.157566,33.83
2021-06-29 12:31:30.328125000,-31.5,3.0,56.0,58.95765625,15.21,0.157566,33.83
2021-06-29 12:31:30.335937500,-31.75,3.0,56.0,58.956171875,13.165,0.157566,33.83
2021-06-29 12:31:30.343750000,-32.0,3.0,56.0,58.9546875,11.12,0.157566,33.83
2021-06-29 12:31:30.351562500,-32.0,3.0,56.0,58.953203125,9.1,0.157566,33.83
2021-06-29 12:31:30.359375000,-32.0,3.0,56.0,58.951718750000005,7.08,0.157566,33.83
2021-06-29 12:31:30.367187500,-32.0,3.0,56.0,58.950234375,5.145,0.157566,33.83
2021-06-29 12:31:30.375000000,-32.0,3.0,56.0,58.948750000000004,3.21,0.157566,33.83
2021-06-29 12:31:30.382812500,-31.75,3.0,56.0,58.947265625,1.345,0.157566,33.83
2021-06-29 12:31:30.390625000,-31.5,3.0,56.0,58.94578125,-0.52,0.157566,33.83
2021-06-29 12:31:30.398437500,-31.25,3.0,56.0,58.944296875,-2.3550000000000004,0.157566,33.83
2021-06-29 12:31:30.406250000,-31.0,3.0,56.0,58.9428125,-4.19,0.157566,33.83
2021-06-29 12:31:30.414062500,-31.25,3.0,56.0,58.941328125,-6.135,0.157566,33.83
2021-06-29 12:31:30.421875000,-31.5,3.0,56.0,58.93984375,-8.08,0.157566,33.83
2021-06-29 12:31:30.429687500,-31.75,3.0,56.0,58.938359375000005,-10.27,0.157566,33.83
2021-06-29 12:31:30.437500000,-32.0,3.0,56.0,58.936875,-12.46,0.157566,33.83
2021-06-29 12:31:30.445312500,-32.0,3.0,56.0,58.935390625000004,-15.0,0.157566,33.83
2021-06-29 12:31:30.453125000,-32.0,3.0,56.0,58.93390625,-17.54,0.157566,33.83
2021-06-29 12:31:30.460937500,-32.0,3.0,56.0,58.932421875,-20.424999999999997,0.157566,33.83
2021-06-29 12:31:30.468750000,-32.0,3.0,56.0,58.9309375,-23.31,0.157566,33.83
2021-06-29 12:31:30.476562500,-32.0,3.0,56.0,58.929453125,-26.405,0.157566,33.83
2021-06-29 12:31:30.484375000,-32.0,3.0,56.0,58.92796875,-29.5,0.157566,33.83
2021-06-29 12:31:30.492187500,-32.0,3.0,56.0,58.926484375,-32.614999999999995,0.157566,33.83
2021-06-29 12:31:30.500000000,-32.0,3.0,56.0,58.925,-35.73,0.157566,33.83
2021-06-29 12:31:30.507812500,-31.75,3.0,55.75,58.923515625,-38.69499999999999,0.15752596875000002,33.83
2021-06-29 12:31:30.515625000,-31.5,3.0,55.5,58.92203125,-41.66,0.1574859375,33.83
2021-06-29 12:31:30.523437500,-31.25,3.0,55.25,58.920546875,-44.415,0.15744590625000002,33.83
2021-06-29 12:31:30.531250000,-31.0,3.0,55.0,58.9190625,-47.17,0.157405875,33.83
2021-06-29 12:31:30.539062500,-31.25,3.0,55.25,58.917578125,-49.82,0.15736584375,33.83
2021-06-29 12:31:30.546875000,-31.5,3.0,55.5,58.91609375,-52.47,0.15732581250000002,33.83
2021-06-29 12:31:30.554687500,-31.75,3.0,55.75,58.914609375,-55.224999999999994,0.15728578125,33.83
2021-06-29 12:31:30.562500000,-32.0,3.0,56.0,58.913125,-57.98,0.15724575000000002,33.83
2021-06-29 12:31:30.570312500,-32.0,3.0,55.75,58.911640625,-61.135000000000005,0.15720571875,33.83
2021-06-29 12:31:30.578125000,-32.0,3.0,55.5,58.91015625,-64.29,0.1571656875,33.83
2021-06-29 12:31:30.585937500,-32.0,3.0,55.25,58.908671875,-68.04,0.15712565625000002,33.83
2021-06-29 12:31:30.593750000,-32.0,3.0,55.0,58.9071875,-71.79,0.157085625,33.83
2021-06-29 12:31:30.601562500,-32.0,3.0,55.25,58.905703125,-76.18,0.15704559375000002,33.83
2021-06-29 12:31:30.609375000,-32.0,3.0,55.5,58.90421875,-80.57,0.1570055625,33.83
2021-06-29 12:31:30.617187500,-32.0,3.0,55.75,58.902734375,-85.35499999999999,0.15696553125,33.83
2021-06-29 12:31:30.625000000,-32.0,3.0,56.0,58.90125,-90.14,0.1569255,33.83
2021-06-29 12:31:30.632812500,-31.75,3.0,56.0,58.899765625,-94.775,0.15688546875,33.83
2021-06-29 12:31:30.640625000,-31.5,3.0,56.0,58.89828125,-99.41,0.15684543750000002,33.83
2021-06-29 12:31:30.648437500,-31.25,3.0,56.0,58.896796875,-103.13499999999999,0.15680540625,33.83
2021-06-29 12:31:30.656250000,-31.0,3.0,56.0,58.8953125,-106.86,0.156765375,33.83
2021-06-29 12:31:30.664062500,-31.25,3.0,56.0,58.893828125,-108.86,0.15672534375,33.83
2021-06-29 12:31:30.671875000,-31.5,3.0,56.0,58.89234375,-110.86,0.1566853125,33.83
2021-06-29 12:31:30.679687500,-31.75,3.0,56.0,58.890859375,-110.545,0.15664528125000002,33.83
2021-06-29 12:31:30.687500000,-32.0,3.0,56.0,58.889375,-110.23,0.15660525,33.83
2021-06-29 12:31:30.695312500,-31.75,3.0,56.0,58.887890625,-107.435,0.15656521875,33.83
2021-06-29 12:31:30.703125000,-31.5,3.0,56.0,58.88640625,-104.64,0.1565251875,33.83
2021-06-29 12:31:30.710937500,-31.25,3.0,56.0,58.884921874999996,-99.695,0.15648515625,33.83
2021-06-29 12:31:30.718750000,-31.0,3.0,56.0,58.8834375,-94.75,0.15644512500000002,33.83
2021-06-29 12:31:30.726562500,-31.0,3.0,55.75,58.881953125,-88.4,0.15640509375,33.83
2021-06-29 12:31:30.734375000,-31.0,3.0,55.5,58.88046875,-82.05,0.1563650625,33.83
2021-06-29 12:31:30.742187500,-31.0,3.0,55.25,58.878984375,-75.195,0.15632503125,33.83
2021-06-29 12:31:30.750000000,-31.0,3.0,55.0,58.8775,-68.34,0.156285,33.83
2021-06-29 12:31:30.757812500,-31.0,3.0,55.25,58.876015625,-61.760000000000005,0.15632503125,33.83
2021-06-29 12:31:30.765625000,-31.0,3.0,55.5,58.87453125,-55.18,0.1563650625,33.83
2021-06-29 12:31:30.773437500,-31.0,3.0,55.75,58.873046875,-49.34,0.15640509375,33.83
2021-06-29 12:31:30.781250000,-31.0,3.0,56.0,58.871562499999996,-43.5,0.15644512500000002,33.83
2021-06-29 12:31:30.789062500,-31.0,3.0,56.0,58.870078125,-38.515,0.15648515625,33.83
2021-06-29 12:31:30.796875000,-31.0,3.0,56.0,58.86859375,-33.53,0.1565251875,33.83
2021-06-29 12:31:30.804687500,-31.0,3.0,56.0,58.867109375,-29.21,0.15656521875,33.83
2021-06-29 12:31:30.812500000,-31.0,3.0,56.0,58.865625,-24.89,0.15660525,33.83
2021-06-29 12:31:30.820312500,-31.25,3.25,55.75,58.864140625,-20.950000000000003,0.15664528125000002,33.83
2021-06-29 12:31:30.828125000,-31.5,3.5,55.5,58.86265625,-17.01,0.1566853125,33.83
2021-06-29 12:31:30.835937500,-31.75,3.75,55.25,58.861171875,-13.165000000000001,0.15672534375,33.83
2021-06-29 12:31:30.843750000,-32.0,4.0,55.0,58.8596875,-9.32,0.156765375,33.83
2021-06-29 12:31:30.851562500,-32.0,4.0,55.25,58.858203124999996,-5.355,0.15680540625,33.83
2021-06-29 12:31:30.859375000,-32.0,4.0,55.5,58.85671875,-1.39,0.15684543750000002,33.83
2021-06-29 12:31:30.867187500,-32.0,4.0,55.75,58.855234375,2.795000000000001,0.15688546875,33.83
2021-06-29 12:31:30.875000000,-32.0,4.0,56.0,58.85375,6.98,0.1569255,33.83
2021-06-29 12:31:30.882812500,-31.75,3.75,56.0,58.852265625,11.39,0.15696553125,33.83
2021-06-29 12:31:30.890625000,-31.5,3.5,56.0,58.85078125,15.8,0.1570055625,33.83
2021-06-29 12:31:30.898437500,-31.25,3.25,56.0,58.849296875,20.34,0.15704559375000002,33.83
2021-06-29 12:31:30.906250000,-31.0,3.0,56.0,58.847812499999996,24.88,0.157085625,33.83
2021-06-29 12:31:30.914062500,-31.25,3.0,56.0,58.846328125,29.354999999999997,0.15712565625000002,33.83
2021-06-29 12:31:30.921875000,-31.5,3.0,56.0,58.844843749999995,33.83,0.1571656875,33.83
2021-06-29 12:31:30.929687500,-31.75,3.0,56.0,58.843359375,37.985,0.15720571875,33.83
2021-06-29 12:31:30.937500000,-32.0,3.0,56.0,58.841875,42.14,0.15724575000000002,33.83
2021-06-29 12:31:30.945312500,-32.0,3.0,56.0,58.840390625,45.69,0.15728578125,33.83
2021-06-29 12:31:30.953125000,-32.0,3.0,56.0,58.83890625,49.24,0.15732581250000002,33.83
2021-06-29 12:31:30.960937500,-32.0,3.0,56.0,58.837421875,51.975,0.15736584375,33.83
2021-06-29 12:31:30.968750000,-32.0,3.0,56.0,58.8359375,54.71,0.157405875,33.83
2021-06-29 12:31:30.976562500,-32.0,3.0,56.0,58.834453124999996,56.55,0.15744590625000002,33.83
2021-06-29 12:31:30.984375000,-32.0,3.0,56.0,58.83296875,58.39,0.1574859375,33.83
2021-06-29 12:31:30.992187500,-32.0,3.0,56.0,58.831484374999995,59.44,0.15752596875000002,33.83
2021-06-29 12:31:31.000000000,-32.0,3.0,56.0,58.83,60.49,0.157566,33.83
2021-06-29 12:31:31.007812500,-31.75,3.0,56.0,58.82875,60.985,0.15752596875000002,33.8303125
2021-06-29 12:31:31.015625000,-31.5,3.0,56.0,58.8275,61.48,0.1574859375,33.830625
2021-06-29 12:31:31.023437500,-31.25,3.0,56.0,58.82625,61.7,0.15744590625000002,33.8309375
2021-06-29 12:31:31.031250000,-31.0,3.0,56.0,58.824999999999996,61.92,0.157405875,33.83125
2021-06-29 12:31:31.039062500,-31.0,3.0,56.0,58.82375,62.11,0.15736584375,33.8315625
2021-06-29 12:31:31.046875000,-31.0,3.0,56.0,58.8225,62.3,0.15732581250000002,33.831875
2021-06-29 12:31:31.054687500,-31.0,3.0,56.0,58.82125,62.58,0.15728578125,33.832187499999996
2021-06-29 12:31:31.062500000,-31.0,3.0,56.0,58.82,62.86,0.15724575000000002,33.832499999999996
2021-06-29 12:31:31.070312500,-31.25,3.0,56.0,58.81875,63.239999999999995,0.15720571875,33.8328125
2021-06-29 12:31:31.078125000,-31.5,3.0,56.0,58.817499999999995,63.62,0.1571656875,33.833125
2021-06-29 12:31:31.085937500,-31.75,3.0,56.0,58.81625,64.03,0.15712565625000002,33.8334375
2021-06-29 12:31:31.093750000,-32.0,3.0,56.0,58.815,64.44,0.157085625,33.83375
2021-06-29 12:31:31.101562500,-31.75,3.0,56.0,58.81375,64.78,0.15704559375000002,33.8340625
2021-06-29 12:31:31.109375000,-31.5,3.0,56.0,58.8125,65.12,0.1570055625,33.834375
2021-06-29 12:31:31.117187500,-31.25,3.0,56.0,58.81125,65.33500000000001,0.15696553125,33.8346875
2021-06-29 12:31:31.125000000,-31.0,3.0,56.0,58.81,65.55,0.1569255,33.835
2021-06-29 12:31:31.132812500,-31.0,3.0,56.0,58.808749999999996,65.60499999999999,0.15688546875,33.8353125
2021-06-29 12:31:31.140625000,-31.0,3.0,56.0,58.8075,65.66,0.15684543750000002,33.835625
2021-06-29 12:31:31.148437500,-31.0,3.0,56.0,58.80625,65.545,0.15680540625,33.8359375
2021-06-29 12:31:31.156250000,-31.0,3.0,56.0,58.805,65.43,0.156765375,33.83625
2021-06-29 12:31:31.164062500,-31.0,3.0,56.0,58.80375,65.11500000000001,0.15672534375,33.8365625
2021-06-29 12:31:31.171875000,-31.0,3.0,56.0,58.8025,64.8,0.1566853125,33.836875
2021-06-29 12:31:31.179687500,-31.0,3.0,56.0,58.801249999999996,64.275,0.15664528125000002,33.8371875
2021-06-29 12:31:31.187500000,-31.0,3.0,56.0,58.8,63.75,0.15660525,33.837500000000006
2021-06-29 12:31:31.195312500,-31.0,3.0,56.0,58.79875,62.985,0.15656521875,33.837812500000005
2021-06-29 12:31:31.203125000,-31.0,3.0,56.0,58.7975,62.22,0.1565251875,33.838125000000005
2021-06-29 12:31:31.210937500,-31.0,3.0,56.0,58.79625,61.22,0.15648515625,33.838437500000005
2021-06-29 12:31:31.218750000,-31.0,3.0,56.0,58.795,60.22,0.15644512500000002,33.838750000000005
2021-06-29 12:31:31.226562500,-31.25,3.0,55.75,58.793749999999996,59.019999999999996,0.15640509375,33.839062500000004
2021-06-29 12:31:31.234375000,-31.5,3.0,55.5,58.7925,57.82,0.1563650625,33.839375000000004
2021-06-29 12:31:31.242187500,-31.75,3.0,55.25,58.79125,56.465,0.15632503125,33.839687500000004
2021-06-29 12:31:31.250000000,-32.0,3.0,55.0,58.79,55.11,0.156285,33.84
2021-06-29 12:31:31.257812500,-32.0,3.0,55.0,58.78875,53.66,0.1563650625,33.84
2021-06-29 12:31:31.265625000,-32.0,3.0,55.0,58.7875,52.21,0.15644512500000002,33.84
2021-06-29 12:31:31.273437500,-32.0,3.0,55.0,58.78625,50.7,0.1565251875,33.84
2021-06-29 12:31:31.281250000,-32.0,3.0,55.0,58.785,49.19,0.15660525,33.84
2021-06-29 12:31:31.289062500,-32.0,3.0,55.25,58.78375,47.629999999999995,0.1566853125,33.84
2021-06-29 12:31:31.296875000,-32.0,3.0,55.5,58.7825,46.07,0.156765375,33.84
2021-06-29 12:31:31.304687500,-32.0,3.0,55.75,58.78125,44.46,0.1568454375,33.84
2021-06-29 12:31:31.312500000,-32.0,3.0,56.0,58.78,42.85,0.1569255,33.84
2021-06-29 12:31:31.320312500,-32.25,3.0,55.75,58.77875,41.144999999999996,0.1570055625,33.84
2021-06-29 12:31:31.328125000,-32.5,3.0,55.5,58.777499999999996,39.44,0.157085625,33.84
2021-06-29 12:31:31.335937500,-32.75,3.0,55.25,58.77625,37.62,0.1571656875,33.84
2021-06-29 12:31:31.343750000,-33.0,3.0,55.0,58.775,35.8,0.15724575,33.84
2021-06-29 12:31:31.351562500,-32.75,3.0,55.0,58.77375,33.845,0.1573258125,33.84
2021-06-29 12:31:31.359375000,-32.5,3.0,55.0,58.7725,31.89,0.157405875,33.84
2021-06-29 12:31:31.367187500,-32.25,3.0,55.0,58.77125,29.805,0.1574859375,33.84
2021-06-29 12:31:31.375000000,-32.0,3.0,55.0,58.769999999999996,27.72,0.15756599999999998,33.84
2021-06-29 12:31:31.382812500,-32.0,3.0,55.0,58.76875,25.53,0.1576460625,33.84
2021-06-29 12:31:31.390625000,-32.0,3.0,55.0,58.7675,23.34,0.157726125,33.84
2021-06-29 12:31:31.398437500,-32.0,3.0,55.0,58.76625,21.095,0.1578061875,33.84
2021-06-29 12:31:31.406250000,-32.0,3.0,55.0,58.765,18.85,0.15788625,33.84
2021-06-29 12:31:31.414062500,-32.0,3.0,55.0,58.76375,16.605,0.15796631249999998,33.84
2021-06-29 12:31:31.421875000,-32.0,3.0,55.0,58.7625,14.36,0.158046375,33.84
2021-06-29 12:31:31.429687500,-32.0,3.0,55.0,58.76125,12.149999999999999,0.1581264375,33.84
2021-06-29 12:31:31.437500000,-32.0,3.0,55.0,58.76,9.94,0.1582065,33.84
2021-06-29 12:31:31.445312500,-31.75,3.0,55.25,58.75875,7.765,0.1582865625,33.84
2021-06-29 12:31:31.453125000,-31.5,3.0,55.5,58.7575,5.59,0.15836662499999998,33.84
2021-06-29 12:31:31.460937500,-31.25,3.0,55.75,58.75625,3.41,0.1584466875,33.84
2021-06-29 12:31:31.468750000,-31.0,3.0,56.0,58.755,1.23,0.15852675,33.84
2021-06-29 12:31:31.476562500,-31.25,3.0,55.75,58.75375,-1.0299999999999998,0.1586068125,33.84
2021-06-29 12:31:31.484375000,-31.5,3.0,55.5,58.7525,-3.29,0.15868687499999998,33.84
2021-06-29 12:31:31.492187500,-31.75,3.0,55.25,58.75125,-5.715,0.15876693749999998,33.84
2021-06-29 12:31:31.500000000,-32.0,3.0,55.0,58.75,-8.14,0.158847,33.84
2021-06-29 12:31:31.507812500,-32.0,3.0,55.25,58.74875,-10.780000000000001,0.15872690625,33.84
2021-06-29 12:31:31.515625000,-32.0,3.0,55.5,58.7475,-13.42,0.1586068125,33.84
2021-06-29 12:31:31.523437500,-32.0,3.0,55.75,58.74625,-16.275,0.15848671874999998,33.84
2021-06-29 12:31:31.531250000,-32.0,3.0,56.0,58.745,-19.13,0.15836662499999998,33.84
2021-06-29 12:31:31.539062500,-32.0,3.0,56.0,58.74375,-22.145,0.15824653125,33.84
2021-06-29 12:31:31.546875000,-32.0,3.0,56.0,58.7425,-25.16,0.1581264375,33.84
2021-06-29 12:31:31.554687500,-32.0,3.0,56.0,58.74125,-28.235,0.15800634375,33.84
2021-06-29 12:31:31.562500000,-32.0,3.0,56.0,58.74,-31.31,0.15788625,33.84
2021-06-29 12:31:31.570312500,-32.0,3.0,56.0,58.73875,-34.31,0.15776615624999998,33.84
2021-06-29 12:31:31.578125000,-32.0,3.0,56.0,58.7375,-37.31,0.1576460625,33.84
2021-06-29 12:31:31.585937500,-32.0,3.0,56.0,58.73625,-40.17,0.15752596875,33.84
2021-06-29 12:31:31.593750000,-32.0,3.0,56.0,58.735,-43.03,0.157405875,33.84
2021-06-29 12:31:31.601562500,-32.0,3.0,55.75,58.73375,-45.765,0.15728578125,33.84
2021-06-29 12:31:31.609375000,-32.0,3.0,55.5,58.7325,-48.5,0.15716568749999998,33.84
2021-06-29 12:31:31.617187500,-32.0,3.0,55.25,58.73125,-51.239999999999995,0.15704559375,33.84
2021-06-29 12:31:31.625000000,-32.0,3.0,55.0,58.730000000000004,-53.98,0.1569255,33.84
2021-06-29 12:31:31.632812500,-31.5,3.0,55.25,58.72875,-56.959999999999994,0.15680540625,33.84
2021-06-29 12:31:31.640625000,-31.0,3.0,55.5,58.7275,-59.94,0.1566853125,33.84
2021-06-29 12:31:31.648437500,-30.5,3.0,55.75,58.72625,-63.43,0.15656521874999998,33.84
2021-06-29 12:31:31.656250000,-30.0,3.0,56.0,58.725,-66.92,0.156445125,33.84
2021-06-29 12:31:31.664062500,-30.0,3.0,56.25,58.72375,-71.12,0.15632503125,33.84
2021-06-29 12:31:31.671875000,-30.0,3.0,56.5,58.722500000000004,-75.32,0.1562049375,33.84
2021-06-29 12:31:31.679687500,-30.0,3.0,56.75,58.72125,-80.21,0.15608484375,33.84
2021-06-29 12:31:31.687500000,-30.0,3.0,57.0,58.72,-85.1,0.15596474999999999,33.84
2021-06-29 12:31:31.695312500,-30.0,3.0,56.75,58.71875,-90.35,0.15584465625,33.84
2021-06-29 12:31:31.703125000,-30.0,3.0,56.5,58.7175,-95.6,0.1557245625,33.84
2021-06-29 12:31:31.710937500,-30.0,3.0,56.25,58.71625,-100.53999999999999,0.15560446875,33.84
2021-06-29 12:31:31.718750000,-30.0,3.0,56.0,58.715,-105.48,0.155484375,33.84
2021-06-29 12:31:31.726562500,-30.5,3.0,55.75,58.71375,-109.225,0.15536428125,33.84
2021-06-29 12:31:31.734375000,-31.0,3.0,55.5,58.7125,-112.97,0.1552441875,33.84
2021-06-29 12:31:31.742187500,-31.5,3.0,55.25,58.71125,-114.65,0.15512409375,33.84
2021-06-29 12:31:31.750000000,-32.0,3.0,55.0,58.71,-116.33,0.155004,33.84
2021-06-29 12:31:31.757812500,-31.75,3.0,55.25,58.70875,-115.39,0.15512409375,33.84
2021-06-29 12:31:31.765625000,-31.5,3.0,55.5,58.7075,-114.45,0.1552441875,33.84
2021-06-29 12:31:31.773437500,-31.25,3.0,55.75,58.706250000000004,-110.84,0.15536428125,33.84
2021-06-29 12:31:31.781250000,-31.0,3.0,56.0,58.705,-107.23,0.155484375,33.84
2021-06-29 12:31:31.789062500,-31.0,3.0,56.0,58.70375,-101.475,0.15560446875,33.84
2021-06-29 12:31:31.796875000,-31.0,3.0,56.0,58.7025,-95.72,0.1557245625,33.84
2021-06-29 12:31:31.804687500,-31.0,3.0,56.0,58.70125,-88.74000000000001,0.15584465625,33.84
2021-06-29 12:31:31.812500000,-31.0,3.0,56.0,58.7,-81.76,0.15596474999999999,33.84
2021-06-29 12:31:31.820312500,-31.0,3.0,56.0,58.698750000000004,-74.555,0.15608484375,33.84
2021-06-29 12:31:31.828125000,-31.0,3.0,56.0,58.6975,-67.35,0.1562049375,33.84
2021-06-29 12:31:31.835937500,-31.0,3.0,56.0,58.69625,-60.69,0.15632503125,33.84
2021-06-29 12:31:31.843750000,-31.0,3.0,56.0,58.695,-54.03,0.156445125,33.84
2021-06-29 12:31:31.851562500,-31.0,3.0,56.0,58.69375,-48.260000000000005,0.15656521874999998,33.84
2021-06-29 12:31:31.859375000,-31.0,3.0,56.0,58.6925,-42.49,0.1566853125,33.84
2021-06-29 12:31:31.867187500,-31.0,3.0,56.0,58.691250000000004,-37.555,0.15680540625,33.84
2021-06-29 12:31:31.875000000,-31.0,3.0,56.0,58.69,-32.62,0.1569255,33.84
2021-06-29 12:31:31.882812500,-31.0,3.0,56.0,58.68875,-28.22,0.15704559375,33.84
2021-06-29 12:31:31.890625000,-31.0,3.0,56.0,58.6875,-23.82,0.15716568749999998,33.84
2021-06-29 12:31:31.898437500,-31.0,3.0,56.0,58.68625,-19.625,0.15728578125,33.84
2021-06-29 12:31:31.906250000,-31.0,3.0,56.0,58.685,-15.43,0.157405875,33.84
2021-06-29 12:31:31.914062500,-31.0,3.25,56.0,58.68375,-11.21,0.15752596875,33.84
2021-06-29 12:31:31.921875000,-31.0,3.5,56.0,58.682500000000005,-6.99,0.1576460625,33.84
2021-06-29 12:31:31.929687500,-31.0,3.75,56.0,58.68125,-2.66,0.15776615624999998,33.84
2021-06-29 12:31:31.937500000,-31.0,4.0,56.0,58.68,1.67,0.15788625,33.84
2021-06-29 12:31:31.945312500,-31.0,3.75,56.0,58.67875,6.11,0.15800634375,33.84
2021-06-29 12:31:31.953125000,-31.0,3.5,56.0,58.6775,10.55,0.1581264375,33.84
2021-06-29 12:31:31.960937500,-31.0,3.25,56.0,58.67625,15.055,0.15824653125,33.84
2021-06-29 12:31:31.968750000,-31.0,3.0,56.0,58.675000000000004,19.56,0.15836662499999998,33.84
2021-06-29 12:31:31.976562500,-31.0,3.25,56.0,58.67375,24.015,0.15848671874999998,33.84
2021-06-29 12:31:31.984375000,-31.0,3.5,56.0,58.6725,28.47,0.1586068125,33.84
2021-06-29 12:31:31.992187500,-31.0,3.75,56.0,58.67125,32.705,0.15872690625,33.84
2021-06-29 12:31:32.000000000,-31.0,4.0,56.0,58.67,36.94,0.158847,33.84
2021-06-29 12:31:32.007812500,-31.0,3.75,56.0,58.668671875,40.695,0.158847,33.8409375
2021-06-29 12:31:32.015625000,-31.0,3.5,56.0,58.66734375,44.45,0.158847,33.841875
2021-06-29 12:31:32.023437500,-31.0,3.25,56.0,58.666015625,47.480000000000004,0.158847,33.8428125
2021-06-29 12:31:32.031250000,-31.0,3.0,56.0,58.6646875,50.51,0.158847,33.84375
2021-06-29 12:31:32.039062500,-31.0,3.0,56.0,58.663359375,52.644999999999996,0.158847,33.8446875
2021-06-29 12:31:32.046875000,-31.0,3.0,56.0,58.66203125,54.78,0.158847,33.845625000000005
2021-06-29 12:31:32.054687500,-31.0,3.0,56.0,58.660703125000005,56.015,0.158847,33.846562500000005
2021-06-29 12:31:32.062500000,-31.0,3.0,56.0,58.659375000000004,57.25,0.158847,33.847500000000004
2021-06-29 12:31:32.070312500,-31.25,3.0,55.75,58.658046875000004,57.775,0.158847,33.8484375
2021-06-29 12:31:32.078125000,-31.5,3.0,55.5,58.65671875,58.3,0.158847,33.849375
2021-06-29 12:31:32.085937500,-31.75,3.0,55.25,58.655390625,58.425,0.158847,33.8503125
2021-06-29 12:31:32.093750000,-32.0,3.0,55.0,58.6540625,58.55,0.158847,33.85125
2021-06-29 12:31:32.101562500,-32.0,3.0,55.0,58.652734375,58.595,0.158847,33.8521875
2021-06-29 12:31:32.109375000,-32.0,3.0,55.0,58.65140625,58.64,0.158847,33.853125
2021-06-29 12:31:32.117187500,-32.0,3.0,55.0,58.650078125,58.835,0.158847,33.8540625
2021-06-29 12:31:32.125000000,-32.0,3.0,55.0,58.64875,59.03,0.158847,33.855000000000004
2021-06-29 12:31:32.132812500,-31.75,3.0,55.25,58.647421875,59.455,0.158847,33.8559375
2021-06-29 12:31:32.140625000,-31.5,3.0,55.5,58.64609375,59.88,0.158847,33.856875
2021-06-29 12:31:32.148437500,-31.25,3.0,55.75,58.644765625,60.485,0.158847,33.8578125
2021-06-29 12:31:32.156250000,-31.0,3.0,56.0,58.643437500000005,61.09,0.158847,33.85875
2021-06-29 12:31:32.164062500,-30.75,3.0,56.0,58.642109375000004,61.74,0.158847,33.8596875
2021-06-29 12:31:32.171875000,-30.5,3.0,56.0,58.64078125,62.39,0.158847,33.860625
2021-06-29 12:31:32.179687500,-30.25,3.0,56.0,58.639453125,62.925,0.158847,33.8615625
2021-06-29 12:31:32.187500000,-30.0,3.0,56.0,58.638125,63.46,0.158847,33.8625
2021-06-29 12:31:32.195312500,-30.25,3.0,56.0,58.636796875,63.739999999999995,0.158847,33.863437499999996
2021-06-29 12:31:32.203125000,-30.5,3.0,56.0,58.63546875,64.02,0.158847,33.864374999999995
2021-06-29 12:31:32.210937500,-30.75,3.0,56.0,58.634140625,63.974999999999994,0.158847,33.8653125
2021-06-29 12:31:32.218750000,-31.0,3.0,56.0,58.6328125,63.93,0.158847,33.86625
2021-06-29 12:31:32.226562500,-31.25,3.0,55.75,58.631484375,63.555,0.158847,33.8671875
2021-06-29 12:31:32.234375000,-31.5,3.0,55.5,58.63015625,63.18,0.158847,33.868125
2021-06-29 12:31:32.242187500,-31.75,3.0,55.25,58.628828125,62.535,0.158847,33.8690625
2021-06-29 12:31:32.250000000,-32.0,3.0,55.0,58.6275,61.89,0.158847,33.87
2021-06-29 12:31:32.257812500,-32.0,3.0,55.25,58.626171875000004,61.055,0.15876693749999998,33.87
2021-06-29 12:31:32.265625000,-32.0,3.0,55.5,58.624843750000004,60.22,0.15868687499999998,33.87
2021-06-29 12:31:32.273437500,-32.0,3.0,55.75,58.623515625,59.275,0.1586068125,33.87
2021-06-29 12:31:32.281250000,-32.0,3.0,56.0,58.6221875,58.33,0.15852675,33.87
2021-06-29 12:31:32.289062500,-31.75,3.0,56.0,58.620859375,57.33,0.1584466875,33.87
2021-06-29 12:31:32.296875000,-31.5,3.0,56.0,58.61953125,56.33,0.15836662499999998,33.87
2021-06-29 12:31:32.304687500,-31.25,3.0,56.0,58.618203125,55.28,0.1582865625,33.87
2021-06-29 12:31:32.312500000,-31.0,3.0,56.0,58.616875,54.23,0.1582065,33.87
2021-06-29 12:31:32.320312500,-31.0,3.0,56.0,58.615546875,53.11,0.1581264375,33.87
2021-06-29 12:31:32.328125000,-31.0,3.0,56.0,58.61421875,51.99,0.158046375,33.87
2021-06-29 12:31:32.335937500,-31.0,3.0,56.0,58.612890625,50.755,0.15796631249999998,33.87
2021-06-29 12:31:32.343750000,-31.0,3.0,56.0,58.6115625,49.52,0.15788625,33.87
2021-06-29 12:31:32.351562500,-31.25,3.0,56.0,58.610234375000005,48.16,0.1578061875,33.87
2021-06-29 12:31:32.359375000,-31.5,3.0,56.0,58.608906250000004,46.8,0.157726125,33.87
2021-06-29 12:31:32.367187500,-31.75,3.0,56.0,58.607578125,45.315,0.1576460625,33.87
2021-06-29 12:31:32.375000000,-32.0,3.0,56.0,58.60625,43.83,0.15756599999999998,33.87
2021-06-29 12:31:32.382812500,-31.75,3.0,56.0,58.604921875,42.26,0.1574859375,33.87
2021-06-29 12:31:32.390625000,-31.5,3.0,56.0,58.60359375,40.69,0.157405875,33.87
2021-06-29 12:31:32.398437500,-31.25,3.0,56.0,58.602265625,39.075,0.1573258125,33.87
2021-06-29 12:31:32.406250000,-31.0,3.0,56.0,58.6009375,37.46,0.15724575,33.87
2021-06-29 12:31:32.414062500,-31.25,3.0,56.0,58.599609375,35.83,0.1571656875,33.87
2021-06-29 12:31:32.421875000,-31.5,3.0,56.0,58.59828125,34.2,0.157085625,33.87
2021-06-29 12:31:32.429687500,-31.75,3.0,56.0,58.596953125,32.555,0.1570055625,33.87
2021-06-29 12:31:32.437500000,-32.0,3.0,56.0,58.595625,30.91,0.1569255,33.87
2021-06-29 12:31:32.445312500,-32.0,3.0,56.0,58.594296875,29.235,0.1568454375,33.87
2021-06-29 12:31:32.453125000,-32.0,3.0,56.0,58.592968750000004,27.56,0.156765375,33.87
2021-06-29 12:31:32.460937500,-32.0,3.0,56.0,58.591640625000004,25.814999999999998,0.1566853125,33.87
2021-06-29 12:31:32.468750000,-32.0,3.0,56.0,58.5903125,24.07,0.15660525,33.87
2021-06-29 12:31:32.476562500,-31.75,3.0,56.0,58.588984375,22.245,0.1565251875,33.87
2021-06-29 12:31:32.484375000,-31.5,3.0,56.0,58.58765625,20.42,0.15644512500000002,33.87
2021-06-29 12:31:32.492187500,-31.25,3.0,56.0,58.586328125,18.54,0.1563650625,33.87
2021-06-29 12:31:32.500000000,-31.0,3.0,56.0,58.585,16.66,0.156285,33.87
2021-06-29 12:31:32.507812500,-31.0,3.0,56.0,58.583671875,14.79,0.1563650625,33.87
2021-06-29 12:31:32.515625000,-31.0,3.0,56.0,58.58234375,12.92,0.15644512500000002,33.87
2021-06-29 12:31:32.523437500,-31.0,3.0,56.0,58.581015625,11.125,0.1565251875,33.87
2021-06-29 12:31:32.531250000,-31.0,3.0,56.0,58.5796875,9.33,0.15660525,33.87
2021-06-29 12:31:32.539062500,-31.25,3.0,56.0,58.578359375,7.625,0.1566853125,33.87
2021-06-29 12:31:32.546875000,-31.5,3.0,56.0,58.57703125,5.92,0.156765375,33.87
2021-06-29 12:31:32.554687500,-31.75,3.0,56.0,58.575703125000004,4.25,0.1568454375,33.87
2021-06-29 12:31:32.562500000,-32.0,3.0,56.0,58.574375,2.58,0.1569255,33.87
2021-06-29 12:31:32.570312500,-31.75,3.0,56.0,58.573046875,0.8,0.1570055625,33.87
2021-06-29 12:31:32.578125000,-31.5,3.0,56.0,58.57171875,-0.98,0.157085625,33.87
2021-06-29 12:31:32.585937500,-31.25,3.0,56.0,58.570390625,-3.055,0.1571656875,33.87
2021-06-29 12:31:32.593750000,-31.0,3.0,56.0,58.5690625,-5.13,0.15724575,33.87
2021-06-29 12:31:32.601562500,-31.25,3.0,56.0,58.567734375,-7.654999999999999,0.1573258125,33.87
2021-06-29 12:31:32.609375000,-31.5,3.0,56.0,58.56640625,-10.18,0.157405875,33.87
2021-06-29 12:31:32.617187500,-31.75,3.0,56.0,58.565078125,-13.22,0.1574859375,33.87
2021-06-29 12:31:32.625000000,-32.0,3.0,56.0,58.56375,-16.26,0.15756599999999998,33.87
2021-06-29 12:31:32.632812500,-32.0,3.0,56.0,58.562421875,-19.735,0.1576460625,33.87
2021-06-29 12:31:32.640625000,-32.0,3.0,56.0,58.56109375,-23.21,0.157726125,33.87
2021-06-29 12:31:32.648437500,-32.0,3.0,56.0,58.559765625,-26.945,0.1578061875,33.87
2021-06-29 12:31:32.656250000,-32.0,3.0,56.0,58.558437500000004,-30.68,0.15788625,33.87
2021-06-29 12:31:32.664062500,-32.0,3.0,56.0,58.557109375,-34.41,0.15796631249999998,33.87
2021-06-29 12:31:32.671875000,-32.0,3.0,56.0,58.55578125,-38.14,0.158046375,33.87
2021-06-29 12:31:32.679687500,-32.0,3.0,56.0,58.554453125,-41.67,0.1581264375,33.87
2021-06-29 12:31:32.687500000,-32.0,3.0,56.0,58.553125,-45.2,0.1582065,33.87
2021-06-29 12:31:32.695312500,-31.75,3.0,56.0,58.551796875,-48.435,0.1582865625,33.87
2021-06-29 12:31:32.703125000,-31.5,3.0,56.0,58.55046875,-51.67,0.15836662499999998,33.87
2021-06-29 12:31:32.710937500,-31.25,3.0,56.0,58.549140625,-54.68,0.1584466875,33.87
2021-06-29 12:31:32.718750000,-31.0,3.0,56.0,58.5478125,-57.69,0.15852675,33.87
2021-06-29 12:31:32.726562500,-31.25,3.0,56.0,58.546484375,-60.685,0.1586068125,33.87
2021-06-29 12:31:32.734375000,-31.5,3.0,56.0,58.54515625,-63.68,0.15868687499999998,33.87
2021-06-29 12:31:32.742187500,-31.75,3.0,56.0,58.543828125,-66.965,0.15876693749999998,33.87
2021-06-29 12:31:32.750000000,-32.0,3.0,56.0,58.542500000000004,-70.25,0.158847,33.87
2021-06-29 12:31:32.757812500,-32.0,3.0,55.75,58.541171875,-74.13499999999999,0.15876693749999998,33.87
2021-06-29 12:31:32.765625000,-32.0,3.0,55.5,58.53984375,-78.02,0.15868687499999998,33.87
2021-06-29 12:31:32.773437500,-32.0,3.0,55.25,58.538515625,-82.705,0.1586068125,33.87
2021-06-29 12:31:32.781250000,-32.0,3.0,55.0,58.5371875,-87.39,0.15852675,33.87
2021-06-29 12:31:32.789062500,-31.75,3.0,55.25,58.535859375,-92.83,0.1584466875,33.87
2021-06-29 12:31:32.796875000,-31.5,3.0,55.5,58.53453125,-98.27,0.15836662499999998,33.87
2021-06-29 12:31:32.804687500,-31.25,3.0,55.75,58.533203125,-104.09,0.1582865625,33.87
2021-06-29 12:31:32.812500000,-31.0,3.0,56.0,58.531875,-109.91,0.1582065,33.87
2021-06-29 12:31:32.820312500,-31.0,3.0,56.0,58.530546875,-115.39,0.1581264375,33.87
2021-06-29 12:31:32.828125000,-31.0,3.0,56.0,58.52921875,-120.87,0.158046375,33.87
2021-06-29 12:31:32.835937500,-31.0,3.0,56.0,58.527890625,-125.08,0.15796631249999998,33.87
2021-06-29 12:31:32.843750000,-31.0,3.0,56.0,58.5265625,-129.29,0.15788625,33.87
2021-06-29 12:31:32.851562500,-31.0,3.0,56.0,58.525234375000004,-131.33499999999998,0.1578061875,33.87
2021-06-29 12:31:32.859375000,-31.0,3.0,56.0,58.52390625,-133.38,0.157726125,33.87
2021-06-29 12:31:32.867187500,-31.0,3.0,56.0,58.522578125,-132.69,0.1576460625,33.87
2021-06-29 12:31:32.875000000,-31.0,3.0,56.0,58.52125,-132.0,0.15756599999999998,33.87
2021-06-29 12:31:32.882812500,-31.0,3.0,55.75,58.519921875,-128.54500000000002,0.1574859375,33.87
2021-06-29 12:31:32.890625000,-31.0,3.0,55.5,58.51859375,-125.09,0.157405875,33.87
2021-06-29 12:31:32.898437500,-31.0,3.0,55.25,58.517265625,-119.39,0.1573258125,33.87
2021-06-29 12:31:32.906250000,-31.0,3.0,55.0,58.5159375,-113.69,0.15724575,33.87
2021-06-29 12:31:32.914062500,-31.0,3.0,55.0,58.514609375,-106.63499999999999,0.1571656875,33.87
2021-06-29 12:31:32.921875000,-31.0,3.0,55.0,58.51328125,-99.58,0.157085625,33.87
2021-06-29 12:31:32.929687500,-31.0,3.0,55.0,58.511953125,-92.11,0.1570055625,33.87
2021-06-29 12:31:32.937500000,-31.0,3.0,55.0,58.510625,-84.64,0.1569255,33.87
2021-06-29 12:31:32.945312500,-31.25,3.0,55.25,58.509296875,-77.46000000000001,0.1568454375,33.87
2021-06-29 12:31:32.953125000,-31.5,3.0,55.5,58.50796875,-70.28,0.156765375,33.87
2021-06-29 12:31:32.960937500,-31.75,3.0,55.75,58.506640625,-63.72,0.1566853125,33.87
2021-06-29 12:31:32.968750000,-32.0,3.0,56.0,58.5053125,-57.16,0.15660525,33.87
2021-06-29 12:31:32.976562500,-32.0,3.0,56.0,58.503984375,-51.185,0.1565251875,33.87
2021-06-29 12:31:32.984375000,-32.0,3.0,56.0,58.50265625,-45.21,0.15644512500000002,33.87
2021-06-29 12:31:32.992187500,-32.0,3.0,56.0,58.501328125,-39.605000000000004,0.1563650625,33.87
2021-06-29 12:31:33.000000000,-32.0,3.0,56.0,58.5,-34.0,0.156285,33.87
2021-06-29 12:31:33.007812500,-31.75,3.25,56.25,58.498984375,-28.52,0.15632503125,33.87
2021-06-29 12:31:33.015625000,-31.5,3.5,56.5,58.49796875,-23.04,0.1563650625,33.87
2021-06-29 12:31:33.023437500,-31.25,3.75,56.75,58.496953125,-17.555,0.15640509375,33.87
2021-06-29 12:31:33.031250000,-31.0,4.0,57.0,58.4959375,-12.07,0.15644512500000002,33.87
2021-06-29 12:31:33.039062500,-31.0,3.75,56.5,58.494921875,-6.54,0.15648515625,33.87
2021-06-29 12:31:33.046875000,-31.0,3.5,56.0,58.49390625,-1.01,0.1565251875,33.87
2021-06-29 12:31:33.054687500,-31.0,3.25,55.5,58.492890625,4.5,0.15656521875,33.87
2021-06-29 12:31:33.062500000,-31.0,3.0,55.0,58.491875,10.01,0.15660525,33.87
2021-06-29 12:31:33.070312500,-31.0,3.5,55.25,58.490859375,15.415,0.15664528125000002,33.87
2021-06-29 12:31:33.078125000,-31.0,4.0,55.5,58.48984375,20.82,0.1566853125,33.87
2021-06-29 12:31:33.085937500,-31.0,4.5,55.75,58.488828125,26.015,0.15672534375,33.87
2021-06-29 12:31:33.093750000,-31.0,5.0,56.0,58.4878125,31.21,0.156765375,33.87
2021-06-29 12:31:33.101562500,-31.0,4.5,56.0,58.486796875,36.065,0.15680540625,33.87
2021-06-29 12:31:33.109375000,-31.0,4.0,56.0,58.48578125,40.92,0.15684543750000002,33.87
2021-06-29 12:31:33.117187500,-31.0,3.5,56.0,58.484765625,45.29,0.15688546875,33.87
2021-06-29 12:31:33.125000000,-31.0,3.0,56.0,58.48375,49.66,0.1569255,33.87
2021-06-29 12:31:33.132812500,-31.0,3.0,56.0,58.482734375,53.39,0.15696553125,33.87
2021-06-29 12:31:33.140625000,-31.0,3.0,56.0,58.48171875,57.12,0.1570055625,33.87
2021-06-29 12:31:33.148437500,-31.0,3.0,56.0,58.480703125,60.114999999999995,0.15704559375000002,33.87
2021-06-29 12:31:33.156250000,-31.0,3.0,56.0,58.4796875,63.11,0.157085625,33.87
2021-06-29 12:31:33.164062500,-31.25,3.0,56.0,58.478671874999996,65.36,0.15712565625000002,33.87
2021-06-29 12:31:33.171875000,-31.5,3.0,56.0,58.47765625,67.61,0.1571656875,33.87
2021-06-29 12:31:33.179687500,-31.75,3.0,56.0,58.476640625,69.245,0.15720571875,33.87
2021-06-29 12:31:33.187500000,-32.0,3.0,56.0,58.475625,70.88,0.15724575000000002,33.87
2021-06-29 12:31:33.195312500,-31.75,3.0,56.0,58.474609375,72.145,0.15728578125,33.87
2021-06-29 12:31:33.203125000,-31.5,3.0,56.0,58.47359375,73.41,0.15732581250000002,33.87
2021-06-29 12:31:33.210937500,-31.25,3.0,56.0,58.472578125,74.59,0.15736584375,33.87
2021-06-29 12:31:33.218750000,-31.0,3.0,56.0,58.4715625,75.77,0.157405875,33.87
2021-06-29 12:31:33.226562500,-31.25,3.0,56.0,58.470546875,77.11,0.15744590625000002,33.87
2021-06-29 12:31:33.234375000,-31.5,3.0,56.0,58.46953125,78.45,0.1574859375,33.87
2021-06-29 12:31:33.242187500,-31.75,3.0,56.0,58.468515625,80.055,0.15752596875000002,33.87
2021-06-29 12:31:33.250000000,-32.0,3.0,56.0,58.4675,81.66,0.157566,33.87
2021-06-29 12:31:33.257812500,-31.75,3.0,56.0,58.466484375,83.42,0.1574859375,33.87
2021-06-29 12:31:33.265625000,-31.5,3.0,56.0,58.46546875,85.18,0.157405875,33.87
2021-06-29 12:31:33.273437500,-31.25,3.0,56.0,58.464453125,86.83500000000001,0.15732581250000002,33.87
2021-06-29 12:31:33.281250000,-31.0,3.0,56.0,58.4634375,88.49,0.15724575000000002,33.87
2021-06-29 12:31:33.289062500,-31.0,3.0,55.75,58.462421875,89.69999999999999,0.1571656875,33.87
2021-06-29 12:31:33.296875000,-31.0,3.0,55.5,58.461406249999996,90.91,0.157085625,33.87
2021-06-29 12:31:33.304687500,-31.0,3.0,55.25,58.460390625,91.38,0.1570055625,33.87
2021-06-29 12:31:33.312500000,-31.0,3.0,55.0,58.459375,91.85,0.1569255,33.87
2021-06-29 12:31:33.320312500,-30.75,3.5,55.25,58.458359375,91.44,0.15684543750000002,33.87
2021-06-29 12:31:33.328125000,-30.5,4.0,55.5,58.45734375,91.03,0.156765375,33.87
2021-06-29 12:31:33.335937500,-30.25,4.5,55.75,58.456328125,89.775,0.1566853125,33.87
2021-06-29 12:31:33.343750000,-30.0,5.0,56.0,58.4553125,88.52,0.15660525,33.87
2021-06-29 12:31:33.351562500,-30.5,4.0,55.75,58.454296875,86.63499999999999,0.1565251875,33.87
2021-06-29 12:31:33.359375000,-31.0,3.0,55.5,58.453281249999996,84.75,0.15644512500000002,33.87
2021-06-29 12:31:33.367187500,-31.5,2.0,55.25,58.452265625,82.53999999999999,0.1563650625,33.87
2021-06-29 12:31:33.375000000,-32.0,1.0,55.0,58.45125,80.33,0.156285,33.87
2021-06-29 12:31:33.382812500,-31.75,2.0,55.25,58.450234375,78.095,0.1562049375,33.87
2021-06-29 12:31:33.390625000,-31.5,3.0,55.5,58.44921875,75.86,0.156124875,33.87
2021-06-29 12:31:33.398437500,-31.25,4.0,55.75,58.448203125,73.82,0.15604481250000002,33.87
2021-06-29 12:31:33.406250000,-31.0,5.0,56.0,58.4471875,71.78,0.15596475,33.87
2021-06-29 12:31:33.414062500,-31.25,4.25,56.0,58.446171875,70.00999999999999,0.1558846875,33.87
2021-06-29 12:31:33.421875000,-31.5,3.5,56.0,58.44515625,68.24,0.155804625,33.87
2021-06-29 12:31:33.429687500,-31.75,2.75,56.0,58.444140624999996,66.695,0.1557245625,33.87
2021-06-29 12:31:33.437500000,-32.0,2.0,56.0,58.443125,65.15,0.15564450000000002,33.87
2021-06-29 12:31:33.445312500,-31.5,2.75,56.0,58.442109375,63.69500000000001,0.1555644375,33.87
2021-06-29 12:31:33.453125000,-31.0,3.5,56.0,58.44109375,62.24,0.155484375,33.87
2021-06-29 12:31:33.460937500,-30.5,4.25,56.0,58.440078125,60.705,0.1554043125,33.87
2021-06-29 12:31:33.468750000,-30.0,5.0,56.0,58.4390625,59.17,0.15532425,33.87
2021-06-29 12:31:33.476562500,-30.75,4.5,56.0,58.438046875,57.44,0.1552441875,33.87
2021-06-29 12:31:33.484375000,-31.5,4.0,56.0,58.43703125,55.71,0.155164125,33.87
2021-06-29 12:31:33.492187500,-32.25,3.5,56.0,58.436015624999996,53.769999999999996,0.1550840625,33.87
2021-06-29 12:31:33.500000000,-33.0,3.0,56.0,58.435,51.83,0.155004,33.87
2021-06-29 12:31:33.507812500,-31.75,3.5,55.5,58.433984375,49.745,0.1550840625,33.87
2021-06-29 12:31:33.515625000,-30.5,4.0,55.0,58.43296875,47.66,0.155164125,33.87
2021-06-29 12:31:33.523437500,-29.25,4.5,54.5,58.431953125,45.535,0.1552441875,33.87
2021-06-29 12:31:33.531250000,-28.0,5.0,54.0,58.4309375,43.41,0.15532425,33.87
2021-06-29 12:31:33.539062500,-30.5,4.0,55.0,58.429921875,41.349999999999994,0.1554043125,33.87
2021-06-29 12:31:33.546875000,-33.0,3.0,56.0,58.42890625,39.29,0.155484375,33.87
2021-06-29 12:31:33.554687500,-35.5,2.0,57.0,58.427890624999996,37.31,0.1555644375,33.87
2021-06-29 12:31:33.562500000,-38.0,1.0,58.0,58.426874999999995,35.33,0.15564450000000002,33.87
2021-06-29 12:31:33.570312500,-35.75,2.25,57.5,58.425859375,33.379999999999995,0.1557245625,33.87
2021-06-29 12:31:33.578125000,-33.5,3.5,57.0,58.42484375,31.43,0.155804625,33.87
2021-06-29 12:31:33.585937500,-31.25,4.75,56.5,58.423828125,29.415,0.1558846875,33.87
2021-06-29 12:31:33.593750000,-29.0,6.0,56.0,58.4228125,27.4,0.15596475,33.87
2021-06-29 12:31:33.601562500,-29.5,5.75,56.0,58.421796875,25.235,0.15604481250000002,33.87
2021-06-29 12:31:33.609375000,-30.0,5.5,56.0,58.42078125,23.07,0.156124875,33.87
2021-06-29 12:31:33.617187500,-30.5,5.25,56.0,58.419765625,20.715,0.1562049375,33.87
2021-06-29 12:31:33.625000000,-31.0,5.0,56.0,58.418749999999996,18.36,0.156285,33.87
2021-06-29 12:31:33.632812500,-31.0,4.25,55.75,58.417734374999995,15.85,0.1563650625,33.87
2021-06-29 12:31:33.640625000,-31.0,3.5,55.5,58.41671875,13.34,0.15644512500000002,33.87
2021-06-29 12:31:33.648437500,-31.0,2.75,55.25,58.415703125,10.77,0.1565251875,33.87
2021-06-29 12:31:33.656250000,-31.0,2.0,55.0,58.4146875,8.2,0.15660525,33.87
2021-06-29 12:31:33.664062500,-31.25,2.25,55.25,58.413671875,5.675,0.1566853125,33.87
2021-06-29 12:31:33.671875000,-31.5,2.5,55.5,58.41265625,3.15,0.156765375,33.87
2021-06-29 12:31:33.679687500,-31.75,2.75,55.75,58.411640625,0.7450000000000001,0.15684543750000002,33.87
2021-06-29 12:31:33.687500000,-32.0,3.0,56.0,58.410624999999996,-1.66,0.1569255,33.87
2021-06-29 12:31:33.695312500,-32.0,3.0,56.0,58.409609374999995,-3.9450000000000003,0.1570055625,33.87
2021-06-29 12:31:33.703125000,-32.0,3.0,56.0,58.40859375,-6.23,0.157085625,33.87
2021-06-29 12:31:33.710937500,-32.0,3.0,56.0,58.407578125,-8.455,0.1571656875,33.87
2021-06-29 12:31:33.718750000,-32.0,3.0,56.0,58.4065625,-10.68,0.15724575000000002,33.87
2021-06-29 12:31:33.726562500,-33.25,3.0,56.75,58.405546875,-12.975,0.15732581250000002,33.87
2021-06-29 12:31:33.734375000,-34.5,3.0,57.5,58.40453125,-15.27,0.157405875,33.87
2021-06-29 12:31:33.742187500,-35.75,3.0,58.25,58.403515625,-17.744999999999997,0.1574859375,33.87
2021-06-29 12:31:33.750000000,-37.0,3.0,59.0,58.402499999999996,-20.22,0.157566,33.87
2021-06-29 12:31:33.757812500,-35.75,2.0,57.75,58.401484374999995,-22.91,0.157566,33.87
2021-06-29 12:31:33.765625000,-34.5,1.0,56.5,58.400468749999995,-25.6,0.157566,33.87
2021-06-29 12:31:33.773437500,-33.25,0.0,55.25,58.399453125,-28.445,0.157566,33.87
2021-06-29 12:31:33.781250000,-32.0,-1.0,54.0,58.3984375,-31.29,0.157566,33.87
2021-06-29 12:31:33.789062500,-31.75,0.25,54.5,58.397421875,-34.16,0.157566,33.87
2021-06-29 12:31:33.796875000,-31.5,1.5,55.0,58.39640625,-37.03,0.157566,33.87
2021-06-29 12:31:33.804687500,-31.25,2.75,55.5,58.395390625,-39.765,0.157566,33.87
2021-06-29 12:31:33.812500000,-31.0,4.0,56.0,58.394375,-42.5,0.157566,33.87
2021-06-29 12:31:33.820312500,-31.0,3.5,56.0,58.393359374999996,-45.025,0.157566,33.87
2021-06-29 12:31:33.828125000,-31.0,3.0,56.0,58.392343749999995,-47.55,0.157566,33.87
2021-06-29 12:31:33.835937500,-31.0,2.5,56.0,58.391328125,-49.935,0.157566,33.87
2021-06-29 12:31:33.843750000,-31.0,2.0,56.0,58.3903125,-52.32,0.157566,33.87
2021-06-29 12:31:33.851562500,-31.25,2.25,55.75,58.389296875,-54.735,0.157566,33.87
2021-06-29 12:31:33.859375000,-31.5,2.5,55.5,58.38828125,-57.15,0.157566,33.87
2021-06-29 12:31:33.867187500,-31.75,2.75,55.25,58.387265625,-59.864999999999995,0.157566,33.87
2021-06-29 12:31:33.875000000,-32.0,3.0,55.0,58.38625,-62.58,0.157566,33.87
2021-06-29 12:31:33.882812500,-32.0,3.0,55.0,58.385234374999996,-65.83,0.157566,33.87
2021-06-29 12:31:33.890625000,-32.0,3.0,55.0,58.384218749999995,-69.08,0.157566,33.87
2021-06-29 12:31:33.898437500,-32.0,3.0,55.0,58.383203124999994,-73.035,0.157566,33.87
2021-06-29 12:31:33.906250000,-32.0,3.0,55.0,58.3821875,-76.99,0.157566,33.87
2021-06-29 12:31:33.914062500,-31.75,3.0,55.25,58.381171875,-81.65,0.157566,33.87
2021-06-29 12:31:33.921875000,-31.5,3.0,55.5,58.38015625,-86.31,0.157566,33.87
2021-06-29 12:31:33.929687500,-31.25,3.0,55.75,58.379140625,-91.445,0.157566,33.87
2021-06-29 12:31:33.937500000,-31.0,3.0,56.0,58.378125,-96.58,0.157566,33.87
2021-06-29 12:31:33.945312500,-31.0,3.0,56.0,58.377109374999996,-101.71000000000001,0.157566,33.87
2021-06-29 12:31:33.953125000,-31.0,3.0,56.0,58.376093749999995,-106.84,0.157566,33.87
2021-06-29 12:31:33.960937500,-31.0,3.0,56.0,58.375078124999995,-111.23,0.157566,33.87
2021-06-29 12:31:33.968750000,-31.0,3.0,56.0,58.3740625,-115.62,0.157566,33.87
2021-06-29 12:31:33.976562500,-31.25,3.0,55.75,58.373046875,-118.44,0.157566,33.87
2021-06-29 12:31:33.984375000,-31.5,3.0,55.5,58.37203125,-121.26,0.157566,33.87
2021-06-29 12:31:33.992187500,-31.75,3.0,55.25,58.371015625,-121.80000000000001,0.157566,33.87
2021-06-29 12:31:34.000000000,-32.0,3.0,55.0,58.37,-122.34,0.157566,33.87
2021-06-29 12:31:34.007812500,-31.75,3.0,55.25,58.368906249999995,-120.245,0.15752596875000002,33.8690625
2021-06-29 12:31:34.015625000,-31.5,3.0,55.5,58.3678125,-118.15,0.1574859375,33.868125
2021-06-29 12:31:34.023437500,-31.25,3.0,55.75,58.36671875,-113.59,0.15744590625000002,33.8671875
2021-06-29 12:31:34.031250000,-31.0,3.0,56.0,58.365624999999994,-109.03,0.157405875,33.86625
2021-06-29 12:31:34.039062500,-31.25,3.0,56.0,58.36453125,-102.63499999999999,0.15736584375,33.8653125
2021-06-29 12:31:34.046875000,-31.5,3.0,56.0,58.363437499999996,-96.24,0.15732581250000002,33.864374999999995
2021-06-29 12:31:34.054687500,-31.75,3.0,56.0,58.36234375,-88.935,0.15728578125,33.863437499999996
2021-06-29 12:31:34.062500000,-32.0,3.0,56.0,58.36125,-81.63,0.15724575000000002,33.8625
2021-06-29 12:31:34.070312500,-32.0,3.0,56.0,58.360156249999996,-74.28999999999999,0.15720571875,33.8615625
2021-06-29 12:31:34.078125000,-32.0,3.0,56.0,58.3590625,-66.95,0.1571656875,33.860625
2021-06-29 12:31:34.085937500,-32.0,3.0,56.0,58.35796875,-60.155,0.15712565625000002,33.8596875
2021-06-29 12:31:34.093750000,-32.0,3.0,56.0,58.356874999999995,-53.36,0.157085625,33.85875
2021-06-29 12:31:34.101562500,-32.0,3.0,56.0,58.35578125,-47.335,0.15704559375000002,33.8578125
2021-06-29 12:31:34.109375000,-32.0,3.0,56.0,58.3546875,-41.31,0.1570055625,33.856875
2021-06-29 12:31:34.117187500,-32.0,3.0,56.0,58.353593749999995,-35.965,0.15696553125,33.8559375
2021-06-29 12:31:34.125000000,-32.0,3.0,56.0,58.3525,-30.62,0.1569255,33.855000000000004
2021-06-29 12:31:34.132812500,-32.0,3.0,56.0,58.35140625,-25.735,0.15688546875,33.8540625
2021-06-29 12:31:34.140625000,-32.0,3.0,56.0,58.350312499999994,-20.85,0.15684543750000002,33.853125
