TimeStamp,empatica.acc.x,empatica.acc.y,empatica.acc.z,empatica.hr,empatica.bvp,empatica.eda,empatica.temp
2021-06-21 17:05:16.773437500,-38.0,-9.0,51.0,63.44171875,-60.504999999999995,10.5463424375,33.57
2021-06-21 17:05:16.781250000,-38.0,-9.0,51.0,63.440625,-63.26,10.54498125,33.57
2021-06-21 17:05:16.789062500,-38.0,-9.0,51.0,63.439531249999995,-66.4,10.5436200625,33.57
2021-06-21 17:05:16.796875000,-38.0,-9.0,51.0,63.4384375,-69.54,10.542258875,33.57
2021-06-21 17:05:16.804687500,-38.0,-9.0,51.0,63.43734375,-73.33500000000001,10.5408976875,33.57
2021-06-21 17:05:16.812500000,-38.0,-9.0,51.0,63.436249999999994,-77.13,10.5395365,33.57
2021-06-21 17:05:16.820312500,-38.0,-9.0,51.0,63.43515625,-81.66,10.5381753125,33.57
2021-06-21 17:05:16.828125000,-38.0,-9.0,51.0,63.434062499999996,-86.19,10.536814125,33.57
2021-06-21 17:05:16.835937500,-38.0,-9.0,51.0,63.43296874999999,-91.3,10.5354529375,33.57
2021-06-21 17:05:16.843750000,-38.0,-9.0,51.0,63.431875,-96.41,10.53409175,33.57
2021-06-21 17:05:16.851562500,-38.0,-8.75,51.0,63.430781249999995,-101.725,10.5327305625,33.57
2021-06-21 17:05:16.859375000,-38.0,-8.5,51.0,63.4296875,-107.04,10.531369375,33.57
2021-06-21 17:05:16.867187500,-38.0,-8.25,51.0,63.42859375,-111.97,10.5300081875,33.57
2021-06-21 17:05:16.875000000,-38.0,-8.0,51.0,63.427499999999995,-116.9,10.528647,33.57
2021-06-21 17:05:16.882812500,-38.0,-8.25,51.0,63.42640625,-120.70500000000001,10.5272858125,33.57
2021-06-21 17:05:16.890625000,-38.0,-8.5,51.0,63.4253125,-124.51,10.525924625,33.57
2021-06-21 17:05:16.898437500,-38.0,-8.75,51.0,63.424218749999994,-126.33000000000001,10.524563437500001,33.57
2021-06-21 17:05:16.906250000,-38.0,-9.0,51.0,63.423125,-128.15,10.52320225,33.57
2021-06-21 17:05:16.914062500,-38.0,-9.0,51.0,63.422031249999996,-127.18,10.5218410625,33.57
2021-06-21 17:05:16.921875000,-38.0,-9.0,51.0,63.420937499999994,-126.21,10.520479875000001,33.57
2021-06-21 17:05:16.929687500,-38.0,-9.0,51.0,63.41984375,-121.925,10.5191186875,33.57
2021-06-21 17:05:16.937500000,-38.0,-9.0,51.0,63.418749999999996,-117.64,10.5177575,33.57
2021-06-21 17:05:16.945312500,-38.0,-9.0,51.0,63.41765624999999,-109.965,10.516396312500001,33.57
2021-06-21 17:05:16.953125000,-38.0,-9.0,51.0,63.4165625,-102.29,10.515035125,33.57
2021-06-21 17:05:16.960937500,-38.0,-9.0,51.0,63.415468749999995,-91.70500000000001,10.5136739375,33.57
2021-06-21 17:05:16.968750000,-38.0,-9.0,51.0,63.414375,-81.12,10.512312750000001,33.57
2021-06-21 17:05:16.976562500,-38.0,-9.0,51.0,63.41328125,-68.52000000000001,10.5109515625,33.57
2021-06-21 17:05:16.984375000,-38.0,-9.0,51.0,63.412187499999995,-55.92,10.509590375,33.57
2021-06-21 17:05:16.992187500,-38.0,-9.0,51.0,63.41109375,-42.415,10.508229187500001,33.57
2021-06-21 17:05:17.000000000,-38.0,-9.0,51.0,63.41,-28.91,10.506868,33.57
2021-06-21 17:05:17.007812500,-38.0,-8.75,51.0,63.4090625,-15.545,10.505707000000001,33.569375
2021-06-21 17:05:17.015625000,-38.0,-8.5,51.0,63.408125,-2.18,10.504546000000001,33.56875
2021-06-21 17:05:17.023437500,-38.0,-8.25,51.0,63.4071875,10.22,10.503385000000002,33.568125
2021-06-21 17:05:17.031250000,-38.0,-8.0,51.0,63.40625,22.62,10.502224,33.5675
2021-06-21 17:05:17.039062500,-38.0,-8.0,51.0,63.405312499999994,33.47,10.501063,33.566875
2021-06-21 17:05:17.046875000,-38.0,-8.0,51.0,63.404374999999995,44.32,10.499902,33.56625
2021-06-21 17:05:17.054687500,-38.0,-8.0,51.0,63.403437499999995,53.215,10.498741,33.565625
2021-06-21 17:05:17.062500000,-38.0,-8.0,51.0,63.402499999999996,62.11,10.497580000000001,33.565
2021-06-21 17:05:17.070312500,-38.0,-8.0,51.0,63.4015625,68.745,10.496419000000001,33.564375
2021-06-21 17:05:17.078125000,-38.0,-8.0,51.0,63.400625,75.38,10.495258,33.56375
2021-06-21 17:05:17.085937500,-38.0,-8.0,51.0,63.3996875,79.58,10.494097,33.563125
2021-06-21 17:05:17.093750000,-38.0,-8.0,51.0,63.39875,83.78,10.492936,33.5625
2021-06-21 17:05:17.101562500,-38.0,-8.0,51.0,63.39781249999999,85.59,10.491775,33.561875
2021-06-21 17:05:17.109375000,-38.0,-8.0,51.0,63.396874999999994,87.4,10.490614,33.56125
2021-06-21 17:05:17.117187500,-38.0,-8.0,51.0,63.395937499999995,87.15,10.489453000000001,33.560625
2021-06-21 17:05:17.125000000,-38.0,-8.0,51.0,63.394999999999996,86.9,10.488292000000001,33.56
2021-06-21 17:05:17.132812500,-38.0,-8.0,51.0,63.3940625,85.215,10.487131,33.559374999999996
2021-06-21 17:05:17.140625000,-38.0,-8.0,51.0,63.393125,83.53,10.48597,33.558749999999996
2021-06-21 17:05:17.148437500,-38.0,-8.0,51.0,63.3921875,81.19,10.484809,33.558125
2021-06-21 17:05:17.156250000,-38.0,-8.0,51.0,63.39125,78.85,10.483648,33.5575
2021-06-21 17:05:17.164062500,-38.0,-8.25,51.0,63.3903125,76.57,10.482487,33.556875
2021-06-21 17:05:17.171875000,-38.0,-8.5,51.0,63.389374999999994,74.29,10.481326000000001,33.55625
2021-06-21 17:05:17.179687500,-38.0,-8.75,51.0,63.388437499999995,72.565,10.480165,33.555625
2021-06-21 17:05:17.187500000,-38.0,-9.0,51.0,63.387499999999996,70.84,10.479004,33.555
2021-06-21 17:05:17.195312500,-38.0,-9.0,51.0,63.3865625,69.83,10.477843,33.554375
2021-06-21 17:05:17.203125000,-38.0,-9.0,51.0,63.385625,68.82,10.476682,33.55375
2021-06-21 17:05:17.210937500,-38.0,-9.0,51.0,63.3846875,68.46,10.475521,33.553124999999994
2021-06-21 17:05:17.218750000,-38.0,-9.0,51.0,63.38375,68.1,10.47436,33.552499999999995
2021-06-21 17:05:17.226562500,-38.0,-9.0,51.0,63.3828125,68.215,10.473199,33.551874999999995
2021-06-21 17:05:17.234375000,-38.0,-9.0,51.0,63.381874999999994,68.33,10.472038,33.551249999999996
2021-06-21 17:05:17.242187500,-38.0,-9.0,51.0,63.380937499999995,68.77,10.470877,33.550625
2021-06-21 17:05:17.250000000,-38.0,-9.0,51.0,63.379999999999995,69.21,10.469716,33.55
2021-06-21 17:05:17.257812500,-38.0,-8.75,51.0,63.379062499999996,69.88999999999999,10.46831478125,33.55
2021-06-21 17:05:17.265625000,-38.0,-8.5,51.0,63.378125,70.57,10.4669135625,33.55
2021-06-21 17:05:17.273437500,-38.0,-8.25,51.0,63.3771875,71.46,10.46551234375,33.55
2021-06-21 17:05:17.281250000,-38.0,-8.0,51.0,63.37625,72.35,10.464111125,33.55
2021-06-21 17:05:17.289062500,-38.0,-8.0,51.0,63.3753125,73.37,10.46270990625,33.55
2021-06-21 17:05:17.296875000,-38.0,-8.0,51.0,63.374375,74.39,10.4613086875,33.55
2021-06-21 17:05:17.304687500,-38.0,-8.0,51.0,63.373437499999994,75.41499999999999,10.45990746875,33.55
2021-06-21 17:05:17.312500000,-38.0,-8.0,51.0,63.372499999999995,76.44,10.45850625,33.55
2021-06-21 17:05:17.320312500,-38.0,-8.0,51.0,63.371562499999996,77.285,10.45710503125,33.55
2021-06-21 17:05:17.328125000,-38.0,-8.0,51.0,63.370625,78.13,10.4557038125,33.55
2021-06-21 17:05:17.335937500,-38.0,-8.0,51.0,63.3696875,78.62,10.45430259375,33.55
2021-06-21 17:05:17.343750000,-38.0,-8.0,51.0,63.36875,79.11,10.452901375,33.55
2021-06-21 17:05:17.351562500,-38.0,-8.0,51.0,63.3678125,79.11500000000001,10.45150015625,33.55
2021-06-21 17:05:17.359375000,-38.0,-8.0,51.0,63.366875,79.12,10.4500989375,33.55
2021-06-21 17:05:17.367187500,-38.0,-8.0,51.0,63.365937499999994,78.59,10.448697718750001,33.55
2021-06-21 17:05:17.375000000,-38.0,-8.0,51.0,63.364999999999995,78.06,10.4472965,33.55
2021-06-21 17:05:17.382812500,-38.0,-8.0,51.0,63.364062499999996,76.95,10.44589528125,33.55
2021-06-21 17:05:17.390625000,-38.0,-8.0,51.0,63.363125,75.84,10.4444940625,33.55
2021-06-21 17:05:17.398437500,-38.0,-8.0,51.0,63.3621875,74.16,10.44309284375,33.55
2021-06-21 17:05:17.406250000,-38.0,-8.0,51.0,63.36125,72.48,10.441691625,33.55
2021-06-21 17:05:17.414062500,-38.0,-8.25,51.0,63.3603125,70.26,10.44029040625,33.55
2021-06-21 17:05:17.421875000,-38.0,-8.5,51.0,63.359375,68.04,10.438889187500001,33.55
2021-06-21 17:05:17.429687500,-38.0,-8.75,51.0,63.3584375,65.36500000000001,10.43748796875,33.55
2021-06-21 17:05:17.437500000,-38.0,-9.0,51.0,63.357499999999995,62.69,10.436086750000001,33.55
2021-06-21 17:05:17.445312500,-38.0,-8.75,51.0,63.356562499999995,59.739999999999995,10.43468553125,33.55
2021-06-21 17:05:17.453125000,-38.0,-8.5,51.0,63.355624999999996,56.79,10.4332843125,33.55
2021-06-21 17:05:17.460937500,-38.0,-8.25,51.0,63.3546875,53.785,10.43188309375,33.55
2021-06-21 17:05:17.468750000,-38.0,-8.0,51.0,63.35375,50.78,10.430481875,33.55
2021-06-21 17:05:17.476562500,-38.0,-8.25,51.0,63.3528125,47.94,10.429080656250001,33.55
2021-06-21 17:05:17.484375000,-38.0,-8.5,51.0,63.351875,45.1,10.4276794375,33.55
2021-06-21 17:05:17.492187500,-38.0,-8.75,51.0,63.3509375,42.525000000000006,10.426278218750001,33.55
2021-06-21 17:05:17.500000000,-38.0,-9.0,51.0,63.349999999999994,39.95,10.424877,33.55
2021-06-21 17:05:17.507812500,-38.0,-8.75,51.0,63.349062499999995,37.63,10.424196437500001,33.55
2021-06-21 17:05:17.515625000,-38.0,-8.5,51.0,63.348124999999996,35.31,10.423515875,33.55
2021-06-21 17:05:17.523437500,-38.0,-8.25,51.0,63.3471875,33.09,10.4228353125,33.55
2021-06-21 17:05:17.531250000,-38.0,-8.0,51.0,63.34625,30.87,10.42215475,33.55
2021-06-21 17:05:17.539062500,-38.0,-8.25,51.0,63.3453125,28.565,10.4214741875,33.55
2021-06-21 17:05:17.546875000,-38.0,-8.5,51.0,63.344375,26.26,10.420793625,33.55
2021-06-21 17:05:17.554687500,-38.0,-8.75,51.0,63.3434375,23.735,10.4201130625,33.55
2021-06-21 17:05:17.562500000,-38.0,-9.0,51.0,63.3425,21.21,10.4194325,33.55
2021-06-21 17:05:17.570312500,-38.0,-8.75,51.0,63.341562499999995,18.45,10.4187519375,33.55
2021-06-21 17:05:17.578125000,-38.0,-8.5,51.0,63.340624999999996,15.69,10.418071375,33.55
2021-06-21 17:05:17.585937500,-38.0,-8.25,51.0,63.3396875,12.785,10.4173908125,33.55
2021-06-21 17:05:17.593750000,-38.0,-8.0,51.0,63.33875,9.88,10.41671025,33.55
2021-06-21 17:05:17.601562500,-38.0,-8.0,51.0,63.3378125,7.005000000000001,10.4160296875,33.55
2021-06-21 17:05:17.609375000,-38.0,-8.0,51.0,63.336875,4.13,10.415349125,33.55
2021-06-21 17:05:17.617187500,-38.0,-8.0,51.0,63.3359375,1.4500000000000002,10.4146685625,33.55
2021-06-21 17:05:17.625000000,-38.0,-8.0,51.0,63.335,-1.23,10.413988,33.55
2021-06-21 17:05:17.632812500,-38.0,-8.0,51.0,63.3340625,-3.6249999999999996,10.4133074375,33.55
2021-06-21 17:05:17.640625000,-38.0,-8.0,51.0,63.333124999999995,-6.02,10.412626874999999,33.55
2021-06-21 17:05:17.648437500,-38.0,-8.0,51.0,63.332187499999996,-8.155,10.4119463125,33.55
2021-06-21 17:05:17.656250000,-38.0,-8.0,51.0,63.33125,-10.29,10.41126575,33.55
2021-06-21 17:05:17.664062500,-38.0,-8.0,51.0,63.3303125,-12.295,10.410585187499999,33.55
2021-06-21 17:05:17.671875000,-38.0,-8.0,51.0,63.329375,-14.3,10.409904625,33.55
2021-06-21 17:05:17.679687500,-38.0,-8.0,51.0,63.3284375,-16.365000000000002,10.4092240625,33.55
2021-06-21 17:05:17.687500000,-38.0,-8.0,51.0,63.3275,-18.43,10.4085435,33.55
2021-06-21 17:05:17.695312500,-38.0,-8.0,51.0,63.3265625,-20.744999999999997,10.4078629375,33.55
2021-06-21 17:05:17.703125000,-38.0,-8.0,51.0,63.325624999999995,-23.06,10.407182375,33.55
2021-06-21 17:05:17.710937500,-38.0,-8.0,51.0,63.324687499999996,-25.75,10.4065018125,33.55
2021-06-21 17:05:17.718750000,-38.0,-8.0,51.0,63.32375,-28.44,10.405821249999999,33.55
2021-06-21 17:05:17.726562500,-38.0,-8.0,51.0,63.3228125,-31.509999999999998,10.4051406875,33.55
2021-06-21 17:05:17.734375000,-38.0,-8.0,51.0,63.321875,-34.58,10.404460125,33.55
2021-06-21 17:05:17.742187500,-38.0,-8.0,51.0,63.3209375,-37.94,10.403779562499999,33.55
2021-06-21 17:05:17.750000000,-38.0,-8.0,51.0,63.32,-41.3,10.403099,33.55
2021-06-21 17:05:17.757812500,-38.0,-8.0,51.25,63.3190625,-44.82,10.40245846875,33.55
2021-06-21 17:05:17.765625000,-38.0,-8.0,51.5,63.318125,-48.34,10.401817937499999,33.55
2021-06-21 17:05:17.773437500,-38.0,-8.0,51.75,63.317187499999996,-51.865,10.40117740625,33.55
2021-06-21 17:05:17.781250000,-38.0,-8.0,52.0,63.31625,-55.39,10.400536875,33.55
2021-06-21 17:05:17.789062500,-38.0,-8.0,51.75,63.3153125,-58.84,10.39989634375,33.55
2021-06-21 17:05:17.796875000,-38.0,-8.0,51.5,63.314375,-62.29,10.3992558125,33.55
2021-06-21 17:05:17.804687500,-38.0,-8.0,51.25,63.3134375,-65.615,10.398615281249999,33.55
2021-06-21 17:05:17.812500000,-38.0,-8.0,51.0,63.3125,-68.94,10.39797475,33.55
2021-06-21 17:05:17.820312500,-38.0,-8.0,51.0,63.3115625,-72.195,10.39733421875,33.55
2021-06-21 17:05:17.828125000,-38.0,-8.0,51.0,63.310625,-75.45,10.3966936875,33.55
2021-06-21 17:05:17.835937500,-38.0,-8.0,51.0,63.309687499999995,-78.75,10.39605315625,33.55
2021-06-21 17:05:17.843750000,-38.0,-8.0,51.0,63.308749999999996,-82.05,10.395412624999999,33.55
2021-06-21 17:05:17.851562500,-38.0,-8.0,51.0,63.3078125,-85.6,10.39477209375,33.55
2021-06-21 17:05:17.859375000,-38.0,-8.0,51.0,63.306875,-89.15,10.3941315625,33.55
2021-06-21 17:05:17.867187500,-38.0,-8.0,51.0,63.3059375,-93.16,10.393491031249999,33.55
2021-06-21 17:05:17.875000000,-38.0,-8.0,51.0,63.305,-97.17,10.3928505,33.55
2021-06-21 17:05:17.882812500,-38.0,-8.0,51.0,63.3040625,-101.695,10.39220996875,33.55
2021-06-21 17:05:17.890625000,-38.0,-8.0,51.0,63.303125,-106.22,10.3915694375,33.55
2021-06-21 17:05:17.898437500,-38.0,-8.0,51.0,63.3021875,-110.97,10.39092890625,33.55
2021-06-21 17:05:17.906250000,-38.0,-8.0,51.0,63.301249999999996,-115.72,10.390288375,33.55
2021-06-21 17:05:17.914062500,-38.0,-8.0,51.0,63.3003125,-119.945,10.38964784375,33.55
2021-06-21 17:05:17.921875000,-38.0,-8.0,51.0,63.299375,-124.17,10.3890073125,33.55
2021-06-21 17:05:17.929687500,-38.0,-8.0,51.0,63.2984375,-126.75,10.38836678125,33.55
2021-06-21 17:05:17.937500000,-38.0,-8.0,51.0,63.2975,-129.33,10.38772625,33.55
2021-06-21 17:05:17.945312500,-38.0,-8.0,51.0,63.2965625,-129.05,10.38708571875,33.55
2021-06-21 17:05:17.953125000,-38.0,-8.0,51.0,63.295625,-128.77,10.3864451875,33.55
2021-06-21 17:05:17.960937500,-38.0,-8.0,51.0,63.2946875,-124.775,10.38580465625,33.55
2021-06-21 17:05:17.968750000,-38.0,-8.0,51.0,63.293749999999996,-120.78,10.385164125,33.55
2021-06-21 17:05:17.976562500,-38.0,-8.0,51.0,63.2928125,-112.91,10.38452359375,33.55
2021-06-21 17:05:17.984375000,-38.0,-8.0,51.0,63.291875,-105.04,10.3838830625,33.55
2021-06-21 17:05:17.992187500,-38.0,-8.0,51.0,63.2909375,-93.99000000000001,10.38324253125,33.55
2021-06-21 17:05:18.000000000,-38.0,-8.0,51.0,63.29,-82.94,10.382602,33.55
2021-06-21 17:05:18.007812500,-38.0,-8.0,51.0,63.289218749999996,-70.03,10.38228171875,33.550625
2021-06-21 17:05:18.015625000,-38.0,-8.0,51.0,63.2884375,-57.12,10.381961437500001,33.551249999999996
2021-06-21 17:05:18.023437500,-38.0,-8.0,51.0,63.28765625,-43.87,10.38164115625,33.551874999999995
2021-06-21 17:05:18.031250000,-38.0,-8.0,51.0,63.286875,-30.62,10.381320875,33.552499999999995
2021-06-21 17:05:18.039062500,-38.0,-8.0,51.0,63.28609375,-18.32,10.38100059375,33.553124999999994
2021-06-21 17:05:18.046875000,-38.0,-8.0,51.0,63.285312499999996,-6.02,10.380680312500001,33.55375
2021-06-21 17:05:18.054687500,-38.0,-8.0,51.0,63.28453125,4.550000000000001,10.38036003125,33.554375
2021-06-21 17:05:18.062500000,-38.0,-8.0,51.0,63.28375,15.12,10.38003975,33.555
2021-06-21 17:05:18.070312500,-38.0,-8.0,51.0,63.28296875,23.715000000000003,10.37971946875,33.555625
2021-06-21 17:05:18.078125000,-38.0,-8.0,51.0,63.2821875,32.31,10.3793991875,33.55625
2021-06-21 17:05:18.085937500,-38.0,-8.0,51.0,63.281406249999996,38.99,10.379078906250001,33.556875
2021-06-21 17:05:18.093750000,-38.0,-8.0,51.0,63.280625,45.67,10.378758625,33.5575
2021-06-21 17:05:18.101562500,-38.0,-8.0,51.0,63.27984375,50.585,10.37843834375,33.558125
2021-06-21 17:05:18.109375000,-38.0,-8.0,51.0,63.2790625,55.5,10.3781180625,33.558749999999996
2021-06-21 17:05:18.117187500,-38.0,-8.0,51.0,63.27828125,58.745000000000005,10.37779778125,33.559374999999996
2021-06-21 17:05:18.125000000,-38.0,-8.0,51.0,63.277499999999996,61.99,10.377477500000001,33.56
2021-06-21 17:05:18.132812500,-38.0,-8.0,51.0,63.27671875,63.605000000000004,10.37715721875,33.560625
2021-06-21 17:05:18.140625000,-38.0,-8.0,51.0,63.2759375,65.22,10.3768369375,33.56125
2021-06-21 17:05:18.148437500,-38.0,-8.0,51.0,63.27515625,65.295,10.37651665625,33.561875
2021-06-21 17:05:18.156250000,-38.0,-8.0,51.0,63.274375,65.37,10.376196375000001,33.5625
2021-06-21 17:05:18.164062500,-38.0,-8.0,51.0,63.273593749999996,64.17,10.37587609375,33.563125
2021-06-21 17:05:18.171875000,-38.0,-8.0,51.0,63.2728125,62.97,10.3755558125,33.56375
2021-06-21 17:05:18.179687500,-38.0,-8.0,51.0,63.27203125,60.965,10.37523553125,33.564375
2021-06-21 17:05:18.187500000,-38.0,-8.0,51.0,63.27125,58.96,10.37491525,33.565
2021-06-21 17:05:18.195312500,-38.0,-8.0,51.0,63.27046875,56.75,10.374594968750001,33.565625
2021-06-21 17:05:18.203125000,-38.0,-8.0,51.0,63.269687499999996,54.54,10.3742746875,33.56625
2021-06-21 17:05:18.210937500,-38.0,-8.0,51.0,63.26890625,52.72,10.37395440625,33.566875
2021-06-21 17:05:18.218750000,-38.0,-8.0,51.0,63.268125,50.9,10.373634125,33.5675
2021-06-21 17:05:18.226562500,-38.0,-8.0,51.0,63.26734375,49.894999999999996,10.373313843750001,33.568125
2021-06-21 17:05:18.234375000,-38.0,-8.0,51.0,63.2665625,48.89,10.3729935625,33.56875
2021-06-21 17:05:18.242187500,-38.0,-8.0,51.0,63.265781249999996,48.885000000000005,10.37267328125,33.569375
2021-06-21 17:05:18.250000000,-38.0,-8.0,51.0,63.265,48.88,10.372353,33.57
2021-06-21 17:05:18.257812500,-38.0,-8.0,51.0,63.26421875,49.81,10.371352125,33.57
2021-06-21 17:05:18.265625000,-38.0,-8.0,51.0,63.2634375,50.74,10.37035125,33.57
2021-06-21 17:05:18.273437500,-38.0,-8.0,51.0,63.26265625,52.375,10.369350375,33.57
2021-06-21 17:05:18.281250000,-38.0,-8.0,51.0,63.261874999999996,54.01,10.3683495,33.57
2021-06-21 17:05:18.289062500,-38.0,-8.0,51.0,63.26109375,56.025,10.367348625,33.57
2021-06-21 17:05:18.296875000,-38.0,-8.0,51.0,63.2603125,58.04,10.366347750000001,33.57
2021-06-21 17:05:18.304687500,-38.0,-8.0,51.0,63.25953125,60.095,10.365346875,33.57
2021-06-21 17:05:18.312500000,-38.0,-8.0,51.0,63.25875,62.15,10.364346000000001,33.57
2021-06-21 17:05:18.320312500,-38.0,-8.0,51.0,63.257968749999996,63.97,10.363345125,33.57
2021-06-21 17:05:18.328125000,-38.0,-8.0,51.0,63.2571875,65.79,10.36234425,33.57
2021-06-21 17:05:18.335937500,-38.0,-8.0,51.0,63.25640625,67.17500000000001,10.361343375,33.57
2021-06-21 17:05:18.343750000,-38.0,-8.0,51.0,63.255625,68.56,10.3603425,33.57
2021-06-21 17:05:18.351562500,-38.0,-8.0,51.0,63.25484375,69.38,10.359341625,33.57
2021-06-21 17:05:18.359375000,-38.0,-8.0,51.0,63.254062499999996,70.2,10.35834075,33.57
2021-06-21 17:05:18.367187500,-38.0,-8.0,51.0,63.25328125,70.41,10.357339875000001,33.57
2021-06-21 17:05:18.375000000,-38.0,-8.0,51.0,63.2525,70.62,10.356339,33.57
2021-06-21 17:05:18.382812500,-38.0,-8.0,51.0,63.25171875,70.21000000000001,10.355338125,33.57
2021-06-21 17:05:18.390625000,-38.0,-8.0,51.0,63.2509375,69.8,10.35433725,33.57
2021-06-21 17:05:18.398437500,-38.0,-8.0,51.0,63.250156249999996,68.795,10.353336375,33.57
2021-06-21 17:05:18.406250000,-38.0,-8.0,51.0,63.249375,67.79,10.3523355,33.57
2021-06-21 17:05:18.414062500,-38.0,-8.0,51.0,63.24859375,66.22,10.351334625,33.57
2021-06-21 17:05:18.421875000,-38.0,-8.0,51.0,63.2478125,64.65,10.35033375,33.57
2021-06-21 17:05:18.429687500,-38.0,-8.0,51.0,63.24703125,62.57000000000001,10.349332875,33.57
2021-06-21 17:05:18.437500000,-38.0,-8.0,51.0,63.246249999999996,60.49,10.348332,33.57
2021-06-21 17:05:18.445312500,-38.0,-8.0,51.0,63.24546875,58.035,10.347331125,33.57
2021-06-21 17:05:18.453125000,-38.0,-8.0,51.0,63.2446875,55.58,10.34633025,33.57
2021-06-21 17:05:18.460937500,-38.0,-8.0,51.0,63.24390625,52.935,10.345329375,33.57
2021-06-21 17:05:18.468750000,-38.0,-8.0,51.0,63.243125,50.29,10.3443285,33.57
2021-06-21 17:05:18.476562500,-38.0,-8.0,51.0,63.242343749999996,47.675,10.343327625,33.57
2021-06-21 17:05:18.484375000,-38.0,-8.0,51.0,63.2415625,45.06,10.34232675,33.57
2021-06-21 17:05:18.492187500,-38.0,-8.0,51.0,63.24078125,42.635000000000005,10.341325875,33.57
2021-06-21 17:05:18.500000000,-38.0,-8.0,51.0,63.239999999999995,40.21,10.340325,33.57
2021-06-21 17:05:18.507812500,-38.0,-8.0,51.0,63.23921875,38.015,10.34064528125,33.57
2021-06-21 17:05:18.515625000,-38.0,-8.0,51.0,63.238437499999996,35.82,10.3409655625,33.57
2021-06-21 17:05:18.523437500,-38.0,-8.0,51.0,63.23765625,33.75,10.34128584375,33.57
2021-06-21 17:05:18.531250000,-38.0,-8.0,51.0,63.236875,31.68,10.341606125,33.57
2021-06-21 17:05:18.539062500,-38.0,-8.0,51.0,63.236093749999995,29.535,10.34192640625,33.57
2021-06-21 17:05:18.546875000,-38.0,-8.0,51.0,63.2353125,27.39,10.3422466875,33.57
2021-06-21 17:05:18.554687500,-38.0,-8.0,51.0,63.234531249999996,24.985,10.34256696875,33.57
2021-06-21 17:05:18.562500000,-38.0,-8.0,51.0,63.23375,22.58,10.34288725,33.57
2021-06-21 17:05:18.570312500,-38.0,-8.25,51.0,63.23296875,19.854999999999997,10.34320753125,33.57
2021-06-21 17:05:18.578125000,-38.0,-8.5,51.0,63.232187499999995,17.13,10.3435278125,33.57
2021-06-21 17:05:18.585937500,-38.0,-8.75,51.0,63.23140625,14.2,10.34384809375,33.57
2021-06-21 17:05:18.593750000,-38.0,-9.0,51.0,63.230624999999996,11.27,10.344168375,33.57
2021-06-21 17:05:18.601562500,-38.0,-8.75,51.0,63.22984375,8.335,10.34448865625,33.57
2021-06-21 17:05:18.609375000,-38.0,-8.5,51.0,63.2290625,5.4,10.3448089375,33.57
2021-06-21 17:05:18.617187500,-38.0,-8.25,51.0,63.228281249999995,2.6900000000000004,10.34512921875,33.57
2021-06-21 17:05:18.625000000,-38.0,-8.0,51.0,63.2275,-0.02,10.3454495,33.57
2021-06-21 17:05:18.632812500,-38.0,-8.0,51.0,63.226718749999996,-2.3400000000000003,10.34576978125,33.57
2021-06-21 17:05:18.640625000,-38.0,-8.0,51.0,63.2259375,-4.66,10.3460900625,33.57
2021-06-21 17:05:18.648437500,-38.0,-8.0,51.0,63.22515625,-6.565,10.34641034375,33.57
2021-06-21 17:05:18.656250000,-38.0,-8.0,51.0,63.224374999999995,-8.47,10.346730625,33.57
2021-06-21 17:05:18.664062500,-38.0,-8.0,51.0,63.22359375,-10.025,10.34705090625,33.57
2021-06-21 17:05:18.671875000,-38.0,-8.0,51.0,63.222812499999996,-11.58,10.3473711875,33.57
2021-06-21 17:05:18.679687500,-38.0,-8.0,51.0,63.22203125,-12.95,10.34769146875,33.57
2021-06-21 17:05:18.687500000,-38.0,-8.0,51.0,63.22125,-14.32,10.34801175,33.57
2021-06-21 17:05:18.695312500,-38.0,-8.0,51.0,63.220468749999995,-15.69,10.34833203125,33.57
2021-06-21 17:05:18.703125000,-38.0,-8.0,51.0,63.2196875,-17.06,10.3486523125,33.57
2021-06-21 17:05:18.710937500,-38.0,-8.0,51.0,63.218906249999996,-18.665,10.34897259375,33.57
2021-06-21 17:05:18.718750000,-38.0,-8.0,51.0,63.218125,-20.27,10.349292875,33.57
2021-06-21 17:05:18.726562500,-38.0,-8.0,51.0,63.21734375,-22.325,10.34961315625,33.57
2021-06-21 17:05:18.734375000,-38.0,-8.0,51.0,63.216562499999995,-24.38,10.3499334375,33.57
2021-06-21 17:05:18.742187500,-38.0,-8.0,51.0,63.21578125,-27.035,10.35025371875,33.57
2021-06-21 17:05:18.750000000,-38.0,-8.0,51.0,63.214999999999996,-29.69,10.350574,33.57
2021-06-21 17:05:18.757812500,-38.0,-8.0,51.0,63.21421875,-32.965,10.34961315625,33.57
2021-06-21 17:05:18.765625000,-38.0,-8.0,51.0,63.2134375,-36.24,10.3486523125,33.57
2021-06-21 17:05:18.773437500,-38.0,-8.0,51.0,63.212656249999995,-39.99,10.34769146875,33.57
2021-06-21 17:05:18.781250000,-38.0,-8.0,51.0,63.211875,-43.74,10.346730625,33.57
2021-06-21 17:05:18.789062500,-38.0,-8.0,51.0,63.211093749999996,-47.644999999999996,10.34576978125,33.57
2021-06-21 17:05:18.796875000,-38.0,-8.0,51.0,63.2103125,-51.55,10.3448089375,33.57
2021-06-21 17:05:18.804687500,-38.0,-8.0,51.0,63.20953125,-55.22,10.34384809375,33.57
2021-06-21 17:05:18.812500000,-38.0,-8.0,51.0,63.208749999999995,-58.89,10.34288725,33.57
2021-06-21 17:05:18.820312500,-38.0,-8.0,51.0,63.20796875,-61.99,10.34192640625,33.57
2021-06-21 17:05:18.828125000,-38.0,-8.0,51.0,63.207187499999996,-65.09,10.3409655625,33.57
2021-06-21 17:05:18.835937500,-38.0,-8.0,51.0,63.20640625,-67.515,10.34000471875,33.57
2021-06-21 17:05:18.843750000,-38.0,-8.0,51.0,63.205625,-69.94,10.339043875,33.57
2021-06-21 17:05:18.851562500,-38.25,-8.0,51.0,63.204843749999995,-71.85,10.33808303125,33.57
2021-06-21 17:05:18.859375000,-38.5,-8.0,51.0,63.2040625,-73.76,10.3371221875,33.57
2021-06-21 17:05:18.867187500,-38.75,-8.0,51.0,63.203281249999996,-75.58500000000001,10.33616134375,33.57
2021-06-21 17:05:18.875000000,-39.0,-8.0,51.0,63.2025,-77.41,10.3352005,33.57
2021-06-21 17:05:18.882812500,-38.75,-8.0,51.0,63.20171875,-79.745,10.33423965625,33.57
2021-06-21 17:05:18.890625000,-38.5,-8.0,51.0,63.200937499999995,-82.08,10.3332788125,33.57
2021-06-21 17:05:18.898437500,-38.25,-8.0,51.0,63.20015625,-85.44,10.33231796875,33.57
2021-06-21 17:05:18.906250000,-38.0,-8.0,51.0,63.199374999999996,-88.8,10.331357125,33.57
2021-06-21 17:05:18.914062500,-38.0,-8.25,51.0,63.19859375,-93.42,10.33039628125,33.57
2021-06-21 17:05:18.921875000,-38.0,-8.5,51.0,63.1978125,-98.04,10.3294354375,33.57
2021-06-21 17:05:18.929687500,-38.0,-8.75,51.0,63.197031249999995,-103.665,10.32847459375,33.57
2021-06-21 17:05:18.937500000,-38.0,-9.0,51.0,63.19625,-109.29,10.32751375,33.57
2021-06-21 17:05:18.945312500,-38.0,-9.0,51.0,63.195468749999996,-115.12,10.32655290625,33.57
2021-06-21 17:05:18.953125000,-38.0,-9.0,51.0,63.1946875,-120.95,10.3255920625,33.57
2021-06-21 17:05:18.960937500,-38.0,-9.0,51.0,63.19390625,-125.73500000000001,10.32463121875,33.57
2021-06-21 17:05:18.968750000,-38.0,-9.0,51.0,63.193124999999995,-130.52,10.323670375,33.57
2021-06-21 17:05:18.976562500,-38.0,-8.75,51.0,63.19234375,-132.865,10.32270953125,33.57
2021-06-21 17:05:18.984375000,-38.0,-8.5,51.0,63.191562499999996,-135.21,10.3217486875,33.57
2021-06-21 17:05:18.992187500,-38.0,-8.25,51.0,63.19078125,-133.92000000000002,10.32078784375,33.57
2021-06-21 17:05:19.000000000,-38.0,-8.0,51.0,63.19,-132.63,10.319827,33.57
2021-06-21 17:05:19.007812500,-38.0,-8.25,51.0,63.189375,-127.13,10.31998715625,33.569375
2021-06-21 17:05:19.015625000,-38.0,-8.5,51.0,63.18875,-121.63,10.3201473125,33.56875
2021-06-21 17:05:19.023437500,-38.0,-8.75,51.0,63.188125,-112.155,10.32030746875,33.568125
2021-06-21 17:05:19.031250000,-38.0,-9.0,51.0,63.1875,-102.68,10.320467625,33.5675
2021-06-21 17:05:19.039062500,-38.0,-9.0,51.0,63.186875,-90.23500000000001,10.32062778125,33.566875
2021-06-21 17:05:19.046875000,-38.0,-9.0,51.0,63.18625,-77.79,10.3207879375,33.56625
2021-06-21 17:05:19.054687500,-38.0,-9.0,51.0,63.185624999999995,-63.865,10.32094809375,33.565625
2021-06-21 17:05:19.062500000,-38.0,-9.0,51.0,63.184999999999995,-49.94,10.32110825,33.565
2021-06-21 17:05:19.070312500,-38.0,-9.0,51.0,63.184374999999996,-36.125,10.32126840625,33.564375
2021-06-21 17:05:19.078125000,-38.0,-9.0,51.0,63.183749999999996,-22.31,10.3214285625,33.56375
2021-06-21 17:05:19.085937500,-38.0,-9.0,51.0,63.183125,-9.899999999999999,10.32158871875,33.563125
2021-06-21 17:05:19.093750000,-38.0,-9.0,51.0,63.1825,2.51,10.321748875,33.5625
2021-06-21 17:05:19.101562500,-38.0,-9.0,51.0,63.181875,12.74,10.32190903125,33.561875
2021-06-21 17:05:19.109375000,-38.0,-9.0,51.0,63.18125,22.97,10.3220691875,33.56125
2021-06-21 17:05:19.117187500,-38.0,-9.0,51.0,63.180625,30.82,10.32222934375,33.560625
2021-06-21 17:05:19.125000000,-38.0,-9.0,51.0,63.18,38.67,10.3223895,33.56
2021-06-21 17:05:19.132812500,-38.0,-9.0,51.0,63.179375,44.335,10.32254965625,33.559374999999996
2021-06-21 17:05:19.140625000,-38.0,-9.0,51.0,63.17875,50.0,10.3227098125,33.558749999999996
2021-06-21 17:05:19.148437500,-38.0,-9.0,51.0,63.178125,53.89,10.32286996875,33.558125
2021-06-21 17:05:19.156250000,-38.0,-9.0,51.0,63.177499999999995,57.78,10.323030124999999,33.5575
2021-06-21 17:05:19.164062500,-38.0,-9.0,51.0,63.176874999999995,60.305,10.32319028125,33.556875
2021-06-21 17:05:19.171875000,-38.0,-9.0,51.0,63.176249999999996,62.83,10.3233504375,33.55625
2021-06-21 17:05:19.179687500,-38.0,-9.0,51.0,63.175625,64.315,10.32351059375,33.555625
2021-06-21 17:05:19.187500000,-38.0,-9.0,51.0,63.175,65.8,10.32367075,33.555
2021-06-21 17:05:19.195312500,-38.0,-9.0,51.0,63.174375,66.50999999999999,10.32383090625,33.554375
2021-06-21 17:05:19.203125000,-38.0,-9.0,51.0,63.17375,67.22,10.3239910625,33.55375
2021-06-21 17:05:19.210937500,-38.0,-9.0,51.0,63.173125,67.38,10.32415121875,33.553124999999994
2021-06-21 17:05:19.218750000,-38.0,-9.0,51.0,63.1725,67.54,10.324311375,33.552499999999995
2021-06-21 17:05:19.226562500,-38.0,-9.0,51.0,63.171875,67.36000000000001,10.32447153125,33.551874999999995
2021-06-21 17:05:19.234375000,-38.0,-9.0,51.0,63.17125,67.18,10.3246316875,33.551249999999996
2021-06-21 17:05:19.242187500,-38.0,-9.0,51.0,63.170625,66.89,10.324791843749999,33.550625
2021-06-21 17:05:19.250000000,-38.0,-9.0,51.0,63.17,66.6,10.324952,33.55
2021-06-21 17:05:19.257812500,-38.0,-9.0,51.0,63.169374999999995,66.33,10.323991187499999,33.55
2021-06-21 17:05:19.265625000,-38.0,-9.0,51.0,63.168749999999996,66.06,10.323030375,33.55
2021-06-21 17:05:19.273437500,-38.0,-9.0,51.0,63.168124999999996,65.905,10.3220695625,33.55
2021-06-21 17:05:19.281250000,-38.0,-9.0,51.0,63.1675,65.75,10.32110875,33.55
2021-06-21 17:05:19.289062500,-38.0,-9.0,51.0,63.166875,65.72,10.3201479375,33.55
2021-06-21 17:05:19.296875000,-38.0,-9.0,51.0,63.16625,65.69,10.319187125,33.55
2021-06-21 17:05:19.304687500,-38.0,-9.0,51.0,63.165625,65.81,10.3182263125,33.55
2021-06-21 17:05:19.312500000,-38.0,-9.0,51.0,63.165,65.93,10.3172655,33.55
2021-06-21 17:05:19.320312500,-38.0,-9.0,51.0,63.164375,66.26,10.3163046875,33.55
2021-06-21 17:05:19.328125000,-38.0,-9.0,51.0,63.16375,66.59,10.315343875,33.55
2021-06-21 17:05:19.335937500,-38.0,-9.0,51.0,63.163125,67.225,10.3143830625,33.55
2021-06-21 17:05:19.343750000,-38.0,-9.0,51.0,63.1625,67.86,10.31342225,33.55
2021-06-21 17:05:19.351562500,-38.0,-9.0,51.0,63.161874999999995,68.88,10.3124614375,33.55
2021-06-21 17:05:19.359375000,-38.0,-9.0,51.0,63.161249999999995,69.9,10.311500625,33.55
2021-06-21 17:05:19.367187500,-38.0,-9.0,51.0,63.160624999999996,71.265,10.3105398125,33.55
2021-06-21 17:05:19.375000000,-38.0,-9.0,51.0,63.16,72.63,10.309579,33.55
2021-06-21 17:05:19.382812500,-38.0,-9.0,51.0,63.159375,74.15,10.3086181875,33.55
2021-06-21 17:05:19.390625000,-38.0,-9.0,51.0,63.15875,75.67,10.307657375,33.55
2021-06-21 17:05:19.398437500,-38.0,-9.0,51.0,63.158125,77.03,10.3066965625,33.55
2021-06-21 17:05:19.406250000,-38.0,-9.0,51.0,63.1575,78.39,10.30573575,33.55
2021-06-21 17:05:19.414062500,-38.0,-9.0,51.0,63.156875,79.25999999999999,10.304774937500001,33.55
2021-06-21 17:05:19.421875000,-38.0,-9.0,51.0,63.15625,80.13,10.303814125,33.55
2021-06-21 17:05:19.429687500,-38.0,-9.0,51.0,63.155625,80.25,10.3028533125,33.55
2021-06-21 17:05:19.437500000,-38.0,-9.0,51.0,63.155,80.37,10.301892500000001,33.55
2021-06-21 17:05:19.445312500,-38.0,-9.0,51.0,63.154375,79.61500000000001,10.3009316875,33.55
2021-06-21 17:05:19.453125000,-38.0,-9.0,51.0,63.153749999999995,78.86,10.299970875000001,33.55
2021-06-21 17:05:19.460937500,-38.0,-9.0,51.0,63.153124999999996,77.25999999999999,10.2990100625,33.55
2021-06-21 17:05:19.468750000,-38.0,-9.0,51.0,63.152499999999996,75.66,10.29804925,33.55
2021-06-21 17:05:19.476562500,-38.0,-9.0,51.0,63.151875,73.36,10.297088437500001,33.55
2021-06-21 17:05:19.484375000,-38.0,-9.0,51.0,63.15125,71.06,10.296127625,33.55
2021-06-21 17:05:19.492187500,-38.0,-9.0,51.0,63.150625,68.285,10.295166812500002,33.55
2021-06-21 17:05:19.500000000,-38.0,-9.0,51.0,63.15,65.51,10.294206,33.55
2021-06-21 17:05:19.507812500,-38.0,-9.0,51.0,63.149375,62.515,10.29452625,33.55
2021-06-21 17:05:19.515625000,-38.0,-9.0,51.0,63.14875,59.52,10.2948465,33.55
2021-06-21 17:05:19.523437500,-38.0,-9.0,51.0,63.148125,56.55500000000001,10.29516675,33.55
2021-06-21 17:05:19.531250000,-38.0,-9.0,51.0,63.1475,53.59,10.295487000000001,33.55
2021-06-21 17:05:19.539062500,-38.0,-9.0,51.0,63.146875,50.83,10.295807250000001,33.55
2021-06-21 17:05:19.546875000,-38.0,-9.0,51.0,63.14625,48.07,10.2961275,33.55
2021-06-21 17:05:19.554687500,-38.0,-9.0,51.0,63.145624999999995,45.595,10.29644775,33.55
2021-06-21 17:05:19.562500000,-38.0,-9.0,51.0,63.144999999999996,43.12,10.296768,33.55
2021-06-21 17:05:19.570312500,-38.0,-9.0,51.25,63.144375,40.885,10.29708825,33.55
2021-06-21 17:05:19.578125000,-38.0,-9.0,51.5,63.14375,38.65,10.297408500000001,33.55
2021-06-21 17:05:19.585937500,-38.0,-9.0,51.75,63.143125,36.53,10.297728750000001,33.55
2021-06-21 17:05:19.593750000,-38.0,-9.0,52.0,63.1425,34.41,10.298049,33.55
2021-06-21 17:05:19.601562500,-38.0,-9.0,51.75,63.141875,32.305,10.29836925,33.55
2021-06-21 17:05:19.609375000,-38.0,-9.0,51.5,63.14125,30.2,10.2986895,33.55
2021-06-21 17:05:19.617187500,-38.0,-9.0,51.25,63.140625,28.085,10.29900975,33.55
2021-06-21 17:05:19.625000000,-38.0,-9.0,51.0,63.14,25.97,10.299330000000001,33.55
2021-06-21 17:05:19.632812500,-38.0,-9.25,51.0,63.139375,23.91,10.299650250000001,33.55
2021-06-21 17:05:19.640625000,-38.0,-9.5,51.0,63.13875,21.85,10.2999705,33.55
2021-06-21 17:05:19.648437500,-38.0,-9.75,51.0,63.138125,19.925,10.30029075,33.55
2021-06-21 17:05:19.656250000,-38.0,-10.0,51.0,63.137499999999996,18.0,10.300611,33.55
2021-06-21 17:05:19.664062500,-38.0,-10.0,51.0,63.136874999999996,16.245,10.30093125,33.55
2021-06-21 17:05:19.671875000,-38.0,-10.0,51.0,63.13625,14.49,10.3012515,33.55
2021-06-21 17:05:19.679687500,-38.0,-10.0,51.0,63.135625,12.835,10.30157175,33.55
2021-06-21 17:05:19.687500000,-38.0,-10.0,51.0,63.135,11.18,10.301892,33.55
2021-06-21 17:05:19.695312500,-38.0,-10.0,51.0,63.134375,9.5,10.30221225,33.55
2021-06-21 17:05:19.703125000,-38.0,-10.0,51.0,63.13375,7.82,10.3025325,33.55
2021-06-21 17:05:19.710937500,-38.0,-10.0,51.0,63.133125,6.005000000000001,10.30285275,33.55
2021-06-21 17:05:19.718750000,-38.0,-10.0,51.0,63.1325,4.19,10.303173,33.55
2021-06-21 17:05:19.726562500,-38.0,-9.75,51.0,63.131875,2.225,10.30349325,33.55
2021-06-21 17:05:19.734375000,-38.0,-9.5,51.0,63.13125,0.26,10.3038135,33.55
2021-06-21 17:05:19.742187500,-38.0,-9.25,51.0,63.130625,-1.78,10.30413375,33.55
2021-06-21 17:05:19.750000000,-38.0,-9.0,51.0,63.129999999999995,-3.82,10.304454,33.55
2021-06-21 17:05:19.757812500,-38.0,-9.0,51.25,63.129374999999996,-5.8149999999999995,10.30353321875,33.55
2021-06-21 17:05:19.765625000,-38.0,-9.0,51.5,63.12875,-7.81,10.3026124375,33.55
2021-06-21 17:05:19.773437500,-38.0,-9.0,51.75,63.128125,-9.69,10.30169165625,33.55
2021-06-21 17:05:19.781250000,-38.0,-9.0,52.0,63.1275,-11.57,10.300770875,33.55
2021-06-21 17:05:19.789062500,-38.0,-9.0,51.75,63.126875,-13.375,10.299850093749999,33.55
2021-06-21 17:05:19.796875000,-38.0,-9.0,51.5,63.12625,-15.18,10.2989293125,33.55
2021-06-21 17:05:19.804687500,-38.0,-9.0,51.25,63.125625,-17.07,10.29800853125,33.55
2021-06-21 17:05:19.812500000,-38.0,-9.0,51.0,63.125,-18.96,10.29708775,33.55
2021-06-21 17:05:19.820312500,-37.75,-9.0,51.0,63.124375,-21.18,10.29616696875,33.55
2021-06-21 17:05:19.828125000,-37.5,-9.0,51.0,63.12375,-23.4,10.2952461875,33.55
2021-06-21 17:05:19.835937500,-37.25,-9.0,51.0,63.123125,-26.119999999999997,10.29432540625,33.55
2021-06-21 17:05:19.843750000,-37.0,-9.0,51.0,63.1225,-28.84,10.293404624999999,33.55
2021-06-21 17:05:19.851562500,-37.0,-9.0,51.0,63.121874999999996,-32.105,10.29248384375,33.55
2021-06-21 17:05:19.859375000,-37.0,-9.0,51.0,63.121249999999996,-35.37,10.2915630625,33.55
2021-06-21 17:05:19.867187500,-37.0,-9.0,51.0,63.120625,-38.995,10.29064228125,33.55
2021-06-21 17:05:19.875000000,-37.0,-9.0,51.0,63.12,-42.62,10.289721499999999,33.55
2021-06-21 17:05:19.882812500,-37.25,-9.0,51.0,63.119375,-46.3,10.28880071875,33.55
2021-06-21 17:05:19.890625000,-37.5,-9.0,51.0,63.11875,-49.98,10.2878799375,33.55
2021-06-21 17:05:19.898437500,-37.75,-9.0,51.0,63.118125,-53.345,10.28695915625,33.55
2021-06-21 17:05:19.906250000,-38.0,-9.0,51.0,63.1175,-56.71,10.286038375,33.55
2021-06-21 17:05:19.914062500,-38.0,-9.0,51.0,63.116875,-59.53,10.28511759375,33.55
2021-06-21 17:05:19.921875000,-38.0,-9.0,51.0,63.11625,-62.35,10.2841968125,33.55
2021-06-21 17:05:19.929687500,-38.0,-9.0,51.0,63.115625,-64.64,10.283276031249999,33.55
2021-06-21 17:05:19.937500000,-38.0,-9.0,51.0,63.115,-66.93,10.28235525,33.55
2021-06-21 17:05:19.945312500,-38.0,-9.0,51.0,63.114375,-68.95500000000001,10.28143446875,33.55
2021-06-21 17:05:19.953125000,-38.0,-9.0,51.0,63.113749999999996,-70.98,10.2805136875,33.55
2021-06-21 17:05:19.960937500,-38.0,-9.0,51.0,63.113125,-73.17,10.27959290625,33.55
2021-06-21 17:05:19.968750000,-38.0,-9.0,51.0,63.1125,-75.36,10.278672125,33.55
2021-06-21 17:05:19.976562500,-38.0,-9.0,51.0,63.111875,-78.185,10.27775134375,33.55
2021-06-21 17:05:19.984375000,-38.0,-9.0,51.0,63.11125,-81.01,10.276830562499999,33.55
2021-06-21 17:05:19.992187500,-38.0,-9.0,51.0,63.110625,-84.815,10.27590978125,33.55
2021-06-21 17:05:20.000000000,-38.0,-9.0,51.0,63.11,-88.62,10.274989,33.55
2021-06-21 17:05:20.007812500,-37.75,-9.0,51.0,63.109375,-93.475,10.27526925,33.55
2021-06-21 17:05:20.015625000,-37.5,-9.0,51.0,63.10875,-98.33,10.2755495,33.55
2021-06-21 17:05:20.023437500,-37.25,-9.0,51.0,63.108125,-103.975,10.27582975,33.55
2021-06-21 17:05:20.031250000,-37.0,-9.0,51.0,63.1075,-109.62,10.27611,33.55
2021-06-21 17:05:20.039062500,-37.0,-9.0,51.0,63.106875,-115.38,10.27639025,33.55
2021-06-21 17:05:20.046875000,-37.0,-9.0,51.0,63.10625,-121.14,10.2766705,33.55
2021-06-21 17:05:20.054687500,-37.0,-9.0,51.0,63.105624999999996,-125.97,10.27695075,33.55
2021-06-21 17:05:20.062500000,-37.0,-9.0,51.0,63.105,-130.8,10.277231,33.55
2021-06-21 17:05:20.070312500,-37.25,-8.75,51.0,63.104375,-133.465,10.27751125,33.55
2021-06-21 17:05:20.078125000,-37.5,-8.5,51.0,63.10375,-136.13,10.2777915,33.55
2021-06-21 17:05:20.085937500,-37.75,-8.25,51.0,63.103125,-135.48000000000002,10.278071749999999,33.55
2021-06-21 17:05:20.093750000,-38.0,-8.0,51.0,63.1025,-134.83,10.278352,33.55
2021-06-21 17:05:20.101562500,-38.0,-8.0,51.0,63.101875,-130.15,10.27863225,33.55
2021-06-21 17:05:20.109375000,-38.0,-8.0,51.0,63.10125,-125.47,10.278912499999999,33.55
2021-06-21 17:05:20.117187500,-38.0,-8.0,51.0,63.100625,-116.805,10.27919275,33.55
2021-06-21 17:05:20.125000000,-38.0,-8.0,51.0,63.1,-108.14,10.279473,33.55
2021-06-21 17:05:20.132812500,-38.0,-8.0,51.0,63.099375,-96.32,10.279753249999999,33.55
2021-06-21 17:05:20.140625000,-38.0,-8.0,51.0,63.09875,-84.5,10.2800335,33.55
2021-06-21 17:05:20.148437500,-38.0,-8.0,51.0,63.098125,-70.95,10.28031375,33.55
2021-06-21 17:05:20.156250000,-38.0,-8.0,51.0,63.0975,-57.4,10.280593999999999,33.55
2021-06-21 17:05:20.164062500,-38.0,-8.0,51.0,63.096875,-43.73,10.28087425,33.55
2021-06-21 17:05:20.171875000,-38.0,-8.0,51.0,63.09625,-30.06,10.2811545,33.55
2021-06-21 17:05:20.179687500,-38.0,-8.0,51.0,63.095625,-17.64,10.281434749999999,33.55
2021-06-21 17:05:20.187500000,-38.0,-8.0,51.0,63.095,-5.22,10.281714999999998,33.55
2021-06-21 17:05:20.195312500,-38.0,-8.0,51.0,63.094375,5.11,10.28199525,33.55
2021-06-21 17:05:20.203125000,-38.0,-8.0,51.0,63.09375,15.44,10.282275499999999,33.55
2021-06-21 17:05:20.210937500,-38.0,-8.0,51.0,63.093125,23.405,10.282555749999998,33.55
2021-06-21 17:05:20.218750000,-38.0,-8.0,51.0,63.0925,31.37,10.282836,33.55
2021-06-21 17:05:20.226562500,-38.0,-8.0,51.0,63.091875,37.12,10.283116249999999,33.55
2021-06-21 17:05:20.234375000,-38.0,-8.0,51.0,63.09125,42.87,10.283396499999998,33.55
2021-06-21 17:05:20.242187500,-38.0,-8.0,51.0,63.090625,46.745,10.28367675,33.55
2021-06-21 17:05:20.250000000,-38.0,-8.0,51.0,63.09,50.62,10.283957,33.55
2021-06-21 17:05:20.257812500,-38.0,-8.0,51.0,63.089375,52.955,10.283236375,33.55
2021-06-21 17:05:20.265625000,-38.0,-8.0,51.0,63.08875,55.29,10.28251575,33.55
2021-06-21 17:05:20.273437500,-38.0,-8.0,51.0,63.088125,56.394999999999996,10.281795124999999,33.55
2021-06-21 17:05:20.281250000,-38.0,-8.0,51.0,63.0875,57.5,10.281074499999999,33.55
2021-06-21 17:05:20.289062500,-38.0,-8.25,51.0,63.086875,57.614999999999995,10.280353875,33.55
2021-06-21 17:05:20.296875000,-38.0,-8.5,51.0,63.08625,57.73,10.27963325,33.55
2021-06-21 17:05:20.304687500,-38.0,-8.75,51.0,63.085625,57.114999999999995,10.278912624999998,33.55
2021-06-21 17:05:20.312500000,-38.0,-9.0,51.0,63.085,56.5,10.278191999999999,33.55
2021-06-21 17:05:20.320312500,-38.0,-8.75,51.0,63.084375,55.47,10.277471375,33.55
2021-06-21 17:05:20.328125000,-38.0,-8.5,51.0,63.08375,54.44,10.27675075,33.55
2021-06-21 17:05:20.335937500,-38.0,-8.25,51.0,63.083125,53.325,10.276030125,33.55
2021-06-21 17:05:20.343750000,-38.0,-8.0,51.0,63.0825,52.21,10.275309499999999,33.55
2021-06-21 17:05:20.351562500,-38.0,-8.0,51.0,63.081875,51.345,10.274588875,33.55
2021-06-21 17:05:20.359375000,-38.0,-8.0,51.0,63.08125,50.48,10.27386825,33.55
2021-06-21 17:05:20.367187500,-38.0,-8.0,51.0,63.080625,50.14,10.273147625,33.55
2021-06-21 17:05:20.375000000,-38.0,-8.0,51.0,63.08,49.8,10.272427,33.55
2021-06-21 17:05:20.382812500,-38.0,-8.0,51.0,63.079375,50.095,10.271706374999999,33.55
2021-06-21 17:05:20.390625000,-38.0,-8.0,51.0,63.07875,50.39,10.27098575,33.55
2021-06-21 17:05:20.398437500,-38.0,-8.0,51.0,63.078125,51.295,10.270265125,33.55
2021-06-21 17:05:20.406250000,-38.0,-8.0,51.0,63.0775,52.2,10.2695445,33.55
2021-06-21 17:05:20.414062500,-38.0,-8.25,51.0,63.076875,53.55,10.268823874999999,33.55
2021-06-21 17:05:20.421875000,-38.0,-8.5,51.0,63.07625,54.9,10.26810325,33.55
2021-06-21 17:05:20.429687500,-38.0,-8.75,51.0,63.075625,56.465,10.267382625,33.55
2021-06-21 17:05:20.437500000,-38.0,-9.0,51.0,63.075,58.03,10.266662,33.55
2021-06-21 17:05:20.445312500,-38.0,-9.0,51.0,63.074375,59.620000000000005,10.265941375,33.55
2021-06-21 17:05:20.453125000,-38.0,-9.0,51.0,63.07375,61.21,10.26522075,33.55
2021-06-21 17:05:20.460937500,-38.0,-9.0,51.0,63.073125,62.68000000000001,10.264500125,33.55
2021-06-21 17:05:20.468750000,-38.0,-9.0,51.0,63.0725,64.15,10.2637795,33.55
2021-06-21 17:05:20.476562500,-38.0,-8.75,51.0,63.071875,65.44,10.263058875,33.55
2021-06-21 17:05:20.484375000,-38.0,-8.5,51.0,63.07125,66.73,10.262338249999999,33.55
2021-06-21 17:05:20.492187500,-38.0,-8.25,51.0,63.070625,67.755,10.261617625,33.55
2021-06-21 17:05:20.500000000,-38.0,-8.0,51.0,63.07,68.78,10.260897,33.55
2021-06-21 17:05:20.507812500,-38.0,-8.0,51.0,63.069375,69.435,10.2603765625,33.55
2021-06-21 17:05:20.515625000,-38.0,-8.0,51.0,63.06875,70.09,10.259856125,33.55
2021-06-21 17:05:20.523437500,-38.0,-8.0,51.0,63.068125,70.195,10.2593356875,33.55
2021-06-21 17:05:20.531250000,-38.0,-8.0,51.0,63.0675,70.3,10.25881525,33.55
2021-06-21 17:05:20.539062500,-38.0,-8.0,51.0,63.066875,69.675,10.2582948125,33.55
2021-06-21 17:05:20.546875000,-38.0,-8.0,51.0,63.066250000000004,69.05,10.257774375,33.55
2021-06-21 17:05:20.554687500,-38.0,-8.0,51.0,63.065625,67.63499999999999,10.2572539375,33.55
2021-06-21 17:05:20.562500000,-38.0,-8.0,51.0,63.065,66.22,10.2567335,33.55
2021-06-21 17:05:20.570312500,-38.0,-8.0,51.0,63.064375,64.065,10.2562130625,33.55
2021-06-21 17:05:20.578125000,-38.0,-8.0,51.0,63.06375,61.91,10.255692625,33.55
2021-06-21 17:05:20.585937500,-38.0,-8.0,51.0,63.063125,59.235,10.2551721875,33.55
2021-06-21 17:05:20.593750000,-38.0,-8.0,51.0,63.0625,56.56,10.25465175,33.55
2021-06-21 17:05:20.601562500,-38.0,-8.0,51.0,63.061875,53.635000000000005,10.2541313125,33.55
2021-06-21 17:05:20.609375000,-38.0,-8.0,51.0,63.06125,50.71,10.253610875,33.55
2021-06-21 17:05:20.617187500,-38.0,-8.0,51.0,63.060625,47.78,10.253090437500001,33.55
2021-06-21 17:05:20.625000000,-38.0,-8.0,51.0,63.06,44.85,10.25257,33.55
2021-06-21 17:05:20.632812500,-38.0,-8.25,51.0,63.059375,42.025000000000006,10.2520495625,33.55
2021-06-21 17:05:20.640625000,-38.0,-8.5,51.0,63.05875,39.2,10.251529125000001,33.55
2021-06-21 17:05:20.648437500,-38.0,-8.75,51.0,63.058125000000004,36.495000000000005,10.2510086875,33.55
2021-06-21 17:05:20.656250000,-38.0,-9.0,51.0,63.0575,33.79,10.25048825,33.55
2021-06-21 17:05:20.664062500,-38.0,-9.0,51.0,63.056875,31.134999999999998,10.249967812500001,33.55
2021-06-21 17:05:20.671875000,-38.0,-9.0,51.0,63.05625,28.48,10.249447375,33.55
2021-06-21 17:05:20.679687500,-38.0,-9.0,51.0,63.055625,25.814999999999998,10.2489269375,33.55
2021-06-21 17:05:20.687500000,-38.0,-9.0,51.0,63.055,23.15,10.248406500000002,33.55
2021-06-21 17:05:20.695312500,-38.0,-8.75,51.0,63.054375,20.509999999999998,10.247886062500001,33.55
2021-06-21 17:05:20.703125000,-38.0,-8.5,51.0,63.05375,17.87,10.247365625,33.55
2021-06-21 17:05:20.710937500,-38.0,-8.25,51.0,63.053125,15.305,10.2468451875,33.55
2021-06-21 17:05:20.718750000,-38.0,-8.0,51.0,63.0525,12.74,10.246324750000001,33.55
2021-06-21 17:05:20.726562500,-38.0,-8.0,51.0,63.051875,10.305,10.2458043125,33.55
2021-06-21 17:05:20.734375000,-38.0,-8.0,51.0,63.05125,7.87,10.245283875,33.55
2021-06-21 17:05:20.742187500,-38.0,-8.0,51.0,63.050625000000004,5.5600000000000005,10.244763437500001,33.55
2021-06-21 17:05:20.750000000,-38.0,-8.0,51.0,63.05,3.25,10.244243,33.55
2021-06-21 17:05:20.757812500,-38.0,-8.0,51.0,63.049375,0.9449999999999998,10.244363093750001,33.55
2021-06-21 17:05:20.765625000,-38.0,-8.0,51.0,63.04875,-1.36,10.2444831875,33.55
2021-06-21 17:05:20.773437500,-38.0,-8.0,51.0,63.048125,-3.8,10.24460328125,33.55
2021-06-21 17:05:20.781250000,-38.0,-8.0,51.0,63.0475,-6.24,10.244723375000001,33.55
2021-06-21 17:05:20.789062500,-38.0,-8.0,51.0,63.046875,-8.879999999999999,10.24484346875,33.55
2021-06-21 17:05:20.796875000,-38.0,-8.0,51.0,63.04625,-11.52,10.2449635625,33.55
2021-06-21 17:05:20.804687500,-38.0,-8.0,51.0,63.045625,-14.27,10.245083656250001,33.55
2021-06-21 17:05:20.812500000,-38.0,-8.0,51.0,63.045,-17.02,10.245203750000002,33.55
2021-06-21 17:05:20.820312500,-38.0,-8.0,51.0,63.044375,-19.685000000000002,10.24532384375,33.55
2021-06-21 17:05:20.828125000,-38.0,-8.0,51.0,63.04375,-22.35,10.245443937500001,33.55
2021-06-21 17:05:20.835937500,-38.0,-8.0,51.0,63.043125,-24.695,10.245564031250002,33.55
2021-06-21 17:05:20.843750000,-38.0,-8.0,51.0,63.042500000000004,-27.04,10.245684125,33.55
2021-06-21 17:05:20.851562500,-38.0,-8.0,51.0,63.041875,-28.985,10.245804218750001,33.55
2021-06-21 17:05:20.859375000,-38.0,-8.0,51.0,63.04125,-30.93,10.245924312500001,33.55
2021-06-21 17:05:20.867187500,-38.0,-8.0,51.0,63.040625,-32.585,10.24604440625,33.55
2021-06-21 17:05:20.875000000,-38.0,-8.0,51.0,63.04,-34.24,10.2461645,33.55
2021-06-21 17:05:20.882812500,-38.25,-8.0,51.0,63.039375,-35.89,10.246284593750001,33.55
2021-06-21 17:05:20.890625000,-38.5,-8.0,51.0,63.03875,-37.54,10.2464046875,33.55
2021-06-21 17:05:20.898437500,-38.75,-8.0,51.0,63.038125,-39.465,10.24652478125,33.55
2021-06-21 17:05:20.906250000,-39.0,-8.0,51.0,63.0375,-41.39,10.246644875000001,33.55
2021-06-21 17:05:20.914062500,-38.75,-8.0,51.0,63.036875,-43.730000000000004,10.24676496875,33.55
2021-06-21 17:05:20.921875000,-38.5,-8.0,51.0,63.03625,-46.07,10.2468850625,33.55
2021-06-21 17:05:20.929687500,-38.25,-8.0,51.0,63.035625,-48.745000000000005,10.247005156250001,33.55
2021-06-21 17:05:20.937500000,-38.0,-8.0,51.0,63.035000000000004,-51.42,10.24712525,33.55
2021-06-21 17:05:20.945312500,-38.0,-8.0,51.0,63.034375000000004,-54.2,10.24724534375,33.55
2021-06-21 17:05:20.953125000,-38.0,-8.0,51.0,63.03375,-56.98,10.247365437500001,33.55
2021-06-21 17:05:20.960937500,-38.0,-8.0,51.0,63.033125,-59.62,10.247485531250002,33.55
2021-06-21 17:05:20.968750000,-38.0,-8.0,51.0,63.0325,-62.26,10.247605625,33.55
2021-06-21 17:05:20.976562500,-38.0,-8.0,51.0,63.031875,-64.605,10.24772571875,33.55
2021-06-21 17:05:20.984375000,-38.0,-8.0,51.0,63.03125,-66.95,10.247845812500001,33.55
2021-06-21 17:05:20.992187500,-38.0,-8.0,51.0,63.030625,-69.055,10.24796590625,33.55
2021-06-21 17:05:21.000000000,-38.0,-8.0,51.0,63.03,-71.16,10.248086,33.55
2021-06-21 17:05:21.007812500,-38.0,-8.0,51.0,63.029375,-73.25,10.24812603125,33.55
2021-06-21 17:05:21.015625000,-38.0,-8.0,51.0,63.02875,-75.34,10.248166062500001,33.55
2021-06-21 17:05:21.023437500,-38.0,-8.0,51.0,63.028125,-77.74000000000001,10.248206093750001,33.55
2021-06-21 17:05:21.031250000,-38.0,-8.0,51.0,63.0275,-80.14,10.248246125000001,33.55
2021-06-21 17:05:21.039062500,-38.0,-8.0,51.0,63.026875000000004,-83.17,10.24828615625,33.55
2021-06-21 17:05:21.046875000,-38.0,-8.0,51.0,63.026250000000005,-86.2,10.2483261875,33.55
2021-06-21 17:05:21.054687500,-38.0,-8.0,51.0,63.025625,-90.00999999999999,10.24836621875,33.55
2021-06-21 17:05:21.062500000,-38.0,-8.0,51.0,63.025,-93.82,10.24840625,33.55
2021-06-21 17:05:21.070312500,-38.0,-8.0,51.0,63.024375,-98.225,10.24844628125,33.55
2021-06-21 17:05:21.078125000,-38.0,-8.0,51.0,63.02375,-102.63,10.2484863125,33.55
2021-06-21 17:05:21.085937500,-38.0,-8.0,51.0,63.023125,-106.97999999999999,10.248526343750001,33.55
2021-06-21 17:05:21.093750000,-38.0,-8.0,51.0,63.0225,-111.33,10.248566375,33.55
2021-06-21 17:05:21.101562500,-38.0,-8.0,51.0,63.021875,-114.53999999999999,10.24860640625,33.55
2021-06-21 17:05:21.109375000,-38.0,-8.0,51.0,63.02125,-117.75,10.2486464375,33.55
2021-06-21 17:05:21.117187500,-38.0,-8.0,51.0,63.020625,-118.55,10.24868646875,33.55
2021-06-21 17:05:21.125000000,-38.0,-8.0,51.0,63.02,-119.35,10.2487265,33.55
2021-06-21 17:05:21.132812500,-38.0,-8.0,51.0,63.019375000000004,-116.745,10.24876653125,33.55
2021-06-21 17:05:21.140625000,-38.0,-8.0,51.0,63.018750000000004,-114.14,10.2488065625,33.55
2021-06-21 17:05:21.148437500,-38.0,-8.0,51.0,63.018125000000005,-107.78999999999999,10.24884659375,33.55
2021-06-21 17:05:21.156250000,-38.0,-8.0,51.0,63.0175,-101.44,10.248886625,33.55
2021-06-21 17:05:21.164062500,-38.0,-8.0,51.0,63.016875,-91.86,10.24892665625,33.55
2021-06-21 17:05:21.171875000,-38.0,-8.0,51.0,63.01625,-82.28,10.2489666875,33.55
2021-06-21 17:05:21.179687500,-38.0,-8.0,51.0,63.015625,-70.71000000000001,10.24900671875,33.55
2021-06-21 17:05:21.187500000,-38.0,-8.0,51.0,63.015,-59.14,10.24904675,33.55
2021-06-21 17:05:21.195312500,-38.0,-8.0,51.0,63.014375,-47.105000000000004,10.24908678125,33.55
2021-06-21 17:05:21.203125000,-38.0,-8.0,51.0,63.01375,-35.07,10.2491268125,33.55
2021-06-21 17:05:21.210937500,-38.0,-8.0,51.0,63.013125,-23.9,10.24916684375,33.55
2021-06-21 17:05:21.218750000,-38.0,-8.0,51.0,63.0125,-12.73,10.249206874999999,33.55
2021-06-21 17:05:21.226562500,-38.0,-8.0,51.0,63.011875,-3.2349999999999994,10.249246906249999,33.55
2021-06-21 17:05:21.234375000,-38.0,-8.0,51.0,63.011250000000004,6.26,10.249286937499999,33.55
2021-06-21 17:05:21.242187500,-38.0,-8.0,51.0,63.010625000000005,13.829999999999998,10.24932696875,33.55
2021-06-21 17:05:21.250000000,-38.0,-8.0,51.0,63.010000000000005,21.4,10.249367,33.55
2021-06-21 17:05:21.257812500,-38.0,-8.0,51.0,63.009375,27.169999999999998,10.248446218749999,33.55
2021-06-21 17:05:21.265625000,-38.0,-8.0,51.0,63.00875,32.94,10.2475254375,33.55
2021-06-21 17:05:21.273437500,-38.0,-8.0,51.0,63.008125,37.155,10.24660465625,33.55
2021-06-21 17:05:21.281250000,-38.0,-8.0,51.0,63.0075,41.37,10.245683875,33.55
2021-06-21 17:05:21.289062500,-38.0,-8.0,51.0,63.006875,44.18,10.244763093749999,33.55
2021-06-21 17:05:21.296875000,-38.0,-8.0,51.0,63.00625,46.99,10.2438423125,33.55
2021-06-21 17:05:21.304687500,-38.0,-8.0,51.0,63.005625,48.47,10.24292153125,33.55
2021-06-21 17:05:21.312500000,-38.0,-8.0,51.0,63.005,49.95,10.242000749999999,33.55
2021-06-21 17:05:21.320312500,-38.0,-8.0,51.0,63.004375,50.095,10.24107996875,33.55
2021-06-21 17:05:21.328125000,-38.0,-8.0,51.0,63.003750000000004,50.24,10.2401591875,33.55
2021-06-21 17:05:21.335937500,-38.0,-8.0,51.0,63.003125000000004,49.185,10.23923840625,33.55
2021-06-21 17:05:21.343750000,-38.0,-8.0,51.0,63.002500000000005,48.13,10.238317624999999,33.55
2021-06-21 17:05:21.351562500,-38.0,-8.0,51.0,63.001875,46.16,10.23739684375,33.55
2021-06-21 17:05:21.359375000,-38.0,-8.0,51.0,63.00125,44.19,10.2364760625,33.55
2021-06-21 17:05:21.367187500,-38.0,-8.0,51.0,63.000625,41.79,10.235555281249999,33.55
2021-06-21 17:05:21.375000000,-38.0,-8.0,51.0,63.0,39.39,10.234634499999999,33.55
2021-06-21 17:05:21.382812500,-38.0,-8.0,51.0,62.999375,37.129999999999995,10.23371371875,33.55
2021-06-21 17:05:21.390625000,-38.0,-8.0,51.0,62.99875,34.87,10.2327929375,33.55
2021-06-21 17:05:21.398437500,-38.0,-8.0,51.0,62.998125,33.3,10.231872156249999,33.55
2021-06-21 17:05:21.406250000,-38.0,-8.0,51.0,62.9975,31.73,10.230951375,33.55
2021-06-21 17:05:21.414062500,-38.0,-8.0,51.0,62.996875,31.215,10.23003059375,33.55
2021-06-21 17:05:21.421875000,-38.0,-8.0,51.0,62.99625,30.7,10.229109812499999,33.55
2021-06-21 17:05:21.429687500,-38.0,-8.0,51.0,62.995625000000004,31.335,10.228189031249999,33.55
2021-06-21 17:05:21.437500000,-38.0,-8.0,51.0,62.995000000000005,31.97,10.22726825,33.55
2021-06-21 17:05:21.445312500,-38.0,-8.0,51.0,62.994375000000005,33.56,10.22634746875,33.55
2021-06-21 17:05:21.453125000,-38.0,-8.0,51.0,62.99375,35.15,10.225426687499999,33.55
2021-06-21 17:05:21.460937500,-38.0,-8.0,51.0,62.993125,37.345,10.22450590625,33.55
2021-06-21 17:05:21.468750000,-38.0,-8.0,51.0,62.9925,39.54,10.223585125,33.55
2021-06-21 17:05:21.476562500,-38.0,-8.0,51.0,62.991875,41.935,10.222664343749999,33.55
2021-06-21 17:05:21.484375000,-38.0,-8.0,51.0,62.99125,44.33,10.221743562499999,33.55
2021-06-21 17:05:21.492187500,-38.0,-8.0,51.0,62.990625,46.635,10.22082278125,33.55
2021-06-21 17:05:21.500000000,-38.0,-8.0,51.0,62.99,48.94,10.219902,33.55
2021-06-21 17:05:21.507812500,-38.0,-8.0,51.0,62.989375,50.955,10.220542531249999,33.55
2021-06-21 17:05:21.515625000,-38.0,-8.0,51.0,62.98875,52.97,10.2211830625,33.55
2021-06-21 17:05:21.523437500,-38.0,-8.0,51.0,62.988125000000004,54.565,10.221823593749999,33.55
2021-06-21 17:05:21.531250000,-38.0,-8.0,51.0,62.987500000000004,56.16,10.222464125,33.55
2021-06-21 17:05:21.539062500,-38.0,-8.0,51.0,62.986875000000005,57.215,10.22310465625,33.55
2021-06-21 17:05:21.546875000,-38.0,-8.0,51.0,62.986250000000005,58.27,10.223745187499999,33.55
2021-06-21 17:05:21.554687500,-38.0,-8.0,51.0,62.985625,58.64,10.22438571875,33.55
2021-06-21 17:05:21.562500000,-38.0,-8.0,51.0,62.985,59.01,10.225026249999999,33.55
2021-06-21 17:05:21.570312500,-38.0,-8.0,51.0,62.984375,58.59,10.22566678125,33.55
2021-06-21 17:05:21.578125000,-38.0,-8.0,51.0,62.98375,58.17,10.2263073125,33.55
2021-06-21 17:05:21.585937500,-38.0,-8.0,51.0,62.983125,56.93,10.226947843749999,33.55
2021-06-21 17:05:21.593750000,-38.0,-8.0,51.0,62.9825,55.69,10.227588375,33.55
2021-06-21 17:05:21.601562500,-38.0,-8.0,51.0,62.981875,53.75,10.22822890625,33.55
2021-06-21 17:05:21.609375000,-38.0,-8.0,51.0,62.98125,51.81,10.2288694375,33.55
2021-06-21 17:05:21.617187500,-38.0,-8.0,51.0,62.980625,49.43,10.22950996875,33.55
2021-06-21 17:05:21.625000000,-38.0,-8.0,51.0,62.980000000000004,47.05,10.2301505,33.55
2021-06-21 17:05:21.632812500,-38.0,-8.0,51.0,62.979375000000005,44.555,10.23079103125,33.55
2021-06-21 17:05:21.640625000,-38.0,-8.0,51.0,62.978750000000005,42.06,10.2314315625,33.55
2021-06-21 17:05:21.648437500,-38.0,-8.0,51.0,62.978125000000006,39.735,10.23207209375,33.55
2021-06-21 17:05:21.656250000,-38.0,-8.0,51.0,62.9775,37.41,10.232712625,33.55
2021-06-21 17:05:21.664062500,-38.0,-8.0,51.0,62.976875,35.459999999999994,10.23335315625,33.55
2021-06-21 17:05:21.671875000,-38.0,-8.0,51.0,62.97625,33.51,10.2339936875,33.55
2021-06-21 17:05:21.679687500,-38.0,-8.0,51.0,62.975625,31.97,10.23463421875,33.55
2021-06-21 17:05:21.687500000,-38.0,-8.0,51.0,62.975,30.43,10.23527475,33.55
2021-06-21 17:05:21.695312500,-38.0,-8.0,51.0,62.974375,29.165,10.23591528125,33.55
2021-06-21 17:05:21.703125000,-38.0,-8.0,51.0,62.97375,27.9,10.2365558125,33.55
2021-06-21 17:05:21.710937500,-38.0,-8.0,51.0,62.973125,26.665,10.23719634375,33.55
2021-06-21 17:05:21.718750000,-38.0,-8.0,51.0,62.972500000000004,25.43,10.237836875,33.55
2021-06-21 17:05:21.726562500,-38.0,-8.0,51.0,62.971875000000004,23.935000000000002,10.23847740625,33.55
2021-06-21 17:05:21.734375000,-38.0,-8.0,51.0,62.971250000000005,22.44,10.2391179375,33.55
2021-06-21 17:05:21.742187500,-38.0,-8.0,51.0,62.970625000000005,20.46,10.23975846875,33.55
2021-06-21 17:05:21.750000000,-38.0,-8.0,51.0,62.97,18.48,10.240399,33.55
2021-06-21 17:05:21.757812500,-38.0,-8.0,51.0,62.969375,15.92,10.24099953125,33.55
2021-06-21 17:05:21.765625000,-38.0,-8.0,51.0,62.96875,13.36,10.2416000625,33.55
2021-06-21 17:05:21.773437500,-38.0,-8.0,51.0,62.968125,10.3,10.24220059375,33.55
2021-06-21 17:05:21.781250000,-38.0,-8.0,51.0,62.9675,7.24,10.242801125,33.55
2021-06-21 17:05:21.789062500,-38.0,-8.0,51.0,62.966875,3.92,10.24340165625,33.55
2021-06-21 17:05:21.796875000,-38.0,-8.0,51.0,62.96625,0.6,10.2440021875,33.55
2021-06-21 17:05:21.804687500,-38.0,-8.0,51.0,62.965625,-2.675,10.24460271875,33.55
2021-06-21 17:05:21.812500000,-38.0,-8.0,51.0,62.965,-5.95,10.24520325,33.55
2021-06-21 17:05:21.820312500,-38.0,-8.0,51.0,62.964375000000004,-8.905,10.24580378125,33.55
2021-06-21 17:05:21.828125000,-38.0,-8.0,51.0,62.963750000000005,-11.86,10.2464043125,33.55
2021-06-21 17:05:21.835937500,-38.0,-8.0,51.0,62.963125000000005,-14.344999999999999,10.24700484375,33.55
2021-06-21 17:05:21.843750000,-38.0,-8.0,51.0,62.962500000000006,-16.83,10.247605375,33.55
2021-06-21 17:05:21.851562500,-38.0,-8.0,51.0,62.961875,-18.845,10.24820590625,33.55
2021-06-21 17:05:21.859375000,-38.0,-8.0,51.0,62.96125,-20.86,10.248806437499999,33.55
2021-06-21 17:05:21.867187500,-38.0,-8.0,51.0,62.960625,-22.615000000000002,10.24940696875,33.55
2021-06-21 17:05:21.875000000,-38.0,-8.0,51.0,62.96,-24.37,10.250007499999999,33.55
2021-06-21 17:05:21.882812500,-38.0,-8.0,51.0,62.959375,-26.23,10.25060803125,33.55
2021-06-21 17:05:21.890625000,-38.0,-8.0,51.0,62.95875,-28.09,10.2512085625,33.55
2021-06-21 17:05:21.898437500,-38.0,-8.0,51.0,62.958125,-30.445,10.25180909375,33.55
2021-06-21 17:05:21.906250000,-38.0,-8.0,51.0,62.9575,-32.8,10.252409625,33.55
2021-06-21 17:05:21.914062500,-38.25,-8.0,51.0,62.956875000000004,-35.9,10.25301015625,33.55
2021-06-21 17:05:21.921875000,-38.5,-8.0,51.0,62.956250000000004,-39.0,10.2536106875,33.55
2021-06-21 17:05:21.929687500,-38.75,-8.0,51.0,62.955625000000005,-42.81,10.25421121875,33.55
2021-06-21 17:05:21.937500000,-39.0,-8.0,51.0,62.955000000000005,-46.62,10.25481175,33.55
2021-06-21 17:05:21.945312500,-39.0,-8.0,51.0,62.954375000000006,-50.82,10.255412281249999,33.55
2021-06-21 17:05:21.953125000,-39.0,-8.0,51.0,62.95375,-55.02,10.2560128125,33.55
2021-06-21 17:05:21.960937500,-39.0,-8.0,51.0,62.953125,-59.075,10.256613343749999,33.55
2021-06-21 17:05:21.968750000,-39.0,-8.0,51.0,62.9525,-63.13,10.257213875,33.55
2021-06-21 17:05:21.976562500,-38.75,-8.0,51.0,62.951875,-66.57000000000001,10.257814406249999,33.55
2021-06-21 17:05:21.984375000,-38.5,-8.0,51.0,62.95125,-70.01,10.2584149375,33.55
2021-06-21 17:05:21.992187500,-38.25,-8.0,51.0,62.950625,-72.65,10.259015468749999,33.55
2021-06-21 17:05:22.000000000,-38.0,-8.0,51.0,62.95,-75.29,10.259616,33.55
2021-06-21 17:05:22.007812500,-38.0,-8.0,51.0,62.949453125000005,-77.32,10.25937578125,33.550625
2021-06-21 17:05:22.015625000,-38.0,-8.0,51.0,62.94890625,-79.35,10.2591355625,33.551249999999996
2021-06-21 17:05:22.023437500,-38.0,-8.0,51.0,62.948359375,-81.275,10.25889534375,33.551874999999995
2021-06-21 17:05:22.031250000,-38.0,-8.0,51.0,62.947812500000005,-83.2,10.258655124999999,33.552499999999995
2021-06-21 17:05:22.039062500,-38.0,-8.0,51.0,62.947265625,-85.61500000000001,10.25841490625,33.553124999999994
2021-06-21 17:05:22.046875000,-38.0,-8.0,51.0,62.94671875,-88.03,10.2581746875,33.55375
2021-06-21 17:05:22.054687500,-38.0,-8.0,51.0,62.946171875000005,-91.36500000000001,10.25793446875,33.554375
2021-06-21 17:05:22.062500000,-38.0,-8.0,51.0,62.945625,-94.7,10.25769425,33.555
2021-06-21 17:05:22.070312500,-38.0,-8.0,51.0,62.945078125,-99.05000000000001,10.257454031249999,33.555625
2021-06-21 17:05:22.078125000,-38.0,-8.0,51.0,62.944531250000004,-103.4,10.2572138125,33.55625
2021-06-21 17:05:22.085937500,-38.0,-8.0,51.0,62.943984375,-108.39,10.25697359375,33.556875
2021-06-21 17:05:22.093750000,-38.0,-8.0,51.0,62.9434375,-113.38,10.256733375,33.5575
2021-06-21 17:05:22.101562500,-38.0,-8.0,51.0,62.942890625000004,-118.205,10.25649315625,33.558125
2021-06-21 17:05:22.109375000,-38.0,-8.0,51.0,62.942343750000006,-123.03,10.2562529375,33.558749999999996
2021-06-21 17:05:22.117187500,-38.0,-8.0,51.0,62.941796875,-126.57000000000001,10.25601271875,33.559374999999996
2021-06-21 17:05:22.125000000,-38.0,-8.0,51.0,62.941250000000004,-130.11,10.255772499999999,33.56
2021-06-21 17:05:22.132812500,-38.0,-8.0,51.0,62.940703125000006,-131.145,10.25553228125,33.560625
2021-06-21 17:05:22.140625000,-38.0,-8.0,51.0,62.94015625,-132.18,10.2552920625,33.56125
2021-06-21 17:05:22.148437500,-38.0,-8.0,51.0,62.939609375,-129.695,10.25505184375,33.561875
2021-06-21 17:05:22.156250000,-38.0,-8.0,51.0,62.939062500000006,-127.21,10.254811625,33.5625
2021-06-21 17:05:22.164062500,-38.0,-8.0,51.0,62.938515625,-120.72999999999999,10.25457140625,33.563125
2021-06-21 17:05:22.171875000,-38.0,-8.0,51.0,62.93796875,-114.25,10.2543311875,33.56375
2021-06-21 17:05:22.179687500,-38.0,-8.0,51.0,62.937421875000005,-104.05,10.25409096875,33.564375
2021-06-21 17:05:22.187500000,-38.0,-8.0,51.0,62.936875,-93.85,10.25385075,33.565
2021-06-21 17:05:22.195312500,-38.25,-8.0,51.0,62.936328125,-80.97999999999999,10.25361053125,33.565625
2021-06-21 17:05:22.203125000,-38.5,-8.0,51.0,62.935781250000005,-68.11,10.2533703125,33.56625
2021-06-21 17:05:22.210937500,-38.75,-8.0,51.0,62.935234375,-54.11,10.25313009375,33.566875
2021-06-21 17:05:22.218750000,-39.0,-8.0,51.0,62.9346875,-40.11,10.252889875000001,33.5675
2021-06-21 17:05:22.226562500,-38.75,-8.0,51.0,62.934140625000005,-26.585,10.25264965625,33.568125
2021-06-21 17:05:22.234375000,-38.5,-8.0,51.0,62.93359375,-13.06,10.2524094375,33.56875
2021-06-21 17:05:22.242187500,-38.25,-8.0,51.0,62.933046875,-1.2200000000000006,10.25216921875,33.569375
2021-06-21 17:05:22.250000000,-38.0,-8.0,51.0,62.932500000000005,10.62,10.251929,33.57
2021-06-21 17:05:22.257812500,-38.0,-8.0,51.0,62.931953125,20.14,10.25136853125,33.57
2021-06-21 17:05:22.265625000,-38.0,-8.0,51.0,62.93140625,29.66,10.2508080625,33.57
2021-06-21 17:05:22.273437500,-38.0,-8.0,51.0,62.930859375000004,36.83,10.25024759375,33.57
2021-06-21 17:05:22.281250000,-38.0,-8.0,51.0,62.9303125,44.0,10.249687125000001,33.57
2021-06-21 17:05:22.289062500,-38.0,-8.0,51.0,62.929765625,49.120000000000005,10.24912665625,33.57
2021-06-21 17:05:22.296875000,-38.0,-8.0,51.0,62.929218750000004,54.24,10.2485661875,33.57
2021-06-21 17:05:22.304687500,-38.0,-8.0,51.0,62.928671875000006,57.68,10.24800571875,33.57
2021-06-21 17:05:22.312500000,-38.0,-8.0,51.0,62.928125,61.12,10.24744525,33.57
2021-06-21 17:05:22.320312500,-38.0,-8.0,51.0,62.927578125000004,63.16499999999999,10.24688478125,33.57
2021-06-21 17:05:22.328125000,-38.0,-8.0,51.0,62.927031250000006,65.21,10.2463243125,33.57
2021-06-21 17:05:22.335937500,-38.0,-8.0,51.0,62.926484375,66.04499999999999,10.24576384375,33.57
2021-06-21 17:05:22.343750000,-38.0,-8.0,51.0,62.9259375,66.88,10.245203375,33.57
2021-06-21 17:05:22.351562500,-38.0,-8.0,51.0,62.925390625000006,66.725,10.24464290625,33.57
2021-06-21 17:05:22.359375000,-38.0,-8.0,51.0,62.92484375,66.57,10.2440824375,33.57
2021-06-21 17:05:22.367187500,-38.0,-8.0,51.0,62.924296875,65.74,10.24352196875,33.57
2021-06-21 17:05:22.375000000,-38.0,-8.0,51.0,62.923750000000005,64.91,10.2429615,33.57
2021-06-21 17:05:22.382812500,-38.0,-8.25,51.0,62.923203125,63.825,10.24240103125,33.57
2021-06-21 17:05:22.390625000,-38.0,-8.5,51.0,62.92265625,62.74,10.2418405625,33.57
2021-06-21 17:05:22.398437500,-38.0,-8.75,51.0,62.922109375000005,61.8,10.24128009375,33.57
2021-06-21 17:05:22.406250000,-38.0,-9.0,51.0,62.9215625,60.86,10.240719625,33.57
2021-06-21 17:05:22.414062500,-38.0,-8.75,51.0,62.921015625,60.34,10.24015915625,33.57
2021-06-21 17:05:22.421875000,-38.0,-8.5,51.0,62.920468750000005,59.82,10.2395986875,33.57
2021-06-21 17:05:22.429687500,-38.0,-8.25,51.0,62.919921875,59.815,10.23903821875,33.57
2021-06-21 17:05:22.437500000,-38.0,-8.0,51.0,62.919375,59.81,10.23847775,33.57
2021-06-21 17:05:22.445312500,-38.0,-8.0,51.0,62.918828125000005,60.230000000000004,10.237917281249999,33.57
2021-06-21 17:05:22.453125000,-38.0,-8.0,51.0,62.91828125,60.65,10.2373568125,33.57
2021-06-21 17:05:22.460937500,-38.0,-8.0,51.0,62.917734375,61.36,10.23679634375,33.57
2021-06-21 17:05:22.468750000,-38.0,-8.0,51.0,62.917187500000004,62.07,10.236235874999998,33.57
2021-06-21 17:05:22.476562500,-38.0,-8.25,51.0,62.916640625,62.96,10.23567540625,33.57
2021-06-21 17:05:22.484375000,-38.0,-8.5,51.0,62.91609375,63.85,10.235114937499999,33.57
2021-06-21 17:05:22.492187500,-38.0,-8.75,51.0,62.915546875000004,64.875,10.23455446875,33.57
2021-06-21 17:05:22.500000000,-38.0,-9.0,51.0,62.915000000000006,65.9,10.233994,33.57
2021-06-21 17:05:22.507812500,-38.0,-8.75,51.0,62.914453125,67.08000000000001,10.23375378125,33.57
2021-06-21 17:05:22.515625000,-38.0,-8.5,51.0,62.913906250000004,68.26,10.233513562499999,33.57
2021-06-21 17:05:22.523437500,-38.0,-8.25,51.0,62.913359375000006,69.57,10.23327334375,33.57
2021-06-21 17:05:22.531250000,-38.0,-8.0,51.0,62.9128125,70.88,10.233033124999999,33.57
2021-06-21 17:05:22.539062500,-38.0,-8.0,51.0,62.912265625,72.205,10.23279290625,33.57
2021-06-21 17:05:22.546875000,-38.0,-8.0,51.0,62.911718750000006,73.53,10.2325526875,33.57
2021-06-21 17:05:22.554687500,-38.0,-8.0,51.0,62.911171875,74.63,10.23231246875,33.57
2021-06-21 17:05:22.562500000,-38.0,-8.0,51.0,62.910625,75.73,10.23207225,33.57
2021-06-21 17:05:22.570312500,-38.0,-8.25,51.0,62.910078125000005,76.33000000000001,10.231832031249999,33.57
2021-06-21 17:05:22.578125000,-38.0,-8.5,51.0,62.90953125,76.93,10.2315918125,33.57
2021-06-21 17:05:22.585937500,-38.0,-8.75,51.0,62.908984375,76.775,10.23135159375,33.57
2021-06-21 17:05:22.593750000,-38.0,-9.0,51.0,62.908437500000005,76.62,10.231111375,33.57
2021-06-21 17:05:22.601562500,-38.0,-9.0,51.0,62.907890625,75.565,10.23087115625,33.57
2021-06-21 17:05:22.609375000,-38.0,-9.0,51.0,62.90734375,74.51,10.230630937499999,33.57
2021-06-21 17:05:22.617187500,-38.0,-9.0,51.0,62.906796875000005,72.58000000000001,10.23039071875,33.57
2021-06-21 17:05:22.625000000,-38.0,-9.0,51.0,62.90625,70.65,10.2301505,33.57
2021-06-21 17:05:22.632812500,-38.0,-9.0,51.0,62.905703125,67.995,10.22991028125,33.57
2021-06-21 17:05:22.640625000,-38.0,-9.0,51.0,62.905156250000005,65.34,10.2296700625,33.57
2021-06-21 17:05:22.648437500,-38.0,-9.0,51.0,62.904609375,62.235,10.22942984375,33.57
2021-06-21 17:05:22.656250000,-38.0,-9.0,51.0,62.9040625,59.13,10.229189625,33.57
2021-06-21 17:05:22.664062500,-38.0,-9.0,51.0,62.903515625000004,55.88,10.228949406249999,33.57
2021-06-21 17:05:22.671875000,-38.0,-9.0,51.0,62.90296875,52.63,10.2287091875,33.57
2021-06-21 17:05:22.679687500,-38.0,-9.0,51.0,62.902421875,49.53,10.22846896875,33.57
2021-06-21 17:05:22.687500000,-38.0,-9.0,51.0,62.901875000000004,46.43,10.22822875,33.57
2021-06-21 17:05:22.695312500,-38.0,-8.75,51.0,62.901328125,43.675,10.22798853125,33.57
2021-06-21 17:05:22.703125000,-38.0,-8.5,51.0,62.90078125,40.92,10.2277483125,33.57
2021-06-21 17:05:22.710937500,-38.0,-8.25,51.0,62.900234375000004,38.605000000000004,10.22750809375,33.57
2021-06-21 17:05:22.718750000,-38.0,-8.0,51.0,62.899687500000006,36.29,10.227267875,33.57
2021-06-21 17:05:22.726562500,-38.0,-8.25,51.0,62.899140625,34.385,10.22702765625,33.57
2021-06-21 17:05:22.734375000,-38.0,-8.5,51.0,62.89859375,32.48,10.2267874375,33.57
2021-06-21 17:05:22.742187500,-38.0,-8.75,51.0,62.898046875000006,30.854999999999997,10.22654721875,33.57
2021-06-21 17:05:22.750000000,-38.0,-9.0,51.0,62.8975,29.23,10.226307,33.57
2021-06-21 17:05:22.757812500,-38.0,-9.0,51.0,62.896953125,27.685000000000002,10.2263870625,33.57
2021-06-21 17:05:22.765625000,-38.0,-9.0,51.0,62.896406250000005,26.14,10.226467125000001,33.57
2021-06-21 17:05:22.773437500,-38.0,-9.0,51.0,62.895859375,24.450000000000003,10.2265471875,33.57
2021-06-21 17:05:22.781250000,-38.0,-9.0,51.0,62.8953125,22.76,10.22662725,33.57
2021-06-21 17:05:22.789062500,-38.0,-9.0,51.0,62.894765625000005,20.75,10.2267073125,33.57
2021-06-21 17:05:22.796875000,-38.0,-9.0,51.0,62.89421875,18.74,10.226787375,33.57
2021-06-21 17:05:22.804687500,-38.0,-9.0,51.0,62.893671875,16.325,10.2268674375,33.57
2021-06-21 17:05:22.812500000,-38.0,-9.0,51.0,62.893125000000005,13.91,10.2269475,33.57
2021-06-21 17:05:22.820312500,-38.0,-9.0,51.0,62.892578125,11.1,10.2270275625,33.57
2021-06-21 17:05:22.828125000,-38.0,-9.0,51.0,62.89203125,8.29,10.227107625,33.57
2021-06-21 17:05:22.835937500,-38.0,-9.0,51.0,62.891484375000005,5.234999999999999,10.2271876875,33.57
2021-06-21 17:05:22.843750000,-38.0,-9.0,51.0,62.8909375,2.18,10.22726775,33.57
2021-06-21 17:05:22.851562500,-38.0,-9.0,51.0,62.890390625,-0.9199999999999995,10.2273478125,33.57
2021-06-21 17:05:22.859375000,-38.0,-9.0,51.0,62.889843750000004,-4.02,10.227427875,33.57
2021-06-21 17:05:22.867187500,-38.0,-9.0,51.0,62.889296875,-6.9399999999999995,10.2275079375,33.57
2021-06-21 17:05:22.875000000,-38.0,-9.0,51.0,62.88875,-9.86,10.227588,33.57
2021-06-21 17:05:22.882812500,-38.0,-8.75,51.0,62.888203125000004,-12.434999999999999,10.2276680625,33.57
2021-06-21 17:05:22.890625000,-38.0,-8.5,51.0,62.88765625,-15.01,10.227748125,33.57
2021-06-21 17:05:22.898437500,-38.0,-8.25,51.0,62.887109375,-17.205,10.2278281875,33.57
2021-06-21 17:05:22.906250000,-38.0,-8.0,51.0,62.886562500000004,-19.4,10.22790825,33.57
2021-06-21 17:05:22.914062500,-38.0,-8.25,51.0,62.886015625000006,-21.325,10.227988312499999,33.57
2021-06-21 17:05:22.921875000,-38.0,-8.5,51.0,62.88546875,-23.25,10.228068375,33.57
2021-06-21 17:05:22.929687500,-38.0,-8.75,51.0,62.884921875,-25.085,10.2281484375,33.57
2021-06-21 17:05:22.937500000,-38.0,-9.0,51.0,62.884375000000006,-26.92,10.2282285,33.57
2021-06-21 17:05:22.945312500,-38.0,-9.0,51.0,62.883828125,-28.895000000000003,10.2283085625,33.57
2021-06-21 17:05:22.953125000,-38.0,-9.0,51.0,62.88328125,-30.87,10.228388625,33.57
2021-06-21 17:05:22.960937500,-38.0,-9.0,51.0,62.882734375000005,-33.1,10.2284686875,33.57
2021-06-21 17:05:22.968750000,-38.0,-9.0,51.0,62.8821875,-35.33,10.22854875,33.57
2021-06-21 17:05:22.976562500,-38.0,-9.0,51.0,62.881640625,-37.795,10.2286288125,33.57
2021-06-21 17:05:22.984375000,-38.0,-9.0,51.0,62.881093750000005,-40.26,10.228708874999999,33.57
2021-06-21 17:05:22.992187500,-38.0,-9.0,51.0,62.880546875,-42.825,10.2287889375,33.57
2021-06-21 17:05:23.000000000,-38.0,-9.0,51.0,62.88,-45.39,10.228869,33.57
2021-06-21 17:05:23.007812500,-38.0,-8.75,51.0,62.87921875,-47.905,10.229149249999999,33.569375
2021-06-21 17:05:23.015625000,-38.0,-8.5,51.0,62.878437500000004,-50.42,10.2294295,33.56875
2021-06-21 17:05:23.023437500,-38.0,-8.25,51.0,62.87765625,-52.81,10.22970975,33.568125
2021-06-21 17:05:23.031250000,-38.0,-8.0,51.0,62.876875000000005,-55.2,10.229989999999999,33.5675
2021-06-21 17:05:23.039062500,-38.0,-8.25,51.0,62.87609375,-57.55,10.23027025,33.566875
2021-06-21 17:05:23.046875000,-38.0,-8.5,51.0,62.8753125,-59.9,10.2305505,33.56625
2021-06-21 17:05:23.054687500,-38.0,-8.75,51.0,62.874531250000004,-62.44,10.230830749999999,33.565625
2021-06-21 17:05:23.062500000,-38.0,-9.0,51.0,62.87375,-64.98,10.231111,33.565
2021-06-21 17:05:23.070312500,-38.0,-8.75,51.0,62.872968750000005,-68.005,10.23139125,33.564375
2021-06-21 17:05:23.078125000,-38.0,-8.5,51.0,62.8721875,-71.03,10.2316715,33.56375
2021-06-21 17:05:23.085937500,-38.0,-8.25,51.0,62.87140625,-74.765,10.23195175,33.563125
2021-06-21 17:05:23.093750000,-38.0,-8.0,51.0,62.870625000000004,-78.5,10.232232,33.5625
2021-06-21 17:05:23.101562500,-38.25,-8.25,51.0,62.86984375,-82.99000000000001,10.23251225,33.561875
2021-06-21 17:05:23.109375000,-38.5,-8.5,51.0,62.869062500000005,-87.48,10.2327925,33.56125
2021-06-21 17:05:23.117187500,-38.75,-8.75,51.0,62.86828125,-92.485,10.23307275,33.560625
2021-06-21 17:05:23.125000000,-39.0,-9.0,51.0,62.8675,-97.49,10.233353000000001,33.56
2021-06-21 17:05:23.132812500,-38.75,-8.75,51.0,62.866718750000004,-102.46000000000001,10.23363325,33.559374999999996
2021-06-21 17:05:23.140625000,-38.5,-8.5,51.0,62.8659375,-107.43,10.2339135,33.558749999999996
2021-06-21 17:05:23.148437500,-38.25,-8.25,51.0,62.865156250000005,-111.535,10.234193750000001,33.558125
2021-06-21 17:05:23.156250000,-38.0,-8.0,51.0,62.864375,-115.64,10.234474,33.5575
2021-06-21 17:05:23.164062500,-38.0,-8.0,51.0,62.86359375,-117.88499999999999,10.23475425,33.556875
2021-06-21 17:05:23.171875000,-38.0,-8.0,51.0,62.862812500000004,-120.13,10.235034500000001,33.55625
2021-06-21 17:05:23.179687500,-38.0,-8.0,51.0,62.86203125,-119.58,10.23531475,33.555625
2021-06-21 17:05:23.187500000,-38.0,-8.0,51.0,62.861250000000005,-119.03,10.235595,33.555
2021-06-21 17:05:23.195312500,-38.0,-8.25,51.0,62.86046875,-115.09,10.235875250000001,33.554375
2021-06-21 17:05:23.203125000,-38.0,-8.5,51.0,62.8596875,-111.15,10.2361555,33.55375
2021-06-21 17:05:23.210937500,-38.0,-8.75,51.0,62.858906250000004,-103.765,10.23643575,33.553124999999994
2021-06-21 17:05:23.218750000,-38.0,-9.0,51.0,62.858125,-96.38,10.236716000000001,33.552499999999995
2021-06-21 17:05:23.226562500,-38.0,-9.0,51.0,62.857343750000005,-86.115,10.23699625,33.551874999999995
2021-06-21 17:05:23.234375000,-38.0,-9.0,51.0,62.8565625,-75.85,10.2372765,33.551249999999996
2021-06-21 17:05:23.242187500,-38.0,-9.0,51.0,62.85578125,-63.78,10.237556750000001,33.550625
2021-06-21 17:05:23.250000000,-38.0,-9.0,51.0,62.855000000000004,-51.71,10.237837,33.55
2021-06-21 17:05:23.257812500,-38.0,-8.75,51.0,62.85421875,-39.15,10.23743665625,33.55
2021-06-21 17:05:23.265625000,-38.0,-8.5,51.0,62.853437500000005,-26.59,10.2370363125,33.55
2021-06-21 17:05:23.273437500,-38.0,-8.25,51.0,62.85265625,-14.76,10.23663596875,33.55
2021-06-21 17:05:23.281250000,-38.0,-8.0,51.0,62.851875,-2.93,10.236235625,33.55
2021-06-21 17:05:23.289062500,-38.0,-8.0,51.0,62.851093750000004,7.3100000000000005,10.23583528125,33.55
2021-06-21 17:05:23.296875000,-38.0,-8.0,51.0,62.8503125,17.55,10.2354349375,33.55
2021-06-21 17:05:23.304687500,-38.0,-8.0,51.0,62.849531250000005,25.775,10.235034593750001,33.55
2021-06-21 17:05:23.312500000,-38.0,-8.0,51.0,62.84875,34.0,10.234634250000001,33.55
2021-06-21 17:05:23.320312500,-38.0,-8.0,51.0,62.84796875,40.165,10.234233906250001,33.55
2021-06-21 17:05:23.328125000,-38.0,-8.0,51.0,62.847187500000004,46.33,10.233833562500001,33.55
2021-06-21 17:05:23.335937500,-38.0,-8.0,51.0,62.84640625,50.585,10.233433218750001,33.55
2021-06-21 17:05:23.343750000,-38.0,-8.0,51.0,62.845625000000005,54.84,10.233032875000001,33.55
2021-06-21 17:05:23.351562500,-38.25,-8.0,51.0,62.84484375,57.400000000000006,10.232632531250001,33.55
2021-06-21 17:05:23.359375000,-38.5,-8.0,51.0,62.8440625,59.96,10.232232187500001,33.55
2021-06-21 17:05:23.367187500,-38.75,-8.0,51.0,62.843281250000004,61.0,10.231831843750001,33.55
2021-06-21 17:05:23.375000000,-39.0,-8.0,51.0,62.8425,62.04,10.2314315,33.55
2021-06-21 17:05:23.382812500,-39.0,-8.0,51.0,62.841718750000005,61.735,10.23103115625,33.55
2021-06-21 17:05:23.390625000,-39.0,-8.0,51.0,62.8409375,61.43,10.2306308125,33.55
2021-06-21 17:05:23.398437500,-39.0,-8.0,51.0,62.84015625,60.004999999999995,10.23023046875,33.55
2021-06-21 17:05:23.406250000,-39.0,-8.0,51.0,62.839375000000004,58.58,10.229830125,33.55
2021-06-21 17:05:23.414062500,-38.75,-8.0,51.0,62.83859375,56.41,10.22942978125,33.55
2021-06-21 17:05:23.421875000,-38.5,-8.0,51.0,62.837812500000005,54.24,10.2290294375,33.55
2021-06-21 17:05:23.429687500,-38.25,-8.0,51.0,62.83703125,51.865,10.22862909375,33.55
2021-06-21 17:05:23.437500000,-38.0,-8.0,51.0,62.83625,49.49,10.22822875,33.55
2021-06-21 17:05:23.445312500,-38.0,-8.0,51.0,62.835468750000004,47.49,10.22782840625,33.55
2021-06-21 17:05:23.453125000,-38.0,-8.0,51.0,62.8346875,45.49,10.2274280625,33.55
2021-06-21 17:05:23.460937500,-38.0,-8.0,51.0,62.833906250000005,44.370000000000005,10.22702771875,33.55
2021-06-21 17:05:23.468750000,-38.0,-8.0,51.0,62.833125,43.25,10.226627375,33.55
2021-06-21 17:05:23.476562500,-38.0,-8.0,51.0,62.83234375,43.235,10.22622703125,33.55
2021-06-21 17:05:23.484375000,-38.0,-8.0,51.0,62.831562500000004,43.22,10.2258266875,33.55
2021-06-21 17:05:23.492187500,-38.0,-8.0,51.0,62.83078125,44.22,10.22542634375,33.55
2021-06-21 17:05:23.500000000,-38.0,-8.0,51.0,62.83,45.22,10.225026,33.55
2021-06-21 17:05:23.507812500,-38.0,-8.25,51.0,62.82921875,46.879999999999995,10.2247858125,33.55
2021-06-21 17:05:23.515625000,-38.0,-8.5,51.0,62.8284375,48.54,10.224545625,33.55
2021-06-21 17:05:23.523437500,-38.0,-8.75,51.0,62.827656250000004,50.415,10.2243054375,33.55
2021-06-21 17:05:23.531250000,-38.0,-9.0,51.0,62.826875,52.29,10.224065249999999,33.55
2021-06-21 17:05:23.539062500,-38.0,-8.75,51.0,62.82609375,54.025,10.2238250625,33.55
2021-06-21 17:05:23.546875000,-38.0,-8.5,51.0,62.8253125,55.76,10.223584875,33.55
2021-06-21 17:05:23.554687500,-38.0,-8.25,51.0,62.82453125,57.175,10.2233446875,33.55
2021-06-21 17:05:23.562500000,-38.0,-8.0,51.0,62.823750000000004,58.59,10.2231045,33.55
2021-06-21 17:05:23.570312500,-38.0,-8.0,51.0,62.82296875,59.635000000000005,10.2228643125,33.55
2021-06-21 17:05:23.578125000,-38.0,-8.0,51.0,62.8221875,60.68,10.222624125,33.55
2021-06-21 17:05:23.585937500,-38.0,-8.0,51.0,62.82140625,61.36,10.2223839375,33.55
2021-06-21 17:05:23.593750000,-38.0,-8.0,51.0,62.820625,62.04,10.22214375,33.55
2021-06-21 17:05:23.601562500,-38.0,-8.0,51.0,62.819843750000004,62.32,10.2219035625,33.55
2021-06-21 17:05:23.609375000,-38.0,-8.0,51.0,62.8190625,62.6,10.221663375,33.55
2021-06-21 17:05:23.617187500,-38.0,-8.0,51.0,62.81828125,62.375,10.2214231875,33.55
2021-06-21 17:05:23.625000000,-38.0,-8.0,51.0,62.8175,62.15,10.221183,33.55
2021-06-21 17:05:23.632812500,-38.0,-8.0,51.0,62.81671875,61.31,10.2209428125,33.55
2021-06-21 17:05:23.640625000,-38.0,-8.0,51.0,62.815937500000004,60.47,10.220702625,33.55
2021-06-21 17:05:23.648437500,-38.0,-8.0,51.0,62.81515625,58.980000000000004,10.2204624375,33.55
2021-06-21 17:05:23.656250000,-38.0,-8.0,51.0,62.814375,57.49,10.220222249999999,33.55
2021-06-21 17:05:23.664062500,-38.0,-8.0,51.0,62.81359375,55.435,10.2199820625,33.55
2021-06-21 17:05:23.671875000,-38.0,-8.0,51.0,62.8128125,53.38,10.219741875,33.55
2021-06-21 17:05:23.679687500,-38.0,-8.0,51.0,62.812031250000004,50.96,10.2195016875,33.55
2021-06-21 17:05:23.687500000,-38.0,-8.0,51.0,62.81125,48.54,10.2192615,33.55
2021-06-21 17:05:23.695312500,-38.0,-8.0,51.0,62.81046875,46.0,10.2190213125,33.55
2021-06-21 17:05:23.703125000,-38.0,-8.0,51.0,62.8096875,43.46,10.218781125,33.55
2021-06-21 17:05:23.710937500,-38.0,-8.0,51.0,62.80890625,41.015,10.2185409375,33.55
2021-06-21 17:05:23.718750000,-38.0,-8.0,51.0,62.808125000000004,38.57,10.218300750000001,33.55
2021-06-21 17:05:23.726562500,-38.0,-8.0,51.0,62.80734375,36.375,10.2180605625,33.55
2021-06-21 17:05:23.734375000,-38.0,-8.0,51.0,62.8065625,34.18,10.217820375,33.55
2021-06-21 17:05:23.742187500,-38.0,-8.0,51.0,62.80578125,32.26,10.2175801875,33.55
2021-06-21 17:05:23.750000000,-38.0,-8.0,51.0,62.805,30.34,10.21734,33.55
2021-06-21 17:05:23.757812500,-38.25,-8.0,51.0,62.804218750000004,28.595,10.21709978125,33.55
2021-06-21 17:05:23.765625000,-38.5,-8.0,51.0,62.8034375,26.85,10.2168595625,33.55
2021-06-21 17:05:23.773437500,-38.75,-8.0,51.0,62.80265625,25.1,10.21661934375,33.55
2021-06-21 17:05:23.781250000,-39.0,-8.0,51.0,62.801875,23.35,10.216379125,33.55
2021-06-21 17:05:23.789062500,-38.75,-8.0,51.0,62.80109375,21.380000000000003,10.21613890625,33.55
2021-06-21 17:05:23.796875000,-38.5,-8.0,51.0,62.800312500000004,19.41,10.2158986875,33.55
2021-06-21 17:05:23.804687500,-38.25,-8.0,51.0,62.79953125,17.085,10.21565846875,33.55
2021-06-21 17:05:23.812500000,-38.0,-8.0,51.0,62.79875,14.76,10.215418249999999,33.55
2021-06-21 17:05:23.820312500,-38.0,-8.0,51.0,62.79796875,12.085,10.21517803125,33.55
2021-06-21 17:05:23.828125000,-38.0,-8.0,51.0,62.7971875,9.41,10.2149378125,33.55
2021-06-21 17:05:23.835937500,-38.0,-8.0,51.0,62.796406250000004,6.585,10.21469759375,33.55
2021-06-21 17:05:23.843750000,-38.0,-8.0,51.0,62.795625,3.76,10.214457375,33.55
2021-06-21 17:05:23.851562500,-38.0,-8.0,51.0,62.79484375,1.0899999999999999,10.21421715625,33.55
2021-06-21 17:05:23.859375000,-38.0,-8.0,51.0,62.7940625,-1.58,10.2139769375,33.55
2021-06-21 17:05:23.867187500,-38.0,-8.0,51.0,62.79328125,-3.795,10.213736718749999,33.55
2021-06-21 17:05:23.875000000,-38.0,-8.0,51.0,62.792500000000004,-6.01,10.2134965,33.55
2021-06-21 17:05:23.882812500,-38.0,-8.0,51.0,62.79171875,-7.63,10.21325628125,33.55
2021-06-21 17:05:23.890625000,-38.0,-8.0,51.0,62.7909375,-9.25,10.2130160625,33.55
2021-06-21 17:05:23.898437500,-38.0,-8.0,51.0,62.79015625,-10.35,10.21277584375,33.55
2021-06-21 17:05:23.906250000,-38.0,-8.0,51.0,62.789375,-11.45,10.212535625,33.55
2021-06-21 17:05:23.914062500,-38.0,-8.0,51.0,62.788593750000004,-12.285,10.21229540625,33.55
2021-06-21 17:05:23.921875000,-38.0,-8.0,51.0,62.7878125,-13.12,10.212055187499999,33.55
2021-06-21 17:05:23.929687500,-38.0,-8.0,51.0,62.78703125,-14.055,10.21181496875,33.55
2021-06-21 17:05:23.937500000,-38.0,-8.0,51.0,62.78625,-14.99,10.21157475,33.55
2021-06-21 17:05:23.945312500,-38.25,-8.0,51.0,62.78546875,-16.34,10.21133453125,33.55
2021-06-21 17:05:23.953125000,-38.5,-8.0,51.0,62.784687500000004,-17.69,10.2110943125,33.55
2021-06-21 17:05:23.960937500,-38.75,-8.0,51.0,62.78390625,-19.64,10.21085409375,33.55
2021-06-21 17:05:23.968750000,-39.0,-8.0,51.0,62.783125,-21.59,10.210613875,33.55
2021-06-21 17:05:23.976562500,-38.75,-8.0,51.0,62.78234375,-24.165,10.210373656249999,33.55
2021-06-21 17:05:23.984375000,-38.5,-8.0,51.0,62.7815625,-26.74,10.2101334375,33.55
2021-06-21 17:05:23.992187500,-38.25,-8.0,51.0,62.780781250000004,-29.795,10.209893218749999,33.55
2021-06-21 17:05:24.000000000,-38.0,-8.0,51.0,62.78,-32.85,10.209653,33.55
2021-06-21 17:05:24.007812500,-38.0,-8.0,51.0,62.779453125,-36.135000000000005,10.209452812499999,33.55
2021-06-21 17:05:24.015625000,-38.0,-8.0,51.0,62.77890625,-39.42,10.209252625,33.55
2021-06-21 17:05:24.023437500,-38.0,-8.0,51.0,62.778359375,-42.63,10.209052437499999,33.55
2021-06-21 17:05:24.031250000,-38.0,-8.0,51.0,62.7778125,-45.84,10.20885225,33.55
2021-06-21 17:05:24.039062500,-38.0,-8.0,51.0,62.777265625,-48.730000000000004,10.208652062499999,33.55
2021-06-21 17:05:24.046875000,-38.0,-8.0,51.0,62.77671875,-51.62,10.208451875,33.55
2021-06-21 17:05:24.054687500,-38.0,-8.0,51.0,62.776171875,-54.07,10.208251687499999,33.55
2021-06-21 17:05:24.062500000,-38.0,-8.0,51.0,62.775625,-56.52,10.2080515,33.55
2021-06-21 17:05:24.070312500,-38.0,-8.0,51.0,62.775078125,-58.620000000000005,10.207851312499999,33.55
2021-06-21 17:05:24.078125000,-38.0,-8.0,51.0,62.77453125,-60.72,10.207651125,33.55
2021-06-21 17:05:24.085937500,-38.0,-8.0,51.0,62.773984375,-62.75,10.207450937499999,33.55
2021-06-21 17:05:24.093750000,-38.0,-8.0,51.0,62.7734375,-64.78,10.20725075,33.55
2021-06-21 17:05:24.101562500,-38.0,-8.0,51.0,62.772890625,-67.16,10.2070505625,33.55
2021-06-21 17:05:24.109375000,-38.0,-8.0,51.0,62.772343750000005,-69.54,10.206850375,33.55
2021-06-21 17:05:24.117187500,-38.0,-8.0,51.0,62.771796875,-72.61500000000001,10.2066501875,33.55
2021-06-21 17:05:24.125000000,-38.0,-8.0,51.0,62.77125,-75.69,10.20645,33.55
2021-06-21 17:05:24.132812500,-38.0,-8.0,51.0,62.770703125000004,-79.61500000000001,10.2062498125,33.55
2021-06-21 17:05:24.140625000,-38.0,-8.0,51.0,62.77015625,-83.54,10.206049624999999,33.55
2021-06-21 17:05:24.148437500,-38.0,-8.0,51.0,62.769609375,-88.095,10.2058494375,33.55
2021-06-21 17:05:24.156250000,-38.0,-8.0,51.0,62.769062500000004,-92.65,10.205649249999999,33.55
2021-06-21 17:05:24.164062500,-38.0,-8.0,51.0,62.768515625,-97.2,10.2054490625,33.55
2021-06-21 17:05:24.171875000,-38.0,-8.0,51.0,62.76796875,-101.75,10.205248874999999,33.55
2021-06-21 17:05:24.179687500,-38.0,-8.0,51.0,62.767421875000004,-105.32,10.2050486875,33.55
2021-06-21 17:05:24.187500000,-38.0,-8.0,51.0,62.766875,-108.89,10.204848499999999,33.55
2021-06-21 17:05:24.195312500,-38.25,-8.0,51.0,62.766328125,-110.37,10.2046483125,33.55
2021-06-21 17:05:24.203125000,-38.5,-8.0,51.0,62.76578125,-111.85,10.204448124999999,33.55
2021-06-21 17:05:24.210937500,-38.75,-8.0,51.0,62.765234375,-110.28,10.2042479375,33.55
2021-06-21 17:05:24.218750000,-39.0,-8.0,51.0,62.7646875,-108.71,10.204047749999999,33.55
2021-06-21 17:05:24.226562500,-39.0,-8.0,51.0,62.764140625,-103.56,10.2038475625,33.55
2021-06-21 17:05:24.234375000,-39.0,-8.0,51.0,62.76359375,-98.41,10.203647375,33.55
2021-06-21 17:05:24.242187500,-39.0,-8.0,51.0,62.763046875,-89.82,10.2034471875,33.55
2021-06-21 17:05:24.250000000,-39.0,-8.0,51.0,62.7625,-81.23,10.203247,33.55
2021-06-21 17:05:24.257812500,-39.0,-8.0,51.0,62.761953125,-69.98,10.203247,33.55
2021-06-21 17:05:24.265625000,-39.0,-8.0,51.0,62.76140625,-58.73,10.203247,33.55
2021-06-21 17:05:24.273437500,-39.0,-8.0,51.0,62.760859375,-46.114999999999995,10.203247,33.55
2021-06-21 17:05:24.281250000,-39.0,-8.0,51.0,62.7603125,-33.5,10.203247,33.55
2021-06-21 17:05:24.289062500,-38.75,-8.0,51.0,62.759765625,-20.975,10.203247,33.55
2021-06-21 17:05:24.296875000,-38.5,-8.0,51.0,62.75921875,-8.45,10.203247,33.55
2021-06-21 17:05:24.304687500,-38.25,-8.0,51.0,62.758671875000005,2.7200000000000006,10.203247,33.55
2021-06-21 17:05:24.312500000,-38.0,-8.0,51.0,62.758125,13.89,10.203247,33.55
2021-06-21 17:05:24.320312500,-38.0,-8.0,51.0,62.757578125,22.875,10.203247,33.55
2021-06-21 17:05:24.328125000,-38.0,-8.0,51.0,62.757031250000004,31.86,10.203247,33.55
2021-06-21 17:05:24.335937500,-38.0,-8.0,51.0,62.756484375,38.34,10.203247,33.55
2021-06-21 17:05:24.343750000,-38.0,-8.0,51.0,62.7559375,44.82,10.203247,33.55
2021-06-21 17:05:24.351562500,-38.0,-8.0,51.0,62.755390625000004,48.894999999999996,10.203247,33.55
2021-06-21 17:05:24.359375000,-38.0,-8.0,51.0,62.75484375,52.97,10.203247,33.55
2021-06-21 17:05:24.367187500,-38.0,-8.0,51.0,62.754296875,54.980000000000004,10.203247,33.55
2021-06-21 17:05:24.375000000,-38.0,-8.0,51.0,62.753750000000004,56.99,10.203247,33.55
2021-06-21 17:05:24.382812500,-38.0,-8.0,51.0,62.753203125,57.3,10.203247,33.55
2021-06-21 17:05:24.390625000,-38.0,-8.0,51.0,62.75265625,57.61,10.203247,33.55
2021-06-21 17:05:24.398437500,-38.0,-8.0,51.0,62.752109375,56.61,10.203247,33.55
2021-06-21 17:05:24.406250000,-38.0,-8.0,51.0,62.7515625,55.61,10.203247,33.55
2021-06-21 17:05:24.414062500,-38.25,-8.0,51.0,62.751015625,53.65,10.203247,33.55
2021-06-21 17:05:24.421875000,-38.5,-8.0,51.0,62.75046875,51.69,10.203247,33.55
2021-06-21 17:05:24.429687500,-38.75,-8.0,51.0,62.749921875,49.175,10.203247,33.55
2021-06-21 17:05:24.437500000,-39.0,-8.0,51.0,62.749375,46.66,10.203247,33.55
2021-06-21 17:05:24.445312500,-38.75,-8.0,51.0,62.748828125,44.015,10.203247,33.55
2021-06-21 17:05:24.453125000,-38.5,-8.0,51.0,62.74828125,41.37,10.203247,33.55
2021-06-21 17:05:24.460937500,-38.25,-8.0,51.0,62.747734375,39.065,10.203247,33.55
2021-06-21 17:05:24.468750000,-38.0,-8.0,51.0,62.7471875,36.76,10.203247,33.55
2021-06-21 17:05:24.476562500,-38.0,-8.0,51.0,62.746640625,35.16,10.203247,33.55
2021-06-21 17:05:24.484375000,-38.0,-8.0,51.0,62.74609375,33.56,10.203247,33.55
2021-06-21 17:05:24.492187500,-38.0,-8.0,51.0,62.745546875,32.91,10.203247,33.55
2021-06-21 17:05:24.500000000,-38.0,-8.0,51.0,62.745000000000005,32.26,10.203247,33.55
2021-06-21 17:05:24.507812500,-38.25,-8.0,51.0,62.744453125,32.575,10.2034471875,33.55
2021-06-21 17:05:24.515625000,-38.5,-8.0,51.0,62.74390625,32.89,10.203647375,33.55
2021-06-21 17:05:24.523437500,-38.75,-8.0,51.0,62.743359375000004,34.019999999999996,10.2038475625,33.55
2021-06-21 17:05:24.531250000,-39.0,-8.0,51.0,62.7428125,35.15,10.204047749999999,33.55
2021-06-21 17:05:24.539062500,-38.75,-8.0,51.0,62.742265625,36.805,10.2042479375,33.55
2021-06-21 17:05:24.546875000,-38.5,-8.0,51.0,62.741718750000004,38.46,10.204448124999999,33.55
2021-06-21 17:05:24.554687500,-38.25,-8.0,51.0,62.741171875,40.32,10.2046483125,33.55
2021-06-21 17:05:24.562500000,-38.0,-8.0,51.0,62.740625,42.18,10.204848499999999,33.55
2021-06-21 17:05:24.570312500,-38.25,-8.0,51.0,62.740078125000004,43.989999999999995,10.2050486875,33.55
2021-06-21 17:05:24.578125000,-38.5,-8.0,51.0,62.73953125,45.8,10.205248874999999,33.55
2021-06-21 17:05:24.585937500,-38.75,-8.0,51.0,62.738984375,47.385,10.2054490625,33.55
2021-06-21 17:05:24.593750000,-39.0,-8.0,51.0,62.7384375,48.97,10.205649249999999,33.55
2021-06-21 17:05:24.601562500,-38.75,-8.0,51.0,62.737890625,50.230000000000004,10.2058494375,33.55
2021-06-21 17:05:24.609375000,-38.5,-8.0,51.0,62.73734375,51.49,10.206049624999999,33.55
2021-06-21 17:05:24.617187500,-38.25,-8.0,51.0,62.736796875,52.36,10.2062498125,33.55
2021-06-21 17:05:24.625000000,-38.0,-8.0,51.0,62.73625,53.23,10.20645,33.55
2021-06-21 17:05:24.632812500,-38.0,-8.0,51.0,62.735703125,53.614999999999995,10.2066501875,33.55
2021-06-21 17:05:24.640625000,-38.0,-8.0,51.0,62.73515625,54.0,10.206850375,33.55
2021-06-21 17:05:24.648437500,-38.0,-8.0,51.0,62.734609375,53.769999999999996,10.2070505625,33.55
2021-06-21 17:05:24.656250000,-38.0,-8.0,51.0,62.7340625,53.54,10.20725075,33.55
2021-06-21 17:05:24.664062500,-38.0,-8.0,51.0,62.733515625,52.58,10.207450937499999,33.55
2021-06-21 17:05:24.671875000,-38.0,-8.0,51.0,62.73296875,51.62,10.207651125,33.55
2021-06-21 17:05:24.679687500,-38.0,-8.0,51.0,62.732421875,49.92,10.207851312499999,33.55
2021-06-21 17:05:24.687500000,-38.0,-8.0,51.0,62.731875,48.22,10.2080515,33.55
2021-06-21 17:05:24.695312500,-38.25,-8.0,51.0,62.731328125,45.905,10.208251687499999,33.55
2021-06-21 17:05:24.703125000,-38.5,-8.0,51.0,62.73078125,43.59,10.208451875,33.55
2021-06-21 17:05:24.710937500,-38.75,-8.0,51.0,62.730234375,40.95,10.208652062499999,33.55
2021-06-21 17:05:24.718750000,-39.0,-8.0,51.0,62.729687500000004,38.31,10.20885225,33.55
2021-06-21 17:05:24.726562500,-38.75,-8.0,51.0,62.729140625,35.675,10.209052437499999,33.55
2021-06-21 17:05:24.734375000,-38.5,-8.0,51.0,62.72859375,33.04,10.209252625,33.55
2021-06-21 17:05:24.742187500,-38.25,-8.0,51.0,62.728046875000004,30.65,10.209452812499999,33.55
2021-06-21 17:05:24.750000000,-38.0,-8.0,51.0,62.7275,28.26,10.209653,33.55
2021-06-21 17:05:24.757812500,-38.0,-8.0,51.0,62.726953125,26.18,10.209452812499999,33.55
2021-06-21 17:05:24.765625000,-38.0,-8.0,51.0,62.726406250000004,24.1,10.209252625,33.55
2021-06-21 17:05:24.773437500,-38.0,-8.0,51.0,62.725859375,22.21,10.209052437499999,33.55
2021-06-21 17:05:24.781250000,-38.0,-8.0,51.0,62.7253125,20.32,10.20885225,33.55
2021-06-21 17:05:24.789062500,-38.25,-8.0,51.0,62.724765625,18.4,10.208652062499999,33.55
2021-06-21 17:05:24.796875000,-38.5,-8.0,51.0,62.72421875,16.48,10.208451875,33.55
2021-06-21 17:05:24.804687500,-38.75,-8.0,51.0,62.723671875,14.33,10.208251687499999,33.55
2021-06-21 17:05:24.812500000,-39.0,-8.0,51.0,62.723125,12.18,10.2080515,33.55
2021-06-21 17:05:24.820312500,-38.75,-8.0,51.0,62.722578125,9.7,10.207851312499999,33.55
2021-06-21 17:05:24.828125000,-38.5,-8.0,51.0,62.72203125,7.22,10.207651125,33.55
2021-06-21 17:05:24.835937500,-38.25,-8.0,51.0,62.721484375,4.47,10.207450937499999,33.55
2021-06-21 17:05:24.843750000,-38.0,-8.0,51.0,62.7209375,1.72,10.20725075,33.55
2021-06-21 17:05:24.851562500,-38.0,-8.0,51.0,62.720390625,-1.1199999999999999,10.2070505625,33.55
2021-06-21 17:05:24.859375000,-38.0,-8.0,51.0,62.71984375,-3.96,10.206850375,33.55
2021-06-21 17:05:24.867187500,-38.0,-8.0,51.0,62.719296875,-6.699999999999999,10.2066501875,33.55
2021-06-21 17:05:24.875000000,-38.0,-8.0,51.0,62.71875,-9.44,10.20645,33.55
2021-06-21 17:05:24.882812500,-38.0,-8.0,51.0,62.718203125,-11.92,10.2062498125,33.55
2021-06-21 17:05:24.890625000,-38.0,-8.0,51.0,62.71765625,-14.4,10.206049624999999,33.55
2021-06-21 17:05:24.898437500,-38.0,-8.0,51.0,62.717109375,-16.565,10.2058494375,33.55
2021-06-21 17:05:24.906250000,-38.0,-8.0,51.0,62.7165625,-18.73,10.205649249999999,33.55
2021-06-21 17:05:24.914062500,-38.0,-8.0,51.0,62.716015625000004,-20.675,10.2054490625,33.55
2021-06-21 17:05:24.921875000,-38.0,-8.0,51.0,62.71546875,-22.62,10.205248874999999,33.55
2021-06-21 17:05:24.929687500,-38.0,-8.0,51.0,62.714921875,-24.509999999999998,10.2050486875,33.55
2021-06-21 17:05:24.937500000,-38.0,-8.0,51.0,62.714375000000004,-26.4,10.204848499999999,33.55
2021-06-21 17:05:24.945312500,-38.25,-8.0,51.0,62.713828125,-28.415,10.2046483125,33.55
2021-06-21 17:05:24.953125000,-38.5,-8.0,51.0,62.71328125,-30.43,10.204448124999999,33.55
2021-06-21 17:05:24.960937500,-38.75,-8.0,51.0,62.712734375000004,-32.68,10.2042479375,33.55
2021-06-21 17:05:24.968750000,-39.0,-8.0,51.0,62.7121875,-34.93,10.204047749999999,33.55
2021-06-21 17:05:24.976562500,-39.0,-8.0,51.0,62.711640625,-37.415,10.2038475625,33.55
2021-06-21 17:05:24.984375000,-39.0,-8.0,51.0,62.71109375,-39.9,10.203647375,33.55
2021-06-21 17:05:24.992187500,-39.0,-8.0,51.0,62.710546875,-42.495000000000005,10.2034471875,33.55
2021-06-21 17:05:25.000000000,-39.0,-8.0,51.0,62.71,-45.09,10.203247,33.55
2021-06-21 17:05:25.007812500,-38.75,-8.0,51.0,62.709375,-47.63,10.203126906249999,33.55
2021-06-21 17:05:25.015625000,-38.5,-8.0,51.0,62.70875,-50.17,10.2030068125,33.55
2021-06-21 17:05:25.023437500,-38.25,-8.0,51.0,62.708125,-52.535,10.20288671875,33.55
2021-06-21 17:05:25.031250000,-38.0,-8.0,51.0,62.7075,-54.9,10.202766624999999,33.55
2021-06-21 17:05:25.039062500,-38.0,-8.0,51.0,62.706875000000004,-57.07,10.20264653125,33.55
2021-06-21 17:05:25.046875000,-38.0,-8.0,51.0,62.706250000000004,-59.24,10.2025264375,33.55
2021-06-21 17:05:25.054687500,-38.0,-8.0,51.0,62.705625,-61.355000000000004,10.202406343749999,33.55
2021-06-21 17:05:25.062500000,-38.0,-8.0,51.0,62.705,-63.47,10.20228625,33.55
2021-06-21 17:05:25.070312500,-38.0,-8.0,51.0,62.704375,-65.755,10.20216615625,33.55
2021-06-21 17:05:25.078125000,-38.0,-8.0,51.0,62.70375,-68.04,10.2020460625,33.55
2021-06-21 17:05:25.085937500,-38.0,-8.0,51.0,62.703125,-70.765,10.201925968749999,33.55
2021-06-21 17:05:25.093750000,-38.0,-8.0,51.0,62.7025,-73.49,10.201805875,33.55
2021-06-21 17:05:25.101562500,-38.0,-8.0,51.0,62.701875,-76.87,10.20168578125,33.55
2021-06-21 17:05:25.109375000,-38.0,-8.0,51.0,62.70125,-80.25,10.201565687499999,33.55
2021-06-21 17:05:25.117187500,-38.0,-8.0,51.0,62.700625,-84.375,10.20144559375,33.55
2021-06-21 17:05:25.125000000,-38.0,-8.0,51.0,62.7,-88.5,10.2013255,33.55
2021-06-21 17:05:25.132812500,-38.0,-8.0,51.0,62.699375,-93.19,10.201205406249999,33.55
2021-06-21 17:05:25.140625000,-38.0,-8.0,51.0,62.698750000000004,-97.88,10.2010853125,33.55
2021-06-21 17:05:25.148437500,-38.0,-8.0,51.0,62.698125000000005,-102.685,10.20096521875,33.55
2021-06-21 17:05:25.156250000,-38.0,-8.0,51.0,62.6975,-107.49,10.200845124999999,33.55
2021-06-21 17:05:25.164062500,-38.0,-8.0,51.0,62.696875,-111.595,10.20072503125,33.55
2021-06-21 17:05:25.171875000,-38.0,-8.0,51.0,62.69625,-115.7,10.2006049375,33.55
2021-06-21 17:05:25.179687500,-38.0,-8.0,51.0,62.695625,-118.08,10.200484843749999,33.55
2021-06-21 17:05:25.187500000,-38.0,-8.0,51.0,62.695,-120.46,10.200364749999999,33.55
2021-06-21 17:05:25.195312500,-38.25,-8.0,51.0,62.694375,-120.095,10.20024465625,33.55
2021-06-21 17:05:25.203125000,-38.5,-8.0,51.0,62.69375,-119.73,10.2001245625,33.55
2021-06-21 17:05:25.210937500,-38.75,-8.0,51.0,62.693125,-115.88,10.200004468749999,33.55
2021-06-21 17:05:25.218750000,-39.0,-8.0,51.0,62.6925,-112.03,10.199884375,33.55
2021-06-21 17:05:25.226562500,-39.0,-8.0,51.0,62.691875,-104.58,10.19976428125,33.55
2021-06-21 17:05:25.234375000,-39.0,-8.0,51.0,62.691250000000004,-97.13,10.199644187499999,33.55
2021-06-21 17:05:25.242187500,-39.0,-8.0,51.0,62.690625000000004,-86.63499999999999,10.19952409375,33.55
2021-06-21 17:05:25.250000000,-39.0,-8.0,51.0,62.69,-76.14,10.199404,33.55
2021-06-21 17:05:25.257812500,-39.0,-8.0,51.0,62.689375,-63.769999999999996,10.19916378125,33.55
2021-06-21 17:05:25.265625000,-39.0,-8.0,51.0,62.68875,-51.4,10.1989235625,33.55
2021-06-21 17:05:25.273437500,-39.0,-8.0,51.0,62.688125,-38.59,10.19868334375,33.55
2021-06-21 17:05:25.281250000,-39.0,-8.0,51.0,62.6875,-25.78,10.198443124999999,33.55
2021-06-21 17:05:25.289062500,-38.75,-8.0,51.0,62.686875,-13.865,10.19820290625,33.55
2021-06-21 17:05:25.296875000,-38.5,-8.0,51.0,62.68625,-1.95,10.1979626875,33.55
2021-06-21 17:05:25.304687500,-38.25,-8.0,51.0,62.685625,8.145,10.19772246875,33.55
2021-06-21 17:05:25.312500000,-38.0,-8.0,51.0,62.685,18.24,10.19748225,33.55
2021-06-21 17:05:25.320312500,-38.0,-8.0,51.0,62.684375,26.1,10.19724203125,33.55
2021-06-21 17:05:25.328125000,-38.0,-8.0,51.0,62.68375,33.96,10.1970018125,33.55
2021-06-21 17:05:25.335937500,-38.0,-8.0,51.0,62.683125000000004,39.61,10.19676159375,33.55
2021-06-21 17:05:25.343750000,-38.0,-8.0,51.0,62.682500000000005,45.26,10.196521375,33.55
2021-06-21 17:05:25.351562500,-38.25,-8.0,51.0,62.681875,48.95,10.19628115625,33.55
2021-06-21 17:05:25.359375000,-38.5,-8.0,51.0,62.68125,52.64,10.1960409375,33.55
2021-06-21 17:05:25.367187500,-38.75,-8.0,51.0,62.680625,54.66,10.19580071875,33.55
2021-06-21 17:05:25.375000000,-39.0,-8.0,51.0,62.68,56.68,10.1955605,33.55
2021-06-21 17:05:25.382812500,-39.0,-8.0,51.0,62.679375,57.285,10.19532028125,33.55
2021-06-21 17:05:25.390625000,-39.0,-8.0,51.0,62.67875,57.89,10.1950800625,33.55
2021-06-21 17:05:25.398437500,-39.0,-8.0,51.0,62.678125,57.295,10.19483984375,33.55
2021-06-21 17:05:25.406250000,-39.0,-8.0,51.0,62.6775,56.7,10.194599625,33.55
2021-06-21 17:05:25.414062500,-38.75,-8.0,51.0,62.676875,55.185,10.19435940625,33.55
2021-06-21 17:05:25.421875000,-38.5,-8.0,51.0,62.67625,53.67,10.1941191875,33.55
2021-06-21 17:05:25.429687500,-38.25,-8.0,51.0,62.675625000000004,51.644999999999996,10.19387896875,33.55
2021-06-21 17:05:25.437500000,-38.0,-8.0,51.0,62.675000000000004,49.62,10.19363875,33.55
2021-06-21 17:05:25.445312500,-38.0,-8.0,51.0,62.674375000000005,47.57,10.19339853125,33.55
2021-06-21 17:05:25.453125000,-38.0,-8.0,51.0,62.67375,45.52,10.1931583125,33.55
2021-06-21 17:05:25.460937500,-38.0,-8.0,51.0,62.673125,43.96,10.19291809375,33.55
2021-06-21 17:05:25.468750000,-38.0,-8.0,51.0,62.6725,42.4,10.192677875000001,33.55
2021-06-21 17:05:25.476562500,-38.0,-8.0,51.0,62.671875,41.705,10.19243765625,33.55
2021-06-21 17:05:25.484375000,-38.0,-8.0,51.0,62.67125,41.01,10.1921974375,33.55
2021-06-21 17:05:25.492187500,-38.0,-8.0,51.0,62.670625,41.349999999999994,10.19195721875,33.55
2021-06-21 17:05:25.500000000,-38.0,-8.0,51.0,62.67,41.69,10.191717,33.55
2021-06-21 17:05:25.507812500,-38.0,-8.0,51.0,62.669375,43.004999999999995,10.191476812500001,33.55
2021-06-21 17:05:25.515625000,-38.0,-8.0,51.0,62.66875,44.32,10.191236625,33.55
2021-06-21 17:05:25.523437500,-38.0,-8.0,51.0,62.668125,46.34,10.1909964375,33.55
2021-06-21 17:05:25.531250000,-38.0,-8.0,51.0,62.667500000000004,48.36,10.19075625,33.55
2021-06-21 17:05:25.539062500,-38.0,-8.0,51.0,62.666875000000005,50.730000000000004,10.1905160625,33.55
2021-06-21 17:05:25.546875000,-38.0,-8.0,51.0,62.666250000000005,53.1,10.190275875000001,33.55
2021-06-21 17:05:25.554687500,-38.0,-8.0,51.0,62.665625,55.455,10.1900356875,33.55
2021-06-21 17:05:25.562500000,-38.0,-8.0,51.0,62.665,57.81,10.1897955,33.55
2021-06-21 17:05:25.570312500,-38.25,-8.0,51.0,62.664375,59.855000000000004,10.1895553125,33.55
2021-06-21 17:05:25.578125000,-38.5,-8.0,51.0,62.66375,61.9,10.189315125,33.55
2021-06-21 17:05:25.585937500,-38.75,-8.0,51.0,62.663125,63.455,10.189074937500001,33.55
2021-06-21 17:05:25.593750000,-39.0,-8.0,51.0,62.6625,65.01,10.18883475,33.55
2021-06-21 17:05:25.601562500,-39.0,-8.0,51.0,62.661875,65.97,10.1885945625,33.55
2021-06-21 17:05:25.609375000,-39.0,-8.0,51.0,62.66125,66.93,10.188354375,33.55
2021-06-21 17:05:25.617187500,-39.0,-8.0,51.0,62.660625,67.265,10.1881141875,33.55
2021-06-21 17:05:25.625000000,-39.0,-8.0,51.0,62.660000000000004,67.6,10.187874,33.55
2021-06-21 17:05:25.632812500,-38.75,-8.0,51.0,62.659375000000004,67.265,10.1876338125,33.55
2021-06-21 17:05:25.640625000,-38.5,-8.0,51.0,62.658750000000005,66.93,10.187393625,33.55
2021-06-21 17:05:25.648437500,-38.25,-8.0,51.0,62.658125000000005,65.91,10.1871534375,33.55
2021-06-21 17:05:25.656250000,-38.0,-8.0,51.0,62.6575,64.89,10.18691325,33.55
2021-06-21 17:05:25.664062500,-38.25,-8.0,51.0,62.656875,63.175,10.186673062499999,33.55
2021-06-21 17:05:25.671875000,-38.5,-8.0,51.0,62.65625,61.46,10.186432875,33.55
2021-06-21 17:05:25.679687500,-38.75,-8.0,51.0,62.655625,59.105000000000004,10.1861926875,33.55
2021-06-21 17:05:25.687500000,-39.0,-8.0,51.0,62.655,56.75,10.185952499999999,33.55
2021-06-21 17:05:25.695312500,-38.75,-8.0,51.0,62.654375,53.89,10.1857123125,33.55
2021-06-21 17:05:25.703125000,-38.5,-8.0,51.0,62.65375,51.03,10.185472124999999,33.55
2021-06-21 17:05:25.710937500,-38.25,-8.0,51.0,62.653125,47.91,10.1852319375,33.55
2021-06-21 17:05:25.718750000,-38.0,-8.0,51.0,62.6525,44.79,10.18499175,33.55
2021-06-21 17:05:25.726562500,-38.0,-8.0,51.0,62.651875000000004,41.69,10.184751562499999,33.55
2021-06-21 17:05:25.734375000,-38.0,-8.0,51.0,62.651250000000005,38.59,10.184511375,33.55
2021-06-21 17:05:25.742187500,-38.0,-8.0,51.0,62.650625000000005,35.745000000000005,10.184271187499998,33.55
2021-06-21 17:05:25.750000000,-38.0,-8.0,51.0,62.650000000000006,32.9,10.184031,33.55
2021-06-21 17:05:25.757812500,-38.25,-8.25,51.0,62.649375,30.435,10.18495178125,33.55
2021-06-21 17:05:25.765625000,-38.5,-8.5,51.0,62.64875,27.97,10.185872562499998,33.55
2021-06-21 17:05:25.773437500,-38.75,-8.75,51.0,62.648125,25.845,10.186793343749999,33.55
2021-06-21 17:05:25.781250000,-39.0,-9.0,51.0,62.6475,23.72,10.187714125,33.55
2021-06-21 17:05:25.789062500,-39.0,-8.75,51.0,62.646875,21.765,10.18863490625,33.55
2021-06-21 17:05:25.796875000,-39.0,-8.5,51.0,62.64625,19.81,10.189555687499999,33.55
2021-06-21 17:05:25.804687500,-39.0,-8.25,51.0,62.645625,17.814999999999998,10.19047646875,33.55
2021-06-21 17:05:25.812500000,-39.0,-8.0,51.0,62.645,15.82,10.19139725,33.55
2021-06-21 17:05:25.820312500,-39.0,-8.0,51.0,62.644375000000004,13.645,10.192318031249998,33.55
2021-06-21 17:05:25.828125000,-39.0,-8.0,51.0,62.643750000000004,11.47,10.193238812499999,33.55
2021-06-21 17:05:25.835937500,-39.0,-8.0,51.0,62.643125000000005,9.120000000000001,10.19415959375,33.55
2021-06-21 17:05:25.843750000,-39.0,-8.0,51.0,62.642500000000005,6.77,10.195080375,33.55
2021-06-21 17:05:25.851562500,-39.0,-8.25,51.0,62.641875,4.395,10.196001156249999,33.55
2021-06-21 17:05:25.859375000,-39.0,-8.5,51.0,62.64125,2.02,10.196921937499999,33.55
2021-06-21 17:05:25.867187500,-39.0,-8.75,51.0,62.640625,-0.18999999999999995,10.19784271875,33.55
2021-06-21 17:05:25.875000000,-39.0,-9.0,51.0,62.64,-2.4,10.198763499999998,33.55
2021-06-21 17:05:25.882812500,-39.0,-9.0,51.0,62.639375,-4.305,10.199684281249999,33.55
2021-06-21 17:05:25.890625000,-39.0,-9.0,51.0,62.63875,-6.21,10.2006050625,33.55
2021-06-21 17:05:25.898437500,-39.0,-9.0,51.0,62.638125,-7.85,10.20152584375,33.55
2021-06-21 17:05:25.906250000,-39.0,-9.0,51.0,62.6375,-9.49,10.202446624999999,33.55
2021-06-21 17:05:25.914062500,-38.75,-8.75,51.0,62.636875,-11.075,10.203367406249999,33.55
2021-06-21 17:05:25.921875000,-38.5,-8.5,51.0,62.636250000000004,-12.66,10.2042881875,33.55
2021-06-21 17:05:25.929687500,-38.25,-8.25,51.0,62.635625000000005,-14.48,10.20520896875,33.55
2021-06-21 17:05:25.937500000,-38.0,-8.0,51.0,62.635000000000005,-16.3,10.206129749999999,33.55
2021-06-21 17:05:25.945312500,-38.25,-8.0,51.0,62.634375000000006,-18.55,10.20705053125,33.55
2021-06-21 17:05:25.953125000,-38.5,-8.0,51.0,62.63375,-20.8,10.2079713125,33.55
2021-06-21 17:05:25.960937500,-38.75,-8.0,51.0,62.633125,-23.509999999999998,10.208892093749999,33.55
2021-06-21 17:05:25.968750000,-39.0,-8.0,51.0,62.6325,-26.22,10.209812874999999,33.55
2021-06-21 17:05:25.976562500,-39.0,-8.0,51.0,62.631875,-29.22,10.21073365625,33.55
2021-06-21 17:05:25.984375000,-39.0,-8.0,51.0,62.63125,-32.22,10.2116544375,33.55
2021-06-21 17:05:25.992187500,-39.0,-8.0,51.0,62.630625,-35.224999999999994,10.212575218749999,33.55
2021-06-21 17:05:26.000000000,-39.0,-8.0,51.0,62.63,-38.23,10.213496,33.55
2021-06-21 17:05:26.007812500,-38.75,-8.0,51.0,62.629375,-41.01,10.2130956875,33.55
2021-06-21 17:05:26.015625000,-38.5,-8.0,51.0,62.628750000000004,-43.79,10.212695375,33.55
2021-06-21 17:05:26.023437500,-38.25,-8.0,51.0,62.628125000000004,-46.265,10.212295062499999,33.55
2021-06-21 17:05:26.031250000,-38.0,-8.0,51.0,62.627500000000005,-48.74,10.211894749999999,33.55
2021-06-21 17:05:26.039062500,-38.0,-8.0,51.0,62.626875000000005,-51.005,10.211494437499999,33.55
2021-06-21 17:05:26.046875000,-38.0,-8.0,51.0,62.62625,-53.27,10.211094124999999,33.55
2021-06-21 17:05:26.054687500,-38.0,-8.0,51.0,62.625625,-55.5,10.210693812499999,33.55
2021-06-21 17:05:26.062500000,-38.0,-8.0,51.0,62.625,-57.73,10.210293499999999,33.55
2021-06-21 17:05:26.070312500,-38.0,-8.25,51.0,62.624375,-60.129999999999995,10.209893187499999,33.55
2021-06-21 17:05:26.078125000,-38.0,-8.5,51.0,62.62375,-62.53,10.209492874999999,33.55
2021-06-21 17:05:26.085937500,-38.0,-8.75,51.0,62.623125,-65.275,10.209092562499999,33.55
2021-06-21 17:05:26.093750000,-38.0,-9.0,51.0,62.6225,-68.02,10.208692249999999,33.55
2021-06-21 17:05:26.101562500,-38.0,-8.75,51.0,62.621875,-71.24,10.208291937499999,33.55
2021-06-21 17:05:26.109375000,-38.0,-8.5,51.0,62.62125,-74.46,10.207891624999998,33.55
2021-06-21 17:05:26.117187500,-38.0,-8.25,51.0,62.620625000000004,-78.255,10.207491312499998,33.55
2021-06-21 17:05:26.125000000,-38.0,-8.0,51.0,62.620000000000005,-82.05,10.207090999999998,33.55
2021-06-21 17:05:26.132812500,-38.0,-8.0,51.0,62.619375000000005,-86.41499999999999,10.2066906875,33.55
2021-06-21 17:05:26.140625000,-38.0,-8.0,51.0,62.61875,-90.78,10.206290375,33.55
2021-06-21 17:05:26.148437500,-38.0,-8.0,51.0,62.618125,-95.485,10.2058900625,33.55
2021-06-21 17:05:26.156250000,-38.0,-8.0,51.0,62.6175,-100.19,10.20548975,33.55
2021-06-21 17:05:26.164062500,-38.0,-8.0,51.0,62.616875,-104.62,10.2050894375,33.55
2021-06-21 17:05:26.171875000,-38.0,-8.0,51.0,62.61625,-109.05,10.204689125,33.55
2021-06-21 17:05:26.179687500,-38.0,-8.0,51.0,62.615625,-112.22,10.2042888125,33.55
2021-06-21 17:05:26.187500000,-38.0,-8.0,51.0,62.615,-115.39,10.2038885,33.55
2021-06-21 17:05:26.195312500,-38.25,-8.0,51.0,62.614375,-116.13,10.2034881875,33.55
2021-06-21 17:05:26.203125000,-38.5,-8.0,51.0,62.61375,-116.87,10.203087875,33.55
2021-06-21 17:05:26.210937500,-38.75,-8.0,51.0,62.613125000000004,-114.21000000000001,10.2026875625,33.55
2021-06-21 17:05:26.218750000,-39.0,-8.0,51.0,62.612500000000004,-111.55,10.20228725,33.55
2021-06-21 17:05:26.226562500,-39.0,-8.0,51.0,62.611875000000005,-105.09,10.2018869375,33.55
2021-06-21 17:05:26.234375000,-39.0,-8.0,51.0,62.61125,-98.63,10.201486625,33.55
2021-06-21 17:05:26.242187500,-39.0,-8.0,51.0,62.610625,-88.77,10.2010863125,33.55
2021-06-21 17:05:26.250000000,-39.0,-8.0,51.0,62.61,-78.91,10.200686,33.55
2021-06-21 17:05:26.257812500,-39.0,-8.0,51.0,62.609375,-66.775,10.20040571875,33.55
2021-06-21 17:05:26.265625000,-39.0,-8.0,51.0,62.60875,-54.64,10.200125437499999,33.55
2021-06-21 17:05:26.273437500,-39.0,-8.0,51.0,62.608125,-41.725,10.19984515625,33.55
2021-06-21 17:05:26.281250000,-39.0,-8.0,51.0,62.6075,-28.81,10.199564875,33.55
2021-06-21 17:05:26.289062500,-38.75,-8.0,51.0,62.606875,-16.535,10.199284593749999,33.55
2021-06-21 17:05:26.296875000,-38.5,-8.0,51.0,62.60625,-4.26,10.1990043125,33.55
2021-06-21 17:05:26.304687500,-38.25,-8.0,51.0,62.605625,6.365,10.19872403125,33.55
2021-06-21 17:05:26.312500000,-38.0,-8.0,51.0,62.605000000000004,16.99,10.19844375,33.55
2021-06-21 17:05:26.320312500,-38.0,-8.0,51.0,62.604375,25.5,10.19816346875,33.55
2021-06-21 17:05:26.328125000,-38.0,-8.0,51.0,62.60375,34.01,10.1978831875,33.55
2021-06-21 17:05:26.335937500,-38.0,-8.0,51.0,62.603125,40.379999999999995,10.19760290625,33.55
2021-06-21 17:05:26.343750000,-38.0,-8.0,51.0,62.6025,46.75,10.197322625,33.55
2021-06-21 17:05:26.351562500,-38.25,-8.0,51.0,62.601875,51.19,10.19704234375,33.55
2021-06-21 17:05:26.359375000,-38.5,-8.0,51.0,62.60125,55.63,10.1967620625,33.55
2021-06-21 17:05:26.367187500,-38.75,-8.0,51.0,62.600625,58.355000000000004,10.19648178125,33.55
2021-06-21 17:05:26.375000000,-39.0,-8.0,51.0,62.6,61.08,10.1962015,33.55
2021-06-21 17:05:26.382812500,-39.0,-8.0,51.0,62.599375,62.254999999999995,10.19592121875,33.55
2021-06-21 17:05:26.390625000,-39.0,-8.0,51.0,62.59875,63.43,10.1956409375,33.55
2021-06-21 17:05:26.398437500,-39.0,-8.0,51.0,62.598125,63.195,10.19536065625,33.55
2021-06-21 17:05:26.406250000,-39.0,-8.0,51.0,62.597500000000004,62.96,10.195080375,33.55
2021-06-21 17:05:26.414062500,-39.0,-8.0,51.0,62.596875,61.519999999999996,10.19480009375,33.55
2021-06-21 17:05:26.421875000,-39.0,-8.0,51.0,62.59625,60.08,10.1945198125,33.55
2021-06-21 17:05:26.429687500,-39.0,-8.0,51.0,62.595625,57.81,10.19423953125,33.55
2021-06-21 17:05:26.437500000,-39.0,-8.0,51.0,62.595,55.54,10.19395925,33.55
2021-06-21 17:05:26.445312500,-39.0,-8.0,51.0,62.594375,53.0,10.19367896875,33.55
2021-06-21 17:05:26.453125000,-39.0,-8.0,51.0,62.59375,50.46,10.1933986875,33.55
2021-06-21 17:05:26.460937500,-39.0,-8.0,51.0,62.593125,48.260000000000005,10.19311840625,33.55
2021-06-21 17:05:26.468750000,-39.0,-8.0,51.0,62.5925,46.06,10.192838125,33.55
2021-06-21 17:05:26.476562500,-38.75,-8.0,51.0,62.591875,44.745000000000005,10.19255784375,33.55
2021-06-21 17:05:26.484375000,-38.5,-8.0,51.0,62.59125,43.43,10.192277562500001,33.55
2021-06-21 17:05:26.492187500,-38.25,-8.0,51.0,62.590625,43.29,10.19199728125,33.55
2021-06-21 17:05:26.500000000,-38.0,-8.0,51.0,62.59,43.15,10.191717,33.55
2021-06-21 17:05:26.507812500,-38.25,-8.0,51.0,62.589375,44.155,10.190676125000001,33.55
2021-06-21 17:05:26.515625000,-38.5,-8.0,51.0,62.58875,45.16,10.18963525,33.55
2021-06-21 17:05:26.523437500,-38.75,-8.0,51.0,62.588125,47.01,10.188594375000001,33.55
2021-06-21 17:05:26.531250000,-39.0,-8.0,51.0,62.5875,48.86,10.1875535,33.55
2021-06-21 17:05:26.539062500,-39.0,-8.0,51.0,62.586875,51.09,10.186512625,33.55
2021-06-21 17:05:26.546875000,-39.0,-8.0,51.0,62.58625,53.32,10.185471750000001,33.55
2021-06-21 17:05:26.554687500,-39.0,-8.0,51.0,62.585625,55.504999999999995,10.184430875,33.55
2021-06-21 17:05:26.562500000,-39.0,-8.0,51.0,62.585,57.69,10.183390000000001,33.55
2021-06-21 17:05:26.570312500,-39.0,-8.0,51.0,62.584375,59.54,10.182349125,33.55
2021-06-21 17:05:26.578125000,-39.0,-8.0,51.0,62.58375,61.39,10.18130825,33.55
2021-06-21 17:05:26.585937500,-39.0,-8.0,51.0,62.583125,62.785000000000004,10.180267375000001,33.55
2021-06-21 17:05:26.593750000,-39.0,-8.0,51.0,62.582499999999996,64.18,10.1792265,33.55
2021-06-21 17:05:26.601562500,-39.0,-8.0,51.0,62.581875,65.12,10.178185625000001,33.55
2021-06-21 17:05:26.609375000,-39.0,-8.0,51.0,62.58125,66.06,10.17714475,33.55
2021-06-21 17:05:26.617187500,-39.0,-8.0,51.0,62.580625,66.55000000000001,10.176103875,33.55
2021-06-21 17:05:26.625000000,-39.0,-8.0,51.0,62.58,67.04,10.175063000000002,33.55
2021-06-21 17:05:26.632812500,-38.75,-8.0,51.0,62.579375,67.025,10.174022125,33.55
2021-06-21 17:05:26.640625000,-38.5,-8.0,51.0,62.57875,67.01,10.172981250000001,33.55
2021-06-21 17:05:26.648437500,-38.25,-8.0,51.0,62.578125,66.41,10.171940375,33.55
2021-06-21 17:05:26.656250000,-38.0,-8.0,51.0,62.5775,65.81,10.1708995,33.55
2021-06-21 17:05:26.664062500,-38.25,-8.0,51.0,62.576875,64.57,10.169858625,33.55
2021-06-21 17:05:26.671875000,-38.5,-8.0,51.0,62.57625,63.33,10.16881775,33.55
2021-06-21 17:05:26.679687500,-38.75,-8.0,51.0,62.575625,61.474999999999994,10.167776875000001,33.55
2021-06-21 17:05:26.687500000,-39.0,-8.0,51.0,62.574999999999996,59.62,10.166736,33.55
2021-06-21 17:05:26.695312500,-39.0,-8.0,51.0,62.574374999999996,57.295,10.165695125000001,33.55
2021-06-21 17:05:26.703125000,-39.0,-8.0,51.0,62.57375,54.97,10.16465425,33.55
2021-06-21 17:05:26.710937500,-39.0,-8.0,51.0,62.573125,52.394999999999996,10.163613375,33.55
2021-06-21 17:05:26.718750000,-39.0,-8.0,51.0,62.5725,49.82,10.162572500000001,33.55
2021-06-21 17:05:26.726562500,-39.0,-8.0,51.0,62.571875,47.21,10.161531625,33.55
2021-06-21 17:05:26.734375000,-39.0,-8.0,51.0,62.57125,44.6,10.160490750000001,33.55
2021-06-21 17:05:26.742187500,-39.0,-8.0,51.0,62.570625,42.135000000000005,10.159449875,33.55
2021-06-21 17:05:26.750000000,-39.0,-8.0,51.0,62.57,39.67,10.158409,33.55
2021-06-21 17:05:26.757812500,-39.0,-8.0,51.0,62.569375,37.425,10.15880934375,33.55
2021-06-21 17:05:26.765625000,-39.0,-8.0,51.0,62.56875,35.18,10.1592096875,33.55
2021-06-21 17:05:26.773437500,-39.0,-8.0,51.0,62.568124999999995,33.135,10.15961003125,33.55
2021-06-21 17:05:26.781250000,-39.0,-8.0,51.0,62.567499999999995,31.09,10.160010375,33.55
2021-06-21 17:05:26.789062500,-39.0,-8.0,51.0,62.566874999999996,29.185000000000002,10.16041071875,33.55
2021-06-21 17:05:26.796875000,-39.0,-8.0,51.0,62.56625,27.28,10.1608110625,33.55
2021-06-21 17:05:26.804687500,-39.0,-8.0,51.0,62.565625,25.42,10.16121140625,33.55
2021-06-21 17:05:26.812500000,-39.0,-8.0,51.0,62.565,23.56,10.16161175,33.55
2021-06-21 17:05:26.820312500,-39.0,-8.0,51.0,62.564375,21.67,10.16201209375,33.55
2021-06-21 17:05:26.828125000,-39.0,-8.0,51.0,62.56375,19.78,10.1624124375,33.55
2021-06-21 17:05:26.835937500,-39.0,-8.0,51.0,62.563125,17.830000000000002,10.16281278125,33.55
2021-06-21 17:05:26.843750000,-39.0,-8.0,51.0,62.5625,15.88,10.163213125,33.55
2021-06-21 17:05:26.851562500,-39.0,-8.0,51.0,62.561875,13.915,10.16361346875,33.55
2021-06-21 17:05:26.859375000,-39.0,-8.0,51.0,62.56125,11.95,10.1640138125,33.55
2021-06-21 17:05:26.867187500,-39.0,-8.0,51.0,62.560624999999995,10.03,10.16441415625,33.55
2021-06-21 17:05:26.875000000,-39.0,-8.0,51.0,62.559999999999995,8.11,10.1648145,33.55
2021-06-21 17:05:26.882812500,-39.0,-8.0,51.0,62.559374999999996,6.32,10.16521484375,33.55
2021-06-21 17:05:26.890625000,-39.0,-8.0,51.0,62.558749999999996,4.53,10.1656151875,33.55
2021-06-21 17:05:26.898437500,-39.0,-8.0,51.0,62.558125,2.89,10.16601553125,33.55
2021-06-21 17:05:26.906250000,-39.0,-8.0,51.0,62.5575,1.25,10.166415875,33.55
2021-06-21 17:05:26.914062500,-38.75,-8.0,51.0,62.556875,-0.33000000000000007,10.16681621875,33.55
2021-06-21 17:05:26.921875000,-38.5,-8.0,51.0,62.55625,-1.91,10.1672165625,33.55
2021-06-21 17:05:26.929687500,-38.25,-8.0,51.0,62.555625,-3.6099999999999994,10.16761690625,33.55
2021-06-21 17:05:26.937500000,-38.0,-8.0,51.0,62.555,-5.31,10.16801725,33.55
2021-06-21 17:05:26.945312500,-38.25,-8.0,51.0,62.554375,-7.365,10.16841759375,33.55
2021-06-21 17:05:26.953125000,-38.5,-8.0,51.0,62.55375,-9.42,10.1688179375,33.55
2021-06-21 17:05:26.960937500,-38.75,-8.0,51.0,62.553124999999994,-12.015,10.16921828125,33.55
2021-06-21 17:05:26.968750000,-39.0,-8.0,51.0,62.552499999999995,-14.61,10.169618625,33.55
2021-06-21 17:05:26.976562500,-39.0,-8.0,51.0,62.551874999999995,-17.785,10.17001896875,33.55
2021-06-21 17:05:26.984375000,-39.0,-8.0,51.0,62.551249999999996,-20.96,10.1704193125,33.55
2021-06-21 17:05:26.992187500,-39.0,-8.0,51.0,62.550625,-24.575000000000003,10.17081965625,33.55
2021-06-21 17:05:27.000000000,-39.0,-8.0,51.0,62.55,-28.19,10.17122,33.55
2021-06-21 17:05:27.007812500,-39.0,-8.0,51.0,62.549140625,-31.935000000000002,10.1702991875,33.550625
2021-06-21 17:05:27.015625000,-39.0,-8.0,51.0,62.548281249999995,-35.68,10.169378375,33.551249999999996
2021-06-21 17:05:27.023437500,-39.0,-8.0,51.0,62.547421875,-39.22,10.1684575625,33.551874999999995
2021-06-21 17:05:27.031250000,-39.0,-8.0,51.0,62.5465625,-42.76,10.16753675,33.552499999999995
2021-06-21 17:05:27.039062500,-39.0,-8.0,51.0,62.545703124999996,-45.834999999999994,10.1666159375,33.553124999999994
2021-06-21 17:05:27.046875000,-39.0,-8.0,51.0,62.54484375,-48.91,10.165695125,33.55375
2021-06-21 17:05:27.054687500,-39.0,-8.0,51.0,62.543984374999994,-51.435,10.1647743125,33.554375
2021-06-21 17:05:27.062500000,-39.0,-8.0,51.0,62.543124999999996,-53.96,10.1638535,33.555
2021-06-21 17:05:27.070312500,-39.0,-8.0,51.0,62.542265625,-56.045,10.1629326875,33.555625
2021-06-21 17:05:27.078125000,-39.0,-8.0,51.0,62.541406249999994,-58.13,10.162011875000001,33.55625
2021-06-21 17:05:27.085937500,-39.0,-8.0,51.0,62.540546875,-60.015,10.1610910625,33.556875
2021-06-21 17:05:27.093750000,-39.0,-8.0,51.0,62.5396875,-61.9,10.16017025,33.5575
2021-06-21 17:05:27.101562500,-39.0,-8.0,51.0,62.538828124999995,-63.885000000000005,10.1592494375,33.558125
2021-06-21 17:05:27.109375000,-39.0,-8.0,51.0,62.53796875,-65.87,10.158328625,33.558749999999996
2021-06-21 17:05:27.117187500,-39.0,-8.0,51.0,62.537109375,-68.265,10.1574078125,33.559374999999996
2021-06-21 17:05:27.125000000,-39.0,-8.0,51.0,62.536249999999995,-70.66,10.156487,33.56
2021-06-21 17:05:27.132812500,-39.0,-8.0,51.0,62.535390625,-73.715,10.1555661875,33.560625
2021-06-21 17:05:27.140625000,-39.0,-8.0,51.0,62.53453125,-76.77,10.154645375000001,33.56125
2021-06-21 17:05:27.148437500,-39.0,-8.0,51.0,62.533671874999996,-80.61,10.1537245625,33.561875
2021-06-21 17:05:27.156250000,-39.0,-8.0,51.0,62.5328125,-84.45,10.15280375,33.5625
2021-06-21 17:05:27.164062500,-38.75,-8.0,51.0,62.531953124999994,-88.975,10.1518829375,33.563125
2021-06-21 17:05:27.171875000,-38.5,-8.0,51.0,62.53109375,-93.5,10.150962125,33.56375
2021-06-21 17:05:27.179687500,-38.25,-8.0,51.0,62.530234375,-98.22,10.1500413125,33.564375
2021-06-21 17:05:27.187500000,-38.0,-8.0,51.0,62.529374999999995,-102.94,10.1491205,33.565
2021-06-21 17:05:27.195312500,-38.0,-8.0,51.0,62.528515625,-106.99000000000001,10.1481996875,33.565625
2021-06-21 17:05:27.203125000,-38.0,-8.0,51.0,62.52765625,-111.04,10.147278875000001,33.56625
2021-06-21 17:05:27.210937500,-38.0,-8.0,51.0,62.526796874999995,-113.275,10.146358062500001,33.566875
2021-06-21 17:05:27.218750000,-38.0,-8.0,51.0,62.5259375,-115.51,10.14543725,33.5675
2021-06-21 17:05:27.226562500,-38.25,-8.0,51.0,62.525078125,-114.83000000000001,10.1445164375,33.568125
2021-06-21 17:05:27.234375000,-38.5,-8.0,51.0,62.524218749999996,-114.15,10.143595625,33.56875
2021-06-21 17:05:27.242187500,-38.75,-8.0,51.0,62.523359375,-109.85,10.142674812500001,33.569375
2021-06-21 17:05:27.250000000,-39.0,-8.0,51.0,62.522499999999994,-105.55,10.141754,33.57
2021-06-21 17:05:27.257812500,-39.0,-8.0,51.0,62.521640624999996,-97.625,10.1421143125,33.57
2021-06-21 17:05:27.265625000,-39.0,-8.0,51.0,62.52078125,-89.7,10.142474625,33.57
2021-06-21 17:05:27.273437500,-39.0,-8.0,51.0,62.519921874999994,-78.905,10.1428349375,33.57
2021-06-21 17:05:27.281250000,-39.0,-8.0,51.0,62.5190625,-68.11,10.14319525,33.57
2021-06-21 17:05:27.289062500,-39.0,-8.0,51.0,62.518203125,-55.739999999999995,10.1435555625,33.57
2021-06-21 17:05:27.296875000,-39.0,-8.0,51.0,62.517343749999995,-43.37,10.143915875000001,33.57
2021-06-21 17:05:27.304687500,-39.0,-8.0,51.0,62.516484375,-30.909999999999997,10.144276187500001,33.57
2021-06-21 17:05:27.312500000,-39.0,-8.0,51.0,62.515625,-18.45,10.1446365,33.57
2021-06-21 17:05:27.320312500,-39.0,-8.0,51.0,62.514765624999995,-7.18,10.1449968125,33.57
2021-06-21 17:05:27.328125000,-39.0,-8.0,51.0,62.51390625,4.09,10.145357125,33.57
2021-06-21 17:05:27.335937500,-39.0,-8.0,51.0,62.513046875,13.34,10.1457174375,33.57
2021-06-21 17:05:27.343750000,-39.0,-8.0,51.0,62.512187499999996,22.59,10.14607775,33.57
2021-06-21 17:05:27.351562500,-39.0,-8.0,51.0,62.511328125,29.47,10.1464380625,33.57
2021-06-21 17:05:27.359375000,-39.0,-8.0,51.0,62.510468749999994,36.35,10.146798375,33.57
2021-06-21 17:05:27.367187500,-39.0,-8.0,51.0,62.509609375,40.91,10.1471586875,33.57
2021-06-21 17:05:27.375000000,-39.0,-8.0,51.0,62.50875,45.47,10.147518999999999,33.57
2021-06-21 17:05:27.382812500,-38.75,-8.0,51.0,62.507890624999995,47.955,10.1478793125,33.57
2021-06-21 17:05:27.390625000,-38.5,-8.0,51.0,62.50703125,50.44,10.148239625,33.57
2021-06-21 17:05:27.398437500,-38.25,-8.0,51.0,62.506171875,51.230000000000004,10.1485999375,33.57
2021-06-21 17:05:27.406250000,-38.0,-8.0,51.0,62.505312499999995,52.02,10.14896025,33.57
2021-06-21 17:05:27.414062500,-38.25,-8.0,51.0,62.504453125,51.5,10.1493205625,33.57
2021-06-21 17:05:27.421875000,-38.5,-8.0,51.0,62.50359375,50.98,10.149680875,33.57
