TimeStamp,empatica.acc.x,empatica.acc.y,empatica.acc.z,empatica.hr,empatica.bvp,empatica.eda,empatica.temp
2021-06-21 17:15:05.218750000,-43.0,-14.0,46.0,65.33,41.22,15.396188625,33.75
2021-06-21 17:15:05.226562500,-43.0,-14.0,46.0,65.33,41.71,15.39598846875,33.75
2021-06-21 17:15:05.234375000,-43.0,-14.0,46.0,65.33,42.2,15.3957883125,33.75
2021-06-21 17:15:05.242187500,-43.0,-14.0,46.0,65.33,43.650000000000006,15.39558815625,33.75
2021-06-21 17:15:05.250000000,-43.0,-14.0,46.0,65.33,45.1,15.395388,33.75
2021-06-21 17:15:05.257812500,-43.0,-14.0,46.0,65.33,47.150000000000006,15.3941469375,33.75
2021-06-21 17:15:05.265625000,-43.0,-14.0,46.0,65.33,49.2,15.392905875,33.75
2021-06-21 17:15:05.273437500,-43.0,-14.0,46.0,65.33,51.41,15.3916648125,33.75
2021-06-21 17:15:05.281250000,-43.0,-14.0,46.0,65.33,53.62,15.39042375,33.75
2021-06-21 17:15:05.289062500,-43.0,-14.0,46.0,65.33,55.59,15.3891826875,33.75
2021-06-21 17:15:05.296875000,-43.0,-14.0,46.0,65.33,57.56,15.387941625,33.75
2021-06-21 17:15:05.304687500,-43.0,-14.0,46.0,65.33,59.06,15.3867005625,33.75
2021-06-21 17:15:05.312500000,-43.0,-14.0,46.0,65.33,60.56,15.3854595,33.75
2021-06-21 17:15:05.320312500,-43.0,-14.0,46.0,65.33,61.565,15.384218437500001,33.75
2021-06-21 17:15:05.328125000,-43.0,-14.0,46.0,65.33,62.57,15.382977375000001,33.75
2021-06-21 17:15:05.335937500,-43.0,-14.0,46.0,65.33,63.175,15.381736312500001,33.75
2021-06-21 17:15:05.343750000,-43.0,-14.0,46.0,65.33,63.78,15.380495250000001,33.75
2021-06-21 17:15:05.351562500,-43.0,-14.0,46.0,65.33,64.08,15.3792541875,33.75
2021-06-21 17:15:05.359375000,-43.0,-14.0,46.0,65.33,64.38,15.378013125,33.75
2021-06-21 17:15:05.367187500,-43.0,-14.0,46.0,65.33,64.37,15.3767720625,33.75
2021-06-21 17:15:05.375000000,-43.0,-14.0,46.0,65.33,64.36,15.375531,33.75
2021-06-21 17:15:05.382812500,-43.0,-14.0,46.0,65.33,63.965,15.3742899375,33.75
2021-06-21 17:15:05.390625000,-43.0,-14.0,46.0,65.33,63.57,15.373048875,33.75
2021-06-21 17:15:05.398437500,-43.0,-14.0,46.0,65.33,62.665,15.3718078125,33.75
2021-06-21 17:15:05.406250000,-43.0,-14.0,46.0,65.33,61.76,15.37056675,33.75
2021-06-21 17:15:05.414062500,-43.0,-14.0,46.0,65.33,60.295,15.3693256875,33.75
2021-06-21 17:15:05.421875000,-43.0,-14.0,46.0,65.33,58.83,15.368084625,33.75
2021-06-21 17:15:05.429687500,-43.0,-14.0,46.0,65.33,56.845,15.3668435625,33.75
2021-06-21 17:15:05.437500000,-43.0,-14.0,46.0,65.33,54.86,15.365602500000001,33.75
2021-06-21 17:15:05.445312500,-43.0,-14.0,46.0,65.33,52.504999999999995,15.364361437500001,33.75
2021-06-21 17:15:05.453125000,-43.0,-14.0,46.0,65.33,50.15,15.363120375000001,33.75
2021-06-21 17:15:05.460937500,-43.0,-14.0,46.0,65.33,47.65,15.361879312500001,33.75
2021-06-21 17:15:05.468750000,-43.0,-14.0,46.0,65.33,45.15,15.360638250000001,33.75
2021-06-21 17:15:05.476562500,-43.0,-14.0,46.0,65.33,42.71,15.3593971875,33.75
2021-06-21 17:15:05.484375000,-43.0,-14.0,46.0,65.33,40.27,15.358156125,33.75
2021-06-21 17:15:05.492187500,-43.0,-14.0,46.0,65.33,38.06,15.3569150625,33.75
2021-06-21 17:15:05.500000000,-43.0,-14.0,46.0,65.33,35.85,15.355674,33.75
2021-06-21 17:15:05.507812500,-43.0,-14.0,46.0,65.33,33.935,15.356114375,33.75
2021-06-21 17:15:05.515625000,-43.0,-14.0,46.0,65.33,32.02,15.35655475,33.75
2021-06-21 17:15:05.523437500,-43.0,-14.0,46.0,65.33,30.355000000000004,15.356995125000001,33.75
2021-06-21 17:15:05.531250000,-43.0,-14.0,46.0,65.33,28.69,15.357435500000001,33.75
2021-06-21 17:15:05.539062500,-43.0,-14.0,46.0,65.33,27.14,15.357875875000001,33.75
2021-06-21 17:15:05.546875000,-43.0,-14.0,46.0,65.33,25.59,15.35831625,33.75
2021-06-21 17:15:05.554687500,-43.0,-14.0,46.0,65.33,23.96,15.358756625,33.75
2021-06-21 17:15:05.562500000,-43.0,-14.0,46.0,65.33,22.33,15.359197,33.75
2021-06-21 17:15:05.570312500,-43.0,-14.0,46.0,65.33,20.46,15.359637375,33.75
2021-06-21 17:15:05.578125000,-43.0,-14.0,46.0,65.33,18.59,15.36007775,33.75
2021-06-21 17:15:05.585937500,-43.0,-14.0,46.0,65.33,16.43,15.360518125,33.75
2021-06-21 17:15:05.593750000,-43.0,-14.0,46.0,65.33,14.27,15.3609585,33.75
2021-06-21 17:15:05.601562500,-43.0,-14.0,46.0,65.33,11.92,15.361398875,33.75
2021-06-21 17:15:05.609375000,-43.0,-14.0,46.0,65.33,9.57,15.361839250000001,33.75
2021-06-21 17:15:05.617187500,-43.0,-14.0,46.0,65.33,7.235,15.362279625000001,33.75
2021-06-21 17:15:05.625000000,-43.0,-14.0,46.0,65.33,4.9,15.36272,33.75
2021-06-21 17:15:05.632812500,-43.0,-14.0,46.0,65.33,2.7800000000000002,15.363160375,33.75
2021-06-21 17:15:05.640625000,-43.0,-14.0,46.0,65.33,0.66,15.36360075,33.75
2021-06-21 17:15:05.648437500,-43.0,-14.0,46.0,65.33,-1.1550000000000002,15.364041125,33.75
2021-06-21 17:15:05.656250000,-43.0,-14.0,46.0,65.33,-2.97,15.3644815,33.75
2021-06-21 17:15:05.664062500,-43.0,-14.0,46.0,65.33,-4.585,15.364921875,33.75
2021-06-21 17:15:05.671875000,-43.0,-14.0,46.0,65.33,-6.2,15.36536225,33.75
2021-06-21 17:15:05.679687500,-43.0,-14.0,46.0,65.33,-7.885,15.365802625,33.75
2021-06-21 17:15:05.687500000,-43.0,-14.0,46.0,65.33,-9.57,15.366243,33.75
2021-06-21 17:15:05.695312500,-43.0,-14.0,46.0,65.33,-11.61,15.366683375000001,33.75
2021-06-21 17:15:05.703125000,-43.0,-14.0,46.0,65.33,-13.65,15.367123750000001,33.75
2021-06-21 17:15:05.710937500,-43.0,-14.0,46.0,65.33,-16.21,15.367564125,33.75
2021-06-21 17:15:05.718750000,-43.0,-14.0,46.0,65.33,-18.77,15.3680045,33.75
2021-06-21 17:15:05.726562500,-43.0,-14.0,46.0,65.33,-21.814999999999998,15.368444875,33.75
2021-06-21 17:15:05.734375000,-43.0,-14.0,46.0,65.33,-24.86,15.36888525,33.75
2021-06-21 17:15:05.742187500,-43.0,-14.0,46.0,65.33,-28.15,15.369325625,33.75
2021-06-21 17:15:05.750000000,-43.0,-14.0,46.0,65.33,-31.44,15.369766,33.75
2021-06-21 17:15:05.757812500,-43.0,-14.0,46.0,65.33,-34.65,15.36884521875,33.75
2021-06-21 17:15:05.765625000,-43.0,-14.0,46.0,65.33,-37.86,15.367924437500001,33.75
2021-06-21 17:15:05.773437500,-43.0,-14.0,46.0,65.33,-40.730000000000004,15.36700365625,33.75
2021-06-21 17:15:05.781250000,-43.0,-14.0,46.0,65.33,-43.6,15.366082875,33.75
2021-06-21 17:15:05.789062500,-43.0,-14.0,46.0,65.33,-46.06,15.36516209375,33.75
2021-06-21 17:15:05.796875000,-43.0,-14.0,46.0,65.33,-48.52,15.3642413125,33.75
2021-06-21 17:15:05.804687500,-43.0,-14.0,46.0,65.33,-50.68000000000001,15.36332053125,33.75
2021-06-21 17:15:05.812500000,-43.0,-14.0,46.0,65.33,-52.84,15.36239975,33.75
2021-06-21 17:15:05.820312500,-43.0,-14.0,46.0,65.33,-54.96,15.361478968750001,33.75
2021-06-21 17:15:05.828125000,-43.0,-14.0,46.0,65.33,-57.08,15.3605581875,33.75
2021-06-21 17:15:05.835937500,-43.0,-14.0,46.0,65.33,-59.42,15.35963740625,33.75
2021-06-21 17:15:05.843750000,-43.0,-14.0,46.0,65.33,-61.76,15.358716625,33.75
2021-06-21 17:15:05.851562500,-43.0,-14.0,46.0,65.33,-64.545,15.35779584375,33.75
2021-06-21 17:15:05.859375000,-43.0,-14.0,46.0,65.33,-67.33,15.3568750625,33.75
2021-06-21 17:15:05.867187500,-43.0,-14.0,46.0,65.33,-70.68,15.35595428125,33.75
2021-06-21 17:15:05.875000000,-43.0,-14.0,46.0,65.33,-74.03,15.355033500000001,33.75
2021-06-21 17:15:05.882812500,-43.0,-14.0,46.0,65.33,-77.99000000000001,15.35411271875,33.75
2021-06-21 17:15:05.890625000,-43.0,-14.0,46.0,65.33,-81.95,15.3531919375,33.75
2021-06-21 17:15:05.898437500,-43.0,-14.0,46.0,65.33,-86.41,15.35227115625,33.75
2021-06-21 17:15:05.906250000,-43.0,-14.0,46.0,65.33,-90.87,15.351350375,33.75
2021-06-21 17:15:05.914062500,-43.0,-14.0,46.0,65.33,-95.505,15.35042959375,33.75
2021-06-21 17:15:05.921875000,-43.0,-14.0,46.0,65.33,-100.14,15.3495088125,33.75
2021-06-21 17:15:05.929687500,-43.0,-14.0,46.0,65.33,-104.34,15.34858803125,33.75
2021-06-21 17:15:05.937500000,-43.0,-14.0,46.0,65.33,-108.54,15.34766725,33.75
2021-06-21 17:15:05.945312500,-42.75,-14.0,46.0,65.33,-111.42500000000001,15.34674646875,33.75
2021-06-21 17:15:05.953125000,-42.5,-14.0,46.0,65.33,-114.31,15.3458256875,33.75
2021-06-21 17:15:05.960937500,-42.25,-14.0,46.0,65.33,-114.875,15.344904906250001,33.75
2021-06-21 17:15:05.968750000,-42.0,-14.0,46.0,65.33,-115.44,15.343984125,33.75
2021-06-21 17:15:05.976562500,-42.25,-14.0,46.0,65.33,-112.86,15.34306334375,33.75
2021-06-21 17:15:05.984375000,-42.5,-14.0,46.0,65.33,-110.28,15.3421425625,33.75
2021-06-21 17:15:05.992187500,-42.75,-14.0,46.0,65.33,-104.23,15.34122178125,33.75
2021-06-21 17:15:06.000000000,-43.0,-14.0,46.0,65.33,-98.18,15.340301,33.75
2021-06-21 17:15:06.007812500,-43.0,-14.0,46.0,65.33,-89.025,15.340901500000001,33.750625
2021-06-21 17:15:06.015625000,-43.0,-14.0,46.0,65.33,-79.87,15.341502,33.75125
2021-06-21 17:15:06.023437500,-43.0,-14.0,46.0,65.33,-68.65,15.3421025,33.751875
2021-06-21 17:15:06.031250000,-43.0,-14.0,46.0,65.33,-57.43,15.342703,33.7525
2021-06-21 17:15:06.039062500,-43.0,-14.0,46.0,65.33,-45.55,15.343303500000001,33.753125
2021-06-21 17:15:06.046875000,-43.0,-14.0,46.0,65.33,-33.67,15.343904,33.753750000000004
2021-06-21 17:15:06.054687500,-43.0,-14.0,46.0,65.33,-22.47,15.3445045,33.754375
2021-06-21 17:15:06.062500000,-43.0,-14.0,46.0,65.33,-11.27,15.345105,33.755
2021-06-21 17:15:06.070312500,-42.75,-14.0,46.0,65.33,-1.6899999999999995,15.345705500000001,33.755625
2021-06-21 17:15:06.078125000,-42.5,-14.0,46.0,65.33,7.89,15.346306,33.75625
2021-06-21 17:15:06.085937500,-42.25,-14.0,46.0,65.33,15.5,15.3469065,33.756875
2021-06-21 17:15:06.093750000,-42.0,-14.0,46.0,65.33,23.11,15.347507,33.7575
2021-06-21 17:15:06.101562500,-42.25,-14.0,46.0,65.33,28.895,15.348107500000001,33.758125
2021-06-21 17:15:06.109375000,-42.5,-14.0,46.0,65.33,34.68,15.348708,33.75875
2021-06-21 17:15:06.117187500,-42.75,-14.0,46.0,65.33,39.015,15.3493085,33.759375
2021-06-21 17:15:06.125000000,-43.0,-14.0,46.0,65.33,43.35,15.349909,33.760000000000005
2021-06-21 17:15:06.132812500,-43.0,-14.0,46.0,65.33,46.615,15.350509500000001,33.760625000000005
2021-06-21 17:15:06.140625000,-43.0,-14.0,46.0,65.33,49.88,15.35111,33.761250000000004
2021-06-21 17:15:06.148437500,-43.0,-14.0,46.0,65.33,52.260000000000005,15.3517105,33.761875
2021-06-21 17:15:06.156250000,-43.0,-14.0,46.0,65.33,54.64,15.352311,33.7625
2021-06-21 17:15:06.164062500,-43.0,-14.25,46.0,65.33,56.16,15.352911500000001,33.763125
2021-06-21 17:15:06.171875000,-43.0,-14.5,46.0,65.33,57.68,15.353512,33.76375
2021-06-21 17:15:06.179687500,-43.0,-14.75,46.0,65.33,58.315,15.3541125,33.764375
2021-06-21 17:15:06.187500000,-43.0,-15.0,46.0,65.33,58.95,15.354713,33.765
2021-06-21 17:15:06.195312500,-43.0,-15.0,46.0,65.33,58.775000000000006,15.355313500000001,33.765625
2021-06-21 17:15:06.203125000,-43.0,-15.0,46.0,65.33,58.6,15.355914,33.76625
2021-06-21 17:15:06.210937500,-43.0,-15.0,46.0,65.33,57.855000000000004,15.3565145,33.766875000000006
2021-06-21 17:15:06.218750000,-43.0,-15.0,46.0,65.33,57.11,15.357115,33.767500000000005
2021-06-21 17:15:06.226562500,-43.0,-15.0,46.0,65.33,56.18,15.357715500000001,33.768125000000005
2021-06-21 17:15:06.234375000,-43.0,-15.0,46.0,65.33,55.25,15.358316,33.768750000000004
2021-06-21 17:15:06.242187500,-43.0,-15.0,46.0,65.33,54.525,15.3589165,33.769375000000004
2021-06-21 17:15:06.250000000,-43.0,-15.0,46.0,65.33,53.8,15.359517,33.77
2021-06-21 17:15:06.257812500,-42.75,-14.75,46.0,65.33,53.57,15.359717187500001,33.77
2021-06-21 17:15:06.265625000,-42.5,-14.5,46.0,65.33,53.34,15.359917375,33.77
2021-06-21 17:15:06.273437500,-42.25,-14.25,46.0,65.33,53.705,15.360117562500001,33.77
2021-06-21 17:15:06.281250000,-42.0,-14.0,46.0,65.33,54.07,15.36031775,33.77
2021-06-21 17:15:06.289062500,-42.25,-14.25,46.0,65.33,54.95,15.360517937500001,33.77
2021-06-21 17:15:06.296875000,-42.5,-14.5,46.0,65.33,55.83,15.360718125,33.77
2021-06-21 17:15:06.304687500,-42.75,-14.75,46.0,65.33,57.045,15.3609183125,33.77
2021-06-21 17:15:06.312500000,-43.0,-15.0,46.0,65.33,58.26,15.3611185,33.77
2021-06-21 17:15:06.320312500,-43.0,-15.0,46.0,65.33,59.61,15.3613186875,33.77
2021-06-21 17:15:06.328125000,-43.0,-15.0,46.0,65.33,60.96,15.361518875,33.77
2021-06-21 17:15:06.335937500,-43.0,-15.0,46.0,65.33,62.305,15.3617190625,33.77
2021-06-21 17:15:06.343750000,-43.0,-15.0,46.0,65.33,63.65,15.36191925,33.77
2021-06-21 17:15:06.351562500,-43.0,-15.0,46.0,65.33,64.87,15.3621194375,33.77
2021-06-21 17:15:06.359375000,-43.0,-15.0,46.0,65.33,66.09,15.362319625,33.77
2021-06-21 17:15:06.367187500,-43.0,-15.0,46.0,65.33,67.095,15.3625198125,33.77
2021-06-21 17:15:06.375000000,-43.0,-15.0,46.0,65.33,68.1,15.36272,33.77
2021-06-21 17:15:06.382812500,-42.75,-15.0,46.0,65.33,68.755,15.3629201875,33.77
2021-06-21 17:15:06.390625000,-42.5,-15.0,46.0,65.33,69.41,15.363120375000001,33.77
2021-06-21 17:15:06.398437500,-42.25,-15.0,46.0,65.33,69.57499999999999,15.3633205625,33.77
2021-06-21 17:15:06.406250000,-42.0,-15.0,46.0,65.33,69.74,15.363520750000001,33.77
2021-06-21 17:15:06.414062500,-42.0,-15.0,46.0,65.33,69.29499999999999,15.3637209375,33.77
2021-06-21 17:15:06.421875000,-42.0,-15.0,46.0,65.33,68.85,15.363921125000001,33.77
2021-06-21 17:15:06.429687500,-42.0,-15.0,46.0,65.33,67.765,15.3641213125,33.77
2021-06-21 17:15:06.437500000,-42.0,-15.0,46.0,65.33,66.68,15.3643215,33.77
2021-06-21 17:15:06.445312500,-42.25,-15.0,46.0,65.33,65.055,15.3645216875,33.77
2021-06-21 17:15:06.453125000,-42.5,-15.0,46.0,65.33,63.43,15.364721875,33.77
2021-06-21 17:15:06.460937500,-42.75,-15.0,46.0,65.33,61.485,15.3649220625,33.77
2021-06-21 17:15:06.468750000,-43.0,-15.0,46.0,65.33,59.54,15.36512225,33.77
2021-06-21 17:15:06.476562500,-43.0,-15.0,46.0,65.33,57.504999999999995,15.3653224375,33.77
2021-06-21 17:15:06.484375000,-43.0,-15.0,46.0,65.33,55.47,15.365522625,33.77
2021-06-21 17:15:06.492187500,-43.0,-15.0,46.0,65.33,53.525,15.3657228125,33.77
2021-06-21 17:15:06.500000000,-43.0,-15.0,46.0,65.33,51.58,15.365923,33.77
2021-06-21 17:15:06.507812500,-42.75,-15.0,46.0,65.33,49.754999999999995,15.36740425,33.77
2021-06-21 17:15:06.515625000,-42.5,-15.0,46.0,65.33,47.93,15.368885500000001,33.77
2021-06-21 17:15:06.523437500,-42.25,-15.0,46.0,65.33,46.155,15.37036675,33.77
2021-06-21 17:15:06.531250000,-42.0,-15.0,46.0,65.33,44.38,15.371848,33.77
2021-06-21 17:15:06.539062500,-42.25,-15.0,46.0,65.33,42.510000000000005,15.373329250000001,33.77
2021-06-21 17:15:06.546875000,-42.5,-15.0,46.0,65.33,40.64,15.3748105,33.77
2021-06-21 17:15:06.554687500,-42.75,-15.0,46.0,65.33,38.585,15.37629175,33.77
2021-06-21 17:15:06.562500000,-43.0,-15.0,46.0,65.33,36.53,15.377773000000001,33.77
2021-06-21 17:15:06.570312500,-43.0,-15.0,46.0,65.33,34.305,15.37925425,33.77
2021-06-21 17:15:06.578125000,-43.0,-15.0,46.0,65.33,32.08,15.3807355,33.77
2021-06-21 17:15:06.585937500,-43.0,-15.0,46.0,65.33,29.77,15.38221675,33.77
2021-06-21 17:15:06.593750000,-43.0,-15.0,46.0,65.33,27.46,15.383698,33.77
2021-06-21 17:15:06.601562500,-43.0,-15.0,46.0,65.33,25.195,15.38517925,33.77
2021-06-21 17:15:06.609375000,-43.0,-15.0,46.0,65.33,22.93,15.3866605,33.77
2021-06-21 17:15:06.617187500,-43.0,-15.0,46.0,65.33,20.78,15.38814175,33.77
2021-06-21 17:15:06.625000000,-43.0,-15.0,46.0,65.33,18.63,15.389623,33.77
2021-06-21 17:15:06.632812500,-42.75,-15.0,46.0,65.33,16.6,15.39110425,33.77
2021-06-21 17:15:06.640625000,-42.5,-15.0,46.0,65.33,14.57,15.392585500000001,33.77
2021-06-21 17:15:06.648437500,-42.25,-15.0,46.0,65.33,12.605,15.39406675,33.77
2021-06-21 17:15:06.656250000,-42.0,-15.0,46.0,65.33,10.64,15.395548,33.77
2021-06-21 17:15:06.664062500,-42.0,-15.0,46.0,65.33,8.715,15.397029250000001,33.77
2021-06-21 17:15:06.671875000,-42.0,-15.0,46.0,65.33,6.79,15.3985105,33.77
2021-06-21 17:15:06.679687500,-42.0,-15.0,46.0,65.33,4.925,15.39999175,33.77
2021-06-21 17:15:06.687500000,-42.0,-15.0,46.0,65.33,3.06,15.401473,33.77
2021-06-21 17:15:06.695312500,-42.0,-15.0,46.0,65.33,1.34,15.40295425,33.77
2021-06-21 17:15:06.703125000,-42.0,-15.0,46.0,65.33,-0.38,15.4044355,33.77
2021-06-21 17:15:06.710937500,-42.0,-15.0,46.0,65.33,-1.9250000000000003,15.40591675,33.77
2021-06-21 17:15:06.718750000,-42.0,-15.0,46.0,65.33,-3.47,15.407398,33.77
2021-06-21 17:15:06.726562500,-42.0,-15.0,46.0,65.33,-4.91,15.40887925,33.77
2021-06-21 17:15:06.734375000,-42.0,-15.0,46.0,65.33,-6.35,15.4103605,33.77
2021-06-21 17:15:06.742187500,-42.0,-15.0,46.0,65.33,-7.88,15.41184175,33.77
2021-06-21 17:15:06.750000000,-42.0,-15.0,46.0,65.33,-9.41,15.413323,33.77
2021-06-21 17:15:06.757812500,-42.0,-15.0,46.0,65.33,-11.3,15.41248228125,33.77
2021-06-21 17:15:06.765625000,-42.0,-15.0,46.0,65.33,-13.19,15.4116415625,33.77
2021-06-21 17:15:06.773437500,-42.0,-15.0,46.0,65.33,-15.655000000000001,15.41080084375,33.77
2021-06-21 17:15:06.781250000,-42.0,-15.0,46.0,65.33,-18.12,15.409960125,33.77
2021-06-21 17:15:06.789062500,-42.25,-15.0,46.0,65.33,-21.19,15.40911940625,33.77
2021-06-21 17:15:06.796875000,-42.5,-15.0,46.0,65.33,-24.26,15.4082786875,33.77
2021-06-21 17:15:06.804687500,-42.75,-15.0,46.0,65.33,-27.755000000000003,15.40743796875,33.77
2021-06-21 17:15:06.812500000,-43.0,-15.0,46.0,65.33,-31.25,15.40659725,33.77
2021-06-21 17:15:06.820312500,-43.0,-15.0,46.0,65.33,-34.82,15.40575653125,33.77
2021-06-21 17:15:06.828125000,-43.0,-15.0,46.0,65.33,-38.39,15.4049158125,33.77
2021-06-21 17:15:06.835937500,-43.0,-15.0,46.0,65.33,-41.675,15.40407509375,33.77
2021-06-21 17:15:06.843750000,-43.0,-15.0,46.0,65.33,-44.96,15.403234375,33.77
2021-06-21 17:15:06.851562500,-42.75,-14.75,46.0,65.33,-47.72,15.40239365625,33.77
2021-06-21 17:15:06.859375000,-42.5,-14.5,46.0,65.33,-50.48,15.4015529375,33.77
2021-06-21 17:15:06.867187500,-42.25,-14.25,46.0,65.33,-52.739999999999995,15.40071221875,33.77
2021-06-21 17:15:06.875000000,-42.0,-14.0,46.0,65.33,-55.0,15.3998715,33.77
2021-06-21 17:15:06.882812500,-42.25,-14.25,46.0,65.33,-57.010000000000005,15.39903078125,33.77
2021-06-21 17:15:06.890625000,-42.5,-14.5,46.0,65.33,-59.02,15.3981900625,33.77
2021-06-21 17:15:06.898437500,-42.75,-14.75,46.0,65.33,-61.2,15.39734934375,33.77
2021-06-21 17:15:06.906250000,-43.0,-15.0,46.0,65.33,-63.38,15.396508625,33.77
2021-06-21 17:15:06.914062500,-42.75,-15.0,46.0,65.33,-66.16,15.395667906249999,33.77
2021-06-21 17:15:06.921875000,-42.5,-15.0,46.0,65.33,-68.94,15.394827187499999,33.77
2021-06-21 17:15:06.929687500,-42.25,-15.0,46.0,65.33,-72.58,15.393986468749999,33.77
2021-06-21 17:15:06.937500000,-42.0,-15.0,46.0,65.33,-76.22,15.393145749999999,33.77
2021-06-21 17:15:06.945312500,-42.25,-14.75,46.0,65.33,-80.68,15.39230503125,33.77
2021-06-21 17:15:06.953125000,-42.5,-14.5,46.0,65.33,-85.14,15.3914643125,33.77
2021-06-21 17:15:06.960937500,-42.75,-14.25,46.0,65.33,-90.015,15.39062359375,33.77
2021-06-21 17:15:06.968750000,-43.0,-14.0,46.0,65.33,-94.89,15.389782875,33.77
2021-06-21 17:15:06.976562500,-42.75,-14.0,46.0,65.33,-99.42,15.38894215625,33.77
2021-06-21 17:15:06.984375000,-42.5,-14.0,46.0,65.33,-103.95,15.3881014375,33.77
2021-06-21 17:15:06.992187500,-42.25,-14.0,46.0,65.33,-107.13,15.38726071875,33.77
2021-06-21 17:15:07.000000000,-42.0,-14.0,46.0,65.33,-110.31,15.38642,33.77
2021-06-21 17:15:07.007812500,-42.0,-14.0,46.0,65.33,-111.14,15.38662015625,33.769375000000004
2021-06-21 17:15:07.015625000,-42.0,-14.0,46.0,65.33,-111.97,15.3868203125,33.768750000000004
2021-06-21 17:15:07.023437500,-42.0,-14.0,46.0,65.33,-109.72,15.387020468749999,33.768125000000005
2021-06-21 17:15:07.031250000,-42.0,-14.0,46.0,65.33,-107.47,15.387220625,33.767500000000005
2021-06-21 17:15:07.039062500,-42.25,-14.25,46.0,65.33,-101.935,15.38742078125,33.766875000000006
2021-06-21 17:15:07.046875000,-42.5,-14.5,46.0,65.33,-96.4,15.3876209375,33.76625
2021-06-21 17:15:07.054687500,-42.75,-14.75,46.0,65.33,-87.97,15.387821093749999,33.765625
2021-06-21 17:15:07.062500000,-43.0,-15.0,46.0,65.33,-79.54,15.38802125,33.765
2021-06-21 17:15:07.070312500,-43.0,-15.0,46.0,65.33,-69.13,15.38822140625,33.764375
2021-06-21 17:15:07.078125000,-43.0,-15.0,46.0,65.33,-58.72,15.3884215625,33.76375
2021-06-21 17:15:07.085937500,-43.0,-15.0,46.0,65.33,-47.535,15.388621718749999,33.763125
2021-06-21 17:15:07.093750000,-43.0,-15.0,46.0,65.33,-36.35,15.388821875,33.7625
2021-06-21 17:15:07.101562500,-42.75,-14.75,46.0,65.33,-25.575000000000003,15.38902203125,33.761875
2021-06-21 17:15:07.109375000,-42.5,-14.5,46.0,65.33,-14.8,15.3892221875,33.761250000000004
2021-06-21 17:15:07.117187500,-42.25,-14.25,46.0,65.33,-5.305,15.389422343749999,33.760625000000005
2021-06-21 17:15:07.125000000,-42.0,-14.0,46.0,65.33,4.19,15.3896225,33.760000000000005
2021-06-21 17:15:07.132812500,-42.0,-14.0,46.0,65.33,11.95,15.38982265625,33.759375
2021-06-21 17:15:07.140625000,-42.0,-14.0,46.0,65.33,19.71,15.3900228125,33.75875
2021-06-21 17:15:07.148437500,-42.0,-14.0,46.0,65.33,25.68,15.390222968749999,33.758125
2021-06-21 17:15:07.156250000,-42.0,-14.0,46.0,65.33,31.65,15.390423125,33.7575
2021-06-21 17:15:07.164062500,-42.0,-14.0,46.0,65.33,36.0,15.39062328125,33.756875
2021-06-21 17:15:07.171875000,-42.0,-14.0,46.0,65.33,40.35,15.3908234375,33.75625
2021-06-21 17:15:07.179687500,-42.0,-14.0,46.0,65.33,43.31,15.391023593749999,33.755625
2021-06-21 17:15:07.187500000,-42.0,-14.0,46.0,65.33,46.27,15.39122375,33.755
2021-06-21 17:15:07.195312500,-42.25,-14.25,46.0,65.33,48.045,15.391423906250001,33.754375
2021-06-21 17:15:07.203125000,-42.5,-14.5,46.0,65.33,49.82,15.3916240625,33.753750000000004
2021-06-21 17:15:07.210937500,-42.75,-14.75,46.0,65.33,50.575,15.39182421875,33.753125
2021-06-21 17:15:07.218750000,-43.0,-15.0,46.0,65.33,51.33,15.392024375,33.7525
2021-06-21 17:15:07.226562500,-43.0,-15.0,46.0,65.33,51.25,15.392224531250001,33.751875
2021-06-21 17:15:07.234375000,-43.0,-15.0,46.0,65.33,51.17,15.3924246875,33.75125
2021-06-21 17:15:07.242187500,-43.0,-15.0,46.0,65.33,50.53,15.39262484375,33.750625
2021-06-21 17:15:07.250000000,-43.0,-15.0,46.0,65.33,49.89,15.392825,33.75
2021-06-21 17:15:07.257812500,-43.0,-14.75,46.0,65.33,49.035,15.39254478125,33.75
2021-06-21 17:15:07.265625000,-43.0,-14.5,46.0,65.33,48.18,15.3922645625,33.75
2021-06-21 17:15:07.273437500,-43.0,-14.25,46.0,65.33,47.485,15.39198434375,33.75
2021-06-21 17:15:07.281250000,-43.0,-14.0,46.0,65.33,46.79,15.391704125,33.75
2021-06-21 17:15:07.289062500,-43.0,-14.0,46.0,65.33,46.525,15.391423906250001,33.75
2021-06-21 17:15:07.296875000,-43.0,-14.0,46.0,65.33,46.26,15.3911436875,33.75
2021-06-21 17:15:07.304687500,-43.0,-14.0,46.0,65.33,46.555,15.39086346875,33.75
2021-06-21 17:15:07.312500000,-43.0,-14.0,46.0,65.33,46.85,15.39058325,33.75
2021-06-21 17:15:07.320312500,-43.0,-14.0,46.0,65.33,47.665,15.39030303125,33.75
2021-06-21 17:15:07.328125000,-43.0,-14.0,46.0,65.33,48.48,15.3900228125,33.75
2021-06-21 17:15:07.335937500,-43.0,-14.0,46.0,65.33,49.665,15.38974259375,33.75
2021-06-21 17:15:07.343750000,-43.0,-14.0,46.0,65.33,50.85,15.389462375,33.75
2021-06-21 17:15:07.351562500,-43.0,-14.0,46.0,65.33,52.21,15.38918215625,33.75
2021-06-21 17:15:07.359375000,-43.0,-14.0,46.0,65.33,53.57,15.3889019375,33.75
2021-06-21 17:15:07.367187500,-43.0,-14.0,46.0,65.33,54.915,15.38862171875,33.75
2021-06-21 17:15:07.375000000,-43.0,-14.0,46.0,65.33,56.26,15.3883415,33.75
2021-06-21 17:15:07.382812500,-43.0,-14.0,46.0,65.33,57.445,15.38806128125,33.75
2021-06-21 17:15:07.390625000,-43.0,-14.0,46.0,65.33,58.63,15.3877810625,33.75
2021-06-21 17:15:07.398437500,-43.0,-14.0,46.0,65.33,59.525000000000006,15.38750084375,33.75
2021-06-21 17:15:07.406250000,-43.0,-14.0,46.0,65.33,60.42,15.387220625,33.75
2021-06-21 17:15:07.414062500,-43.0,-14.0,46.0,65.33,60.915,15.38694040625,33.75
2021-06-21 17:15:07.421875000,-43.0,-14.0,46.0,65.33,61.41,15.3866601875,33.75
2021-06-21 17:15:07.429687500,-43.0,-14.0,46.0,65.33,61.405,15.386379968750001,33.75
2021-06-21 17:15:07.437500000,-43.0,-14.0,46.0,65.33,61.4,15.38609975,33.75
2021-06-21 17:15:07.445312500,-43.0,-14.0,46.0,65.33,60.845,15.38581953125,33.75
2021-06-21 17:15:07.453125000,-43.0,-14.0,46.0,65.33,60.29,15.3855393125,33.75
2021-06-21 17:15:07.460937500,-43.0,-14.0,46.0,65.33,59.19,15.38525909375,33.75
2021-06-21 17:15:07.468750000,-43.0,-14.0,46.0,65.33,58.09,15.384978875,33.75
2021-06-21 17:15:07.476562500,-43.0,-14.0,46.0,65.33,56.525000000000006,15.38469865625,33.75
2021-06-21 17:15:07.484375000,-43.0,-14.0,46.0,65.33,54.96,15.3844184375,33.75
2021-06-21 17:15:07.492187500,-43.0,-14.0,46.0,65.33,53.05,15.38413821875,33.75
2021-06-21 17:15:07.500000000,-43.0,-14.0,46.0,65.33,51.14,15.383858,33.75
2021-06-21 17:15:07.507812500,-43.0,-14.0,46.0,65.33,49.025,15.383697875,33.75
2021-06-21 17:15:07.515625000,-43.0,-14.0,46.0,65.33,46.91,15.38353775,33.75
2021-06-21 17:15:07.523437500,-43.0,-14.0,46.0,65.33,44.73,15.383377625,33.75
2021-06-21 17:15:07.531250000,-43.0,-14.0,46.0,65.33,42.55,15.3832175,33.75
2021-06-21 17:15:07.539062500,-43.0,-14.0,46.0,65.33,40.4,15.383057375,33.75
2021-06-21 17:15:07.546875000,-43.0,-14.0,46.0,65.33,38.25,15.38289725,33.75
2021-06-21 17:15:07.554687500,-43.0,-14.0,46.0,65.33,36.2,15.382737125,33.75
2021-06-21 17:15:07.562500000,-43.0,-14.0,46.0,65.33,34.15,15.382577,33.75
2021-06-21 17:15:07.570312500,-43.0,-14.0,46.0,65.33,32.245,15.382416875,33.75
2021-06-21 17:15:07.578125000,-43.0,-14.0,46.0,65.33,30.34,15.38225675,33.75
2021-06-21 17:15:07.585937500,-43.0,-14.0,46.0,65.33,28.57,15.382096624999999,33.75
2021-06-21 17:15:07.593750000,-43.0,-14.0,46.0,65.33,26.8,15.3819365,33.75
2021-06-21 17:15:07.601562500,-43.0,-14.0,46.0,65.33,25.12,15.381776375,33.75
2021-06-21 17:15:07.609375000,-43.0,-14.0,46.0,65.33,23.44,15.38161625,33.75
2021-06-21 17:15:07.617187500,-43.0,-14.0,46.0,65.33,21.745,15.381456125,33.75
2021-06-21 17:15:07.625000000,-43.0,-14.0,46.0,65.33,20.05,15.381295999999999,33.75
2021-06-21 17:15:07.632812500,-43.0,-14.0,46.0,65.33,18.255000000000003,15.381135875,33.75
2021-06-21 17:15:07.640625000,-43.0,-14.0,46.0,65.33,16.46,15.38097575,33.75
2021-06-21 17:15:07.648437500,-43.0,-14.0,46.0,65.33,14.49,15.380815625,33.75
2021-06-21 17:15:07.656250000,-43.0,-14.0,46.0,65.33,12.52,15.3806555,33.75
2021-06-21 17:15:07.664062500,-43.0,-14.0,46.0,65.33,10.395,15.380495375,33.75
2021-06-21 17:15:07.671875000,-43.0,-14.0,46.0,65.33,8.27,15.38033525,33.75
2021-06-21 17:15:07.679687500,-43.0,-14.0,46.0,65.33,6.085,15.380175125,33.75
2021-06-21 17:15:07.687500000,-43.0,-14.0,46.0,65.33,3.9,15.380015,33.75
2021-06-21 17:15:07.695312500,-43.0,-14.0,46.0,65.33,1.8050000000000002,15.379854875,33.75
2021-06-21 17:15:07.703125000,-43.0,-14.0,46.0,65.33,-0.29,15.37969475,33.75
2021-06-21 17:15:07.710937500,-43.0,-14.0,46.0,65.33,-2.16,15.379534625,33.75
2021-06-21 17:15:07.718750000,-43.0,-14.0,46.0,65.33,-4.03,15.379374499999999,33.75
2021-06-21 17:15:07.726562500,-43.0,-14.0,46.0,65.33,-5.585,15.379214375,33.75
2021-06-21 17:15:07.734375000,-43.0,-14.0,46.0,65.33,-7.14,15.37905425,33.75
2021-06-21 17:15:07.742187500,-43.0,-14.0,46.0,65.33,-8.415,15.378894125,33.75
2021-06-21 17:15:07.750000000,-43.0,-14.0,46.0,65.33,-9.69,15.378734,33.75
2021-06-21 17:15:07.757812500,-43.0,-14.0,46.0,65.33,-10.83,15.37917434375,33.75
2021-06-21 17:15:07.765625000,-43.0,-14.0,46.0,65.33,-11.97,15.3796146875,33.75
2021-06-21 17:15:07.773437500,-43.0,-14.0,46.0,65.33,-13.195,15.38005503125,33.75
2021-06-21 17:15:07.781250000,-43.0,-14.0,46.0,65.33,-14.42,15.380495374999999,33.75
2021-06-21 17:15:07.789062500,-43.0,-14.0,46.0,65.33,-15.93,15.380935718749999,33.75
2021-06-21 17:15:07.796875000,-43.0,-14.0,46.0,65.33,-17.44,15.3813760625,33.75
2021-06-21 17:15:07.804687500,-43.0,-14.0,46.0,65.33,-19.365000000000002,15.38181640625,33.75
2021-06-21 17:15:07.812500000,-43.0,-14.0,46.0,65.33,-21.29,15.38225675,33.75
2021-06-21 17:15:07.820312500,-43.0,-14.0,46.0,65.33,-23.63,15.38269709375,33.75
2021-06-21 17:15:07.828125000,-43.0,-14.0,46.0,65.33,-25.97,15.3831374375,33.75
2021-06-21 17:15:07.835937500,-43.0,-14.0,46.0,65.33,-28.59,15.38357778125,33.75
2021-06-21 17:15:07.843750000,-43.0,-14.0,46.0,65.33,-31.21,15.384018125,33.75
2021-06-21 17:15:07.851562500,-43.0,-14.0,46.0,65.33,-33.905,15.38445846875,33.75
2021-06-21 17:15:07.859375000,-43.0,-14.0,46.0,65.33,-36.6,15.3848988125,33.75
2021-06-21 17:15:07.867187500,-43.0,-14.0,46.0,65.33,-39.165,15.38533915625,33.75
2021-06-21 17:15:07.875000000,-43.0,-14.0,46.0,65.33,-41.73,15.3857795,33.75
2021-06-21 17:15:07.882812500,-43.0,-14.0,46.0,65.33,-44.055,15.38621984375,33.75
2021-06-21 17:15:07.890625000,-43.0,-14.0,46.0,65.33,-46.38,15.3866601875,33.75
2021-06-21 17:15:07.898437500,-43.0,-14.0,46.0,65.33,-48.475,15.38710053125,33.75
2021-06-21 17:15:07.906250000,-43.0,-14.0,46.0,65.33,-50.57,15.387540875,33.75
2021-06-21 17:15:07.914062500,-43.0,-14.0,46.0,65.33,-52.6,15.38798121875,33.75
2021-06-21 17:15:07.921875000,-43.0,-14.0,46.0,65.33,-54.63,15.3884215625,33.75
2021-06-21 17:15:07.929687500,-43.0,-14.0,46.0,65.33,-56.825,15.38886190625,33.75
2021-06-21 17:15:07.937500000,-43.0,-14.0,46.0,65.33,-59.02,15.38930225,33.75
2021-06-21 17:15:07.945312500,-43.0,-14.0,46.0,65.33,-61.64,15.38974259375,33.75
2021-06-21 17:15:07.953125000,-43.0,-14.0,46.0,65.33,-64.26,15.3901829375,33.75
2021-06-21 17:15:07.960937500,-43.0,-14.0,46.0,65.33,-67.465,15.39062328125,33.75
2021-06-21 17:15:07.968750000,-43.0,-14.0,46.0,65.33,-70.67,15.391063625000001,33.75
2021-06-21 17:15:07.976562500,-43.0,-14.0,46.0,65.33,-74.47,15.39150396875,33.75
2021-06-21 17:15:07.984375000,-43.0,-14.0,46.0,65.33,-78.27,15.3919443125,33.75
2021-06-21 17:15:07.992187500,-43.0,-14.0,46.0,65.33,-82.44,15.39238465625,33.75
2021-06-21 17:15:08.000000000,-43.0,-14.0,46.0,65.33,-86.61,15.392825,33.75
2021-06-21 17:15:08.007812500,-43.0,-14.0,46.0,65.329921875,-90.655,15.3907031875,33.749375
2021-06-21 17:15:08.015625000,-43.0,-14.0,46.0,65.32984375,-94.7,15.388581375000001,33.74875
2021-06-21 17:15:08.023437500,-43.0,-14.0,46.0,65.329765625,-97.87,15.3864595625,33.748125
2021-06-21 17:15:08.031250000,-43.0,-14.0,46.0,65.32968749999999,-101.04,15.38433775,33.7475
2021-06-21 17:15:08.039062500,-43.0,-14.0,46.0,65.329609375,-102.47,15.3822159375,33.746875
2021-06-21 17:15:08.046875000,-43.0,-14.0,46.0,65.32953125,-103.9,15.380094125,33.746249999999996
2021-06-21 17:15:08.054687500,-43.0,-14.0,46.0,65.329453125,-102.81,15.3779723125,33.745625
2021-06-21 17:15:08.062500000,-43.0,-14.0,46.0,65.329375,-101.72,15.3758505,33.745
2021-06-21 17:15:08.070312500,-43.0,-14.0,46.0,65.329296875,-97.685,15.3737286875,33.744375
2021-06-21 17:15:08.078125000,-43.0,-14.0,46.0,65.32921875,-93.65,15.371606875000001,33.74375
2021-06-21 17:15:08.085937500,-43.0,-14.0,46.0,65.329140625,-86.78,15.3694850625,33.743125
2021-06-21 17:15:08.093750000,-43.0,-14.0,46.0,65.32906249999999,-79.91,15.36736325,33.7425
2021-06-21 17:15:08.101562500,-43.0,-14.0,46.0,65.328984375,-70.85499999999999,15.3652414375,33.741875
2021-06-21 17:15:08.109375000,-43.0,-14.0,46.0,65.32890625,-61.8,15.363119625,33.74125
2021-06-21 17:15:08.117187500,-43.0,-14.0,46.0,65.328828125,-51.614999999999995,15.3609978125,33.740625
2021-06-21 17:15:08.125000000,-43.0,-14.0,46.0,65.32875,-41.43,15.358876,33.739999999999995
2021-06-21 17:15:08.132812500,-43.0,-14.0,46.0,65.328671875,-31.275,15.3567541875,33.739374999999995
2021-06-21 17:15:08.140625000,-43.0,-14.0,46.0,65.32859375,-21.12,15.354632375000001,33.738749999999996
2021-06-21 17:15:08.148437500,-43.0,-14.0,46.0,65.328515625,-11.965,15.352510562500001,33.738125
2021-06-21 17:15:08.156250000,-43.0,-14.0,46.0,65.32843749999999,-2.81,15.35038875,33.7375
2021-06-21 17:15:08.164062500,-43.0,-14.0,46.0,65.32835937499999,4.785,15.3482669375,33.736875
2021-06-21 17:15:08.171875000,-43.0,-14.0,46.0,65.32828125,12.38,15.346145125,33.73625
2021-06-21 17:15:08.179687500,-43.0,-14.0,46.0,65.328203125,18.235,15.344023312500001,33.735625
2021-06-21 17:15:08.187500000,-43.0,-14.0,46.0,65.328125,24.09,15.3419015,33.735
2021-06-21 17:15:08.195312500,-43.0,-14.0,46.0,65.328046875,28.335,15.3397796875,33.734375
2021-06-21 17:15:08.203125000,-43.0,-14.0,46.0,65.32796875,32.58,15.337657875000001,33.73375
2021-06-21 17:15:08.210937500,-43.0,-14.0,46.0,65.327890625,35.435,15.335536062500001,33.733124999999994
2021-06-21 17:15:08.218750000,-43.0,-14.0,46.0,65.3278125,38.29,15.33341425,33.732499999999995
2021-06-21 17:15:08.226562500,-43.0,-14.0,46.0,65.32773437499999,39.96,15.3312924375,33.731874999999995
2021-06-21 17:15:08.234375000,-43.0,-14.0,46.0,65.32765625,41.63,15.329170625,33.731249999999996
2021-06-21 17:15:08.242187500,-43.0,-14.0,46.0,65.327578125,42.285,15.327048812500001,33.730624999999996
2021-06-21 17:15:08.250000000,-43.0,-14.0,46.0,65.3275,42.94,15.324927,33.73
2021-06-21 17:15:08.257812500,-43.0,-14.0,46.0,65.327421875,42.709999999999994,15.325447437500001,33.73
2021-06-21 17:15:08.265625000,-43.0,-14.0,46.0,65.32734375,42.48,15.325967875,33.73
2021-06-21 17:15:08.273437500,-43.0,-14.0,46.0,65.327265625,41.575,15.3264883125,33.73
2021-06-21 17:15:08.281250000,-43.0,-14.0,46.0,65.3271875,40.67,15.327008750000001,33.73
2021-06-21 17:15:08.289062500,-43.0,-14.0,46.0,65.32710937499999,39.38,15.3275291875,33.73
2021-06-21 17:15:08.296875000,-43.0,-14.0,46.0,65.32703124999999,38.09,15.328049625,33.73
2021-06-21 17:15:08.304687500,-43.0,-14.0,46.0,65.326953125,36.795,15.3285700625,33.73
2021-06-21 17:15:08.312500000,-43.0,-14.0,46.0,65.326875,35.5,15.3290905,33.73
2021-06-21 17:15:08.320312500,-43.0,-14.0,46.0,65.326796875,34.56,15.3296109375,33.73
2021-06-21 17:15:08.328125000,-43.0,-14.0,46.0,65.32671875,33.62,15.330131375,33.73
2021-06-21 17:15:08.335937500,-43.0,-14.0,46.0,65.326640625,33.315,15.330651812500001,33.73
2021-06-21 17:15:08.343750000,-43.0,-14.0,46.0,65.3265625,33.01,15.33117225,33.73
2021-06-21 17:15:08.351562500,-43.0,-14.0,46.0,65.32648437499999,33.45,15.3316926875,33.73
2021-06-21 17:15:08.359375000,-43.0,-14.0,46.0,65.32640624999999,33.89,15.332213125,33.73
2021-06-21 17:15:08.367187500,-43.0,-14.0,46.0,65.326328125,35.004999999999995,15.3327335625,33.73
2021-06-21 17:15:08.375000000,-43.0,-14.0,46.0,65.32625,36.12,15.333254,33.73
2021-06-21 17:15:08.382812500,-43.0,-14.0,46.0,65.326171875,37.685,15.3337744375,33.73
2021-06-21 17:15:08.390625000,-43.0,-14.0,46.0,65.32609375,39.25,15.334294875,33.73
2021-06-21 17:15:08.398437500,-43.0,-14.0,46.0,65.326015625,40.97,15.3348153125,33.73
2021-06-21 17:15:08.406250000,-43.0,-14.0,46.0,65.3259375,42.69,15.33533575,33.73
2021-06-21 17:15:08.414062500,-43.0,-14.0,46.0,65.325859375,44.295,15.3358561875,33.73
2021-06-21 17:15:08.421875000,-43.0,-14.0,46.0,65.32578124999999,45.9,15.336376625,33.73
2021-06-21 17:15:08.429687500,-43.0,-14.0,46.0,65.32570312499999,47.19,15.3368970625,33.73
2021-06-21 17:15:08.437500000,-43.0,-14.0,46.0,65.325625,48.48,15.3374175,33.73
2021-06-21 17:15:08.445312500,-43.0,-14.0,46.0,65.325546875,49.385,15.3379379375,33.73
2021-06-21 17:15:08.453125000,-43.0,-14.0,46.0,65.32546875,50.29,15.338458375,33.73
2021-06-21 17:15:08.460937500,-43.0,-14.0,46.0,65.325390625,50.79,15.3389788125,33.73
2021-06-21 17:15:08.468750000,-43.0,-14.0,46.0,65.3253125,51.29,15.33949925,33.73
2021-06-21 17:15:08.476562500,-43.0,-14.0,46.0,65.325234375,51.379999999999995,15.3400196875,33.73
2021-06-21 17:15:08.484375000,-43.0,-14.0,46.0,65.32515624999999,51.47,15.340540125,33.73
2021-06-21 17:15:08.492187500,-43.0,-14.0,46.0,65.32507812499999,51.085,15.3410605625,33.73
2021-06-21 17:15:08.500000000,-43.0,-14.0,46.0,65.32499999999999,50.7,15.341581,33.73
2021-06-21 17:15:08.507812500,-43.0,-14.0,46.0,65.324921875,49.745000000000005,15.340540125,33.73
2021-06-21 17:15:08.515625000,-43.0,-14.0,46.0,65.32484375,48.79,15.33949925,33.73
2021-06-21 17:15:08.523437500,-43.0,-14.0,46.0,65.324765625,47.18,15.338458375,33.73
2021-06-21 17:15:08.531250000,-43.0,-14.0,46.0,65.3246875,45.57,15.337417499999999,33.73
2021-06-21 17:15:08.539062500,-43.0,-14.0,46.0,65.324609375,43.355000000000004,15.336376625,33.73
2021-06-21 17:15:08.546875000,-43.0,-14.0,46.0,65.32453124999999,41.14,15.33533575,33.73
2021-06-21 17:15:08.554687500,-43.0,-14.0,46.0,65.32445312499999,38.54,15.334294875,33.73
2021-06-21 17:15:08.562500000,-43.0,-14.0,46.0,65.32437499999999,35.94,15.333254,33.73
2021-06-21 17:15:08.570312500,-43.0,-14.0,46.0,65.324296875,33.3,15.332213124999999,33.73
2021-06-21 17:15:08.578125000,-43.0,-14.0,46.0,65.32421875,30.66,15.33117225,33.73
2021-06-21 17:15:08.585937500,-43.0,-14.0,46.0,65.324140625,28.310000000000002,15.330131375,33.73
2021-06-21 17:15:08.593750000,-43.0,-14.0,46.0,65.3240625,25.96,15.3290905,33.73
2021-06-21 17:15:08.601562500,-43.0,-14.0,46.0,65.323984375,24.095,15.328049625,33.73
2021-06-21 17:15:08.609375000,-43.0,-14.0,46.0,65.32390625,22.23,15.32700875,33.73
2021-06-21 17:15:08.617187500,-43.0,-14.0,46.0,65.32382812499999,20.805,15.325967875,33.73
2021-06-21 17:15:08.625000000,-43.0,-14.0,46.0,65.32374999999999,19.38,15.324926999999999,33.73
2021-06-21 17:15:08.632812500,-43.0,-14.0,46.0,65.32367187499999,18.14,15.323886125,33.73
2021-06-21 17:15:08.640625000,-43.0,-14.0,46.0,65.32359375,16.9,15.32284525,33.73
2021-06-21 17:15:08.648437500,-43.0,-14.0,46.0,65.323515625,15.524999999999999,15.321804375,33.73
2021-06-21 17:15:08.656250000,-43.0,-14.0,46.0,65.3234375,14.15,15.3207635,33.73
2021-06-21 17:15:08.664062500,-43.0,-14.0,46.0,65.323359375,12.415,15.319722624999999,33.73
2021-06-21 17:15:08.671875000,-43.0,-14.0,46.0,65.32328125,10.68,15.31868175,33.73
2021-06-21 17:15:08.679687500,-43.0,-14.0,46.0,65.32320312499999,8.525,15.317640875,33.73
2021-06-21 17:15:08.687500000,-43.0,-14.0,46.0,65.32312499999999,6.37,15.3166,33.73
2021-06-21 17:15:08.695312500,-43.0,-14.0,46.0,65.32304687499999,3.9450000000000003,15.315559125,33.73
2021-06-21 17:15:08.703125000,-43.0,-14.0,46.0,65.32296875,1.52,15.314518249999999,33.73
2021-06-21 17:15:08.710937500,-43.0,-14.0,46.0,65.322890625,-0.9250000000000003,15.313477375,33.73
2021-06-21 17:15:08.718750000,-43.0,-14.0,46.0,65.3228125,-3.37,15.3124365,33.73
2021-06-21 17:15:08.726562500,-43.0,-14.0,46.0,65.322734375,-5.605,15.311395625,33.73
2021-06-21 17:15:08.734375000,-43.0,-14.0,46.0,65.32265625,-7.84,15.31035475,33.73
2021-06-21 17:15:08.742187500,-43.0,-14.0,46.0,65.32257812499999,-9.73,15.309313874999999,33.73
2021-06-21 17:15:08.750000000,-43.0,-14.0,46.0,65.32249999999999,-11.62,15.308273,33.73
2021-06-21 17:15:08.757812500,-43.0,-14.0,46.0,65.32242187499999,-13.184999999999999,15.308913562499999,33.73
2021-06-21 17:15:08.765625000,-43.0,-14.0,46.0,65.32234374999999,-14.75,15.309554125,33.73
2021-06-21 17:15:08.773437500,-43.0,-14.0,46.0,65.322265625,-16.145,15.3101946875,33.73
2021-06-21 17:15:08.781250000,-43.0,-14.0,46.0,65.3221875,-17.54,15.31083525,33.73
2021-06-21 17:15:08.789062500,-43.0,-14.0,46.0,65.322109375,-18.955,15.3114758125,33.73
2021-06-21 17:15:08.796875000,-43.0,-14.0,46.0,65.32203125,-20.37,15.312116375,33.73
2021-06-21 17:15:08.804687500,-43.0,-14.0,46.0,65.321953125,-21.98,15.3127569375,33.73
2021-06-21 17:15:08.812500000,-43.0,-14.0,46.0,65.32187499999999,-23.59,15.3133975,33.73
2021-06-21 17:15:08.820312500,-43.0,-14.0,46.0,65.32179687499999,-25.505000000000003,15.3140380625,33.73
2021-06-21 17:15:08.828125000,-43.0,-14.0,46.0,65.32171874999999,-27.42,15.314678624999999,33.73
2021-06-21 17:15:08.835937500,-43.0,-14.0,46.0,65.321640625,-29.635,15.3153191875,33.73
2021-06-21 17:15:08.843750000,-43.0,-14.0,46.0,65.3215625,-31.85,15.31595975,33.73
2021-06-21 17:15:08.851562500,-43.0,-14.0,46.0,65.321484375,-34.25,15.3166003125,33.73
2021-06-21 17:15:08.859375000,-43.0,-14.0,46.0,65.32140625,-36.65,15.317240875,33.73
2021-06-21 17:15:08.867187500,-43.0,-14.0,46.0,65.321328125,-39.075,15.3178814375,33.73
2021-06-21 17:15:08.875000000,-43.0,-14.0,46.0,65.32124999999999,-41.5,15.318522,33.73
2021-06-21 17:15:08.882812500,-43.0,-14.0,46.0,65.32117187499999,-43.8,15.319162562499999,33.73
2021-06-21 17:15:08.890625000,-43.0,-14.0,46.0,65.32109374999999,-46.1,15.319803125,33.73
2021-06-21 17:15:08.898437500,-43.0,-14.0,46.0,65.32101562499999,-48.195,15.3204436875,33.73
2021-06-21 17:15:08.906250000,-43.0,-14.0,46.0,65.3209375,-50.29,15.32108425,33.73
2021-06-21 17:15:08.914062500,-43.0,-14.0,46.0,65.320859375,-52.245000000000005,15.3217248125,33.73
2021-06-21 17:15:08.921875000,-43.0,-14.0,46.0,65.32078125,-54.2,15.322365375,33.73
2021-06-21 17:15:08.929687500,-43.0,-14.0,46.0,65.320703125,-56.215,15.3230059375,33.73
2021-06-21 17:15:08.937500000,-43.0,-14.0,46.0,65.32062499999999,-58.23,15.323646499999999,33.73
2021-06-21 17:15:08.945312500,-43.0,-14.0,46.0,65.32054687499999,-60.584999999999994,15.3242870625,33.73
2021-06-21 17:15:08.953125000,-43.0,-14.0,46.0,65.32046874999999,-62.94,15.324927624999999,33.73
2021-06-21 17:15:08.960937500,-43.0,-14.0,46.0,65.32039062499999,-65.91499999999999,15.3255681875,33.73
2021-06-21 17:15:08.968750000,-43.0,-14.0,46.0,65.3203125,-68.89,15.32620875,33.73
2021-06-21 17:15:08.976562500,-43.0,-14.0,46.0,65.320234375,-72.61500000000001,15.3268493125,33.73
2021-06-21 17:15:08.984375000,-43.0,-14.0,46.0,65.32015625,-76.34,15.327489875,33.73
2021-06-21 17:15:08.992187500,-43.0,-14.0,46.0,65.320078125,-80.71000000000001,15.3281304375,33.73
2021-06-21 17:15:09.000000000,-43.0,-14.0,46.0,65.32,-85.08,15.328771,33.73
2021-06-21 17:15:09.007812500,-43.0,-14.0,46.0,65.31984374999999,-89.645,15.32809040625,33.73
2021-06-21 17:15:09.015625000,-43.0,-14.0,46.0,65.31968749999999,-94.21,15.3274098125,33.73
2021-06-21 17:15:09.023437500,-43.0,-14.0,46.0,65.31953125,-98.21,15.32672921875,33.73
2021-06-21 17:15:09.031250000,-43.0,-14.0,46.0,65.319375,-102.21,15.326048625,33.73
2021-06-21 17:15:09.039062500,-43.0,-14.0,46.0,65.31921874999999,-104.69,15.32536803125,33.73
2021-06-21 17:15:09.046875000,-43.0,-14.0,46.0,65.31906249999999,-107.17,15.3246874375,33.73
2021-06-21 17:15:09.054687500,-43.0,-14.0,46.0,65.31890625,-107.235,15.32400684375,33.73
2021-06-21 17:15:09.062500000,-43.0,-14.0,46.0,65.31875,-107.3,15.32332625,33.73
2021-06-21 17:15:09.070312500,-43.0,-14.0,46.0,65.31859374999999,-104.36,15.32264565625,33.73
2021-06-21 17:15:09.078125000,-43.0,-14.0,46.0,65.31843749999999,-101.42,15.3219650625,33.73
2021-06-21 17:15:09.085937500,-43.0,-14.0,46.0,65.31828125,-95.41499999999999,15.32128446875,33.73
2021-06-21 17:15:09.093750000,-43.0,-14.0,46.0,65.318125,-89.41,15.320603875,33.73
2021-06-21 17:15:09.101562500,-43.0,-14.0,46.0,65.31796874999999,-80.88499999999999,15.31992328125,33.73
2021-06-21 17:15:09.109375000,-43.0,-14.0,46.0,65.31781249999999,-72.36,15.3192426875,33.73
2021-06-21 17:15:09.117187500,-43.0,-14.0,46.0,65.31765625,-62.31,15.31856209375,33.73
2021-06-21 17:15:09.125000000,-43.0,-14.0,46.0,65.3175,-52.26,15.317881499999999,33.73
2021-06-21 17:15:09.132812500,-43.0,-14.0,46.0,65.31734374999999,-41.89,15.31720090625,33.73
2021-06-21 17:15:09.140625000,-43.0,-14.0,46.0,65.31718749999999,-31.52,15.3165203125,33.73
2021-06-21 17:15:09.148437500,-43.0,-14.0,46.0,65.31703125,-21.89,15.315839718749999,33.73
2021-06-21 17:15:09.156250000,-43.0,-14.0,46.0,65.316875,-12.26,15.315159125,33.73
2021-06-21 17:15:09.164062500,-43.0,-14.25,46.0,65.31671874999999,-4.049999999999999,15.31447853125,33.73
2021-06-21 17:15:09.171875000,-43.0,-14.5,46.0,65.31656249999999,4.16,15.313797937499999,33.73
2021-06-21 17:15:09.179687500,-43.0,-14.75,46.0,65.31640625,10.71,15.31311734375,33.73
2021-06-21 17:15:09.187500000,-43.0,-15.0,46.0,65.31625,17.26,15.31243675,33.73
2021-06-21 17:15:09.195312500,-43.0,-14.75,46.0,65.31609375,22.275,15.311756156249999,33.73
2021-06-21 17:15:09.203125000,-43.0,-14.5,46.0,65.31593749999999,27.29,15.3110755625,33.73
2021-06-21 17:15:09.210937500,-43.0,-14.25,46.0,65.31578125,31.025,15.31039496875,33.73
2021-06-21 17:15:09.218750000,-43.0,-14.0,46.0,65.315625,34.76,15.309714374999999,33.73
2021-06-21 17:15:09.226562500,-43.0,-14.0,46.0,65.31546875,37.44,15.30903378125,33.73
2021-06-21 17:15:09.234375000,-43.0,-14.0,46.0,65.31531249999999,40.12,15.3083531875,33.73
2021-06-21 17:15:09.242187500,-43.0,-14.0,46.0,65.31515625,41.849999999999994,15.307672593749999,33.73
2021-06-21 17:15:09.250000000,-43.0,-14.0,46.0,65.315,43.58,15.306992,33.73
2021-06-21 17:15:09.257812500,-43.0,-14.25,46.0,65.31484375,44.379999999999995,15.307432375,33.73
2021-06-21 17:15:09.265625000,-43.0,-14.5,46.0,65.31468749999999,45.18,15.30787275,33.73
2021-06-21 17:15:09.273437500,-43.0,-14.75,46.0,65.31453124999999,45.105000000000004,15.308313125,33.73
2021-06-21 17:15:09.281250000,-43.0,-15.0,46.0,65.314375,45.03,15.3087535,33.73
2021-06-21 17:15:09.289062500,-43.0,-14.75,46.0,65.31421875,44.29,15.309193875,33.73
2021-06-21 17:15:09.296875000,-43.0,-14.5,46.0,65.31406249999999,43.55,15.30963425,33.73
2021-06-21 17:15:09.304687500,-43.0,-14.25,46.0,65.31390624999999,42.519999999999996,15.310074625,33.73
2021-06-21 17:15:09.312500000,-43.0,-14.0,46.0,65.31375,41.49,15.310514999999999,33.73
2021-06-21 17:15:09.320312500,-43.0,-14.25,46.0,65.31359375,40.625,15.310955374999999,33.73
2021-06-21 17:15:09.328125000,-43.0,-14.5,46.0,65.31343749999999,39.76,15.311395749999999,33.73
2021-06-21 17:15:09.335937500,-43.0,-14.75,46.0,65.31328124999999,39.425,15.311836125,33.73
2021-06-21 17:15:09.343750000,-43.0,-15.0,46.0,65.313125,39.09,15.3122765,33.73
2021-06-21 17:15:09.351562500,-43.0,-15.0,46.0,65.31296875,39.45,15.312716875,33.73
2021-06-21 17:15:09.359375000,-43.0,-15.0,46.0,65.31281249999999,39.81,15.31315725,33.73
2021-06-21 17:15:09.367187500,-43.0,-15.0,46.0,65.31265624999999,40.760000000000005,15.313597625,33.73
2021-06-21 17:15:09.375000000,-43.0,-15.0,46.0,65.3125,41.71,15.314038,33.73
2021-06-21 17:15:09.382812500,-43.0,-14.75,46.0,65.31234375,42.965,15.314478375,33.73
2021-06-21 17:15:09.390625000,-43.0,-14.5,46.0,65.3121875,44.22,15.31491875,33.73
2021-06-21 17:15:09.398437500,-43.0,-14.25,46.0,65.31203124999999,45.45,15.315359125,33.73
2021-06-21 17:15:09.406250000,-43.0,-14.0,46.0,65.311875,46.68,15.3157995,33.73
2021-06-21 17:15:09.414062500,-43.0,-14.25,46.0,65.31171875,47.66,15.316239875,33.73
2021-06-21 17:15:09.421875000,-43.0,-14.5,46.0,65.3115625,48.64,15.316680250000001,33.73
2021-06-21 17:15:09.429687500,-43.0,-14.75,46.0,65.31140624999999,49.32,15.317120625000001,33.73
2021-06-21 17:15:09.437500000,-43.0,-15.0,46.0,65.31125,50.0,15.317561000000001,33.73
2021-06-21 17:15:09.445312500,-43.0,-15.0,46.0,65.31109375,50.44,15.318001375,33.73
2021-06-21 17:15:09.453125000,-43.0,-15.0,46.0,65.3109375,50.88,15.31844175,33.73
2021-06-21 17:15:09.460937500,-43.0,-15.0,46.0,65.31078124999999,51.175,15.318882125,33.73
2021-06-21 17:15:09.468750000,-43.0,-15.0,46.0,65.310625,51.47,15.3193225,33.73
2021-06-21 17:15:09.476562500,-43.0,-15.0,46.0,65.31046875,51.61,15.319762875,33.73
2021-06-21 17:15:09.484375000,-43.0,-15.0,46.0,65.3103125,51.75,15.32020325,33.73
2021-06-21 17:15:09.492187500,-43.0,-15.0,46.0,65.31015624999999,51.635000000000005,15.320643625,33.73
2021-06-21 17:15:09.500000000,-43.0,-15.0,46.0,65.31,51.52,15.321084,33.73
2021-06-21 17:15:09.507812500,-43.0,-15.0,46.0,65.30984375,51.0,15.321524375000001,33.73
2021-06-21 17:15:09.515625000,-43.0,-15.0,46.0,65.3096875,50.48,15.321964750000001,33.73
2021-06-21 17:15:09.523437500,-43.0,-15.0,46.0,65.30953124999999,49.44,15.322405125000001,33.73
2021-06-21 17:15:09.531250000,-43.0,-15.0,46.0,65.30937499999999,48.4,15.322845500000001,33.73
2021-06-21 17:15:09.539062500,-43.0,-15.0,46.0,65.30921875,46.855000000000004,15.323285875000002,33.73
2021-06-21 17:15:09.546875000,-43.0,-15.0,46.0,65.3090625,45.31,15.32372625,33.73
2021-06-21 17:15:09.554687500,-43.0,-15.0,46.0,65.30890624999999,43.400000000000006,15.324166625,33.73
2021-06-21 17:15:09.562500000,-43.0,-15.0,46.0,65.30874999999999,41.49,15.324607,33.73
2021-06-21 17:15:09.570312500,-43.0,-15.0,46.0,65.30859375,39.45,15.325047375,33.73
2021-06-21 17:15:09.578125000,-43.0,-15.0,46.0,65.3084375,37.41,15.32548775,33.73
2021-06-21 17:15:09.585937500,-43.0,-15.0,46.0,65.30828125,35.48,15.325928125,33.73
2021-06-21 17:15:09.593750000,-43.0,-15.0,46.0,65.30812499999999,33.55,15.326368500000001,33.73
2021-06-21 17:15:09.601562500,-43.0,-15.0,46.0,65.30796875,31.865,15.326808875000001,33.73
2021-06-21 17:15:09.609375000,-43.0,-15.0,46.0,65.3078125,30.18,15.327249250000001,33.73
2021-06-21 17:15:09.617187500,-43.0,-15.0,46.0,65.30765625,28.759999999999998,15.327689625000001,33.73
2021-06-21 17:15:09.625000000,-43.0,-15.0,46.0,65.30749999999999,27.34,15.328130000000002,33.73
2021-06-21 17:15:09.632812500,-42.75,-15.0,46.0,65.30734375,26.07,15.328570375,33.73
2021-06-21 17:15:09.640625000,-42.5,-15.0,46.0,65.3071875,24.8,15.32901075,33.73
2021-06-21 17:15:09.648437500,-42.25,-15.0,46.0,65.30703125,23.52,15.329451125,33.73
2021-06-21 17:15:09.656250000,-42.0,-15.0,46.0,65.30687499999999,22.24,15.3298915,33.73
2021-06-21 17:15:09.664062500,-42.25,-15.0,46.0,65.30671875,20.814999999999998,15.330331875,33.73
2021-06-21 17:15:09.671875000,-42.5,-15.0,46.0,65.3065625,19.39,15.33077225,33.73
2021-06-21 17:15:09.679687500,-42.75,-15.0,46.0,65.30640625,17.755000000000003,15.331212625000001,33.73
2021-06-21 17:15:09.687500000,-43.0,-15.0,46.0,65.30624999999999,16.12,15.331653000000001,33.73
2021-06-21 17:15:09.695312500,-42.75,-15.0,46.0,65.30609375,14.295000000000002,15.332093375000001,33.73
2021-06-21 17:15:09.703125000,-42.5,-15.0,46.0,65.3059375,12.47,15.332533750000001,33.73
2021-06-21 17:15:09.710937500,-42.25,-15.0,46.0,65.30578125,10.56,15.332974125,33.73
2021-06-21 17:15:09.718750000,-42.0,-15.0,46.0,65.30562499999999,8.65,15.3334145,33.73
2021-06-21 17:15:09.726562500,-42.25,-15.0,46.0,65.30546875,6.78,15.333854875,33.73
2021-06-21 17:15:09.734375000,-42.5,-15.0,46.0,65.3053125,4.91,15.33429525,33.73
2021-06-21 17:15:09.742187500,-42.75,-15.0,46.0,65.30515625,3.1950000000000003,15.334735625,33.73
2021-06-21 17:15:09.750000000,-43.0,-15.0,46.0,65.30499999999999,1.48,15.335176,33.73
2021-06-21 17:15:09.757812500,-43.0,-15.0,46.0,65.30484374999999,-0.010000000000000009,15.33549628125,33.73
2021-06-21 17:15:09.765625000,-43.0,-15.0,46.0,65.3046875,-1.5,15.3358165625,33.73
2021-06-21 17:15:09.773437500,-43.0,-15.0,46.0,65.30453125,-2.79,15.336136843750001,33.73
2021-06-21 17:15:09.781250000,-43.0,-15.0,46.0,65.304375,-4.08,15.336457125,33.73
2021-06-21 17:15:09.789062500,-42.75,-15.0,46.0,65.30421874999999,-5.29,15.33677740625,33.73
2021-06-21 17:15:09.796875000,-42.5,-15.0,46.0,65.3040625,-6.5,15.3370976875,33.73
2021-06-21 17:15:09.804687500,-42.25,-15.0,46.0,65.30390625,-7.83,15.337417968750001,33.73
2021-06-21 17:15:09.812500000,-42.0,-15.0,46.0,65.30375,-9.16,15.337738250000001,33.73
2021-06-21 17:15:09.820312500,-42.25,-15.0,46.0,65.30359374999999,-10.82,15.33805853125,33.73
2021-06-21 17:15:09.828125000,-42.5,-15.0,46.0,65.3034375,-12.48,15.3383788125,33.73
2021-06-21 17:15:09.835937500,-42.75,-15.0,46.0,65.30328125,-14.63,15.33869909375,33.73
2021-06-21 17:15:09.843750000,-43.0,-15.0,46.0,65.303125,-16.78,15.339019375000001,33.73
2021-06-21 17:15:09.851562500,-43.0,-15.0,46.0,65.30296874999999,-19.405,15.33933965625,33.73
2021-06-21 17:15:09.859375000,-43.0,-15.0,46.0,65.3028125,-22.03,15.3396599375,33.73
2021-06-21 17:15:09.867187500,-43.0,-15.0,46.0,65.30265625,-24.93,15.33998021875,33.73
2021-06-21 17:15:09.875000000,-43.0,-15.0,46.0,65.3025,-27.83,15.340300500000001,33.73
2021-06-21 17:15:09.882812500,-43.0,-15.0,46.0,65.30234374999999,-30.675,15.340620781250001,33.73
2021-06-21 17:15:09.890625000,-43.0,-15.0,46.0,65.3021875,-33.52,15.3409410625,33.73
2021-06-21 17:15:09.898437500,-43.0,-15.0,46.0,65.30203125,-36.005,15.34126134375,33.73
2021-06-21 17:15:09.906250000,-43.0,-15.0,46.0,65.301875,-38.49,15.341581625,33.73
2021-06-21 17:15:09.914062500,-43.0,-15.0,46.0,65.30171874999999,-40.445,15.341901906250001,33.73
2021-06-21 17:15:09.921875000,-43.0,-15.0,46.0,65.3015625,-42.4,15.3422221875,33.73
2021-06-21 17:15:09.929687500,-43.0,-15.0,46.0,65.30140625,-43.93,15.34254246875,33.73
2021-06-21 17:15:09.937500000,-43.0,-15.0,46.0,65.30125,-45.46,15.34286275,33.73
2021-06-21 17:15:09.945312500,-43.0,-15.0,46.0,65.30109374999999,-46.894999999999996,15.34318303125,33.73
2021-06-21 17:15:09.953125000,-43.0,-15.0,46.0,65.3009375,-48.33,15.343503312500001,33.73
2021-06-21 17:15:09.960937500,-43.0,-15.0,46.0,65.30078125,-50.12,15.34382359375,33.73
2021-06-21 17:15:09.968750000,-43.0,-15.0,46.0,65.300625,-51.91,15.344143875,33.73
2021-06-21 17:15:09.976562500,-43.0,-14.75,46.0,65.30046875,-54.48,15.34446415625,33.73
2021-06-21 17:15:09.984375000,-43.0,-14.5,46.0,65.3003125,-57.05,15.344784437500001,33.73
2021-06-21 17:15:09.992187500,-43.0,-14.25,46.0,65.30015625,-60.64,15.345104718750001,33.73
2021-06-21 17:15:10.000000000,-43.0,-14.0,46.0,65.3,-64.23,15.345425,33.73
2021-06-21 17:15:10.007812500,-43.0,-14.0,46.0,65.298984375,-68.815,15.34522484375,33.731249999999996
2021-06-21 17:15:10.015625000,-43.0,-14.0,46.0,65.29796875,-73.4,15.3450246875,33.732499999999995
2021-06-21 17:15:10.023437500,-43.0,-14.0,46.0,65.296953125,-78.595,15.344824531250001,33.73375
2021-06-21 17:15:10.031250000,-43.0,-14.0,46.0,65.2959375,-83.79,15.344624375,33.735
2021-06-21 17:15:10.039062500,-42.75,-14.0,46.0,65.294921875,-88.86000000000001,15.34442421875,33.73625
2021-06-21 17:15:10.046875000,-42.5,-14.0,46.0,65.29390624999999,-93.93,15.3442240625,33.7375
2021-06-21 17:15:10.054687500,-42.25,-14.0,46.0,65.292890625,-97.845,15.344023906250001,33.738749999999996
2021-06-21 17:15:10.062500000,-42.0,-14.0,46.0,65.291875,-101.76,15.34382375,33.739999999999995
2021-06-21 17:15:10.070312500,-42.25,-14.25,46.0,65.290859375,-103.43,15.34362359375,33.74125
2021-06-21 17:15:10.078125000,-42.5,-14.5,46.0,65.28984375,-105.1,15.3434234375,33.7425
2021-06-21 17:15:10.085937500,-42.75,-14.75,46.0,65.288828125,-103.63,15.343223281250001,33.74375
2021-06-21 17:15:10.093750000,-43.0,-15.0,46.0,65.2878125,-102.16,15.343023125,33.745
2021-06-21 17:15:10.101562500,-43.0,-15.0,46.0,65.286796875,-97.19999999999999,15.34282296875,33.746249999999996
2021-06-21 17:15:10.109375000,-43.0,-15.0,46.0,65.28578125,-92.24,15.3426228125,33.7475
2021-06-21 17:15:10.117187500,-43.0,-15.0,46.0,65.28476562499999,-84.13499999999999,15.342422656250001,33.74875
2021-06-21 17:15:10.125000000,-43.0,-15.0,46.0,65.28375,-76.03,15.3422225,33.75
2021-06-21 17:15:10.132812500,-43.0,-14.75,46.0,65.282734375,-65.81,15.34202234375,33.75125
2021-06-21 17:15:10.140625000,-43.0,-14.5,46.0,65.28171875,-55.59,15.3418221875,33.7525
2021-06-21 17:15:10.148437500,-43.0,-14.25,46.0,65.280703125,-44.64,15.341622031250001,33.753750000000004
2021-06-21 17:15:10.156250000,-43.0,-14.0,46.0,65.2796875,-33.69,15.341421875,33.755
2021-06-21 17:15:10.164062500,-43.0,-14.0,46.0,65.278671875,-23.354999999999997,15.341221718749999,33.75625
2021-06-21 17:15:10.171875000,-43.0,-14.0,46.0,65.27765624999999,-13.02,15.3410215625,33.7575
2021-06-21 17:15:10.179687500,-43.0,-14.0,46.0,65.276640625,-4.215,15.34082140625,33.75875
2021-06-21 17:15:10.187500000,-43.0,-14.0,46.0,65.27562499999999,4.59,15.34062125,33.760000000000005
2021-06-21 17:15:10.195312500,-43.0,-14.0,46.0,65.274609375,11.505,15.340421093749999,33.761250000000004
2021-06-21 17:15:10.203125000,-43.0,-14.0,46.0,65.27359375,18.42,15.3402209375,33.7625
2021-06-21 17:15:10.210937500,-43.0,-14.0,46.0,65.272578125,23.595,15.34002078125,33.76375
2021-06-21 17:15:10.218750000,-43.0,-14.0,46.0,65.2715625,28.77,15.339820625,33.765
2021-06-21 17:15:10.226562500,-43.0,-14.0,46.0,65.270546875,32.575,15.339620468749999,33.76625
2021-06-21 17:15:10.234375000,-43.0,-14.0,46.0,65.26953125,36.38,15.3394203125,33.767500000000005
2021-06-21 17:15:10.242187500,-43.0,-14.0,46.0,65.26851562499999,39.155,15.33922015625,33.768750000000004
2021-06-21 17:15:10.250000000,-43.0,-14.0,46.0,65.2675,41.93,15.33902,33.77
2021-06-21 17:15:10.257812500,-43.0,-14.0,46.0,65.266484375,43.86,15.33922015625,33.77
2021-06-21 17:15:10.265625000,-43.0,-14.0,46.0,65.26546875,45.79,15.3394203125,33.77
2021-06-21 17:15:10.273437500,-43.0,-14.0,46.0,65.264453125,46.894999999999996,15.339620468749999,33.77
2021-06-21 17:15:10.281250000,-43.0,-14.0,46.0,65.2634375,48.0,15.339820625,33.77
2021-06-21 17:15:10.289062500,-43.0,-14.0,46.0,65.262421875,48.25,15.34002078125,33.77
2021-06-21 17:15:10.296875000,-43.0,-14.0,46.0,65.26140625,48.5,15.3402209375,33.77
2021-06-21 17:15:10.304687500,-43.0,-14.0,46.0,65.260390625,47.980000000000004,15.340421093749999,33.77
2021-06-21 17:15:10.312500000,-43.0,-14.0,46.0,65.259375,47.46,15.34062125,33.77
2021-06-21 17:15:10.320312500,-43.0,-14.25,46.0,65.258359375,46.394999999999996,15.34082140625,33.77
2021-06-21 17:15:10.328125000,-43.0,-14.5,46.0,65.25734375,45.33,15.3410215625,33.77
2021-06-21 17:15:10.335937500,-43.0,-14.75,46.0,65.256328125,44.07,15.341221718749999,33.77
2021-06-21 17:15:10.343750000,-43.0,-15.0,46.0,65.2553125,42.81,15.341421875,33.77
2021-06-21 17:15:10.351562500,-43.0,-14.75,46.0,65.254296875,41.735,15.341622031250001,33.77
2021-06-21 17:15:10.359375000,-43.0,-14.5,46.0,65.25328125,40.66,15.3418221875,33.77
2021-06-21 17:15:10.367187500,-43.0,-14.25,46.0,65.25226562499999,40.055,15.34202234375,33.77
2021-06-21 17:15:10.375000000,-43.0,-14.0,46.0,65.25125,39.45,15.3422225,33.77
2021-06-21 17:15:10.382812500,-43.0,-14.0,46.0,65.250234375,39.465,15.342422656250001,33.77
2021-06-21 17:15:10.390625000,-43.0,-14.0,46.0,65.24921875,39.48,15.3426228125,33.77
2021-06-21 17:15:10.398437500,-43.0,-14.0,46.0,65.248203125,40.084999999999994,15.34282296875,33.77
2021-06-21 17:15:10.406250000,-43.0,-14.0,46.0,65.2471875,40.69,15.343023125,33.77
2021-06-21 17:15:10.414062500,-43.0,-14.0,46.0,65.246171875,41.730000000000004,15.343223281250001,33.77
2021-06-21 17:15:10.421875000,-43.0,-14.0,46.0,65.24515625,42.77,15.3434234375,33.77
2021-06-21 17:15:10.429687500,-43.0,-14.0,46.0,65.244140625,44.035,15.34362359375,33.77
2021-06-21 17:15:10.437500000,-43.0,-14.0,46.0,65.24312499999999,45.3,15.34382375,33.77
2021-06-21 17:15:10.445312500,-43.0,-14.0,46.0,65.242109375,46.59,15.344023906250001,33.77
2021-06-21 17:15:10.453125000,-43.0,-14.0,46.0,65.24109375,47.88,15.3442240625,33.77
2021-06-21 17:15:10.460937500,-43.0,-14.0,46.0,65.240078125,49.05,15.34442421875,33.77
2021-06-21 17:15:10.468750000,-43.0,-14.0,46.0,65.2390625,50.22,15.344624375,33.77
2021-06-21 17:15:10.476562500,-43.0,-14.0,46.0,65.238046875,51.155,15.344824531250001,33.77
2021-06-21 17:15:10.484375000,-43.0,-14.0,46.0,65.23703125,52.09,15.3450246875,33.77
2021-06-21 17:15:10.492187500,-43.0,-14.0,46.0,65.236015625,52.675,15.34522484375,33.77
2021-06-21 17:15:10.500000000,-43.0,-14.0,46.0,65.235,53.26,15.345425,33.77
2021-06-21 17:15:10.507812500,-43.0,-14.0,46.0,65.233984375,53.37,15.345104718750001,33.77
2021-06-21 17:15:10.515625000,-43.0,-14.0,46.0,65.23296875,53.48,15.344784437500001,33.77
2021-06-21 17:15:10.523437500,-43.0,-14.0,46.0,65.231953125,52.995,15.34446415625,33.77
2021-06-21 17:15:10.531250000,-43.0,-14.0,46.0,65.2309375,52.51,15.344143875,33.77
2021-06-21 17:15:10.539062500,-43.0,-14.0,46.0,65.229921875,51.375,15.34382359375,33.77
2021-06-21 17:15:10.546875000,-43.0,-14.0,46.0,65.22890625,50.24,15.343503312500001,33.77
2021-06-21 17:15:10.554687500,-43.0,-14.0,46.0,65.227890625,48.515,15.34318303125,33.77
2021-06-21 17:15:10.562500000,-43.0,-14.0,46.0,65.226875,46.79,15.34286275,33.77
2021-06-21 17:15:10.570312500,-43.0,-14.0,46.0,65.225859375,44.655,15.34254246875,33.77
2021-06-21 17:15:10.578125000,-43.0,-14.0,46.0,65.22484375,42.52,15.3422221875,33.77
2021-06-21 17:15:10.585937500,-43.0,-14.0,46.0,65.223828125,40.265,15.341901906250001,33.77
2021-06-21 17:15:10.593750000,-43.0,-14.0,46.0,65.2228125,38.01,15.341581625,33.77
2021-06-21 17:15:10.601562500,-43.0,-14.0,46.0,65.221796875,35.92,15.34126134375,33.77
2021-06-21 17:15:10.609375000,-43.0,-14.0,46.0,65.22078125,33.83,15.3409410625,33.77
2021-06-21 17:15:10.617187500,-43.0,-14.0,46.0,65.219765625,32.075,15.340620781250001,33.77
2021-06-21 17:15:10.625000000,-43.0,-14.0,46.0,65.21875,30.32,15.340300500000001,33.77
2021-06-21 17:15:10.632812500,-43.0,-14.0,46.0,65.217734375,28.905,15.33998021875,33.77
2021-06-21 17:15:10.640625000,-43.0,-14.0,46.0,65.21671875,27.49,15.3396599375,33.77
2021-06-21 17:15:10.648437500,-43.0,-14.0,46.0,65.215703125,26.244999999999997,15.33933965625,33.77
2021-06-21 17:15:10.656250000,-43.0,-14.0,46.0,65.2146875,25.0,15.339019375000001,33.77
2021-06-21 17:15:10.664062500,-43.0,-14.0,46.0,65.213671875,23.695,15.33869909375,33.77
2021-06-21 17:15:10.671875000,-43.0,-14.0,46.0,65.21265625,22.39,15.3383788125,33.77
2021-06-21 17:15:10.679687500,-43.0,-14.0,46.0,65.211640625,20.785,15.33805853125,33.77
2021-06-21 17:15:10.687500000,-43.0,-14.0,46.0,65.210625,19.18,15.337738250000001,33.77
2021-06-21 17:15:10.695312500,-43.0,-14.0,46.0,65.209609375,17.175,15.337417968750001,33.77
2021-06-21 17:15:10.703125000,-43.0,-14.0,46.0,65.20859375,15.17,15.3370976875,33.77
2021-06-21 17:15:10.710937500,-43.0,-14.0,46.0,65.207578125,12.855,15.33677740625,33.77
2021-06-21 17:15:10.718750000,-43.0,-14.0,46.0,65.2065625,10.54,15.336457125,33.77
2021-06-21 17:15:10.726562500,-43.0,-14.0,46.0,65.205546875,8.12,15.336136843750001,33.77
2021-06-21 17:15:10.734375000,-43.0,-14.0,46.0,65.20453125,5.7,15.3358165625,33.77
2021-06-21 17:15:10.742187500,-43.0,-14.0,46.0,65.203515625,3.44,15.33549628125,33.77
2021-06-21 17:15:10.750000000,-43.0,-14.0,46.0,65.2025,1.18,15.335176,33.77
2021-06-21 17:15:10.757812500,-43.0,-14.0,46.0,65.201484375,-0.72,15.33513596875,33.77
2021-06-21 17:15:10.765625000,-43.0,-14.0,46.0,65.20046875,-2.62,15.3350959375,33.77
2021-06-21 17:15:10.773437500,-43.0,-14.0,46.0,65.199453125,-4.12,15.33505590625,33.77
2021-06-21 17:15:10.781250000,-43.0,-14.0,46.0,65.1984375,-5.62,15.335015875,33.77
2021-06-21 17:15:10.789062500,-43.0,-14.0,46.0,65.197421875,-6.865,15.33497584375,33.77
2021-06-21 17:15:10.796875000,-43.0,-14.0,46.0,65.19640625,-8.11,15.334935812500001,33.77
2021-06-21 17:15:10.804687500,-43.0,-14.0,46.0,65.195390625,-9.39,15.334895781250001,33.77
2021-06-21 17:15:10.812500000,-43.0,-14.0,46.0,65.19437500000001,-10.67,15.334855750000001,33.77
2021-06-21 17:15:10.820312500,-43.0,-14.0,46.0,65.193359375,-12.29,15.33481571875,33.77
2021-06-21 17:15:10.828125000,-43.0,-14.0,46.0,65.19234375,-13.91,15.3347756875,33.77
2021-06-21 17:15:10.835937500,-43.0,-14.0,46.0,65.191328125,-16.045,15.33473565625,33.77
2021-06-21 17:15:10.843750000,-43.0,-14.0,46.0,65.1903125,-18.18,15.334695625,33.77
2021-06-21 17:15:10.851562500,-43.0,-14.0,46.0,65.189296875,-20.795,15.33465559375,33.77
2021-06-21 17:15:10.859375000,-43.0,-14.0,46.0,65.18828125,-23.41,15.3346155625,33.77
2021-06-21 17:15:10.867187500,-43.0,-14.0,46.0,65.187265625,-26.27,15.33457553125,33.77
2021-06-21 17:15:10.875000000,-43.0,-14.0,46.0,65.18625,-29.13,15.334535500000001,33.77
2021-06-21 17:15:10.882812500,-43.0,-14.0,46.0,65.18523437500001,-31.89,15.334495468750001,33.77
2021-06-21 17:15:10.890625000,-43.0,-14.0,46.0,65.18421875,-34.65,15.3344554375,33.77
2021-06-21 17:15:10.898437500,-43.0,-14.0,46.0,65.183203125,-37.03,15.33441540625,33.77
2021-06-21 17:15:10.906250000,-43.0,-14.0,46.0,65.1821875,-39.41,15.334375375,33.77
2021-06-21 17:15:10.914062500,-43.0,-14.0,46.0,65.181171875,-41.31,15.33433534375,33.77
2021-06-21 17:15:10.921875000,-43.0,-14.0,46.0,65.18015625,-43.21,15.3342953125,33.77
2021-06-21 17:15:10.929687500,-43.0,-14.0,46.0,65.179140625,-44.725,15.33425528125,33.77
2021-06-21 17:15:10.937500000,-43.0,-14.0,46.0,65.178125,-46.24,15.33421525,33.77
2021-06-21 17:15:10.945312500,-43.0,-14.0,46.0,65.177109375,-47.575,15.33417521875,33.77
2021-06-21 17:15:10.953125000,-43.0,-14.0,46.0,65.17609375,-48.91,15.3341351875,33.77
2021-06-21 17:15:10.960937500,-43.0,-14.0,46.0,65.175078125,-50.3,15.334095156250001,33.77
2021-06-21 17:15:10.968750000,-43.0,-14.0,46.0,65.1740625,-51.69,15.334055125,33.77
2021-06-21 17:15:10.976562500,-43.0,-14.0,46.0,65.173046875,-53.334999999999994,15.33401509375,33.77
2021-06-21 17:15:10.984375000,-43.0,-14.0,46.0,65.17203125,-54.98,15.3339750625,33.77
2021-06-21 17:15:10.992187500,-43.0,-14.0,46.0,65.171015625,-57.035,15.33393503125,33.77
2021-06-21 17:15:11.000000000,-43.0,-14.0,46.0,65.17,-59.09,15.333895,33.77
2021-06-21 17:15:11.007812500,-43.0,-14.0,46.0,65.1684375,-61.690000000000005,15.33365478125,33.769375000000004
2021-06-21 17:15:11.015625000,-43.0,-14.0,46.0,65.166875,-64.29,15.3334145625,33.768750000000004
2021-06-21 17:15:11.023437500,-43.0,-14.0,46.0,65.1653125,-67.52000000000001,15.33317434375,33.768125000000005
2021-06-21 17:15:11.031250000,-43.0,-14.0,46.0,65.16375000000001,-70.75,15.332934125,33.767500000000005
2021-06-21 17:15:11.039062500,-43.0,-14.0,46.0,65.1621875,-74.535,15.33269390625,33.766875000000006
2021-06-21 17:15:11.046875000,-43.0,-14.0,46.0,65.160625,-78.32,15.3324536875,33.76625
2021-06-21 17:15:11.054687500,-43.0,-14.0,46.0,65.1590625,-82.28999999999999,15.33221346875,33.765625
2021-06-21 17:15:11.062500000,-43.0,-14.0,46.0,65.1575,-86.26,15.33197325,33.765
2021-06-21 17:15:11.070312500,-43.0,-14.0,46.0,65.15593750000001,-89.68,15.33173303125,33.764375
2021-06-21 17:15:11.078125000,-43.0,-14.0,46.0,65.154375,-93.1,15.3314928125,33.76375
2021-06-21 17:15:11.085937500,-43.0,-14.0,46.0,65.1528125,-94.995,15.33125259375,33.763125
2021-06-21 17:15:11.093750000,-43.0,-14.0,46.0,65.15125,-96.89,15.331012375,33.7625
2021-06-21 17:15:11.101562500,-43.0,-14.0,46.0,65.1496875,-96.3,15.33077215625,33.761875
2021-06-21 17:15:11.109375000,-43.0,-14.0,46.0,65.14812500000001,-95.71,15.3305319375,33.761250000000004
2021-06-21 17:15:11.117187500,-43.0,-14.0,46.0,65.1465625,-92.08,15.330291718749999,33.760625000000005
2021-06-21 17:15:11.125000000,-43.0,-14.0,46.0,65.145,-88.45,15.3300515,33.760000000000005
2021-06-21 17:15:11.132812500,-43.0,-14.0,46.0,65.1434375,-81.815,15.32981128125,33.759375
2021-06-21 17:15:11.140625000,-43.0,-14.0,46.0,65.141875,-75.18,15.3295710625,33.75875
2021-06-21 17:15:11.148437500,-43.0,-14.0,46.0,65.14031250000001,-66.23,15.32933084375,33.758125
2021-06-21 17:15:11.156250000,-43.0,-14.0,46.0,65.13875,-57.28,15.329090625,33.7575
2021-06-21 17:15:11.164062500,-43.0,-14.0,46.0,65.1371875,-47.125,15.32885040625,33.756875
2021-06-21 17:15:11.171875000,-43.0,-14.0,46.0,65.135625,-36.97,15.328610187499999,33.75625
2021-06-21 17:15:11.179687500,-43.0,-14.0,46.0,65.1340625,-26.835,15.32836996875,33.755625
2021-06-21 17:15:11.187500000,-43.0,-14.0,46.0,65.13250000000001,-16.7,15.328129749999999,33.755
2021-06-21 17:15:11.195312500,-43.0,-14.0,46.0,65.1309375,-7.6,15.32788953125,33.754375
2021-06-21 17:15:11.203125000,-43.0,-14.0,46.0,65.129375,1.5,15.3276493125,33.753750000000004
2021-06-21 17:15:11.210937500,-43.0,-14.0,46.0,65.1278125,8.945,15.32740909375,33.753125
2021-06-21 17:15:11.218750000,-43.0,-14.0,46.0,65.12625,16.39,15.327168875,33.7525
2021-06-21 17:15:11.226562500,-43.0,-14.0,46.0,65.12468750000001,21.990000000000002,15.326928656249999,33.751875
2021-06-21 17:15:11.234375000,-43.0,-14.0,46.0,65.123125,27.59,15.3266884375,33.75125
2021-06-21 17:15:11.242187500,-43.0,-14.0,46.0,65.1215625,31.450000000000003,15.326448218749999,33.750625
2021-06-21 17:15:11.250000000,-43.0,-14.0,46.0,65.12,35.31,15.326208,33.75
2021-06-21 17:15:11.257812500,-43.0,-14.0,46.0,65.1184375,37.705,15.325207156249999,33.75
2021-06-21 17:15:11.265625000,-43.0,-14.0,46.0,65.11687500000001,40.1,15.3242063125,33.75
2021-06-21 17:15:11.273437500,-43.0,-14.0,46.0,65.1153125,41.35,15.32320546875,33.75
2021-06-21 17:15:11.281250000,-43.0,-14.0,46.0,65.11375,42.6,15.322204625,33.75
2021-06-21 17:15:11.289062500,-43.0,-14.0,46.0,65.1121875,42.97,15.321203781249999,33.75
2021-06-21 17:15:11.296875000,-43.0,-14.0,46.0,65.110625,43.34,15.3202029375,33.75
2021-06-21 17:15:11.304687500,-43.0,-14.0,46.0,65.10906250000001,43.095,15.31920209375,33.75
2021-06-21 17:15:11.312500000,-43.0,-14.0,46.0,65.1075,42.85,15.31820125,33.75
2021-06-21 17:15:11.320312500,-43.0,-14.0,46.0,65.1059375,42.22,15.317200406249999,33.75
2021-06-21 17:15:11.328125000,-43.0,-14.0,46.0,65.104375,41.59,15.3161995625,33.75
2021-06-21 17:15:11.335937500,-43.0,-14.0,46.0,65.1028125,40.825,15.31519871875,33.75
2021-06-21 17:15:11.343750000,-43.0,-14.0,46.0,65.10125000000001,40.06,15.314197875,33.75
2021-06-21 17:15:11.351562500,-43.0,-14.0,46.0,65.0996875,39.415000000000006,15.313197031249999,33.75
2021-06-21 17:15:11.359375000,-43.0,-14.0,46.0,65.098125,38.77,15.3121961875,33.75
2021-06-21 17:15:11.367187500,-43.0,-14.0,46.0,65.0965625,38.45,15.31119534375,33.75
2021-06-21 17:15:11.375000000,-43.0,-14.0,46.0,65.095,38.13,15.3101945,33.75
2021-06-21 17:15:11.382812500,-43.0,-14.0,46.0,65.09343750000001,38.245000000000005,15.309193656249999,33.75
2021-06-21 17:15:11.390625000,-43.0,-14.0,46.0,65.091875,38.36,15.3081928125,33.75
2021-06-21 17:15:11.398437500,-43.0,-14.0,46.0,65.0903125,38.905,15.30719196875,33.75
2021-06-21 17:15:11.406250000,-43.0,-14.0,46.0,65.08875,39.45,15.306191125,33.75
2021-06-21 17:15:11.414062500,-43.0,-14.0,46.0,65.0871875,40.365,15.305190281249999,33.75
2021-06-21 17:15:11.421875000,-43.0,-14.0,46.0,65.08562500000001,41.28,15.3041894375,33.75
2021-06-21 17:15:11.429687500,-43.0,-14.0,46.0,65.0840625,42.445,15.30318859375,33.75
2021-06-21 17:15:11.437500000,-43.0,-14.0,46.0,65.0825,43.61,15.30218775,33.75
2021-06-21 17:15:11.445312500,-43.0,-14.0,46.0,65.0809375,44.94,15.301186906249999,33.75
2021-06-21 17:15:11.453125000,-43.0,-14.0,46.0,65.079375,46.27,15.3001860625,33.75
2021-06-21 17:15:11.460937500,-43.0,-14.0,46.0,65.07781250000001,47.695,15.29918521875,33.75
2021-06-21 17:15:11.468750000,-43.0,-14.0,46.0,65.07625,49.12,15.298184375,33.75
2021-06-21 17:15:11.476562500,-43.0,-14.0,46.0,65.0746875,50.584999999999994,15.297183531249999,33.75
2021-06-21 17:15:11.484375000,-43.0,-14.0,46.0,65.073125,52.05,15.2961826875,33.75
2021-06-21 17:15:11.492187500,-43.0,-14.0,46.0,65.0715625,53.43,15.295181843750001,33.75
2021-06-21 17:15:11.500000000,-43.0,-14.0,46.0,65.07,54.81,15.294181,33.75
2021-06-21 17:15:11.507812500,-43.0,-14.0,46.0,65.0684375,55.935,15.294181,33.75
2021-06-21 17:15:11.515625000,-43.0,-14.0,46.0,65.066875,57.06,15.294181,33.75
2021-06-21 17:15:11.523437500,-43.0,-14.0,46.0,65.0653125,57.695,15.294181,33.75
2021-06-21 17:15:11.531250000,-43.0,-14.0,46.0,65.06375,58.33,15.294181,33.75
2021-06-21 17:15:11.539062500,-43.0,-14.0,46.0,65.0621875,58.245,15.294181,33.75
2021-06-21 17:15:11.546875000,-43.0,-14.0,46.0,65.060625,58.16,15.294181,33.75
2021-06-21 17:15:11.554687500,-43.0,-14.0,46.0,65.0590625,57.239999999999995,15.294181,33.75
2021-06-21 17:15:11.562500000,-43.0,-14.0,46.0,65.0575,56.32,15.294181,33.75
2021-06-21 17:15:11.570312500,-43.0,-14.0,46.0,65.0559375,54.575,15.294181,33.75
2021-06-21 17:15:11.578125000,-43.0,-14.0,46.0,65.054375,52.83,15.294181,33.75
2021-06-21 17:15:11.585937500,-43.0,-14.0,46.0,65.0528125,50.47,15.294181,33.75
2021-06-21 17:15:11.593750000,-43.0,-14.0,46.0,65.05125,48.11,15.294181,33.75
2021-06-21 17:15:11.601562500,-43.0,-14.0,46.0,65.0496875,45.43,15.294181,33.75
2021-06-21 17:15:11.609375000,-43.0,-14.0,46.0,65.048125,42.75,15.294181,33.75
2021-06-21 17:15:11.617187500,-43.0,-14.0,46.0,65.0465625,40.09,15.294181,33.75
2021-06-21 17:15:11.625000000,-43.0,-14.0,46.0,65.045,37.43,15.294181,33.75
2021-06-21 17:15:11.632812500,-43.0,-14.0,46.0,65.0434375,35.019999999999996,15.294181,33.75
2021-06-21 17:15:11.640625000,-43.0,-14.0,46.0,65.041875,32.61,15.294181,33.75
2021-06-21 17:15:11.648437500,-43.0,-14.0,46.0,65.0403125,30.525,15.294181,33.75
2021-06-21 17:15:11.656250000,-43.0,-14.0,46.0,65.03875,28.44,15.294181,33.75
2021-06-21 17:15:11.664062500,-43.0,-14.0,46.0,65.0371875,26.595,15.294181,33.75
2021-06-21 17:15:11.671875000,-43.0,-14.0,46.0,65.035625,24.75,15.294181,33.75
2021-06-21 17:15:11.679687500,-43.0,-14.0,46.0,65.0340625,22.945,15.294181,33.75
2021-06-21 17:15:11.687500000,-43.0,-14.0,46.0,65.0325,21.14,15.294181,33.75
2021-06-21 17:15:11.695312500,-43.0,-14.0,46.0,65.0309375,19.21,15.294181,33.75
2021-06-21 17:15:11.703125000,-43.0,-14.0,46.0,65.029375,17.28,15.294181,33.75
2021-06-21 17:15:11.710937500,-43.0,-14.0,46.0,65.0278125,15.135000000000002,15.294181,33.75
2021-06-21 17:15:11.718750000,-43.0,-14.0,46.0,65.02625,12.99,15.294181,33.75
2021-06-21 17:15:11.726562500,-43.0,-14.0,46.0,65.0246875,10.7,15.294181,33.75
2021-06-21 17:15:11.734375000,-43.0,-14.0,46.0,65.023125,8.41,15.294181,33.75
2021-06-21 17:15:11.742187500,-43.0,-14.0,46.0,65.0215625,6.145,15.294181,33.75
2021-06-21 17:15:11.750000000,-43.0,-14.0,46.0,65.02,3.88,15.294181,33.75
2021-06-21 17:15:11.757812500,-43.0,-14.0,46.0,65.0184375,1.79,15.295181843750001,33.75
2021-06-21 17:15:11.765625000,-43.0,-14.0,46.0,65.016875,-0.3,15.2961826875,33.75
2021-06-21 17:15:11.773437500,-43.0,-14.0,46.0,65.0153125,-2.155,15.297183531249999,33.75
2021-06-21 17:15:11.781250000,-43.0,-14.0,46.0,65.01375,-4.01,15.298184375,33.75
2021-06-21 17:15:11.789062500,-43.0,-14.0,46.0,65.0121875,-5.699999999999999,15.29918521875,33.75
2021-06-21 17:15:11.796875000,-43.0,-14.0,46.0,65.010625,-7.39,15.3001860625,33.75
2021-06-21 17:15:11.804687500,-43.0,-14.0,46.0,65.0090625,-9.09,15.301186906249999,33.75
2021-06-21 17:15:11.812500000,-43.0,-14.0,46.0,65.0075,-10.79,15.30218775,33.75
2021-06-21 17:15:11.820312500,-43.0,-14.0,46.0,65.0059375,-12.7,15.30318859375,33.75
2021-06-21 17:15:11.828125000,-43.0,-14.0,46.0,65.004375,-14.61,15.3041894375,33.75
2021-06-21 17:15:11.835937500,-43.0,-14.0,46.0,65.0028125,-16.835,15.305190281249999,33.75
2021-06-21 17:15:11.843750000,-43.0,-14.0,46.0,65.00125,-19.06,15.306191125,33.75
2021-06-21 17:15:11.851562500,-43.0,-14.0,46.0,64.9996875,-21.61,15.30719196875,33.75
2021-06-21 17:15:11.859375000,-43.0,-14.0,46.0,64.998125,-24.16,15.3081928125,33.75
2021-06-21 17:15:11.867187500,-43.0,-14.0,46.0,64.9965625,-26.895,15.309193656249999,33.75
2021-06-21 17:15:11.875000000,-43.0,-14.0,46.0,64.995,-29.63,15.3101945,33.75
2021-06-21 17:15:11.882812500,-43.0,-14.0,46.0,64.9934375,-32.405,15.31119534375,33.75
2021-06-21 17:15:11.890625000,-43.0,-14.0,46.0,64.991875,-35.18,15.3121961875,33.75
2021-06-21 17:15:11.898437500,-43.0,-14.0,46.0,64.9903125,-37.84,15.313197031249999,33.75
2021-06-21 17:15:11.906250000,-43.0,-14.0,46.0,64.98875,-40.5,15.314197875,33.75
2021-06-21 17:15:11.914062500,-43.0,-14.0,46.0,64.9871875,-42.989999999999995,15.31519871875,33.75
2021-06-21 17:15:11.921875000,-43.0,-14.0,46.0,64.985625,-45.48,15.3161995625,33.75
2021-06-21 17:15:11.929687500,-43.0,-14.0,46.0,64.9840625,-47.849999999999994,15.317200406249999,33.75
2021-06-21 17:15:11.937500000,-43.0,-14.0,46.0,64.9825,-50.22,15.31820125,33.75
2021-06-21 17:15:11.945312500,-43.0,-14.0,46.0,64.9809375,-52.599999999999994,15.31920209375,33.75
2021-06-21 17:15:11.953125000,-43.0,-14.0,46.0,64.979375,-54.98,15.3202029375,33.75
2021-06-21 17:15:11.960937500,-43.0,-14.0,46.0,64.9778125,-57.599999999999994,15.321203781249999,33.75
2021-06-21 17:15:11.968750000,-43.0,-14.0,46.0,64.97625,-60.22,15.322204625,33.75
2021-06-21 17:15:11.976562500,-42.75,-14.0,46.0,64.9746875,-63.305,15.32320546875,33.75
2021-06-21 17:15:11.984375000,-42.5,-14.0,46.0,64.973125,-66.39,15.3242063125,33.75
2021-06-21 17:15:11.992187500,-42.25,-14.0,46.0,64.9715625,-70.14,15.325207156249999,33.75
2021-06-21 17:15:12.000000000,-42.0,-14.0,46.0,64.97,-73.89,15.326208,33.75
2021-06-21 17:15:12.007812500,-42.25,-14.0,46.0,64.96828125,-78.295,15.326047874999999,33.75
2021-06-21 17:15:12.015625000,-42.5,-14.0,46.0,64.9665625,-82.7,15.32588775,33.75
2021-06-21 17:15:12.023437500,-42.75,-14.0,46.0,64.96484375,-87.475,15.325727624999999,33.75
2021-06-21 17:15:12.031250000,-43.0,-14.0,46.0,64.963125,-92.25,15.3255675,33.75
2021-06-21 17:15:12.039062500,-43.0,-14.0,46.0,64.96140625,-96.745,15.325407375,33.75
2021-06-21 17:15:12.046875000,-43.0,-14.0,46.0,64.9596875,-101.24,15.32524725,33.75
2021-06-21 17:15:12.054687500,-43.0,-14.0,46.0,64.95796874999999,-104.5,15.325087125,33.75
2021-06-21 17:15:12.062500000,-43.0,-14.0,46.0,64.95625,-107.76,15.324926999999999,33.75
2021-06-21 17:15:12.070312500,-43.0,-14.0,46.0,64.95453125,-108.775,15.324766875,33.75
2021-06-21 17:15:12.078125000,-43.0,-14.0,46.0,64.9528125,-109.79,15.32460675,33.75
2021-06-21 17:15:12.085937500,-43.0,-14.0,46.0,64.95109375,-107.79,15.324446625,33.75
2021-06-21 17:15:12.093750000,-43.0,-14.0,46.0,64.949375,-105.79,15.3242865,33.75
2021-06-21 17:15:12.101562500,-43.0,-14.0,46.0,64.94765625,-100.53,15.324126375,33.75
2021-06-21 17:15:12.109375000,-43.0,-14.0,46.0,64.9459375,-95.27,15.32396625,33.75
2021-06-21 17:15:12.117187500,-43.0,-14.0,46.0,64.94421875,-87.155,15.323806125,33.75
2021-06-21 17:15:12.125000000,-43.0,-14.0,46.0,64.9425,-79.04,15.323646,33.75
2021-06-21 17:15:12.132812500,-43.0,-14.0,46.0,64.94078125,-68.985,15.323485875,33.75
2021-06-21 17:15:12.140625000,-43.0,-14.0,46.0,64.9390625,-58.93,15.32332575,33.75
2021-06-21 17:15:12.148437500,-43.0,-14.0,46.0,64.93734375,-48.09,15.323165625,33.75
2021-06-21 17:15:12.156250000,-43.0,-14.0,46.0,64.935625,-37.25,15.3230055,33.75
2021-06-21 17:15:12.164062500,-43.0,-14.0,46.0,64.93390624999999,-26.71,15.322845375,33.75
2021-06-21 17:15:12.171875000,-43.0,-14.0,46.0,64.9321875,-16.17,15.322685250000001,33.75
2021-06-21 17:15:12.179687500,-43.0,-14.0,46.0,64.93046875,-6.690000000000001,15.322525125,33.75
2021-06-21 17:15:12.187500000,-43.0,-14.0,46.0,64.92875,2.79,15.322365000000001,33.75
2021-06-21 17:15:12.195312500,-43.0,-14.0,46.0,64.92703125,10.809999999999999,15.322204875,33.75
2021-06-21 17:15:12.203125000,-43.0,-14.0,46.0,64.9253125,18.83,15.32204475,33.75
2021-06-21 17:15:12.210937500,-43.0,-14.0,46.0,64.92359375,25.265,15.321884625000001,33.75
2021-06-21 17:15:12.218750000,-43.0,-14.0,46.0,64.921875,31.7,15.3217245,33.75
2021-06-21 17:15:12.226562500,-43.0,-14.0,46.0,64.92015625,36.58,15.321564375000001,33.75
2021-06-21 17:15:12.234375000,-43.0,-14.0,46.0,64.9184375,41.46,15.32140425,33.75
2021-06-21 17:15:12.242187500,-43.0,-14.0,46.0,64.91671875,44.85,15.321244125000002,33.75
2021-06-21 17:15:12.250000000,-43.0,-14.0,46.0,64.91499999999999,48.24,15.321084,33.75
2021-06-21 17:15:12.257812500,-43.0,-14.25,46.0,64.91328125,50.255,15.32148434375,33.75
2021-06-21 17:15:12.265625000,-43.0,-14.5,46.0,64.9115625,52.27,15.3218846875,33.75
2021-06-21 17:15:12.273437500,-43.0,-14.75,46.0,64.90984375,53.095,15.32228503125,33.75
2021-06-21 17:15:12.281250000,-43.0,-15.0,46.0,64.908125,53.92,15.322685375,33.75
2021-06-21 17:15:12.289062500,-43.0,-14.75,46.0,64.90640625,53.815,15.32308571875,33.75
2021-06-21 17:15:12.296875000,-43.0,-14.5,46.0,64.9046875,53.71,15.3234860625,33.75
2021-06-21 17:15:12.304687500,-43.0,-14.25,46.0,64.90296875,53.035,15.32388640625,33.75
2021-06-21 17:15:12.312500000,-43.0,-14.0,46.0,64.90125,52.36,15.32428675,33.75
2021-06-21 17:15:12.320312500,-42.75,-14.25,46.0,64.89953125,51.495000000000005,15.32468709375,33.75
2021-06-21 17:15:12.328125000,-42.5,-14.5,46.0,64.8978125,50.63,15.3250874375,33.75
2021-06-21 17:15:12.335937500,-42.25,-14.75,46.0,64.89609375,49.93,15.32548778125,33.75
2021-06-21 17:15:12.343750000,-42.0,-15.0,46.0,64.894375,49.23,15.325888125,33.75
2021-06-21 17:15:12.351562500,-42.25,-14.75,46.0,64.89265625,48.93,15.32628846875,33.75
2021-06-21 17:15:12.359375000,-42.5,-14.5,46.0,64.89093749999999,48.63,15.3266888125,33.75
2021-06-21 17:15:12.367187500,-42.75,-14.25,46.0,64.88921875,48.84,15.32708915625,33.75
2021-06-21 17:15:12.375000000,-43.0,-14.0,46.0,64.8875,49.05,15.3274895,33.75
2021-06-21 17:15:12.382812500,-43.0,-14.0,46.0,64.88578125,49.735,15.32788984375,33.75
2021-06-21 17:15:12.390625000,-43.0,-14.0,46.0,64.8840625,50.42,15.3282901875,33.75
2021-06-21 17:15:12.398437500,-43.0,-14.0,46.0,64.88234375,51.475,15.32869053125,33.75
2021-06-21 17:15:12.406250000,-43.0,-14.0,46.0,64.880625,52.53,15.329090875,33.75
2021-06-21 17:15:12.414062500,-43.0,-14.0,46.0,64.87890625,53.775000000000006,15.32949121875,33.75
2021-06-21 17:15:12.421875000,-43.0,-14.0,46.0,64.8771875,55.02,15.3298915625,33.75
2021-06-21 17:15:12.429687500,-43.0,-14.0,46.0,64.87546875,56.32,15.33029190625,33.75
2021-06-21 17:15:12.437500000,-43.0,-14.0,46.0,64.87375,57.62,15.33069225,33.75
2021-06-21 17:15:12.445312500,-43.0,-14.0,46.0,64.87203125,58.87,15.33109259375,33.75
2021-06-21 17:15:12.453125000,-43.0,-14.0,46.0,64.8703125,60.12,15.3314929375,33.75
2021-06-21 17:15:12.460937500,-43.0,-14.0,46.0,64.86859375,61.254999999999995,15.33189328125,33.75
2021-06-21 17:15:12.468750000,-43.0,-14.0,46.0,64.866875,62.39,15.332293625,33.75
2021-06-21 17:15:12.476562500,-43.0,-14.0,46.0,64.86515625,63.355,15.33269396875,33.75
2021-06-21 17:15:12.484375000,-43.0,-14.0,46.0,64.8634375,64.32,15.3330943125,33.75
2021-06-21 17:15:12.492187500,-43.0,-14.0,46.0,64.86171875,65.025,15.33349465625,33.75
2021-06-21 17:15:12.500000000,-43.0,-14.0,46.0,64.86,65.73,15.333895,33.75
2021-06-21 17:15:12.507812500,-43.0,-14.25,46.0,64.85828125,66.025,15.3371778125,33.75
2021-06-21 17:15:12.515625000,-43.0,-14.5,46.0,64.8565625,66.32,15.340460625,33.75
2021-06-21 17:15:12.523437500,-43.0,-14.75,46.0,64.85484375,66.04499999999999,15.3437434375,33.75
2021-06-21 17:15:12.531250000,-43.0,-15.0,46.0,64.853125,65.77,15.34702625,33.75
2021-06-21 17:15:12.539062500,-43.0,-14.75,46.0,64.85140625,64.78,15.350309062500001,33.75
2021-06-21 17:15:12.546875000,-43.0,-14.5,46.0,64.8496875,63.79,15.353591875,33.75
2021-06-21 17:15:12.554687500,-43.0,-14.25,46.0,64.84796874999999,62.07,15.3568746875,33.75
2021-06-21 17:15:12.562500000,-43.0,-14.0,46.0,64.84625,60.35,15.3601575,33.75
2021-06-21 17:15:12.570312500,-43.0,-14.25,46.0,64.84453125,58.04,15.3634403125,33.75
2021-06-21 17:15:12.578125000,-43.0,-14.5,46.0,64.8428125,55.73,15.366723125,33.75
2021-06-21 17:15:12.585937500,-43.0,-14.75,46.0,64.84109375,53.125,15.3700059375,33.75
2021-06-21 17:15:12.593750000,-43.0,-15.0,46.0,64.839375,50.52,15.37328875,33.75
2021-06-21 17:15:12.601562500,-43.0,-15.0,46.0,64.83765625,47.95,15.3765715625,33.75
2021-06-21 17:15:12.609375000,-43.0,-15.0,46.0,64.8359375,45.38,15.379854375,33.75
2021-06-21 17:15:12.617187500,-43.0,-15.0,46.0,64.83421875,43.09,15.383137187500001,33.75
2021-06-21 17:15:12.625000000,-43.0,-15.0,46.0,64.8325,40.8,15.386420000000001,33.75
2021-06-21 17:15:12.632812500,-42.75,-15.0,46.0,64.83078125,38.834999999999994,15.3897028125,33.75
2021-06-21 17:15:12.640625000,-42.5,-15.0,46.0,64.8290625,36.87,15.392985625,33.75
2021-06-21 17:15:12.648437500,-42.25,-15.0,46.0,64.82734375,35.065,15.3962684375,33.75
2021-06-21 17:15:12.656250000,-42.0,-15.0,46.0,64.825625,33.26,15.39955125,33.75
2021-06-21 17:15:12.664062500,-42.25,-15.0,46.0,64.82390625,31.314999999999998,15.4028340625,33.75
2021-06-21 17:15:12.671875000,-42.5,-15.0,46.0,64.8221875,29.37,15.406116875,33.75
2021-06-21 17:15:12.679687500,-42.75,-15.0,46.0,64.82046875,27.015,15.4093996875,33.75
2021-06-21 17:15:12.687500000,-43.0,-15.0,46.0,64.81875,24.66,15.4126825,33.75
2021-06-21 17:15:12.695312500,-43.0,-14.75,46.0,64.81703125,21.825,15.415965312500001,33.75
2021-06-21 17:15:12.703125000,-43.0,-14.5,46.0,64.8153125,18.99,15.419248125000001,33.75
2021-06-21 17:15:12.710937500,-43.0,-14.25,46.0,64.81359375,15.84,15.4225309375,33.75
2021-06-21 17:15:12.718750000,-43.0,-14.0,46.0,64.811875,12.69,15.42581375,33.75
2021-06-21 17:15:12.726562500,-43.0,-14.0,46.0,64.81015625,9.575,15.4290965625,33.75
2021-06-21 17:15:12.734375000,-43.0,-14.0,46.0,64.8084375,6.46,15.432379375,33.75
2021-06-21 17:15:12.742187500,-43.0,-14.0,46.0,64.80671875,3.735,15.4356621875,33.75
2021-06-21 17:15:12.750000000,-43.0,-14.0,46.0,64.805,1.01,15.438945,33.75
2021-06-21 17:15:12.757812500,-43.0,-14.0,46.0,64.80328125,-1.11,15.44587096875,33.75
2021-06-21 17:15:12.765625000,-43.0,-14.0,46.0,64.8015625,-3.23,15.4527969375,33.75
2021-06-21 17:15:12.773437500,-43.0,-14.0,46.0,64.79984375,-4.83,15.45972290625,33.75
2021-06-21 17:15:12.781250000,-43.0,-14.0,46.0,64.798125,-6.43,15.466648875,33.75
2021-06-21 17:15:12.789062500,-43.0,-14.25,46.0,64.79640625,-7.83,15.47357484375,33.75
2021-06-21 17:15:12.796875000,-43.0,-14.5,46.0,64.7946875,-9.23,15.4805008125,33.75
2021-06-21 17:15:12.804687500,-43.0,-14.75,46.0,64.79296875,-10.825,15.48742678125,33.75
2021-06-21 17:15:12.812500000,-43.0,-15.0,46.0,64.79125,-12.42,15.494352750000001,33.75
2021-06-21 17:15:12.820312500,-43.0,-15.0,46.0,64.78953125,-14.5,15.501278718750001,33.75
2021-06-21 17:15:12.828125000,-43.0,-15.0,46.0,64.7878125,-16.58,15.508204687500001,33.75
2021-06-21 17:15:12.835937500,-43.0,-15.0,46.0,64.78609375,-19.205,15.515130656250001,33.75
2021-06-21 17:15:12.843750000,-43.0,-15.0,46.0,64.784375,-21.83,15.522056625000001,33.75
2021-06-21 17:15:12.851562500,-43.0,-14.75,46.0,64.78265625,-24.825,15.528982593750001,33.75
2021-06-21 17:15:12.859375000,-43.0,-14.5,46.0,64.7809375,-27.82,15.535908562500001,33.75
2021-06-21 17:15:12.867187500,-43.0,-14.25,46.0,64.77921875,-30.925,15.542834531250001,33.75
2021-06-21 17:15:12.875000000,-43.0,-14.0,46.0,64.7775,-34.03,15.549760500000001,33.75
2021-06-21 17:15:12.882812500,-43.0,-14.25,46.0,64.77578125,-37.025000000000006,15.55668646875,33.75
2021-06-21 17:15:12.890625000,-43.0,-14.5,46.0,64.7740625,-40.02,15.5636124375,33.75
2021-06-21 17:15:12.898437500,-43.0,-14.75,46.0,64.77234375,-42.795,15.57053840625,33.75
2021-06-21 17:15:12.906250000,-43.0,-15.0,46.0,64.770625,-45.57,15.577464375,33.75
2021-06-21 17:15:12.914062500,-43.0,-15.0,46.0,64.76890625,-48.165,15.58439034375,33.75
2021-06-21 17:15:12.921875000,-43.0,-15.0,46.0,64.7671875,-50.76,15.5913163125,33.75
2021-06-21 17:15:12.929687500,-43.0,-15.0,46.0,64.76546875,-53.3,15.59824228125,33.75
2021-06-21 17:15:12.937500000,-43.0,-15.0,46.0,64.76375,-55.84,15.60516825,33.75
2021-06-21 17:15:12.945312500,-43.0,-14.75,46.0,64.76203125,-58.5,15.61209421875,33.75
2021-06-21 17:15:12.953125000,-43.0,-14.5,46.0,64.7603125,-61.16,15.6190201875,33.75
2021-06-21 17:15:12.960937500,-43.0,-14.25,46.0,64.75859375,-64.12,15.62594615625,33.75
2021-06-21 17:15:12.968750000,-43.0,-14.0,46.0,64.756875,-67.08,15.632872125,33.75
2021-06-21 17:15:12.976562500,-43.0,-14.0,46.0,64.75515625,-70.53,15.63979809375,33.75
2021-06-21 17:15:12.984375000,-43.0,-14.0,46.0,64.7534375,-73.98,15.6467240625,33.75
2021-06-21 17:15:12.992187500,-43.0,-14.0,46.0,64.75171875,-78.055,15.65365003125,33.75
2021-06-21 17:15:13.000000000,-43.0,-14.0,46.0,64.75,-82.13,15.660576,33.75
2021-06-21 17:15:13.007812500,-43.0,-14.0,46.0,64.748046875,-86.765,15.6705845625,33.749375
2021-06-21 17:15:13.015625000,-43.0,-14.0,46.0,64.74609375,-91.4,15.680593125000001,33.74875
2021-06-21 17:15:13.023437500,-43.0,-14.0,46.0,64.744140625,-96.22,15.690601687500001,33.748125
2021-06-21 17:15:13.031250000,-43.0,-14.0,46.0,64.7421875,-101.04,15.70061025,33.7475
2021-06-21 17:15:13.039062500,-43.0,-14.25,46.0,64.740234375,-105.295,15.7106188125,33.746875
2021-06-21 17:15:13.046875000,-43.0,-14.5,46.0,64.73828125,-109.55,15.720627375000001,33.746249999999996
2021-06-21 17:15:13.054687500,-43.0,-14.75,46.0,64.736328125,-112.245,15.7306359375,33.745625
2021-06-21 17:15:13.062500000,-43.0,-15.0,46.0,64.734375,-114.94,15.7406445,33.745
2021-06-21 17:15:13.070312500,-43.0,-14.75,46.0,64.732421875,-115.11,15.750653062500001,33.744375
2021-06-21 17:15:13.078125000,-43.0,-14.5,46.0,64.73046875,-115.28,15.760661625000001,33.74375
2021-06-21 17:15:13.085937500,-43.0,-14.25,46.0,64.728515625,-112.28,15.7706701875,33.743125
2021-06-21 17:15:13.093750000,-43.0,-14.0,46.0,64.7265625,-109.28,15.78067875,33.7425
2021-06-21 17:15:13.101562500,-43.0,-14.0,46.0,64.724609375,-103.03999999999999,15.790687312500001,33.741875
2021-06-21 17:15:13.109375000,-43.0,-14.0,46.0,64.72265625,-96.8,15.800695875,33.74125
2021-06-21 17:15:13.117187500,-43.0,-14.0,46.0,64.720703125,-87.89,15.8107044375,33.740625
2021-06-21 17:15:13.125000000,-43.0,-14.0,46.0,64.71875,-78.98,15.820713000000001,33.739999999999995
2021-06-21 17:15:13.132812500,-43.0,-14.0,46.0,64.716796875,-68.405,15.8307215625,33.739374999999995
2021-06-21 17:15:13.140625000,-43.0,-14.0,46.0,64.71484375,-57.83,15.840730125,33.738749999999996
2021-06-21 17:15:13.148437500,-43.0,-14.0,46.0,64.712890625,-46.795,15.8507386875,33.738125
2021-06-21 17:15:13.156250000,-43.0,-14.0,46.0,64.7109375,-35.76,15.860747250000001,33.7375
2021-06-21 17:15:13.164062500,-42.75,-14.0,46.0,64.708984375,-25.354999999999997,15.8707558125,33.736875
2021-06-21 17:15:13.171875000,-42.5,-14.0,46.0,64.70703125,-14.95,15.880764375,33.73625
2021-06-21 17:15:13.179687500,-42.25,-14.0,46.0,64.705078125,-5.9,15.8907729375,33.735625
2021-06-21 17:15:13.187500000,-42.0,-14.0,46.0,64.703125,3.15,15.9007815,33.735
2021-06-21 17:15:13.195312500,-42.25,-14.0,46.0,64.701171875,10.524999999999999,15.9107900625,33.734375
2021-06-21 17:15:13.203125000,-42.5,-14.0,46.0,64.69921875,17.9,15.920798625,33.73375
2021-06-21 17:15:13.210937500,-42.75,-14.0,46.0,64.697265625,23.61,15.930807187500001,33.733124999999994
2021-06-21 17:15:13.218750000,-43.0,-14.0,46.0,64.6953125,29.32,15.94081575,33.732499999999995
2021-06-21 17:15:13.226562500,-43.0,-14.0,46.0,64.693359375,33.58,15.9508243125,33.731874999999995
2021-06-21 17:15:13.234375000,-43.0,-14.0,46.0,64.69140625,37.84,15.960832875,33.731249999999996
2021-06-21 17:15:13.242187500,-43.0,-14.0,46.0,64.689453125,40.80500000000001,15.9708414375,33.730624999999996
2021-06-21 17:15:13.250000000,-43.0,-14.0,46.0,64.6875,43.77,15.98085,33.73
2021-06-21 17:15:13.257812500,-43.0,-14.0,46.0,64.685546875,45.545,15.99576703125,33.73
2021-06-21 17:15:13.265625000,-43.0,-14.0,46.0,64.68359375,47.32,16.0106840625,33.73
2021-06-21 17:15:13.273437500,-43.0,-14.0,46.0,64.681640625,47.95,16.02560109375,33.73
2021-06-21 17:15:13.281250000,-43.0,-14.0,46.0,64.6796875,48.58,16.040518125,33.73
2021-06-21 17:15:13.289062500,-43.0,-14.0,46.0,64.677734375,48.19,16.05543515625,33.73
2021-06-21 17:15:13.296875000,-43.0,-14.0,46.0,64.67578125,47.8,16.0703521875,33.73
2021-06-21 17:15:13.304687500,-43.0,-14.0,46.0,64.673828125,46.685,16.08526921875,33.73
2021-06-21 17:15:13.312500000,-43.0,-14.0,46.0,64.671875,45.57,16.10018625,33.73
2021-06-21 17:15:13.320312500,-43.0,-14.0,46.0,64.669921875,44.225,16.11510328125,33.73
2021-06-21 17:15:13.328125000,-43.0,-14.0,46.0,64.66796875,42.88,16.1300203125,33.73
2021-06-21 17:15:13.335937500,-43.0,-14.0,46.0,64.666015625,41.84,16.14493734375,33.73
2021-06-21 17:15:13.343750000,-43.0,-14.0,46.0,64.6640625,40.8,16.159854375000002,33.73
2021-06-21 17:15:13.351562500,-43.0,-14.0,46.0,64.662109375,40.465,16.17477140625,33.73
2021-06-21 17:15:13.359375000,-43.0,-14.0,46.0,64.66015625,40.13,16.1896884375,33.73
2021-06-21 17:15:13.367187500,-43.0,-14.0,46.0,64.658203125,40.644999999999996,16.20460546875,33.73
2021-06-21 17:15:13.375000000,-43.0,-14.0,46.0,64.65625,41.16,16.2195225,33.73
2021-06-21 17:15:13.382812500,-43.0,-14.0,46.0,64.654296875,42.37,16.23443953125,33.73
2021-06-21 17:15:13.390625000,-43.0,-14.0,46.0,64.65234375,43.58,16.2493565625,33.73
2021-06-21 17:15:13.398437500,-43.0,-14.0,46.0,64.650390625,45.185,16.26427359375,33.73
2021-06-21 17:15:13.406250000,-43.0,-14.0,46.0,64.6484375,46.79,16.279190625,33.73
2021-06-21 17:15:13.414062500,-43.0,-14.0,46.0,64.646484375,48.485,16.29410765625,33.73
2021-06-21 17:15:13.421875000,-43.0,-14.0,46.0,64.64453125,50.18,16.3090246875,33.73
2021-06-21 17:15:13.429687500,-43.0,-14.0,46.0,64.642578125,51.735,16.32394171875,33.73
2021-06-21 17:15:13.437500000,-43.0,-14.0,46.0,64.640625,53.29,16.33885875,33.73
2021-06-21 17:15:13.445312500,-43.0,-14.0,46.0,64.638671875,54.605000000000004,16.35377578125,33.73
2021-06-21 17:15:13.453125000,-43.0,-14.0,46.0,64.63671875,55.92,16.3686928125,33.73
2021-06-21 17:15:13.460937500,-43.0,-14.0,46.0,64.634765625,56.94,16.38360984375,33.73
2021-06-21 17:15:13.468750000,-43.0,-14.0,46.0,64.6328125,57.96,16.398526875,33.73
2021-06-21 17:15:13.476562500,-43.0,-14.0,46.0,64.630859375,58.620000000000005,16.41344390625,33.73
2021-06-21 17:15:13.484375000,-43.0,-14.0,46.0,64.62890625,59.28,16.4283609375,33.73
2021-06-21 17:15:13.492187500,-43.0,-14.0,46.0,64.626953125,59.46,16.44327796875,33.73
2021-06-21 17:15:13.500000000,-43.0,-14.0,46.0,64.625,59.64,16.458195,33.73
2021-06-21 17:15:13.507812500,-43.0,-14.0,46.0,64.623046875,59.230000000000004,16.46215840625,33.73
2021-06-21 17:15:13.515625000,-43.0,-14.0,46.0,64.62109375,58.82,16.4661218125,33.73
2021-06-21 17:15:13.523437500,-43.0,-14.0,46.0,64.619140625,57.769999999999996,16.47008521875,33.73
2021-06-21 17:15:13.531250000,-43.0,-14.0,46.0,64.6171875,56.72,16.474048625000002,33.73
2021-06-21 17:15:13.539062500,-43.0,-14.0,46.0,64.615234375,55.085,16.47801203125,33.73
2021-06-21 17:15:13.546875000,-43.0,-14.0,46.0,64.61328125,53.45,16.4819754375,33.73
2021-06-21 17:15:13.554687500,-43.0,-14.0,46.0,64.611328125,51.375,16.48593884375,33.73
2021-06-21 17:15:13.562500000,-43.0,-14.0,46.0,64.609375,49.3,16.48990225,33.73
2021-06-21 17:15:13.570312500,-43.0,-14.0,46.0,64.607421875,46.995,16.49386565625,33.73
2021-06-21 17:15:13.578125000,-43.0,-14.0,46.0,64.60546875,44.69,16.4978290625,33.73
2021-06-21 17:15:13.585937500,-43.0,-14.0,46.0,64.603515625,42.364999999999995,16.50179246875,33.73
2021-06-21 17:15:13.593750000,-43.0,-14.0,46.0,64.6015625,40.04,16.505755875,33.73
2021-06-21 17:15:13.601562500,-43.0,-14.0,46.0,64.599609375,37.849999999999994,16.50971928125,33.73
2021-06-21 17:15:13.609375000,-43.0,-14.0,46.0,64.59765625,35.66,16.5136826875,33.73
2021-06-21 17:15:13.617187500,-43.0,-14.0,46.0,64.595703125,33.629999999999995,16.51764609375,33.73
2021-06-21 17:15:13.625000000,-43.0,-14.0,46.0,64.59375,31.6,16.5216095,33.73
2021-06-21 17:15:13.632812500,-43.0,-14.0,46.0,64.591796875,29.66,16.52557290625,33.73
2021-06-21 17:15:13.640625000,-43.0,-14.0,46.0,64.58984375,27.72,16.5295363125,33.73
2021-06-21 17:15:13.648437500,-43.0,-14.0,46.0,64.587890625,25.72,16.53349971875,33.73
2021-06-21 17:15:13.656250000,-43.0,-14.0,46.0,64.5859375,23.72,16.537463125000002,33.73
2021-06-21 17:15:13.664062500,-43.0,-14.0,46.0,64.583984375,21.515,16.54142653125,33.73
2021-06-21 17:15:13.671875000,-43.0,-14.0,46.0,64.58203125,19.31,16.5453899375,33.73
2021-06-21 17:15:13.679687500,-43.0,-14.0,46.0,64.580078125,16.84,16.54935334375,33.73
2021-06-21 17:15:13.687500000,-43.0,-14.0,46.0,64.578125,14.37,16.55331675,33.73
2021-06-21 17:15:13.695312500,-43.0,-14.0,46.0,64.576171875,11.719999999999999,16.557280156250002,33.73
2021-06-21 17:15:13.703125000,-43.0,-14.0,46.0,64.57421875,9.07,16.5612435625,33.73
2021-06-21 17:15:13.710937500,-43.0,-14.0,46.0,64.572265625,6.455,16.56520696875,33.73
2021-06-21 17:15:13.718750000,-43.0,-14.0,46.0,64.5703125,3.84,16.569170375,33.73
2021-06-21 17:15:13.726562500,-43.0,-14.0,46.0,64.568359375,1.52,16.57313378125,33.73
2021-06-21 17:15:13.734375000,-43.0,-14.0,46.0,64.56640625,-0.8,16.5770971875,33.73
2021-06-21 17:15:13.742187500,-43.0,-14.0,46.0,64.564453125,-2.665,16.58106059375,33.73
2021-06-21 17:15:13.750000000,-43.0,-14.0,46.0,64.5625,-4.53,16.585024,33.73
2021-06-21 17:15:13.757812500,-43.0,-14.0,46.0,64.560546875,-5.95,16.594345812500002,33.73
2021-06-21 17:15:13.765625000,-43.0,-14.0,46.0,64.55859375,-7.37,16.603667625,33.73
2021-06-21 17:15:13.773437500,-43.0,-14.0,46.0,64.556640625,-8.56,16.6129894375,33.73
2021-06-21 17:15:13.781250000,-43.0,-14.0,46.0,64.5546875,-9.75,16.62231125,33.73
2021-06-21 17:15:13.789062500,-43.0,-14.0,46.0,64.552734375,-11.01,16.6316330625,33.73
2021-06-21 17:15:13.796875000,-43.0,-14.0,46.0,64.55078125,-12.27,16.640954875000002,33.73
2021-06-21 17:15:13.804687500,-43.0,-14.0,46.0,64.548828125,-13.905,16.6502766875,33.73
2021-06-21 17:15:13.812500000,-43.0,-14.0,46.0,64.546875,-15.54,16.6595985,33.73
2021-06-21 17:15:13.820312500,-43.0,-14.0,46.0,64.544921875,-17.66,16.6689203125,33.73
2021-06-21 17:15:13.828125000,-43.0,-14.0,46.0,64.54296875,-19.78,16.678242125,33.73
2021-06-21 17:15:13.835937500,-43.0,-14.0,46.0,64.541015625,-22.325000000000003,16.687563937500002,33.73
2021-06-21 17:15:13.843750000,-43.0,-14.0,46.0,64.5390625,-24.87,16.69688575,33.73
2021-06-21 17:15:13.851562500,-43.0,-14.0,46.0,64.537109375,-27.59,16.7062075625,33.73
2021-06-21 17:15:13.859375000,-43.0,-14.0,46.0,64.53515625,-30.31,16.715529375,33.73
2021-06-21 17:15:13.867187500,-43.0,-14.0,46.0,64.533203125,-32.93,16.7248511875,33.73
2021-06-21 17:15:13.875000000,-43.0,-14.0,46.0,64.53125,-35.55,16.734173,33.73
2021-06-21 17:15:13.882812500,-43.0,-14.0,46.0,64.529296875,-37.89,16.7434948125,33.73
2021-06-21 17:15:13.890625000,-43.0,-14.0,46.0,64.52734375,-40.23,16.752816625,33.73
2021-06-21 17:15:13.898437500,-43.0,-14.0,46.0,64.525390625,-42.26,16.7621384375,33.73
2021-06-21 17:15:13.906250000,-43.0,-14.0,46.0,64.5234375,-44.29,16.77146025,33.73
2021-06-21 17:15:13.914062500,-43.0,-14.0,46.0,64.521484375,-46.17,16.7807820625,33.73
2021-06-21 17:15:13.921875000,-43.0,-14.0,46.0,64.51953125,-48.05,16.790103875,33.73
2021-06-21 17:15:13.929687500,-43.0,-14.0,46.0,64.517578125,-50.06,16.7994256875,33.73
2021-06-21 17:15:13.937500000,-43.0,-14.0,46.0,64.515625,-52.07,16.8087475,33.73
2021-06-21 17:15:13.945312500,-43.0,-14.0,46.0,64.513671875,-54.545,16.8180693125,33.73
2021-06-21 17:15:13.953125000,-43.0,-14.0,46.0,64.51171875,-57.02,16.827391125,33.73
2021-06-21 17:15:13.960937500,-43.0,-14.0,46.0,64.509765625,-60.21,16.8367129375,33.73
2021-06-21 17:15:13.968750000,-43.0,-14.0,46.0,64.5078125,-63.4,16.84603475,33.73
2021-06-21 17:15:13.976562500,-43.0,-14.0,46.0,64.505859375,-67.395,16.8553565625,33.73
2021-06-21 17:15:13.984375000,-43.0,-14.0,46.0,64.50390625,-71.39,16.864678375,33.73
2021-06-21 17:15:13.992187500,-43.0,-14.0,46.0,64.501953125,-75.945,16.8740001875,33.73
2021-06-21 17:15:14.000000000,-43.0,-14.0,46.0,64.5,-80.5,16.883322,33.73
2021-06-21 17:15:14.007812500,-43.0,-14.0,46.0,64.497890625,-85.06,16.8835621875,33.73
2021-06-21 17:15:14.015625000,-43.0,-14.0,46.0,64.49578125,-89.62,16.883802375,33.73
2021-06-21 17:15:14.023437500,-43.0,-14.0,46.0,64.493671875,-93.28999999999999,16.8840425625,33.73
2021-06-21 17:15:14.031250000,-43.0,-14.0,46.0,64.4915625,-96.96,16.88428275,33.73
2021-06-21 17:15:14.039062500,-43.0,-14.0,46.0,64.489453125,-98.71,16.884522937499998,33.73
2021-06-21 17:15:14.046875000,-43.0,-14.0,46.0,64.48734375,-100.46,16.884763125,33.73
2021-06-21 17:15:14.054687500,-43.0,-14.0,46.0,64.485234375,-99.38999999999999,16.8850033125,33.73
2021-06-21 17:15:14.062500000,-43.0,-14.0,46.0,64.483125,-98.32,16.8852435,33.73
2021-06-21 17:15:14.070312500,-43.0,-14.0,46.0,64.481015625,-93.945,16.8854836875,33.73
2021-06-21 17:15:14.078125000,-43.0,-14.0,46.0,64.47890625,-89.57,16.885723875,33.73
2021-06-21 17:15:14.085937500,-43.0,-14.0,46.0,64.476796875,-82.04499999999999,16.8859640625,33.73
2021-06-21 17:15:14.093750000,-43.0,-14.0,46.0,64.4746875,-74.52,16.88620425,33.73
2021-06-21 17:15:14.101562500,-43.0,-14.0,46.0,64.472578125,-64.63,16.8864444375,33.73
2021-06-21 17:15:14.109375000,-43.0,-14.0,46.0,64.47046875,-54.74,16.886684625,33.73
2021-06-21 17:15:14.117187500,-43.0,-14.0,46.0,64.468359375,-43.705,16.8869248125,33.73
2021-06-21 17:15:14.125000000,-43.0,-14.0,46.0,64.46625,-32.67,16.887165,33.73
2021-06-21 17:15:14.132812500,-43.0,-14.0,46.0,64.464140625,-21.82,16.8874051875,33.73
2021-06-21 17:15:14.140625000,-43.0,-14.0,46.0,64.46203125,-10.97,16.887645374999998,33.73
2021-06-21 17:15:14.148437500,-43.0,-14.0,46.0,64.459921875,-1.3600000000000012,16.8878855625,33.73
2021-06-21 17:15:14.156250000,-43.0,-14.0,46.0,64.4578125,8.25,16.88812575,33.73
2021-06-21 17:15:14.164062500,-43.0,-14.0,46.0,64.455703125,16.025,16.888365937499998,33.73
2021-06-21 17:15:14.171875000,-43.0,-14.0,46.0,64.45359375,23.8,16.888606125,33.73
2021-06-21 17:15:14.179687500,-43.0,-14.0,46.0,64.451484375,29.619999999999997,16.8888463125,33.73
2021-06-21 17:15:14.187500000,-43.0,-14.0,46.0,64.449375,35.44,16.889086499999998,33.73
2021-06-21 17:15:14.195312500,-43.0,-14.0,46.0,64.447265625,39.51,16.8893266875,33.73
2021-06-21 17:15:14.203125000,-43.0,-14.0,46.0,64.44515625,43.58,16.889566875,33.73
2021-06-21 17:15:14.210937500,-43.0,-14.0,46.0,64.44304687500001,46.224999999999994,16.8898070625,33.73
2021-06-21 17:15:14.218750000,-43.0,-14.0,46.0,64.4409375,48.87,16.89004725,33.73
2021-06-21 17:15:14.226562500,-43.0,-14.0,46.0,64.438828125,50.349999999999994,16.8902874375,33.73
2021-06-21 17:15:14.234375000,-43.0,-14.0,46.0,64.43671875,51.83,16.890527625,33.73
2021-06-21 17:15:14.242187500,-43.0,-14.0,46.0,64.43460937500001,52.305,16.8907678125,33.73
2021-06-21 17:15:14.250000000,-43.0,-14.0,46.0,64.4325,52.78,16.891008,33.73
2021-06-21 17:15:14.257812500,-43.0,-14.0,46.0,64.430390625,52.39,16.8892865,33.73
2021-06-21 17:15:14.265625000,-43.0,-14.0,46.0,64.42828125,52.0,16.887565,33.73
2021-06-21 17:15:14.273437500,-43.0,-14.0,46.0,64.426171875,50.96,16.8858435,33.73
2021-06-21 17:15:14.281250000,-43.0,-14.0,46.0,64.4240625,49.92,16.884121999999998,33.73
2021-06-21 17:15:14.289062500,-43.0,-14.0,46.0,64.421953125,48.55,16.8824005,33.73
2021-06-21 17:15:14.296875000,-43.0,-14.0,46.0,64.41984375,47.18,16.880679,33.73
2021-06-21 17:15:14.304687500,-43.0,-14.0,46.0,64.417734375,45.905,16.8789575,33.73
2021-06-21 17:15:14.312500000,-43.0,-14.0,46.0,64.415625,44.63,16.877236,33.73
2021-06-21 17:15:14.320312500,-43.0,-14.0,46.0,64.413515625,43.83,16.8755145,33.73
2021-06-21 17:15:14.328125000,-43.0,-14.0,46.0,64.41140625,43.03,16.873793,33.73
2021-06-21 17:15:14.335937500,-43.0,-14.0,46.0,64.409296875,42.94,16.8720715,33.73
2021-06-21 17:15:14.343750000,-43.0,-14.0,46.0,64.4071875,42.85,16.870350000000002,33.73
2021-06-21 17:15:14.351562500,-43.0,-14.0,46.0,64.405078125,43.47,16.8686285,33.73
2021-06-21 17:15:14.359375000,-43.0,-14.0,46.0,64.40296875,44.09,16.866907,33.73
2021-06-21 17:15:14.367187500,-43.0,-14.0,46.0,64.400859375,45.195,16.8651855,33.73
2021-06-21 17:15:14.375000000,-43.0,-14.0,46.0,64.39875,46.3,16.863464,33.73
2021-06-21 17:15:14.382812500,-43.0,-14.0,46.0,64.396640625,47.58,16.861742500000002,33.73
2021-06-21 17:15:14.390625000,-43.0,-14.0,46.0,64.39453125,48.86,16.860021,33.73
2021-06-21 17:15:14.398437500,-43.0,-14.0,46.0,64.392421875,50.03,16.8582995,33.73
2021-06-21 17:15:14.406250000,-43.0,-14.0,46.0,64.39031250000001,51.2,16.856578,33.73
2021-06-21 17:15:14.414062500,-43.0,-14.0,46.0,64.388203125,52.09,16.8548565,33.73
2021-06-21 17:15:14.421875000,-43.0,-14.0,46.0,64.38609375,52.98,16.853135,33.73
2021-06-21 17:15:14.429687500,-43.0,-14.0,46.0,64.383984375,53.54,16.8514135,33.73
2021-06-21 17:15:14.437500000,-43.0,-14.0,46.0,64.38187500000001,54.1,16.849692,33.73
2021-06-21 17:15:14.445312500,-43.0,-14.0,46.0,64.379765625,54.325,16.847970500000002,33.73
2021-06-21 17:15:14.453125000,-43.0,-14.0,46.0,64.37765625,54.55,16.846249,33.73
2021-06-21 17:15:14.460937500,-43.0,-14.0,46.0,64.375546875,54.39,16.8445275,33.73
2021-06-21 17:15:14.468750000,-43.0,-14.0,46.0,64.37343750000001,54.23,16.842806000000003,33.73
2021-06-21 17:15:14.476562500,-43.0,-14.0,46.0,64.371328125,53.61,16.8410845,33.73
2021-06-21 17:15:14.484375000,-43.0,-14.0,46.0,64.36921875,52.99,16.839363000000002,33.73
2021-06-21 17:15:14.492187500,-43.0,-14.0,46.0,64.367109375,51.835,16.8376415,33.73
2021-06-21 17:15:14.500000000,-43.0,-14.0,46.0,64.36500000000001,50.68,16.83592,33.73
2021-06-21 17:15:14.507812500,-43.0,-14.0,46.0,64.362890625,49.025,16.8324770625,33.73
2021-06-21 17:15:14.515625000,-43.0,-14.0,46.0,64.36078125,47.37,16.829034125,33.73
2021-06-21 17:15:14.523437500,-43.0,-14.0,46.0,64.358671875,45.41,16.825591187500002,33.73
2021-06-21 17:15:14.531250000,-43.0,-14.0,46.0,64.3565625,43.45,16.82214825,33.73
2021-06-21 17:15:14.539062500,-43.0,-14.0,46.0,64.354453125,41.475,16.8187053125,33.73
2021-06-21 17:15:14.546875000,-43.0,-14.0,46.0,64.35234375,39.5,16.815262375000003,33.73
2021-06-21 17:15:14.554687500,-43.0,-14.0,46.0,64.350234375,37.775,16.811819437500002,33.73
2021-06-21 17:15:14.562500000,-43.0,-14.0,46.0,64.348125,36.05,16.8083765,33.73
2021-06-21 17:15:14.570312500,-43.0,-14.0,46.0,64.346015625,34.675,16.8049335625,33.73
2021-06-21 17:15:14.578125000,-43.0,-14.0,46.0,64.34390625,33.3,16.801490625,33.73
2021-06-21 17:15:14.585937500,-43.0,-14.0,46.0,64.341796875,32.155,16.798047687500002,33.73
2021-06-21 17:15:14.593750000,-43.0,-14.0,46.0,64.3396875,31.01,16.79460475,33.73
2021-06-21 17:15:14.601562500,-43.0,-14.0,46.0,64.33757812500001,29.810000000000002,16.7911618125,33.73
2021-06-21 17:15:14.609375000,-43.0,-14.0,46.0,64.33546875,28.61,16.787718875000003,33.73
2021-06-21 17:15:14.617187500,-43.0,-14.0,46.0,64.333359375,27.064999999999998,16.784275937500002,33.73
2021-06-21 17:15:14.625000000,-43.0,-14.0,46.0,64.33125,25.52,16.780833,33.73
2021-06-21 17:15:14.632812500,-43.0,-14.0,46.0,64.32914062500001,23.515,16.7773900625,33.73
2021-06-21 17:15:14.640625000,-43.0,-14.0,46.0,64.32703125,21.51,16.773947125,33.73
2021-06-21 17:15:14.648437500,-43.0,-14.0,46.0,64.324921875,19.130000000000003,16.770504187500002,33.73
2021-06-21 17:15:14.656250000,-43.0,-14.0,46.0,64.3228125,16.75,16.76706125,33.73
2021-06-21 17:15:14.664062500,-43.0,-14.0,46.0,64.32070312500001,14.26,16.7636183125,33.73
2021-06-21 17:15:14.671875000,-43.0,-14.0,46.0,64.31859375,11.77,16.760175375000003,33.73
2021-06-21 17:15:14.679687500,-43.0,-14.0,46.0,64.316484375,9.434999999999999,16.756732437500002,33.73
2021-06-21 17:15:14.687500000,-43.0,-14.0,46.0,64.314375,7.1,16.7532895,33.73
2021-06-21 17:15:14.695312500,-43.0,-14.0,46.0,64.31226562500001,5.07,16.7498465625,33.73
2021-06-21 17:15:14.703125000,-43.0,-14.0,46.0,64.31015625,3.04,16.746403625,33.73
2021-06-21 17:15:14.710937500,-43.0,-14.0,46.0,64.308046875,1.275,16.742960687500002,33.73
2021-06-21 17:15:14.718750000,-43.0,-14.0,46.0,64.3059375,-0.49,16.73951775,33.73
2021-06-21 17:15:14.726562500,-43.0,-14.25,46.0,64.30382812500001,-2.165,16.7360748125,33.73
2021-06-21 17:15:14.734375000,-43.0,-14.5,46.0,64.30171875,-3.84,16.732631875000003,33.73
2021-06-21 17:15:14.742187500,-43.0,-14.75,46.0,64.299609375,-5.66,16.729188937500002,33.73
2021-06-21 17:15:14.750000000,-43.0,-15.0,46.0,64.2975,-7.48,16.725746,33.73
2021-06-21 17:15:14.757812500,-43.0,-15.0,46.0,64.295390625,-9.620000000000001,16.7202613125,33.73
2021-06-21 17:15:14.765625000,-43.0,-15.0,46.0,64.29328125,-11.76,16.714776625000002,33.73
2021-06-21 17:15:14.773437500,-43.0,-15.0,46.0,64.291171875,-14.280000000000001,16.7092919375,33.73
2021-06-21 17:15:14.781250000,-43.0,-15.0,46.0,64.2890625,-16.8,16.70380725,33.73
2021-06-21 17:15:14.789062500,-43.0,-14.75,46.0,64.286953125,-19.615000000000002,16.6983225625,33.73
2021-06-21 17:15:14.796875000,-43.0,-14.5,46.0,64.28484375000001,-22.43,16.692837875000002,33.73
2021-06-21 17:15:14.804687500,-43.0,-14.25,46.0,64.282734375,-25.365000000000002,16.6873531875,33.73
2021-06-21 17:15:14.812500000,-43.0,-14.0,46.0,64.280625,-28.3,16.6818685,33.73
2021-06-21 17:15:14.820312500,-43.0,-14.0,46.0,64.278515625,-31.17,16.676383812500003,33.73
2021-06-21 17:15:14.828125000,-43.0,-14.0,46.0,64.27640625000001,-34.04,16.670899125000002,33.73
2021-06-21 17:15:14.835937500,-43.0,-14.0,46.0,64.274296875,-36.705,16.6654144375,33.73
2021-06-21 17:15:14.843750000,-43.0,-14.0,46.0,64.2721875,-39.37,16.65992975,33.73
2021-06-21 17:15:14.851562500,-43.0,-14.0,46.0,64.270078125,-41.805,16.654445062500002,33.73
2021-06-21 17:15:14.859375000,-43.0,-14.0,46.0,64.26796875000001,-44.24,16.648960375,33.73
2021-06-21 17:15:14.867187500,-43.0,-14.0,46.0,64.265859375,-46.55,16.6434756875,33.73
2021-06-21 17:15:14.875000000,-43.0,-14.0,46.0,64.26375,-48.86,16.637991,33.73
2021-06-21 17:15:14.882812500,-43.0,-14.0,46.0,64.261640625,-51.254999999999995,16.632506312500002,33.73
2021-06-21 17:15:14.890625000,-43.0,-14.0,46.0,64.25953125000001,-53.65,16.627021625,33.73
2021-06-21 17:15:14.898437500,-43.0,-14.0,46.0,64.257421875,-56.42,16.6215369375,33.73
2021-06-21 17:15:14.906250000,-43.0,-14.0,46.0,64.2553125,-59.19,16.616052250000003,33.73
2021-06-21 17:15:14.914062500,-43.0,-14.0,46.0,64.253203125,-62.62,16.6105675625,33.73
2021-06-21 17:15:14.921875000,-43.0,-14.0,46.0,64.25109375000001,-66.05,16.605082875,33.73
2021-06-21 17:15:14.929687500,-43.0,-14.0,46.0,64.248984375,-70.3,16.5995981875,33.73
2021-06-21 17:15:14.937500000,-43.0,-14.0,46.0,64.246875,-74.55,16.594113500000002,33.73
2021-06-21 17:15:14.945312500,-43.0,-14.0,46.0,64.244765625,-79.515,16.5886288125,33.73
2021-06-21 17:15:14.953125000,-43.0,-14.0,46.0,64.24265625000001,-84.48,16.583144125,33.73
2021-06-21 17:15:14.960937500,-43.0,-14.0,46.0,64.240546875,-89.655,16.577659437500003,33.73
2021-06-21 17:15:14.968750000,-43.0,-14.0,46.0,64.2384375,-94.83,16.572174750000002,33.73
2021-06-21 17:15:14.976562500,-43.0,-14.0,46.0,64.236328125,-99.3,16.5666900625,33.73
2021-06-21 17:15:14.984375000,-43.0,-14.0,46.0,64.23421875000001,-103.77,16.561205375,33.73
2021-06-21 17:15:14.992187500,-43.0,-14.0,46.0,64.23210937500001,-106.43,16.555720687500003,33.73
2021-06-21 17:15:15.000000000,-43.0,-14.0,46.0,64.23,-109.09,16.550236,33.73
2021-06-21 17:15:15.007812500,-43.0,-14.25,46.0,64.22765625000001,-108.9,16.544310875,33.730624999999996
2021-06-21 17:15:15.015625000,-43.0,-14.5,46.0,64.2253125,-108.71,16.538385750000003,33.731249999999996
2021-06-21 17:15:15.023437500,-43.0,-14.75,46.0,64.22296875,-105.09,16.532460625000002,33.731874999999995
2021-06-21 17:15:15.031250000,-43.0,-15.0,46.0,64.220625,-101.47,16.5265355,33.732499999999995
2021-06-21 17:15:15.039062500,-43.0,-14.75,46.0,64.21828125,-94.535,16.520610375,33.733124999999994
2021-06-21 17:15:15.046875000,-43.0,-14.5,46.0,64.21593750000001,-87.6,16.51468525,33.73375
2021-06-21 17:15:15.054687500,-43.0,-14.25,46.0,64.21359375,-78.145,16.508760125000002,33.734375
2021-06-21 17:15:15.062500000,-43.0,-14.0,46.0,64.21125,-68.69,16.502835,33.735
2021-06-21 17:15:15.070312500,-43.0,-14.0,46.0,64.20890625,-57.974999999999994,16.496909875,33.735625
2021-06-21 17:15:15.078125000,-43.0,-14.0,46.0,64.2065625,-47.26,16.490984750000003,33.73625
2021-06-21 17:15:15.085937500,-43.0,-14.0,46.0,64.20421875000001,-36.58,16.485059625,33.736875
2021-06-21 17:15:15.093750000,-43.0,-14.0,46.0,64.201875,-25.9,16.4791345,33.7375
2021-06-21 17:15:15.101562500,-43.0,-14.0,46.0,64.19953125,-16.244999999999997,16.473209375,33.738125
2021-06-21 17:15:15.109375000,-43.0,-14.0,46.0,64.1971875,-6.59,16.46728425,33.738749999999996
2021-06-21 17:15:15.117187500,-43.0,-14.0,46.0,64.19484375,1.5250000000000004,16.461359125,33.739374999999995
2021-06-21 17:15:15.125000000,-43.0,-14.0,46.0,64.19250000000001,9.64,16.455434,33.739999999999995
2021-06-21 17:15:15.132812500,-42.75,-14.25,46.0,64.19015625,16.15,16.449508875,33.740625
2021-06-21 17:15:15.140625000,-42.5,-14.5,46.0,64.1878125,22.66,16.443583750000002,33.74125
2021-06-21 17:15:15.148437500,-42.25,-14.75,46.0,64.18546875,27.755000000000003,16.437658625,33.741875
2021-06-21 17:15:15.156250000,-42.0,-15.0,46.0,64.183125,32.85,16.4317335,33.7425
2021-06-21 17:15:15.164062500,-42.25,-14.75,46.0,64.18078125000001,36.765,16.425808375,33.743125
2021-06-21 17:15:15.171875000,-42.5,-14.5,46.0,64.1784375,40.68,16.419883249999998,33.74375
2021-06-21 17:15:15.179687500,-42.75,-14.25,46.0,64.17609375,43.565,16.413958125,33.744375
2021-06-21 17:15:15.187500000,-43.0,-14.0,46.0,64.17375,46.45,16.408033,33.745
2021-06-21 17:15:15.195312500,-43.0,-14.25,46.0,64.17140625,48.38,16.402107875,33.745625
2021-06-21 17:15:15.203125000,-43.0,-14.5,46.0,64.16906250000001,50.31,16.39618275,33.746249999999996
2021-06-21 17:15:15.210937500,-43.0,-14.75,46.0,64.16671875,51.33,16.390257625,33.746875
2021-06-21 17:15:15.218750000,-43.0,-15.0,46.0,64.164375,52.35,16.3843325,33.7475
2021-06-21 17:15:15.226562500,-43.0,-14.75,46.0,64.16203125,52.56,16.378407375,33.748125
2021-06-21 17:15:15.234375000,-43.0,-14.5,46.0,64.1596875,52.77,16.372482249999997,33.74875
2021-06-21 17:15:15.242187500,-43.0,-14.25,46.0,64.15734375000001,52.375,16.366557125,33.749375
2021-06-21 17:15:15.250000000,-43.0,-14.0,46.0,64.155,51.98,16.360632,33.75
2021-06-21 17:15:15.257812500,-43.0,-14.0,46.0,64.15265625,51.295,16.3561481875,33.75
2021-06-21 17:15:15.265625000,-43.0,-14.0,46.0,64.1503125,50.61,16.351664375,33.75
2021-06-21 17:15:15.273437500,-43.0,-14.0,46.0,64.14796875,49.95,16.3471805625,33.75
2021-06-21 17:15:15.281250000,-43.0,-14.0,46.0,64.14562500000001,49.29,16.342696749999998,33.75
2021-06-21 17:15:15.289062500,-43.0,-14.25,46.0,64.14328125,48.925,16.3382129375,33.75
2021-06-21 17:15:15.296875000,-43.0,-14.5,46.0,64.1409375,48.56,16.333729124999998,33.75
2021-06-21 17:15:15.304687500,-43.0,-14.75,46.0,64.13859375,48.6,16.3292453125,33.75
2021-06-21 17:15:15.312500000,-43.0,-15.0,46.0,64.13625,48.64,16.3247615,33.75
2021-06-21 17:15:15.320312500,-43.0,-15.0,46.0,64.13390625000001,49.04,16.3202776875,33.75
2021-06-21 17:15:15.328125000,-43.0,-15.0,46.0,64.1315625,49.44,16.315793875,33.75
2021-06-21 17:15:15.335937500,-43.0,-15.0,46.0,64.12921875,50.105000000000004,16.3113100625,33.75
2021-06-21 17:15:15.343750000,-43.0,-15.0,46.0,64.126875,50.77,16.30682625,33.75
2021-06-21 17:15:15.351562500,-43.0,-15.0,46.0,64.12453125,51.6,16.3023424375,33.75
2021-06-21 17:15:15.359375000,-43.0,-15.0,46.0,64.1221875,52.43,16.297858625,33.75
2021-06-21 17:15:15.367187500,-43.0,-15.0,46.0,64.11984375,53.36,16.293374812499998,33.75
2021-06-21 17:15:15.375000000,-43.0,-15.0,46.0,64.1175,54.29,16.288891,33.75
2021-06-21 17:15:15.382812500,-43.0,-15.0,46.0,64.11515625,55.315,16.2844071875,33.75
2021-06-21 17:15:15.390625000,-43.0,-15.0,46.0,64.1128125,56.34,16.279923375,33.75
2021-06-21 17:15:15.398437500,-43.0,-15.0,46.0,64.11046875,57.395,16.2754395625,33.75
2021-06-21 17:15:15.406250000,-43.0,-15.0,46.0,64.108125,58.45,16.27095575,33.75
2021-06-21 17:15:15.414062500,-43.0,-15.0,46.0,64.10578125,59.395,16.2664719375,33.75
2021-06-21 17:15:15.421875000,-43.0,-15.0,46.0,64.1034375,60.34,16.261988125,33.75
2021-06-21 17:15:15.429687500,-43.0,-15.0,46.0,64.10109375,60.955,16.2575043125,33.75
2021-06-21 17:15:15.437500000,-43.0,-15.0,46.0,64.09875,61.57,16.253020499999998,33.75
2021-06-21 17:15:15.445312500,-42.75,-15.0,46.0,64.09640625,61.58,16.2485366875,33.75
2021-06-21 17:15:15.453125000,-42.5,-15.0,46.0,64.0940625,61.59,16.244052875,33.75
2021-06-21 17:15:15.460937500,-42.25,-15.0,46.0,64.09171875,60.82,16.2395690625,33.75
2021-06-21 17:15:15.468750000,-42.0,-15.0,46.0,64.089375,60.05,16.23508525,33.75
2021-06-21 17:15:15.476562500,-42.25,-15.0,46.0,64.08703125,58.45,16.2306014375,33.75
2021-06-21 17:15:15.484375000,-42.5,-15.0,46.0,64.0846875,56.85,16.226117625,33.75
2021-06-21 17:15:15.492187500,-42.75,-15.0,46.0,64.08234375,54.535,16.2216338125,33.75
2021-06-21 17:15:15.500000000,-43.0,-15.0,46.0,64.08,52.22,16.21715,33.75
2021-06-21 17:15:15.507812500,-43.0,-15.0,46.0,64.07765625,49.425,16.214707875000002,33.75
2021-06-21 17:15:15.515625000,-43.0,-15.0,46.0,64.0753125,46.63,16.21226575,33.75
2021-06-21 17:15:15.523437500,-43.0,-15.0,46.0,64.07296875,43.655,16.209823625,33.75
2021-06-21 17:15:15.531250000,-43.0,-15.0,46.0,64.070625,40.68,16.2073815,33.75
2021-06-21 17:15:15.539062500,-43.0,-14.75,46.0,64.06828125,37.81,16.204939375000002,33.75
2021-06-21 17:15:15.546875000,-43.0,-14.5,46.0,64.0659375,34.94,16.20249725,33.75
2021-06-21 17:15:15.554687500,-43.0,-14.25,46.0,64.06359375,32.36,16.200055125,33.75
2021-06-21 17:15:15.562500000,-43.0,-14.0,46.0,64.06125,29.78,16.197613,33.75
2021-06-21 17:15:15.570312500,-43.0,-14.0,46.0,64.05890625,27.55,16.195170875000002,33.75
2021-06-21 17:15:15.578125000,-43.0,-14.0,46.0,64.0565625,25.32,16.19272875,33.75
2021-06-21 17:15:15.585937500,-43.0,-14.0,46.0,64.05421875,23.335,16.190286625,33.75
2021-06-21 17:15:15.593750000,-43.0,-14.0,46.0,64.051875,21.35,16.1878445,33.75
2021-06-21 17:15:15.601562500,-43.0,-14.0,46.0,64.04953125,19.43,16.185402375000002,33.75
2021-06-21 17:15:15.609375000,-43.0,-14.0,46.0,64.0471875,17.51,16.18296025,33.75
2021-06-21 17:15:15.617187500,-43.0,-14.0,46.0,64.04484375,15.48,16.180518125,33.75
2021-06-21 17:15:15.625000000,-43.0,-14.0,46.0,64.0425,13.45,16.178076,33.75
2021-06-21 17:15:15.632812500,-43.0,-14.0,46.0,64.04015625,11.265,16.175633875000003,33.75
2021-06-21 17:15:15.640625000,-43.0,-14.0,46.0,64.0378125,9.08,16.17319175,33.75
2021-06-21 17:15:15.648437500,-43.0,-14.0,46.0,64.03546875,6.855,16.170749625,33.75
2021-06-21 17:15:15.656250000,-43.0,-14.0,46.0,64.033125,4.63,16.1683075,33.75
2021-06-21 17:15:15.664062500,-43.0,-14.0,46.0,64.03078125,2.58,16.165865375000003,33.75
2021-06-21 17:15:15.671875000,-43.0,-14.0,46.0,64.0284375,0.53,16.16342325,33.75
2021-06-21 17:15:15.679687500,-43.0,-14.0,46.0,64.02609375,-1.18,16.160981125,33.75
2021-06-21 17:15:15.687500000,-43.0,-14.0,46.0,64.02375,-2.89,16.158539,33.75
2021-06-21 17:15:15.695312500,-43.0,-14.0,46.0,64.02140625,-4.265,16.156096875000003,33.75
2021-06-21 17:15:15.703125000,-43.0,-14.0,46.0,64.0190625,-5.64,16.15365475,33.75
2021-06-21 17:15:15.710937500,-43.0,-14.0,46.0,64.01671875,-6.890000000000001,16.151212625,33.75
2021-06-21 17:15:15.718750000,-43.0,-14.0,46.0,64.014375,-8.14,16.1487705,33.75
2021-06-21 17:15:15.726562500,-43.0,-14.0,46.0,64.01203125,-9.555,16.146328375000003,33.75
2021-06-21 17:15:15.734375000,-43.0,-14.0,46.0,64.0096875,-10.97,16.14388625,33.75
2021-06-21 17:15:15.742187500,-43.0,-14.0,46.0,64.00734375,-12.805,16.141444125,33.75
2021-06-21 17:15:15.750000000,-43.0,-14.0,46.0,64.005,-14.64,16.139002,33.75
2021-06-21 17:15:15.757812500,-43.0,-14.0,46.0,64.00265625,-16.935000000000002,16.13599946875,33.75
2021-06-21 17:15:15.765625000,-43.0,-14.0,46.0,64.0003125,-19.23,16.1329969375,33.75
2021-06-21 17:15:15.773437500,-43.0,-14.0,46.0,63.99796875,-21.86,16.129994406250002,33.75
2021-06-21 17:15:15.781250000,-43.0,-14.0,46.0,63.995625000000004,-24.49,16.126991875,33.75
2021-06-21 17:15:15.789062500,-42.75,-14.0,46.0,63.99328125,-27.195,16.12398934375,33.75
2021-06-21 17:15:15.796875000,-42.5,-14.0,46.0,63.9909375,-29.9,16.1209868125,33.75
2021-06-21 17:15:15.804687500,-42.25,-14.0,46.0,63.98859375,-32.445,16.117984281250003,33.75
2021-06-21 17:15:15.812500000,-42.0,-14.0,46.0,63.98625,-34.99,16.114981750000002,33.75
2021-06-21 17:15:15.820312500,-42.25,-14.0,46.0,63.983906250000004,-37.235,16.11197921875,33.75
2021-06-21 17:15:15.828125000,-42.5,-14.0,46.0,63.9815625,-39.48,16.1089766875,33.75
2021-06-21 17:15:15.835937500,-42.75,-14.0,46.0,63.97921875,-41.455,16.10597415625,33.75
2021-06-21 17:15:15.843750000,-43.0,-14.0,46.0,63.976875,-43.43,16.102971625000002,33.75
2021-06-21 17:15:15.851562500,-43.0,-14.0,46.0,63.97453125,-45.275,16.09996909375,33.75
2021-06-21 17:15:15.859375000,-43.0,-14.0,46.0,63.9721875,-47.12,16.0969665625,33.75
2021-06-21 17:15:15.867187500,-43.0,-14.0,46.0,63.96984375,-49.129999999999995,16.09396403125,33.75
2021-06-21 17:15:15.875000000,-43.0,-14.0,46.0,63.9675,-51.14,16.0909615,33.75
2021-06-21 17:15:15.882812500,-43.0,-14.0,46.0,63.96515625,-53.66,16.08795896875,33.75
2021-06-21 17:15:15.890625000,-43.0,-14.0,46.0,63.9628125,-56.18,16.0849564375,33.75
2021-06-21 17:15:15.898437500,-43.0,-14.0,46.0,63.96046875,-59.504999999999995,16.08195390625,33.75
2021-06-21 17:15:15.906250000,-43.0,-14.0,46.0,63.958125,-62.83,16.078951375,33.75
2021-06-21 17:15:15.914062500,-43.0,-14.0,46.0,63.95578125,-67.08500000000001,16.07594884375,33.75
2021-06-21 17:15:15.921875000,-43.0,-14.0,46.0,63.9534375,-71.34,16.0729463125,33.75
2021-06-21 17:15:15.929687500,-43.0,-14.0,46.0,63.95109375,-76.36,16.06994378125,33.75
2021-06-21 17:15:15.937500000,-43.0,-14.0,46.0,63.94875,-81.38,16.06694125,33.75
2021-06-21 17:15:15.945312500,-43.0,-14.0,46.0,63.94640625,-86.6,16.06393871875,33.75
2021-06-21 17:15:15.953125000,-43.0,-14.0,46.0,63.9440625,-91.82,16.0609361875,33.75
2021-06-21 17:15:15.960937500,-43.0,-14.0,46.0,63.94171875,-96.35499999999999,16.05793365625,33.75
2021-06-21 17:15:15.968750000,-43.0,-14.0,46.0,63.939375,-100.89,16.054931125,33.75
2021-06-21 17:15:15.976562500,-43.0,-14.0,46.0,63.93703125,-103.7,16.05192859375,33.75
2021-06-21 17:15:15.984375000,-43.0,-14.0,46.0,63.9346875,-106.51,16.0489260625,33.75
2021-06-21 17:15:15.992187500,-43.0,-14.0,46.0,63.93234375,-106.66499999999999,16.04592353125,33.75
2021-06-21 17:15:16.000000000,-43.0,-14.0,46.0,63.93,-106.82,16.042921,33.75
