TimeStamp,empatica.acc.x,empatica.acc.y,empatica.acc.z,empatica.hr,empatica.bvp,empatica.eda,empatica.temp
2021-06-25 09:35:37.335937500,-57.75,4.0,30.75,68.09109375,74.24000000000001,0.20837865625000002,238.65
2021-06-25 09:35:37.343750000,-58.0,4.0,31.0,68.094375,70.5,0.208338625,238.65
2021-06-25 09:35:37.351562500,-58.0,4.0,31.0,68.09765625,66.715,0.20829859375,238.65
2021-06-25 09:35:37.359375000,-58.0,4.0,31.0,68.1009375,62.93,0.2082585625,238.65
2021-06-25 09:35:37.367187500,-58.0,4.0,31.0,68.10421875,59.0,0.20821853125,238.65
2021-06-25 09:35:37.375000000,-58.0,4.0,31.0,68.1075,55.07,0.2081785,238.65
2021-06-25 09:35:37.382812500,-57.75,4.0,31.0,68.11078125,50.945,0.20813846875,238.65
2021-06-25 09:35:37.390625000,-57.5,4.0,31.0,68.1140625,46.82,0.2080984375,238.65
2021-06-25 09:35:37.398437500,-57.25,4.0,31.0,68.11734375,42.605000000000004,0.20805840625,238.65
2021-06-25 09:35:37.406250000,-57.0,4.0,31.0,68.120625,38.39,0.208018375,238.65
2021-06-25 09:35:37.414062500,-57.25,4.0,31.0,68.12390625,34.275,0.20797834375,238.65
2021-06-25 09:35:37.421875000,-57.5,4.0,31.0,68.1271875,30.16,0.2079383125,238.65
2021-06-25 09:35:37.429687500,-57.75,4.0,31.0,68.13046875,26.35,0.20789828125,238.65
2021-06-25 09:35:37.437500000,-58.0,4.0,31.0,68.13375,22.54,0.20785825,238.65
2021-06-25 09:35:37.445312500,-57.75,4.0,31.0,68.13703125,19.11,0.20781821875,238.65
2021-06-25 09:35:37.453125000,-57.5,4.0,31.0,68.14031250000001,15.68,0.2077781875,238.65
2021-06-25 09:35:37.460937500,-57.25,4.0,31.0,68.14359375000001,12.445,0.20773815625,238.65
2021-06-25 09:35:37.468750000,-57.0,4.0,31.0,68.14687500000001,9.21,0.207698125,238.65
2021-06-25 09:35:37.476562500,-57.0,4.0,31.0,68.15015625000001,5.805000000000001,0.20765809375,238.65
2021-06-25 09:35:37.484375000,-57.0,4.0,31.0,68.15343750000001,2.4,0.2076180625,238.65
2021-06-25 09:35:37.492187500,-57.0,4.0,31.0,68.15671875000001,-1.5850000000000004,0.20757803125,238.65
2021-06-25 09:35:37.500000000,-57.0,4.0,31.0,68.16,-5.57,0.207538,238.65
2021-06-25 09:35:37.507812500,-57.25,4.0,30.75,68.16328125,-10.375,0.20749796875,238.65
2021-06-25 09:35:37.515625000,-57.5,4.0,30.5,68.1665625,-15.18,0.2074579375,238.65
2021-06-25 09:35:37.523437500,-57.75,4.0,30.25,68.16984375,-20.755,0.20741790625,238.65
2021-06-25 09:35:37.531250000,-58.0,4.0,30.0,68.173125,-26.33,0.207377875,238.65
2021-06-25 09:35:37.539062500,-58.0,4.0,30.0,68.17640625,-32.31,0.20733784375,238.65
2021-06-25 09:35:37.546875000,-58.0,4.0,30.0,68.1796875,-38.29,0.2072978125,238.65
2021-06-25 09:35:37.554687500,-58.0,4.0,30.0,68.18296875,-44.144999999999996,0.20725778125,238.65
2021-06-25 09:35:37.562500000,-58.0,4.0,30.0,68.18625,-50.0,0.20721775,238.65
2021-06-25 09:35:37.570312500,-57.75,4.0,30.25,68.18953125,-55.205,0.20717771875,238.65
2021-06-25 09:35:37.578125000,-57.5,4.0,30.5,68.1928125,-60.41,0.2071376875,238.65
2021-06-25 09:35:37.585937500,-57.25,4.0,30.75,68.19609375,-64.67,0.20709765625,238.65
2021-06-25 09:35:37.593750000,-57.0,4.0,31.0,68.199375,-68.93,0.207057625,238.65
2021-06-25 09:35:37.601562500,-57.25,4.0,31.0,68.20265625,-72.245,0.20701759375,238.65
2021-06-25 09:35:37.609375000,-57.5,4.0,31.0,68.2059375,-75.56,0.2069775625,238.65
2021-06-25 09:35:37.617187500,-57.75,4.0,31.0,68.20921875,-78.25,0.20693753125,238.65
2021-06-25 09:35:37.625000000,-58.0,4.0,31.0,68.2125,-80.94,0.2068975,238.65
2021-06-25 09:35:37.632812500,-57.75,4.0,31.0,68.21578125,-83.565,0.20685746875,238.65
2021-06-25 09:35:37.640625000,-57.5,4.0,31.0,68.2190625,-86.19,0.2068174375,238.65
2021-06-25 09:35:37.648437500,-57.25,4.0,31.0,68.22234375000001,-89.38499999999999,0.20677740625,238.65
2021-06-25 09:35:37.656250000,-57.0,4.0,31.0,68.22562500000001,-92.58,0.206737375,238.65
2021-06-25 09:35:37.664062500,-57.25,4.0,30.75,68.22890625000001,-96.9,0.20669734374999998,238.65
2021-06-25 09:35:37.671875000,-57.5,4.0,30.5,68.23218750000001,-101.22,0.2066573125,238.65
2021-06-25 09:35:37.679687500,-57.75,4.0,30.25,68.23546875000001,-106.94,0.20661728125,238.65
2021-06-25 09:35:37.687500000,-58.0,4.0,30.0,68.23875000000001,-112.66,0.20657725,238.65
2021-06-25 09:35:37.695312500,-58.0,4.0,30.25,68.24203125000001,-119.545,0.20653721875,238.65
2021-06-25 09:35:37.703125000,-58.0,4.0,30.5,68.2453125,-126.43,0.20649718749999998,238.65
2021-06-25 09:35:37.710937500,-58.0,4.0,30.75,68.24859375,-133.62,0.20645715625,238.65
2021-06-25 09:35:37.718750000,-58.0,4.0,31.0,68.251875,-140.81,0.206417125,238.65
2021-06-25 09:35:37.726562500,-57.75,4.0,31.0,68.25515625,-146.95,0.20637709375,238.65
2021-06-25 09:35:37.734375000,-57.5,4.0,31.0,68.2584375,-153.09,0.2063370625,238.65
2021-06-25 09:35:37.742187500,-57.25,4.0,31.0,68.26171875,-156.625,0.20629703124999998,238.65
2021-06-25 09:35:37.750000000,-57.0,4.0,31.0,68.265,-160.16,0.206257,238.65
2021-06-25 09:35:37.757812500,-57.0,4.0,31.0,68.26828125,-159.77499999999998,0.2063370625,238.65
2021-06-25 09:35:37.765625000,-57.0,4.0,31.0,68.2715625,-159.39,0.206417125,238.65
2021-06-25 09:35:37.773437500,-57.0,4.0,31.0,68.27484375,-154.47,0.20649718749999998,238.65
2021-06-25 09:35:37.781250000,-57.0,4.0,31.0,68.278125,-149.55,0.20657725,238.65
2021-06-25 09:35:37.789062500,-57.0,4.0,31.0,68.28140625,-140.385,0.2066573125,238.65
2021-06-25 09:35:37.796875000,-57.0,4.0,31.0,68.2846875,-131.22,0.206737375,238.65
2021-06-25 09:35:37.804687500,-57.0,4.0,31.0,68.28796875,-118.9,0.2068174375,238.65
2021-06-25 09:35:37.812500000,-57.0,4.0,31.0,68.29125,-106.58,0.2068975,238.65
2021-06-25 09:35:37.820312500,-57.0,4.0,31.0,68.29453125,-92.72,0.2069775625,238.65
2021-06-25 09:35:37.828125000,-57.0,4.0,31.0,68.2978125,-78.86,0.207057625,238.65
2021-06-25 09:35:37.835937500,-57.0,4.0,31.0,68.30109375,-65.045,0.2071376875,238.65
2021-06-25 09:35:37.843750000,-57.0,4.0,31.0,68.30437500000001,-51.23,0.20721775,238.65
2021-06-25 09:35:37.851562500,-57.25,4.0,31.0,68.30765625000001,-38.675,0.2072978125,238.65
2021-06-25 09:35:37.859375000,-57.5,4.0,31.0,68.31093750000001,-26.12,0.207377875,238.65
2021-06-25 09:35:37.867187500,-57.75,4.0,31.0,68.31421875000001,-15.41,0.2074579375,238.65
2021-06-25 09:35:37.875000000,-58.0,4.0,31.0,68.31750000000001,-4.7,0.207538,238.65
2021-06-25 09:35:37.882812500,-57.75,4.0,31.0,68.32078125000001,4.169999999999999,0.2076180625,238.65
2021-06-25 09:35:37.890625000,-57.5,4.0,31.0,68.32406250000001,13.04,0.207698125,238.65
2021-06-25 09:35:37.898437500,-57.25,4.0,31.0,68.32734375000001,20.515,0.2077781875,238.65
2021-06-25 09:35:37.906250000,-57.0,4.0,31.0,68.330625,27.99,0.20785825,238.65
2021-06-25 09:35:37.914062500,-57.25,4.0,31.0,68.33390625,34.695,0.2079383125,238.65
2021-06-25 09:35:37.921875000,-57.5,4.0,31.0,68.3371875,41.4,0.208018375,238.65
2021-06-25 09:35:37.929687500,-57.75,4.0,31.0,68.34046875,47.855000000000004,0.2080984375,238.65
2021-06-25 09:35:37.937500000,-58.0,4.0,31.0,68.34375,54.31,0.2081785,238.65
2021-06-25 09:35:37.945312500,-58.0,4.0,31.0,68.34703125,60.75,0.2082585625,238.65
2021-06-25 09:35:37.953125000,-58.0,4.0,31.0,68.3503125,67.19,0.208338625,238.65
2021-06-25 09:35:37.960937500,-58.0,4.0,31.0,68.35359375,73.44,0.2084186875,238.65
2021-06-25 09:35:37.968750000,-58.0,4.0,31.0,68.356875,79.69,0.20849875,238.65
2021-06-25 09:35:37.976562500,-58.0,4.0,31.0,68.36015625,85.245,0.20857881250000002,238.65
2021-06-25 09:35:37.984375000,-58.0,4.0,31.0,68.3634375,90.8,0.208658875,238.65
2021-06-25 09:35:37.992187500,-58.0,4.0,31.0,68.36671875,95.03,0.2087389375,238.65
2021-06-25 09:35:38.000000000,-58.0,4.0,31.0,68.37,99.26,0.208819,238.65
2021-06-25 09:35:38.007812500,-57.75,4.0,31.0,68.373203125,101.70500000000001,0.2087389375,238.65
2021-06-25 09:35:38.015625000,-57.5,4.0,31.0,68.37640625,104.15,0.208658875,238.65
2021-06-25 09:35:38.023437500,-57.25,4.0,31.0,68.379609375,104.755,0.20857881250000002,238.65
2021-06-25 09:35:38.031250000,-57.0,4.0,31.0,68.3828125,105.36,0.20849875,238.65
2021-06-25 09:35:38.039062500,-57.0,4.0,31.0,68.386015625,104.56,0.2084186875,238.65
2021-06-25 09:35:38.046875000,-57.0,4.0,31.0,68.38921875,103.76,0.208338625,238.65
2021-06-25 09:35:38.054687500,-57.0,4.0,31.0,68.39242187500001,102.275,0.2082585625,238.65
2021-06-25 09:35:38.062500000,-57.0,4.0,31.0,68.39562500000001,100.79,0.2081785,238.65
2021-06-25 09:35:38.070312500,-57.25,4.0,30.75,68.39882812500001,99.39500000000001,0.2080984375,238.65
2021-06-25 09:35:38.078125000,-57.5,4.0,30.5,68.40203125000001,98.0,0.208018375,238.65
2021-06-25 09:35:38.085937500,-57.75,4.0,30.25,68.405234375,97.175,0.2079383125,238.65
2021-06-25 09:35:38.093750000,-58.0,4.0,30.0,68.4084375,96.35,0.20785825,238.65
2021-06-25 09:35:38.101562500,-57.75,4.0,30.25,68.411640625,96.19999999999999,0.2077781875,238.65
2021-06-25 09:35:38.109375000,-57.5,4.0,30.5,68.41484375,96.05,0.207698125,238.65
2021-06-25 09:35:38.117187500,-57.25,4.0,30.75,68.418046875,96.33500000000001,0.2076180625,238.65
2021-06-25 09:35:38.125000000,-57.0,4.0,31.0,68.42125,96.62,0.207538,238.65
2021-06-25 09:35:38.132812500,-57.0,4.0,31.0,68.424453125,97.0,0.2074579375,238.65
2021-06-25 09:35:38.140625000,-57.0,4.0,31.0,68.42765625,97.38,0.207377875,238.65
2021-06-25 09:35:38.148437500,-57.0,4.0,31.0,68.430859375,97.62,0.2072978125,238.65
2021-06-25 09:35:38.156250000,-57.0,4.0,31.0,68.43406250000001,97.86,0.20721775,238.65
2021-06-25 09:35:38.164062500,-57.0,4.0,31.0,68.43726562500001,97.91499999999999,0.2071376875,238.65
2021-06-25 09:35:38.171875000,-57.0,4.0,31.0,68.44046875000001,97.97,0.207057625,238.65
2021-06-25 09:35:38.179687500,-57.0,4.0,31.0,68.443671875,97.9,0.2069775625,238.65
2021-06-25 09:35:38.187500000,-57.0,4.0,31.0,68.446875,97.83,0.2068975,238.65
2021-06-25 09:35:38.195312500,-57.0,4.0,31.0,68.450078125,97.675,0.2068174375,238.65
2021-06-25 09:35:38.203125000,-57.0,4.0,31.0,68.45328125,97.52,0.206737375,238.65
2021-06-25 09:35:38.210937500,-57.0,4.0,31.0,68.456484375,97.16,0.2066573125,238.65
2021-06-25 09:35:38.218750000,-57.0,4.0,31.0,68.4596875,96.8,0.20657725,238.65
2021-06-25 09:35:38.226562500,-57.25,4.0,31.0,68.462890625,95.995,0.20649718749999998,238.65
2021-06-25 09:35:38.234375000,-57.5,4.0,31.0,68.46609375,95.19,0.206417125,238.65
2021-06-25 09:35:38.242187500,-57.75,4.0,31.0,68.469296875,93.67,0.2063370625,238.65
2021-06-25 09:35:38.250000000,-58.0,4.0,31.0,68.4725,92.15,0.206257,238.65
2021-06-25 09:35:38.257812500,-57.75,4.0,31.0,68.47570312500001,89.82,0.2063370625,238.65
2021-06-25 09:35:38.265625000,-57.5,4.0,31.0,68.47890625000001,87.49,0.206417125,238.65
2021-06-25 09:35:38.273437500,-57.25,4.0,31.0,68.48210937500001,84.455,0.20649718749999998,238.65
2021-06-25 09:35:38.281250000,-57.0,4.0,31.0,68.4853125,81.42,0.20657725,238.65
2021-06-25 09:35:38.289062500,-57.0,4.0,31.0,68.488515625,77.985,0.2066573125,238.65
2021-06-25 09:35:38.296875000,-57.0,4.0,31.0,68.49171875,74.55,0.206737375,238.65
2021-06-25 09:35:38.304687500,-57.0,4.0,31.0,68.494921875,71.125,0.2068174375,238.65
2021-06-25 09:35:38.312500000,-57.0,4.0,31.0,68.498125,67.7,0.2068975,238.65
2021-06-25 09:35:38.320312500,-57.25,4.0,31.0,68.501328125,64.565,0.2069775625,238.65
2021-06-25 09:35:38.328125000,-57.5,4.0,31.0,68.50453125,61.43,0.207057625,238.65
2021-06-25 09:35:38.335937500,-57.75,4.0,31.0,68.507734375,58.629999999999995,0.2071376875,238.65
2021-06-25 09:35:38.343750000,-58.0,4.0,31.0,68.5109375,55.83,0.20721775,238.65
2021-06-25 09:35:38.351562500,-57.75,4.0,31.25,68.51414062500001,53.11,0.2072978125,238.65
2021-06-25 09:35:38.359375000,-57.5,4.0,31.5,68.51734375000001,50.39,0.207377875,238.65
2021-06-25 09:35:38.367187500,-57.25,4.0,31.75,68.52054687500001,47.325,0.2074579375,238.65
2021-06-25 09:35:38.375000000,-57.0,4.0,32.0,68.52375,44.26,0.207538,238.65
2021-06-25 09:35:38.382812500,-57.0,4.0,31.75,68.526953125,40.345,0.2076180625,238.65
2021-06-25 09:35:38.390625000,-57.0,4.0,31.5,68.53015625,36.43,0.207698125,238.65
2021-06-25 09:35:38.398437500,-57.0,4.0,31.25,68.533359375,31.325,0.2077781875,238.65
2021-06-25 09:35:38.406250000,-57.0,4.0,31.0,68.5365625,26.22,0.20785825,238.65
2021-06-25 09:35:38.414062500,-57.0,4.0,31.0,68.539765625,19.835,0.2079383125,238.65
2021-06-25 09:35:38.421875000,-57.0,4.0,31.0,68.54296875,13.45,0.208018375,238.65
2021-06-25 09:35:38.429687500,-57.0,4.0,31.0,68.546171875,6.1,0.2080984375,238.65
2021-06-25 09:35:38.437500000,-57.0,4.0,31.0,68.549375,-1.25,0.2081785,238.65
2021-06-25 09:35:38.445312500,-57.0,4.0,31.0,68.552578125,-8.84,0.2082585625,238.65
2021-06-25 09:35:38.453125000,-57.0,4.0,31.0,68.55578125000001,-16.43,0.208338625,238.65
2021-06-25 09:35:38.460937500,-57.0,4.0,31.0,68.55898437500001,-23.175,0.2084186875,238.65
2021-06-25 09:35:38.468750000,-57.0,4.0,31.0,68.56218750000001,-29.92,0.20849875,238.65
2021-06-25 09:35:38.476562500,-57.25,4.0,31.0,68.565390625,-34.57,0.20857881250000002,238.65
2021-06-25 09:35:38.484375000,-57.5,4.0,31.0,68.56859375,-39.22,0.208658875,238.65
2021-06-25 09:35:38.492187500,-57.75,4.0,31.0,68.571796875,-40.635,0.2087389375,238.65
2021-06-25 09:35:38.500000000,-58.0,4.0,31.0,68.575,-42.05,0.208819,238.65
2021-06-25 09:35:38.507812500,-57.75,4.0,31.0,68.578203125,-39.51,0.2087389375,238.65
2021-06-25 09:35:38.515625000,-57.5,4.0,31.0,68.58140625,-36.97,0.208658875,238.65
2021-06-25 09:35:38.523437500,-57.25,4.0,31.0,68.584609375,-30.36,0.20857881250000002,238.65
2021-06-25 09:35:38.531250000,-57.0,4.0,31.0,68.5878125,-23.75,0.20849875,238.65
2021-06-25 09:35:38.539062500,-57.0,4.0,31.0,68.591015625,-13.675,0.2084186875,238.65
2021-06-25 09:35:38.546875000,-57.0,4.0,31.0,68.59421875,-3.6,0.208338625,238.65
2021-06-25 09:35:38.554687500,-57.0,4.0,31.0,68.59742187500001,8.795000000000002,0.2082585625,238.65
2021-06-25 09:35:38.562500000,-57.0,4.0,31.0,68.60062500000001,21.19,0.2081785,238.65
2021-06-25 09:35:38.570312500,-57.25,4.0,31.0,68.603828125,34.47,0.2080984375,238.65
2021-06-25 09:35:38.578125000,-57.5,4.0,31.0,68.60703125,47.75,0.208018375,238.65
2021-06-25 09:35:38.585937500,-57.75,4.0,31.0,68.610234375,60.52,0.2079383125,238.65
2021-06-25 09:35:38.593750000,-58.0,4.0,31.0,68.6134375,73.29,0.20785825,238.65
2021-06-25 09:35:38.601562500,-57.75,4.0,31.0,68.616640625,84.495,0.2077781875,238.65
2021-06-25 09:35:38.609375000,-57.5,4.0,31.0,68.61984375,95.7,0.207698125,238.65
2021-06-25 09:35:38.617187500,-57.25,4.0,31.0,68.623046875,104.74000000000001,0.2076180625,238.65
2021-06-25 09:35:38.625000000,-57.0,4.0,31.0,68.62625,113.78,0.207538,238.65
2021-06-25 09:35:38.632812500,-57.0,4.0,31.0,68.629453125,120.53,0.2074579375,238.65
2021-06-25 09:35:38.640625000,-57.0,4.0,31.0,68.63265625,127.28,0.207377875,238.65
2021-06-25 09:35:38.648437500,-57.0,4.0,31.0,68.635859375,131.945,0.2072978125,238.65
2021-06-25 09:35:38.656250000,-57.0,4.0,31.0,68.63906250000001,136.61,0.20721775,238.65
2021-06-25 09:35:38.664062500,-57.0,4.0,31.0,68.64226562500001,139.54500000000002,0.2071376875,238.65
2021-06-25 09:35:38.671875000,-57.0,4.0,31.0,68.64546875,142.48,0.207057625,238.65
2021-06-25 09:35:38.679687500,-57.0,4.0,31.0,68.648671875,144.01999999999998,0.2069775625,238.65
2021-06-25 09:35:38.687500000,-57.0,4.0,31.0,68.651875,145.56,0.2068975,238.65
2021-06-25 09:35:38.695312500,-57.0,4.0,31.0,68.655078125,146.0,0.2068174375,238.65
2021-06-25 09:35:38.703125000,-57.0,4.0,31.0,68.65828125,146.44,0.206737375,238.65
2021-06-25 09:35:38.710937500,-57.0,4.0,31.0,68.661484375,145.945,0.2066573125,238.65
2021-06-25 09:35:38.718750000,-57.0,4.0,31.0,68.6646875,145.45,0.20657725,238.65
2021-06-25 09:35:38.726562500,-57.0,4.0,31.0,68.667890625,144.135,0.20649718749999998,238.65
2021-06-25 09:35:38.734375000,-57.0,4.0,31.0,68.67109375,142.82,0.206417125,238.65
2021-06-25 09:35:38.742187500,-57.0,4.0,31.0,68.674296875,140.785,0.2063370625,238.65
2021-06-25 09:35:38.750000000,-57.0,4.0,31.0,68.67750000000001,138.75,0.206257,238.65
2021-06-25 09:35:38.757812500,-57.0,4.0,31.0,68.68070312500001,136.055,0.20637709375,238.65
2021-06-25 09:35:38.765625000,-57.0,4.0,31.0,68.68390625,133.36,0.20649718749999998,238.65
2021-06-25 09:35:38.773437500,-57.0,4.0,31.0,68.687109375,130.035,0.20661728125,238.65
2021-06-25 09:35:38.781250000,-57.0,4.0,31.0,68.6903125,126.71,0.206737375,238.65
2021-06-25 09:35:38.789062500,-57.0,4.0,31.0,68.693515625,122.725,0.20685746875,238.65
2021-06-25 09:35:38.796875000,-57.0,4.0,31.0,68.69671875,118.74,0.2069775625,238.65
2021-06-25 09:35:38.804687500,-57.0,4.0,31.0,68.699921875,114.055,0.20709765625,238.65
2021-06-25 09:35:38.812500000,-57.0,4.0,31.0,68.703125,109.37,0.20721775,238.65
2021-06-25 09:35:38.820312500,-57.0,4.0,31.0,68.706328125,103.995,0.20733784375,238.65
2021-06-25 09:35:38.828125000,-57.0,4.0,31.0,68.70953125,98.62,0.2074579375,238.65
2021-06-25 09:35:38.835937500,-57.0,4.0,31.0,68.712734375,92.745,0.20757803125,238.65
2021-06-25 09:35:38.843750000,-57.0,4.0,31.0,68.7159375,86.87,0.207698125,238.65
2021-06-25 09:35:38.851562500,-57.0,4.0,31.0,68.71914062500001,80.85,0.20781821875,238.65
2021-06-25 09:35:38.859375000,-57.0,4.0,31.0,68.72234375000001,74.83,0.2079383125,238.65
2021-06-25 09:35:38.867187500,-57.0,4.0,31.0,68.725546875,69.145,0.20805840625,238.65
2021-06-25 09:35:38.875000000,-57.0,4.0,31.0,68.72875,63.46,0.2081785,238.65
2021-06-25 09:35:38.882812500,-57.0,4.0,31.0,68.731953125,58.515,0.20829859375,238.65
2021-06-25 09:35:38.890625000,-57.0,4.0,31.0,68.73515625,53.57,0.2084186875,238.65
2021-06-25 09:35:38.898437500,-57.0,4.0,31.0,68.738359375,49.525,0.20853878125,238.65
2021-06-25 09:35:38.906250000,-57.0,4.0,31.0,68.7415625,45.48,0.208658875,238.65
2021-06-25 09:35:38.914062500,-57.0,4.0,31.0,68.744765625,42.129999999999995,0.20877896875000002,238.65
2021-06-25 09:35:38.921875000,-57.0,4.0,31.0,68.74796875,38.78,0.2088990625,238.65
2021-06-25 09:35:38.929687500,-57.0,4.0,31.0,68.751171875,35.629999999999995,0.20901915625,238.65
2021-06-25 09:35:38.937500000,-57.0,4.0,31.0,68.754375,32.48,0.20913925,238.65
2021-06-25 09:35:38.945312500,-57.0,4.0,31.0,68.757578125,28.894999999999996,0.20925934375,238.65
2021-06-25 09:35:38.953125000,-57.0,4.0,31.0,68.76078125000001,25.31,0.20937943750000002,238.65
2021-06-25 09:35:38.960937500,-57.0,4.0,31.0,68.763984375,20.765,0.20949953125,238.65
2021-06-25 09:35:38.968750000,-57.0,4.0,31.0,68.7671875,16.22,0.209619625,238.65
2021-06-25 09:35:38.976562500,-57.0,4.0,31.0,68.770390625,10.475,0.20973971875,238.65
2021-06-25 09:35:38.984375000,-57.0,4.0,31.0,68.77359375,4.73,0.20985981250000002,238.65
2021-06-25 09:35:38.992187500,-57.0,4.0,31.0,68.776796875,-2.0999999999999996,0.20997990625000001,238.65
2021-06-25 09:35:39.000000000,-57.0,4.0,31.0,68.78,-8.93,0.2101,238.65
2021-06-25 09:35:39.007812500,-57.0,4.0,31.0,68.783515625,-16.4,0.20997990625000001,238.65
2021-06-25 09:35:39.015625000,-57.0,4.0,31.0,68.78703125,-23.87,0.20985981250000002,238.65
2021-06-25 09:35:39.023437500,-57.0,4.0,31.0,68.790546875,-31.395000000000003,0.20973971875,238.65
2021-06-25 09:35:39.031250000,-57.0,4.0,31.0,68.7940625,-38.92,0.209619625,238.65
2021-06-25 09:35:39.039062500,-57.0,4.0,31.0,68.797578125,-45.985,0.20949953125,238.65
2021-06-25 09:35:39.046875000,-57.0,4.0,31.0,68.80109375,-53.05,0.20937943750000002,238.65
2021-06-25 09:35:39.054687500,-57.0,4.0,31.0,68.804609375,-59.379999999999995,0.20925934375,238.65
2021-06-25 09:35:39.062500000,-57.0,4.0,31.0,68.808125,-65.71,0.20913925,238.65
2021-06-25 09:35:39.070312500,-57.0,4.0,31.0,68.811640625,-71.34,0.20901915625,238.65
2021-06-25 09:35:39.078125000,-57.0,4.0,31.0,68.81515625,-76.97,0.2088990625,238.65
2021-06-25 09:35:39.085937500,-57.0,4.0,31.0,68.818671875,-82.22999999999999,0.20877896875000002,238.65
2021-06-25 09:35:39.093750000,-57.0,4.0,31.0,68.8221875,-87.49,0.208658875,238.65
2021-06-25 09:35:39.101562500,-57.25,4.0,31.0,68.825703125,-92.91999999999999,0.20853878125,238.65
2021-06-25 09:35:39.109375000,-57.5,4.0,31.0,68.82921875,-98.35,0.2084186875,238.65
2021-06-25 09:35:39.117187500,-57.75,4.0,31.0,68.832734375,-104.505,0.20829859375,238.65
2021-06-25 09:35:39.125000000,-58.0,4.0,31.0,68.83625,-110.66,0.2081785,238.65
2021-06-25 09:35:39.132812500,-58.0,4.0,30.75,68.839765625,-117.92,0.20805840625,238.65
2021-06-25 09:35:39.140625000,-58.0,4.0,30.5,68.84328125,-125.18,0.2079383125,238.65
2021-06-25 09:35:39.148437500,-58.0,4.0,30.25,68.846796875,-133.535,0.20781821875,238.65
2021-06-25 09:35:39.156250000,-58.0,4.0,30.0,68.8503125,-141.89,0.207698125,238.65
2021-06-25 09:35:39.164062500,-57.75,4.0,30.25,68.853828125,-150.795,0.20757803125,238.65
2021-06-25 09:35:39.171875000,-57.5,4.0,30.5,68.85734375,-159.7,0.2074579375,238.65
2021-06-25 09:35:39.179687500,-57.25,4.0,30.75,68.860859375,-168.07,0.20733784375,238.65
2021-06-25 09:35:39.187500000,-57.0,4.0,31.0,68.864375,-176.44,0.20721775,238.65
2021-06-25 09:35:39.195312500,-57.25,4.0,31.0,68.867890625,-182.82999999999998,0.20709765625,238.65
2021-06-25 09:35:39.203125000,-57.5,4.0,31.0,68.87140625,-189.22,0.2069775625,238.65
2021-06-25 09:35:39.210937500,-57.75,4.0,31.0,68.874921875,-192.20499999999998,0.20685746875,238.65
2021-06-25 09:35:39.218750000,-58.0,4.0,31.0,68.8784375,-195.19,0.206737375,238.65
2021-06-25 09:35:39.226562500,-57.75,4.0,31.0,68.881953125,-193.79500000000002,0.20661728125,238.65
2021-06-25 09:35:39.234375000,-57.5,4.0,31.0,68.88546875,-192.4,0.20649718749999998,238.65
2021-06-25 09:35:39.242187500,-57.25,4.0,31.0,68.888984375,-186.425,0.20637709375,238.65
2021-06-25 09:35:39.250000000,-57.0,4.0,31.0,68.8925,-180.45,0.206257,238.65
2021-06-25 09:35:39.257812500,-57.0,4.0,31.0,68.896015625,-170.545,0.20637709375,238.65
2021-06-25 09:35:39.265625000,-57.0,4.0,31.0,68.89953125,-160.64,0.20649718749999998,238.65
2021-06-25 09:35:39.273437500,-57.0,4.0,31.0,68.903046875,-148.16,0.20661728125,238.65
2021-06-25 09:35:39.281250000,-57.0,4.0,31.0,68.9065625,-135.68,0.206737375,238.65
2021-06-25 09:35:39.289062500,-57.0,4.0,31.0,68.910078125,-122.26,0.20685746875,238.65
2021-06-25 09:35:39.296875000,-57.0,4.0,31.0,68.91359375,-108.84,0.2069775625,238.65
2021-06-25 09:35:39.304687500,-57.0,4.0,31.0,68.917109375,-95.94,0.20709765625,238.65
2021-06-25 09:35:39.312500000,-57.0,4.0,31.0,68.920625,-83.04,0.20721775,238.65
2021-06-25 09:35:39.320312500,-57.0,4.0,31.0,68.924140625,-71.7,0.20733784375,238.65
2021-06-25 09:35:39.328125000,-57.0,4.0,31.0,68.92765625,-60.36,0.2074579375,238.65
2021-06-25 09:35:39.335937500,-57.0,4.0,31.0,68.931171875,-51.075,0.20757803125,238.65
2021-06-25 09:35:39.343750000,-57.0,4.0,31.0,68.9346875,-41.79,0.207698125,238.65
2021-06-25 09:35:39.351562500,-57.25,4.0,31.0,68.938203125,-34.629999999999995,0.20781821875,238.65
2021-06-25 09:35:39.359375000,-57.5,4.0,31.0,68.94171875,-27.47,0.2079383125,238.65
2021-06-25 09:35:39.367187500,-57.75,4.0,31.0,68.945234375,-22.299999999999997,0.20805840625,238.65
2021-06-25 09:35:39.375000000,-58.0,4.0,31.0,68.94875,-17.13,0.2081785,238.65
2021-06-25 09:35:39.382812500,-57.75,4.0,31.0,68.952265625,-13.75,0.20829859375,238.65
2021-06-25 09:35:39.390625000,-57.5,4.0,31.0,68.95578125,-10.37,0.2084186875,238.65
2021-06-25 09:35:39.398437500,-57.25,4.0,31.0,68.959296875,-8.6,0.20853878125,238.65
2021-06-25 09:35:39.406250000,-57.0,4.0,31.0,68.9628125,-6.83,0.208658875,238.65
2021-06-25 09:35:39.414062500,-57.0,4.0,31.0,68.966328125,-6.53,0.20877896875000002,238.65
2021-06-25 09:35:39.421875000,-57.0,4.0,31.0,68.96984375,-6.23,0.2088990625,238.65
2021-06-25 09:35:39.429687500,-57.0,4.0,31.0,68.973359375,-7.1850000000000005,0.20901915625,238.65
2021-06-25 09:35:39.437500000,-57.0,4.0,31.0,68.976875,-8.14,0.20913925,238.65
2021-06-25 09:35:39.445312500,-57.25,4.0,31.0,68.980390625,-10.045,0.20925934375,238.65
2021-06-25 09:35:39.453125000,-57.5,4.0,31.0,68.98390625,-11.95,0.20937943750000002,238.65
2021-06-25 09:35:39.460937500,-57.75,4.0,31.0,68.987421875,-14.355,0.20949953125,238.65
2021-06-25 09:35:39.468750000,-58.0,4.0,31.0,68.9909375,-16.76,0.209619625,238.65
2021-06-25 09:35:39.476562500,-58.0,4.0,31.0,68.994453125,-19.18,0.20973971875,238.65
2021-06-25 09:35:39.484375000,-58.0,4.0,31.0,68.99796875,-21.6,0.20985981250000002,238.65
2021-06-25 09:35:39.492187500,-58.0,4.0,31.0,69.001484375,-23.595,0.20997990625000001,238.65
2021-06-25 09:35:39.500000000,-58.0,4.0,31.0,69.005,-25.59,0.2101,238.65
2021-06-25 09:35:39.507812500,-57.75,4.0,31.0,69.008515625,-26.869999999999997,0.21005996875000002,238.65
2021-06-25 09:35:39.515625000,-57.5,4.0,31.0,69.01203125,-28.15,0.2100199375,238.65
2021-06-25 09:35:39.523437500,-57.25,4.0,31.0,69.015546875,-28.595,0.20997990625000001,238.65
2021-06-25 09:35:39.531250000,-57.0,4.0,31.0,69.0190625,-29.04,0.209939875,238.65
2021-06-25 09:35:39.539062500,-57.0,4.0,31.0,69.02257812500001,-28.64,0.20989984375,238.65
2021-06-25 09:35:39.546875000,-57.0,4.0,31.0,69.02609375,-28.24,0.20985981250000002,238.65
2021-06-25 09:35:39.554687500,-57.0,4.0,31.0,69.029609375,-27.034999999999997,0.20981978125,238.65
2021-06-25 09:35:39.562500000,-57.0,4.0,31.0,69.033125,-25.83,0.20977975000000001,238.65
2021-06-25 09:35:39.570312500,-57.0,4.0,31.0,69.036640625,-23.86,0.20973971875,238.65
2021-06-25 09:35:39.578125000,-57.0,4.0,31.0,69.04015625000001,-21.89,0.2096996875,238.65
2021-06-25 09:35:39.585937500,-57.0,4.0,31.0,69.043671875,-19.205,0.20965965625000002,238.65
2021-06-25 09:35:39.593750000,-57.0,4.0,31.0,69.0471875,-16.52,0.209619625,238.65
2021-06-25 09:35:39.601562500,-57.0,4.0,31.0,69.050703125,-13.335,0.20957959375000002,238.65
2021-06-25 09:35:39.609375000,-57.0,4.0,31.0,69.05421875,-10.15,0.2095395625,238.65
2021-06-25 09:35:39.617187500,-57.0,4.0,31.0,69.05773437500001,-6.86,0.20949953125,238.65
2021-06-25 09:35:39.625000000,-57.0,4.0,31.0,69.06125,-3.57,0.20945950000000002,238.65
2021-06-25 09:35:39.632812500,-57.25,4.0,30.75,69.064765625,-0.77,0.20941946875,238.65
2021-06-25 09:35:39.640625000,-57.5,4.0,30.5,69.06828125,2.03,0.20937943750000002,238.65
2021-06-25 09:35:39.648437500,-57.75,4.0,30.25,69.071796875,3.755,0.20933940625,238.65
2021-06-25 09:35:39.656250000,-58.0,4.0,30.0,69.07531250000001,5.48,0.209299375,238.65
2021-06-25 09:35:39.664062500,-57.75,4.0,30.25,69.078828125,5.73,0.20925934375,238.65
2021-06-25 09:35:39.671875000,-57.5,4.0,30.5,69.08234375,5.98,0.2092193125,238.65
2021-06-25 09:35:39.679687500,-57.25,4.0,30.75,69.085859375,4.720000000000001,0.20917928125000002,238.65
2021-06-25 09:35:39.687500000,-57.0,4.0,31.0,69.089375,3.46,0.20913925,238.65
2021-06-25 09:35:39.695312500,-57.25,4.0,30.75,69.09289062500001,1.025,0.20909921875,238.65
2021-06-25 09:35:39.703125000,-57.5,4.0,30.5,69.09640625,-1.41,0.2090591875,238.65
2021-06-25 09:35:39.710937500,-57.75,4.0,30.25,69.099921875,-4.49,0.20901915625,238.65
2021-06-25 09:35:39.718750000,-58.0,4.0,30.0,69.1034375,-7.57,0.20897912500000002,238.65
2021-06-25 09:35:39.726562500,-57.75,4.25,30.25,69.106953125,-10.780000000000001,0.20893909375,238.65
2021-06-25 09:35:39.734375000,-57.5,4.5,30.5,69.11046875000001,-13.99,0.2088990625,238.65
2021-06-25 09:35:39.742187500,-57.25,4.75,30.75,69.113984375,-17.05,0.20885903125,238.65
2021-06-25 09:35:39.750000000,-57.0,5.0,31.0,69.1175,-20.11,0.208819,238.65
2021-06-25 09:35:39.757812500,-57.25,4.75,31.0,69.121015625,-23.049999999999997,0.2087389375,238.65
2021-06-25 09:35:39.765625000,-57.5,4.5,31.0,69.12453125,-25.99,0.208658875,238.65
2021-06-25 09:35:39.773437500,-57.75,4.25,31.0,69.12804687500001,-29.104999999999997,0.20857881250000002,238.65
2021-06-25 09:35:39.781250000,-58.0,4.0,31.0,69.1315625,-32.22,0.20849875,238.65
2021-06-25 09:35:39.789062500,-57.75,4.0,31.0,69.135078125,-35.96,0.2084186875,238.65
2021-06-25 09:35:39.796875000,-57.5,4.0,31.0,69.13859375,-39.7,0.208338625,238.65
2021-06-25 09:35:39.804687500,-57.25,4.0,31.0,69.142109375,-44.495000000000005,0.2082585625,238.65
2021-06-25 09:35:39.812500000,-57.0,4.0,31.0,69.14562500000001,-49.29,0.2081785,238.65
2021-06-25 09:35:39.820312500,-57.0,4.0,31.0,69.149140625,-55.36,0.2080984375,238.65
2021-06-25 09:35:39.828125000,-57.0,4.0,31.0,69.15265625,-61.43,0.208018375,238.65
2021-06-25 09:35:39.835937500,-57.0,4.0,31.0,69.156171875,-68.57,0.2079383125,238.65
2021-06-25 09:35:39.843750000,-57.0,4.0,31.0,69.1596875,-75.71,0.20785825,238.65
2021-06-25 09:35:39.851562500,-57.25,4.0,31.0,69.16320312500001,-83.18,0.2077781875,238.65
2021-06-25 09:35:39.859375000,-57.5,4.0,31.0,69.16671875,-90.65,0.207698125,238.65
2021-06-25 09:35:39.867187500,-57.75,4.0,31.0,69.170234375,-97.215,0.2076180625,238.65
2021-06-25 09:35:39.875000000,-58.0,4.0,31.0,69.17375,-103.78,0.207538,238.65
2021-06-25 09:35:39.882812500,-58.0,4.0,31.0,69.177265625,-107.88499999999999,0.2074579375,238.65
2021-06-25 09:35:39.890625000,-58.0,4.0,31.0,69.18078125000001,-111.99,0.207377875,238.65
2021-06-25 09:35:39.898437500,-58.0,4.0,31.0,69.184296875,-112.215,0.2072978125,238.65
2021-06-25 09:35:39.906250000,-58.0,4.0,31.0,69.1878125,-112.44,0.20721775,238.65
2021-06-25 09:35:39.914062500,-57.75,4.0,31.0,69.191328125,-107.92,0.2071376875,238.65
2021-06-25 09:35:39.921875000,-57.5,4.0,31.0,69.19484375,-103.4,0.207057625,238.65
2021-06-25 09:35:39.929687500,-57.25,4.0,31.0,69.19835937500001,-94.14500000000001,0.2069775625,238.65
2021-06-25 09:35:39.937500000,-57.0,4.0,31.0,69.201875,-84.89,0.2068975,238.65
2021-06-25 09:35:39.945312500,-57.0,4.0,31.0,69.205390625,-71.84,0.2068174375,238.65
2021-06-25 09:35:39.953125000,-57.0,4.0,31.0,69.20890625,-58.79,0.206737375,238.65
2021-06-25 09:35:39.960937500,-57.0,4.0,31.0,69.212421875,-43.519999999999996,0.2066573125,238.65
2021-06-25 09:35:39.968750000,-57.0,4.0,31.0,69.21593750000001,-28.25,0.20657725,238.65
2021-06-25 09:35:39.976562500,-57.25,4.0,31.0,69.219453125,-12.535,0.20649718749999998,238.65
2021-06-25 09:35:39.984375000,-57.5,4.0,31.0,69.22296875,3.18,0.206417125,238.65
2021-06-25 09:35:39.992187500,-57.75,4.0,31.0,69.226484375,17.835,0.2063370625,238.65
2021-06-25 09:35:40.000000000,-58.0,4.0,31.0,69.23,32.49,0.206257,238.65
2021-06-25 09:35:40.007812500,-57.75,4.0,31.0,69.23351562500001,45.150000000000006,0.2063370625,238.65
2021-06-25 09:35:40.015625000,-57.5,4.0,31.0,69.23703125,57.81,0.206417125,238.65
2021-06-25 09:35:40.023437500,-57.25,4.0,31.0,69.240546875,68.1,0.20649718749999998,238.65
2021-06-25 09:35:40.031250000,-57.0,4.0,31.0,69.2440625,78.39,0.20657725,238.65
2021-06-25 09:35:40.039062500,-57.0,4.25,31.0,69.247578125,86.35,0.2066573125,238.65
2021-06-25 09:35:40.046875000,-57.0,4.5,31.0,69.25109375000001,94.31,0.206737375,238.65
2021-06-25 09:35:40.054687500,-57.0,4.75,31.0,69.254609375,100.16,0.2068174375,238.65
2021-06-25 09:35:40.062500000,-57.0,5.0,31.0,69.258125,106.01,0.2068975,238.65
2021-06-25 09:35:40.070312500,-57.0,4.75,31.25,69.261640625,109.92500000000001,0.2069775625,238.65
2021-06-25 09:35:40.078125000,-57.0,4.5,31.5,69.26515625,113.84,0.207057625,238.65
2021-06-25 09:35:40.085937500,-57.0,4.25,31.75,69.26867187500001,115.935,0.2071376875,238.65
2021-06-25 09:35:40.093750000,-57.0,4.0,32.0,69.2721875,118.03,0.20721775,238.65
2021-06-25 09:35:40.101562500,-57.0,4.0,32.0,69.275703125,118.41499999999999,0.2072978125,238.65
2021-06-25 09:35:40.109375000,-57.0,4.0,32.0,69.27921875,118.8,0.207377875,238.65
2021-06-25 09:35:40.117187500,-57.0,4.0,32.0,69.282734375,117.69,0.2074579375,238.65
2021-06-25 09:35:40.125000000,-57.0,4.0,32.0,69.28625000000001,116.58,0.207538,238.65
2021-06-25 09:35:40.132812500,-57.25,4.0,31.5,69.289765625,114.345,0.2076180625,238.65
2021-06-25 09:35:40.140625000,-57.5,4.0,31.0,69.29328125,112.11,0.207698125,238.65
2021-06-25 09:35:40.148437500,-57.75,4.0,30.5,69.296796875,109.245,0.2077781875,238.65
2021-06-25 09:35:40.156250000,-58.0,4.0,30.0,69.3003125,106.38,0.20785825,238.65
2021-06-25 09:35:40.164062500,-58.25,4.0,30.0,69.30382812500001,103.4,0.2079383125,238.65
2021-06-25 09:35:40.171875000,-58.5,4.0,30.0,69.30734375,100.42,0.208018375,238.65
2021-06-25 09:35:40.179687500,-58.75,4.0,30.0,69.310859375,97.7,0.2080984375,238.65
2021-06-25 09:35:40.187500000,-59.0,4.0,30.0,69.314375,94.98,0.2081785,238.65
2021-06-25 09:35:40.195312500,-58.5,4.0,30.25,69.317890625,92.65,0.2082585625,238.65
2021-06-25 09:35:40.203125000,-58.0,4.0,30.5,69.32140625000001,90.32,0.208338625,238.65
2021-06-25 09:35:40.210937500,-57.5,4.0,30.75,69.324921875,88.315,0.2084186875,238.65
2021-06-25 09:35:40.218750000,-57.0,4.0,31.0,69.3284375,86.31,0.20849875,238.65
2021-06-25 09:35:40.226562500,-57.0,4.0,31.0,69.331953125,84.4,0.20857881250000002,238.65
2021-06-25 09:35:40.234375000,-57.0,4.0,31.0,69.33546875,82.49,0.208658875,238.65
2021-06-25 09:35:40.242187500,-57.0,4.0,31.0,69.33898437500001,80.47999999999999,0.2087389375,238.65
2021-06-25 09:35:40.250000000,-57.0,4.0,31.0,69.3425,78.47,0.208819,238.65
2021-06-25 09:35:40.257812500,-57.25,4.0,31.0,69.346015625,76.255,0.2087389375,238.65
2021-06-25 09:35:40.265625000,-57.5,4.0,31.0,69.34953125,74.04,0.208658875,238.65
2021-06-25 09:35:40.273437500,-57.75,4.0,31.0,69.353046875,71.625,0.20857881250000002,238.65
2021-06-25 09:35:40.281250000,-58.0,4.0,31.0,69.35656250000001,69.21,0.20849875,238.65
2021-06-25 09:35:40.289062500,-58.0,4.25,30.75,69.360078125,66.68,0.2084186875,238.65
2021-06-25 09:35:40.296875000,-58.0,4.5,30.5,69.36359375,64.15,0.208338625,238.65
2021-06-25 09:35:40.304687500,-58.0,4.75,30.25,69.367109375,61.550000000000004,0.2082585625,238.65
2021-06-25 09:35:40.312500000,-58.0,5.0,30.0,69.370625,58.95,0.2081785,238.65
2021-06-25 09:35:40.320312500,-58.0,4.75,30.0,69.37414062500001,56.2,0.2080984375,238.65
2021-06-25 09:35:40.328125000,-58.0,4.5,30.0,69.37765625,53.45,0.208018375,238.65
2021-06-25 09:35:40.335937500,-58.0,4.25,30.0,69.381171875,50.325,0.2079383125,238.65
2021-06-25 09:35:40.343750000,-58.0,4.0,30.0,69.3846875,47.2,0.20785825,238.65
2021-06-25 09:35:40.351562500,-57.75,4.0,30.25,69.388203125,43.415000000000006,0.2077781875,238.65
2021-06-25 09:35:40.359375000,-57.5,4.0,30.5,69.39171875000001,39.63,0.207698125,238.65
2021-06-25 09:35:40.367187500,-57.25,4.0,30.75,69.395234375,34.94,0.2076180625,238.65
2021-06-25 09:35:40.375000000,-57.0,4.0,31.0,69.39875,30.25,0.207538,238.65
2021-06-25 09:35:40.382812500,-57.0,4.0,31.0,69.402265625,24.605,0.2074579375,238.65
2021-06-25 09:35:40.390625000,-57.0,4.0,31.0,69.40578125,18.96,0.207377875,238.65
2021-06-25 09:35:40.398437500,-57.0,4.0,31.0,69.40929687500001,12.56,0.2072978125,238.65
2021-06-25 09:35:40.406250000,-57.0,4.0,31.0,69.4128125,6.16,0.20721775,238.65
2021-06-25 09:35:40.414062500,-57.0,4.0,31.0,69.416328125,-0.585,0.2071376875,238.65
2021-06-25 09:35:40.421875000,-57.0,4.0,31.0,69.41984375,-7.33,0.207057625,238.65
2021-06-25 09:35:40.429687500,-57.0,4.0,31.0,69.423359375,-13.91,0.2069775625,238.65
2021-06-25 09:35:40.437500000,-57.0,4.0,31.0,69.42687500000001,-20.49,0.2068975,238.65
2021-06-25 09:35:40.445312500,-57.25,4.0,30.75,69.430390625,-26.475,0.2068174375,238.65
2021-06-25 09:35:40.453125000,-57.5,4.0,30.5,69.43390625,-32.46,0.206737375,238.65
2021-06-25 09:35:40.460937500,-57.75,4.0,30.25,69.437421875,-37.644999999999996,0.2066573125,238.65
2021-06-25 09:35:40.468750000,-58.0,4.0,30.0,69.4409375,-42.83,0.20657725,238.65
2021-06-25 09:35:40.476562500,-57.75,4.0,30.25,69.44445312500001,-47.28,0.20649718749999998,238.65
2021-06-25 09:35:40.484375000,-57.5,4.0,30.5,69.44796875,-51.73,0.206417125,238.65
2021-06-25 09:35:40.492187500,-57.25,4.0,30.75,69.451484375,-55.79,0.2063370625,238.65
2021-06-25 09:35:40.500000000,-57.0,4.0,31.0,69.45500000000001,-59.85,0.206257,238.65
2021-06-25 09:35:40.507812500,-57.25,4.0,30.75,69.458515625,-64.045,0.2063370625,238.65
2021-06-25 09:35:40.515625000,-57.5,4.0,30.5,69.46203125000001,-68.24,0.206417125,238.65
2021-06-25 09:35:40.523437500,-57.75,4.0,30.25,69.465546875,-73.125,0.20649718749999998,238.65
2021-06-25 09:35:40.531250000,-58.0,4.0,30.0,69.4690625,-78.01,0.20657725,238.65
2021-06-25 09:35:40.539062500,-58.0,4.0,30.25,69.47257812500001,-83.98,0.2066573125,238.65
2021-06-25 09:35:40.546875000,-58.0,4.0,30.5,69.47609375,-89.95,0.206737375,238.65
2021-06-25 09:35:40.554687500,-58.0,4.0,30.75,69.47960937500001,-97.03999999999999,0.2068174375,238.65
2021-06-25 09:35:40.562500000,-58.0,4.0,31.0,69.483125,-104.13,0.2068975,238.65
2021-06-25 09:35:40.570312500,-57.75,4.0,31.0,69.486640625,-111.82,0.2069775625,238.65
2021-06-25 09:35:40.578125000,-57.5,4.0,31.0,69.49015625000001,-119.51,0.207057625,238.65
2021-06-25 09:35:40.585937500,-57.25,4.0,31.0,69.493671875,-126.725,0.2071376875,238.65
2021-06-25 09:35:40.593750000,-57.0,4.0,31.0,69.49718750000001,-133.94,0.20721775,238.65
2021-06-25 09:35:40.601562500,-57.0,4.25,31.0,69.500703125,-139.28,0.2072978125,238.65
2021-06-25 09:35:40.609375000,-57.0,4.5,31.0,69.50421875,-144.62,0.207377875,238.65
2021-06-25 09:35:40.617187500,-57.0,4.75,31.0,69.50773437500001,-146.69,0.2074579375,238.65
2021-06-25 09:35:40.625000000,-57.0,5.0,31.0,69.51125,-148.76,0.207538,238.65
2021-06-25 09:35:40.632812500,-57.0,5.0,31.0,69.51476562500001,-146.575,0.2076180625,238.65
2021-06-25 09:35:40.640625000,-57.0,5.0,31.0,69.51828125,-144.39,0.207698125,238.65
2021-06-25 09:35:40.648437500,-57.0,5.0,31.0,69.521796875,-137.625,0.2077781875,238.65
2021-06-25 09:35:40.656250000,-57.0,5.0,31.0,69.52531250000001,-130.86,0.20785825,238.65
2021-06-25 09:35:40.664062500,-57.25,4.75,31.0,69.528828125,-119.87,0.2079383125,238.65
2021-06-25 09:35:40.671875000,-57.5,4.5,31.0,69.53234375000001,-108.88,0.208018375,238.65
2021-06-25 09:35:40.679687500,-57.75,4.25,31.0,69.535859375,-94.64,0.2080984375,238.65
2021-06-25 09:35:40.687500000,-58.0,4.0,31.0,69.539375,-80.4,0.2081785,238.65
2021-06-25 09:35:40.695312500,-57.75,4.0,31.0,69.54289062500001,-64.285,0.2082585625,238.65
2021-06-25 09:35:40.703125000,-57.5,4.0,31.0,69.54640625,-48.17,0.208338625,238.65
2021-06-25 09:35:40.710937500,-57.25,4.0,31.0,69.54992187500001,-31.75,0.2084186875,238.65
2021-06-25 09:35:40.718750000,-57.0,4.0,31.0,69.5534375,-15.33,0.20849875,238.65
2021-06-25 09:35:40.726562500,-57.0,4.0,31.0,69.556953125,-0.16999999999999993,0.20857881250000002,238.65
2021-06-25 09:35:40.734375000,-57.0,4.0,31.0,69.56046875000001,14.99,0.208658875,238.65
2021-06-25 09:35:40.742187500,-57.0,4.0,31.0,69.563984375,27.604999999999997,0.2087389375,238.65
2021-06-25 09:35:40.750000000,-57.0,4.0,31.0,69.56750000000001,40.22,0.208819,238.65
2021-06-25 09:35:40.757812500,-57.0,4.0,31.0,69.571015625,49.504999999999995,0.2087389375,238.65
2021-06-25 09:35:40.765625000,-57.0,4.0,31.0,69.57453125,58.79,0.208658875,238.65
2021-06-25 09:35:40.773437500,-57.0,4.0,31.0,69.57804687500001,64.585,0.20857881250000002,238.65
2021-06-25 09:35:40.781250000,-57.0,4.0,31.0,69.5815625,70.38,0.20849875,238.65
2021-06-25 09:35:40.789062500,-57.25,4.25,30.75,69.58507812500001,73.08500000000001,0.2084186875,238.65
2021-06-25 09:35:40.796875000,-57.5,4.5,30.5,69.58859375,75.79,0.208338625,238.65
2021-06-25 09:35:40.804687500,-57.75,4.75,30.25,69.592109375,76.16,0.2082585625,238.65
2021-06-25 09:35:40.812500000,-58.0,5.0,30.0,69.59562500000001,76.53,0.2081785,238.65
2021-06-25 09:35:40.820312500,-57.75,4.75,30.0,69.599140625,75.36,0.2080984375,238.65
2021-06-25 09:35:40.828125000,-57.5,4.5,30.0,69.60265625000001,74.19,0.208018375,238.65
2021-06-25 09:35:40.835937500,-57.25,4.25,30.0,69.606171875,72.1,0.2079383125,238.65
2021-06-25 09:35:40.843750000,-57.0,4.0,30.0,69.6096875,70.01,0.20785825,238.65
2021-06-25 09:35:40.851562500,-57.25,4.25,30.0,69.61320312500001,67.41499999999999,0.2077781875,238.65
2021-06-25 09:35:40.859375000,-57.5,4.5,30.0,69.61671875,64.82,0.207698125,238.65
2021-06-25 09:35:40.867187500,-57.75,4.75,30.0,69.62023437500001,61.995,0.2076180625,238.65
2021-06-25 09:35:40.875000000,-58.0,5.0,30.0,69.62375,59.17,0.207538,238.65
2021-06-25 09:35:40.882812500,-58.0,5.0,30.0,69.627265625,56.38,0.2074579375,238.65
2021-06-25 09:35:40.890625000,-58.0,5.0,30.0,69.63078125000001,53.59,0.207377875,238.65
2021-06-25 09:35:40.898437500,-58.0,5.0,30.0,69.634296875,51.065,0.2072978125,238.65
2021-06-25 09:35:40.906250000,-58.0,5.0,30.0,69.63781250000001,48.54,0.20721775,238.65
2021-06-25 09:35:40.914062500,-58.0,5.0,30.25,69.641328125,46.435,0.2071376875,238.65
2021-06-25 09:35:40.921875000,-58.0,5.0,30.5,69.64484375,44.33,0.207057625,238.65
2021-06-25 09:35:40.929687500,-58.0,5.0,30.75,69.64835937500001,42.61,0.2069775625,238.65
2021-06-25 09:35:40.937500000,-58.0,5.0,31.0,69.651875,40.89,0.2068975,238.65
2021-06-25 09:35:40.945312500,-58.0,5.0,31.0,69.65539062500001,39.375,0.2068174375,238.65
2021-06-25 09:35:40.953125000,-58.0,5.0,31.0,69.65890625,37.86,0.206737375,238.65
2021-06-25 09:35:40.960937500,-58.0,5.0,31.0,69.662421875,36.379999999999995,0.2066573125,238.65
2021-06-25 09:35:40.968750000,-58.0,5.0,31.0,69.66593750000001,34.9,0.20657725,238.65
2021-06-25 09:35:40.976562500,-58.0,4.75,31.0,69.669453125,33.42,0.20649718749999998,238.65
2021-06-25 09:35:40.984375000,-58.0,4.5,31.0,69.67296875000001,31.94,0.206417125,238.65
2021-06-25 09:35:40.992187500,-58.0,4.25,31.0,69.676484375,30.62,0.2063370625,238.65
2021-06-25 09:35:41.000000000,-58.0,4.0,31.0,69.68,29.3,0.206257,238.65
2021-06-25 09:35:41.007812500,-58.0,4.25,31.0,69.68351562500001,28.335,0.2063370625,238.65
2021-06-25 09:35:41.015625000,-58.0,4.5,31.0,69.68703125,27.37,0.206417125,238.65
2021-06-25 09:35:41.023437500,-58.0,4.75,31.0,69.69054687500001,26.805,0.20649718749999998,238.65
2021-06-25 09:35:41.031250000,-58.0,5.0,31.0,69.6940625,26.24,0.20657725,238.65
2021-06-25 09:35:41.039062500,-57.75,5.0,31.0,69.697578125,25.854999999999997,0.2066573125,238.65
2021-06-25 09:35:41.046875000,-57.5,5.0,31.0,69.70109375000001,25.47,0.206737375,238.65
2021-06-25 09:35:41.054687500,-57.25,5.0,31.0,69.704609375,24.799999999999997,0.2068174375,238.65
2021-06-25 09:35:41.062500000,-57.0,5.0,31.0,69.70812500000001,24.13,0.2068975,238.65
2021-06-25 09:35:41.070312500,-57.0,5.0,31.0,69.711640625,22.674999999999997,0.2069775625,238.65
2021-06-25 09:35:41.078125000,-57.0,5.0,31.0,69.71515625,21.22,0.207057625,238.65
2021-06-25 09:35:41.085937500,-57.0,5.0,31.0,69.71867187500001,18.665,0.2071376875,238.65
2021-06-25 09:35:41.093750000,-57.0,5.0,31.0,69.7221875,16.11,0.20721775,238.65
2021-06-25 09:35:41.101562500,-57.25,5.0,30.75,69.72570312500001,12.485,0.2072978125,238.65
2021-06-25 09:35:41.109375000,-57.5,5.0,30.5,69.72921875,8.86,0.207377875,238.65
2021-06-25 09:35:41.117187500,-57.75,5.0,30.25,69.732734375,4.495,0.2074579375,238.65
2021-06-25 09:35:41.125000000,-58.0,5.0,30.0,69.73625000000001,0.13,0.207538,238.65
2021-06-25 09:35:41.132812500,-57.75,4.75,30.25,69.739765625,-4.460000000000001,0.2076180625,238.65
2021-06-25 09:35:41.140625000,-57.5,4.5,30.5,69.74328125000001,-9.05,0.207698125,238.65
2021-06-25 09:35:41.148437500,-57.25,4.25,30.75,69.746796875,-13.375,0.2077781875,238.65
2021-06-25 09:35:41.156250000,-57.0,4.0,31.0,69.7503125,-17.7,0.20785825,238.65
2021-06-25 09:35:41.164062500,-57.0,4.25,31.0,69.753828125,-21.52,0.2079383125,238.65
2021-06-25 09:35:41.171875000,-57.0,4.5,31.0,69.75734375,-25.34,0.208018375,238.65
2021-06-25 09:35:41.179687500,-57.0,4.75,31.0,69.76085937500001,-28.665,0.2080984375,238.65
2021-06-25 09:35:41.187500000,-57.0,5.0,31.0,69.764375,-31.99,0.2081785,238.65
2021-06-25 09:35:41.195312500,-56.75,5.0,31.25,69.767890625,-35.1,0.2082585625,238.65
2021-06-25 09:35:41.203125000,-56.5,5.0,31.5,69.77140625,-38.21,0.208338625,238.65
2021-06-25 09:35:41.210937500,-56.25,5.0,31.75,69.774921875,-41.55,0.2084186875,238.65
2021-06-25 09:35:41.218750000,-56.0,5.0,32.0,69.77843750000001,-44.89,0.20849875,238.65
2021-06-25 09:35:41.226562500,-56.75,5.0,31.5,69.781953125,-48.92,0.20857881250000002,238.65
2021-06-25 09:35:41.234375000,-57.5,5.0,31.0,69.78546875,-52.95,0.208658875,238.65
2021-06-25 09:35:41.242187500,-58.25,5.0,30.5,69.788984375,-57.975,0.2087389375,238.65
2021-06-25 09:35:41.250000000,-59.0,5.0,30.0,69.7925,-63.0,0.208819,238.65
2021-06-25 09:35:41.257812500,-58.75,5.0,30.0,69.79601562500001,-69.0,0.2087389375,238.65
2021-06-25 09:35:41.265625000,-58.5,5.0,30.0,69.79953125,-75.0,0.208658875,238.65
2021-06-25 09:35:41.273437500,-58.25,5.0,30.0,69.803046875,-81.47,0.20857881250000002,238.65
2021-06-25 09:35:41.281250000,-58.0,5.0,30.0,69.8065625,-87.94,0.20849875,238.65
2021-06-25 09:35:41.289062500,-58.0,5.0,30.25,69.810078125,-93.89,0.2084186875,238.65
2021-06-25 09:35:41.296875000,-58.0,5.0,30.5,69.81359375000001,-99.84,0.208338625,238.65
2021-06-25 09:35:41.304687500,-58.0,5.0,30.75,69.817109375,-103.92,0.2082585625,238.65
2021-06-25 09:35:41.312500000,-58.0,5.0,31.0,69.820625,-108.0,0.2081785,238.65
2021-06-25 09:35:41.320312500,-58.0,5.0,31.0,69.824140625,-108.825,0.2080984375,238.65
2021-06-25 09:35:41.328125000,-58.0,5.0,31.0,69.82765625,-109.65,0.208018375,238.65
2021-06-25 09:35:41.335937500,-58.0,5.0,31.0,69.83117187500001,-106.255,0.2079383125,238.65
2021-06-25 09:35:41.343750000,-58.0,5.0,31.0,69.8346875,-102.86,0.20785825,238.65
2021-06-25 09:35:41.351562500,-57.75,5.0,31.0,69.838203125,-95.06,0.2077781875,238.65
2021-06-25 09:35:41.359375000,-57.5,5.0,31.0,69.84171875,-87.26,0.207698125,238.65
2021-06-25 09:35:41.367187500,-57.25,5.0,31.0,69.845234375,-75.73,0.2076180625,238.65
2021-06-25 09:35:41.375000000,-57.0,5.0,31.0,69.84875,-64.2,0.207538,238.65
2021-06-25 09:35:41.382812500,-57.25,5.0,31.0,69.852265625,-50.325,0.2074579375,238.65
2021-06-25 09:35:41.390625000,-57.5,5.0,31.0,69.85578125,-36.45,0.207377875,238.65
2021-06-25 09:35:41.398437500,-57.75,5.0,31.0,69.859296875,-21.885,0.2072978125,238.65
2021-06-25 09:35:41.406250000,-58.0,5.0,31.0,69.8628125,-7.32,0.20721775,238.65
2021-06-25 09:35:41.414062500,-57.75,5.0,31.0,69.866328125,6.475,0.2071376875,238.65
2021-06-25 09:35:41.421875000,-57.5,5.0,31.0,69.86984375,20.27,0.207057625,238.65
2021-06-25 09:35:41.429687500,-57.25,5.0,31.0,69.873359375,32.365,0.2069775625,238.65
2021-06-25 09:35:41.437500000,-57.0,5.0,31.0,69.876875,44.46,0.2068975,238.65
2021-06-25 09:35:41.445312500,-57.25,5.0,31.0,69.880390625,54.495000000000005,0.2068174375,238.65
2021-06-25 09:35:41.453125000,-57.5,5.0,31.0,69.88390625,64.53,0.206737375,238.65
2021-06-25 09:35:41.460937500,-57.75,5.0,31.0,69.887421875,72.545,0.2066573125,238.65
2021-06-25 09:35:41.468750000,-58.0,5.0,31.0,69.8909375,80.56,0.20657725,238.65
2021-06-25 09:35:41.476562500,-57.75,5.0,30.75,69.894453125,86.685,0.20649718749999998,238.65
2021-06-25 09:35:41.484375000,-57.5,5.0,30.5,69.89796875,92.81,0.206417125,238.65
2021-06-25 09:35:41.492187500,-57.25,5.0,30.25,69.901484375,97.11500000000001,0.2063370625,238.65
2021-06-25 09:35:41.500000000,-57.0,5.0,30.0,69.905,101.42,0.206257,238.65
2021-06-25 09:35:41.507812500,-57.0,5.0,30.25,69.908515625,103.93,0.20637709375,238.65
2021-06-25 09:35:41.515625000,-57.0,5.0,30.5,69.91203125,106.44,0.20649718749999998,238.65
2021-06-25 09:35:41.523437500,-57.0,5.0,30.75,69.915546875,107.27,0.20661728125,238.65
2021-06-25 09:35:41.531250000,-57.0,5.0,31.0,69.9190625,108.1,0.206737375,238.65
2021-06-25 09:35:41.539062500,-57.0,5.0,31.0,69.922578125,107.6,0.20685746875,238.65
2021-06-25 09:35:41.546875000,-57.0,5.0,31.0,69.92609375,107.1,0.2069775625,238.65
2021-06-25 09:35:41.554687500,-57.0,5.0,31.0,69.929609375,105.87,0.20709765625,238.65
2021-06-25 09:35:41.562500000,-57.0,5.0,31.0,69.933125,104.64,0.20721775,238.65
2021-06-25 09:35:41.570312500,-57.25,5.0,30.75,69.936640625,103.345,0.20733784375,238.65
2021-06-25 09:35:41.578125000,-57.5,5.0,30.5,69.94015625,102.05,0.2074579375,238.65
2021-06-25 09:35:41.585937500,-57.75,5.0,30.25,69.943671875,101.16,0.20757803125,238.65
2021-06-25 09:35:41.593750000,-58.0,5.0,30.0,69.9471875,100.27,0.207698125,238.65
2021-06-25 09:35:41.601562500,-57.75,5.0,30.25,69.950703125,99.89,0.20781821875,238.65
2021-06-25 09:35:41.609375000,-57.5,5.0,30.5,69.95421875,99.51,0.2079383125,238.65
2021-06-25 09:35:41.617187500,-57.25,5.0,30.75,69.957734375,99.4,0.20805840625,238.65
2021-06-25 09:35:41.625000000,-57.0,5.0,31.0,69.96125,99.29,0.2081785,238.65
2021-06-25 09:35:41.632812500,-57.25,5.0,30.75,69.964765625,99.04,0.20829859375,238.65
2021-06-25 09:35:41.640625000,-57.5,5.0,30.5,69.96828125,98.79,0.2084186875,238.65
2021-06-25 09:35:41.648437500,-57.75,5.0,30.25,69.971796875,98.08000000000001,0.20853878125,238.65
2021-06-25 09:35:41.656250000,-58.0,5.0,30.0,69.9753125,97.37,0.208658875,238.65
2021-06-25 09:35:41.664062500,-58.0,5.0,30.0,69.97882812499999,96.11500000000001,0.20877896875000002,238.65
2021-06-25 09:35:41.671875000,-58.0,5.0,30.0,69.98234375,94.86,0.2088990625,238.65
2021-06-25 09:35:41.679687500,-58.0,5.0,30.0,69.985859375,93.2,0.20901915625,238.65
2021-06-25 09:35:41.687500000,-58.0,5.0,30.0,69.989375,91.54,0.20913925,238.65
2021-06-25 09:35:41.695312500,-57.75,5.0,30.25,69.992890625,89.69,0.20925934375,238.65
2021-06-25 09:35:41.703125000,-57.5,5.0,30.5,69.99640624999999,87.84,0.20937943750000002,238.65
2021-06-25 09:35:41.710937500,-57.25,5.0,30.75,69.999921875,85.855,0.20949953125,238.65
2021-06-25 09:35:41.718750000,-57.0,5.0,31.0,70.0034375,83.87,0.209619625,238.65
2021-06-25 09:35:41.726562500,-57.25,5.0,30.75,70.006953125,81.555,0.20973971875,238.65
2021-06-25 09:35:41.734375000,-57.5,5.0,30.5,70.01046875,79.24,0.20985981250000002,238.65
2021-06-25 09:35:41.742187500,-57.75,5.0,30.25,70.01398437499999,76.235,0.20997990625000001,238.65
2021-06-25 09:35:41.750000000,-58.0,5.0,30.0,70.0175,73.23,0.2101,238.65
2021-06-25 09:35:41.757812500,-58.0,5.0,30.0,70.021015625,69.16499999999999,0.21005996875000002,238.65
2021-06-25 09:35:41.765625000,-58.0,5.0,30.0,70.02453125,65.1,0.2100199375,238.65
2021-06-25 09:35:41.773437500,-58.0,5.0,30.0,70.028046875,59.83,0.20997990625000001,238.65
2021-06-25 09:35:41.781250000,-58.0,5.0,30.0,70.03156249999999,54.56,0.209939875,238.65
2021-06-25 09:35:41.789062500,-58.0,5.0,30.0,70.035078125,48.275000000000006,0.20989984375,238.65
2021-06-25 09:35:41.796875000,-58.0,5.0,30.0,70.03859375,41.99,0.20985981250000002,238.65
2021-06-25 09:35:41.804687500,-58.0,5.0,30.0,70.042109375,35.125,0.20981978125,238.65
2021-06-25 09:35:41.812500000,-58.0,5.0,30.0,70.045625,28.26,0.20977975000000001,238.65
2021-06-25 09:35:41.820312500,-58.0,5.0,30.0,70.04914062499999,21.405,0.20973971875,238.65
2021-06-25 09:35:41.828125000,-58.0,5.0,30.0,70.05265625,14.55,0.2096996875,238.65
2021-06-25 09:35:41.835937500,-58.0,5.0,30.0,70.056171875,8.115,0.20965965625000002,238.65
2021-06-25 09:35:41.843750000,-58.0,5.0,30.0,70.0596875,1.68,0.209619625,238.65
2021-06-25 09:35:41.851562500,-58.0,5.0,30.25,70.063203125,-4.2250000000000005,0.20957959375000002,238.65
2021-06-25 09:35:41.859375000,-58.0,5.0,30.5,70.06671874999999,-10.13,0.2095395625,238.65
2021-06-25 09:35:41.867187500,-58.0,5.0,30.75,70.070234375,-15.740000000000002,0.20949953125,238.65
2021-06-25 09:35:41.875000000,-58.0,5.0,31.0,70.07374999999999,-21.35,0.20945950000000002,238.65
2021-06-25 09:35:41.882812500,-57.75,5.0,30.75,70.077265625,-27.185000000000002,0.20941946875,238.65
2021-06-25 09:35:41.890625000,-57.5,5.0,30.5,70.08078125,-33.02,0.20937943750000002,238.65
2021-06-25 09:35:41.898437500,-57.25,5.0,30.25,70.08429687499999,-39.67,0.20933940625,238.65
2021-06-25 09:35:41.906250000,-57.0,5.0,30.0,70.0878125,-46.32,0.209299375,238.65
2021-06-25 09:35:41.914062500,-57.25,5.0,30.0,70.09132812499999,-54.254999999999995,0.20925934375,238.65
2021-06-25 09:35:41.921875000,-57.5,5.0,30.0,70.09484375,-62.19,0.2092193125,238.65
2021-06-25 09:35:41.929687500,-57.75,5.0,30.0,70.098359375,-71.47999999999999,0.20917928125000002,238.65
2021-06-25 09:35:41.937500000,-58.0,5.0,30.0,70.10187499999999,-80.77,0.20913925,238.65
2021-06-25 09:35:41.945312500,-58.0,5.0,30.0,70.105390625,-90.97,0.20909921875,238.65
2021-06-25 09:35:41.953125000,-58.0,5.0,30.0,70.10890624999999,-101.17,0.2090591875,238.65
2021-06-25 09:35:41.960937500,-58.0,5.0,30.0,70.112421875,-111.25999999999999,0.20901915625,238.65
2021-06-25 09:35:41.968750000,-58.0,5.0,30.0,70.1159375,-121.35,0.20897912500000002,238.65
2021-06-25 09:35:41.976562500,-58.0,5.0,30.0,70.11945312499999,-129.885,0.20893909375,238.65
2021-06-25 09:35:41.984375000,-58.0,5.0,30.0,70.12296875,-138.42,0.2088990625,238.65
2021-06-25 09:35:41.992187500,-58.0,5.0,30.0,70.12648437499999,-143.82,0.20885903125,238.65
2021-06-25 09:35:42.000000000,-58.0,5.0,30.0,70.13,-149.22,0.208819,238.65
2021-06-25 09:35:42.007812500,-58.0,5.0,30.0,70.133515625,-150.175,0.2087389375,238.65
2021-06-25 09:35:42.015625000,-58.0,5.0,30.0,70.13703124999999,-151.13,0.208658875,238.65
2021-06-25 09:35:42.023437500,-58.0,5.0,30.0,70.140546875,-147.015,0.20857881250000002,238.65
2021-06-25 09:35:42.031250000,-58.0,5.0,30.0,70.14406249999999,-142.9,0.20849875,238.65
2021-06-25 09:35:42.039062500,-58.0,5.0,30.0,70.147578125,-134.0,0.2084186875,238.65
2021-06-25 09:35:42.046875000,-58.0,5.0,30.0,70.15109375,-125.1,0.208338625,238.65
2021-06-25 09:35:42.054687500,-58.0,5.0,30.0,70.15460937499999,-112.555,0.2082585625,238.65
2021-06-25 09:35:42.062500000,-58.0,5.0,30.0,70.158125,-100.01,0.2081785,238.65
2021-06-25 09:35:42.070312500,-57.75,5.0,30.0,70.16164062499999,-85.45,0.2080984375,238.65
2021-06-25 09:35:42.078125000,-57.5,5.0,30.0,70.16515625,-70.89,0.208018375,238.65
2021-06-25 09:35:42.085937500,-57.25,5.0,30.0,70.168671875,-55.995000000000005,0.2079383125,238.65
2021-06-25 09:35:42.093750000,-57.0,5.0,30.0,70.17218749999999,-41.1,0.20785825,238.65
2021-06-25 09:35:42.101562500,-57.25,5.0,30.0,70.175703125,-27.17,0.2077781875,238.65
2021-06-25 09:35:42.109375000,-57.5,5.0,30.0,70.17921874999999,-13.24,0.207698125,238.65
2021-06-25 09:35:42.117187500,-57.75,5.0,30.0,70.182734375,-1.0,0.2076180625,238.65
2021-06-25 09:35:42.125000000,-58.0,5.0,30.0,70.18625,11.24,0.207538,238.65
2021-06-25 09:35:42.132812500,-57.75,5.0,30.25,70.18976562499999,21.560000000000002,0.2074579375,238.65
2021-06-25 09:35:42.140625000,-57.5,5.0,30.5,70.19328125,31.88,0.207377875,238.65
2021-06-25 09:35:42.148437500,-57.25,5.0,30.75,70.19679687499999,40.295,0.2072978125,238.65
2021-06-25 09:35:42.156250000,-57.0,5.0,31.0,70.2003125,48.71,0.20721775,238.65
2021-06-25 09:35:42.164062500,-57.0,4.75,31.0,70.203828125,55.28,0.2071376875,238.65
2021-06-25 09:35:42.171875000,-57.0,4.5,31.0,70.20734374999999,61.85,0.207057625,238.65
2021-06-25 09:35:42.179687500,-57.0,4.25,31.0,70.210859375,66.61,0.2069775625,238.65
2021-06-25 09:35:42.187500000,-57.0,4.0,31.0,70.21437499999999,71.37,0.2068975,238.65
2021-06-25 09:35:42.195312500,-57.25,4.25,30.75,70.217890625,74.34,0.2068174375,238.65
2021-06-25 09:35:42.203125000,-57.5,4.5,30.5,70.22140625,77.31,0.206737375,238.65
2021-06-25 09:35:42.210937500,-57.75,4.75,30.25,70.22492187499999,78.64,0.2066573125,238.65
2021-06-25 09:35:42.218750000,-58.0,5.0,30.0,70.2284375,79.97,0.20657725,238.65
2021-06-25 09:35:42.226562500,-58.0,5.0,30.0,70.23195312499999,79.96000000000001,0.20649718749999998,238.65
2021-06-25 09:35:42.234375000,-58.0,5.0,30.0,70.23546875,79.95,0.206417125,238.65
2021-06-25 09:35:42.242187500,-58.0,5.0,30.0,70.238984375,79.045,0.2063370625,238.65
2021-06-25 09:35:42.250000000,-58.0,5.0,30.0,70.24249999999999,78.14,0.206257,238.65
2021-06-25 09:35:42.257812500,-57.75,5.0,30.0,70.246015625,76.795,0.20637709375,238.65
2021-06-25 09:35:42.265625000,-57.5,5.0,30.0,70.24953124999999,75.45,0.20649718749999998,238.65
2021-06-25 09:35:42.273437500,-57.25,5.0,30.0,70.253046875,74.045,0.20661728125,238.65
2021-06-25 09:35:42.281250000,-57.0,5.0,30.0,70.2565625,72.64,0.206737375,238.65
2021-06-25 09:35:42.289062500,-57.25,5.0,30.0,70.26007812499999,71.35499999999999,0.20685746875,238.65
2021-06-25 09:35:42.296875000,-57.5,5.0,30.0,70.26359375,70.07,0.2069775625,238.65
2021-06-25 09:35:42.304687500,-57.75,5.0,30.0,70.26710937499999,68.91999999999999,0.20709765625,238.65
2021-06-25 09:35:42.312500000,-58.0,5.0,30.0,70.270625,67.77,0.20721775,238.65
2021-06-25 09:35:42.320312500,-58.0,5.0,30.0,70.274140625,66.66499999999999,0.20733784375,238.65
2021-06-25 09:35:42.328125000,-58.0,5.0,30.0,70.27765624999999,65.56,0.2074579375,238.65
2021-06-25 09:35:42.335937500,-58.0,5.0,30.0,70.281171875,64.385,0.20757803125,238.65
2021-06-25 09:35:42.343750000,-58.0,5.0,30.0,70.28468749999999,63.21,0.207698125,238.65
2021-06-25 09:35:42.351562500,-58.0,5.0,30.0,70.288203125,61.935,0.20781821875,238.65
2021-06-25 09:35:42.359375000,-58.0,5.0,30.0,70.29171875,60.66,0.2079383125,238.65
2021-06-25 09:35:42.367187500,-58.0,5.0,30.0,70.29523437499999,59.355,0.20805840625,238.65
2021-06-25 09:35:42.375000000,-58.0,5.0,30.0,70.29875,58.05,0.2081785,238.65
2021-06-25 09:35:42.382812500,-58.0,5.0,30.0,70.30226562499999,56.864999999999995,0.20829859375,238.65
2021-06-25 09:35:42.390625000,-58.0,5.0,30.0,70.30578125,55.68,0.2084186875,238.65
2021-06-25 09:35:42.398437500,-58.0,5.0,30.0,70.309296875,54.715,0.20853878125,238.65
2021-06-25 09:35:42.406250000,-58.0,5.0,30.0,70.31281249999999,53.75,0.208658875,238.65
2021-06-25 09:35:42.414062500,-58.0,5.0,30.0,70.316328125,52.95,0.20877896875000002,238.65
2021-06-25 09:35:42.421875000,-58.0,5.0,30.0,70.31984374999999,52.15,0.2088990625,238.65
2021-06-25 09:35:42.429687500,-58.0,5.0,30.0,70.323359375,51.239999999999995,0.20901915625,238.65
2021-06-25 09:35:42.437500000,-58.0,5.0,30.0,70.326875,50.33,0.20913925,238.65
2021-06-25 09:35:42.445312500,-58.0,5.0,30.0,70.33039062499999,48.875,0.20925934375,238.65
2021-06-25 09:35:42.453125000,-58.0,5.0,30.0,70.33390625,47.42,0.20937943750000002,238.65
2021-06-25 09:35:42.460937500,-58.0,5.0,30.0,70.33742187499999,44.985,0.20949953125,238.65
2021-06-25 09:35:42.468750000,-58.0,5.0,30.0,70.3409375,42.55,0.209619625,238.65
2021-06-25 09:35:42.476562500,-58.0,5.0,30.0,70.344453125,38.894999999999996,0.20973971875,238.65
2021-06-25 09:35:42.484375000,-58.0,5.0,30.0,70.34796874999999,35.24,0.20985981250000002,238.65
2021-06-25 09:35:42.492187500,-58.0,5.0,30.0,70.351484375,30.445,0.20997990625000001,238.65
2021-06-25 09:35:42.500000000,-58.0,5.0,30.0,70.35499999999999,25.65,0.2101,238.65
2021-06-25 09:35:42.507812500,-58.0,5.0,30.0,70.358515625,20.13,0.2100199375,238.65
2021-06-25 09:35:42.515625000,-58.0,5.0,30.0,70.36203125,14.61,0.209939875,238.65
2021-06-25 09:35:42.523437500,-58.0,5.0,30.0,70.36554687499999,8.934999999999999,0.20985981250000002,238.65
2021-06-25 09:35:42.531250000,-58.0,5.0,30.0,70.3690625,3.26,0.20977975000000001,238.65
2021-06-25 09:35:42.539062500,-58.0,5.0,30.0,70.372578125,-2.0300000000000002,0.2096996875,238.65
2021-06-25 09:35:42.546875000,-58.0,5.0,30.0,70.37609375,-7.32,0.209619625,238.65
2021-06-25 09:35:42.554687500,-58.0,5.0,30.0,70.379609375,-11.93,0.2095395625,238.65
2021-06-25 09:35:42.562500000,-58.0,5.0,30.0,70.38312499999999,-16.54,0.20945950000000002,238.65
2021-06-25 09:35:42.570312500,-58.0,5.0,30.0,70.386640625,-20.490000000000002,0.20937943750000002,238.65
2021-06-25 09:35:42.578125000,-58.0,5.0,30.0,70.39015625,-24.44,0.209299375,238.65
2021-06-25 09:35:42.585937500,-58.0,5.0,30.0,70.393671875,-28.045,0.2092193125,238.65
2021-06-25 09:35:42.593750000,-58.0,5.0,30.0,70.3971875,-31.65,0.20913925,238.65
2021-06-25 09:35:42.601562500,-58.0,5.0,30.0,70.40070312499999,-35.43,0.2090591875,238.65
2021-06-25 09:35:42.609375000,-58.0,5.0,30.0,70.40421875,-39.21,0.20897912500000002,238.65
2021-06-25 09:35:42.617187500,-58.0,5.0,30.0,70.407734375,-43.705,0.2088990625,238.65
2021-06-25 09:35:42.625000000,-58.0,5.0,30.0,70.41125,-48.2,0.208819,238.65
2021-06-25 09:35:42.632812500,-58.0,5.0,29.75,70.414765625,-53.825,0.2087389375,238.65
2021-06-25 09:35:42.640625000,-58.0,5.0,29.5,70.41828124999999,-59.45,0.208658875,238.65
2021-06-25 09:35:42.648437500,-58.0,5.0,29.25,70.421796875,-66.265,0.20857881250000002,238.65
2021-06-25 09:35:42.656250000,-58.0,5.0,29.0,70.4253125,-73.08,0.20849875,238.65
2021-06-25 09:35:42.664062500,-58.25,5.0,29.0,70.428828125,-80.705,0.2084186875,238.65
2021-06-25 09:35:42.671875000,-58.5,5.0,29.0,70.43234375,-88.33,0.208338625,238.65
2021-06-25 09:35:42.679687500,-58.75,5.0,29.0,70.43585937499999,-95.81,0.2082585625,238.65
2021-06-25 09:35:42.687500000,-59.0,5.0,29.0,70.439375,-103.29,0.2081785,238.65
2021-06-25 09:35:42.695312500,-58.75,4.75,29.25,70.442890625,-109.285,0.2080984375,238.65
2021-06-25 09:35:42.703125000,-58.5,4.5,29.5,70.44640625,-115.28,0.208018375,238.65
2021-06-25 09:35:42.710937500,-58.25,4.25,29.75,70.449921875,-118.33,0.2079383125,238.65
2021-06-25 09:35:42.718750000,-58.0,4.0,30.0,70.45343749999999,-121.38,0.20785825,238.65
2021-06-25 09:35:42.726562500,-58.0,4.25,30.0,70.456953125,-120.35499999999999,0.2077781875,238.65
2021-06-25 09:35:42.734375000,-58.0,4.5,30.0,70.46046875,-119.33,0.207698125,238.65
2021-06-25 09:35:42.742187500,-58.0,4.75,30.0,70.463984375,-113.755,0.2076180625,238.65
2021-06-25 09:35:42.750000000,-58.0,5.0,30.0,70.4675,-108.18,0.207538,238.65
2021-06-25 09:35:42.757812500,-58.0,5.25,29.75,70.47101562499999,-98.475,0.20757803125,238.65
2021-06-25 09:35:42.765625000,-58.0,5.5,29.5,70.47453125,-88.77,0.2076180625,238.65
2021-06-25 09:35:42.773437500,-58.0,5.75,29.25,70.478046875,-76.09,0.20765809375,238.65
2021-06-25 09:35:42.781250000,-58.0,6.0,29.0,70.4815625,-63.41,0.207698125,238.65
2021-06-25 09:35:42.789062500,-58.0,6.0,29.25,70.485078125,-49.33,0.20773815625,238.65
2021-06-25 09:35:42.796875000,-58.0,6.0,29.5,70.48859374999999,-35.25,0.2077781875,238.65
2021-06-25 09:35:42.804687500,-58.0,6.0,29.75,70.492109375,-21.325,0.20781821875,238.65
2021-06-25 09:35:42.812500000,-58.0,6.0,30.0,70.495625,-7.4,0.20785825,238.65
2021-06-25 09:35:42.820312500,-58.0,5.75,30.0,70.499140625,5.220000000000001,0.20789828125,238.65
2021-06-25 09:35:42.828125000,-58.0,5.5,30.0,70.50265625,17.84,0.2079383125,238.65
2021-06-25 09:35:42.835937500,-58.0,5.25,30.0,70.50617187499999,28.560000000000002,0.20797834375,238.65
2021-06-25 09:35:42.843750000,-58.0,5.0,30.0,70.5096875,39.28,0.208018375,238.65
2021-06-25 09:35:42.851562500,-58.0,5.0,30.0,70.513203125,48.065,0.20805840625,238.65
2021-06-25 09:35:42.859375000,-58.0,5.0,30.0,70.51671875,56.85,0.2080984375,238.65
2021-06-25 09:35:42.867187500,-58.0,5.0,30.0,70.520234375,63.980000000000004,0.20813846875,238.65
2021-06-25 09:35:42.875000000,-58.0,5.0,30.0,70.52374999999999,71.11,0.2081785,238.65
2021-06-25 09:35:42.882812500,-58.0,5.0,30.0,70.527265625,76.93,0.20821853125,238.65
2021-06-25 09:35:42.890625000,-58.0,5.0,30.0,70.53078125,82.75,0.2082585625,238.65
2021-06-25 09:35:42.898437500,-58.0,5.0,30.0,70.534296875,87.45,0.20829859375,238.65
2021-06-25 09:35:42.906250000,-58.0,5.0,30.0,70.5378125,92.15,0.208338625,238.65
2021-06-25 09:35:42.914062500,-58.0,5.25,29.75,70.54132812499999,95.67,0.20837865625000002,238.65
2021-06-25 09:35:42.921875000,-58.0,5.5,29.5,70.54484375,99.19,0.2084186875,238.65
2021-06-25 09:35:42.929687500,-58.0,5.75,29.25,70.548359375,101.345,0.20845871875,238.65
2021-06-25 09:35:42.937500000,-58.0,6.0,29.0,70.551875,103.5,0.20849875,238.65
2021-06-25 09:35:42.945312500,-58.25,6.0,29.25,70.555390625,104.1,0.20853878125,238.65
2021-06-25 09:35:42.953125000,-58.5,6.0,29.5,70.55890624999999,104.7,0.20857881250000002,238.65
2021-06-25 09:35:42.960937500,-58.75,6.0,29.75,70.562421875,103.78,0.20861884375,238.65
2021-06-25 09:35:42.968750000,-59.0,6.0,30.0,70.5659375,102.86,0.208658875,238.65
2021-06-25 09:35:42.976562500,-58.75,6.0,30.0,70.569453125,100.68,0.20869890625,238.65
2021-06-25 09:35:42.984375000,-58.5,6.0,30.0,70.57296875,98.5,0.2087389375,238.65
2021-06-25 09:35:42.992187500,-58.25,6.0,30.0,70.57648437499999,95.515,0.20877896875000002,238.65
2021-06-25 09:35:43.000000000,-58.0,6.0,30.0,70.58,92.53,0.208819,238.65
2021-06-25 09:35:43.007812500,-57.75,5.75,30.25,70.583828125,89.21000000000001,0.2087389375,238.65
2021-06-25 09:35:43.015625000,-57.5,5.5,30.5,70.58765625,85.89,0.208658875,238.65
2021-06-25 09:35:43.023437500,-57.25,5.25,30.75,70.591484375,82.56,0.20857881250000002,238.65
2021-06-25 09:35:43.031250000,-57.0,5.0,31.0,70.59531249999999,79.23,0.20849875,238.65
2021-06-25 09:35:43.039062500,-57.0,5.25,31.0,70.599140625,75.995,0.2084186875,238.65
2021-06-25 09:35:43.046875000,-57.0,5.5,31.0,70.60296875,72.76,0.208338625,238.65
2021-06-25 09:35:43.054687500,-57.0,5.75,31.0,70.606796875,69.6,0.2082585625,238.65
2021-06-25 09:35:43.062500000,-57.0,6.0,31.0,70.610625,66.44,0.2081785,238.65
2021-06-25 09:35:43.070312500,-57.0,6.0,31.0,70.614453125,63.29,0.2080984375,238.65
2021-06-25 09:35:43.078125000,-57.0,6.0,31.0,70.61828125,60.14,0.208018375,238.65
2021-06-25 09:35:43.085937500,-57.0,6.0,31.0,70.622109375,57.03,0.2079383125,238.65
2021-06-25 09:35:43.093750000,-57.0,6.0,31.0,70.62593749999999,53.92,0.20785825,238.65
2021-06-25 09:35:43.101562500,-57.0,6.0,31.0,70.629765625,50.96,0.2077781875,238.65
2021-06-25 09:35:43.109375000,-57.0,6.0,31.0,70.63359375,48.0,0.207698125,238.65
2021-06-25 09:35:43.117187500,-57.0,6.0,31.0,70.637421875,45.3,0.2076180625,238.65
2021-06-25 09:35:43.125000000,-57.0,6.0,31.0,70.64125,42.6,0.207538,238.65
2021-06-25 09:35:43.132812500,-57.25,6.0,31.0,70.645078125,40.185,0.2074579375,238.65
2021-06-25 09:35:43.140625000,-57.5,6.0,31.0,70.64890625,37.77,0.207377875,238.65
2021-06-25 09:35:43.148437500,-57.75,6.0,31.0,70.652734375,35.5,0.2072978125,238.65
2021-06-25 09:35:43.156250000,-58.0,6.0,31.0,70.65656249999999,33.23,0.20721775,238.65
2021-06-25 09:35:43.164062500,-57.75,6.0,31.25,70.66039062499999,30.849999999999998,0.2071376875,238.65
2021-06-25 09:35:43.171875000,-57.5,6.0,31.5,70.66421875,28.47,0.207057625,238.65
2021-06-25 09:35:43.179687500,-57.25,6.0,31.75,70.668046875,25.695,0.2069775625,238.65
2021-06-25 09:35:43.187500000,-57.0,6.0,32.0,70.671875,22.92,0.2068975,238.65
2021-06-25 09:35:43.195312500,-56.75,6.0,32.0,70.675703125,19.545,0.2068174375,238.65
2021-06-25 09:35:43.203125000,-56.5,6.0,32.0,70.67953125,16.17,0.206737375,238.65
2021-06-25 09:35:43.210937500,-56.25,6.0,32.0,70.683359375,12.14,0.2066573125,238.65
2021-06-25 09:35:43.218750000,-56.0,6.0,32.0,70.6871875,8.11,0.20657725,238.65
2021-06-25 09:35:43.226562500,-56.25,6.0,32.0,70.69101562499999,3.535,0.20649718749999998,238.65
2021-06-25 09:35:43.234375000,-56.5,6.0,32.0,70.69484375,-1.04,0.206417125,238.65
2021-06-25 09:35:43.242187500,-56.75,6.0,32.0,70.698671875,-5.930000000000001,0.2063370625,238.65
2021-06-25 09:35:43.250000000,-57.0,6.0,32.0,70.7025,-10.82,0.206257,238.65
2021-06-25 09:35:43.257812500,-56.75,6.0,32.0,70.706328125,-15.74,0.206257,238.65
2021-06-25 09:35:43.265625000,-56.5,6.0,32.0,70.71015625,-20.66,0.206257,238.65
2021-06-25 09:35:43.273437500,-56.25,6.0,32.0,70.713984375,-25.345,0.206257,238.65
2021-06-25 09:35:43.281250000,-56.0,6.0,32.0,70.7178125,-30.03,0.206257,238.65
2021-06-25 09:35:43.289062500,-56.0,6.0,32.25,70.72164062499999,-34.325,0.206257,238.65
2021-06-25 09:35:43.296875000,-56.0,6.0,32.5,70.72546874999999,-38.62,0.206257,238.65
2021-06-25 09:35:43.304687500,-56.0,6.0,32.75,70.729296875,-42.519999999999996,0.206257,238.65
2021-06-25 09:35:43.312500000,-56.0,6.0,33.0,70.733125,-46.42,0.206257,238.65
2021-06-25 09:35:43.320312500,-56.25,6.0,32.75,70.736953125,-50.075,0.206257,238.65
2021-06-25 09:35:43.328125000,-56.5,6.0,32.5,70.74078125,-53.73,0.206257,238.65
2021-06-25 09:35:43.335937500,-56.75,6.0,32.25,70.744609375,-57.42,0.206257,238.65
2021-06-25 09:35:43.343750000,-57.0,6.0,32.0,70.7484375,-61.11,0.206257,238.65
2021-06-25 09:35:43.351562500,-56.5,6.0,32.25,70.75226562499999,-65.2,0.206257,238.65
2021-06-25 09:35:43.359375000,-56.0,6.0,32.5,70.75609374999999,-69.29,0.206257,238.65
2021-06-25 09:35:43.367187500,-55.5,6.0,32.75,70.759921875,-74.14,0.206257,238.65
2021-06-25 09:35:43.375000000,-55.0,6.0,33.0,70.76375,-78.99,0.206257,238.65
2021-06-25 09:35:43.382812500,-55.25,6.0,33.0,70.767578125,-84.815,0.206257,238.65
2021-06-25 09:35:43.390625000,-55.5,6.0,33.0,70.77140625,-90.64,0.206257,238.65
2021-06-25 09:35:43.398437500,-55.75,6.0,33.0,70.775234375,-97.41499999999999,0.206257,238.65
2021-06-25 09:35:43.406250000,-56.0,6.0,33.0,70.7790625,-104.19,0.206257,238.65
2021-06-25 09:35:43.414062500,-55.75,6.25,33.0,70.782890625,-111.485,0.206257,238.65
2021-06-25 09:35:43.421875000,-55.5,6.5,33.0,70.78671874999999,-118.78,0.206257,238.65
2021-06-25 09:35:43.429687500,-55.25,6.75,33.0,70.79054687499999,-125.735,0.206257,238.65
2021-06-25 09:35:43.437500000,-55.0,7.0,33.0,70.794375,-132.69,0.206257,238.65
2021-06-25 09:35:43.445312500,-55.5,6.75,33.0,70.798203125,-138.12,0.206257,238.65
2021-06-25 09:35:43.453125000,-56.0,6.5,33.0,70.80203125,-143.55,0.206257,238.65
2021-06-25 09:35:43.460937500,-56.5,6.25,33.0,70.805859375,-146.16000000000003,0.206257,238.65
2021-06-25 09:35:43.468750000,-57.0,6.0,33.0,70.8096875,-148.77,0.206257,238.65
2021-06-25 09:35:43.476562500,-57.0,5.75,33.0,70.813515625,-147.555,0.206257,238.65
2021-06-25 09:35:43.484375000,-57.0,5.5,33.0,70.81734374999999,-146.34,0.206257,238.65
2021-06-25 09:35:43.492187500,-57.0,5.25,33.0,70.82117187499999,-140.82999999999998,0.206257,238.65
2021-06-25 09:35:43.500000000,-57.0,5.0,33.0,70.82499999999999,-135.32,0.206257,238.65
2021-06-25 09:35:43.507812500,-56.5,5.25,33.25,70.828828125,-125.805,0.206257,238.65
2021-06-25 09:35:43.515625000,-56.0,5.5,33.5,70.83265625,-116.29,0.206257,238.65
2021-06-25 09:35:43.523437500,-55.5,5.75,33.75,70.836484375,-103.73,0.206257,238.65
2021-06-25 09:35:43.531250000,-55.0,6.0,34.0,70.8403125,-91.17,0.206257,238.65
2021-06-25 09:35:43.539062500,-55.0,6.0,33.75,70.844140625,-76.96000000000001,0.206257,238.65
2021-06-25 09:35:43.546875000,-55.0,6.0,33.5,70.84796874999999,-62.75,0.206257,238.65
2021-06-25 09:35:43.554687500,-55.0,6.0,33.25,70.85179687499999,-48.355000000000004,0.206257,238.65
2021-06-25 09:35:43.562500000,-55.0,6.0,33.0,70.85562499999999,-33.96,0.206257,238.65
2021-06-25 09:35:43.570312500,-55.0,6.0,33.25,70.859453125,-20.575000000000003,0.206257,238.65
2021-06-25 09:35:43.578125000,-55.0,6.0,33.5,70.86328125,-7.19,0.206257,238.65
2021-06-25 09:35:43.585937500,-55.0,6.0,33.75,70.867109375,4.420000000000001,0.206257,238.65
2021-06-25 09:35:43.593750000,-55.0,6.0,34.0,70.8709375,16.03,0.206257,238.65
2021-06-25 09:35:43.601562500,-54.75,6.0,34.0,70.874765625,25.565,0.206257,238.65
2021-06-25 09:35:43.609375000,-54.5,6.0,34.0,70.87859375,35.1,0.206257,238.65
2021-06-25 09:35:43.617187500,-54.25,6.0,34.0,70.88242187499999,42.57,0.206257,238.65
2021-06-25 09:35:43.625000000,-54.0,6.0,34.0,70.88624999999999,50.04,0.206257,238.65
2021-06-25 09:35:43.632812500,-53.75,6.5,33.75,70.89007812499999,55.635,0.206257,238.65
2021-06-25 09:35:43.640625000,-53.5,7.0,33.5,70.89390625,61.23,0.206257,238.65
2021-06-25 09:35:43.648437500,-53.25,7.5,33.25,70.897734375,65.145,0.206257,238.65
2021-06-25 09:35:43.656250000,-53.0,8.0,33.0,70.9015625,69.06,0.206257,238.65
2021-06-25 09:35:43.664062500,-54.25,6.75,33.25,70.905390625,71.45,0.206257,238.65
2021-06-25 09:35:43.671875000,-55.5,5.5,33.5,70.90921875,73.84,0.206257,238.65
2021-06-25 09:35:43.679687500,-56.75,4.25,33.75,70.91304687499999,74.845,0.206257,238.65
2021-06-25 09:35:43.687500000,-58.0,3.0,34.0,70.91687499999999,75.85,0.206257,238.65
2021-06-25 09:35:43.695312500,-58.0,3.0,33.75,70.92070312499999,75.64,0.206257,238.65
2021-06-25 09:35:43.703125000,-58.0,3.0,33.5,70.92453125,75.43,0.206257,238.65
2021-06-25 09:35:43.710937500,-58.0,3.0,33.25,70.928359375,74.26,0.206257,238.65
2021-06-25 09:35:43.718750000,-58.0,3.0,33.0,70.9321875,73.09,0.206257,238.65
2021-06-25 09:35:43.726562500,-57.0,3.75,33.0,70.936015625,71.32,0.206257,238.65
2021-06-25 09:35:43.734375000,-56.0,4.5,33.0,70.93984375,69.55,0.206257,238.65
2021-06-25 09:35:43.742187500,-55.0,5.25,33.0,70.94367187499999,67.545,0.206257,238.65
2021-06-25 09:35:43.750000000,-54.0,6.0,33.0,70.94749999999999,65.54,0.206257,238.65
2021-06-25 09:35:43.757812500,-54.25,6.0,33.25,70.95132812499999,63.6,0.20637709375,238.65
2021-06-25 09:35:43.765625000,-54.5,6.0,33.5,70.95515624999999,61.66,0.20649718749999998,238.65
2021-06-25 09:35:43.773437500,-54.75,6.0,33.75,70.958984375,59.955,0.20661728125,238.65
2021-06-25 09:35:43.781250000,-55.0,6.0,34.0,70.9628125,58.25,0.206737375,238.65
2021-06-25 09:35:43.789062500,-55.25,5.75,34.0,70.966640625,56.79,0.20685746875,238.65
2021-06-25 09:35:43.796875000,-55.5,5.5,34.0,70.97046875,55.33,0.2069775625,238.65
2021-06-25 09:35:43.804687500,-55.75,5.25,34.0,70.974296875,54.03,0.20709765625,238.65
2021-06-25 09:35:43.812500000,-56.0,5.0,34.0,70.97812499999999,52.73,0.20721775,238.65
2021-06-25 09:35:43.820312500,-56.25,4.75,33.75,70.98195312499999,51.51,0.20733784375,238.65
2021-06-25 09:35:43.828125000,-56.5,4.5,33.5,70.98578124999999,50.29,0.2074579375,238.65
2021-06-25 09:35:43.835937500,-56.75,4.25,33.25,70.989609375,49.155,0.20757803125,238.65
2021-06-25 09:35:43.843750000,-57.0,4.0,33.0,70.9934375,48.02,0.207698125,238.65
2021-06-25 09:35:43.851562500,-56.75,4.25,33.25,70.997265625,47.035,0.20781821875,238.65
2021-06-25 09:35:43.859375000,-56.5,4.5,33.5,71.00109375,46.05,0.2079383125,238.65
2021-06-25 09:35:43.867187500,-56.25,4.75,33.75,71.004921875,45.29,0.20805840625,238.65
2021-06-25 09:35:43.875000000,-56.0,5.0,34.0,71.00874999999999,44.53,0.2081785,238.65
2021-06-25 09:35:43.882812500,-55.75,5.0,34.0,71.01257812499999,43.99,0.20829859375,238.65
2021-06-25 09:35:43.890625000,-55.5,5.0,34.0,71.01640624999999,43.45,0.2084186875,238.65
2021-06-25 09:35:43.898437500,-55.25,5.0,34.0,71.02023437499999,42.96,0.20853878125,238.65
2021-06-25 09:35:43.906250000,-55.0,5.0,34.0,71.0240625,42.47,0.208658875,238.65
2021-06-25 09:35:43.914062500,-55.5,5.0,33.75,71.027890625,41.715,0.20877896875000002,238.65
2021-06-25 09:35:43.921875000,-56.0,5.0,33.5,71.03171875,40.96,0.2088990625,238.65
2021-06-25 09:35:43.929687500,-56.5,5.0,33.25,71.035546875,39.59,0.20901915625,238.65
2021-06-25 09:35:43.937500000,-57.0,5.0,33.0,71.03937499999999,38.22,0.20913925,238.65
2021-06-25 09:35:43.945312500,-56.75,5.0,33.0,71.04320312499999,35.974999999999994,0.20925934375,238.65
2021-06-25 09:35:43.953125000,-56.5,5.0,33.0,71.04703124999999,33.73,0.20937943750000002,238.65
2021-06-25 09:35:43.960937500,-56.25,5.0,33.0,71.05085937499999,30.595,0.20949953125,238.65
2021-06-25 09:35:43.968750000,-56.0,5.0,33.0,71.0546875,27.46,0.209619625,238.65
2021-06-25 09:35:43.976562500,-55.75,5.0,33.25,71.058515625,23.65,0.20973971875,238.65
2021-06-25 09:35:43.984375000,-55.5,5.0,33.5,71.06234375,19.84,0.20985981250000002,238.65
2021-06-25 09:35:43.992187500,-55.25,5.0,33.75,71.066171875,15.76,0.20997990625000001,238.65
2021-06-25 09:35:44.000000000,-55.0,5.0,34.0,71.07,11.68,0.2101,238.65
2021-06-25 09:35:44.007812500,-55.0,4.75,34.25,71.07359374999999,7.745,0.21005996875000002,238.65
2021-06-25 09:35:44.015625000,-55.0,4.5,34.5,71.0771875,3.81,0.2100199375,238.65
2021-06-25 09:35:44.023437500,-55.0,4.25,34.75,71.08078124999999,0.29000000000000004,0.20997990625000001,238.65
2021-06-25 09:35:44.031250000,-55.0,4.0,35.0,71.084375,-3.23,0.209939875,238.65
2021-06-25 09:35:44.039062500,-55.0,4.25,34.75,71.08796874999999,-6.3100000000000005,0.20989984375,238.65
2021-06-25 09:35:44.046875000,-55.0,4.5,34.5,71.0915625,-9.39,0.20985981250000002,238.65
2021-06-25 09:35:44.054687500,-55.0,4.75,34.25,71.09515624999999,-12.25,0.20981978125,238.65
2021-06-25 09:35:44.062500000,-55.0,5.0,34.0,71.09875,-15.11,0.20977975000000001,238.65
2021-06-25 09:35:44.070312500,-55.5,4.75,34.0,71.10234374999999,-18.095,0.20973971875,238.65
2021-06-25 09:35:44.078125000,-56.0,4.5,34.0,71.1059375,-21.08,0.2096996875,238.65
2021-06-25 09:35:44.085937500,-56.5,4.25,34.0,71.10953124999999,-24.525,0.20965965625000002,238.65
2021-06-25 09:35:44.093750000,-57.0,4.0,34.0,71.113125,-27.97,0.209619625,238.65
2021-06-25 09:35:44.101562500,-56.75,4.0,34.0,71.11671874999999,-32.07,0.20957959375000002,238.65
2021-06-25 09:35:44.109375000,-56.5,4.0,34.0,71.1203125,-36.17,0.2095395625,238.65
2021-06-25 09:35:44.117187500,-56.25,4.0,34.0,71.12390624999999,-40.894999999999996,0.20949953125,238.65
2021-06-25 09:35:44.125000000,-56.0,4.0,34.0,71.1275,-45.62,0.20945950000000002,238.65
2021-06-25 09:35:44.132812500,-55.75,4.25,34.0,71.13109374999999,-50.65,0.20941946875,238.65
2021-06-25 09:35:44.140625000,-55.5,4.5,34.0,71.1346875,-55.68,0.20937943750000002,238.65
2021-06-25 09:35:44.148437500,-55.25,4.75,34.0,71.13828124999999,-60.425,0.20933940625,238.65
2021-06-25 09:35:44.156250000,-55.0,5.0,34.0,71.141875,-65.17,0.209299375,238.65
2021-06-25 09:35:44.164062500,-55.25,5.0,34.0,71.14546874999999,-68.85,0.20925934375,238.65
2021-06-25 09:35:44.171875000,-55.5,5.0,34.0,71.1490625,-72.53,0.2092193125,238.65
2021-06-25 09:35:44.179687500,-55.75,5.0,34.0,71.15265624999999,-74.265,0.20917928125000002,238.65
2021-06-25 09:35:44.187500000,-56.0,5.0,34.0,71.15625,-76.0,0.20913925,238.65
2021-06-25 09:35:44.195312500,-56.0,4.75,34.0,71.15984375,-74.995,0.20909921875,238.65
2021-06-25 09:35:44.203125000,-56.0,4.5,34.0,71.1634375,-73.99,0.2090591875,238.65
2021-06-25 09:35:44.210937500,-56.0,4.25,34.0,71.16703125,-69.75999999999999,0.20901915625,238.65
2021-06-25 09:35:44.218750000,-56.0,4.0,34.0,71.170625,-65.53,0.20897912500000002,238.65
2021-06-25 09:35:44.226562500,-55.75,4.25,34.0,71.17421875,-58.045,0.20893909375,238.65
2021-06-25 09:35:44.234375000,-55.5,4.5,34.0,71.1778125,-50.56,0.2088990625,238.65
2021-06-25 09:35:44.242187500,-55.25,4.75,34.0,71.18140625,-40.35,0.20885903125,238.65
2021-06-25 09:35:44.250000000,-55.0,5.0,34.0,71.185,-30.14,0.208819,238.65
2021-06-25 09:35:44.257812500,-55.0,5.0,34.25,71.18859375,-18.195,0.20877896875000002,238.65
2021-06-25 09:35:44.265625000,-55.0,5.0,34.5,71.19218749999999,-6.25,0.2087389375,238.65
2021-06-25 09:35:44.273437500,-55.0,5.0,34.75,71.19578125,6.164999999999999,0.20869890625,238.65
2021-06-25 09:35:44.281250000,-55.0,5.0,35.0,71.19937499999999,18.58,0.208658875,238.65
2021-06-25 09:35:44.289062500,-55.0,5.0,35.0,71.20296875,30.21,0.20861884375,238.65
2021-06-25 09:35:44.296875000,-55.0,5.0,35.0,71.20656249999999,41.84,0.20857881250000002,238.65
2021-06-25 09:35:44.304687500,-55.0,5.0,35.0,71.21015625,51.735,0.20853878125,238.65
2021-06-25 09:35:44.312500000,-55.0,5.0,35.0,71.21374999999999,61.63,0.20849875,238.65
2021-06-25 09:35:44.320312500,-54.75,5.25,35.0,71.21734375,69.255,0.20845871875,238.65
2021-06-25 09:35:44.328125000,-54.5,5.5,35.0,71.22093749999999,76.88,0.2084186875,238.65
2021-06-25 09:35:44.335937500,-54.25,5.75,35.0,71.22453125,82.12,0.20837865625000002,238.65
2021-06-25 09:35:44.343750000,-54.0,6.0,35.0,71.22812499999999,87.36,0.208338625,238.65
2021-06-25 09:35:44.351562500,-54.0,5.75,35.25,71.23171875,90.46000000000001,0.20829859375,238.65
2021-06-25 09:35:44.359375000,-54.0,5.5,35.5,71.23531249999999,93.56,0.2082585625,238.65
2021-06-25 09:35:44.367187500,-54.0,5.25,35.75,71.23890625,94.9,0.20821853125,238.65
2021-06-25 09:35:44.375000000,-54.0,5.0,36.0,71.24249999999999,96.24,0.2081785,238.65
2021-06-25 09:35:44.382812500,-54.0,4.75,36.0,71.24609375,96.28999999999999,0.20813846875,238.65
2021-06-25 09:35:44.390625000,-54.0,4.5,36.0,71.2496875,96.34,0.2080984375,238.65
2021-06-25 09:35:44.398437500,-54.0,4.25,36.0,71.25328125,95.555,0.20805840625,238.65
2021-06-25 09:35:44.406250000,-54.0,4.0,36.0,71.256875,94.77,0.208018375,238.65
2021-06-25 09:35:44.414062500,-54.0,4.25,35.75,71.26046875,93.57499999999999,0.20797834375,238.65
2021-06-25 09:35:44.421875000,-54.0,4.5,35.5,71.2640625,92.38,0.2079383125,238.65
2021-06-25 09:35:44.429687500,-54.0,4.75,35.25,71.26765625,91.21000000000001,0.20789828125,238.65
2021-06-25 09:35:44.437500000,-54.0,5.0,35.0,71.27125,90.04,0.20785825,238.65
2021-06-25 09:35:44.445312500,-54.25,5.0,35.0,71.27484375,89.23500000000001,0.20781821875,238.65
2021-06-25 09:35:44.453125000,-54.5,5.0,35.0,71.2784375,88.43,0.2077781875,238.65
2021-06-25 09:35:44.460937500,-54.75,5.0,35.0,71.28203125,88.20500000000001,0.20773815625,238.65
2021-06-25 09:35:44.468750000,-55.0,5.0,35.0,71.285625,87.98,0.207698125,238.65
2021-06-25 09:35:44.476562500,-55.0,5.0,35.0,71.28921875,88.355,0.20765809375,238.65
2021-06-25 09:35:44.484375000,-55.0,5.0,35.0,71.2928125,88.73,0.2076180625,238.65
2021-06-25 09:35:44.492187500,-55.0,5.0,35.0,71.29640625,89.545,0.20757803125,238.65
2021-06-25 09:35:44.500000000,-55.0,5.0,35.0,71.3,90.36,0.207538,238.65
2021-06-25 09:35:44.507812500,-54.75,5.0,35.0,71.30359374999999,91.315,0.2076180625,238.65
2021-06-25 09:35:44.515625000,-54.5,5.0,35.0,71.3071875,92.27,0.207698125,238.65
2021-06-25 09:35:44.523437500,-54.25,5.0,35.0,71.31078124999999,93.12,0.2077781875,238.65
2021-06-25 09:35:44.531250000,-54.0,5.0,35.0,71.314375,93.97,0.20785825,238.65
2021-06-25 09:35:44.539062500,-54.0,5.0,35.25,71.31796874999999,94.57,0.2079383125,238.65
2021-06-25 09:35:44.546875000,-54.0,5.0,35.5,71.3215625,95.17,0.208018375,238.65
2021-06-25 09:35:44.554687500,-54.0,5.0,35.75,71.32515624999999,95.52000000000001,0.2080984375,238.65
2021-06-25 09:35:44.562500000,-54.0,5.0,36.0,71.32875,95.87,0.2081785,238.65
2021-06-25 09:35:44.570312500,-53.75,5.25,36.0,71.33234374999999,96.06,0.2082585625,238.65
2021-06-25 09:35:44.578125000,-53.5,5.5,36.0,71.3359375,96.25,0.208338625,238.65
2021-06-25 09:35:44.585937500,-53.25,5.75,36.0,71.33953125,96.325,0.2084186875,238.65
2021-06-25 09:35:44.593750000,-53.0,6.0,36.0,71.343125,96.4,0.20849875,238.65
2021-06-25 09:35:44.601562500,-53.25,6.0,35.75,71.34671875,96.29,0.20857881250000002,238.65
2021-06-25 09:35:44.609375000,-53.5,6.0,35.5,71.3503125,96.18,0.208658875,238.65
2021-06-25 09:35:44.617187500,-53.75,6.0,35.25,71.35390625,95.66,0.2087389375,238.65
2021-06-25 09:35:44.625000000,-54.0,6.0,35.0,71.3575,95.14,0.208819,238.65
2021-06-25 09:35:44.632812500,-54.0,6.0,35.0,71.36109375,93.91499999999999,0.2088990625,238.65
2021-06-25 09:35:44.640625000,-54.0,6.0,35.0,71.3646875,92.69,0.20897912500000002,238.65
2021-06-25 09:35:44.648437500,-54.0,6.0,35.0,71.36828125,90.49000000000001,0.2090591875,238.65
2021-06-25 09:35:44.656250000,-54.0,6.0,35.0,71.371875,88.29,0.20913925,238.65
2021-06-25 09:35:44.664062500,-53.75,5.75,35.25,71.37546875,85.03,0.2092193125,238.65
2021-06-25 09:35:44.671875000,-53.5,5.5,35.5,71.3790625,81.77,0.209299375,238.65
2021-06-25 09:35:44.679687500,-53.25,5.25,35.75,71.38265625,77.53999999999999,0.20937943750000002,238.65
2021-06-25 09:35:44.687500000,-53.0,5.0,36.0,71.38625,73.31,0.20945950000000002,238.65
2021-06-25 09:35:44.695312500,-53.5,5.25,35.25,71.38984375,68.405,0.2095395625,238.65
2021-06-25 09:35:44.703125000,-54.0,5.5,34.5,71.3934375,63.5,0.209619625,238.65
2021-06-25 09:35:44.710937500,-54.5,5.75,33.75,71.39703125,58.32,0.2096996875,238.65
2021-06-25 09:35:44.718750000,-55.0,6.0,33.0,71.400625,53.14,0.20977975000000001,238.65
2021-06-25 09:35:44.726562500,-54.5,6.25,34.0,71.40421875,48.04,0.20985981250000002,238.65
2021-06-25 09:35:44.734375000,-54.0,6.5,35.0,71.4078125,42.94,0.209939875,238.65
2021-06-25 09:35:44.742187500,-53.5,6.75,36.0,71.41140625,38.144999999999996,0.2100199375,238.65
2021-06-25 09:35:44.750000000,-53.0,7.0,37.0,71.41499999999999,33.35,0.2101,238.65
2021-06-25 09:35:44.757812500,-53.5,6.75,36.75,71.41859375,28.9,0.2100199375,238.65
2021-06-25 09:35:44.765625000,-54.0,6.5,36.5,71.42218749999999,24.45,0.209939875,238.65
2021-06-25 09:35:44.773437500,-54.5,6.25,36.25,71.42578125,20.215,0.20985981250000002,238.65
2021-06-25 09:35:44.781250000,-55.0,6.0,36.0,71.429375,15.98,0.20977975000000001,238.65
2021-06-25 09:35:44.789062500,-54.5,6.0,36.0,71.43296875,11.67,0.2096996875,238.65
2021-06-25 09:35:44.796875000,-54.0,6.0,36.0,71.4365625,7.36,0.209619625,238.65
2021-06-25 09:35:44.804687500,-53.5,6.0,36.0,71.44015625,2.705,0.2095395625,238.65
2021-06-25 09:35:44.812500000,-53.0,6.0,36.0,71.44375,-1.95,0.20945950000000002,238.65
2021-06-25 09:35:44.820312500,-53.5,6.0,35.75,71.44734375,-7.12,0.20937943750000002,238.65
2021-06-25 09:35:44.828125000,-54.0,6.0,35.5,71.4509375,-12.29,0.209299375,238.65
2021-06-25 09:35:44.835937500,-54.5,6.0,35.25,71.45453125,-17.905,0.2092193125,238.65
2021-06-25 09:35:44.843750000,-55.0,6.0,35.0,71.458125,-23.52,0.20913925,238.65
2021-06-25 09:35:44.851562500,-54.75,6.0,35.25,71.46171875,-29.189999999999998,0.2090591875,238.65
2021-06-25 09:35:44.859375000,-54.5,6.0,35.5,71.4653125,-34.86,0.20897912500000002,238.65
2021-06-25 09:35:44.867187500,-54.25,6.0,35.75,71.46890625,-39.885,0.2088990625,238.65
2021-06-25 09:35:44.875000000,-54.0,6.0,36.0,71.4725,-44.91,0.208819,238.65
2021-06-25 09:35:44.882812500,-53.75,5.75,36.0,71.47609375,-48.394999999999996,0.2087389375,238.65
2021-06-25 09:35:44.890625000,-53.5,5.5,36.0,71.4796875,-51.88,0.208658875,238.65
2021-06-25 09:35:44.898437500,-53.25,5.25,36.0,71.48328125,-52.95,0.20857881250000002,238.65
2021-06-25 09:35:44.906250000,-53.0,5.0,36.0,71.486875,-54.02,0.20849875,238.65
2021-06-25 09:35:44.914062500,-53.25,4.75,36.25,71.49046875,-52.09,0.2084186875,238.65
2021-06-25 09:35:44.921875000,-53.5,4.5,36.5,71.4940625,-50.16,0.208338625,238.65
2021-06-25 09:35:44.929687500,-53.75,4.25,36.75,71.49765625,-45.105,0.2082585625,238.65
2021-06-25 09:35:44.937500000,-54.0,4.0,37.0,71.50125,-40.05,0.2081785,238.65
2021-06-25 09:35:44.945312500,-54.0,4.25,36.75,71.50484375,-32.305,0.2080984375,238.65
2021-06-25 09:35:44.953125000,-54.0,4.5,36.5,71.5084375,-24.56,0.208018375,238.65
2021-06-25 09:35:44.960937500,-54.0,4.75,36.25,71.51203125,-14.985,0.2079383125,238.65
2021-06-25 09:35:44.968750000,-54.0,5.0,36.0,71.515625,-5.41,0.20785825,238.65
2021-06-25 09:35:44.976562500,-53.75,5.25,36.25,71.51921875000001,4.914999999999999,0.2077781875,238.65
2021-06-25 09:35:44.984375000,-53.5,5.5,36.5,71.5228125,15.24,0.207698125,238.65
2021-06-25 09:35:44.992187500,-53.25,5.75,36.75,71.52640625000001,25.299999999999997,0.2076180625,238.65
2021-06-25 09:35:45.000000000,-53.0,6.0,37.0,71.53,35.36,0.207538,238.65
2021-06-25 09:35:45.007812500,-53.0,6.0,37.0,71.533515625,44.385,0.20765809375,238.65
2021-06-25 09:35:45.015625000,-53.0,6.0,37.0,71.53703125,53.41,0.2077781875,238.65
2021-06-25 09:35:45.023437500,-53.0,6.0,37.0,71.540546875,60.96,0.20789828125,238.65
2021-06-25 09:35:45.031250000,-53.0,6.0,37.0,71.5440625,68.51,0.208018375,238.65
2021-06-25 09:35:45.039062500,-53.0,6.0,37.0,71.547578125,74.45500000000001,0.20813846875,238.65
2021-06-25 09:35:45.046875000,-53.0,6.0,37.0,71.55109375,80.4,0.2082585625,238.65
2021-06-25 09:35:45.054687500,-53.0,6.0,37.0,71.554609375,84.78,0.20837865625000002,238.65
2021-06-25 09:35:45.062500000,-53.0,6.0,37.0,71.558125,89.16,0.20849875,238.65
2021-06-25 09:35:45.070312500,-52.75,5.75,37.0,71.561640625,92.115,0.20861884375,238.65
2021-06-25 09:35:45.078125000,-52.5,5.5,37.0,71.56515625,95.07,0.2087389375,238.65
2021-06-25 09:35:45.085937500,-52.25,5.25,37.0,71.568671875,96.75,0.20885903125,238.65
2021-06-25 09:35:45.093750000,-52.0,5.0,37.0,71.5721875,98.43,0.20897912500000002,238.65
2021-06-25 09:35:45.101562500,-52.5,5.25,36.75,71.575703125,99.005,0.20909921875,238.65
2021-06-25 09:35:45.109375000,-53.0,5.5,36.5,71.57921875,99.58,0.2092193125,238.65
2021-06-25 09:35:45.117187500,-53.5,5.75,36.25,71.582734375,99.28,0.20933940625,238.65
2021-06-25 09:35:45.125000000,-54.0,6.0,36.0,71.58625,98.98,0.20945950000000002,238.65
2021-06-25 09:35:45.132812500,-53.75,6.0,36.25,71.589765625,98.075,0.20957959375000002,238.65
2021-06-25 09:35:45.140625000,-53.5,6.0,36.5,71.59328125,97.17,0.2096996875,238.65
2021-06-25 09:35:45.148437500,-53.25,6.0,36.75,71.596796875,95.945,0.20981978125,238.65
2021-06-25 09:35:45.156250000,-53.0,6.0,37.0,71.6003125,94.72,0.209939875,238.65
2021-06-25 09:35:45.164062500,-52.75,5.75,37.25,71.603828125,93.37,0.21005996875000002,238.65
2021-06-25 09:35:45.171875000,-52.5,5.5,37.5,71.60734375,92.02,0.21018006250000001,238.65
2021-06-25 09:35:45.179687500,-52.25,5.25,37.75,71.610859375,90.555,0.21030015625,238.65
2021-06-25 09:35:45.187500000,-52.0,5.0,38.0,71.614375,89.09,0.21042025,238.65
2021-06-25 09:35:45.195312500,-52.0,5.0,38.0,71.617890625,87.26,0.21054034375,238.65
2021-06-25 09:35:45.203125000,-52.0,5.0,38.0,71.62140625,85.43,0.21066043750000002,238.65
2021-06-25 09:35:45.210937500,-52.0,5.0,38.0,71.624921875,82.82,0.21078053125000001,238.65
2021-06-25 09:35:45.218750000,-52.0,5.0,38.0,71.6284375,80.21,0.210900625,238.65
2021-06-25 09:35:45.226562500,-52.0,5.0,38.25,71.631953125,76.375,0.21102071875,238.65
2021-06-25 09:35:45.234375000,-52.0,5.0,38.5,71.63546875,72.54,0.21114081250000002,238.65
2021-06-25 09:35:45.242187500,-52.0,5.0,38.75,71.638984375,67.25,0.21126090625000002,238.65
2021-06-25 09:35:45.250000000,-52.0,5.0,39.0,71.6425,61.96,0.211381,238.65
2021-06-25 09:35:45.257812500,-51.75,5.0,39.25,71.646015625,55.305,0.211220875,238.65
2021-06-25 09:35:45.265625000,-51.5,5.0,39.5,71.64953125,48.65,0.21106075000000002,238.65
2021-06-25 09:35:45.273437500,-51.25,5.0,39.75,71.653046875,41.055,0.210900625,238.65
2021-06-25 09:35:45.281250000,-51.0,5.0,40.0,71.6565625,33.46,0.2107405,238.65
2021-06-25 09:35:45.289062500,-51.25,5.25,39.25,71.660078125,25.52,0.21058037500000001,238.65
2021-06-25 09:35:45.296875000,-51.5,5.5,38.5,71.66359375,17.58,0.21042025,238.65
2021-06-25 09:35:45.304687500,-51.75,5.75,37.75,71.667109375,9.834999999999999,0.21026012500000002,238.65
2021-06-25 09:35:45.312500000,-52.0,6.0,37.0,71.670625,2.09,0.2101,238.65
2021-06-25 09:35:45.320312500,-51.75,6.0,37.5,71.674140625,-5.135,0.209939875,238.65
2021-06-25 09:35:45.328125000,-51.5,6.0,38.0,71.67765625,-12.36,0.20977975000000001,238.65
2021-06-25 09:35:45.335937500,-51.25,6.0,38.5,71.681171875,-19.025,0.209619625,238.65
2021-06-25 09:35:45.343750000,-51.0,6.0,39.0,71.6846875,-25.69,0.20945950000000002,238.65
2021-06-25 09:35:45.351562500,-51.0,6.0,39.0,71.688203125,-31.89,0.209299375,238.65
2021-06-25 09:35:45.359375000,-51.0,6.0,39.0,71.69171875,-38.09,0.20913925,238.65
2021-06-25 09:35:45.367187500,-51.0,6.0,39.0,71.695234375,-43.93000000000001,0.20897912500000002,238.65
2021-06-25 09:35:45.375000000,-51.0,6.0,39.0,71.69875,-49.77,0.208819,238.65
2021-06-25 09:35:45.382812500,-51.25,6.0,39.0,71.702265625,-55.205,0.208658875,238.65
2021-06-25 09:35:45.390625000,-51.5,6.0,39.0,71.70578125,-60.64,0.20849875,238.65
2021-06-25 09:35:45.398437500,-51.75,6.0,39.0,71.709296875,-65.455,0.208338625,238.65
2021-06-25 09:35:45.406250000,-52.0,6.0,39.0,71.7128125,-70.27,0.2081785,238.65
2021-06-25 09:35:45.414062500,-52.0,5.75,39.0,71.716328125,-74.155,0.208018375,238.65
2021-06-25 09:35:45.421875000,-52.0,5.5,39.0,71.71984375,-78.04,0.20785825,238.65
2021-06-25 09:35:45.429687500,-52.0,5.25,39.0,71.723359375,-80.78,0.207698125,238.65
2021-06-25 09:35:45.437500000,-52.0,5.0,39.0,71.726875,-83.52,0.207538,238.65
2021-06-25 09:35:45.445312500,-52.25,5.0,38.75,71.730390625,-85.11,0.207377875,238.65
2021-06-25 09:35:45.453125000,-52.5,5.0,38.5,71.73390625,-86.7,0.20721775,238.65
2021-06-25 09:35:45.460937500,-52.75,5.0,38.25,71.737421875,-87.405,0.207057625,238.65
2021-06-25 09:35:45.468750000,-53.0,5.0,38.0,71.7409375,-88.11,0.2068975,238.65
2021-06-25 09:35:45.476562500,-53.5,5.25,37.75,71.744453125,-88.36500000000001,0.206737375,238.65
2021-06-25 09:35:45.484375000,-54.0,5.5,37.5,71.74796875,-88.62,0.20657725,238.65
2021-06-25 09:35:45.492187500,-54.5,5.75,37.25,71.751484375,-88.91499999999999,0.206417125,238.65
2021-06-25 09:35:45.500000000,-55.0,6.0,37.0,71.755,-89.21,0.206257,238.65
2021-06-25 09:35:45.507812500,-54.0,5.75,37.75,71.758515625,-89.96,0.2063370625,238.65
2021-06-25 09:35:45.515625000,-53.0,5.5,38.5,71.76203125,-90.71,0.206417125,238.65
2021-06-25 09:35:45.523437500,-52.0,5.25,39.25,71.765546875,-92.16499999999999,0.20649718749999998,238.65
2021-06-25 09:35:45.531250000,-51.0,5.0,40.0,71.7690625,-93.62,0.20657725,238.65
2021-06-25 09:35:45.539062500,-51.25,5.0,39.75,71.77257812500001,-95.855,0.2066573125,238.65
2021-06-25 09:35:45.546875000,-51.5,5.0,39.5,71.77609375,-98.09,0.206737375,238.65
2021-06-25 09:35:45.554687500,-51.75,5.0,39.25,71.779609375,-100.985,0.2068174375,238.65
2021-06-25 09:35:45.562500000,-52.0,5.0,39.0,71.783125,-103.88,0.2068975,238.65
2021-06-25 09:35:45.570312500,-51.75,5.25,39.25,71.786640625,-107.08500000000001,0.2069775625,238.65
2021-06-25 09:35:45.578125000,-51.5,5.5,39.5,71.79015625000001,-110.29,0.207057625,238.65
2021-06-25 09:35:45.585937500,-51.25,5.75,39.75,71.793671875,-113.215,0.2071376875,238.65
2021-06-25 09:35:45.593750000,-51.0,6.0,40.0,71.7971875,-116.14,0.20721775,238.65
2021-06-25 09:35:45.601562500,-51.25,5.75,39.75,71.800703125,-118.0,0.2072978125,238.65
2021-06-25 09:35:45.609375000,-51.5,5.5,39.5,71.80421875,-119.86,0.207377875,238.65
2021-06-25 09:35:45.617187500,-51.75,5.25,39.25,71.80773437500001,-119.78999999999999,0.2074579375,238.65
2021-06-25 09:35:45.625000000,-52.0,5.0,39.0,71.81125,-119.72,0.207538,238.65
2021-06-25 09:35:45.632812500,-51.75,5.25,39.0,71.814765625,-117.00999999999999,0.2076180625,238.65
2021-06-25 09:35:45.640625000,-51.5,5.5,39.0,71.81828125,-114.3,0.207698125,238.65
2021-06-25 09:35:45.648437500,-51.25,5.75,39.0,71.821796875,-108.68,0.2077781875,238.65
2021-06-25 09:35:45.656250000,-51.0,6.0,39.0,71.82531250000001,-103.06,0.20785825,238.65
2021-06-25 09:35:45.664062500,-51.25,6.0,39.0,71.828828125,-94.82,0.2079383125,238.65
2021-06-25 09:35:45.671875000,-51.5,6.0,39.0,71.83234375,-86.58,0.208018375,238.65
2021-06-25 09:35:45.679687500,-51.75,6.0,39.0,71.835859375,-76.56,0.2080984375,238.65
2021-06-25 09:35:45.687500000,-52.0,6.0,39.0,71.839375,-66.54,0.2081785,238.65
2021-06-25 09:35:45.695312500,-52.0,6.0,39.0,71.84289062500001,-55.89,0.2082585625,238.65
2021-06-25 09:35:45.703125000,-52.0,6.0,39.0,71.84640625,-45.24,0.208338625,238.65
2021-06-25 09:35:45.710937500,-52.0,6.0,39.0,71.849921875,-35.095,0.2084186875,238.65
2021-06-25 09:35:45.718750000,-52.0,6.0,39.0,71.8534375,-24.95,0.20849875,238.65
2021-06-25 09:35:45.726562500,-51.75,6.0,39.0,71.856953125,-16.134999999999998,0.20857881250000002,238.65
2021-06-25 09:35:45.734375000,-51.5,6.0,39.0,71.86046875000001,-7.32,0.208658875,238.65
2021-06-25 09:35:45.742187500,-51.25,6.0,39.0,71.863984375,-0.21499999999999986,0.2087389375,238.65
2021-06-25 09:35:45.750000000,-51.0,6.0,39.0,71.8675,6.89,0.208819,238.65
2021-06-25 09:35:45.757812500,-51.25,6.25,38.75,71.871015625,12.34,0.2087389375,238.65
2021-06-25 09:35:45.765625000,-51.5,6.5,38.5,71.87453125,17.79,0.208658875,238.65
2021-06-25 09:35:45.773437500,-51.75,6.75,38.25,71.87804687500001,21.884999999999998,0.20857881250000002,238.65
2021-06-25 09:35:45.781250000,-52.0,7.0,38.0,71.8815625,25.98,0.20849875,238.65
2021-06-25 09:35:45.789062500,-51.25,6.75,38.5,71.885078125,29.085,0.2084186875,238.65
2021-06-25 09:35:45.796875000,-50.5,6.5,39.0,71.88859375,32.19,0.208338625,238.65
2021-06-25 09:35:45.804687500,-49.75,6.25,39.5,71.892109375,34.55,0.2082585625,238.65
2021-06-25 09:35:45.812500000,-49.0,6.0,40.0,71.89562500000001,36.91,0.2081785,238.65
2021-06-25 09:35:45.820312500,-49.75,6.25,39.75,71.899140625,38.605,0.2080984375,238.65
2021-06-25 09:35:45.828125000,-50.5,6.5,39.5,71.90265625,40.3,0.208018375,238.65
2021-06-25 09:35:45.835937500,-51.25,6.75,39.25,71.906171875,41.285,0.2079383125,238.65
2021-06-25 09:35:45.843750000,-52.0,7.0,39.0,71.9096875,42.27,0.20785825,238.65
2021-06-25 09:35:45.851562500,-51.75,7.0,39.25,71.91320312500001,42.515,0.2077781875,238.65
2021-06-25 09:35:45.859375000,-51.5,7.0,39.5,71.91671875,42.76,0.207698125,238.65
2021-06-25 09:35:45.867187500,-51.25,7.0,39.75,71.920234375,42.334999999999994,0.2076180625,238.65
2021-06-25 09:35:45.875000000,-51.0,7.0,40.0,71.92375,41.91,0.207538,238.65
2021-06-25 09:35:45.882812500,-51.0,6.75,39.75,71.927265625,41.019999999999996,0.2074579375,238.65
2021-06-25 09:35:45.890625000,-51.0,6.5,39.5,71.93078125000001,40.13,0.207377875,238.65
2021-06-25 09:35:45.898437500,-51.0,6.25,39.25,71.934296875,39.035,0.2072978125,238.65
2021-06-25 09:35:45.906250000,-51.0,6.0,39.0,71.9378125,37.94,0.20721775,238.65
2021-06-25 09:35:45.914062500,-51.25,6.0,38.75,71.941328125,36.885,0.2071376875,238.65
2021-06-25 09:35:45.921875000,-51.5,6.0,38.5,71.94484375,35.83,0.207057625,238.65
2021-06-25 09:35:45.929687500,-51.75,6.0,38.25,71.94835937500001,34.91,0.2069775625,238.65
2021-06-25 09:35:45.937500000,-52.0,6.0,38.0,71.951875,33.99,0.2068975,238.65
2021-06-25 09:35:45.945312500,-52.0,6.0,38.0,71.955390625,33.175,0.2068174375,238.65
2021-06-25 09:35:45.953125000,-52.0,6.0,38.0,71.95890625,32.36,0.206737375,238.65
2021-06-25 09:35:45.960937500,-52.0,6.0,38.0,71.962421875,31.605,0.2066573125,238.65
2021-06-25 09:35:45.968750000,-52.0,6.0,38.0,71.96593750000001,30.85,0.20657725,238.65
2021-06-25 09:35:45.976562500,-52.25,6.0,38.25,71.969453125,30.125,0.20649718749999998,238.65
2021-06-25 09:35:45.984375000,-52.5,6.0,38.5,71.97296875,29.4,0.206417125,238.65
2021-06-25 09:35:45.992187500,-52.75,6.0,38.75,71.976484375,28.78,0.2063370625,238.65
2021-06-25 09:35:46.000000000,-53.0,6.0,39.0,71.98,28.16,0.206257,238.65
2021-06-25 09:35:46.007812500,-52.75,6.25,38.75,71.98351562500001,27.705,0.20637709375,238.65
2021-06-25 09:35:46.015625000,-52.5,6.5,38.5,71.98703125,27.25,0.20649718749999998,238.65
2021-06-25 09:35:46.023437500,-52.25,6.75,38.25,71.990546875,26.880000000000003,0.20661728125,238.65
2021-06-25 09:35:46.031250000,-52.0,7.0,38.0,71.9940625,26.51,0.206737375,238.65
2021-06-25 09:35:46.039062500,-52.5,6.75,38.0,71.997578125,25.925,0.20685746875,238.65
2021-06-25 09:35:46.046875000,-53.0,6.5,38.0,72.00109375000001,25.34,0.2069775625,238.65
2021-06-25 09:35:46.054687500,-53.5,6.25,38.0,72.004609375,24.07,0.20709765625,238.65
2021-06-25 09:35:46.062500000,-54.0,6.0,38.0,72.008125,22.8,0.20721775,238.65
2021-06-25 09:35:46.070312500,-53.5,6.25,38.0,72.011640625,20.450000000000003,0.20733784375,238.65
2021-06-25 09:35:46.078125000,-53.0,6.5,38.0,72.01515625,18.1,0.2074579375,238.65
2021-06-25 09:35:46.085937500,-52.5,6.75,38.0,72.01867187500001,14.565000000000001,0.20757803125,238.65
2021-06-25 09:35:46.093750000,-52.0,7.0,38.0,72.0221875,11.03,0.207698125,238.65
2021-06-25 09:35:46.101562500,-52.25,7.0,37.75,72.025703125,6.619999999999999,0.20781821875,238.65
2021-06-25 09:35:46.109375000,-52.5,7.0,37.5,72.02921875,2.21,0.2079383125,238.65
2021-06-25 09:35:46.117187500,-52.75,7.0,37.25,72.032734375,-2.4400000000000004,0.20805840625,238.65
2021-06-25 09:35:46.125000000,-53.0,7.0,37.0,72.03625000000001,-7.09,0.2081785,238.65
2021-06-25 09:35:46.132812500,-53.0,6.75,37.25,72.039765625,-11.265,0.20829859375,238.65
2021-06-25 09:35:46.140625000,-53.0,6.5,37.5,72.04328125,-15.44,0.2084186875,238.65
2021-06-25 09:35:46.148437500,-53.0,6.25,37.75,72.046796875,-18.669999999999998,0.20853878125,238.65
2021-06-25 09:35:46.156250000,-53.0,6.0,38.0,72.0503125,-21.9,0.208658875,238.65
2021-06-25 09:35:46.164062500,-53.0,6.0,38.0,72.05382812500001,-24.095,0.20877896875000002,238.65
2021-06-25 09:35:46.171875000,-53.0,6.0,38.0,72.05734375,-26.29,0.2088990625,238.65
2021-06-25 09:35:46.179687500,-53.0,6.0,38.0,72.060859375,-27.755,0.20901915625,238.65
2021-06-25 09:35:46.187500000,-53.0,6.0,38.0,72.064375,-29.22,0.20913925,238.65
2021-06-25 09:35:46.195312500,-53.0,6.75,38.25,72.067890625,-30.485,0.20925934375,238.65
2021-06-25 09:35:46.203125000,-53.0,7.5,38.5,72.07140625000001,-31.75,0.20937943750000002,238.65
2021-06-25 09:35:46.210937500,-53.0,8.25,38.75,72.074921875,-33.31,0.20949953125,238.65
2021-06-25 09:35:46.218750000,-53.0,9.0,39.0,72.0784375,-34.87,0.209619625,238.65
2021-06-25 09:35:46.226562500,-52.5,6.25,40.0,72.081953125,-37.084999999999994,0.20973971875,238.65
2021-06-25 09:35:46.234375000,-52.0,3.5,41.0,72.08546875,-39.3,0.20985981250000002,238.65
2021-06-25 09:35:46.242187500,-51.5,0.75,42.0,72.08898437500001,-42.245,0.20997990625000001,238.65
2021-06-25 09:35:46.250000000,-51.0,-2.0,43.0,72.0925,-45.19,0.2101,238.65
2021-06-25 09:35:46.257812500,-51.5,0.5,41.5,72.096015625,-48.7,0.20997990625000001,238.65
2021-06-25 09:35:46.265625000,-52.0,3.0,40.0,72.09953125,-52.21,0.20985981250000002,238.65
2021-06-25 09:35:46.273437500,-52.5,5.5,38.5,72.103046875,-55.85,0.20973971875,238.65
2021-06-25 09:35:46.281250000,-53.0,8.0,37.0,72.10656250000001,-59.49,0.209619625,238.65
2021-06-25 09:35:46.289062500,-52.5,7.75,37.0,72.110078125,-62.605000000000004,0.20949953125,238.65
2021-06-25 09:35:46.296875000,-52.0,7.5,37.0,72.11359375,-65.72,0.20937943750000002,238.65
2021-06-25 09:35:46.304687500,-51.5,7.25,37.0,72.117109375,-67.485,0.20925934375,238.65
2021-06-25 09:35:46.312500000,-51.0,7.0,37.0,72.120625,-69.25,0.20913925,238.65
2021-06-25 09:35:46.320312500,-51.5,6.5,36.75,72.12414062500001,-68.88,0.20901915625,238.65
2021-06-25 09:35:46.328125000,-52.0,6.0,36.5,72.12765625,-68.51,0.2088990625,238.65
2021-06-25 09:35:46.335937500,-52.5,5.5,36.25,72.131171875,-65.44500000000001,0.20877896875000002,238.65
2021-06-25 09:35:46.343750000,-53.0,5.0,36.0,72.1346875,-62.38,0.208658875,238.65
2021-06-25 09:35:46.351562500,-53.0,5.25,36.25,72.138203125,-56.535,0.20853878125,238.65
2021-06-25 09:35:46.359375000,-53.0,5.5,36.5,72.14171875000001,-50.69,0.2084186875,238.65
2021-06-25 09:35:46.367187500,-53.0,5.75,36.75,72.145234375,-42.525,0.20829859375,238.65
2021-06-25 09:35:46.375000000,-53.0,6.0,37.0,72.14875,-34.36,0.2081785,238.65
2021-06-25 09:35:46.382812500,-53.0,6.0,37.0,72.152265625,-24.765,0.20805840625,238.65
2021-06-25 09:35:46.390625000,-53.0,6.0,37.0,72.15578125,-15.17,0.2079383125,238.65
2021-06-25 09:35:46.398437500,-53.0,6.0,37.0,72.15929687500001,-5.215,0.20781821875,238.65
2021-06-25 09:35:46.406250000,-53.0,6.0,37.0,72.1628125,4.74,0.207698125,238.65
2021-06-25 09:35:46.414062500,-53.25,6.0,37.25,72.166328125,14.104999999999999,0.20757803125,238.65
2021-06-25 09:35:46.421875000,-53.5,6.0,37.5,72.16984375,23.47,0.2074579375,238.65
2021-06-25 09:35:46.429687500,-53.75,6.0,37.75,72.173359375,31.625,0.20733784375,238.65
2021-06-25 09:35:46.437500000,-54.0,6.0,38.0,72.17687500000001,39.78,0.20721775,238.65
2021-06-25 09:35:46.445312500,-53.5,5.75,37.75,72.180390625,46.465,0.20709765625,238.65
2021-06-25 09:35:46.453125000,-53.0,5.5,37.5,72.18390625,53.15,0.2069775625,238.65
2021-06-25 09:35:46.460937500,-52.5,5.25,37.25,72.187421875,58.33,0.20685746875,238.65
2021-06-25 09:35:46.468750000,-52.0,5.0,37.0,72.1909375,63.51,0.206737375,238.65
2021-06-25 09:35:46.476562500,-52.5,5.25,37.0,72.19445312500001,67.275,0.20661728125,238.65
2021-06-25 09:35:46.484375000,-53.0,5.5,37.0,72.19796875,71.04,0.20649718749999998,238.65
2021-06-25 09:35:46.492187500,-53.5,5.75,37.0,72.201484375,73.415,0.20637709375,238.65
2021-06-25 09:35:46.500000000,-54.0,6.0,37.0,72.20500000000001,75.79,0.206257,238.65
2021-06-25 09:35:46.507812500,-53.5,6.5,37.0,72.208515625,76.745,0.206257,238.65
2021-06-25 09:35:46.515625000,-53.0,7.0,37.0,72.21203125000001,77.7,0.206257,238.65
2021-06-25 09:35:46.523437500,-52.5,7.5,37.0,72.215546875,77.255,0.206257,238.65
2021-06-25 09:35:46.531250000,-52.0,8.0,37.0,72.2190625,76.81,0.206257,238.65
2021-06-25 09:35:46.539062500,-52.5,7.5,37.0,72.22257812500001,75.075,0.206257,238.65
2021-06-25 09:35:46.546875000,-53.0,7.0,37.0,72.22609375,73.34,0.206257,238.65
2021-06-25 09:35:46.554687500,-53.5,6.5,37.0,72.22960937500001,70.595,0.206257,238.65
2021-06-25 09:35:46.562500000,-54.0,6.0,37.0,72.233125,67.85,0.206257,238.65
2021-06-25 09:35:46.570312500,-53.5,6.0,37.0,72.236640625,64.47999999999999,0.206257,238.65
2021-06-25 09:35:46.578125000,-53.0,6.0,37.0,72.24015625000001,61.11,0.206257,238.65
2021-06-25 09:35:46.585937500,-52.5,6.0,37.0,72.243671875,57.480000000000004,0.206257,238.65
2021-06-25 09:35:46.593750000,-52.0,6.0,37.0,72.24718750000001,53.85,0.206257,238.65
2021-06-25 09:35:46.601562500,-52.25,5.75,37.5,72.250703125,50.205,0.206257,238.65
2021-06-25 09:35:46.609375000,-52.5,5.5,38.0,72.25421875,46.56,0.206257,238.65
2021-06-25 09:35:46.617187500,-52.75,5.25,38.5,72.25773437500001,42.965,0.206257,238.65
2021-06-25 09:35:46.625000000,-53.0,5.0,39.0,72.26125,39.37,0.206257,238.65
2021-06-25 09:35:46.632812500,-52.75,5.0,39.0,72.26476562500001,35.78,0.206257,238.65
2021-06-25 09:35:46.640625000,-52.5,5.0,39.0,72.26828125,32.19,0.206257,238.65
2021-06-25 09:35:46.648437500,-52.25,5.0,39.0,72.271796875,28.53,0.206257,238.65
2021-06-25 09:35:46.656250000,-52.0,5.0,39.0,72.27531250000001,24.87,0.206257,238.65
2021-06-25 09:35:46.664062500,-51.75,5.0,39.25,72.278828125,21.14,0.206257,238.65
2021-06-25 09:35:46.671875000,-51.5,5.0,39.5,72.28234375000001,17.41,0.206257,238.65
2021-06-25 09:35:46.679687500,-51.25,5.0,39.75,72.285859375,13.68,0.206257,238.65
2021-06-25 09:35:46.687500000,-51.0,5.0,40.0,72.289375,9.95,0.206257,238.65
2021-06-25 09:35:46.695312500,-51.0,5.0,40.25,72.29289062500001,6.33,0.206257,238.65
2021-06-25 09:35:46.703125000,-51.0,5.0,40.5,72.29640625,2.71,0.206257,238.65
2021-06-25 09:35:46.710937500,-51.0,5.0,40.75,72.29992187500001,-0.7349999999999999,0.206257,238.65
2021-06-25 09:35:46.718750000,-51.0,5.0,41.0,72.3034375,-4.18,0.206257,238.65
2021-06-25 09:35:46.726562500,-51.0,5.0,40.75,72.306953125,-7.505,0.206257,238.65
2021-06-25 09:35:46.734375000,-51.0,5.0,40.5,72.31046875000001,-10.83,0.206257,238.65
2021-06-25 09:35:46.742187500,-51.0,5.0,40.25,72.313984375,-14.190000000000001,0.206257,238.65
2021-06-25 09:35:46.750000000,-51.0,5.0,40.0,72.31750000000001,-17.55,0.206257,238.65
2021-06-25 09:35:46.757812500,-50.25,4.75,40.5,72.321015625,-21.115000000000002,0.20637709375,238.65
2021-06-25 09:35:46.765625000,-49.5,4.5,41.0,72.32453125,-24.68,0.20649718749999998,238.65
2021-06-25 09:35:46.773437500,-48.75,4.25,41.5,72.32804687500001,-28.52,0.20661728125,238.65
2021-06-25 09:35:46.781250000,-48.0,4.0,42.0,72.3315625,-32.36,0.206737375,238.65
2021-06-25 09:35:46.789062500,-48.25,4.0,42.25,72.33507812500001,-36.43,0.20685746875,238.65
2021-06-25 09:35:46.796875000,-48.5,4.0,42.5,72.33859375,-40.5,0.2069775625,238.65
2021-06-25 09:35:46.804687500,-48.75,4.0,42.75,72.342109375,-44.565,0.20709765625,238.65
2021-06-25 09:35:46.812500000,-49.0,4.0,43.0,72.34562500000001,-48.63,0.20721775,238.65
2021-06-25 09:35:46.820312500,-49.25,4.0,42.5,72.349140625,-52.375,0.20733784375,238.65
2021-06-25 09:35:46.828125000,-49.5,4.0,42.0,72.35265625000001,-56.12,0.2074579375,238.65
2021-06-25 09:35:46.835937500,-49.75,4.0,41.5,72.356171875,-59.205,0.20757803125,238.65
2021-06-25 09:35:46.843750000,-50.0,4.0,41.0,72.3596875,-62.29,0.207698125,238.65
2021-06-25 09:35:46.851562500,-50.25,4.0,40.75,72.36320312500001,-64.52,0.20781821875,238.65
2021-06-25 09:35:46.859375000,-50.5,4.0,40.5,72.36671875,-66.75,0.2079383125,238.65
2021-06-25 09:35:46.867187500,-50.75,4.0,40.25,72.37023437500001,-68.125,0.20805840625,238.65
2021-06-25 09:35:46.875000000,-51.0,4.0,40.0,72.37375,-69.5,0.2081785,238.65
2021-06-25 09:35:46.882812500,-51.25,4.0,40.0,72.377265625,-70.27000000000001,0.20829859375,238.65
2021-06-25 09:35:46.890625000,-51.5,4.0,40.0,72.38078125000001,-71.04,0.2084186875,238.65
2021-06-25 09:35:46.898437500,-51.75,4.0,40.0,72.384296875,-71.65,0.20853878125,238.65
2021-06-25 09:35:46.906250000,-52.0,4.0,40.0,72.38781250000001,-72.26,0.208658875,238.65
2021-06-25 09:35:46.914062500,-51.75,4.0,40.0,72.391328125,-73.235,0.20877896875000002,238.65
2021-06-25 09:35:46.921875000,-51.5,4.0,40.0,72.39484375,-74.21,0.2088990625,238.65
2021-06-25 09:35:46.929687500,-51.25,4.0,40.0,72.39835937500001,-75.975,0.20901915625,238.65
2021-06-25 09:35:46.937500000,-51.0,4.0,40.0,72.401875,-77.74,0.20913925,238.65
2021-06-25 09:35:46.945312500,-51.25,4.5,39.75,72.40539062500001,-80.46000000000001,0.20925934375,238.65
2021-06-25 09:35:46.953125000,-51.5,5.0,39.5,72.40890625,-83.18,0.20937943750000002,238.65
2021-06-25 09:35:46.960937500,-51.75,5.5,39.25,72.412421875,-86.635,0.20949953125,238.65
2021-06-25 09:35:46.968750000,-52.0,6.0,39.0,72.41593750000001,-90.09,0.209619625,238.65
2021-06-25 09:35:46.976562500,-51.75,5.75,39.25,72.419453125,-93.64,0.20973971875,238.65
2021-06-25 09:35:46.984375000,-51.5,5.5,39.5,72.42296875000001,-97.19,0.20985981250000002,238.65
2021-06-25 09:35:46.992187500,-51.25,5.25,39.75,72.426484375,-99.925,0.20997990625000001,238.65
2021-06-25 09:35:47.000000000,-51.0,5.0,40.0,72.43,-102.66,0.2101,238.65
2021-06-25 09:35:47.007812500,-51.25,5.0,39.75,72.433671875,-103.64,0.2100199375,238.65
2021-06-25 09:35:47.015625000,-51.5,5.0,39.5,72.43734375000001,-104.62,0.209939875,238.65
2021-06-25 09:35:47.023437500,-51.75,5.0,39.25,72.441015625,-103.195,0.20985981250000002,238.65
2021-06-25 09:35:47.031250000,-52.0,5.0,39.0,72.4446875,-101.77,0.20977975000000001,238.65
2021-06-25 09:35:47.039062500,-52.0,5.0,39.0,72.44835937500001,-97.77,0.2096996875,238.65
2021-06-25 09:35:47.046875000,-52.0,5.0,39.0,72.45203125,-93.77,0.209619625,238.65
2021-06-25 09:35:47.054687500,-52.0,5.0,39.0,72.45570312500001,-87.6,0.2095395625,238.65
2021-06-25 09:35:47.062500000,-52.0,5.0,39.0,72.45937500000001,-81.43,0.20945950000000002,238.65
2021-06-25 09:35:47.070312500,-52.25,5.0,39.0,72.463046875,-73.93,0.20937943750000002,238.65
2021-06-25 09:35:47.078125000,-52.5,5.0,39.0,72.46671875000001,-66.43,0.209299375,238.65
2021-06-25 09:35:47.085937500,-52.75,5.0,39.0,72.47039062500001,-58.57000000000001,0.2092193125,238.65
2021-06-25 09:35:47.093750000,-53.0,5.0,39.0,72.4740625,-50.71,0.20913925,238.65
2021-06-25 09:35:47.101562500,-52.5,5.25,39.0,72.47773437500001,-43.315,0.2090591875,238.65
2021-06-25 09:35:47.109375000,-52.0,5.5,39.0,72.48140625,-35.92,0.20897912500000002,238.65
2021-06-25 09:35:47.117187500,-51.5,5.75,39.0,72.485078125,-29.450000000000003,0.2088990625,238.65
2021-06-25 09:35:47.125000000,-51.0,6.0,39.0,72.48875000000001,-22.98,0.208819,238.65
2021-06-25 09:35:47.132812500,-50.75,6.0,39.0,72.492421875,-17.54,0.2087389375,238.65
2021-06-25 09:35:47.140625000,-50.5,6.0,39.0,72.49609375,-12.1,0.208658875,238.65
2021-06-25 09:35:47.148437500,-50.25,6.0,39.0,72.49976562500001,-7.55,0.20857881250000002,238.65
2021-06-25 09:35:47.156250000,-50.0,6.0,39.0,72.5034375,-3.0,0.20849875,238.65
2021-06-25 09:35:47.164062500,-49.5,6.0,39.75,72.50710937500001,0.8500000000000001,0.2084186875,238.65
2021-06-25 09:35:47.171875000,-49.0,6.0,40.5,72.51078125000001,4.7,0.208338625,238.65
2021-06-25 09:35:47.179687500,-48.5,6.0,41.25,72.514453125,7.949999999999999,0.2082585625,238.65
2021-06-25 09:35:47.187500000,-48.0,6.0,42.0,72.51812500000001,11.2,0.2081785,238.65
2021-06-25 09:35:47.195312500,-48.25,6.0,41.75,72.521796875,13.825,0.2080984375,238.65
2021-06-25 09:35:47.203125000,-48.5,6.0,41.5,72.52546875,16.45,0.208018375,238.65
2021-06-25 09:35:47.210937500,-48.75,6.0,41.25,72.52914062500001,18.375,0.2079383125,238.65
2021-06-25 09:35:47.218750000,-49.0,6.0,41.0,72.5328125,20.3,0.20785825,238.65
2021-06-25 09:35:47.226562500,-49.5,6.0,40.75,72.536484375,21.53,0.2077781875,238.65
2021-06-25 09:35:47.234375000,-50.0,6.0,40.5,72.54015625000001,22.76,0.207698125,238.65
2021-06-25 09:35:47.242187500,-50.5,6.0,40.25,72.543828125,23.395000000000003,0.2076180625,238.65
2021-06-25 09:35:47.250000000,-51.0,6.0,40.0,72.54750000000001,24.03,0.207538,238.65
2021-06-25 09:35:47.257812500,-51.0,6.0,40.0,72.55117187500001,24.305,0.20757803125,238.65
2021-06-25 09:35:47.265625000,-51.0,6.0,40.0,72.55484375,24.58,0.2076180625,238.65
2021-06-25 09:35:47.273437500,-51.0,6.0,40.0,72.55851562500001,24.735,0.20765809375,238.65
2021-06-25 09:35:47.281250000,-51.0,6.0,40.0,72.56218750000001,24.89,0.207698125,238.65
2021-06-25 09:35:47.289062500,-51.25,6.0,39.75,72.565859375,25.105,0.20773815625,238.65
2021-06-25 09:35:47.296875000,-51.5,6.0,39.5,72.56953125000001,25.32,0.2077781875,238.65
2021-06-25 09:35:47.304687500,-51.75,6.0,39.25,72.573203125,25.64,0.20781821875,238.65
2021-06-25 09:35:47.312500000,-52.0,6.0,39.0,72.576875,25.96,0.20785825,238.65
2021-06-25 09:35:47.320312500,-51.75,5.75,39.25,72.58054687500001,26.295,0.20789828125,238.65
2021-06-25 09:35:47.328125000,-51.5,5.5,39.5,72.58421875,26.63,0.2079383125,238.65
2021-06-25 09:35:47.335937500,-51.25,5.25,39.75,72.587890625,26.854999999999997,0.20797834375,238.65
2021-06-25 09:35:47.343750000,-51.0,5.0,40.0,72.59156250000001,27.08,0.208018375,238.65
2021-06-25 09:35:47.351562500,-51.0,5.0,40.0,72.595234375,27.075,0.20805840625,238.65
2021-06-25 09:35:47.359375000,-51.0,5.0,40.0,72.59890625000001,27.07,0.2080984375,238.65
2021-06-25 09:35:47.367187500,-51.0,5.0,40.0,72.60257812500001,26.8,0.20813846875,238.65
2021-06-25 09:35:47.375000000,-51.0,5.0,40.0,72.60625,26.53,0.2081785,238.65
2021-06-25 09:35:47.382812500,-51.25,5.25,39.75,72.60992187500001,26.03,0.20821853125,238.65
2021-06-25 09:35:47.390625000,-51.5,5.5,39.5,72.61359375,25.53,0.2082585625,238.65
2021-06-25 09:35:47.398437500,-51.75,5.75,39.25,72.617265625,24.915,0.20829859375,238.65
2021-06-25 09:35:47.406250000,-52.0,6.0,39.0,72.62093750000001,24.3,0.208338625,238.65
2021-06-25 09:35:47.414062500,-52.0,5.75,39.0,72.624609375,23.65,0.20837865625000002,238.65
2021-06-25 09:35:47.421875000,-52.0,5.5,39.0,72.62828125,23.0,0.2084186875,238.65
2021-06-25 09:35:47.429687500,-52.0,5.25,39.0,72.63195312500001,22.36,0.20845871875,238.65
2021-06-25 09:35:47.437500000,-52.0,5.0,39.0,72.635625,21.72,0.20849875,238.65
2021-06-25 09:35:47.445312500,-51.75,5.0,39.0,72.639296875,21.064999999999998,0.20853878125,238.65
2021-06-25 09:35:47.453125000,-51.5,5.0,39.0,72.64296875000001,20.41,0.20857881250000002,238.65
2021-06-25 09:35:47.460937500,-51.25,5.0,39.0,72.646640625,19.65,0.20861884375,238.65
2021-06-25 09:35:47.468750000,-51.0,5.0,39.0,72.65031250000001,18.89,0.208658875,238.65
2021-06-25 09:35:47.476562500,-51.25,5.0,39.0,72.65398437500001,17.93,0.20869890625,238.65
2021-06-25 09:35:47.484375000,-51.5,5.0,39.0,72.65765625,16.97,0.2087389375,238.65
2021-06-25 09:35:47.492187500,-51.75,5.0,39.0,72.66132812500001,15.715,0.20877896875000002,238.65
2021-06-25 09:35:47.500000000,-52.0,5.0,39.0,72.665,14.46,0.208819,238.65
2021-06-25 09:35:47.507812500,-51.75,5.0,39.25,72.668671875,12.905000000000001,0.20877896875000002,238.65
2021-06-25 09:35:47.515625000,-51.5,5.0,39.5,72.67234375000001,11.35,0.2087389375,238.65
2021-06-25 09:35:47.523437500,-51.25,5.0,39.75,72.676015625,9.575,0.20869890625,238.65
2021-06-25 09:35:47.531250000,-51.0,5.0,40.0,72.6796875,7.8,0.208658875,238.65
2021-06-25 09:35:47.539062500,-51.0,5.0,40.0,72.68335937500001,5.9350000000000005,0.20861884375,238.65
2021-06-25 09:35:47.546875000,-51.0,5.0,40.0,72.68703125,4.07,0.20857881250000002,238.65
2021-06-25 09:35:47.554687500,-51.0,5.0,40.0,72.69070312500001,2.245,0.20853878125,238.65
2021-06-25 09:35:47.562500000,-51.0,5.0,40.0,72.69437500000001,0.42,0.20849875,238.65
2021-06-25 09:35:47.570312500,-51.0,5.0,40.0,72.698046875,-1.32,0.20845871875,238.65
2021-06-25 09:35:47.578125000,-51.0,5.0,40.0,72.70171875000001,-3.06,0.2084186875,238.65
2021-06-25 09:35:47.585937500,-51.0,5.0,40.0,72.705390625,-4.855,0.20837865625000002,238.65
2021-06-25 09:35:47.593750000,-51.0,5.0,40.0,72.7090625,-6.65,0.208338625,238.65
2021-06-25 09:35:47.601562500,-51.25,5.0,39.75,72.71273437500001,-8.805,0.20829859375,238.65
2021-06-25 09:35:47.609375000,-51.5,5.0,39.5,72.71640625,-10.96,0.2082585625,238.65
2021-06-25 09:35:47.617187500,-51.75,5.0,39.25,72.720078125,-13.835,0.20821853125,238.65
2021-06-25 09:35:47.625000000,-52.0,5.0,39.0,72.72375000000001,-16.71,0.2081785,238.65
2021-06-25 09:35:47.632812500,-52.0,5.0,39.0,72.727421875,-20.575000000000003,0.20813846875,238.65
2021-06-25 09:35:47.640625000,-52.0,5.0,39.0,72.73109375,-24.44,0.2080984375,238.65
2021-06-25 09:35:47.648437500,-52.0,5.0,39.0,72.73476562500001,-29.22,0.20805840625,238.65
2021-06-25 09:35:47.656250000,-52.0,5.0,39.0,72.7384375,-34.0,0.208018375,238.65
2021-06-25 09:35:47.664062500,-52.0,5.0,39.0,72.74210937500001,-39.17,0.20797834375,238.65
2021-06-25 09:35:47.671875000,-52.0,5.0,39.0,72.74578125000001,-44.34,0.2079383125,238.65
2021-06-25 09:35:47.679687500,-52.0,5.0,39.0,72.749453125,-48.905,0.20789828125,238.65
2021-06-25 09:35:47.687500000,-52.0,5.0,39.0,72.75312500000001,-53.47,0.20785825,238.65
2021-06-25 09:35:47.695312500,-52.0,5.0,39.25,72.756796875,-56.224999999999994,0.20781821875,238.65
2021-06-25 09:35:47.703125000,-52.0,5.0,39.5,72.76046875,-58.98,0.2077781875,238.65
2021-06-25 09:35:47.710937500,-52.0,5.0,39.75,72.76414062500001,-58.849999999999994,0.20773815625,238.65
2021-06-25 09:35:47.718750000,-52.0,5.0,40.0,72.7678125,-58.72,0.207698125,238.65
2021-06-25 09:35:47.726562500,-52.0,5.0,39.75,72.771484375,-55.129999999999995,0.20765809375,238.65
2021-06-25 09:35:47.734375000,-52.0,5.0,39.5,72.77515625000001,-51.54,0.2076180625,238.65
2021-06-25 09:35:47.742187500,-52.0,5.0,39.25,72.778828125,-44.644999999999996,0.20757803125,238.65
2021-06-25 09:35:47.750000000,-52.0,5.0,39.0,72.7825,-37.75,0.207538,238.65
2021-06-25 09:35:47.757812500,-52.0,5.0,39.0,72.78617187500001,-28.425,0.20765809375,238.65
2021-06-25 09:35:47.765625000,-52.0,5.0,39.0,72.78984375,-19.1,0.2077781875,238.65
2021-06-25 09:35:47.773437500,-52.0,5.0,39.0,72.79351562500001,-8.615,0.20789828125,238.65
2021-06-25 09:35:47.781250000,-52.0,5.0,39.0,72.7971875,1.87,0.208018375,238.65
2021-06-25 09:35:47.789062500,-51.75,5.0,39.0,72.800859375,12.2,0.20813846875,238.65
2021-06-25 09:35:47.796875000,-51.5,5.0,39.0,72.80453125000001,22.53,0.2082585625,238.65
2021-06-25 09:35:47.804687500,-51.25,5.0,39.0,72.808203125,31.735,0.20837865625000002,238.65
2021-06-25 09:35:47.812500000,-51.0,5.0,39.0,72.811875,40.94,0.20849875,238.65
2021-06-25 09:35:47.820312500,-51.0,4.75,39.25,72.81554687500001,48.53,0.20861884375,238.65
2021-06-25 09:35:47.828125000,-51.0,4.5,39.5,72.81921875,56.12,0.2087389375,238.65
2021-06-25 09:35:47.835937500,-51.0,4.25,39.75,72.822890625,62.05,0.20885903125,238.65
2021-06-25 09:35:47.843750000,-51.0,4.0,40.0,72.82656250000001,67.98,0.20897912500000002,238.65
2021-06-25 09:35:47.851562500,-50.75,4.25,40.0,72.830234375,72.46000000000001,0.20909921875,238.65
2021-06-25 09:35:47.859375000,-50.5,4.5,40.0,72.83390625000001,76.94,0.2092193125,238.65
2021-06-25 09:35:47.867187500,-50.25,4.75,40.0,72.83757812500001,80.215,0.20933940625,238.65
2021-06-25 09:35:47.875000000,-50.0,5.0,40.0,72.84125,83.49,0.20945950000000002,238.65
2021-06-25 09:35:47.882812500,-50.5,4.75,39.75,72.84492187500001,85.715,0.20957959375000002,238.65
2021-06-25 09:35:47.890625000,-51.0,4.5,39.5,72.84859375,87.94,0.2096996875,238.65
2021-06-25 09:35:47.898437500,-51.5,4.25,39.25,72.852265625,89.17,0.20981978125,238.65
2021-06-25 09:35:47.906250000,-52.0,4.0,39.0,72.85593750000001,90.4,0.209939875,238.65
2021-06-25 09:35:47.914062500,-52.25,4.0,38.75,72.859609375,90.59,0.21005996875000002,238.65
2021-06-25 09:35:47.921875000,-52.5,4.0,38.5,72.86328125,90.78,0.21018006250000001,238.65
2021-06-25 09:35:47.929687500,-52.75,4.0,38.25,72.86695312500001,89.91,0.21030015625,238.65
2021-06-25 09:35:47.937500000,-53.0,4.0,38.0,72.870625,89.04,0.21042025,238.65
2021-06-25 09:35:47.945312500,-53.0,4.25,38.0,72.874296875,87.125,0.21054034375,238.65
2021-06-25 09:35:47.953125000,-53.0,4.5,38.0,72.87796875000001,85.21,0.21066043750000002,238.65
2021-06-25 09:35:47.960937500,-53.0,4.75,38.0,72.881640625,82.3,0.21078053125000001,238.65
2021-06-25 09:35:47.968750000,-53.0,5.0,38.0,72.88531250000001,79.39,0.210900625,238.65
2021-06-25 09:35:47.976562500,-52.75,5.0,38.25,72.888984375,75.545,0.21102071875,238.65
2021-06-25 09:35:47.984375000,-52.5,5.0,38.5,72.89265625,71.7,0.21114081250000002,238.65
2021-06-25 09:35:47.992187500,-52.25,5.0,38.75,72.89632812500001,66.975,0.21126090625000002,238.65
2021-06-25 09:35:48.000000000,-52.0,5.0,39.0,72.9,62.25,0.211381,238.65
2021-06-25 09:35:48.007812500,-52.0,5.0,39.0,72.903671875,56.69,0.21126090625000002,238.65
2021-06-25 09:35:48.015625000,-52.0,5.0,39.0,72.90734375000001,51.13,0.21114081250000002,238.65
2021-06-25 09:35:48.023437500,-52.0,5.0,39.0,72.911015625,44.835,0.21102071875,238.65
2021-06-25 09:35:48.031250000,-52.0,5.0,39.0,72.9146875,38.54,0.210900625,238.65
2021-06-25 09:35:48.039062500,-52.0,5.0,39.0,72.91835937500001,31.725,0.21078053125000001,238.65
2021-06-25 09:35:48.046875000,-52.0,5.0,39.0,72.92203125,24.91,0.21066043750000002,238.65
2021-06-25 09:35:48.054687500,-52.0,5.0,39.0,72.92570312500001,17.935000000000002,0.21054034375,238.65
2021-06-25 09:35:48.062500000,-52.0,5.0,39.0,72.92937500000001,10.96,0.21042025,238.65
