TimeStamp,empatica.acc.x,empatica.acc.y,empatica.acc.z,empatica.hr,empatica.bvp,empatica.eda,empatica.temp
2021-06-28 10:35:12.234375000,-63.5,7.0,14.0,65.06484375,11.91,3.9408443749999997,33.183125
2021-06-28 10:35:12.242187500,-63.25,7.0,14.0,65.063671875,13.219999999999999,3.9406441875,33.1815625
2021-06-28 10:35:12.250000000,-63.0,7.0,14.0,65.0625,14.53,3.940444,33.18
2021-06-28 10:35:12.257812500,-63.0,7.0,14.0,65.061328125,15.605,3.9400036249999997,33.18
2021-06-28 10:35:12.265625000,-63.0,7.0,14.0,65.06015624999999,16.68,3.93956325,33.18
2021-06-28 10:35:12.273437500,-63.0,7.0,14.0,65.058984375,17.57,3.939122875,33.18
2021-06-28 10:35:12.281250000,-63.0,7.0,14.0,65.0578125,18.46,3.9386824999999996,33.18
2021-06-28 10:35:12.289062500,-63.25,7.0,14.0,65.056640625,19.21,3.938242125,33.18
2021-06-28 10:35:12.296875000,-63.5,7.0,14.0,65.05546875,19.96,3.9378017499999998,33.18
2021-06-28 10:35:12.304687500,-63.75,7.0,14.0,65.05429687499999,20.565,3.937361375,33.18
2021-06-28 10:35:12.312500000,-64.0,7.0,14.0,65.053125,21.17,3.936921,33.18
2021-06-28 10:35:12.320312500,-64.0,7.0,14.0,65.051953125,21.595,3.9364806249999997,33.18
2021-06-28 10:35:12.328125000,-64.0,7.0,14.0,65.05078125,22.02,3.93604025,33.18
2021-06-28 10:35:12.335937500,-64.0,7.0,14.0,65.049609375,22.244999999999997,3.935599875,33.18
2021-06-28 10:35:12.343750000,-64.0,7.0,14.0,65.04843749999999,22.47,3.9351595,33.18
2021-06-28 10:35:12.351562500,-63.75,7.0,14.0,65.047265625,22.515,3.934719125,33.18
2021-06-28 10:35:12.359375000,-63.5,7.0,14.0,65.04609375,22.56,3.93427875,33.18
2021-06-28 10:35:12.367187500,-63.25,7.0,14.0,65.044921875,22.5,3.933838375,33.18
2021-06-28 10:35:12.375000000,-63.0,7.0,14.0,65.04375,22.44,3.933398,33.18
2021-06-28 10:35:12.382812500,-63.25,7.0,14.0,65.04257812499999,22.41,3.932957625,33.18
2021-06-28 10:35:12.390625000,-63.5,7.0,14.0,65.04140625,22.38,3.93251725,33.18
2021-06-28 10:35:12.398437500,-63.75,7.0,14.0,65.040234375,22.505,3.932076875,33.18
2021-06-28 10:35:12.406250000,-64.0,7.0,14.0,65.0390625,22.63,3.9316364999999998,33.18
2021-06-28 10:35:12.414062500,-64.0,7.0,14.0,65.037890625,22.975,3.931196125,33.18
2021-06-28 10:35:12.421875000,-64.0,7.0,14.0,65.03671874999999,23.32,3.93075575,33.18
2021-06-28 10:35:12.429687500,-64.0,7.0,14.0,65.035546875,23.87,3.930315375,33.18
2021-06-28 10:35:12.437500000,-64.0,7.0,14.0,65.034375,24.42,3.929875,33.18
2021-06-28 10:35:12.445312500,-63.75,7.0,14.0,65.033203125,25.065,3.929434625,33.18
2021-06-28 10:35:12.453125000,-63.5,7.0,14.0,65.03203125,25.71,3.92899425,33.18
2021-06-28 10:35:12.460937500,-63.25,7.0,14.0,65.03085937499999,26.310000000000002,3.928553875,33.18
2021-06-28 10:35:12.468750000,-63.0,7.0,14.0,65.0296875,26.91,3.9281135000000003,33.18
2021-06-28 10:35:12.476562500,-63.25,7.0,14.0,65.028515625,27.33,3.927673125,33.18
2021-06-28 10:35:12.484375000,-63.5,7.0,14.0,65.02734375,27.75,3.92723275,33.18
2021-06-28 10:35:12.492187500,-63.75,7.0,14.0,65.026171875,27.884999999999998,3.9267923750000002,33.18
2021-06-28 10:35:12.500000000,-64.0,7.0,14.0,65.025,28.02,3.926352,33.18
2021-06-28 10:35:12.507812500,-63.75,7.0,14.0,65.023828125,27.835,3.926659375,33.18
2021-06-28 10:35:12.515625000,-63.5,7.0,14.0,65.02265625,27.65,3.92696675,33.18
2021-06-28 10:35:12.523437500,-63.25,7.0,14.0,65.021484375,27.15,3.9272741250000003,33.18
2021-06-28 10:35:12.531250000,-63.0,7.0,14.0,65.0203125,26.65,3.9275815,33.18
2021-06-28 10:35:12.539062500,-63.0,7.0,14.0,65.019140625,25.86,3.927888875,33.18
2021-06-28 10:35:12.546875000,-63.0,7.0,14.0,65.01796875,25.07,3.92819625,33.18
2021-06-28 10:35:12.554687500,-63.0,7.0,14.0,65.016796875,24.02,3.9285036250000003,33.18
2021-06-28 10:35:12.562500000,-63.0,7.0,14.0,65.015625,22.97,3.928811,33.18
2021-06-28 10:35:12.570312500,-63.25,7.0,14.0,65.014453125,21.695,3.929118375,33.18
2021-06-28 10:35:12.578125000,-63.5,7.0,14.0,65.01328125,20.42,3.92942575,33.18
2021-06-28 10:35:12.585937500,-63.75,7.0,14.0,65.012109375,18.965000000000003,3.9297331250000003,33.18
2021-06-28 10:35:12.593750000,-64.0,7.0,14.0,65.0109375,17.51,3.9300405,33.18
2021-06-28 10:35:12.601562500,-64.0,7.0,14.0,65.009765625,15.93,3.930347875,33.18
2021-06-28 10:35:12.609375000,-64.0,7.0,14.0,65.00859375,14.35,3.93065525,33.18
2021-06-28 10:35:12.617187500,-64.0,7.0,14.0,65.007421875,12.74,3.9309626250000003,33.18
2021-06-28 10:35:12.625000000,-64.0,7.0,14.0,65.00625,11.13,3.93127,33.18
2021-06-28 10:35:12.632812500,-64.0,7.0,14.0,65.005078125,9.56,3.931577375,33.18
2021-06-28 10:35:12.640625000,-64.0,7.0,14.0,65.00390625,7.99,3.93188475,33.18
2021-06-28 10:35:12.648437500,-64.0,7.0,14.0,65.002734375,6.53,3.9321921250000003,33.18
2021-06-28 10:35:12.656250000,-64.0,7.0,14.0,65.0015625,5.07,3.9324995,33.18
2021-06-28 10:35:12.664062500,-64.0,7.0,14.0,65.000390625,3.7350000000000003,3.932806875,33.18
2021-06-28 10:35:12.671875000,-64.0,7.0,14.0,64.99921875,2.4,3.93311425,33.18
2021-06-28 10:35:12.679687500,-64.0,7.0,14.0,64.998046875,1.175,3.9334216250000003,33.18
2021-06-28 10:35:12.687500000,-64.0,7.0,14.0,64.996875,-0.05,3.933729,33.18
2021-06-28 10:35:12.695312500,-63.75,7.0,14.0,64.995703125,-1.2000000000000002,3.934036375,33.18
2021-06-28 10:35:12.703125000,-63.5,7.0,14.0,64.99453125,-2.35,3.93434375,33.18
2021-06-28 10:35:12.710937500,-63.25,7.0,14.0,64.993359375,-3.41,3.9346511250000002,33.18
2021-06-28 10:35:12.718750000,-63.0,7.0,14.0,64.9921875,-4.47,3.9349585,33.18
2021-06-28 10:35:12.726562500,-63.0,7.0,14.0,64.991015625,-5.404999999999999,3.935265875,33.18
2021-06-28 10:35:12.734375000,-63.0,7.0,14.0,64.98984375,-6.34,3.93557325,33.18
2021-06-28 10:35:12.742187500,-63.0,7.0,14.0,64.988671875,-7.08,3.9358806250000002,33.18
2021-06-28 10:35:12.750000000,-63.0,7.0,14.0,64.9875,-7.82,3.936188,33.18
2021-06-28 10:35:12.757812500,-63.0,7.0,14.0,64.986328125,-8.315000000000001,3.93570759375,33.18
2021-06-28 10:35:12.765625000,-63.0,7.0,14.0,64.98515625,-8.81,3.9352271875000002,33.18
2021-06-28 10:35:12.773437500,-63.0,7.0,14.0,64.983984375,-9.065000000000001,3.93474678125,33.18
2021-06-28 10:35:12.781250000,-63.0,7.0,14.0,64.9828125,-9.32,3.934266375,33.18
2021-06-28 10:35:12.789062500,-63.0,7.0,14.0,64.981640625,-9.415,3.93378596875,33.18
2021-06-28 10:35:12.796875000,-63.0,7.0,14.0,64.98046875,-9.51,3.9333055625,33.18
2021-06-28 10:35:12.804687500,-63.0,7.0,14.0,64.979296875,-9.555,3.93282515625,33.18
2021-06-28 10:35:12.812500000,-63.0,7.0,14.0,64.978125,-9.6,3.93234475,33.18
2021-06-28 10:35:12.820312500,-63.25,7.0,14.0,64.976953125,-9.7,3.93186434375,33.18
2021-06-28 10:35:12.828125000,-63.5,7.0,14.0,64.97578125,-9.8,3.9313839375,33.18
2021-06-28 10:35:12.835937500,-63.75,7.0,14.0,64.974609375,-9.995000000000001,3.9309035312500002,33.18
2021-06-28 10:35:12.843750000,-64.0,7.0,14.0,64.9734375,-10.19,3.930423125,33.18
2021-06-28 10:35:12.851562500,-64.0,7.0,14.0,64.972265625,-10.475,3.92994271875,33.18
2021-06-28 10:35:12.859375000,-64.0,7.0,14.0,64.97109375000001,-10.76,3.9294623125,33.18
2021-06-28 10:35:12.867187500,-64.0,7.0,14.0,64.969921875,-11.09,3.92898190625,33.18
2021-06-28 10:35:12.875000000,-64.0,7.0,14.0,64.96875,-11.42,3.9285015000000003,33.18
2021-06-28 10:35:12.882812500,-63.75,7.0,14.0,64.967578125,-11.775,3.92802109375,33.18
2021-06-28 10:35:12.890625000,-63.5,7.0,14.0,64.96640625,-12.13,3.9275406875,33.18
2021-06-28 10:35:12.898437500,-63.25,7.0,14.0,64.96523437500001,-12.54,3.92706028125,33.18
2021-06-28 10:35:12.906250000,-63.0,7.0,14.0,64.9640625,-12.95,3.9265798750000003,33.18
2021-06-28 10:35:12.914062500,-63.25,7.0,14.0,64.962890625,-13.485,3.92609946875,33.18
2021-06-28 10:35:12.921875000,-63.5,7.0,14.0,64.96171875,-14.02,3.9256190625,33.18
2021-06-28 10:35:12.929687500,-63.75,7.0,14.0,64.960546875,-14.774999999999999,3.92513865625,33.18
2021-06-28 10:35:12.937500000,-64.0,7.0,14.0,64.95937500000001,-15.53,3.9246582500000002,33.18
2021-06-28 10:35:12.945312500,-63.75,7.0,14.0,64.958203125,-16.565,3.9241778437500003,33.18
2021-06-28 10:35:12.953125000,-63.5,7.0,14.0,64.95703125,-17.6,3.9236974375,33.18
2021-06-28 10:35:12.960937500,-63.25,7.0,14.0,64.955859375,-18.93,3.92321703125,33.18
2021-06-28 10:35:12.968750000,-63.0,7.0,14.0,64.9546875,-20.26,3.922736625,33.18
2021-06-28 10:35:12.976562500,-63.25,7.0,14.0,64.95351562500001,-21.795,3.9222562187500003,33.18
2021-06-28 10:35:12.984375000,-63.5,7.0,14.0,64.95234375,-23.33,3.9217758125,33.18
2021-06-28 10:35:12.992187500,-63.75,7.0,14.0,64.951171875,-24.915,3.92129540625,33.18
2021-06-28 10:35:13.000000000,-64.0,7.0,14.0,64.95,-26.5,3.920815,33.18
2021-06-28 10:35:13.007812500,-64.0,7.0,14.0,64.948828125,-27.91,3.92057478125,33.1809375
2021-06-28 10:35:13.015625000,-64.0,7.0,14.0,64.94765625000001,-29.32,3.9203345625000003,33.181875
2021-06-28 10:35:13.023437500,-64.0,7.0,14.0,64.946484375,-30.295,3.92009434375,33.1828125
2021-06-28 10:35:13.031250000,-64.0,7.0,14.0,64.9453125,-31.27,3.919854125,33.18375
2021-06-28 10:35:13.039062500,-63.75,7.0,14.0,64.944140625,-31.564999999999998,3.91961390625,33.1846875
2021-06-28 10:35:13.046875000,-63.5,7.0,14.0,64.94296875,-31.86,3.9193736875000003,33.185625
2021-06-28 10:35:13.054687500,-63.25,7.0,14.0,64.94179687500001,-31.32,3.91913346875,33.1865625
2021-06-28 10:35:13.062500000,-63.0,7.0,14.0,64.940625,-30.78,3.91889325,33.1875
2021-06-28 10:35:13.070312500,-63.0,7.0,14.0,64.939453125,-29.37,3.9186530312500003,33.1884375
2021-06-28 10:35:13.078125000,-63.0,7.0,14.0,64.93828125,-27.96,3.9184128125,33.189375
2021-06-28 10:35:13.085937500,-63.0,7.0,14.0,64.937109375,-25.805,3.91817259375,33.1903125
2021-06-28 10:35:13.093750000,-63.0,7.0,14.0,64.93593750000001,-23.65,3.917932375,33.19125
2021-06-28 10:35:13.101562500,-63.25,7.0,14.0,64.934765625,-21.015,3.9176921562500002,33.1921875
2021-06-28 10:35:13.109375000,-63.5,7.0,14.0,64.93359375,-18.38,3.9174519375,33.193125
2021-06-28 10:35:13.117187500,-63.75,7.0,14.0,64.932421875,-15.584999999999999,3.91721171875,33.1940625
2021-06-28 10:35:13.125000000,-64.0,7.0,14.0,64.93125,-12.79,3.9169715,33.195
2021-06-28 10:35:13.132812500,-64.0,7.0,14.0,64.93007812500001,-10.14,3.91673128125,33.1959375
2021-06-28 10:35:13.140625000,-64.0,7.0,14.0,64.92890625,-7.49,3.9164910625,33.196875
2021-06-28 10:35:13.148437500,-64.0,7.0,14.0,64.927734375,-5.17,3.91625084375,33.1978125
2021-06-28 10:35:13.156250000,-64.0,7.0,14.0,64.9265625,-2.85,3.916010625,33.198750000000004
2021-06-28 10:35:13.164062500,-64.0,7.0,14.0,64.925390625,-0.925,3.91577040625,33.1996875
2021-06-28 10:35:13.171875000,-64.0,7.0,14.0,64.92421875000001,1.0,3.9155301875,33.200625
2021-06-28 10:35:13.179687500,-64.0,7.0,14.0,64.923046875,2.57,3.91528996875,33.2015625
2021-06-28 10:35:13.187500000,-64.0,7.0,14.0,64.921875,4.14,3.91504975,33.2025
2021-06-28 10:35:13.195312500,-64.0,7.0,14.0,64.920703125,5.46,3.91480953125,33.2034375
2021-06-28 10:35:13.203125000,-64.0,7.0,14.0,64.91953125,6.78,3.9145693125,33.204375
2021-06-28 10:35:13.210937500,-64.0,7.0,14.0,64.91835937500001,7.949999999999999,3.91432909375,33.2053125
2021-06-28 10:35:13.218750000,-64.0,7.0,14.0,64.9171875,9.12,3.914088875,33.20625
2021-06-28 10:35:13.226562500,-64.0,7.0,14.0,64.916015625,10.2,3.91384865625,33.2071875
2021-06-28 10:35:13.234375000,-64.0,7.0,14.0,64.91484375,11.28,3.9136084374999998,33.208125
2021-06-28 10:35:13.242187500,-64.0,7.0,14.0,64.913671875,12.28,3.91336821875,33.2090625
2021-06-28 10:35:13.250000000,-64.0,7.0,14.0,64.9125,13.28,3.913128,33.21
2021-06-28 10:35:13.257812500,-64.0,7.0,14.0,64.911328125,14.165,3.9127676875,33.21
2021-06-28 10:35:13.265625000,-64.0,7.0,14.0,64.91015625,15.05,3.912407375,33.21
2021-06-28 10:35:13.273437500,-64.0,7.0,14.0,64.908984375,15.755,3.9120470625,33.21
2021-06-28 10:35:13.281250000,-64.0,7.0,14.0,64.9078125,16.46,3.91168675,33.21
2021-06-28 10:35:13.289062500,-64.0,6.75,14.0,64.906640625,16.945,3.9113264375,33.21
2021-06-28 10:35:13.296875000,-64.0,6.5,14.0,64.90546875,17.43,3.910966125,33.21
2021-06-28 10:35:13.304687500,-64.0,6.25,14.0,64.904296875,17.689999999999998,3.9106058125,33.21
2021-06-28 10:35:13.312500000,-64.0,6.0,14.0,64.903125,17.95,3.9102455,33.21
2021-06-28 10:35:13.320312500,-63.75,6.25,14.0,64.901953125,18.025,3.9098851875,33.21
2021-06-28 10:35:13.328125000,-63.5,6.5,14.0,64.90078125,18.1,3.909524875,33.21
2021-06-28 10:35:13.335937500,-63.25,6.75,14.0,64.899609375,18.09,3.9091645625,33.21
2021-06-28 10:35:13.343750000,-63.0,7.0,14.0,64.8984375,18.08,3.9088042499999998,33.21
2021-06-28 10:35:13.351562500,-63.25,7.0,14.0,64.897265625,18.08,3.9084439375,33.21
2021-06-28 10:35:13.359375000,-63.5,7.0,14.0,64.89609375,18.08,3.9080836249999997,33.21
2021-06-28 10:35:13.367187500,-63.75,7.0,14.0,64.894921875,18.174999999999997,3.9077233125,33.21
2021-06-28 10:35:13.375000000,-64.0,7.0,14.0,64.89375,18.27,3.907363,33.21
2021-06-28 10:35:13.382812500,-64.0,6.75,14.0,64.892578125,18.465,3.9070026875,33.21
2021-06-28 10:35:13.390625000,-64.0,6.5,14.0,64.89140625,18.66,3.906642375,33.21
2021-06-28 10:35:13.398437500,-64.0,6.25,14.0,64.890234375,18.915,3.9062820625,33.21
2021-06-28 10:35:13.406250000,-64.0,6.0,14.0,64.8890625,19.17,3.90592175,33.21
2021-06-28 10:35:13.414062500,-64.0,6.25,14.0,64.887890625,19.425,3.9055614375,33.21
2021-06-28 10:35:13.421875000,-64.0,6.5,14.0,64.88671875,19.68,3.905201125,33.21
2021-06-28 10:35:13.429687500,-64.0,6.75,14.0,64.885546875,19.884999999999998,3.9048408125,33.21
2021-06-28 10:35:13.437500000,-64.0,7.0,14.0,64.884375,20.09,3.9044805,33.21
2021-06-28 10:35:13.445312500,-63.75,7.0,14.0,64.883203125,20.23,3.9041201875,33.21
2021-06-28 10:35:13.453125000,-63.5,7.0,14.0,64.88203125,20.37,3.903759875,33.21
2021-06-28 10:35:13.460937500,-63.25,7.0,14.0,64.880859375,20.47,3.9033995624999998,33.21
2021-06-28 10:35:13.468750000,-63.0,7.0,14.0,64.8796875,20.57,3.90303925,33.21
2021-06-28 10:35:13.476562500,-63.0,7.0,14.0,64.878515625,20.62,3.9026789374999997,33.21
2021-06-28 10:35:13.484375000,-63.0,7.0,14.0,64.87734375,20.67,3.902318625,33.21
2021-06-28 10:35:13.492187500,-63.0,7.0,14.0,64.876171875,20.645000000000003,3.9019583124999997,33.21
2021-06-28 10:35:13.500000000,-63.0,7.0,14.0,64.875,20.62,3.901598,33.21
2021-06-28 10:35:13.507812500,-63.25,7.0,14.0,64.873828125,20.435000000000002,3.9015579687499997,33.21
2021-06-28 10:35:13.515625000,-63.5,7.0,14.0,64.87265625,20.25,3.9015179375,33.21
2021-06-28 10:35:13.523437500,-63.75,7.0,14.0,64.871484375,19.84,3.90147790625,33.21
2021-06-28 10:35:13.531250000,-64.0,7.0,14.0,64.8703125,19.43,3.901437875,33.21
2021-06-28 10:35:13.539062500,-63.75,7.0,14.0,64.869140625,18.77,3.90139784375,33.21
2021-06-28 10:35:13.546875000,-63.5,7.0,14.0,64.86796875,18.11,3.9013578124999997,33.21
2021-06-28 10:35:13.554687500,-63.25,7.0,14.0,64.866796875,17.244999999999997,3.90131778125,33.21
2021-06-28 10:35:13.562500000,-63.0,7.0,14.0,64.865625,16.38,3.9012777499999998,33.21
2021-06-28 10:35:13.570312500,-63.0,7.0,14.0,64.864453125,15.434999999999999,3.90123771875,33.21
2021-06-28 10:35:13.578125000,-63.0,7.0,14.0,64.86328125,14.49,3.9011976875,33.21
2021-06-28 10:35:13.585937500,-63.0,7.0,14.0,64.862109375,13.58,3.9011576562499997,33.21
2021-06-28 10:35:13.593750000,-63.0,7.0,14.0,64.8609375,12.67,3.901117625,33.21
2021-06-28 10:35:13.601562500,-63.25,7.0,14.0,64.859765625,11.895,3.9010775937499997,33.21
2021-06-28 10:35:13.609375000,-63.5,7.0,14.0,64.85859375,11.12,3.9010375625,33.21
2021-06-28 10:35:13.617187500,-63.75,7.0,14.0,64.857421875,10.5,3.90099753125,33.21
2021-06-28 10:35:13.625000000,-64.0,7.0,14.0,64.85625,9.88,3.9009574999999996,33.21
2021-06-28 10:35:13.632812500,-64.0,7.0,14.0,64.855078125,9.375,3.90091746875,33.21
2021-06-28 10:35:13.640625000,-64.0,7.0,14.0,64.85390625,8.87,3.9008774374999997,33.21
2021-06-28 10:35:13.648437500,-64.0,7.0,14.0,64.852734375,8.39,3.90083740625,33.21
2021-06-28 10:35:13.656250000,-64.0,7.0,14.0,64.8515625,7.91,3.900797375,33.21
2021-06-28 10:35:13.664062500,-63.75,7.0,14.0,64.850390625,7.375,3.90075734375,33.21
2021-06-28 10:35:13.671875000,-63.5,7.0,14.0,64.84921875,6.84,3.9007173125,33.21
2021-06-28 10:35:13.679687500,-63.25,7.0,14.0,64.848046875,6.205,3.9006772812499997,33.21
2021-06-28 10:35:13.687500000,-63.0,7.0,14.0,64.846875,5.57,3.90063725,33.21
2021-06-28 10:35:13.695312500,-63.0,7.0,14.0,64.845703125,4.835,3.9005972187499998,33.21
2021-06-28 10:35:13.703125000,-63.0,7.0,14.0,64.84453125,4.1,3.9005571875,33.21
2021-06-28 10:35:13.710937500,-63.0,7.0,14.0,64.843359375,3.3099999999999996,3.90051715625,33.21
2021-06-28 10:35:13.718750000,-63.0,7.0,14.0,64.8421875,2.52,3.9004771249999997,33.21
2021-06-28 10:35:13.726562500,-63.25,7.0,14.0,64.841015625,1.74,3.90043709375,33.21
2021-06-28 10:35:13.734375000,-63.5,7.0,14.0,64.83984375,0.96,3.9003970624999997,33.21
2021-06-28 10:35:13.742187500,-63.75,7.0,14.0,64.838671875,0.245,3.90035703125,33.21
2021-06-28 10:35:13.750000000,-64.0,7.0,14.0,64.8375,-0.47,3.900317,33.21
2021-06-28 10:35:13.757812500,-63.75,7.0,14.0,64.836328125,-1.1,3.90003675,33.21
2021-06-28 10:35:13.765625000,-63.5,7.0,14.0,64.83515625,-1.73,3.8997564999999996,33.21
2021-06-28 10:35:13.773437500,-63.25,7.0,14.0,64.833984375,-2.31,3.8994762499999998,33.21
2021-06-28 10:35:13.781250000,-63.0,7.0,14.0,64.8328125,-2.89,3.899196,33.21
2021-06-28 10:35:13.789062500,-63.25,7.0,14.0,64.83164062499999,-3.4749999999999996,3.89891575,33.21
2021-06-28 10:35:13.796875000,-63.5,7.0,14.0,64.83046875,-4.06,3.8986354999999997,33.21
2021-06-28 10:35:13.804687500,-63.75,7.0,14.0,64.829296875,-4.705,3.89835525,33.21
2021-06-28 10:35:13.812500000,-64.0,7.0,14.0,64.828125,-5.35,3.898075,33.21
2021-06-28 10:35:13.820312500,-64.0,7.0,14.0,64.826953125,-6.09,3.8977947499999996,33.21
2021-06-28 10:35:13.828125000,-64.0,7.0,14.0,64.82578124999999,-6.83,3.8975144999999998,33.21
2021-06-28 10:35:13.835937500,-64.0,7.0,14.0,64.824609375,-7.65,3.89723425,33.21
2021-06-28 10:35:13.843750000,-64.0,7.0,14.0,64.8234375,-8.47,3.896954,33.21
2021-06-28 10:35:13.851562500,-63.75,7.0,14.0,64.822265625,-9.305,3.8966737499999997,33.21
2021-06-28 10:35:13.859375000,-63.5,7.0,14.0,64.82109375,-10.14,3.8963935,33.21
2021-06-28 10:35:13.867187500,-63.25,7.0,14.0,64.81992187499999,-10.935,3.89611325,33.21
2021-06-28 10:35:13.875000000,-63.0,7.0,14.0,64.81875,-11.73,3.8958329999999997,33.21
2021-06-28 10:35:13.882812500,-63.25,7.0,14.0,64.817578125,-12.435,3.89555275,33.21
2021-06-28 10:35:13.890625000,-63.5,7.0,14.0,64.81640625,-13.14,3.8952725,33.21
2021-06-28 10:35:13.898437500,-63.75,7.0,14.0,64.815234375,-13.735,3.89499225,33.21
2021-06-28 10:35:13.906250000,-64.0,7.0,14.0,64.81406249999999,-14.33,3.8947119999999997,33.21
2021-06-28 10:35:13.914062500,-64.0,7.0,14.0,64.812890625,-14.844999999999999,3.89443175,33.21
2021-06-28 10:35:13.921875000,-64.0,7.0,14.0,64.81171875,-15.36,3.8941515,33.21
2021-06-28 10:35:13.929687500,-64.0,7.0,14.0,64.810546875,-15.85,3.89387125,33.21
2021-06-28 10:35:13.937500000,-64.0,7.0,14.0,64.809375,-16.34,3.893591,33.21
2021-06-28 10:35:13.945312500,-64.0,6.75,14.0,64.80820312499999,-16.869999999999997,3.89331075,33.21
2021-06-28 10:35:13.953125000,-64.0,6.5,14.0,64.80703125,-17.4,3.8930305,33.21
2021-06-28 10:35:13.960937500,-64.0,6.25,14.0,64.805859375,-18.055,3.8927502499999997,33.21
2021-06-28 10:35:13.968750000,-64.0,6.0,14.0,64.8046875,-18.71,3.89247,33.21
2021-06-28 10:35:13.976562500,-64.0,6.25,14.0,64.803515625,-19.560000000000002,3.89218975,33.21
2021-06-28 10:35:13.984375000,-64.0,6.5,14.0,64.80234374999999,-20.41,3.8919095,33.21
2021-06-28 10:35:13.992187500,-64.0,6.75,14.0,64.801171875,-21.505000000000003,3.89162925,33.21
2021-06-28 10:35:14.000000000,-64.0,7.0,14.0,64.8,-22.6,3.891349,33.21
2021-06-28 10:35:14.007812500,-63.75,7.0,14.0,64.798984375,-23.905,3.8911088124999997,33.21
2021-06-28 10:35:14.015625000,-63.5,7.0,14.0,64.79796875,-25.21,3.890868625,33.21
2021-06-28 10:35:14.023437500,-63.25,7.0,14.0,64.796953125,-26.61,3.8906284374999998,33.21
2021-06-28 10:35:14.031250000,-63.0,7.0,14.0,64.7959375,-28.01,3.89038825,33.21
2021-06-28 10:35:14.039062500,-63.0,7.0,14.0,64.794921875,-29.275,3.8901480625,33.21
2021-06-28 10:35:14.046875000,-63.0,7.0,14.0,64.79390624999999,-30.54,3.889907875,33.21
2021-06-28 10:35:14.054687500,-63.0,7.0,14.0,64.792890625,-31.37,3.8896676875,33.21
2021-06-28 10:35:14.062500000,-63.0,7.0,14.0,64.791875,-32.2,3.8894275,33.21
2021-06-28 10:35:14.070312500,-63.25,7.0,14.0,64.790859375,-32.315,3.8891873125,33.21
2021-06-28 10:35:14.078125000,-63.5,7.0,14.0,64.78984375,-32.43,3.888947125,33.21
2021-06-28 10:35:14.085937500,-63.75,7.0,14.0,64.788828125,-31.645,3.8887069375,33.21
2021-06-28 10:35:14.093750000,-64.0,7.0,14.0,64.7878125,-30.86,3.88846675,33.21
2021-06-28 10:35:14.101562500,-64.0,7.0,14.0,64.786796875,-29.185000000000002,3.8882265625,33.21
2021-06-28 10:35:14.109375000,-64.0,7.0,14.0,64.78578125,-27.51,3.887986375,33.21
2021-06-28 10:35:14.117187500,-64.0,7.0,14.0,64.78476562499999,-25.145000000000003,3.8877461875,33.21
2021-06-28 10:35:14.125000000,-64.0,7.0,14.0,64.78375,-22.78,3.887506,33.21
2021-06-28 10:35:14.132812500,-63.75,7.0,14.0,64.782734375,-20.035,3.8872658125,33.21
2021-06-28 10:35:14.140625000,-63.5,7.0,14.0,64.78171875,-17.29,3.8870256249999997,33.21
2021-06-28 10:35:14.148437500,-63.25,7.0,14.0,64.780703125,-14.51,3.8867854375,33.21
2021-06-28 10:35:14.156250000,-63.0,7.0,14.0,64.7796875,-11.73,3.8865452499999997,33.21
2021-06-28 10:35:14.164062500,-63.0,7.0,14.0,64.778671875,-9.165,3.8863050625,33.21
2021-06-28 10:35:14.171875000,-63.0,7.0,14.0,64.77765624999999,-6.6,3.8860648749999998,33.21
2021-06-28 10:35:14.179687500,-63.0,7.0,14.0,64.776640625,-4.365,3.8858246875,33.21
2021-06-28 10:35:14.187500000,-63.0,7.0,14.0,64.77562499999999,-2.13,3.8855844999999998,33.21
2021-06-28 10:35:14.195312500,-63.25,7.0,14.0,64.774609375,-0.21499999999999986,3.8853443125,33.21
2021-06-28 10:35:14.203125000,-63.5,7.0,14.0,64.77359375,1.7,3.885104125,33.21
2021-06-28 10:35:14.210937500,-63.75,7.0,14.0,64.772578125,3.3449999999999998,3.8848639375,33.21
2021-06-28 10:35:14.218750000,-64.0,7.0,14.0,64.7715625,4.99,3.88462375,33.21
2021-06-28 10:35:14.226562500,-63.75,7.0,14.0,64.770546875,6.42,3.8843835625,33.21
2021-06-28 10:35:14.234375000,-63.5,7.0,14.0,64.76953125,7.85,3.884143375,33.21
2021-06-28 10:35:14.242187500,-63.25,7.0,14.0,64.76851562499999,9.075,3.8839031875,33.21
2021-06-28 10:35:14.250000000,-63.0,7.0,14.0,64.7675,10.3,3.883663,33.21
2021-06-28 10:35:14.257812500,-63.25,7.0,14.0,64.766484375,11.295,3.8835028437499997,33.21
2021-06-28 10:35:14.265625000,-63.5,7.0,14.0,64.76546875,12.29,3.8833426875,33.21
2021-06-28 10:35:14.273437500,-63.75,7.0,14.0,64.764453125,13.045,3.8831825312499997,33.21
2021-06-28 10:35:14.281250000,-64.0,7.0,14.0,64.7634375,13.8,3.883022375,33.21
2021-06-28 10:35:14.289062500,-63.75,7.0,14.0,64.762421875,14.315000000000001,3.8828622187499997,33.21
2021-06-28 10:35:14.296875000,-63.5,7.0,14.0,64.76140625,14.83,3.8827020625,33.21
2021-06-28 10:35:14.304687500,-63.25,7.0,14.0,64.760390625,15.129999999999999,3.8825419062499997,33.21
2021-06-28 10:35:14.312500000,-63.0,7.0,14.0,64.759375,15.43,3.88238175,33.21
2021-06-28 10:35:14.320312500,-63.25,7.0,14.0,64.758359375,15.565,3.8822215937499998,33.21
2021-06-28 10:35:14.328125000,-63.5,7.0,14.0,64.75734375,15.7,3.8820614375,33.21
2021-06-28 10:35:14.335937500,-63.75,7.0,14.0,64.756328125,15.705,3.88190128125,33.21
2021-06-28 10:35:14.343750000,-64.0,7.0,14.0,64.7553125,15.71,3.881741125,33.21
2021-06-28 10:35:14.351562500,-64.0,7.0,14.0,64.754296875,15.625,3.88158096875,33.21
2021-06-28 10:35:14.359375000,-64.0,7.0,14.0,64.75328125,15.54,3.8814208125,33.21
2021-06-28 10:35:14.367187500,-64.0,7.0,14.0,64.75226562499999,15.415,3.88126065625,33.21
2021-06-28 10:35:14.375000000,-64.0,7.0,14.0,64.75125,15.29,3.8811004999999996,33.21
2021-06-28 10:35:14.382812500,-63.75,6.75,14.0,64.750234375,15.2,3.88094034375,33.21
2021-06-28 10:35:14.390625000,-63.5,6.5,14.0,64.74921875,15.11,3.8807801874999996,33.21
2021-06-28 10:35:14.398437500,-63.25,6.25,14.0,64.748203125,15.114999999999998,3.88062003125,33.21
2021-06-28 10:35:14.406250000,-63.0,6.0,14.0,64.7471875,15.12,3.8804598749999997,33.21
2021-06-28 10:35:14.414062500,-63.25,6.25,13.75,64.746171875,15.26,3.88029971875,33.21
2021-06-28 10:35:14.421875000,-63.5,6.5,13.5,64.74515625,15.4,3.8801395624999997,33.21
2021-06-28 10:35:14.429687500,-63.75,6.75,13.25,64.744140625,15.665,3.87997940625,33.21
2021-06-28 10:35:14.437500000,-64.0,7.0,13.0,64.74312499999999,15.93,3.8798192499999997,33.21
2021-06-28 10:35:14.445312500,-63.75,7.0,13.25,64.742109375,16.27,3.87965909375,33.21
2021-06-28 10:35:14.453125000,-63.5,7.0,13.5,64.74109375,16.61,3.8794989374999997,33.21
2021-06-28 10:35:14.460937500,-63.25,7.0,13.75,64.740078125,16.939999999999998,3.87933878125,33.21
2021-06-28 10:35:14.468750000,-63.0,7.0,14.0,64.7390625,17.27,3.8791786249999998,33.21
2021-06-28 10:35:14.476562500,-63.25,7.0,14.0,64.738046875,17.525,3.87901846875,33.21
2021-06-28 10:35:14.484375000,-63.5,7.0,14.0,64.73703125,17.78,3.8788583125,33.21
2021-06-28 10:35:14.492187500,-63.75,7.0,14.0,64.736015625,17.92,3.87869815625,33.21
2021-06-28 10:35:14.500000000,-64.0,7.0,14.0,64.735,18.06,3.878538,33.21
2021-06-28 10:35:14.507812500,-64.0,7.0,14.0,64.733984375,18.075,3.878377875,33.21
2021-06-28 10:35:14.515625000,-64.0,7.0,14.0,64.73296875,18.09,3.8782177499999997,33.21
2021-06-28 10:35:14.523437500,-64.0,7.0,14.0,64.731953125,17.95,3.878057625,33.21
2021-06-28 10:35:14.531250000,-64.0,7.0,14.0,64.7309375,17.81,3.8778975,33.21
2021-06-28 10:35:14.539062500,-64.0,7.0,14.0,64.729921875,17.490000000000002,3.8777373749999997,33.21
2021-06-28 10:35:14.546875000,-64.0,7.0,14.0,64.72890625,17.17,3.87757725,33.21
2021-06-28 10:35:14.554687500,-64.0,7.0,14.0,64.727890625,16.630000000000003,3.877417125,33.21
2021-06-28 10:35:14.562500000,-64.0,7.0,14.0,64.726875,16.09,3.8772569999999997,33.21
2021-06-28 10:35:14.570312500,-64.0,6.75,14.0,64.725859375,15.344999999999999,3.877096875,33.21
2021-06-28 10:35:14.578125000,-64.0,6.5,14.0,64.72484375,14.6,3.87693675,33.21
2021-06-28 10:35:14.585937500,-64.0,6.25,14.0,64.723828125,13.705,3.8767766249999998,33.21
2021-06-28 10:35:14.593750000,-64.0,6.0,14.0,64.7228125,12.81,3.8766165,33.21
2021-06-28 10:35:14.601562500,-63.75,6.0,14.0,64.721796875,11.875,3.876456375,33.21
2021-06-28 10:35:14.609375000,-63.5,6.0,14.0,64.72078125,10.94,3.8762962499999998,33.21
2021-06-28 10:35:14.617187500,-63.25,6.0,14.0,64.719765625,10.075,3.876136125,33.21
2021-06-28 10:35:14.625000000,-63.0,6.0,14.0,64.71875,9.21,3.8759759999999996,33.21
2021-06-28 10:35:14.632812500,-63.25,6.25,14.0,64.717734375,8.48,3.875815875,33.21
2021-06-28 10:35:14.640625000,-63.5,6.5,14.0,64.71671875,7.75,3.87565575,33.21
2021-06-28 10:35:14.648437500,-63.75,6.75,14.0,64.715703125,7.140000000000001,3.8754956249999997,33.21
2021-06-28 10:35:14.656250000,-64.0,7.0,14.0,64.7146875,6.53,3.8753355,33.21
2021-06-28 10:35:14.664062500,-63.75,6.75,13.75,64.713671875,5.99,3.875175375,33.21
2021-06-28 10:35:14.671875000,-63.5,6.5,13.5,64.71265625,5.45,3.8750152499999997,33.21
2021-06-28 10:35:14.679687500,-63.25,6.25,13.25,64.711640625,4.91,3.874855125,33.21
2021-06-28 10:35:14.687500000,-63.0,6.0,13.0,64.710625,4.37,3.874695,33.21
2021-06-28 10:35:14.695312500,-63.0,6.25,13.25,64.709609375,3.815,3.8745348749999997,33.21
2021-06-28 10:35:14.703125000,-63.0,6.5,13.5,64.70859375,3.26,3.87437475,33.21
2021-06-28 10:35:14.710937500,-63.0,6.75,13.75,64.707578125,2.705,3.874214625,33.21
2021-06-28 10:35:14.718750000,-63.0,7.0,14.0,64.7065625,2.15,3.8740544999999997,33.21
2021-06-28 10:35:14.726562500,-63.0,7.0,14.25,64.705546875,1.645,3.873894375,33.21
2021-06-28 10:35:14.734375000,-63.0,7.0,14.5,64.70453125,1.14,3.87373425,33.21
2021-06-28 10:35:14.742187500,-63.0,7.0,14.75,64.703515625,0.715,3.8735741249999998,33.21
2021-06-28 10:35:14.750000000,-63.0,7.0,15.0,64.7025,0.29,3.873414,33.21
2021-06-28 10:35:14.757812500,-63.25,7.0,14.75,64.701484375,-0.08500000000000002,3.8733739687499997,33.21
2021-06-28 10:35:14.765625000,-63.5,7.0,14.5,64.70046875,-0.46,3.8733339375,33.21
2021-06-28 10:35:14.773437500,-63.75,7.0,14.25,64.699453125,-0.845,3.87329390625,33.21
2021-06-28 10:35:14.781250000,-64.0,7.0,14.0,64.6984375,-1.23,3.873253875,33.21
2021-06-28 10:35:14.789062500,-64.0,7.0,14.0,64.697421875,-1.705,3.87321384375,33.21
2021-06-28 10:35:14.796875000,-64.0,7.0,14.0,64.69640625,-2.18,3.8731738124999997,33.21
2021-06-28 10:35:14.804687500,-64.0,7.0,14.0,64.695390625,-2.785,3.87313378125,33.21
2021-06-28 10:35:14.812500000,-64.0,7.0,14.0,64.69437500000001,-3.39,3.87309375,33.21
2021-06-28 10:35:14.820312500,-63.75,7.0,14.0,64.693359375,-4.11,3.87305371875,33.21
2021-06-28 10:35:14.828125000,-63.5,7.0,14.0,64.69234375,-4.83,3.8730136875,33.21
2021-06-28 10:35:14.835937500,-63.25,7.0,14.0,64.691328125,-5.615,3.8729736562499997,33.21
2021-06-28 10:35:14.843750000,-63.0,7.0,14.0,64.6903125,-6.4,3.872933625,33.21
2021-06-28 10:35:14.851562500,-63.0,7.0,14.0,64.689296875,-7.17,3.8728935937499998,33.21
2021-06-28 10:35:14.859375000,-63.0,7.0,14.0,64.68828125,-7.94,3.8728535625,33.21
2021-06-28 10:35:14.867187500,-63.0,7.0,14.0,64.687265625,-8.66,3.87281353125,33.21
2021-06-28 10:35:14.875000000,-63.0,7.0,14.0,64.68625,-9.38,3.8727735,33.21
2021-06-28 10:35:14.882812500,-63.25,7.0,14.0,64.68523437500001,-10.05,3.87273346875,33.21
2021-06-28 10:35:14.890625000,-63.5,7.0,14.0,64.68421875,-10.72,3.8726934374999997,33.21
2021-06-28 10:35:14.898437500,-63.75,7.0,14.0,64.683203125,-11.379999999999999,3.87265340625,33.21
2021-06-28 10:35:14.906250000,-64.0,7.0,14.0,64.6821875,-12.04,3.872613375,33.21
2021-06-28 10:35:14.914062500,-64.0,7.0,14.0,64.681171875,-12.77,3.87257334375,33.21
2021-06-28 10:35:14.921875000,-64.0,7.0,14.0,64.68015625,-13.5,3.8725333125,33.21
2021-06-28 10:35:14.929687500,-64.0,7.0,14.0,64.679140625,-14.379999999999999,3.8724932812499997,33.21
2021-06-28 10:35:14.937500000,-64.0,7.0,14.0,64.678125,-15.26,3.87245325,33.21
2021-06-28 10:35:14.945312500,-63.75,7.0,14.0,64.677109375,-16.33,3.8724132187499998,33.21
2021-06-28 10:35:14.953125000,-63.5,7.0,14.0,64.67609375,-17.4,3.8723731875,33.21
2021-06-28 10:35:14.960937500,-63.25,7.0,14.0,64.675078125,-18.665,3.87233315625,33.21
2021-06-28 10:35:14.968750000,-63.0,7.0,14.0,64.6740625,-19.93,3.8722931249999997,33.21
2021-06-28 10:35:14.976562500,-63.0,7.0,14.0,64.673046875,-21.295,3.87225309375,33.21
2021-06-28 10:35:14.984375000,-63.0,7.0,14.0,64.67203125,-22.66,3.8722130624999997,33.21
2021-06-28 10:35:14.992187500,-63.0,7.0,14.0,64.671015625,-23.965,3.87217303125,33.21
2021-06-28 10:35:15.000000000,-63.0,7.0,14.0,64.67,-25.27,3.872133,33.21
2021-06-28 10:35:15.007812500,-63.0,7.0,14.0,64.66984375,-26.275,3.8717726875,33.2090625
2021-06-28 10:35:15.015625000,-63.0,7.0,14.0,64.6696875,-27.28,3.871412375,33.208125
2021-06-28 10:35:15.023437500,-63.0,7.0,14.0,64.66953125,-27.725,3.8710520625,33.2071875
2021-06-28 10:35:15.031250000,-63.0,7.0,14.0,64.669375,-28.17,3.8706917499999998,33.20625
2021-06-28 10:35:15.039062500,-63.0,7.0,14.0,64.66921875,-27.865000000000002,3.8703314375,33.2053125
2021-06-28 10:35:15.046875000,-63.0,7.0,14.0,64.6690625,-27.56,3.8699711249999997,33.204375
2021-06-28 10:35:15.054687500,-63.0,7.0,14.0,64.66890625,-26.45,3.8696108125,33.2034375
2021-06-28 10:35:15.062500000,-63.0,7.0,14.0,64.66875,-25.34,3.8692504999999997,33.2025
2021-06-28 10:35:15.070312500,-63.25,7.0,13.75,64.66859375,-23.515,3.8688901875,33.2015625
2021-06-28 10:35:15.078125000,-63.5,7.0,13.5,64.6684375,-21.69,3.8685298749999997,33.200625
2021-06-28 10:35:15.085937500,-63.75,7.0,13.25,64.66828125,-19.4,3.8681695625,33.1996875
2021-06-28 10:35:15.093750000,-64.0,7.0,13.0,64.668125,-17.11,3.8678092499999996,33.198750000000004
2021-06-28 10:35:15.101562500,-64.0,6.75,13.0,64.66796875,-14.635,3.8674489375,33.1978125
2021-06-28 10:35:15.109375000,-64.0,6.5,13.0,64.6678125,-12.16,3.8670886249999996,33.196875
2021-06-28 10:35:15.117187500,-64.0,6.25,13.0,64.66765625000001,-9.754999999999999,3.8667283125,33.1959375
2021-06-28 10:35:15.125000000,-64.0,6.0,13.0,64.6675,-7.35,3.8663679999999996,33.195
2021-06-28 10:35:15.132812500,-64.0,6.25,13.0,64.66734375,-5.17,3.8660076875,33.1940625
2021-06-28 10:35:15.140625000,-64.0,6.5,13.0,64.6671875,-2.99,3.865647375,33.193125
2021-06-28 10:35:15.148437500,-64.0,6.75,13.0,64.66703125000001,-1.06,3.8652870624999998,33.1921875
2021-06-28 10:35:15.156250000,-64.0,7.0,13.0,64.666875,0.87,3.86492675,33.19125
2021-06-28 10:35:15.164062500,-63.75,7.0,13.25,64.66671875,2.6,3.8645664374999997,33.1903125
2021-06-28 10:35:15.171875000,-63.5,7.0,13.5,64.6665625,4.33,3.864206125,33.189375
2021-06-28 10:35:15.179687500,-63.25,7.0,13.75,64.66640625000001,5.91,3.8638458124999997,33.1884375
2021-06-28 10:35:15.187500000,-63.0,7.0,14.0,64.66625,7.49,3.8634855,33.1875
2021-06-28 10:35:15.195312500,-63.25,7.0,14.0,64.66609375,8.965,3.8631251874999997,33.1865625
2021-06-28 10:35:15.203125000,-63.5,7.0,14.0,64.6659375,10.44,3.862764875,33.185625
2021-06-28 10:35:15.210937500,-63.75,7.0,14.0,64.66578125000001,11.78,3.8624045624999996,33.1846875
2021-06-28 10:35:15.218750000,-64.0,7.0,14.0,64.665625,13.12,3.86204425,33.18375
2021-06-28 10:35:15.226562500,-64.0,7.0,14.0,64.66546875,14.28,3.8616839374999996,33.1828125
2021-06-28 10:35:15.234375000,-64.0,7.0,14.0,64.6653125,15.44,3.861323625,33.181875
2021-06-28 10:35:15.242187500,-64.0,7.0,14.0,64.66515625000001,16.365,3.8609633124999996,33.1809375
2021-06-28 10:35:15.250000000,-64.0,7.0,14.0,64.665,17.29,3.860603,33.18
2021-06-28 10:35:15.257812500,-63.75,7.0,14.0,64.66484375,17.955,3.86032275,33.18
2021-06-28 10:35:15.265625000,-63.5,7.0,14.0,64.6646875,18.62,3.8600424999999996,33.18
2021-06-28 10:35:15.273437500,-63.25,7.0,14.0,64.66453125,19.03,3.8597622499999997,33.18
2021-06-28 10:35:15.281250000,-63.0,7.0,14.0,64.664375,19.44,3.859482,33.18
2021-06-28 10:35:15.289062500,-63.25,7.0,13.75,64.66421875,19.634999999999998,3.85920175,33.18
2021-06-28 10:35:15.296875000,-63.5,7.0,13.5,64.6640625,19.83,3.8589214999999997,33.18
2021-06-28 10:35:15.304687500,-63.75,7.0,13.25,64.66390625,19.875,3.85864125,33.18
2021-06-28 10:35:15.312500000,-64.0,7.0,13.0,64.66375000000001,19.92,3.858361,33.18
2021-06-28 10:35:15.320312500,-64.0,7.0,13.25,64.66359375,19.895000000000003,3.8580807499999996,33.18
2021-06-28 10:35:15.328125000,-64.0,7.0,13.5,64.6634375,19.87,3.8578004999999997,33.18
2021-06-28 10:35:15.335937500,-64.0,7.0,13.75,64.66328125,19.855,3.85752025,33.18
2021-06-28 10:35:15.343750000,-64.0,7.0,14.0,64.66312500000001,19.84,3.85724,33.18
2021-06-28 10:35:15.351562500,-64.0,6.75,14.0,64.66296875,19.875,3.8569597499999997,33.18
2021-06-28 10:35:15.359375000,-64.0,6.5,14.0,64.6628125,19.91,3.8566795,33.18
2021-06-28 10:35:15.367187500,-64.0,6.25,14.0,64.66265625,20.025,3.85639925,33.18
2021-06-28 10:35:15.375000000,-64.0,6.0,14.0,64.66250000000001,20.14,3.8561189999999996,33.18
2021-06-28 10:35:15.382812500,-64.0,6.25,13.75,64.66234375,20.310000000000002,3.8558387499999998,33.18
2021-06-28 10:35:15.390625000,-64.0,6.5,13.5,64.6621875,20.48,3.8555585,33.18
2021-06-28 10:35:15.398437500,-64.0,6.75,13.25,64.66203125,20.67,3.85527825,33.18
2021-06-28 10:35:15.406250000,-64.0,7.0,13.0,64.66187500000001,20.86,3.8549979999999997,33.18
2021-06-28 10:35:15.414062500,-63.75,7.0,13.25,64.66171875,21.02,3.85471775,33.18
2021-06-28 10:35:15.421875000,-63.5,7.0,13.5,64.6615625,21.18,3.8544375,33.18
2021-06-28 10:35:15.429687500,-63.25,7.0,13.75,64.66140625,21.285,3.85415725,33.18
2021-06-28 10:35:15.437500000,-63.0,7.0,14.0,64.66125000000001,21.39,3.8538769999999998,33.18
2021-06-28 10:35:15.445312500,-63.25,7.0,13.75,64.66109375,21.42,3.85359675,33.18
2021-06-28 10:35:15.453125000,-63.5,7.0,13.5,64.6609375,21.45,3.8533165,33.18
2021-06-28 10:35:15.460937500,-63.75,7.0,13.25,64.66078125,21.415,3.8530362499999997,33.18
2021-06-28 10:35:15.468750000,-64.0,7.0,13.0,64.66062500000001,21.38,3.852756,33.18
2021-06-28 10:35:15.476562500,-63.75,7.0,13.25,64.66046875,21.259999999999998,3.85247575,33.18
2021-06-28 10:35:15.484375000,-63.5,7.0,13.5,64.6603125,21.14,3.8521955,33.18
2021-06-28 10:35:15.492187500,-63.25,7.0,13.75,64.66015625,20.9,3.85191525,33.18
2021-06-28 10:35:15.500000000,-63.0,7.0,14.0,64.66,20.66,3.851635,33.18
2021-06-28 10:35:15.507812500,-63.25,6.75,14.0,64.65984375000001,20.27,3.85143484375,33.18
2021-06-28 10:35:15.515625000,-63.5,6.5,14.0,64.6596875,19.88,3.8512346875,33.18
2021-06-28 10:35:15.523437500,-63.75,6.25,14.0,64.65953125,19.295,3.85103453125,33.18
2021-06-28 10:35:15.531250000,-64.0,6.0,14.0,64.659375,18.71,3.850834375,33.18
2021-06-28 10:35:15.539062500,-64.0,6.0,13.5,64.65921875000001,17.92,3.85063421875,33.18
2021-06-28 10:35:15.546875000,-64.0,6.0,13.0,64.6590625,17.13,3.8504340624999998,33.18
2021-06-28 10:35:15.554687500,-64.0,6.0,12.5,64.65890625,16.15,3.8502339062499997,33.18
2021-06-28 10:35:15.562500000,-64.0,6.0,12.0,64.65875,15.17,3.8500337499999997,33.18
2021-06-28 10:35:15.570312500,-64.0,6.0,12.25,64.65859375000001,14.02,3.84983359375,33.18
2021-06-28 10:35:15.578125000,-64.0,6.0,12.5,64.6584375,12.87,3.8496334375,33.18
2021-06-28 10:35:15.585937500,-64.0,6.0,12.75,64.65828125,11.575,3.84943328125,33.18
2021-06-28 10:35:15.593750000,-64.0,6.0,13.0,64.658125,10.28,3.849233125,33.18
2021-06-28 10:35:15.601562500,-63.75,6.25,13.25,64.65796875000001,8.875,3.84903296875,33.18
2021-06-28 10:35:15.609375000,-63.5,6.5,13.5,64.6578125,7.47,3.8488328125,33.18
2021-06-28 10:35:15.617187500,-63.25,6.75,13.75,64.65765625,5.97,3.84863265625,33.18
2021-06-28 10:35:15.625000000,-63.0,7.0,14.0,64.6575,4.47,3.8484325,33.18
2021-06-28 10:35:15.632812500,-63.0,7.0,14.0,64.65734375000001,2.91,3.84823234375,33.18
2021-06-28 10:35:15.640625000,-63.0,7.0,14.0,64.6571875,1.35,3.8480321875,33.18
2021-06-28 10:35:15.648437500,-63.0,7.0,14.0,64.65703125,-0.20999999999999996,3.84783203125,33.18
2021-06-28 10:35:15.656250000,-63.0,7.0,14.0,64.656875,-1.77,3.847631875,33.18
2021-06-28 10:35:15.664062500,-63.25,7.0,13.75,64.65671875000001,-3.24,3.84743171875,33.18
2021-06-28 10:35:15.671875000,-63.5,7.0,13.5,64.6565625,-4.71,3.8472315624999998,33.18
2021-06-28 10:35:15.679687500,-63.75,7.0,13.25,64.65640625,-6.025,3.8470314062499997,33.18
2021-06-28 10:35:15.687500000,-64.0,7.0,13.0,64.65625,-7.34,3.84683125,33.18
2021-06-28 10:35:15.695312500,-64.0,7.0,13.0,64.65609375000001,-8.465,3.84663109375,33.18
2021-06-28 10:35:15.703125000,-64.0,7.0,13.0,64.65593750000001,-9.59,3.8464309375,33.18
2021-06-28 10:35:15.710937500,-64.0,7.0,13.0,64.65578125,-10.555,3.84623078125,33.18
2021-06-28 10:35:15.718750000,-64.0,7.0,13.0,64.655625,-11.52,3.846030625,33.18
2021-06-28 10:35:15.726562500,-63.75,7.0,13.25,64.65546875000001,-12.399999999999999,3.84583046875,33.18
2021-06-28 10:35:15.734375000,-63.5,7.0,13.5,64.65531250000001,-13.28,3.8456303125,33.18
2021-06-28 10:35:15.742187500,-63.25,7.0,13.75,64.65515625,-14.16,3.84543015625,33.18
2021-06-28 10:35:15.750000000,-63.0,7.0,14.0,64.655,-15.04,3.84523,33.18
2021-06-28 10:35:15.757812500,-63.25,7.0,14.0,64.65484375,-15.969999999999999,3.8450698437499997,33.18
2021-06-28 10:35:15.765625000,-63.5,7.0,14.0,64.65468750000001,-16.9,3.8449096875,33.18
2021-06-28 10:35:15.773437500,-63.75,7.0,14.0,64.65453125,-17.86,3.8447495312499997,33.18
2021-06-28 10:35:15.781250000,-64.0,7.0,14.0,64.654375,-18.82,3.844589375,33.18
2021-06-28 10:35:15.789062500,-64.0,7.0,14.0,64.65421875,-19.75,3.8444292187499998,33.18
2021-06-28 10:35:15.796875000,-64.0,7.0,14.0,64.65406250000001,-20.68,3.8442690625,33.18
2021-06-28 10:35:15.804687500,-64.0,7.0,14.0,64.65390625,-21.515,3.84410890625,33.18
2021-06-28 10:35:15.812500000,-64.0,7.0,14.0,64.65375,-22.35,3.84394875,33.18
2021-06-28 10:35:15.820312500,-63.75,7.0,14.0,64.65359375,-23.060000000000002,3.84378859375,33.18
2021-06-28 10:35:15.828125000,-63.5,7.0,14.0,64.65343750000001,-23.77,3.8436284375,33.18
2021-06-28 10:35:15.835937500,-63.25,7.0,14.0,64.65328125,-24.369999999999997,3.84346828125,33.18
2021-06-28 10:35:15.843750000,-63.0,7.0,14.0,64.653125,-24.97,3.843308125,33.18
2021-06-28 10:35:15.851562500,-63.25,6.75,14.0,64.65296875,-25.509999999999998,3.84314796875,33.18
2021-06-28 10:35:15.859375000,-63.5,6.5,14.0,64.65281250000001,-26.05,3.8429878125,33.18
2021-06-28 10:35:15.867187500,-63.75,6.25,14.0,64.65265625,-26.575000000000003,3.84282765625,33.18
2021-06-28 10:35:15.875000000,-64.0,6.0,14.0,64.6525,-27.1,3.8426675,33.18
2021-06-28 10:35:15.882812500,-64.0,6.0,14.0,64.65234375,-27.66,3.84250734375,33.18
2021-06-28 10:35:15.890625000,-64.0,6.0,14.0,64.65218750000001,-28.22,3.8423471874999997,33.18
2021-06-28 10:35:15.898437500,-64.0,6.0,14.0,64.65203125000001,-28.84,3.84218703125,33.18
2021-06-28 10:35:15.906250000,-64.0,6.0,14.0,64.651875,-29.46,3.8420268749999997,33.18
2021-06-28 10:35:15.914062500,-64.0,6.25,13.75,64.65171875,-30.185000000000002,3.84186671875,33.18
2021-06-28 10:35:15.921875000,-64.0,6.5,13.5,64.65156250000001,-30.91,3.8417065624999998,33.18
2021-06-28 10:35:15.929687500,-64.0,6.75,13.25,64.65140625000001,-31.770000000000003,3.84154640625,33.18
2021-06-28 10:35:15.937500000,-64.0,7.0,13.0,64.65125,-32.63,3.84138625,33.18
2021-06-28 10:35:15.945312500,-64.0,7.0,13.25,64.65109375,-33.620000000000005,3.84122609375,33.18
2021-06-28 10:35:15.953125000,-64.0,7.0,13.5,64.65093750000001,-34.61,3.8410659375,33.18
2021-06-28 10:35:15.960937500,-64.0,7.0,13.75,64.65078125000001,-35.605000000000004,3.84090578125,33.18
2021-06-28 10:35:15.968750000,-64.0,7.0,14.0,64.650625,-36.6,3.840745625,33.18
2021-06-28 10:35:15.976562500,-64.0,7.0,14.0,64.65046875,-37.379999999999995,3.84058546875,33.18
2021-06-28 10:35:15.984375000,-64.0,7.0,14.0,64.65031250000001,-38.16,3.8404253125,33.18
2021-06-28 10:35:15.992187500,-64.0,7.0,14.0,64.65015625000001,-38.44,3.84026515625,33.18
2021-06-28 10:35:16.000000000,-64.0,7.0,14.0,64.65,-38.72,3.840105,33.18
2021-06-28 10:35:16.007812500,-63.75,7.0,14.0,64.64960937500001,-38.25,3.83990484375,33.1809375
2021-06-28 10:35:16.015625000,-63.5,7.0,14.0,64.64921875,-37.78,3.8397046875,33.181875
2021-06-28 10:35:16.023437500,-63.25,7.0,14.0,64.64882812500001,-36.43,3.83950453125,33.1828125
2021-06-28 10:35:16.031250000,-63.0,7.0,14.0,64.6484375,-35.08,3.8393043749999998,33.18375
2021-06-28 10:35:16.039062500,-63.25,7.0,13.75,64.648046875,-32.905,3.8391042187499997,33.1846875
2021-06-28 10:35:16.046875000,-63.5,7.0,13.5,64.64765625000001,-30.73,3.8389040624999997,33.185625
2021-06-28 10:35:16.054687500,-63.75,7.0,13.25,64.647265625,-27.915,3.8387039062499997,33.1865625
2021-06-28 10:35:16.062500000,-64.0,7.0,13.0,64.64687500000001,-25.1,3.83850375,33.1875
2021-06-28 10:35:16.070312500,-64.0,7.0,13.25,64.646484375,-21.92,3.83830359375,33.1884375
2021-06-28 10:35:16.078125000,-64.0,7.0,13.5,64.64609375,-18.74,3.8381034375,33.189375
2021-06-28 10:35:16.085937500,-64.0,7.0,13.75,64.64570312500001,-15.485,3.83790328125,33.1903125
2021-06-28 10:35:16.093750000,-64.0,7.0,14.0,64.6453125,-12.23,3.837703125,33.19125
2021-06-28 10:35:16.101562500,-64.0,7.0,13.75,64.64492187500001,-9.125,3.83750296875,33.1921875
2021-06-28 10:35:16.109375000,-64.0,7.0,13.5,64.64453125,-6.02,3.8373028125,33.193125
2021-06-28 10:35:16.117187500,-64.0,7.0,13.25,64.644140625,-3.21,3.83710265625,33.1940625
2021-06-28 10:35:16.125000000,-64.0,7.0,13.0,64.64375000000001,-0.4,3.8369025,33.195
2021-06-28 10:35:16.132812500,-63.75,7.0,13.25,64.643359375,2.0300000000000002,3.83670234375,33.1959375
2021-06-28 10:35:16.140625000,-63.5,7.0,13.5,64.64296875000001,4.46,3.8365021875,33.196875
2021-06-28 10:35:16.148437500,-63.25,7.0,13.75,64.642578125,6.52,3.83630203125,33.1978125
2021-06-28 10:35:16.156250000,-63.0,7.0,14.0,64.6421875,8.58,3.8361018749999998,33.198750000000004
2021-06-28 10:35:16.164062500,-63.0,7.0,14.0,64.641796875,10.305,3.8359017187499997,33.1996875
2021-06-28 10:35:16.171875000,-63.0,7.0,14.0,64.64140625,12.03,3.8357015624999997,33.200625
2021-06-28 10:35:16.179687500,-63.0,7.0,14.0,64.64101562500001,13.485,3.8355014062499997,33.2015625
2021-06-28 10:35:16.187500000,-63.0,7.0,14.0,64.640625,14.94,3.8353012499999997,33.2025
2021-06-28 10:35:16.195312500,-63.25,7.0,14.0,64.640234375,16.169999999999998,3.83510109375,33.2034375
2021-06-28 10:35:16.203125000,-63.5,7.0,14.0,64.63984375,17.4,3.8349009375,33.204375
2021-06-28 10:35:16.210937500,-63.75,7.0,14.0,64.639453125,18.405,3.83470078125,33.2053125
2021-06-28 10:35:16.218750000,-64.0,7.0,14.0,64.63906250000001,19.41,3.834500625,33.20625
2021-06-28 10:35:16.226562500,-64.0,7.0,13.75,64.638671875,20.165,3.83430046875,33.2071875
2021-06-28 10:35:16.234375000,-64.0,7.0,13.5,64.63828125,20.92,3.8341003125,33.208125
2021-06-28 10:35:16.242187500,-64.0,7.0,13.25,64.637890625,21.405,3.83390015625,33.2090625
2021-06-28 10:35:16.250000000,-64.0,7.0,13.0,64.6375,21.89,3.8337,33.21
2021-06-28 10:35:16.257812500,-64.0,7.0,13.0,64.63710937500001,22.105,3.833579875,33.21
2021-06-28 10:35:16.265625000,-64.0,7.0,13.0,64.63671875,22.32,3.83345975,33.21
2021-06-28 10:35:16.273437500,-64.0,7.0,13.0,64.636328125,22.305,3.833339625,33.21
2021-06-28 10:35:16.281250000,-64.0,7.0,13.0,64.6359375,22.29,3.8332195,33.21
2021-06-28 10:35:16.289062500,-64.0,6.75,13.25,64.635546875,22.1,3.8330993749999998,33.21
2021-06-28 10:35:16.296875000,-64.0,6.5,13.5,64.63515625000001,21.91,3.8329792499999997,33.21
2021-06-28 10:35:16.304687500,-64.0,6.25,13.75,64.634765625,21.6,3.8328591249999997,33.21
2021-06-28 10:35:16.312500000,-64.0,6.0,14.0,64.634375,21.29,3.832739,33.21
2021-06-28 10:35:16.320312500,-63.75,6.25,14.0,64.633984375,20.875,3.832618875,33.21
2021-06-28 10:35:16.328125000,-63.5,6.5,14.0,64.63359375,20.46,3.83249875,33.21
2021-06-28 10:35:16.335937500,-63.25,6.75,14.0,64.63320312500001,19.97,3.832378625,33.21
2021-06-28 10:35:16.343750000,-63.0,7.0,14.0,64.6328125,19.48,3.8322585,33.21
2021-06-28 10:35:16.351562500,-63.25,7.0,14.0,64.632421875,18.945,3.832138375,33.21
2021-06-28 10:35:16.359375000,-63.5,7.0,14.0,64.63203125,18.41,3.83201825,33.21
2021-06-28 10:35:16.367187500,-63.75,7.0,14.0,64.631640625,17.89,3.831898125,33.21
2021-06-28 10:35:16.375000000,-64.0,7.0,14.0,64.63125,17.37,3.831778,33.21
2021-06-28 10:35:16.382812500,-64.0,7.0,13.75,64.630859375,16.945,3.831657875,33.21
2021-06-28 10:35:16.390625000,-64.0,7.0,13.5,64.63046875,16.52,3.83153775,33.21
2021-06-28 10:35:16.398437500,-64.0,7.0,13.25,64.630078125,16.215,3.831417625,33.21
2021-06-28 10:35:16.406250000,-64.0,7.0,13.0,64.6296875,15.91,3.8312975,33.21
2021-06-28 10:35:16.414062500,-64.0,7.0,13.25,64.629296875,15.71,3.8311773749999998,33.21
2021-06-28 10:35:16.421875000,-64.0,7.0,13.5,64.62890625,15.51,3.8310572499999997,33.21
2021-06-28 10:35:16.429687500,-64.0,7.0,13.75,64.628515625,15.32,3.8309371249999997,33.21
2021-06-28 10:35:16.437500000,-64.0,7.0,14.0,64.628125,15.13,3.8308169999999997,33.21
2021-06-28 10:35:16.445312500,-63.75,7.0,14.0,64.627734375,14.845,3.830696875,33.21
2021-06-28 10:35:16.453125000,-63.5,7.0,14.0,64.62734375,14.56,3.83057675,33.21
2021-06-28 10:35:16.460937500,-63.25,7.0,14.0,64.626953125,14.11,3.830456625,33.21
2021-06-28 10:35:16.468750000,-63.0,7.0,14.0,64.6265625,13.66,3.8303365,33.21
2021-06-28 10:35:16.476562500,-63.25,7.0,14.0,64.626171875,13.045,3.830216375,33.21
2021-06-28 10:35:16.484375000,-63.5,7.0,14.0,64.62578125,12.43,3.83009625,33.21
2021-06-28 10:35:16.492187500,-63.75,7.0,14.0,64.625390625,11.705,3.829976125,33.21
2021-06-28 10:35:16.500000000,-64.0,7.0,14.0,64.625,10.98,3.829856,33.21
2021-06-28 10:35:16.507812500,-64.0,7.0,14.0,64.624609375,10.245000000000001,3.8297759375,33.21
2021-06-28 10:35:16.515625000,-64.0,7.0,14.0,64.62421875,9.51,3.829695875,33.21
2021-06-28 10:35:16.523437500,-64.0,7.0,14.0,64.623828125,8.844999999999999,3.8296158125,33.21
2021-06-28 10:35:16.531250000,-64.0,7.0,14.0,64.6234375,8.18,3.82953575,33.21
2021-06-28 10:35:16.539062500,-64.0,7.0,14.0,64.623046875,7.625,3.8294556875,33.21
2021-06-28 10:35:16.546875000,-64.0,7.0,14.0,64.62265625,7.07,3.829375625,33.21
2021-06-28 10:35:16.554687500,-64.0,7.0,14.0,64.622265625,6.62,3.8292955625,33.21
2021-06-28 10:35:16.562500000,-64.0,7.0,14.0,64.621875,6.17,3.8292155,33.21
2021-06-28 10:35:16.570312500,-64.0,7.0,14.0,64.621484375,5.805,3.8291354375,33.21
2021-06-28 10:35:16.578125000,-64.0,7.0,14.0,64.62109375,5.44,3.829055375,33.21
2021-06-28 10:35:16.585937500,-64.0,7.0,14.0,64.620703125,5.105,3.8289753125,33.21
2021-06-28 10:35:16.593750000,-64.0,7.0,14.0,64.6203125,4.77,3.82889525,33.21
2021-06-28 10:35:16.601562500,-63.75,7.0,14.0,64.619921875,4.414999999999999,3.8288151875,33.21
2021-06-28 10:35:16.609375000,-63.5,7.0,14.0,64.61953125,4.06,3.828735125,33.21
2021-06-28 10:35:16.617187500,-63.25,7.0,14.0,64.619140625,3.61,3.8286550625,33.21
2021-06-28 10:35:16.625000000,-63.0,7.0,14.0,64.61875,3.16,3.828575,33.21
2021-06-28 10:35:16.632812500,-63.0,7.0,14.0,64.618359375,2.58,3.8284949375,33.21
2021-06-28 10:35:16.640625000,-63.0,7.0,14.0,64.61796875,2.0,3.828414875,33.21
2021-06-28 10:35:16.648437500,-63.0,7.0,14.0,64.617578125,1.27,3.8283348125,33.21
2021-06-28 10:35:16.656250000,-63.0,7.0,14.0,64.6171875,0.54,3.82825475,33.21
2021-06-28 10:35:16.664062500,-63.25,7.0,14.0,64.61679687499999,-0.29000000000000004,3.8281746875000002,33.21
2021-06-28 10:35:16.671875000,-63.5,7.0,14.0,64.61640625,-1.12,3.8280946250000003,33.21
2021-06-28 10:35:16.679687500,-63.75,7.0,14.0,64.616015625,-1.975,3.8280145625,33.21
2021-06-28 10:35:16.687500000,-64.0,7.0,14.0,64.615625,-2.83,3.8279345,33.21
2021-06-28 10:35:16.695312500,-64.0,7.0,14.0,64.615234375,-3.665,3.8278544375,33.21
2021-06-28 10:35:16.703125000,-64.0,7.0,14.0,64.61484374999999,-4.5,3.827774375,33.21
2021-06-28 10:35:16.710937500,-64.0,7.0,14.0,64.614453125,-5.3100000000000005,3.8276943125000003,33.21
2021-06-28 10:35:16.718750000,-64.0,7.0,14.0,64.6140625,-6.12,3.8276142500000003,33.21
2021-06-28 10:35:16.726562500,-64.0,7.0,14.0,64.613671875,-6.95,3.8275341875,33.21
2021-06-28 10:35:16.734375000,-64.0,7.0,14.0,64.61328125,-7.78,3.827454125,33.21
2021-06-28 10:35:16.742187500,-64.0,7.0,14.0,64.61289062499999,-8.7,3.8273740625,33.21
2021-06-28 10:35:16.750000000,-64.0,7.0,14.0,64.6125,-9.62,3.827294,33.21
2021-06-28 10:35:16.757812500,-63.75,7.0,14.0,64.612109375,-10.655,3.82869521875,33.21
2021-06-28 10:35:16.765625000,-63.5,7.0,14.0,64.61171875,-11.69,3.8300964375,33.21
2021-06-28 10:35:16.773437500,-63.25,7.0,14.0,64.611328125,-12.785,3.8314976562500003,33.21
2021-06-28 10:35:16.781250000,-63.0,7.0,14.0,64.61093749999999,-13.88,3.832898875,33.21
2021-06-28 10:35:16.789062500,-63.0,7.0,14.0,64.610546875,-14.91,3.83430009375,33.21
2021-06-28 10:35:16.796875000,-63.0,7.0,14.0,64.61015625,-15.94,3.8357013125000003,33.21
2021-06-28 10:35:16.804687500,-63.0,7.0,14.0,64.609765625,-16.755,3.8371025312500002,33.21
2021-06-28 10:35:16.812500000,-63.0,7.0,14.0,64.609375,-17.57,3.83850375,33.21
2021-06-28 10:35:16.820312500,-63.0,7.0,14.0,64.60898437499999,-18.105,3.83990496875,33.21
2021-06-28 10:35:16.828125000,-63.0,7.0,14.0,64.60859375,-18.64,3.8413061875,33.21
2021-06-28 10:35:16.835937500,-63.0,7.0,14.0,64.608203125,-18.884999999999998,3.84270740625,33.21
2021-06-28 10:35:16.843750000,-63.0,7.0,14.0,64.6078125,-19.13,3.844108625,33.21
2021-06-28 10:35:16.851562500,-63.25,7.0,14.0,64.607421875,-19.185,3.84550984375,33.21
2021-06-28 10:35:16.859375000,-63.5,7.0,14.0,64.60703124999999,-19.24,3.8469110625000003,33.21
2021-06-28 10:35:16.867187500,-63.75,7.0,14.0,64.606640625,-19.225,3.84831228125,33.21
2021-06-28 10:35:16.875000000,-64.0,7.0,14.0,64.60624999999999,-19.21,3.8497135,33.21
2021-06-28 10:35:16.882812500,-63.75,7.0,14.0,64.605859375,-19.245,3.85111471875,33.21
2021-06-28 10:35:16.890625000,-63.5,7.0,14.0,64.60546875,-19.28,3.8525159374999998,33.21
2021-06-28 10:35:16.898437500,-63.25,7.0,14.0,64.60507812499999,-19.455,3.85391715625,33.21
2021-06-28 10:35:16.906250000,-63.0,7.0,14.0,64.6046875,-19.63,3.855318375,33.21
2021-06-28 10:35:16.914062500,-63.0,7.0,14.0,64.60429687499999,-20.005,3.85671959375,33.21
2021-06-28 10:35:16.921875000,-63.0,7.0,14.0,64.60390625,-20.38,3.8581208125,33.21
2021-06-28 10:35:16.929687500,-63.0,7.0,14.0,64.603515625,-20.990000000000002,3.85952203125,33.21
2021-06-28 10:35:16.937500000,-63.0,7.0,14.0,64.60312499999999,-21.6,3.86092325,33.21
2021-06-28 10:35:16.945312500,-63.0,7.0,14.0,64.602734375,-22.405,3.86232446875,33.21
2021-06-28 10:35:16.953125000,-63.0,7.0,14.0,64.60234374999999,-23.21,3.8637256874999997,33.21
2021-06-28 10:35:16.960937500,-63.0,7.0,14.0,64.601953125,-24.095,3.86512690625,33.21
2021-06-28 10:35:16.968750000,-63.0,7.0,14.0,64.6015625,-24.98,3.866528125,33.21
2021-06-28 10:35:16.976562500,-63.25,6.75,14.0,64.60117187499999,-25.705,3.8679293437499997,33.21
2021-06-28 10:35:16.984375000,-63.5,6.5,14.0,64.60078125,-26.43,3.8693305625,33.21
2021-06-28 10:35:16.992187500,-63.75,6.25,14.0,64.60039062499999,-26.72,3.87073178125,33.21
2021-06-28 10:35:17.000000000,-64.0,6.0,14.0,64.6,-27.01,3.872133,33.21
2021-06-28 10:35:17.007812500,-63.75,6.25,14.25,64.599609375,-26.590000000000003,3.87509553125,33.21
2021-06-28 10:35:17.015625000,-63.5,6.5,14.5,64.59921874999999,-26.17,3.8780580625,33.21
2021-06-28 10:35:17.023437500,-63.25,6.75,14.75,64.598828125,-24.9,3.8810205937499997,33.21
2021-06-28 10:35:17.031250000,-63.0,7.0,15.0,64.59843749999999,-23.63,3.883983125,33.21
2021-06-28 10:35:17.039062500,-63.0,7.0,14.75,64.598046875,-21.53,3.88694565625,33.21
2021-06-28 10:35:17.046875000,-63.0,7.0,14.5,64.59765625,-19.43,3.8899081874999997,33.21
2021-06-28 10:35:17.054687500,-63.0,7.0,14.25,64.59726562499999,-16.689999999999998,3.89287071875,33.21
2021-06-28 10:35:17.062500000,-63.0,7.0,14.0,64.596875,-13.95,3.89583325,33.21
2021-06-28 10:35:17.070312500,-63.0,7.0,14.0,64.59648437499999,-10.885,3.89879578125,33.21
2021-06-28 10:35:17.078125000,-63.0,7.0,14.0,64.59609375,-7.82,3.9017583125,33.21
2021-06-28 10:35:17.085937500,-63.0,7.0,14.0,64.595703125,-4.73,3.90472084375,33.21
2021-06-28 10:35:17.093750000,-63.0,7.0,14.0,64.59531249999999,-1.64,3.907683375,33.21
2021-06-28 10:35:17.101562500,-63.0,7.0,14.0,64.594921875,1.215,3.91064590625,33.21
2021-06-28 10:35:17.109375000,-63.0,7.0,14.0,64.59453124999999,4.07,3.9136084374999998,33.21
2021-06-28 10:35:17.117187500,-63.0,7.0,14.0,64.594140625,6.555,3.91657096875,33.21
2021-06-28 10:35:17.125000000,-63.0,7.0,14.0,64.59375,9.04,3.9195335,33.21
2021-06-28 10:35:17.132812500,-63.0,7.0,14.0,64.59335937499999,11.09,3.92249603125,33.21
2021-06-28 10:35:17.140625000,-63.0,7.0,14.0,64.59296875,13.14,3.9254585625000002,33.21
2021-06-28 10:35:17.148437500,-63.0,7.0,14.0,64.59257812499999,14.780000000000001,3.92842109375,33.21
2021-06-28 10:35:17.156250000,-63.0,7.0,14.0,64.5921875,16.42,3.931383625,33.21
2021-06-28 10:35:17.164062500,-63.25,7.0,14.0,64.591796875,17.685000000000002,3.93434615625,33.21
2021-06-28 10:35:17.171875000,-63.5,7.0,14.0,64.59140624999999,18.95,3.9373086875,33.21
2021-06-28 10:35:17.179687500,-63.75,7.0,14.0,64.591015625,19.895,3.94027121875,33.21
2021-06-28 10:35:17.187500000,-64.0,7.0,14.0,64.59062499999999,20.84,3.94323375,33.21
2021-06-28 10:35:17.195312500,-64.0,7.0,14.0,64.590234375,21.509999999999998,3.94619628125,33.21
2021-06-28 10:35:17.203125000,-64.0,7.0,14.0,64.58984375,22.18,3.9491588125000003,33.21
2021-06-28 10:35:17.210937500,-64.0,7.0,14.0,64.58945312499999,22.585,3.95212134375,33.21
2021-06-28 10:35:17.218750000,-64.0,7.0,14.0,64.5890625,22.99,3.955083875,33.21
2021-06-28 10:35:17.226562500,-63.75,7.0,14.0,64.58867187499999,23.14,3.9580464062500003,33.21
2021-06-28 10:35:17.234375000,-63.5,7.0,14.0,64.58828125,23.29,3.9610089375,33.21
2021-06-28 10:35:17.242187500,-63.25,7.0,14.0,64.587890625,23.189999999999998,3.96397146875,33.21
2021-06-28 10:35:17.250000000,-63.0,7.0,14.0,64.58749999999999,23.09,3.966934,33.21
2021-06-28 10:35:17.257812500,-63.0,7.0,14.0,64.587109375,22.78,3.9704970625000002,33.21
2021-06-28 10:35:17.265625000,-63.0,7.0,14.0,64.58671874999999,22.47,3.9740601250000003,33.21
2021-06-28 10:35:17.273437500,-63.0,7.0,14.0,64.586328125,22.0,3.9776231875000003,33.21
2021-06-28 10:35:17.281250000,-63.0,7.0,14.0,64.5859375,21.53,3.9811862500000004,33.21
2021-06-28 10:35:17.289062500,-63.25,7.0,14.0,64.58554687499999,20.96,3.9847493125,33.21
2021-06-28 10:35:17.296875000,-63.5,7.0,14.0,64.58515625,20.39,3.988312375,33.21
2021-06-28 10:35:17.304687500,-63.75,7.0,14.0,64.58476562499999,19.78,3.9918754375,33.21
2021-06-28 10:35:17.312500000,-64.0,7.0,14.0,64.584375,19.17,3.9954385,33.21
2021-06-28 10:35:17.320312500,-64.0,7.0,14.0,64.583984375,18.565,3.9990015625,33.21
2021-06-28 10:35:17.328125000,-64.0,7.0,14.0,64.58359374999999,17.96,4.002564625,33.21
2021-06-28 10:35:17.335937500,-64.0,7.0,14.0,64.583203125,17.405,4.0061276875,33.21
2021-06-28 10:35:17.343750000,-64.0,7.0,14.0,64.58281249999999,16.85,4.00969075,33.21
2021-06-28 10:35:17.351562500,-63.75,7.0,14.0,64.582421875,16.395,4.0132538125,33.21
2021-06-28 10:35:17.359375000,-63.5,7.0,14.0,64.58203125,15.94,4.016816875,33.21
2021-06-28 10:35:17.367187500,-63.25,7.0,14.0,64.58164062499999,15.635,4.0203799375000004,33.21
2021-06-28 10:35:17.375000000,-63.0,7.0,14.0,64.58125,15.33,4.023943,33.21
2021-06-28 10:35:17.382812500,-63.0,7.0,14.0,64.58085937499999,15.205,4.0275060625,33.21
2021-06-28 10:35:17.390625000,-63.0,7.0,14.0,64.58046875,15.08,4.031069125,33.21
2021-06-28 10:35:17.398437500,-63.0,7.0,14.0,64.580078125,15.129999999999999,4.0346321875,33.21
2021-06-28 10:35:17.406250000,-63.0,7.0,14.0,64.57968749999999,15.18,4.03819525,33.21
2021-06-28 10:35:17.414062500,-63.25,7.0,14.0,64.579296875,15.309999999999999,4.0417583125,33.21
2021-06-28 10:35:17.421875000,-63.5,7.0,14.0,64.57890624999999,15.44,4.045321375,33.21
2021-06-28 10:35:17.429687500,-63.75,7.0,14.0,64.578515625,15.524999999999999,4.0488844375,33.21
2021-06-28 10:35:17.437500000,-64.0,7.0,14.0,64.578125,15.61,4.0524474999999995,33.21
2021-06-28 10:35:17.445312500,-64.0,7.0,14.0,64.57773437499999,15.485,4.0560105625,33.21
2021-06-28 10:35:17.453125000,-64.0,7.0,14.0,64.57734375,15.36,4.059573625,33.21
2021-06-28 10:35:17.460937500,-64.0,7.0,14.0,64.57695312499999,14.925,4.0631366875,33.21
2021-06-28 10:35:17.468750000,-64.0,7.0,14.0,64.5765625,14.49,4.06669975,33.21
2021-06-28 10:35:17.476562500,-63.75,7.0,14.0,64.576171875,13.74,4.0702628125,33.21
2021-06-28 10:35:17.484375000,-63.5,7.0,14.0,64.57578124999999,12.99,4.073825875,33.21
2021-06-28 10:35:17.492187500,-63.25,7.0,14.0,64.575390625,11.975000000000001,4.0773889375,33.21
2021-06-28 10:35:17.500000000,-63.0,7.0,14.0,64.57499999999999,10.96,4.080952,33.21
2021-06-28 10:35:17.507812500,-63.25,7.0,14.0,64.574609375,9.815000000000001,4.08483534375,33.21
2021-06-28 10:35:17.515625000,-63.5,7.0,14.0,64.57421875,8.67,4.0887186875,33.21
2021-06-28 10:35:17.523437500,-63.75,7.0,14.0,64.57382812499999,7.51,4.09260203125,33.21
2021-06-28 10:35:17.531250000,-64.0,7.0,14.0,64.5734375,6.35,4.096485375,33.21
2021-06-28 10:35:17.539062500,-63.75,7.0,14.25,64.573046875,5.265,4.1003687187499995,33.21
2021-06-28 10:35:17.546875000,-63.5,7.0,14.5,64.57265625,4.18,4.1042520625,33.21
2021-06-28 10:35:17.554687500,-63.25,7.0,14.75,64.572265625,3.2299999999999995,4.10813540625,33.21
2021-06-28 10:35:17.562500000,-63.0,7.0,15.0,64.57187499999999,2.28,4.11201875,33.21
2021-06-28 10:35:17.570312500,-63.0,7.0,15.0,64.571484375,1.48,4.11590209375,33.21
2021-06-28 10:35:17.578125000,-63.0,7.0,15.0,64.57109375,0.68,4.1197854375,33.21
2021-06-28 10:35:17.585937500,-63.0,7.0,15.0,64.570703125,0.010000000000000009,4.12366878125,33.21
2021-06-28 10:35:17.593750000,-63.0,7.0,15.0,64.5703125,-0.66,4.127552124999999,33.21
2021-06-28 10:35:17.601562500,-63.0,7.0,14.75,64.56992187499999,-1.2400000000000002,4.1314354687499995,33.21
2021-06-28 10:35:17.609375000,-63.0,7.0,14.5,64.56953125,-1.82,4.1353188124999996,33.21
2021-06-28 10:35:17.617187500,-63.0,7.0,14.25,64.569140625,-2.35,4.13920215625,33.21
2021-06-28 10:35:17.625000000,-63.0,7.0,14.0,64.56875,-2.88,4.1430855,33.21
2021-06-28 10:35:17.632812500,-63.0,7.0,14.0,64.568359375,-3.3899999999999997,4.14696884375,33.21
2021-06-28 10:35:17.640625000,-63.0,7.0,14.0,64.56796874999999,-3.9,4.1508521875,33.21
2021-06-28 10:35:17.648437500,-63.0,7.0,14.0,64.567578125,-4.395,4.15473553125,33.21
2021-06-28 10:35:17.656250000,-63.0,7.0,14.0,64.5671875,-4.89,4.158618875,33.21
2021-06-28 10:35:17.664062500,-63.25,7.0,14.0,64.566796875,-5.34,4.162502218749999,33.21
2021-06-28 10:35:17.671875000,-63.5,7.0,14.0,64.56640625,-5.79,4.1663855624999995,33.21
2021-06-28 10:35:17.679687500,-63.75,7.0,14.0,64.56601562499999,-6.175,4.17026890625,33.21
2021-06-28 10:35:17.687500000,-64.0,7.0,14.0,64.565625,-6.56,4.17415225,33.21
2021-06-28 10:35:17.695312500,-64.0,7.0,14.25,64.565234375,-6.895,4.17803559375,33.21
2021-06-28 10:35:17.703125000,-64.0,7.0,14.5,64.56484375,-7.23,4.1819189375,33.21
2021-06-28 10:35:17.710937500,-64.0,7.0,14.75,64.564453125,-7.57,4.18580228125,33.21
2021-06-28 10:35:17.718750000,-64.0,7.0,15.0,64.56406249999999,-7.91,4.189685624999999,33.21
2021-06-28 10:35:17.726562500,-63.75,7.0,14.75,64.563671875,-8.32,4.193568968749999,33.21
2021-06-28 10:35:17.734375000,-63.5,7.0,14.5,64.56328125,-8.73,4.197452312499999,33.21
2021-06-28 10:35:17.742187500,-63.25,7.0,14.25,64.562890625,-9.280000000000001,4.2013356562499995,33.21
2021-06-28 10:35:17.750000000,-63.0,7.0,14.0,64.5625,-9.83,4.205219,33.21
2021-06-28 10:35:17.757812500,-63.0,7.0,14.0,64.56210937499999,-10.52,4.2080614375,33.21
2021-06-28 10:35:17.765625000,-63.0,7.0,14.0,64.56171875,-11.21,4.210903875,33.21
2021-06-28 10:35:17.773437500,-63.0,7.0,14.0,64.561328125,-12.005,4.2137463125,33.21
2021-06-28 10:35:17.781250000,-63.0,7.0,14.0,64.5609375,-12.8,4.21658875,33.21
2021-06-28 10:35:17.789062500,-63.0,7.0,14.25,64.560546875,-13.625,4.2194311875,33.21
2021-06-28 10:35:17.796875000,-63.0,7.0,14.5,64.56015624999999,-14.45,4.222273625,33.21
2021-06-28 10:35:17.804687500,-63.0,7.0,14.75,64.559765625,-15.254999999999999,4.2251160625,33.21
2021-06-28 10:35:17.812500000,-63.0,7.0,15.0,64.559375,-16.06,4.2279585,33.21
2021-06-28 10:35:17.820312500,-63.25,7.0,15.0,64.558984375,-16.86,4.2308009375,33.21
2021-06-28 10:35:17.828125000,-63.5,7.0,15.0,64.55859375,-17.66,4.233643375,33.21
2021-06-28 10:35:17.835937500,-63.75,7.0,15.0,64.55820312499999,-18.52,4.2364858125,33.21
2021-06-28 10:35:17.843750000,-64.0,7.0,15.0,64.5578125,-19.38,4.23932825,33.21
2021-06-28 10:35:17.851562500,-64.0,7.0,15.0,64.557421875,-20.395,4.2421706875,33.21
2021-06-28 10:35:17.859375000,-64.0,7.0,15.0,64.55703125,-21.41,4.245013125,33.21
2021-06-28 10:35:17.867187500,-64.0,7.0,15.0,64.556640625,-22.645,4.2478555625,33.21
2021-06-28 10:35:17.875000000,-64.0,7.0,15.0,64.55624999999999,-23.88,4.250698,33.21
2021-06-28 10:35:17.882812500,-63.75,7.0,15.0,64.555859375,-25.275,4.2535404375,33.21
2021-06-28 10:35:17.890625000,-63.5,7.0,15.0,64.55546875,-26.67,4.256382875,33.21
2021-06-28 10:35:17.898437500,-63.25,7.0,15.0,64.555078125,-28.07,4.2592253125,33.21
2021-06-28 10:35:17.906250000,-63.0,7.0,15.0,64.5546875,-29.47,4.26206775,33.21
2021-06-28 10:35:17.914062500,-63.0,7.0,15.0,64.55429687499999,-30.59,4.2649101875,33.21
2021-06-28 10:35:17.921875000,-63.0,7.0,15.0,64.55390625,-31.71,4.267752625,33.21
2021-06-28 10:35:17.929687500,-63.0,7.0,15.0,64.553515625,-32.254999999999995,4.2705950625,33.21
2021-06-28 10:35:17.937500000,-63.0,7.0,15.0,64.553125,-32.8,4.2734375,33.21
2021-06-28 10:35:17.945312500,-63.0,7.0,15.0,64.552734375,-32.545,4.2762799375,33.21
2021-06-28 10:35:17.953125000,-63.0,7.0,15.0,64.55234374999999,-32.29,4.279122375,33.21
2021-06-28 10:35:17.960937500,-63.0,7.0,15.0,64.551953125,-31.16,4.2819648125,33.21
2021-06-28 10:35:17.968750000,-63.0,7.0,15.0,64.5515625,-30.03,4.28480725,33.21
2021-06-28 10:35:17.976562500,-63.0,7.0,15.0,64.551171875,-28.145000000000003,4.2876496875,33.21
2021-06-28 10:35:17.984375000,-63.0,7.0,15.0,64.55078125,-26.26,4.290492125,33.21
2021-06-28 10:35:17.992187500,-63.0,7.0,15.0,64.55039062499999,-23.855,4.2933345625,33.21
2021-06-28 10:35:18.000000000,-63.0,7.0,15.0,64.55,-21.45,4.296177,33.21
2021-06-28 10:35:18.007812500,-63.0,7.0,15.0,64.549453125,-18.84,4.2980185625,33.21
2021-06-28 10:35:18.015625000,-63.0,7.0,15.0,64.54890625,-16.23,4.299860125,33.21
2021-06-28 10:35:18.023437500,-63.0,7.0,15.0,64.548359375,-13.685,4.3017016875000005,33.21
2021-06-28 10:35:18.031250000,-63.0,7.0,15.0,64.54781249999999,-11.14,4.303543250000001,33.21
2021-06-28 10:35:18.039062500,-63.0,7.0,15.0,64.547265625,-8.84,4.3053848125,33.21
2021-06-28 10:35:18.046875000,-63.0,7.0,15.0,64.54671875,-6.54,4.307226375,33.21
2021-06-28 10:35:18.054687500,-63.0,7.0,15.0,64.546171875,-4.57,4.3090679375,33.21
2021-06-28 10:35:18.062500000,-63.0,7.0,15.0,64.545625,-2.6,4.3109095,33.21
2021-06-28 10:35:18.070312500,-63.0,7.0,15.0,64.545078125,-0.9450000000000001,4.3127510625,33.21
2021-06-28 10:35:18.078125000,-63.0,7.0,15.0,64.54453124999999,0.71,4.314592625,33.21
2021-06-28 10:35:18.085937500,-63.0,7.0,15.0,64.543984375,2.115,4.3164341875000005,33.21
2021-06-28 10:35:18.093750000,-63.0,7.0,15.0,64.5434375,3.52,4.31827575,33.21
2021-06-28 10:35:18.101562500,-63.0,7.0,15.0,64.542890625,4.75,4.3201173125,33.21
2021-06-28 10:35:18.109375000,-63.0,7.0,15.0,64.54234375,5.98,4.321958875,33.21
2021-06-28 10:35:18.117187500,-63.0,7.0,15.0,64.541796875,7.115,4.3238004375,33.21
2021-06-28 10:35:18.125000000,-63.0,7.0,15.0,64.54124999999999,8.25,4.325642,33.21
2021-06-28 10:35:18.132812500,-63.0,7.0,15.0,64.540703125,9.305,4.3274835625,33.21
2021-06-28 10:35:18.140625000,-63.0,7.0,15.0,64.54015625,10.36,4.329325125,33.21
2021-06-28 10:35:18.148437500,-63.0,7.0,15.0,64.539609375,11.309999999999999,4.331166687500001,33.21
2021-06-28 10:35:18.156250000,-63.0,7.0,15.0,64.5390625,12.26,4.333008250000001,33.21
2021-06-28 10:35:18.164062500,-63.0,7.0,15.0,64.538515625,13.055,4.3348498125,33.21
2021-06-28 10:35:18.171875000,-63.0,7.0,15.0,64.53796875,13.85,4.336691375,33.21
2021-06-28 10:35:18.179687500,-63.0,7.0,15.0,64.53742187499999,14.44,4.3385329375,33.21
2021-06-28 10:35:18.187500000,-63.0,7.0,15.0,64.536875,15.03,4.3403745,33.21
2021-06-28 10:35:18.195312500,-63.0,7.0,14.75,64.536328125,15.42,4.3422160625,33.21
2021-06-28 10:35:18.203125000,-63.0,7.0,14.5,64.53578125,15.81,4.3440576250000005,33.21
2021-06-28 10:35:18.210937500,-63.0,7.0,14.25,64.535234375,16.06,4.345899187500001,33.21
2021-06-28 10:35:18.218750000,-63.0,7.0,14.0,64.5346875,16.31,4.34774075,33.21
2021-06-28 10:35:18.226562500,-63.0,7.0,14.0,64.53414062499999,16.52,4.3495823125,33.21
2021-06-28 10:35:18.234375000,-63.0,7.0,14.0,64.53359375,16.73,4.351423875,33.21
2021-06-28 10:35:18.242187500,-63.0,7.0,14.0,64.533046875,16.98,4.3532654375,33.21
2021-06-28 10:35:18.250000000,-63.0,7.0,14.0,64.5325,17.23,4.355107,33.21
2021-06-28 10:35:18.257812500,-63.0,7.0,14.25,64.531953125,17.54,4.3559877812500005,33.21
2021-06-28 10:35:18.265625000,-63.0,7.0,14.5,64.53140625,17.85,4.3568685625,33.21
2021-06-28 10:35:18.273437500,-63.0,7.0,14.75,64.530859375,18.200000000000003,4.35774934375,33.21
2021-06-28 10:35:18.281250000,-63.0,7.0,15.0,64.5303125,18.55,4.358630125,33.21
2021-06-28 10:35:18.289062500,-63.0,7.0,15.0,64.529765625,18.9,4.359510906250001,33.21
2021-06-28 10:35:18.296875000,-63.0,7.0,15.0,64.52921875,19.25,4.3603916875,33.21
2021-06-28 10:35:18.304687500,-63.0,7.0,15.0,64.528671875,19.564999999999998,4.36127246875,33.21
2021-06-28 10:35:18.312500000,-63.0,7.0,15.0,64.528125,19.88,4.36215325,33.21
2021-06-28 10:35:18.320312500,-63.25,7.0,14.75,64.527578125,20.15,4.36303403125,33.21
2021-06-28 10:35:18.328125000,-63.5,7.0,14.5,64.52703125,20.42,4.3639148125,33.21
2021-06-28 10:35:18.335937500,-63.75,7.0,14.25,64.526484375,20.62,4.36479559375,33.21
2021-06-28 10:35:18.343750000,-64.0,7.0,14.0,64.5259375,20.82,4.3656763750000005,33.21
2021-06-28 10:35:18.351562500,-63.75,7.0,14.25,64.525390625,20.915,4.36655715625,33.21
2021-06-28 10:35:18.359375000,-63.5,7.0,14.5,64.52484375,21.01,4.3674379375,33.21
2021-06-28 10:35:18.367187500,-63.25,7.0,14.75,64.524296875,20.935000000000002,4.36831871875,33.21
2021-06-28 10:35:18.375000000,-63.0,7.0,15.0,64.52375,20.86,4.369199500000001,33.21
2021-06-28 10:35:18.382812500,-63.0,7.25,15.0,64.523203125,20.54,4.37008028125,33.21
2021-06-28 10:35:18.390625000,-63.0,7.5,15.0,64.52265625,20.22,4.3709610625,33.21
2021-06-28 10:35:18.398437500,-63.0,7.75,15.0,64.522109375,19.645,4.37184184375,33.21
2021-06-28 10:35:18.406250000,-63.0,8.0,15.0,64.5215625,19.07,4.372722625,33.21
2021-06-28 10:35:18.414062500,-63.25,7.75,14.75,64.521015625,18.295,4.37360340625,33.21
2021-06-28 10:35:18.421875000,-63.5,7.5,14.5,64.52046875,17.52,4.3744841875,33.21
2021-06-28 10:35:18.429687500,-63.75,7.25,14.25,64.519921875,16.65,4.3753649687500005,33.21
2021-06-28 10:35:18.437500000,-64.0,7.0,14.0,64.519375,15.78,4.37624575,33.21
2021-06-28 10:35:18.445312500,-63.75,7.0,14.25,64.518828125,14.96,4.37712653125,33.21
2021-06-28 10:35:18.453125000,-63.5,7.0,14.5,64.51828125,14.14,4.3780073125,33.21
2021-06-28 10:35:18.460937500,-63.25,7.0,14.75,64.517734375,13.45,4.37888809375,33.21
2021-06-28 10:35:18.468750000,-63.0,7.0,15.0,64.5171875,12.76,4.379768875,33.21
2021-06-28 10:35:18.476562500,-63.0,7.0,14.75,64.516640625,12.235,4.38064965625,33.21
2021-06-28 10:35:18.484375000,-63.0,7.0,14.5,64.51609375,11.71,4.3815304375,33.21
2021-06-28 10:35:18.492187500,-63.0,7.0,14.25,64.515546875,11.280000000000001,4.38241121875,33.21
2021-06-28 10:35:18.500000000,-63.0,7.0,14.0,64.515,10.85,4.383292,33.21
2021-06-28 10:35:18.507812500,-63.0,7.0,14.25,64.514453125,10.41,4.383292,33.21
2021-06-28 10:35:18.515625000,-63.0,7.0,14.5,64.51390625,9.97,4.383292,33.21
2021-06-28 10:35:18.523437500,-63.0,7.0,14.75,64.51335937500001,9.425,4.383292,33.21
2021-06-28 10:35:18.531250000,-63.0,7.0,15.0,64.5128125,8.88,4.383292,33.21
2021-06-28 10:35:18.539062500,-63.0,7.0,15.0,64.512265625,8.185,4.383292,33.21
2021-06-28 10:35:18.546875000,-63.0,7.0,15.0,64.51171875,7.49,4.383292,33.21
2021-06-28 10:35:18.554687500,-63.0,7.0,15.0,64.511171875,6.655,4.383292,33.21
2021-06-28 10:35:18.562500000,-63.0,7.0,15.0,64.510625,5.82,4.383292,33.21
2021-06-28 10:35:18.570312500,-63.25,7.0,14.75,64.510078125,4.91,4.383292,33.21
2021-06-28 10:35:18.578125000,-63.5,7.0,14.5,64.50953125,4.0,4.383292,33.21
2021-06-28 10:35:18.585937500,-63.75,7.0,14.25,64.508984375,3.1,4.383292,33.21
2021-06-28 10:35:18.593750000,-64.0,7.0,14.0,64.5084375,2.2,4.383292,33.21
2021-06-28 10:35:18.601562500,-64.0,7.0,14.0,64.507890625,1.3650000000000002,4.383292,33.21
2021-06-28 10:35:18.609375000,-64.0,7.0,14.0,64.50734375,0.53,4.383292,33.21
2021-06-28 10:35:18.617187500,-64.0,7.0,14.0,64.506796875,-0.235,4.383292,33.21
2021-06-28 10:35:18.625000000,-64.0,7.0,14.0,64.50625,-1.0,4.383292,33.21
2021-06-28 10:35:18.632812500,-63.75,7.0,14.0,64.505703125,-1.705,4.383292,33.21
2021-06-28 10:35:18.640625000,-63.5,7.0,14.0,64.50515625,-2.41,4.383292,33.21
2021-06-28 10:35:18.648437500,-63.25,7.0,14.0,64.504609375,-3.1,4.383292,33.21
2021-06-28 10:35:18.656250000,-63.0,7.0,14.0,64.5040625,-3.79,4.383292,33.21
2021-06-28 10:35:18.664062500,-63.25,7.0,14.0,64.503515625,-4.495,4.383292,33.21
2021-06-28 10:35:18.671875000,-63.5,7.0,14.0,64.50296875000001,-5.2,4.383292,33.21
2021-06-28 10:35:18.679687500,-63.75,7.0,14.0,64.502421875,-5.95,4.383292,33.21
2021-06-28 10:35:18.687500000,-64.0,7.0,14.0,64.501875,-6.7,4.383292,33.21
2021-06-28 10:35:18.695312500,-63.75,7.0,14.0,64.501328125,-7.5,4.383292,33.21
2021-06-28 10:35:18.703125000,-63.5,7.0,14.0,64.50078125,-8.3,4.383292,33.21
2021-06-28 10:35:18.710937500,-63.25,7.0,14.0,64.500234375,-9.155000000000001,4.383292,33.21
2021-06-28 10:35:18.718750000,-63.0,7.0,14.0,64.49968750000001,-10.01,4.383292,33.21
2021-06-28 10:35:18.726562500,-63.25,7.0,14.0,64.499140625,-10.895,4.383292,33.21
2021-06-28 10:35:18.734375000,-63.5,7.0,14.0,64.49859375,-11.78,4.383292,33.21
2021-06-28 10:35:18.742187500,-63.75,7.0,14.0,64.498046875,-12.665,4.383292,33.21
2021-06-28 10:35:18.750000000,-64.0,7.0,14.0,64.4975,-13.55,4.383292,33.21
2021-06-28 10:35:18.757812500,-63.75,7.0,14.0,64.496953125,-14.38,4.38241121875,33.21
2021-06-28 10:35:18.765625000,-63.5,7.0,14.0,64.49640625,-15.21,4.3815304375,33.21
2021-06-28 10:35:18.773437500,-63.25,7.0,14.0,64.49585937500001,-15.955,4.38064965625,33.21
2021-06-28 10:35:18.781250000,-63.0,7.0,14.0,64.4953125,-16.7,4.379768875,33.21
2021-06-28 10:35:18.789062500,-63.25,7.0,14.0,64.494765625,-17.375,4.37888809375,33.21
2021-06-28 10:35:18.796875000,-63.5,7.0,14.0,64.49421875,-18.05,4.3780073125,33.21
2021-06-28 10:35:18.804687500,-63.75,7.0,14.0,64.493671875,-18.735,4.37712653125,33.21
2021-06-28 10:35:18.812500000,-64.0,7.0,14.0,64.493125,-19.42,4.37624575,33.21
2021-06-28 10:35:18.820312500,-64.0,7.0,14.0,64.49257812500001,-20.235,4.3753649687500005,33.21
2021-06-28 10:35:18.828125000,-64.0,7.0,14.0,64.49203125,-21.05,4.3744841875,33.21
2021-06-28 10:35:18.835937500,-64.0,7.0,14.0,64.491484375,-22.1,4.37360340625,33.21
2021-06-28 10:35:18.843750000,-64.0,7.0,14.0,64.4909375,-23.15,4.372722625,33.21
2021-06-28 10:35:18.851562500,-64.0,7.0,14.0,64.490390625,-24.465,4.37184184375,33.21
2021-06-28 10:35:18.859375000,-64.0,7.0,14.0,64.48984375,-25.78,4.3709610625,33.21
2021-06-28 10:35:18.867187500,-64.0,7.0,14.0,64.48929687500001,-27.275,4.37008028125,33.21
2021-06-28 10:35:18.875000000,-64.0,7.0,14.0,64.48875000000001,-28.77,4.369199500000001,33.21
2021-06-28 10:35:18.882812500,-64.0,7.0,14.0,64.488203125,-30.235,4.36831871875,33.21
2021-06-28 10:35:18.890625000,-64.0,7.0,14.0,64.48765625,-31.7,4.3674379375,33.21
2021-06-28 10:35:18.898437500,-64.0,7.0,14.0,64.487109375,-32.875,4.36655715625,33.21
2021-06-28 10:35:18.906250000,-64.0,7.0,14.0,64.4865625,-34.05,4.3656763750000005,33.21
2021-06-28 10:35:18.914062500,-63.75,7.0,14.0,64.48601562500001,-34.665,4.36479559375,33.21
2021-06-28 10:35:18.921875000,-63.5,7.0,14.0,64.48546875000001,-35.28,4.3639148125,33.21
2021-06-28 10:35:18.929687500,-63.25,7.0,14.0,64.484921875,-35.125,4.36303403125,33.21
2021-06-28 10:35:18.937500000,-63.0,7.0,14.0,64.484375,-34.97,4.36215325,33.21
2021-06-28 10:35:18.945312500,-63.0,7.0,14.0,64.483828125,-33.974999999999994,4.36127246875,33.21
2021-06-28 10:35:18.953125000,-63.0,7.0,14.0,64.48328125,-32.98,4.3603916875,33.21
2021-06-28 10:35:18.960937500,-63.0,7.0,14.0,64.482734375,-31.2,4.359510906250001,33.21
2021-06-28 10:35:18.968750000,-63.0,7.0,14.0,64.48218750000001,-29.42,4.358630125,33.21
2021-06-28 10:35:18.976562500,-63.25,7.0,14.0,64.481640625,-27.08,4.35774934375,33.21
2021-06-28 10:35:18.984375000,-63.5,7.0,14.0,64.48109375,-24.74,4.3568685625,33.21
2021-06-28 10:35:18.992187500,-63.75,7.0,14.0,64.480546875,-22.134999999999998,4.3559877812500005,33.21
2021-06-28 10:35:19.000000000,-64.0,7.0,14.0,64.48,-19.53,4.355107,33.21
2021-06-28 10:35:19.007812500,-64.0,7.0,14.0,64.479375,-16.985,4.353986031250001,33.21
2021-06-28 10:35:19.015625000,-64.0,7.0,14.0,64.47875,-14.44,4.3528650625,33.21
2021-06-28 10:35:19.023437500,-64.0,7.0,14.0,64.478125,-12.175,4.35174409375,33.21
2021-06-28 10:35:19.031250000,-64.0,7.0,14.0,64.4775,-9.91,4.350623125,33.21
2021-06-28 10:35:19.039062500,-63.75,7.0,14.0,64.476875,-8.0,4.349502156250001,33.21
2021-06-28 10:35:19.046875000,-63.5,7.0,14.0,64.47625000000001,-6.09,4.3483811875,33.21
2021-06-28 10:35:19.054687500,-63.25,7.0,14.0,64.47562500000001,-4.445,4.34726021875,33.21
2021-06-28 10:35:19.062500000,-63.0,7.0,14.0,64.47500000000001,-2.8,4.34613925,33.21
2021-06-28 10:35:19.070312500,-63.0,7.0,14.0,64.47437500000001,-1.275,4.345018281250001,33.21
2021-06-28 10:35:19.078125000,-63.0,7.0,14.0,64.47375000000001,0.25,4.3438973125,33.21
2021-06-28 10:35:19.085937500,-63.0,7.0,14.0,64.47312500000001,1.8,4.34277634375,33.21
2021-06-28 10:35:19.093750000,-63.0,7.0,14.0,64.47250000000001,3.35,4.341655375,33.21
2021-06-28 10:35:19.101562500,-63.0,7.0,14.0,64.471875,4.955,4.340534406250001,33.21
2021-06-28 10:35:19.109375000,-63.0,7.0,14.0,64.47125,6.56,4.3394134375,33.21
2021-06-28 10:35:19.117187500,-63.0,7.0,14.0,64.470625,8.15,4.33829246875,33.21
2021-06-28 10:35:19.125000000,-63.0,7.0,14.0,64.47,9.74,4.3371715,33.21
2021-06-28 10:35:19.132812500,-63.25,7.0,14.0,64.469375,11.2,4.336050531250001,33.21
2021-06-28 10:35:19.140625000,-63.5,7.0,14.0,64.46875,12.66,4.3349295625,33.21
2021-06-28 10:35:19.148437500,-63.75,7.0,14.0,64.468125,13.89,4.33380859375,33.21
2021-06-28 10:35:19.156250000,-64.0,7.0,14.0,64.4675,15.12,4.332687625,33.21
2021-06-28 10:35:19.164062500,-64.0,7.0,14.0,64.466875,16.085,4.331566656250001,33.21
2021-06-28 10:35:19.171875000,-64.0,7.0,14.0,64.46625,17.05,4.3304456875,33.21
2021-06-28 10:35:19.179687500,-64.0,7.0,14.0,64.465625,17.759999999999998,4.32932471875,33.21
2021-06-28 10:35:19.187500000,-64.0,7.0,14.0,64.465,18.47,4.32820375,33.21
2021-06-28 10:35:19.195312500,-63.75,7.0,14.0,64.464375,18.96,4.327082781250001,33.21
2021-06-28 10:35:19.203125000,-63.5,7.0,14.0,64.46375,19.45,4.3259618125,33.21
2021-06-28 10:35:19.210937500,-63.25,7.0,14.0,64.463125,19.735,4.32484084375,33.21
2021-06-28 10:35:19.218750000,-63.0,7.0,14.0,64.4625,20.02,4.323719875,33.21
2021-06-28 10:35:19.226562500,-63.25,7.0,14.0,64.461875,20.13,4.3225989062500005,33.21
2021-06-28 10:35:19.234375000,-63.5,7.0,14.0,64.46125,20.24,4.3214779375,33.21
2021-06-28 10:35:19.242187500,-63.75,7.0,14.0,64.46062500000001,20.215,4.32035696875,33.21
2021-06-28 10:35:19.250000000,-64.0,7.0,14.0,64.46000000000001,20.19,4.319236,33.21
2021-06-28 10:35:19.257812500,-63.75,7.0,14.0,64.45937500000001,20.11,4.31779478125,33.21
2021-06-28 10:35:19.265625000,-63.5,7.0,14.0,64.45875000000001,20.03,4.3163535625,33.21
2021-06-28 10:35:19.273437500,-63.25,7.0,14.0,64.45812500000001,20.005000000000003,4.31491234375,33.21
2021-06-28 10:35:19.281250000,-63.0,7.0,14.0,64.45750000000001,19.98,4.313471125,33.21
2021-06-28 10:35:19.289062500,-63.0,7.0,14.0,64.45687500000001,20.085,4.31202990625,33.21
2021-06-28 10:35:19.296875000,-63.0,7.0,14.0,64.45625000000001,20.19,4.3105886875,33.21
2021-06-28 10:35:19.304687500,-63.0,7.0,14.0,64.455625,20.475,4.30914746875,33.21
2021-06-28 10:35:19.312500000,-63.0,7.0,14.0,64.455,20.76,4.30770625,33.21
2021-06-28 10:35:19.320312500,-63.25,7.0,14.0,64.454375,21.195,4.30626503125,33.21
2021-06-28 10:35:19.328125000,-63.5,7.0,14.0,64.45375,21.63,4.3048238125000005,33.21
2021-06-28 10:35:19.335937500,-63.75,7.0,14.0,64.453125,22.13,4.30338259375,33.21
2021-06-28 10:35:19.343750000,-64.0,7.0,14.0,64.4525,22.63,4.301941375,33.21
2021-06-28 10:35:19.351562500,-63.75,7.0,14.0,64.451875,23.08,4.30050015625,33.21
2021-06-28 10:35:19.359375000,-63.5,7.0,14.0,64.45125,23.53,4.2990589375,33.21
2021-06-28 10:35:19.367187500,-63.25,7.0,14.0,64.450625,23.805,4.29761771875,33.21
2021-06-28 10:35:19.375000000,-63.0,7.0,14.0,64.45,24.08,4.2961765,33.21
2021-06-28 10:35:19.382812500,-63.25,7.0,14.0,64.449375,24.08,4.29473528125,33.21
2021-06-28 10:35:19.390625000,-63.5,7.0,14.0,64.44875,24.08,4.2932940625,33.21
2021-06-28 10:35:19.398437500,-63.75,7.0,14.0,64.448125,23.765,4.29185284375,33.21
2021-06-28 10:35:19.406250000,-64.0,7.0,14.0,64.4475,23.45,4.290411625,33.21
2021-06-28 10:35:19.414062500,-64.0,7.0,14.0,64.446875,22.86,4.28897040625,33.21
2021-06-28 10:35:19.421875000,-64.0,7.0,14.0,64.44625,22.27,4.2875291875,33.21
2021-06-28 10:35:19.429687500,-64.0,7.0,14.0,64.445625,21.509999999999998,4.28608796875,33.21
2021-06-28 10:35:19.437500000,-64.0,7.0,14.0,64.44500000000001,20.75,4.28464675,33.21
2021-06-28 10:35:19.445312500,-63.75,7.0,14.0,64.44437500000001,19.97,4.28320553125,33.21
2021-06-28 10:35:19.453125000,-63.5,7.0,14.0,64.44375000000001,19.19,4.2817643125,33.21
2021-06-28 10:35:19.460937500,-63.25,7.0,14.0,64.44312500000001,18.515,4.28032309375,33.21
2021-06-28 10:35:19.468750000,-63.0,7.0,14.0,64.44250000000001,17.84,4.278881875,33.21
2021-06-28 10:35:19.476562500,-63.0,7.0,14.25,64.44187500000001,17.335,4.2774406562500005,33.21
2021-06-28 10:35:19.484375000,-63.0,7.0,14.5,64.44125000000001,16.83,4.2759994375,33.21
2021-06-28 10:35:19.492187500,-63.0,7.0,14.75,64.44062500000001,16.465,4.27455821875,33.21
2021-06-28 10:35:19.500000000,-63.0,7.0,15.0,64.44,16.1,4.273117,33.21
2021-06-28 10:35:19.507812500,-63.0,7.0,14.75,64.439375,15.775,4.2720360625,33.21
2021-06-28 10:35:19.515625000,-63.0,7.0,14.5,64.43875,15.45,4.270955125,33.21
2021-06-28 10:35:19.523437500,-63.0,7.0,14.25,64.438125,15.035,4.2698741875,33.21
2021-06-28 10:35:19.531250000,-63.0,7.0,14.0,64.4375,14.62,4.26879325,33.21
2021-06-28 10:35:19.539062500,-63.25,7.0,14.0,64.436875,14.004999999999999,4.2677123125000005,33.21
2021-06-28 10:35:19.546875000,-63.5,7.0,14.0,64.43625,13.39,4.266631375,33.21
2021-06-28 10:35:19.554687500,-63.75,7.0,14.0,64.435625,12.530000000000001,4.2655504375,33.21
2021-06-28 10:35:19.562500000,-64.0,7.0,14.0,64.435,11.67,4.264469500000001,33.21
2021-06-28 10:35:19.570312500,-64.0,7.0,14.25,64.434375,10.61,4.2633885625,33.21
2021-06-28 10:35:19.578125000,-64.0,7.0,14.5,64.43375,9.55,4.262307625,33.21
2021-06-28 10:35:19.585937500,-64.0,7.0,14.75,64.433125,8.39,4.2612266875,33.21
2021-06-28 10:35:19.593750000,-64.0,7.0,15.0,64.4325,7.23,4.26014575,33.21
2021-06-28 10:35:19.601562500,-63.75,7.0,14.75,64.431875,6.105,4.2590648125,33.21
2021-06-28 10:35:19.609375000,-63.5,7.0,14.5,64.43125,4.98,4.257983875,33.21
2021-06-28 10:35:19.617187500,-63.25,7.0,14.25,64.430625,4.01,4.2569029375000005,33.21
2021-06-28 10:35:19.625000000,-63.0,7.0,14.0,64.43,3.04,4.255822,33.21
2021-06-28 10:35:19.632812500,-63.25,7.0,14.0,64.42937500000001,2.27,4.2547410625,33.21
2021-06-28 10:35:19.640625000,-63.5,7.0,14.0,64.42875000000001,1.5,4.253660125000001,33.21
2021-06-28 10:35:19.648437500,-63.75,7.0,14.0,64.42812500000001,0.895,4.2525791875,33.21
2021-06-28 10:35:19.656250000,-64.0,7.0,14.0,64.42750000000001,0.29,4.25149825,33.21
2021-06-28 10:35:19.664062500,-64.0,7.0,14.0,64.42687500000001,-0.25500000000000006,4.250417312500001,33.21
2021-06-28 10:35:19.671875000,-64.0,7.0,14.0,64.42625000000001,-0.8,4.249336375,33.21
2021-06-28 10:35:19.679687500,-64.0,7.0,14.0,64.42562500000001,-1.415,4.2482554375,33.21
2021-06-28 10:35:19.687500000,-64.0,7.0,14.0,64.42500000000001,-2.03,4.2471745,33.21
2021-06-28 10:35:19.695312500,-63.75,7.0,14.0,64.42437500000001,-2.8049999999999997,4.2460935625000005,33.21
2021-06-28 10:35:19.703125000,-63.5,7.0,14.0,64.42375,-3.58,4.245012625,33.21
2021-06-28 10:35:19.710937500,-63.25,7.0,14.0,64.423125,-4.5,4.2439316875,33.21
2021-06-28 10:35:19.718750000,-63.0,7.0,14.0,64.4225,-5.42,4.242850750000001,33.21
2021-06-28 10:35:19.726562500,-63.0,7.0,14.0,64.421875,-6.4,4.2417698125,33.21
2021-06-28 10:35:19.734375000,-63.0,7.0,14.0,64.42125,-7.38,4.240688875,33.21
2021-06-28 10:35:19.742187500,-63.0,7.0,14.0,64.420625,-8.29,4.239607937500001,33.21
2021-06-28 10:35:19.750000000,-63.0,7.0,14.0,64.42,-9.2,4.238527,33.21
2021-06-28 10:35:19.757812500,-63.0,7.0,14.0,64.419375,-9.94,4.23708578125,33.21
2021-06-28 10:35:19.765625000,-63.0,7.0,14.0,64.41875,-10.68,4.2356445625,33.21
2021-06-28 10:35:19.773437500,-63.0,7.0,14.0,64.418125,-11.24,4.23420334375,33.21
2021-06-28 10:35:19.781250000,-63.0,7.0,14.0,64.4175,-11.8,4.232762125000001,33.21
2021-06-28 10:35:19.789062500,-63.25,7.0,14.0,64.416875,-12.255,4.231320906250001,33.21
2021-06-28 10:35:19.796875000,-63.5,7.0,14.0,64.41625,-12.71,4.2298796875,33.21
2021-06-28 10:35:19.804687500,-63.75,7.0,14.0,64.415625,-13.175,4.22843846875,33.21
2021-06-28 10:35:19.812500000,-64.0,7.0,14.0,64.415,-13.64,4.22699725,33.21
2021-06-28 10:35:19.820312500,-64.0,7.0,14.0,64.414375,-14.22,4.22555603125,33.21
2021-06-28 10:35:19.828125000,-64.0,7.0,14.0,64.41375000000001,-14.8,4.224114812500001,33.21
2021-06-28 10:35:19.835937500,-64.0,7.0,14.0,64.41312500000001,-15.540000000000001,4.222673593750001,33.21
2021-06-28 10:35:19.843750000,-64.0,7.0,14.0,64.41250000000001,-16.28,4.2212323750000005,33.21
2021-06-28 10:35:19.851562500,-63.75,7.0,14.0,64.41187500000001,-17.18,4.21979115625,33.21
2021-06-28 10:35:19.859375000,-63.5,7.0,14.0,64.41125000000001,-18.08,4.2183499375,33.21
2021-06-28 10:35:19.867187500,-63.25,7.0,14.0,64.41062500000001,-19.11,4.21690871875,33.21
2021-06-28 10:35:19.875000000,-63.0,7.0,14.0,64.41000000000001,-20.14,4.215467500000001,33.21
2021-06-28 10:35:19.882812500,-63.0,7.0,14.25,64.40937500000001,-21.28,4.214026281250001,33.21
2021-06-28 10:35:19.890625000,-63.0,7.0,14.5,64.40875000000001,-22.42,4.2125850625000005,33.21
2021-06-28 10:35:19.898437500,-63.0,7.0,14.75,64.40812500000001,-23.635,4.21114384375,33.21
2021-06-28 10:35:19.906250000,-63.0,7.0,15.0,64.4075,-24.85,4.209702625,33.21
2021-06-28 10:35:19.914062500,-63.0,7.0,15.0,64.406875,-26.075000000000003,4.20826140625,33.21
2021-06-28 10:35:19.921875000,-63.0,7.0,15.0,64.40625,-27.3,4.2068201875,33.21
2021-06-28 10:35:19.929687500,-63.0,7.0,15.0,64.405625,-28.395,4.205378968750001,33.21
2021-06-28 10:35:19.937500000,-63.0,7.0,15.0,64.405,-29.49,4.203937750000001,33.21
2021-06-28 10:35:19.945312500,-63.25,7.0,14.75,64.404375,-30.244999999999997,4.2024965312500004,33.21
2021-06-28 10:35:19.953125000,-63.5,7.0,14.5,64.40375,-31.0,4.2010553125,33.21
2021-06-28 10:35:19.960937500,-63.75,7.0,14.25,64.403125,-31.2,4.19961409375,33.21
2021-06-28 10:35:19.968750000,-64.0,7.0,14.0,64.4025,-31.4,4.198172875,33.21
2021-06-28 10:35:19.976562500,-63.75,7.0,14.0,64.401875,-30.89,4.196731656250001,33.21
2021-06-28 10:35:19.984375000,-63.5,7.0,14.0,64.40125,-30.38,4.195290437500001,33.21
2021-06-28 10:35:19.992187500,-63.25,7.0,14.0,64.400625,-29.174999999999997,4.1938492187500005,33.21
2021-06-28 10:35:20.000000000,-63.0,7.0,14.0,64.4,-27.97,4.192408,33.21
2021-06-28 10:35:20.007812500,-63.0,7.0,14.0,64.39921875,-26.21,4.191687375000001,33.21
2021-06-28 10:35:20.015625000,-63.0,7.0,14.0,64.3984375,-24.45,4.19096675,33.21
2021-06-28 10:35:20.023437500,-63.0,7.0,14.0,64.39765625000001,-22.38,4.190246125000001,33.21
2021-06-28 10:35:20.031250000,-63.0,7.0,14.0,64.39687500000001,-20.31,4.1895255,33.21
2021-06-28 10:35:20.039062500,-63.0,7.0,14.0,64.39609375,-18.174999999999997,4.188804875000001,33.21
2021-06-28 10:35:20.046875000,-63.0,7.0,14.0,64.3953125,-16.04,4.18808425,33.21
2021-06-28 10:35:20.054687500,-63.0,7.0,14.0,64.39453125,-14.024999999999999,4.187363625000001,33.21
2021-06-28 10:35:20.062500000,-63.0,7.0,14.0,64.39375000000001,-12.01,4.186643,33.21
2021-06-28 10:35:20.070312500,-63.25,7.0,14.0,64.39296875000001,-10.2,4.1859223750000005,33.21
2021-06-28 10:35:20.078125000,-63.5,7.0,14.0,64.3921875,-8.39,4.18520175,33.21
2021-06-28 10:35:20.085937500,-63.75,7.0,14.0,64.39140625,-6.805,4.1844811250000005,33.21
2021-06-28 10:35:20.093750000,-64.0,7.0,14.0,64.390625,-5.22,4.1837605,33.21
2021-06-28 10:35:20.101562500,-63.75,7.0,14.25,64.38984375000001,-3.835,4.183039875,33.21
2021-06-28 10:35:20.109375000,-63.5,7.0,14.5,64.38906250000001,-2.45,4.18231925,33.21
2021-06-28 10:35:20.117187500,-63.25,7.0,14.75,64.38828125,-1.225,4.181598625,33.21
2021-06-28 10:35:20.125000000,-63.0,7.0,15.0,64.3875,0.0,4.180878,33.21
2021-06-28 10:35:20.132812500,-63.25,7.0,14.75,64.38671875,1.09,4.180157375,33.21
2021-06-28 10:35:20.140625000,-63.5,7.0,14.5,64.38593750000001,2.18,4.179436750000001,33.21
2021-06-28 10:35:20.148437500,-63.75,7.0,14.25,64.38515625000001,3.16,4.178716125,33.21
2021-06-28 10:35:20.156250000,-64.0,7.0,14.0,64.384375,4.14,4.177995500000001,33.21
2021-06-28 10:35:20.164062500,-63.75,7.0,14.0,64.38359375,5.0,4.177274875,33.21
2021-06-28 10:35:20.171875000,-63.5,7.0,14.0,64.3828125,5.86,4.176554250000001,33.21
2021-06-28 10:35:20.179687500,-63.25,7.0,14.0,64.38203125,6.5600000000000005,4.175833625,33.21
2021-06-28 10:35:20.187500000,-63.0,7.0,14.0,64.38125000000001,7.26,4.1751130000000005,33.21
2021-06-28 10:35:20.195312500,-63.25,7.0,14.0,64.38046875,7.7299999999999995,4.174392375,33.21
2021-06-28 10:35:20.203125000,-63.5,7.0,14.0,64.3796875,8.2,4.1736717500000005,33.21
2021-06-28 10:35:20.210937500,-63.75,7.0,14.0,64.37890625,8.385,4.172951125,33.21
2021-06-28 10:35:20.218750000,-64.0,7.0,14.0,64.378125,8.57,4.1722305,33.21
2021-06-28 10:35:20.226562500,-63.75,7.0,14.0,64.37734375000001,8.469999999999999,4.171509875,33.21
2021-06-28 10:35:20.234375000,-63.5,7.0,14.0,64.3765625,8.37,4.17078925,33.21
2021-06-28 10:35:20.242187500,-63.25,7.0,14.0,64.37578125,8.08,4.170068625,33.21
2021-06-28 10:35:20.250000000,-63.0,7.0,14.0,64.375,7.79,4.169348,33.21
2021-06-28 10:35:20.257812500,-63.0,7.0,14.25,64.37421875,7.48,4.168427218750001,33.21
2021-06-28 10:35:20.265625000,-63.0,7.0,14.5,64.37343750000001,7.17,4.1675064375,33.21
2021-06-28 10:35:20.273437500,-63.0,7.0,14.75,64.37265625,7.01,4.1665856562500005,33.21
2021-06-28 10:35:20.281250000,-63.0,7.0,15.0,64.371875,6.85,4.165664875,33.21
2021-06-28 10:35:20.289062500,-63.0,7.0,14.75,64.37109375,6.949999999999999,4.16474409375,33.21
2021-06-28 10:35:20.296875000,-63.0,7.0,14.5,64.3703125,7.05,4.1638233125,33.21
2021-06-28 10:35:20.304687500,-63.0,7.0,14.25,64.36953125000001,7.42,4.16290253125,33.21
2021-06-28 10:35:20.312500000,-63.0,7.0,14.0,64.36875,7.79,4.161981750000001,33.21
2021-06-28 10:35:20.320312500,-63.0,7.0,14.25,64.36796875,8.32,4.16106096875,33.21
2021-06-28 10:35:20.328125000,-63.0,7.0,14.5,64.3671875,8.85,4.160140187500001,33.21
2021-06-28 10:35:20.335937500,-63.0,7.0,14.75,64.36640625,9.425,4.15921940625,33.21
2021-06-28 10:35:20.343750000,-63.0,7.0,15.0,64.36562500000001,10.0,4.1582986250000005,33.21
2021-06-28 10:35:20.351562500,-63.0,7.0,14.75,64.36484375,10.51,4.15737784375,33.21
2021-06-28 10:35:20.359375000,-63.0,7.0,14.5,64.3640625,11.02,4.1564570625,33.21
2021-06-28 10:35:20.367187500,-63.0,7.0,14.25,64.36328125,11.434999999999999,4.15553628125,33.21
2021-06-28 10:35:20.375000000,-63.0,7.0,14.0,64.3625,11.85,4.1546155,33.21
2021-06-28 10:35:20.382812500,-63.25,7.0,14.25,64.36171875000001,12.17,4.153694718750001,33.21
2021-06-28 10:35:20.390625000,-63.5,7.0,14.5,64.3609375,12.49,4.1527739375,33.21
2021-06-28 10:35:20.398437500,-63.75,7.0,14.75,64.36015625,12.735,4.1518531562500005,33.21
2021-06-28 10:35:20.406250000,-64.0,7.0,15.0,64.359375,12.98,4.150932375,33.21
2021-06-28 10:35:20.414062500,-63.75,7.0,14.75,64.35859375,13.11,4.15001159375,33.21
2021-06-28 10:35:20.421875000,-63.5,7.0,14.5,64.35781250000001,13.24,4.1490908125,33.21
2021-06-28 10:35:20.429687500,-63.25,7.0,14.25,64.35703125,13.190000000000001,4.14817003125,33.21
2021-06-28 10:35:20.437500000,-63.0,7.0,14.0,64.35625,13.14,4.14724925,33.21
2021-06-28 10:35:20.445312500,-63.0,7.0,14.0,64.35546875,12.86,4.14632846875,33.21
2021-06-28 10:35:20.453125000,-63.0,7.0,14.0,64.3546875,12.58,4.1454076875000005,33.21
2021-06-28 10:35:20.460937500,-63.0,7.0,14.0,64.35390625000001,12.055,4.14448690625,33.21
2021-06-28 10:35:20.468750000,-63.0,7.0,14.0,64.353125,11.53,4.143566125,33.21
2021-06-28 10:35:20.476562500,-63.0,7.0,14.25,64.35234375,10.815,4.14264534375,33.21
2021-06-28 10:35:20.484375000,-63.0,7.0,14.5,64.3515625,10.1,4.1417245625,33.21
2021-06-28 10:35:20.492187500,-63.0,7.0,14.75,64.35078125,9.3,4.14080378125,33.21
2021-06-28 10:35:20.500000000,-63.0,7.0,15.0,64.35,8.5,4.139883,33.21
2021-06-28 10:35:20.507812500,-63.0,7.0,14.75,64.34921875,7.715,4.1390823125,33.21
2021-06-28 10:35:20.515625000,-63.0,7.0,14.5,64.3484375,6.93,4.138281625,33.21
2021-06-28 10:35:20.523437500,-63.0,7.0,14.25,64.34765625,6.22,4.1374809375,33.21
2021-06-28 10:35:20.531250000,-63.0,7.0,14.0,64.346875,5.51,4.13668025,33.21
2021-06-28 10:35:20.539062500,-63.0,7.0,14.0,64.34609375,4.9,4.1358795625,33.21
2021-06-28 10:35:20.546875000,-63.0,7.0,14.0,64.3453125,4.29,4.1350788750000005,33.21
2021-06-28 10:35:20.554687500,-63.0,7.0,14.0,64.34453125,3.77,4.1342781875000005,33.21
2021-06-28 10:35:20.562500000,-63.0,7.0,14.0,64.34375,3.25,4.1334775,33.21
2021-06-28 10:35:20.570312500,-63.25,7.0,14.0,64.34296875,2.81,4.1326768125,33.21
2021-06-28 10:35:20.578125000,-63.5,7.0,14.0,64.3421875,2.37,4.131876125,33.21
2021-06-28 10:35:20.585937500,-63.75,7.0,14.0,64.34140625,1.9900000000000002,4.1310754375,33.21
2021-06-28 10:35:20.593750000,-64.0,7.0,14.0,64.340625,1.61,4.13027475,33.21
2021-06-28 10:35:20.601562500,-64.0,7.0,14.25,64.33984375,1.26,4.1294740625,33.21
2021-06-28 10:35:20.609375000,-64.0,7.0,14.5,64.3390625,0.91,4.128673375,33.21
2021-06-28 10:35:20.617187500,-64.0,7.0,14.75,64.33828125,0.54,4.1278726875,33.21
2021-06-28 10:35:20.625000000,-64.0,7.0,15.0,64.3375,0.17,4.127072,33.21
2021-06-28 10:35:20.632812500,-63.75,7.0,14.75,64.33671875,-0.26,4.1262713125,33.21
2021-06-28 10:35:20.640625000,-63.5,7.0,14.5,64.3359375,-0.69,4.125470625,33.21
2021-06-28 10:35:20.648437500,-63.25,7.0,14.25,64.33515625,-1.22,4.1246699375,33.21
2021-06-28 10:35:20.656250000,-63.0,7.0,14.0,64.334375,-1.75,4.12386925,33.21
2021-06-28 10:35:20.664062500,-63.0,7.0,14.25,64.33359375,-2.385,4.1230685625,33.21
2021-06-28 10:35:20.671875000,-63.0,7.0,14.5,64.3328125,-3.02,4.122267875,33.21
2021-06-28 10:35:20.679687500,-63.0,7.0,14.75,64.33203125,-3.7199999999999998,4.1214671875,33.21
2021-06-28 10:35:20.687500000,-63.0,7.0,15.0,64.33125,-4.42,4.1206665000000005,33.21
2021-06-28 10:35:20.695312500,-63.25,7.0,14.75,64.33046875,-5.15,4.1198658125,33.21
2021-06-28 10:35:20.703125000,-63.5,7.0,14.5,64.3296875,-5.88,4.119065125,33.21
2021-06-28 10:35:20.710937500,-63.75,7.0,14.25,64.32890625,-6.615,4.1182644375,33.21
2021-06-28 10:35:20.718750000,-64.0,7.0,14.0,64.328125,-7.35,4.11746375,33.21
2021-06-28 10:35:20.726562500,-63.75,7.0,14.0,64.32734375,-8.09,4.1166630625,33.21
2021-06-28 10:35:20.734375000,-63.5,7.0,14.0,64.3265625,-8.83,4.115862375,33.21
2021-06-28 10:35:20.742187500,-63.25,7.0,14.0,64.32578125,-9.61,4.1150616875,33.21
2021-06-28 10:35:20.750000000,-63.0,7.0,14.0,64.325,-10.39,4.114261,33.21
2021-06-28 10:35:20.757812500,-63.0,7.0,14.25,64.32421875,-11.254999999999999,4.11358040625,33.21
2021-06-28 10:35:20.765625000,-63.0,7.0,14.5,64.3234375,-12.12,4.1128998125,33.21
2021-06-28 10:35:20.773437500,-63.0,7.0,14.75,64.32265625,-13.125,4.11221921875,33.21
2021-06-28 10:35:20.781250000,-63.0,7.0,15.0,64.321875,-14.13,4.111538625,33.21
2021-06-28 10:35:20.789062500,-63.0,7.0,14.75,64.32109375,-15.305,4.11085803125,33.21
2021-06-28 10:35:20.796875000,-63.0,7.0,14.5,64.3203125,-16.48,4.1101774375,33.21
2021-06-28 10:35:20.804687500,-63.0,7.0,14.25,64.31953125,-17.85,4.10949684375,33.21
2021-06-28 10:35:20.812500000,-63.0,7.0,14.0,64.31875,-19.22,4.10881625,33.21
2021-06-28 10:35:20.820312500,-63.0,7.0,14.0,64.31796875,-20.78,4.10813565625,33.21
2021-06-28 10:35:20.828125000,-63.0,7.0,14.0,64.3171875,-22.34,4.1074550625,33.21
2021-06-28 10:35:20.835937500,-63.0,7.0,14.0,64.31640625,-24.0,4.10677446875,33.21
2021-06-28 10:35:20.843750000,-63.0,7.0,14.0,64.315625,-25.66,4.106093875,33.21
2021-06-28 10:35:20.851562500,-63.0,7.0,14.0,64.31484375,-27.259999999999998,4.10541328125,33.21
2021-06-28 10:35:20.859375000,-63.0,7.0,14.0,64.31406249999999,-28.86,4.1047326875,33.21
2021-06-28 10:35:20.867187500,-63.0,7.0,14.0,64.31328125,-30.15,4.10405209375,33.21
2021-06-28 10:35:20.875000000,-63.0,7.0,14.0,64.3125,-31.44,4.1033715,33.21
2021-06-28 10:35:20.882812500,-63.0,7.0,14.25,64.31171875,-32.17,4.10269090625,33.21
2021-06-28 10:35:20.890625000,-63.0,7.0,14.5,64.3109375,-32.9,4.1020103125,33.21
2021-06-28 10:35:20.898437500,-63.0,7.0,14.75,64.31015624999999,-32.849999999999994,4.101329718750001,33.21
2021-06-28 10:35:20.906250000,-63.0,7.0,15.0,64.309375,-32.8,4.100649125,33.21
2021-06-28 10:35:20.914062500,-63.0,7.0,15.0,64.30859375,-31.88,4.09996853125,33.21
2021-06-28 10:35:20.921875000,-63.0,7.0,15.0,64.3078125,-30.96,4.099287937500001,33.21
2021-06-28 10:35:20.929687500,-63.0,7.0,15.0,64.30703125,-29.215,4.09860734375,33.21
2021-06-28 10:35:20.937500000,-63.0,7.0,15.0,64.30624999999999,-27.47,4.09792675,33.21
2021-06-28 10:35:20.945312500,-63.25,7.0,14.75,64.30546875,-25.08,4.097246156250001,33.21
2021-06-28 10:35:20.953125000,-63.5,7.0,14.5,64.3046875,-22.69,4.0965655625,33.21
2021-06-28 10:35:20.960937500,-63.75,7.0,14.25,64.30390625,-19.884999999999998,4.09588496875,33.21
2021-06-28 10:35:20.968750000,-64.0,7.0,14.0,64.303125,-17.08,4.095204375000001,33.21
2021-06-28 10:35:20.976562500,-63.75,7.0,14.0,64.30234374999999,-14.094999999999999,4.09452378125,33.21
2021-06-28 10:35:20.984375000,-63.5,7.0,14.0,64.3015625,-11.11,4.0938431875,33.21
2021-06-28 10:35:20.992187500,-63.25,7.0,14.0,64.30078125,-8.16,4.093162593750001,33.21
2021-06-28 10:35:21.000000000,-63.0,7.0,14.0,64.3,-5.21,4.092482,33.21
2021-06-28 10:35:21.007812500,-63.0,7.0,14.25,64.29906249999999,-2.43,4.0918815,33.21
2021-06-28 10:35:21.015625000,-63.0,7.0,14.5,64.298125,0.35,4.091281,33.21
2021-06-28 10:35:21.023437500,-63.0,7.0,14.75,64.29718749999999,2.85,4.0906805,33.21
2021-06-28 10:35:21.031250000,-63.0,7.0,15.0,64.29625,5.35,4.09008,33.21
2021-06-28 10:35:21.039062500,-63.0,7.0,14.75,64.2953125,7.5249999999999995,4.0894795,33.21
2021-06-28 10:35:21.046875000,-63.0,7.0,14.5,64.294375,9.7,4.088879,33.21
2021-06-28 10:35:21.054687500,-63.0,7.0,14.25,64.2934375,11.524999999999999,4.0882785,33.21
2021-06-28 10:35:21.062500000,-63.0,7.0,14.0,64.2925,13.35,4.087678,33.21
2021-06-28 10:35:21.070312500,-63.0,7.0,14.0,64.2915625,14.829999999999998,4.0870775,33.21
2021-06-28 10:35:21.078125000,-63.0,7.0,14.0,64.29062499999999,16.31,4.086477,33.21
2021-06-28 10:35:21.085937500,-63.0,7.0,14.0,64.2896875,17.475,4.0858765,33.21
2021-06-28 10:35:21.093750000,-63.0,7.0,14.0,64.28875,18.64,4.085276,33.21
2021-06-28 10:35:21.101562500,-63.25,7.0,14.0,64.2878125,19.5,4.0846755,33.21
2021-06-28 10:35:21.109375000,-63.5,7.0,14.0,64.286875,20.36,4.084075,33.21
2021-06-28 10:35:21.117187500,-63.75,7.0,14.0,64.2859375,20.939999999999998,4.0834745,33.21
2021-06-28 10:35:21.125000000,-64.0,7.0,14.0,64.285,21.52,4.082874,33.21
2021-06-28 10:35:21.132812500,-63.75,7.0,14.0,64.2840625,21.825,4.0822735,33.21
2021-06-28 10:35:21.140625000,-63.5,7.0,14.0,64.283125,22.13,4.081673,33.21
2021-06-28 10:35:21.148437500,-63.25,7.0,14.0,64.28218749999999,22.16,4.0810725,33.21
2021-06-28 10:35:21.156250000,-63.0,7.0,14.0,64.28125,22.19,4.080472,33.21
2021-06-28 10:35:21.164062500,-63.25,7.0,14.0,64.2803125,22.0,4.0798715,33.21
2021-06-28 10:35:21.171875000,-63.5,7.0,14.0,64.279375,21.81,4.079271,33.21
2021-06-28 10:35:21.179687500,-63.75,7.0,14.0,64.2784375,21.47,4.0786705,33.21
2021-06-28 10:35:21.187500000,-64.0,7.0,14.0,64.2775,21.13,4.07807,33.21
2021-06-28 10:35:21.195312500,-64.0,7.0,14.0,64.2765625,20.77,4.0774695,33.21
2021-06-28 10:35:21.203125000,-64.0,7.0,14.0,64.275625,20.41,4.076869,33.21
2021-06-28 10:35:21.210937500,-64.0,7.0,14.0,64.2746875,20.17,4.0762685,33.21
2021-06-28 10:35:21.218750000,-64.0,7.0,14.0,64.27374999999999,19.93,4.075668,33.21
2021-06-28 10:35:21.226562500,-63.75,7.0,14.0,64.2728125,19.905,4.0750675,33.21
2021-06-28 10:35:21.234375000,-63.5,7.0,14.0,64.271875,19.88,4.074467,33.21
2021-06-28 10:35:21.242187500,-63.25,7.0,14.0,64.2709375,20.1,4.0738665,33.21
2021-06-28 10:35:21.250000000,-63.0,7.0,14.0,64.27,20.32,4.073266,33.21
2021-06-28 10:35:21.257812500,-63.25,7.0,14.0,64.2690625,20.715,4.07266546875,33.21
2021-06-28 10:35:21.265625000,-63.5,7.0,14.0,64.268125,21.11,4.0720649375,33.21
2021-06-28 10:35:21.273437500,-63.75,7.0,14.0,64.2671875,21.545,4.0714644062500005,33.21
2021-06-28 10:35:21.281250000,-64.0,7.0,14.0,64.26625,21.98,4.070863875000001,33.21
2021-06-28 10:35:21.289062500,-63.75,7.0,14.25,64.2653125,22.32,4.070263343750001,33.21
2021-06-28 10:35:21.296875000,-63.5,7.0,14.5,64.264375,22.66,4.0696628125,33.21
2021-06-28 10:35:21.304687500,-63.25,7.0,14.75,64.2634375,22.814999999999998,4.06906228125,33.21
2021-06-28 10:35:21.312500000,-63.0,7.0,15.0,64.2625,22.97,4.06846175,33.21
2021-06-28 10:35:21.320312500,-63.0,7.0,14.75,64.2615625,22.905,4.06786121875,33.21
2021-06-28 10:35:21.328125000,-63.0,7.0,14.5,64.260625,22.84,4.0672606875,33.21
2021-06-28 10:35:21.335937500,-63.0,7.0,14.25,64.2596875,22.595,4.06666015625,33.21
2021-06-28 10:35:21.343750000,-63.0,7.0,14.0,64.25875,22.35,4.066059625,33.21
2021-06-28 10:35:21.351562500,-63.0,7.0,14.0,64.2578125,21.965,4.06545909375,33.21
2021-06-28 10:35:21.359375000,-63.0,7.0,14.0,64.256875,21.58,4.0648585625,33.21
2021-06-28 10:35:21.367187500,-63.0,7.0,14.0,64.2559375,21.095,4.0642580312500005,33.21
2021-06-28 10:35:21.375000000,-63.0,7.0,14.0,64.255,20.61,4.0636575,33.21
2021-06-28 10:35:21.382812500,-63.0,7.0,14.0,64.2540625,20.025,4.06305696875,33.21
2021-06-28 10:35:21.390625000,-63.0,7.0,14.0,64.253125,19.44,4.0624564375,33.21
2021-06-28 10:35:21.398437500,-63.0,7.0,14.0,64.2521875,18.740000000000002,4.06185590625,33.21
2021-06-28 10:35:21.406250000,-63.0,7.0,14.0,64.25125,18.04,4.061255375,33.21
2021-06-28 10:35:21.414062500,-63.25,7.0,14.0,64.2503125,17.22,4.06065484375,33.21
2021-06-28 10:35:21.421875000,-63.5,7.0,14.0,64.249375,16.4,4.0600543125,33.21
2021-06-28 10:35:21.429687500,-63.75,7.0,14.0,64.2484375,15.469999999999999,4.05945378125,33.21
2021-06-28 10:35:21.437500000,-64.0,7.0,14.0,64.2475,14.54,4.05885325,33.21
2021-06-28 10:35:21.445312500,-63.75,7.0,14.0,64.2465625,13.565,4.05825271875,33.21
2021-06-28 10:35:21.453125000,-63.5,7.0,14.0,64.245625,12.59,4.0576521875000005,33.21
2021-06-28 10:35:21.460937500,-63.25,7.0,14.0,64.2446875,11.629999999999999,4.05705165625,33.21
2021-06-28 10:35:21.468750000,-63.0,7.0,14.0,64.24375,10.67,4.056451125,33.21
2021-06-28 10:35:21.476562500,-63.0,7.0,14.0,64.2428125,9.76,4.05585059375,33.21
2021-06-28 10:35:21.484375000,-63.0,7.0,14.0,64.24187500000001,8.85,4.0552500625,33.21
2021-06-28 10:35:21.492187500,-63.0,7.0,14.0,64.2409375,7.98,4.05464953125,33.21
2021-06-28 10:35:21.500000000,-63.0,7.0,14.0,64.24000000000001,7.11,4.054049,33.21
2021-06-28 10:35:21.507812500,-63.25,7.0,14.0,64.2390625,6.220000000000001,4.0534084375,33.21
2021-06-28 10:35:21.515625000,-63.5,7.0,14.0,64.238125,5.33,4.052767875,33.21
2021-06-28 10:35:21.523437500,-63.75,7.0,14.0,64.2371875,4.375,4.0521273125,33.21
2021-06-28 10:35:21.531250000,-64.0,7.0,14.0,64.23625,3.42,4.0514867500000005,33.21
2021-06-28 10:35:21.539062500,-63.75,7.0,14.25,64.2353125,2.37,4.0508461875,33.21
2021-06-28 10:35:21.546875000,-63.5,7.0,14.5,64.234375,1.32,4.050205625,33.21
2021-06-28 10:35:21.554687500,-63.25,7.0,14.75,64.23343750000001,0.21500000000000008,4.0495650625,33.21
2021-06-28 10:35:21.562500000,-63.0,7.0,15.0,64.2325,-0.89,4.0489245,33.21
2021-06-28 10:35:21.570312500,-63.0,7.0,15.0,64.23156250000001,-2.0,4.0482839375,33.21
2021-06-28 10:35:21.578125000,-63.0,7.0,15.0,64.230625,-3.11,4.047643375,33.21
2021-06-28 10:35:21.585937500,-63.0,7.0,15.0,64.2296875,-4.185,4.0470028125,33.21
2021-06-28 10:35:21.593750000,-63.0,7.0,15.0,64.22875,-5.26,4.04636225,33.21
2021-06-28 10:35:21.601562500,-63.25,7.0,14.75,64.2278125,-6.295,4.0457216875,33.21
2021-06-28 10:35:21.609375000,-63.5,7.0,14.5,64.226875,-7.33,4.045081125,33.21
2021-06-28 10:35:21.617187500,-63.75,7.0,14.25,64.2259375,-8.35,4.0444405625,33.21
2021-06-28 10:35:21.625000000,-64.0,7.0,14.0,64.22500000000001,-9.37,4.0438,33.21
2021-06-28 10:35:21.632812500,-63.75,7.0,14.0,64.2240625,-10.425,4.0431594375,33.21
2021-06-28 10:35:21.640625000,-63.5,7.0,14.0,64.22312500000001,-11.48,4.042518875,33.21
2021-06-28 10:35:21.648437500,-63.25,7.0,14.0,64.2221875,-12.600000000000001,4.0418783125,33.21
2021-06-28 10:35:21.656250000,-63.0,7.0,14.0,64.22125,-13.72,4.0412377500000005,33.21
2021-06-28 10:35:21.664062500,-63.25,7.0,14.0,64.2203125,-14.89,4.0405971875,33.21
2021-06-28 10:35:21.671875000,-63.5,7.0,14.0,64.219375,-16.06,4.039956625,33.21
2021-06-28 10:35:21.679687500,-63.75,7.0,14.0,64.21843750000001,-17.240000000000002,4.0393160625,33.21
2021-06-28 10:35:21.687500000,-64.0,7.0,14.0,64.2175,-18.42,4.0386755,33.21
2021-06-28 10:35:21.695312500,-64.0,7.0,14.0,64.21656250000001,-19.54,4.0380349375,33.21
2021-06-28 10:35:21.703125000,-64.0,7.0,14.0,64.215625,-20.66,4.037394375,33.21
2021-06-28 10:35:21.710937500,-64.0,7.0,14.0,64.21468750000001,-21.7,4.0367538125,33.21
2021-06-28 10:35:21.718750000,-64.0,7.0,14.0,64.21375,-22.74,4.03611325,33.21
2021-06-28 10:35:21.726562500,-64.0,7.0,14.0,64.2128125,-23.725,4.0354726875,33.21
2021-06-28 10:35:21.734375000,-64.0,7.0,14.0,64.211875,-24.71,4.034832125,33.21
2021-06-28 10:35:21.742187500,-64.0,7.0,14.0,64.2109375,-25.72,4.0341915625,33.21
2021-06-28 10:35:21.750000000,-64.0,7.0,14.0,64.21000000000001,-26.73,4.033551,33.21
2021-06-28 10:35:21.757812500,-64.0,7.0,14.0,64.2090625,-27.86,4.0333108125,33.21
2021-06-28 10:35:21.765625000,-64.0,7.0,14.0,64.20812500000001,-28.99,4.033070625,33.21
2021-06-28 10:35:21.773437500,-64.0,7.0,14.0,64.2071875,-30.314999999999998,4.0328304375,33.21
2021-06-28 10:35:21.781250000,-64.0,7.0,14.0,64.20625000000001,-31.64,4.03259025,33.21
2021-06-28 10:35:21.789062500,-64.0,7.0,14.0,64.2053125,-33.155,4.0323500625,33.21
2021-06-28 10:35:21.796875000,-64.0,7.0,14.0,64.204375,-34.67,4.032109875,33.21
2021-06-28 10:35:21.804687500,-64.0,7.0,14.0,64.2034375,-36.215,4.0318696875,33.21
2021-06-28 10:35:21.812500000,-64.0,7.0,14.0,64.2025,-37.76,4.0316295,33.21
2021-06-28 10:35:21.820312500,-64.0,7.0,14.0,64.20156250000001,-39.08,4.0313893125,33.21
2021-06-28 10:35:21.828125000,-64.0,7.0,14.0,64.200625,-40.4,4.031149125,33.21
2021-06-28 10:35:21.835937500,-64.0,7.0,14.0,64.19968750000001,-41.155,4.0309089375,33.21
2021-06-28 10:35:21.843750000,-64.0,7.0,14.0,64.19875,-41.91,4.03066875,33.21
2021-06-28 10:35:21.851562500,-64.0,7.0,14.0,64.19781250000001,-41.825,4.0304285625,33.21
2021-06-28 10:35:21.859375000,-64.0,7.0,14.0,64.196875,-41.74,4.030188375,33.21
2021-06-28 10:35:21.867187500,-64.0,7.0,14.0,64.1959375,-40.665000000000006,4.0299481875,33.21
2021-06-28 10:35:21.875000000,-64.0,7.0,14.0,64.19500000000001,-39.59,4.029707999999999,33.21
2021-06-28 10:35:21.882812500,-64.0,7.0,14.0,64.1940625,-37.565,4.0294678125,33.21
2021-06-28 10:35:21.890625000,-64.0,7.0,14.0,64.19312500000001,-35.54,4.029227625,33.21
2021-06-28 10:35:21.898437500,-64.0,7.0,14.0,64.1921875,-32.75,4.0289874375,33.21
2021-06-28 10:35:21.906250000,-64.0,7.0,14.0,64.19125000000001,-29.96,4.0287472499999994,33.21
2021-06-28 10:35:21.914062500,-63.75,7.0,14.0,64.1903125,-26.665,4.0285070625,33.21
2021-06-28 10:35:21.921875000,-63.5,7.0,14.0,64.18937500000001,-23.37,4.028266875,33.21
2021-06-28 10:35:21.929687500,-63.25,7.0,14.0,64.1884375,-19.83,4.0280266875,33.21
2021-06-28 10:35:21.937500000,-63.0,7.0,14.0,64.1875,-16.29,4.0277864999999995,33.21
2021-06-28 10:35:21.945312500,-63.0,7.0,14.0,64.18656250000001,-12.725,4.027546312499999,33.21
2021-06-28 10:35:21.953125000,-63.0,7.0,14.0,64.185625,-9.16,4.027306125,33.21
2021-06-28 10:35:21.960937500,-63.0,7.0,14.0,64.18468750000001,-5.735,4.0270659375,33.21
2021-06-28 10:35:21.968750000,-63.0,7.0,14.0,64.18375,-2.31,4.0268257499999995,33.21
2021-06-28 10:35:21.976562500,-63.0,7.0,14.0,64.18281250000001,0.855,4.026585562499999,33.21
2021-06-28 10:35:21.984375000,-63.0,7.0,14.0,64.181875,4.02,4.026345375,33.21
2021-06-28 10:35:21.992187500,-63.0,7.0,14.0,64.18093750000001,6.859999999999999,4.0261051875,33.21
2021-06-28 10:35:22.000000000,-63.0,7.0,14.0,64.18,9.7,4.025865,33.21
2021-06-28 10:35:22.007812500,-63.25,7.0,14.0,64.179140625,12.16,4.0250242812499994,33.2090625
2021-06-28 10:35:22.015625000,-63.5,7.0,14.0,64.17828125000001,14.62,4.024183562499999,33.208125
2021-06-28 10:35:22.023437500,-63.75,7.0,14.0,64.17742187500001,16.7,4.02334284375,33.2071875
2021-06-28 10:35:22.031250000,-64.0,7.0,14.0,64.1765625,18.78,4.022502125,33.20625
2021-06-28 10:35:22.039062500,-63.75,7.0,14.0,64.17570312500001,20.495,4.02166140625,33.2053125
2021-06-28 10:35:22.046875000,-63.5,7.0,14.0,64.17484375000001,22.21,4.0208206875,33.204375
2021-06-28 10:35:22.054687500,-63.25,7.0,14.0,64.173984375,23.57,4.0199799687499995,33.2034375
2021-06-28 10:35:22.062500000,-63.0,7.0,14.0,64.173125,24.93,4.019139249999999,33.2025
2021-06-28 10:35:22.070312500,-63.25,7.0,14.0,64.17226562500001,25.925,4.01829853125,33.2015625
2021-06-28 10:35:22.078125000,-63.5,7.0,14.0,64.17140625,26.92,4.0174578125,33.200625
2021-06-28 10:35:22.085937500,-63.75,7.0,14.0,64.170546875,27.54,4.01661709375,33.1996875
2021-06-28 10:35:22.093750000,-64.0,7.0,14.0,64.16968750000001,28.16,4.015776375,33.198750000000004
2021-06-28 10:35:22.101562500,-64.0,7.0,14.0,64.168828125,28.42,4.01493565625,33.1978125
2021-06-28 10:35:22.109375000,-64.0,7.0,14.0,64.16796875,28.68,4.0140949374999995,33.196875
2021-06-28 10:35:22.117187500,-64.0,7.0,14.0,64.16710937500001,28.634999999999998,4.01325421875,33.1959375
2021-06-28 10:35:22.125000000,-64.0,7.0,14.0,64.16625,28.59,4.0124135,33.195
2021-06-28 10:35:22.132812500,-64.0,7.0,14.0,64.165390625,28.369999999999997,4.01157278125,33.1940625
2021-06-28 10:35:22.140625000,-64.0,7.0,14.0,64.16453125000001,28.15,4.0107320625,33.193125
2021-06-28 10:35:22.148437500,-64.0,7.0,14.0,64.163671875,27.9,4.00989134375,33.1921875
2021-06-28 10:35:22.156250000,-64.0,7.0,14.0,64.1628125,27.65,4.0090506249999995,33.19125
2021-06-28 10:35:22.164062500,-63.75,7.0,14.0,64.16195312500001,27.485,4.00820990625,33.1903125
2021-06-28 10:35:22.171875000,-63.5,7.0,14.0,64.16109375,27.32,4.0073691875,33.189375
2021-06-28 10:35:22.179687500,-63.25,7.0,14.0,64.160234375,27.305,4.00652846875,33.1884375
2021-06-28 10:35:22.187500000,-63.0,7.0,14.0,64.15937500000001,27.29,4.00568775,33.1875
2021-06-28 10:35:22.195312500,-63.0,7.0,14.0,64.158515625,27.42,4.00484703125,33.1865625
2021-06-28 10:35:22.203125000,-63.0,7.0,14.0,64.15765625,27.55,4.0040063125,33.185625
2021-06-28 10:35:22.210937500,-63.0,7.0,14.0,64.156796875,27.775,4.00316559375,33.1846875
2021-06-28 10:35:22.218750000,-63.0,7.0,14.0,64.15593750000001,28.0,4.002324875,33.18375
2021-06-28 10:35:22.226562500,-63.25,7.0,14.0,64.155078125,28.265,4.00148415625,33.1828125
2021-06-28 10:35:22.234375000,-63.5,7.0,14.0,64.15421875,28.53,4.0006434375,33.181875
2021-06-28 10:35:22.242187500,-63.75,7.0,14.0,64.15335937500001,28.78,3.9998027187500003,33.1809375
2021-06-28 10:35:22.250000000,-64.0,7.0,14.0,64.1525,29.03,3.998962,33.18
2021-06-28 10:35:22.257812500,-64.0,7.0,14.0,64.151640625,29.22,3.9987618125,33.18
2021-06-28 10:35:22.265625000,-64.0,7.0,14.0,64.15078125000001,29.41,3.9985616250000002,33.18
2021-06-28 10:35:22.273437500,-64.0,7.0,14.0,64.149921875,29.505000000000003,3.9983614375000003,33.18
2021-06-28 10:35:22.281250000,-64.0,7.0,14.0,64.1490625,29.6,3.99816125,33.18
2021-06-28 10:35:22.289062500,-64.0,7.0,14.0,64.14820312500001,29.545,3.9979610625,33.18
2021-06-28 10:35:22.296875000,-64.0,7.0,14.0,64.14734375,29.49,3.997760875,33.18
2021-06-28 10:35:22.304687500,-64.0,7.0,14.0,64.146484375,29.28,3.9975606875,33.18
2021-06-28 10:35:22.312500000,-64.0,7.0,14.0,64.145625,29.07,3.9973605,33.18
2021-06-28 10:35:22.320312500,-64.0,7.0,14.0,64.144765625,28.695,3.9971603125,33.18
2021-06-28 10:35:22.328125000,-64.0,7.0,14.0,64.14390625,28.32,3.996960125,33.18
2021-06-28 10:35:22.335937500,-64.0,7.0,14.0,64.143046875,27.795,3.9967599375000002,33.18
2021-06-28 10:35:22.343750000,-64.0,7.0,14.0,64.1421875,27.27,3.9965597500000003,33.18
2021-06-28 10:35:22.351562500,-63.75,7.0,14.0,64.141328125,26.63,3.9963595625,33.18
2021-06-28 10:35:22.359375000,-63.5,7.0,14.0,64.14046875,25.99,3.996159375,33.18
2021-06-28 10:35:22.367187500,-63.25,7.0,14.0,64.139609375,25.27,3.9959591875,33.18
2021-06-28 10:35:22.375000000,-63.0,7.0,14.0,64.13875,24.55,3.995759,33.18
2021-06-28 10:35:22.382812500,-63.0,7.0,14.25,64.137890625,23.775,3.9955588125,33.18
2021-06-28 10:35:22.390625000,-63.0,7.0,14.5,64.13703125,23.0,3.995358625,33.18
2021-06-28 10:35:22.398437500,-63.0,7.0,14.75,64.136171875,22.175,3.9951584375,33.18
2021-06-28 10:35:22.406250000,-63.0,7.0,15.0,64.1353125,21.35,3.99495825,33.18
2021-06-28 10:35:22.414062500,-63.25,7.0,14.75,64.13445312500001,20.46,3.9947580625,33.18
2021-06-28 10:35:22.421875000,-63.5,7.0,14.5,64.13359375,19.57,3.994557875,33.18
2021-06-28 10:35:22.429687500,-63.75,7.0,14.25,64.132734375,18.58,3.9943576875,33.18
2021-06-28 10:35:22.437500000,-64.0,7.0,14.0,64.13187500000001,17.59,3.9941575,33.18
2021-06-28 10:35:22.445312500,-64.0,7.0,14.0,64.131015625,16.48,3.9939573125,33.18
2021-06-28 10:35:22.453125000,-64.0,7.0,14.0,64.13015625,15.37,3.993757125,33.18
2021-06-28 10:35:22.460937500,-64.0,7.0,14.0,64.129296875,14.155,3.9935569375,33.18
2021-06-28 10:35:22.468750000,-64.0,7.0,14.0,64.1284375,12.94,3.9933567500000002,33.18
2021-06-28 10:35:22.476562500,-63.75,7.0,14.0,64.127578125,11.68,3.9931565625,33.18
2021-06-28 10:35:22.484375000,-63.5,7.0,14.0,64.12671875,10.42,3.992956375,33.18
2021-06-28 10:35:22.492187500,-63.25,7.0,14.0,64.125859375,9.21,3.9927561875,33.18
2021-06-28 10:35:22.500000000,-63.0,7.0,14.0,64.125,8.0,3.992556,33.18
2021-06-28 10:35:22.507812500,-63.25,7.0,14.0,64.124140625,6.93,3.992115625,33.18
2021-06-28 10:35:22.515625000,-63.5,7.0,14.0,64.12328125,5.86,3.99167525,33.18
2021-06-28 10:35:22.523437500,-63.75,7.0,14.0,64.122421875,4.965,3.991234875,33.18
2021-06-28 10:35:22.531250000,-64.0,7.0,14.0,64.1215625,4.07,3.9907945,33.18
2021-06-28 10:35:22.539062500,-64.0,7.0,14.0,64.120703125,3.305,3.990354125,33.18
2021-06-28 10:35:22.546875000,-64.0,7.0,14.0,64.11984375,2.54,3.98991375,33.18
2021-06-28 10:35:22.554687500,-64.0,7.0,14.0,64.118984375,1.8050000000000002,3.9894733749999998,33.18
2021-06-28 10:35:22.562500000,-64.0,7.0,14.0,64.11812499999999,1.07,3.989033,33.18
2021-06-28 10:35:22.570312500,-63.75,7.0,14.0,64.117265625,0.2250000000000001,3.988592625,33.18
2021-06-28 10:35:22.578125000,-63.5,7.0,14.0,64.11640625,-0.62,3.9881522499999997,33.18
2021-06-28 10:35:22.585937500,-63.25,7.0,14.0,64.11554687499999,-1.645,3.987711875,33.18
2021-06-28 10:35:22.593750000,-63.0,7.0,14.0,64.1146875,-2.67,3.9872715,33.18
2021-06-28 10:35:22.601562500,-63.25,7.0,14.0,64.113828125,-3.895,3.9868311249999997,33.18
2021-06-28 10:35:22.609375000,-63.5,7.0,14.0,64.11296875,-5.12,3.98639075,33.18
2021-06-28 10:35:22.617187500,-63.75,7.0,14.0,64.112109375,-6.48,3.985950375,33.18
2021-06-28 10:35:22.625000000,-64.0,7.0,14.0,64.11125,-7.84,3.9855099999999997,33.18
2021-06-28 10:35:22.632812500,-64.0,7.0,14.0,64.110390625,-9.235,3.985069625,33.18
2021-06-28 10:35:22.640625000,-64.0,7.0,14.0,64.10953125,-10.63,3.98462925,33.18
2021-06-28 10:35:22.648437500,-64.0,7.0,14.0,64.108671875,-11.985,3.984188875,33.18
2021-06-28 10:35:22.656250000,-64.0,7.0,14.0,64.1078125,-13.34,3.9837485,33.18
2021-06-28 10:35:22.664062500,-64.0,7.0,14.0,64.106953125,-14.615,3.9833081249999998,33.18
2021-06-28 10:35:22.671875000,-64.0,7.0,14.0,64.10609375,-15.89,3.98286775,33.18
2021-06-28 10:35:22.679687500,-64.0,7.0,14.0,64.105234375,-17.1,3.982427375,33.18
2021-06-28 10:35:22.687500000,-64.0,7.0,14.0,64.104375,-18.31,3.9819869999999997,33.18
2021-06-28 10:35:22.695312500,-64.0,7.0,14.0,64.103515625,-19.485,3.981546625,33.18
2021-06-28 10:35:22.703125000,-64.0,7.0,14.0,64.10265625,-20.66,3.98110625,33.18
2021-06-28 10:35:22.710937500,-64.0,7.0,14.0,64.10179687499999,-21.85,3.9806658749999997,33.18
2021-06-28 10:35:22.718750000,-64.0,7.0,14.0,64.1009375,-23.04,3.9802255,33.18
2021-06-28 10:35:22.726562500,-63.75,7.0,14.0,64.100078125,-24.325,3.979785125,33.18
2021-06-28 10:35:22.734375000,-63.5,7.0,14.0,64.09921874999999,-25.61,3.9793447499999997,33.18
2021-06-28 10:35:22.742187500,-63.25,7.0,14.0,64.098359375,-27.060000000000002,3.978904375,33.18
2021-06-28 10:35:22.750000000,-63.0,7.0,14.0,64.0975,-28.51,3.978464,33.18
2021-06-28 10:35:22.757812500,-63.0,7.0,14.0,64.09664062499999,-30.18,3.97818375,33.18
2021-06-28 10:35:22.765625000,-63.0,7.0,14.0,64.09578125,-31.85,3.9779034999999996,33.18
2021-06-28 10:35:22.773437500,-63.0,7.0,14.0,64.094921875,-33.725,3.9776232499999997,33.18
2021-06-28 10:35:22.781250000,-63.0,7.0,14.0,64.09406249999999,-35.6,3.977343,33.18
2021-06-28 10:35:22.789062500,-63.0,7.0,14.0,64.093203125,-37.565,3.97706275,33.18
2021-06-28 10:35:22.796875000,-63.0,7.0,14.0,64.09234375,-39.53,3.9767824999999997,33.18
2021-06-28 10:35:22.804687500,-63.0,7.0,14.0,64.091484375,-41.35,3.97650225,33.18
2021-06-28 10:35:22.812500000,-63.0,7.0,14.0,64.09062499999999,-43.17,3.976222,33.18
2021-06-28 10:35:22.820312500,-63.25,7.0,14.0,64.089765625,-44.519999999999996,3.9759417499999996,33.18
2021-06-28 10:35:22.828125000,-63.5,7.0,14.0,64.08890625,-45.87,3.9756614999999997,33.18
2021-06-28 10:35:22.835937500,-63.75,7.0,14.0,64.08804687499999,-46.41,3.97538125,33.18
2021-06-28 10:35:22.843750000,-64.0,7.0,14.0,64.0871875,-46.95,3.975101,33.18
2021-06-28 10:35:22.851562500,-63.75,7.0,14.0,64.086328125,-46.435,3.9748207499999997,33.18
2021-06-28 10:35:22.859375000,-63.5,7.0,14.0,64.08546874999999,-45.92,3.9745405,33.18
2021-06-28 10:35:22.867187500,-63.25,7.0,14.0,64.084609375,-44.29,3.97426025,33.18
2021-06-28 10:35:22.875000000,-63.0,7.0,14.0,64.08375,-42.66,3.97398,33.18
2021-06-28 10:35:22.882812500,-63.0,7.0,14.0,64.08289062499999,-40.04,3.9736997499999998,33.18
2021-06-28 10:35:22.890625000,-63.0,7.0,14.0,64.08203125,-37.42,3.9734195,33.18
2021-06-28 10:35:22.898437500,-63.0,7.0,14.0,64.081171875,-34.145,3.97313925,33.18
2021-06-28 10:35:22.906250000,-63.0,7.0,14.0,64.08031249999999,-30.87,3.9728589999999997,33.18
2021-06-28 10:35:22.914062500,-63.25,7.0,14.0,64.079453125,-27.34,3.97257875,33.18
2021-06-28 10:35:22.921875000,-63.5,7.0,14.0,64.07859375,-23.81,3.9722985,33.18
2021-06-28 10:35:22.929687500,-63.75,7.0,14.0,64.07773437499999,-20.405,3.97201825,33.18
2021-06-28 10:35:22.937500000,-64.0,7.0,14.0,64.076875,-17.0,3.9717379999999998,33.18
2021-06-28 10:35:22.945312500,-63.75,7.0,14.0,64.076015625,-13.945,3.97145775,33.18
2021-06-28 10:35:22.953125000,-63.5,7.0,14.0,64.07515624999999,-10.89,3.9711775,33.18
2021-06-28 10:35:22.960937500,-63.25,7.0,14.0,64.07429687499999,-8.265,3.9708972499999997,33.18
2021-06-28 10:35:22.968750000,-63.0,7.0,14.0,64.0734375,-5.64,3.970617,33.18
2021-06-28 10:35:22.976562500,-63.0,7.0,14.0,64.07257812499999,-3.3899999999999997,3.97033675,33.18
2021-06-28 10:35:22.984375000,-63.0,7.0,14.0,64.07171874999999,-1.14,3.9700565,33.18
2021-06-28 10:35:22.992187500,-63.0,7.0,14.0,64.070859375,0.8299999999999998,3.96977625,33.18
2021-06-28 10:35:23.000000000,-63.0,7.0,14.0,64.07,2.8,3.969496,33.18
2021-06-28 10:35:23.007812500,-63.0,7.0,14.0,64.06906249999999,4.525,3.9688955,33.18
2021-06-28 10:35:23.015625000,-63.0,7.0,14.0,64.068125,6.25,3.968295,33.18
2021-06-28 10:35:23.023437500,-63.0,7.0,14.0,64.06718749999999,7.705,3.9676945,33.18
2021-06-28 10:35:23.031250000,-63.0,7.0,14.0,64.06625,9.16,3.967094,33.18
2021-06-28 10:35:23.039062500,-63.25,7.0,14.0,64.06531249999999,10.254999999999999,3.9664935,33.18
2021-06-28 10:35:23.046875000,-63.5,7.0,14.0,64.064375,11.35,3.965893,33.18
2021-06-28 10:35:23.054687500,-63.75,7.0,14.0,64.06343749999999,12.035,3.9652925,33.18
2021-06-28 10:35:23.062500000,-64.0,7.0,14.0,64.0625,12.72,3.964692,33.18
2021-06-28 10:35:23.070312500,-64.0,7.0,14.0,64.0615625,13.035,3.9640915,33.18
2021-06-28 10:35:23.078125000,-64.0,7.0,14.0,64.06062499999999,13.35,3.963491,33.18
2021-06-28 10:35:23.085937500,-64.0,7.0,14.0,64.0596875,13.425,3.9628905,33.18
2021-06-28 10:35:23.093750000,-64.0,7.0,14.0,64.05874999999999,13.5,3.96229,33.18
2021-06-28 10:35:23.101562500,-63.75,7.0,14.0,64.0578125,13.530000000000001,3.9616895,33.18
2021-06-28 10:35:23.109375000,-63.5,7.0,14.0,64.05687499999999,13.56,3.961089,33.18
2021-06-28 10:35:23.117187500,-63.25,7.0,14.0,64.0559375,13.71,3.9604885,33.18
2021-06-28 10:35:23.125000000,-63.0,7.0,14.0,64.05499999999999,13.86,3.959888,33.18
2021-06-28 10:35:23.132812500,-63.0,7.0,14.25,64.0540625,14.21,3.9592875,33.18
2021-06-28 10:35:23.140625000,-63.0,7.0,14.5,64.053125,14.56,3.958687,33.18
2021-06-28 10:35:23.148437500,-63.0,7.0,14.75,64.05218749999999,15.065000000000001,3.9580865,33.18
2021-06-28 10:35:23.156250000,-63.0,7.0,15.0,64.05125,15.57,3.957486,33.18
