TimeStamp,empatica.acc.x,empatica.acc.y,empatica.acc.z,empatica.hr,empatica.bvp,empatica.eda,empatica.temp
2021-07-08 18:57:09.296875000,-35.0,2.0,54.0,107.55,4.7,0.7550981875,34.03
2021-07-08 18:57:09.304687500,-35.0,2.0,54.0,107.55,9.239999999999998,0.75513821875,34.03
2021-07-08 18:57:09.312500000,-35.0,2.0,54.0,107.55,13.78,0.75517825,34.03
2021-07-08 18:57:09.320312500,-35.0,2.0,54.0,107.55,17.19,0.75521828125,34.03
2021-07-08 18:57:09.328125000,-35.0,2.0,54.0,107.55,20.6,0.7552583125,34.03
2021-07-08 18:57:09.335937500,-35.0,2.0,54.0,107.55,22.8,0.75529834375,34.03
2021-07-08 18:57:09.343750000,-35.0,2.0,54.0,107.55,25.0,0.755338375,34.03
2021-07-08 18:57:09.351562500,-35.0,2.0,54.0,107.55,25.975,0.75537840625,34.03
2021-07-08 18:57:09.359375000,-35.0,2.0,54.0,107.55,26.95,0.7554184375,34.03
2021-07-08 18:57:09.367187500,-35.0,2.0,54.0,107.55,26.765,0.75545846875,34.03
2021-07-08 18:57:09.375000000,-35.0,2.0,54.0,107.55,26.58,0.7554985000000001,34.03
2021-07-08 18:57:09.382812500,-35.0,2.0,54.0,107.55,25.4,0.75553853125,34.03
2021-07-08 18:57:09.390625000,-35.0,2.0,54.0,107.55,24.22,0.7555785625,34.03
2021-07-08 18:57:09.398437500,-35.0,2.0,54.0,107.55,22.354999999999997,0.7556185937500001,34.03
2021-07-08 18:57:09.406250000,-35.0,2.0,54.0,107.55,20.49,0.755658625,34.03
2021-07-08 18:57:09.414062500,-35.0,2.0,54.0,107.55,18.369999999999997,0.75569865625,34.03
2021-07-08 18:57:09.421875000,-35.0,2.0,54.0,107.55,16.25,0.7557386875000001,34.03
2021-07-08 18:57:09.429687500,-35.0,2.0,54.0,107.55,14.35,0.75577871875,34.03
2021-07-08 18:57:09.437500000,-35.0,2.0,54.0,107.55,12.45,0.75581875,34.03
2021-07-08 18:57:09.445312500,-35.0,2.0,54.0,107.55,11.105,0.7558587812500001,34.03
2021-07-08 18:57:09.453125000,-35.0,2.0,54.0,107.55,9.76,0.7558988125,34.03
2021-07-08 18:57:09.460937500,-35.0,2.0,54.0,107.55,9.085,0.75593884375,34.03
2021-07-08 18:57:09.468750000,-35.0,2.0,54.0,107.55,8.41,0.755978875,34.03
2021-07-08 18:57:09.476562500,-35.0,2.0,54.0,107.55,8.235,0.75601890625,34.03
2021-07-08 18:57:09.484375000,-35.0,2.0,54.0,107.55,8.06,0.7560589375,34.03
2021-07-08 18:57:09.492187500,-35.0,2.0,54.0,107.55,8.04,0.75609896875,34.03
2021-07-08 18:57:09.500000000,-35.0,2.0,54.0,107.55,8.02,0.756139,34.03
2021-07-08 18:57:09.507812500,-35.0,2.0,54.0,107.55,7.805,0.7560589375,34.03
2021-07-08 18:57:09.515625000,-35.0,2.0,54.0,107.55,7.59,0.755978875,34.03
2021-07-08 18:57:09.523437500,-35.0,2.0,54.0,107.55,6.96,0.7558988125,34.03
2021-07-08 18:57:09.531250000,-35.0,2.0,54.0,107.55,6.33,0.75581875,34.03
2021-07-08 18:57:09.539062500,-35.0,2.0,54.0,107.55,5.285,0.7557386875000001,34.03
2021-07-08 18:57:09.546875000,-35.0,2.0,54.0,107.55,4.24,0.755658625,34.03
2021-07-08 18:57:09.554687500,-35.0,2.0,54.0,107.55,2.965,0.7555785625,34.03
2021-07-08 18:57:09.562500000,-35.0,2.0,54.0,107.55,1.69,0.7554985000000001,34.03
2021-07-08 18:57:09.570312500,-35.0,2.0,54.0,107.55,0.3899999999999999,0.7554184375,34.03
2021-07-08 18:57:09.578125000,-35.0,2.0,54.0,107.55,-0.91,0.755338375,34.03
2021-07-08 18:57:09.585937500,-35.0,2.0,54.0,107.55,-2.0949999999999998,0.7552583125,34.03
2021-07-08 18:57:09.593750000,-35.0,2.0,54.0,107.55,-3.28,0.75517825,34.03
2021-07-08 18:57:09.601562500,-35.0,2.0,54.0,107.55,-4.405,0.7550981875,34.03
2021-07-08 18:57:09.609375000,-35.0,2.0,54.0,107.55,-5.53,0.755018125,34.03
2021-07-08 18:57:09.617187500,-35.0,2.0,54.0,107.55,-6.765000000000001,0.7549380625000001,34.03
2021-07-08 18:57:09.625000000,-35.0,2.0,54.0,107.55,-8.0,0.754858,34.03
2021-07-08 18:57:09.632812500,-35.0,2.0,54.0,107.55,-9.585,0.7547779375,34.03
2021-07-08 18:57:09.640625000,-35.0,2.0,54.0,107.55,-11.17,0.7546978750000001,34.03
2021-07-08 18:57:09.648437500,-35.0,2.0,54.0,107.55,-13.295,0.7546178125,34.03
2021-07-08 18:57:09.656250000,-35.0,2.0,54.0,107.55,-15.42,0.75453775,34.03
2021-07-08 18:57:09.664062500,-35.0,2.0,54.0,107.55,-18.15,0.7544576875000001,34.03
2021-07-08 18:57:09.671875000,-35.0,2.0,54.0,107.55,-20.88,0.754377625,34.03
2021-07-08 18:57:09.679687500,-35.0,2.0,54.0,107.55,-24.119999999999997,0.7542975625,34.03
2021-07-08 18:57:09.687500000,-35.0,2.0,54.0,107.55,-27.36,0.7542175,34.03
2021-07-08 18:57:09.695312500,-35.0,2.0,54.0,107.55,-30.83,0.7541374375000001,34.03
2021-07-08 18:57:09.703125000,-35.0,2.0,54.0,107.55,-34.3,0.754057375,34.03
2021-07-08 18:57:09.710937500,-35.0,2.0,54.0,107.55,-37.525,0.7539773125,34.03
2021-07-08 18:57:09.718750000,-35.0,2.0,54.0,107.55,-40.75,0.7538972500000001,34.03
2021-07-08 18:57:09.726562500,-35.0,2.0,54.0,107.55,-43.15,0.7538171875,34.03
2021-07-08 18:57:09.734375000,-35.0,2.0,54.0,107.55,-45.55,0.753737125,34.03
2021-07-08 18:57:09.742187500,-35.0,2.0,54.0,107.55,-46.525,0.7536570625000001,34.03
2021-07-08 18:57:09.750000000,-35.0,2.0,54.0,107.55,-47.5,0.753577,34.03
2021-07-08 18:57:09.757812500,-35.0,2.0,54.0,107.55,-46.620000000000005,0.75361703125,34.03
2021-07-08 18:57:09.765625000,-35.0,2.0,54.0,107.55,-45.74,0.7536570625000001,34.03
2021-07-08 18:57:09.773437500,-35.0,2.0,54.0,107.55,-42.875,0.75369709375,34.03
2021-07-08 18:57:09.781250000,-35.0,2.0,54.0,107.55,-40.01,0.753737125,34.03
2021-07-08 18:57:09.789062500,-35.0,2.0,54.0,107.55,-35.435,0.7537771562500001,34.03
2021-07-08 18:57:09.796875000,-35.0,2.0,54.0,107.55,-30.86,0.7538171875,34.03
2021-07-08 18:57:09.804687500,-35.0,2.0,54.0,107.55,-25.17,0.75385721875,34.03
2021-07-08 18:57:09.812500000,-35.0,2.0,54.0,107.55,-19.48,0.7538972500000001,34.03
2021-07-08 18:57:09.820312500,-35.0,2.0,54.0,107.55,-13.440000000000001,0.75393728125,34.03
2021-07-08 18:57:09.828125000,-35.0,2.0,54.0,107.55,-7.4,0.7539773125,34.03
2021-07-08 18:57:09.835937500,-35.0,2.0,54.0,107.55,-1.71,0.7540173437500001,34.03
2021-07-08 18:57:09.843750000,-35.0,2.0,54.0,107.55,3.98,0.754057375,34.03
2021-07-08 18:57:09.851562500,-34.75,2.0,54.0,107.55,8.845,0.75409740625,34.03
2021-07-08 18:57:09.859375000,-34.5,2.0,54.0,107.55,13.71,0.7541374375000001,34.03
2021-07-08 18:57:09.867187500,-34.25,2.0,54.0,107.55,17.575000000000003,0.75417746875,34.03
2021-07-08 18:57:09.875000000,-34.0,2.0,54.0,107.55,21.44,0.7542175,34.03
2021-07-08 18:57:09.882812500,-34.25,2.0,54.0,107.55,24.32,0.7542575312500001,34.03
2021-07-08 18:57:09.890625000,-34.5,2.0,54.0,107.55,27.2,0.7542975625,34.03
2021-07-08 18:57:09.898437500,-34.75,2.0,54.0,107.55,29.195,0.7543375937500001,34.03
2021-07-08 18:57:09.906250000,-35.0,2.0,54.0,107.55,31.19,0.754377625,34.03
2021-07-08 18:57:09.914062500,-35.0,2.0,54.0,107.55,32.34,0.75441765625,34.03
2021-07-08 18:57:09.921875000,-35.0,2.0,54.0,107.55,33.49,0.7544576875000001,34.03
2021-07-08 18:57:09.929687500,-35.0,2.0,54.0,107.55,33.769999999999996,0.75449771875,34.03
2021-07-08 18:57:09.937500000,-35.0,2.0,54.0,107.55,34.05,0.75453775,34.03
2021-07-08 18:57:09.945312500,-34.75,2.0,54.0,107.55,33.45,0.7545777812500001,34.03
2021-07-08 18:57:09.953125000,-34.5,2.0,54.0,107.55,32.85,0.7546178125,34.03
2021-07-08 18:57:09.960937500,-34.25,2.0,54.0,107.55,31.465,0.75465784375,34.03
2021-07-08 18:57:09.968750000,-34.0,2.0,54.0,107.55,30.08,0.7546978750000001,34.03
2021-07-08 18:57:09.976562500,-34.25,2.0,54.0,107.55,28.2,0.75473790625,34.03
2021-07-08 18:57:09.984375000,-34.5,2.0,54.0,107.55,26.32,0.7547779375,34.03
2021-07-08 18:57:09.992187500,-34.75,2.0,54.0,107.55,24.34,0.7548179687500001,34.03
2021-07-08 18:57:10.000000000,-35.0,2.0,54.0,107.55,22.36,0.754858,34.03
2021-07-08 18:57:10.007812500,-35.0,2.0,54.0,107.55,20.685000000000002,0.7547779375,34.03
2021-07-08 18:57:10.015625000,-35.0,2.0,54.0,107.55,19.01,0.7546978750000001,34.03
2021-07-08 18:57:10.023437500,-35.0,2.0,54.0,107.55,17.85,0.7546178125,34.03
2021-07-08 18:57:10.031250000,-35.0,2.0,54.0,107.55,16.69,0.75453775,34.03
2021-07-08 18:57:10.039062500,-34.75,2.0,54.0,107.55,15.96,0.7544576875,34.03
2021-07-08 18:57:10.046875000,-34.5,2.0,54.0,107.55,15.23,0.754377625,34.03
2021-07-08 18:57:10.054687500,-34.25,2.0,54.0,107.55,14.67,0.7542975625,34.03
2021-07-08 18:57:10.062500000,-34.0,2.0,54.0,107.55,14.11,0.7542175,34.03
2021-07-08 18:57:10.070312500,-34.25,2.0,54.0,107.55,13.399999999999999,0.7541374375000001,34.03
2021-07-08 18:57:10.078125000,-34.5,2.0,54.0,107.55,12.69,0.754057375,34.03
2021-07-08 18:57:10.085937500,-34.75,2.0,54.0,107.55,11.66,0.7539773125,34.03
2021-07-08 18:57:10.093750000,-35.0,2.0,54.0,107.55,10.63,0.75389725,34.03
2021-07-08 18:57:10.101562500,-35.0,2.0,54.0,107.55,9.34,0.7538171875,34.03
2021-07-08 18:57:10.109375000,-35.0,2.0,54.0,107.55,8.05,0.753737125,34.03
2021-07-08 18:57:10.117187500,-35.0,2.0,54.0,107.55,6.7,0.7536570625,34.03
2021-07-08 18:57:10.125000000,-35.0,2.0,54.0,107.55,5.35,0.7535769999999999,34.03
2021-07-08 18:57:10.132812500,-35.0,2.0,54.0,107.55,4.15,0.7534969375,34.03
2021-07-08 18:57:10.140625000,-35.0,2.0,54.0,107.55,2.95,0.753416875,34.03
2021-07-08 18:57:10.148437500,-35.0,2.0,54.0,107.55,1.9000000000000001,0.7533368125,34.03
2021-07-08 18:57:10.156250000,-35.0,2.0,54.0,107.55,0.85,0.75325675,34.03
2021-07-08 18:57:10.164062500,-34.75,2.0,54.0,107.55,-0.245,0.7531766875,34.03
2021-07-08 18:57:10.171875000,-34.5,2.0,54.0,107.55,-1.34,0.753096625,34.03
2021-07-08 18:57:10.179687500,-34.25,2.0,54.0,107.55,-2.8200000000000003,0.7530165624999999,34.03
2021-07-08 18:57:10.187500000,-34.0,2.0,54.0,107.55,-4.3,0.7529365,34.03
2021-07-08 18:57:10.195312500,-34.25,2.0,54.0,107.55,-6.455,0.7528564375,34.03
2021-07-08 18:57:10.203125000,-34.5,2.0,54.0,107.55,-8.61,0.7527763749999999,34.03
2021-07-08 18:57:10.210937500,-34.75,2.0,54.0,107.55,-11.565,0.7526963125,34.03
2021-07-08 18:57:10.218750000,-35.0,2.0,54.0,107.55,-14.52,0.75261625,34.03
2021-07-08 18:57:10.226562500,-35.0,2.0,54.0,107.55,-18.145,0.7525361875,34.03
2021-07-08 18:57:10.234375000,-35.0,2.0,54.0,107.55,-21.77,0.7524561249999999,34.03
2021-07-08 18:57:10.242187500,-35.0,2.0,54.0,107.55,-25.68,0.7523760625,34.03
2021-07-08 18:57:10.250000000,-35.0,2.0,54.0,107.55,-29.59,0.752296,34.03
2021-07-08 18:57:10.257812500,-35.0,2.0,54.0,107.55,-33.26,0.7523360312499999,34.03
2021-07-08 18:57:10.265625000,-35.0,2.0,54.0,107.55,-36.93,0.7523760625,34.03
2021-07-08 18:57:10.273437500,-35.0,2.0,54.0,107.55,-39.754999999999995,0.75241609375,34.03
2021-07-08 18:57:10.281250000,-35.0,2.0,54.0,107.55,-42.58,0.7524561249999999,34.03
2021-07-08 18:57:10.289062500,-35.0,2.0,54.0,107.55,-44.004999999999995,0.75249615625,34.03
2021-07-08 18:57:10.296875000,-35.0,2.0,54.0,107.55,-45.43,0.7525361875,34.03
2021-07-08 18:57:10.304687500,-35.0,2.0,54.0,107.55,-45.065,0.75257621875,34.03
2021-07-08 18:57:10.312500000,-35.0,2.0,54.0,107.55,-44.7,0.75261625,34.03
2021-07-08 18:57:10.320312500,-35.0,2.0,54.0,107.55,-42.445,0.75265628125,34.03
2021-07-08 18:57:10.328125000,-35.0,2.0,54.0,107.55,-40.19,0.7526963125,34.03
2021-07-08 18:57:10.335937500,-35.0,2.0,54.0,107.55,-36.265,0.75273634375,34.03
2021-07-08 18:57:10.343750000,-35.0,2.0,54.0,107.55,-32.34,0.752776375,34.03
2021-07-08 18:57:10.351562500,-35.0,2.0,54.0,107.55,-27.265,0.75281640625,34.03
2021-07-08 18:57:10.359375000,-35.0,2.0,54.0,107.55,-22.19,0.7528564375,34.03
2021-07-08 18:57:10.367187500,-35.0,2.0,54.0,107.55,-16.645,0.75289646875,34.03
2021-07-08 18:57:10.375000000,-35.0,2.0,54.0,107.55,-11.1,0.7529365,34.03
2021-07-08 18:57:10.382812500,-35.0,2.0,54.0,107.55,-5.74,0.75297653125,34.03
2021-07-08 18:57:10.390625000,-35.0,2.0,54.0,107.55,-0.38,0.7530165625,34.03
2021-07-08 18:57:10.398437500,-35.0,2.0,54.0,107.55,4.3500000000000005,0.75305659375,34.03
2021-07-08 18:57:10.406250000,-35.0,2.0,54.0,107.55,9.08,0.753096625,34.03
2021-07-08 18:57:10.414062500,-35.0,2.0,54.0,107.55,12.965,0.75313665625,34.03
2021-07-08 18:57:10.421875000,-35.0,2.0,54.0,107.55,16.85,0.7531766875,34.03
2021-07-08 18:57:10.429687500,-35.0,2.0,54.0,107.55,19.905,0.7532167187500001,34.03
2021-07-08 18:57:10.437500000,-35.0,2.0,54.0,107.55,22.96,0.75325675,34.03
2021-07-08 18:57:10.445312500,-35.0,2.0,54.0,107.55,25.255000000000003,0.75329678125,34.03
2021-07-08 18:57:10.453125000,-35.0,2.0,54.0,107.55,27.55,0.7533368125000001,34.03
2021-07-08 18:57:10.460937500,-35.0,2.0,54.0,107.55,29.130000000000003,0.75337684375,34.03
2021-07-08 18:57:10.468750000,-35.0,2.0,54.0,107.55,30.71,0.7534168750000001,34.03
2021-07-08 18:57:10.476562500,-35.0,2.0,54.0,107.55,31.545,0.7534569062500001,34.03
2021-07-08 18:57:10.484375000,-35.0,2.0,54.0,107.55,32.38,0.7534969375,34.03
2021-07-08 18:57:10.492187500,-35.0,2.0,54.0,107.55,32.43,0.7535369687500001,34.03
2021-07-08 18:57:10.500000000,-35.0,2.0,54.0,107.55,32.48,0.753577,34.03
2021-07-08 18:57:10.507812500,-34.75,2.0,54.0,107.55,31.81,0.7534969375,34.03
2021-07-08 18:57:10.515625000,-34.5,2.0,54.0,107.55,31.14,0.7534168750000001,34.03
2021-07-08 18:57:10.523437500,-34.25,2.0,54.0,107.55,29.955,0.7533368125000001,34.03
2021-07-08 18:57:10.531250000,-34.0,2.0,54.0,107.55,28.77,0.75325675,34.03
2021-07-08 18:57:10.539062500,-34.25,2.0,54.0,107.55,27.39,0.7531766875,34.03
2021-07-08 18:57:10.546875000,-34.5,2.0,54.0,107.55,26.01,0.7530966250000001,34.03
2021-07-08 18:57:10.554687500,-34.75,2.0,54.0,107.55,24.78,0.7530165625,34.03
2021-07-08 18:57:10.562500000,-35.0,2.0,54.0,107.55,23.55,0.7529365,34.03
2021-07-08 18:57:10.570312500,-35.0,2.0,54.0,107.55,22.66,0.7528564375000001,34.03
2021-07-08 18:57:10.578125000,-35.0,2.0,54.0,107.55,21.77,0.752776375,34.03
2021-07-08 18:57:10.585937500,-35.0,2.0,54.0,107.55,21.195,0.7526963125,34.03
2021-07-08 18:57:10.593750000,-35.0,2.0,54.0,107.55,20.62,0.75261625,34.03
2021-07-08 18:57:10.601562500,-35.0,2.0,54.0,107.55,20.155,0.7525361875000001,34.03
2021-07-08 18:57:10.609375000,-35.0,2.0,54.0,107.55,19.69,0.752456125,34.03
2021-07-08 18:57:10.617187500,-35.0,2.0,54.0,107.55,19.060000000000002,0.7523760625,34.03
2021-07-08 18:57:10.625000000,-35.0,2.0,54.0,107.55,18.43,0.7522960000000001,34.03
2021-07-08 18:57:10.632812500,-35.0,2.0,54.0,107.55,17.47,0.7522159375,34.03
2021-07-08 18:57:10.640625000,-35.0,2.0,54.0,107.55,16.51,0.752135875,34.03
2021-07-08 18:57:10.648437500,-35.0,2.0,54.0,107.55,15.21,0.7520558125,34.03
2021-07-08 18:57:10.656250000,-35.0,2.0,54.0,107.55,13.91,0.75197575,34.03
2021-07-08 18:57:10.664062500,-35.0,2.0,54.0,107.55,12.425,0.7518956875,34.03
2021-07-08 18:57:10.671875000,-35.0,2.0,54.0,107.55,10.94,0.751815625,34.03
2021-07-08 18:57:10.679687500,-35.0,2.0,54.0,107.55,9.465,0.7517355625,34.03
2021-07-08 18:57:10.687500000,-35.0,2.0,54.0,107.55,7.99,0.7516555,34.03
2021-07-08 18:57:10.695312500,-35.0,2.0,54.0,107.55,6.675000000000001,0.7515754375,34.03
2021-07-08 18:57:10.703125000,-35.0,2.0,54.0,107.55,5.36,0.751495375,34.03
2021-07-08 18:57:10.710937500,-35.0,2.0,54.0,107.55,4.1850000000000005,0.7514153125,34.03
2021-07-08 18:57:10.718750000,-35.0,2.0,54.0,107.55,3.01,0.75133525,34.03
2021-07-08 18:57:10.726562500,-35.0,2.0,54.0,107.55,1.8299999999999998,0.7512551875,34.03
2021-07-08 18:57:10.734375000,-35.0,2.0,54.0,107.55,0.65,0.7511751249999999,34.03
2021-07-08 18:57:10.742187500,-35.0,2.0,54.0,107.55,-0.765,0.7510950625,34.03
2021-07-08 18:57:10.750000000,-35.0,2.0,54.0,107.55,-2.18,0.751015,34.03
2021-07-08 18:57:10.757812500,-35.0,2.0,54.0,107.55,-4.015,0.7510950625,34.03
2021-07-08 18:57:10.765625000,-35.0,2.0,54.0,107.55,-5.85,0.7511751249999999,34.03
2021-07-08 18:57:10.773437500,-35.0,2.0,54.0,107.55,-8.23,0.7512551875,34.03
2021-07-08 18:57:10.781250000,-35.0,2.0,54.0,107.55,-10.61,0.75133525,34.03
2021-07-08 18:57:10.789062500,-35.0,2.0,54.0,107.55,-13.54,0.7514153125,34.03
2021-07-08 18:57:10.796875000,-35.0,2.0,54.0,107.55,-16.47,0.751495375,34.03
2021-07-08 18:57:10.804687500,-35.0,2.0,54.0,107.55,-19.785,0.7515754375,34.03
2021-07-08 18:57:10.812500000,-35.0,2.0,54.0,107.55,-23.1,0.7516555,34.03
2021-07-08 18:57:10.820312500,-35.0,2.0,54.0,107.55,-26.535,0.7517355625,34.03
2021-07-08 18:57:10.828125000,-35.0,2.0,54.0,107.55,-29.97,0.751815625,34.03
2021-07-08 18:57:10.835937500,-35.0,2.0,54.0,107.55,-33.095,0.7518956875,34.03
2021-07-08 18:57:10.843750000,-35.0,2.0,54.0,107.55,-36.22,0.75197575,34.03
2021-07-08 18:57:10.851562500,-35.0,2.0,54.0,107.55,-38.525,0.7520558125,34.03
2021-07-08 18:57:10.859375000,-35.0,2.0,54.0,107.55,-40.83,0.752135875,34.03
2021-07-08 18:57:10.867187500,-35.0,2.0,54.0,107.55,-41.83,0.7522159375,34.03
2021-07-08 18:57:10.875000000,-35.0,2.0,54.0,107.55,-42.83,0.7522960000000001,34.03
2021-07-08 18:57:10.882812500,-34.75,2.0,54.0,107.55,-42.2,0.7523760625,34.03
2021-07-08 18:57:10.890625000,-34.5,2.0,54.0,107.55,-41.57,0.752456125,34.03
2021-07-08 18:57:10.898437500,-34.25,2.0,54.0,107.55,-39.225,0.7525361875000001,34.03
2021-07-08 18:57:10.906250000,-34.0,2.0,54.0,107.55,-36.88,0.75261625,34.03
2021-07-08 18:57:10.914062500,-34.25,2.0,54.0,107.55,-33.065,0.7526963125,34.03
2021-07-08 18:57:10.921875000,-34.5,2.0,54.0,107.55,-29.25,0.752776375,34.03
2021-07-08 18:57:10.929687500,-34.75,2.0,54.0,107.55,-24.425,0.7528564375000001,34.03
2021-07-08 18:57:10.937500000,-35.0,2.0,54.0,107.55,-19.6,0.7529365,34.03
2021-07-08 18:57:10.945312500,-35.0,2.0,54.0,107.55,-14.350000000000001,0.7530165625,34.03
2021-07-08 18:57:10.953125000,-35.0,2.0,54.0,107.55,-9.1,0.7530966250000001,34.03
2021-07-08 18:57:10.960937500,-35.0,2.0,54.0,107.55,-3.955,0.7531766875,34.03
2021-07-08 18:57:10.968750000,-35.0,2.0,54.0,107.55,1.19,0.75325675,34.03
2021-07-08 18:57:10.976562500,-35.0,2.0,54.0,107.55,5.845000000000001,0.7533368125000001,34.03
2021-07-08 18:57:10.984375000,-35.0,2.0,54.0,107.55,10.5,0.7534168750000001,34.03
2021-07-08 18:57:10.992187500,-35.0,2.0,54.0,107.55,14.44,0.7534969375,34.03
2021-07-08 18:57:11.000000000,-35.0,2.0,54.0,107.55,18.38,0.753577,34.03
2021-07-08 18:57:11.007812500,-35.0,2.0,54.0,107.550546875,21.515,0.753577,34.030625
2021-07-08 18:57:11.015625000,-35.0,2.0,54.0,107.55109374999999,24.65,0.753577,34.03125
2021-07-08 18:57:11.023437500,-35.0,2.0,54.0,107.55164062499999,26.924999999999997,0.753577,34.031875
2021-07-08 18:57:11.031250000,-35.0,2.0,54.0,107.5521875,29.2,0.753577,34.0325
2021-07-08 18:57:11.039062500,-35.0,2.0,54.0,107.552734375,30.57,0.753577,34.033125
2021-07-08 18:57:11.046875000,-35.0,2.0,54.0,107.55328125,31.94,0.753577,34.03375
2021-07-08 18:57:11.054687500,-35.0,2.0,54.0,107.553828125,32.38,0.753577,34.034375
2021-07-08 18:57:11.062500000,-35.0,2.0,54.0,107.554375,32.82,0.753577,34.035
2021-07-08 18:57:11.070312500,-35.0,2.0,54.0,107.55492187499999,32.4,0.753577,34.035625
2021-07-08 18:57:11.078125000,-35.0,2.0,54.0,107.55546875,31.98,0.753577,34.03625
2021-07-08 18:57:11.085937500,-35.0,2.0,54.0,107.556015625,30.895,0.753577,34.036875
2021-07-08 18:57:11.093750000,-35.0,2.0,54.0,107.5565625,29.81,0.753577,34.0375
2021-07-08 18:57:11.101562500,-35.0,2.0,54.0,107.557109375,28.375,0.753577,34.038125
2021-07-08 18:57:11.109375000,-35.0,2.0,54.0,107.55765625,26.94,0.753577,34.03875
2021-07-08 18:57:11.117187500,-35.0,2.0,54.0,107.55820312499999,25.515,0.753577,34.039375
2021-07-08 18:57:11.125000000,-35.0,2.0,54.0,107.55875,24.09,0.753577,34.04
2021-07-08 18:57:11.132812500,-35.0,2.0,54.0,107.559296875,22.96,0.753577,34.040625
2021-07-08 18:57:11.140625000,-35.0,2.0,54.0,107.55984375,21.83,0.753577,34.04125
2021-07-08 18:57:11.148437500,-35.0,2.0,54.0,107.560390625,21.13,0.753577,34.041875
2021-07-08 18:57:11.156250000,-35.0,2.0,54.0,107.5609375,20.43,0.753577,34.0425
2021-07-08 18:57:11.164062500,-35.0,2.0,54.0,107.56148437499999,20.085,0.753577,34.043124999999996
2021-07-08 18:57:11.171875000,-35.0,2.0,54.0,107.56203125,19.74,0.753577,34.043749999999996
2021-07-08 18:57:11.179687500,-35.0,2.0,54.0,107.562578125,19.515,0.753577,34.044374999999995
2021-07-08 18:57:11.187500000,-35.0,2.0,54.0,107.563125,19.29,0.753577,34.045
2021-07-08 18:57:11.195312500,-35.0,2.0,54.0,107.563671875,18.905,0.753577,34.045625
2021-07-08 18:57:11.203125000,-35.0,2.0,54.0,107.56421875,18.52,0.753577,34.04625
2021-07-08 18:57:11.210937500,-35.0,2.0,54.0,107.56476562499999,17.77,0.753577,34.046875
2021-07-08 18:57:11.218750000,-35.0,2.0,54.0,107.5653125,17.02,0.753577,34.0475
2021-07-08 18:57:11.226562500,-35.0,2.0,54.0,107.565859375,15.844999999999999,0.753577,34.048125
2021-07-08 18:57:11.234375000,-35.0,2.0,54.0,107.56640625,14.67,0.753577,34.04875
2021-07-08 18:57:11.242187500,-35.0,2.0,54.0,107.566953125,13.17,0.753577,34.049375
2021-07-08 18:57:11.250000000,-35.0,2.0,54.0,107.5675,11.67,0.753577,34.05
2021-07-08 18:57:11.257812500,-35.0,2.0,54.0,107.568046875,10.065000000000001,0.7534168750000001,34.05
2021-07-08 18:57:11.265625000,-35.0,2.0,54.0,107.56859375,8.46,0.75325675,34.05
2021-07-08 18:57:11.273437500,-35.0,2.0,54.0,107.569140625,6.9350000000000005,0.7530966250000001,34.05
2021-07-08 18:57:11.281250000,-35.0,2.0,54.0,107.5696875,5.41,0.7529365,34.05
2021-07-08 18:57:11.289062500,-34.75,2.0,54.0,107.570234375,4.055,0.752776375,34.05
2021-07-08 18:57:11.296875000,-34.5,2.0,54.0,107.57078125,2.7,0.7526162500000001,34.05
2021-07-08 18:57:11.304687500,-34.25,2.0,54.0,107.571328125,1.4700000000000002,0.752456125,34.05
2021-07-08 18:57:11.312500000,-34.0,2.0,54.0,107.571875,0.24,0.7522960000000001,34.05
2021-07-08 18:57:11.320312500,-34.25,2.0,54.0,107.572421875,-1.0399999999999998,0.752135875,34.05
2021-07-08 18:57:11.328125000,-34.5,2.0,54.0,107.57296875,-2.32,0.75197575,34.05
2021-07-08 18:57:11.335937500,-34.75,2.0,54.0,107.573515625,-3.8899999999999997,0.7518156250000001,34.05
2021-07-08 18:57:11.343750000,-35.0,2.0,54.0,107.5740625,-5.46,0.7516555,34.05
2021-07-08 18:57:11.351562500,-35.0,2.0,54.0,107.574609375,-7.529999999999999,0.7514953750000001,34.05
2021-07-08 18:57:11.359375000,-35.0,2.0,54.0,107.57515625,-9.6,0.75133525,34.05
2021-07-08 18:57:11.367187500,-35.0,2.0,54.0,107.575703125,-12.29,0.751175125,34.05
2021-07-08 18:57:11.375000000,-35.0,2.0,54.0,107.57625,-14.98,0.751015,34.05
2021-07-08 18:57:11.382812500,-35.0,2.0,54.0,107.576796875,-18.25,0.750854875,34.05
2021-07-08 18:57:11.390625000,-35.0,2.0,54.0,107.57734375,-21.52,0.7506947500000001,34.05
2021-07-08 18:57:11.398437500,-35.0,2.0,54.0,107.577890625,-25.119999999999997,0.750534625,34.05
2021-07-08 18:57:11.406250000,-35.0,2.0,54.0,107.5784375,-28.72,0.7503745,34.05
2021-07-08 18:57:11.414062500,-35.0,2.0,54.0,107.578984375,-32.205,0.750214375,34.05
2021-07-08 18:57:11.421875000,-35.0,2.0,54.0,107.57953125,-35.69,0.75005425,34.05
2021-07-08 18:57:11.429687500,-35.0,2.0,54.0,107.580078125,-38.504999999999995,0.7498941250000001,34.05
2021-07-08 18:57:11.437500000,-35.0,2.0,54.0,107.580625,-41.32,0.749734,34.05
2021-07-08 18:57:11.445312500,-35.0,2.0,54.0,107.581171875,-42.894999999999996,0.7495738750000001,34.05
2021-07-08 18:57:11.453125000,-35.0,2.0,54.0,107.58171875000001,-44.47,0.74941375,34.05
2021-07-08 18:57:11.460937500,-35.0,2.0,54.0,107.582265625,-44.415,0.749253625,34.05
2021-07-08 18:57:11.468750000,-35.0,2.0,54.0,107.5828125,-44.36,0.7490935000000001,34.05
2021-07-08 18:57:11.476562500,-35.0,2.0,54.0,107.583359375,-42.555,0.748933375,34.05
2021-07-08 18:57:11.484375000,-35.0,2.0,54.0,107.58390625,-40.75,0.7487732500000001,34.05
2021-07-08 18:57:11.492187500,-35.0,2.0,54.0,107.584453125,-37.394999999999996,0.748613125,34.05
2021-07-08 18:57:11.500000000,-35.0,2.0,54.0,107.58500000000001,-34.04,0.748453,34.05
2021-07-08 18:57:11.507812500,-35.0,2.0,54.0,107.585546875,-29.595,0.74849303125,34.05
2021-07-08 18:57:11.515625000,-35.0,2.0,54.0,107.58609375,-25.15,0.7485330625000001,34.05
2021-07-08 18:57:11.523437500,-35.0,2.0,54.0,107.586640625,-20.174999999999997,0.74857309375,34.05
2021-07-08 18:57:11.531250000,-35.0,2.0,54.0,107.5871875,-15.2,0.748613125,34.05
2021-07-08 18:57:11.539062500,-35.0,2.0,54.0,107.587734375,-10.235,0.7486531562500001,34.05
2021-07-08 18:57:11.546875000,-35.0,2.0,54.0,107.58828125,-5.27,0.7486931875,34.05
2021-07-08 18:57:11.554687500,-35.0,2.0,54.0,107.588828125,-0.7299999999999995,0.74873321875,34.05
2021-07-08 18:57:11.562500000,-35.0,2.0,54.0,107.589375,3.81,0.7487732500000001,34.05
2021-07-08 18:57:11.570312500,-35.0,2.0,54.0,107.589921875,7.67,0.74881328125,34.05
2021-07-08 18:57:11.578125000,-35.0,2.0,54.0,107.59046875,11.53,0.7488533125,34.05
2021-07-08 18:57:11.585937500,-35.0,2.0,54.0,107.591015625,14.565000000000001,0.74889334375,34.05
2021-07-08 18:57:11.593750000,-35.0,2.0,54.0,107.5915625,17.6,0.748933375,34.05
2021-07-08 18:57:11.601562500,-34.75,2.0,54.0,107.592109375,19.755000000000003,0.74897340625,34.05
2021-07-08 18:57:11.609375000,-34.5,2.0,54.0,107.59265625,21.91,0.7490134375,34.05
2021-07-08 18:57:11.617187500,-34.25,2.0,54.0,107.593203125,23.18,0.74905346875,34.05
2021-07-08 18:57:11.625000000,-34.0,2.0,54.0,107.59375,24.45,0.7490935000000001,34.05
2021-07-08 18:57:11.632812500,-34.25,2.0,54.0,107.594296875,24.884999999999998,0.74913353125,34.05
2021-07-08 18:57:11.640625000,-34.5,2.0,54.0,107.59484375,25.32,0.7491735625,34.05
2021-07-08 18:57:11.648437500,-34.75,2.0,54.0,107.59539062500001,25.015,0.7492135937500001,34.05
2021-07-08 18:57:11.656250000,-35.0,2.0,54.0,107.5959375,24.71,0.749253625,34.05
2021-07-08 18:57:11.664062500,-35.0,2.0,54.0,107.596484375,23.875,0.74929365625,34.05
2021-07-08 18:57:11.671875000,-35.0,2.0,54.0,107.59703125,23.04,0.7493336875000001,34.05
2021-07-08 18:57:11.679687500,-35.0,2.0,54.0,107.597578125,21.93,0.74937371875,34.05
2021-07-08 18:57:11.687500000,-35.0,2.0,54.0,107.598125,20.82,0.74941375,34.05
2021-07-08 18:57:11.695312500,-35.0,2.0,54.0,107.59867187500001,19.705,0.7494537812500001,34.05
2021-07-08 18:57:11.703125000,-35.0,2.0,54.0,107.59921875,18.59,0.7494938125,34.05
2021-07-08 18:57:11.710937500,-35.0,2.0,54.0,107.599765625,17.68,0.74953384375,34.05
2021-07-08 18:57:11.718750000,-35.0,2.0,54.0,107.6003125,16.77,0.7495738750000001,34.05
2021-07-08 18:57:11.726562500,-35.0,2.0,54.0,107.600859375,16.134999999999998,0.74961390625,34.05
2021-07-08 18:57:11.734375000,-35.0,2.0,54.0,107.60140625,15.5,0.7496539375,34.05
2021-07-08 18:57:11.742187500,-35.0,2.0,54.0,107.60195312500001,15.05,0.74969396875,34.05
2021-07-08 18:57:11.750000000,-35.0,2.0,54.0,107.6025,14.6,0.749734,34.05
2021-07-08 18:57:11.757812500,-35.0,2.0,54.0,107.603046875,14.145,0.7496539375,34.05
2021-07-08 18:57:11.765625000,-35.0,2.0,54.0,107.60359375,13.69,0.7495738750000001,34.05
2021-07-08 18:57:11.773437500,-35.0,2.0,54.0,107.604140625,13.024999999999999,0.7494938125,34.05
2021-07-08 18:57:11.781250000,-35.0,2.0,54.0,107.6046875,12.36,0.74941375,34.05
2021-07-08 18:57:11.789062500,-34.75,2.0,54.0,107.60523437500001,11.395,0.7493336875,34.05
2021-07-08 18:57:11.796875000,-34.5,2.0,54.0,107.60578125,10.43,0.749253625,34.05
2021-07-08 18:57:11.804687500,-34.25,2.0,54.0,107.606328125,9.215,0.7491735625,34.05
2021-07-08 18:57:11.812500000,-34.0,2.0,54.0,107.606875,8.0,0.7490935,34.05
2021-07-08 18:57:11.820312500,-34.0,2.0,54.0,107.607421875,6.6850000000000005,0.7490134375,34.05
2021-07-08 18:57:11.828125000,-34.0,2.0,54.0,107.60796875,5.37,0.748933375,34.05
2021-07-08 18:57:11.835937500,-34.0,2.0,54.0,107.60851562500001,4.11,0.7488533125,34.05
2021-07-08 18:57:11.843750000,-34.0,2.0,54.0,107.60906250000001,2.85,0.74877325,34.05
2021-07-08 18:57:11.851562500,-34.25,2.0,54.0,107.609609375,1.695,0.7486931875,34.05
2021-07-08 18:57:11.859375000,-34.5,2.0,54.0,107.61015625,0.54,0.748613125,34.05
2021-07-08 18:57:11.867187500,-34.75,2.0,54.0,107.610703125,-0.575,0.7485330625,34.05
2021-07-08 18:57:11.875000000,-35.0,2.0,54.0,107.61125,-1.69,0.748453,34.05
2021-07-08 18:57:11.882812500,-35.0,2.0,54.0,107.61179687500001,-2.915,0.7483729375,34.05
2021-07-08 18:57:11.890625000,-35.0,2.0,54.0,107.61234375000001,-4.14,0.748292875,34.05
2021-07-08 18:57:11.898437500,-35.0,2.0,54.0,107.612890625,-5.63,0.7482128124999999,34.05
2021-07-08 18:57:11.906250000,-35.0,2.0,54.0,107.6134375,-7.12,0.74813275,34.05
2021-07-08 18:57:11.914062500,-35.0,2.0,54.0,107.613984375,-8.985,0.7480526875,34.05
2021-07-08 18:57:11.921875000,-35.0,2.0,54.0,107.61453125,-10.85,0.747972625,34.05
2021-07-08 18:57:11.929687500,-35.0,2.0,54.0,107.61507812500001,-13.115,0.7478925624999999,34.05
2021-07-08 18:57:11.937500000,-35.0,2.0,54.0,107.61562500000001,-15.38,0.7478125,34.05
2021-07-08 18:57:11.945312500,-34.75,2.0,54.0,107.616171875,-18.015,0.7477324375,34.05
2021-07-08 18:57:11.953125000,-34.5,2.0,54.0,107.61671875,-20.65,0.7476523749999999,34.05
2021-07-08 18:57:11.960937500,-34.25,2.0,54.0,107.617265625,-23.59,0.7475723125,34.05
2021-07-08 18:57:11.968750000,-34.0,2.0,54.0,107.6178125,-26.53,0.74749225,34.05
2021-07-08 18:57:11.976562500,-34.25,2.0,54.0,107.61835937500001,-29.62,0.7474121874999999,34.05
2021-07-08 18:57:11.984375000,-34.5,2.0,54.0,107.61890625000001,-32.71,0.7473321249999999,34.05
2021-07-08 18:57:11.992187500,-34.75,2.0,54.0,107.619453125,-35.685,0.7472520625,34.05
2021-07-08 18:57:12.000000000,-35.0,2.0,54.0,107.62,-38.66,0.747172,34.05
2021-07-08 18:57:12.007812500,-35.0,2.0,54.0,107.619453125,-41.11,0.7472920937499999,34.05
2021-07-08 18:57:12.015625000,-35.0,2.0,54.0,107.61890625000001,-43.56,0.7474121874999999,34.05
2021-07-08 18:57:12.023437500,-35.0,2.0,54.0,107.61835937500001,-45.019999999999996,0.7475322812499999,34.05
2021-07-08 18:57:12.031250000,-35.0,2.0,54.0,107.6178125,-46.48,0.7476523749999999,34.05
2021-07-08 18:57:12.039062500,-34.75,2.0,54.0,107.617265625,-46.525,0.7477724687499999,34.05
2021-07-08 18:57:12.046875000,-34.5,2.0,54.0,107.61671875,-46.57,0.7478925624999999,34.05
2021-07-08 18:57:12.054687500,-34.25,2.0,54.0,107.616171875,-45.015,0.7480126562499999,34.05
2021-07-08 18:57:12.062500000,-34.0,2.0,54.0,107.61562500000001,-43.46,0.7481327499999999,34.05
2021-07-08 18:57:12.070312500,-34.25,2.0,54.0,107.61507812500001,-40.400000000000006,0.74825284375,34.05
2021-07-08 18:57:12.078125000,-34.5,2.0,54.0,107.61453125,-37.34,0.7483729375,34.05
2021-07-08 18:57:12.085937500,-34.75,2.0,54.0,107.613984375,-33.160000000000004,0.74849303125,34.05
2021-07-08 18:57:12.093750000,-35.0,2.0,54.0,107.6134375,-28.98,0.748613125,34.05
2021-07-08 18:57:12.101562500,-35.0,2.0,54.0,107.612890625,-24.189999999999998,0.74873321875,34.05
2021-07-08 18:57:12.109375000,-35.0,2.0,54.0,107.61234375000001,-19.4,0.7488533125,34.05
2021-07-08 18:57:12.117187500,-35.0,2.0,54.0,107.61179687500001,-14.504999999999999,0.74897340625,34.05
2021-07-08 18:57:12.125000000,-35.0,2.0,54.0,107.61125,-9.61,0.7490935,34.05
2021-07-08 18:57:12.132812500,-35.0,2.0,54.0,107.610703125,-4.965,0.74921359375,34.05
2021-07-08 18:57:12.140625000,-35.0,2.0,54.0,107.61015625,-0.32,0.7493336875,34.05
2021-07-08 18:57:12.148437500,-35.0,2.0,54.0,107.609609375,3.8800000000000003,0.74945378125,34.05
2021-07-08 18:57:12.156250000,-35.0,2.0,54.0,107.60906250000001,8.08,0.749573875,34.05
2021-07-08 18:57:12.164062500,-35.0,2.0,54.0,107.60851562500001,11.745000000000001,0.7496939687499999,34.05
2021-07-08 18:57:12.171875000,-35.0,2.0,54.0,107.60796875,15.41,0.7498140624999999,34.05
2021-07-08 18:57:12.179687500,-35.0,2.0,54.0,107.607421875,18.47,0.7499341562499999,34.05
2021-07-08 18:57:12.187500000,-35.0,2.0,54.0,107.606875,21.53,0.75005425,34.05
2021-07-08 18:57:12.195312500,-35.0,2.0,54.0,107.606328125,23.880000000000003,0.75017434375,34.05
2021-07-08 18:57:12.203125000,-35.0,2.0,54.0,107.60578125,26.23,0.7502944375,34.05
2021-07-08 18:57:12.210937500,-35.0,2.0,54.0,107.60523437500001,27.759999999999998,0.75041453125,34.05
2021-07-08 18:57:12.218750000,-35.0,2.0,54.0,107.6046875,29.29,0.750534625,34.05
2021-07-08 18:57:12.226562500,-34.75,2.0,54.0,107.604140625,29.95,0.75065471875,34.05
2021-07-08 18:57:12.234375000,-34.5,2.0,54.0,107.60359375,30.61,0.7507748125,34.05
2021-07-08 18:57:12.242187500,-34.25,2.0,54.0,107.603046875,30.465,0.75089490625,34.05
2021-07-08 18:57:12.250000000,-34.0,2.0,54.0,107.6025,30.32,0.751015,34.05
2021-07-08 18:57:12.257812500,-34.25,2.0,54.0,107.60195312500001,29.59,0.750854875,34.05
2021-07-08 18:57:12.265625000,-34.5,2.0,54.0,107.60140625,28.86,0.75069475,34.05
2021-07-08 18:57:12.273437500,-34.75,2.0,54.0,107.600859375,27.83,0.750534625,34.05
2021-07-08 18:57:12.281250000,-35.0,2.0,54.0,107.6003125,26.8,0.7503744999999999,34.05
2021-07-08 18:57:12.289062500,-35.0,2.0,54.0,107.599765625,25.765,0.750214375,34.05
2021-07-08 18:57:12.296875000,-35.0,2.0,54.0,107.59921875,24.73,0.75005425,34.05
2021-07-08 18:57:12.304687500,-35.0,2.0,54.0,107.59867187500001,23.880000000000003,0.749894125,34.05
2021-07-08 18:57:12.312500000,-35.0,2.0,54.0,107.598125,23.03,0.749734,34.05
2021-07-08 18:57:12.320312500,-35.0,2.0,54.0,107.597578125,22.42,0.749573875,34.05
2021-07-08 18:57:12.328125000,-35.0,2.0,54.0,107.59703125,21.81,0.74941375,34.05
2021-07-08 18:57:12.335937500,-35.0,2.0,54.0,107.596484375,21.375,0.749253625,34.05
2021-07-08 18:57:12.343750000,-35.0,2.0,54.0,107.5959375,20.94,0.7490935,34.05
2021-07-08 18:57:12.351562500,-35.0,2.0,54.0,107.59539062500001,20.525,0.748933375,34.05
2021-07-08 18:57:12.359375000,-35.0,2.0,54.0,107.59484375,20.11,0.74877325,34.05
2021-07-08 18:57:12.367187500,-35.0,2.0,54.0,107.594296875,19.564999999999998,0.748613125,34.05
2021-07-08 18:57:12.375000000,-35.0,2.0,54.0,107.59375,19.02,0.748453,34.05
2021-07-08 18:57:12.382812500,-35.0,2.0,54.0,107.593203125,18.21,0.748292875,34.05
2021-07-08 18:57:12.390625000,-35.0,2.0,54.0,107.59265625,17.4,0.74813275,34.05
2021-07-08 18:57:12.398437500,-35.0,2.0,54.0,107.592109375,16.27,0.747972625,34.05
2021-07-08 18:57:12.406250000,-35.0,2.0,54.0,107.5915625,15.14,0.7478125,34.05
2021-07-08 18:57:12.414062500,-35.0,2.0,54.0,107.591015625,13.72,0.7476523749999999,34.05
2021-07-08 18:57:12.421875000,-35.0,2.0,54.0,107.59046875,12.3,0.74749225,34.05
2021-07-08 18:57:12.429687500,-35.0,2.0,54.0,107.589921875,10.66,0.747332125,34.05
2021-07-08 18:57:12.437500000,-35.0,2.0,54.0,107.589375,9.02,0.747172,34.05
2021-07-08 18:57:12.445312500,-34.75,2.0,54.0,107.588828125,7.244999999999999,0.747011875,34.05
2021-07-08 18:57:12.453125000,-34.5,2.0,54.0,107.58828125,5.47,0.7468517499999999,34.05
2021-07-08 18:57:12.460937500,-34.25,2.0,54.0,107.587734375,3.63,0.746691625,34.05
2021-07-08 18:57:12.468750000,-34.0,2.0,54.0,107.5871875,1.79,0.7465315,34.05
2021-07-08 18:57:12.476562500,-34.0,2.0,54.0,107.586640625,-0.07499999999999996,0.746371375,34.05
2021-07-08 18:57:12.484375000,-34.0,2.0,54.0,107.58609375,-1.94,0.74621125,34.05
2021-07-08 18:57:12.492187500,-34.0,2.0,54.0,107.585546875,-3.875,0.7460511249999999,34.05
2021-07-08 18:57:12.500000000,-34.0,2.0,54.0,107.58500000000001,-5.81,0.745891,34.05
2021-07-08 18:57:12.507812500,-34.0,2.0,54.0,107.584453125,-7.875,0.74601109375,34.05
2021-07-08 18:57:12.515625000,-34.0,2.0,54.0,107.58390625,-9.94,0.7461311875,34.05
2021-07-08 18:57:12.523437500,-34.0,2.0,54.0,107.583359375,-12.235,0.74625128125,34.05
2021-07-08 18:57:12.531250000,-34.0,2.0,54.0,107.5828125,-14.53,0.746371375,34.05
2021-07-08 18:57:12.539062500,-34.0,2.0,54.0,107.582265625,-17.134999999999998,0.7464914687499999,34.05
2021-07-08 18:57:12.546875000,-34.0,2.0,54.0,107.58171875000001,-19.74,0.7466115624999999,34.05
2021-07-08 18:57:12.554687500,-34.0,2.0,54.0,107.581171875,-22.655,0.7467316562499999,34.05
2021-07-08 18:57:12.562500000,-34.0,2.0,54.0,107.580625,-25.57,0.74685175,34.05
2021-07-08 18:57:12.570312500,-34.0,2.0,54.0,107.580078125,-28.634999999999998,0.74697184375,34.05
2021-07-08 18:57:12.578125000,-34.0,2.0,54.0,107.57953125,-31.7,0.7470919375,34.05
2021-07-08 18:57:12.585937500,-34.0,2.0,54.0,107.578984375,-34.595,0.74721203125,34.05
2021-07-08 18:57:12.593750000,-34.0,2.0,54.0,107.5784375,-37.49,0.747332125,34.05
2021-07-08 18:57:12.601562500,-34.0,2.0,54.0,107.577890625,-39.74,0.74745221875,34.05
2021-07-08 18:57:12.609375000,-34.0,2.0,54.0,107.57734375,-41.99,0.7475723125,34.05
2021-07-08 18:57:12.617187500,-34.0,2.0,54.0,107.576796875,-43.08,0.74769240625,34.05
2021-07-08 18:57:12.625000000,-34.0,2.0,54.0,107.57625,-44.17,0.7478125,34.05
2021-07-08 18:57:12.632812500,-34.25,2.0,54.0,107.575703125,-43.72,0.74793259375,34.05
2021-07-08 18:57:12.640625000,-34.5,2.0,54.0,107.57515625,-43.27,0.7480526875,34.05
2021-07-08 18:57:12.648437500,-34.75,2.0,54.0,107.574609375,-41.145,0.74817278125,34.05
2021-07-08 18:57:12.656250000,-35.0,2.0,54.0,107.5740625,-39.02,0.748292875,34.05
2021-07-08 18:57:12.664062500,-35.0,2.0,54.0,107.573515625,-35.425,0.74841296875,34.05
2021-07-08 18:57:12.671875000,-35.0,2.0,54.0,107.57296875,-31.83,0.7485330625,34.05
2021-07-08 18:57:12.679687500,-35.0,2.0,54.0,107.572421875,-27.215,0.74865315625,34.05
2021-07-08 18:57:12.687500000,-35.0,2.0,54.0,107.571875,-22.6,0.74877325,34.05
2021-07-08 18:57:12.695312500,-34.75,2.0,54.0,107.571328125,-17.54,0.74889334375,34.05
2021-07-08 18:57:12.703125000,-34.5,2.0,54.0,107.57078125,-12.48,0.7490134375,34.05
2021-07-08 18:57:12.710937500,-34.25,2.0,54.0,107.570234375,-7.485,0.74913353125,34.05
2021-07-08 18:57:12.718750000,-34.0,2.0,54.0,107.5696875,-2.49,0.749253625,34.05
2021-07-08 18:57:12.726562500,-34.0,2.0,54.0,107.569140625,2.085,0.74937371875,34.05
2021-07-08 18:57:12.734375000,-34.0,2.0,54.0,107.56859375,6.66,0.7494938125,34.05
2021-07-08 18:57:12.742187500,-34.0,2.0,54.0,107.568046875,10.655000000000001,0.74961390625,34.05
2021-07-08 18:57:12.750000000,-34.0,2.0,54.0,107.5675,14.65,0.749734,34.05
2021-07-08 18:57:12.757812500,-34.25,2.0,54.0,107.566953125,18.015,0.74953384375,34.05
2021-07-08 18:57:12.765625000,-34.5,2.0,54.0,107.56640625,21.38,0.7493336875000001,34.05
2021-07-08 18:57:12.773437500,-34.75,2.0,54.0,107.565859375,24.15,0.74913353125,34.05
2021-07-08 18:57:12.781250000,-35.0,2.0,54.0,107.5653125,26.92,0.748933375,34.05
2021-07-08 18:57:12.789062500,-35.0,2.0,54.0,107.56476562499999,29.095,0.74873321875,34.05
2021-07-08 18:57:12.796875000,-35.0,2.0,54.0,107.56421875,31.27,0.7485330625,34.05
2021-07-08 18:57:12.804687500,-35.0,2.0,54.0,107.563671875,32.855,0.74833290625,34.05
2021-07-08 18:57:12.812500000,-35.0,2.0,54.0,107.563125,34.44,0.74813275,34.05
2021-07-08 18:57:12.820312500,-34.75,2.0,54.0,107.562578125,35.43,0.74793259375,34.05
2021-07-08 18:57:12.828125000,-34.5,2.0,54.0,107.56203125,36.42,0.7477324375000001,34.05
2021-07-08 18:57:12.835937500,-34.25,2.0,54.0,107.56148437499999,36.805,0.74753228125,34.05
2021-07-08 18:57:12.843750000,-34.0,2.0,54.0,107.5609375,37.19,0.747332125,34.05
2021-07-08 18:57:12.851562500,-34.0,2.0,54.0,107.560390625,37.019999999999996,0.74713196875,34.05
2021-07-08 18:57:12.859375000,-34.0,2.0,54.0,107.55984375,36.85,0.7469318125,34.05
2021-07-08 18:57:12.867187500,-34.0,2.0,54.0,107.559296875,36.225,0.74673165625,34.05
2021-07-08 18:57:12.875000000,-34.0,2.0,54.0,107.55875,35.6,0.7465315,34.05
2021-07-08 18:57:12.882812500,-34.25,2.0,54.0,107.55820312499999,34.695,0.74633134375,34.05
2021-07-08 18:57:12.890625000,-34.5,2.0,54.0,107.55765625,33.79,0.7461311875000001,34.05
2021-07-08 18:57:12.898437500,-34.75,2.0,54.0,107.557109375,32.835,0.74593103125,34.05
2021-07-08 18:57:12.906250000,-35.0,2.0,54.0,107.5565625,31.88,0.745730875,34.05
2021-07-08 18:57:12.914062500,-35.0,2.0,54.0,107.556015625,31.085,0.74553071875,34.05
2021-07-08 18:57:12.921875000,-35.0,2.0,54.0,107.55546875,30.29,0.7453305625,34.05
2021-07-08 18:57:12.929687500,-35.0,2.0,54.0,107.55492187499999,29.775,0.74513040625,34.05
2021-07-08 18:57:12.937500000,-35.0,2.0,54.0,107.554375,29.26,0.74493025,34.05
2021-07-08 18:57:12.945312500,-35.0,2.0,54.0,107.553828125,28.985,0.74473009375,34.05
2021-07-08 18:57:12.953125000,-35.0,2.0,54.0,107.55328125,28.71,0.7445299375000001,34.05
2021-07-08 18:57:12.960937500,-35.0,2.0,54.0,107.552734375,28.48,0.74432978125,34.05
2021-07-08 18:57:12.968750000,-35.0,2.0,54.0,107.5521875,28.25,0.744129625,34.05
2021-07-08 18:57:12.976562500,-34.75,2.0,54.0,107.55164062499999,27.785,0.74392946875,34.05
2021-07-08 18:57:12.984375000,-34.5,2.0,54.0,107.55109374999999,27.32,0.7437293125,34.05
2021-07-08 18:57:12.992187500,-34.25,2.0,54.0,107.550546875,26.42,0.74352915625,34.05
2021-07-08 18:57:13.000000000,-34.0,2.0,54.0,107.55,25.52,0.743329,34.05
2021-07-08 18:57:13.007812500,-34.25,2.0,54.0,107.549609375,24.15,0.743489125,34.049375
2021-07-08 18:57:13.015625000,-34.5,2.0,54.0,107.54921875,22.78,0.74364925,34.04875
2021-07-08 18:57:13.023437500,-34.75,2.0,54.0,107.548828125,21.075000000000003,0.743809375,34.048125
2021-07-08 18:57:13.031250000,-35.0,2.0,54.0,107.54843749999999,19.37,0.7439695000000001,34.0475
2021-07-08 18:57:13.039062500,-35.0,2.0,54.0,107.548046875,17.545,0.744129625,34.046875
2021-07-08 18:57:13.046875000,-35.0,2.0,54.0,107.54765625,15.72,0.74428975,34.04625
2021-07-08 18:57:13.054687500,-35.0,2.0,54.0,107.547265625,13.975000000000001,0.744449875,34.045625
2021-07-08 18:57:13.062500000,-35.0,2.0,54.0,107.546875,12.23,0.74461,34.045
2021-07-08 18:57:13.070312500,-34.75,2.0,54.0,107.54648437499999,10.61,0.7447701250000001,34.044374999999995
2021-07-08 18:57:13.078125000,-34.5,2.0,54.0,107.54609375,8.99,0.74493025,34.043749999999996
2021-07-08 18:57:13.085937500,-34.25,2.0,54.0,107.545703125,7.43,0.745090375,34.043124999999996
2021-07-08 18:57:13.093750000,-34.0,2.0,54.0,107.5453125,5.87,0.7452505,34.0425
2021-07-08 18:57:13.101562500,-34.0,2.0,54.0,107.544921875,4.225,0.745410625,34.041875
2021-07-08 18:57:13.109375000,-34.0,2.0,54.0,107.54453124999999,2.58,0.7455707500000001,34.04125
2021-07-08 18:57:13.117187500,-34.0,2.0,54.0,107.544140625,0.7349999999999999,0.745730875,34.040625
2021-07-08 18:57:13.125000000,-34.0,2.0,54.0,107.54375,-1.11,0.7458910000000001,34.04
2021-07-08 18:57:13.132812500,-34.25,2.0,54.0,107.543359375,-3.2,0.746051125,34.039375
2021-07-08 18:57:13.140625000,-34.5,2.0,54.0,107.54296875,-5.29,0.74621125,34.03875
2021-07-08 18:57:13.148437500,-34.75,2.0,54.0,107.54257812499999,-7.635,0.7463713750000001,34.038125
2021-07-08 18:57:13.156250000,-35.0,2.0,54.0,107.5421875,-9.98,0.7465315,34.0375
2021-07-08 18:57:13.164062500,-35.0,2.0,54.0,107.541796875,-12.56,0.7466916250000001,34.036875
2021-07-08 18:57:13.171875000,-35.0,2.0,54.0,107.54140625,-15.14,0.74685175,34.03625
2021-07-08 18:57:13.179687500,-35.0,2.0,54.0,107.541015625,-17.945,0.747011875,34.035625
2021-07-08 18:57:13.187500000,-35.0,2.0,54.0,107.54062499999999,-20.75,0.7471720000000001,34.035
2021-07-08 18:57:13.195312500,-34.75,2.0,54.0,107.540234375,-23.675,0.747332125,34.034375
2021-07-08 18:57:13.203125000,-34.5,2.0,54.0,107.53984375,-26.6,0.7474922500000001,34.03375
2021-07-08 18:57:13.210937500,-34.25,2.0,54.0,107.539453125,-29.400000000000002,0.747652375,34.033125
2021-07-08 18:57:13.218750000,-34.0,2.0,54.0,107.5390625,-32.2,0.7478125,34.0325
2021-07-08 18:57:13.226562500,-34.0,2.0,54.0,107.53867187499999,-34.395,0.7479726250000001,34.031875
2021-07-08 18:57:13.234375000,-34.0,2.0,54.0,107.53828125,-36.59,0.74813275,34.03125
2021-07-08 18:57:13.242187500,-34.0,2.0,54.0,107.537890625,-37.58,0.7482928750000001,34.030625
2021-07-08 18:57:13.250000000,-34.0,2.0,54.0,107.5375,-38.57,0.748453,34.03
2021-07-08 18:57:13.257812500,-34.25,2.0,54.0,107.537109375,-37.855000000000004,0.74825284375,34.03
2021-07-08 18:57:13.265625000,-34.5,2.0,54.0,107.53671874999999,-37.14,0.7480526875,34.03
2021-07-08 18:57:13.273437500,-34.75,2.0,54.0,107.536328125,-34.54,0.7478525312500001,34.03
2021-07-08 18:57:13.281250000,-35.0,2.0,54.0,107.5359375,-31.94,0.747652375,34.03
2021-07-08 18:57:13.289062500,-34.75,2.0,54.0,107.535546875,-27.72,0.74745221875,34.03
2021-07-08 18:57:13.296875000,-34.5,2.0,54.0,107.53515625,-23.5,0.7472520625000001,34.03
2021-07-08 18:57:13.304687500,-34.25,2.0,54.0,107.53476562499999,-18.305,0.7470519062500001,34.03
2021-07-08 18:57:13.312500000,-34.0,2.0,54.0,107.534375,-13.11,0.74685175,34.03
2021-07-08 18:57:13.320312500,-34.0,2.0,54.0,107.533984375,-7.7299999999999995,0.74665159375,34.03
2021-07-08 18:57:13.328125000,-34.0,2.0,54.0,107.53359375,-2.35,0.7464514375,34.03
2021-07-08 18:57:13.335937500,-34.0,2.0,54.0,107.533203125,2.5749999999999997,0.7462512812500001,34.03
2021-07-08 18:57:13.343750000,-34.0,2.0,54.0,107.53281249999999,7.5,0.746051125,34.03
2021-07-08 18:57:13.351562500,-34.0,2.0,54.0,107.532421875,11.655000000000001,0.74585096875,34.03
2021-07-08 18:57:13.359375000,-34.0,2.0,54.0,107.53203125,15.81,0.7456508125000001,34.03
2021-07-08 18:57:13.367187500,-34.0,2.0,54.0,107.531640625,19.185,0.7454506562500001,34.03
2021-07-08 18:57:13.375000000,-34.0,2.0,54.0,107.53125,22.56,0.7452505,34.03
2021-07-08 18:57:13.382812500,-34.25,2.0,54.0,107.53085937499999,25.299999999999997,0.74505034375,34.03
2021-07-08 18:57:13.390625000,-34.5,2.0,54.0,107.53046875,28.04,0.7448501875,34.03
2021-07-08 18:57:13.398437500,-34.75,2.0,54.0,107.530078125,30.259999999999998,0.7446500312500001,34.03
2021-07-08 18:57:13.406250000,-35.0,2.0,54.0,107.5296875,32.48,0.744449875,34.03
2021-07-08 18:57:13.414062500,-34.75,2.0,54.0,107.529296875,34.165,0.74424971875,34.03
2021-07-08 18:57:13.421875000,-34.5,2.0,54.0,107.52890624999999,35.85,0.7440495625000001,34.03
2021-07-08 18:57:13.429687500,-34.25,2.0,54.0,107.528515625,36.915,0.7438494062500001,34.03
2021-07-08 18:57:13.437500000,-34.0,2.0,54.0,107.528125,37.98,0.74364925,34.03
2021-07-08 18:57:13.445312500,-34.25,2.0,54.0,107.527734375,38.349999999999994,0.74344909375,34.03
2021-07-08 18:57:13.453125000,-34.5,2.0,54.0,107.52734375,38.72,0.7432489375,34.03
2021-07-08 18:57:13.460937500,-34.75,2.0,54.0,107.52695312499999,38.47,0.7430487812500001,34.03
2021-07-08 18:57:13.468750000,-35.0,2.0,54.0,107.5265625,38.22,0.742848625,34.03
2021-07-08 18:57:13.476562500,-34.75,2.0,54.0,107.526171875,37.57,0.74264846875,34.03
2021-07-08 18:57:13.484375000,-34.5,2.0,54.0,107.52578125,36.92,0.7424483125000001,34.03
2021-07-08 18:57:13.492187500,-34.25,2.0,54.0,107.525390625,36.120000000000005,0.7422481562500001,34.03
2021-07-08 18:57:13.500000000,-34.0,2.0,54.0,107.525,35.32,0.742048,34.03
2021-07-08 18:57:13.507812500,-34.0,2.0,54.0,107.524609375,34.585,0.74216809375,34.03
2021-07-08 18:57:13.515625000,-34.0,2.0,54.0,107.52421875,33.85,0.7422881875,34.03
2021-07-08 18:57:13.523437500,-34.0,2.0,54.0,107.523828125,33.24,0.74240828125,34.03
2021-07-08 18:57:13.531250000,-34.0,2.0,54.0,107.5234375,32.63,0.742528375,34.03
2021-07-08 18:57:13.539062500,-34.0,2.0,54.0,107.523046875,32.09,0.74264846875,34.03
2021-07-08 18:57:13.546875000,-34.0,2.0,54.0,107.52265625,31.55,0.7427685625,34.03
2021-07-08 18:57:13.554687500,-34.0,2.0,54.0,107.522265625,30.965,0.74288865625,34.03
2021-07-08 18:57:13.562500000,-34.0,2.0,54.0,107.521875,30.38,0.74300875,34.03
2021-07-08 18:57:13.570312500,-34.0,2.0,54.0,107.521484375,29.655,0.74312884375,34.03
2021-07-08 18:57:13.578125000,-34.0,2.0,54.0,107.52109375,28.93,0.7432489375,34.03
2021-07-08 18:57:13.585937500,-34.0,2.0,54.0,107.520703125,28.035,0.74336903125,34.03
2021-07-08 18:57:13.593750000,-34.0,2.0,54.0,107.5203125,27.14,0.743489125,34.03
2021-07-08 18:57:13.601562500,-34.0,2.0,54.0,107.519921875,26.085,0.74360921875,34.03
2021-07-08 18:57:13.609375000,-34.0,2.0,54.0,107.51953125,25.03,0.7437293125,34.03
2021-07-08 18:57:13.617187500,-34.0,2.0,54.0,107.519140625,23.86,0.74384940625,34.03
2021-07-08 18:57:13.625000000,-34.0,2.0,54.0,107.51875,22.69,0.7439695,34.03
2021-07-08 18:57:13.632812500,-34.0,2.0,54.0,107.518359375,21.450000000000003,0.7440895937500001,34.03
2021-07-08 18:57:13.640625000,-34.0,2.0,54.0,107.51796875,20.21,0.7442096875,34.03
2021-07-08 18:57:13.648437500,-34.0,2.0,54.0,107.517578125,18.94,0.74432978125,34.03
2021-07-08 18:57:13.656250000,-34.0,2.0,54.0,107.5171875,17.67,0.744449875,34.03
2021-07-08 18:57:13.664062500,-34.0,2.0,54.0,107.516796875,16.395,0.74456996875,34.03
2021-07-08 18:57:13.671875000,-34.0,2.0,54.0,107.51640625,15.12,0.7446900625,34.03
2021-07-08 18:57:13.679687500,-34.0,2.0,54.0,107.516015625,13.825,0.74481015625,34.03
2021-07-08 18:57:13.687500000,-34.0,2.0,54.0,107.515625,12.53,0.74493025,34.03
2021-07-08 18:57:13.695312500,-34.0,2.0,54.0,107.515234375,11.18,0.74505034375,34.03
2021-07-08 18:57:13.703125000,-34.0,2.0,54.0,107.51484375,9.83,0.7451704375,34.03
2021-07-08 18:57:13.710937500,-34.0,2.0,54.0,107.514453125,8.34,0.74529053125,34.03
2021-07-08 18:57:13.718750000,-34.0,2.0,54.0,107.5140625,6.85,0.745410625,34.03
2021-07-08 18:57:13.726562500,-34.0,2.0,54.0,107.513671875,5.13,0.74553071875,34.03
2021-07-08 18:57:13.734375000,-34.0,2.0,54.0,107.51328125,3.41,0.7456508125,34.03
2021-07-08 18:57:13.742187500,-34.0,2.0,54.0,107.512890625,1.4100000000000001,0.74577090625,34.03
2021-07-08 18:57:13.750000000,-34.0,2.0,54.0,107.5125,-0.59,0.745891,34.03
2021-07-08 18:57:13.757812500,-34.0,2.0,54.0,107.512109375,-2.85,0.745730875,34.03
2021-07-08 18:57:13.765625000,-34.0,2.0,54.0,107.51171875,-5.11,0.74557075,34.03
2021-07-08 18:57:13.773437500,-34.0,2.0,54.0,107.511328125,-7.545,0.745410625,34.03
2021-07-08 18:57:13.781250000,-34.0,2.0,54.0,107.5109375,-9.98,0.7452504999999999,34.03
2021-07-08 18:57:13.789062500,-34.25,2.0,54.0,107.510546875,-12.5,0.745090375,34.03
2021-07-08 18:57:13.796875000,-34.5,2.0,54.0,107.51015625,-15.02,0.74493025,34.03
2021-07-08 18:57:13.804687500,-34.75,2.0,54.0,107.509765625,-17.57,0.744770125,34.03
2021-07-08 18:57:13.812500000,-35.0,2.0,54.0,107.509375,-20.12,0.74461,34.03
2021-07-08 18:57:13.820312500,-34.75,2.0,54.0,107.508984375,-22.725,0.7444498749999999,34.03
2021-07-08 18:57:13.828125000,-34.5,2.0,54.0,107.50859375,-25.33,0.74428975,34.03
2021-07-08 18:57:13.835937500,-34.25,2.0,54.0,107.508203125,-28.034999999999997,0.744129625,34.03
2021-07-08 18:57:13.843750000,-34.0,2.0,54.0,107.5078125,-30.74,0.7439695,34.03
2021-07-08 18:57:13.851562500,-34.25,2.0,54.0,107.507421875,-33.48,0.743809375,34.03
2021-07-08 18:57:13.859375000,-34.5,2.0,54.0,107.50703125,-36.22,0.7436492499999999,34.03
2021-07-08 18:57:13.867187500,-34.75,2.0,54.0,107.506640625,-38.730000000000004,0.743489125,34.03
2021-07-08 18:57:13.875000000,-35.0,2.0,54.0,107.50625,-41.24,0.7433289999999999,34.03
2021-07-08 18:57:13.882812500,-35.0,2.0,54.0,107.505859375,-43.03,0.743168875,34.03
2021-07-08 18:57:13.890625000,-35.0,2.0,54.0,107.50546875,-44.82,0.74300875,34.03
2021-07-08 18:57:13.898437500,-35.0,2.0,54.0,107.505078125,-45.34,0.7428486249999999,34.03
2021-07-08 18:57:13.906250000,-35.0,2.0,54.0,107.5046875,-45.86,0.7426885,34.03
2021-07-08 18:57:13.914062500,-34.75,2.0,54.0,107.504296875,-44.695,0.7425283749999999,34.03
2021-07-08 18:57:13.921875000,-34.5,2.0,54.0,107.50390625,-43.53,0.74236825,34.03
2021-07-08 18:57:13.929687500,-34.25,2.0,54.0,107.503515625,-40.635000000000005,0.742208125,34.03
2021-07-08 18:57:13.937500000,-34.0,2.0,54.0,107.503125,-37.74,0.7420479999999999,34.03
2021-07-08 18:57:13.945312500,-34.0,2.0,54.0,107.502734375,-33.480000000000004,0.741887875,34.03
2021-07-08 18:57:13.953125000,-34.0,2.0,54.0,107.50234375,-29.22,0.7417277499999999,34.03
2021-07-08 18:57:13.960937500,-34.0,2.0,54.0,107.501953125,-24.275,0.741567625,34.03
2021-07-08 18:57:13.968750000,-34.0,2.0,54.0,107.5015625,-19.33,0.7414075,34.03
2021-07-08 18:57:13.976562500,-34.0,2.0,54.0,107.501171875,-14.415,0.7412473749999999,34.03
2021-07-08 18:57:13.984375000,-34.0,2.0,54.0,107.50078125,-9.5,0.74108725,34.03
2021-07-08 18:57:13.992187500,-34.0,2.0,54.0,107.500390625,-5.185,0.7409271249999999,34.03
2021-07-08 18:57:14.000000000,-34.0,2.0,54.0,107.5,-0.87,0.740767,34.03
2021-07-08 18:57:14.007812500,-34.0,2.0,54.0,107.499609375,2.585,0.7408470625,34.030625
2021-07-08 18:57:14.015625000,-34.0,2.0,54.0,107.49921875,6.04,0.7409271249999999,34.03125
2021-07-08 18:57:14.023437500,-34.0,2.0,54.0,107.498828125,8.645,0.7410071874999999,34.031875
2021-07-08 18:57:14.031250000,-34.0,2.0,54.0,107.4984375,11.25,0.74108725,34.0325
2021-07-08 18:57:14.039062500,-34.25,2.0,54.0,107.498046875,13.129999999999999,0.7411673125,34.033125
2021-07-08 18:57:14.046875000,-34.5,2.0,54.0,107.49765625,15.01,0.7412473749999999,34.03375
2021-07-08 18:57:14.054687500,-34.75,2.0,54.0,107.497265625,16.31,0.7413274375,34.034375
2021-07-08 18:57:14.062500000,-35.0,2.0,54.0,107.496875,17.61,0.7414075,34.035
2021-07-08 18:57:14.070312500,-34.75,2.0,54.0,107.496484375,18.384999999999998,0.7414875624999999,34.035625
2021-07-08 18:57:14.078125000,-34.5,2.0,54.0,107.49609375,19.16,0.741567625,34.03625
2021-07-08 18:57:14.085937500,-34.25,2.0,54.0,107.495703125,19.41,0.7416476875,34.036875
2021-07-08 18:57:14.093750000,-34.0,2.0,54.0,107.4953125,19.66,0.74172775,34.0375
2021-07-08 18:57:14.101562500,-34.0,2.0,54.0,107.494921875,19.425,0.7418078124999999,34.038125
2021-07-08 18:57:14.109375000,-34.0,2.0,54.0,107.49453125,19.19,0.741887875,34.03875
2021-07-08 18:57:14.117187500,-34.0,2.0,54.0,107.494140625,18.57,0.7419679375,34.039375
2021-07-08 18:57:14.125000000,-34.0,2.0,54.0,107.49375,17.95,0.742048,34.04
2021-07-08 18:57:14.132812500,-34.25,2.0,54.0,107.493359375,17.13,0.7421280625,34.040625
2021-07-08 18:57:14.140625000,-34.5,2.0,54.0,107.49296875,16.31,0.742208125,34.04125
2021-07-08 18:57:14.148437500,-34.75,2.0,54.0,107.492578125,15.475,0.7422881875,34.041875
2021-07-08 18:57:14.156250000,-35.0,2.0,54.0,107.4921875,14.64,0.74236825,34.0425
2021-07-08 18:57:14.164062500,-34.75,2.0,54.0,107.491796875,13.92,0.7424483125,34.043124999999996
2021-07-08 18:57:14.171875000,-34.5,2.0,54.0,107.49140625,13.2,0.742528375,34.043749999999996
2021-07-08 18:57:14.179687500,-34.25,2.0,54.0,107.491015625,12.625,0.7426084375,34.044374999999995
2021-07-08 18:57:14.187500000,-34.0,2.0,54.0,107.490625,12.05,0.7426885,34.045
2021-07-08 18:57:14.195312500,-34.0,2.0,54.0,107.490234375,11.545,0.7427685625,34.045625
2021-07-08 18:57:14.203125000,-34.0,2.0,54.0,107.48984375,11.04,0.742848625,34.04625
2021-07-08 18:57:14.210937500,-34.0,2.0,54.0,107.489453125,10.51,0.7429286875,34.046875
2021-07-08 18:57:14.218750000,-34.0,2.0,54.0,107.4890625,9.98,0.74300875,34.0475
2021-07-08 18:57:14.226562500,-34.0,2.0,54.0,107.488671875,9.355,0.7430888125,34.048125
2021-07-08 18:57:14.234375000,-34.0,2.0,54.0,107.48828125,8.73,0.7431688750000001,34.04875
2021-07-08 18:57:14.242187500,-34.0,2.0,54.0,107.487890625,8.01,0.7432489375,34.049375
2021-07-08 18:57:14.250000000,-34.0,2.0,54.0,107.4875,7.29,0.743329,34.05
2021-07-08 18:57:14.257812500,-34.0,2.0,54.0,107.487109375,6.52,0.74320890625,34.05
2021-07-08 18:57:14.265625000,-34.0,2.0,54.0,107.48671875,5.75,0.7430888125,34.05
2021-07-08 18:57:14.273437500,-34.0,2.0,54.0,107.486328125,5.005,0.74296871875,34.05
2021-07-08 18:57:14.281250000,-34.0,2.0,54.0,107.4859375,4.26,0.742848625,34.05
2021-07-08 18:57:14.289062500,-34.0,2.0,54.0,107.485546875,3.57,0.74272853125,34.05
2021-07-08 18:57:14.296875000,-34.0,2.0,54.0,107.48515625,2.88,0.7426084375,34.05
2021-07-08 18:57:14.304687500,-34.0,2.0,54.0,107.484765625,2.21,0.7424883437500001,34.05
2021-07-08 18:57:14.312500000,-34.0,2.0,54.0,107.484375,1.54,0.74236825,34.05
2021-07-08 18:57:14.320312500,-34.0,2.0,54.0,107.483984375,0.79,0.74224815625,34.05
2021-07-08 18:57:14.328125000,-34.0,2.0,54.0,107.48359375,0.04,0.7421280625,34.05
2021-07-08 18:57:14.335937500,-34.0,2.0,54.0,107.483203125,-0.9249999999999999,0.74200796875,34.05
2021-07-08 18:57:14.343750000,-34.0,2.0,54.0,107.4828125,-1.89,0.741887875,34.05
2021-07-08 18:57:14.351562500,-34.0,2.0,54.0,107.482421875,-3.2,0.74176778125,34.05
2021-07-08 18:57:14.359375000,-34.0,2.0,54.0,107.48203125,-4.51,0.7416476875,34.05
2021-07-08 18:57:14.367187500,-34.0,2.0,54.0,107.481640625,-6.22,0.74152759375,34.05
2021-07-08 18:57:14.375000000,-34.0,2.0,54.0,107.48125,-7.93,0.7414075,34.05
2021-07-08 18:57:14.382812500,-34.25,2.0,54.0,107.480859375,-10.004999999999999,0.74128740625,34.05
2021-07-08 18:57:14.390625000,-34.5,2.0,54.0,107.48046875,-12.08,0.7411673125,34.05
2021-07-08 18:57:14.398437500,-34.75,2.0,54.0,107.480078125,-14.41,0.74104721875,34.05
2021-07-08 18:57:14.406250000,-35.0,2.0,54.0,107.4796875,-16.74,0.740927125,34.05
2021-07-08 18:57:14.414062500,-34.75,2.0,54.0,107.479296875,-19.18,0.74080703125,34.05
2021-07-08 18:57:14.421875000,-34.5,2.0,54.0,107.47890625,-21.62,0.7406869375,34.05
2021-07-08 18:57:14.429687500,-34.25,2.0,54.0,107.478515625,-24.065,0.74056684375,34.05
2021-07-08 18:57:14.437500000,-34.0,2.0,54.0,107.478125,-26.51,0.74044675,34.05
2021-07-08 18:57:14.445312500,-34.0,2.0,54.0,107.477734375,-28.865000000000002,0.7403266562499999,34.05
2021-07-08 18:57:14.453125000,-34.0,2.0,54.0,107.47734375,-31.22,0.7402065624999999,34.05
2021-07-08 18:57:14.460937500,-34.0,2.0,54.0,107.476953125,-33.4,0.74008646875,34.05
2021-07-08 18:57:14.468750000,-34.0,2.0,54.0,107.4765625,-35.58,0.739966375,34.05
2021-07-08 18:57:14.476562500,-34.25,2.0,54.0,107.476171875,-37.405,0.73984628125,34.05
2021-07-08 18:57:14.484375000,-34.5,2.0,54.0,107.47578125,-39.23,0.7397261875,34.05
2021-07-08 18:57:14.492187500,-34.75,2.0,54.0,107.475390625,-40.4,0.73960609375,34.05
2021-07-08 18:57:14.500000000,-35.0,2.0,54.0,107.475,-41.57,0.739486,34.05
2021-07-08 18:57:14.507812500,-35.0,2.0,54.0,107.474609375,-41.725,0.7395260312499999,34.05
2021-07-08 18:57:14.515625000,-35.0,2.0,54.0,107.47421875,-41.88,0.7395660625,34.05
2021-07-08 18:57:14.523437500,-35.0,2.0,54.0,107.473828125,-40.730000000000004,0.73960609375,34.05
2021-07-08 18:57:14.531250000,-35.0,2.0,54.0,107.4734375,-39.58,0.7396461249999999,34.05
2021-07-08 18:57:14.539062500,-34.75,2.0,54.0,107.47304687500001,-37.065,0.73968615625,34.05
2021-07-08 18:57:14.546875000,-34.5,2.0,54.0,107.47265625,-34.55,0.7397261875,34.05
2021-07-08 18:57:14.554687500,-34.25,2.0,54.0,107.472265625,-30.915,0.7397662187499999,34.05
2021-07-08 18:57:14.562500000,-34.0,2.0,54.0,107.471875,-27.28,0.73980625,34.05
2021-07-08 18:57:14.570312500,-34.0,2.0,54.0,107.471484375,-23.035,0.73984628125,34.05
2021-07-08 18:57:14.578125000,-34.0,2.0,54.0,107.47109375000001,-18.79,0.7398863124999999,34.05
2021-07-08 18:57:14.585937500,-34.0,2.0,54.0,107.470703125,-14.54,0.73992634375,34.05
2021-07-08 18:57:14.593750000,-34.0,2.0,54.0,107.4703125,-10.29,0.739966375,34.05
2021-07-08 18:57:14.601562500,-34.0,2.0,54.0,107.469921875,-6.489999999999999,0.7400064062499999,34.05
2021-07-08 18:57:14.609375000,-34.0,2.0,54.0,107.46953125,-2.69,0.7400464375,34.05
2021-07-08 18:57:14.617187500,-34.0,2.0,54.0,107.46914062500001,0.4099999999999997,0.74008646875,34.05
2021-07-08 18:57:14.625000000,-34.0,2.0,54.0,107.46875,3.51,0.7401264999999999,34.05
2021-07-08 18:57:14.632812500,-34.0,2.0,54.0,107.468359375,5.895,0.74016653125,34.05
2021-07-08 18:57:14.640625000,-34.0,2.0,54.0,107.46796875,8.28,0.7402065624999999,34.05
2021-07-08 18:57:14.648437500,-34.0,2.0,54.0,107.467578125,10.04,0.74024659375,34.05
2021-07-08 18:57:14.656250000,-34.0,2.0,54.0,107.46718750000001,11.8,0.740286625,34.05
2021-07-08 18:57:14.664062500,-34.0,2.0,54.0,107.466796875,13.02,0.7403266562499999,34.05
2021-07-08 18:57:14.671875000,-34.0,2.0,54.0,107.46640625,14.24,0.7403666875,34.05
2021-07-08 18:57:14.679687500,-34.0,2.0,54.0,107.466015625,14.955,0.74040671875,34.05
2021-07-08 18:57:14.687500000,-34.0,2.0,54.0,107.465625,15.67,0.7404467499999999,34.05
2021-07-08 18:57:14.695312500,-34.0,2.0,54.0,107.46523437500001,15.89,0.74048678125,34.05
2021-07-08 18:57:14.703125000,-34.0,2.0,54.0,107.46484375,16.11,0.7405268125,34.05
2021-07-08 18:57:14.710937500,-34.0,2.0,54.0,107.464453125,15.885,0.7405668437499999,34.05
2021-07-08 18:57:14.718750000,-34.0,2.0,54.0,107.4640625,15.66,0.740606875,34.05
2021-07-08 18:57:14.726562500,-34.0,2.0,54.0,107.463671875,15.125,0.74064690625,34.05
2021-07-08 18:57:14.734375000,-34.0,2.0,54.0,107.46328125000001,14.59,0.7406869374999999,34.05
2021-07-08 18:57:14.742187500,-34.0,2.0,54.0,107.462890625,13.92,0.74072696875,34.05
2021-07-08 18:57:14.750000000,-34.0,2.0,54.0,107.4625,13.25,0.740767,34.05
2021-07-08 18:57:14.757812500,-34.25,2.0,54.0,107.462109375,12.605,0.7405668437499999,34.05
2021-07-08 18:57:14.765625000,-34.5,2.0,54.0,107.46171875,11.96,0.7403666874999999,34.05
2021-07-08 18:57:14.773437500,-34.75,2.0,54.0,107.46132812500001,11.420000000000002,0.74016653125,34.05
2021-07-08 18:57:14.781250000,-35.0,2.0,54.0,107.4609375,10.88,0.739966375,34.05
2021-07-08 18:57:14.789062500,-35.0,2.0,54.0,107.460546875,10.425,0.7397662187499999,34.05
2021-07-08 18:57:14.796875000,-35.0,2.0,54.0,107.46015625,9.97,0.7395660625,34.05
2021-07-08 18:57:14.804687500,-35.0,2.0,54.0,107.459765625,9.5,0.73936590625,34.05
2021-07-08 18:57:14.812500000,-35.0,2.0,54.0,107.45937500000001,9.03,0.73916575,34.05
2021-07-08 18:57:14.820312500,-34.75,2.0,54.0,107.458984375,8.434999999999999,0.7389655937499999,34.05
2021-07-08 18:57:14.828125000,-34.5,2.0,54.0,107.45859375,7.84,0.7387654374999999,34.05
2021-07-08 18:57:14.835937500,-34.25,2.0,54.0,107.458203125,7.05,0.73856528125,34.05
2021-07-08 18:57:14.843750000,-34.0,2.0,54.0,107.4578125,6.26,0.738365125,34.05
2021-07-08 18:57:14.851562500,-34.0,2.0,54.0,107.45742187500001,5.255,0.7381649687499999,34.05
2021-07-08 18:57:14.859375000,-34.0,2.0,54.0,107.45703125,4.25,0.7379648125,34.05
2021-07-08 18:57:14.867187500,-34.0,2.0,54.0,107.456640625,3.115,0.73776465625,34.05
2021-07-08 18:57:14.875000000,-34.0,2.0,54.0,107.45625,1.98,0.7375645,34.05
2021-07-08 18:57:14.882812500,-34.25,2.0,54.0,107.455859375,0.8200000000000001,0.7373643437499999,34.05
2021-07-08 18:57:14.890625000,-34.5,2.0,54.0,107.45546875000001,-0.34,0.7371641874999999,34.05
2021-07-08 18:57:14.898437500,-34.75,2.0,54.0,107.455078125,-1.4150000000000003,0.73696403125,34.05
2021-07-08 18:57:14.906250000,-35.0,2.0,54.0,107.4546875,-2.49,0.736763875,34.05
2021-07-08 18:57:14.914062500,-34.75,2.0,54.0,107.454296875,-3.44,0.7365637187499999,34.05
2021-07-08 18:57:14.921875000,-34.5,2.0,54.0,107.45390625,-4.39,0.7363635625,34.05
2021-07-08 18:57:14.929687500,-34.25,2.0,54.0,107.45351562500001,-5.255,0.73616340625,34.05
2021-07-08 18:57:14.937500000,-34.0,2.0,54.0,107.453125,-6.12,0.73596325,34.05
2021-07-08 18:57:14.945312500,-34.25,2.0,54.0,107.452734375,-7.015000000000001,0.7357630937499999,34.05
2021-07-08 18:57:14.953125000,-34.5,2.0,54.0,107.45234375,-7.91,0.7355629374999999,34.05
2021-07-08 18:57:14.960937500,-34.75,2.0,54.0,107.451953125,-8.965,0.73536278125,34.05
2021-07-08 18:57:14.968750000,-35.0,2.0,54.0,107.45156250000001,-10.02,0.735162625,34.05
2021-07-08 18:57:14.976562500,-35.0,2.0,54.0,107.451171875,-11.35,0.7349624687499999,34.05
2021-07-08 18:57:14.984375000,-35.0,2.0,54.0,107.45078125,-12.68,0.7347623125,34.05
2021-07-08 18:57:14.992187500,-35.0,2.0,54.0,107.450390625,-14.34,0.73456215625,34.05
2021-07-08 18:57:15.000000000,-35.0,2.0,54.0,107.45,-16.0,0.734362,34.05
2021-07-08 18:57:15.007812500,-35.0,2.0,54.0,107.449453125,-18.0,0.7344420625,34.049375
2021-07-08 18:57:15.015625000,-35.0,2.0,54.0,107.44890625000001,-20.0,0.7345221249999999,34.04875
2021-07-08 18:57:15.023437500,-35.0,2.0,54.0,107.44835937500001,-22.28,0.7346021875,34.048125
2021-07-08 18:57:15.031250000,-35.0,2.0,54.0,107.4478125,-24.56,0.73468225,34.0475
2021-07-08 18:57:15.039062500,-34.75,2.0,54.0,107.447265625,-27.02,0.7347623125,34.046875
2021-07-08 18:57:15.046875000,-34.5,2.0,54.0,107.44671875,-29.48,0.7348423749999999,34.04625
2021-07-08 18:57:15.054687500,-34.25,2.0,54.0,107.446171875,-31.935000000000002,0.7349224375,34.045625
2021-07-08 18:57:15.062500000,-34.0,2.0,54.0,107.445625,-34.39,0.7350025,34.045
2021-07-08 18:57:15.070312500,-34.0,2.0,54.0,107.44507812500001,-36.585,0.7350825624999999,34.044374999999995
2021-07-08 18:57:15.078125000,-34.0,2.0,54.0,107.44453125,-38.78,0.735162625,34.043749999999996
2021-07-08 18:57:15.085937500,-34.0,2.0,54.0,107.443984375,-40.365,0.7352426875,34.043124999999996
2021-07-08 18:57:15.093750000,-34.0,2.0,54.0,107.4434375,-41.95,0.73532275,34.0425
2021-07-08 18:57:15.101562500,-34.25,2.0,54.0,107.442890625,-42.545,0.7354028125,34.041875
2021-07-08 18:57:15.109375000,-34.5,2.0,54.0,107.44234375,-43.14,0.735482875,34.04125
2021-07-08 18:57:15.117187500,-34.75,2.0,54.0,107.44179687500001,-42.475,0.7355629375,34.040625
2021-07-08 18:57:15.125000000,-35.0,2.0,54.0,107.44125,-41.81,0.735643,34.04
2021-07-08 18:57:15.132812500,-34.75,2.0,54.0,107.440703125,-39.805,0.7357230625,34.039375
2021-07-08 18:57:15.140625000,-34.5,2.0,54.0,107.44015625,-37.8,0.735803125,34.03875
2021-07-08 18:57:15.148437500,-34.25,2.0,54.0,107.439609375,-34.64,0.7358831875,34.038125
2021-07-08 18:57:15.156250000,-34.0,2.0,54.0,107.4390625,-31.48,0.73596325,34.0375
2021-07-08 18:57:15.164062500,-34.0,2.0,54.0,107.43851562500001,-27.57,0.7360433125,34.036875
2021-07-08 18:57:15.171875000,-34.0,2.0,54.0,107.43796875,-23.66,0.736123375,34.03625
2021-07-08 18:57:15.179687500,-34.0,2.0,54.0,107.437421875,-19.515,0.7362034375000001,34.035625
2021-07-08 18:57:15.187500000,-34.0,2.0,54.0,107.436875,-15.37,0.7362835,34.035
2021-07-08 18:57:15.195312500,-34.0,2.0,54.0,107.436328125,-11.425,0.7363635625,34.034375
2021-07-08 18:57:15.203125000,-34.0,2.0,54.0,107.43578125,-7.48,0.736443625,34.03375
2021-07-08 18:57:15.210937500,-34.0,2.0,54.0,107.43523437500001,-4.0,0.7365236875,34.033125
2021-07-08 18:57:15.218750000,-34.0,2.0,54.0,107.4346875,-0.52,0.73660375,34.0325
2021-07-08 18:57:15.226562500,-34.25,2.0,54.0,107.434140625,2.435,0.7366838125,34.031875
2021-07-08 18:57:15.234375000,-34.5,2.0,54.0,107.43359375,5.39,0.7367638750000001,34.03125
2021-07-08 18:57:15.242187500,-34.75,2.0,54.0,107.433046875,7.879999999999999,0.7368439375,34.030625
2021-07-08 18:57:15.250000000,-35.0,2.0,54.0,107.4325,10.37,0.736924,34.03
2021-07-08 18:57:15.257812500,-35.0,2.0,54.0,107.431953125,12.45,0.7368839687500001,34.03
2021-07-08 18:57:15.265625000,-35.0,2.0,54.0,107.43140625,14.53,0.7368439375,34.03
2021-07-08 18:57:15.273437500,-35.0,2.0,54.0,107.430859375,16.19,0.73680390625,34.03
2021-07-08 18:57:15.281250000,-35.0,2.0,54.0,107.4303125,17.85,0.7367638750000001,34.03
2021-07-08 18:57:15.289062500,-35.0,2.0,54.0,107.429765625,18.990000000000002,0.73672384375,34.03
2021-07-08 18:57:15.296875000,-35.0,2.0,54.0,107.42921875,20.13,0.7366838125,34.03
2021-07-08 18:57:15.304687500,-35.0,2.0,54.0,107.428671875,20.665,0.7366437812500001,34.03
2021-07-08 18:57:15.312500000,-35.0,2.0,54.0,107.428125,21.2,0.73660375,34.03
2021-07-08 18:57:15.320312500,-35.0,2.0,54.0,107.427578125,21.145,0.73656371875,34.03
2021-07-08 18:57:15.328125000,-35.0,2.0,54.0,107.42703125,21.09,0.7365236875000001,34.03
2021-07-08 18:57:15.335937500,-35.0,2.0,54.0,107.426484375,20.564999999999998,0.73648365625,34.03
2021-07-08 18:57:15.343750000,-35.0,2.0,54.0,107.4259375,20.04,0.736443625,34.03
2021-07-08 18:57:15.351562500,-34.75,2.0,54.0,107.425390625,19.299999999999997,0.7364035937500001,34.03
2021-07-08 18:57:15.359375000,-34.5,2.0,54.0,107.42484375,18.56,0.7363635625,34.03
2021-07-08 18:57:15.367187500,-34.25,2.0,54.0,107.424296875,17.83,0.73632353125,34.03
2021-07-08 18:57:15.375000000,-34.0,2.0,54.0,107.42375,17.1,0.7362835000000001,34.03
2021-07-08 18:57:15.382812500,-34.0,2.0,54.0,107.423203125,16.535,0.73624346875,34.03
2021-07-08 18:57:15.390625000,-34.0,2.0,54.0,107.42265625,15.97,0.7362034375000001,34.03
2021-07-08 18:57:15.398437500,-34.0,2.0,54.0,107.422109375,15.61,0.73616340625,34.03
2021-07-08 18:57:15.406250000,-34.0,2.0,54.0,107.4215625,15.25,0.736123375,34.03
2021-07-08 18:57:15.414062500,-34.25,2.0,54.0,107.421015625,15.035,0.7360833437500001,34.03
2021-07-08 18:57:15.421875000,-34.5,2.0,54.0,107.42046875,14.82,0.7360433125,34.03
2021-07-08 18:57:15.429687500,-34.75,2.0,54.0,107.419921875,14.695,0.73600328125,34.03
2021-07-08 18:57:15.437500000,-35.0,2.0,54.0,107.419375,14.57,0.7359632500000001,34.03
2021-07-08 18:57:15.445312500,-35.0,2.0,54.0,107.418828125,14.465,0.73592321875,34.03
2021-07-08 18:57:15.453125000,-35.0,2.0,54.0,107.41828124999999,14.36,0.7358831875,34.03
2021-07-08 18:57:15.460937500,-35.0,2.0,54.0,107.417734375,14.219999999999999,0.7358431562500001,34.03
2021-07-08 18:57:15.468750000,-35.0,2.0,54.0,107.4171875,14.08,0.735803125,34.03
2021-07-08 18:57:15.476562500,-35.0,2.0,54.0,107.416640625,13.86,0.73576309375,34.03
2021-07-08 18:57:15.484375000,-35.0,2.0,54.0,107.41609375,13.64,0.7357230625000001,34.03
2021-07-08 18:57:15.492187500,-35.0,2.0,54.0,107.415546875,13.275,0.73568303125,34.03
2021-07-08 18:57:15.500000000,-35.0,2.0,54.0,107.41499999999999,12.91,0.735643,34.03
2021-07-08 18:57:15.507812500,-34.75,2.0,54.0,107.414453125,12.34,0.73576309375,34.03
2021-07-08 18:57:15.515625000,-34.5,2.0,54.0,107.41390625,11.77,0.7358831875,34.03
2021-07-08 18:57:15.523437500,-34.25,2.0,54.0,107.413359375,10.95,0.73600328125,34.03
2021-07-08 18:57:15.531250000,-34.0,2.0,54.0,107.4128125,10.13,0.736123375,34.03
2021-07-08 18:57:15.539062500,-34.25,2.0,54.0,107.412265625,9.030000000000001,0.73624346875,34.03
2021-07-08 18:57:15.546875000,-34.5,2.0,54.0,107.41171875,7.93,0.7363635625,34.03
2021-07-08 18:57:15.554687500,-34.75,2.0,54.0,107.411171875,6.525,0.73648365625,34.03
2021-07-08 18:57:15.562500000,-35.0,2.0,54.0,107.410625,5.12,0.73660375,34.03
2021-07-08 18:57:15.570312500,-34.75,2.0,54.0,107.410078125,3.375,0.73672384375,34.03
2021-07-08 18:57:15.578125000,-34.5,2.0,54.0,107.40953125,1.63,0.7368439375,34.03
2021-07-08 18:57:15.585937500,-34.25,2.0,54.0,107.408984375,-0.46999999999999975,0.73696403125,34.03
2021-07-08 18:57:15.593750000,-34.0,2.0,54.0,107.4084375,-2.57,0.737084125,34.03
2021-07-08 18:57:15.601562500,-34.25,2.0,54.0,107.407890625,-4.949999999999999,0.73720421875,34.03
2021-07-08 18:57:15.609375000,-34.5,2.0,54.0,107.40734375,-7.33,0.7373243125,34.03
2021-07-08 18:57:15.617187500,-34.75,2.0,54.0,107.406796875,-9.885,0.73744440625,34.03
2021-07-08 18:57:15.625000000,-35.0,2.0,54.0,107.40625,-12.44,0.7375645,34.03
2021-07-08 18:57:15.632812500,-34.75,2.0,54.0,107.405703125,-15.015,0.7376845937500001,34.03
2021-07-08 18:57:15.640625000,-34.5,2.0,54.0,107.40515625,-17.59,0.7378046875000001,34.03
2021-07-08 18:57:15.648437500,-34.25,2.0,54.0,107.40460937499999,-20.11,0.73792478125,34.03
2021-07-08 18:57:15.656250000,-34.0,2.0,54.0,107.4040625,-22.63,0.738044875,34.03
2021-07-08 18:57:15.664062500,-34.25,2.0,54.0,107.403515625,-25.1,0.73816496875,34.03
2021-07-08 18:57:15.671875000,-34.5,2.0,54.0,107.40296875,-27.57,0.7382850625,34.03
2021-07-08 18:57:15.679687500,-34.75,2.0,54.0,107.402421875,-30.06,0.73840515625,34.03
2021-07-08 18:57:15.687500000,-35.0,2.0,54.0,107.401875,-32.55,0.73852525,34.03
2021-07-08 18:57:15.695312500,-35.0,2.0,54.0,107.40132812499999,-35.015,0.73864534375,34.03
2021-07-08 18:57:15.703125000,-35.0,2.0,54.0,107.40078125,-37.48,0.7387654375,34.03
2021-07-08 18:57:15.710937500,-35.0,2.0,54.0,107.400234375,-39.675,0.73888553125,34.03
2021-07-08 18:57:15.718750000,-35.0,2.0,54.0,107.3996875,-41.87,0.739005625,34.03
2021-07-08 18:57:15.726562500,-35.0,2.0,54.0,107.399140625,-43.334999999999994,0.73912571875,34.03
2021-07-08 18:57:15.734375000,-35.0,2.0,54.0,107.39859375,-44.8,0.7392458125,34.03
2021-07-08 18:57:15.742187500,-35.0,2.0,54.0,107.39804687499999,-45.0,0.73936590625,34.03
2021-07-08 18:57:15.750000000,-35.0,2.0,54.0,107.3975,-45.2,0.739486,34.03
2021-07-08 18:57:15.757812500,-34.75,2.0,54.0,107.396953125,-43.81,0.73928584375,34.03
2021-07-08 18:57:15.765625000,-34.5,2.0,54.0,107.39640625,-42.42,0.7390856875,34.03
2021-07-08 18:57:15.773437500,-34.25,2.0,54.0,107.395859375,-39.510000000000005,0.73888553125,34.03
2021-07-08 18:57:15.781250000,-34.0,2.0,54.0,107.3953125,-36.6,0.738685375,34.03
2021-07-08 18:57:15.789062500,-34.25,2.0,54.0,107.39476562499999,-32.65,0.73848521875,34.03
2021-07-08 18:57:15.796875000,-34.5,2.0,54.0,107.39421875,-28.7,0.7382850624999999,34.03
2021-07-08 18:57:15.804687500,-34.75,2.0,54.0,107.393671875,-24.415,0.73808490625,34.03
2021-07-08 18:57:15.812500000,-35.0,2.0,54.0,107.393125,-20.13,0.73788475,34.03
2021-07-08 18:57:15.820312500,-35.0,2.0,54.0,107.392578125,-16.17,0.73768459375,34.03
2021-07-08 18:57:15.828125000,-35.0,2.0,54.0,107.39203125,-12.21,0.7374844375,34.03
2021-07-08 18:57:15.835937500,-35.0,2.0,54.0,107.39148437499999,-8.925,0.73728428125,34.03
2021-07-08 18:57:15.843750000,-35.0,2.0,54.0,107.39093749999999,-5.64,0.737084125,34.03
2021-07-08 18:57:15.851562500,-35.0,2.0,54.0,107.390390625,-3.0349999999999997,0.73688396875,34.03
2021-07-08 18:57:15.859375000,-35.0,2.0,54.0,107.38984375,-0.43,0.7366838124999999,34.03
2021-07-08 18:57:15.867187500,-35.0,2.0,54.0,107.389296875,1.72,0.73648365625,34.03
2021-07-08 18:57:15.875000000,-35.0,2.0,54.0,107.38875,3.87,0.7362835,34.03
2021-07-08 18:57:15.882812500,-35.0,2.0,54.0,107.38820312499999,5.8149999999999995,0.73608334375,34.03
2021-07-08 18:57:15.890625000,-35.0,2.0,54.0,107.38765624999999,7.76,0.7358831875,34.03
2021-07-08 18:57:15.898437500,-35.0,2.0,54.0,107.387109375,9.620000000000001,0.73568303125,34.03
2021-07-08 18:57:15.906250000,-35.0,2.0,54.0,107.3865625,11.48,0.735482875,34.03
2021-07-08 18:57:15.914062500,-34.75,2.0,54.0,107.386015625,13.175,0.73528271875,34.03
2021-07-08 18:57:15.921875000,-34.5,2.0,54.0,107.38546875,14.87,0.7350825624999999,34.03
2021-07-08 18:57:15.929687500,-34.25,2.0,54.0,107.38492187499999,16.19,0.73488240625,34.03
2021-07-08 18:57:15.937500000,-34.0,2.0,54.0,107.38437499999999,17.51,0.73468225,34.03
2021-07-08 18:57:15.945312500,-34.25,2.0,54.0,107.383828125,18.29,0.73448209375,34.03
2021-07-08 18:57:15.953125000,-34.5,2.0,54.0,107.38328125,19.07,0.7342819375,34.03
2021-07-08 18:57:15.960937500,-34.75,2.0,54.0,107.382734375,19.25,0.73408178125,34.03
2021-07-08 18:57:15.968750000,-35.0,2.0,54.0,107.3821875,19.43,0.733881625,34.03
2021-07-08 18:57:15.976562500,-35.0,2.0,54.0,107.38164062499999,19.119999999999997,0.73368146875,34.03
2021-07-08 18:57:15.984375000,-35.0,2.0,54.0,107.38109374999999,18.81,0.7334813124999999,34.03
2021-07-08 18:57:15.992187500,-35.0,2.0,54.0,107.380546875,18.235,0.73328115625,34.03
2021-07-08 18:57:16.000000000,-35.0,2.0,54.0,107.38,17.66,0.733081,34.03
2021-07-08 18:57:16.007812500,-34.75,2.0,54.0,107.37953125,17.04,0.73320109375,34.03
2021-07-08 18:57:16.015625000,-34.5,2.0,54.0,107.37906249999999,16.42,0.7333211875,34.03
2021-07-08 18:57:16.023437500,-34.25,2.0,54.0,107.37859375,15.870000000000001,0.73344128125,34.03
2021-07-08 18:57:16.031250000,-34.0,2.0,54.0,107.378125,15.32,0.733561375,34.03
2021-07-08 18:57:16.039062500,-34.25,2.0,54.0,107.37765625,14.825,0.73368146875,34.03
2021-07-08 18:57:16.046875000,-34.5,2.0,54.0,107.37718749999999,14.33,0.7338015625,34.03
2021-07-08 18:57:16.054687500,-34.75,2.0,54.0,107.37671875,13.79,0.7339216562499999,34.03
2021-07-08 18:57:16.062500000,-35.0,2.0,54.0,107.37625,13.25,0.73404175,34.03
2021-07-08 18:57:16.070312500,-35.0,2.0,54.0,107.37578124999999,12.559999999999999,0.73416184375,34.03
2021-07-08 18:57:16.078125000,-35.0,2.0,54.0,107.37531249999999,11.87,0.7342819375,34.03
2021-07-08 18:57:16.085937500,-35.0,2.0,54.0,107.37484375,11.03,0.73440203125,34.03
2021-07-08 18:57:16.093750000,-35.0,2.0,54.0,107.374375,10.19,0.734522125,34.03
2021-07-08 18:57:16.101562500,-35.0,2.0,54.0,107.37390624999999,9.29,0.73464221875,34.03
2021-07-08 18:57:16.109375000,-35.0,2.0,54.0,107.3734375,8.39,0.7347623125,34.03
2021-07-08 18:57:16.117187500,-35.0,2.0,54.0,107.37296875,7.550000000000001,0.73488240625,34.03
2021-07-08 18:57:16.125000000,-35.0,2.0,54.0,107.3725,6.71,0.7350025,34.03
2021-07-08 18:57:16.132812500,-35.0,2.0,54.0,107.37203124999999,5.970000000000001,0.73512259375,34.03
2021-07-08 18:57:16.140625000,-35.0,2.0,54.0,107.3715625,5.23,0.7352426875,34.03
2021-07-08 18:57:16.148437500,-35.0,2.0,54.0,107.37109375,4.515000000000001,0.73536278125,34.03
2021-07-08 18:57:16.156250000,-35.0,2.0,54.0,107.37062499999999,3.8,0.735482875,34.03
2021-07-08 18:57:16.164062500,-35.0,2.0,54.0,107.37015625,2.9,0.73560296875,34.03
2021-07-08 18:57:16.171875000,-35.0,2.0,54.0,107.3696875,2.0,0.7357230625,34.03
2021-07-08 18:57:16.179687500,-35.0,2.0,54.0,107.36921875,0.74,0.73584315625,34.03
2021-07-08 18:57:16.187500000,-35.0,2.0,54.0,107.36874999999999,-0.52,0.73596325,34.03
2021-07-08 18:57:16.195312500,-35.0,2.0,54.0,107.36828125,-2.2199999999999998,0.7360833437500001,34.03
2021-07-08 18:57:16.203125000,-35.0,2.0,54.0,107.3678125,-3.92,0.7362034375000001,34.03
2021-07-08 18:57:16.210937500,-35.0,2.0,54.0,107.36734374999999,-5.9799999999999995,0.73632353125,34.03
2021-07-08 18:57:16.218750000,-35.0,2.0,54.0,107.366875,-8.04,0.736443625,34.03
2021-07-08 18:57:16.226562500,-35.0,2.0,54.0,107.36640625,-10.295,0.73656371875,34.03
2021-07-08 18:57:16.234375000,-35.0,2.0,54.0,107.3659375,-12.55,0.7366838125,34.03
2021-07-08 18:57:16.242187500,-35.0,2.0,54.0,107.36546874999999,-14.865,0.73680390625,34.03
2021-07-08 18:57:16.250000000,-35.0,2.0,54.0,107.365,-17.18,0.736924,34.03
2021-07-08 18:57:16.257812500,-35.0,2.0,54.0,107.36453125,-19.53,0.7368439375,34.03
2021-07-08 18:57:16.265625000,-35.0,2.0,54.0,107.36406249999999,-21.88,0.7367638750000001,34.03
2021-07-08 18:57:16.273437500,-35.0,2.0,54.0,107.36359374999999,-24.365000000000002,0.7366838125,34.03
2021-07-08 18:57:16.281250000,-35.0,2.0,54.0,107.363125,-26.85,0.73660375,34.03
2021-07-08 18:57:16.289062500,-35.0,2.0,54.0,107.36265625,-29.57,0.7365236875,34.03
2021-07-08 18:57:16.296875000,-35.0,2.0,54.0,107.36218749999999,-32.29,0.736443625,34.03
2021-07-08 18:57:16.304687500,-35.0,2.0,54.0,107.36171875,-35.205,0.7363635625,34.03
2021-07-08 18:57:16.312500000,-35.0,2.0,54.0,107.36125,-38.12,0.7362835,34.03
2021-07-08 18:57:16.320312500,-35.0,2.0,54.0,107.36078124999999,-40.92,0.7362034375000001,34.03
2021-07-08 18:57:16.328125000,-35.0,2.0,54.0,107.36031249999999,-43.72,0.736123375,34.03
2021-07-08 18:57:16.335937500,-35.0,2.0,54.0,107.35984375,-45.91,0.7360433125,34.03
2021-07-08 18:57:16.343750000,-35.0,2.0,54.0,107.359375,-48.1,0.73596325,34.03
2021-07-08 18:57:16.351562500,-34.75,2.0,54.0,107.35890624999999,-49.165,0.7358831875,34.03
2021-07-08 18:57:16.359375000,-34.5,2.0,54.0,107.3584375,-50.23,0.735803125,34.03
2021-07-08 18:57:16.367187500,-34.25,2.0,54.0,107.35796875,-49.84,0.7357230625,34.03
2021-07-08 18:57:16.375000000,-34.0,2.0,54.0,107.35749999999999,-49.45,0.735643,34.03
2021-07-08 18:57:16.382812500,-34.25,2.0,54.0,107.35703124999999,-47.605000000000004,0.7355629375,34.03
2021-07-08 18:57:16.390625000,-34.5,2.0,54.0,107.3565625,-45.76,0.735482875,34.03
2021-07-08 18:57:16.398437500,-34.75,2.0,54.0,107.35609375,-42.769999999999996,0.7354028125,34.03
2021-07-08 18:57:16.406250000,-35.0,2.0,54.0,107.35562499999999,-39.78,0.73532275,34.03
2021-07-08 18:57:16.414062500,-35.0,2.0,54.0,107.35515625,-36.125,0.7352426875,34.03
2021-07-08 18:57:16.421875000,-35.0,2.0,54.0,107.3546875,-32.47,0.735162625,34.03
2021-07-08 18:57:16.429687500,-35.0,2.0,54.0,107.35421875,-28.619999999999997,0.7350825624999999,34.03
2021-07-08 18:57:16.437500000,-35.0,2.0,54.0,107.35374999999999,-24.77,0.7350025,34.03
2021-07-08 18:57:16.445312500,-35.0,2.0,54.0,107.35328125,-21.07,0.7349224375,34.03
2021-07-08 18:57:16.453125000,-35.0,2.0,54.0,107.3528125,-17.37,0.7348423749999999,34.03
2021-07-08 18:57:16.460937500,-35.0,2.0,54.0,107.35234374999999,-14.0,0.7347623125,34.03
2021-07-08 18:57:16.468750000,-35.0,2.0,54.0,107.35187499999999,-10.63,0.73468225,34.03
2021-07-08 18:57:16.476562500,-34.75,2.0,54.0,107.35140625,-7.665000000000001,0.7346021875,34.03
2021-07-08 18:57:16.484375000,-34.5,2.0,54.0,107.3509375,-4.7,0.7345221249999999,34.03
2021-07-08 18:57:16.492187500,-34.25,2.0,54.0,107.35046874999999,-2.19,0.7344420625,34.03
2021-07-08 18:57:16.500000000,-34.0,2.0,54.0,107.35,0.32,0.734362,34.03
2021-07-08 18:57:16.507812500,-34.25,2.0,54.0,107.34953125,2.315,0.7344420625,34.03
2021-07-08 18:57:16.515625000,-34.5,2.0,54.0,107.34906249999999,4.31,0.7345221249999999,34.03
2021-07-08 18:57:16.523437500,-34.75,2.0,54.0,107.34859374999999,5.685,0.7346021875,34.03
2021-07-08 18:57:16.531250000,-35.0,2.0,54.0,107.348125,7.06,0.73468225,34.03
2021-07-08 18:57:16.539062500,-35.0,2.0,54.0,107.34765625,7.744999999999999,0.7347623125,34.03
2021-07-08 18:57:16.546875000,-35.0,2.0,54.0,107.34718749999999,8.43,0.7348423749999999,34.03
2021-07-08 18:57:16.554687500,-35.0,2.0,54.0,107.34671875,8.425,0.7349224375,34.03
2021-07-08 18:57:16.562500000,-35.0,2.0,54.0,107.34625,8.42,0.7350025,34.03
2021-07-08 18:57:16.570312500,-35.0,2.0,54.0,107.34578124999999,7.82,0.7350825624999999,34.03
2021-07-08 18:57:16.578125000,-35.0,2.0,54.0,107.34531249999999,7.22,0.735162625,34.03
2021-07-08 18:57:16.585937500,-35.0,2.0,54.0,107.34484375,6.23,0.7352426875,34.03
2021-07-08 18:57:16.593750000,-35.0,2.0,54.0,107.344375,5.24,0.73532275,34.03
2021-07-08 18:57:16.601562500,-34.75,2.0,54.0,107.34390624999999,4.15,0.7354028125,34.03
2021-07-08 18:57:16.609375000,-34.5,2.0,54.0,107.3434375,3.06,0.735482875,34.03
2021-07-08 18:57:16.617187500,-34.25,2.0,54.0,107.34296875,2.15,0.7355629375,34.03
2021-07-08 18:57:16.625000000,-34.0,2.0,54.0,107.3425,1.24,0.735643,34.03
2021-07-08 18:57:16.632812500,-34.25,2.0,54.0,107.34203124999999,0.7,0.7357230625,34.03
2021-07-08 18:57:16.640625000,-34.5,2.0,54.0,107.3415625,0.16,0.735803125,34.03
2021-07-08 18:57:16.648437500,-34.75,2.0,54.0,107.34109375,0.01999999999999999,0.7358831875,34.03
2021-07-08 18:57:16.656250000,-35.0,2.0,54.0,107.34062499999999,-0.12,0.73596325,34.03
2021-07-08 18:57:16.664062500,-34.75,2.0,54.0,107.34015624999999,-0.045,0.7360433125,34.03
2021-07-08 18:57:16.671875000,-34.5,2.0,54.0,107.3396875,0.03,0.736123375,34.03
2021-07-08 18:57:16.679687500,-34.25,2.0,54.0,107.33921875,0.025,0.7362034375000001,34.03
2021-07-08 18:57:16.687500000,-34.0,2.0,54.0,107.33874999999999,0.02,0.7362835,34.03
2021-07-08 18:57:16.695312500,-34.0,2.0,54.0,107.33828125,-0.35,0.7363635625,34.03
2021-07-08 18:57:16.703125000,-34.0,2.0,54.0,107.3378125,-0.72,0.736443625,34.03
2021-07-08 18:57:16.710937500,-34.0,2.0,54.0,107.33734374999999,-1.5899999999999999,0.7365236875,34.03
2021-07-08 18:57:16.718750000,-34.0,2.0,54.0,107.33687499999999,-2.46,0.73660375,34.03
2021-07-08 18:57:16.726562500,-34.0,2.0,54.0,107.33640625,-3.765,0.7366838125,34.03
2021-07-08 18:57:16.734375000,-34.0,2.0,54.0,107.3359375,-5.07,0.7367638750000001,34.03
2021-07-08 18:57:16.742187500,-34.0,2.0,54.0,107.33546874999999,-6.575,0.7368439375,34.03
2021-07-08 18:57:16.750000000,-34.0,2.0,54.0,107.335,-8.08,0.736924,34.03
2021-07-08 18:57:16.757812500,-34.0,2.0,54.0,107.33453125,-9.525,0.7370040625000001,34.03
2021-07-08 18:57:16.765625000,-34.0,2.0,54.0,107.33406249999999,-10.97,0.737084125,34.03
2021-07-08 18:57:16.773437500,-34.0,2.0,54.0,107.33359374999999,-12.195,0.7371641875,34.03
2021-07-08 18:57:16.781250000,-34.0,2.0,54.0,107.333125,-13.42,0.73724425,34.03
2021-07-08 18:57:16.789062500,-34.0,2.0,54.0,107.33265625,-14.475,0.7373243125,34.03
2021-07-08 18:57:16.796875000,-34.0,2.0,54.0,107.33218749999999,-15.53,0.737404375,34.03
2021-07-08 18:57:16.804687500,-34.0,2.0,54.0,107.33171875,-16.64,0.7374844375,34.03
2021-07-08 18:57:16.812500000,-34.0,2.0,54.0,107.33125,-17.75,0.7375645,34.03
2021-07-08 18:57:16.820312500,-34.0,2.0,54.0,107.33078124999999,-19.225,0.7376445625,34.03
2021-07-08 18:57:16.828125000,-34.0,2.0,54.0,107.33031249999999,-20.7,0.737724625,34.03
2021-07-08 18:57:16.835937500,-34.0,2.0,54.0,107.32984375,-22.765,0.7378046875000001,34.03
2021-07-08 18:57:16.843750000,-34.0,2.0,54.0,107.329375,-24.83,0.73788475,34.03
2021-07-08 18:57:16.851562500,-34.25,2.0,54.0,107.32890624999999,-27.525,0.7379648125,34.03
2021-07-08 18:57:16.859375000,-34.5,2.0,54.0,107.32843749999999,-30.22,0.738044875,34.03
2021-07-08 18:57:16.867187500,-34.75,2.0,54.0,107.32796875,-33.36,0.7381249375,34.03
2021-07-08 18:57:16.875000000,-35.0,2.0,54.0,107.32749999999999,-36.5,0.738205,34.03
2021-07-08 18:57:16.882812500,-35.0,2.0,54.0,107.32703124999999,-39.739999999999995,0.7382850625,34.03
2021-07-08 18:57:16.890625000,-35.0,2.0,54.0,107.3265625,-42.98,0.738365125,34.03
2021-07-08 18:57:16.898437500,-35.0,2.0,54.0,107.32609375,-45.894999999999996,0.7384451875,34.03
2021-07-08 18:57:16.906250000,-35.0,2.0,54.0,107.32562499999999,-48.81,0.73852525,34.03
2021-07-08 18:57:16.914062500,-34.75,2.0,54.0,107.32515624999999,-50.995000000000005,0.7386053124999999,34.03
2021-07-08 18:57:16.921875000,-34.5,2.0,54.0,107.3246875,-53.18,0.738685375,34.03
2021-07-08 18:57:16.929687500,-34.25,2.0,54.0,107.32421875,-54.33,0.7387654375,34.03
2021-07-08 18:57:16.937500000,-34.0,2.0,54.0,107.32374999999999,-55.48,0.7388455,34.03
2021-07-08 18:57:16.945312500,-34.0,2.0,54.0,107.32328125,-55.36,0.7389255625,34.03
2021-07-08 18:57:16.953125000,-34.0,2.0,54.0,107.3228125,-55.24,0.739005625,34.03
2021-07-08 18:57:16.960937500,-34.0,2.0,54.0,107.32234374999999,-53.769999999999996,0.7390856875,34.03
2021-07-08 18:57:16.968750000,-34.0,2.0,54.0,107.32187499999999,-52.3,0.73916575,34.03
2021-07-08 18:57:16.976562500,-34.0,2.0,54.0,107.32140625,-49.51,0.7392458125,34.03
2021-07-08 18:57:16.984375000,-34.0,2.0,54.0,107.3209375,-46.72,0.739325875,34.03
2021-07-08 18:57:16.992187500,-34.0,2.0,54.0,107.32046874999999,-42.815,0.7394059374999999,34.03
2021-07-08 18:57:17.000000000,-34.0,2.0,54.0,107.32,-38.91,0.739486,34.03
2021-07-08 18:57:17.007812500,-34.0,2.0,54.0,107.31921874999999,-34.269999999999996,0.73916575,34.030625
2021-07-08 18:57:17.015625000,-34.0,2.0,54.0,107.31843749999999,-29.63,0.7388454999999999,34.03125
2021-07-08 18:57:17.023437500,-34.0,2.0,54.0,107.31765625,-24.715,0.73852525,34.031875
2021-07-08 18:57:17.031250000,-34.0,2.0,54.0,107.316875,-19.8,0.738205,34.0325
2021-07-08 18:57:17.039062500,-34.0,2.0,54.0,107.31609375,-15.07,0.73788475,34.033125
2021-07-08 18:57:17.046875000,-34.0,2.0,54.0,107.31531249999999,-10.34,0.7375645,34.03375
2021-07-08 18:57:17.054687500,-34.0,2.0,54.0,107.31453124999999,-6.095,0.73724425,34.034375
2021-07-08 18:57:17.062500000,-34.0,2.0,54.0,107.31375,-1.85,0.736924,34.035
2021-07-08 18:57:17.070312500,-34.25,2.0,54.0,107.31296875,1.7600000000000002,0.73660375,34.035625
2021-07-08 18:57:17.078125000,-34.5,2.0,54.0,107.3121875,5.37,0.7362835,34.03625
2021-07-08 18:57:17.085937500,-34.75,2.0,54.0,107.31140624999999,8.32,0.73596325,34.036875
2021-07-08 18:57:17.093750000,-35.0,2.0,54.0,107.31062499999999,11.27,0.735643,34.0375
2021-07-08 18:57:17.101562500,-34.75,2.0,54.0,107.30984375,13.524999999999999,0.73532275,34.038125
2021-07-08 18:57:17.109375000,-34.5,2.0,54.0,107.3090625,15.78,0.7350025,34.03875
2021-07-08 18:57:17.117187500,-34.25,2.0,54.0,107.30828125,17.24,0.73468225,34.039375
2021-07-08 18:57:17.125000000,-34.0,2.0,54.0,107.30749999999999,18.7,0.734362,34.04
2021-07-08 18:57:17.132812500,-34.25,2.0,54.0,107.30671874999999,19.23,0.73404175,34.040625
2021-07-08 18:57:17.140625000,-34.5,2.0,54.0,107.3059375,19.76,0.7337215,34.04125
2021-07-08 18:57:17.148437500,-34.75,2.0,54.0,107.30515625,19.32,0.73340125,34.041875
2021-07-08 18:57:17.156250000,-35.0,2.0,54.0,107.304375,18.88,0.733081,34.0425
2021-07-08 18:57:17.164062500,-34.75,2.0,54.0,107.30359374999999,17.64,0.7327607500000001,34.043124999999996
2021-07-08 18:57:17.171875000,-34.5,2.0,54.0,107.30281249999999,16.4,0.7324405,34.043749999999996
2021-07-08 18:57:17.179687500,-34.25,2.0,54.0,107.30203125,14.739999999999998,0.73212025,34.044374999999995
2021-07-08 18:57:17.187500000,-34.0,2.0,54.0,107.30125,13.08,0.7318,34.045
2021-07-08 18:57:17.195312500,-34.25,2.0,54.0,107.30046875,11.49,0.73147975,34.045625
2021-07-08 18:57:17.203125000,-34.5,2.0,54.0,107.29968749999999,9.9,0.7311595000000001,34.04625
2021-07-08 18:57:17.210937500,-34.75,2.0,54.0,107.29890624999999,8.745000000000001,0.73083925,34.046875
2021-07-08 18:57:17.218750000,-35.0,2.0,54.0,107.298125,7.59,0.730519,34.0475
2021-07-08 18:57:17.226562500,-34.75,2.0,54.0,107.29734375,6.949999999999999,0.73019875,34.048125
2021-07-08 18:57:17.234375000,-34.5,2.0,54.0,107.2965625,6.31,0.7298785000000001,34.04875
2021-07-08 18:57:17.242187500,-34.25,2.0,54.0,107.29578124999999,5.99,0.7295582500000001,34.049375
2021-07-08 18:57:17.250000000,-34.0,2.0,54.0,107.29499999999999,5.67,0.729238,34.05
2021-07-08 18:57:17.257812500,-34.25,2.0,54.0,107.29421875,5.325,0.72935809375,34.05
2021-07-08 18:57:17.265625000,-34.5,2.0,54.0,107.2934375,4.98,0.7294781875,34.05
2021-07-08 18:57:17.273437500,-34.75,2.0,54.0,107.29265625,4.325,0.72959828125,34.05
2021-07-08 18:57:17.281250000,-35.0,2.0,54.0,107.29187499999999,3.67,0.729718375,34.05
2021-07-08 18:57:17.289062500,-34.75,2.0,54.0,107.29109375,2.625,0.72983846875,34.05
2021-07-08 18:57:17.296875000,-34.5,2.0,54.0,107.2903125,1.58,0.7299585625,34.05
2021-07-08 18:57:17.304687500,-34.25,2.0,54.0,107.28953125,0.29499999999999993,0.73007865625,34.05
2021-07-08 18:57:17.312500000,-34.0,2.0,54.0,107.28875,-0.99,0.73019875,34.05
2021-07-08 18:57:17.320312500,-34.0,2.0,54.0,107.28796874999999,-2.285,0.73031884375,34.05
2021-07-08 18:57:17.328125000,-34.0,2.0,54.0,107.2871875,-3.58,0.7304389375,34.05
2021-07-08 18:57:17.335937500,-34.0,2.0,54.0,107.28640625,-4.7,0.73055903125,34.05
2021-07-08 18:57:17.343750000,-34.0,2.0,54.0,107.285625,-5.82,0.730679125,34.05
2021-07-08 18:57:17.351562500,-34.25,2.0,54.0,107.28484375,-6.785,0.73079921875,34.05
2021-07-08 18:57:17.359375000,-34.5,2.0,54.0,107.28406249999999,-7.75,0.7309193125,34.05
2021-07-08 18:57:17.367187500,-34.75,2.0,54.0,107.28328125,-8.75,0.73103940625,34.05
2021-07-08 18:57:17.375000000,-35.0,2.0,54.0,107.2825,-9.75,0.7311595,34.05
2021-07-08 18:57:17.382812500,-34.75,2.0,54.0,107.28171875,-11.08,0.7312795937500001,34.05
2021-07-08 18:57:17.390625000,-34.5,2.0,54.0,107.2809375,-12.41,0.7313996875000001,34.05
2021-07-08 18:57:17.398437500,-34.25,2.0,54.0,107.28015624999999,-14.32,0.7315197812500001,34.05
2021-07-08 18:57:17.406250000,-34.0,2.0,54.0,107.279375,-16.23,0.731639875,34.05
2021-07-08 18:57:17.414062500,-34.0,2.0,54.0,107.27859375,-18.835,0.73175996875,34.05
2021-07-08 18:57:17.421875000,-34.0,2.0,54.0,107.2778125,-21.44,0.7318800625,34.05
2021-07-08 18:57:17.429687500,-34.0,2.0,54.0,107.27703125,-24.665,0.73200015625,34.05
2021-07-08 18:57:17.437500000,-34.0,2.0,54.0,107.27624999999999,-27.89,0.73212025,34.05
2021-07-08 18:57:17.445312500,-34.25,2.0,54.0,107.27546875,-31.465,0.73224034375,34.05
2021-07-08 18:57:17.453125000,-34.5,2.0,54.0,107.2746875,-35.04,0.7323604375,34.05
2021-07-08 18:57:17.460937500,-34.75,2.0,54.0,107.27390625,-38.58,0.73248053125,34.05
2021-07-08 18:57:17.468750000,-35.0,2.0,54.0,107.273125,-42.12,0.732600625,34.05
2021-07-08 18:57:17.476562500,-35.0,2.0,54.0,107.27234374999999,-45.135,0.73272071875,34.05
2021-07-08 18:57:17.484375000,-35.0,2.0,54.0,107.2715625,-48.15,0.7328408125,34.05
2021-07-08 18:57:17.492187500,-35.0,2.0,54.0,107.27078125,-50.15,0.73296090625,34.05
2021-07-08 18:57:17.500000000,-35.0,2.0,54.0,107.27,-52.15,0.733081,34.05
2021-07-08 18:57:17.507812500,-34.75,2.0,54.0,107.26921875,-52.715,0.73296090625,34.05
2021-07-08 18:57:17.515625000,-34.5,2.0,54.0,107.26843749999999,-53.28,0.7328408125,34.05
2021-07-08 18:57:17.523437500,-34.25,2.0,54.0,107.26765625,-52.16,0.73272071875,34.05
2021-07-08 18:57:17.531250000,-34.0,2.0,54.0,107.266875,-51.04,0.732600625,34.05
2021-07-08 18:57:17.539062500,-34.0,2.0,54.0,107.26609375,-48.22,0.73248053125,34.05
2021-07-08 18:57:17.546875000,-34.0,2.0,54.0,107.2653125,-45.4,0.7323604375,34.05
2021-07-08 18:57:17.554687500,-34.0,2.0,54.0,107.26453124999999,-41.120000000000005,0.73224034375,34.05
2021-07-08 18:57:17.562500000,-34.0,2.0,54.0,107.26375,-36.84,0.73212025,34.05
2021-07-08 18:57:17.570312500,-34.25,2.0,54.0,107.26296875,-31.57,0.73200015625,34.05
2021-07-08 18:57:17.578125000,-34.5,2.0,54.0,107.2621875,-26.3,0.7318800625,34.05
2021-07-08 18:57:17.585937500,-34.75,2.0,54.0,107.26140625,-20.615000000000002,0.73175996875,34.05
2021-07-08 18:57:17.593750000,-35.0,2.0,54.0,107.26062499999999,-14.93,0.731639875,34.05
2021-07-08 18:57:17.601562500,-35.0,2.0,54.0,107.25984375,-9.375,0.7315197812500001,34.05
2021-07-08 18:57:17.609375000,-35.0,2.0,54.0,107.2590625,-3.82,0.7313996875000001,34.05
2021-07-08 18:57:17.617187500,-35.0,2.0,54.0,107.25828125,1.19,0.7312795937500001,34.05
2021-07-08 18:57:17.625000000,-35.0,2.0,54.0,107.2575,6.2,0.7311595,34.05
2021-07-08 18:57:17.632812500,-34.75,2.0,54.0,107.25671874999999,10.46,0.73103940625,34.05
2021-07-08 18:57:17.640625000,-34.5,2.0,54.0,107.2559375,14.72,0.7309193125,34.05
2021-07-08 18:57:17.648437500,-34.25,2.0,54.0,107.25515625,18.2,0.73079921875,34.05
2021-07-08 18:57:17.656250000,-34.0,2.0,54.0,107.254375,21.68,0.730679125,34.05
2021-07-08 18:57:17.664062500,-34.0,2.0,54.0,107.25359375,24.439999999999998,0.73055903125,34.05
2021-07-08 18:57:17.671875000,-34.0,2.0,54.0,107.25281249999999,27.2,0.7304389375,34.05
2021-07-08 18:57:17.679687500,-34.0,2.0,54.0,107.25203125,29.29,0.73031884375,34.05
2021-07-08 18:57:17.687500000,-34.0,2.0,54.0,107.25125,31.38,0.73019875,34.05
2021-07-08 18:57:17.695312500,-34.25,2.0,54.0,107.25046875,32.805,0.73007865625,34.05
2021-07-08 18:57:17.703125000,-34.5,2.0,54.0,107.2496875,34.23,0.7299585625,34.05
2021-07-08 18:57:17.710937500,-34.75,2.0,54.0,107.24890624999999,34.94499999999999,0.72983846875,34.05
2021-07-08 18:57:17.718750000,-35.0,2.0,54.0,107.248125,35.66,0.729718375,34.05
2021-07-08 18:57:17.726562500,-35.0,2.0,54.0,107.24734375,35.644999999999996,0.72959828125,34.05
2021-07-08 18:57:17.734375000,-35.0,2.0,54.0,107.2465625,35.63,0.7294781875,34.05
2021-07-08 18:57:17.742187500,-35.0,2.0,54.0,107.24578125,34.955,0.72935809375,34.05
2021-07-08 18:57:17.750000000,-35.0,2.0,54.0,107.245,34.28,0.729238,34.05
2021-07-08 18:57:17.757812500,-34.75,2.0,54.0,107.24421875,33.150000000000006,0.72935809375,34.05
2021-07-08 18:57:17.765625000,-34.5,2.0,54.0,107.2434375,32.02,0.7294781875,34.05
2021-07-08 18:57:17.773437500,-34.25,2.0,54.0,107.24265625,30.71,0.72959828125,34.05
2021-07-08 18:57:17.781250000,-34.0,2.0,54.0,107.241875,29.4,0.729718375,34.05
2021-07-08 18:57:17.789062500,-34.25,2.0,54.0,107.24109375,28.195,0.72983846875,34.05
2021-07-08 18:57:17.796875000,-34.5,2.0,54.0,107.2403125,26.99,0.7299585625,34.05
2021-07-08 18:57:17.804687500,-34.75,2.0,54.0,107.23953125,26.08,0.73007865625,34.05
2021-07-08 18:57:17.812500000,-35.0,2.0,54.0,107.23875,25.17,0.73019875,34.05
2021-07-08 18:57:17.820312500,-35.0,2.0,54.0,107.23796875,24.590000000000003,0.73031884375,34.05
2021-07-08 18:57:17.828125000,-35.0,2.0,54.0,107.2371875,24.01,0.7304389375,34.05
2021-07-08 18:57:17.835937500,-35.0,2.0,54.0,107.23640625,23.630000000000003,0.73055903125,34.05
2021-07-08 18:57:17.843750000,-35.0,2.0,54.0,107.235625,23.25,0.730679125,34.05
2021-07-08 18:57:17.851562500,-35.0,2.0,54.0,107.23484375,22.884999999999998,0.73079921875,34.05
2021-07-08 18:57:17.859375000,-35.0,2.0,54.0,107.2340625,22.52,0.7309193125,34.05
2021-07-08 18:57:17.867187500,-35.0,2.0,54.0,107.23328125,21.975,0.73103940625,34.05
2021-07-08 18:57:17.875000000,-35.0,2.0,54.0,107.2325,21.43,0.7311595,34.05
2021-07-08 18:57:17.882812500,-35.0,2.0,54.0,107.23171875,20.605,0.7312795937500001,34.05
2021-07-08 18:57:17.890625000,-35.0,2.0,54.0,107.2309375,19.78,0.7313996875000001,34.05
2021-07-08 18:57:17.898437500,-35.0,2.0,54.0,107.23015625,18.65,0.7315197812500001,34.05
2021-07-08 18:57:17.906250000,-35.0,2.0,54.0,107.229375,17.52,0.731639875,34.05
2021-07-08 18:57:17.914062500,-35.0,2.0,54.0,107.22859375,16.11,0.73175996875,34.05
2021-07-08 18:57:17.921875000,-35.0,2.0,54.0,107.2278125,14.7,0.7318800625,34.05
2021-07-08 18:57:17.929687500,-35.0,2.0,54.0,107.22703125,13.04,0.73200015625,34.05
2021-07-08 18:57:17.937500000,-35.0,2.0,54.0,107.22625,11.38,0.73212025,34.05
2021-07-08 18:57:17.945312500,-35.0,2.0,54.0,107.22546875,9.51,0.73224034375,34.05
2021-07-08 18:57:17.953125000,-35.0,2.0,54.0,107.2246875,7.64,0.7323604375,34.05
2021-07-08 18:57:17.960937500,-35.0,2.0,54.0,107.22390625,5.6,0.73248053125,34.05
2021-07-08 18:57:17.968750000,-35.0,2.0,54.0,107.223125,3.56,0.732600625,34.05
2021-07-08 18:57:17.976562500,-34.75,2.0,54.0,107.22234375,1.4049999999999998,0.73272071875,34.05
2021-07-08 18:57:17.984375000,-34.5,2.0,54.0,107.2215625,-0.75,0.7328408125,34.05
2021-07-08 18:57:17.992187500,-34.25,2.0,54.0,107.22078125,-2.99,0.73296090625,34.05
2021-07-08 18:57:18.000000000,-34.0,2.0,54.0,107.22,-5.23,0.733081,34.05
2021-07-08 18:57:18.007812500,-34.25,2.0,54.0,107.21906249999999,-7.595000000000001,0.732920875,34.05
2021-07-08 18:57:18.015625000,-34.5,2.0,54.0,107.218125,-9.96,0.73276075,34.05
2021-07-08 18:57:18.023437500,-34.75,2.0,54.0,107.2171875,-12.61,0.732600625,34.05
2021-07-08 18:57:18.031250000,-35.0,2.0,54.0,107.21625,-15.26,0.7324404999999999,34.05
2021-07-08 18:57:18.039062500,-35.0,2.0,54.0,107.2153125,-18.365,0.732280375,34.05
2021-07-08 18:57:18.046875000,-35.0,2.0,54.0,107.214375,-21.47,0.73212025,34.05
2021-07-08 18:57:18.054687500,-35.0,2.0,54.0,107.2134375,-25.115000000000002,0.731960125,34.05
2021-07-08 18:57:18.062500000,-35.0,2.0,54.0,107.2125,-28.76,0.7318,34.05
2021-07-08 18:57:18.070312500,-35.0,2.0,54.0,107.2115625,-32.745,0.7316398749999999,34.05
2021-07-08 18:57:18.078125000,-35.0,2.0,54.0,107.210625,-36.73,0.73147975,34.05
2021-07-08 18:57:18.085937500,-35.0,2.0,54.0,107.2096875,-40.51,0.731319625,34.05
2021-07-08 18:57:18.093750000,-35.0,2.0,54.0,107.20875,-44.29,0.7311595,34.05
2021-07-08 18:57:18.101562500,-35.0,2.0,54.0,107.2078125,-47.065,0.730999375,34.05
2021-07-08 18:57:18.109375000,-35.0,2.0,54.0,107.206875,-49.84,0.7308392499999999,34.05
2021-07-08 18:57:18.117187500,-35.0,2.0,54.0,107.2059375,-50.82,0.730679125,34.05
2021-07-08 18:57:18.125000000,-35.0,2.0,54.0,107.205,-51.8,0.7305189999999999,34.05
2021-07-08 18:57:18.132812500,-35.0,2.0,54.0,107.20406249999999,-50.485,0.730358875,34.05
2021-07-08 18:57:18.140625000,-35.0,2.0,54.0,107.203125,-49.17,0.73019875,34.05
2021-07-08 18:57:18.148437500,-35.0,2.0,54.0,107.2021875,-45.54,0.7300386249999999,34.05
2021-07-08 18:57:18.156250000,-35.0,2.0,54.0,107.20125,-41.91,0.7298785,34.05
2021-07-08 18:57:18.164062500,-34.75,2.0,54.0,107.2003125,-36.455,0.7297183749999999,34.05
2021-07-08 18:57:18.171875000,-34.5,2.0,54.0,107.199375,-31.0,0.72955825,34.05
2021-07-08 18:57:18.179687500,-34.25,2.0,54.0,107.1984375,-24.475,0.729398125,34.05
2021-07-08 18:57:18.187500000,-34.0,2.0,54.0,107.19749999999999,-17.95,0.7292379999999999,34.05
2021-07-08 18:57:18.195312500,-34.25,2.0,54.0,107.1965625,-11.16,0.729077875,34.05
2021-07-08 18:57:18.203125000,-34.5,2.0,54.0,107.19562499999999,-4.37,0.7289177499999999,34.05
2021-07-08 18:57:18.210937500,-34.75,2.0,54.0,107.1946875,2.0699999999999994,0.728757625,34.05
2021-07-08 18:57:18.218750000,-35.0,2.0,54.0,107.19375,8.51,0.7285975,34.05
2021-07-08 18:57:18.226562500,-35.0,2.0,54.0,107.1928125,14.225000000000001,0.7284373749999999,34.05
2021-07-08 18:57:18.234375000,-35.0,2.0,54.0,107.191875,19.94,0.72827725,34.05
2021-07-08 18:57:18.242187500,-35.0,2.0,54.0,107.1909375,24.75,0.7281171249999999,34.05
2021-07-08 18:57:18.250000000,-35.0,2.0,54.0,107.19,29.56,0.727957,34.05
2021-07-08 18:57:18.257812500,-34.75,2.0,54.0,107.18906249999999,33.38,0.72815715625,34.05
2021-07-08 18:57:18.265625000,-34.5,2.0,54.0,107.188125,37.2,0.7283573125,34.05
2021-07-08 18:57:18.273437500,-34.25,2.0,54.0,107.1871875,39.965,0.7285574687499999,34.05
2021-07-08 18:57:18.281250000,-34.0,2.0,54.0,107.18625,42.73,0.728757625,34.05
2021-07-08 18:57:18.289062500,-34.25,2.0,54.0,107.1853125,44.394999999999996,0.72895778125,34.05
2021-07-08 18:57:18.296875000,-34.5,2.0,54.0,107.184375,46.06,0.7291579374999999,34.05
2021-07-08 18:57:18.304687500,-34.75,2.0,54.0,107.1834375,46.635000000000005,0.7293580937499999,34.05
2021-07-08 18:57:18.312500000,-35.0,2.0,54.0,107.1825,47.21,0.72955825,34.05
2021-07-08 18:57:18.320312500,-34.75,2.0,54.0,107.1815625,46.82,0.72975840625,34.05
2021-07-08 18:57:18.328125000,-34.5,2.0,54.0,107.18062499999999,46.43,0.7299585625,34.05
2021-07-08 18:57:18.335937500,-34.25,2.0,54.0,107.1796875,45.315,0.7301587187499999,34.05
2021-07-08 18:57:18.343750000,-34.0,2.0,54.0,107.17875,44.2,0.730358875,34.05
2021-07-08 18:57:18.351562500,-34.0,2.0,54.0,107.1778125,42.675,0.73055903125,34.05
2021-07-08 18:57:18.359375000,-34.0,2.0,54.0,107.176875,41.15,0.7307591874999999,34.05
2021-07-08 18:57:18.367187500,-34.0,2.0,54.0,107.1759375,39.55,0.7309593437499999,34.05
2021-07-08 18:57:18.375000000,-34.0,2.0,54.0,107.175,37.95,0.7311595,34.05
2021-07-08 18:57:18.382812500,-34.25,2.0,54.0,107.17406249999999,36.52,0.73135965625,34.05
2021-07-08 18:57:18.390625000,-34.5,2.0,54.0,107.173125,35.09,0.7315598125,34.05
2021-07-08 18:57:18.398437500,-34.75,2.0,54.0,107.17218749999999,33.915000000000006,0.7317599687499999,34.05
2021-07-08 18:57:18.406250000,-35.0,2.0,54.0,107.17125,32.74,0.731960125,34.05
2021-07-08 18:57:18.414062500,-34.75,2.0,54.0,107.1703125,31.76,0.73216028125,34.05
2021-07-08 18:57:18.421875000,-34.5,2.0,54.0,107.169375,30.78,0.7323604374999999,34.05
2021-07-08 18:57:18.429687500,-34.25,2.0,54.0,107.1684375,29.8,0.7325605937499999,34.05
2021-07-08 18:57:18.437500000,-34.0,2.0,54.0,107.16749999999999,28.82,0.73276075,34.05
2021-07-08 18:57:18.445312500,-34.25,2.0,54.0,107.1665625,27.65,0.73296090625,34.05
2021-07-08 18:57:18.453125000,-34.5,2.0,54.0,107.16562499999999,26.48,0.7331610625,34.05
2021-07-08 18:57:18.460937500,-34.75,2.0,54.0,107.1646875,25.02,0.7333612187499999,34.05
2021-07-08 18:57:18.468750000,-35.0,2.0,54.0,107.16375,23.56,0.733561375,34.05
2021-07-08 18:57:18.476562500,-35.0,2.0,54.0,107.1628125,21.83,0.73376153125,34.05
2021-07-08 18:57:18.484375000,-35.0,2.0,54.0,107.161875,20.1,0.7339616874999999,34.05
2021-07-08 18:57:18.492187500,-35.0,2.0,54.0,107.1609375,18.235,0.7341618437499999,34.05
2021-07-08 18:57:18.500000000,-35.0,2.0,54.0,107.16,16.37,0.734362,34.05
2021-07-08 18:57:18.507812500,-35.0,2.0,54.0,107.15906249999999,14.525,0.73424190625,34.05
2021-07-08 18:57:18.515625000,-35.0,2.0,54.0,107.158125,12.68,0.7341218125,34.05
2021-07-08 18:57:18.523437500,-35.0,2.0,54.0,107.15718749999999,10.955,0.73400171875,34.05
2021-07-08 18:57:18.531250000,-35.0,2.0,54.0,107.15625,9.23,0.733881625,34.05
2021-07-08 18:57:18.539062500,-34.75,2.0,54.0,107.1553125,7.58,0.73376153125,34.05
2021-07-08 18:57:18.546875000,-34.5,2.0,54.0,107.154375,5.93,0.7336414375,34.05
2021-07-08 18:57:18.554687500,-34.25,2.0,54.0,107.1534375,4.21,0.73352134375,34.05
2021-07-08 18:57:18.562500000,-34.0,2.0,54.0,107.1525,2.49,0.73340125,34.05
2021-07-08 18:57:18.570312500,-34.25,2.0,54.0,107.1515625,0.46499999999999986,0.73328115625,34.05
2021-07-08 18:57:18.578125000,-34.5,2.0,54.0,107.15062499999999,-1.56,0.7331610625,34.05
2021-07-08 18:57:18.585937500,-34.75,2.0,54.0,107.1496875,-4.115,0.73304096875,34.05
2021-07-08 18:57:18.593750000,-35.0,2.0,54.0,107.14874999999999,-6.67,0.732920875,34.05
2021-07-08 18:57:18.601562500,-35.0,2.0,54.0,107.1478125,-9.925,0.73280078125,34.05
2021-07-08 18:57:18.609375000,-35.0,2.0,54.0,107.146875,-13.18,0.7326806875,34.05
2021-07-08 18:57:18.617187500,-35.0,2.0,54.0,107.1459375,-17.21,0.73256059375,34.05
2021-07-08 18:57:18.625000000,-35.0,2.0,54.0,107.145,-21.24,0.7324405,34.05
2021-07-08 18:57:18.632812500,-35.0,2.0,54.0,107.14406249999999,-25.965,0.73232040625,34.05
2021-07-08 18:57:18.640625000,-35.0,2.0,54.0,107.143125,-30.69,0.7322003125,34.05
2021-07-08 18:57:18.648437500,-35.0,2.0,54.0,107.14218749999999,-35.815,0.73208021875,34.05
2021-07-08 18:57:18.656250000,-35.0,2.0,54.0,107.14125,-40.94,0.731960125,34.05
2021-07-08 18:57:18.664062500,-34.75,2.0,54.0,107.1403125,-45.925,0.73184003125,34.05
2021-07-08 18:57:18.671875000,-34.5,2.0,54.0,107.139375,-50.91,0.7317199375,34.05
2021-07-08 18:57:18.679687500,-34.25,2.0,54.0,107.1384375,-55.04,0.73159984375,34.05
2021-07-08 18:57:18.687500000,-34.0,2.0,54.0,107.13749999999999,-59.17,0.73147975,34.05
2021-07-08 18:57:18.695312500,-34.0,2.0,54.0,107.1365625,-61.695,0.73135965625,34.05
2021-07-08 18:57:18.703125000,-34.0,2.0,54.0,107.13562499999999,-64.22,0.7312395625,34.05
2021-07-08 18:57:18.710937500,-34.0,2.0,54.0,107.1346875,-64.545,0.73111946875,34.05
2021-07-08 18:57:18.718750000,-34.0,2.0,54.0,107.13374999999999,-64.87,0.730999375,34.05
2021-07-08 18:57:18.726562500,-34.0,2.0,54.0,107.1328125,-62.75,0.73087928125,34.05
2021-07-08 18:57:18.734375000,-34.0,2.0,54.0,107.131875,-60.63,0.7307591875,34.05
2021-07-08 18:57:18.742187500,-34.0,2.0,54.0,107.1309375,-56.24,0.73063909375,34.05
2021-07-08 18:57:18.750000000,-34.0,2.0,54.0,107.13,-51.85,0.730519,34.05
2021-07-08 18:57:18.757812500,-34.25,2.0,54.0,107.12906249999999,-45.725,0.7304789687500001,34.05
2021-07-08 18:57:18.765625000,-34.5,2.0,54.0,107.128125,-39.6,0.7304389375,34.05
2021-07-08 18:57:18.773437500,-34.75,2.0,54.0,107.12718749999999,-32.49,0.73039890625,34.05
2021-07-08 18:57:18.781250000,-35.0,2.0,54.0,107.12625,-25.38,0.7303588750000001,34.05
2021-07-08 18:57:18.789062500,-35.0,2.0,54.0,107.12531249999999,-18.035,0.73031884375,34.05
2021-07-08 18:57:18.796875000,-35.0,2.0,54.0,107.124375,-10.69,0.7302788125,34.05
2021-07-08 18:57:18.804687500,-35.0,2.0,54.0,107.1234375,-3.744999999999999,0.7302387812500001,34.05
2021-07-08 18:57:18.812500000,-35.0,2.0,54.0,107.1225,3.2,0.73019875,34.05
2021-07-08 18:57:18.820312500,-35.0,2.0,54.0,107.1215625,9.32,0.73015871875,34.05
2021-07-08 18:57:18.828125000,-35.0,2.0,54.0,107.12062499999999,15.44,0.7301186875000001,34.05
2021-07-08 18:57:18.835937500,-35.0,2.0,54.0,107.1196875,20.495,0.73007865625,34.05
2021-07-08 18:57:18.843750000,-35.0,2.0,54.0,107.11874999999999,25.55,0.730038625,34.05
2021-07-08 18:57:18.851562500,-35.0,2.0,54.0,107.1178125,29.424999999999997,0.7299985937500001,34.05
2021-07-08 18:57:18.859375000,-35.0,2.0,54.0,107.116875,33.3,0.7299585625,34.05
2021-07-08 18:57:18.867187500,-35.0,2.0,54.0,107.1159375,35.94,0.7299185312500001,34.05
2021-07-08 18:57:18.875000000,-35.0,2.0,54.0,107.115,38.58,0.7298785000000001,34.05
2021-07-08 18:57:18.882812500,-35.0,2.0,54.0,107.11406249999999,39.965,0.72983846875,34.05
2021-07-08 18:57:18.890625000,-35.0,2.0,54.0,107.113125,41.35,0.7297984375000001,34.05
2021-07-08 18:57:18.898437500,-35.0,2.0,54.0,107.11218749999999,41.53,0.72975840625,34.05
2021-07-08 18:57:18.906250000,-35.0,2.0,54.0,107.11125,41.71,0.729718375,34.05
2021-07-08 18:57:18.914062500,-35.0,2.0,54.0,107.11031249999999,40.845,0.7296783437500001,34.05
2021-07-08 18:57:18.921875000,-35.0,2.0,54.0,107.109375,39.98,0.7296383125,34.05
2021-07-08 18:57:18.929687500,-35.0,2.0,54.0,107.1084375,38.37,0.72959828125,34.05
2021-07-08 18:57:18.937500000,-35.0,2.0,54.0,107.10749999999999,36.76,0.7295582500000001,34.05
2021-07-08 18:57:18.945312500,-35.0,2.0,54.0,107.1065625,34.815,0.72951821875,34.05
2021-07-08 18:57:18.953125000,-35.0,2.0,54.0,107.10562499999999,32.87,0.7294781875,34.05
2021-07-08 18:57:18.960937500,-35.0,2.0,54.0,107.1046875,31.0,0.7294381562500001,34.05
2021-07-08 18:57:18.968750000,-35.0,2.0,54.0,107.10374999999999,29.13,0.729398125,34.05
2021-07-08 18:57:18.976562500,-35.0,2.0,54.0,107.1028125,27.615000000000002,0.72935809375,34.05
2021-07-08 18:57:18.984375000,-35.0,2.0,54.0,107.10187499999999,26.1,0.7293180625000001,34.05
2021-07-08 18:57:18.992187500,-35.0,2.0,54.0,107.1009375,24.995,0.72927803125,34.05
2021-07-08 18:57:19.000000000,-35.0,2.0,54.0,107.1,23.89,0.729238,34.05
2021-07-08 18:57:19.007812500,-34.75,2.0,54.0,107.098984375,23.009999999999998,0.7290778750000001,34.049375
2021-07-08 18:57:19.015625000,-34.5,2.0,54.0,107.09796874999999,22.13,0.72891775,34.04875
2021-07-08 18:57:19.023437500,-34.25,2.0,54.0,107.096953125,21.16,0.7287576250000001,34.048125
2021-07-08 18:57:19.031250000,-34.0,2.0,54.0,107.09593749999999,20.19,0.7285975,34.0475
2021-07-08 18:57:19.039062500,-34.25,2.0,54.0,107.094921875,18.86,0.728437375,34.046875
2021-07-08 18:57:19.046875000,-34.5,2.0,54.0,107.09390624999999,17.53,0.7282772500000001,34.04625
2021-07-08 18:57:19.054687500,-34.75,2.0,54.0,107.092890625,15.73,0.728117125,34.045625
2021-07-08 18:57:19.062500000,-35.0,2.0,54.0,107.09187499999999,13.93,0.7279570000000001,34.045
2021-07-08 18:57:19.070312500,-34.75,2.0,54.0,107.090859375,11.774999999999999,0.727796875,34.044374999999995
2021-07-08 18:57:19.078125000,-34.5,2.0,54.0,107.08984375,9.62,0.72763675,34.043749999999996
2021-07-08 18:57:19.085937500,-34.25,2.0,54.0,107.08882812499999,7.33,0.7274766250000001,34.043124999999996
2021-07-08 18:57:19.093750000,-34.0,2.0,54.0,107.0878125,5.04,0.7273165,34.0425
2021-07-08 18:57:19.101562500,-34.25,2.0,54.0,107.08679687499999,2.845,0.7271563750000001,34.041875
2021-07-08 18:57:19.109375000,-34.5,2.0,54.0,107.08578125,0.65,0.72699625,34.04125
2021-07-08 18:57:19.117187500,-34.75,2.0,54.0,107.08476562499999,-1.3650000000000002,0.726836125,34.040625
2021-07-08 18:57:19.125000000,-35.0,2.0,54.0,107.08375,-3.38,0.7266760000000001,34.04
2021-07-08 18:57:19.132812500,-35.0,2.0,54.0,107.082734375,-5.29,0.726515875,34.039375
2021-07-08 18:57:19.140625000,-35.0,2.0,54.0,107.08171875,-7.2,0.7263557500000001,34.03875
2021-07-08 18:57:19.148437500,-35.0,2.0,54.0,107.080703125,-9.23,0.726195625,34.038125
2021-07-08 18:57:19.156250000,-35.0,2.0,54.0,107.07968749999999,-11.26,0.7260355000000001,34.0375
2021-07-08 18:57:19.164062500,-34.75,2.0,54.0,107.078671875,-13.71,0.725875375,34.036875
2021-07-08 18:57:19.171875000,-34.5,2.0,54.0,107.07765624999999,-16.16,0.72571525,34.03625
2021-07-08 18:57:19.179687500,-34.25,2.0,54.0,107.076640625,-19.29,0.7255551250000001,34.035625
2021-07-08 18:57:19.187500000,-34.0,2.0,54.0,107.075625,-22.42,0.725395,34.035
2021-07-08 18:57:19.195312500,-34.25,2.0,54.0,107.074609375,-26.345,0.7252348750000001,34.034375
2021-07-08 18:57:19.203125000,-34.5,2.0,54.0,107.07359375,-30.27,0.72507475,34.03375
2021-07-08 18:57:19.210937500,-34.75,2.0,54.0,107.07257812499999,-34.88,0.724914625,34.033125
2021-07-08 18:57:19.218750000,-35.0,2.0,54.0,107.0715625,-39.49,0.7247545000000001,34.0325
2021-07-08 18:57:19.226562500,-35.0,2.0,54.0,107.07054687499999,-44.394999999999996,0.724594375,34.031875
2021-07-08 18:57:19.234375000,-35.0,2.0,54.0,107.06953125,-49.3,0.7244342500000001,34.03125
2021-07-08 18:57:19.242187500,-35.0,2.0,54.0,107.06851562499999,-53.849999999999994,0.724274125,34.030625
2021-07-08 18:57:19.250000000,-35.0,2.0,54.0,107.0675,-58.4,0.724114,34.03
2021-07-08 18:57:19.257812500,-34.75,2.0,54.0,107.066484375,-61.8,0.7241940625000001,34.03
2021-07-08 18:57:19.265625000,-34.5,2.0,54.0,107.06546875,-65.2,0.724274125,34.03
2021-07-08 18:57:19.273437500,-34.25,2.0,54.0,107.064453125,-66.69,0.7243541875,34.03
2021-07-08 18:57:19.281250000,-34.0,2.0,54.0,107.06343749999999,-68.18,0.7244342500000001,34.03
2021-07-08 18:57:19.289062500,-34.0,2.0,54.0,107.062421875,-67.255,0.7245143125,34.03
2021-07-08 18:57:19.296875000,-34.0,2.0,54.0,107.06140624999999,-66.33,0.724594375,34.03
2021-07-08 18:57:19.304687500,-34.0,2.0,54.0,107.060390625,-62.905,0.7246744375,34.03
2021-07-08 18:57:19.312500000,-34.0,2.0,54.0,107.05937499999999,-59.48,0.7247545,34.03
2021-07-08 18:57:19.320312500,-34.0,2.0,54.0,107.058359375,-53.92,0.7248345625,34.03
2021-07-08 18:57:19.328125000,-34.0,2.0,54.0,107.05734375,-48.36,0.724914625,34.03
2021-07-08 18:57:19.335937500,-34.0,2.0,54.0,107.056328125,-41.335,0.7249946875000001,34.03
2021-07-08 18:57:19.343750000,-34.0,2.0,54.0,107.0553125,-34.31,0.72507475,34.03
2021-07-08 18:57:19.351562500,-34.25,2.0,54.0,107.05429687499999,-26.625,0.7251548125,34.03
2021-07-08 18:57:19.359375000,-34.5,2.0,54.0,107.05328125,-18.94,0.7252348750000001,34.03
2021-07-08 18:57:19.367187500,-34.75,2.0,54.0,107.05226562499999,-11.330000000000002,0.7253149375,34.03
2021-07-08 18:57:19.375000000,-35.0,2.0,54.0,107.05125,-3.72,0.725395,34.03
2021-07-08 18:57:19.382812500,-35.0,2.0,54.0,107.050234375,3.2849999999999997,0.7254750625,34.03
2021-07-08 18:57:19.390625000,-35.0,2.0,54.0,107.04921875,10.29,0.725555125,34.03
2021-07-08 18:57:19.398437500,-35.0,2.0,54.0,107.048203125,16.369999999999997,0.7256351875,34.03
2021-07-08 18:57:19.406250000,-35.0,2.0,54.0,107.04718749999999,22.45,0.72571525,34.03
2021-07-08 18:57:19.414062500,-34.75,2.0,54.0,107.046171875,27.455,0.7257953125,34.03
2021-07-08 18:57:19.421875000,-34.5,2.0,54.0,107.04515624999999,32.46,0.725875375,34.03
2021-07-08 18:57:19.429687500,-34.25,2.0,54.0,107.044140625,36.275000000000006,0.7259554375,34.03
2021-07-08 18:57:19.437500000,-34.0,2.0,54.0,107.043125,40.09,0.7260355000000001,34.03
2021-07-08 18:57:19.445312500,-34.25,2.0,54.0,107.042109375,42.650000000000006,0.7261155625,34.03
2021-07-08 18:57:19.453125000,-34.5,2.0,54.0,107.04109375,45.21,0.726195625,34.03
2021-07-08 18:57:19.460937500,-34.75,2.0,54.0,107.040078125,46.455,0.7262756875,34.03
2021-07-08 18:57:19.468750000,-35.0,2.0,54.0,107.0390625,47.7,0.72635575,34.03
2021-07-08 18:57:19.476562500,-35.0,2.0,54.0,107.03804687499999,47.67,0.7264358125,34.03
2021-07-08 18:57:19.484375000,-35.0,2.0,54.0,107.03703125,47.64,0.726515875,34.03
2021-07-08 18:57:19.492187500,-35.0,2.0,54.0,107.03601562499999,46.515,0.7265959375,34.03
2021-07-08 18:57:19.500000000,-35.0,2.0,54.0,107.035,45.39,0.726676,34.03
2021-07-08 18:57:19.507812500,-34.75,2.0,54.0,107.033984375,43.519999999999996,0.72663596875,34.03
2021-07-08 18:57:19.515625000,-34.5,2.0,54.0,107.03296875,41.65,0.7265959375,34.03
2021-07-08 18:57:19.523437500,-34.25,2.0,54.0,107.031953125,39.480000000000004,0.72655590625,34.03
2021-07-08 18:57:19.531250000,-34.0,2.0,54.0,107.0309375,37.31,0.726515875,34.03
2021-07-08 18:57:19.539062500,-34.0,2.0,54.0,107.029921875,35.290000000000006,0.72647584375,34.03
2021-07-08 18:57:19.546875000,-34.0,2.0,54.0,107.02890624999999,33.27,0.7264358125,34.03
2021-07-08 18:57:19.554687500,-34.0,2.0,54.0,107.027890625,31.675,0.72639578125,34.03
2021-07-08 18:57:19.562500000,-34.0,2.0,54.0,107.02687499999999,30.08,0.72635575,34.03
2021-07-08 18:57:19.570312500,-34.25,2.0,54.0,107.025859375,28.945,0.72631571875,34.03
2021-07-08 18:57:19.578125000,-34.5,2.0,54.0,107.02484375,27.81,0.7262756875,34.03
2021-07-08 18:57:19.585937500,-34.75,2.0,54.0,107.023828125,26.895,0.72623565625,34.03
2021-07-08 18:57:19.593750000,-35.0,2.0,54.0,107.0228125,25.98,0.726195625,34.03
2021-07-08 18:57:19.601562500,-34.75,2.0,54.0,107.02179687499999,24.93,0.72615559375,34.03
2021-07-08 18:57:19.609375000,-34.5,2.0,54.0,107.02078125,23.88,0.7261155625,34.03
2021-07-08 18:57:19.617187500,-34.25,2.0,54.0,107.01976562499999,22.38,0.72607553125,34.03
2021-07-08 18:57:19.625000000,-34.0,2.0,54.0,107.01875,20.88,0.7260355000000001,34.03
2021-07-08 18:57:19.632812500,-34.0,2.0,54.0,107.017734375,18.84,0.72599546875,34.03
2021-07-08 18:57:19.640625000,-34.0,2.0,54.0,107.01671875,16.8,0.7259554375,34.03
2021-07-08 18:57:19.648437500,-34.0,2.0,54.0,107.015703125,14.415,0.72591540625,34.03
2021-07-08 18:57:19.656250000,-34.0,2.0,54.0,107.0146875,12.03,0.725875375,34.03
2021-07-08 18:57:19.664062500,-34.0,2.0,54.0,107.013671875,9.629999999999999,0.72583534375,34.03
2021-07-08 18:57:19.671875000,-34.0,2.0,54.0,107.01265624999999,7.23,0.7257953125,34.03
2021-07-08 18:57:19.679687500,-34.0,2.0,54.0,107.011640625,5.1000000000000005,0.72575528125,34.03
2021-07-08 18:57:19.687500000,-34.0,2.0,54.0,107.010625,2.97,0.72571525,34.03
2021-07-08 18:57:19.695312500,-34.25,2.0,54.0,107.009609375,1.1800000000000002,0.72567521875,34.03
2021-07-08 18:57:19.703125000,-34.5,2.0,54.0,107.00859375,-0.61,0.7256351875,34.03
2021-07-08 18:57:19.710937500,-34.75,2.0,54.0,107.007578125,-2.2600000000000002,0.72559515625,34.03
2021-07-08 18:57:19.718750000,-35.0,2.0,54.0,107.0065625,-3.91,0.725555125,34.03
2021-07-08 18:57:19.726562500,-35.0,2.0,54.0,107.005546875,-5.825,0.72551509375,34.03
2021-07-08 18:57:19.734375000,-35.0,2.0,54.0,107.00453125,-7.74,0.7254750625,34.03
2021-07-08 18:57:19.742187500,-35.0,2.0,54.0,107.00351562499999,-10.355,0.72543503125,34.03
2021-07-08 18:57:19.750000000,-35.0,2.0,54.0,107.0025,-12.97,0.725395,34.03
2021-07-08 18:57:19.757812500,-34.75,2.0,54.0,107.001484375,-16.56,0.72543503125,34.03
2021-07-08 18:57:19.765625000,-34.5,2.0,54.0,107.00046875,-20.15,0.7254750625,34.03
2021-07-08 18:57:19.773437500,-34.25,2.0,54.0,106.999453125,-24.735,0.72551509375,34.03
2021-07-08 18:57:19.781250000,-34.0,2.0,54.0,106.9984375,-29.32,0.725555125,34.03
2021-07-08 18:57:19.789062500,-34.25,2.0,54.0,106.997421875,-34.65,0.72559515625,34.03
2021-07-08 18:57:19.796875000,-34.5,2.0,54.0,106.99640624999999,-39.98,0.7256351875,34.03
2021-07-08 18:57:19.804687500,-34.75,2.0,54.0,106.995390625,-45.525,0.72567521875,34.03
2021-07-08 18:57:19.812500000,-35.0,2.0,54.0,106.99437499999999,-51.07,0.72571525,34.03
2021-07-08 18:57:19.820312500,-35.0,2.0,54.0,106.993359375,-56.11,0.72575528125,34.03
2021-07-08 18:57:19.828125000,-35.0,2.0,54.0,106.99234375,-61.15,0.7257953125,34.03
2021-07-08 18:57:19.835937500,-35.0,2.0,54.0,106.991328125,-64.865,0.72583534375,34.03
2021-07-08 18:57:19.843750000,-35.0,2.0,54.0,106.9903125,-68.58,0.725875375,34.03
2021-07-08 18:57:19.851562500,-34.75,2.0,54.0,106.989296875,-70.195,0.72591540625,34.03
2021-07-08 18:57:19.859375000,-34.5,2.0,54.0,106.98828125,-71.81,0.7259554375,34.03
2021-07-08 18:57:19.867187500,-34.25,2.0,54.0,106.98726562499999,-70.755,0.72599546875,34.03
2021-07-08 18:57:19.875000000,-34.0,2.0,54.0,106.98625,-69.7,0.7260355000000001,34.03
2021-07-08 18:57:19.882812500,-34.25,2.0,54.0,106.985234375,-65.78,0.72607553125,34.03
2021-07-08 18:57:19.890625000,-34.5,2.0,54.0,106.98421875,-61.86,0.7261155625,34.03
2021-07-08 18:57:19.898437500,-34.75,2.0,54.0,106.983203125,-55.355000000000004,0.72615559375,34.03
2021-07-08 18:57:19.906250000,-35.0,2.0,54.0,106.9821875,-48.85,0.726195625,34.03
2021-07-08 18:57:19.914062500,-34.75,2.0,54.0,106.981171875,-40.480000000000004,0.72623565625,34.03
2021-07-08 18:57:19.921875000,-34.5,2.0,54.0,106.98015625,-32.11,0.7262756875,34.03
2021-07-08 18:57:19.929687500,-34.25,2.0,54.0,106.979140625,-22.86,0.72631571875,34.03
2021-07-08 18:57:19.937500000,-34.0,2.0,54.0,106.978125,-13.61,0.72635575,34.03
2021-07-08 18:57:19.945312500,-34.25,2.0,54.0,106.977109375,-4.48,0.72639578125,34.03
2021-07-08 18:57:19.953125000,-34.5,2.0,54.0,106.97609375,4.65,0.7264358125,34.03
2021-07-08 18:57:19.960937500,-34.75,2.0,54.0,106.975078125,12.875000000000002,0.72647584375,34.03
2021-07-08 18:57:19.968750000,-35.0,2.0,54.0,106.9740625,21.1,0.726515875,34.03
2021-07-08 18:57:19.976562500,-34.75,2.0,54.0,106.973046875,27.955000000000002,0.72655590625,34.03
2021-07-08 18:57:19.984375000,-34.5,2.0,54.0,106.97203125,34.81,0.7265959375,34.03
2021-07-08 18:57:19.992187500,-34.25,2.0,54.0,106.97101562499999,40.150000000000006,0.72663596875,34.03
2021-07-08 18:57:20.000000000,-34.0,2.0,54.0,106.97,45.49,0.726676,34.03
2021-07-08 18:57:20.007812500,-34.0,2.0,54.0,106.96906249999999,49.355000000000004,0.72663596875,34.0290625
2021-07-08 18:57:20.015625000,-34.0,2.0,54.0,106.968125,53.22,0.7265959375,34.028125
2021-07-08 18:57:20.023437500,-34.0,2.0,54.0,106.9671875,55.730000000000004,0.72655590625,34.027187500000004
2021-07-08 18:57:20.031250000,-34.0,2.0,54.0,106.96625,58.24,0.726515875,34.026250000000005
2021-07-08 18:57:20.039062500,-34.25,2.0,54.0,106.9653125,59.5,0.72647584375,34.0253125
2021-07-08 18:57:20.046875000,-34.5,2.0,54.0,106.964375,60.76,0.7264358125,34.024375
2021-07-08 18:57:20.054687500,-34.75,2.0,54.0,106.9634375,60.879999999999995,0.72639578125,34.0234375
2021-07-08 18:57:20.062500000,-35.0,2.0,54.0,106.9625,61.0,0.72635575,34.0225
2021-07-08 18:57:20.070312500,-34.75,2.0,54.0,106.9615625,60.135000000000005,0.72631571875,34.0215625
2021-07-08 18:57:20.078125000,-34.5,2.0,54.0,106.960625,59.27,0.7262756875,34.020625
2021-07-08 18:57:20.085937500,-34.25,2.0,54.0,106.9596875,57.69,0.72623565625,34.0196875
2021-07-08 18:57:20.093750000,-34.0,2.0,54.0,106.95875,56.11,0.726195625,34.01875
2021-07-08 18:57:20.101562500,-34.0,2.0,54.0,106.9578125,54.18,0.72615559375,34.0178125
2021-07-08 18:57:20.109375000,-34.0,2.0,54.0,106.956875,52.25,0.7261155625,34.016875
2021-07-08 18:57:20.117187500,-34.0,2.0,54.0,106.9559375,50.34,0.72607553125,34.0159375
2021-07-08 18:57:20.125000000,-34.0,2.0,54.0,106.955,48.43,0.7260355000000001,34.015
2021-07-08 18:57:20.132812500,-34.0,2.0,54.0,106.95406249999999,46.78,0.72599546875,34.0140625
2021-07-08 18:57:20.140625000,-34.0,2.0,54.0,106.953125,45.13,0.7259554375,34.013125
2021-07-08 18:57:20.148437500,-34.0,2.0,54.0,106.9521875,43.785,0.72591540625,34.0121875
