TimeStamp,empatica.acc.x,empatica.acc.y,empatica.acc.z,empatica.hr,empatica.bvp,empatica.eda,empatica.temp
2021-07-08 18:56:25.195312500,-35.0,2.0,54.0,88.26953125,33.269999999999996,0.87243178125,34.0234375
2021-07-08 18:56:25.203125000,-35.0,2.0,54.0,88.2703125,34.49,0.8724718125,34.024375
2021-07-08 18:56:25.210937500,-35.0,2.0,54.0,88.27109375,34.95,0.87251184375,34.0253125
2021-07-08 18:56:25.218750000,-35.0,2.0,54.0,88.271875,35.41,0.8725518750000001,34.026250000000005
2021-07-08 18:56:25.226562500,-35.25,2.0,54.0,88.27265625,35.175,0.87259190625,34.027187500000004
2021-07-08 18:56:25.234375000,-35.5,2.0,54.0,88.2734375,34.94,0.8726319375,34.028125
2021-07-08 18:56:25.242187500,-35.75,2.0,54.0,88.27421875,34.19,0.8726719687500001,34.0290625
2021-07-08 18:56:25.250000000,-36.0,2.0,54.0,88.275,33.44,0.872712,34.03
2021-07-08 18:56:25.257812500,-35.75,2.0,54.0,88.27578125,32.42,0.872712,34.03
2021-07-08 18:56:25.265625000,-35.5,2.0,54.0,88.2765625,31.4,0.872712,34.03
2021-07-08 18:56:25.273437500,-35.25,2.0,54.0,88.27734375,30.38,0.872712,34.03
2021-07-08 18:56:25.281250000,-35.0,2.0,54.0,88.278125,29.36,0.872712,34.03
2021-07-08 18:56:25.289062500,-35.0,2.0,54.0,88.27890624999999,28.54,0.872712,34.03
2021-07-08 18:56:25.296875000,-35.0,2.0,54.0,88.2796875,27.72,0.872712,34.03
2021-07-08 18:56:25.304687500,-35.0,2.0,54.0,88.28046875,27.195,0.872712,34.03
2021-07-08 18:56:25.312500000,-35.0,2.0,54.0,88.28125,26.67,0.872712,34.03
2021-07-08 18:56:25.320312500,-35.0,2.0,54.0,88.28203125,26.405,0.872712,34.03
2021-07-08 18:56:25.328125000,-35.0,2.0,54.0,88.28281249999999,26.14,0.872712,34.03
2021-07-08 18:56:25.335937500,-35.0,2.0,54.0,88.28359375,25.985,0.872712,34.03
2021-07-08 18:56:25.343750000,-35.0,2.0,54.0,88.284375,25.83,0.872712,34.03
2021-07-08 18:56:25.351562500,-35.0,2.0,53.75,88.28515625,25.61,0.872712,34.03
2021-07-08 18:56:25.359375000,-35.0,2.0,53.5,88.2859375,25.39,0.872712,34.03
2021-07-08 18:56:25.367187500,-35.0,2.0,53.25,88.28671874999999,24.945,0.872712,34.03
2021-07-08 18:56:25.375000000,-35.0,2.0,53.0,88.2875,24.5,0.872712,34.03
2021-07-08 18:56:25.382812500,-35.0,2.0,53.25,88.28828125,23.735,0.872712,34.03
2021-07-08 18:56:25.390625000,-35.0,2.0,53.5,88.2890625,22.97,0.872712,34.03
2021-07-08 18:56:25.398437500,-35.0,2.0,53.75,88.28984375,21.9,0.872712,34.03
2021-07-08 18:56:25.406250000,-35.0,2.0,54.0,88.29062499999999,20.83,0.872712,34.03
2021-07-08 18:56:25.414062500,-35.0,2.0,54.0,88.29140625,19.555,0.872712,34.03
2021-07-08 18:56:25.421875000,-35.0,2.0,54.0,88.2921875,18.28,0.872712,34.03
2021-07-08 18:56:25.429687500,-35.0,2.0,54.0,88.29296875,16.95,0.872712,34.03
2021-07-08 18:56:25.437500000,-35.0,2.0,54.0,88.29375,15.62,0.872712,34.03
2021-07-08 18:56:25.445312500,-35.0,2.0,54.0,88.29453124999999,14.36,0.872712,34.03
2021-07-08 18:56:25.453125000,-35.0,2.0,54.0,88.2953125,13.1,0.872712,34.03
2021-07-08 18:56:25.460937500,-35.0,2.0,54.0,88.29609375,11.91,0.872712,34.03
2021-07-08 18:56:25.468750000,-35.0,2.0,54.0,88.296875,10.72,0.872712,34.03
2021-07-08 18:56:25.476562500,-35.0,2.0,54.0,88.29765625,9.475000000000001,0.872712,34.03
2021-07-08 18:56:25.484375000,-35.0,2.0,54.0,88.29843749999999,8.23,0.872712,34.03
2021-07-08 18:56:25.492187500,-35.0,2.0,54.0,88.29921875,6.725,0.872712,34.03
2021-07-08 18:56:25.500000000,-35.0,2.0,54.0,88.3,5.22,0.872712,34.03
2021-07-08 18:56:25.507812500,-35.0,2.0,53.75,88.30078125,3.2399999999999998,0.87319240625,34.03
2021-07-08 18:56:25.515625000,-35.0,2.0,53.5,88.3015625,1.26,0.8736728125000001,34.03
2021-07-08 18:56:25.523437500,-35.0,2.0,53.25,88.30234374999999,-1.32,0.8741532187500001,34.03
2021-07-08 18:56:25.531250000,-35.0,2.0,53.0,88.303125,-3.9,0.8746336250000001,34.03
2021-07-08 18:56:25.539062500,-35.25,2.0,53.0,88.30390625,-7.049999999999999,0.8751140312500001,34.03
2021-07-08 18:56:25.546875000,-35.5,2.0,53.0,88.3046875,-10.2,0.8755944375,34.03
2021-07-08 18:56:25.554687500,-35.75,2.0,53.0,88.30546875,-13.775,0.87607484375,34.03
2021-07-08 18:56:25.562500000,-36.0,2.0,53.0,88.30624999999999,-17.35,0.87655525,34.03
2021-07-08 18:56:25.570312500,-35.75,2.0,53.25,88.30703125,-21.060000000000002,0.87703565625,34.03
2021-07-08 18:56:25.578125000,-35.5,2.0,53.5,88.3078125,-24.77,0.8775160625,34.03
2021-07-08 18:56:25.585937500,-35.25,2.0,53.75,88.30859375,-28.259999999999998,0.87799646875,34.03
2021-07-08 18:56:25.593750000,-35.0,2.0,54.0,88.309375,-31.75,0.878476875,34.03
2021-07-08 18:56:25.601562500,-35.0,2.0,54.0,88.31015624999999,-34.575,0.87895728125,34.03
2021-07-08 18:56:25.609375000,-35.0,2.0,54.0,88.3109375,-37.4,0.8794376875000001,34.03
2021-07-08 18:56:25.617187500,-35.0,2.0,54.0,88.31171875,-39.120000000000005,0.8799180937500001,34.03
2021-07-08 18:56:25.625000000,-35.0,2.0,54.0,88.3125,-40.84,0.8803985000000001,34.03
2021-07-08 18:56:25.632812500,-35.0,2.0,54.0,88.31328125,-41.08,0.88087890625,34.03
2021-07-08 18:56:25.640625000,-35.0,2.0,54.0,88.31406249999999,-41.32,0.8813593125,34.03
2021-07-08 18:56:25.648437500,-35.0,2.0,54.0,88.31484375,-39.885000000000005,0.88183971875,34.03
2021-07-08 18:56:25.656250000,-35.0,2.0,54.0,88.315625,-38.45,0.882320125,34.03
2021-07-08 18:56:25.664062500,-35.0,2.0,53.75,88.31640625,-35.42,0.88280053125,34.03
2021-07-08 18:56:25.671875000,-35.0,2.0,53.5,88.3171875,-32.39,0.8832809375,34.03
2021-07-08 18:56:25.679687500,-35.0,2.0,53.25,88.31796874999999,-28.125,0.88376134375,34.03
2021-07-08 18:56:25.687500000,-35.0,2.0,53.0,88.31875,-23.86,0.88424175,34.03
2021-07-08 18:56:25.695312500,-35.0,2.0,53.25,88.31953125,-18.93,0.8847221562500001,34.03
2021-07-08 18:56:25.703125000,-35.0,2.0,53.5,88.3203125,-14.0,0.8852025625000001,34.03
2021-07-08 18:56:25.710937500,-35.0,2.0,53.75,88.32109375,-9.02,0.88568296875,34.03
2021-07-08 18:56:25.718750000,-35.0,2.0,54.0,88.32187499999999,-4.04,0.886163375,34.03
2021-07-08 18:56:25.726562500,-35.0,2.0,53.75,88.32265625,0.4850000000000003,0.88664378125,34.03
2021-07-08 18:56:25.734375000,-35.0,2.0,53.5,88.3234375,5.01,0.8871241875,34.03
2021-07-08 18:56:25.742187500,-35.0,2.0,53.25,88.32421875,8.774999999999999,0.88760459375,34.03
2021-07-08 18:56:25.750000000,-35.0,2.0,53.0,88.32499999999999,12.54,0.888085,34.03
2021-07-08 18:56:25.757812500,-35.25,2.0,53.0,88.32578124999999,15.434999999999999,0.8887255000000001,34.03
2021-07-08 18:56:25.765625000,-35.5,2.0,53.0,88.3265625,18.33,0.889366,34.03
2021-07-08 18:56:25.773437500,-35.75,2.0,53.0,88.32734375,20.369999999999997,0.8900065,34.03
2021-07-08 18:56:25.781250000,-36.0,2.0,53.0,88.328125,22.41,0.890647,34.03
2021-07-08 18:56:25.789062500,-35.75,2.0,53.25,88.32890624999999,23.66,0.8912875,34.03
2021-07-08 18:56:25.796875000,-35.5,2.0,53.5,88.32968749999999,24.91,0.891928,34.03
2021-07-08 18:56:25.804687500,-35.25,2.0,53.75,88.33046875,25.439999999999998,0.8925685,34.03
2021-07-08 18:56:25.812500000,-35.0,2.0,54.0,88.33125,25.97,0.893209,34.03
2021-07-08 18:56:25.820312500,-35.0,2.0,54.0,88.33203125,25.82,0.8938495,34.03
2021-07-08 18:56:25.828125000,-35.0,2.0,54.0,88.33281249999999,25.67,0.89449,34.03
2021-07-08 18:56:25.835937500,-35.0,2.0,54.0,88.33359374999999,24.925,0.8951305,34.03
2021-07-08 18:56:25.843750000,-35.0,2.0,54.0,88.334375,24.18,0.895771,34.03
2021-07-08 18:56:25.851562500,-35.0,2.0,54.0,88.33515625,22.97,0.8964115,34.03
2021-07-08 18:56:25.859375000,-35.0,2.0,54.0,88.3359375,21.76,0.897052,34.03
2021-07-08 18:56:25.867187500,-35.0,2.0,54.0,88.33671874999999,20.275,0.8976925,34.03
2021-07-08 18:56:25.875000000,-35.0,2.0,54.0,88.33749999999999,18.79,0.898333,34.03
2021-07-08 18:56:25.882812500,-35.25,2.0,53.75,88.33828125,17.265,0.8989735,34.03
2021-07-08 18:56:25.890625000,-35.5,2.0,53.5,88.3390625,15.74,0.899614,34.03
2021-07-08 18:56:25.898437500,-35.75,2.0,53.25,88.33984375,14.350000000000001,0.9002545,34.03
2021-07-08 18:56:25.906250000,-36.0,2.0,53.0,88.34062499999999,12.96,0.900895,34.03
2021-07-08 18:56:25.914062500,-36.0,2.0,53.0,88.34140624999999,11.79,0.9015354999999999,34.03
2021-07-08 18:56:25.921875000,-36.0,2.0,53.0,88.3421875,10.62,0.902176,34.03
2021-07-08 18:56:25.929687500,-36.0,2.0,53.0,88.34296875,9.649999999999999,0.9028165,34.03
2021-07-08 18:56:25.937500000,-36.0,2.0,53.0,88.34375,8.68,0.903457,34.03
2021-07-08 18:56:25.945312500,-35.75,2.0,53.0,88.34453124999999,7.79,0.9040975,34.03
2021-07-08 18:56:25.953125000,-35.5,2.0,53.0,88.34531249999999,6.9,0.9047379999999999,34.03
2021-07-08 18:56:25.960937500,-35.25,2.0,53.0,88.34609375,5.965,0.9053785,34.03
2021-07-08 18:56:25.968750000,-35.0,2.0,53.0,88.346875,5.03,0.906019,34.03
2021-07-08 18:56:25.976562500,-35.25,2.0,53.0,88.34765625,3.92,0.9066595,34.03
2021-07-08 18:56:25.984375000,-35.5,2.0,53.0,88.34843749999999,2.81,0.9073,34.03
2021-07-08 18:56:25.992187500,-35.75,2.0,53.0,88.34921874999999,1.525,0.9079404999999999,34.03
2021-07-08 18:56:26.000000000,-36.0,2.0,53.0,88.35,0.24,0.908581,34.03
2021-07-08 18:56:26.007812500,-35.75,2.0,53.25,88.350625,-1.1500000000000001,0.90970190625,34.0290625
2021-07-08 18:56:26.015625000,-35.5,2.0,53.5,88.35125,-2.54,0.9108228125,34.028125
2021-07-08 18:56:26.023437500,-35.25,2.0,53.75,88.35187499999999,-3.915,0.91194371875,34.027187500000004
2021-07-08 18:56:26.031250000,-35.0,2.0,54.0,88.35249999999999,-5.29,0.913064625,34.026250000000005
2021-07-08 18:56:26.039062500,-35.0,2.0,54.0,88.35312499999999,-6.55,0.91418553125,34.0253125
2021-07-08 18:56:26.046875000,-35.0,2.0,54.0,88.35374999999999,-7.81,0.9153064375,34.024375
2021-07-08 18:56:26.054687500,-35.0,2.0,54.0,88.35437499999999,-8.95,0.91642734375,34.0234375
2021-07-08 18:56:26.062500000,-35.0,2.0,54.0,88.35499999999999,-10.09,0.91754825,34.0225
2021-07-08 18:56:26.070312500,-35.25,2.0,53.75,88.35562499999999,-11.225,0.91866915625,34.0215625
2021-07-08 18:56:26.078125000,-35.5,2.0,53.5,88.35624999999999,-12.36,0.9197900625,34.020625
2021-07-08 18:56:26.085937500,-35.75,2.0,53.25,88.356875,-13.695,0.92091096875,34.0196875
2021-07-08 18:56:26.093750000,-36.0,2.0,53.0,88.3575,-15.03,0.922031875,34.01875
2021-07-08 18:56:26.101562500,-36.0,2.0,53.0,88.358125,-16.785,0.92315278125,34.0178125
2021-07-08 18:56:26.109375000,-36.0,2.0,53.0,88.35875,-18.54,0.9242736874999999,34.016875
2021-07-08 18:56:26.117187500,-36.0,2.0,53.0,88.359375,-20.869999999999997,0.92539459375,34.0159375
2021-07-08 18:56:26.125000000,-36.0,2.0,53.0,88.36,-23.2,0.9265155,34.015
2021-07-08 18:56:26.132812500,-36.0,2.0,53.0,88.360625,-26.11,0.92763640625,34.0140625
2021-07-08 18:56:26.140625000,-36.0,2.0,53.0,88.36125,-29.02,0.9287573125,34.013125
2021-07-08 18:56:26.148437500,-36.0,2.0,53.0,88.361875,-32.335,0.92987821875,34.0121875
2021-07-08 18:56:26.156250000,-36.0,2.0,53.0,88.3625,-35.65,0.930999125,34.011250000000004
2021-07-08 18:56:26.164062500,-36.0,2.0,53.0,88.363125,-38.974999999999994,0.93212003125,34.0103125
2021-07-08 18:56:26.171875000,-36.0,2.0,53.0,88.36375,-42.3,0.9332409375,34.009375
2021-07-08 18:56:26.179687500,-36.0,2.0,53.0,88.364375,-45.114999999999995,0.93436184375,34.0084375
2021-07-08 18:56:26.187500000,-36.0,2.0,53.0,88.365,-47.93,0.93548275,34.0075
2021-07-08 18:56:26.195312500,-36.0,2.0,53.0,88.365625,-49.67,0.93660365625,34.0065625
2021-07-08 18:56:26.203125000,-36.0,2.0,53.0,88.36625,-51.41,0.9377245625,34.005625
2021-07-08 18:56:26.210937500,-36.0,2.0,53.0,88.366875,-51.614999999999995,0.93884546875,34.0046875
2021-07-08 18:56:26.218750000,-36.0,2.0,53.0,88.36749999999999,-51.82,0.939966375,34.00375
2021-07-08 18:56:26.226562500,-36.0,2.0,53.0,88.36812499999999,-50.265,0.94108728125,34.0028125
2021-07-08 18:56:26.234375000,-36.0,2.0,53.0,88.36874999999999,-48.71,0.9422081875,34.001875
2021-07-08 18:56:26.242187500,-36.0,2.0,53.0,88.36937499999999,-45.504999999999995,0.9433290937500001,34.0009375
2021-07-08 18:56:26.250000000,-36.0,2.0,53.0,88.37,-42.3,0.94445,34.0
2021-07-08 18:56:26.257812500,-36.0,2.0,53.0,88.370625,-37.855,0.9451705625,34.0
2021-07-08 18:56:26.265625000,-36.0,2.0,53.0,88.37125,-33.41,0.945891125,34.0
2021-07-08 18:56:26.273437500,-36.0,2.0,53.0,88.371875,-28.335,0.9466116875,34.0
2021-07-08 18:56:26.281250000,-36.0,2.0,53.0,88.3725,-23.26,0.94733225,34.0
2021-07-08 18:56:26.289062500,-36.0,2.0,53.0,88.373125,-18.205000000000002,0.9480528125000001,34.0
2021-07-08 18:56:26.296875000,-36.0,2.0,53.0,88.37375,-13.15,0.948773375,34.0
2021-07-08 18:56:26.304687500,-36.0,2.0,53.0,88.374375,-8.61,0.9494939375,34.0
2021-07-08 18:56:26.312500000,-36.0,2.0,53.0,88.375,-4.07,0.9502145,34.0
2021-07-08 18:56:26.320312500,-36.0,2.0,53.0,88.375625,-0.2999999999999998,0.9509350625,34.0
2021-07-08 18:56:26.328125000,-36.0,2.0,53.0,88.37625,3.47,0.951655625,34.0
2021-07-08 18:56:26.335937500,-36.0,2.0,53.0,88.376875,6.390000000000001,0.9523761875,34.0
2021-07-08 18:56:26.343750000,-36.0,2.0,53.0,88.3775,9.31,0.95309675,34.0
2021-07-08 18:56:26.351562500,-36.0,2.0,53.0,88.378125,11.41,0.9538173125,34.0
2021-07-08 18:56:26.359375000,-36.0,2.0,53.0,88.37875,13.51,0.954537875,34.0
2021-07-08 18:56:26.367187500,-36.0,2.0,53.0,88.379375,14.82,0.9552584375000001,34.0
2021-07-08 18:56:26.375000000,-36.0,2.0,53.0,88.38,16.13,0.955979,34.0
2021-07-08 18:56:26.382812500,-36.0,2.0,53.0,88.380625,16.655,0.9566995625,34.0
2021-07-08 18:56:26.390625000,-36.0,2.0,53.0,88.38125,17.18,0.9574201250000001,34.0
2021-07-08 18:56:26.398437500,-36.0,2.0,53.0,88.381875,16.990000000000002,0.9581406875,34.0
2021-07-08 18:56:26.406250000,-36.0,2.0,53.0,88.3825,16.8,0.95886125,34.0
2021-07-08 18:56:26.414062500,-36.0,2.0,53.0,88.38312499999999,16.025,0.9595818125000001,34.0
2021-07-08 18:56:26.421875000,-36.0,2.0,53.0,88.38375,15.25,0.960302375,34.0
2021-07-08 18:56:26.429687500,-36.0,2.0,53.0,88.384375,14.155000000000001,0.9610229375,34.0
2021-07-08 18:56:26.437500000,-36.0,2.0,53.0,88.385,13.06,0.9617435000000001,34.0
2021-07-08 18:56:26.445312500,-36.0,2.0,53.0,88.385625,11.915,0.9624640625,34.0
2021-07-08 18:56:26.453125000,-36.0,2.0,53.0,88.38625,10.77,0.963184625,34.0
2021-07-08 18:56:26.460937500,-36.0,2.0,53.0,88.386875,9.78,0.9639051875,34.0
2021-07-08 18:56:26.468750000,-36.0,2.0,53.0,88.3875,8.79,0.9646257500000001,34.0
2021-07-08 18:56:26.476562500,-36.0,2.0,53.0,88.388125,7.965,0.9653463125,34.0
2021-07-08 18:56:26.484375000,-36.0,2.0,53.0,88.38875,7.14,0.966066875,34.0
2021-07-08 18:56:26.492187500,-36.0,2.0,53.0,88.389375,6.365,0.9667874375000001,34.0
2021-07-08 18:56:26.500000000,-36.0,2.0,53.0,88.39,5.59,0.967508,34.0
2021-07-08 18:56:26.507812500,-36.0,2.0,53.0,88.390625,4.695,0.9680284062500001,34.0
2021-07-08 18:56:26.515625000,-36.0,2.0,53.0,88.39125,3.8,0.9685488125,34.0
2021-07-08 18:56:26.523437500,-36.0,2.0,53.0,88.391875,2.69,0.9690692187500001,34.0
2021-07-08 18:56:26.531250000,-36.0,2.0,53.0,88.3925,1.58,0.969589625,34.0
2021-07-08 18:56:26.539062500,-36.0,2.0,53.0,88.393125,0.32000000000000006,0.9701100312500001,34.0
2021-07-08 18:56:26.546875000,-36.0,2.0,53.0,88.39375,-0.94,0.9706304375,34.0
2021-07-08 18:56:26.554687500,-36.0,2.0,53.0,88.394375,-2.19,0.97115084375,34.0
2021-07-08 18:56:26.562500000,-36.0,2.0,53.0,88.395,-3.44,0.97167125,34.0
2021-07-08 18:56:26.570312500,-36.0,2.0,53.0,88.395625,-4.515,0.97219165625,34.0
2021-07-08 18:56:26.578125000,-36.0,2.0,53.0,88.39625,-5.59,0.9727120625,34.0
2021-07-08 18:56:26.585937500,-36.0,2.0,53.0,88.39687500000001,-6.43,0.97323246875,34.0
2021-07-08 18:56:26.593750000,-36.0,2.0,53.0,88.39750000000001,-7.27,0.973752875,34.0
2021-07-08 18:56:26.601562500,-36.0,2.0,53.0,88.39812500000001,-7.965,0.97427328125,34.0
2021-07-08 18:56:26.609375000,-36.0,2.0,53.0,88.39875,-8.66,0.9747936875,34.0
2021-07-08 18:56:26.617187500,-36.0,2.0,53.0,88.399375,-9.425,0.97531409375,34.0
2021-07-08 18:56:26.625000000,-36.0,2.0,53.0,88.4,-10.19,0.9758344999999999,34.0
2021-07-08 18:56:26.632812500,-36.0,2.0,53.0,88.400625,-11.265,0.97635490625,34.0
2021-07-08 18:56:26.640625000,-36.0,2.0,53.0,88.40125,-12.34,0.9768753125,34.0
2021-07-08 18:56:26.648437500,-36.0,2.0,53.0,88.401875,-13.905000000000001,0.97739571875,34.0
2021-07-08 18:56:26.656250000,-36.0,2.0,53.0,88.4025,-15.47,0.977916125,34.0
2021-07-08 18:56:26.664062500,-36.0,2.0,53.0,88.403125,-17.62,0.97843653125,34.0
2021-07-08 18:56:26.671875000,-36.0,2.0,53.0,88.40375,-19.77,0.9789569375,34.0
2021-07-08 18:56:26.679687500,-36.0,2.0,53.0,88.404375,-22.485,0.97947734375,34.0
2021-07-08 18:56:26.687500000,-36.0,2.0,53.0,88.405,-25.2,0.97999775,34.0
2021-07-08 18:56:26.695312500,-36.0,2.0,53.0,88.405625,-28.345,0.9805181562499999,34.0
2021-07-08 18:56:26.703125000,-36.0,2.0,53.0,88.40625,-31.49,0.9810385625,34.0
2021-07-08 18:56:26.710937500,-36.0,2.0,53.0,88.406875,-34.785,0.9815589687499999,34.0
2021-07-08 18:56:26.718750000,-36.0,2.0,53.0,88.4075,-38.08,0.982079375,34.0
2021-07-08 18:56:26.726562500,-36.0,2.0,53.0,88.408125,-41.099999999999994,0.9825997812499999,34.0
2021-07-08 18:56:26.734375000,-36.0,2.0,53.0,88.40875,-44.12,0.9831201875,34.0
2021-07-08 18:56:26.742187500,-36.0,2.0,53.0,88.409375,-46.334999999999994,0.9836405937499999,34.0
2021-07-08 18:56:26.750000000,-36.0,2.0,53.0,88.41,-48.55,0.984161,34.0
2021-07-08 18:56:26.757812500,-36.0,2.0,53.0,88.41062500000001,-49.459999999999994,0.98428109375,34.0
2021-07-08 18:56:26.765625000,-36.0,2.0,53.0,88.41125000000001,-50.37,0.9844011874999999,34.0
2021-07-08 18:56:26.773437500,-36.0,2.0,53.0,88.41187500000001,-49.67,0.9845212812499999,34.0
2021-07-08 18:56:26.781250000,-36.0,2.0,53.0,88.41250000000001,-48.97,0.9846413749999999,34.0
2021-07-08 18:56:26.789062500,-36.0,2.0,53.0,88.41312500000001,-46.67,0.9847614687499999,34.0
2021-07-08 18:56:26.796875000,-36.0,2.0,53.0,88.41375000000001,-44.37,0.9848815624999999,34.0
2021-07-08 18:56:26.804687500,-36.0,2.0,53.0,88.414375,-40.769999999999996,0.9850016562499999,34.0
2021-07-08 18:56:26.812500000,-36.0,2.0,53.0,88.415,-37.17,0.98512175,34.0
2021-07-08 18:56:26.820312500,-36.0,2.0,53.0,88.415625,-32.78,0.98524184375,34.0
2021-07-08 18:56:26.828125000,-36.0,2.0,53.0,88.41625,-28.39,0.9853619375,34.0
2021-07-08 18:56:26.835937500,-36.0,2.0,53.0,88.416875,-23.700000000000003,0.98548203125,34.0
2021-07-08 18:56:26.843750000,-36.0,2.0,53.0,88.4175,-19.01,0.985602125,34.0
2021-07-08 18:56:26.851562500,-36.0,2.0,53.0,88.418125,-14.375,0.98572221875,34.0
2021-07-08 18:56:26.859375000,-36.0,2.0,53.0,88.41875,-9.74,0.9858423125,34.0
2021-07-08 18:56:26.867187500,-36.0,2.0,53.0,88.419375,-5.35,0.98596240625,34.0
2021-07-08 18:56:26.875000000,-36.0,2.0,53.0,88.42,-0.96,0.9860825,34.0
2021-07-08 18:56:26.882812500,-36.0,2.0,53.0,88.420625,3.12,0.98620259375,34.0
2021-07-08 18:56:26.890625000,-36.0,2.0,53.0,88.42125,7.2,0.9863226875,34.0
2021-07-08 18:56:26.898437500,-36.0,2.0,53.0,88.421875,10.885,0.98644278125,34.0
2021-07-08 18:56:26.906250000,-36.0,2.0,53.0,88.4225,14.57,0.986562875,34.0
2021-07-08 18:56:26.914062500,-36.0,2.0,53.0,88.423125,17.689999999999998,0.98668296875,34.0
2021-07-08 18:56:26.921875000,-36.0,2.0,53.0,88.42375000000001,20.81,0.9868030624999999,34.0
2021-07-08 18:56:26.929687500,-36.0,2.0,53.0,88.42437500000001,23.155,0.9869231562499999,34.0
2021-07-08 18:56:26.937500000,-36.0,2.0,53.0,88.42500000000001,25.5,0.9870432499999999,34.0
2021-07-08 18:56:26.945312500,-36.0,2.0,53.0,88.42562500000001,26.869999999999997,0.98716334375,34.0
2021-07-08 18:56:26.953125000,-36.0,2.0,53.0,88.42625000000001,28.24,0.9872834375,34.0
2021-07-08 18:56:26.960937500,-36.0,2.0,53.0,88.42687500000001,28.58,0.98740353125,34.0
2021-07-08 18:56:26.968750000,-36.0,2.0,53.0,88.42750000000001,28.92,0.987523625,34.0
2021-07-08 18:56:26.976562500,-36.0,2.0,53.0,88.42812500000001,28.380000000000003,0.98764371875,34.0
2021-07-08 18:56:26.984375000,-36.0,2.0,53.0,88.42875000000001,27.84,0.9877638125,34.0
2021-07-08 18:56:26.992187500,-36.0,2.0,53.0,88.42937500000001,26.740000000000002,0.98788390625,34.0
2021-07-08 18:56:27.000000000,-36.0,2.0,53.0,88.43,25.64,0.988004,34.0
2021-07-08 18:56:27.007812500,-36.0,2.0,53.0,88.43078125000001,24.355,0.988164125,34.0
2021-07-08 18:56:27.015625000,-36.0,2.0,53.0,88.43156250000001,23.07,0.98832425,34.0
2021-07-08 18:56:27.023437500,-36.0,2.0,53.0,88.43234375,21.9,0.988484375,34.0
2021-07-08 18:56:27.031250000,-36.0,2.0,53.0,88.433125,20.73,0.9886445,34.0
2021-07-08 18:56:27.039062500,-36.0,2.0,53.0,88.43390625,19.785,0.988804625,34.0
2021-07-08 18:56:27.046875000,-36.0,2.0,53.0,88.43468750000001,18.84,0.98896475,34.0
2021-07-08 18:56:27.054687500,-36.0,2.0,53.0,88.43546875000001,18.060000000000002,0.989124875,34.0
2021-07-08 18:56:27.062500000,-36.0,2.0,53.0,88.43625,17.28,0.989285,34.0
2021-07-08 18:56:27.070312500,-36.0,2.0,53.0,88.43703125,16.48,0.989445125,34.0
2021-07-08 18:56:27.078125000,-36.0,2.0,53.0,88.4378125,15.68,0.98960525,34.0
2021-07-08 18:56:27.085937500,-36.0,2.0,53.0,88.43859375000001,14.665,0.989765375,34.0
2021-07-08 18:56:27.093750000,-36.0,2.0,53.0,88.43937500000001,13.65,0.9899255,34.0
2021-07-08 18:56:27.101562500,-36.0,2.0,53.0,88.44015625,12.335,0.990085625,34.0
2021-07-08 18:56:27.109375000,-36.0,2.0,53.0,88.4409375,11.02,0.99024575,34.0
2021-07-08 18:56:27.117187500,-36.0,2.0,53.0,88.44171875,9.45,0.990405875,34.0
2021-07-08 18:56:27.125000000,-36.0,2.0,53.0,88.44250000000001,7.88,0.9905660000000001,34.0
2021-07-08 18:56:27.132812500,-36.0,2.0,53.0,88.44328125000001,6.205,0.990726125,34.0
2021-07-08 18:56:27.140625000,-36.0,2.0,53.0,88.4440625,4.53,0.99088625,34.0
2021-07-08 18:56:27.148437500,-36.0,2.0,53.0,88.44484375,2.9000000000000004,0.991046375,34.0
2021-07-08 18:56:27.156250000,-36.0,2.0,53.0,88.445625,1.27,0.9912065,34.0
2021-07-08 18:56:27.164062500,-36.0,2.0,53.0,88.44640625000001,-0.23499999999999988,0.9913666250000001,34.0
2021-07-08 18:56:27.171875000,-36.0,2.0,53.0,88.44718750000001,-1.74,0.99152675,34.0
2021-07-08 18:56:27.179687500,-36.0,2.0,53.0,88.44796875,-3.2199999999999998,0.991686875,34.0
2021-07-08 18:56:27.187500000,-36.0,2.0,53.0,88.44875,-4.7,0.991847,34.0
2021-07-08 18:56:27.195312500,-36.0,2.0,53.0,88.44953125,-6.359999999999999,0.992007125,34.0
2021-07-08 18:56:27.203125000,-36.0,2.0,53.0,88.45031250000001,-8.02,0.9921672500000001,34.0
2021-07-08 18:56:27.210937500,-36.0,2.0,53.0,88.45109375000001,-10.135,0.992327375,34.0
2021-07-08 18:56:27.218750000,-36.0,2.0,53.0,88.451875,-12.25,0.9924875,34.0
2021-07-08 18:56:27.226562500,-36.0,2.0,53.0,88.45265625,-15.015,0.992647625,34.0
2021-07-08 18:56:27.234375000,-36.0,2.0,53.0,88.4534375,-17.78,0.99280775,34.0
2021-07-08 18:56:27.242187500,-36.0,2.0,53.0,88.45421875000001,-21.195,0.992967875,34.0
2021-07-08 18:56:27.250000000,-36.0,2.0,53.0,88.45500000000001,-24.61,0.993128,34.0
2021-07-08 18:56:27.257812500,-36.0,2.0,53.0,88.45578125,-28.4,0.9928878125,34.0
2021-07-08 18:56:27.265625000,-36.0,2.0,53.0,88.4565625,-32.19,0.992647625,34.0
2021-07-08 18:56:27.273437500,-36.0,2.0,53.0,88.45734375,-35.855000000000004,0.9924074375,34.0
2021-07-08 18:56:27.281250000,-36.0,2.0,53.0,88.45812500000001,-39.52,0.9921672500000001,34.0
2021-07-08 18:56:27.289062500,-36.0,2.0,53.0,88.45890625,-42.42,0.9919270625000001,34.0
2021-07-08 18:56:27.296875000,-36.0,2.0,53.0,88.4596875,-45.32,0.991686875,34.0
2021-07-08 18:56:27.304687500,-36.0,2.0,53.0,88.46046875,-46.84,0.9914466875,34.0
2021-07-08 18:56:27.312500000,-36.0,2.0,53.0,88.46125,-48.36,0.9912065,34.0
2021-07-08 18:56:27.320312500,-36.0,2.0,53.0,88.46203125000001,-48.120000000000005,0.9909663125,34.0
2021-07-08 18:56:27.328125000,-36.0,2.0,53.0,88.4628125,-47.88,0.990726125,34.0
2021-07-08 18:56:27.335937500,-36.0,2.0,53.0,88.46359375,-45.82,0.9904859375,34.0
2021-07-08 18:56:27.343750000,-36.0,2.0,53.0,88.464375,-43.76,0.99024575,34.0
2021-07-08 18:56:27.351562500,-36.0,2.0,53.0,88.46515625,-40.175,0.9900055625,34.0
2021-07-08 18:56:27.359375000,-36.0,2.0,53.0,88.46593750000001,-36.59,0.9897653750000001,34.0
2021-07-08 18:56:27.367187500,-36.0,2.0,53.0,88.46671875,-32.010000000000005,0.9895251875000001,34.0
2021-07-08 18:56:27.375000000,-36.0,2.0,53.0,88.4675,-27.43,0.989285,34.0
2021-07-08 18:56:27.382812500,-36.0,2.0,53.0,88.46828125,-22.465,0.9890448125,34.0
2021-07-08 18:56:27.390625000,-36.0,2.0,53.0,88.4690625,-17.5,0.988804625,34.0
2021-07-08 18:56:27.398437500,-36.0,2.0,53.0,88.46984375000001,-12.645,0.9885644375,34.0
2021-07-08 18:56:27.406250000,-36.0,2.0,53.0,88.470625,-7.79,0.98832425,34.0
2021-07-08 18:56:27.414062500,-36.0,2.0,53.0,88.47140625,-3.335,0.9880840625,34.0
2021-07-08 18:56:27.421875000,-36.0,2.0,53.0,88.4721875,1.12,0.987843875,34.0
2021-07-08 18:56:27.429687500,-36.0,2.0,53.0,88.47296875,5.105,0.9876036875,34.0
2021-07-08 18:56:27.437500000,-36.0,2.0,53.0,88.47375000000001,9.09,0.9873635000000001,34.0
2021-07-08 18:56:27.445312500,-36.0,2.0,53.0,88.47453125,12.625,0.9871233125000001,34.0
2021-07-08 18:56:27.453125000,-36.0,2.0,53.0,88.4753125,16.16,0.9868831250000001,34.0
2021-07-08 18:56:27.460937500,-36.0,2.0,53.0,88.47609375,19.215,0.9866429375,34.0
2021-07-08 18:56:27.468750000,-36.0,2.0,53.0,88.476875,22.27,0.98640275,34.0
2021-07-08 18:56:27.476562500,-36.0,2.0,53.0,88.47765625000001,24.71,0.9861625625,34.0
2021-07-08 18:56:27.484375000,-36.0,2.0,53.0,88.4784375,27.15,0.985922375,34.0
2021-07-08 18:56:27.492187500,-36.0,2.0,53.0,88.47921875,28.755,0.9856821875,34.0
2021-07-08 18:56:27.500000000,-36.0,2.0,53.0,88.48,30.36,0.985442,34.0
2021-07-08 18:56:27.507812500,-36.0,2.0,53.0,88.48078125,30.955,0.98524184375,34.0
2021-07-08 18:56:27.515625000,-36.0,2.0,53.0,88.48156250000001,31.55,0.9850416875000001,34.0
2021-07-08 18:56:27.523437500,-36.0,2.0,53.0,88.48234375,31.134999999999998,0.9848415312500001,34.0
2021-07-08 18:56:27.531250000,-36.0,2.0,53.0,88.483125,30.72,0.984641375,34.0
2021-07-08 18:56:27.539062500,-36.0,2.0,53.0,88.48390625,29.555,0.98444121875,34.0
2021-07-08 18:56:27.546875000,-36.0,2.0,53.0,88.4846875,28.39,0.9842410625,34.0
2021-07-08 18:56:27.554687500,-36.0,2.0,53.0,88.48546875000001,26.89,0.9840409062500001,34.0
2021-07-08 18:56:27.562500000,-36.0,2.0,53.0,88.48625,25.39,0.98384075,34.0
2021-07-08 18:56:27.570312500,-36.0,2.0,53.0,88.48703125,23.97,0.98364059375,34.0
2021-07-08 18:56:27.578125000,-36.0,2.0,53.0,88.4878125,22.55,0.9834404375000001,34.0
2021-07-08 18:56:27.585937500,-36.0,2.0,53.0,88.48859375,21.46,0.9832402812500001,34.0
2021-07-08 18:56:27.593750000,-36.0,2.0,53.0,88.48937500000001,20.37,0.983040125,34.0
2021-07-08 18:56:27.601562500,-36.0,2.0,53.0,88.49015625,19.575000000000003,0.98283996875,34.0
2021-07-08 18:56:27.609375000,-36.0,2.0,53.0,88.4909375,18.78,0.9826398125,34.0
2021-07-08 18:56:27.617187500,-36.0,2.0,53.0,88.49171875,18.04,0.9824396562500001,34.0
2021-07-08 18:56:27.625000000,-36.0,2.0,53.0,88.4925,17.3,0.9822395,34.0
2021-07-08 18:56:27.632812500,-36.0,2.0,53.0,88.49328125000001,16.34,0.98203934375,34.0
2021-07-08 18:56:27.640625000,-36.0,2.0,53.0,88.4940625,15.38,0.9818391875000001,34.0
2021-07-08 18:56:27.648437500,-36.0,2.0,53.0,88.49484375,14.045000000000002,0.9816390312500001,34.0
2021-07-08 18:56:27.656250000,-36.0,2.0,53.0,88.495625,12.71,0.981438875,34.0
2021-07-08 18:56:27.664062500,-36.0,2.0,53.0,88.49640625,11.04,0.98123871875,34.0
2021-07-08 18:56:27.671875000,-36.0,2.0,53.0,88.49718750000001,9.37,0.9810385625,34.0
2021-07-08 18:56:27.679687500,-36.0,2.0,53.0,88.49796875,7.574999999999999,0.9808384062500001,34.0
2021-07-08 18:56:27.687500000,-36.0,2.0,53.0,88.49875,5.78,0.98063825,34.0
2021-07-08 18:56:27.695312500,-36.0,2.0,53.0,88.49953125,4.09,0.98043809375,34.0
2021-07-08 18:56:27.703125000,-36.0,2.0,53.0,88.5003125,2.4,0.9802379375000001,34.0
2021-07-08 18:56:27.710937500,-36.0,2.0,53.0,88.50109375000001,0.97,0.9800377812500001,34.0
2021-07-08 18:56:27.718750000,-36.0,2.0,53.0,88.501875,-0.46,0.979837625,34.0
2021-07-08 18:56:27.726562500,-36.0,2.0,53.0,88.50265625,-1.635,0.97963746875,34.0
2021-07-08 18:56:27.734375000,-36.0,2.0,53.0,88.5034375,-2.81,0.9794373125,34.0
2021-07-08 18:56:27.742187500,-36.0,2.0,53.0,88.50421875,-3.9000000000000004,0.9792371562500001,34.0
2021-07-08 18:56:27.750000000,-36.0,2.0,53.0,88.505,-4.99,0.979037,34.0
2021-07-08 18:56:27.757812500,-36.0,2.0,53.0,88.50578125,-6.24,0.9786366875,34.0
2021-07-08 18:56:27.765625000,-36.0,2.0,53.0,88.5065625,-7.49,0.978236375,34.0
2021-07-08 18:56:27.773437500,-36.0,2.0,53.0,88.50734375,-9.190000000000001,0.9778360625,34.0
2021-07-08 18:56:27.781250000,-36.0,2.0,53.0,88.508125,-10.89,0.97743575,34.0
2021-07-08 18:56:27.789062500,-36.0,2.0,53.0,88.50890625,-13.25,0.9770354375,34.0
2021-07-08 18:56:27.796875000,-36.0,2.0,53.0,88.5096875,-15.61,0.976635125,34.0
2021-07-08 18:56:27.804687500,-36.0,2.0,53.0,88.51046875,-18.68,0.9762348125,34.0
2021-07-08 18:56:27.812500000,-36.0,2.0,53.0,88.51125,-21.75,0.9758345,34.0
2021-07-08 18:56:27.820312500,-36.0,2.0,53.0,88.51203125,-25.335,0.9754341875,34.0
2021-07-08 18:56:27.828125000,-36.0,2.0,53.0,88.5128125,-28.92,0.975033875,34.0
2021-07-08 18:56:27.835937500,-36.0,2.0,53.0,88.51359375,-32.545,0.9746335625,34.0
2021-07-08 18:56:27.843750000,-36.0,2.0,53.0,88.514375,-36.17,0.97423325,34.0
2021-07-08 18:56:27.851562500,-36.0,2.0,53.0,88.51515625,-39.17,0.9738329375,34.0
2021-07-08 18:56:27.859375000,-36.0,2.0,53.0,88.5159375,-42.17,0.973432625,34.0
2021-07-08 18:56:27.867187500,-36.0,2.0,53.0,88.51671875,-43.845,0.9730323125,34.0
2021-07-08 18:56:27.875000000,-36.0,2.0,53.0,88.5175,-45.52,0.9726319999999999,34.0
2021-07-08 18:56:27.882812500,-36.0,2.0,53.0,88.51828125,-45.355000000000004,0.9722316875,34.0
2021-07-08 18:56:27.890625000,-36.0,2.0,53.0,88.5190625,-45.19,0.9718313749999999,34.0
2021-07-08 18:56:27.898437500,-36.0,2.0,53.0,88.51984375,-43.04,0.9714310625,34.0
2021-07-08 18:56:27.906250000,-36.0,2.0,53.0,88.520625,-40.89,0.9710307499999999,34.0
2021-07-08 18:56:27.914062500,-36.0,2.0,53.0,88.52140625,-36.985,0.9706304375,34.0
2021-07-08 18:56:27.921875000,-36.0,2.0,53.0,88.5221875,-33.08,0.9702301249999999,34.0
2021-07-08 18:56:27.929687500,-36.0,2.0,53.0,88.52296875,-27.95,0.9698298125,34.0
2021-07-08 18:56:27.937500000,-36.0,2.0,53.0,88.52375,-22.82,0.9694294999999999,34.0
2021-07-08 18:56:27.945312500,-36.0,2.0,53.0,88.52453125,-17.1,0.9690291875,34.0
2021-07-08 18:56:27.953125000,-36.0,2.0,53.0,88.5253125,-11.38,0.968628875,34.0
2021-07-08 18:56:27.960937500,-36.0,2.0,53.0,88.52609375,-5.62,0.9682285625,34.0
2021-07-08 18:56:27.968750000,-36.0,2.0,53.0,88.526875,0.14,0.96782825,34.0
2021-07-08 18:56:27.976562500,-36.0,2.0,53.0,88.52765625,5.5649999999999995,0.9674279375,34.0
2021-07-08 18:56:27.984375000,-36.0,2.0,53.0,88.5284375,10.99,0.967027625,34.0
2021-07-08 18:56:27.992187500,-36.0,2.0,53.0,88.52921875,15.86,0.9666273125,34.0
2021-07-08 18:56:28.000000000,-36.0,2.0,53.0,88.53,20.73,0.966227,34.0
2021-07-08 18:56:28.007812500,-36.0,2.0,53.0,88.531171875,24.9,0.96610690625,34.0
2021-07-08 18:56:28.015625000,-36.0,2.0,53.0,88.53234375,29.07,0.9659868125,34.0
2021-07-08 18:56:28.023437500,-36.0,2.0,53.0,88.533515625,32.394999999999996,0.96586671875,34.0
2021-07-08 18:56:28.031250000,-36.0,2.0,53.0,88.5346875,35.72,0.965746625,34.0
2021-07-08 18:56:28.039062500,-36.0,2.0,53.0,88.535859375,38.05,0.96562653125,34.0
2021-07-08 18:56:28.046875000,-36.0,2.0,53.0,88.53703125,40.38,0.9655064375,34.0
2021-07-08 18:56:28.054687500,-36.0,2.0,53.0,88.538203125,41.585,0.96538634375,34.0
2021-07-08 18:56:28.062500000,-36.0,2.0,53.0,88.539375,42.79,0.96526625,34.0
2021-07-08 18:56:28.070312500,-36.0,2.0,53.0,88.540546875,42.879999999999995,0.96514615625,34.0
2021-07-08 18:56:28.078125000,-36.0,2.0,53.0,88.54171875,42.97,0.9650260625,34.0
2021-07-08 18:56:28.085937500,-36.0,2.0,53.0,88.542890625,42.099999999999994,0.96490596875,34.0
2021-07-08 18:56:28.093750000,-36.0,2.0,53.0,88.5440625,41.23,0.964785875,34.0
2021-07-08 18:56:28.101562500,-36.0,2.0,53.0,88.545234375,39.715,0.96466578125,34.0
2021-07-08 18:56:28.109375000,-36.0,2.0,53.0,88.54640625,38.2,0.9645456875,34.0
2021-07-08 18:56:28.117187500,-36.0,2.0,53.0,88.547578125,36.435,0.96442559375,34.0
2021-07-08 18:56:28.125000000,-36.0,2.0,53.0,88.54875,34.67,0.9643055,34.0
2021-07-08 18:56:28.132812500,-36.0,2.0,53.0,88.549921875,32.99,0.9641854062499999,34.0
2021-07-08 18:56:28.140625000,-36.0,2.0,53.0,88.55109375,31.31,0.9640653124999999,34.0
2021-07-08 18:56:28.148437500,-36.0,2.0,53.0,88.552265625,29.93,0.9639452187499999,34.0
2021-07-08 18:56:28.156250000,-36.0,2.0,53.0,88.5534375,28.55,0.963825125,34.0
2021-07-08 18:56:28.164062500,-36.0,2.0,53.0,88.554609375,27.47,0.96370503125,34.0
2021-07-08 18:56:28.171875000,-36.0,2.0,53.0,88.55578125,26.39,0.9635849375,34.0
2021-07-08 18:56:28.179687500,-36.0,2.0,53.0,88.556953125,25.475,0.96346484375,34.0
2021-07-08 18:56:28.187500000,-36.0,2.0,53.0,88.558125,24.56,0.96334475,34.0
2021-07-08 18:56:28.195312500,-36.0,2.0,53.0,88.559296875,23.595,0.96322465625,34.0
2021-07-08 18:56:28.203125000,-36.0,2.0,53.0,88.56046875,22.63,0.9631045625,34.0
2021-07-08 18:56:28.210937500,-36.0,2.0,53.0,88.561640625,21.424999999999997,0.96298446875,34.0
2021-07-08 18:56:28.218750000,-36.0,2.0,53.0,88.5628125,20.22,0.962864375,34.0
2021-07-08 18:56:28.226562500,-36.0,2.0,53.0,88.563984375,18.695,0.96274428125,34.0
2021-07-08 18:56:28.234375000,-36.0,2.0,53.0,88.56515625,17.17,0.9626241875,34.0
2021-07-08 18:56:28.242187500,-36.0,2.0,53.0,88.566328125,15.365000000000002,0.96250409375,34.0
2021-07-08 18:56:28.250000000,-36.0,2.0,53.0,88.5675,13.56,0.962384,34.0
2021-07-08 18:56:28.257812500,-36.0,2.0,53.0,88.568671875,11.59,0.96202371875,34.0
2021-07-08 18:56:28.265625000,-36.0,2.0,53.0,88.56984375,9.62,0.9616634375,34.0
2021-07-08 18:56:28.273437500,-36.0,2.0,53.0,88.571015625,7.615,0.9613031562500001,34.0
2021-07-08 18:56:28.281250000,-36.0,2.0,53.0,88.5721875,5.61,0.960942875,34.0
2021-07-08 18:56:28.289062500,-36.0,2.0,53.0,88.57335937500001,3.6500000000000004,0.96058259375,34.0
2021-07-08 18:56:28.296875000,-36.0,2.0,53.0,88.57453125,1.69,0.9602223125,34.0
2021-07-08 18:56:28.304687500,-36.0,2.0,53.0,88.575703125,-0.2450000000000001,0.95986203125,34.0
2021-07-08 18:56:28.312500000,-36.0,2.0,53.0,88.576875,-2.18,0.95950175,34.0
2021-07-08 18:56:28.320312500,-36.0,2.0,53.0,88.578046875,-4.255000000000001,0.9591414687500001,34.0
2021-07-08 18:56:28.328125000,-36.0,2.0,53.0,88.57921875000001,-6.33,0.9587811875,34.0
2021-07-08 18:56:28.335937500,-36.0,2.0,53.0,88.580390625,-8.76,0.95842090625,34.0
2021-07-08 18:56:28.343750000,-36.0,2.0,53.0,88.5815625,-11.19,0.958060625,34.0
2021-07-08 18:56:28.351562500,-36.0,2.0,53.0,88.582734375,-14.215,0.95770034375,34.0
2021-07-08 18:56:28.359375000,-36.0,2.0,53.0,88.58390625,-17.24,0.9573400625,34.0
2021-07-08 18:56:28.367187500,-36.0,2.0,53.0,88.58507812500001,-21.025,0.95697978125,34.0
2021-07-08 18:56:28.375000000,-36.0,2.0,53.0,88.58625,-24.81,0.9566195,34.0
2021-07-08 18:56:28.382812500,-36.0,2.0,53.0,88.587421875,-29.314999999999998,0.95625921875,34.0
2021-07-08 18:56:28.390625000,-36.0,2.0,53.0,88.58859375,-33.82,0.9558989375,34.0
2021-07-08 18:56:28.398437500,-36.0,2.0,53.0,88.589765625,-38.725,0.95553865625,34.0
2021-07-08 18:56:28.406250000,-36.0,2.0,53.0,88.59093750000001,-43.63,0.955178375,34.0
2021-07-08 18:56:28.414062500,-36.0,2.0,53.0,88.592109375,-48.35,0.95481809375,34.0
2021-07-08 18:56:28.421875000,-36.0,2.0,53.0,88.59328125,-53.07,0.9544578125000001,34.0
2021-07-08 18:56:28.429687500,-36.0,2.0,53.0,88.594453125,-56.855000000000004,0.95409753125,34.0
2021-07-08 18:56:28.437500000,-36.0,2.0,53.0,88.595625,-60.64,0.95373725,34.0
2021-07-08 18:56:28.445312500,-36.0,2.0,53.0,88.59679687500001,-62.76,0.95337696875,34.0
2021-07-08 18:56:28.453125000,-36.0,2.0,53.0,88.59796875,-64.88,0.9530166875,34.0
2021-07-08 18:56:28.460937500,-36.0,2.0,53.0,88.599140625,-64.85,0.95265640625,34.0
2021-07-08 18:56:28.468750000,-36.0,2.0,53.0,88.6003125,-64.82,0.952296125,34.0
2021-07-08 18:56:28.476562500,-36.0,2.0,53.0,88.601484375,-62.51,0.95193584375,34.0
2021-07-08 18:56:28.484375000,-36.0,2.0,53.0,88.60265625000001,-60.2,0.9515755625,34.0
2021-07-08 18:56:28.492187500,-36.0,2.0,53.0,88.603828125,-55.870000000000005,0.95121528125,34.0
2021-07-08 18:56:28.500000000,-36.0,2.0,53.0,88.605,-51.54,0.950855,34.0
2021-07-08 18:56:28.507812500,-36.0,2.0,53.0,88.606171875,-45.72,0.9506148125,34.0
2021-07-08 18:56:28.515625000,-36.0,2.0,53.0,88.60734375,-39.9,0.950374625,34.0
2021-07-08 18:56:28.523437500,-36.0,2.0,53.0,88.60851562500001,-33.28,0.9501344375,34.0
2021-07-08 18:56:28.531250000,-36.0,2.0,53.0,88.6096875,-26.66,0.94989425,34.0
2021-07-08 18:56:28.539062500,-36.0,2.0,53.0,88.610859375,-19.884999999999998,0.9496540625000001,34.0
2021-07-08 18:56:28.546875000,-36.0,2.0,53.0,88.61203125,-13.11,0.949413875,34.0
2021-07-08 18:56:28.554687500,-36.0,2.0,53.0,88.613203125,-6.734999999999999,0.9491736875,34.0
2021-07-08 18:56:28.562500000,-36.0,2.0,53.0,88.61437500000001,-0.36,0.9489335,34.0
2021-07-08 18:56:28.570312500,-36.0,2.0,53.0,88.615546875,5.214999999999999,0.9486933125,34.0
2021-07-08 18:56:28.578125000,-36.0,2.0,53.0,88.61671875,10.79,0.948453125,34.0
2021-07-08 18:56:28.585937500,-36.0,2.0,53.0,88.617890625,15.26,0.9482129375,34.0
2021-07-08 18:56:28.593750000,-36.0,2.0,53.0,88.6190625,19.73,0.94797275,34.0
2021-07-08 18:56:28.601562500,-36.0,2.0,53.0,88.62023437500001,22.915,0.9477325625,34.0
2021-07-08 18:56:28.609375000,-36.0,2.0,53.0,88.62140625,26.1,0.947492375,34.0
2021-07-08 18:56:28.617187500,-36.0,2.0,53.0,88.622578125,27.93,0.9472521875000001,34.0
2021-07-08 18:56:28.625000000,-36.0,2.0,53.0,88.62375,29.76,0.947012,34.0
2021-07-08 18:56:28.632812500,-36.0,2.0,53.0,88.624921875,30.285,0.9467718125,34.0
2021-07-08 18:56:28.640625000,-36.0,2.0,53.0,88.62609375000001,30.81,0.946531625,34.0
2021-07-08 18:56:28.648437500,-36.0,2.0,53.0,88.627265625,30.285,0.9462914375,34.0
2021-07-08 18:56:28.656250000,-36.0,2.0,53.0,88.6284375,29.76,0.94605125,34.0
2021-07-08 18:56:28.664062500,-36.0,2.0,53.0,88.629609375,28.57,0.9458110625,34.0
2021-07-08 18:56:28.671875000,-36.0,2.0,53.0,88.63078125,27.38,0.945570875,34.0
2021-07-08 18:56:28.679687500,-36.0,2.0,53.0,88.63195312500001,25.96,0.9453306875,34.0
2021-07-08 18:56:28.687500000,-36.0,2.0,53.0,88.633125,24.54,0.9450905000000001,34.0
2021-07-08 18:56:28.695312500,-36.0,2.0,53.0,88.634296875,23.235,0.9448503125000001,34.0
2021-07-08 18:56:28.703125000,-36.0,2.0,53.0,88.63546875,21.93,0.9446101250000001,34.0
2021-07-08 18:56:28.710937500,-36.0,2.0,53.0,88.636640625,20.884999999999998,0.9443699375,34.0
2021-07-08 18:56:28.718750000,-36.0,2.0,53.0,88.63781250000001,19.84,0.94412975,34.0
2021-07-08 18:56:28.726562500,-36.0,2.0,53.0,88.638984375,19.0,0.9438895625,34.0
2021-07-08 18:56:28.734375000,-36.0,2.0,53.0,88.64015625,18.16,0.943649375,34.0
2021-07-08 18:56:28.742187500,-36.0,2.0,53.0,88.641328125,17.295,0.9434091875,34.0
2021-07-08 18:56:28.750000000,-36.0,2.0,53.0,88.64250000000001,16.43,0.943169,34.0
2021-07-08 18:56:28.757812500,-36.0,2.0,53.0,88.64367187500001,15.295,0.943048875,34.0
2021-07-08 18:56:28.765625000,-36.0,2.0,53.0,88.64484375,14.16,0.94292875,34.0
2021-07-08 18:56:28.773437500,-36.0,2.0,53.0,88.646015625,12.61,0.9428086250000001,34.0
2021-07-08 18:56:28.781250000,-36.0,2.0,53.0,88.6471875,11.06,0.9426885,34.0
2021-07-08 18:56:28.789062500,-36.0,2.0,53.0,88.64835937500001,9.115,0.942568375,34.0
2021-07-08 18:56:28.796875000,-36.0,2.0,53.0,88.64953125000001,7.17,0.94244825,34.0
2021-07-08 18:56:28.804687500,-36.0,2.0,53.0,88.650703125,5.03,0.9423281250000001,34.0
2021-07-08 18:56:28.812500000,-36.0,2.0,53.0,88.651875,2.89,0.942208,34.0
2021-07-08 18:56:28.820312500,-36.0,2.0,53.0,88.653046875,0.8199999999999998,0.942087875,34.0
2021-07-08 18:56:28.828125000,-36.0,2.0,53.0,88.65421875000001,-1.25,0.94196775,34.0
2021-07-08 18:56:28.835937500,-36.0,2.0,53.0,88.65539062500001,-3.01,0.941847625,34.0
2021-07-08 18:56:28.843750000,-36.0,2.0,53.0,88.6565625,-4.77,0.9417275,34.0
2021-07-08 18:56:28.851562500,-36.0,2.0,53.0,88.657734375,-6.14,0.941607375,34.0
2021-07-08 18:56:28.859375000,-36.0,2.0,53.0,88.65890625,-7.51,0.94148725,34.0
2021-07-08 18:56:28.867187500,-36.0,2.0,53.0,88.66007812500001,-8.625,0.941367125,34.0
2021-07-08 18:56:28.875000000,-36.0,2.0,53.0,88.66125000000001,-9.74,0.941247,34.0
2021-07-08 18:56:28.882812500,-36.0,2.0,53.0,88.662421875,-10.925,0.941126875,34.0
2021-07-08 18:56:28.890625000,-36.0,2.0,53.0,88.66359375,-12.11,0.94100675,34.0
2021-07-08 18:56:28.898437500,-36.0,2.0,53.0,88.664765625,-13.77,0.940886625,34.0
2021-07-08 18:56:28.906250000,-36.0,2.0,53.0,88.66593750000001,-15.43,0.9407665,34.0
2021-07-08 18:56:28.914062500,-36.0,2.0,53.0,88.66710937500001,-17.97,0.940646375,34.0
2021-07-08 18:56:28.921875000,-36.0,2.0,53.0,88.66828125,-20.51,0.94052625,34.0
2021-07-08 18:56:28.929687500,-36.0,2.0,53.0,88.669453125,-24.095,0.940406125,34.0
2021-07-08 18:56:28.937500000,-36.0,2.0,53.0,88.670625,-27.68,0.940286,34.0
2021-07-08 18:56:28.945312500,-35.75,2.0,53.0,88.67179687500001,-32.2,0.9401658749999999,34.0
2021-07-08 18:56:28.953125000,-35.5,2.0,53.0,88.67296875000001,-36.72,0.94004575,34.0
2021-07-08 18:56:28.960937500,-35.25,2.0,53.0,88.674140625,-41.685,0.939925625,34.0
2021-07-08 18:56:28.968750000,-35.0,2.0,53.0,88.6753125,-46.65,0.9398055,34.0
2021-07-08 18:56:28.976562500,-35.25,2.0,53.0,88.676484375,-51.305,0.9396853749999999,34.0
2021-07-08 18:56:28.984375000,-35.5,2.0,53.0,88.67765625000001,-55.96,0.93956525,34.0
2021-07-08 18:56:28.992187500,-35.75,2.0,53.0,88.67882812500001,-59.43,0.939445125,34.0
2021-07-08 18:56:29.000000000,-36.0,2.0,53.0,88.68,-62.9,0.939325,34.0
2021-07-08 18:56:29.007812500,-36.0,2.0,53.0,88.68171875,-64.44,0.93920490625,34.0
2021-07-08 18:56:29.015625000,-36.0,2.0,53.0,88.68343750000001,-65.98,0.9390848125,34.0
2021-07-08 18:56:29.023437500,-36.0,2.0,53.0,88.68515625,-65.17,0.93896471875,34.0
2021-07-08 18:56:29.031250000,-36.0,2.0,53.0,88.686875,-64.36,0.938844625,34.0
2021-07-08 18:56:29.039062500,-36.0,2.0,53.0,88.68859375000001,-61.19,0.93872453125,34.0
2021-07-08 18:56:29.046875000,-36.0,2.0,53.0,88.6903125,-58.02,0.9386044375,34.0
2021-07-08 18:56:29.054687500,-36.0,2.0,53.0,88.69203125000001,-52.89,0.93848434375,34.0
2021-07-08 18:56:29.062500000,-36.0,2.0,53.0,88.69375000000001,-47.76,0.93836425,34.0
2021-07-08 18:56:29.070312500,-36.0,2.0,53.0,88.69546875,-41.345,0.93824415625,34.0
2021-07-08 18:56:29.078125000,-36.0,2.0,53.0,88.69718750000001,-34.93,0.9381240625,34.0
2021-07-08 18:56:29.085937500,-36.0,2.0,53.0,88.69890625000001,-27.985,0.93800396875,34.0
2021-07-08 18:56:29.093750000,-36.0,2.0,53.0,88.700625,-21.04,0.937883875,34.0
2021-07-08 18:56:29.101562500,-36.0,2.0,53.0,88.70234375000001,-14.24,0.93776378125,34.0
2021-07-08 18:56:29.109375000,-36.0,2.0,53.0,88.7040625,-7.44,0.9376436875,34.0
2021-07-08 18:56:29.117187500,-36.0,2.0,53.0,88.70578125,-1.2649999999999997,0.93752359375,34.0
2021-07-08 18:56:29.125000000,-36.0,2.0,53.0,88.70750000000001,4.91,0.9374035000000001,34.0
2021-07-08 18:56:29.132812500,-36.0,2.0,53.25,88.70921875,10.2,0.93728340625,34.0
2021-07-08 18:56:29.140625000,-36.0,2.0,53.5,88.7109375,15.49,0.9371633125,34.0
2021-07-08 18:56:29.148437500,-36.0,2.0,53.75,88.71265625000001,19.75,0.93704321875,34.0
2021-07-08 18:56:29.156250000,-36.0,2.0,54.0,88.714375,24.01,0.936923125,34.0
2021-07-08 18:56:29.164062500,-36.0,2.0,53.75,88.71609375000001,27.155,0.93680303125,34.0
2021-07-08 18:56:29.171875000,-36.0,2.0,53.5,88.71781250000001,30.3,0.9366829375,34.0
2021-07-08 18:56:29.179687500,-36.0,2.0,53.25,88.71953125,32.255,0.93656284375,34.0
2021-07-08 18:56:29.187500000,-36.0,2.0,53.0,88.72125000000001,34.21,0.93644275,34.0
2021-07-08 18:56:29.195312500,-36.0,2.0,53.0,88.72296875,34.915,0.93632265625,34.0
2021-07-08 18:56:29.203125000,-36.0,2.0,53.0,88.7246875,35.62,0.9362025625,34.0
2021-07-08 18:56:29.210937500,-36.0,2.0,53.0,88.72640625000001,35.129999999999995,0.93608246875,34.0
2021-07-08 18:56:29.218750000,-36.0,2.0,53.0,88.728125,34.64,0.935962375,34.0
2021-07-08 18:56:29.226562500,-36.0,2.0,53.25,88.72984375,33.19,0.93584228125,34.0
2021-07-08 18:56:29.234375000,-36.0,2.0,53.5,88.73156250000001,31.74,0.9357221875,34.0
2021-07-08 18:56:29.242187500,-36.0,2.0,53.75,88.73328125,29.72,0.93560209375,34.0
2021-07-08 18:56:29.250000000,-36.0,2.0,54.0,88.73500000000001,27.7,0.935482,34.0
2021-07-08 18:56:29.257812500,-36.0,2.0,53.75,88.73671875000001,25.564999999999998,0.935482,34.0
2021-07-08 18:56:29.265625000,-36.0,2.0,53.5,88.7384375,23.43,0.935482,34.0
2021-07-08 18:56:29.273437500,-36.0,2.0,53.25,88.74015625000001,21.54,0.935482,34.0
2021-07-08 18:56:29.281250000,-36.0,2.0,53.0,88.74187500000001,19.65,0.935482,34.0
2021-07-08 18:56:29.289062500,-36.0,2.0,53.0,88.74359375,18.11,0.935482,34.0
2021-07-08 18:56:29.296875000,-36.0,2.0,53.0,88.74531250000001,16.57,0.935482,34.0
2021-07-08 18:56:29.304687500,-36.0,2.0,53.0,88.74703125,15.245000000000001,0.935482,34.0
2021-07-08 18:56:29.312500000,-36.0,2.0,53.0,88.74875,13.92,0.935482,34.0
2021-07-08 18:56:29.320312500,-36.0,2.0,53.25,88.75046875000001,12.545,0.935482,34.0
2021-07-08 18:56:29.328125000,-36.0,2.0,53.5,88.7521875,11.17,0.935482,34.0
2021-07-08 18:56:29.335937500,-36.0,2.0,53.75,88.75390625,9.525,0.935482,34.0
2021-07-08 18:56:29.343750000,-36.0,2.0,54.0,88.75562500000001,7.88,0.935482,34.0
2021-07-08 18:56:29.351562500,-36.0,2.0,53.75,88.75734375,5.945,0.935482,34.0
2021-07-08 18:56:29.359375000,-36.0,2.0,53.5,88.75906250000001,4.01,0.935482,34.0
2021-07-08 18:56:29.367187500,-36.0,2.0,53.25,88.76078125000001,1.9499999999999997,0.935482,34.0
2021-07-08 18:56:29.375000000,-36.0,2.0,53.0,88.7625,-0.11,0.935482,34.0
2021-07-08 18:56:29.382812500,-35.75,2.0,53.25,88.76421875000001,-2.06,0.935482,34.0
2021-07-08 18:56:29.390625000,-35.5,2.0,53.5,88.7659375,-4.01,0.935482,34.0
2021-07-08 18:56:29.398437500,-35.25,2.0,53.75,88.76765625,-5.73,0.935482,34.0
2021-07-08 18:56:29.406250000,-35.0,2.0,54.0,88.76937500000001,-7.45,0.935482,34.0
2021-07-08 18:56:29.414062500,-35.25,2.0,53.75,88.77109375,-9.01,0.935482,34.0
2021-07-08 18:56:29.421875000,-35.5,2.0,53.5,88.7728125,-10.57,0.935482,34.0
2021-07-08 18:56:29.429687500,-35.75,2.0,53.25,88.77453125000001,-12.254999999999999,0.935482,34.0
2021-07-08 18:56:29.437500000,-36.0,2.0,53.0,88.77625,-13.94,0.935482,34.0
2021-07-08 18:56:29.445312500,-36.0,2.0,53.0,88.77796875,-16.095,0.935482,34.0
2021-07-08 18:56:29.453125000,-36.0,2.0,53.0,88.77968750000001,-18.25,0.935482,34.0
2021-07-08 18:56:29.460937500,-36.0,2.0,53.0,88.78140625,-21.17,0.935482,34.0
2021-07-08 18:56:29.468750000,-36.0,2.0,53.0,88.78312500000001,-24.09,0.935482,34.0
2021-07-08 18:56:29.476562500,-36.0,2.0,53.0,88.78484375000001,-27.875,0.935482,34.0
2021-07-08 18:56:29.484375000,-36.0,2.0,53.0,88.7865625,-31.66,0.935482,34.0
2021-07-08 18:56:29.492187500,-36.0,2.0,53.0,88.78828125000001,-36.115,0.935482,34.0
2021-07-08 18:56:29.500000000,-36.0,2.0,53.0,88.79,-40.57,0.935482,34.0
2021-07-08 18:56:29.507812500,-36.0,2.0,53.0,88.79171875,-45.239999999999995,0.93512171875,34.0
2021-07-08 18:56:29.515625000,-36.0,2.0,53.0,88.79343750000001,-49.91,0.9347614375000001,34.0
2021-07-08 18:56:29.523437500,-36.0,2.0,53.0,88.79515625,-54.08,0.9344011562500001,34.0
2021-07-08 18:56:29.531250000,-36.0,2.0,53.0,88.796875,-58.25,0.934040875,34.0
2021-07-08 18:56:29.539062500,-36.0,2.0,53.0,88.79859375000001,-61.09,0.93368059375,34.0
2021-07-08 18:56:29.546875000,-36.0,2.0,53.0,88.8003125,-63.93,0.9333203125,34.0
2021-07-08 18:56:29.554687500,-36.0,2.0,53.0,88.80203125000001,-64.66,0.93296003125,34.0
2021-07-08 18:56:29.562500000,-36.0,2.0,53.0,88.80375000000001,-65.39,0.9325997500000001,34.0
2021-07-08 18:56:29.570312500,-36.0,2.0,53.0,88.80546875,-63.54,0.9322394687500001,34.0
2021-07-08 18:56:29.578125000,-36.0,2.0,53.0,88.80718750000001,-61.69,0.9318791875,34.0
2021-07-08 18:56:29.585937500,-36.0,2.0,53.0,88.80890625,-57.235,0.93151890625,34.0
2021-07-08 18:56:29.593750000,-36.0,2.0,53.0,88.810625,-52.78,0.931158625,34.0
2021-07-08 18:56:29.601562500,-36.0,2.0,53.0,88.81234375000001,-46.205,0.93079834375,34.0
2021-07-08 18:56:29.609375000,-36.0,2.0,53.0,88.8140625,-39.63,0.9304380625,34.0
2021-07-08 18:56:29.617187500,-36.0,2.0,53.0,88.81578125,-31.775000000000002,0.9300777812500001,34.0
2021-07-08 18:56:29.625000000,-36.0,2.0,53.0,88.81750000000001,-23.92,0.9297175,34.0
2021-07-08 18:56:29.632812500,-36.0,2.0,53.0,88.81921875,-15.690000000000001,0.92935721875,34.0
2021-07-08 18:56:29.640625000,-36.0,2.0,53.0,88.8209375,-7.46,0.9289969375,34.0
2021-07-08 18:56:29.648437500,-36.0,2.0,53.0,88.82265625000001,0.3899999999999997,0.92863665625,34.0
2021-07-08 18:56:29.656250000,-36.0,2.0,53.0,88.824375,8.24,0.928276375,34.0
2021-07-08 18:56:29.664062500,-36.0,2.0,53.0,88.82609375000001,15.27,0.9279160937500001,34.0
2021-07-08 18:56:29.671875000,-36.0,2.0,53.0,88.82781250000001,22.3,0.9275558125000001,34.0
2021-07-08 18:56:29.679687500,-36.0,2.0,53.0,88.82953125,28.33,0.92719553125,34.0
2021-07-08 18:56:29.687500000,-36.0,2.0,53.0,88.83125000000001,34.36,0.92683525,34.0
2021-07-08 18:56:29.695312500,-36.0,2.0,53.0,88.83296875,39.305,0.92647496875,34.0
2021-07-08 18:56:29.703125000,-36.0,2.0,53.0,88.8346875,44.25,0.9261146875,34.0
2021-07-08 18:56:29.710937500,-36.0,2.0,53.0,88.83640625000001,47.989999999999995,0.92575440625,34.0
2021-07-08 18:56:29.718750000,-36.0,2.0,53.0,88.838125,51.73,0.9253941250000001,34.0
2021-07-08 18:56:29.726562500,-36.0,2.0,53.0,88.83984375,54.105,0.92503384375,34.0
2021-07-08 18:56:29.734375000,-36.0,2.0,53.0,88.84156250000001,56.48,0.9246735625,34.0
2021-07-08 18:56:29.742187500,-36.0,2.0,53.0,88.84328125,57.375,0.92431328125,34.0
2021-07-08 18:56:29.750000000,-36.0,2.0,53.0,88.845,58.27,0.923953,34.0
2021-07-08 18:56:29.757812500,-36.0,2.0,53.0,88.84671875000001,57.725,0.9240330625000001,34.0
2021-07-08 18:56:29.765625000,-36.0,2.0,53.0,88.8484375,57.18,0.924113125,34.0
2021-07-08 18:56:29.773437500,-36.0,2.0,53.0,88.85015625000001,55.485,0.9241931875,34.0
2021-07-08 18:56:29.781250000,-36.0,2.0,53.0,88.851875,53.79,0.92427325,34.0
2021-07-08 18:56:29.789062500,-36.0,2.0,53.0,88.85359375,51.44,0.9243533125,34.0
2021-07-08 18:56:29.796875000,-36.0,2.0,53.0,88.85531250000001,49.09,0.924433375,34.0
2021-07-08 18:56:29.804687500,-36.0,2.0,53.0,88.85703125,46.635000000000005,0.9245134375,34.0
2021-07-08 18:56:29.812500000,-36.0,2.0,53.0,88.85875,44.18,0.9245935000000001,34.0
2021-07-08 18:56:29.820312500,-36.0,2.0,53.0,88.86046875000001,42.019999999999996,0.9246735625,34.0
2021-07-08 18:56:29.828125000,-36.0,2.0,53.0,88.8621875,39.86,0.924753625,34.0
2021-07-08 18:56:29.835937500,-36.0,2.0,53.0,88.86390625,38.18,0.9248336875000001,34.0
2021-07-08 18:56:29.843750000,-36.0,2.0,53.0,88.86562500000001,36.5,0.92491375,34.0
2021-07-08 18:56:29.851562500,-36.0,2.0,53.0,88.86734375,35.195,0.9249938125,34.0
2021-07-08 18:56:29.859375000,-36.0,2.0,53.0,88.86906250000001,33.89,0.925073875,34.0
2021-07-08 18:56:29.867187500,-36.0,2.0,53.0,88.87078125000001,32.685,0.9251539375,34.0
2021-07-08 18:56:29.875000000,-36.0,2.0,53.0,88.8725,31.48,0.925234,34.0
2021-07-08 18:56:29.882812500,-36.0,2.0,53.0,88.87421875000001,30.085,0.9253140625,34.0
2021-07-08 18:56:29.890625000,-36.0,2.0,53.0,88.8759375,28.69,0.925394125,34.0
2021-07-08 18:56:29.898437500,-36.0,2.0,53.0,88.87765625,26.915,0.9254741875,34.0
2021-07-08 18:56:29.906250000,-36.0,2.0,53.0,88.87937500000001,25.14,0.92555425,34.0
2021-07-08 18:56:29.914062500,-35.75,2.0,53.0,88.88109375,22.995,0.9256343125,34.0
2021-07-08 18:56:29.921875000,-35.5,2.0,53.0,88.8828125,20.85,0.925714375,34.0
2021-07-08 18:56:29.929687500,-35.25,2.0,53.0,88.88453125000001,18.5,0.9257944375,34.0
2021-07-08 18:56:29.937500000,-35.0,2.0,53.0,88.88625,16.15,0.9258744999999999,34.0
2021-07-08 18:56:29.945312500,-35.25,2.0,53.25,88.88796875,13.799999999999999,0.9259545625,34.0
2021-07-08 18:56:29.953125000,-35.5,2.0,53.5,88.88968750000001,11.45,0.926034625,34.0
2021-07-08 18:56:29.960937500,-35.75,2.0,53.75,88.89140625,9.2,0.9261146875,34.0
2021-07-08 18:56:29.968750000,-36.0,2.0,54.0,88.89312500000001,6.95,0.92619475,34.0
2021-07-08 18:56:29.976562500,-36.0,2.0,53.75,88.89484375,4.695,0.9262748125,34.0
2021-07-08 18:56:29.984375000,-36.0,2.0,53.5,88.8965625,2.44,0.926354875,34.0
2021-07-08 18:56:29.992187500,-36.0,2.0,53.25,88.89828125000001,-0.13000000000000034,0.9264349374999999,34.0
2021-07-08 18:56:30.000000000,-36.0,2.0,53.0,88.9,-2.7,0.926515,34.0
2021-07-08 18:56:30.007812500,-36.0,2.0,53.0,88.901953125,-5.99,0.9264349374999999,34.0009375
2021-07-08 18:56:30.015625000,-36.0,2.0,53.0,88.90390625,-9.28,0.926354875,34.001875
2021-07-08 18:56:30.023437500,-36.0,2.0,53.0,88.905859375,-13.614999999999998,0.9262748125,34.0028125
2021-07-08 18:56:30.031250000,-36.0,2.0,53.0,88.9078125,-17.95,0.92619475,34.00375
2021-07-08 18:56:30.039062500,-36.0,2.0,53.0,88.909765625,-23.33,0.9261146875,34.0046875
2021-07-08 18:56:30.046875000,-36.0,2.0,53.0,88.91171875,-28.71,0.926034625,34.005625
2021-07-08 18:56:30.054687500,-36.0,2.0,53.0,88.913671875,-34.735,0.9259545625,34.0065625
2021-07-08 18:56:30.062500000,-36.0,2.0,53.0,88.915625,-40.76,0.9258744999999999,34.0075
2021-07-08 18:56:30.070312500,-36.0,2.0,53.0,88.917578125,-46.635,0.9257944375,34.0084375
2021-07-08 18:56:30.078125000,-36.0,2.0,53.0,88.91953125,-52.51,0.925714375,34.009375
2021-07-08 18:56:30.085937500,-36.0,2.0,53.0,88.921484375,-57.205,0.9256343125,34.0103125
2021-07-08 18:56:30.093750000,-36.0,2.0,53.0,88.9234375,-61.9,0.92555425,34.011250000000004
2021-07-08 18:56:30.101562500,-35.75,2.0,53.25,88.925390625,-64.45,0.9254741875,34.0121875
2021-07-08 18:56:30.109375000,-35.5,2.0,53.5,88.92734375,-67.0,0.925394125,34.013125
2021-07-08 18:56:30.117187500,-35.25,2.0,53.75,88.929296875,-66.74000000000001,0.9253140625,34.0140625
2021-07-08 18:56:30.125000000,-35.0,2.0,54.0,88.93125,-66.48,0.925234,34.015
2021-07-08 18:56:30.132812500,-35.25,2.0,53.75,88.933203125,-63.255,0.9251539375,34.0159375
2021-07-08 18:56:30.140625000,-35.5,2.0,53.5,88.93515625,-60.03,0.925073875,34.016875
2021-07-08 18:56:30.148437500,-35.75,2.0,53.25,88.937109375,-54.22,0.9249938125,34.0178125
2021-07-08 18:56:30.156250000,-36.0,2.0,53.0,88.9390625,-48.41,0.92491375,34.01875
2021-07-08 18:56:30.164062500,-36.0,2.0,53.0,88.941015625,-40.795,0.9248336875000001,34.0196875
2021-07-08 18:56:30.171875000,-36.0,2.0,53.0,88.94296875,-33.18,0.924753625,34.020625
2021-07-08 18:56:30.179687500,-36.0,2.0,53.0,88.944921875,-24.725,0.9246735625,34.0215625
2021-07-08 18:56:30.187500000,-36.0,2.0,53.0,88.946875,-16.27,0.9245935000000001,34.0225
2021-07-08 18:56:30.195312500,-36.0,2.0,53.0,88.948828125,-7.84,0.9245134375,34.0234375
2021-07-08 18:56:30.203125000,-36.0,2.0,53.0,88.95078125,0.59,0.924433375,34.024375
2021-07-08 18:56:30.210937500,-36.0,2.0,53.0,88.952734375,8.365,0.9243533125,34.0253125
2021-07-08 18:56:30.218750000,-36.0,2.0,53.0,88.9546875,16.14,0.92427325,34.026250000000005
2021-07-08 18:56:30.226562500,-35.75,2.0,53.25,88.956640625,22.9,0.9241931875,34.027187500000004
2021-07-08 18:56:30.234375000,-35.5,2.0,53.5,88.95859375,29.66,0.924113125,34.028125
2021-07-08 18:56:30.242187500,-35.25,2.0,53.75,88.960546875,35.285,0.9240330625000001,34.0290625
2021-07-08 18:56:30.250000000,-35.0,2.0,54.0,88.9625,40.91,0.923953,34.03
2021-07-08 18:56:30.257812500,-35.25,2.0,53.75,88.964453125,45.349999999999994,0.9239129687500001,34.03
2021-07-08 18:56:30.265625000,-35.5,2.0,53.5,88.96640625,49.79,0.9238729375,34.03
2021-07-08 18:56:30.273437500,-35.75,2.0,53.25,88.968359375,52.974999999999994,0.92383290625,34.03
2021-07-08 18:56:30.281250000,-36.0,2.0,53.0,88.9703125,56.16,0.9237928750000001,34.03
2021-07-08 18:56:30.289062500,-36.0,2.0,53.0,88.972265625,58.004999999999995,0.92375284375,34.03
2021-07-08 18:56:30.296875000,-36.0,2.0,53.0,88.97421875,59.85,0.9237128125,34.03
2021-07-08 18:56:30.304687500,-36.0,2.0,53.0,88.976171875,60.315,0.9236727812500001,34.03
2021-07-08 18:56:30.312500000,-36.0,2.0,53.0,88.978125,60.78,0.92363275,34.03
2021-07-08 18:56:30.320312500,-36.0,2.0,53.0,88.980078125,59.95,0.92359271875,34.03
2021-07-08 18:56:30.328125000,-36.0,2.0,53.0,88.98203125,59.12,0.9235526875000001,34.03
2021-07-08 18:56:30.335937500,-36.0,2.0,53.0,88.983984375,57.295,0.92351265625,34.03
2021-07-08 18:56:30.343750000,-36.0,2.0,53.0,88.9859375,55.47,0.923472625,34.03
2021-07-08 18:56:30.351562500,-36.0,2.0,53.0,88.987890625,53.114999999999995,0.9234325937500001,34.03
2021-07-08 18:56:30.359375000,-36.0,2.0,53.0,88.98984375,50.76,0.9233925625,34.03
2021-07-08 18:56:30.367187500,-36.0,2.0,53.0,88.991796875,48.364999999999995,0.92335253125,34.03
2021-07-08 18:56:30.375000000,-36.0,2.0,53.0,88.99375,45.97,0.9233125,34.03
2021-07-08 18:56:30.382812500,-36.0,2.0,53.0,88.995703125,43.91,0.92327246875,34.03
2021-07-08 18:56:30.390625000,-36.0,2.0,53.0,88.99765625,41.85,0.9232324375000001,34.03
2021-07-08 18:56:30.398437500,-36.0,2.0,53.0,88.999609375,40.254999999999995,0.92319240625,34.03
2021-07-08 18:56:30.406250000,-36.0,2.0,53.0,89.0015625,38.66,0.923152375,34.03
2021-07-08 18:56:30.414062500,-36.0,2.0,53.25,89.003515625,37.394999999999996,0.9231123437500001,34.03
2021-07-08 18:56:30.421875000,-36.0,2.0,53.5,89.00546875,36.13,0.9230723125,34.03
2021-07-08 18:56:30.429687500,-36.0,2.0,53.75,89.007421875,34.91,0.92303228125,34.03
2021-07-08 18:56:30.437500000,-36.0,2.0,54.0,89.009375,33.69,0.9229922500000001,34.03
2021-07-08 18:56:30.445312500,-36.0,2.0,53.75,89.011328125,32.275,0.92295221875,34.03
2021-07-08 18:56:30.453125000,-36.0,2.0,53.5,89.01328125,30.86,0.9229121875,34.03
2021-07-08 18:56:30.460937500,-36.0,2.0,53.25,89.015234375,29.155,0.9228721562500001,34.03
2021-07-08 18:56:30.468750000,-36.0,2.0,53.0,89.0171875,27.45,0.922832125,34.03
2021-07-08 18:56:30.476562500,-36.0,2.0,53.0,89.019140625,25.560000000000002,0.92279209375,34.03
2021-07-08 18:56:30.484375000,-36.0,2.0,53.0,89.02109375,23.67,0.9227520625000001,34.03
2021-07-08 18:56:30.492187500,-36.0,2.0,53.0,89.023046875,21.8,0.92271203125,34.03
2021-07-08 18:56:30.500000000,-36.0,2.0,53.0,89.025,19.93,0.922672,34.03
2021-07-08 18:56:30.507812500,-36.0,2.0,53.0,89.026953125,18.23,0.9225919375,34.03
2021-07-08 18:56:30.515625000,-36.0,2.0,53.0,89.02890625,16.53,0.9225118750000001,34.03
2021-07-08 18:56:30.523437500,-36.0,2.0,53.0,89.030859375,14.97,0.9224318125000001,34.03
2021-07-08 18:56:30.531250000,-36.0,2.0,53.0,89.0328125,13.41,0.92235175,34.03
2021-07-08 18:56:30.539062500,-35.75,2.0,53.0,89.034765625,11.765,0.9222716875,34.03
2021-07-08 18:56:30.546875000,-35.5,2.0,53.0,89.03671875,10.12,0.9221916250000001,34.03
2021-07-08 18:56:30.554687500,-35.25,2.0,53.0,89.038671875,8.07,0.9221115625,34.03
2021-07-08 18:56:30.562500000,-35.0,2.0,53.0,89.040625,6.02,0.9220315,34.03
2021-07-08 18:56:30.570312500,-35.25,2.0,53.0,89.042578125,3.2399999999999998,0.9219514375000001,34.03
2021-07-08 18:56:30.578125000,-35.5,2.0,53.0,89.04453125,0.46,0.921871375,34.03
2021-07-08 18:56:30.585937500,-35.75,2.0,53.0,89.046484375,-3.23,0.9217913125,34.03
2021-07-08 18:56:30.593750000,-36.0,2.0,53.0,89.0484375,-6.92,0.92171125,34.03
2021-07-08 18:56:30.601562500,-36.0,2.0,53.0,89.050390625,-11.524999999999999,0.9216311875000001,34.03
2021-07-08 18:56:30.609375000,-36.0,2.0,53.0,89.05234375,-16.13,0.921551125,34.03
2021-07-08 18:56:30.617187500,-36.0,2.0,53.0,89.054296875,-21.45,0.9214710625,34.03
2021-07-08 18:56:30.625000000,-36.0,2.0,53.0,89.05625,-26.77,0.9213910000000001,34.03
2021-07-08 18:56:30.632812500,-35.75,2.0,53.25,89.058203125,-32.385,0.9213109375,34.03
2021-07-08 18:56:30.640625000,-35.5,2.0,53.5,89.06015625,-38.0,0.921230875,34.03
2021-07-08 18:56:30.648437500,-35.25,2.0,53.75,89.062109375,-43.275,0.9211508125,34.03
2021-07-08 18:56:30.656250000,-35.0,2.0,54.0,89.0640625,-48.55,0.92107075,34.03
2021-07-08 18:56:30.664062500,-35.0,2.0,53.75,89.066015625,-52.665,0.9209906875,34.03
2021-07-08 18:56:30.671875000,-35.0,2.0,53.5,89.06796875,-56.78,0.920910625,34.03
2021-07-08 18:56:30.679687500,-35.0,2.0,53.25,89.069921875,-58.875,0.9208305625,34.03
2021-07-08 18:56:30.687500000,-35.0,2.0,53.0,89.071875,-60.97,0.9207505,34.03
2021-07-08 18:56:30.695312500,-35.25,2.0,53.0,89.073828125,-60.349999999999994,0.9206704375,34.03
2021-07-08 18:56:30.703125000,-35.5,2.0,53.0,89.07578125,-59.73,0.920590375,34.03
2021-07-08 18:56:30.710937500,-35.75,2.0,53.0,89.077734375,-56.135,0.9205103125,34.03
2021-07-08 18:56:30.718750000,-36.0,2.0,53.0,89.0796875,-52.54,0.92043025,34.03
2021-07-08 18:56:30.726562500,-36.0,2.0,53.0,89.081640625,-46.245000000000005,0.9203501875,34.03
2021-07-08 18:56:30.734375000,-36.0,2.0,53.0,89.08359375,-39.95,0.9202701249999999,34.03
2021-07-08 18:56:30.742187500,-36.0,2.0,53.0,89.085546875,-31.745,0.9201900625,34.03
2021-07-08 18:56:30.750000000,-36.0,2.0,53.0,89.0875,-23.54,0.92011,34.03
2021-07-08 18:56:30.757812500,-36.0,2.0,53.0,89.089453125,-14.485,0.92006996875,34.03
2021-07-08 18:56:30.765625000,-36.0,2.0,53.0,89.09140625,-5.43,0.9200299375,34.03
2021-07-08 18:56:30.773437500,-36.0,2.0,53.0,89.093359375,3.455,0.91998990625,34.03
2021-07-08 18:56:30.781250000,-36.0,2.0,53.0,89.0953125,12.34,0.919949875,34.03
2021-07-08 18:56:30.789062500,-36.0,2.0,53.0,89.097265625,20.32,0.91990984375,34.03
2021-07-08 18:56:30.796875000,-36.0,2.0,53.0,89.09921875,28.3,0.9198698125,34.03
2021-07-08 18:56:30.804687500,-36.0,2.0,53.0,89.101171875,34.995,0.91982978125,34.03
2021-07-08 18:56:30.812500000,-36.0,2.0,53.0,89.103125,41.69,0.91978975,34.03
2021-07-08 18:56:30.820312500,-36.0,2.0,53.25,89.105078125,47.025,0.91974971875,34.03
2021-07-08 18:56:30.828125000,-36.0,2.0,53.5,89.10703125,52.36,0.9197096875,34.03
2021-07-08 18:56:30.835937500,-36.0,2.0,53.75,89.108984375,56.375,0.91966965625,34.03
2021-07-08 18:56:30.843750000,-36.0,2.0,54.0,89.1109375,60.39,0.919629625,34.03
2021-07-08 18:56:30.851562500,-36.0,2.0,53.75,89.112890625,63.105,0.91958959375,34.03
2021-07-08 18:56:30.859375000,-36.0,2.0,53.5,89.11484375,65.82,0.9195495625,34.03
2021-07-08 18:56:30.867187500,-36.0,2.0,53.25,89.116796875,67.225,0.91950953125,34.03
2021-07-08 18:56:30.875000000,-36.0,2.0,53.0,89.11875,68.63,0.9194694999999999,34.03
2021-07-08 18:56:30.882812500,-36.0,2.0,53.0,89.120703125,68.72999999999999,0.91942946875,34.03
2021-07-08 18:56:30.890625000,-36.0,2.0,53.0,89.12265625,68.83,0.9193894375,34.03
2021-07-08 18:56:30.898437500,-36.0,2.0,53.0,89.124609375,67.745,0.91934940625,34.03
2021-07-08 18:56:30.906250000,-36.0,2.0,53.0,89.1265625,66.66,0.919309375,34.03
2021-07-08 18:56:30.914062500,-36.0,2.0,53.0,89.128515625,64.675,0.91926934375,34.03
2021-07-08 18:56:30.921875000,-36.0,2.0,53.0,89.13046875,62.69,0.9192293125,34.03
2021-07-08 18:56:30.929687500,-36.0,2.0,53.0,89.132421875,60.22,0.91918928125,34.03
2021-07-08 18:56:30.937500000,-36.0,2.0,53.0,89.134375,57.75,0.91914925,34.03
2021-07-08 18:56:30.945312500,-36.0,2.0,53.0,89.136328125,55.265,0.91910921875,34.03
2021-07-08 18:56:30.953125000,-36.0,2.0,53.0,89.13828125,52.78,0.9190691875,34.03
2021-07-08 18:56:30.960937500,-36.0,2.0,53.0,89.140234375,50.629999999999995,0.91902915625,34.03
2021-07-08 18:56:30.968750000,-36.0,2.0,53.0,89.1421875,48.48,0.918989125,34.03
2021-07-08 18:56:30.976562500,-36.0,2.0,53.0,89.144140625,46.815,0.91894909375,34.03
2021-07-08 18:56:30.984375000,-36.0,2.0,53.0,89.14609375,45.15,0.9189090625,34.03
2021-07-08 18:56:30.992187500,-36.0,2.0,53.0,89.148046875,43.864999999999995,0.91886903125,34.03
2021-07-08 18:56:31.000000000,-36.0,2.0,53.0,89.15,42.58,0.918829,34.03
2021-07-08 18:56:31.007812500,-36.0,2.0,53.25,89.15140625000001,41.385,0.918668875,34.0290625
2021-07-08 18:56:31.015625000,-36.0,2.0,53.5,89.15281250000001,40.19,0.91850875,34.028125
2021-07-08 18:56:31.023437500,-36.0,2.0,53.75,89.15421875000001,38.769999999999996,0.918348625,34.027187500000004
2021-07-08 18:56:31.031250000,-36.0,2.0,54.0,89.155625,37.35,0.9181885,34.026250000000005
2021-07-08 18:56:31.039062500,-36.0,2.0,54.0,89.15703125,35.5,0.918028375,34.0253125
2021-07-08 18:56:31.046875000,-36.0,2.0,54.0,89.1584375,33.65,0.91786825,34.024375
2021-07-08 18:56:31.054687500,-36.0,2.0,54.0,89.15984375000001,31.365,0.917708125,34.0234375
2021-07-08 18:56:31.062500000,-36.0,2.0,54.0,89.16125000000001,29.08,0.917548,34.0225
2021-07-08 18:56:31.070312500,-36.0,2.0,54.0,89.16265625000001,26.534999999999997,0.917387875,34.0215625
2021-07-08 18:56:31.078125000,-36.0,2.0,54.0,89.1640625,23.99,0.91722775,34.020625
2021-07-08 18:56:31.085937500,-36.0,2.0,54.0,89.16546875,21.45,0.917067625,34.0196875
2021-07-08 18:56:31.093750000,-36.0,2.0,54.0,89.166875,18.91,0.9169075,34.01875
2021-07-08 18:56:31.101562500,-36.0,2.0,53.75,89.16828125,16.560000000000002,0.916747375,34.0178125
2021-07-08 18:56:31.109375000,-36.0,2.0,53.5,89.16968750000001,14.21,0.91658725,34.016875
2021-07-08 18:56:31.117187500,-36.0,2.0,53.25,89.17109375000001,12.09,0.916427125,34.0159375
2021-07-08 18:56:31.125000000,-36.0,2.0,53.0,89.1725,9.97,0.9162669999999999,34.015
2021-07-08 18:56:31.132812500,-36.0,2.0,53.0,89.17390625,7.905,0.916106875,34.0140625
2021-07-08 18:56:31.140625000,-36.0,2.0,53.0,89.1753125,5.84,0.91594675,34.013125
2021-07-08 18:56:31.148437500,-36.0,2.0,53.0,89.17671875,3.4899999999999998,0.915786625,34.0121875
2021-07-08 18:56:31.156250000,-36.0,2.0,53.0,89.17812500000001,1.14,0.9156265,34.011250000000004
2021-07-08 18:56:31.164062500,-36.0,2.0,53.0,89.17953125000001,-1.9149999999999998,0.9154663749999999,34.0103125
2021-07-08 18:56:31.171875000,-36.0,2.0,53.0,89.1809375,-4.97,0.91530625,34.009375
2021-07-08 18:56:31.179687500,-36.0,2.0,53.0,89.18234375,-9.059999999999999,0.915146125,34.0084375
2021-07-08 18:56:31.187500000,-36.0,2.0,53.0,89.18375,-13.15,0.914986,34.0075
2021-07-08 18:56:31.195312500,-36.0,2.0,53.0,89.18515625,-18.385,0.914825875,34.0065625
2021-07-08 18:56:31.203125000,-36.0,2.0,53.0,89.18656250000001,-23.62,0.9146657499999999,34.005625
2021-07-08 18:56:31.210937500,-36.0,2.0,53.0,89.18796875000001,-29.715000000000003,0.914505625,34.0046875
2021-07-08 18:56:31.218750000,-36.0,2.0,53.0,89.189375,-35.81,0.9143455,34.00375
2021-07-08 18:56:31.226562500,-35.75,2.0,53.25,89.19078125,-42.1,0.914185375,34.0028125
2021-07-08 18:56:31.234375000,-35.5,2.0,53.5,89.1921875,-48.39,0.91402525,34.001875
2021-07-08 18:56:31.242187500,-35.25,2.0,53.75,89.19359375,-53.894999999999996,0.913865125,34.0009375
2021-07-08 18:56:31.250000000,-35.0,2.0,54.0,89.19500000000001,-59.4,0.913705,34.0
2021-07-08 18:56:31.257812500,-35.25,2.0,53.75,89.19640625000001,-63.095,0.91374503125,34.0
2021-07-08 18:56:31.265625000,-35.5,2.0,53.5,89.1978125,-66.79,0.9137850625,34.0
2021-07-08 18:56:31.273437500,-35.75,2.0,53.25,89.19921875,-67.85,0.91382509375,34.0
2021-07-08 18:56:31.281250000,-36.0,2.0,53.0,89.200625,-68.91,0.913865125,34.0
2021-07-08 18:56:31.289062500,-36.0,2.0,53.0,89.20203125,-66.965,0.91390515625,34.0
2021-07-08 18:56:31.296875000,-36.0,2.0,53.0,89.2034375,-65.02,0.9139451875,34.0
2021-07-08 18:56:31.304687500,-36.0,2.0,53.0,89.20484375000001,-60.29,0.9139852187499999,34.0
2021-07-08 18:56:31.312500000,-36.0,2.0,53.0,89.20625,-55.56,0.91402525,34.0
2021-07-08 18:56:31.320312500,-36.0,2.0,53.0,89.20765625,-48.725,0.91406528125,34.0
2021-07-08 18:56:31.328125000,-36.0,2.0,53.0,89.2090625,-41.89,0.9141053124999999,34.0
2021-07-08 18:56:31.335937500,-36.0,2.0,53.0,89.21046875,-33.89,0.91414534375,34.0
2021-07-08 18:56:31.343750000,-36.0,2.0,53.0,89.211875,-25.89,0.914185375,34.0
2021-07-08 18:56:31.351562500,-36.0,2.0,53.0,89.21328125000001,-17.705,0.9142254062499999,34.0
2021-07-08 18:56:31.359375000,-36.0,2.0,53.0,89.2146875,-9.52,0.9142654375,34.0
2021-07-08 18:56:31.367187500,-36.0,2.0,53.0,89.21609375,-1.9299999999999997,0.91430546875,34.0
2021-07-08 18:56:31.375000000,-36.0,2.0,53.0,89.2175,5.66,0.9143455,34.0
2021-07-08 18:56:31.382812500,-36.0,2.0,53.0,89.21890625,12.15,0.91438553125,34.0
2021-07-08 18:56:31.390625000,-36.0,2.0,53.0,89.2203125,18.64,0.9144255625,34.0
2021-07-08 18:56:31.398437500,-36.0,2.0,53.0,89.22171875000001,23.810000000000002,0.91446559375,34.0
2021-07-08 18:56:31.406250000,-36.0,2.0,53.0,89.223125,28.98,0.914505625,34.0
2021-07-08 18:56:31.414062500,-36.0,2.0,53.0,89.22453125,32.79,0.91454565625,34.0
2021-07-08 18:56:31.421875000,-36.0,2.0,53.0,89.2259375,36.6,0.9145856875,34.0
2021-07-08 18:56:31.429687500,-36.0,2.0,53.0,89.22734375,39.129999999999995,0.91462571875,34.0
2021-07-08 18:56:31.437500000,-36.0,2.0,53.0,89.22875,41.66,0.9146657499999999,34.0
2021-07-08 18:56:31.445312500,-36.0,2.0,53.0,89.23015625000001,43.0,0.91470578125,34.0
2021-07-08 18:56:31.453125000,-36.0,2.0,53.0,89.2315625,44.34,0.9147458125,34.0
2021-07-08 18:56:31.460937500,-36.0,2.0,53.0,89.23296875,44.57,0.9147858437499999,34.0
2021-07-08 18:56:31.468750000,-36.0,2.0,53.0,89.234375,44.8,0.914825875,34.0
2021-07-08 18:56:31.476562500,-36.0,2.0,53.0,89.23578125,44.019999999999996,0.91486590625,34.0
2021-07-08 18:56:31.484375000,-36.0,2.0,53.0,89.2371875,43.24,0.9149059374999999,34.0
2021-07-08 18:56:31.492187500,-36.0,2.0,53.0,89.23859375,41.620000000000005,0.91494596875,34.0
2021-07-08 18:56:31.500000000,-36.0,2.0,53.0,89.24000000000001,40.0,0.914986,34.0
2021-07-08 18:56:31.507812500,-36.0,2.0,53.0,89.24140625,37.825,0.9147858437499999,34.0
2021-07-08 18:56:31.515625000,-36.0,2.0,53.0,89.2428125,35.65,0.9145856875,34.0
2021-07-08 18:56:31.523437500,-36.0,2.0,53.0,89.24421875,33.265,0.91438553125,34.0
2021-07-08 18:56:31.531250000,-36.0,2.0,53.0,89.245625,30.88,0.914185375,34.0
2021-07-08 18:56:31.539062500,-35.75,2.0,53.25,89.24703125,28.61,0.9139852187499999,34.0
2021-07-08 18:56:31.546875000,-35.5,2.0,53.5,89.24843750000001,26.34,0.9137850624999999,34.0
2021-07-08 18:56:31.554687500,-35.25,2.0,53.75,89.24984375,24.365000000000002,0.91358490625,34.0
2021-07-08 18:56:31.562500000,-35.0,2.0,54.0,89.25125,22.39,0.91338475,34.0
2021-07-08 18:56:31.570312500,-35.25,2.0,53.75,89.25265625,20.705,0.9131845937499999,34.0
2021-07-08 18:56:31.578125000,-35.5,2.0,53.5,89.2540625,19.02,0.9129844375,34.0
2021-07-08 18:56:31.585937500,-35.75,2.0,53.25,89.25546875,17.490000000000002,0.91278428125,34.0
2021-07-08 18:56:31.593750000,-36.0,2.0,53.0,89.25687500000001,15.96,0.912584125,34.0
2021-07-08 18:56:31.601562500,-36.0,2.0,53.0,89.25828125,14.435,0.9123839687499999,34.0
2021-07-08 18:56:31.609375000,-36.0,2.0,53.0,89.2596875,12.91,0.9121838124999999,34.0
2021-07-08 18:56:31.617187500,-36.0,2.0,53.0,89.26109375,11.32,0.91198365625,34.0
2021-07-08 18:56:31.625000000,-36.0,2.0,53.0,89.2625,9.73,0.9117835,34.0
2021-07-08 18:56:31.632812500,-35.75,2.0,53.0,89.26390625,8.17,0.9115833437499999,34.0
2021-07-08 18:56:31.640625000,-35.5,2.0,53.0,89.26531250000001,6.61,0.9113831875,34.0
2021-07-08 18:56:31.648437500,-35.25,2.0,53.0,89.26671875,5.205,0.91118303125,34.0
2021-07-08 18:56:31.656250000,-35.0,2.0,53.0,89.268125,3.8,0.910982875,34.0
2021-07-08 18:56:31.664062500,-35.25,2.0,53.0,89.26953125,2.63,0.9107827187499999,34.0
2021-07-08 18:56:31.671875000,-35.5,2.0,53.0,89.2709375,1.46,0.9105825624999999,34.0
2021-07-08 18:56:31.679687500,-35.75,2.0,53.0,89.27234375,0.43500000000000005,0.91038240625,34.0
2021-07-08 18:56:31.687500000,-36.0,2.0,53.0,89.27375,-0.59,0.91018225,34.0
2021-07-08 18:56:31.695312500,-36.0,2.0,53.0,89.27515625,-1.775,0.9099820937499999,34.0
2021-07-08 18:56:31.703125000,-36.0,2.0,53.0,89.2765625,-2.96,0.9097819375,34.0
2021-07-08 18:56:31.710937500,-36.0,2.0,53.0,89.27796875,-4.6899999999999995,0.90958178125,34.0
2021-07-08 18:56:31.718750000,-36.0,2.0,53.0,89.279375,-6.42,0.909381625,34.0
2021-07-08 18:56:31.726562500,-36.0,2.0,53.0,89.28078125,-9.065000000000001,0.9091814687499999,34.0
2021-07-08 18:56:31.734375000,-36.0,2.0,53.0,89.2821875,-11.71,0.9089813124999999,34.0
2021-07-08 18:56:31.742187500,-36.0,2.0,53.0,89.28359375,-15.42,0.90878115625,34.0
2021-07-08 18:56:31.750000000,-36.0,2.0,53.0,89.285,-19.13,0.908581,34.0
2021-07-08 18:56:31.757812500,-35.75,2.0,53.0,89.28640625,-23.79,0.9087411249999999,34.0
2021-07-08 18:56:31.765625000,-35.5,2.0,53.0,89.2878125,-28.45,0.90890125,34.0
2021-07-08 18:56:31.773437500,-35.25,2.0,53.0,89.28921875,-33.635,0.909061375,34.0
2021-07-08 18:56:31.781250000,-35.0,2.0,53.0,89.290625,-38.82,0.9092215,34.0
2021-07-08 18:56:31.789062500,-35.25,2.0,53.0,89.29203125,-43.86,0.909381625,34.0
2021-07-08 18:56:31.796875000,-35.5,2.0,53.0,89.2934375,-48.9,0.9095417499999999,34.0
2021-07-08 18:56:31.804687500,-35.75,2.0,53.0,89.29484375,-53.019999999999996,0.909701875,34.0
2021-07-08 18:56:31.812500000,-36.0,2.0,53.0,89.29625,-57.14,0.909862,34.0
2021-07-08 18:56:31.820312500,-36.0,2.0,53.0,89.29765625,-59.59,0.910022125,34.0
2021-07-08 18:56:31.828125000,-36.0,2.0,53.0,89.2990625,-62.04,0.91018225,34.0
2021-07-08 18:56:31.835937500,-36.0,2.0,53.0,89.30046875,-62.295,0.9103423749999999,34.0
2021-07-08 18:56:31.843750000,-36.0,2.0,53.0,89.301875,-62.55,0.9105025,34.0
2021-07-08 18:56:31.851562500,-36.0,2.0,53.0,89.30328125,-60.349999999999994,0.910662625,34.0
2021-07-08 18:56:31.859375000,-36.0,2.0,53.0,89.3046875,-58.15,0.91082275,34.0
2021-07-08 18:56:31.867187500,-36.0,2.0,53.0,89.30609375,-53.59,0.910982875,34.0
2021-07-08 18:56:31.875000000,-36.0,2.0,53.0,89.3075,-49.03,0.911143,34.0
2021-07-08 18:56:31.882812500,-36.0,2.0,53.0,89.30890624999999,-42.519999999999996,0.911303125,34.0
2021-07-08 18:56:31.890625000,-36.0,2.0,53.0,89.3103125,-36.01,0.91146325,34.0
2021-07-08 18:56:31.898437500,-36.0,2.0,53.0,89.31171875,-28.24,0.911623375,34.0
2021-07-08 18:56:31.906250000,-36.0,2.0,53.0,89.313125,-20.47,0.9117835,34.0
2021-07-08 18:56:31.914062500,-36.0,2.0,53.0,89.31453125,-12.235,0.911943625,34.0
2021-07-08 18:56:31.921875000,-36.0,2.0,53.0,89.3159375,-4.0,0.91210375,34.0
2021-07-08 18:56:31.929687500,-36.0,2.0,53.0,89.31734374999999,3.8949999999999996,0.912263875,34.0
2021-07-08 18:56:31.937500000,-36.0,2.0,53.0,89.31875,11.79,0.912424,34.0
2021-07-08 18:56:31.945312500,-36.0,2.0,53.0,89.32015625,18.715,0.912584125,34.0
2021-07-08 18:56:31.953125000,-36.0,2.0,53.0,89.3215625,25.64,0.91274425,34.0
2021-07-08 18:56:31.960937500,-36.0,2.0,53.0,89.32296875,31.2,0.912904375,34.0
2021-07-08 18:56:31.968750000,-36.0,2.0,53.0,89.324375,36.76,0.9130645,34.0
2021-07-08 18:56:31.976562500,-36.0,2.0,53.0,89.32578124999999,40.78,0.913224625,34.0
2021-07-08 18:56:31.984375000,-36.0,2.0,53.0,89.3271875,44.8,0.91338475,34.0
2021-07-08 18:56:31.992187500,-36.0,2.0,53.0,89.32859375,47.269999999999996,0.913544875,34.0
2021-07-08 18:56:32.000000000,-36.0,2.0,53.0,89.33,49.74,0.913705,34.0
2021-07-08 18:56:32.007812500,-36.0,2.0,53.0,89.3315625,50.745000000000005,0.91342478125,34.0009375
2021-07-08 18:56:32.015625000,-36.0,2.0,53.0,89.333125,51.75,0.9131445625,34.001875
2021-07-08 18:56:32.023437500,-36.0,2.0,53.0,89.3346875,51.455,0.91286434375,34.0028125
2021-07-08 18:56:32.031250000,-36.0,2.0,53.0,89.33624999999999,51.16,0.912584125,34.00375
2021-07-08 18:56:32.039062500,-36.0,2.0,53.0,89.3378125,49.8,0.91230390625,34.0046875
2021-07-08 18:56:32.046875000,-36.0,2.0,53.0,89.339375,48.44,0.9120236875,34.005625
2021-07-08 18:56:32.054687500,-36.0,2.0,53.0,89.3409375,46.37,0.91174346875,34.0065625
2021-07-08 18:56:32.062500000,-36.0,2.0,53.0,89.3425,44.3,0.91146325,34.0075
2021-07-08 18:56:32.070312500,-36.0,2.0,53.0,89.34406249999999,41.94,0.91118303125,34.0084375
2021-07-08 18:56:32.078125000,-36.0,2.0,53.0,89.345625,39.58,0.9109028125,34.009375
2021-07-08 18:56:32.085937500,-36.0,2.0,53.0,89.3471875,37.33,0.91062259375,34.0103125
2021-07-08 18:56:32.093750000,-36.0,2.0,53.0,89.34875,35.08,0.910342375,34.011250000000004
2021-07-08 18:56:32.101562500,-36.0,2.0,53.0,89.3503125,33.205,0.91006215625,34.0121875
2021-07-08 18:56:32.109375000,-36.0,2.0,53.0,89.35187499999999,31.33,0.9097819375,34.013125
2021-07-08 18:56:32.117187500,-36.0,2.0,53.0,89.3534375,29.835,0.90950171875,34.0140625
2021-07-08 18:56:32.125000000,-36.0,2.0,53.0,89.355,28.34,0.9092215,34.015
2021-07-08 18:56:32.132812500,-36.0,2.0,53.0,89.3565625,27.04,0.9089412812500001,34.0159375
2021-07-08 18:56:32.140625000,-36.0,2.0,53.0,89.358125,25.74,0.9086610625,34.016875
2021-07-08 18:56:32.148437500,-36.0,2.0,53.0,89.35968749999999,24.36,0.90838084375,34.0178125
2021-07-08 18:56:32.156250000,-36.0,2.0,53.0,89.36125,22.98,0.908100625,34.01875
2021-07-08 18:56:32.164062500,-36.0,2.0,53.0,89.3628125,21.314999999999998,0.90782040625,34.0196875
2021-07-08 18:56:32.171875000,-36.0,2.0,53.0,89.364375,19.65,0.9075401875,34.020625
2021-07-08 18:56:32.179687500,-36.0,2.0,53.0,89.3659375,17.66,0.90725996875,34.0215625
2021-07-08 18:56:32.187500000,-36.0,2.0,53.0,89.36749999999999,15.67,0.9069797500000001,34.0225
2021-07-08 18:56:32.195312500,-36.0,2.0,53.0,89.3690625,13.485,0.90669953125,34.0234375
2021-07-08 18:56:32.203125000,-36.0,2.0,53.0,89.370625,11.3,0.9064193125000001,34.024375
2021-07-08 18:56:32.210937500,-36.0,2.0,53.0,89.3721875,9.120000000000001,0.90613909375,34.0253125
2021-07-08 18:56:32.218750000,-36.0,2.0,53.0,89.37375,6.94,0.9058588750000001,34.026250000000005
2021-07-08 18:56:32.226562500,-36.0,2.0,53.0,89.37531249999999,4.88,0.90557865625,34.027187500000004
2021-07-08 18:56:32.234375000,-36.0,2.0,53.0,89.376875,2.82,0.9052984375,34.028125
2021-07-08 18:56:32.242187500,-36.0,2.0,53.0,89.3784375,0.8599999999999999,0.90501821875,34.0290625
2021-07-08 18:56:32.250000000,-36.0,2.0,53.0,89.38,-1.1,0.904738,34.03
2021-07-08 18:56:32.257812500,-36.0,2.0,53.0,89.3815625,-3.185,0.9046579375,34.03
2021-07-08 18:56:32.265625000,-36.0,2.0,53.0,89.38312499999999,-5.27,0.9045778750000001,34.03
2021-07-08 18:56:32.273437500,-36.0,2.0,53.0,89.3846875,-7.83,0.9044978125,34.03
2021-07-08 18:56:32.281250000,-36.0,2.0,53.0,89.38625,-10.39,0.90441775,34.03
2021-07-08 18:56:32.289062500,-36.0,2.0,53.0,89.3878125,-13.77,0.9043376875,34.03
2021-07-08 18:56:32.296875000,-36.0,2.0,53.0,89.389375,-17.15,0.9042576250000001,34.03
2021-07-08 18:56:32.304687500,-36.0,2.0,53.0,89.39093749999999,-21.545,0.9041775625,34.03
2021-07-08 18:56:32.312500000,-36.0,2.0,53.0,89.3925,-25.94,0.9040975,34.03
2021-07-08 18:56:32.320312500,-36.0,2.0,53.0,89.3940625,-31.240000000000002,0.9040174375000001,34.03
2021-07-08 18:56:32.328125000,-36.0,2.0,53.0,89.395625,-36.54,0.903937375,34.03
2021-07-08 18:56:32.335937500,-36.0,2.0,53.0,89.3971875,-42.2,0.9038573125,34.03
2021-07-08 18:56:32.343750000,-36.0,2.0,53.0,89.39874999999999,-47.86,0.90377725,34.03
2021-07-08 18:56:32.351562500,-36.0,2.0,53.25,89.4003125,-52.985,0.9036971875,34.03
2021-07-08 18:56:32.359375000,-36.0,2.0,53.5,89.401875,-58.11,0.903617125,34.03
2021-07-08 18:56:32.367187500,-36.0,2.0,53.75,89.4034375,-61.62,0.9035370625,34.03
2021-07-08 18:56:32.375000000,-36.0,2.0,54.0,89.405,-65.13,0.903457,34.03
2021-07-08 18:56:32.382812500,-36.0,2.0,53.75,89.40656249999999,-66.06,0.9033769375,34.03
2021-07-08 18:56:32.390625000,-36.0,2.0,53.5,89.408125,-66.99,0.903296875,34.03
2021-07-08 18:56:32.398437500,-36.0,2.0,53.25,89.4096875,-64.845,0.9032168125,34.03
2021-07-08 18:56:32.406250000,-36.0,2.0,53.0,89.41125,-62.7,0.90313675,34.03
2021-07-08 18:56:32.414062500,-36.0,2.0,53.0,89.4128125,-57.6,0.9030566875,34.03
2021-07-08 18:56:32.421875000,-36.0,2.0,53.0,89.41437499999999,-52.5,0.902976625,34.03
2021-07-08 18:56:32.429687500,-36.0,2.0,53.0,89.4159375,-45.195,0.9028965624999999,34.03
2021-07-08 18:56:32.437500000,-36.0,2.0,53.0,89.4175,-37.89,0.9028165,34.03
2021-07-08 18:56:32.445312500,-36.0,2.0,53.0,89.4190625,-29.48,0.9027364375,34.03
2021-07-08 18:56:32.453125000,-36.0,2.0,53.0,89.420625,-21.07,0.902656375,34.03
2021-07-08 18:56:32.460937500,-36.0,2.0,53.0,89.42218749999999,-12.685,0.9025763125,34.03
2021-07-08 18:56:32.468750000,-36.0,2.0,53.0,89.42375,-4.3,0.90249625,34.03
2021-07-08 18:56:32.476562500,-36.0,2.0,53.0,89.4253125,3.2299999999999995,0.9024161875,34.03
2021-07-08 18:56:32.484375000,-36.0,2.0,53.0,89.426875,10.76,0.9023361249999999,34.03
2021-07-08 18:56:32.492187500,-36.0,2.0,53.0,89.4284375,17.02,0.9022560625,34.03
2021-07-08 18:56:32.500000000,-36.0,2.0,53.0,89.43,23.28,0.902176,34.03
2021-07-08 18:56:32.507812500,-36.0,2.0,53.0,89.4315625,28.245,0.90213596875,34.03
2021-07-08 18:56:32.515625000,-36.0,2.0,53.0,89.433125,33.21,0.9020959375,34.03
2021-07-08 18:56:32.523437500,-36.0,2.0,53.0,89.4346875,37.010000000000005,0.90205590625,34.03
2021-07-08 18:56:32.531250000,-36.0,2.0,53.0,89.43625,40.81,0.902015875,34.03
2021-07-08 18:56:32.539062500,-36.0,2.0,53.0,89.4378125,43.58,0.90197584375,34.03
2021-07-08 18:56:32.546875000,-36.0,2.0,53.0,89.439375,46.35,0.9019358125,34.03
2021-07-08 18:56:32.554687500,-36.0,2.0,53.0,89.4409375,48.115,0.90189578125,34.03
2021-07-08 18:56:32.562500000,-36.0,2.0,53.0,89.4425,49.88,0.90185575,34.03
2021-07-08 18:56:32.570312500,-36.0,2.0,53.0,89.4440625,50.575,0.90181571875,34.03
2021-07-08 18:56:32.578125000,-36.0,2.0,53.0,89.445625,51.27,0.9017756875,34.03
2021-07-08 18:56:32.585937500,-36.0,2.0,53.0,89.4471875,50.91,0.90173565625,34.03
2021-07-08 18:56:32.593750000,-36.0,2.0,53.0,89.44875,50.55,0.901695625,34.03
2021-07-08 18:56:32.601562500,-36.0,2.0,53.0,89.4503125,49.3,0.90165559375,34.03
2021-07-08 18:56:32.609375000,-36.0,2.0,53.0,89.451875,48.05,0.9016155625,34.03
2021-07-08 18:56:32.617187500,-36.0,2.0,53.0,89.4534375,46.239999999999995,0.90157553125,34.03
2021-07-08 18:56:32.625000000,-36.0,2.0,53.0,89.455,44.43,0.9015355,34.03
2021-07-08 18:56:32.632812500,-36.0,2.0,53.0,89.4565625,42.44,0.90149546875,34.03
2021-07-08 18:56:32.640625000,-36.0,2.0,53.0,89.458125,40.45,0.9014554375,34.03
2021-07-08 18:56:32.648437500,-36.0,2.0,53.0,89.4596875,38.565,0.9014154062499999,34.03
2021-07-08 18:56:32.656250000,-36.0,2.0,53.0,89.46125,36.68,0.901375375,34.03
2021-07-08 18:56:32.664062500,-36.0,2.0,53.25,89.4628125,35.019999999999996,0.90133534375,34.03
2021-07-08 18:56:32.671875000,-36.0,2.0,53.5,89.464375,33.36,0.9012953125,34.03
2021-07-08 18:56:32.679687500,-36.0,2.0,53.75,89.4659375,31.835,0.90125528125,34.03
2021-07-08 18:56:32.687500000,-36.0,2.0,54.0,89.4675,30.31,0.90121525,34.03
2021-07-08 18:56:32.695312500,-36.0,2.0,53.75,89.4690625,28.735,0.90117521875,34.03
2021-07-08 18:56:32.703125000,-36.0,2.0,53.5,89.470625,27.16,0.9011351875,34.03
2021-07-08 18:56:32.710937500,-36.0,2.0,53.25,89.4721875,25.4,0.90109515625,34.03
2021-07-08 18:56:32.718750000,-36.0,2.0,53.0,89.47375,23.64,0.901055125,34.03
2021-07-08 18:56:32.726562500,-35.75,2.0,53.0,89.4753125,21.695,0.90101509375,34.03
2021-07-08 18:56:32.734375000,-35.5,2.0,53.0,89.476875,19.75,0.9009750625,34.03
2021-07-08 18:56:32.742187500,-35.25,2.0,53.0,89.4784375,17.75,0.90093503125,34.03
2021-07-08 18:56:32.750000000,-35.0,2.0,53.0,89.48,15.75,0.900895,34.03
2021-07-08 18:56:32.757812500,-35.25,2.0,53.0,89.4815625,13.885,0.90093503125,34.03
2021-07-08 18:56:32.765625000,-35.5,2.0,53.0,89.483125,12.02,0.9009750625,34.03
2021-07-08 18:56:32.773437500,-35.75,2.0,53.0,89.4846875,10.39,0.90101509375,34.03
2021-07-08 18:56:32.781250000,-36.0,2.0,53.0,89.48625,8.76,0.901055125,34.03
2021-07-08 18:56:32.789062500,-36.0,2.0,53.0,89.4878125,7.25,0.90109515625,34.03
2021-07-08 18:56:32.796875000,-36.0,2.0,53.0,89.489375,5.74,0.9011351875,34.03
2021-07-08 18:56:32.804687500,-36.0,2.0,53.0,89.4909375,4.03,0.90117521875,34.03
2021-07-08 18:56:32.812500000,-36.0,2.0,53.0,89.4925,2.32,0.90121525,34.03
2021-07-08 18:56:32.820312500,-36.0,2.0,53.0,89.4940625,-0.03500000000000014,0.90125528125,34.03
2021-07-08 18:56:32.828125000,-36.0,2.0,53.0,89.495625,-2.39,0.9012953125,34.03
2021-07-08 18:56:32.835937500,-36.0,2.0,53.0,89.4971875,-5.795,0.90133534375,34.03
2021-07-08 18:56:32.843750000,-36.0,2.0,53.0,89.49875,-9.2,0.901375375,34.03
2021-07-08 18:56:32.851562500,-36.0,2.0,53.0,89.5003125,-13.799999999999999,0.9014154062499999,34.03
2021-07-08 18:56:32.859375000,-36.0,2.0,53.0,89.501875,-18.4,0.9014554375,34.03
2021-07-08 18:56:32.867187500,-36.0,2.0,53.0,89.5034375,-23.924999999999997,0.90149546875,34.03
2021-07-08 18:56:32.875000000,-36.0,2.0,53.0,89.505,-29.45,0.9015355,34.03
2021-07-08 18:56:32.882812500,-36.0,2.0,53.0,89.5065625,-35.19,0.90157553125,34.03
2021-07-08 18:56:32.890625000,-36.0,2.0,53.0,89.508125,-40.93,0.9016155625,34.03
2021-07-08 18:56:32.898437500,-36.0,2.0,53.0,89.5096875,-45.86,0.90165559375,34.03
2021-07-08 18:56:32.906250000,-36.0,2.0,53.0,89.51125,-50.79,0.901695625,34.03
2021-07-08 18:56:32.914062500,-36.0,2.0,53.0,89.5128125,-53.894999999999996,0.90173565625,34.03
2021-07-08 18:56:32.921875000,-36.0,2.0,53.0,89.514375,-57.0,0.9017756875,34.03
2021-07-08 18:56:32.929687500,-36.0,2.0,53.0,89.5159375,-57.56,0.90181571875,34.03
2021-07-08 18:56:32.937500000,-36.0,2.0,53.0,89.5175,-58.12,0.90185575,34.03
2021-07-08 18:56:32.945312500,-36.0,2.0,53.0,89.5190625,-55.94,0.90189578125,34.03
2021-07-08 18:56:32.953125000,-36.0,2.0,53.0,89.520625,-53.76,0.9019358125,34.03
2021-07-08 18:56:32.960937500,-36.0,2.0,53.0,89.5221875,-49.185,0.90197584375,34.03
2021-07-08 18:56:32.968750000,-36.0,2.0,53.0,89.52375,-44.61,0.902015875,34.03
2021-07-08 18:56:32.976562500,-36.0,2.0,53.0,89.5253125,-38.370000000000005,0.90205590625,34.03
2021-07-08 18:56:32.984375000,-36.0,2.0,53.0,89.526875,-32.13,0.9020959375,34.03
2021-07-08 18:56:32.992187500,-36.0,2.0,53.0,89.5284375,-25.035000000000004,0.90213596875,34.03
2021-07-08 18:56:33.000000000,-36.0,2.0,53.0,89.53,-17.94,0.902176,34.03
2021-07-08 18:56:33.007812500,-36.0,2.0,53.0,89.531875,-10.685,0.9020959375,34.03
2021-07-08 18:56:33.015625000,-36.0,2.0,53.0,89.53375,-3.43,0.902015875,34.03
2021-07-08 18:56:33.023437500,-36.0,2.0,53.0,89.535625,3.4999999999999996,0.9019358125,34.03
2021-07-08 18:56:33.031250000,-36.0,2.0,53.0,89.5375,10.43,0.90185575,34.03
2021-07-08 18:56:33.039062500,-36.0,2.0,53.0,89.539375,16.73,0.9017756875,34.03
2021-07-08 18:56:33.046875000,-36.0,2.0,53.0,89.54125,23.03,0.901695625,34.03
2021-07-08 18:56:33.054687500,-36.0,2.0,53.0,89.543125,28.435000000000002,0.9016155625,34.03
2021-07-08 18:56:33.062500000,-36.0,2.0,53.0,89.545,33.84,0.9015355,34.03
2021-07-08 18:56:33.070312500,-36.0,2.0,53.0,89.546875,38.065,0.9014554375,34.03
2021-07-08 18:56:33.078125000,-36.0,2.0,53.0,89.54875,42.29,0.901375375,34.03
2021-07-08 18:56:33.085937500,-36.0,2.0,53.0,89.550625,45.055,0.9012953125,34.03
2021-07-08 18:56:33.093750000,-36.0,2.0,53.0,89.5525,47.82,0.90121525,34.03
2021-07-08 18:56:33.101562500,-36.0,2.0,53.0,89.55437500000001,48.985,0.9011351875,34.03
2021-07-08 18:56:33.109375000,-36.0,2.0,53.0,89.55625,50.15,0.901055125,34.03
2021-07-08 18:56:33.117187500,-36.0,2.0,53.0,89.558125,49.795,0.9009750625,34.03
2021-07-08 18:56:33.125000000,-36.0,2.0,53.0,89.56,49.44,0.900895,34.03
2021-07-08 18:56:33.132812500,-36.0,2.0,53.0,89.561875,47.89,0.9008149375,34.03
2021-07-08 18:56:33.140625000,-36.0,2.0,53.0,89.56375,46.34,0.900734875,34.03
2021-07-08 18:56:33.148437500,-36.0,2.0,53.0,89.565625,44.09,0.9006548125,34.03
2021-07-08 18:56:33.156250000,-36.0,2.0,53.0,89.5675,41.84,0.90057475,34.03
2021-07-08 18:56:33.164062500,-36.0,2.0,53.0,89.569375,39.405,0.9004946875000001,34.03
2021-07-08 18:56:33.171875000,-36.0,2.0,53.0,89.57125,36.97,0.900414625,34.03
2021-07-08 18:56:33.179687500,-36.0,2.0,53.0,89.573125,34.724999999999994,0.9003345625,34.03
2021-07-08 18:56:33.187500000,-36.0,2.0,53.0,89.575,32.48,0.9002545,34.03
2021-07-08 18:56:33.195312500,-36.0,2.0,53.0,89.576875,30.57,0.9001744375,34.03
2021-07-08 18:56:33.203125000,-36.0,2.0,53.0,89.57875,28.66,0.900094375,34.03
2021-07-08 18:56:33.210937500,-36.0,2.0,53.0,89.580625,27.03,0.9000143125,34.03
2021-07-08 18:56:33.218750000,-36.0,2.0,53.0,89.5825,25.4,0.89993425,34.03
2021-07-08 18:56:33.226562500,-35.75,2.0,53.25,89.584375,23.88,0.8998541875,34.03
2021-07-08 18:56:33.234375000,-35.5,2.0,53.5,89.58625,22.36,0.899774125,34.03
2021-07-08 18:56:33.242187500,-35.25,2.0,53.75,89.588125,20.805,0.8996940625000001,34.03
2021-07-08 18:56:33.250000000,-35.0,2.0,54.0,89.59,19.25,0.899614,34.03
2021-07-08 18:56:33.257812500,-35.0,2.0,53.75,89.591875,17.6,0.899614,34.03
2021-07-08 18:56:33.265625000,-35.0,2.0,53.5,89.59375,15.95,0.899614,34.03
2021-07-08 18:56:33.273437500,-35.0,2.0,53.25,89.595625,14.285,0.899614,34.03
2021-07-08 18:56:33.281250000,-35.0,2.0,53.0,89.5975,12.62,0.899614,34.03
2021-07-08 18:56:33.289062500,-35.25,2.0,53.0,89.599375,11.075,0.899614,34.03
2021-07-08 18:56:33.296875000,-35.5,2.0,53.0,89.60125,9.53,0.899614,34.03
2021-07-08 18:56:33.304687500,-35.75,2.0,53.0,89.603125,8.19,0.899614,34.03
2021-07-08 18:56:33.312500000,-36.0,2.0,53.0,89.605,6.85,0.899614,34.03
2021-07-08 18:56:33.320312500,-36.0,2.0,53.0,89.606875,5.66,0.899614,34.03
2021-07-08 18:56:33.328125000,-36.0,2.0,53.0,89.60875,4.47,0.899614,34.03
2021-07-08 18:56:33.335937500,-36.0,2.0,53.0,89.610625,3.2399999999999998,0.899614,34.03
2021-07-08 18:56:33.343750000,-36.0,2.0,53.0,89.6125,2.01,0.899614,34.03
2021-07-08 18:56:33.351562500,-36.0,2.0,53.0,89.614375,0.43500000000000005,0.899614,34.03
2021-07-08 18:56:33.359375000,-36.0,2.0,53.0,89.61625,-1.14,0.899614,34.03
2021-07-08 18:56:33.367187500,-36.0,2.0,53.0,89.618125,-3.375,0.899614,34.03
2021-07-08 18:56:33.375000000,-36.0,2.0,53.0,89.62,-5.61,0.899614,34.03
2021-07-08 18:56:33.382812500,-36.0,2.0,53.0,89.621875,-8.725,0.899614,34.03
2021-07-08 18:56:33.390625000,-36.0,2.0,53.0,89.62375,-11.84,0.899614,34.03
2021-07-08 18:56:33.398437500,-36.0,2.0,53.0,89.625625,-15.85,0.899614,34.03
2021-07-08 18:56:33.406250000,-36.0,2.0,53.0,89.6275,-19.86,0.899614,34.03
2021-07-08 18:56:33.414062500,-36.0,2.0,53.0,89.629375,-24.515,0.899614,34.03
2021-07-08 18:56:33.421875000,-36.0,2.0,53.0,89.63125,-29.17,0.899614,34.03
2021-07-08 18:56:33.429687500,-36.0,2.0,53.0,89.63312499999999,-33.925,0.899614,34.03
2021-07-08 18:56:33.437500000,-36.0,2.0,53.0,89.635,-38.68,0.899614,34.03
2021-07-08 18:56:33.445312500,-36.0,2.0,53.0,89.636875,-42.765,0.899614,34.03
2021-07-08 18:56:33.453125000,-36.0,2.0,53.0,89.63875,-46.85,0.899614,34.03
2021-07-08 18:56:33.460937500,-36.0,2.0,53.0,89.640625,-49.41,0.899614,34.03
2021-07-08 18:56:33.468750000,-36.0,2.0,53.0,89.6425,-51.97,0.899614,34.03
2021-07-08 18:56:33.476562500,-36.0,2.0,53.0,89.644375,-52.325,0.899614,34.03
2021-07-08 18:56:33.484375000,-36.0,2.0,53.0,89.64625,-52.68,0.899614,34.03
2021-07-08 18:56:33.492187500,-36.0,2.0,53.0,89.648125,-50.54,0.899614,34.03
2021-07-08 18:56:33.500000000,-36.0,2.0,53.0,89.65,-48.4,0.899614,34.03
2021-07-08 18:56:33.507812500,-36.0,2.0,53.0,89.651875,-43.955,0.8993738125,34.03
2021-07-08 18:56:33.515625000,-36.0,2.0,53.0,89.65375,-39.51,0.899133625,34.03
2021-07-08 18:56:33.523437500,-36.0,2.0,53.0,89.655625,-33.4,0.8988934375000001,34.03
2021-07-08 18:56:33.531250000,-36.0,2.0,53.0,89.6575,-27.29,0.8986532500000001,34.03
2021-07-08 18:56:33.539062500,-36.0,2.0,53.0,89.659375,-20.375,0.8984130625000001,34.03
2021-07-08 18:56:33.546875000,-36.0,2.0,53.0,89.66125,-13.46,0.898172875,34.03
2021-07-08 18:56:33.554687500,-36.0,2.0,53.0,89.663125,-6.545000000000001,0.8979326875,34.03
2021-07-08 18:56:33.562500000,-36.0,2.0,53.0,89.66499999999999,0.37,0.8976925,34.03
2021-07-08 18:56:33.570312500,-36.0,2.0,53.0,89.666875,6.69,0.8974523125,34.03
2021-07-08 18:56:33.578125000,-36.0,2.0,53.0,89.66875,13.01,0.897212125,34.03
2021-07-08 18:56:33.585937500,-36.0,2.0,53.0,89.670625,18.419999999999998,0.8969719375,34.03
2021-07-08 18:56:33.593750000,-36.0,2.0,53.0,89.6725,23.83,0.89673175,34.03
2021-07-08 18:56:33.601562500,-36.0,2.0,53.0,89.674375,28.18,0.8964915625000001,34.03
2021-07-08 18:56:33.609375000,-36.0,2.0,53.0,89.67625,32.53,0.8962513750000001,34.03
2021-07-08 18:56:33.617187500,-36.0,2.0,53.0,89.678125,35.745000000000005,0.8960111875000001,34.03
2021-07-08 18:56:33.625000000,-36.0,2.0,53.0,89.67999999999999,38.96,0.8957710000000001,34.03
2021-07-08 18:56:33.632812500,-36.0,2.0,53.0,89.68187499999999,40.965,0.8955308125,34.03
2021-07-08 18:56:33.640625000,-36.0,2.0,53.0,89.68375,42.97,0.895290625,34.03
2021-07-08 18:56:33.648437500,-36.0,2.0,53.0,89.685625,43.765,0.8950504375,34.03
2021-07-08 18:56:33.656250000,-36.0,2.0,53.0,89.6875,44.56,0.89481025,34.03
2021-07-08 18:56:33.664062500,-36.0,2.0,53.0,89.689375,44.28,0.8945700625,34.03
2021-07-08 18:56:33.671875000,-36.0,2.0,53.0,89.69125,44.0,0.894329875,34.03
2021-07-08 18:56:33.679687500,-36.0,2.0,53.0,89.693125,42.925,0.8940896875000001,34.03
2021-07-08 18:56:33.687500000,-36.0,2.0,53.0,89.695,41.85,0.8938495000000001,34.03
2021-07-08 18:56:33.695312500,-36.0,2.0,53.0,89.69687499999999,40.375,0.8936093125000001,34.03
2021-07-08 18:56:33.703125000,-36.0,2.0,53.0,89.69875,38.9,0.8933691250000001,34.03
2021-07-08 18:56:33.710937500,-36.0,2.0,53.0,89.700625,37.375,0.8931289375,34.03
2021-07-08 18:56:33.718750000,-36.0,2.0,53.0,89.7025,35.85,0.89288875,34.03
2021-07-08 18:56:33.726562500,-36.0,2.0,53.0,89.704375,34.495000000000005,0.8926485625,34.03
2021-07-08 18:56:33.734375000,-36.0,2.0,53.0,89.70625,33.14,0.892408375,34.03
2021-07-08 18:56:33.742187500,-36.0,2.0,53.0,89.708125,31.97,0.8921681875,34.03
2021-07-08 18:56:33.750000000,-36.0,2.0,53.0,89.71,30.8,0.891928,34.03
2021-07-08 18:56:33.757812500,-36.0,2.0,53.0,89.71187499999999,29.700000000000003,0.8920080625000001,34.03
2021-07-08 18:56:33.765625000,-36.0,2.0,53.0,89.71374999999999,28.6,0.892088125,34.03
2021-07-08 18:56:33.773437500,-36.0,2.0,53.0,89.715625,27.42,0.8921681875,34.03
2021-07-08 18:56:33.781250000,-36.0,2.0,53.0,89.7175,26.24,0.8922482500000001,34.03
2021-07-08 18:56:33.789062500,-36.0,2.0,53.0,89.719375,24.93,0.8923283125,34.03
2021-07-08 18:56:33.796875000,-36.0,2.0,53.0,89.72125,23.62,0.892408375,34.03
2021-07-08 18:56:33.804687500,-36.0,2.0,53.0,89.723125,22.22,0.8924884375000001,34.03
2021-07-08 18:56:33.812500000,-36.0,2.0,53.0,89.725,20.82,0.8925685000000001,34.03
2021-07-08 18:56:33.820312500,-36.0,2.0,53.0,89.72687499999999,19.439999999999998,0.8926485625,34.03
2021-07-08 18:56:33.828125000,-36.0,2.0,53.0,89.72874999999999,18.06,0.892728625,34.03
2021-07-08 18:56:33.835937500,-36.0,2.0,53.0,89.730625,16.785,0.8928086875000001,34.03
2021-07-08 18:56:33.843750000,-36.0,2.0,53.0,89.7325,15.51,0.89288875,34.03
2021-07-08 18:56:33.851562500,-36.0,2.0,53.0,89.734375,14.3,0.8929688125,34.03
2021-07-08 18:56:33.859375000,-36.0,2.0,53.0,89.73625,13.09,0.8930488750000001,34.03
2021-07-08 18:56:33.867187500,-36.0,2.0,53.0,89.738125,11.780000000000001,0.8931289375,34.03
2021-07-08 18:56:33.875000000,-36.0,2.0,53.0,89.74,10.47,0.893209,34.03
2021-07-08 18:56:33.882812500,-36.0,2.0,53.0,89.741875,8.780000000000001,0.8932890625000001,34.03
2021-07-08 18:56:33.890625000,-36.0,2.0,53.0,89.74374999999999,7.09,0.893369125,34.03
2021-07-08 18:56:33.898437500,-36.0,2.0,53.0,89.74562499999999,4.755,0.8934491875,34.03
2021-07-08 18:56:33.906250000,-36.0,2.0,53.0,89.7475,2.42,0.89352925,34.03
2021-07-08 18:56:33.914062500,-36.0,2.0,53.25,89.749375,-0.7149999999999999,0.8936093125,34.03
2021-07-08 18:56:33.921875000,-36.0,2.0,53.5,89.75125,-3.85,0.893689375,34.03
2021-07-08 18:56:33.929687500,-36.0,2.0,53.75,89.753125,-7.725,0.8937694375,34.03
2021-07-08 18:56:33.937500000,-36.0,2.0,54.0,89.755,-11.6,0.8938495,34.03
2021-07-08 18:56:33.945312500,-36.0,2.0,54.0,89.756875,-15.895,0.8939295625,34.03
2021-07-08 18:56:33.953125000,-36.0,2.0,54.0,89.75874999999999,-20.19,0.894009625,34.03
2021-07-08 18:56:33.960937500,-36.0,2.0,54.0,89.76062499999999,-24.35,0.8940896875000001,34.03
2021-07-08 18:56:33.968750000,-36.0,2.0,54.0,89.7625,-28.51,0.89416975,34.03
2021-07-08 18:56:33.976562500,-36.0,2.0,53.75,89.764375,-31.825000000000003,0.8942498125,34.03
2021-07-08 18:56:33.984375000,-36.0,2.0,53.5,89.76625,-35.14,0.894329875,34.03
2021-07-08 18:56:33.992187500,-36.0,2.0,53.25,89.768125,-36.93,0.8944099375,34.03
2021-07-08 18:56:34.000000000,-36.0,2.0,53.0,89.77,-38.72,0.89449,34.03
2021-07-08 18:56:34.007812500,-36.0,2.0,53.25,89.77429687499999,-38.535,0.89436990625,34.03
2021-07-08 18:56:34.015625000,-36.0,2.0,53.5,89.77859375,-38.35,0.8942498125,34.03
2021-07-08 18:56:34.023437500,-36.0,2.0,53.75,89.782890625,-36.08,0.89412971875,34.03
2021-07-08 18:56:34.031250000,-36.0,2.0,54.0,89.7871875,-33.81,0.894009625,34.03
2021-07-08 18:56:34.039062500,-36.0,2.0,53.75,89.791484375,-29.765,0.89388953125,34.03
2021-07-08 18:56:34.046875000,-36.0,2.0,53.5,89.79578124999999,-25.72,0.8937694375,34.03
2021-07-08 18:56:34.054687500,-36.0,2.0,53.25,89.800078125,-20.509999999999998,0.89364934375,34.03
2021-07-08 18:56:34.062500000,-36.0,2.0,53.0,89.804375,-15.3,0.89352925,34.03
2021-07-08 18:56:34.070312500,-36.0,2.0,53.0,89.808671875,-9.665000000000001,0.89340915625,34.03
2021-07-08 18:56:34.078125000,-36.0,2.0,53.0,89.81296875,-4.03,0.8932890625,34.03
2021-07-08 18:56:34.085937500,-36.0,2.0,53.0,89.81726562499999,1.3649999999999993,0.89316896875,34.03
2021-07-08 18:56:34.093750000,-36.0,2.0,53.0,89.8215625,6.76,0.893048875,34.03
2021-07-08 18:56:34.101562500,-36.0,2.0,53.0,89.825859375,11.469999999999999,0.89292878125,34.03
2021-07-08 18:56:34.109375000,-36.0,2.0,53.0,89.83015625,16.18,0.8928086875,34.03
2021-07-08 18:56:34.117187500,-36.0,2.0,53.0,89.834453125,20.0,0.89268859375,34.03
2021-07-08 18:56:34.125000000,-36.0,2.0,53.0,89.83874999999999,23.82,0.8925685,34.03
2021-07-08 18:56:34.132812500,-36.0,2.0,53.0,89.843046875,26.705,0.89244840625,34.03
2021-07-08 18:56:34.140625000,-36.0,2.0,53.0,89.84734375,29.59,0.8923283125,34.03
2021-07-08 18:56:34.148437500,-36.0,2.0,53.0,89.851640625,31.54,0.89220821875,34.03
2021-07-08 18:56:34.156250000,-36.0,2.0,53.0,89.8559375,33.49,0.892088125,34.03
2021-07-08 18:56:34.164062500,-36.0,2.0,53.0,89.86023437499999,34.510000000000005,0.89196803125,34.03
2021-07-08 18:56:34.171875000,-36.0,2.0,53.0,89.86453125,35.53,0.8918479375,34.03
2021-07-08 18:56:34.179687500,-36.0,2.0,53.0,89.868828125,35.64,0.89172784375,34.03
2021-07-08 18:56:34.187500000,-36.0,2.0,53.0,89.873125,35.75,0.8916077499999999,34.03
2021-07-08 18:56:34.195312500,-36.0,2.0,53.0,89.877421875,35.019999999999996,0.8914876562499999,34.03
2021-07-08 18:56:34.203125000,-36.0,2.0,53.0,89.88171874999999,34.29,0.8913675624999999,34.03
2021-07-08 18:56:34.210937500,-36.0,2.0,53.0,89.886015625,32.885,0.8912474687499999,34.03
2021-07-08 18:56:34.218750000,-36.0,2.0,53.0,89.8903125,31.48,0.8911273749999999,34.03
2021-07-08 18:56:34.226562500,-36.0,2.0,53.0,89.894609375,29.605,0.89100728125,34.03
2021-07-08 18:56:34.234375000,-36.0,2.0,53.0,89.89890625,27.73,0.8908871875,34.03
2021-07-08 18:56:34.242187500,-36.0,2.0,53.0,89.90320312499999,25.630000000000003,0.89076709375,34.03
2021-07-08 18:56:34.250000000,-36.0,2.0,53.0,89.9075,23.53,0.890647,34.03
2021-07-08 18:56:34.257812500,-36.0,2.0,53.0,89.911796875,21.384999999999998,0.8906870312499999,34.03
2021-07-08 18:56:34.265625000,-36.0,2.0,53.0,89.91609375,19.24,0.8907270625,34.03
2021-07-08 18:56:34.273437500,-36.0,2.0,53.0,89.920390625,17.18,0.89076709375,34.03
2021-07-08 18:56:34.281250000,-36.0,2.0,53.0,89.92468749999999,15.12,0.890807125,34.03
2021-07-08 18:56:34.289062500,-35.75,2.0,53.25,89.928984375,13.25,0.89084715625,34.03
2021-07-08 18:56:34.296875000,-35.5,2.0,53.5,89.93328125,11.38,0.8908871875,34.03
2021-07-08 18:56:34.304687500,-35.25,2.0,53.75,89.937578125,9.795000000000002,0.89092721875,34.03
2021-07-08 18:56:34.312500000,-35.0,2.0,54.0,89.941875,8.21,0.89096725,34.03
2021-07-08 18:56:34.320312500,-35.25,2.0,53.75,89.94617187499999,7.0200000000000005,0.89100728125,34.03
2021-07-08 18:56:34.328125000,-35.5,2.0,53.5,89.95046875,5.83,0.8910473125,34.03
2021-07-08 18:56:34.335937500,-35.75,2.0,53.25,89.954765625,5.08,0.89108734375,34.03
2021-07-08 18:56:34.343750000,-36.0,2.0,53.0,89.9590625,4.33,0.8911273749999999,34.03
2021-07-08 18:56:34.351562500,-36.0,2.0,53.0,89.963359375,3.98,0.89116740625,34.03
2021-07-08 18:56:34.359375000,-36.0,2.0,53.0,89.96765624999999,3.63,0.8912074375,34.03
2021-07-08 18:56:34.367187500,-36.0,2.0,53.0,89.971953125,3.525,0.89124746875,34.03
2021-07-08 18:56:34.375000000,-36.0,2.0,53.0,89.97625,3.42,0.8912875,34.03
2021-07-08 18:56:34.382812500,-36.0,2.0,53.25,89.980546875,3.29,0.89132753125,34.03
2021-07-08 18:56:34.390625000,-36.0,2.0,53.5,89.98484375,3.16,0.8913675625,34.03
2021-07-08 18:56:34.398437500,-36.0,2.0,53.75,89.98914062499999,2.675,0.89140759375,34.03
2021-07-08 18:56:34.406250000,-36.0,2.0,54.0,89.9934375,2.19,0.8914476250000001,34.03
2021-07-08 18:56:34.414062500,-36.0,2.0,54.0,89.997734375,1.04,0.89148765625,34.03
2021-07-08 18:56:34.421875000,-36.0,2.0,54.0,90.00203125,-0.11,0.8915276875,34.03
2021-07-08 18:56:34.429687500,-36.0,2.0,54.0,90.006328125,-2.1399999999999997,0.8915677187500001,34.03
2021-07-08 18:56:34.437500000,-36.0,2.0,54.0,90.01062499999999,-4.17,0.89160775,34.03
2021-07-08 18:56:34.445312500,-36.0,2.0,54.0,90.014921875,-7.125,0.89164778125,34.03
2021-07-08 18:56:34.453125000,-36.0,2.0,54.0,90.01921875,-10.08,0.8916878125000001,34.03
2021-07-08 18:56:34.460937500,-36.0,2.0,54.0,90.023515625,-13.760000000000002,0.89172784375,34.03
2021-07-08 18:56:34.468750000,-36.0,2.0,54.0,90.0278125,-17.44,0.891767875,34.03
2021-07-08 18:56:34.476562500,-36.0,2.0,53.75,90.03210937499999,-21.36,0.8918079062500001,34.03
2021-07-08 18:56:34.484375000,-36.0,2.0,53.5,90.03640625,-25.28,0.8918479375,34.03
2021-07-08 18:56:34.492187500,-36.0,2.0,53.25,90.040703125,-28.735,0.8918879687500001,34.03
2021-07-08 18:56:34.500000000,-36.0,2.0,53.0,90.04499999999999,-32.19,0.891928,34.03
2021-07-08 18:56:34.507812500,-36.0,2.0,53.0,90.049296875,-34.415,0.8918479375,34.03
2021-07-08 18:56:34.515625000,-36.0,2.0,53.0,90.05359374999999,-36.64,0.8917678750000001,34.03
2021-07-08 18:56:34.523437500,-36.0,2.0,53.0,90.057890625,-36.995000000000005,0.8916878125000001,34.03
2021-07-08 18:56:34.531250000,-36.0,2.0,53.0,90.0621875,-37.35,0.89160775,34.03
2021-07-08 18:56:34.539062500,-36.0,2.0,53.0,90.06648437499999,-35.565,0.8915276875,34.03
2021-07-08 18:56:34.546875000,-36.0,2.0,53.0,90.07078125,-33.78,0.8914476250000001,34.03
2021-07-08 18:56:34.554687500,-36.0,2.0,53.0,90.07507812499999,-30.045,0.8913675625,34.03
2021-07-08 18:56:34.562500000,-36.0,2.0,53.0,90.079375,-26.31,0.8912875,34.03
2021-07-08 18:56:34.570312500,-36.0,2.0,53.0,90.083671875,-21.195,0.8912074375000001,34.03
2021-07-08 18:56:34.578125000,-36.0,2.0,53.0,90.08796874999999,-16.08,0.891127375,34.03
2021-07-08 18:56:34.585937500,-36.0,2.0,53.0,90.092265625,-10.375,0.8910473125,34.03
2021-07-08 18:56:34.593750000,-36.0,2.0,53.0,90.09656249999999,-4.67,0.89096725,34.03
2021-07-08 18:56:34.601562500,-36.0,2.0,53.0,90.100859375,0.9000000000000004,0.8908871875000001,34.03
2021-07-08 18:56:34.609375000,-36.0,2.0,53.0,90.10515625,6.47,0.890807125,34.03
2021-07-08 18:56:34.617187500,-36.0,2.0,53.0,90.10945312499999,11.395,0.8907270625,34.03
2021-07-08 18:56:34.625000000,-36.0,2.0,53.0,90.11375,16.32,0.890647,34.03
2021-07-08 18:56:34.632812500,-36.0,2.0,53.25,90.11804687499999,20.355,0.8905669375,34.03
2021-07-08 18:56:34.640625000,-36.0,2.0,53.5,90.12234375,24.39,0.890486875,34.03
2021-07-08 18:56:34.648437500,-36.0,2.0,53.75,90.126640625,27.515,0.8904068125,34.03
2021-07-08 18:56:34.656250000,-36.0,2.0,54.0,90.13093749999999,30.64,0.8903267500000001,34.03
2021-07-08 18:56:34.664062500,-36.0,2.0,53.75,90.135234375,32.89,0.8902466875,34.03
2021-07-08 18:56:34.671875000,-36.0,2.0,53.5,90.13953124999999,35.14,0.890166625,34.03
2021-07-08 18:56:34.679687500,-36.0,2.0,53.25,90.143828125,36.55,0.8900865625,34.03
2021-07-08 18:56:34.687500000,-36.0,2.0,53.0,90.148125,37.96,0.8900065,34.03
2021-07-08 18:56:34.695312500,-36.0,2.0,53.0,90.15242187499999,38.535,0.8899264375,34.03
2021-07-08 18:56:34.703125000,-36.0,2.0,53.0,90.15671875,39.11,0.889846375,34.03
2021-07-08 18:56:34.710937500,-36.0,2.0,53.0,90.16101562499999,38.845,0.8897663125,34.03
2021-07-08 18:56:34.718750000,-36.0,2.0,53.0,90.1653125,38.58,0.88968625,34.03
2021-07-08 18:56:34.726562500,-36.0,2.0,53.0,90.169609375,37.535,0.8896061875,34.03
2021-07-08 18:56:34.734375000,-36.0,2.0,53.0,90.17390624999999,36.49,0.889526125,34.03
2021-07-08 18:56:34.742187500,-36.0,2.0,53.0,90.178203125,34.845,0.8894460625,34.03
2021-07-08 18:56:34.750000000,-36.0,2.0,53.0,90.18249999999999,33.2,0.889366,34.03
2021-07-08 18:56:34.757812500,-36.0,2.0,53.0,90.186796875,31.200000000000003,0.88940603125,34.03
2021-07-08 18:56:34.765625000,-36.0,2.0,53.0,90.19109375,29.2,0.8894460625,34.03
2021-07-08 18:56:34.773437500,-36.0,2.0,53.0,90.19539062499999,27.125,0.88948609375,34.03
2021-07-08 18:56:34.781250000,-36.0,2.0,53.0,90.1996875,25.05,0.889526125,34.03
2021-07-08 18:56:34.789062500,-36.0,2.0,53.0,90.20398437499999,23.105,0.88956615625,34.03
2021-07-08 18:56:34.796875000,-36.0,2.0,53.0,90.20828125,21.16,0.8896061875,34.03
2021-07-08 18:56:34.804687500,-36.0,2.0,53.0,90.212578125,19.445,0.8896462187499999,34.03
2021-07-08 18:56:34.812500000,-36.0,2.0,53.0,90.21687499999999,17.73,0.88968625,34.03
2021-07-08 18:56:34.820312500,-36.0,2.0,53.0,90.221171875,16.215,0.88972628125,34.03
2021-07-08 18:56:34.828125000,-36.0,2.0,53.0,90.22546874999999,14.7,0.8897663124999999,34.03
2021-07-08 18:56:34.835937500,-36.0,2.0,53.0,90.229765625,13.309999999999999,0.88980634375,34.03
2021-07-08 18:56:34.843750000,-36.0,2.0,53.0,90.2340625,11.92,0.889846375,34.03
2021-07-08 18:56:34.851562500,-36.0,2.0,53.0,90.23835937499999,10.575,0.8898864062499999,34.03
2021-07-08 18:56:34.859375000,-36.0,2.0,53.0,90.24265625,9.23,0.8899264375,34.03
2021-07-08 18:56:34.867187500,-36.0,2.0,53.0,90.24695312499999,7.92,0.88996646875,34.03
2021-07-08 18:56:34.875000000,-36.0,2.0,53.0,90.25125,6.61,0.8900064999999999,34.03
2021-07-08 18:56:34.882812500,-36.0,2.0,53.0,90.255546875,5.380000000000001,0.89004653125,34.03
2021-07-08 18:56:34.890625000,-36.0,2.0,53.0,90.25984374999999,4.15,0.8900865625,34.03
2021-07-08 18:56:34.898437500,-36.0,2.0,53.0,90.264140625,3.045,0.89012659375,34.03
2021-07-08 18:56:34.906250000,-36.0,2.0,53.0,90.26843749999999,1.94,0.890166625,34.03
2021-07-08 18:56:34.914062500,-36.0,2.0,53.0,90.272734375,0.935,0.89020665625,34.03
2021-07-08 18:56:34.921875000,-36.0,2.0,53.0,90.27703125,-0.07,0.8902466875,34.03
2021-07-08 18:56:34.929687500,-36.0,2.0,53.0,90.28132812499999,-1.1150000000000002,0.89028671875,34.03
2021-07-08 18:56:34.937500000,-36.0,2.0,53.0,90.285625,-2.16,0.89032675,34.03
2021-07-08 18:56:34.945312500,-36.0,2.0,53.0,90.28992187499999,-3.485,0.89036678125,34.03
2021-07-08 18:56:34.953125000,-36.0,2.0,53.0,90.29421875,-4.81,0.8904068125,34.03
2021-07-08 18:56:34.960937500,-36.0,2.0,53.0,90.298515625,-6.664999999999999,0.8904468437499999,34.03
2021-07-08 18:56:34.968750000,-36.0,2.0,53.0,90.30281249999999,-8.52,0.890486875,34.03
2021-07-08 18:56:34.976562500,-36.0,2.0,53.0,90.307109375,-11.07,0.89052690625,34.03
2021-07-08 18:56:34.984375000,-36.0,2.0,53.0,90.31140624999999,-13.62,0.8905669374999999,34.03
2021-07-08 18:56:34.992187500,-36.0,2.0,53.0,90.315703125,-16.835,0.89060696875,34.03
2021-07-08 18:56:35.000000000,-36.0,2.0,53.0,90.32,-20.05,0.890647,34.03
2021-07-08 18:56:35.007812500,-36.0,2.0,53.0,90.32453124999999,-23.65,0.8904468125,34.0290625
2021-07-08 18:56:35.015625000,-36.0,2.0,53.0,90.32906249999999,-27.25,0.890246625,34.028125
2021-07-08 18:56:35.023437500,-36.0,2.0,53.0,90.33359374999999,-30.725,0.8900464375,34.027187500000004
2021-07-08 18:56:35.031250000,-36.0,2.0,53.0,90.33812499999999,-34.2,0.88984625,34.026250000000005
2021-07-08 18:56:35.039062500,-36.0,2.0,53.0,90.34265624999999,-36.915000000000006,0.8896460625,34.0253125
2021-07-08 18:56:35.046875000,-36.0,2.0,53.0,90.34718749999999,-39.63,0.8894458749999999,34.024375
2021-07-08 18:56:35.054687500,-36.0,2.0,53.0,90.35171874999999,-40.985,0.8892456875,34.0234375
2021-07-08 18:56:35.062500000,-36.0,2.0,53.0,90.35624999999999,-42.34,0.8890454999999999,34.0225
2021-07-08 18:56:35.070312500,-36.0,2.0,53.0,90.36078124999999,-41.925,0.8888453125,34.0215625
2021-07-08 18:56:35.078125000,-36.0,2.0,53.0,90.36531249999999,-41.51,0.888645125,34.020625
2021-07-08 18:56:35.085937500,-36.0,2.0,53.0,90.36984375,-39.265,0.8884449375,34.0196875
2021-07-08 18:56:35.093750000,-36.0,2.0,53.0,90.374375,-37.02,0.88824475,34.01875
2021-07-08 18:56:35.101562500,-36.0,2.0,53.0,90.37890625,-33.245000000000005,0.8880445625,34.0178125
2021-07-08 18:56:35.109375000,-36.0,2.0,53.0,90.3834375,-29.47,0.887844375,34.016875
2021-07-08 18:56:35.117187500,-36.0,2.0,53.0,90.38796875,-24.735,0.8876441875,34.0159375
2021-07-08 18:56:35.125000000,-36.0,2.0,53.0,90.3925,-20.0,0.887444,34.015
2021-07-08 18:56:35.132812500,-36.0,2.0,53.0,90.39703125,-14.99,0.8872438125000001,34.0140625
2021-07-08 18:56:35.140625000,-36.0,2.0,53.0,90.4015625,-9.98,0.887043625,34.013125
2021-07-08 18:56:35.148437500,-36.0,2.0,53.0,90.40609375,-5.29,0.8868434375,34.0121875
2021-07-08 18:56:35.156250000,-36.0,2.0,53.0,90.410625,-0.6,0.88664325,34.011250000000004
2021-07-08 18:56:35.164062500,-36.0,2.0,53.0,90.41515625,3.3699999999999997,0.8864430625,34.0103125
2021-07-08 18:56:35.171875000,-36.0,2.0,53.0,90.4196875,7.34,0.886242875,34.009375
2021-07-08 18:56:35.179687500,-36.0,2.0,53.0,90.42421875,10.405000000000001,0.8860426875,34.0084375
2021-07-08 18:56:35.187500000,-36.0,2.0,53.0,90.42875,13.47,0.8858425000000001,34.0075
2021-07-08 18:56:35.195312500,-36.0,2.0,53.0,90.43328125,15.585,0.8856423125,34.0065625
2021-07-08 18:56:35.203125000,-36.0,2.0,53.0,90.43781249999999,17.7,0.8854421250000001,34.005625
2021-07-08 18:56:35.210937500,-36.0,2.0,53.0,90.44234374999999,18.905,0.8852419375,34.0046875
2021-07-08 18:56:35.218750000,-36.0,2.0,53.0,90.44687499999999,20.11,0.8850417500000001,34.00375
2021-07-08 18:56:35.226562500,-36.0,2.0,53.0,90.45140624999999,20.46,0.8848415625,34.0028125
2021-07-08 18:56:35.234375000,-36.0,2.0,53.0,90.45593749999999,20.81,0.8846413750000001,34.001875
2021-07-08 18:56:35.242187500,-36.0,2.0,53.0,90.46046874999999,20.384999999999998,0.8844411875,34.0009375
2021-07-08 18:56:35.250000000,-36.0,2.0,53.0,90.465,19.96,0.884241,34.0
2021-07-08 18:56:35.257812500,-35.75,2.0,53.25,90.46953125,18.89,0.88432109375,34.0
2021-07-08 18:56:35.265625000,-35.5,2.0,53.5,90.4740625,17.82,0.8844011875000001,34.0
2021-07-08 18:56:35.273437500,-35.25,2.0,53.75,90.47859375,16.28,0.88448128125,34.0
2021-07-08 18:56:35.281250000,-35.0,2.0,54.0,90.483125,14.74,0.8845613750000001,34.0
2021-07-08 18:56:35.289062500,-35.25,2.0,53.75,90.48765625,12.945,0.88464146875,34.0
2021-07-08 18:56:35.296875000,-35.5,2.0,53.5,90.4921875,11.15,0.8847215625,34.0
2021-07-08 18:56:35.304687500,-35.75,2.0,53.25,90.49671875,9.305,0.8848016562500001,34.0
2021-07-08 18:56:35.312500000,-36.0,2.0,53.0,90.50125,7.46,0.88488175,34.0
2021-07-08 18:56:35.320312500,-36.0,2.0,53.0,90.50578125,5.73,0.8849618437500001,34.0
2021-07-08 18:56:35.328125000,-36.0,2.0,53.0,90.5103125,4.0,0.8850419375,34.0
2021-07-08 18:56:35.335937500,-36.0,2.0,53.0,90.51484375,2.48,0.88512203125,34.0
2021-07-08 18:56:35.343750000,-36.0,2.0,53.0,90.519375,0.96,0.8852021250000001,34.0
2021-07-08 18:56:35.351562500,-35.75,2.0,53.0,90.52390625,-0.29499999999999993,0.88528221875,34.0
2021-07-08 18:56:35.359375000,-35.5,2.0,53.0,90.5284375,-1.55,0.8853623125000001,34.0
2021-07-08 18:56:35.367187500,-35.25,2.0,53.0,90.53296875,-2.545,0.88544240625,34.0
2021-07-08 18:56:35.375000000,-35.0,2.0,53.0,90.5375,-3.54,0.8855225,34.0
2021-07-08 18:56:35.382812500,-35.0,2.0,53.25,90.54203125,-4.279999999999999,0.8856025937500001,34.0
2021-07-08 18:56:35.390625000,-35.0,2.0,53.5,90.5465625,-5.02,0.8856826875,34.0
2021-07-08 18:56:35.398437500,-35.0,2.0,53.75,90.55109374999999,-5.539999999999999,0.8857627812500001,34.0
2021-07-08 18:56:35.406250000,-35.0,2.0,54.0,90.55562499999999,-6.06,0.885842875,34.0
2021-07-08 18:56:35.414062500,-35.25,2.0,53.75,90.56015624999999,-6.4399999999999995,0.8859229687500001,34.0
2021-07-08 18:56:35.421875000,-35.5,2.0,53.5,90.5646875,-6.82,0.8860030625,34.0
2021-07-08 18:56:35.429687500,-35.75,2.0,53.25,90.56921875,-7.2,0.88608315625,34.0
2021-07-08 18:56:35.437500000,-36.0,2.0,53.0,90.57375,-7.58,0.8861632500000001,34.0
2021-07-08 18:56:35.445312500,-36.0,2.0,53.0,90.57828125,-8.155000000000001,0.88624334375,34.0
2021-07-08 18:56:35.453125000,-36.0,2.0,53.0,90.5828125,-8.73,0.8863234375000001,34.0
2021-07-08 18:56:35.460937500,-36.0,2.0,53.0,90.58734375,-9.71,0.88640353125,34.0
2021-07-08 18:56:35.468750000,-36.0,2.0,53.0,90.591875,-10.69,0.886483625,34.0
2021-07-08 18:56:35.476562500,-36.0,2.0,53.0,90.59640625,-12.254999999999999,0.8865637187500001,34.0
2021-07-08 18:56:35.484375000,-36.0,2.0,53.0,90.6009375,-13.82,0.8866438125,34.0
2021-07-08 18:56:35.492187500,-36.0,2.0,53.0,90.60546875,-16.045,0.8867239062500001,34.0
2021-07-08 18:56:35.500000000,-36.0,2.0,53.0,90.61,-18.27,0.886804,34.0
2021-07-08 18:56:35.507812500,-36.0,2.0,53.25,90.61453125,-21.085,0.8866038125000001,34.0
2021-07-08 18:56:35.515625000,-36.0,2.0,53.5,90.6190625,-23.9,0.886403625,34.0
2021-07-08 18:56:35.523437500,-36.0,2.0,53.75,90.62359375,-27.08,0.8862034375000001,34.0
2021-07-08 18:56:35.531250000,-36.0,2.0,54.0,90.628125,-30.26,0.88600325,34.0
2021-07-08 18:56:35.539062500,-35.75,2.0,53.75,90.63265625,-33.435,0.8858030625000001,34.0
2021-07-08 18:56:35.546875000,-35.5,2.0,53.5,90.6371875,-36.61,0.885602875,34.0
2021-07-08 18:56:35.554687500,-35.25,2.0,53.25,90.64171875,-39.32,0.8854026875000001,34.0
2021-07-08 18:56:35.562500000,-35.0,2.0,53.0,90.64625,-42.03,0.8852025,34.0
2021-07-08 18:56:35.570312500,-35.25,2.0,53.0,90.65078125,-43.795,0.8850023125,34.0
2021-07-08 18:56:35.578125000,-35.5,2.0,53.0,90.6553125,-45.56,0.884802125,34.0
2021-07-08 18:56:35.585937500,-35.75,2.0,53.0,90.65984375000001,-45.945,0.8846019375,34.0
2021-07-08 18:56:35.593750000,-36.0,2.0,53.0,90.664375,-46.33,0.88440175,34.0
2021-07-08 18:56:35.601562500,-36.0,2.0,53.0,90.66890625,-45.055,0.8842015625,34.0
2021-07-08 18:56:35.609375000,-36.0,2.0,53.0,90.6734375,-43.78,0.884001375,34.0
2021-07-08 18:56:35.617187500,-36.0,2.0,53.0,90.67796875,-40.81,0.8838011875,34.0
2021-07-08 18:56:35.625000000,-36.0,2.0,53.0,90.6825,-37.84,0.8836010000000001,34.0
2021-07-08 18:56:35.632812500,-36.0,2.0,53.0,90.68703125,-33.47,0.8834008125,34.0
2021-07-08 18:56:35.640625000,-36.0,2.0,53.0,90.6915625,-29.1,0.8832006250000001,34.0
2021-07-08 18:56:35.648437500,-36.0,2.0,53.0,90.69609375,-23.92,0.8830004375,34.0
2021-07-08 18:56:35.656250000,-36.0,2.0,53.0,90.700625,-18.74,0.8828002500000001,34.0
2021-07-08 18:56:35.664062500,-36.0,2.0,53.0,90.70515625,-13.475,0.8826000625,34.0
2021-07-08 18:56:35.671875000,-36.0,2.0,53.0,90.7096875,-8.21,0.8823998750000001,34.0
2021-07-08 18:56:35.679687500,-36.0,2.0,53.0,90.71421875,-3.5600000000000005,0.8821996875,34.0
2021-07-08 18:56:35.687500000,-36.0,2.0,53.0,90.71875,1.09,0.8819995,34.0
2021-07-08 18:56:35.695312500,-35.75,2.0,53.0,90.72328125,4.6899999999999995,0.8817993125,34.0
2021-07-08 18:56:35.703125000,-35.5,2.0,53.0,90.7278125,8.29,0.881599125,34.0
2021-07-08 18:56:35.710937500,-35.25,2.0,53.0,90.73234375,10.719999999999999,0.8813989375,34.0
2021-07-08 18:56:35.718750000,-35.0,2.0,53.0,90.736875,13.15,0.88119875,34.0
2021-07-08 18:56:35.726562500,-35.25,2.0,53.0,90.74140625,14.545,0.8809985625,34.0
2021-07-08 18:56:35.734375000,-35.5,2.0,53.0,90.7459375,15.94,0.880798375,34.0
2021-07-08 18:56:35.742187500,-35.75,2.0,53.0,90.75046875,16.56,0.8805981875,34.0
2021-07-08 18:56:35.750000000,-36.0,2.0,53.0,90.755,17.18,0.880398,34.0
2021-07-08 18:56:35.757812500,-36.0,2.0,53.0,90.75953125000001,17.215,0.8804780625,34.0
2021-07-08 18:56:35.765625000,-36.0,2.0,53.0,90.76406250000001,17.25,0.880558125,34.0
2021-07-08 18:56:35.773437500,-36.0,2.0,53.0,90.76859375000001,16.805,0.8806381875,34.0
2021-07-08 18:56:35.781250000,-36.0,2.0,53.0,90.77312500000001,16.36,0.88071825,34.0
2021-07-08 18:56:35.789062500,-36.0,2.0,53.0,90.77765625,15.465,0.8807983125,34.0
2021-07-08 18:56:35.796875000,-36.0,2.0,53.0,90.7821875,14.57,0.880878375,34.0
2021-07-08 18:56:35.804687500,-36.0,2.0,53.0,90.78671875,13.305,0.8809584375,34.0
2021-07-08 18:56:35.812500000,-36.0,2.0,53.0,90.79125,12.04,0.8810385000000001,34.0
2021-07-08 18:56:35.820312500,-36.0,2.0,53.0,90.79578125,10.55,0.8811185625,34.0
2021-07-08 18:56:35.828125000,-36.0,2.0,53.0,90.8003125,9.06,0.881198625,34.0
2021-07-08 18:56:35.835937500,-36.0,2.0,53.0,90.80484375,7.550000000000001,0.8812786875,34.0
2021-07-08 18:56:35.843750000,-36.0,2.0,53.0,90.809375,6.04,0.88135875,34.0
2021-07-08 18:56:35.851562500,-36.0,2.0,53.0,90.81390625,4.725,0.8814388125,34.0
2021-07-08 18:56:35.859375000,-36.0,2.0,53.0,90.8184375,3.41,0.881518875,34.0
2021-07-08 18:56:35.867187500,-36.0,2.0,53.0,90.82296875,2.39,0.8815989375,34.0
2021-07-08 18:56:35.875000000,-36.0,2.0,53.0,90.8275,1.37,0.881679,34.0
2021-07-08 18:56:35.882812500,-35.75,2.0,53.0,90.83203125,0.66,0.8817590625,34.0
2021-07-08 18:56:35.890625000,-35.5,2.0,53.0,90.8365625,-0.05,0.881839125,34.0
2021-07-08 18:56:35.898437500,-35.25,2.0,53.0,90.84109375,-0.52,0.8819191875,34.0
2021-07-08 18:56:35.906250000,-35.0,2.0,53.0,90.845625,-0.99,0.88199925,34.0
2021-07-08 18:56:35.914062500,-35.25,2.0,53.0,90.85015625,-1.295,0.8820793124999999,34.0
2021-07-08 18:56:35.921875000,-35.5,2.0,53.0,90.85468750000001,-1.6,0.882159375,34.0
2021-07-08 18:56:35.929687500,-35.75,2.0,53.0,90.85921875000001,-1.815,0.8822394375,34.0
2021-07-08 18:56:35.937500000,-36.0,2.0,53.0,90.86375000000001,-2.03,0.8823194999999999,34.0
2021-07-08 18:56:35.945312500,-36.0,2.0,53.0,90.86828125000001,-2.215,0.8823995625,34.0
2021-07-08 18:56:35.953125000,-36.0,2.0,53.0,90.87281250000001,-2.4,0.882479625,34.0
2021-07-08 18:56:35.960937500,-36.0,2.0,53.0,90.87734375000001,-2.645,0.8825596875,34.0
2021-07-08 18:56:35.968750000,-36.0,2.0,53.0,90.88187500000001,-2.89,0.88263975,34.0
2021-07-08 18:56:35.976562500,-36.0,2.0,53.0,90.88640625000001,-3.325,0.8827198125,34.0
2021-07-08 18:56:35.984375000,-36.0,2.0,53.0,90.8909375,-3.76,0.882799875,34.0
2021-07-08 18:56:35.992187500,-36.0,2.0,53.0,90.89546875,-4.5649999999999995,0.8828799374999999,34.0
2021-07-08 18:56:36.000000000,-36.0,2.0,53.0,90.9,-5.37,0.88296,34.0
2021-07-08 18:56:36.007812500,-36.0,2.0,53.0,90.90453125,-6.720000000000001,0.88283990625,34.0009375
2021-07-08 18:56:36.015625000,-36.0,2.0,53.0,90.9090625,-8.07,0.8827198125,34.001875
2021-07-08 18:56:36.023437500,-36.0,2.0,53.0,90.91359375,-10.09,0.88259971875,34.0028125
2021-07-08 18:56:36.031250000,-36.0,2.0,53.0,90.918125,-12.11,0.882479625,34.00375
2021-07-08 18:56:36.039062500,-36.0,2.0,53.0,90.92265625,-14.78,0.88235953125,34.0046875
2021-07-08 18:56:36.046875000,-36.0,2.0,53.0,90.9271875,-17.45,0.8822394375,34.005625
2021-07-08 18:56:36.054687500,-36.0,2.0,53.0,90.93171875,-20.545,0.88211934375,34.0065625
2021-07-08 18:56:36.062500000,-36.0,2.0,53.0,90.93625,-23.64,0.88199925,34.0075
2021-07-08 18:56:36.070312500,-36.0,2.0,53.0,90.94078125,-26.72,0.88187915625,34.0084375
2021-07-08 18:56:36.078125000,-36.0,2.0,53.0,90.9453125,-29.8,0.8817590625,34.009375
2021-07-08 18:56:36.085937500,-36.0,2.0,53.0,90.94984375,-32.235,0.88163896875,34.0103125
2021-07-08 18:56:36.093750000,-36.0,2.0,53.0,90.954375,-34.67,0.881518875,34.011250000000004
2021-07-08 18:56:36.101562500,-35.75,2.0,53.25,90.95890625000001,-35.84,0.88139878125,34.0121875
2021-07-08 18:56:36.109375000,-35.5,2.0,53.5,90.96343750000001,-37.01,0.8812786875,34.013125
2021-07-08 18:56:36.117187500,-35.25,2.0,53.75,90.96796875000001,-36.485,0.88115859375,34.0140625
2021-07-08 18:56:36.125000000,-35.0,2.0,54.0,90.97250000000001,-35.96,0.8810385000000001,34.015
2021-07-08 18:56:36.132812500,-35.0,2.0,53.75,90.97703125000001,-33.644999999999996,0.88091840625,34.0159375
2021-07-08 18:56:36.140625000,-35.0,2.0,53.5,90.98156250000001,-31.33,0.8807983125,34.016875
2021-07-08 18:56:36.148437500,-35.0,2.0,53.25,90.98609375000001,-27.545,0.88067821875,34.0178125
2021-07-08 18:56:36.156250000,-35.0,2.0,53.0,90.99062500000001,-23.76,0.880558125,34.01875
2021-07-08 18:56:36.164062500,-35.25,2.0,53.0,90.99515625000001,-19.095,0.88043803125,34.0196875
2021-07-08 18:56:36.171875000,-35.5,2.0,53.0,90.99968750000001,-14.43,0.8803179375,34.020625
2021-07-08 18:56:36.179687500,-35.75,2.0,53.0,91.00421875,-9.6,0.88019784375,34.0215625
2021-07-08 18:56:36.187500000,-36.0,2.0,53.0,91.00875,-4.77,0.88007775,34.0225
2021-07-08 18:56:36.195312500,-36.0,2.0,53.0,91.01328125,-0.3650000000000002,0.87995765625,34.0234375
