TimeStamp,empatica.acc.x,empatica.acc.y,empatica.acc.z,empatica.hr,empatica.bvp,empatica.eda,empatica.temp
2021-07-08 18:51:43.179687500,-33.0,2.0,55.0,112.29484375,-38.525000000000006,1.8240096562499999,34.41
2021-07-08 18:51:43.187500000,-33.0,2.0,55.0,112.29374999999999,-43.13,1.82352925,34.41
2021-07-08 18:51:43.195312500,-33.0,2.0,55.0,112.29265625,-47.05,1.8230488437499999,34.41
2021-07-08 18:51:43.203125000,-33.0,2.0,55.0,112.2915625,-50.97,1.8225684375,34.41
2021-07-08 18:51:43.210937500,-33.0,2.0,55.0,112.29046875,-53.345,1.8220880312499999,34.41
2021-07-08 18:51:43.218750000,-33.0,2.0,55.0,112.28937499999999,-55.72,1.821607625,34.41
2021-07-08 18:51:43.226562500,-33.0,2.0,55.0,112.28828125,-55.83,1.8211272187499998,34.41
2021-07-08 18:51:43.234375000,-33.0,2.0,55.0,112.2871875,-55.94,1.8206468125,34.41
2021-07-08 18:51:43.242187500,-33.0,2.0,55.0,112.28609374999999,-53.459999999999994,1.8201664062499998,34.41
2021-07-08 18:51:43.250000000,-33.0,2.0,55.0,112.285,-50.98,1.819686,34.41
2021-07-08 18:51:43.257812500,-33.0,2.0,55.0,112.28390625,-46.165,1.8195659062499998,34.41
2021-07-08 18:51:43.265625000,-33.0,2.0,55.0,112.28281249999999,-41.35,1.8194458125,34.41
2021-07-08 18:51:43.273437500,-33.0,2.0,55.0,112.28171875,-34.97,1.81932571875,34.41
2021-07-08 18:51:43.281250000,-33.0,2.0,55.0,112.280625,-28.59,1.819205625,34.41
2021-07-08 18:51:43.289062500,-33.0,2.0,55.0,112.27953124999999,-21.65,1.8190855312499998,34.41
2021-07-08 18:51:43.296875000,-33.0,2.0,55.0,112.2784375,-14.71,1.8189654375,34.41
2021-07-08 18:51:43.304687500,-33.0,2.0,55.0,112.27734375,-8.135000000000002,1.81884534375,34.41
2021-07-08 18:51:43.312500000,-33.0,2.0,55.0,112.27625,-1.56,1.81872525,34.41
2021-07-08 18:51:43.320312500,-33.25,2.0,55.0,112.27515625,4.075000000000001,1.8186051562499999,34.41
2021-07-08 18:51:43.328125000,-33.5,2.0,55.0,112.2740625,9.71,1.8184850625,34.41
2021-07-08 18:51:43.335937500,-33.75,2.0,55.0,112.27296875,14.25,1.81836496875,34.41
2021-07-08 18:51:43.343750000,-34.0,2.0,55.0,112.271875,18.79,1.818244875,34.41
2021-07-08 18:51:43.351562500,-33.75,2.0,55.0,112.27078125,22.365000000000002,1.8181247812499999,34.41
2021-07-08 18:51:43.359375000,-33.5,2.0,55.0,112.2696875,25.94,1.8180046875,34.41
2021-07-08 18:51:43.367187500,-33.25,2.0,55.0,112.26859375,28.725,1.81788459375,34.41
2021-07-08 18:51:43.375000000,-33.0,2.0,55.0,112.2675,31.51,1.8177645,34.41
2021-07-08 18:51:43.382812500,-33.0,2.0,55.0,112.26640625,33.555,1.81764440625,34.41
2021-07-08 18:51:43.390625000,-33.0,2.0,55.0,112.2653125,35.6,1.8175243125,34.41
2021-07-08 18:51:43.398437500,-33.0,2.0,55.0,112.26421875,36.8,1.8174042187500001,34.41
2021-07-08 18:51:43.406250000,-33.0,2.0,55.0,112.263125,38.0,1.817284125,34.41
2021-07-08 18:51:43.414062500,-33.0,2.0,55.0,112.26203124999999,38.21,1.81716403125,34.41
2021-07-08 18:51:43.421875000,-33.0,2.0,55.0,112.2609375,38.42,1.8170439375,34.41
2021-07-08 18:51:43.429687500,-33.0,2.0,55.0,112.25984375,37.635000000000005,1.8169238437500002,34.41
2021-07-08 18:51:43.437500000,-33.0,2.0,55.0,112.25874999999999,36.85,1.81680375,34.41
2021-07-08 18:51:43.445312500,-33.0,2.0,54.75,112.25765625,35.269999999999996,1.81668365625,34.41
2021-07-08 18:51:43.453125000,-33.0,2.0,54.5,112.2565625,33.69,1.8165635625,34.41
2021-07-08 18:51:43.460937500,-33.0,2.0,54.25,112.25546875,31.735,1.8164434687500002,34.41
2021-07-08 18:51:43.468750000,-33.0,2.0,54.0,112.254375,29.78,1.816323375,34.41
2021-07-08 18:51:43.476562500,-33.0,2.0,54.25,112.25328125,27.865000000000002,1.81620328125,34.41
2021-07-08 18:51:43.484375000,-33.0,2.0,54.5,112.2521875,25.95,1.8160831875,34.41
2021-07-08 18:51:43.492187500,-33.0,2.0,54.75,112.25109375,24.33,1.8159630937500002,34.41
2021-07-08 18:51:43.500000000,-33.0,2.0,55.0,112.25,22.71,1.815843,34.41
2021-07-08 18:51:43.507812500,-33.25,2.0,54.75,112.24890625,21.375,1.8157629375000002,34.41
2021-07-08 18:51:43.515625000,-33.5,2.0,54.5,112.2478125,20.04,1.815682875,34.41
2021-07-08 18:51:43.523437500,-33.75,2.0,54.25,112.24671875,18.795,1.8156028125,34.41
2021-07-08 18:51:43.531250000,-34.0,2.0,54.0,112.245625,17.55,1.81552275,34.41
2021-07-08 18:51:43.539062500,-33.75,2.0,54.25,112.24453125,16.17,1.8154426875,34.41
2021-07-08 18:51:43.546875000,-33.5,2.0,54.5,112.2434375,14.79,1.8153626250000001,34.41
2021-07-08 18:51:43.554687500,-33.25,2.0,54.75,112.24234375,13.195,1.8152825625,34.41
2021-07-08 18:51:43.562500000,-33.0,2.0,55.0,112.24125000000001,11.6,1.8152025,34.41
2021-07-08 18:51:43.570312500,-33.0,2.0,55.0,112.24015625,9.885,1.8151224375000001,34.41
2021-07-08 18:51:43.578125000,-33.0,2.0,55.0,112.2390625,8.17,1.815042375,34.41
2021-07-08 18:51:43.585937500,-33.0,2.0,55.0,112.23796875000001,6.529999999999999,1.8149623125,34.41
2021-07-08 18:51:43.593750000,-33.0,2.0,55.0,112.236875,4.89,1.8148822500000001,34.41
2021-07-08 18:51:43.601562500,-33.25,2.0,54.75,112.23578125,3.455,1.8148021875,34.41
2021-07-08 18:51:43.609375000,-33.5,2.0,54.5,112.2346875,2.02,1.814722125,34.41
2021-07-08 18:51:43.617187500,-33.75,2.0,54.25,112.23359375,0.7549999999999999,1.8146420625,34.41
2021-07-08 18:51:43.625000000,-34.0,2.0,54.0,112.2325,-0.51,1.814562,34.41
2021-07-08 18:51:43.632812500,-34.0,2.0,54.25,112.23140625,-1.8550000000000002,1.8144819375,34.41
2021-07-08 18:51:43.640625000,-34.0,2.0,54.5,112.2303125,-3.2,1.814401875,34.41
2021-07-08 18:51:43.648437500,-34.0,2.0,54.75,112.22921875,-4.96,1.8143218125,34.41
2021-07-08 18:51:43.656250000,-34.0,2.0,55.0,112.228125,-6.72,1.8142417499999999,34.41
2021-07-08 18:51:43.664062500,-33.75,2.0,55.0,112.22703125,-9.209999999999999,1.8141616875,34.41
2021-07-08 18:51:43.671875000,-33.5,2.0,55.0,112.2259375,-11.7,1.814081625,34.41
2021-07-08 18:51:43.679687500,-33.25,2.0,55.0,112.22484375,-15.07,1.8140015624999999,34.41
2021-07-08 18:51:43.687500000,-33.0,2.0,55.0,112.22375,-18.44,1.8139215,34.41
2021-07-08 18:51:43.695312500,-33.0,2.0,54.75,112.22265625,-22.605,1.8138414375,34.41
2021-07-08 18:51:43.703125000,-33.0,2.0,54.5,112.2215625,-26.77,1.813761375,34.41
2021-07-08 18:51:43.710937500,-33.0,2.0,54.25,112.22046875000001,-31.365000000000002,1.8136813125,34.41
2021-07-08 18:51:43.718750000,-33.0,2.0,54.0,112.219375,-35.96,1.81360125,34.41
2021-07-08 18:51:43.726562500,-33.25,2.0,54.25,112.21828125,-40.405,1.8135211875,34.41
2021-07-08 18:51:43.734375000,-33.5,2.0,54.5,112.21718750000001,-44.85,1.813441125,34.41
2021-07-08 18:51:43.742187500,-33.75,2.0,54.75,112.21609375,-48.405,1.8133610624999998,34.41
2021-07-08 18:51:43.750000000,-34.0,2.0,55.0,112.215,-51.96,1.813281,34.41
2021-07-08 18:51:43.757812500,-33.75,2.0,55.0,112.21390625000001,-53.885000000000005,1.8131609062499998,34.41
2021-07-08 18:51:43.765625000,-33.5,2.0,55.0,112.2128125,-55.81,1.8130408125,34.41
2021-07-08 18:51:43.773437500,-33.25,2.0,55.0,112.21171875,-55.56,1.81292071875,34.41
2021-07-08 18:51:43.781250000,-33.0,2.0,55.0,112.21062500000001,-55.31,1.812800625,34.41
2021-07-08 18:51:43.789062500,-33.0,2.0,55.0,112.20953125,-52.705,1.8126805312499998,34.41
2021-07-08 18:51:43.796875000,-33.0,2.0,55.0,112.2084375,-50.1,1.8125604375,34.41
2021-07-08 18:51:43.804687500,-33.0,2.0,55.0,112.20734375,-45.394999999999996,1.81244034375,34.41
2021-07-08 18:51:43.812500000,-33.0,2.0,55.0,112.20625000000001,-40.69,1.81232025,34.41
2021-07-08 18:51:43.820312500,-33.25,2.0,55.0,112.20515625,-34.519999999999996,1.8122001562499999,34.41
2021-07-08 18:51:43.828125000,-33.5,2.0,55.0,112.2040625,-28.35,1.8120800625,34.41
2021-07-08 18:51:43.835937500,-33.75,2.0,55.0,112.20296875000001,-21.565,1.81195996875,34.41
2021-07-08 18:51:43.843750000,-34.0,2.0,55.0,112.201875,-14.78,1.811839875,34.41
2021-07-08 18:51:43.851562500,-34.0,2.0,54.75,112.20078125,-8.16,1.8117197812499999,34.41
2021-07-08 18:51:43.859375000,-34.0,2.0,54.5,112.19968750000001,-1.54,1.8115996875,34.41
2021-07-08 18:51:43.867187500,-34.0,2.0,54.25,112.19859375,4.325,1.8114795937500001,34.41
2021-07-08 18:51:43.875000000,-34.0,2.0,54.0,112.1975,10.19,1.8113595,34.41
2021-07-08 18:51:43.882812500,-33.75,2.0,54.25,112.19640625000001,15.004999999999999,1.81123940625,34.41
2021-07-08 18:51:43.890625000,-33.5,2.0,54.5,112.1953125,19.82,1.8111193125,34.41
2021-07-08 18:51:43.898437500,-33.25,2.0,54.75,112.19421875,23.515,1.8109992187500001,34.41
2021-07-08 18:51:43.906250000,-33.0,2.0,55.0,112.19312500000001,27.21,1.810879125,34.41
2021-07-08 18:51:43.914062500,-33.0,2.0,55.0,112.19203125,29.785,1.81075903125,34.41
2021-07-08 18:51:43.921875000,-33.0,2.0,55.0,112.1909375,32.36,1.8106389375,34.41
2021-07-08 18:51:43.929687500,-33.0,2.0,55.0,112.18984375000001,33.845,1.8105188437500002,34.41
2021-07-08 18:51:43.937500000,-33.0,2.0,55.0,112.18875,35.33,1.81039875,34.41
2021-07-08 18:51:43.945312500,-33.25,2.0,55.0,112.18765625,35.739999999999995,1.81027865625,34.41
2021-07-08 18:51:43.953125000,-33.5,2.0,55.0,112.18656250000001,36.15,1.8101585625,34.41
2021-07-08 18:51:43.960937500,-33.75,2.0,55.0,112.18546875000001,35.58,1.8100384687500002,34.41
2021-07-08 18:51:43.968750000,-34.0,2.0,55.0,112.184375,35.01,1.809918375,34.41
2021-07-08 18:51:43.976562500,-33.75,2.0,55.0,112.18328125000001,33.65,1.80979828125,34.41
2021-07-08 18:51:43.984375000,-33.5,2.0,55.0,112.18218750000001,32.29,1.8096781875,34.41
2021-07-08 18:51:43.992187500,-33.25,2.0,55.0,112.18109375,30.45,1.8095580937500002,34.41
2021-07-08 18:51:44.000000000,-33.0,2.0,55.0,112.18,28.61,1.809438,34.41
2021-07-08 18:51:44.007812500,-33.0,2.0,55.0,112.179140625,26.61,1.8091577812500002,34.41
2021-07-08 18:51:44.015625000,-33.0,2.0,55.0,112.17828125000001,24.61,1.8088775625000002,34.41
2021-07-08 18:51:44.023437500,-33.0,2.0,55.0,112.17742187500001,22.705,1.80859734375,34.41
2021-07-08 18:51:44.031250000,-33.0,2.0,55.0,112.1765625,20.8,1.808317125,34.41
2021-07-08 18:51:44.039062500,-33.0,2.0,55.0,112.17570312500001,19.085,1.8080369062500001,34.41
2021-07-08 18:51:44.046875000,-33.0,2.0,55.0,112.17484375000001,17.37,1.8077566875,34.41
2021-07-08 18:51:44.054687500,-33.0,2.0,55.0,112.173984375,15.805,1.80747646875,34.41
2021-07-08 18:51:44.062500000,-33.0,2.0,55.0,112.173125,14.24,1.80719625,34.41
2021-07-08 18:51:44.070312500,-33.0,2.0,55.0,112.17226562500001,12.73,1.80691603125,34.41
2021-07-08 18:51:44.078125000,-33.0,2.0,55.0,112.17140625,11.22,1.8066358125000002,34.41
2021-07-08 18:51:44.085937500,-33.0,2.0,55.0,112.170546875,9.725000000000001,1.80635559375,34.41
2021-07-08 18:51:44.093750000,-33.0,2.0,55.0,112.16968750000001,8.23,1.806075375,34.41
2021-07-08 18:51:44.101562500,-33.25,2.0,54.75,112.168828125,6.78,1.80579515625,34.41
2021-07-08 18:51:44.109375000,-33.5,2.0,54.5,112.16796875,5.33,1.8055149375,34.41
2021-07-08 18:51:44.117187500,-33.75,2.0,54.25,112.16710937500001,4.02,1.80523471875,34.41
2021-07-08 18:51:44.125000000,-34.0,2.0,54.0,112.16625,2.71,1.8049545,34.41
2021-07-08 18:51:44.132812500,-34.0,2.0,54.0,112.165390625,1.58,1.80467428125,34.41
2021-07-08 18:51:44.140625000,-34.0,2.0,54.0,112.16453125000001,0.45,1.8043940625000001,34.41
2021-07-08 18:51:44.148437500,-34.0,2.0,54.0,112.163671875,-0.5449999999999999,1.80411384375,34.41
2021-07-08 18:51:44.156250000,-34.0,2.0,54.0,112.1628125,-1.54,1.803833625,34.41
2021-07-08 18:51:44.164062500,-33.75,2.0,54.25,112.16195312500001,-2.585,1.80355340625,34.41
2021-07-08 18:51:44.171875000,-33.5,2.0,54.5,112.16109375,-3.63,1.8032731874999999,34.41
2021-07-08 18:51:44.179687500,-33.25,2.0,54.75,112.160234375,-4.995,1.80299296875,34.41
2021-07-08 18:51:44.187500000,-33.0,2.0,55.0,112.15937500000001,-6.36,1.80271275,34.41
2021-07-08 18:51:44.195312500,-33.25,2.0,55.0,112.158515625,-8.33,1.80243253125,34.41
2021-07-08 18:51:44.203125000,-33.5,2.0,55.0,112.15765625,-10.3,1.8021523125,34.41
2021-07-08 18:51:44.210937500,-33.75,2.0,55.0,112.156796875,-13.095,1.80187209375,34.41
2021-07-08 18:51:44.218750000,-34.0,2.0,55.0,112.15593750000001,-15.89,1.801591875,34.41
2021-07-08 18:51:44.226562500,-33.75,2.0,55.0,112.155078125,-19.564999999999998,1.80131165625,34.41
2021-07-08 18:51:44.234375000,-33.5,2.0,55.0,112.15421875,-23.24,1.8010314374999998,34.41
2021-07-08 18:51:44.242187500,-33.25,2.0,55.0,112.15335937500001,-27.595,1.8007512187499999,34.41
2021-07-08 18:51:44.250000000,-33.0,2.0,55.0,112.1525,-31.95,1.800471,34.41
2021-07-08 18:51:44.257812500,-33.0,2.0,55.0,112.151640625,-36.47,1.80027084375,34.41
2021-07-08 18:51:44.265625000,-33.0,2.0,55.0,112.15078125000001,-40.99,1.8000706874999999,34.41
2021-07-08 18:51:44.273437500,-33.0,2.0,55.0,112.149921875,-44.905,1.7998705312499998,34.41
2021-07-08 18:51:44.281250000,-33.0,2.0,55.0,112.1490625,-48.82,1.7996703749999998,34.41
2021-07-08 18:51:44.289062500,-33.0,2.0,54.75,112.14820312500001,-51.260000000000005,1.79947021875,34.41
2021-07-08 18:51:44.296875000,-33.0,2.0,54.5,112.14734375,-53.7,1.7992700625,34.41
2021-07-08 18:51:44.304687500,-33.0,2.0,54.25,112.146484375,-53.94,1.79906990625,34.41
2021-07-08 18:51:44.312500000,-33.0,2.0,54.0,112.145625,-54.18,1.79886975,34.41
2021-07-08 18:51:44.320312500,-33.25,2.0,54.25,112.144765625,-51.91,1.79866959375,34.41
2021-07-08 18:51:44.328125000,-33.5,2.0,54.5,112.14390625,-49.64,1.7984694374999999,34.41
2021-07-08 18:51:44.335937500,-33.75,2.0,54.75,112.143046875,-45.055,1.7982692812499999,34.41
2021-07-08 18:51:44.343750000,-34.0,2.0,55.0,112.1421875,-40.47,1.798069125,34.41
2021-07-08 18:51:44.351562500,-34.0,2.0,55.0,112.141328125,-34.205,1.79786896875,34.41
2021-07-08 18:51:44.359375000,-34.0,2.0,55.0,112.14046875,-27.94,1.7976688125,34.41
2021-07-08 18:51:44.367187500,-34.0,2.0,55.0,112.139609375,-20.865000000000002,1.79746865625,34.41
2021-07-08 18:51:44.375000000,-34.0,2.0,55.0,112.13875,-13.79,1.7972685,34.41
2021-07-08 18:51:44.382812500,-34.0,2.0,54.75,112.137890625,-6.725,1.79706834375,34.41
2021-07-08 18:51:44.390625000,-34.0,2.0,54.5,112.13703125,0.34,1.7968681874999999,34.41
2021-07-08 18:51:44.398437500,-34.0,2.0,54.25,112.136171875,6.775,1.7966680312499999,34.41
2021-07-08 18:51:44.406250000,-34.0,2.0,54.0,112.1353125,13.21,1.7964678749999998,34.41
2021-07-08 18:51:44.414062500,-33.75,2.0,54.25,112.13445312500001,18.675,1.79626771875,34.41
2021-07-08 18:51:44.421875000,-33.5,2.0,54.5,112.13359375,24.14,1.7960675625,34.41
2021-07-08 18:51:44.429687500,-33.25,2.0,54.75,112.132734375,28.46,1.79586740625,34.41
2021-07-08 18:51:44.437500000,-33.0,2.0,55.0,112.13187500000001,32.78,1.79566725,34.41
2021-07-08 18:51:44.445312500,-33.25,2.0,54.75,112.131015625,35.894999999999996,1.79546709375,34.41
2021-07-08 18:51:44.453125000,-33.5,2.0,54.5,112.13015625,39.01,1.7952669374999999,34.41
2021-07-08 18:51:44.460937500,-33.75,2.0,54.25,112.129296875,40.91,1.7950667812499999,34.41
2021-07-08 18:51:44.468750000,-34.0,2.0,54.0,112.1284375,42.81,1.794866625,34.41
2021-07-08 18:51:44.476562500,-34.0,2.0,54.0,112.127578125,43.57,1.79466646875,34.41
2021-07-08 18:51:44.484375000,-34.0,2.0,54.0,112.12671875,44.33,1.7944663125,34.41
2021-07-08 18:51:44.492187500,-34.0,2.0,54.0,112.125859375,44.099999999999994,1.79426615625,34.41
2021-07-08 18:51:44.500000000,-34.0,2.0,54.0,112.125,43.87,1.794066,34.41
2021-07-08 18:51:44.507812500,-34.0,2.0,54.25,112.124140625,42.86,1.79386584375,34.41
2021-07-08 18:51:44.515625000,-34.0,2.0,54.5,112.12328125,41.85,1.7936656874999999,34.41
2021-07-08 18:51:44.523437500,-34.0,2.0,54.75,112.122421875,40.32,1.7934655312499999,34.41
2021-07-08 18:51:44.531250000,-34.0,2.0,55.0,112.1215625,38.79,1.7932653749999998,34.41
2021-07-08 18:51:44.539062500,-33.75,2.0,54.75,112.120703125,36.94,1.79306521875,34.41
2021-07-08 18:51:44.546875000,-33.5,2.0,54.5,112.11984375,35.09,1.7928650625,34.41
2021-07-08 18:51:44.554687500,-33.25,2.0,54.25,112.118984375,33.085,1.79266490625,34.41
2021-07-08 18:51:44.562500000,-33.0,2.0,54.0,112.11812499999999,31.08,1.79246475,34.41
2021-07-08 18:51:44.570312500,-33.25,2.0,54.0,112.117265625,29.02,1.79226459375,34.41
2021-07-08 18:51:44.578125000,-33.5,2.0,54.0,112.11640625,26.96,1.7920644374999999,34.41
2021-07-08 18:51:44.585937500,-33.75,2.0,54.0,112.11554687499999,24.9,1.7918642812499999,34.41
2021-07-08 18:51:44.593750000,-34.0,2.0,54.0,112.1146875,22.84,1.791664125,34.41
2021-07-08 18:51:44.601562500,-34.0,2.0,54.25,112.113828125,20.83,1.79146396875,34.41
2021-07-08 18:51:44.609375000,-34.0,2.0,54.5,112.11296875,18.82,1.7912638125,34.41
2021-07-08 18:51:44.617187500,-34.0,2.0,54.75,112.112109375,16.92,1.79106365625,34.41
2021-07-08 18:51:44.625000000,-34.0,2.0,55.0,112.11125,15.02,1.7908635,34.41
2021-07-08 18:51:44.632812500,-33.75,2.0,55.0,112.110390625,13.265,1.79066334375,34.41
2021-07-08 18:51:44.640625000,-33.5,2.0,55.0,112.10953125,11.51,1.7904631874999999,34.41
2021-07-08 18:51:44.648437500,-33.25,2.0,55.0,112.108671875,9.925,1.7902630312499999,34.41
2021-07-08 18:51:44.656250000,-33.0,2.0,55.0,112.1078125,8.34,1.7900628749999998,34.41
2021-07-08 18:51:44.664062500,-33.0,2.0,55.0,112.106953125,6.92,1.78986271875,34.41
2021-07-08 18:51:44.671875000,-33.0,2.0,55.0,112.10609375,5.5,1.7896625625,34.41
2021-07-08 18:51:44.679687500,-33.0,2.0,55.0,112.105234375,4.195,1.78946240625,34.41
2021-07-08 18:51:44.687500000,-33.0,2.0,55.0,112.104375,2.89,1.78926225,34.41
2021-07-08 18:51:44.695312500,-33.25,2.0,54.75,112.103515625,1.59,1.78906209375,34.41
2021-07-08 18:51:44.703125000,-33.5,2.0,54.5,112.10265625,0.29,1.7888619374999999,34.41
2021-07-08 18:51:44.710937500,-33.75,2.0,54.25,112.10179687499999,-1.175,1.7886617812499999,34.41
2021-07-08 18:51:44.718750000,-34.0,2.0,54.0,112.1009375,-2.64,1.788461625,34.41
2021-07-08 18:51:44.726562500,-33.75,2.0,54.25,112.100078125,-4.53,1.78826146875,34.41
2021-07-08 18:51:44.734375000,-33.5,2.0,54.5,112.09921874999999,-6.42,1.7880613125,34.41
2021-07-08 18:51:44.742187500,-33.25,2.0,54.75,112.098359375,-9.025,1.78786115625,34.41
2021-07-08 18:51:44.750000000,-33.0,2.0,55.0,112.0975,-11.63,1.787661,34.41
2021-07-08 18:51:44.757812500,-33.0,2.0,55.0,112.09664062499999,-15.155000000000001,1.78738078125,34.41
2021-07-08 18:51:44.765625000,-33.0,2.0,55.0,112.09578125,-18.68,1.7871005625,34.41
2021-07-08 18:51:44.773437500,-33.0,2.0,55.0,112.094921875,-23.07,1.7868203437499999,34.41
2021-07-08 18:51:44.781250000,-33.0,2.0,55.0,112.09406249999999,-27.46,1.786540125,34.41
2021-07-08 18:51:44.789062500,-33.25,2.0,55.0,112.093203125,-32.295,1.78625990625,34.41
2021-07-08 18:51:44.796875000,-33.5,2.0,55.0,112.09234375,-37.13,1.7859796875,34.41
2021-07-08 18:51:44.804687500,-33.75,2.0,55.0,112.091484375,-41.625,1.7856994687499999,34.41
2021-07-08 18:51:44.812500000,-34.0,2.0,55.0,112.09062499999999,-46.12,1.78541925,34.41
2021-07-08 18:51:44.820312500,-34.0,2.0,55.0,112.089765625,-49.285,1.78513903125,34.41
2021-07-08 18:51:44.828125000,-34.0,2.0,55.0,112.08890625,-52.45,1.7848588125,34.41
2021-07-08 18:51:44.835937500,-34.0,2.0,55.0,112.08804687499999,-53.425,1.78457859375,34.41
2021-07-08 18:51:44.843750000,-34.0,2.0,55.0,112.0871875,-54.4,1.7842983749999999,34.41
2021-07-08 18:51:44.851562500,-33.75,2.0,55.0,112.086328125,-52.715,1.78401815625,34.41
2021-07-08 18:51:44.859375000,-33.5,2.0,55.0,112.08546874999999,-51.03,1.7837379375,34.41
2021-07-08 18:51:44.867187500,-33.25,2.0,55.0,112.084609375,-46.83,1.78345771875,34.41
2021-07-08 18:51:44.875000000,-33.0,2.0,55.0,112.08375,-42.63,1.7831774999999999,34.41
2021-07-08 18:51:44.882812500,-33.0,2.0,55.0,112.08289062499999,-36.6,1.78289728125,34.41
2021-07-08 18:51:44.890625000,-33.0,2.0,55.0,112.08203125,-30.57,1.7826170625,34.41
2021-07-08 18:51:44.898437500,-33.0,2.0,55.0,112.081171875,-23.715,1.78233684375,34.41
2021-07-08 18:51:44.906250000,-33.0,2.0,55.0,112.08031249999999,-16.86,1.782056625,34.41
2021-07-08 18:51:44.914062500,-33.0,2.0,55.0,112.079453125,-10.145,1.7817764062499999,34.41
2021-07-08 18:51:44.921875000,-33.0,2.0,55.0,112.07859375,-3.43,1.7814961875,34.41
2021-07-08 18:51:44.929687500,-33.0,2.0,55.0,112.07773437499999,2.4949999999999997,1.78121596875,34.41
2021-07-08 18:51:44.937500000,-33.0,2.0,55.0,112.076875,8.42,1.78093575,34.41
2021-07-08 18:51:44.945312500,-33.0,2.0,54.75,112.076015625,13.325,1.78065553125,34.41
2021-07-08 18:51:44.953125000,-33.0,2.0,54.5,112.07515624999999,18.23,1.7803753125,34.41
2021-07-08 18:51:44.960937500,-33.0,2.0,54.25,112.07429687499999,22.205,1.78009509375,34.41
2021-07-08 18:51:44.968750000,-33.0,2.0,54.0,112.0734375,26.18,1.779814875,34.41
2021-07-08 18:51:44.976562500,-33.0,2.0,54.25,112.07257812499999,29.419999999999998,1.77953465625,34.41
2021-07-08 18:51:44.984375000,-33.0,2.0,54.5,112.07171874999999,32.66,1.7792544375,34.41
2021-07-08 18:51:44.992187500,-33.0,2.0,54.75,112.070859375,35.26,1.77897421875,34.41
2021-07-08 18:51:45.000000000,-33.0,2.0,55.0,112.07,37.86,1.778694,34.41
2021-07-08 18:51:45.007812500,-33.0,2.0,55.0,112.06890625,39.739999999999995,1.77853384375,34.41
2021-07-08 18:51:45.015625000,-33.0,2.0,55.0,112.06781249999999,41.62,1.7783736875,34.41
2021-07-08 18:51:45.023437500,-33.0,2.0,55.0,112.06671874999999,42.61,1.77821353125,34.41
2021-07-08 18:51:45.031250000,-33.0,2.0,55.0,112.065625,43.6,1.778053375,34.41
2021-07-08 18:51:45.039062500,-33.0,2.0,55.0,112.06453124999999,43.535,1.77789321875,34.41
2021-07-08 18:51:45.046875000,-33.0,2.0,55.0,112.06343749999999,43.47,1.7777330625,34.41
2021-07-08 18:51:45.054687500,-33.0,2.0,55.0,112.06234375,42.375,1.77757290625,34.41
2021-07-08 18:51:45.062500000,-33.0,2.0,55.0,112.06125,41.28,1.7774127499999999,34.41
2021-07-08 18:51:45.070312500,-33.0,2.0,55.0,112.06015624999999,39.375,1.7772525937499999,34.41
2021-07-08 18:51:45.078125000,-33.0,2.0,55.0,112.0590625,37.47,1.7770924375,34.41
2021-07-08 18:51:45.085937500,-33.0,2.0,55.0,112.05796875,35.114999999999995,1.77693228125,34.41
2021-07-08 18:51:45.093750000,-33.0,2.0,55.0,112.05687499999999,32.76,1.776772125,34.41
2021-07-08 18:51:45.101562500,-33.0,2.0,54.75,112.05578125,30.33,1.77661196875,34.41
2021-07-08 18:51:45.109375000,-33.0,2.0,54.5,112.0546875,27.9,1.7764518125,34.41
2021-07-08 18:51:45.117187500,-33.0,2.0,54.25,112.05359374999999,25.625,1.77629165625,34.41
2021-07-08 18:51:45.125000000,-33.0,2.0,54.0,112.0525,23.35,1.7761315,34.41
2021-07-08 18:51:45.132812500,-33.0,2.0,54.25,112.05140625,21.32,1.77597134375,34.41
2021-07-08 18:51:45.140625000,-33.0,2.0,54.5,112.05031249999999,19.29,1.7758111875,34.41
2021-07-08 18:51:45.148437500,-33.0,2.0,54.75,112.04921875,17.455,1.77565103125,34.41
2021-07-08 18:51:45.156250000,-33.0,2.0,55.0,112.048125,15.62,1.775490875,34.41
2021-07-08 18:51:45.164062500,-33.0,2.0,55.0,112.04703124999999,13.92,1.77533071875,34.41
2021-07-08 18:51:45.171875000,-33.0,2.0,55.0,112.0459375,12.22,1.7751705625,34.41
2021-07-08 18:51:45.179687500,-33.0,2.0,55.0,112.04484375,10.61,1.77501040625,34.41
2021-07-08 18:51:45.187500000,-33.0,2.0,55.0,112.04374999999999,9.0,1.77485025,34.41
2021-07-08 18:51:45.195312500,-33.0,2.0,54.75,112.04265625,7.495,1.7746900937499999,34.41
2021-07-08 18:51:45.203125000,-33.0,2.0,54.5,112.0415625,5.99,1.7745299374999999,34.41
2021-07-08 18:51:45.210937500,-33.0,2.0,54.25,112.04046875,4.605,1.7743697812499999,34.41
2021-07-08 18:51:45.218750000,-33.0,2.0,54.0,112.03937499999999,3.22,1.774209625,34.41
2021-07-08 18:51:45.226562500,-33.25,2.0,54.25,112.03828125,1.925,1.77404946875,34.41
2021-07-08 18:51:45.234375000,-33.5,2.0,54.5,112.0371875,0.63,1.7738893125,34.41
2021-07-08 18:51:45.242187500,-33.75,2.0,54.75,112.03609374999999,-0.6749999999999999,1.77372915625,34.41
2021-07-08 18:51:45.250000000,-34.0,2.0,55.0,112.035,-1.98,1.773569,34.41
2021-07-08 18:51:45.257812500,-33.75,2.0,55.0,112.03390625,-3.4699999999999998,1.77412946875,34.41
2021-07-08 18:51:45.265625000,-33.5,2.0,55.0,112.03281249999999,-4.96,1.7746899375,34.41
2021-07-08 18:51:45.273437500,-33.25,2.0,55.0,112.03171875,-6.855,1.7752504062499999,34.41
2021-07-08 18:51:45.281250000,-33.0,2.0,55.0,112.030625,-8.75,1.775810875,34.41
2021-07-08 18:51:45.289062500,-33.0,2.0,55.0,112.02953124999999,-11.285,1.77637134375,34.41
2021-07-08 18:51:45.296875000,-33.0,2.0,55.0,112.0284375,-13.82,1.7769318125,34.41
2021-07-08 18:51:45.304687500,-33.0,2.0,55.0,112.02734375,-17.08,1.77749228125,34.41
2021-07-08 18:51:45.312500000,-33.0,2.0,55.0,112.02625,-20.34,1.77805275,34.41
2021-07-08 18:51:45.320312500,-33.25,2.0,55.0,112.02515625,-24.195,1.77861321875,34.41
2021-07-08 18:51:45.328125000,-33.5,2.0,55.0,112.0240625,-28.05,1.7791736875,34.41
2021-07-08 18:51:45.335937500,-33.75,2.0,55.0,112.02296875,-32.05,1.77973415625,34.41
2021-07-08 18:51:45.343750000,-34.0,2.0,55.0,112.021875,-36.05,1.780294625,34.41
2021-07-08 18:51:45.351562500,-33.75,2.0,55.0,112.02078125,-39.459999999999994,1.78085509375,34.41
2021-07-08 18:51:45.359375000,-33.5,2.0,55.0,112.0196875,-42.87,1.7814155624999999,34.41
2021-07-08 18:51:45.367187500,-33.25,2.0,55.0,112.01859375,-44.864999999999995,1.78197603125,34.41
2021-07-08 18:51:45.375000000,-33.0,2.0,55.0,112.0175,-46.86,1.7825365,34.41
2021-07-08 18:51:45.382812500,-33.0,2.0,54.75,112.01640625,-46.8,1.78309696875,34.41
2021-07-08 18:51:45.390625000,-33.0,2.0,54.5,112.0153125,-46.74,1.7836574375,34.41
2021-07-08 18:51:45.398437500,-33.0,2.0,54.25,112.01421875,-44.39,1.7842179062499999,34.41
2021-07-08 18:51:45.406250000,-33.0,2.0,54.0,112.013125,-42.04,1.784778375,34.41
2021-07-08 18:51:45.414062500,-33.25,2.0,54.25,112.01203124999999,-37.68,1.78533884375,34.41
2021-07-08 18:51:45.421875000,-33.5,2.0,54.5,112.0109375,-33.32,1.7858993125,34.41
2021-07-08 18:51:45.429687500,-33.75,2.0,54.75,112.00984375,-27.61,1.78645978125,34.41
2021-07-08 18:51:45.437500000,-34.0,2.0,55.0,112.00874999999999,-21.9,1.7870202499999999,34.41
2021-07-08 18:51:45.445312500,-34.0,2.0,54.75,112.00765625,-15.64,1.78758071875,34.41
2021-07-08 18:51:45.453125000,-34.0,2.0,54.5,112.0065625,-9.38,1.7881411875,34.41
2021-07-08 18:51:45.460937500,-34.0,2.0,54.25,112.00546875,-3.2250000000000005,1.78870165625,34.41
2021-07-08 18:51:45.468750000,-34.0,2.0,54.0,112.004375,2.93,1.789262125,34.41
2021-07-08 18:51:45.476562500,-34.0,2.0,54.0,112.00328125,8.57,1.78982259375,34.41
2021-07-08 18:51:45.484375000,-34.0,2.0,54.0,112.0021875,14.21,1.7903830625,34.41
2021-07-08 18:51:45.492187500,-34.0,2.0,54.0,112.00109375,19.115000000000002,1.79094353125,34.41
2021-07-08 18:51:45.500000000,-34.0,2.0,54.0,112.0,24.02,1.791504,34.41
2021-07-08 18:51:45.507812500,-34.0,2.0,54.0,111.99890625,28.07,1.79398596875,34.41
2021-07-08 18:51:45.515625000,-34.0,2.0,54.0,111.9978125,32.12,1.7964679375,34.41
2021-07-08 18:51:45.523437500,-34.0,2.0,54.0,111.99671875,35.165,1.79894990625,34.41
2021-07-08 18:51:45.531250000,-34.0,2.0,54.0,111.995625,38.21,1.801431875,34.41
2021-07-08 18:51:45.539062500,-34.0,2.0,54.0,111.99453125,40.105000000000004,1.80391384375,34.41
2021-07-08 18:51:45.546875000,-34.0,2.0,54.0,111.9934375,42.0,1.8063958125,34.41
2021-07-08 18:51:45.554687500,-34.0,2.0,54.0,111.99234375,42.68,1.80887778125,34.41
2021-07-08 18:51:45.562500000,-34.0,2.0,54.0,111.99125000000001,43.36,1.81135975,34.41
2021-07-08 18:51:45.570312500,-34.0,2.0,54.25,111.99015625,42.925,1.81384171875,34.41
2021-07-08 18:51:45.578125000,-34.0,2.0,54.5,111.9890625,42.49,1.8163236875,34.41
2021-07-08 18:51:45.585937500,-34.0,2.0,54.75,111.98796875000001,41.2,1.81880565625,34.41
2021-07-08 18:51:45.593750000,-34.0,2.0,55.0,111.986875,39.91,1.821287625,34.41
2021-07-08 18:51:45.601562500,-34.0,2.0,54.75,111.98578125,38.129999999999995,1.82376959375,34.41
2021-07-08 18:51:45.609375000,-34.0,2.0,54.5,111.9846875,36.35,1.8262515625,34.41
2021-07-08 18:51:45.617187500,-34.0,2.0,54.25,111.98359375,34.39,1.82873353125,34.41
2021-07-08 18:51:45.625000000,-34.0,2.0,54.0,111.9825,32.43,1.8312154999999999,34.41
2021-07-08 18:51:45.632812500,-33.75,2.0,54.25,111.98140625,30.490000000000002,1.83369746875,34.41
2021-07-08 18:51:45.640625000,-33.5,2.0,54.5,111.9803125,28.55,1.8361794375,34.41
2021-07-08 18:51:45.648437500,-33.25,2.0,54.75,111.97921875,26.67,1.83866140625,34.41
2021-07-08 18:51:45.656250000,-33.0,2.0,55.0,111.978125,24.79,1.841143375,34.41
2021-07-08 18:51:45.664062500,-33.0,2.0,55.0,111.97703125,22.939999999999998,1.84362534375,34.41
2021-07-08 18:51:45.671875000,-33.0,2.0,55.0,111.9759375,21.09,1.8461073125,34.41
2021-07-08 18:51:45.679687500,-33.0,2.0,55.0,111.97484375,19.205,1.84858928125,34.41
2021-07-08 18:51:45.687500000,-33.0,2.0,55.0,111.97375,17.32,1.85107125,34.41
2021-07-08 18:51:45.695312500,-33.25,2.0,55.0,111.97265625,15.4,1.85355321875,34.41
2021-07-08 18:51:45.703125000,-33.5,2.0,55.0,111.9715625,13.48,1.8560351875,34.41
2021-07-08 18:51:45.710937500,-33.75,2.0,55.0,111.97046875000001,11.600000000000001,1.85851715625,34.41
2021-07-08 18:51:45.718750000,-34.0,2.0,55.0,111.969375,9.72,1.860999125,34.41
2021-07-08 18:51:45.726562500,-33.75,2.0,54.75,111.96828125,7.995,1.86348109375,34.41
2021-07-08 18:51:45.734375000,-33.5,2.0,54.5,111.96718750000001,6.27,1.8659630625,34.41
2021-07-08 18:51:45.742187500,-33.25,2.0,54.25,111.96609375,4.79,1.86844503125,34.41
2021-07-08 18:51:45.750000000,-33.0,2.0,54.0,111.965,3.31,1.870927,34.41
2021-07-08 18:51:45.757812500,-33.0,2.0,54.0,111.96390625000001,2.075,1.8752104375,34.41
2021-07-08 18:51:45.765625000,-33.0,2.0,54.0,111.9628125,0.84,1.879493875,34.41
2021-07-08 18:51:45.773437500,-33.0,2.0,54.0,111.96171875,-0.2799999999999999,1.8837773125,34.41
2021-07-08 18:51:45.781250000,-33.0,2.0,54.0,111.96062500000001,-1.4,1.88806075,34.41
2021-07-08 18:51:45.789062500,-33.0,2.0,54.25,111.95953125,-2.665,1.8923441875,34.41
2021-07-08 18:51:45.796875000,-33.0,2.0,54.5,111.9584375,-3.93,1.896627625,34.41
2021-07-08 18:51:45.804687500,-33.0,2.0,54.75,111.95734375,-5.655,1.9009110625,34.41
2021-07-08 18:51:45.812500000,-33.0,2.0,55.0,111.95625000000001,-7.38,1.9051945,34.41
2021-07-08 18:51:45.820312500,-33.0,2.0,55.0,111.95515625,-9.855,1.9094779375,34.41
2021-07-08 18:51:45.828125000,-33.0,2.0,55.0,111.9540625,-12.33,1.913761375,34.41
2021-07-08 18:51:45.835937500,-33.0,2.0,55.0,111.95296875000001,-15.690000000000001,1.9180448125,34.41
2021-07-08 18:51:45.843750000,-33.0,2.0,55.0,111.951875,-19.05,1.92232825,34.41
2021-07-08 18:51:45.851562500,-33.0,2.0,55.0,111.95078125,-23.200000000000003,1.9266116875000001,34.41
2021-07-08 18:51:45.859375000,-33.0,2.0,55.0,111.94968750000001,-27.35,1.930895125,34.41
2021-07-08 18:51:45.867187500,-33.0,2.0,55.0,111.94859375,-31.89,1.9351785625,34.41
2021-07-08 18:51:45.875000000,-33.0,2.0,55.0,111.9475,-36.43,1.939462,34.41
2021-07-08 18:51:45.882812500,-33.0,2.0,54.75,111.94640625000001,-40.71,1.9437454375,34.41
2021-07-08 18:51:45.890625000,-33.0,2.0,54.5,111.9453125,-44.99,1.948028875,34.41
2021-07-08 18:51:45.898437500,-33.0,2.0,54.25,111.94421875,-48.235,1.9523123125,34.41
2021-07-08 18:51:45.906250000,-33.0,2.0,54.0,111.94312500000001,-51.48,1.95659575,34.41
2021-07-08 18:51:45.914062500,-33.25,2.0,54.0,111.94203125,-52.98,1.9608791875,34.41
2021-07-08 18:51:45.921875000,-33.5,2.0,54.0,111.9409375,-54.48,1.965162625,34.41
2021-07-08 18:51:45.929687500,-33.75,2.0,54.0,111.93984375000001,-53.775,1.9694460625,34.41
2021-07-08 18:51:45.937500000,-34.0,2.0,54.0,111.93875,-53.07,1.9737295000000001,34.41
2021-07-08 18:51:45.945312500,-33.75,2.0,54.25,111.93765625,-50.120000000000005,1.9780129375,34.41
2021-07-08 18:51:45.953125000,-33.5,2.0,54.5,111.93656250000001,-47.17,1.982296375,34.41
2021-07-08 18:51:45.960937500,-33.25,2.0,54.75,111.93546875000001,-42.335,1.9865798125,34.41
2021-07-08 18:51:45.968750000,-33.0,2.0,55.0,111.934375,-37.5,1.99086325,34.41
2021-07-08 18:51:45.976562500,-33.0,2.0,55.0,111.93328125000001,-31.43,1.9951466875000001,34.41
2021-07-08 18:51:45.984375000,-33.0,2.0,55.0,111.93218750000001,-25.36,1.999430125,34.41
2021-07-08 18:51:45.992187500,-33.0,2.0,55.0,111.93109375,-18.855,2.0037135625,34.41
2021-07-08 18:51:46.000000000,-33.0,2.0,55.0,111.93,-12.35,2.007997,34.41
2021-07-08 18:51:46.007812500,-33.0,2.0,55.0,111.92898437500001,-6.165,2.01332125,34.41
2021-07-08 18:51:46.015625000,-33.0,2.0,55.0,111.92796875,0.02,2.0186455,34.41
2021-07-08 18:51:46.023437500,-33.0,2.0,55.0,111.92695312500001,5.319999999999999,2.02396975,34.41
2021-07-08 18:51:46.031250000,-33.0,2.0,55.0,111.9259375,10.62,2.029294,34.41
2021-07-08 18:51:46.039062500,-33.0,2.0,55.0,111.92492187500001,14.68,2.03461825,34.41
2021-07-08 18:51:46.046875000,-33.0,2.0,55.0,111.92390625,18.74,2.0399425,34.41
2021-07-08 18:51:46.054687500,-33.0,2.0,55.0,111.92289062500001,21.46,2.04526675,34.41
2021-07-08 18:51:46.062500000,-33.0,2.0,55.0,111.921875,24.18,2.050591,34.41
2021-07-08 18:51:46.070312500,-33.0,2.0,55.0,111.920859375,25.619999999999997,2.05591525,34.41
2021-07-08 18:51:46.078125000,-33.0,2.0,55.0,111.91984375000001,27.06,2.0612395,34.41
2021-07-08 18:51:46.085937500,-33.0,2.0,55.0,111.918828125,27.415,2.0665637500000003,34.41
2021-07-08 18:51:46.093750000,-33.0,2.0,55.0,111.91781250000001,27.77,2.071888,34.41
2021-07-08 18:51:46.101562500,-33.0,2.0,55.0,111.916796875,27.285,2.07721225,34.41
2021-07-08 18:51:46.109375000,-33.0,2.0,55.0,111.91578125000001,26.8,2.0825365000000002,34.41
2021-07-08 18:51:46.117187500,-33.0,2.0,55.0,111.914765625,25.735,2.08786075,34.41
2021-07-08 18:51:46.125000000,-33.0,2.0,55.0,111.91375000000001,24.67,2.093185,34.41
2021-07-08 18:51:46.132812500,-33.0,2.0,55.0,111.912734375,23.245,2.09850925,34.41
2021-07-08 18:51:46.140625000,-33.0,2.0,55.0,111.91171875,21.82,2.1038335,34.41
2021-07-08 18:51:46.148437500,-33.0,2.0,55.0,111.91070312500001,20.240000000000002,2.10915775,34.41
2021-07-08 18:51:46.156250000,-33.0,2.0,55.0,111.9096875,18.66,2.114482,34.41
2021-07-08 18:51:46.164062500,-33.0,2.0,55.0,111.90867187500001,17.08,2.11980625,34.41
2021-07-08 18:51:46.171875000,-33.0,2.0,55.0,111.90765625,15.5,2.1251305,34.41
2021-07-08 18:51:46.179687500,-33.0,2.0,55.0,111.90664062500001,14.045,2.13045475,34.41
2021-07-08 18:51:46.187500000,-33.0,2.0,55.0,111.905625,12.59,2.1357790000000003,34.41
2021-07-08 18:51:46.195312500,-33.0,2.0,55.0,111.904609375,11.34,2.14110325,34.41
2021-07-08 18:51:46.203125000,-33.0,2.0,55.0,111.90359375,10.09,2.1464275,34.41
2021-07-08 18:51:46.210937500,-33.0,2.0,55.0,111.902578125,9.065,2.1517517500000003,34.41
2021-07-08 18:51:46.218750000,-33.0,2.0,55.0,111.90156250000001,8.04,2.157076,34.41
2021-07-08 18:51:46.226562500,-33.0,2.0,55.0,111.900546875,7.16,2.16240025,34.41
2021-07-08 18:51:46.234375000,-33.0,2.0,55.0,111.89953125000001,6.28,2.1677245000000003,34.41
2021-07-08 18:51:46.242187500,-33.0,2.0,55.0,111.898515625,5.4350000000000005,2.17304875,34.41
2021-07-08 18:51:46.250000000,-33.0,2.0,55.0,111.89750000000001,4.59,2.178373,34.41
2021-07-08 18:51:46.257812500,-33.25,2.0,55.0,111.896484375,3.66,2.1808149375,34.41
2021-07-08 18:51:46.265625000,-33.5,2.0,55.0,111.89546875,2.73,2.183256875,34.41
2021-07-08 18:51:46.273437500,-33.75,2.0,55.0,111.894453125,1.645,2.1856988125,34.41
2021-07-08 18:51:46.281250000,-34.0,2.0,55.0,111.8934375,0.56,2.18814075,34.41
2021-07-08 18:51:46.289062500,-34.0,2.0,55.0,111.89242187500001,-0.6799999999999999,2.1905826875,34.41
2021-07-08 18:51:46.296875000,-34.0,2.0,55.0,111.89140625,-1.92,2.193024625,34.41
2021-07-08 18:51:46.304687500,-34.0,2.0,55.0,111.89039062500001,-3.28,2.1954665625,34.41
2021-07-08 18:51:46.312500000,-34.0,2.0,55.0,111.889375,-4.64,2.1979085,34.41
2021-07-08 18:51:46.320312500,-33.75,2.0,55.0,111.88835937500001,-6.15,2.2003504375,34.41
2021-07-08 18:51:46.328125000,-33.5,2.0,55.0,111.88734375,-7.66,2.202792375,34.41
2021-07-08 18:51:46.335937500,-33.25,2.0,55.0,111.886328125,-9.445,2.2052343125,34.41
2021-07-08 18:51:46.343750000,-33.0,2.0,55.0,111.8853125,-11.23,2.20767625,34.41
2021-07-08 18:51:46.351562500,-33.0,2.0,55.0,111.884296875,-13.515,2.2101181875,34.41
2021-07-08 18:51:46.359375000,-33.0,2.0,55.0,111.88328125000001,-15.8,2.212560125,34.41
2021-07-08 18:51:46.367187500,-33.0,2.0,55.0,111.882265625,-18.79,2.2150020625,34.41
2021-07-08 18:51:46.375000000,-33.0,2.0,55.0,111.88125000000001,-21.78,2.217444,34.41
2021-07-08 18:51:46.382812500,-33.0,2.0,55.0,111.880234375,-25.509999999999998,2.2198859375,34.41
2021-07-08 18:51:46.390625000,-33.0,2.0,55.0,111.87921875,-29.24,2.222327875,34.41
2021-07-08 18:51:46.398437500,-33.0,2.0,55.0,111.878203125,-33.39,2.2247698125,34.41
2021-07-08 18:51:46.406250000,-33.0,2.0,55.0,111.8771875,-37.54,2.22721175,34.41
2021-07-08 18:51:46.414062500,-33.0,2.0,55.0,111.876171875,-41.44,2.2296536875,34.41
2021-07-08 18:51:46.421875000,-33.0,2.0,55.0,111.87515625,-45.34,2.232095625,34.41
2021-07-08 18:51:46.429687500,-33.0,2.0,55.0,111.87414062500001,-48.085,2.2345375625,34.41
2021-07-08 18:51:46.437500000,-33.0,2.0,55.0,111.873125,-50.83,2.2369795,34.41
2021-07-08 18:51:46.445312500,-33.0,2.0,54.75,111.87210937500001,-51.57,2.2394214375,34.41
2021-07-08 18:51:46.453125000,-33.0,2.0,54.5,111.87109375,-52.31,2.241863375,34.41
2021-07-08 18:51:46.460937500,-33.0,2.0,54.25,111.870078125,-50.59,2.2443053125,34.41
2021-07-08 18:51:46.468750000,-33.0,2.0,54.0,111.8690625,-48.87,2.24674725,34.41
2021-07-08 18:51:46.476562500,-33.0,2.0,54.25,111.868046875,-44.785,2.2491891875,34.41
2021-07-08 18:51:46.484375000,-33.0,2.0,54.5,111.86703125,-40.7,2.251631125,34.41
2021-07-08 18:51:46.492187500,-33.0,2.0,54.75,111.866015625,-34.870000000000005,2.2540730625,34.41
2021-07-08 18:51:46.500000000,-33.0,2.0,55.0,111.86500000000001,-29.04,2.256515,34.41
2021-07-08 18:51:46.507812500,-33.0,2.0,55.0,111.863984375,-22.4,2.2576759374999997,34.41
2021-07-08 18:51:46.515625000,-33.0,2.0,55.0,111.86296875000001,-15.76,2.2588368749999996,34.41
2021-07-08 18:51:46.523437500,-33.0,2.0,55.0,111.861953125,-9.19,2.2599978125,34.41
2021-07-08 18:51:46.531250000,-33.0,2.0,55.0,111.8609375,-2.62,2.26115875,34.41
2021-07-08 18:51:46.539062500,-33.0,2.0,55.0,111.859921875,3.2800000000000002,2.2623196875,34.41
2021-07-08 18:51:46.546875000,-33.0,2.0,55.0,111.85890625,9.18,2.2634806249999997,34.41
2021-07-08 18:51:46.554687500,-33.0,2.0,55.0,111.857890625,14.17,2.2646415625,34.41
2021-07-08 18:51:46.562500000,-33.0,2.0,55.0,111.856875,19.16,2.2658025,34.41
2021-07-08 18:51:46.570312500,-33.0,2.0,55.0,111.855859375,23.23,2.2669634375,34.41
2021-07-08 18:51:46.578125000,-33.0,2.0,55.0,111.85484375,27.3,2.2681243749999997,34.41
2021-07-08 18:51:46.585937500,-33.0,2.0,55.0,111.853828125,30.479999999999997,2.2692853124999997,34.41
2021-07-08 18:51:46.593750000,-33.0,2.0,55.0,111.8528125,33.66,2.27044625,34.41
2021-07-08 18:51:46.601562500,-33.0,2.0,55.0,111.851796875,35.91,2.2716071875,34.41
2021-07-08 18:51:46.609375000,-33.0,2.0,55.0,111.85078125,38.16,2.272768125,34.41
2021-07-08 18:51:46.617187500,-33.0,2.0,55.0,111.849765625,39.394999999999996,2.2739290624999997,34.41
2021-07-08 18:51:46.625000000,-33.0,2.0,55.0,111.84875,40.63,2.2750899999999996,34.41
2021-07-08 18:51:46.632812500,-33.0,2.0,55.0,111.847734375,40.790000000000006,2.2762509375,34.41
2021-07-08 18:51:46.640625000,-33.0,2.0,55.0,111.84671875,40.95,2.277411875,34.41
2021-07-08 18:51:46.648437500,-33.0,2.0,55.0,111.845703125,40.150000000000006,2.2785728124999998,34.41
2021-07-08 18:51:46.656250000,-33.0,2.0,55.0,111.8446875,39.35,2.2797337499999997,34.41
2021-07-08 18:51:46.664062500,-33.0,2.0,55.0,111.843671875,37.89,2.2808946875,34.41
2021-07-08 18:51:46.671875000,-33.0,2.0,55.0,111.84265625,36.43,2.282055625,34.41
2021-07-08 18:51:46.679687500,-33.0,2.0,55.0,111.841640625,34.64,2.2832165625,34.41
2021-07-08 18:51:46.687500000,-33.0,2.0,55.0,111.840625,32.85,2.2843774999999997,34.41
2021-07-08 18:51:46.695312500,-33.0,2.0,55.0,111.839609375,31.035,2.2855384374999996,34.41
2021-07-08 18:51:46.703125000,-33.0,2.0,55.0,111.83859375,29.22,2.286699375,34.41
2021-07-08 18:51:46.710937500,-33.0,2.0,55.0,111.837578125,27.52,2.2878603125,34.41
2021-07-08 18:51:46.718750000,-33.0,2.0,55.0,111.8365625,25.82,2.28902125,34.41
2021-07-08 18:51:46.726562500,-33.0,2.0,55.0,111.835546875,24.23,2.2901821874999997,34.41
2021-07-08 18:51:46.734375000,-33.0,2.0,55.0,111.83453125,22.64,2.291343125,34.41
2021-07-08 18:51:46.742187500,-33.0,2.0,55.0,111.833515625,21.09,2.2925040625,34.41
2021-07-08 18:51:46.750000000,-33.0,2.0,55.0,111.8325,19.54,2.293665,34.41
2021-07-08 18:51:46.757812500,-33.0,2.0,55.0,111.831484375,17.975,2.2937450624999998,34.41
2021-07-08 18:51:46.765625000,-33.0,2.0,55.0,111.83046875,16.41,2.2938251249999997,34.41
2021-07-08 18:51:46.773437500,-33.0,2.0,55.0,111.829453125,14.825,2.2939051875,34.41
2021-07-08 18:51:46.781250000,-33.0,2.0,55.0,111.82843749999999,13.24,2.29398525,34.41
2021-07-08 18:51:46.789062500,-33.0,2.0,55.0,111.827421875,11.629999999999999,2.2940653125,34.41
2021-07-08 18:51:46.796875000,-33.0,2.0,55.0,111.82640625,10.02,2.294145375,34.41
2021-07-08 18:51:46.804687500,-33.0,2.0,55.0,111.825390625,8.379999999999999,2.2942254374999997,34.41
2021-07-08 18:51:46.812500000,-33.0,2.0,55.0,111.824375,6.74,2.2943055,34.41
2021-07-08 18:51:46.820312500,-33.0,2.0,54.75,111.823359375,4.995,2.2943855625,34.41
2021-07-08 18:51:46.828125000,-33.0,2.0,54.5,111.82234375,3.25,2.294465625,34.41
2021-07-08 18:51:46.835937500,-33.0,2.0,54.25,111.821328125,1.275,2.2945456875,34.41
2021-07-08 18:51:46.843750000,-33.0,2.0,54.0,111.8203125,-0.7,2.29462575,34.41
2021-07-08 18:51:46.851562500,-33.0,2.0,54.25,111.81929687499999,-3.0599999999999996,2.2947058124999997,34.41
2021-07-08 18:51:46.859375000,-33.0,2.0,54.5,111.81828125,-5.42,2.294785875,34.41
2021-07-08 18:51:46.867187500,-33.0,2.0,54.75,111.817265625,-8.285,2.2948659375,34.41
2021-07-08 18:51:46.875000000,-33.0,2.0,55.0,111.81625,-11.15,2.294946,34.41
2021-07-08 18:51:46.882812500,-33.0,2.0,55.0,111.815234375,-14.555,2.2950260625,34.41
2021-07-08 18:51:46.890625000,-33.0,2.0,55.0,111.81421875,-17.96,2.2951061249999998,34.41
2021-07-08 18:51:46.898437500,-33.0,2.0,55.0,111.813203125,-21.815,2.2951861875,34.41
2021-07-08 18:51:46.906250000,-33.0,2.0,55.0,111.8121875,-25.67,2.29526625,34.41
2021-07-08 18:51:46.914062500,-33.0,2.0,55.0,111.811171875,-29.73,2.2953463125,34.41
2021-07-08 18:51:46.921875000,-33.0,2.0,55.0,111.81015624999999,-33.79,2.295426375,34.41
2021-07-08 18:51:46.929687500,-33.0,2.0,55.0,111.809140625,-37.620000000000005,2.2955064375,34.41
2021-07-08 18:51:46.937500000,-33.0,2.0,55.0,111.808125,-41.45,2.2955864999999998,34.41
2021-07-08 18:51:46.945312500,-33.0,2.0,55.0,111.807109375,-44.46,2.2956665625,34.41
2021-07-08 18:51:46.953125000,-33.0,2.0,55.0,111.80609375,-47.47,2.295746625,34.41
2021-07-08 18:51:46.960937500,-33.0,2.0,55.0,111.805078125,-49.055,2.2958266875,34.41
2021-07-08 18:51:46.968750000,-33.0,2.0,55.0,111.8040625,-50.64,2.29590675,34.41
2021-07-08 18:51:46.976562500,-33.0,2.0,54.75,111.80304687499999,-50.315,2.2959868125,34.41
2021-07-08 18:51:46.984375000,-33.0,2.0,54.5,111.80203125,-49.99,2.296066875,34.41
2021-07-08 18:51:46.992187500,-33.0,2.0,54.25,111.80101562499999,-47.6,2.2961469375,34.41
2021-07-08 18:51:47.000000000,-33.0,2.0,54.0,111.8,-45.21,2.296227,34.41
2021-07-08 18:51:47.007812500,-33.0,2.0,54.25,111.79906249999999,-40.980000000000004,2.2952261875,34.409375
2021-07-08 18:51:47.015625000,-33.0,2.0,54.5,111.798125,-36.75,2.294225375,34.40875
2021-07-08 18:51:47.023437500,-33.0,2.0,54.75,111.79718749999999,-31.28,2.2932245625,34.408125
2021-07-08 18:51:47.031250000,-33.0,2.0,55.0,111.79625,-25.81,2.29222375,34.4075
2021-07-08 18:51:47.039062500,-33.0,2.0,55.0,111.7953125,-19.875,2.2912229375,34.406875
2021-07-08 18:51:47.046875000,-33.0,2.0,55.0,111.794375,-13.94,2.290222125,34.40625
2021-07-08 18:51:47.054687500,-33.0,2.0,55.0,111.7934375,-8.26,2.2892213125,34.405625
2021-07-08 18:51:47.062500000,-33.0,2.0,55.0,111.7925,-2.58,2.2882205,34.405
2021-07-08 18:51:47.070312500,-33.0,2.0,55.0,111.7915625,2.3550000000000004,2.2872196875,34.404374999999995
2021-07-08 18:51:47.078125000,-33.0,2.0,55.0,111.79062499999999,7.29,2.286218875,34.403749999999995
2021-07-08 18:51:47.085937500,-33.0,2.0,55.0,111.7896875,11.295000000000002,2.2852180625,34.403124999999996
2021-07-08 18:51:47.093750000,-33.0,2.0,55.0,111.78875,15.3,2.28421725,34.402499999999996
2021-07-08 18:51:47.101562500,-33.0,2.0,55.0,111.7878125,18.415,2.2832164375,34.401875
2021-07-08 18:51:47.109375000,-33.0,2.0,55.0,111.786875,21.53,2.282215625,34.40125
2021-07-08 18:51:47.117187500,-33.0,2.0,55.0,111.7859375,23.884999999999998,2.2812148125,34.400625
2021-07-08 18:51:47.125000000,-33.0,2.0,55.0,111.785,26.24,2.280214,34.4
2021-07-08 18:51:47.132812500,-33.0,2.0,55.0,111.7840625,27.905,2.2792131875,34.399375
2021-07-08 18:51:47.140625000,-33.0,2.0,55.0,111.783125,29.57,2.278212375,34.39875
2021-07-08 18:51:47.148437500,-33.0,2.0,55.0,111.78218749999999,30.545,2.2772115625,34.398125
2021-07-08 18:51:47.156250000,-33.0,2.0,55.0,111.78125,31.52,2.2762107499999997,34.3975
2021-07-08 18:51:47.164062500,-33.0,2.0,54.75,111.7803125,31.759999999999998,2.2752099375,34.396875
2021-07-08 18:51:47.171875000,-33.0,2.0,54.5,111.779375,32.0,2.274209125,34.39625
2021-07-08 18:51:47.179687500,-33.0,2.0,54.25,111.7784375,31.505000000000003,2.2732083125,34.395625
2021-07-08 18:51:47.187500000,-33.0,2.0,54.0,111.7775,31.01,2.2722075,34.394999999999996
2021-07-08 18:51:47.195312500,-33.0,2.0,54.25,111.7765625,29.935000000000002,2.2712066875,34.394375
2021-07-08 18:51:47.203125000,-33.0,2.0,54.5,111.775625,28.86,2.270205875,34.39375
2021-07-08 18:51:47.210937500,-33.0,2.0,54.75,111.7746875,27.424999999999997,2.2692050624999998,34.393125
2021-07-08 18:51:47.218750000,-33.0,2.0,55.0,111.77374999999999,25.99,2.26820425,34.3925
2021-07-08 18:51:47.226562500,-33.0,2.0,55.0,111.7728125,24.46,2.2672034375,34.391875
2021-07-08 18:51:47.234375000,-33.0,2.0,55.0,111.771875,22.93,2.266202625,34.39125
2021-07-08 18:51:47.242187500,-33.0,2.0,55.0,111.7709375,21.46,2.2652018125,34.390625
2021-07-08 18:51:47.250000000,-33.0,2.0,55.0,111.77,19.99,2.264201,34.39
2021-07-08 18:51:47.257812500,-33.0,2.0,55.0,111.7690625,18.6,2.2623995624999997,34.39
2021-07-08 18:51:47.265625000,-33.0,2.0,55.0,111.768125,17.21,2.260598125,34.39
2021-07-08 18:51:47.273437500,-33.0,2.0,55.0,111.7671875,15.845,2.2587966875,34.39
2021-07-08 18:51:47.281250000,-33.0,2.0,55.0,111.76625,14.48,2.25699525,34.39
2021-07-08 18:51:47.289062500,-33.0,2.0,55.0,111.7653125,13.065000000000001,2.2551938125,34.39
2021-07-08 18:51:47.296875000,-33.0,2.0,55.0,111.764375,11.65,2.253392375,34.39
2021-07-08 18:51:47.304687500,-33.0,2.0,55.0,111.7634375,10.195,2.2515909375,34.39
2021-07-08 18:51:47.312500000,-33.0,2.0,55.0,111.7625,8.74,2.2497895,34.39
2021-07-08 18:51:47.320312500,-33.0,2.0,55.0,111.7615625,7.305,2.2479880624999997,34.39
2021-07-08 18:51:47.328125000,-33.0,2.0,55.0,111.760625,5.87,2.246186625,34.39
2021-07-08 18:51:47.335937500,-33.0,2.0,55.0,111.7596875,4.5600000000000005,2.2443851875,34.39
2021-07-08 18:51:47.343750000,-33.0,2.0,55.0,111.75875,3.25,2.2425837499999997,34.39
2021-07-08 18:51:47.351562500,-33.0,2.0,55.0,111.7578125,2.1,2.2407823125,34.39
2021-07-08 18:51:47.359375000,-33.0,2.0,55.0,111.756875,0.95,2.2389808749999998,34.39
2021-07-08 18:51:47.367187500,-33.0,2.0,55.0,111.7559375,-0.11999999999999988,2.2371794375,34.39
2021-07-08 18:51:47.375000000,-33.0,2.0,55.0,111.755,-1.19,2.235378,34.39
2021-07-08 18:51:47.382812500,-33.0,2.0,55.0,111.7540625,-2.3899999999999997,2.2335765624999997,34.39
2021-07-08 18:51:47.390625000,-33.0,2.0,55.0,111.753125,-3.59,2.231775125,34.39
2021-07-08 18:51:47.398437500,-33.0,2.0,55.0,111.7521875,-5.195,2.2299736875,34.39
2021-07-08 18:51:47.406250000,-33.0,2.0,55.0,111.75125,-6.8,2.22817225,34.39
2021-07-08 18:51:47.414062500,-33.25,2.0,55.0,111.7503125,-9.084999999999999,2.2263708125,34.39
2021-07-08 18:51:47.421875000,-33.5,2.0,55.0,111.749375,-11.37,2.2245693749999997,34.39
2021-07-08 18:51:47.429687500,-33.75,2.0,55.0,111.7484375,-14.440000000000001,2.2227679375,34.39
2021-07-08 18:51:47.437500000,-34.0,2.0,55.0,111.7475,-17.51,2.2209665,34.39
2021-07-08 18:51:47.445312500,-34.0,2.0,55.0,111.7465625,-21.17,2.2191650624999997,34.39
2021-07-08 18:51:47.453125000,-34.0,2.0,55.0,111.745625,-24.83,2.217363625,34.39
2021-07-08 18:51:47.460937500,-34.0,2.0,55.0,111.7446875,-28.55,2.2155621875,34.39
2021-07-08 18:51:47.468750000,-34.0,2.0,55.0,111.74375,-32.27,2.2137607499999996,34.39
2021-07-08 18:51:47.476562500,-33.75,2.0,55.0,111.7428125,-35.265,2.2119593125,34.39
2021-07-08 18:51:47.484375000,-33.5,2.0,55.0,111.74187500000001,-38.26,2.2101578749999997,34.39
2021-07-08 18:51:47.492187500,-33.25,2.0,55.0,111.7409375,-39.72,2.2083564375,34.39
2021-07-08 18:51:47.500000000,-33.0,2.0,55.0,111.74000000000001,-41.18,2.206555,34.39
2021-07-08 18:51:47.507812500,-33.0,2.0,55.0,111.7390625,-40.555,2.2046734999999997,34.39
2021-07-08 18:51:47.515625000,-33.0,2.0,55.0,111.738125,-39.93,2.2027919999999996,34.39
2021-07-08 18:51:47.523437500,-33.0,2.0,55.0,111.7371875,-37.129999999999995,2.2009105,34.39
2021-07-08 18:51:47.531250000,-33.0,2.0,55.0,111.73625,-34.33,2.199029,34.39
2021-07-08 18:51:47.539062500,-33.0,2.0,54.75,111.7353125,-29.744999999999997,2.1971475,34.39
2021-07-08 18:51:47.546875000,-33.0,2.0,54.5,111.734375,-25.16,2.1952659999999997,34.39
2021-07-08 18:51:47.554687500,-33.0,2.0,54.25,111.73343750000001,-19.525,2.1933845,34.39
2021-07-08 18:51:47.562500000,-33.0,2.0,54.0,111.7325,-13.89,2.191503,34.39
2021-07-08 18:51:47.570312500,-33.25,2.0,54.25,111.73156250000001,-8.005,2.1896215,34.39
2021-07-08 18:51:47.578125000,-33.5,2.0,54.5,111.730625,-2.12,2.18774,34.39
2021-07-08 18:51:47.585937500,-33.75,2.0,54.75,111.7296875,3.3899999999999997,2.1858584999999997,34.39
2021-07-08 18:51:47.593750000,-34.0,2.0,55.0,111.72875,8.9,2.183977,34.39
2021-07-08 18:51:47.601562500,-33.75,2.0,55.0,111.7278125,13.670000000000002,2.1820955,34.39
2021-07-08 18:51:47.609375000,-33.5,2.0,55.0,111.726875,18.44,2.180214,34.39
2021-07-08 18:51:47.617187500,-33.25,2.0,55.0,111.7259375,22.315,2.1783325,34.39
2021-07-08 18:51:47.625000000,-33.0,2.0,55.0,111.72500000000001,26.19,2.176451,34.39
2021-07-08 18:51:47.632812500,-33.0,2.0,55.0,111.7240625,29.08,2.1745695,34.39
2021-07-08 18:51:47.640625000,-33.0,2.0,55.0,111.72312500000001,31.97,2.172688,34.39
2021-07-08 18:51:47.648437500,-33.0,2.0,55.0,111.7221875,33.81,2.1708065,34.39
2021-07-08 18:51:47.656250000,-33.0,2.0,55.0,111.72125,35.65,2.1689249999999998,34.39
2021-07-08 18:51:47.664062500,-33.25,2.0,54.75,111.7203125,36.425,2.1670435,34.39
2021-07-08 18:51:47.671875000,-33.5,2.0,54.5,111.719375,37.2,2.165162,34.39
2021-07-08 18:51:47.679687500,-33.75,2.0,54.25,111.71843750000001,36.995000000000005,2.1632805,34.39
2021-07-08 18:51:47.687500000,-34.0,2.0,54.0,111.7175,36.79,2.161399,34.39
2021-07-08 18:51:47.695312500,-34.0,2.0,54.25,111.71656250000001,35.86,2.1595174999999998,34.39
2021-07-08 18:51:47.703125000,-34.0,2.0,54.5,111.715625,34.93,2.157636,34.39
2021-07-08 18:51:47.710937500,-34.0,2.0,54.75,111.71468750000001,33.620000000000005,2.1557545,34.39
2021-07-08 18:51:47.718750000,-34.0,2.0,55.0,111.71375,32.31,2.153873,34.39
2021-07-08 18:51:47.726562500,-33.75,2.0,55.0,111.7128125,30.910000000000004,2.1519915,34.39
2021-07-08 18:51:47.734375000,-33.5,2.0,55.0,111.711875,29.51,2.15011,34.39
2021-07-08 18:51:47.742187500,-33.25,2.0,55.0,111.7109375,28.14,2.1482285,34.39
2021-07-08 18:51:47.750000000,-33.0,2.0,55.0,111.71000000000001,26.77,2.146347,34.39
2021-07-08 18:51:47.757812500,-33.25,2.0,54.75,111.7090625,25.369999999999997,2.14450553125,34.39
2021-07-08 18:51:47.765625000,-33.5,2.0,54.5,111.70812500000001,23.97,2.1426640625,34.39
2021-07-08 18:51:47.773437500,-33.75,2.0,54.25,111.7071875,22.415,2.14082259375,34.39
2021-07-08 18:51:47.781250000,-34.0,2.0,54.0,111.70625000000001,20.86,2.138981125,34.39
2021-07-08 18:51:47.789062500,-34.0,2.0,54.0,111.7053125,19.049999999999997,2.13713965625,34.39
2021-07-08 18:51:47.796875000,-34.0,2.0,54.0,111.704375,17.24,2.1352981875,34.39
2021-07-08 18:51:47.804687500,-34.0,2.0,54.0,111.7034375,15.235,2.1334567187499998,34.39
2021-07-08 18:51:47.812500000,-34.0,2.0,54.0,111.7025,13.23,2.13161525,34.39
2021-07-08 18:51:47.820312500,-34.0,2.0,54.0,111.70156250000001,11.195,2.12977378125,34.39
2021-07-08 18:51:47.828125000,-34.0,2.0,54.0,111.700625,9.16,2.1279323125,34.39
2021-07-08 18:51:47.835937500,-34.0,2.0,54.0,111.69968750000001,7.3100000000000005,2.12609084375,34.39
2021-07-08 18:51:47.843750000,-34.0,2.0,54.0,111.69875,5.46,2.1242493749999998,34.39
2021-07-08 18:51:47.851562500,-34.0,2.0,54.0,111.69781250000001,3.935,2.12240790625,34.39
2021-07-08 18:51:47.859375000,-34.0,2.0,54.0,111.696875,2.41,2.1205664375,34.39
2021-07-08 18:51:47.867187500,-34.0,2.0,54.0,111.6959375,1.205,2.11872496875,34.39
2021-07-08 18:51:47.875000000,-34.0,2.0,54.0,111.69500000000001,0.0,2.1168835,34.39
2021-07-08 18:51:47.882812500,-34.0,2.0,54.0,111.6940625,-1.045,2.11504203125,34.39
2021-07-08 18:51:47.890625000,-34.0,2.0,54.0,111.69312500000001,-2.09,2.1132005625,34.39
2021-07-08 18:51:47.898437500,-34.0,2.0,54.0,111.6921875,-3.235,2.11135909375,34.39
2021-07-08 18:51:47.906250000,-34.0,2.0,54.0,111.69125000000001,-4.38,2.109517625,34.39
2021-07-08 18:51:47.914062500,-34.0,2.0,54.0,111.6903125,-5.9350000000000005,2.1076761562499997,34.39
2021-07-08 18:51:47.921875000,-34.0,2.0,54.0,111.68937500000001,-7.49,2.1058346875,34.39
2021-07-08 18:51:47.929687500,-34.0,2.0,54.0,111.6884375,-9.75,2.10399321875,34.39
2021-07-08 18:51:47.937500000,-34.0,2.0,54.0,111.6875,-12.01,2.10215175,34.39
2021-07-08 18:51:47.945312500,-34.0,2.0,54.0,111.68656250000001,-15.129999999999999,2.10031028125,34.39
2021-07-08 18:51:47.953125000,-34.0,2.0,54.0,111.685625,-18.25,2.0984688124999997,34.39
2021-07-08 18:51:47.960937500,-34.0,2.0,54.0,111.68468750000001,-22.185000000000002,2.09662734375,34.39
2021-07-08 18:51:47.968750000,-34.0,2.0,54.0,111.68375,-26.12,2.094785875,34.39
2021-07-08 18:51:47.976562500,-34.0,2.0,54.25,111.68281250000001,-30.490000000000002,2.09294440625,34.39
2021-07-08 18:51:47.984375000,-34.0,2.0,54.5,111.681875,-34.86,2.0911029374999996,34.39
2021-07-08 18:51:47.992187500,-34.0,2.0,54.75,111.68093750000001,-38.985,2.0892614687499997,34.39
2021-07-08 18:51:48.000000000,-34.0,2.0,55.0,111.68,-43.11,2.08742,34.39
2021-07-08 18:51:48.007812500,-34.0,2.0,54.75,111.67921875,-46.17,2.0862190312499997,34.39
2021-07-08 18:51:48.015625000,-34.0,2.0,54.5,111.6784375,-49.23,2.0850180624999997,34.39
2021-07-08 18:51:48.023437500,-34.0,2.0,54.25,111.67765625000001,-50.474999999999994,2.08381709375,34.39
2021-07-08 18:51:48.031250000,-34.0,2.0,54.0,111.67687500000001,-51.72,2.082616125,34.39
2021-07-08 18:51:48.039062500,-34.0,2.0,54.0,111.67609375,-50.730000000000004,2.08141515625,34.39
2021-07-08 18:51:48.046875000,-34.0,2.0,54.0,111.6753125,-49.74,2.0802141874999998,34.39
2021-07-08 18:51:48.054687500,-34.0,2.0,54.0,111.67453125,-46.565,2.07901321875,34.39
2021-07-08 18:51:48.062500000,-34.0,2.0,54.0,111.67375000000001,-43.39,2.07781225,34.39
2021-07-08 18:51:48.070312500,-34.0,2.0,54.0,111.67296875000001,-38.515,2.07661128125,34.39
2021-07-08 18:51:48.078125000,-34.0,2.0,54.0,111.6721875,-33.64,2.0754103125,34.39
2021-07-08 18:51:48.085937500,-34.0,2.0,54.0,111.67140625,-27.82,2.0742093437499998,34.39
2021-07-08 18:51:48.093750000,-34.0,2.0,54.0,111.670625,-22.0,2.073008375,34.39
2021-07-08 18:51:48.101562500,-34.0,2.0,54.0,111.66984375000001,-16.035,2.07180740625,34.39
2021-07-08 18:51:48.109375000,-34.0,2.0,54.0,111.66906250000001,-10.07,2.0706064375,34.39
2021-07-08 18:51:48.117187500,-34.0,2.0,54.0,111.66828125,-4.6000000000000005,2.06940546875,34.39
2021-07-08 18:51:48.125000000,-34.0,2.0,54.0,111.6675,0.87,2.0682045000000002,34.39
2021-07-08 18:51:48.132812500,-34.0,2.0,54.0,111.66671875,5.465000000000001,2.06700353125,34.39
2021-07-08 18:51:48.140625000,-34.0,2.0,54.0,111.66593750000001,10.06,2.0658025625,34.39
2021-07-08 18:51:48.148437500,-34.0,2.0,54.0,111.66515625000001,13.625,2.06460159375,34.39
2021-07-08 18:51:48.156250000,-34.0,2.0,54.0,111.664375,17.19,2.063400625,34.39
2021-07-08 18:51:48.164062500,-34.0,2.0,54.0,111.66359375,19.75,2.0621996562500002,34.39
2021-07-08 18:51:48.171875000,-34.0,2.0,54.0,111.6628125,22.31,2.0609986875,34.39
2021-07-08 18:51:48.179687500,-34.0,2.0,54.0,111.66203125,23.97,2.05979771875,34.39
2021-07-08 18:51:48.187500000,-34.0,2.0,54.0,111.66125000000001,25.63,2.05859675,34.39
2021-07-08 18:51:48.195312500,-34.0,2.0,54.0,111.66046875,26.494999999999997,2.05739578125,34.39
2021-07-08 18:51:48.203125000,-34.0,2.0,54.0,111.6596875,27.36,2.0561948125000002,34.39
2021-07-08 18:51:48.210937500,-34.0,2.0,54.0,111.65890625,27.560000000000002,2.05499384375,34.39
2021-07-08 18:51:48.218750000,-34.0,2.0,54.0,111.658125,27.76,2.053792875,34.39
2021-07-08 18:51:48.226562500,-34.0,2.0,54.0,111.65734375000001,27.380000000000003,2.05259190625,34.39
2021-07-08 18:51:48.234375000,-34.0,2.0,54.0,111.6565625,27.0,2.0513909375000003,34.39
2021-07-08 18:51:48.242187500,-34.0,2.0,54.0,111.65578125,26.130000000000003,2.0501899687500003,34.39
2021-07-08 18:51:48.250000000,-34.0,2.0,54.0,111.655,25.26,2.048989,34.39
2021-07-08 18:51:48.257812500,-34.0,2.0,54.0,111.65421875,24.0,2.047708,34.39
2021-07-08 18:51:48.265625000,-34.0,2.0,54.0,111.65343750000001,22.74,2.046427,34.39
2021-07-08 18:51:48.273437500,-34.0,2.0,54.0,111.65265625,21.185,2.0451460000000004,34.39
2021-07-08 18:51:48.281250000,-34.0,2.0,54.0,111.651875,19.63,2.0438650000000003,34.39
2021-07-08 18:51:48.289062500,-34.0,2.0,54.25,111.65109375,17.9,2.042584,34.39
2021-07-08 18:51:48.296875000,-34.0,2.0,54.5,111.6503125,16.17,2.041303,34.39
2021-07-08 18:51:48.304687500,-34.0,2.0,54.75,111.64953125000001,14.38,2.040022,34.39
2021-07-08 18:51:48.312500000,-34.0,2.0,55.0,111.64875,12.59,2.038741,34.39
2021-07-08 18:51:48.320312500,-34.0,2.0,54.75,111.64796875,10.83,2.0374600000000003,34.39
2021-07-08 18:51:48.328125000,-34.0,2.0,54.5,111.6471875,9.07,2.036179,34.39
2021-07-08 18:51:48.335937500,-34.0,2.0,54.25,111.64640625,7.385,2.034898,34.39
2021-07-08 18:51:48.343750000,-34.0,2.0,54.0,111.64562500000001,5.7,2.033617,34.39
2021-07-08 18:51:48.351562500,-34.0,2.0,54.0,111.64484375,4.095000000000001,2.032336,34.39
2021-07-08 18:51:48.359375000,-34.0,2.0,54.0,111.6440625,2.49,2.0310550000000003,34.39
2021-07-08 18:51:48.367187500,-34.0,2.0,54.0,111.64328125,0.9400000000000002,2.029774,34.39
2021-07-08 18:51:48.375000000,-34.0,2.0,54.0,111.6425,-0.61,2.028493,34.39
2021-07-08 18:51:48.382812500,-34.0,2.0,54.0,111.64171875000001,-2.115,2.027212,34.39
2021-07-08 18:51:48.390625000,-34.0,2.0,54.0,111.6409375,-3.62,2.025931,34.39
2021-07-08 18:51:48.398437500,-34.0,2.0,54.0,111.64015625,-5.09,2.0246500000000003,34.39
2021-07-08 18:51:48.406250000,-34.0,2.0,54.0,111.639375,-6.56,2.023369,34.39
2021-07-08 18:51:48.414062500,-34.0,2.0,54.0,111.63859375,-8.01,2.022088,34.39
2021-07-08 18:51:48.421875000,-34.0,2.0,54.0,111.63781250000001,-9.46,2.020807,34.39
2021-07-08 18:51:48.429687500,-34.0,2.0,54.0,111.63703125,-10.945,2.019526,34.39
2021-07-08 18:51:48.437500000,-34.0,2.0,54.0,111.63625,-12.43,2.0182450000000003,34.39
2021-07-08 18:51:48.445312500,-34.0,2.0,54.0,111.63546875,-14.085,2.016964,34.39
2021-07-08 18:51:48.453125000,-34.0,2.0,54.0,111.6346875,-15.74,2.015683,34.39
2021-07-08 18:51:48.460937500,-34.0,2.0,54.0,111.63390625000001,-17.77,2.014402,34.39
2021-07-08 18:51:48.468750000,-34.0,2.0,54.0,111.633125,-19.8,2.013121,34.39
2021-07-08 18:51:48.476562500,-34.0,2.0,54.0,111.63234375,-22.39,2.01184,34.39
2021-07-08 18:51:48.484375000,-34.0,2.0,54.0,111.6315625,-24.98,2.010559,34.39
2021-07-08 18:51:48.492187500,-34.0,2.0,54.0,111.63078125,-28.175,2.009278,34.39
2021-07-08 18:51:48.500000000,-34.0,2.0,54.0,111.63,-31.37,2.007997,34.39
2021-07-08 18:51:48.507812500,-34.0,2.0,54.0,111.62921875,-34.885,2.007236375,34.39
2021-07-08 18:51:48.515625000,-34.0,2.0,54.0,111.6284375,-38.4,2.00647575,34.39
2021-07-08 18:51:48.523437500,-34.0,2.0,54.0,111.62765625,-41.655,2.005715125,34.39
2021-07-08 18:51:48.531250000,-34.0,2.0,54.0,111.626875,-44.91,2.0049545,34.39
2021-07-08 18:51:48.539062500,-34.0,2.0,54.0,111.62609375,-47.129999999999995,2.004193875,34.39
2021-07-08 18:51:48.546875000,-34.0,2.0,54.0,111.6253125,-49.35,2.00343325,34.39
2021-07-08 18:51:48.554687500,-34.0,2.0,54.0,111.62453125,-49.815,2.002672625,34.39
2021-07-08 18:51:48.562500000,-34.0,2.0,54.0,111.62375,-50.28,2.001912,34.39
2021-07-08 18:51:48.570312500,-34.0,2.0,54.0,111.62296875,-48.615,2.001151375,34.39
2021-07-08 18:51:48.578125000,-34.0,2.0,54.0,111.6221875,-46.95,2.00039075,34.39
2021-07-08 18:51:48.585937500,-34.0,2.0,54.0,111.62140625,-43.24,1.999630125,34.39
2021-07-08 18:51:48.593750000,-34.0,2.0,54.0,111.620625,-39.53,1.9988695,34.39
2021-07-08 18:51:48.601562500,-34.0,2.0,54.0,111.61984375,-34.31,1.998108875,34.39
2021-07-08 18:51:48.609375000,-34.0,2.0,54.0,111.6190625,-29.09,1.99734825,34.39
2021-07-08 18:51:48.617187500,-34.0,2.0,54.0,111.61828125,-23.119999999999997,1.996587625,34.39
2021-07-08 18:51:48.625000000,-34.0,2.0,54.0,111.6175,-17.15,1.995827,34.39
2021-07-08 18:51:48.632812500,-34.0,2.0,54.0,111.61671875,-11.195,1.995066375,34.39
2021-07-08 18:51:48.640625000,-34.0,2.0,54.0,111.6159375,-5.24,1.99430575,34.39
2021-07-08 18:51:48.648437500,-34.0,2.0,54.0,111.61515625,0.1349999999999998,1.993545125,34.39
2021-07-08 18:51:48.656250000,-34.0,2.0,54.0,111.614375,5.51,1.9927845,34.39
2021-07-08 18:51:48.664062500,-34.0,2.0,54.0,111.61359375,9.99,1.992023875,34.39
2021-07-08 18:51:48.671875000,-34.0,2.0,54.0,111.6128125,14.47,1.99126325,34.39
2021-07-08 18:51:48.679687500,-34.0,2.0,54.0,111.61203125,17.94,1.990502625,34.39
2021-07-08 18:51:48.687500000,-34.0,2.0,54.0,111.61125,21.41,1.9897420000000001,34.39
2021-07-08 18:51:48.695312500,-34.0,2.0,54.0,111.61046875,23.875,1.988981375,34.39
2021-07-08 18:51:48.703125000,-34.0,2.0,54.0,111.6096875,26.34,1.98822075,34.39
2021-07-08 18:51:48.710937500,-34.0,2.0,54.0,111.60890625,27.83,1.987460125,34.39
2021-07-08 18:51:48.718750000,-34.0,2.0,54.0,111.608125,29.32,1.9866995,34.39
2021-07-08 18:51:48.726562500,-34.0,2.0,54.0,111.60734375,29.905,1.985938875,34.39
2021-07-08 18:51:48.734375000,-34.0,2.0,54.0,111.6065625,30.49,1.98517825,34.39
2021-07-08 18:51:48.742187500,-34.0,2.0,54.0,111.60578125,30.275,1.984417625,34.39
2021-07-08 18:51:48.750000000,-34.0,2.0,54.0,111.605,30.06,1.983657,34.39
2021-07-08 18:51:48.757812500,-34.0,2.0,54.0,111.60421875,29.244999999999997,1.98297646875,34.39
2021-07-08 18:51:48.765625000,-34.0,2.0,54.0,111.6034375,28.43,1.9822959375,34.39
2021-07-08 18:51:48.773437500,-34.0,2.0,54.0,111.60265625,27.235,1.98161540625,34.39
2021-07-08 18:51:48.781250000,-34.0,2.0,54.0,111.601875,26.04,1.980934875,34.39
2021-07-08 18:51:48.789062500,-34.0,2.0,54.0,111.60109375,24.715,1.98025434375,34.39
2021-07-08 18:51:48.796875000,-34.0,2.0,54.0,111.6003125,23.39,1.9795738125,34.39
2021-07-08 18:51:48.804687500,-34.0,2.0,54.0,111.59953125,22.095,1.97889328125,34.39
2021-07-08 18:51:48.812500000,-34.0,2.0,54.0,111.59875,20.8,1.97821275,34.39
2021-07-08 18:51:48.820312500,-34.0,2.0,54.0,111.59796875,19.61,1.97753221875,34.39
2021-07-08 18:51:48.828125000,-34.0,2.0,54.0,111.5971875,18.42,1.9768516875,34.39
2021-07-08 18:51:48.835937500,-34.0,2.0,54.0,111.59640625,17.3,1.97617115625,34.39
2021-07-08 18:51:48.843750000,-34.0,2.0,54.0,111.595625,16.18,1.975490625,34.39
2021-07-08 18:51:48.851562500,-34.0,2.0,54.0,111.59484375,15.04,1.97481009375,34.39
2021-07-08 18:51:48.859375000,-34.0,2.0,54.0,111.59406249999999,13.9,1.9741295625,34.39
2021-07-08 18:51:48.867187500,-34.0,2.0,54.0,111.59328125,12.64,1.97344903125,34.39
2021-07-08 18:51:48.875000000,-34.0,2.0,54.0,111.5925,11.38,1.9727685,34.39
2021-07-08 18:51:48.882812500,-34.25,2.0,54.0,111.59171875,9.935,1.9720879687500001,34.39
2021-07-08 18:51:48.890625000,-34.5,2.0,54.0,111.5909375,8.49,1.9714074375000001,34.39
2021-07-08 18:51:48.898437500,-34.75,2.0,54.0,111.59015624999999,6.85,1.9707269062500001,34.39
2021-07-08 18:51:48.906250000,-35.0,2.0,54.0,111.589375,5.21,1.9700463750000001,34.39
2021-07-08 18:51:48.914062500,-34.75,2.0,54.0,111.58859375,3.42,1.9693658437500001,34.39
2021-07-08 18:51:48.921875000,-34.5,2.0,54.0,111.5878125,1.63,1.9686853125000001,34.39
2021-07-08 18:51:48.929687500,-34.25,2.0,54.0,111.58703125,-0.26,1.9680047812500001,34.39
2021-07-08 18:51:48.937500000,-34.0,2.0,54.0,111.58624999999999,-2.15,1.96732425,34.39
2021-07-08 18:51:48.945312500,-34.0,2.0,54.0,111.58546875,-4.154999999999999,1.96664371875,34.39
2021-07-08 18:51:48.953125000,-34.0,2.0,54.0,111.5846875,-6.16,1.9659631875,34.39
2021-07-08 18:51:48.960937500,-34.0,2.0,54.0,111.58390625,-8.385,1.96528265625,34.39
2021-07-08 18:51:48.968750000,-34.0,2.0,54.0,111.583125,-10.61,1.964602125,34.39
2021-07-08 18:51:48.976562500,-34.0,2.0,54.0,111.58234374999999,-13.21,1.96392159375,34.39
2021-07-08 18:51:48.984375000,-34.0,2.0,54.0,111.5815625,-15.81,1.9632410625,34.39
2021-07-08 18:51:48.992187500,-34.0,2.0,54.0,111.58078125,-18.925,1.96256053125,34.39
2021-07-08 18:51:49.000000000,-34.0,2.0,54.0,111.58,-22.04,1.96188,34.39
2021-07-08 18:51:49.007812500,-34.0,2.0,54.0,111.579375,-25.674999999999997,1.961119375,34.389375
2021-07-08 18:51:49.015625000,-34.0,2.0,54.0,111.57875,-29.31,1.9603587500000001,34.38875
2021-07-08 18:51:49.023437500,-34.0,2.0,54.0,111.578125,-33.2,1.959598125,34.388125
2021-07-08 18:51:49.031250000,-34.0,2.0,54.0,111.5775,-37.09,1.9588375,34.3875
2021-07-08 18:51:49.039062500,-34.0,2.0,54.0,111.576875,-40.68000000000001,1.9580768750000002,34.386875
2021-07-08 18:51:49.046875000,-34.0,2.0,54.0,111.57625,-44.27,1.95731625,34.38625
2021-07-08 18:51:49.054687500,-34.0,2.0,54.0,111.575625,-46.81,1.956555625,34.385625
2021-07-08 18:51:49.062500000,-34.0,2.0,54.0,111.575,-49.35,1.9557950000000002,34.385
2021-07-08 18:51:49.070312500,-34.0,2.0,54.0,111.574375,-50.150000000000006,1.955034375,34.384375
2021-07-08 18:51:49.078125000,-34.0,2.0,54.0,111.57375,-50.95,1.95427375,34.38375
2021-07-08 18:51:49.085937500,-34.0,2.0,54.0,111.573125,-49.625,1.953513125,34.383125
2021-07-08 18:51:49.093750000,-34.0,2.0,54.0,111.5725,-48.3,1.9527525000000001,34.3825
2021-07-08 18:51:49.101562500,-34.0,2.0,54.0,111.57187499999999,-44.92,1.951991875,34.381875
2021-07-08 18:51:49.109375000,-34.0,2.0,54.0,111.57124999999999,-41.54,1.95123125,34.38125
2021-07-08 18:51:49.117187500,-34.0,2.0,54.0,111.57062499999999,-36.595,1.9504706250000001,34.380625
2021-07-08 18:51:49.125000000,-34.0,2.0,54.0,111.57,-31.65,1.94971,34.379999999999995
2021-07-08 18:51:49.132812500,-34.0,2.0,54.0,111.569375,-25.88,1.948949375,34.379374999999996
2021-07-08 18:51:49.140625000,-34.0,2.0,54.0,111.56875,-20.11,1.9481887500000001,34.37875
2021-07-08 18:51:49.148437500,-34.0,2.0,54.0,111.568125,-14.239999999999998,1.947428125,34.378125
2021-07-08 18:51:49.156250000,-34.0,2.0,54.0,111.5675,-8.37,1.9466675,34.3775
2021-07-08 18:51:49.164062500,-34.0,2.0,54.0,111.566875,-2.914999999999999,1.9459068750000001,34.376875
2021-07-08 18:51:49.171875000,-34.0,2.0,54.0,111.56625,2.54,1.94514625,34.37625
2021-07-08 18:51:49.179687500,-34.0,2.0,54.0,111.565625,7.345,1.944385625,34.375625
2021-07-08 18:51:49.187500000,-34.0,2.0,54.0,111.565,12.15,1.943625,34.375
2021-07-08 18:51:49.195312500,-34.0,2.0,54.0,111.564375,16.235,1.942864375,34.374375
2021-07-08 18:51:49.203125000,-34.0,2.0,54.0,111.56375,20.32,1.94210375,34.37375
2021-07-08 18:51:49.210937500,-34.0,2.0,54.0,111.563125,23.655,1.941343125,34.373124999999995
2021-07-08 18:51:49.218750000,-34.0,2.0,54.0,111.5625,26.99,1.9405825,34.372499999999995
2021-07-08 18:51:49.226562500,-34.0,2.0,54.0,111.561875,29.494999999999997,1.939821875,34.371874999999996
2021-07-08 18:51:49.234375000,-34.0,2.0,54.0,111.56125,32.0,1.93906125,34.371249999999996
2021-07-08 18:51:49.242187500,-34.0,2.0,54.0,111.560625,33.56,1.938300625,34.370625
2021-07-08 18:51:49.250000000,-34.0,2.0,54.0,111.56,35.12,1.93754,34.37
2021-07-08 18:51:49.257812500,-34.0,2.0,54.0,111.559375,35.675,1.9371396875,34.37
2021-07-08 18:51:49.265625000,-34.0,2.0,54.0,111.55875,36.23,1.9367393750000002,34.37
2021-07-08 18:51:49.273437500,-34.0,2.0,54.0,111.558125,35.81,1.9363390625,34.37
2021-07-08 18:51:49.281250000,-34.0,2.0,54.0,111.5575,35.39,1.93593875,34.37
2021-07-08 18:51:49.289062500,-34.0,2.0,54.0,111.556875,34.17,1.9355384375,34.37
2021-07-08 18:51:49.296875000,-34.0,2.0,54.0,111.55625,32.95,1.935138125,34.37
2021-07-08 18:51:49.304687500,-34.0,2.0,54.0,111.55562499999999,31.135,1.9347378125,34.37
2021-07-08 18:51:49.312500000,-34.0,2.0,54.0,111.55499999999999,29.32,1.9343375,34.37
2021-07-08 18:51:49.320312500,-34.0,2.0,54.0,111.554375,27.155,1.9339371875,34.37
2021-07-08 18:51:49.328125000,-34.0,2.0,54.0,111.55375,24.99,1.9335368750000002,34.37
2021-07-08 18:51:49.335937500,-34.0,2.0,54.0,111.553125,22.645,1.9331365625,34.37
2021-07-08 18:51:49.343750000,-34.0,2.0,54.0,111.5525,20.3,1.93273625,34.37
2021-07-08 18:51:49.351562500,-34.0,2.0,54.0,111.551875,17.94,1.9323359375,34.37
2021-07-08 18:51:49.359375000,-34.0,2.0,54.0,111.55125,15.58,1.931935625,34.37
2021-07-08 18:51:49.367187500,-34.0,2.0,54.0,111.550625,13.33,1.9315353125,34.37
2021-07-08 18:51:49.375000000,-34.0,2.0,54.0,111.55,11.08,1.931135,34.37
2021-07-08 18:51:49.382812500,-34.0,2.0,54.0,111.549375,9.05,1.9307346875,34.37
2021-07-08 18:51:49.390625000,-34.0,2.0,54.0,111.54875,7.02,1.9303343750000002,34.37
2021-07-08 18:51:49.398437500,-34.0,2.0,54.0,111.548125,5.27,1.9299340625,34.37
2021-07-08 18:51:49.406250000,-34.0,2.0,54.0,111.5475,3.52,1.92953375,34.37
2021-07-08 18:51:49.414062500,-34.0,2.0,54.0,111.546875,2.0700000000000003,1.9291334375,34.37
2021-07-08 18:51:49.421875000,-34.0,2.0,54.0,111.54625,0.62,1.928733125,34.37
2021-07-08 18:51:49.429687500,-34.0,2.0,54.0,111.545625,-0.6,1.9283328125,34.37
2021-07-08 18:51:49.437500000,-34.0,2.0,54.0,111.545,-1.82,1.9279325,34.37
2021-07-08 18:51:49.445312500,-34.0,2.0,54.0,111.544375,-2.965,1.9275321875,34.37
2021-07-08 18:51:49.453125000,-34.0,2.0,54.0,111.54375,-4.11,1.9271318750000002,34.37
2021-07-08 18:51:49.460937500,-34.0,2.0,54.0,111.543125,-5.4,1.9267315625,34.37
2021-07-08 18:51:49.468750000,-34.0,2.0,54.0,111.5425,-6.69,1.92633125,34.37
2021-07-08 18:51:49.476562500,-34.0,2.0,54.0,111.541875,-8.365,1.9259309375,34.37
2021-07-08 18:51:49.484375000,-34.0,2.0,54.0,111.54125,-10.04,1.925530625,34.37
2021-07-08 18:51:49.492187500,-34.0,2.0,54.0,111.540625,-12.315,1.9251303125,34.37
2021-07-08 18:51:49.500000000,-34.0,2.0,54.0,111.53999999999999,-14.59,1.92473,34.37
2021-07-08 18:51:49.507812500,-34.0,2.0,54.0,111.53937499999999,-17.555,1.9240895,34.37
2021-07-08 18:51:49.515625000,-34.0,2.0,54.0,111.53875,-20.52,1.923449,34.37
2021-07-08 18:51:49.523437500,-34.0,2.0,54.0,111.538125,-24.060000000000002,1.9228085000000001,34.37
2021-07-08 18:51:49.531250000,-34.0,2.0,54.0,111.5375,-27.6,1.922168,34.37
2021-07-08 18:51:49.539062500,-34.0,2.0,54.0,111.536875,-31.315,1.9215275,34.37
2021-07-08 18:51:49.546875000,-34.0,2.0,54.0,111.53625,-35.03,1.920887,34.37
2021-07-08 18:51:49.554687500,-34.0,2.0,54.0,111.535625,-38.295,1.9202465,34.37
2021-07-08 18:51:49.562500000,-34.0,2.0,54.0,111.535,-41.56,1.919606,34.37
2021-07-08 18:51:49.570312500,-34.0,2.0,54.0,111.534375,-43.63,1.9189655,34.37
2021-07-08 18:51:49.578125000,-34.0,2.0,54.0,111.53375,-45.7,1.918325,34.37
2021-07-08 18:51:49.585937500,-34.0,2.0,54.0,111.533125,-45.93,1.9176845,34.37
2021-07-08 18:51:49.593750000,-34.0,2.0,54.0,111.5325,-46.16,1.917044,34.37
2021-07-08 18:51:49.601562500,-34.0,2.0,54.0,111.531875,-44.26,1.9164035,34.37
2021-07-08 18:51:49.609375000,-34.0,2.0,54.0,111.53125,-42.36,1.915763,34.37
2021-07-08 18:51:49.617187500,-34.0,2.0,54.0,111.530625,-38.465,1.9151225,34.37
2021-07-08 18:51:49.625000000,-34.0,2.0,54.0,111.53,-34.57,1.914482,34.37
2021-07-08 18:51:49.632812500,-34.0,2.0,54.0,111.529375,-29.225,1.9138415,34.37
2021-07-08 18:51:49.640625000,-34.0,2.0,54.0,111.52875,-23.88,1.913201,34.37
2021-07-08 18:51:49.648437500,-34.0,2.0,54.0,111.528125,-17.84,1.9125605,34.37
2021-07-08 18:51:49.656250000,-34.0,2.0,54.0,111.5275,-11.8,1.91192,34.37
2021-07-08 18:51:49.664062500,-34.0,2.0,54.0,111.526875,-5.760000000000001,1.9112795,34.37
2021-07-08 18:51:49.671875000,-34.0,2.0,54.0,111.52625,0.28,1.910639,34.37
2021-07-08 18:51:49.679687500,-34.0,2.0,54.0,111.525625,5.795000000000001,1.9099985,34.37
2021-07-08 18:51:49.687500000,-34.0,2.0,54.0,111.525,11.31,1.909358,34.37
2021-07-08 18:51:49.695312500,-34.0,2.0,54.0,111.524375,16.05,1.9087175,34.37
2021-07-08 18:51:49.703125000,-34.0,2.0,54.0,111.52374999999999,20.79,1.908077,34.37
2021-07-08 18:51:49.710937500,-34.0,2.0,54.0,111.523125,24.695,1.9074365,34.37
2021-07-08 18:51:49.718750000,-34.0,2.0,54.0,111.5225,28.6,1.906796,34.37
2021-07-08 18:51:49.726562500,-34.0,2.0,54.0,111.521875,31.69,1.9061555,34.37
2021-07-08 18:51:49.734375000,-34.0,2.0,54.0,111.52125,34.78,1.905515,34.37
2021-07-08 18:51:49.742187500,-34.0,2.0,54.0,111.520625,37.03,1.9048745,34.37
2021-07-08 18:51:49.750000000,-34.0,2.0,54.0,111.52,39.28,1.904234,34.37
2021-07-08 18:51:49.757812500,-34.0,2.0,54.0,111.519375,40.66,1.9039938125,34.37
2021-07-08 18:51:49.765625000,-34.0,2.0,54.0,111.51875,42.04,1.903753625,34.37
2021-07-08 18:51:49.773437500,-34.0,2.0,54.0,111.518125,42.5,1.9035134375,34.37
2021-07-08 18:51:49.781250000,-34.0,2.0,54.0,111.5175,42.96,1.90327325,34.37
2021-07-08 18:51:49.789062500,-34.0,2.0,54.0,111.516875,42.519999999999996,1.9030330625,34.37
2021-07-08 18:51:49.796875000,-34.0,2.0,54.0,111.51625,42.08,1.902792875,34.37
2021-07-08 18:51:49.804687500,-34.0,2.0,54.0,111.515625,40.879999999999995,1.9025526875,34.37
2021-07-08 18:51:49.812500000,-34.0,2.0,54.0,111.515,39.68,1.9023124999999999,34.37
2021-07-08 18:51:49.820312500,-34.0,2.0,54.0,111.514375,37.95,1.9020723124999999,34.37
2021-07-08 18:51:49.828125000,-34.0,2.0,54.0,111.51375,36.22,1.9018321249999999,34.37
2021-07-08 18:51:49.835937500,-34.0,2.0,54.0,111.513125,34.21,1.9015919374999999,34.37
2021-07-08 18:51:49.843750000,-34.0,2.0,54.0,111.5125,32.2,1.90135175,34.37
2021-07-08 18:51:49.851562500,-34.0,2.0,54.0,111.511875,30.145000000000003,1.9011115625,34.37
2021-07-08 18:51:49.859375000,-34.0,2.0,54.0,111.51125,28.09,1.900871375,34.37
2021-07-08 18:51:49.867187500,-34.0,2.0,54.0,111.510625,26.134999999999998,1.9006311875,34.37
2021-07-08 18:51:49.875000000,-34.0,2.0,54.0,111.51,24.18,1.900391,34.37
2021-07-08 18:51:49.882812500,-34.0,2.0,54.0,111.509375,22.384999999999998,1.9001508125,34.37
2021-07-08 18:51:49.890625000,-34.0,2.0,54.0,111.50875,20.59,1.899910625,34.37
2021-07-08 18:51:49.898437500,-34.0,2.0,54.0,111.508125,18.945,1.8996704375,34.37
2021-07-08 18:51:49.906250000,-34.0,2.0,54.0,111.5075,17.3,1.89943025,34.37
2021-07-08 18:51:49.914062500,-34.0,2.0,54.0,111.506875,15.775,1.8991900625,34.37
2021-07-08 18:51:49.921875000,-34.0,2.0,54.0,111.50625,14.25,1.898949875,34.37
2021-07-08 18:51:49.929687500,-34.0,2.0,54.0,111.505625,12.795,1.8987096875,34.37
2021-07-08 18:51:49.937500000,-34.0,2.0,54.0,111.505,11.34,1.8984695,34.37
2021-07-08 18:51:49.945312500,-34.0,2.0,54.0,111.504375,9.9,1.8982293124999998,34.37
2021-07-08 18:51:49.953125000,-34.0,2.0,54.0,111.50375,8.46,1.8979891249999998,34.37
2021-07-08 18:51:49.960937500,-34.0,2.0,54.0,111.503125,6.955,1.8977489374999998,34.37
2021-07-08 18:51:49.968750000,-34.0,2.0,54.0,111.5025,5.45,1.8975087499999999,34.37
2021-07-08 18:51:49.976562500,-34.0,2.0,54.0,111.501875,3.745,1.8972685624999999,34.37
2021-07-08 18:51:49.984375000,-34.0,2.0,54.0,111.50125,2.04,1.8970283749999999,34.37
2021-07-08 18:51:49.992187500,-34.0,2.0,54.0,111.500625,-0.054999999999999716,1.8967881875,34.37
2021-07-08 18:51:50.000000000,-34.0,2.0,54.0,111.5,-2.15,1.896548,34.37
2021-07-08 18:51:50.007812500,-34.0,2.0,54.0,111.499609375,-4.834999999999999,1.8959475,34.370625
2021-07-08 18:51:50.015625000,-34.0,2.0,54.0,111.49921875,-7.52,1.895347,34.371249999999996
2021-07-08 18:51:50.023437500,-34.0,2.0,54.0,111.498828125,-10.95,1.8947465,34.371874999999996
2021-07-08 18:51:50.031250000,-34.0,2.0,54.0,111.4984375,-14.38,1.8941459999999999,34.372499999999995
2021-07-08 18:51:50.039062500,-34.0,2.0,54.0,111.498046875,-18.535,1.8935454999999999,34.373124999999995
2021-07-08 18:51:50.046875000,-34.0,2.0,54.0,111.49765625,-22.69,1.8929449999999999,34.37375
2021-07-08 18:51:50.054687500,-34.0,2.0,54.0,111.497265625,-27.265,1.8923444999999999,34.374375
2021-07-08 18:51:50.062500000,-34.0,2.0,54.0,111.496875,-31.84,1.8917439999999999,34.375
2021-07-08 18:51:50.070312500,-34.0,2.0,54.0,111.496484375,-36.265,1.8911434999999999,34.375625
2021-07-08 18:51:50.078125000,-34.0,2.0,54.0,111.49609375,-40.69,1.8905429999999999,34.37625
2021-07-08 18:51:50.085937500,-34.0,2.0,54.0,111.495703125,-44.19,1.8899424999999999,34.376875
2021-07-08 18:51:50.093750000,-34.0,2.0,54.0,111.4953125,-47.69,1.8893419999999999,34.3775
2021-07-08 18:51:50.101562500,-34.0,2.0,54.0,111.494921875,-49.474999999999994,1.8887414999999999,34.378125
2021-07-08 18:51:50.109375000,-34.0,2.0,54.0,111.49453125,-51.26,1.8881409999999998,34.37875
2021-07-08 18:51:50.117187500,-34.0,2.0,54.0,111.494140625,-50.775,1.8875404999999998,34.379374999999996
2021-07-08 18:51:50.125000000,-34.0,2.0,54.0,111.49375,-50.29,1.88694,34.379999999999995
2021-07-08 18:51:50.132812500,-34.0,2.0,54.0,111.493359375,-47.415,1.8863395,34.380625
2021-07-08 18:51:50.140625000,-34.0,2.0,54.0,111.49296875,-44.54,1.885739,34.38125
2021-07-08 18:51:50.148437500,-34.0,2.0,54.0,111.492578125,-39.629999999999995,1.8851385,34.381875
2021-07-08 18:51:50.156250000,-34.0,2.0,54.0,111.4921875,-34.72,1.884538,34.3825
2021-07-08 18:51:50.164062500,-34.0,2.0,54.0,111.491796875,-28.505,1.8839375,34.383125
2021-07-08 18:51:50.171875000,-34.0,2.0,54.0,111.49140625,-22.29,1.883337,34.38375
2021-07-08 18:51:50.179687500,-34.0,2.0,54.0,111.491015625,-15.594999999999999,1.8827365,34.384375
2021-07-08 18:51:50.187500000,-34.0,2.0,54.0,111.490625,-8.9,1.882136,34.385
2021-07-08 18:51:50.195312500,-34.0,2.0,54.0,111.490234375,-2.46,1.8815355,34.385625
2021-07-08 18:51:50.203125000,-34.0,2.0,54.0,111.48984375,3.98,1.880935,34.38625
2021-07-08 18:51:50.210937500,-34.0,2.0,54.0,111.489453125,9.7,1.8803345,34.386875
2021-07-08 18:51:50.218750000,-34.0,2.0,54.0,111.4890625,15.42,1.879734,34.3875
2021-07-08 18:51:50.226562500,-34.0,2.0,54.0,111.488671875,20.215,1.8791335,34.388125
2021-07-08 18:51:50.234375000,-34.0,2.0,54.0,111.48828125,25.01,1.878533,34.38875
2021-07-08 18:51:50.242187500,-34.0,2.0,54.0,111.487890625,28.83,1.8779325,34.389375
2021-07-08 18:51:50.250000000,-34.0,2.0,54.0,111.4875,32.65,1.877332,34.39
2021-07-08 18:51:50.257812500,-34.0,2.0,54.0,111.487109375,35.489999999999995,1.87729196875,34.39
2021-07-08 18:51:50.265625000,-34.0,2.0,54.0,111.48671875,38.33,1.8772519375,34.39
2021-07-08 18:51:50.273437500,-34.0,2.0,54.0,111.486328125,40.16,1.87721190625,34.39
2021-07-08 18:51:50.281250000,-34.0,2.0,54.0,111.4859375,41.99,1.877171875,34.39
2021-07-08 18:51:50.289062500,-34.0,2.0,54.0,111.485546875,42.769999999999996,1.87713184375,34.39
2021-07-08 18:51:50.296875000,-34.0,2.0,54.0,111.48515625,43.55,1.8770918125,34.39
2021-07-08 18:51:50.304687500,-34.0,2.0,54.0,111.484765625,43.34,1.87705178125,34.39
2021-07-08 18:51:50.312500000,-34.0,2.0,54.0,111.484375,43.13,1.8770117499999999,34.39
2021-07-08 18:51:50.320312500,-34.0,2.0,54.0,111.483984375,42.08,1.87697171875,34.39
2021-07-08 18:51:50.328125000,-34.0,2.0,54.0,111.48359375,41.03,1.8769316875,34.39
2021-07-08 18:51:50.335937500,-34.0,2.0,54.0,111.483203125,39.370000000000005,1.87689165625,34.39
2021-07-08 18:51:50.343750000,-34.0,2.0,54.0,111.4828125,37.71,1.876851625,34.39
2021-07-08 18:51:50.351562500,-34.0,2.0,54.0,111.482421875,35.705,1.87681159375,34.39
2021-07-08 18:51:50.359375000,-34.0,2.0,54.0,111.48203125,33.7,1.8767715624999999,34.39
2021-07-08 18:51:50.367187500,-34.0,2.0,54.0,111.481640625,31.560000000000002,1.87673153125,34.39
2021-07-08 18:51:50.375000000,-34.0,2.0,54.0,111.48125,29.42,1.8766915,34.39
2021-07-08 18:51:50.382812500,-34.0,2.0,54.0,111.480859375,27.265,1.87665146875,34.39
2021-07-08 18:51:50.390625000,-34.0,2.0,54.0,111.48046875,25.11,1.8766114375,34.39
2021-07-08 18:51:50.398437500,-34.0,2.0,54.0,111.480078125,22.990000000000002,1.8765714062499999,34.39
2021-07-08 18:51:50.406250000,-34.0,2.0,54.0,111.4796875,20.87,1.876531375,34.39
2021-07-08 18:51:50.414062500,-34.0,2.0,54.0,111.479296875,18.805,1.87649134375,34.39
2021-07-08 18:51:50.421875000,-34.0,2.0,54.0,111.47890625,16.74,1.8764513125,34.39
2021-07-08 18:51:50.429687500,-34.0,2.0,54.0,111.478515625,14.75,1.87641128125,34.39
2021-07-08 18:51:50.437500000,-34.0,2.0,54.0,111.478125,12.76,1.87637125,34.39
2021-07-08 18:51:50.445312500,-34.0,2.0,54.0,111.477734375,10.899999999999999,1.8763312187499999,34.39
2021-07-08 18:51:50.453125000,-34.0,2.0,54.0,111.47734375,9.04,1.8762911875,34.39
2021-07-08 18:51:50.460937500,-34.0,2.0,54.0,111.476953125,7.35,1.87625115625,34.39
2021-07-08 18:51:50.468750000,-34.0,2.0,54.0,111.4765625,5.66,1.876211125,34.39
2021-07-08 18:51:50.476562500,-34.0,2.0,54.0,111.476171875,4.135,1.87617109375,34.39
2021-07-08 18:51:50.484375000,-34.0,2.0,54.0,111.47578125,2.61,1.8761310624999998,34.39
2021-07-08 18:51:50.492187500,-34.0,2.0,54.0,111.475390625,1.1749999999999998,1.8760910312499999,34.39
2021-07-08 18:51:50.500000000,-34.0,2.0,54.0,111.475,-0.26,1.876051,34.39
2021-07-08 18:51:50.507812500,-34.0,2.0,54.0,111.474609375,-1.76,1.8758508437499999,34.39
2021-07-08 18:51:50.515625000,-34.0,2.0,54.0,111.47421875,-3.26,1.8756506874999999,34.39
2021-07-08 18:51:50.523437500,-34.0,2.0,54.0,111.473828125,-5.074999999999999,1.8754505312499998,34.39
2021-07-08 18:51:50.531250000,-34.0,2.0,54.0,111.4734375,-6.89,1.8752503749999998,34.39
2021-07-08 18:51:50.539062500,-34.0,2.0,54.0,111.47304687500001,-9.3,1.87505021875,34.39
2021-07-08 18:51:50.546875000,-34.0,2.0,54.0,111.47265625,-11.71,1.8748500625,34.39
2021-07-08 18:51:50.554687500,-34.0,2.0,54.0,111.472265625,-14.91,1.87464990625,34.39
2021-07-08 18:51:50.562500000,-34.0,2.0,54.0,111.471875,-18.11,1.87444975,34.39
2021-07-08 18:51:50.570312500,-34.0,2.0,54.0,111.471484375,-22.13,1.8742495937499999,34.39
2021-07-08 18:51:50.578125000,-34.0,2.0,54.0,111.47109375000001,-26.15,1.8740494374999999,34.39
2021-07-08 18:51:50.585937500,-34.0,2.0,54.0,111.470703125,-30.724999999999998,1.8738492812499998,34.39
2021-07-08 18:51:50.593750000,-34.0,2.0,54.0,111.4703125,-35.3,1.873649125,34.39
2021-07-08 18:51:50.601562500,-34.0,2.0,54.0,111.469921875,-39.84,1.87344896875,34.39
2021-07-08 18:51:50.609375000,-34.0,2.0,54.0,111.46953125,-44.38,1.8732488125,34.39
2021-07-08 18:51:50.617187500,-34.0,2.0,54.0,111.46914062500001,-48.085,1.87304865625,34.39
2021-07-08 18:51:50.625000000,-34.0,2.0,54.0,111.46875,-51.79,1.8728485,34.39
2021-07-08 18:51:50.632812500,-34.0,2.0,54.0,111.468359375,-53.864999999999995,1.8726483437499999,34.39
2021-07-08 18:51:50.640625000,-34.0,2.0,54.0,111.46796875,-55.94,1.8724481874999999,34.39
2021-07-08 18:51:50.648437500,-34.0,2.0,54.0,111.467578125,-55.82,1.8722480312499998,34.39
2021-07-08 18:51:50.656250000,-34.0,2.0,54.0,111.46718750000001,-55.7,1.8720478749999998,34.39
2021-07-08 18:51:50.664062500,-34.0,2.0,54.0,111.466796875,-53.290000000000006,1.87184771875,34.39
2021-07-08 18:51:50.671875000,-34.0,2.0,54.0,111.46640625,-50.88,1.8716475625,34.39
2021-07-08 18:51:50.679687500,-34.0,2.0,54.0,111.466015625,-46.515,1.87144740625,34.39
2021-07-08 18:51:50.687500000,-34.0,2.0,54.0,111.465625,-42.15,1.87124725,34.39
2021-07-08 18:51:50.695312500,-34.0,2.0,54.0,111.46523437500001,-36.515,1.87104709375,34.39
2021-07-08 18:51:50.703125000,-34.0,2.0,54.0,111.46484375,-30.88,1.8708469374999999,34.39
2021-07-08 18:51:50.710937500,-34.0,2.0,54.0,111.464453125,-24.735,1.8706467812499998,34.39
2021-07-08 18:51:50.718750000,-34.0,2.0,54.0,111.4640625,-18.59,1.870446625,34.39
2021-07-08 18:51:50.726562500,-34.0,2.0,54.0,111.463671875,-12.59,1.87024646875,34.39
2021-07-08 18:51:50.734375000,-34.0,2.0,54.0,111.46328125000001,-6.59,1.8700463125,34.39
2021-07-08 18:51:50.742187500,-34.0,2.0,54.0,111.462890625,-1.17,1.86984615625,34.39
2021-07-08 18:51:50.750000000,-34.0,2.0,54.0,111.4625,4.25,1.869646,34.39
2021-07-08 18:51:50.757812500,-34.0,2.0,54.0,111.462109375,8.835,1.8694858749999999,34.39
2021-07-08 18:51:50.765625000,-34.0,2.0,54.0,111.46171875,13.42,1.86932575,34.39
2021-07-08 18:51:50.773437500,-34.0,2.0,54.0,111.46132812500001,16.98,1.869165625,34.39
2021-07-08 18:51:50.781250000,-34.0,2.0,54.0,111.4609375,20.54,1.8690054999999999,34.39
2021-07-08 18:51:50.789062500,-34.0,2.0,54.0,111.460546875,22.92,1.868845375,34.39
2021-07-08 18:51:50.796875000,-34.0,2.0,54.0,111.46015625,25.3,1.86868525,34.39
2021-07-08 18:51:50.804687500,-34.0,2.0,54.0,111.459765625,26.415,1.868525125,34.39
2021-07-08 18:51:50.812500000,-34.0,2.0,54.0,111.45937500000001,27.53,1.8683649999999998,34.39
2021-07-08 18:51:50.820312500,-34.0,2.0,54.0,111.458984375,27.42,1.868204875,34.39
2021-07-08 18:51:50.828125000,-34.0,2.0,54.0,111.45859375,27.31,1.86804475,34.39
2021-07-08 18:51:50.835937500,-34.0,2.0,54.0,111.458203125,26.225,1.8678846249999999,34.39
2021-07-08 18:51:50.843750000,-34.0,2.0,54.0,111.4578125,25.14,1.8677245,34.39
2021-07-08 18:51:50.851562500,-34.0,2.0,54.0,111.45742187500001,23.475,1.867564375,34.39
2021-07-08 18:51:50.859375000,-34.0,2.0,54.0,111.45703125,21.81,1.8674042499999999,34.39
2021-07-08 18:51:50.867187500,-34.0,2.0,54.0,111.456640625,19.985,1.867244125,34.39
2021-07-08 18:51:50.875000000,-34.0,2.0,54.0,111.45625,18.16,1.867084,34.39
2021-07-08 18:51:50.882812500,-34.0,2.0,54.0,111.455859375,16.485,1.866923875,34.39
2021-07-08 18:51:50.890625000,-34.0,2.0,54.0,111.45546875000001,14.81,1.86676375,34.39
2021-07-08 18:51:50.898437500,-34.0,2.0,54.0,111.455078125,13.395,1.866603625,34.39
2021-07-08 18:51:50.906250000,-34.0,2.0,54.0,111.4546875,11.98,1.8664435,34.39
2021-07-08 18:51:50.914062500,-34.0,2.0,54.25,111.454296875,10.77,1.866283375,34.39
2021-07-08 18:51:50.921875000,-34.0,2.0,54.5,111.45390625,9.56,1.86612325,34.39
2021-07-08 18:51:50.929687500,-34.0,2.0,54.75,111.45351562500001,8.41,1.865963125,34.39
2021-07-08 18:51:50.937500000,-34.0,2.0,55.0,111.453125,7.26,1.865803,34.39
2021-07-08 18:51:50.945312500,-34.0,2.0,54.75,111.452734375,6.08,1.865642875,34.39
2021-07-08 18:51:50.953125000,-34.0,2.0,54.5,111.45234375,4.9,1.86548275,34.39
2021-07-08 18:51:50.960937500,-34.0,2.0,54.25,111.451953125,3.6950000000000003,1.865322625,34.39
2021-07-08 18:51:50.968750000,-34.0,2.0,54.0,111.45156250000001,2.49,1.8651625,34.39
2021-07-08 18:51:50.976562500,-34.0,2.0,54.0,111.451171875,1.3150000000000002,1.865002375,34.39
2021-07-08 18:51:50.984375000,-34.0,2.0,54.0,111.45078125,0.14,1.86484225,34.39
2021-07-08 18:51:50.992187500,-34.0,2.0,54.0,111.450390625,-0.955,1.864682125,34.39
2021-07-08 18:51:51.000000000,-34.0,2.0,54.0,111.45,-2.05,1.864522,34.39
2021-07-08 18:51:51.007812500,-34.0,2.0,54.0,111.44960937500001,-3.11,1.86416171875,34.389375
2021-07-08 18:51:51.015625000,-34.0,2.0,54.0,111.44921875,-4.17,1.8638014375,34.38875
2021-07-08 18:51:51.023437500,-34.0,2.0,54.0,111.448828125,-5.33,1.86344115625,34.388125
2021-07-08 18:51:51.031250000,-34.0,2.0,54.0,111.4484375,-6.49,1.863080875,34.3875
2021-07-08 18:51:51.039062500,-34.0,2.0,54.0,111.448046875,-7.99,1.86272059375,34.386875
2021-07-08 18:51:51.046875000,-34.0,2.0,54.0,111.44765625000001,-9.49,1.8623603125,34.38625
2021-07-08 18:51:51.054687500,-34.0,2.0,54.0,111.447265625,-11.555,1.86200003125,34.385625
2021-07-08 18:51:51.062500000,-34.0,2.0,54.0,111.446875,-13.62,1.86163975,34.385
2021-07-08 18:51:51.070312500,-34.0,2.0,54.0,111.446484375,-16.375,1.86127946875,34.384375
2021-07-08 18:51:51.078125000,-34.0,2.0,54.0,111.44609375,-19.13,1.8609191875,34.38375
2021-07-08 18:51:51.085937500,-34.0,2.0,54.0,111.44570312500001,-22.52,1.8605589062499999,34.383125
2021-07-08 18:51:51.093750000,-34.0,2.0,54.0,111.4453125,-25.91,1.860198625,34.3825
2021-07-08 18:51:51.101562500,-34.0,2.0,54.0,111.444921875,-29.634999999999998,1.85983834375,34.381875
2021-07-08 18:51:51.109375000,-34.0,2.0,54.0,111.44453125,-33.36,1.8594780625,34.38125
2021-07-08 18:51:51.117187500,-34.0,2.0,54.0,111.444140625,-36.855000000000004,1.85911778125,34.380625
2021-07-08 18:51:51.125000000,-34.0,2.0,54.0,111.44375000000001,-40.35,1.8587574999999998,34.379999999999995
2021-07-08 18:51:51.132812500,-34.0,2.0,54.0,111.443359375,-42.92,1.85839721875,34.379374999999996
2021-07-08 18:51:51.140625000,-34.0,2.0,54.0,111.44296875,-45.49,1.8580369374999999,34.37875
2021-07-08 18:51:51.148437500,-34.0,2.0,54.0,111.442578125,-46.425,1.85767665625,34.378125
2021-07-08 18:51:51.156250000,-34.0,2.0,54.0,111.4421875,-47.36,1.857316375,34.3775
2021-07-08 18:51:51.164062500,-34.0,2.0,54.0,111.44179687500001,-46.16,1.85695609375,34.376875
2021-07-08 18:51:51.171875000,-34.0,2.0,54.0,111.44140625,-44.96,1.8565958125,34.37625
2021-07-08 18:51:51.179687500,-34.0,2.0,54.0,111.441015625,-41.519999999999996,1.8562355312499998,34.375625
2021-07-08 18:51:51.187500000,-34.0,2.0,54.0,111.440625,-38.08,1.85587525,34.375
2021-07-08 18:51:51.195312500,-34.0,2.0,54.0,111.440234375,-32.7,1.8555149687499999,34.374375
2021-07-08 18:51:51.203125000,-34.0,2.0,54.0,111.43984375000001,-27.32,1.8551546875,34.37375
2021-07-08 18:51:51.210937500,-34.0,2.0,54.0,111.439453125,-20.665,1.85479440625,34.373124999999995
2021-07-08 18:51:51.218750000,-34.0,2.0,54.0,111.4390625,-14.01,1.8544341249999998,34.372499999999995
2021-07-08 18:51:51.226562500,-34.0,2.0,54.25,111.438671875,-6.91,1.85407384375,34.371874999999996
2021-07-08 18:51:51.234375000,-34.0,2.0,54.5,111.43828125,0.19,1.8537135624999999,34.371249999999996
2021-07-08 18:51:51.242187500,-34.0,2.0,54.75,111.43789062500001,6.945,1.85335328125,34.370625
2021-07-08 18:51:51.250000000,-34.0,2.0,55.0,111.4375,13.7,1.852993,34.37
2021-07-08 18:51:51.257812500,-34.0,2.0,54.75,111.437109375,19.560000000000002,1.8529129375,34.37
2021-07-08 18:51:51.265625000,-34.0,2.0,54.5,111.43671875,25.42,1.8528328749999998,34.37
2021-07-08 18:51:51.273437500,-34.0,2.0,54.25,111.436328125,30.060000000000002,1.8527528125,34.37
2021-07-08 18:51:51.281250000,-34.0,2.0,54.0,111.43593750000001,34.7,1.85267275,34.37
2021-07-08 18:51:51.289062500,-34.0,2.0,54.0,111.435546875,38.025000000000006,1.8525926874999998,34.37
2021-07-08 18:51:51.296875000,-34.0,2.0,54.0,111.43515625,41.35,1.852512625,34.37
2021-07-08 18:51:51.304687500,-34.0,2.0,54.0,111.434765625,43.394999999999996,1.8524325625,34.37
2021-07-08 18:51:51.312500000,-34.0,2.0,54.0,111.434375,45.44,1.8523524999999998,34.37
2021-07-08 18:51:51.320312500,-34.0,2.0,54.0,111.43398437500001,46.305,1.8522724375,34.37
2021-07-08 18:51:51.328125000,-34.0,2.0,54.0,111.43359375,47.17,1.852192375,34.37
2021-07-08 18:51:51.335937500,-34.0,2.0,54.0,111.433203125,47.015,1.8521123124999999,34.37
2021-07-08 18:51:51.343750000,-34.0,2.0,54.0,111.4328125,46.86,1.85203225,34.37
2021-07-08 18:51:51.351562500,-34.0,2.0,54.0,111.432421875,45.879999999999995,1.8519521875,34.37
2021-07-08 18:51:51.359375000,-34.0,2.0,54.0,111.43203125000001,44.9,1.8518721249999999,34.37
2021-07-08 18:51:51.367187500,-34.0,2.0,54.0,111.431640625,43.315,1.8517920625,34.37
2021-07-08 18:51:51.375000000,-34.0,2.0,54.0,111.43125,41.73,1.851712,34.37
2021-07-08 18:51:51.382812500,-34.0,2.0,54.0,111.430859375,39.795,1.8516319374999999,34.37
2021-07-08 18:51:51.390625000,-34.0,2.0,54.0,111.43046875,37.86,1.851551875,34.37
2021-07-08 18:51:51.398437500,-34.0,2.0,54.0,111.43007812500001,35.76,1.8514718124999998,34.37
2021-07-08 18:51:51.406250000,-34.0,2.0,54.0,111.4296875,33.66,1.85139175,34.37
2021-07-08 18:51:51.414062500,-33.75,2.0,54.0,111.429296875,31.54,1.8513116875,34.37
2021-07-08 18:51:51.421875000,-33.5,2.0,54.0,111.42890625,29.42,1.8512316249999998,34.37
2021-07-08 18:51:51.429687500,-33.25,2.0,54.0,111.428515625,27.345,1.8511515625,34.37
2021-07-08 18:51:51.437500000,-33.0,2.0,54.0,111.42812500000001,25.27,1.8510715,34.37
2021-07-08 18:51:51.445312500,-33.25,2.0,54.25,111.427734375,23.29,1.8509914374999998,34.37
2021-07-08 18:51:51.453125000,-33.5,2.0,54.5,111.42734375,21.31,1.850911375,34.37
2021-07-08 18:51:51.460937500,-33.75,2.0,54.75,111.426953125,19.45,1.8508313125,34.37
2021-07-08 18:51:51.468750000,-34.0,2.0,55.0,111.4265625,17.59,1.8507512499999998,34.37
2021-07-08 18:51:51.476562500,-34.0,2.0,54.75,111.42617187500001,15.89,1.8506711875,34.37
2021-07-08 18:51:51.484375000,-34.0,2.0,54.5,111.42578125,14.19,1.850591125,34.37
2021-07-08 18:51:51.492187500,-34.0,2.0,54.25,111.425390625,12.645,1.8505110624999999,34.37
2021-07-08 18:51:51.500000000,-34.0,2.0,54.0,111.42500000000001,11.1,1.850431,34.37
2021-07-08 18:51:51.507812500,-34.0,2.0,54.0,111.424609375,9.61,1.8500306874999999,34.37
2021-07-08 18:51:51.515625000,-34.0,2.0,54.0,111.42421875000001,8.12,1.8496303749999998,34.37
2021-07-08 18:51:51.523437500,-34.0,2.0,54.0,111.423828125,6.51,1.8492300625,34.37
2021-07-08 18:51:51.531250000,-34.0,2.0,54.0,111.4234375,4.9,1.84882975,34.37
2021-07-08 18:51:51.539062500,-33.75,2.0,54.25,111.42304687500001,2.9400000000000004,1.8484294374999999,34.37
2021-07-08 18:51:51.546875000,-33.5,2.0,54.5,111.42265625,0.98,1.848029125,34.37
2021-07-08 18:51:51.554687500,-33.25,2.0,54.75,111.42226562500001,-1.5550000000000002,1.8476288125,34.37
2021-07-08 18:51:51.562500000,-33.0,2.0,55.0,111.421875,-4.09,1.8472285,34.37
2021-07-08 18:51:51.570312500,-33.0,2.0,55.0,111.421484375,-7.32,1.8468281874999999,34.37
2021-07-08 18:51:51.578125000,-33.0,2.0,55.0,111.42109375000001,-10.55,1.8464278749999998,34.37
2021-07-08 18:51:51.585937500,-33.0,2.0,55.0,111.420703125,-14.42,1.8460275625,34.37
2021-07-08 18:51:51.593750000,-33.0,2.0,55.0,111.42031250000001,-18.29,1.84562725,34.37
2021-07-08 18:51:51.601562500,-33.25,2.0,55.0,111.419921875,-22.564999999999998,1.8452269374999999,34.37
2021-07-08 18:51:51.609375000,-33.5,2.0,55.0,111.41953125,-26.84,1.844826625,34.37
2021-07-08 18:51:51.617187500,-33.75,2.0,55.0,111.41914062500001,-31.064999999999998,1.8444263125,34.37
2021-07-08 18:51:51.625000000,-34.0,2.0,55.0,111.41875,-35.29,1.844026,34.37
2021-07-08 18:51:51.632812500,-34.0,2.0,55.0,111.41835937500001,-38.864999999999995,1.8436256874999999,34.37
2021-07-08 18:51:51.640625000,-34.0,2.0,55.0,111.41796875,-42.44,1.8432253749999998,34.37
2021-07-08 18:51:51.648437500,-34.0,2.0,55.0,111.417578125,-44.695,1.8428250625,34.37
2021-07-08 18:51:51.656250000,-34.0,2.0,55.0,111.41718750000001,-46.95,1.84242475,34.37
2021-07-08 18:51:51.664062500,-33.75,2.0,55.0,111.416796875,-47.315,1.8420244375,34.37
2021-07-08 18:51:51.671875000,-33.5,2.0,55.0,111.41640625000001,-47.68,1.841624125,34.37
2021-07-08 18:51:51.679687500,-33.25,2.0,55.0,111.416015625,-45.845,1.8412238125,34.37
2021-07-08 18:51:51.687500000,-33.0,2.0,55.0,111.415625,-44.01,1.8408235,34.37
2021-07-08 18:51:51.695312500,-33.0,2.0,55.0,111.41523437500001,-40.055,1.8404231875,34.37
2021-07-08 18:51:51.703125000,-33.0,2.0,55.0,111.41484375,-36.1,1.8400228749999998,34.37
2021-07-08 18:51:51.710937500,-33.0,2.0,55.0,111.41445312500001,-30.475,1.8396225625,34.37
2021-07-08 18:51:51.718750000,-33.0,2.0,55.0,111.4140625,-24.85,1.83922225,34.37
2021-07-08 18:51:51.726562500,-33.25,2.0,55.0,111.413671875,-18.305,1.8388219375,34.37
2021-07-08 18:51:51.734375000,-33.5,2.0,55.0,111.41328125000001,-11.76,1.838421625,34.37
2021-07-08 18:51:51.742187500,-33.75,2.0,55.0,111.412890625,-5.125,1.8380213125,34.37
2021-07-08 18:51:51.750000000,-34.0,2.0,55.0,111.41250000000001,1.51,1.837621,34.37
2021-07-08 18:51:51.757812500,-33.75,2.0,55.0,111.412109375,7.55,1.83738078125,34.37
2021-07-08 18:51:51.765625000,-33.5,2.0,55.0,111.41171875,13.59,1.8371405625,34.37
2021-07-08 18:51:51.773437500,-33.25,2.0,55.0,111.41132812500001,18.595,1.83690034375,34.37
2021-07-08 18:51:51.781250000,-33.0,2.0,55.0,111.4109375,23.6,1.8366601249999999,34.37
2021-07-08 18:51:51.789062500,-33.0,2.0,55.0,111.41054687500001,27.44,1.83641990625,34.37
2021-07-08 18:51:51.796875000,-33.0,2.0,55.0,111.41015625,31.28,1.8361796875,34.37
2021-07-08 18:51:51.804687500,-33.0,2.0,55.0,111.409765625,34.045,1.83593946875,34.37
2021-07-08 18:51:51.812500000,-33.0,2.0,55.0,111.40937500000001,36.81,1.83569925,34.37
2021-07-08 18:51:51.820312500,-33.25,2.0,54.75,111.408984375,38.650000000000006,1.8354590312499999,34.37
2021-07-08 18:51:51.828125000,-33.5,2.0,54.5,111.40859375000001,40.49,1.8352188125,34.37
2021-07-08 18:51:51.835937500,-33.75,2.0,54.25,111.408203125,41.56,1.83497859375,34.37
2021-07-08 18:51:51.843750000,-34.0,2.0,54.0,111.4078125,42.63,1.834738375,34.37
2021-07-08 18:51:51.851562500,-34.0,2.0,54.25,111.40742187500001,43.005,1.83449815625,34.37
2021-07-08 18:51:51.859375000,-34.0,2.0,54.5,111.40703125,43.38,1.8342579374999999,34.37
2021-07-08 18:51:51.867187500,-34.0,2.0,54.75,111.40664062500001,43.09,1.83401771875,34.37
2021-07-08 18:51:51.875000000,-34.0,2.0,55.0,111.40625,42.8,1.8337775,34.37
2021-07-08 18:51:51.882812500,-33.75,2.0,55.0,111.405859375,41.864999999999995,1.83353728125,34.37
2021-07-08 18:51:51.890625000,-33.5,2.0,55.0,111.40546875000001,40.93,1.8332970625,34.37
2021-07-08 18:51:51.898437500,-33.25,2.0,55.0,111.405078125,39.415,1.8330568437499999,34.37
2021-07-08 18:51:51.906250000,-33.0,2.0,55.0,111.40468750000001,37.9,1.832816625,34.37
2021-07-08 18:51:51.914062500,-33.0,2.0,55.0,111.404296875,35.93,1.8325764062499998,34.37
2021-07-08 18:51:51.921875000,-33.0,2.0,55.0,111.40390625,33.96,1.8323361875,34.37
2021-07-08 18:51:51.929687500,-33.0,2.0,55.0,111.40351562500001,31.73,1.83209596875,34.37
2021-07-08 18:51:51.937500000,-33.0,2.0,55.0,111.403125,29.5,1.83185575,34.37
2021-07-08 18:51:51.945312500,-33.0,2.0,54.75,111.40273437500001,27.21,1.83161553125,34.37
2021-07-08 18:51:51.953125000,-33.0,2.0,54.5,111.40234375,24.92,1.8313753124999999,34.37
2021-07-08 18:51:51.960937500,-33.0,2.0,54.25,111.401953125,22.740000000000002,1.83113509375,34.37
2021-07-08 18:51:51.968750000,-33.0,2.0,54.0,111.40156250000001,20.56,1.830894875,34.37
2021-07-08 18:51:51.976562500,-33.25,2.0,54.0,111.401171875,18.59,1.83065465625,34.37
2021-07-08 18:51:51.984375000,-33.5,2.0,54.0,111.40078125000001,16.62,1.8304144375,34.37
2021-07-08 18:51:51.992187500,-33.75,2.0,54.0,111.400390625,14.885000000000002,1.8301742187499999,34.37
2021-07-08 18:51:52.000000000,-34.0,2.0,54.0,111.4,13.15,1.829934,34.37
2021-07-08 18:51:52.007812500,-34.0,2.0,54.0,111.399765625,11.635,1.8297738749999999,34.36875
2021-07-08 18:51:52.015625000,-34.0,2.0,54.0,111.39953125000001,10.12,1.82961375,34.3675
2021-07-08 18:51:52.023437500,-34.0,2.0,54.0,111.399296875,8.785,1.829453625,34.36625
2021-07-08 18:51:52.031250000,-34.0,2.0,54.0,111.3990625,7.45,1.8292935,34.364999999999995
2021-07-08 18:51:52.039062500,-33.75,2.0,54.25,111.39882812500001,6.25,1.829133375,34.363749999999996
2021-07-08 18:51:52.046875000,-33.5,2.0,54.5,111.39859375,5.05,1.82897325,34.3625
2021-07-08 18:51:52.054687500,-33.25,2.0,54.75,111.39835937500001,3.875,1.828813125,34.36125
2021-07-08 18:51:52.062500000,-33.0,2.0,55.0,111.39812500000001,2.7,1.828653,34.36
2021-07-08 18:51:52.070312500,-33.25,2.0,55.0,111.397890625,1.32,1.828492875,34.35875
2021-07-08 18:51:52.078125000,-33.5,2.0,55.0,111.39765625000001,-0.06,1.82833275,34.357499999999995
2021-07-08 18:51:52.085937500,-33.75,2.0,55.0,111.397421875,-1.91,1.8281726249999999,34.356249999999996
2021-07-08 18:51:52.093750000,-34.0,2.0,55.0,111.3971875,-3.76,1.8280125,34.355
2021-07-08 18:51:52.101562500,-33.75,2.0,54.75,111.39695312500001,-6.36,1.827852375,34.35375
2021-07-08 18:51:52.109375000,-33.5,2.0,54.5,111.39671875,-8.96,1.82769225,34.3525
2021-07-08 18:51:52.117187500,-33.25,2.0,54.25,111.396484375,-12.4,1.827532125,34.35125
2021-07-08 18:51:52.125000000,-33.0,2.0,54.0,111.39625000000001,-15.84,1.827372,34.349999999999994
2021-07-08 18:51:52.132812500,-33.25,2.0,54.0,111.396015625,-19.9,1.827211875,34.348749999999995
2021-07-08 18:51:52.140625000,-33.5,2.0,54.0,111.39578125,-23.96,1.82705175,34.3475
2021-07-08 18:51:52.148437500,-33.75,2.0,54.0,111.39554687500001,-28.07,1.826891625,34.34625
2021-07-08 18:51:52.156250000,-34.0,2.0,54.0,111.3953125,-32.18,1.8267315,34.345
2021-07-08 18:51:52.164062500,-34.0,2.0,54.25,111.39507812500001,-35.555,1.826571375,34.34375
2021-07-08 18:51:52.171875000,-34.0,2.0,54.5,111.39484375,-38.93,1.82641125,34.3425
2021-07-08 18:51:52.179687500,-34.0,2.0,54.75,111.394609375,-40.785,1.826251125,34.341249999999995
2021-07-08 18:51:52.187500000,-34.0,2.0,55.0,111.39437500000001,-42.64,1.826091,34.339999999999996
2021-07-08 18:51:52.195312500,-34.0,2.0,54.75,111.394140625,-42.44,1.825930875,34.33875
2021-07-08 18:51:52.203125000,-34.0,2.0,54.5,111.39390625,-42.24,1.82577075,34.3375
2021-07-08 18:51:52.210937500,-34.0,2.0,54.25,111.39367187500001,-39.88,1.825610625,34.33625
2021-07-08 18:51:52.218750000,-34.0,2.0,54.0,111.3934375,-37.52,1.8254505,34.335
2021-07-08 18:51:52.226562500,-34.0,2.0,54.0,111.393203125,-33.295,1.825290375,34.333749999999995
2021-07-08 18:51:52.234375000,-34.0,2.0,54.0,111.39296875000001,-29.07,1.82513025,34.332499999999996
2021-07-08 18:51:52.242187500,-34.0,2.0,54.0,111.392734375,-23.57,1.824970125,34.33125
2021-07-08 18:51:52.250000000,-34.0,2.0,54.0,111.39250000000001,-18.07,1.82481,34.33
2021-07-08 18:51:52.257812500,-34.0,2.0,54.25,111.39226562500001,-11.975,1.82436965625,34.33
2021-07-08 18:51:52.265625000,-34.0,2.0,54.5,111.39203125,-5.88,1.8239293125,34.33
2021-07-08 18:51:52.273437500,-34.0,2.0,54.75,111.39179687500001,0.16500000000000004,1.82348896875,34.33
2021-07-08 18:51:52.281250000,-34.0,2.0,55.0,111.3915625,6.21,1.823048625,34.33
2021-07-08 18:51:52.289062500,-34.0,2.0,54.75,111.391328125,11.73,1.82260828125,34.33
2021-07-08 18:51:52.296875000,-34.0,2.0,54.5,111.39109375000001,17.25,1.8221679375,34.33
2021-07-08 18:51:52.304687500,-34.0,2.0,54.25,111.390859375,21.93,1.82172759375,34.33
2021-07-08 18:51:52.312500000,-34.0,2.0,54.0,111.390625,26.61,1.8212872500000001,34.33
2021-07-08 18:51:52.320312500,-34.0,2.0,54.25,111.39039062500001,30.285,1.8208469062500001,34.33
2021-07-08 18:51:52.328125000,-34.0,2.0,54.5,111.39015625,33.96,1.8204065625,34.33
2021-07-08 18:51:52.335937500,-34.0,2.0,54.75,111.389921875,36.575,1.81996621875,34.33
2021-07-08 18:51:52.343750000,-34.0,2.0,55.0,111.38968750000001,39.19,1.819525875,34.33
2021-07-08 18:51:52.351562500,-34.0,2.0,54.75,111.389453125,40.76,1.81908553125,34.33
2021-07-08 18:51:52.359375000,-34.0,2.0,54.5,111.38921875000001,42.33,1.8186451875,34.33
2021-07-08 18:51:52.367187500,-34.0,2.0,54.25,111.388984375,42.92,1.81820484375,34.33
2021-07-08 18:51:52.375000000,-34.0,2.0,54.0,111.38875,43.51,1.8177645,34.33
2021-07-08 18:51:52.382812500,-34.0,2.0,54.0,111.38851562500001,43.230000000000004,1.81732415625,34.33
2021-07-08 18:51:52.390625000,-34.0,2.0,54.0,111.38828125,42.95,1.8168838125,34.33
2021-07-08 18:51:52.398437500,-34.0,2.0,54.0,111.388046875,41.94,1.81644346875,34.33
2021-07-08 18:51:52.406250000,-34.0,2.0,54.0,111.38781250000001,40.93,1.816003125,34.33
2021-07-08 18:51:52.414062500,-34.0,2.0,54.25,111.387578125,39.36,1.81556278125,34.33
2021-07-08 18:51:52.421875000,-34.0,2.0,54.5,111.38734375,37.79,1.8151224375,34.33
2021-07-08 18:51:52.429687500,-34.0,2.0,54.75,111.38710937500001,35.835,1.81468209375,34.33
2021-07-08 18:51:52.437500000,-34.0,2.0,55.0,111.386875,33.88,1.8142417499999999,34.33
2021-07-08 18:51:52.445312500,-33.75,2.0,55.0,111.386640625,31.715000000000003,1.81380140625,34.33
2021-07-08 18:51:52.453125000,-33.5,2.0,55.0,111.38640625000001,29.55,1.8133610625,34.33
2021-07-08 18:51:52.460937500,-33.25,2.0,55.0,111.386171875,27.310000000000002,1.81292071875,34.33
2021-07-08 18:51:52.468750000,-33.0,2.0,55.0,111.38593750000001,25.07,1.812480375,34.33
2021-07-08 18:51:52.476562500,-33.0,2.0,55.0,111.385703125,22.855,1.81204003125,34.33
2021-07-08 18:51:52.484375000,-33.0,2.0,55.0,111.38546875,20.64,1.8115996875,34.33
2021-07-08 18:51:52.492187500,-33.0,2.0,55.0,111.38523437500001,18.52,1.81115934375,34.33
2021-07-08 18:51:52.500000000,-33.0,2.0,55.0,111.385,16.4,1.810719,34.33
2021-07-08 18:51:52.507812500,-33.25,2.0,54.75,111.384765625,14.44,1.8107990625,34.33
2021-07-08 18:51:52.515625000,-33.5,2.0,54.5,111.38453125000001,12.48,1.810879125,34.33
2021-07-08 18:51:52.523437500,-33.75,2.0,54.25,111.384296875,10.74,1.8109591875,34.33
2021-07-08 18:51:52.531250000,-34.0,2.0,54.0,111.3840625,9.0,1.8110392499999999,34.33
2021-07-08 18:51:52.539062500,-34.0,2.0,54.0,111.38382812500001,7.535,1.8111193125,34.33
2021-07-08 18:51:52.546875000,-34.0,2.0,54.0,111.38359375,6.07,1.811199375,34.33
2021-07-08 18:51:52.554687500,-34.0,2.0,54.0,111.38335937500001,4.87,1.8112794374999999,34.33
2021-07-08 18:51:52.562500000,-34.0,2.0,54.0,111.383125,3.67,1.8113595,34.33
2021-07-08 18:51:52.570312500,-34.0,2.0,54.0,111.382890625,2.605,1.8114395625,34.33
2021-07-08 18:51:52.578125000,-34.0,2.0,54.0,111.38265625000001,1.54,1.8115196249999999,34.33
2021-07-08 18:51:52.585937500,-34.0,2.0,54.0,111.382421875,0.3700000000000001,1.8115996875,34.33
2021-07-08 18:51:52.593750000,-34.0,2.0,54.0,111.3821875,-0.8,1.81167975,34.33
2021-07-08 18:51:52.601562500,-33.75,2.0,54.25,111.38195312500001,-2.41,1.8117598124999998,34.33
2021-07-08 18:51:52.609375000,-33.5,2.0,54.5,111.38171875,-4.02,1.811839875,34.33
2021-07-08 18:51:52.617187500,-33.25,2.0,54.75,111.381484375,-6.415,1.8119199375,34.33
2021-07-08 18:51:52.625000000,-33.0,2.0,55.0,111.38125000000001,-8.81,1.8119999999999998,34.33
2021-07-08 18:51:52.632812500,-33.0,2.0,55.0,111.381015625,-12.2,1.8120800625,34.33
2021-07-08 18:51:52.640625000,-33.0,2.0,55.0,111.38078125,-15.59,1.812160125,34.33
2021-07-08 18:51:52.648437500,-33.0,2.0,55.0,111.38054687500001,-19.93,1.8122401875,34.33
2021-07-08 18:51:52.656250000,-33.0,2.0,55.0,111.3803125,-24.27,1.81232025,34.33
2021-07-08 18:51:52.664062500,-33.25,2.0,55.0,111.38007812500001,-29.15,1.8124003124999999,34.33
2021-07-08 18:51:52.671875000,-33.5,2.0,55.0,111.37984375,-34.03,1.812480375,34.33
2021-07-08 18:51:52.679687500,-33.75,2.0,55.0,111.379609375,-38.705,1.8125604375,34.33
2021-07-08 18:51:52.687500000,-34.0,2.0,55.0,111.37937500000001,-43.38,1.8126404999999999,34.33
2021-07-08 18:51:52.695312500,-34.0,2.0,54.75,111.379140625,-46.894999999999996,1.8127205625,34.33
2021-07-08 18:51:52.703125000,-34.0,2.0,54.5,111.37890625,-50.41,1.812800625,34.33
2021-07-08 18:51:52.710937500,-34.0,2.0,54.25,111.37867187500001,-51.9,1.8128806874999999,34.33
2021-07-08 18:51:52.718750000,-34.0,2.0,54.0,111.3784375,-53.39,1.81296075,34.33
2021-07-08 18:51:52.726562500,-33.75,2.0,54.0,111.378203125,-52.33,1.8130408125,34.33
2021-07-08 18:51:52.734375000,-33.5,2.0,54.0,111.37796875000001,-51.27,1.8131208749999999,34.33
2021-07-08 18:51:52.742187500,-33.25,2.0,54.0,111.377734375,-47.725,1.8132009375,34.33
2021-07-08 18:51:52.750000000,-33.0,2.0,54.0,111.3775,-44.18,1.813281,34.33
2021-07-08 18:51:52.757812500,-33.25,2.0,54.25,111.377265625,-38.725,1.8130408125,34.33
2021-07-08 18:51:52.765625000,-33.5,2.0,54.5,111.37703125,-33.27,1.812800625,34.33
2021-07-08 18:51:52.773437500,-33.75,2.0,54.75,111.37679687500001,-26.855000000000004,1.8125604375,34.33
2021-07-08 18:51:52.781250000,-34.0,2.0,55.0,111.3765625,-20.44,1.81232025,34.33
2021-07-08 18:51:52.789062500,-33.75,2.0,55.0,111.376328125,-14.030000000000001,1.8120800625,34.33
2021-07-08 18:51:52.796875000,-33.5,2.0,55.0,111.37609375000001,-7.62,1.811839875,34.33
2021-07-08 18:51:52.804687500,-33.25,2.0,55.0,111.375859375,-1.9649999999999999,1.8115996875,34.33
2021-07-08 18:51:52.812500000,-33.0,2.0,55.0,111.375625,3.69,1.8113595,34.33
2021-07-08 18:51:52.820312500,-33.0,2.0,55.0,111.37539062500001,8.200000000000001,1.8111193125,34.33
2021-07-08 18:51:52.828125000,-33.0,2.0,55.0,111.37515625,12.71,1.810879125,34.33
2021-07-08 18:51:52.835937500,-33.0,2.0,55.0,111.374921875,15.975,1.8106389375,34.33
2021-07-08 18:51:52.843750000,-33.0,2.0,55.0,111.37468750000001,19.24,1.81039875,34.33
2021-07-08 18:51:52.851562500,-33.25,2.0,54.75,111.374453125,21.36,1.8101585625,34.33
2021-07-08 18:51:52.859375000,-33.5,2.0,54.5,111.37421875000001,23.48,1.809918375,34.33
2021-07-08 18:51:52.867187500,-33.75,2.0,54.25,111.373984375,24.595,1.8096781875,34.33
2021-07-08 18:51:52.875000000,-34.0,2.0,54.0,111.37375,25.71,1.809438,34.33
2021-07-08 18:51:52.882812500,-34.0,2.0,54.0,111.37351562500001,25.96,1.8091978125,34.33
2021-07-08 18:51:52.890625000,-34.0,2.0,54.0,111.37328125,26.21,1.808957625,34.33
2021-07-08 18:51:52.898437500,-34.0,2.0,54.0,111.373046875,25.735,1.8087174375,34.33
2021-07-08 18:51:52.906250000,-34.0,2.0,54.0,111.37281250000001,25.26,1.80847725,34.33
2021-07-08 18:51:52.914062500,-33.75,2.0,54.25,111.372578125,24.21,1.8082370625,34.33
2021-07-08 18:51:52.921875000,-33.5,2.0,54.5,111.37234375,23.16,1.807996875,34.33
2021-07-08 18:51:52.929687500,-33.25,2.0,54.75,111.37210937500001,21.72,1.8077566875,34.33
2021-07-08 18:51:52.937500000,-33.0,2.0,55.0,111.371875,20.28,1.8075165,34.33
2021-07-08 18:51:52.945312500,-33.25,2.0,54.75,111.371640625,18.62,1.8072763125,34.33
2021-07-08 18:51:52.953125000,-33.5,2.0,54.5,111.37140625,16.96,1.807036125,34.33
2021-07-08 18:51:52.960937500,-33.75,2.0,54.25,111.371171875,15.215,1.8067959375,34.33
2021-07-08 18:51:52.968750000,-34.0,2.0,54.0,111.37093750000001,13.47,1.80655575,34.33
2021-07-08 18:51:52.976562500,-33.75,2.0,54.25,111.370703125,11.695,1.8063155625,34.33
2021-07-08 18:51:52.984375000,-33.5,2.0,54.5,111.37046875,9.92,1.806075375,34.33
2021-07-08 18:51:52.992187500,-33.25,2.0,54.75,111.37023437500001,8.16,1.8058351875,34.33
2021-07-08 18:51:53.000000000,-33.0,2.0,55.0,111.37,6.4,1.805595,34.33
2021-07-08 18:51:53.007812500,-33.25,2.0,54.75,111.36984375,4.665,1.80547490625,34.33125
2021-07-08 18:51:53.015625000,-33.5,2.0,54.5,111.3696875,2.93,1.8053548125,34.332499999999996
2021-07-08 18:51:53.023437500,-33.75,2.0,54.25,111.36953125000001,1.2750000000000001,1.80523471875,34.333749999999995
2021-07-08 18:51:53.031250000,-34.0,2.0,54.0,111.369375,-0.38,1.805114625,34.335
2021-07-08 18:51:53.039062500,-34.0,2.0,54.0,111.36921875,-1.8599999999999999,1.80499453125,34.33625
2021-07-08 18:51:53.046875000,-34.0,2.0,54.0,111.3690625,-3.34,1.8048744375,34.3375
2021-07-08 18:51:53.054687500,-34.0,2.0,54.0,111.36890625000001,-4.555,1.80475434375,34.33875
2021-07-08 18:51:53.062500000,-34.0,2.0,54.0,111.36875,-5.77,1.80463425,34.339999999999996
2021-07-08 18:51:53.070312500,-33.75,2.0,54.25,111.36859375,-6.685,1.80451415625,34.341249999999995
2021-07-08 18:51:53.078125000,-33.5,2.0,54.5,111.3684375,-7.6,1.8043940625000001,34.3425
2021-07-08 18:51:53.085937500,-33.25,2.0,54.75,111.36828125000001,-8.309999999999999,1.80427396875,34.34375
2021-07-08 18:51:53.093750000,-33.0,2.0,55.0,111.368125,-9.02,1.8041538750000001,34.345
2021-07-08 18:51:53.101562500,-33.25,2.0,55.0,111.36796875,-9.76,1.80403378125,34.34625
2021-07-08 18:51:53.109375000,-33.5,2.0,55.0,111.3678125,-10.5,1.8039136875000001,34.3475
2021-07-08 18:51:53.117187500,-33.75,2.0,55.0,111.36765625000001,-11.61,1.80379359375,34.348749999999995
2021-07-08 18:51:53.125000000,-34.0,2.0,55.0,111.3675,-12.72,1.8036735,34.349999999999994
2021-07-08 18:51:53.132812500,-34.0,2.0,55.0,111.36734375,-14.530000000000001,1.80355340625,34.35125
2021-07-08 18:51:53.140625000,-34.0,2.0,55.0,111.3671875,-16.34,1.8034333125,34.3525
2021-07-08 18:51:53.148437500,-34.0,2.0,55.0,111.36703125,-18.990000000000002,1.80331321875,34.35375
2021-07-08 18:51:53.156250000,-34.0,2.0,55.0,111.36687500000001,-21.64,1.803193125,34.355
2021-07-08 18:51:53.164062500,-34.0,2.0,55.0,111.36671875,-25.005000000000003,1.80307303125,34.356249999999996
2021-07-08 18:51:53.171875000,-34.0,2.0,55.0,111.3665625,-28.37,1.8029529375,34.357499999999995
2021-07-08 18:51:53.179687500,-34.0,2.0,55.0,111.36640625,-31.985,1.80283284375,34.35875
2021-07-08 18:51:53.187500000,-34.0,2.0,55.0,111.36625000000001,-35.6,1.80271275,34.36
2021-07-08 18:51:53.195312500,-34.0,2.0,55.0,111.36609375,-38.769999999999996,1.80259265625,34.36125
2021-07-08 18:51:53.203125000,-34.0,2.0,55.0,111.3659375,-41.94,1.8024725625,34.3625
2021-07-08 18:51:53.210937500,-34.0,2.0,55.0,111.36578125,-43.905,1.80235246875,34.363749999999996
2021-07-08 18:51:53.218750000,-34.0,2.0,55.0,111.36562500000001,-45.87,1.802232375,34.364999999999995
2021-07-08 18:51:53.226562500,-34.0,2.0,54.75,111.36546875,-46.01,1.8021122812500001,34.36625
2021-07-08 18:51:53.234375000,-34.0,2.0,54.5,111.3653125,-46.15,1.8019921875,34.3675
2021-07-08 18:51:53.242187500,-34.0,2.0,54.25,111.36515625,-44.185,1.8018720937500001,34.36875
2021-07-08 18:51:53.250000000,-34.0,2.0,54.0,111.36500000000001,-42.22,1.801752,34.37
2021-07-08 18:51:53.257812500,-34.0,2.0,54.0,111.36484375,-38.3,1.8015118125,34.37
2021-07-08 18:51:53.265625000,-34.0,2.0,54.0,111.3646875,-34.38,1.801271625,34.37
2021-07-08 18:51:53.273437500,-34.0,2.0,54.0,111.36453125,-29.03,1.8010314375,34.37
2021-07-08 18:51:53.281250000,-34.0,2.0,54.0,111.364375,-23.68,1.80079125,34.37
2021-07-08 18:51:53.289062500,-33.75,2.0,54.25,111.36421875,-17.64,1.8005510625,34.37
2021-07-08 18:51:53.296875000,-33.5,2.0,54.5,111.3640625,-11.6,1.800310875,34.37
2021-07-08 18:51:53.304687500,-33.25,2.0,54.75,111.36390625,-5.625,1.8000706875,34.37
2021-07-08 18:51:53.312500000,-33.0,2.0,55.0,111.36375,0.35,1.7998305,34.37
2021-07-08 18:51:53.320312500,-33.0,2.0,55.0,111.36359375,5.705,1.7995903125,34.37
2021-07-08 18:51:53.328125000,-33.0,2.0,55.0,111.3634375,11.06,1.799350125,34.37
2021-07-08 18:51:53.335937500,-33.0,2.0,55.0,111.36328125,15.465,1.7991099375,34.37
2021-07-08 18:51:53.343750000,-33.0,2.0,55.0,111.363125,19.87,1.79886975,34.37
2021-07-08 18:51:53.351562500,-33.25,2.0,54.75,111.36296875000001,23.235,1.7986295625,34.37
2021-07-08 18:51:53.359375000,-33.5,2.0,54.5,111.3628125,26.6,1.798389375,34.37
2021-07-08 18:51:53.367187500,-33.75,2.0,54.25,111.36265625,28.975,1.7981491875,34.37
2021-07-08 18:51:53.375000000,-34.0,2.0,54.0,111.3625,31.35,1.797909,34.37
2021-07-08 18:51:53.382812500,-34.0,2.0,54.0,111.36234375,32.8,1.7976688125,34.37
2021-07-08 18:51:53.390625000,-34.0,2.0,54.0,111.3621875,34.25,1.797428625,34.37
2021-07-08 18:51:53.398437500,-34.0,2.0,54.0,111.36203125,34.85,1.7971884375,34.37
2021-07-08 18:51:53.406250000,-34.0,2.0,54.0,111.361875,35.45,1.79694825,34.37
2021-07-08 18:51:53.414062500,-34.0,2.0,54.25,111.36171875,35.295,1.7967080625,34.37
2021-07-08 18:51:53.421875000,-34.0,2.0,54.5,111.3615625,35.14,1.796467875,34.37
2021-07-08 18:51:53.429687500,-34.0,2.0,54.75,111.36140625,34.345,1.7962276875,34.37
2021-07-08 18:51:53.437500000,-34.0,2.0,55.0,111.36125,33.55,1.7959874999999998,34.37
2021-07-08 18:51:53.445312500,-33.75,2.0,55.0,111.36109375,32.285,1.7957473124999999,34.37
2021-07-08 18:51:53.453125000,-33.5,2.0,55.0,111.3609375,31.02,1.7955071249999999,34.37
2021-07-08 18:51:53.460937500,-33.25,2.0,55.0,111.36078125,29.48,1.7952669374999999,34.37
2021-07-08 18:51:53.468750000,-33.0,2.0,55.0,111.360625,27.94,1.79502675,34.37
2021-07-08 18:51:53.476562500,-33.25,2.0,55.0,111.36046875,26.305,1.7947865625,34.37
2021-07-08 18:51:53.484375000,-33.5,2.0,55.0,111.3603125,24.67,1.794546375,34.37
2021-07-08 18:51:53.492187500,-33.75,2.0,55.0,111.36015625,23.060000000000002,1.7943061875,34.37
2021-07-08 18:51:53.500000000,-34.0,2.0,55.0,111.36,21.45,1.794066,34.37
2021-07-08 18:51:53.507812500,-33.75,2.0,54.75,111.35984375,19.924999999999997,1.79402596875,34.37
2021-07-08 18:51:53.515625000,-33.5,2.0,54.5,111.35968749999999,18.4,1.7939859375,34.37
2021-07-08 18:51:53.523437500,-33.25,2.0,54.25,111.35953125,16.945,1.79394590625,34.37
2021-07-08 18:51:53.531250000,-33.0,2.0,54.0,111.359375,15.49,1.7939058749999999,34.37
2021-07-08 18:51:53.539062500,-33.25,2.0,54.25,111.35921875,14.085,1.79386584375,34.37
2021-07-08 18:51:53.546875000,-33.5,2.0,54.5,111.3590625,12.68,1.7938258125,34.37
2021-07-08 18:51:53.554687500,-33.75,2.0,54.75,111.35890625,11.32,1.79378578125,34.37
2021-07-08 18:51:53.562500000,-34.0,2.0,55.0,111.35875,9.96,1.79374575,34.37
2021-07-08 18:51:53.570312500,-34.0,2.0,54.75,111.35859375,8.635,1.79370571875,34.37
2021-07-08 18:51:53.578125000,-34.0,2.0,54.5,111.3584375,7.31,1.7936656874999999,34.37
2021-07-08 18:51:53.585937500,-34.0,2.0,54.25,111.35828125,6.0,1.79362565625,34.37
2021-07-08 18:51:53.593750000,-34.0,2.0,54.0,111.358125,4.69,1.793585625,34.37
2021-07-08 18:51:53.601562500,-34.0,2.0,54.0,111.35796875,3.33,1.79354559375,34.37
2021-07-08 18:51:53.609375000,-34.0,2.0,54.0,111.3578125,1.97,1.7935055625,34.37
2021-07-08 18:51:53.617187500,-34.0,2.0,54.0,111.35765625,0.3699999999999999,1.79346553125,34.37
2021-07-08 18:51:53.625000000,-34.0,2.0,54.0,111.3575,-1.23,1.7934255000000001,34.37
2021-07-08 18:51:53.632812500,-33.75,2.0,54.25,111.35734375,-3.2849999999999997,1.79338546875,34.37
2021-07-08 18:51:53.640625000,-33.5,2.0,54.5,111.3571875,-5.34,1.7933454375,34.37
2021-07-08 18:51:53.648437500,-33.25,2.0,54.75,111.35703124999999,-8.05,1.79330540625,34.37
2021-07-08 18:51:53.656250000,-33.0,2.0,55.0,111.356875,-10.76,1.793265375,34.37
2021-07-08 18:51:53.664062500,-33.25,2.0,54.75,111.35671875,-14.14,1.79322534375,34.37
2021-07-08 18:51:53.671875000,-33.5,2.0,54.5,111.3565625,-17.52,1.7931853125000001,34.37
2021-07-08 18:51:53.679687500,-33.75,2.0,54.25,111.35640624999999,-21.365000000000002,1.79314528125,34.37
2021-07-08 18:51:53.687500000,-34.0,2.0,54.0,111.35625,-25.21,1.79310525,34.37
2021-07-08 18:51:53.695312500,-34.0,2.0,54.0,111.35609375,-29.05,1.79306521875,34.37
2021-07-08 18:51:53.703125000,-34.0,2.0,54.0,111.3559375,-32.89,1.7930251875,34.37
2021-07-08 18:51:53.710937500,-34.0,2.0,54.0,111.35578124999999,-36.115,1.79298515625,34.37
2021-07-08 18:51:53.718750000,-34.0,2.0,54.0,111.355625,-39.34,1.7929451250000001,34.37
2021-07-08 18:51:53.726562500,-34.0,2.0,54.0,111.35546875,-41.335,1.79290509375,34.37
2021-07-08 18:51:53.734375000,-34.0,2.0,54.0,111.3553125,-43.33,1.7928650625,34.37
2021-07-08 18:51:53.742187500,-34.0,2.0,54.0,111.35515625,-43.66,1.79282503125,34.37
2021-07-08 18:51:53.750000000,-34.0,2.0,54.0,111.35499999999999,-43.99,1.792785,34.37
2021-07-08 18:51:53.757812500,-33.75,2.0,54.25,111.35484375,-42.495000000000005,1.79242471875,34.37
2021-07-08 18:51:53.765625000,-33.5,2.0,54.5,111.3546875,-41.0,1.7920644375,34.37
2021-07-08 18:51:53.773437500,-33.25,2.0,54.75,111.35453125,-37.785,1.79170415625,34.37
2021-07-08 18:51:53.781250000,-33.0,2.0,55.0,111.35437499999999,-34.57,1.7913438750000001,34.37
2021-07-08 18:51:53.789062500,-33.0,2.0,55.0,111.35421875,-30.005000000000003,1.79098359375,34.37
2021-07-08 18:51:53.796875000,-33.0,2.0,55.0,111.3540625,-25.44,1.7906233125,34.37
2021-07-08 18:51:53.804687500,-33.0,2.0,55.0,111.35390625,-20.035,1.79026303125,34.37
2021-07-08 18:51:53.812500000,-33.0,2.0,55.0,111.35374999999999,-14.63,1.78990275,34.37
2021-07-08 18:51:53.820312500,-33.0,2.0,55.0,111.35359375,-8.940000000000001,1.7895424687500001,34.37
2021-07-08 18:51:53.828125000,-33.0,2.0,55.0,111.3534375,-3.25,1.7891821875,34.37
2021-07-08 18:51:53.835937500,-33.0,2.0,55.0,111.35328125,2.215,1.78882190625,34.37
2021-07-08 18:51:53.843750000,-33.0,2.0,55.0,111.35312499999999,7.68,1.788461625,34.37
2021-07-08 18:51:53.851562500,-33.25,2.0,55.0,111.35296875,12.495,1.78810134375,34.37
2021-07-08 18:51:53.859375000,-33.5,2.0,55.0,111.3528125,17.31,1.7877410625,34.37
2021-07-08 18:51:53.867187500,-33.75,2.0,55.0,111.35265625,21.240000000000002,1.78738078125,34.37
2021-07-08 18:51:53.875000000,-34.0,2.0,55.0,111.35249999999999,25.17,1.7870205000000001,34.37
2021-07-08 18:51:53.882812500,-33.75,2.0,55.0,111.35234374999999,28.1,1.78666021875,34.37
2021-07-08 18:51:53.890625000,-33.5,2.0,55.0,111.3521875,31.03,1.7862999375,34.37
2021-07-08 18:51:53.898437500,-33.25,2.0,55.0,111.35203125,32.95,1.78593965625,34.37
2021-07-08 18:51:53.906250000,-33.0,2.0,55.0,111.35187499999999,34.87,1.785579375,34.37
2021-07-08 18:51:53.914062500,-33.0,2.0,55.0,111.35171874999999,35.815,1.78521909375,34.37
2021-07-08 18:51:53.921875000,-33.0,2.0,55.0,111.3515625,36.76,1.7848588125,34.37
2021-07-08 18:51:53.929687500,-33.0,2.0,55.0,111.35140625,36.81,1.78449853125,34.37
