TimeStamp,empatica.acc.x,empatica.acc.y,empatica.acc.z,empatica.hr,empatica.bvp,empatica.eda,empatica.temp
2021-07-08 18:43:38.710937500,-35.0,1.25,54.0,114.499765625,18.58,0.6078723125,33.99
2021-07-08 18:43:38.718750000,-35.0,1.0,54.0,114.50031249999999,16.09,0.60779225,33.99
2021-07-08 18:43:38.726562500,-35.0,1.25,54.0,114.500859375,13.86,0.6077121875,33.99
2021-07-08 18:43:38.734375000,-35.0,1.5,54.0,114.50140625,11.63,0.607632125,33.99
2021-07-08 18:43:38.742187500,-35.0,1.75,54.0,114.501953125,9.745000000000001,0.6075520625,33.99
2021-07-08 18:43:38.750000000,-35.0,2.0,54.0,114.5025,7.86,0.607472,33.99
2021-07-08 18:43:38.757812500,-35.0,2.0,54.0,114.503046875,6.35,0.607472,33.99
2021-07-08 18:43:38.765625000,-35.0,2.0,54.0,114.50359375,4.84,0.607472,33.99
2021-07-08 18:43:38.773437500,-35.0,2.0,54.0,114.50414062499999,3.57,0.607472,33.99
2021-07-08 18:43:38.781250000,-35.0,2.0,54.0,114.5046875,2.3,0.607472,33.99
2021-07-08 18:43:38.789062500,-35.0,2.0,54.0,114.505234375,0.9949999999999999,0.607472,33.99
2021-07-08 18:43:38.796875000,-35.0,2.0,54.0,114.50578125,-0.31,0.607472,33.99
2021-07-08 18:43:38.804687500,-35.0,2.0,54.0,114.506328125,-2.0,0.607472,33.99
2021-07-08 18:43:38.812500000,-35.0,2.0,54.0,114.506875,-3.69,0.607472,33.99
2021-07-08 18:43:38.820312500,-34.75,2.0,54.0,114.50742187499999,-6.095000000000001,0.607472,33.99
2021-07-08 18:43:38.828125000,-34.5,2.0,54.0,114.50796875,-8.5,0.607472,33.99
2021-07-08 18:43:38.835937500,-34.25,2.0,54.0,114.508515625,-11.84,0.607472,33.99
2021-07-08 18:43:38.843750000,-34.0,2.0,54.0,114.5090625,-15.18,0.607472,33.99
2021-07-08 18:43:38.851562500,-34.25,2.0,54.0,114.509609375,-19.490000000000002,0.607472,33.99
2021-07-08 18:43:38.859375000,-34.5,2.0,54.0,114.51015625,-23.8,0.607472,33.99
2021-07-08 18:43:38.867187500,-34.75,2.0,54.0,114.51070312499999,-28.840000000000003,0.607472,33.99
2021-07-08 18:43:38.875000000,-35.0,2.0,54.0,114.51124999999999,-33.88,0.607472,33.99
2021-07-08 18:43:38.882812500,-35.0,2.0,54.0,114.511796875,-39.095,0.607472,33.99
2021-07-08 18:43:38.890625000,-35.0,2.0,54.0,114.51234375,-44.31,0.607472,33.99
2021-07-08 18:43:38.898437500,-35.0,2.0,54.0,114.512890625,-48.88,0.607472,33.99
2021-07-08 18:43:38.906250000,-35.0,2.0,54.0,114.5134375,-53.45,0.607472,33.99
2021-07-08 18:43:38.914062500,-35.0,2.0,54.0,114.51398437499999,-56.395,0.607472,33.99
2021-07-08 18:43:38.921875000,-35.0,2.0,54.0,114.51453124999999,-59.34,0.607472,33.99
2021-07-08 18:43:38.929687500,-35.0,2.0,54.0,114.515078125,-59.815,0.607472,33.99
2021-07-08 18:43:38.937500000,-35.0,2.0,54.0,114.515625,-60.29,0.607472,33.99
2021-07-08 18:43:38.945312500,-35.0,1.75,54.0,114.516171875,-57.84,0.607472,33.99
2021-07-08 18:43:38.953125000,-35.0,1.5,54.0,114.51671875,-55.39,0.607472,33.99
2021-07-08 18:43:38.960937500,-35.0,1.25,54.0,114.517265625,-50.105000000000004,0.607472,33.99
2021-07-08 18:43:38.968750000,-35.0,1.0,54.0,114.51781249999999,-44.82,0.607472,33.99
2021-07-08 18:43:38.976562500,-35.0,1.25,54.0,114.518359375,-37.285,0.607472,33.99
2021-07-08 18:43:38.984375000,-35.0,1.5,54.0,114.51890625,-29.75,0.607472,33.99
2021-07-08 18:43:38.992187500,-35.0,1.75,54.0,114.519453125,-20.92,0.607472,33.99
2021-07-08 18:43:39.000000000,-35.0,2.0,54.0,114.52,-12.09,0.607472,33.99
2021-07-08 18:43:39.007812500,-35.0,1.75,54.0,114.52039062499999,-2.965,0.6073919062500001,33.989375
2021-07-08 18:43:39.015625000,-35.0,1.5,54.0,114.52078125,6.16,0.6073118125,33.98875
2021-07-08 18:43:39.023437500,-35.0,1.25,54.0,114.521171875,14.7,0.60723171875,33.988125000000004
2021-07-08 18:43:39.031250000,-35.0,1.0,54.0,114.5215625,23.24,0.607151625,33.987500000000004
2021-07-08 18:43:39.039062500,-35.0,1.25,54.0,114.521953125,30.555,0.60707153125,33.986875000000005
2021-07-08 18:43:39.046875000,-35.0,1.5,54.0,114.52234374999999,37.87,0.6069914375000001,33.98625
2021-07-08 18:43:39.054687500,-35.0,1.75,54.0,114.522734375,43.55,0.60691134375,33.985625
2021-07-08 18:43:39.062500000,-35.0,2.0,54.0,114.523125,49.23,0.60683125,33.985
2021-07-08 18:43:39.070312500,-35.0,2.0,54.0,114.523515625,53.06,0.60675115625,33.984375
2021-07-08 18:43:39.078125000,-35.0,2.0,54.0,114.52390625,56.89,0.6066710625,33.98375
2021-07-08 18:43:39.085937500,-35.0,2.0,54.0,114.52429687499999,58.8,0.6065909687500001,33.983125
2021-07-08 18:43:39.093750000,-35.0,2.0,54.0,114.5246875,60.71,0.606510875,33.9825
2021-07-08 18:43:39.101562500,-35.0,2.0,54.0,114.525078125,60.82,0.60643078125,33.981875
2021-07-08 18:43:39.109375000,-35.0,2.0,54.0,114.52546875,60.93,0.6063506875,33.98125
2021-07-08 18:43:39.117187500,-35.0,2.0,54.0,114.525859375,59.504999999999995,0.60627059375,33.980625
2021-07-08 18:43:39.125000000,-35.0,2.0,54.0,114.52624999999999,58.08,0.6061905000000001,33.980000000000004
2021-07-08 18:43:39.132812500,-35.0,2.0,54.0,114.526640625,55.535,0.60611040625,33.979375
2021-07-08 18:43:39.140625000,-35.0,2.0,54.0,114.52703125,52.99,0.6060303125000001,33.97875
2021-07-08 18:43:39.148437500,-35.0,2.0,54.0,114.527421875,49.769999999999996,0.60595021875,33.978125
2021-07-08 18:43:39.156250000,-35.0,2.0,54.0,114.5278125,46.55,0.605870125,33.9775
2021-07-08 18:43:39.164062500,-35.0,2.0,54.0,114.52820312499999,43.07,0.60579003125,33.976875
2021-07-08 18:43:39.171875000,-35.0,2.0,54.0,114.52859375,39.59,0.6057099375,33.97625
2021-07-08 18:43:39.179687500,-35.0,2.0,54.0,114.528984375,36.13,0.6056298437500001,33.975625
2021-07-08 18:43:39.187500000,-35.0,2.0,54.0,114.529375,32.67,0.60554975,33.975
2021-07-08 18:43:39.195312500,-35.0,1.75,54.0,114.529765625,29.41,0.60546965625,33.974375
2021-07-08 18:43:39.203125000,-35.0,1.5,54.0,114.53015624999999,26.15,0.6053895625,33.97375
2021-07-08 18:43:39.210937500,-35.0,1.25,54.0,114.530546875,23.185,0.60530946875,33.973124999999996
2021-07-08 18:43:39.218750000,-35.0,1.0,54.0,114.5309375,20.22,0.6052293750000001,33.9725
2021-07-08 18:43:39.226562500,-35.0,1.25,54.0,114.531328125,17.585,0.60514928125,33.971875
2021-07-08 18:43:39.234375000,-35.0,1.5,54.0,114.53171875,14.95,0.6050691875,33.97125
2021-07-08 18:43:39.242187500,-35.0,1.75,54.0,114.53210937499999,12.68,0.60498909375,33.970625
2021-07-08 18:43:39.250000000,-35.0,2.0,54.0,114.5325,10.41,0.604909,33.97
2021-07-08 18:43:39.257812500,-35.0,1.75,54.0,114.532890625,8.495000000000001,0.604909,33.97
2021-07-08 18:43:39.265625000,-35.0,1.5,54.0,114.53328125,6.58,0.604909,33.97
2021-07-08 18:43:39.273437500,-35.0,1.25,54.0,114.533671875,4.955,0.604909,33.97
2021-07-08 18:43:39.281250000,-35.0,1.0,54.0,114.53406249999999,3.33,0.604909,33.97
2021-07-08 18:43:39.289062500,-35.0,1.25,54.0,114.534453125,1.865,0.604909,33.97
2021-07-08 18:43:39.296875000,-35.0,1.5,54.0,114.53484375,0.4,0.604909,33.97
2021-07-08 18:43:39.304687500,-35.0,1.75,54.0,114.535234375,-1.0499999999999998,0.604909,33.97
2021-07-08 18:43:39.312500000,-35.0,2.0,54.0,114.535625,-2.5,0.604909,33.97
2021-07-08 18:43:39.320312500,-35.0,2.0,54.0,114.53601562499999,-4.08,0.604909,33.97
2021-07-08 18:43:39.328125000,-35.0,2.0,54.0,114.53640625,-5.66,0.604909,33.97
2021-07-08 18:43:39.335937500,-35.0,2.0,54.0,114.536796875,-7.475,0.604909,33.97
2021-07-08 18:43:39.343750000,-35.0,2.0,54.0,114.5371875,-9.29,0.604909,33.97
2021-07-08 18:43:39.351562500,-35.0,2.0,54.0,114.537578125,-11.434999999999999,0.604909,33.97
2021-07-08 18:43:39.359375000,-35.0,2.0,54.0,114.53796874999999,-13.58,0.604909,33.97
2021-07-08 18:43:39.367187500,-35.0,2.0,54.0,114.538359375,-16.165,0.604909,33.97
2021-07-08 18:43:39.375000000,-35.0,2.0,54.0,114.53875,-18.75,0.604909,33.97
2021-07-08 18:43:39.382812500,-35.0,2.0,54.0,114.539140625,-21.925,0.604909,33.97
2021-07-08 18:43:39.390625000,-35.0,2.0,54.0,114.53953125,-25.1,0.604909,33.97
2021-07-08 18:43:39.398437500,-35.0,2.0,54.0,114.53992187499999,-28.935000000000002,0.604909,33.97
2021-07-08 18:43:39.406250000,-35.0,2.0,54.0,114.5403125,-32.77,0.604909,33.97
2021-07-08 18:43:39.414062500,-35.0,2.0,54.0,114.540703125,-37.11,0.604909,33.97
2021-07-08 18:43:39.421875000,-35.0,2.0,54.0,114.54109375,-41.45,0.604909,33.97
2021-07-08 18:43:39.429687500,-35.0,2.0,54.0,114.541484375,-45.760000000000005,0.604909,33.97
2021-07-08 18:43:39.437500000,-35.0,2.0,54.0,114.54187499999999,-50.07,0.604909,33.97
2021-07-08 18:43:39.445312500,-35.0,2.0,54.0,114.542265625,-53.45,0.604909,33.97
2021-07-08 18:43:39.453125000,-35.0,2.0,54.0,114.54265625,-56.83,0.604909,33.97
2021-07-08 18:43:39.460937500,-35.0,2.0,54.0,114.543046875,-58.269999999999996,0.604909,33.97
2021-07-08 18:43:39.468750000,-35.0,2.0,54.0,114.5434375,-59.71,0.604909,33.97
2021-07-08 18:43:39.476562500,-35.0,2.0,54.0,114.54382812499999,-58.42,0.604909,33.97
2021-07-08 18:43:39.484375000,-35.0,2.0,54.0,114.54421875,-57.13,0.604909,33.97
2021-07-08 18:43:39.492187500,-35.0,2.0,54.0,114.544609375,-52.905,0.604909,33.97
2021-07-08 18:43:39.500000000,-35.0,2.0,54.0,114.54499999999999,-48.68,0.604909,33.97
2021-07-08 18:43:39.507812500,-35.0,2.0,54.0,114.545390625,-42.015,0.604909,33.97
2021-07-08 18:43:39.515625000,-35.0,2.0,54.0,114.54578124999999,-35.35,0.604909,33.97
2021-07-08 18:43:39.523437500,-35.0,2.0,54.0,114.546171875,-27.29,0.604909,33.97
2021-07-08 18:43:39.531250000,-35.0,2.0,54.0,114.5465625,-19.23,0.604909,33.97
2021-07-08 18:43:39.539062500,-34.75,2.0,54.0,114.54695312499999,-10.99,0.604909,33.97
2021-07-08 18:43:39.546875000,-34.5,2.0,54.0,114.54734375,-2.75,0.604909,33.97
2021-07-08 18:43:39.554687500,-34.25,2.0,54.0,114.54773437499999,4.64,0.604909,33.97
2021-07-08 18:43:39.562500000,-34.0,2.0,54.0,114.548125,12.03,0.604909,33.97
2021-07-08 18:43:39.570312500,-34.25,2.0,54.0,114.548515625,17.98,0.604909,33.97
2021-07-08 18:43:39.578125000,-34.5,2.0,54.0,114.54890624999999,23.93,0.604909,33.97
2021-07-08 18:43:39.585937500,-34.75,2.0,54.0,114.549296875,28.27,0.604909,33.97
2021-07-08 18:43:39.593750000,-35.0,2.0,54.0,114.54968749999999,32.61,0.604909,33.97
2021-07-08 18:43:39.601562500,-35.0,2.0,54.0,114.550078125,35.42,0.604909,33.97
2021-07-08 18:43:39.609375000,-35.0,2.0,54.0,114.55046875,38.23,0.604909,33.97
2021-07-08 18:43:39.617187500,-35.0,2.0,54.0,114.55085937499999,39.68,0.604909,33.97
2021-07-08 18:43:39.625000000,-35.0,2.0,54.0,114.55125,41.13,0.604909,33.97
2021-07-08 18:43:39.632812500,-35.0,2.0,54.0,114.55164062499999,41.3,0.604909,33.97
2021-07-08 18:43:39.640625000,-35.0,2.0,54.0,114.55203125,41.47,0.604909,33.97
2021-07-08 18:43:39.648437500,-35.0,2.0,54.0,114.552421875,40.415,0.604909,33.97
2021-07-08 18:43:39.656250000,-35.0,2.0,54.0,114.55281249999999,39.36,0.604909,33.97
2021-07-08 18:43:39.664062500,-34.75,2.0,54.0,114.553203125,37.2,0.604909,33.97
2021-07-08 18:43:39.671875000,-34.5,2.0,54.0,114.55359374999999,35.04,0.604909,33.97
2021-07-08 18:43:39.679687500,-34.25,2.0,54.0,114.553984375,32.015,0.604909,33.97
2021-07-08 18:43:39.687500000,-34.0,2.0,54.0,114.554375,28.99,0.604909,33.97
2021-07-08 18:43:39.695312500,-34.25,2.0,54.0,114.55476562499999,25.49,0.604909,33.97
2021-07-08 18:43:39.703125000,-34.5,2.0,54.0,114.55515625,21.99,0.604909,33.97
2021-07-08 18:43:39.710937500,-34.75,2.0,54.0,114.55554687499999,18.445,0.604909,33.97
2021-07-08 18:43:39.718750000,-35.0,2.0,54.0,114.5559375,14.9,0.604909,33.97
2021-07-08 18:43:39.726562500,-34.75,2.0,54.0,114.556328125,11.65,0.604909,33.97
2021-07-08 18:43:39.734375000,-34.5,2.0,54.0,114.55671874999999,8.4,0.604909,33.97
2021-07-08 18:43:39.742187500,-34.25,2.0,54.0,114.557109375,5.605,0.604909,33.97
2021-07-08 18:43:39.750000000,-34.0,2.0,54.0,114.55749999999999,2.81,0.604909,33.97
2021-07-08 18:43:39.757812500,-34.25,2.0,54.0,114.557890625,0.4700000000000002,0.6048289375,33.97
2021-07-08 18:43:39.765625000,-34.5,2.0,54.0,114.55828125,-1.87,0.6047488750000001,33.97
2021-07-08 18:43:39.773437500,-34.75,2.0,54.0,114.55867187499999,-3.875,0.6046688125,33.97
2021-07-08 18:43:39.781250000,-35.0,2.0,54.0,114.5590625,-5.88,0.60458875,33.97
2021-07-08 18:43:39.789062500,-35.0,2.0,54.0,114.55945312499999,-7.654999999999999,0.6045086875,33.97
2021-07-08 18:43:39.796875000,-35.0,2.0,54.0,114.55984375,-9.43,0.604428625,33.97
2021-07-08 18:43:39.804687500,-35.0,2.0,54.0,114.560234375,-11.045,0.6043485625,33.97
2021-07-08 18:43:39.812500000,-35.0,2.0,54.0,114.56062499999999,-12.66,0.6042685,33.97
2021-07-08 18:43:39.820312500,-35.0,2.0,54.0,114.561015625,-14.129999999999999,0.6041884375000001,33.97
2021-07-08 18:43:39.828125000,-35.0,2.0,54.0,114.56140624999999,-15.6,0.604108375,33.97
2021-07-08 18:43:39.835937500,-35.0,2.0,54.0,114.561796875,-16.96,0.6040283125,33.97
2021-07-08 18:43:39.843750000,-35.0,2.0,54.0,114.5621875,-18.32,0.60394825,33.97
2021-07-08 18:43:39.851562500,-35.0,2.0,54.0,114.56257812499999,-19.675,0.6038681875,33.97
2021-07-08 18:43:39.859375000,-35.0,2.0,54.0,114.56296875,-21.03,0.603788125,33.97
2021-07-08 18:43:39.867187500,-35.0,2.0,54.0,114.56335937499999,-22.585,0.6037080625,33.97
2021-07-08 18:43:39.875000000,-35.0,2.0,54.0,114.56375,-24.14,0.603628,33.97
2021-07-08 18:43:39.882812500,-35.0,2.0,54.0,114.564140625,-26.175,0.6035479375,33.97
2021-07-08 18:43:39.890625000,-35.0,2.0,54.0,114.56453124999999,-28.21,0.603467875,33.97
2021-07-08 18:43:39.898437500,-35.0,2.0,54.0,114.564921875,-30.985,0.6033878125,33.97
2021-07-08 18:43:39.906250000,-35.0,2.0,54.0,114.56531249999999,-33.76,0.60330775,33.97
2021-07-08 18:43:39.914062500,-35.0,2.0,54.0,114.565703125,-37.349999999999994,0.6032276875,33.97
2021-07-08 18:43:39.921875000,-35.0,2.0,54.0,114.56609375,-40.94,0.603147625,33.97
2021-07-08 18:43:39.929687500,-35.0,2.0,54.0,114.56648437499999,-45.125,0.6030675624999999,33.97
2021-07-08 18:43:39.937500000,-35.0,2.0,54.0,114.566875,-49.31,0.6029875,33.97
2021-07-08 18:43:39.945312500,-35.0,2.0,54.0,114.56726562499999,-53.510000000000005,0.6029074375,33.97
2021-07-08 18:43:39.953125000,-35.0,2.0,54.0,114.56765625,-57.71,0.6028273749999999,33.97
2021-07-08 18:43:39.960937500,-35.0,2.0,54.0,114.568046875,-61.035,0.6027473125,33.97
2021-07-08 18:43:39.968750000,-35.0,2.0,54.0,114.56843749999999,-64.36,0.60266725,33.97
2021-07-08 18:43:39.976562500,-34.75,2.0,54.0,114.568828125,-65.85,0.6025871875,33.97
2021-07-08 18:43:39.984375000,-34.5,2.0,54.0,114.56921874999999,-67.34,0.6025071249999999,33.97
2021-07-08 18:43:39.992187500,-34.25,2.0,54.0,114.569609375,-66.25,0.6024270625,33.97
2021-07-08 18:43:40.000000000,-34.0,2.0,54.0,114.57,-65.16,0.602347,33.97
2021-07-08 18:43:40.007812500,-34.25,2.0,54.0,114.57046874999999,-61.23,0.6024270625,33.97
2021-07-08 18:43:40.015625000,-34.5,2.0,54.0,114.5709375,-57.3,0.6025071249999999,33.97
2021-07-08 18:43:40.023437500,-34.75,2.0,54.0,114.57140625,-50.875,0.6025871875,33.97
2021-07-08 18:43:40.031250000,-35.0,2.0,54.0,114.57187499999999,-44.45,0.60266725,33.97
2021-07-08 18:43:40.039062500,-35.0,2.0,54.0,114.57234374999999,-36.400000000000006,0.6027473125,33.97
2021-07-08 18:43:40.046875000,-35.0,2.0,54.0,114.5728125,-28.35,0.6028273749999999,33.97
2021-07-08 18:43:40.054687500,-35.0,2.0,54.0,114.57328125,-19.8,0.6029074375,33.97
2021-07-08 18:43:40.062500000,-35.0,2.0,54.0,114.57374999999999,-11.25,0.6029875,33.97
2021-07-08 18:43:40.070312500,-35.0,2.0,54.0,114.57421875,-3.2249999999999996,0.6030675624999999,33.97
2021-07-08 18:43:40.078125000,-35.0,2.0,54.0,114.5746875,4.8,0.603147625,33.97
2021-07-08 18:43:40.085937500,-35.0,2.0,54.0,114.57515624999999,11.605,0.6032276875,33.97
2021-07-08 18:43:40.093750000,-35.0,2.0,54.0,114.57562499999999,18.41,0.60330775,33.97
2021-07-08 18:43:40.101562500,-35.0,2.0,54.0,114.57609375,23.685000000000002,0.6033878125,33.97
2021-07-08 18:43:40.109375000,-35.0,2.0,54.0,114.5765625,28.96,0.603467875,33.97
2021-07-08 18:43:40.117187500,-35.0,2.0,54.0,114.57703124999999,32.705,0.6035479375,33.97
2021-07-08 18:43:40.125000000,-35.0,2.0,54.0,114.57749999999999,36.45,0.603628,33.97
2021-07-08 18:43:40.132812500,-35.0,2.0,54.0,114.57796875,38.785,0.6037080625,33.97
2021-07-08 18:43:40.140625000,-35.0,2.0,54.0,114.57843749999999,41.12,0.603788125,33.97
2021-07-08 18:43:40.148437500,-35.0,2.0,54.0,114.57890624999999,42.185,0.6038681875,33.97
2021-07-08 18:43:40.156250000,-35.0,2.0,54.0,114.579375,43.25,0.60394825,33.97
2021-07-08 18:43:40.164062500,-34.75,2.0,54.0,114.57984375,43.129999999999995,0.6040283125,33.97
2021-07-08 18:43:40.171875000,-34.5,2.0,54.0,114.58031249999999,43.01,0.604108375,33.97
2021-07-08 18:43:40.179687500,-34.25,2.0,54.0,114.58078124999999,41.795,0.6041884375000001,33.97
2021-07-08 18:43:40.187500000,-34.0,2.0,54.0,114.58125,40.58,0.6042685,33.97
2021-07-08 18:43:40.195312500,-34.25,2.0,54.0,114.58171875,38.42,0.6043485625,33.97
2021-07-08 18:43:40.203125000,-34.5,2.0,54.0,114.58218749999999,36.26,0.604428625,33.97
2021-07-08 18:43:40.210937500,-34.75,2.0,54.0,114.58265625,33.405,0.6045086875,33.97
2021-07-08 18:43:40.218750000,-35.0,2.0,54.0,114.583125,30.55,0.60458875,33.97
2021-07-08 18:43:40.226562500,-35.0,2.0,54.0,114.58359374999999,27.314999999999998,0.6046688125,33.97
2021-07-08 18:43:40.234375000,-35.0,2.0,54.0,114.58406249999999,24.08,0.6047488750000001,33.97
2021-07-08 18:43:40.242187500,-35.0,2.0,54.0,114.58453125,20.81,0.6048289375,33.97
2021-07-08 18:43:40.250000000,-35.0,2.0,54.0,114.585,17.54,0.604909,33.97
2021-07-08 18:43:40.257812500,-35.0,2.0,54.0,114.58546874999999,14.5,0.6046688125,33.97
2021-07-08 18:43:40.265625000,-35.0,2.0,54.0,114.5859375,11.46,0.604428625,33.97
2021-07-08 18:43:40.273437500,-35.0,2.0,54.0,114.58640625,8.815000000000001,0.6041884375000001,33.97
2021-07-08 18:43:40.281250000,-35.0,2.0,54.0,114.58687499999999,6.17,0.60394825,33.97
2021-07-08 18:43:40.289062500,-35.0,2.0,54.0,114.58734374999999,3.975,0.6037080625,33.97
2021-07-08 18:43:40.296875000,-35.0,2.0,54.0,114.5878125,1.78,0.603467875,33.97
2021-07-08 18:43:40.304687500,-35.0,2.0,54.0,114.58828125,0.030000000000000027,0.6032276875,33.97
2021-07-08 18:43:40.312500000,-35.0,2.0,54.0,114.58874999999999,-1.72,0.6029875,33.97
2021-07-08 18:43:40.320312500,-35.0,2.0,54.0,114.58921875,-3.075,0.6027473125,33.97
2021-07-08 18:43:40.328125000,-35.0,2.0,54.0,114.5896875,-4.43,0.602507125,33.97
2021-07-08 18:43:40.335937500,-35.0,2.0,54.0,114.59015624999999,-5.48,0.6022669375,33.97
2021-07-08 18:43:40.343750000,-35.0,2.0,54.0,114.59062499999999,-6.53,0.60202675,33.97
2021-07-08 18:43:40.351562500,-35.0,2.0,54.0,114.59109375,-7.425000000000001,0.6017865625,33.97
2021-07-08 18:43:40.359375000,-35.0,2.0,54.0,114.5915625,-8.32,0.601546375,33.97
2021-07-08 18:43:40.367187500,-35.0,2.0,54.0,114.59203124999999,-9.280000000000001,0.6013061875,33.97
2021-07-08 18:43:40.375000000,-35.0,2.0,54.0,114.5925,-10.24,0.601066,33.97
2021-07-08 18:43:40.382812500,-34.75,2.0,54.0,114.59296875,-11.61,0.6008258125,33.97
2021-07-08 18:43:40.390625000,-34.5,2.0,54.0,114.5934375,-12.98,0.600585625,33.97
2021-07-08 18:43:40.398437500,-34.25,2.0,54.0,114.59390624999999,-15.115,0.6003454375,33.97
2021-07-08 18:43:40.406250000,-34.0,2.0,54.0,114.594375,-17.25,0.6001052499999999,33.97
2021-07-08 18:43:40.414062500,-34.25,2.0,54.0,114.59484375,-20.425,0.5998650624999999,33.97
2021-07-08 18:43:40.421875000,-34.5,2.0,54.0,114.59531249999999,-23.6,0.599624875,33.97
2021-07-08 18:43:40.429687500,-34.75,2.0,54.0,114.59578124999999,-27.815,0.5993846875,33.97
2021-07-08 18:43:40.437500000,-35.0,2.0,54.0,114.59625,-32.03,0.5991445,33.97
2021-07-08 18:43:40.445312500,-35.0,2.0,54.0,114.59671875,-36.93,0.5989043125,33.97
2021-07-08 18:43:40.453125000,-35.0,2.0,54.0,114.59718749999999,-41.83,0.598664125,33.97
2021-07-08 18:43:40.460937500,-35.0,2.0,54.0,114.59765625,-46.67,0.5984239375,33.97
2021-07-08 18:43:40.468750000,-35.0,2.0,54.0,114.598125,-51.51,0.59818375,33.97
2021-07-08 18:43:40.476562500,-35.0,2.0,54.0,114.59859374999999,-55.315,0.5979435624999999,33.97
2021-07-08 18:43:40.484375000,-35.0,2.0,54.0,114.59906249999999,-59.12,0.5977033749999999,33.97
2021-07-08 18:43:40.492187500,-35.0,2.0,54.0,114.59953125,-60.94,0.5974631874999999,33.97
2021-07-08 18:43:40.500000000,-35.0,2.0,54.0,114.6,-62.76,0.597223,33.97
2021-07-08 18:43:40.507812500,-35.0,2.0,54.0,114.60046874999999,-61.925,0.5973030625,33.97
2021-07-08 18:43:40.515625000,-35.0,2.0,54.0,114.6009375,-61.09,0.5973831249999999,33.97
2021-07-08 18:43:40.523437500,-35.0,2.0,54.0,114.60140625,-57.42,0.5974631874999999,33.97
2021-07-08 18:43:40.531250000,-35.0,2.0,54.0,114.60187499999999,-53.75,0.59754325,33.97
2021-07-08 18:43:40.539062500,-35.0,2.0,54.0,114.60234374999999,-47.625,0.5976233125,33.97
2021-07-08 18:43:40.546875000,-35.0,2.0,54.0,114.6028125,-41.5,0.5977033749999999,33.97
2021-07-08 18:43:40.554687500,-35.0,2.0,54.0,114.60328125,-33.730000000000004,0.5977834375,33.97
2021-07-08 18:43:40.562500000,-35.0,2.0,54.0,114.60374999999999,-25.96,0.5978635,33.97
2021-07-08 18:43:40.570312500,-35.0,2.0,54.0,114.60421875,-17.54,0.5979435624999999,33.97
2021-07-08 18:43:40.578125000,-35.0,2.0,54.0,114.6046875,-9.12,0.598023625,33.97
2021-07-08 18:43:40.585937500,-35.0,2.0,54.0,114.60515625,-0.9649999999999999,0.5981036875,33.97
2021-07-08 18:43:40.593750000,-35.0,2.0,54.0,114.60562499999999,7.19,0.59818375,33.97
2021-07-08 18:43:40.601562500,-34.75,2.0,54.0,114.60609375,14.43,0.5982638124999999,33.97
2021-07-08 18:43:40.609375000,-34.5,2.0,54.0,114.6065625,21.67,0.598343875,33.97
2021-07-08 18:43:40.617187500,-34.25,2.0,54.0,114.60703124999999,27.655,0.5984239375,33.97
2021-07-08 18:43:40.625000000,-34.0,2.0,54.0,114.60749999999999,33.64,0.5985039999999999,33.97
2021-07-08 18:43:40.632812500,-34.0,2.0,54.0,114.60796875,38.28,0.5985840625,33.97
2021-07-08 18:43:40.640625000,-34.0,2.0,54.0,114.6084375,42.92,0.598664125,33.97
2021-07-08 18:43:40.648437500,-34.0,2.0,54.0,114.60890624999999,46.230000000000004,0.5987441875,33.97
2021-07-08 18:43:40.656250000,-34.0,2.0,54.0,114.609375,49.54,0.59882425,33.97
2021-07-08 18:43:40.664062500,-34.25,2.0,54.0,114.60984375,51.565,0.5989043125,33.97
2021-07-08 18:43:40.671875000,-34.5,2.0,54.0,114.61031249999999,53.59,0.598984375,33.97
2021-07-08 18:43:40.679687500,-34.75,2.0,54.0,114.61078124999999,54.365,0.5990644375,33.97
2021-07-08 18:43:40.687500000,-35.0,2.0,54.0,114.61125,55.14,0.5991445,33.97
2021-07-08 18:43:40.695312500,-35.0,2.0,54.0,114.61171875,54.725,0.5992245625,33.97
2021-07-08 18:43:40.703125000,-35.0,2.0,54.0,114.61218749999999,54.31,0.599304625,33.97
2021-07-08 18:43:40.710937500,-35.0,2.0,54.0,114.61265625,52.870000000000005,0.5993846875,33.97
2021-07-08 18:43:40.718750000,-35.0,2.0,54.0,114.613125,51.43,0.59946475,33.97
2021-07-08 18:43:40.726562500,-35.0,1.75,54.0,114.61359374999999,49.215,0.5995448125,33.97
2021-07-08 18:43:40.734375000,-35.0,1.5,54.0,114.61406249999999,47.0,0.5996248750000001,33.97
2021-07-08 18:43:40.742187500,-35.0,1.25,54.0,114.61453125,44.345,0.5997049375,33.97
2021-07-08 18:43:40.750000000,-35.0,1.0,54.0,114.615,41.69,0.599785,33.97
2021-07-08 18:43:40.757812500,-34.75,1.25,54.0,114.61546874999999,38.91,0.5997049375,33.97
2021-07-08 18:43:40.765625000,-34.5,1.5,54.0,114.6159375,36.13,0.5996248750000001,33.97
2021-07-08 18:43:40.773437500,-34.25,1.75,54.0,114.61640625,33.445,0.5995448125,33.97
2021-07-08 18:43:40.781250000,-34.0,2.0,54.0,114.616875,30.76,0.59946475,33.97
2021-07-08 18:43:40.789062500,-34.25,2.0,54.0,114.61734374999999,28.310000000000002,0.5993846875,33.97
2021-07-08 18:43:40.796875000,-34.5,2.0,54.0,114.6178125,25.86,0.599304625,33.97
2021-07-08 18:43:40.804687500,-34.75,2.0,54.0,114.61828125,23.685000000000002,0.5992245625,33.97
2021-07-08 18:43:40.812500000,-35.0,2.0,54.0,114.61874999999999,21.51,0.5991445,33.97
2021-07-08 18:43:40.820312500,-35.0,2.0,54.0,114.61921875,19.6,0.5990644375,33.97
2021-07-08 18:43:40.828125000,-35.0,2.0,54.0,114.6196875,17.69,0.598984375,33.97
2021-07-08 18:43:40.835937500,-35.0,2.0,54.0,114.62015625,16.035,0.5989043125,33.97
2021-07-08 18:43:40.843750000,-35.0,2.0,54.0,114.62062499999999,14.38,0.59882425,33.97
2021-07-08 18:43:40.851562500,-35.0,1.75,54.0,114.62109375,12.940000000000001,0.5987441875,33.97
2021-07-08 18:43:40.859375000,-35.0,1.5,54.0,114.6215625,11.5,0.598664125,33.97
2021-07-08 18:43:40.867187500,-35.0,1.25,54.0,114.62203124999999,10.21,0.5985840625,33.97
2021-07-08 18:43:40.875000000,-35.0,1.0,54.0,114.6225,8.92,0.5985039999999999,33.97
2021-07-08 18:43:40.882812500,-35.0,1.25,54.0,114.62296875,7.63,0.5984239375,33.97
2021-07-08 18:43:40.890625000,-35.0,1.5,54.0,114.6234375,6.34,0.598343875,33.97
2021-07-08 18:43:40.898437500,-35.0,1.75,54.0,114.62390624999999,4.81,0.5982638124999999,33.97
2021-07-08 18:43:40.906250000,-35.0,2.0,54.0,114.624375,3.28,0.59818375,33.97
2021-07-08 18:43:40.914062500,-35.0,1.75,54.0,114.62484375,1.225,0.5981036875,33.97
2021-07-08 18:43:40.921875000,-35.0,1.5,54.0,114.62531249999999,-0.83,0.598023625,33.97
2021-07-08 18:43:40.929687500,-35.0,1.25,54.0,114.62578124999999,-3.7,0.5979435624999999,33.97
2021-07-08 18:43:40.937500000,-35.0,1.0,54.0,114.62625,-6.57,0.5978635,33.97
2021-07-08 18:43:40.945312500,-35.0,1.25,54.0,114.62671875,-10.41,0.5977834375,33.97
2021-07-08 18:43:40.953125000,-35.0,1.5,54.0,114.62718749999999,-14.25,0.5977033749999999,33.97
2021-07-08 18:43:40.960937500,-35.0,1.75,54.0,114.62765625,-18.91,0.5976233125,33.97
2021-07-08 18:43:40.968750000,-35.0,2.0,54.0,114.628125,-23.57,0.59754325,33.97
2021-07-08 18:43:40.976562500,-35.0,2.0,54.0,114.62859375,-28.580000000000002,0.5974631874999999,33.97
2021-07-08 18:43:40.984375000,-35.0,2.0,54.0,114.62906249999999,-33.59,0.5973831249999999,33.97
2021-07-08 18:43:40.992187500,-35.0,2.0,54.0,114.62953125,-38.14,0.5973030625,33.97
2021-07-08 18:43:41.000000000,-35.0,2.0,54.0,114.63,-42.69,0.597223,33.97
2021-07-08 18:43:41.007812500,-35.0,2.0,54.0,114.630703125,-45.82,0.597223,33.97
2021-07-08 18:43:41.015625000,-35.0,2.0,54.0,114.63140625,-48.95,0.597223,33.97
2021-07-08 18:43:41.023437500,-35.0,2.0,54.0,114.632109375,-49.82,0.597223,33.97
2021-07-08 18:43:41.031250000,-35.0,2.0,54.0,114.6328125,-50.69,0.597223,33.97
2021-07-08 18:43:41.039062500,-35.0,2.0,54.0,114.633515625,-48.834999999999994,0.597223,33.97
2021-07-08 18:43:41.046875000,-35.0,2.0,54.0,114.63421875,-46.98,0.597223,33.97
2021-07-08 18:43:41.054687500,-35.0,2.0,54.0,114.63492187499999,-42.48,0.597223,33.97
2021-07-08 18:43:41.062500000,-35.0,2.0,54.0,114.63562499999999,-37.98,0.597223,33.97
2021-07-08 18:43:41.070312500,-35.0,2.0,54.0,114.63632812499999,-31.415,0.597223,33.97
2021-07-08 18:43:41.078125000,-35.0,2.0,54.0,114.63703124999999,-24.85,0.597223,33.97
2021-07-08 18:43:41.085937500,-35.0,2.0,54.0,114.637734375,-17.130000000000003,0.597223,33.97
2021-07-08 18:43:41.093750000,-35.0,2.0,54.0,114.6384375,-9.41,0.597223,33.97
2021-07-08 18:43:41.101562500,-35.0,2.0,54.0,114.639140625,-1.4800000000000004,0.597223,33.97
2021-07-08 18:43:41.109375000,-35.0,2.0,54.0,114.63984375,6.45,0.597223,33.97
2021-07-08 18:43:41.117187500,-35.0,2.0,54.0,114.640546875,13.835,0.597223,33.97
2021-07-08 18:43:41.125000000,-35.0,2.0,54.0,114.64125,21.22,0.597223,33.97
2021-07-08 18:43:41.132812500,-35.0,2.0,54.0,114.641953125,27.544999999999998,0.597223,33.97
2021-07-08 18:43:41.140625000,-35.0,2.0,54.0,114.64265625,33.87,0.597223,33.97
2021-07-08 18:43:41.148437500,-35.0,2.0,54.0,114.643359375,38.885,0.597223,33.97
2021-07-08 18:43:41.156250000,-35.0,2.0,54.0,114.64406249999999,43.9,0.597223,33.97
2021-07-08 18:43:41.164062500,-35.0,2.0,54.0,114.64476562499999,47.485,0.597223,33.97
2021-07-08 18:43:41.171875000,-35.0,2.0,54.0,114.64546874999999,51.07,0.597223,33.97
2021-07-08 18:43:41.179687500,-35.0,2.0,54.0,114.646171875,53.185,0.597223,33.97
2021-07-08 18:43:41.187500000,-35.0,2.0,54.0,114.646875,55.3,0.597223,33.97
2021-07-08 18:43:41.195312500,-35.0,2.0,54.0,114.647578125,55.97,0.597223,33.97
2021-07-08 18:43:41.203125000,-35.0,2.0,54.0,114.64828125,56.64,0.597223,33.97
2021-07-08 18:43:41.210937500,-35.0,2.0,54.0,114.648984375,55.985,0.597223,33.97
2021-07-08 18:43:41.218750000,-35.0,2.0,54.0,114.6496875,55.33,0.597223,33.97
2021-07-08 18:43:41.226562500,-35.0,2.0,54.0,114.650390625,53.575,0.597223,33.97
2021-07-08 18:43:41.234375000,-35.0,2.0,54.0,114.65109375,51.82,0.597223,33.97
2021-07-08 18:43:41.242187500,-35.0,2.0,54.0,114.651796875,49.28,0.597223,33.97
2021-07-08 18:43:41.250000000,-35.0,2.0,54.0,114.6525,46.74,0.597223,33.97
2021-07-08 18:43:41.257812500,-34.75,2.0,54.0,114.65320312499999,43.74,0.5971429374999999,33.97
2021-07-08 18:43:41.265625000,-34.5,2.0,54.0,114.65390624999999,40.74,0.597062875,33.97
2021-07-08 18:43:41.273437500,-34.25,2.0,54.0,114.65460937499999,37.55,0.5969828125,33.97
2021-07-08 18:43:41.281250000,-34.0,2.0,54.0,114.6553125,34.36,0.5969027499999999,33.97
2021-07-08 18:43:41.289062500,-34.25,2.0,54.0,114.656015625,31.185000000000002,0.5968226875,33.97
2021-07-08 18:43:41.296875000,-34.5,2.0,54.0,114.65671875,28.01,0.596742625,33.97
2021-07-08 18:43:41.304687500,-34.75,2.0,54.0,114.657421875,24.955,0.5966625624999999,33.97
2021-07-08 18:43:41.312500000,-35.0,2.0,54.0,114.658125,21.9,0.5965825,33.97
2021-07-08 18:43:41.320312500,-35.0,2.0,54.0,114.658828125,19.02,0.5965024375,33.97
2021-07-08 18:43:41.328125000,-35.0,2.0,54.0,114.65953125,16.14,0.596422375,33.97
2021-07-08 18:43:41.335937500,-35.0,2.0,54.0,114.660234375,13.47,0.5963423124999999,33.97
2021-07-08 18:43:41.343750000,-35.0,2.0,54.0,114.6609375,10.8,0.59626225,33.97
2021-07-08 18:43:41.351562500,-35.0,2.0,54.0,114.66164062499999,8.385,0.5961821875,33.97
2021-07-08 18:43:41.359375000,-35.0,2.0,54.0,114.66234374999999,5.97,0.5961021249999999,33.97
2021-07-08 18:43:41.367187500,-35.0,2.0,54.0,114.66304687499999,3.84,0.5960220625,33.97
2021-07-08 18:43:41.375000000,-35.0,2.0,54.0,114.66375,1.71,0.595942,33.97
2021-07-08 18:43:41.382812500,-35.0,2.0,54.0,114.664453125,-0.10999999999999988,0.5958619374999999,33.97
2021-07-08 18:43:41.390625000,-35.0,2.0,54.0,114.66515625,-1.93,0.595781875,33.97
2021-07-08 18:43:41.398437500,-35.0,2.0,54.0,114.665859375,-3.455,0.5957018125,33.97
2021-07-08 18:43:41.406250000,-35.0,2.0,54.0,114.6665625,-4.98,0.59562175,33.97
2021-07-08 18:43:41.414062500,-35.0,2.0,54.0,114.667265625,-6.33,0.5955416875,33.97
2021-07-08 18:43:41.421875000,-35.0,2.0,54.0,114.66796875,-7.68,0.595461625,33.97
2021-07-08 18:43:41.429687500,-35.0,2.0,54.0,114.668671875,-9.08,0.5953815625,33.97
2021-07-08 18:43:41.437500000,-35.0,2.0,54.0,114.669375,-10.48,0.5953014999999999,33.97
2021-07-08 18:43:41.445312500,-35.0,2.0,54.0,114.670078125,-12.254999999999999,0.5952214375,33.97
2021-07-08 18:43:41.453125000,-35.0,2.0,54.0,114.67078124999999,-14.03,0.595141375,33.97
2021-07-08 18:43:41.460937500,-35.0,2.0,54.0,114.67148437499999,-16.525,0.5950613124999999,33.97
2021-07-08 18:43:41.468750000,-35.0,2.0,54.0,114.67218749999999,-19.02,0.59498125,33.97
2021-07-08 18:43:41.476562500,-35.0,2.0,54.0,114.672890625,-22.415,0.5949011875,33.97
2021-07-08 18:43:41.484375000,-35.0,2.0,54.0,114.67359375,-25.81,0.594821125,33.97
2021-07-08 18:43:41.492187500,-35.0,2.0,54.0,114.674296875,-29.975,0.5947410625,33.97
2021-07-08 18:43:41.500000000,-35.0,2.0,54.0,114.675,-34.14,0.594661,33.97
2021-07-08 18:43:41.507812500,-35.0,2.0,54.0,114.675703125,-38.54,0.59470103125,33.97
2021-07-08 18:43:41.515625000,-35.0,2.0,54.0,114.67640625,-42.94,0.5947410625,33.97
2021-07-08 18:43:41.523437500,-35.0,2.0,54.0,114.677109375,-46.665,0.59478109375,33.97
2021-07-08 18:43:41.531250000,-35.0,2.0,54.0,114.6778125,-50.39,0.594821125,33.97
2021-07-08 18:43:41.539062500,-35.0,2.0,54.0,114.678515625,-52.42,0.59486115625,33.97
2021-07-08 18:43:41.546875000,-35.0,2.0,54.0,114.67921875,-54.45,0.5949011875,33.97
2021-07-08 18:43:41.554687500,-35.0,2.0,54.0,114.67992187499999,-53.94,0.59494121875,33.97
2021-07-08 18:43:41.562500000,-35.0,2.0,54.0,114.68062499999999,-53.43,0.59498125,33.97
2021-07-08 18:43:41.570312500,-35.0,2.0,54.0,114.681328125,-50.035,0.59502128125,33.97
2021-07-08 18:43:41.578125000,-35.0,2.0,54.0,114.68203125,-46.64,0.5950613124999999,33.97
2021-07-08 18:43:41.585937500,-35.0,2.0,54.0,114.682734375,-40.675,0.59510134375,33.97
2021-07-08 18:43:41.593750000,-35.0,2.0,54.0,114.6834375,-34.71,0.595141375,33.97
2021-07-08 18:43:41.601562500,-35.0,2.0,54.0,114.684140625,-27.015,0.5951814062499999,33.97
2021-07-08 18:43:41.609375000,-35.0,2.0,54.0,114.68484375,-19.32,0.5952214375,33.97
2021-07-08 18:43:41.617187500,-35.0,2.0,54.0,114.685546875,-11.025,0.59526146875,33.97
2021-07-08 18:43:41.625000000,-35.0,2.0,54.0,114.68625,-2.73,0.5953014999999999,33.97
2021-07-08 18:43:41.632812500,-35.0,2.0,54.0,114.686953125,5.105,0.59534153125,33.97
2021-07-08 18:43:41.640625000,-35.0,2.0,54.0,114.68765625,12.94,0.5953815625,33.97
2021-07-08 18:43:41.648437500,-35.0,2.0,54.0,114.688359375,19.544999999999998,0.59542159375,33.97
2021-07-08 18:43:41.656250000,-35.0,2.0,54.0,114.68906249999999,26.15,0.595461625,33.97
2021-07-08 18:43:41.664062500,-35.0,2.0,54.0,114.68976562499999,31.165,0.59550165625,33.97
2021-07-08 18:43:41.671875000,-35.0,2.0,54.0,114.69046875,36.18,0.5955416875,33.97
2021-07-08 18:43:41.679687500,-35.0,2.0,54.0,114.691171875,39.555,0.59558171875,33.97
2021-07-08 18:43:41.687500000,-35.0,2.0,54.0,114.691875,42.93,0.59562175,33.97
2021-07-08 18:43:41.695312500,-35.0,2.0,54.0,114.692578125,44.78,0.59566178125,33.97
2021-07-08 18:43:41.703125000,-35.0,2.0,54.0,114.69328125,46.63,0.5957018125,33.97
2021-07-08 18:43:41.710937500,-35.0,2.0,54.0,114.693984375,47.095,0.5957418437499999,33.97
2021-07-08 18:43:41.718750000,-35.0,2.0,54.0,114.6946875,47.56,0.595781875,33.97
2021-07-08 18:43:41.726562500,-35.0,2.0,54.0,114.695390625,46.760000000000005,0.59582190625,33.97
2021-07-08 18:43:41.734375000,-35.0,2.0,54.0,114.69609375,45.96,0.5958619374999999,33.97
2021-07-08 18:43:41.742187500,-35.0,2.0,54.0,114.696796875,44.025000000000006,0.59590196875,33.97
2021-07-08 18:43:41.750000000,-35.0,2.0,54.0,114.69749999999999,42.09,0.595942,33.97
2021-07-08 18:43:41.757812500,-34.75,2.0,54.0,114.69820312499999,39.22,0.59590196875,33.97
2021-07-08 18:43:41.765625000,-34.5,2.0,54.0,114.69890625,36.35,0.5958619374999999,33.97
2021-07-08 18:43:41.773437500,-34.25,2.0,54.0,114.699609375,32.825,0.59582190625,33.97
2021-07-08 18:43:41.781250000,-34.0,2.0,54.0,114.7003125,29.3,0.595781875,33.97
2021-07-08 18:43:41.789062500,-34.25,2.0,54.0,114.701015625,25.48,0.5957418437499999,33.97
2021-07-08 18:43:41.796875000,-34.5,2.0,54.0,114.70171875,21.66,0.5957018125,33.97
2021-07-08 18:43:41.804687500,-34.75,2.0,54.0,114.702421875,17.915,0.59566178125,33.97
2021-07-08 18:43:41.812500000,-35.0,2.0,54.0,114.703125,14.17,0.59562175,33.97
2021-07-08 18:43:41.820312500,-35.0,2.0,54.0,114.703828125,10.815,0.59558171875,33.97
2021-07-08 18:43:41.828125000,-35.0,2.0,54.0,114.70453125,7.46,0.5955416875,33.97
2021-07-08 18:43:41.835937500,-35.0,2.0,54.0,114.705234375,4.6899999999999995,0.59550165625,33.97
2021-07-08 18:43:41.843750000,-35.0,2.0,54.0,114.7059375,1.92,0.595461625,33.97
2021-07-08 18:43:41.851562500,-35.0,2.0,54.0,114.70664062499999,-0.22999999999999998,0.59542159375,33.97
2021-07-08 18:43:41.859375000,-35.0,2.0,54.0,114.70734374999999,-2.38,0.5953815625,33.97
2021-07-08 18:43:41.867187500,-35.0,2.0,54.0,114.708046875,-4.04,0.59534153125,33.97
2021-07-08 18:43:41.875000000,-35.0,2.0,54.0,114.70875,-5.7,0.5953014999999999,33.97
2021-07-08 18:43:41.882812500,-35.0,2.0,54.0,114.709453125,-7.145,0.59526146875,33.97
2021-07-08 18:43:41.890625000,-35.0,2.0,54.0,114.71015625,-8.59,0.5952214375,33.97
2021-07-08 18:43:41.898437500,-35.0,2.0,54.0,114.710859375,-10.155000000000001,0.5951814062499999,33.97
2021-07-08 18:43:41.906250000,-35.0,2.0,54.0,114.7115625,-11.72,0.595141375,33.97
2021-07-08 18:43:41.914062500,-35.0,2.0,54.0,114.712265625,-13.690000000000001,0.59510134375,33.97
2021-07-08 18:43:41.921875000,-35.0,2.0,54.0,114.71296875,-15.66,0.5950613124999999,33.97
2021-07-08 18:43:41.929687500,-35.0,2.0,54.0,114.713671875,-18.215,0.59502128125,33.97
2021-07-08 18:43:41.937500000,-35.0,2.0,54.0,114.714375,-20.77,0.59498125,33.97
2021-07-08 18:43:41.945312500,-35.0,2.0,54.0,114.715078125,-23.97,0.59494121875,33.97
2021-07-08 18:43:41.953125000,-35.0,2.0,54.0,114.71578124999999,-27.17,0.5949011875,33.97
2021-07-08 18:43:41.960937500,-35.0,2.0,54.0,114.716484375,-30.990000000000002,0.59486115625,33.97
2021-07-08 18:43:41.968750000,-35.0,2.0,54.0,114.7171875,-34.81,0.594821125,33.97
2021-07-08 18:43:41.976562500,-35.0,2.0,54.0,114.717890625,-39.185,0.59478109375,33.97
2021-07-08 18:43:41.984375000,-35.0,2.0,54.0,114.71859375,-43.56,0.5947410625,33.97
2021-07-08 18:43:41.992187500,-35.0,2.0,54.0,114.719296875,-48.32,0.59470103125,33.97
2021-07-08 18:43:42.000000000,-35.0,2.0,54.0,114.72,-53.08,0.594661,33.97
2021-07-08 18:43:42.007812500,-35.0,2.0,54.0,114.72046875,-57.855000000000004,0.59454090625,33.97
2021-07-08 18:43:42.015625000,-35.0,2.0,54.0,114.7209375,-62.63,0.5944208125,33.97
2021-07-08 18:43:42.023437500,-35.0,2.0,54.0,114.72140625,-66.78,0.59430071875,33.97
2021-07-08 18:43:42.031250000,-35.0,2.0,54.0,114.721875,-70.93,0.594180625,33.97
2021-07-08 18:43:42.039062500,-35.0,2.0,54.0,114.72234375,-73.58500000000001,0.59406053125,33.97
2021-07-08 18:43:42.046875000,-35.0,2.0,54.0,114.7228125,-76.24,0.5939404375,33.97
2021-07-08 18:43:42.054687500,-35.0,2.0,54.0,114.72328125,-76.5,0.59382034375,33.97
2021-07-08 18:43:42.062500000,-35.0,2.0,54.0,114.72375,-76.76,0.5937002499999999,33.97
2021-07-08 18:43:42.070312500,-35.0,2.0,54.0,114.72421875,-74.03999999999999,0.5935801562499999,33.97
2021-07-08 18:43:42.078125000,-35.0,2.0,54.0,114.7246875,-71.32,0.5934600624999999,33.97
2021-07-08 18:43:42.085937500,-35.0,2.0,54.0,114.72515625,-65.63,0.59333996875,33.97
2021-07-08 18:43:42.093750000,-35.0,2.0,54.0,114.725625,-59.94,0.593219875,33.97
2021-07-08 18:43:42.101562500,-35.0,2.0,54.0,114.72609375,-51.974999999999994,0.59309978125,33.97
2021-07-08 18:43:42.109375000,-35.0,2.0,54.0,114.7265625,-44.01,0.5929796875,33.97
2021-07-08 18:43:42.117187500,-35.0,2.0,54.0,114.72703125,-34.93,0.59285959375,33.97
2021-07-08 18:43:42.125000000,-35.0,2.0,54.0,114.72749999999999,-25.85,0.5927395,33.97
2021-07-08 18:43:42.132812500,-35.0,2.0,54.0,114.72796875,-16.935000000000002,0.59261940625,33.97
2021-07-08 18:43:42.140625000,-35.0,2.0,54.0,114.7284375,-8.02,0.5924993125,33.97
2021-07-08 18:43:42.148437500,-35.0,2.0,54.0,114.72890625,-0.2549999999999999,0.59237921875,33.97
2021-07-08 18:43:42.156250000,-35.0,2.0,54.0,114.729375,7.51,0.592259125,33.97
2021-07-08 18:43:42.164062500,-35.0,2.0,54.0,114.72984375,13.629999999999999,0.59213903125,33.97
2021-07-08 18:43:42.171875000,-35.0,2.0,54.0,114.7303125,19.75,0.5920189375,33.97
2021-07-08 18:43:42.179687500,-35.0,2.0,54.0,114.73078124999999,24.185000000000002,0.59189884375,33.97
2021-07-08 18:43:42.187500000,-35.0,2.0,54.0,114.73125,28.62,0.59177875,33.97
2021-07-08 18:43:42.195312500,-35.0,2.0,54.0,114.73171875,31.564999999999998,0.5916586562499999,33.97
2021-07-08 18:43:42.203125000,-35.0,2.0,54.0,114.7321875,34.51,0.5915385624999999,33.97
2021-07-08 18:43:42.210937500,-35.0,2.0,54.0,114.73265625,36.185,0.5914184687499999,33.97
2021-07-08 18:43:42.218750000,-35.0,2.0,54.0,114.733125,37.86,0.5912983749999999,33.97
2021-07-08 18:43:42.226562500,-35.0,2.0,54.0,114.73359375,38.379999999999995,0.5911782812499999,33.97
2021-07-08 18:43:42.234375000,-35.0,2.0,54.0,114.7340625,38.9,0.5910581874999999,33.97
2021-07-08 18:43:42.242187500,-35.0,2.0,54.0,114.73453125,38.32,0.59093809375,33.97
2021-07-08 18:43:42.250000000,-35.0,2.0,54.0,114.735,37.74,0.590818,33.97
2021-07-08 18:43:42.257812500,-35.0,2.0,54.0,114.73546875,36.144999999999996,0.5909781249999999,33.97
2021-07-08 18:43:42.265625000,-35.0,2.0,54.0,114.7359375,34.55,0.59113825,33.97
2021-07-08 18:43:42.273437500,-35.0,2.0,54.0,114.73640625,32.11,0.5912983749999999,33.97
2021-07-08 18:43:42.281250000,-35.0,2.0,54.0,114.736875,29.67,0.5914585,33.97
2021-07-08 18:43:42.289062500,-35.0,2.0,54.0,114.73734375,26.69,0.591618625,33.97
2021-07-08 18:43:42.296875000,-35.0,2.0,54.0,114.7378125,23.71,0.5917787499999999,33.97
2021-07-08 18:43:42.304687500,-35.0,2.0,54.0,114.73828125,20.52,0.591938875,33.97
2021-07-08 18:43:42.312500000,-35.0,2.0,54.0,114.73875,17.33,0.5920989999999999,33.97
2021-07-08 18:43:42.320312500,-34.75,2.0,54.0,114.73921875,14.23,0.592259125,33.97
2021-07-08 18:43:42.328125000,-34.5,2.0,54.0,114.7396875,11.13,0.59241925,33.97
2021-07-08 18:43:42.335937500,-34.25,2.0,54.0,114.74015625,8.335,0.5925793749999999,33.97
2021-07-08 18:43:42.343750000,-34.0,2.0,54.0,114.740625,5.54,0.5927395,33.97
2021-07-08 18:43:42.351562500,-34.25,2.0,54.0,114.74109375,3.16,0.5928996249999999,33.97
2021-07-08 18:43:42.359375000,-34.5,2.0,54.0,114.7415625,0.78,0.59305975,33.97
2021-07-08 18:43:42.367187500,-34.75,2.0,54.0,114.74203125,-1.1500000000000001,0.593219875,33.97
2021-07-08 18:43:42.375000000,-35.0,2.0,54.0,114.7425,-3.08,0.59338,33.97
2021-07-08 18:43:42.382812500,-35.0,2.0,54.0,114.74296875,-4.59,0.593540125,33.97
2021-07-08 18:43:42.390625000,-35.0,2.0,54.0,114.7434375,-6.1,0.5937002499999999,33.97
2021-07-08 18:43:42.398437500,-35.0,2.0,54.0,114.74390625,-7.28,0.593860375,33.97
2021-07-08 18:43:42.406250000,-35.0,2.0,54.0,114.744375,-8.46,0.5940205,33.97
2021-07-08 18:43:42.414062500,-35.0,2.0,54.0,114.74484375,-9.47,0.594180625,33.97
2021-07-08 18:43:42.421875000,-35.0,2.0,54.0,114.7453125,-10.48,0.59434075,33.97
2021-07-08 18:43:42.429687500,-35.0,2.0,54.0,114.74578125,-11.55,0.5945008749999999,33.97
2021-07-08 18:43:42.437500000,-35.0,2.0,54.0,114.74625,-12.62,0.594661,33.97
2021-07-08 18:43:42.445312500,-34.75,2.0,54.0,114.74671875,-14.04,0.594821125,33.97
2021-07-08 18:43:42.453125000,-34.5,2.0,54.0,114.7471875,-15.46,0.59498125,33.97
2021-07-08 18:43:42.460937500,-34.25,2.0,54.0,114.74765625,-17.505000000000003,0.595141375,33.97
2021-07-08 18:43:42.468750000,-34.0,2.0,54.0,114.748125,-19.55,0.5953014999999999,33.97
2021-07-08 18:43:42.476562500,-34.25,2.0,54.0,114.74859375,-22.41,0.595461625,33.97
2021-07-08 18:43:42.484375000,-34.5,2.0,54.0,114.7490625,-25.27,0.59562175,33.97
2021-07-08 18:43:42.492187500,-34.75,2.0,54.0,114.74953125,-28.93,0.595781875,33.97
2021-07-08 18:43:42.500000000,-35.0,2.0,54.0,114.75,-32.59,0.595942,33.97
2021-07-08 18:43:42.507812500,-35.0,2.0,54.0,114.75046875,-36.730000000000004,0.5957018125,33.97
2021-07-08 18:43:42.515625000,-35.0,2.0,54.0,114.7509375,-40.87,0.595461625,33.97
2021-07-08 18:43:42.523437500,-35.0,2.0,54.0,114.75140625,-44.87,0.5952214375,33.97
2021-07-08 18:43:42.531250000,-35.0,2.0,54.0,114.751875,-48.87,0.59498125,33.97
2021-07-08 18:43:42.539062500,-35.0,2.0,54.0,114.75234375,-51.879999999999995,0.5947410625,33.97
2021-07-08 18:43:42.546875000,-35.0,2.0,54.0,114.7528125,-54.89,0.5945008749999999,33.97
2021-07-08 18:43:42.554687500,-35.0,2.0,54.0,114.75328125,-56.055,0.5942606874999999,33.97
2021-07-08 18:43:42.562500000,-35.0,2.0,54.0,114.75375,-57.22,0.5940205,33.97
2021-07-08 18:43:42.570312500,-35.0,2.0,54.0,114.75421875,-55.905,0.5937803125,33.97
2021-07-08 18:43:42.578125000,-35.0,2.0,54.0,114.7546875,-54.59,0.593540125,33.97
2021-07-08 18:43:42.585937500,-35.0,2.0,54.0,114.75515625,-50.645,0.5932999375,33.97
2021-07-08 18:43:42.593750000,-35.0,2.0,54.0,114.755625,-46.7,0.59305975,33.97
2021-07-08 18:43:42.601562500,-35.0,2.0,54.0,114.75609375,-40.475,0.5928195625,33.97
2021-07-08 18:43:42.609375000,-35.0,2.0,54.0,114.7565625,-34.25,0.592579375,33.97
2021-07-08 18:43:42.617187500,-35.0,2.0,54.0,114.75703125,-26.535,0.5923391875,33.97
2021-07-08 18:43:42.625000000,-35.0,2.0,54.0,114.7575,-18.82,0.5920989999999999,33.97
2021-07-08 18:43:42.632812500,-35.0,2.0,54.0,114.75796875,-10.575,0.5918588124999999,33.97
2021-07-08 18:43:42.640625000,-35.0,2.0,54.0,114.7584375,-2.33,0.591618625,33.97
2021-07-08 18:43:42.648437500,-35.0,2.0,54.0,114.75890625,5.56,0.5913784375,33.97
2021-07-08 18:43:42.656250000,-35.0,2.0,54.0,114.759375,13.45,0.59113825,33.97
2021-07-08 18:43:42.664062500,-35.0,2.0,54.0,114.75984375,20.345,0.5908980625,33.97
2021-07-08 18:43:42.671875000,-35.0,2.0,54.0,114.7603125,27.24,0.590657875,33.97
2021-07-08 18:43:42.679687500,-35.0,2.0,54.0,114.76078125,32.82,0.5904176875,33.97
2021-07-08 18:43:42.687500000,-35.0,2.0,54.0,114.76125,38.4,0.5901775,33.97
2021-07-08 18:43:42.695312500,-35.0,2.0,54.0,114.76171875,42.56,0.5899373125,33.97
2021-07-08 18:43:42.703125000,-35.0,2.0,54.0,114.7621875,46.72,0.589697125,33.97
2021-07-08 18:43:42.710937500,-35.0,2.0,54.0,114.76265625,49.465,0.5894569374999999,33.97
2021-07-08 18:43:42.718750000,-35.0,2.0,54.0,114.763125,52.21,0.58921675,33.97
2021-07-08 18:43:42.726562500,-35.0,2.0,54.0,114.76359375,53.6,0.5889765625,33.97
2021-07-08 18:43:42.734375000,-35.0,2.0,54.0,114.7640625,54.99,0.588736375,33.97
2021-07-08 18:43:42.742187500,-35.0,2.0,54.0,114.76453125,55.13,0.5884961875,33.97
2021-07-08 18:43:42.750000000,-35.0,2.0,54.0,114.765,55.27,0.588256,33.97
2021-07-08 18:43:42.757812500,-35.0,2.0,54.0,114.76546875,54.295,0.58837609375,33.97
2021-07-08 18:43:42.765625000,-35.0,2.0,54.0,114.7659375,53.32,0.5884961875,33.97
2021-07-08 18:43:42.773437500,-35.0,2.0,54.0,114.76640625,51.47,0.58861628125,33.97
2021-07-08 18:43:42.781250000,-35.0,2.0,54.0,114.766875,49.62,0.588736375,33.97
2021-07-08 18:43:42.789062500,-35.0,2.0,54.0,114.76734375,47.16,0.58885646875,33.97
2021-07-08 18:43:42.796875000,-35.0,2.0,54.0,114.7678125,44.7,0.5889765625,33.97
2021-07-08 18:43:42.804687500,-35.0,2.0,54.0,114.76828125,41.88,0.58909665625,33.97
2021-07-08 18:43:42.812500000,-35.0,2.0,54.0,114.76875,39.06,0.5892167500000001,33.97
2021-07-08 18:43:42.820312500,-35.0,2.0,54.0,114.76921875000001,36.08,0.5893368437500001,33.97
2021-07-08 18:43:42.828125000,-35.0,2.0,54.0,114.7696875,33.1,0.5894569375,33.97
2021-07-08 18:43:42.835937500,-35.0,2.0,54.0,114.77015625,30.11,0.58957703125,33.97
2021-07-08 18:43:42.843750000,-35.0,2.0,54.0,114.770625,27.12,0.589697125,33.97
2021-07-08 18:43:42.851562500,-35.0,2.0,54.0,114.77109375,24.25,0.58981721875,33.97
2021-07-08 18:43:42.859375000,-35.0,2.0,54.0,114.7715625,21.38,0.5899373125,33.97
2021-07-08 18:43:42.867187500,-35.0,2.0,54.0,114.77203125,18.75,0.59005740625,33.97
2021-07-08 18:43:42.875000000,-35.0,2.0,54.0,114.77250000000001,16.12,0.5901775,33.97
2021-07-08 18:43:42.882812500,-35.0,2.0,54.0,114.77296875,13.870000000000001,0.59029759375,33.97
2021-07-08 18:43:42.890625000,-35.0,2.0,54.0,114.7734375,11.62,0.5904176875,33.97
2021-07-08 18:43:42.898437500,-35.0,2.0,54.0,114.77390625,9.79,0.59053778125,33.97
2021-07-08 18:43:42.906250000,-35.0,2.0,54.0,114.774375,7.96,0.590657875,33.97
2021-07-08 18:43:42.914062500,-35.0,1.75,54.0,114.77484375,6.470000000000001,0.59077796875,33.97
2021-07-08 18:43:42.921875000,-35.0,1.5,54.0,114.7753125,4.98,0.5908980625,33.97
2021-07-08 18:43:42.929687500,-35.0,1.25,54.0,114.77578125,3.64,0.59101815625,33.97
2021-07-08 18:43:42.937500000,-35.0,1.0,54.0,114.77625,2.3,0.59113825,33.97
2021-07-08 18:43:42.945312500,-35.0,1.25,54.0,114.77671875,0.8399999999999999,0.5912583437500001,33.97
2021-07-08 18:43:42.953125000,-35.0,1.5,54.0,114.7771875,-0.62,0.5913784375000001,33.97
2021-07-08 18:43:42.960937500,-35.0,1.75,54.0,114.77765625,-2.455,0.5914985312500001,33.97
2021-07-08 18:43:42.968750000,-35.0,2.0,54.0,114.778125,-4.29,0.5916186250000001,33.97
2021-07-08 18:43:42.976562500,-35.0,2.0,54.0,114.77859375,-6.695,0.5917387187500001,33.97
2021-07-08 18:43:42.984375000,-35.0,2.0,54.0,114.7790625,-9.1,0.5918588125,33.97
2021-07-08 18:43:42.992187500,-35.0,2.0,54.0,114.77953125,-12.175,0.59197890625,33.97
2021-07-08 18:43:43.000000000,-35.0,2.0,54.0,114.78,-15.25,0.592099,33.97
2021-07-08 18:43:43.007812500,-35.0,2.0,54.0,114.780546875,-18.95,0.59197890625,33.97
2021-07-08 18:43:43.015625000,-35.0,2.0,54.0,114.78109375,-22.65,0.5918588125,33.97
2021-07-08 18:43:43.023437500,-35.0,2.0,54.0,114.781640625,-26.71,0.5917387187500001,33.97
2021-07-08 18:43:43.031250000,-35.0,2.0,54.0,114.7821875,-30.77,0.5916186250000001,33.97
2021-07-08 18:43:43.039062500,-35.0,2.0,54.0,114.782734375,-34.655,0.5914985312500001,33.97
2021-07-08 18:43:43.046875000,-35.0,2.0,54.0,114.78328125,-38.54,0.5913784375000001,33.97
2021-07-08 18:43:43.054687500,-35.0,2.0,54.0,114.783828125,-41.46,0.5912583437500001,33.97
2021-07-08 18:43:43.062500000,-35.0,2.0,54.0,114.784375,-44.38,0.59113825,33.97
2021-07-08 18:43:43.070312500,-35.0,2.0,54.0,114.784921875,-45.455,0.59101815625,33.97
2021-07-08 18:43:43.078125000,-35.0,2.0,54.0,114.78546875,-46.53,0.5908980625,33.97
2021-07-08 18:43:43.085937500,-35.0,2.0,54.0,114.786015625,-45.055,0.59077796875,33.97
2021-07-08 18:43:43.093750000,-35.0,2.0,54.0,114.7865625,-43.58,0.590657875,33.97
2021-07-08 18:43:43.101562500,-35.0,2.0,54.0,114.787109375,-39.335,0.59053778125,33.97
2021-07-08 18:43:43.109375000,-35.0,2.0,54.0,114.78765625,-35.09,0.5904176875,33.97
2021-07-08 18:43:43.117187500,-35.0,2.0,54.0,114.788203125,-28.445,0.59029759375,33.97
2021-07-08 18:43:43.125000000,-35.0,2.0,54.0,114.78875,-21.8,0.5901775,33.97
2021-07-08 18:43:43.132812500,-35.0,2.0,54.0,114.789296875,-13.665000000000001,0.59005740625,33.97
2021-07-08 18:43:43.140625000,-35.0,2.0,54.0,114.78984375,-5.53,0.5899373125,33.97
2021-07-08 18:43:43.148437500,-35.0,2.0,54.0,114.790390625,2.9850000000000003,0.58981721875,33.97
2021-07-08 18:43:43.156250000,-35.0,2.0,54.0,114.7909375,11.5,0.589697125,33.97
2021-07-08 18:43:43.164062500,-35.0,2.0,54.0,114.791484375,19.395,0.58957703125,33.97
2021-07-08 18:43:43.171875000,-35.0,2.0,54.0,114.79203125,27.29,0.5894569375,33.97
2021-07-08 18:43:43.179687500,-35.0,2.0,54.0,114.792578125,33.92,0.5893368437500001,33.97
2021-07-08 18:43:43.187500000,-35.0,2.0,54.0,114.793125,40.55,0.5892167500000001,33.97
2021-07-08 18:43:43.195312500,-35.0,2.0,54.0,114.793671875,45.665,0.58909665625,33.97
2021-07-08 18:43:43.203125000,-35.0,2.0,54.0,114.79421875,50.78,0.5889765625,33.97
2021-07-08 18:43:43.210937500,-35.0,2.0,54.0,114.794765625,54.400000000000006,0.58885646875,33.97
2021-07-08 18:43:43.218750000,-35.0,2.0,54.0,114.7953125,58.02,0.588736375,33.97
2021-07-08 18:43:43.226562500,-35.0,2.0,54.0,114.795859375,60.24,0.58861628125,33.97
2021-07-08 18:43:43.234375000,-35.0,2.0,54.0,114.79640625,62.46,0.5884961875,33.97
2021-07-08 18:43:43.242187500,-35.0,2.0,54.0,114.796953125,63.349999999999994,0.58837609375,33.97
2021-07-08 18:43:43.250000000,-35.0,2.0,54.0,114.7975,64.24,0.588256,33.97
2021-07-08 18:43:43.257812500,-35.0,2.0,54.0,114.798046875,63.80499999999999,0.58821596875,33.97
2021-07-08 18:43:43.265625000,-35.0,2.0,54.0,114.79859375,63.37,0.5881759375,33.97
2021-07-08 18:43:43.273437500,-35.0,2.0,54.0,114.79914062499999,61.655,0.58813590625,33.97
2021-07-08 18:43:43.281250000,-35.0,2.0,54.0,114.7996875,59.94,0.588095875,33.97
2021-07-08 18:43:43.289062500,-35.0,2.0,54.0,114.800234375,57.15,0.58805584375,33.97
2021-07-08 18:43:43.296875000,-35.0,2.0,54.0,114.80078125,54.36,0.5880158125,33.97
2021-07-08 18:43:43.304687500,-35.0,2.0,54.0,114.801328125,50.875,0.58797578125,33.97
2021-07-08 18:43:43.312500000,-35.0,2.0,54.0,114.801875,47.39,0.58793575,33.97
2021-07-08 18:43:43.320312500,-35.0,2.0,54.0,114.802421875,43.735,0.58789571875,33.97
2021-07-08 18:43:43.328125000,-35.0,2.0,54.0,114.80296875,40.08,0.5878556875000001,33.97
2021-07-08 18:43:43.335937500,-35.0,2.0,54.0,114.803515625,36.705,0.58781565625,33.97
2021-07-08 18:43:43.343750000,-35.0,2.0,54.0,114.8040625,33.33,0.587775625,33.97
2021-07-08 18:43:43.351562500,-34.75,2.0,54.0,114.804609375,30.545,0.5877355937500001,33.97
2021-07-08 18:43:43.359375000,-34.5,2.0,54.0,114.80515625,27.76,0.5876955625,33.97
2021-07-08 18:43:43.367187500,-34.25,2.0,54.0,114.805703125,25.585,0.58765553125,33.97
2021-07-08 18:43:43.375000000,-34.0,2.0,54.0,114.80625,23.41,0.5876155000000001,33.97
2021-07-08 18:43:43.382812500,-34.25,2.0,54.0,114.806796875,21.68,0.58757546875,33.97
2021-07-08 18:43:43.390625000,-34.5,2.0,54.0,114.80734375,19.95,0.5875354375,33.97
2021-07-08 18:43:43.398437500,-34.75,2.0,54.0,114.807890625,18.439999999999998,0.58749540625,33.97
2021-07-08 18:43:43.406250000,-35.0,2.0,54.0,114.8084375,16.93,0.587455375,33.97
2021-07-08 18:43:43.414062500,-35.0,2.0,54.0,114.808984375,15.465,0.58741534375,33.97
2021-07-08 18:43:43.421875000,-35.0,2.0,54.0,114.80953124999999,14.0,0.5873753125,33.97
2021-07-08 18:43:43.429687500,-35.0,2.0,54.0,114.810078125,12.52,0.58733528125,33.97
2021-07-08 18:43:43.437500000,-35.0,2.0,54.0,114.810625,11.04,0.58729525,33.97
2021-07-08 18:43:43.445312500,-35.0,2.0,54.0,114.811171875,9.54,0.58725521875,33.97
2021-07-08 18:43:43.453125000,-35.0,2.0,54.0,114.81171875,8.04,0.5872151875,33.97
2021-07-08 18:43:43.460937500,-35.0,2.0,54.0,114.812265625,6.4799999999999995,0.58717515625,33.97
2021-07-08 18:43:43.468750000,-35.0,2.0,54.0,114.81281249999999,4.92,0.587135125,33.97
2021-07-08 18:43:43.476562500,-35.0,1.75,54.0,114.813359375,3.14,0.58709509375,33.97
2021-07-08 18:43:43.484375000,-35.0,1.5,54.0,114.81390625,1.36,0.5870550625000001,33.97
2021-07-08 18:43:43.492187500,-35.0,1.25,54.0,114.814453125,-0.885,0.58701503125,33.97
2021-07-08 18:43:43.500000000,-35.0,1.0,54.0,114.815,-3.13,0.586975,33.97
2021-07-08 18:43:43.507812500,-35.0,1.25,54.0,114.815546875,-6.105,0.58701503125,33.97
2021-07-08 18:43:43.515625000,-35.0,1.5,54.0,114.81609375,-9.08,0.5870550625000001,33.97
2021-07-08 18:43:43.523437500,-35.0,1.75,54.0,114.81664062499999,-12.89,0.58709509375,33.97
2021-07-08 18:43:43.531250000,-35.0,2.0,54.0,114.8171875,-16.7,0.587135125,33.97
2021-07-08 18:43:43.539062500,-35.0,2.0,54.0,114.817734375,-21.205,0.58717515625,33.97
2021-07-08 18:43:43.546875000,-35.0,2.0,54.0,114.81828125,-25.71,0.5872151875,33.97
2021-07-08 18:43:43.554687500,-35.0,2.0,54.0,114.818828125,-30.43,0.58725521875,33.97
2021-07-08 18:43:43.562500000,-35.0,2.0,54.0,114.819375,-35.15,0.58729525,33.97
2021-07-08 18:43:43.570312500,-35.0,2.0,54.0,114.81992187499999,-39.33,0.58733528125,33.97
2021-07-08 18:43:43.578125000,-35.0,2.0,54.0,114.82046875,-43.51,0.5873753125,33.97
2021-07-08 18:43:43.585937500,-35.0,2.0,54.0,114.821015625,-46.269999999999996,0.58741534375,33.97
2021-07-08 18:43:43.593750000,-35.0,2.0,54.0,114.8215625,-49.03,0.587455375,33.97
2021-07-08 18:43:43.601562500,-35.0,2.0,54.0,114.822109375,-49.615,0.58749540625,33.97
2021-07-08 18:43:43.609375000,-35.0,2.0,54.0,114.82265625,-50.2,0.5875354375,33.97
2021-07-08 18:43:43.617187500,-35.0,2.0,54.0,114.82320312499999,-48.215,0.58757546875,33.97
2021-07-08 18:43:43.625000000,-35.0,2.0,54.0,114.82374999999999,-46.23,0.5876155000000001,33.97
2021-07-08 18:43:43.632812500,-35.0,2.0,54.0,114.824296875,-41.78,0.58765553125,33.97
2021-07-08 18:43:43.640625000,-35.0,2.0,54.0,114.82484375,-37.33,0.5876955625,33.97
2021-07-08 18:43:43.648437500,-35.0,2.0,54.0,114.825390625,-31.009999999999998,0.5877355937500001,33.97
2021-07-08 18:43:43.656250000,-35.0,2.0,54.0,114.8259375,-24.69,0.587775625,33.97
2021-07-08 18:43:43.664062500,-35.0,2.0,54.0,114.82648437499999,-17.380000000000003,0.58781565625,33.97
2021-07-08 18:43:43.671875000,-35.0,2.0,54.0,114.82703124999999,-10.07,0.5878556875000001,33.97
2021-07-08 18:43:43.679687500,-35.0,2.0,54.0,114.827578125,-2.6850000000000005,0.58789571875,33.97
2021-07-08 18:43:43.687500000,-35.0,2.0,54.0,114.828125,4.7,0.58793575,33.97
2021-07-08 18:43:43.695312500,-35.0,2.0,54.0,114.828671875,11.45,0.58797578125,33.97
2021-07-08 18:43:43.703125000,-35.0,2.0,54.0,114.82921875,18.2,0.5880158125,33.97
2021-07-08 18:43:43.710937500,-35.0,2.0,54.0,114.829765625,23.915,0.58805584375,33.97
2021-07-08 18:43:43.718750000,-35.0,2.0,54.0,114.83031249999999,29.63,0.588095875,33.97
2021-07-08 18:43:43.726562500,-35.0,2.0,54.0,114.830859375,34.144999999999996,0.58813590625,33.97
2021-07-08 18:43:43.734375000,-35.0,2.0,54.0,114.83140625,38.66,0.5881759375,33.97
2021-07-08 18:43:43.742187500,-35.0,2.0,54.0,114.831953125,41.89,0.58821596875,33.97
2021-07-08 18:43:43.750000000,-35.0,2.0,54.0,114.8325,45.12,0.588256,33.97
2021-07-08 18:43:43.757812500,-35.0,2.0,54.0,114.833046875,46.985,0.5881759375,33.97
2021-07-08 18:43:43.765625000,-35.0,2.0,54.0,114.83359374999999,48.85,0.588095875,33.97
2021-07-08 18:43:43.773437500,-35.0,2.0,54.0,114.83414062499999,49.3,0.5880158125,33.97
2021-07-08 18:43:43.781250000,-35.0,2.0,54.0,114.8346875,49.75,0.58793575,33.97
2021-07-08 18:43:43.789062500,-35.0,2.0,54.0,114.835234375,48.82,0.5878556875000001,33.97
2021-07-08 18:43:43.796875000,-35.0,2.0,54.0,114.83578125,47.89,0.587775625,33.97
2021-07-08 18:43:43.804687500,-35.0,2.0,54.0,114.836328125,45.83,0.5876955625,33.97
2021-07-08 18:43:43.812500000,-35.0,2.0,54.0,114.83687499999999,43.77,0.5876155000000001,33.97
2021-07-08 18:43:43.820312500,-35.0,2.0,54.0,114.83742187499999,41.005,0.5875354375,33.97
2021-07-08 18:43:43.828125000,-35.0,2.0,54.0,114.83796875,38.24,0.587455375,33.97
2021-07-08 18:43:43.835937500,-35.0,2.0,54.0,114.838515625,35.225,0.5873753125,33.97
2021-07-08 18:43:43.843750000,-35.0,2.0,54.0,114.8390625,32.21,0.58729525,33.97
2021-07-08 18:43:43.851562500,-35.0,2.0,54.0,114.839609375,29.34,0.5872151875,33.97
2021-07-08 18:43:43.859375000,-35.0,2.0,54.0,114.84015624999999,26.47,0.587135125,33.97
2021-07-08 18:43:43.867187500,-35.0,2.0,54.0,114.84070312499999,23.89,0.5870550625000001,33.97
2021-07-08 18:43:43.875000000,-35.0,2.0,54.0,114.84125,21.31,0.586975,33.97
2021-07-08 18:43:43.882812500,-35.0,2.0,54.0,114.841796875,18.979999999999997,0.5868949375,33.97
2021-07-08 18:43:43.890625000,-35.0,2.0,54.0,114.84234375,16.65,0.5868148750000001,33.97
2021-07-08 18:43:43.898437500,-35.0,2.0,54.0,114.842890625,14.445,0.5867348125,33.97
2021-07-08 18:43:43.906250000,-35.0,2.0,54.0,114.8434375,12.24,0.58665475,33.97
2021-07-08 18:43:43.914062500,-35.0,2.0,54.0,114.84398437499999,10.06,0.5865746875000001,33.97
2021-07-08 18:43:43.921875000,-35.0,2.0,54.0,114.84453124999999,7.88,0.586494625,33.97
2021-07-08 18:43:43.929687500,-35.0,2.0,54.0,114.845078125,5.72,0.5864145625,33.97
2021-07-08 18:43:43.937500000,-35.0,2.0,54.0,114.845625,3.56,0.5863345,33.97
2021-07-08 18:43:43.945312500,-35.0,2.0,54.0,114.846171875,1.5550000000000002,0.5862544375000001,33.97
2021-07-08 18:43:43.953125000,-35.0,2.0,54.0,114.84671875,-0.45,0.586174375,33.97
2021-07-08 18:43:43.960937500,-35.0,2.0,54.0,114.84726562499999,-2.18,0.5860943125,33.97
2021-07-08 18:43:43.968750000,-35.0,2.0,54.0,114.84781249999999,-3.91,0.5860142500000001,33.97
2021-07-08 18:43:43.976562500,-35.0,2.0,54.0,114.848359375,-5.335,0.5859341875,33.97
2021-07-08 18:43:43.984375000,-35.0,2.0,54.0,114.84890625,-6.76,0.585854125,33.97
2021-07-08 18:43:43.992187500,-35.0,2.0,54.0,114.849453125,-8.024999999999999,0.5857740625000001,33.97
2021-07-08 18:43:44.000000000,-35.0,2.0,54.0,114.85,-9.29,0.585694,33.97
2021-07-08 18:43:44.007812500,-35.0,2.0,54.0,114.85039062499999,-10.725,0.5857740625000001,33.970625
2021-07-08 18:43:44.015625000,-35.0,2.0,54.0,114.85078125,-12.16,0.585854125,33.97125
2021-07-08 18:43:44.023437500,-35.0,2.0,54.0,114.85117187499999,-14.16,0.5859341875,33.971875
2021-07-08 18:43:44.031250000,-35.0,2.0,54.0,114.8515625,-16.16,0.5860142500000001,33.9725
2021-07-08 18:43:44.039062500,-35.0,2.0,54.0,114.851953125,-19.075,0.5860943125,33.973124999999996
2021-07-08 18:43:44.046875000,-35.0,2.0,54.0,114.85234374999999,-21.99,0.586174375,33.97375
2021-07-08 18:43:44.054687500,-35.0,2.0,54.0,114.852734375,-25.915,0.5862544375000001,33.974375
2021-07-08 18:43:44.062500000,-35.0,2.0,54.0,114.85312499999999,-29.84,0.5863345,33.975
2021-07-08 18:43:44.070312500,-35.0,2.0,54.0,114.853515625,-34.53,0.5864145625,33.975625
2021-07-08 18:43:44.078125000,-35.0,2.0,54.0,114.85390625,-39.22,0.586494625,33.97625
2021-07-08 18:43:44.085937500,-35.0,2.0,54.0,114.85429687499999,-44.055,0.5865746875000001,33.976875
2021-07-08 18:43:44.093750000,-35.0,2.0,54.0,114.8546875,-48.89,0.58665475,33.9775
2021-07-08 18:43:44.101562500,-35.0,2.0,54.0,114.85507812499999,-52.965,0.5867348125,33.978125
2021-07-08 18:43:44.109375000,-35.0,2.0,54.0,114.85546875,-57.04,0.5868148750000001,33.97875
2021-07-08 18:43:44.117187500,-35.0,2.0,54.0,114.855859375,-59.4,0.5868949375,33.979375
2021-07-08 18:43:44.125000000,-35.0,2.0,54.0,114.85624999999999,-61.76,0.586975,33.980000000000004
2021-07-08 18:43:44.132812500,-35.0,2.0,54.0,114.856640625,-61.644999999999996,0.5870550625000001,33.980625
2021-07-08 18:43:44.140625000,-35.0,2.0,54.0,114.85703124999999,-61.53,0.587135125,33.98125
2021-07-08 18:43:44.148437500,-35.0,2.0,54.0,114.857421875,-58.675,0.5872151875,33.981875
2021-07-08 18:43:44.156250000,-35.0,2.0,54.0,114.8578125,-55.82,0.58729525,33.9825
2021-07-08 18:43:44.164062500,-35.0,2.0,54.0,114.858203125,-50.504999999999995,0.5873753125,33.983125
2021-07-08 18:43:44.171875000,-35.0,2.0,54.0,114.85859375,-45.19,0.587455375,33.98375
2021-07-08 18:43:44.179687500,-35.0,2.0,54.0,114.85898437499999,-38.205,0.5875354375,33.984375
2021-07-08 18:43:44.187500000,-35.0,2.0,54.0,114.859375,-31.22,0.5876155000000001,33.985
2021-07-08 18:43:44.195312500,-35.0,2.0,54.0,114.859765625,-23.6,0.5876955625,33.985625
2021-07-08 18:43:44.203125000,-35.0,2.0,54.0,114.86015625,-15.98,0.587775625,33.98625
2021-07-08 18:43:44.210937500,-35.0,2.0,54.0,114.860546875,-8.7,0.5878556875000001,33.986875000000005
2021-07-08 18:43:44.218750000,-35.0,2.0,54.0,114.86093749999999,-1.42,0.58793575,33.987500000000004
2021-07-08 18:43:44.226562500,-35.0,2.0,54.0,114.861328125,4.855,0.5880158125,33.988125000000004
2021-07-08 18:43:44.234375000,-35.0,2.0,54.0,114.86171875,11.13,0.588095875,33.98875
2021-07-08 18:43:44.242187500,-35.0,2.0,54.0,114.862109375,16.125,0.5881759375,33.989375
2021-07-08 18:43:44.250000000,-35.0,2.0,54.0,114.8625,21.12,0.588256,33.99
2021-07-08 18:43:44.257812500,-35.0,2.0,54.0,114.86289062499999,24.86,0.58813590625,33.99
2021-07-08 18:43:44.265625000,-35.0,2.0,54.0,114.86328125,28.6,0.5880158125,33.99
2021-07-08 18:43:44.273437500,-35.0,2.0,54.0,114.863671875,31.25,0.58789571875,33.99
2021-07-08 18:43:44.281250000,-35.0,2.0,54.0,114.8640625,33.9,0.587775625,33.99
2021-07-08 18:43:44.289062500,-35.0,2.0,54.0,114.864453125,35.575,0.58765553125,33.99
2021-07-08 18:43:44.296875000,-35.0,2.0,54.0,114.86484374999999,37.25,0.5875354375,33.99
2021-07-08 18:43:44.304687500,-35.0,2.0,54.0,114.865234375,37.97,0.58741534375,33.99
2021-07-08 18:43:44.312500000,-35.0,2.0,54.0,114.865625,38.69,0.5872952499999999,33.99
2021-07-08 18:43:44.320312500,-35.0,2.0,54.0,114.866015625,38.405,0.5871751562499999,33.99
2021-07-08 18:43:44.328125000,-35.0,2.0,54.0,114.86640625,38.12,0.5870550625,33.99
2021-07-08 18:43:44.335937500,-35.0,2.0,54.0,114.86679687499999,36.86,0.58693496875,33.99
2021-07-08 18:43:44.343750000,-35.0,2.0,54.0,114.8671875,35.6,0.586814875,33.99
2021-07-08 18:43:44.351562500,-35.0,2.0,54.0,114.867578125,33.49,0.58669478125,33.99
2021-07-08 18:43:44.359375000,-35.0,2.0,54.0,114.86796875,31.38,0.5865746875,33.99
2021-07-08 18:43:44.367187500,-35.0,2.0,54.0,114.868359375,28.689999999999998,0.58645459375,33.99
2021-07-08 18:43:44.375000000,-35.0,2.0,54.0,114.86875,26.0,0.5863345,33.99
2021-07-08 18:43:44.382812500,-35.0,2.0,54.0,114.869140625,23.04,0.58621440625,33.99
2021-07-08 18:43:44.390625000,-35.0,2.0,54.0,114.86953125,20.08,0.5860943125,33.99
2021-07-08 18:43:44.398437500,-35.0,2.0,54.0,114.869921875,17.134999999999998,0.58597421875,33.99
2021-07-08 18:43:44.406250000,-35.0,2.0,54.0,114.8703125,14.19,0.585854125,33.99
2021-07-08 18:43:44.414062500,-35.0,2.0,54.0,114.870703125,11.455,0.58573403125,33.99
2021-07-08 18:43:44.421875000,-35.0,2.0,54.0,114.87109375,8.72,0.5856139375,33.99
2021-07-08 18:43:44.429687500,-35.0,2.0,54.0,114.871484375,6.295,0.58549384375,33.99
2021-07-08 18:43:44.437500000,-35.0,2.0,54.0,114.871875,3.87,0.58537375,33.99
2021-07-08 18:43:44.445312500,-35.0,2.0,54.0,114.872265625,1.8050000000000002,0.5852536562499999,33.99
2021-07-08 18:43:44.453125000,-35.0,2.0,54.0,114.87265625,-0.26,0.5851335624999999,33.99
2021-07-08 18:43:44.460937500,-35.0,2.0,54.0,114.873046875,-1.9549999999999998,0.5850134687499999,33.99
2021-07-08 18:43:44.468750000,-35.0,2.0,54.0,114.8734375,-3.65,0.5848933749999999,33.99
2021-07-08 18:43:44.476562500,-35.0,2.0,53.75,114.873828125,-5.03,0.5847732812499999,33.99
2021-07-08 18:43:44.484375000,-35.0,2.0,53.5,114.87421875,-6.41,0.5846531875,33.99
2021-07-08 18:43:44.492187500,-35.0,2.0,53.25,114.874609375,-7.6,0.58453309375,33.99
2021-07-08 18:43:44.500000000,-35.0,2.0,53.0,114.875,-8.79,0.584413,33.99
2021-07-08 18:43:44.507812500,-35.25,2.0,53.0,114.875390625,-10.035,0.5844530312499999,33.99
2021-07-08 18:43:44.515625000,-35.5,2.0,53.0,114.87578125,-11.28,0.5844930625,33.99
2021-07-08 18:43:44.523437500,-35.75,2.0,53.0,114.876171875,-12.885,0.58453309375,33.99
2021-07-08 18:43:44.531250000,-36.0,2.0,53.0,114.8765625,-14.49,0.5845731249999999,33.99
2021-07-08 18:43:44.539062500,-35.75,2.0,53.25,114.876953125,-16.79,0.58461315625,33.99
2021-07-08 18:43:44.546875000,-35.5,2.0,53.5,114.87734375,-19.09,0.5846531875,33.99
2021-07-08 18:43:44.554687500,-35.25,2.0,53.75,114.877734375,-22.29,0.58469321875,33.99
2021-07-08 18:43:44.562500000,-35.0,2.0,54.0,114.878125,-25.49,0.58473325,33.99
2021-07-08 18:43:44.570312500,-35.0,1.75,54.0,114.878515625,-29.560000000000002,0.5847732812499999,33.99
2021-07-08 18:43:44.578125000,-35.0,1.5,54.0,114.87890625,-33.63,0.5848133125,33.99
2021-07-08 18:43:44.585937500,-35.0,1.25,54.0,114.879296875,-38.22,0.58485334375,33.99
2021-07-08 18:43:44.593750000,-35.0,1.0,54.0,114.8796875,-42.81,0.584893375,33.99
2021-07-08 18:43:44.601562500,-35.0,1.25,54.0,114.880078125,-47.269999999999996,0.58493340625,33.99
2021-07-08 18:43:44.609375000,-35.0,1.5,54.0,114.88046875,-51.73,0.5849734375,33.99
2021-07-08 18:43:44.617187500,-35.0,1.75,54.0,114.880859375,-55.235,0.58501346875,33.99
2021-07-08 18:43:44.625000000,-35.0,2.0,54.0,114.88125,-58.74,0.5850535,33.99
2021-07-08 18:43:44.632812500,-35.0,2.0,54.0,114.881640625,-60.47,0.58509353125,33.99
2021-07-08 18:43:44.640625000,-35.0,2.0,54.0,114.88203125,-62.2,0.5851335625,33.99
2021-07-08 18:43:44.648437500,-35.0,2.0,54.0,114.882421875,-61.585,0.58517359375,33.99
2021-07-08 18:43:44.656250000,-35.0,2.0,54.0,114.8828125,-60.97,0.585213625,33.99
2021-07-08 18:43:44.664062500,-35.0,2.0,54.0,114.88320312500001,-57.864999999999995,0.58525365625,33.99
2021-07-08 18:43:44.671875000,-35.0,2.0,54.0,114.88359375,-54.76,0.5852936875,33.99
2021-07-08 18:43:44.679687500,-35.0,2.0,54.0,114.883984375,-49.47,0.5853337187500001,33.99
2021-07-08 18:43:44.687500000,-35.0,2.0,54.0,114.884375,-44.18,0.58537375,33.99
2021-07-08 18:43:44.695312500,-35.0,2.0,54.0,114.884765625,-37.355000000000004,0.58541378125,33.99
2021-07-08 18:43:44.703125000,-35.0,2.0,54.0,114.88515625000001,-30.53,0.5854538125000001,33.99
2021-07-08 18:43:44.710937500,-35.0,2.0,54.0,114.885546875,-22.995,0.58549384375,33.99
2021-07-08 18:43:44.718750000,-35.0,2.0,54.0,114.8859375,-15.46,0.5855338750000001,33.99
2021-07-08 18:43:44.726562500,-35.0,2.0,54.0,114.886328125,-7.995,0.58557390625,33.99
2021-07-08 18:43:44.734375000,-35.0,2.0,54.0,114.88671875,-0.53,0.5856139375,33.99
2021-07-08 18:43:44.742187500,-35.0,2.0,54.0,114.88710937500001,6.27,0.5856539687500001,33.99
2021-07-08 18:43:44.750000000,-35.0,2.0,54.0,114.8875,13.07,0.585694,33.99
2021-07-08 18:43:44.757812500,-35.0,2.0,54.0,114.887890625,18.87,0.5856139375,33.99
2021-07-08 18:43:44.765625000,-35.0,2.0,54.0,114.88828125,24.67,0.5855338750000001,33.99
2021-07-08 18:43:44.773437500,-35.0,2.0,54.0,114.888671875,29.305,0.5854538125000001,33.99
2021-07-08 18:43:44.781250000,-35.0,2.0,54.0,114.88906250000001,33.94,0.58537375,33.99
2021-07-08 18:43:44.789062500,-35.0,2.0,54.0,114.889453125,37.375,0.5852936875,33.99
2021-07-08 18:43:44.796875000,-35.0,2.0,54.0,114.88984375,40.81,0.5852136250000001,33.99
2021-07-08 18:43:44.804687500,-35.0,2.0,54.0,114.890234375,43.055,0.5851335625,33.99
2021-07-08 18:43:44.812500000,-35.0,2.0,54.0,114.890625,45.3,0.5850535,33.99
2021-07-08 18:43:44.820312500,-35.0,2.0,54.0,114.89101562500001,46.379999999999995,0.5849734375000001,33.99
2021-07-08 18:43:44.828125000,-35.0,2.0,54.0,114.89140625,47.46,0.584893375,33.99
2021-07-08 18:43:44.835937500,-35.0,2.0,54.0,114.891796875,47.415,0.5848133125,33.99
2021-07-08 18:43:44.843750000,-35.0,2.0,54.0,114.8921875,47.37,0.58473325,33.99
2021-07-08 18:43:44.851562500,-35.0,2.0,54.0,114.892578125,46.33,0.5846531875000001,33.99
2021-07-08 18:43:44.859375000,-35.0,2.0,54.0,114.89296875000001,45.29,0.584573125,33.99
2021-07-08 18:43:44.867187500,-35.0,2.0,54.0,114.893359375,43.44,0.5844930625,33.99
2021-07-08 18:43:44.875000000,-35.0,2.0,54.0,114.89375000000001,41.59,0.5844130000000001,33.99
2021-07-08 18:43:44.882812500,-35.0,2.0,54.0,114.894140625,39.175,0.5843329375,33.99
2021-07-08 18:43:44.890625000,-35.0,2.0,54.0,114.89453125,36.76,0.584252875,33.99
2021-07-08 18:43:44.898437500,-35.0,2.0,54.0,114.89492187500001,34.01,0.5841728125,33.99
2021-07-08 18:43:44.906250000,-35.0,2.0,54.0,114.8953125,31.26,0.58409275,33.99
2021-07-08 18:43:44.914062500,-34.75,2.0,54.0,114.89570312500001,28.395000000000003,0.5840126875,33.99
2021-07-08 18:43:44.921875000,-34.5,2.0,54.0,114.89609375,25.53,0.583932625,33.99
2021-07-08 18:43:44.929687500,-34.25,2.0,54.0,114.896484375,22.685000000000002,0.5838525625,33.99
2021-07-08 18:43:44.937500000,-34.0,2.0,54.0,114.89687500000001,19.84,0.5837725,33.99
2021-07-08 18:43:44.945312500,-34.25,2.0,54.0,114.897265625,17.15,0.5836924375,33.99
2021-07-08 18:43:44.953125000,-34.5,2.0,54.0,114.89765625000001,14.46,0.583612375,33.99
2021-07-08 18:43:44.960937500,-34.75,2.0,54.0,114.898046875,12.065000000000001,0.5835323125,33.99
2021-07-08 18:43:44.968750000,-35.0,2.0,54.0,114.8984375,9.67,0.58345225,33.99
2021-07-08 18:43:44.976562500,-35.0,2.0,54.0,114.89882812500001,7.72,0.5833721875,33.99
2021-07-08 18:43:44.984375000,-35.0,2.0,54.0,114.89921875,5.77,0.5832921249999999,33.99
2021-07-08 18:43:44.992187500,-35.0,2.0,54.0,114.89960937500001,4.345,0.5832120625,33.99
2021-07-08 18:43:45.000000000,-35.0,2.0,54.0,114.9,2.92,0.583132,33.99
2021-07-08 18:43:45.007812500,-35.0,2.0,54.0,114.90023437500001,1.9849999999999999,0.583132,33.9903125
2021-07-08 18:43:45.015625000,-35.0,2.0,54.0,114.90046875,1.05,0.583132,33.990625
2021-07-08 18:43:45.023437500,-35.0,2.0,54.0,114.900703125,0.405,0.583132,33.9909375
2021-07-08 18:43:45.031250000,-35.0,2.0,54.0,114.90093750000001,-0.24,0.583132,33.99125
2021-07-08 18:43:45.039062500,-35.0,2.0,54.0,114.901171875,-0.92,0.583132,33.9915625
2021-07-08 18:43:45.046875000,-35.0,2.0,54.0,114.90140625000001,-1.6,0.583132,33.991875
2021-07-08 18:43:45.054687500,-35.0,2.0,54.0,114.901640625,-2.725,0.583132,33.9921875
2021-07-08 18:43:45.062500000,-35.0,2.0,54.0,114.901875,-3.85,0.583132,33.9925
2021-07-08 18:43:45.070312500,-35.0,2.0,54.0,114.90210937500001,-5.755,0.583132,33.9928125
2021-07-08 18:43:45.078125000,-35.0,2.0,54.0,114.90234375,-7.66,0.583132,33.993125
2021-07-08 18:43:45.085937500,-35.0,2.0,54.0,114.902578125,-10.54,0.583132,33.9934375
2021-07-08 18:43:45.093750000,-35.0,2.0,54.0,114.90281250000001,-13.42,0.583132,33.99375
2021-07-08 18:43:45.101562500,-35.0,2.0,54.0,114.903046875,-17.26,0.583132,33.9940625
2021-07-08 18:43:45.109375000,-35.0,2.0,54.0,114.90328125,-21.1,0.583132,33.994375
2021-07-08 18:43:45.117187500,-35.0,2.0,54.0,114.90351562500001,-25.6,0.583132,33.9946875
2021-07-08 18:43:45.125000000,-35.0,2.0,54.0,114.90375,-30.1,0.583132,33.995000000000005
2021-07-08 18:43:45.132812500,-35.0,2.0,54.0,114.90398437500001,-34.66,0.583132,33.995312500000004
2021-07-08 18:43:45.140625000,-35.0,2.0,54.0,114.90421875000001,-39.22,0.583132,33.995625000000004
2021-07-08 18:43:45.148437500,-35.0,2.0,54.0,114.904453125,-43.019999999999996,0.583132,33.995937500000004
2021-07-08 18:43:45.156250000,-35.0,2.0,54.0,114.90468750000001,-46.82,0.583132,33.99625
2021-07-08 18:43:45.164062500,-35.0,2.0,54.0,114.904921875,-48.995000000000005,0.583132,33.9965625
2021-07-08 18:43:45.171875000,-35.0,2.0,54.0,114.90515625,-51.17,0.583132,33.996875
2021-07-08 18:43:45.179687500,-35.0,2.0,54.0,114.90539062500001,-51.035,0.583132,33.9971875
2021-07-08 18:43:45.187500000,-35.0,2.0,54.0,114.905625,-50.9,0.583132,33.9975
2021-07-08 18:43:45.195312500,-35.0,2.0,54.0,114.905859375,-48.215,0.583132,33.9978125
2021-07-08 18:43:45.203125000,-35.0,2.0,54.0,114.90609375000001,-45.53,0.583132,33.998125
2021-07-08 18:43:45.210937500,-35.0,2.0,54.0,114.906328125,-40.555,0.583132,33.9984375
2021-07-08 18:43:45.218750000,-35.0,2.0,54.0,114.9065625,-35.58,0.583132,33.99875
2021-07-08 18:43:45.226562500,-35.0,2.0,54.0,114.90679687500001,-29.025,0.583132,33.9990625
2021-07-08 18:43:45.234375000,-35.0,2.0,54.0,114.90703125,-22.47,0.583132,33.999375
2021-07-08 18:43:45.242187500,-35.0,2.0,54.0,114.90726562500001,-15.215,0.583132,33.9996875
2021-07-08 18:43:45.250000000,-35.0,2.0,54.0,114.9075,-7.96,0.583132,34.0
2021-07-08 18:43:45.257812500,-35.0,2.0,54.0,114.907734375,-0.79,0.58301190625,34.0
2021-07-08 18:43:45.265625000,-35.0,2.0,54.0,114.90796875000001,6.38,0.5828918125,34.0
2021-07-08 18:43:45.273437500,-35.0,2.0,54.0,114.908203125,12.920000000000002,0.58277171875,34.0
2021-07-08 18:43:45.281250000,-35.0,2.0,54.0,114.9084375,19.46,0.582651625,34.0
2021-07-08 18:43:45.289062500,-35.0,2.0,54.0,114.90867187500001,25.08,0.58253153125,34.0
2021-07-08 18:43:45.296875000,-35.0,2.0,54.0,114.90890625,30.7,0.5824114375,34.0
2021-07-08 18:43:45.304687500,-35.0,2.0,54.0,114.909140625,35.23,0.58229134375,34.0
2021-07-08 18:43:45.312500000,-35.0,2.0,54.0,114.90937500000001,39.76,0.58217125,34.0
2021-07-08 18:43:45.320312500,-35.0,2.0,54.0,114.909609375,43.084999999999994,0.58205115625,34.0
2021-07-08 18:43:45.328125000,-35.0,2.0,54.0,114.90984375000001,46.41,0.5819310625,34.0
2021-07-08 18:43:45.335937500,-35.0,2.0,54.0,114.91007812500001,48.425,0.58181096875,34.0
2021-07-08 18:43:45.343750000,-35.0,2.0,54.0,114.9103125,50.44,0.581690875,34.0
2021-07-08 18:43:45.351562500,-35.0,2.0,54.0,114.91054687500001,51.114999999999995,0.5815707812500001,34.0
2021-07-08 18:43:45.359375000,-35.0,2.0,54.0,114.91078125,51.79,0.5814506875000001,34.0
2021-07-08 18:43:45.367187500,-35.0,2.0,54.0,114.911015625,51.275,0.5813305937500001,34.0
2021-07-08 18:43:45.375000000,-35.0,2.0,54.0,114.91125000000001,50.76,0.5812105000000001,34.0
2021-07-08 18:43:45.382812500,-35.0,2.0,54.0,114.911484375,49.364999999999995,0.58109040625,34.0
2021-07-08 18:43:45.390625000,-35.0,2.0,54.0,114.91171875,47.97,0.5809703125,34.0
2021-07-08 18:43:45.398437500,-35.0,2.0,54.0,114.91195312500001,46.09,0.58085021875,34.0
2021-07-08 18:43:45.406250000,-35.0,2.0,54.0,114.9121875,44.21,0.580730125,34.0
2021-07-08 18:43:45.414062500,-35.0,2.0,54.0,114.912421875,42.21,0.58061003125,34.0
2021-07-08 18:43:45.421875000,-35.0,2.0,54.0,114.91265625000001,40.21,0.5804899375,34.0
2021-07-08 18:43:45.429687500,-35.0,2.0,54.0,114.912890625,38.32,0.58036984375,34.0
2021-07-08 18:43:45.437500000,-35.0,2.0,54.0,114.91312500000001,36.43,0.58024975,34.0
2021-07-08 18:43:45.445312500,-35.0,2.0,54.0,114.91335937500001,34.715,0.58012965625,34.0
2021-07-08 18:43:45.453125000,-35.0,2.0,54.0,114.91359375,33.0,0.5800095625,34.0
2021-07-08 18:43:45.460937500,-35.0,2.0,54.0,114.91382812500001,31.415,0.57988946875,34.0
2021-07-08 18:43:45.468750000,-35.0,2.0,54.0,114.9140625,29.83,0.579769375,34.0
2021-07-08 18:43:45.476562500,-35.0,2.0,54.0,114.914296875,28.284999999999997,0.57964928125,34.0
2021-07-08 18:43:45.484375000,-35.0,2.0,54.0,114.91453125000001,26.74,0.5795291875,34.0
2021-07-08 18:43:45.492187500,-35.0,2.0,54.0,114.914765625,25.195,0.57940909375,34.0
2021-07-08 18:43:45.500000000,-35.0,2.0,54.0,114.915,23.65,0.579289,34.0
2021-07-08 18:43:45.507812500,-35.0,2.0,54.0,114.91523437500001,22.1,0.5793690625000001,34.0
2021-07-08 18:43:45.515625000,-35.0,2.0,54.0,114.91546875,20.55,0.579449125,34.0
2021-07-08 18:43:45.523437500,-35.0,2.0,54.0,114.91570312500001,19.045,0.5795291875,34.0
2021-07-08 18:43:45.531250000,-35.0,2.0,54.0,114.91593750000001,17.54,0.5796092500000001,34.0
2021-07-08 18:43:45.539062500,-35.0,2.0,54.0,114.916171875,16.15,0.5796893125,34.0
2021-07-08 18:43:45.546875000,-35.0,2.0,54.0,114.91640625000001,14.76,0.579769375,34.0
2021-07-08 18:43:45.554687500,-35.0,2.0,54.0,114.916640625,13.530000000000001,0.5798494375000001,34.0
2021-07-08 18:43:45.562500000,-35.0,2.0,54.0,114.916875,12.3,0.5799295,34.0
2021-07-08 18:43:45.570312500,-35.0,2.0,54.0,114.91710937500001,11.21,0.5800095625,34.0
2021-07-08 18:43:45.578125000,-35.0,2.0,54.0,114.91734375,10.12,0.580089625,34.0
2021-07-08 18:43:45.585937500,-35.0,2.0,54.0,114.917578125,9.075,0.5801696875000001,34.0
2021-07-08 18:43:45.593750000,-35.0,2.0,54.0,114.91781250000001,8.03,0.58024975,34.0
2021-07-08 18:43:45.601562500,-35.0,2.0,53.75,114.918046875,6.824999999999999,0.5803298125,34.0
2021-07-08 18:43:45.609375000,-35.0,2.0,53.5,114.91828125,5.62,0.5804098750000001,34.0
2021-07-08 18:43:45.617187500,-35.0,2.0,53.25,114.91851562500001,3.995,0.5804899375,34.0
2021-07-08 18:43:45.625000000,-35.0,2.0,53.0,114.91875,2.37,0.58057,34.0
2021-07-08 18:43:45.632812500,-35.0,2.0,53.25,114.91898437500001,0.06000000000000005,0.5806500625000001,34.0
2021-07-08 18:43:45.640625000,-35.0,2.0,53.5,114.91921875000001,-2.25,0.580730125,34.0
2021-07-08 18:43:45.648437500,-35.0,2.0,53.75,114.919453125,-5.39,0.5808101875,34.0
2021-07-08 18:43:45.656250000,-35.0,2.0,54.0,114.91968750000001,-8.53,0.58089025,34.0
2021-07-08 18:43:45.664062500,-35.0,2.0,54.0,114.919921875,-12.395,0.5809703125,34.0
2021-07-08 18:43:45.671875000,-35.0,2.0,54.0,114.92015625,-16.26,0.581050375,34.0
2021-07-08 18:43:45.679687500,-35.0,2.0,54.0,114.92039062500001,-20.475,0.5811304375,34.0
2021-07-08 18:43:45.687500000,-35.0,2.0,54.0,114.920625,-24.69,0.5812105000000001,34.0
2021-07-08 18:43:45.695312500,-35.0,2.0,54.0,114.920859375,-28.64,0.5812905625,34.0
2021-07-08 18:43:45.703125000,-35.0,2.0,54.0,114.92109375000001,-32.59,0.581370625,34.0
2021-07-08 18:43:45.710937500,-35.0,2.0,54.0,114.921328125,-35.55,0.5814506875000001,34.0
2021-07-08 18:43:45.718750000,-35.0,2.0,54.0,114.92156250000001,-38.51,0.58153075,34.0
2021-07-08 18:43:45.726562500,-35.0,2.0,54.0,114.92179687500001,-39.87,0.5816108125,34.0
2021-07-08 18:43:45.734375000,-35.0,2.0,54.0,114.92203125,-41.23,0.581690875,34.0
2021-07-08 18:43:45.742187500,-35.0,2.0,54.0,114.92226562500001,-40.605,0.5817709375,34.0
2021-07-08 18:43:45.750000000,-35.0,2.0,54.0,114.92250000000001,-39.98,0.581851,34.0
2021-07-08 18:43:45.757812500,-35.0,2.0,54.0,114.922734375,-37.36,0.581851,34.0
2021-07-08 18:43:45.765625000,-35.0,2.0,54.0,114.92296875000001,-34.74,0.581851,34.0
2021-07-08 18:43:45.773437500,-35.0,2.0,54.0,114.923203125,-30.4,0.581851,34.0
2021-07-08 18:43:45.781250000,-35.0,2.0,54.0,114.9234375,-26.06,0.581851,34.0
2021-07-08 18:43:45.789062500,-35.0,2.0,54.0,114.92367187500001,-20.525,0.581851,34.0
2021-07-08 18:43:45.796875000,-35.0,2.0,54.0,114.92390625,-14.99,0.581851,34.0
2021-07-08 18:43:45.804687500,-35.0,2.0,54.0,114.924140625,-8.83,0.581851,34.0
2021-07-08 18:43:45.812500000,-35.0,2.0,54.0,114.92437500000001,-2.67,0.581851,34.0
2021-07-08 18:43:45.820312500,-35.0,2.0,54.0,114.924609375,3.545,0.581851,34.0
2021-07-08 18:43:45.828125000,-35.0,2.0,54.0,114.92484375000001,9.76,0.581851,34.0
2021-07-08 18:43:45.835937500,-35.0,2.0,54.0,114.92507812500001,15.57,0.581851,34.0
2021-07-08 18:43:45.843750000,-35.0,2.0,54.0,114.9253125,21.38,0.581851,34.0
2021-07-08 18:43:45.851562500,-35.0,2.0,54.0,114.92554687500001,26.445,0.581851,34.0
2021-07-08 18:43:45.859375000,-35.0,2.0,54.0,114.92578125,31.51,0.581851,34.0
2021-07-08 18:43:45.867187500,-35.0,2.0,54.0,114.926015625,35.6,0.581851,34.0
2021-07-08 18:43:45.875000000,-35.0,2.0,54.0,114.92625000000001,39.69,0.581851,34.0
2021-07-08 18:43:45.882812500,-35.0,2.0,54.0,114.926484375,42.675,0.581851,34.0
2021-07-08 18:43:45.890625000,-35.0,2.0,54.0,114.92671875,45.66,0.581851,34.0
2021-07-08 18:43:45.898437500,-35.0,2.0,54.0,114.92695312500001,47.465,0.581851,34.0
2021-07-08 18:43:45.906250000,-35.0,2.0,54.0,114.9271875,49.27,0.581851,34.0
2021-07-08 18:43:45.914062500,-35.0,2.0,54.0,114.92742187500001,49.885000000000005,0.581851,34.0
2021-07-08 18:43:45.921875000,-35.0,2.0,54.0,114.92765625000001,50.5,0.581851,34.0
2021-07-08 18:43:45.929687500,-35.0,2.0,54.0,114.927890625,49.945,0.581851,34.0
2021-07-08 18:43:45.937500000,-35.0,2.0,54.0,114.92812500000001,49.39,0.581851,34.0
2021-07-08 18:43:45.945312500,-35.0,2.0,54.0,114.92835937500001,47.760000000000005,0.581851,34.0
2021-07-08 18:43:45.953125000,-35.0,2.0,54.0,114.92859375,46.13,0.581851,34.0
2021-07-08 18:43:45.960937500,-35.0,2.0,54.0,114.92882812500001,43.615,0.581851,34.0
2021-07-08 18:43:45.968750000,-35.0,2.0,54.0,114.9290625,41.1,0.581851,34.0
2021-07-08 18:43:45.976562500,-35.0,2.0,54.0,114.929296875,37.995000000000005,0.581851,34.0
2021-07-08 18:43:45.984375000,-35.0,2.0,54.0,114.92953125000001,34.89,0.581851,34.0
2021-07-08 18:43:45.992187500,-35.0,2.0,54.0,114.929765625,31.575000000000003,0.581851,34.0
2021-07-08 18:43:46.000000000,-35.0,2.0,54.0,114.93,28.26,0.581851,34.0
2021-07-08 18:43:46.007812500,-35.0,2.0,54.0,114.93031250000001,25.08,0.58165084375,33.9996875
2021-07-08 18:43:46.015625000,-35.0,2.0,54.0,114.930625,21.9,0.5814506875000001,33.999375
2021-07-08 18:43:46.023437500,-35.0,2.0,54.0,114.93093750000001,19.09,0.58125053125,33.9990625
2021-07-08 18:43:46.031250000,-35.0,2.0,54.0,114.93125,16.28,0.581050375,33.99875
2021-07-08 18:43:46.039062500,-35.0,2.0,54.0,114.93156250000001,13.855,0.58085021875,33.9984375
2021-07-08 18:43:46.046875000,-35.0,2.0,54.0,114.931875,11.43,0.5806500625,33.998125
2021-07-08 18:43:46.054687500,-35.0,2.0,54.0,114.93218750000001,9.27,0.58044990625,33.9978125
2021-07-08 18:43:46.062500000,-35.0,2.0,54.0,114.9325,7.11,0.58024975,33.9975
2021-07-08 18:43:46.070312500,-35.0,2.0,54.0,114.93281250000001,5.055,0.58004959375,33.9971875
2021-07-08 18:43:46.078125000,-35.0,2.0,54.0,114.933125,3.0,0.5798494375000001,33.996875
2021-07-08 18:43:46.085937500,-35.0,2.0,54.0,114.93343750000001,0.9849999999999999,0.57964928125,33.9965625
2021-07-08 18:43:46.093750000,-35.0,2.0,54.0,114.93375,-1.03,0.579449125,33.99625
2021-07-08 18:43:46.101562500,-35.0,2.0,54.0,114.93406250000001,-2.9050000000000002,0.57924896875,33.995937500000004
2021-07-08 18:43:46.109375000,-35.0,2.0,54.0,114.934375,-4.78,0.5790488125,33.995625000000004
2021-07-08 18:43:46.117187500,-35.0,2.0,54.0,114.93468750000001,-6.36,0.57884865625,33.995312500000004
2021-07-08 18:43:46.125000000,-35.0,2.0,54.0,114.935,-7.94,0.5786485,33.995000000000005
2021-07-08 18:43:46.132812500,-35.0,2.0,54.0,114.93531250000001,-9.115,0.57844834375,33.9946875
2021-07-08 18:43:46.140625000,-35.0,2.0,54.0,114.935625,-10.29,0.5782481875000001,33.994375
2021-07-08 18:43:46.148437500,-35.0,2.0,54.0,114.93593750000001,-11.184999999999999,0.57804803125,33.9940625
2021-07-08 18:43:46.156250000,-35.0,2.0,54.0,114.93625,-12.08,0.577847875,33.99375
2021-07-08 18:43:46.164062500,-35.0,2.0,54.0,114.93656250000001,-13.045,0.57764771875,33.9934375
2021-07-08 18:43:46.171875000,-35.0,2.0,54.0,114.936875,-14.01,0.5774475625,33.993125
2021-07-08 18:43:46.179687500,-35.0,2.0,54.0,114.93718750000001,-15.495000000000001,0.57724740625,33.9928125
2021-07-08 18:43:46.187500000,-35.0,2.0,54.0,114.9375,-16.98,0.57704725,33.9925
2021-07-08 18:43:46.195312500,-35.0,2.0,54.0,114.9378125,-19.35,0.57684709375,33.9921875
2021-07-08 18:43:46.203125000,-35.0,2.0,54.0,114.938125,-21.72,0.5766469375000001,33.991875
2021-07-08 18:43:46.210937500,-35.0,2.0,54.0,114.9384375,-25.06,0.57644678125,33.9915625
2021-07-08 18:43:46.218750000,-35.0,2.0,54.0,114.93875,-28.4,0.576246625,33.99125
2021-07-08 18:43:46.226562500,-35.0,2.0,54.0,114.9390625,-32.44,0.57604646875,33.9909375
2021-07-08 18:43:46.234375000,-35.0,2.0,54.0,114.939375,-36.48,0.5758463125,33.990625
2021-07-08 18:43:46.242187500,-35.0,2.0,54.0,114.9396875,-40.65,0.57564615625,33.9903125
2021-07-08 18:43:46.250000000,-35.0,2.0,54.0,114.94,-44.82,0.575446,33.99
2021-07-08 18:43:46.257812500,-35.0,2.0,54.0,114.9403125,-48.405,0.57556609375,33.99
2021-07-08 18:43:46.265625000,-35.0,2.0,54.0,114.94062500000001,-51.99,0.5756861875,33.99
2021-07-08 18:43:46.273437500,-35.0,2.0,54.0,114.9409375,-54.290000000000006,0.57580628125,33.99
2021-07-08 18:43:46.281250000,-35.0,2.0,54.0,114.94125000000001,-56.59,0.575926375,33.99
2021-07-08 18:43:46.289062500,-35.0,2.0,54.0,114.9415625,-57.1,0.57604646875,33.99
2021-07-08 18:43:46.296875000,-35.0,2.0,54.0,114.94187500000001,-57.61,0.5761665625,33.99
2021-07-08 18:43:46.304687500,-35.0,2.0,54.0,114.9421875,-56.095,0.57628665625,33.99
2021-07-08 18:43:46.312500000,-35.0,2.0,54.0,114.94250000000001,-54.58,0.5764067500000001,33.99
2021-07-08 18:43:46.320312500,-35.0,2.0,54.0,114.9428125,-51.135,0.5765268437500001,33.99
2021-07-08 18:43:46.328125000,-35.0,2.0,54.0,114.94312500000001,-47.69,0.5766469375000001,33.99
2021-07-08 18:43:46.335937500,-35.0,2.0,54.0,114.9434375,-42.705,0.5767670312500001,33.99
2021-07-08 18:43:46.343750000,-35.0,2.0,54.0,114.94375000000001,-37.72,0.5768871250000001,33.99
2021-07-08 18:43:46.351562500,-35.0,2.0,54.0,114.9440625,-31.77,0.57700721875,33.99
2021-07-08 18:43:46.359375000,-35.0,2.0,54.0,114.94437500000001,-25.82,0.5771273125,33.99
2021-07-08 18:43:46.367187500,-35.0,2.0,54.0,114.9446875,-19.57,0.57724740625,33.99
2021-07-08 18:43:46.375000000,-35.0,2.0,54.0,114.94500000000001,-13.32,0.5773675,33.99
2021-07-08 18:43:46.382812500,-35.0,2.0,54.0,114.9453125,-7.3950000000000005,0.57748759375,33.99
2021-07-08 18:43:46.390625000,-35.0,2.0,54.0,114.945625,-1.47,0.5776076875,33.99
2021-07-08 18:43:46.398437500,-35.0,2.0,54.0,114.9459375,3.6400000000000006,0.57772778125,33.99
2021-07-08 18:43:46.406250000,-35.0,2.0,54.0,114.94625,8.75,0.577847875,33.99
2021-07-08 18:43:46.414062500,-35.0,2.0,54.0,114.9465625,12.73,0.57796796875,33.99
2021-07-08 18:43:46.421875000,-35.0,2.0,54.0,114.946875,16.71,0.5780880625,33.99
2021-07-08 18:43:46.429687500,-35.0,2.0,54.0,114.9471875,19.405,0.57820815625,33.99
2021-07-08 18:43:46.437500000,-35.0,2.0,54.0,114.9475,22.1,0.57832825,33.99
2021-07-08 18:43:46.445312500,-35.0,2.0,54.0,114.9478125,23.495,0.5784483437500001,33.99
2021-07-08 18:43:46.453125000,-35.0,2.0,54.0,114.948125,24.89,0.5785684375000001,33.99
2021-07-08 18:43:46.460937500,-35.0,2.0,54.0,114.9484375,25.060000000000002,0.5786885312500001,33.99
2021-07-08 18:43:46.468750000,-35.0,2.0,54.0,114.94875,25.23,0.5788086250000001,33.99
2021-07-08 18:43:46.476562500,-35.0,2.0,54.0,114.9490625,24.355,0.5789287187500001,33.99
2021-07-08 18:43:46.484375000,-35.0,2.0,54.0,114.949375,23.48,0.5790488125000001,33.99
2021-07-08 18:43:46.492187500,-35.0,2.0,54.0,114.9496875,21.810000000000002,0.5791689062500001,33.99
2021-07-08 18:43:46.500000000,-35.0,2.0,54.0,114.95,20.14,0.579289,33.99
2021-07-08 18:43:46.507812500,-35.0,2.0,54.0,114.95031250000001,17.995,0.5791288750000001,33.99
2021-07-08 18:43:46.515625000,-35.0,2.0,54.0,114.950625,15.85,0.57896875,33.99
2021-07-08 18:43:46.523437500,-35.0,2.0,54.0,114.95093750000001,13.524999999999999,0.5788086250000001,33.99
2021-07-08 18:43:46.531250000,-35.0,2.0,54.0,114.95125,11.2,0.5786485,33.99
2021-07-08 18:43:46.539062500,-35.0,2.0,54.0,114.95156250000001,8.93,0.578488375,33.99
2021-07-08 18:43:46.546875000,-35.0,2.0,54.0,114.951875,6.66,0.5783282500000001,33.99
2021-07-08 18:43:46.554687500,-35.0,2.0,54.0,114.95218750000001,4.59,0.578168125,33.99
2021-07-08 18:43:46.562500000,-35.0,2.0,54.0,114.9525,2.52,0.5780080000000001,33.99
2021-07-08 18:43:46.570312500,-35.0,2.0,54.0,114.95281250000001,0.685,0.577847875,33.99
2021-07-08 18:43:46.578125000,-35.0,2.0,54.0,114.953125,-1.15,0.57768775,33.99
2021-07-08 18:43:46.585937500,-35.0,2.0,54.0,114.9534375,-2.755,0.5775276250000001,33.99
2021-07-08 18:43:46.593750000,-35.0,2.0,54.0,114.95375,-4.36,0.5773675,33.99
2021-07-08 18:43:46.601562500,-35.0,2.0,54.0,114.9540625,-5.77,0.5772073750000001,33.99
2021-07-08 18:43:46.609375000,-35.0,2.0,54.0,114.954375,-7.18,0.57704725,33.99
2021-07-08 18:43:46.617187500,-35.0,2.0,54.0,114.9546875,-8.415,0.5768871250000001,33.99
2021-07-08 18:43:46.625000000,-35.0,2.0,54.0,114.955,-9.65,0.576727,33.99
2021-07-08 18:43:46.632812500,-35.0,2.0,54.0,114.9553125,-10.735,0.576566875,33.99
2021-07-08 18:43:46.640625000,-35.0,2.0,54.0,114.955625,-11.82,0.5764067500000001,33.99
2021-07-08 18:43:46.648437500,-35.0,2.0,54.0,114.9559375,-12.77,0.576246625,33.99
2021-07-08 18:43:46.656250000,-35.0,2.0,54.0,114.95625,-13.72,0.5760865000000001,33.99
2021-07-08 18:43:46.664062500,-35.0,2.0,54.0,114.9565625,-14.545,0.575926375,33.99
2021-07-08 18:43:46.671875000,-35.0,2.0,54.0,114.956875,-15.37,0.57576625,33.99
2021-07-08 18:43:46.679687500,-35.0,2.0,54.0,114.9571875,-16.115,0.5756061250000001,33.99
2021-07-08 18:43:46.687500000,-35.0,2.0,54.0,114.9575,-16.86,0.575446,33.99
2021-07-08 18:43:46.695312500,-35.0,2.0,54.0,114.9578125,-17.63,0.5752858750000001,33.99
2021-07-08 18:43:46.703125000,-35.0,2.0,54.0,114.958125,-18.4,0.57512575,33.99
2021-07-08 18:43:46.710937500,-35.0,2.0,54.0,114.9584375,-19.365,0.574965625,33.99
2021-07-08 18:43:46.718750000,-35.0,2.0,54.0,114.95875,-20.33,0.5748055000000001,33.99
2021-07-08 18:43:46.726562500,-35.0,2.0,54.0,114.9590625,-21.75,0.574645375,33.99
2021-07-08 18:43:46.734375000,-35.0,2.0,54.0,114.959375,-23.17,0.5744852500000001,33.99
2021-07-08 18:43:46.742187500,-35.0,2.0,54.0,114.9596875,-25.275,0.574325125,33.99
2021-07-08 18:43:46.750000000,-35.0,2.0,54.0,114.96000000000001,-27.38,0.574165,33.99
2021-07-08 18:43:46.757812500,-35.0,2.0,54.0,114.9603125,-30.284999999999997,0.5742450625000001,33.99
2021-07-08 18:43:46.765625000,-35.0,2.0,54.0,114.96062500000001,-33.19,0.574325125,33.99
2021-07-08 18:43:46.773437500,-35.0,2.0,54.0,114.9609375,-36.724999999999994,0.5744051875,33.99
2021-07-08 18:43:46.781250000,-35.0,2.0,54.0,114.96125,-40.26,0.5744852500000001,33.99
2021-07-08 18:43:46.789062500,-35.0,2.0,54.0,114.9615625,-43.93,0.5745653125,33.99
2021-07-08 18:43:46.796875000,-35.0,2.0,54.0,114.961875,-47.6,0.574645375,33.99
2021-07-08 18:43:46.804687500,-35.0,2.0,54.0,114.9621875,-50.629999999999995,0.5747254375,33.99
2021-07-08 18:43:46.812500000,-35.0,2.0,54.0,114.9625,-53.66,0.5748055000000001,33.99
2021-07-08 18:43:46.820312500,-35.0,2.0,54.0,114.9628125,-55.239999999999995,0.5748855625,33.99
2021-07-08 18:43:46.828125000,-35.0,2.0,54.0,114.963125,-56.82,0.574965625,33.99
2021-07-08 18:43:46.835937500,-35.0,2.0,54.0,114.9634375,-56.35,0.5750456875000001,33.99
2021-07-08 18:43:46.843750000,-35.0,2.0,54.0,114.96375,-55.88,0.57512575,33.99
2021-07-08 18:43:46.851562500,-35.0,2.0,54.0,114.9640625,-53.19,0.5752058125,33.99
2021-07-08 18:43:46.859375000,-35.0,2.0,54.0,114.964375,-50.5,0.5752858750000001,33.99
2021-07-08 18:43:46.867187500,-35.0,2.0,54.0,114.9646875,-45.875,0.5753659375,33.99
2021-07-08 18:43:46.875000000,-35.0,2.0,54.0,114.965,-41.25,0.575446,33.99
2021-07-08 18:43:46.882812500,-35.0,2.0,54.0,114.9653125,-35.305,0.5755260625,33.99
2021-07-08 18:43:46.890625000,-35.0,2.0,54.0,114.965625,-29.36,0.575606125,33.99
2021-07-08 18:43:46.898437500,-35.0,2.0,54.0,114.9659375,-22.84,0.5756861875,33.99
2021-07-08 18:43:46.906250000,-35.0,2.0,54.0,114.96625,-16.32,0.57576625,33.99
2021-07-08 18:43:46.914062500,-35.0,2.0,54.0,114.9665625,-9.905000000000001,0.5758463125,33.99
2021-07-08 18:43:46.921875000,-35.0,2.0,54.0,114.966875,-3.49,0.575926375,33.99
2021-07-08 18:43:46.929687500,-35.0,2.0,54.0,114.9671875,2.335,0.5760064375,33.99
2021-07-08 18:43:46.937500000,-35.0,2.0,54.0,114.9675,8.16,0.5760865,33.99
2021-07-08 18:43:46.945312500,-35.0,2.0,54.0,114.9678125,13.11,0.5761665625,33.99
2021-07-08 18:43:46.953125000,-35.0,2.0,54.0,114.968125,18.06,0.576246625,33.99
2021-07-08 18:43:46.960937500,-35.0,2.0,54.0,114.9684375,22.005,0.5763266875,33.99
2021-07-08 18:43:46.968750000,-35.0,2.0,54.0,114.96875,25.95,0.57640675,33.99
2021-07-08 18:43:46.976562500,-35.0,2.0,54.0,114.96906249999999,28.84,0.5764868125,33.99
2021-07-08 18:43:46.984375000,-35.0,2.0,54.0,114.969375,31.73,0.576566875,33.99
2021-07-08 18:43:46.992187500,-35.0,2.0,54.0,114.96968749999999,33.525,0.5766469375,33.99
2021-07-08 18:43:47.000000000,-35.0,2.0,54.0,114.97,35.32,0.576727,33.99
2021-07-08 18:43:47.007812500,-35.0,2.0,54.0,114.96968749999999,36.0,0.5766469375,33.9903125
2021-07-08 18:43:47.015625000,-35.0,2.0,54.0,114.969375,36.68,0.576566875,33.990625
2021-07-08 18:43:47.023437500,-35.0,2.0,54.0,114.96906249999999,36.295,0.5764868125,33.9909375
2021-07-08 18:43:47.031250000,-35.0,2.0,54.0,114.96875,35.91,0.57640675,33.99125
2021-07-08 18:43:47.039062500,-35.0,2.0,54.0,114.9684375,34.599999999999994,0.5763266875,33.9915625
2021-07-08 18:43:47.046875000,-35.0,2.0,54.0,114.968125,33.29,0.576246625,33.991875
2021-07-08 18:43:47.054687500,-35.0,2.0,54.0,114.9678125,31.335,0.5761665625,33.9921875
2021-07-08 18:43:47.062500000,-35.0,2.0,54.0,114.9675,29.38,0.5760865,33.9925
2021-07-08 18:43:47.070312500,-35.0,2.0,54.0,114.9671875,27.13,0.5760064375,33.9928125
2021-07-08 18:43:47.078125000,-35.0,2.0,54.0,114.966875,24.88,0.575926375,33.993125
2021-07-08 18:43:47.085937500,-35.0,2.0,54.0,114.9665625,22.64,0.5758463125,33.9934375
2021-07-08 18:43:47.093750000,-35.0,2.0,54.0,114.96625,20.4,0.57576625,33.99375
2021-07-08 18:43:47.101562500,-35.0,2.0,54.0,114.9659375,18.325,0.5756861875,33.9940625
2021-07-08 18:43:47.109375000,-35.0,2.0,54.0,114.965625,16.25,0.575606125,33.994375
2021-07-08 18:43:47.117187500,-35.0,2.0,54.0,114.9653125,14.344999999999999,0.5755260625,33.9946875
2021-07-08 18:43:47.125000000,-35.0,2.0,54.0,114.965,12.44,0.575446,33.995000000000005
2021-07-08 18:43:47.132812500,-35.0,2.0,54.0,114.9646875,10.594999999999999,0.5753659375,33.995312500000004
2021-07-08 18:43:47.140625000,-35.0,2.0,54.0,114.964375,8.75,0.5752858750000001,33.995625000000004
2021-07-08 18:43:47.148437500,-35.0,2.0,54.0,114.9640625,6.855,0.5752058125,33.995937500000004
2021-07-08 18:43:47.156250000,-35.0,2.0,54.0,114.96375,4.96,0.57512575,33.99625
2021-07-08 18:43:47.164062500,-34.75,2.0,54.0,114.9634375,3.04,0.5750456875000001,33.9965625
2021-07-08 18:43:47.171875000,-34.5,2.0,54.0,114.963125,1.12,0.574965625,33.996875
2021-07-08 18:43:47.179687500,-34.25,2.0,54.0,114.9628125,-0.6699999999999999,0.5748855625,33.9971875
2021-07-08 18:43:47.187500000,-34.0,2.0,54.0,114.9625,-2.46,0.5748055000000001,33.9975
2021-07-08 18:43:47.195312500,-34.25,2.0,54.0,114.9621875,-3.95,0.5747254375,33.9978125
2021-07-08 18:43:47.203125000,-34.5,2.0,54.0,114.961875,-5.44,0.574645375,33.998125
2021-07-08 18:43:47.210937500,-34.75,2.0,54.0,114.9615625,-6.555,0.5745653125,33.9984375
2021-07-08 18:43:47.218750000,-35.0,2.0,54.0,114.96125,-7.67,0.5744852500000001,33.99875
2021-07-08 18:43:47.226562500,-35.0,2.0,54.0,114.9609375,-8.54,0.5744051875,33.9990625
2021-07-08 18:43:47.234375000,-35.0,2.0,54.0,114.96062500000001,-9.41,0.574325125,33.999375
2021-07-08 18:43:47.242187500,-35.0,2.0,54.0,114.9603125,-10.34,0.5742450625000001,33.9996875
2021-07-08 18:43:47.250000000,-35.0,2.0,54.0,114.96000000000001,-11.27,0.574165,34.0
2021-07-08 18:43:47.257812500,-35.0,2.0,54.0,114.9596875,-12.635,0.5741249687500001,34.0
2021-07-08 18:43:47.265625000,-35.0,2.0,54.0,114.959375,-14.0,0.5740849375,34.0
2021-07-08 18:43:47.273437500,-35.0,2.0,54.0,114.9590625,-16.09,0.57404490625,34.0
2021-07-08 18:43:47.281250000,-35.0,2.0,54.0,114.95875,-18.18,0.574004875,34.0
2021-07-08 18:43:47.289062500,-35.0,2.0,54.0,114.9584375,-21.07,0.57396484375,34.0
2021-07-08 18:43:47.296875000,-35.0,2.0,54.0,114.958125,-23.96,0.5739248125,34.0
2021-07-08 18:43:47.304687500,-35.0,2.0,54.0,114.9578125,-27.465,0.57388478125,34.0
2021-07-08 18:43:47.312500000,-35.0,2.0,54.0,114.9575,-30.97,0.57384475,34.0
2021-07-08 18:43:47.320312500,-35.0,2.0,54.0,114.9571875,-34.64,0.57380471875,34.0
2021-07-08 18:43:47.328125000,-35.0,2.0,54.0,114.956875,-38.31,0.5737646875,34.0
2021-07-08 18:43:47.335937500,-35.0,2.0,54.0,114.9565625,-41.53,0.57372465625,34.0
2021-07-08 18:43:47.343750000,-35.0,2.0,54.0,114.95625,-44.75,0.5736846250000001,34.0
2021-07-08 18:43:47.351562500,-35.0,2.0,54.0,114.9559375,-46.864999999999995,0.57364459375,34.0
2021-07-08 18:43:47.359375000,-35.0,2.0,54.0,114.955625,-48.98,0.5736045625,34.0
2021-07-08 18:43:47.367187500,-35.0,2.0,54.0,114.9553125,-49.43,0.57356453125,34.0
2021-07-08 18:43:47.375000000,-35.0,2.0,54.0,114.955,-49.88,0.5735245,34.0
2021-07-08 18:43:47.382812500,-35.0,2.0,54.0,114.9546875,-48.355000000000004,0.57348446875,34.0
2021-07-08 18:43:47.390625000,-35.0,2.0,54.0,114.954375,-46.83,0.5734444375,34.0
2021-07-08 18:43:47.398437500,-35.0,2.0,54.0,114.9540625,-43.355000000000004,0.57340440625,34.0
2021-07-08 18:43:47.406250000,-35.0,2.0,54.0,114.95375,-39.88,0.5733643749999999,34.0
2021-07-08 18:43:47.414062500,-35.0,2.0,54.0,114.9534375,-34.815,0.57332434375,34.0
2021-07-08 18:43:47.421875000,-35.0,2.0,54.0,114.953125,-29.75,0.5732843125,34.0
2021-07-08 18:43:47.429687500,-35.0,2.0,54.0,114.95281250000001,-23.675,0.5732442812499999,34.0
2021-07-08 18:43:47.437500000,-35.0,2.0,54.0,114.9525,-17.6,0.57320425,34.0
2021-07-08 18:43:47.445312500,-35.0,2.0,54.0,114.95218750000001,-11.175,0.57316421875,34.0
2021-07-08 18:43:47.453125000,-35.0,2.0,54.0,114.951875,-4.75,0.5731241874999999,34.0
2021-07-08 18:43:47.460937500,-35.0,2.0,54.0,114.95156250000001,1.4399999999999995,0.57308415625,34.0
2021-07-08 18:43:47.468750000,-35.0,2.0,54.0,114.95125,7.63,0.573044125,34.0
2021-07-08 18:43:47.476562500,-35.0,2.0,54.0,114.95093750000001,13.155000000000001,0.5730040937499999,34.0
2021-07-08 18:43:47.484375000,-35.0,2.0,54.0,114.950625,18.68,0.5729640625,34.0
2021-07-08 18:43:47.492187500,-35.0,2.0,54.0,114.95031250000001,23.3,0.5729240312499999,34.0
2021-07-08 18:43:47.500000000,-35.0,2.0,54.0,114.95,27.92,0.572884,34.0
2021-07-08 18:43:47.507812500,-35.0,2.0,54.0,114.9496875,31.485,0.57284396875,34.0
2021-07-08 18:43:47.515625000,-35.0,2.0,54.0,114.949375,35.05,0.5728039374999999,34.0
2021-07-08 18:43:47.523437500,-35.0,2.0,54.0,114.9490625,37.51,0.57276390625,34.0
2021-07-08 18:43:47.531250000,-35.0,2.0,54.0,114.94875,39.97,0.572723875,34.0
2021-07-08 18:43:47.539062500,-35.0,2.0,54.0,114.9484375,41.285,0.5726838437499999,34.0
2021-07-08 18:43:47.546875000,-35.0,2.0,54.0,114.948125,42.6,0.5726438125,34.0
2021-07-08 18:43:47.554687500,-35.0,2.0,54.0,114.9478125,42.8,0.57260378125,34.0
2021-07-08 18:43:47.562500000,-35.0,2.0,54.0,114.9475,43.0,0.5725637499999999,34.0
2021-07-08 18:43:47.570312500,-35.0,2.0,54.0,114.9471875,42.195,0.57252371875,34.0
2021-07-08 18:43:47.578125000,-35.0,2.0,54.0,114.946875,41.39,0.5724836875,34.0
2021-07-08 18:43:47.585937500,-35.0,2.0,54.0,114.9465625,39.845,0.5724436562499999,34.0
2021-07-08 18:43:47.593750000,-35.0,2.0,54.0,114.94625,38.3,0.572403625,34.0
2021-07-08 18:43:47.601562500,-35.0,2.0,54.0,114.9459375,36.34,0.57236359375,34.0
2021-07-08 18:43:47.609375000,-35.0,2.0,54.0,114.945625,34.38,0.5723235624999999,34.0
2021-07-08 18:43:47.617187500,-35.0,2.0,54.0,114.9453125,32.385000000000005,0.57228353125,34.0
2021-07-08 18:43:47.625000000,-35.0,2.0,54.0,114.94500000000001,30.39,0.5722434999999999,34.0
2021-07-08 18:43:47.632812500,-35.0,2.0,54.0,114.9446875,28.634999999999998,0.5722034687499999,34.0
2021-07-08 18:43:47.640625000,-35.0,2.0,54.0,114.94437500000001,26.88,0.5721634375,34.0
2021-07-08 18:43:47.648437500,-35.0,2.0,54.0,114.9440625,25.5,0.5721234062499999,34.0
2021-07-08 18:43:47.656250000,-35.0,2.0,54.0,114.94375000000001,24.12,0.572083375,34.0
2021-07-08 18:43:47.664062500,-35.0,2.0,54.0,114.9434375,23.085,0.57204334375,34.0
2021-07-08 18:43:47.671875000,-35.0,2.0,54.0,114.94312500000001,22.05,0.5720033124999999,34.0
2021-07-08 18:43:47.679687500,-35.0,2.0,54.0,114.9428125,21.195,0.57196328125,34.0
2021-07-08 18:43:47.687500000,-35.0,2.0,54.0,114.94250000000001,20.34,0.57192325,34.0
2021-07-08 18:43:47.695312500,-35.0,2.0,54.0,114.9421875,19.485,0.5718832187499999,34.0
2021-07-08 18:43:47.703125000,-35.0,2.0,54.0,114.94187500000001,18.63,0.5718431875,34.0
2021-07-08 18:43:47.710937500,-35.0,2.0,54.0,114.9415625,17.655,0.57180315625,34.0
2021-07-08 18:43:47.718750000,-35.0,2.0,54.0,114.94125000000001,16.68,0.5717631249999999,34.0
2021-07-08 18:43:47.726562500,-34.75,2.0,54.0,114.9409375,15.530000000000001,0.57172309375,34.0
2021-07-08 18:43:47.734375000,-34.5,2.0,54.0,114.94062500000001,14.38,0.5716830625,34.0
2021-07-08 18:43:47.742187500,-34.25,2.0,54.0,114.9403125,13.07,0.5716430312499999,34.0
2021-07-08 18:43:47.750000000,-34.0,2.0,54.0,114.94,11.76,0.571603,34.0
2021-07-08 18:43:47.757812500,-34.25,2.0,54.0,114.9396875,10.295,0.571603,34.0
2021-07-08 18:43:47.765625000,-34.5,2.0,54.0,114.939375,8.83,0.571603,34.0
2021-07-08 18:43:47.773437500,-34.75,2.0,54.0,114.9390625,7.205,0.571603,34.0
2021-07-08 18:43:47.781250000,-35.0,2.0,54.0,114.93875,5.58,0.571603,34.0
2021-07-08 18:43:47.789062500,-35.0,2.0,54.0,114.9384375,3.735,0.571603,34.0
2021-07-08 18:43:47.796875000,-35.0,2.0,54.0,114.938125,1.89,0.571603,34.0
2021-07-08 18:43:47.804687500,-35.0,2.0,54.0,114.9378125,-0.24499999999999988,0.571603,34.0
2021-07-08 18:43:47.812500000,-35.0,2.0,54.0,114.9375,-2.38,0.571603,34.0
2021-07-08 18:43:47.820312500,-35.0,2.0,54.0,114.93718750000001,-4.885,0.571603,34.0
2021-07-08 18:43:47.828125000,-35.0,2.0,54.0,114.936875,-7.39,0.571603,34.0
2021-07-08 18:43:47.835937500,-35.0,2.0,54.0,114.93656250000001,-10.33,0.571603,34.0
2021-07-08 18:43:47.843750000,-35.0,2.0,54.0,114.93625,-13.27,0.571603,34.0
2021-07-08 18:43:47.851562500,-35.0,2.0,54.0,114.93593750000001,-16.615000000000002,0.571603,34.0
2021-07-08 18:43:47.859375000,-35.0,2.0,54.0,114.935625,-19.96,0.571603,34.0
2021-07-08 18:43:47.867187500,-35.0,2.0,54.0,114.93531250000001,-23.560000000000002,0.571603,34.0
2021-07-08 18:43:47.875000000,-35.0,2.0,54.0,114.935,-27.16,0.571603,34.0
2021-07-08 18:43:47.882812500,-35.0,2.0,54.0,114.93468750000001,-30.68,0.571603,34.0
2021-07-08 18:43:47.890625000,-35.0,2.0,54.0,114.934375,-34.2,0.571603,34.0
2021-07-08 18:43:47.898437500,-35.0,2.0,54.0,114.93406250000001,-37.125,0.571603,34.0
2021-07-08 18:43:47.906250000,-35.0,2.0,54.0,114.93375,-40.05,0.571603,34.0
2021-07-08 18:43:47.914062500,-35.0,2.0,54.0,114.93343750000001,-41.8,0.571603,34.0
2021-07-08 18:43:47.921875000,-35.0,2.0,54.0,114.933125,-43.55,0.571603,34.0
2021-07-08 18:43:47.929687500,-35.0,2.0,54.0,114.93281250000001,-43.65,0.571603,34.0
2021-07-08 18:43:47.937500000,-35.0,2.0,54.0,114.9325,-43.75,0.571603,34.0
2021-07-08 18:43:47.945312500,-35.0,2.0,54.0,114.93218750000001,-41.975,0.571603,34.0
2021-07-08 18:43:47.953125000,-35.0,2.0,54.0,114.931875,-40.2,0.571603,34.0
2021-07-08 18:43:47.960937500,-35.0,2.0,54.0,114.93156250000001,-36.665000000000006,0.571603,34.0
2021-07-08 18:43:47.968750000,-35.0,2.0,54.0,114.93125,-33.13,0.571603,34.0
2021-07-08 18:43:47.976562500,-35.0,2.0,54.0,114.93093750000001,-28.21,0.571603,34.0
2021-07-08 18:43:47.984375000,-35.0,2.0,54.0,114.930625,-23.29,0.571603,34.0
2021-07-08 18:43:47.992187500,-35.0,2.0,54.0,114.93031250000001,-17.505,0.571603,34.0
2021-07-08 18:43:48.000000000,-35.0,2.0,54.0,114.93,-11.72,0.571603,34.0
2021-07-08 18:43:48.007812500,-35.0,2.0,53.75,114.92921875,-5.615,0.5716430312499999,33.9996875
2021-07-08 18:43:48.015625000,-35.0,2.0,53.5,114.9284375,0.49,0.5716830625,33.999375
2021-07-08 18:43:48.023437500,-35.0,2.0,53.25,114.92765625000001,6.45,0.57172309375,33.9990625
2021-07-08 18:43:48.031250000,-35.0,2.0,53.0,114.92687500000001,12.41,0.5717631249999999,33.99875
2021-07-08 18:43:48.039062500,-35.0,2.0,53.25,114.92609375,17.810000000000002,0.57180315625,33.9984375
2021-07-08 18:43:48.046875000,-35.0,2.0,53.5,114.9253125,23.21,0.5718431875,33.998125
2021-07-08 18:43:48.054687500,-35.0,2.0,53.75,114.92453125,27.695,0.5718832187499999,33.9978125
2021-07-08 18:43:48.062500000,-35.0,2.0,54.0,114.92375000000001,32.18,0.57192325,33.9975
2021-07-08 18:43:48.070312500,-35.0,2.0,54.0,114.92296875000001,35.45,0.57196328125,33.9971875
2021-07-08 18:43:48.078125000,-35.0,2.0,54.0,114.9221875,38.72,0.5720033124999999,33.996875
2021-07-08 18:43:48.085937500,-35.0,2.0,54.0,114.92140625,40.59,0.57204334375,33.9965625
2021-07-08 18:43:48.093750000,-35.0,2.0,54.0,114.920625,42.46,0.572083375,33.99625
2021-07-08 18:43:48.101562500,-35.0,2.0,53.75,114.91984375000001,42.89,0.5721234062499999,33.995937500000004
2021-07-08 18:43:48.109375000,-35.0,2.0,53.5,114.91906250000001,43.32,0.5721634375,33.995625000000004
2021-07-08 18:43:48.117187500,-35.0,2.0,53.25,114.91828125,42.455,0.5722034687499999,33.995312500000004
2021-07-08 18:43:48.125000000,-35.0,2.0,53.0,114.9175,41.59,0.5722434999999999,33.995000000000005
2021-07-08 18:43:48.132812500,-35.0,2.0,53.25,114.91671875,39.760000000000005,0.57228353125,33.9946875
2021-07-08 18:43:48.140625000,-35.0,2.0,53.5,114.91593750000001,37.93,0.5723235624999999,33.994375
2021-07-08 18:43:48.148437500,-35.0,2.0,53.75,114.91515625000001,35.525,0.57236359375,33.9940625
2021-07-08 18:43:48.156250000,-35.0,2.0,54.0,114.914375,33.12,0.572403625,33.99375
2021-07-08 18:43:48.164062500,-35.0,2.0,54.0,114.91359375,30.549999999999997,0.5724436562499999,33.9934375
2021-07-08 18:43:48.171875000,-35.0,2.0,54.0,114.9128125,27.98,0.5724836875,33.993125
2021-07-08 18:43:48.179687500,-35.0,2.0,54.0,114.91203125,25.55,0.57252371875,33.9928125
2021-07-08 18:43:48.187500000,-35.0,2.0,54.0,114.91125000000001,23.12,0.5725637499999999,33.9925
2021-07-08 18:43:48.195312500,-35.0,2.0,54.0,114.91046875,21.0,0.57260378125,33.9921875
2021-07-08 18:43:48.203125000,-35.0,2.0,54.0,114.9096875,18.88,0.5726438125,33.991875
2021-07-08 18:43:48.210937500,-35.0,2.0,54.0,114.90890625,17.115,0.5726838437499999,33.9915625
2021-07-08 18:43:48.218750000,-35.0,2.0,54.0,114.908125,15.35,0.572723875,33.99125
2021-07-08 18:43:48.226562500,-35.0,2.0,54.0,114.90734375000001,13.855,0.57276390625,33.9909375
2021-07-08 18:43:48.234375000,-35.0,2.0,54.0,114.9065625,12.36,0.5728039374999999,33.990625
2021-07-08 18:43:48.242187500,-35.0,2.0,54.0,114.90578125,10.989999999999998,0.57284396875,33.9903125
2021-07-08 18:43:48.250000000,-35.0,2.0,54.0,114.905,9.62,0.572884,33.99
2021-07-08 18:43:48.257812500,-35.0,2.0,54.0,114.90421875,8.225,0.572723875,33.99
2021-07-08 18:43:48.265625000,-35.0,2.0,54.0,114.90343750000001,6.83,0.5725637499999999,33.99
2021-07-08 18:43:48.273437500,-35.0,2.0,54.0,114.90265625,5.32,0.572403625,33.99
2021-07-08 18:43:48.281250000,-35.0,2.0,54.0,114.901875,3.81,0.5722434999999999,33.99
2021-07-08 18:43:48.289062500,-35.0,2.0,54.0,114.90109375,2.16,0.572083375,33.99
2021-07-08 18:43:48.296875000,-35.0,2.0,54.0,114.9003125,0.51,0.57192325,33.99
2021-07-08 18:43:48.304687500,-35.0,2.0,54.0,114.89953125000001,-1.22,0.5717631249999999,33.99
2021-07-08 18:43:48.312500000,-35.0,2.0,54.0,114.89875,-2.95,0.571603,33.99
2021-07-08 18:43:48.320312500,-35.0,2.0,53.75,114.89796875,-4.6850000000000005,0.571442875,33.99
2021-07-08 18:43:48.328125000,-35.0,2.0,53.5,114.8971875,-6.42,0.57128275,33.99
2021-07-08 18:43:48.335937500,-35.0,2.0,53.25,114.89640625,-8.129999999999999,0.571122625,33.99
2021-07-08 18:43:48.343750000,-35.0,2.0,53.0,114.89562500000001,-9.84,0.5709625,33.99
2021-07-08 18:43:48.351562500,-35.0,2.0,53.25,114.89484375,-11.559999999999999,0.570802375,33.99
2021-07-08 18:43:48.359375000,-35.0,2.0,53.5,114.8940625,-13.28,0.57064225,33.99
2021-07-08 18:43:48.367187500,-35.0,2.0,53.75,114.89328125,-15.165,0.570482125,33.99
2021-07-08 18:43:48.375000000,-35.0,2.0,54.0,114.8925,-17.05,0.570322,33.99
2021-07-08 18:43:48.382812500,-35.0,2.0,54.0,114.89171875000001,-19.305,0.570161875,33.99
2021-07-08 18:43:48.390625000,-35.0,2.0,54.0,114.8909375,-21.56,0.57000175,33.99
2021-07-08 18:43:48.398437500,-35.0,2.0,54.0,114.89015625,-24.35,0.569841625,33.99
2021-07-08 18:43:48.406250000,-35.0,2.0,54.0,114.889375,-27.14,0.5696815,33.99
2021-07-08 18:43:48.414062500,-35.0,2.0,54.0,114.88859375,-30.485,0.569521375,33.99
2021-07-08 18:43:48.421875000,-35.0,2.0,54.0,114.88781250000001,-33.83,0.56936125,33.99
2021-07-08 18:43:48.429687500,-35.0,2.0,54.0,114.88703125,-37.489999999999995,0.569201125,33.99
2021-07-08 18:43:48.437500000,-35.0,2.0,54.0,114.88625,-41.15,0.569041,33.99
2021-07-08 18:43:48.445312500,-35.0,2.0,54.0,114.88546875,-44.614999999999995,0.5688808750000001,33.99
2021-07-08 18:43:48.453125000,-35.0,2.0,54.0,114.8846875,-48.08,0.56872075,33.99
2021-07-08 18:43:48.460937500,-35.0,2.0,54.0,114.88390625000001,-50.655,0.568560625,33.99
2021-07-08 18:43:48.468750000,-35.0,2.0,54.0,114.883125,-53.23,0.5684005000000001,33.99
2021-07-08 18:43:48.476562500,-35.0,2.0,54.0,114.88234375,-54.209999999999994,0.568240375,33.99
2021-07-08 18:43:48.484375000,-35.0,2.0,54.0,114.8815625,-55.19,0.5680802500000001,33.99
2021-07-08 18:43:48.492187500,-35.0,2.0,54.0,114.88078125,-54.09,0.567920125,33.99
2021-07-08 18:43:48.500000000,-35.0,2.0,54.0,114.88,-52.99,0.56776,33.99
2021-07-08 18:43:48.507812500,-35.0,2.0,54.0,114.87921875,-49.69,0.5678400625000001,33.99
2021-07-08 18:43:48.515625000,-35.0,2.0,54.0,114.8784375,-46.39,0.567920125,33.99
2021-07-08 18:43:48.523437500,-35.0,2.0,54.0,114.87765625,-41.225,0.5680001875,33.99
2021-07-08 18:43:48.531250000,-35.0,2.0,54.0,114.876875,-36.06,0.5680802500000001,33.99
2021-07-08 18:43:48.539062500,-35.0,2.0,54.0,114.87609375,-29.68,0.5681603125,33.99
2021-07-08 18:43:48.546875000,-35.0,2.0,54.0,114.8753125,-23.3,0.568240375,33.99
2021-07-08 18:43:48.554687500,-35.0,2.0,54.0,114.87453125,-16.52,0.5683204375,33.99
2021-07-08 18:43:48.562500000,-35.0,2.0,54.0,114.87375,-9.74,0.5684005000000001,33.99
2021-07-08 18:43:48.570312500,-35.0,2.0,54.0,114.87296875,-3.3150000000000004,0.5684805625,33.99
2021-07-08 18:43:48.578125000,-35.0,2.0,54.0,114.8721875,3.11,0.568560625,33.99
2021-07-08 18:43:48.585937500,-35.0,2.0,54.0,114.87140625,8.620000000000001,0.5686406875000001,33.99
2021-07-08 18:43:48.593750000,-35.0,2.0,54.0,114.870625,14.13,0.56872075,33.99
2021-07-08 18:43:48.601562500,-35.0,2.0,54.0,114.86984375,18.405,0.5688008125,33.99
2021-07-08 18:43:48.609375000,-35.0,2.0,54.0,114.8690625,22.68,0.5688808750000001,33.99
2021-07-08 18:43:48.617187500,-35.0,2.0,54.0,114.86828125,25.6,0.5689609375,33.99
2021-07-08 18:43:48.625000000,-35.0,2.0,54.0,114.8675,28.52,0.569041,33.99
2021-07-08 18:43:48.632812500,-35.0,2.0,54.0,114.86671875,30.07,0.5691210625,33.99
2021-07-08 18:43:48.640625000,-35.0,2.0,54.0,114.8659375,31.62,0.569201125,33.99
2021-07-08 18:43:48.648437500,-35.0,2.0,54.0,114.86515625,31.85,0.5692811875,33.99
2021-07-08 18:43:48.656250000,-35.0,2.0,54.0,114.864375,32.08,0.56936125,33.99
2021-07-08 18:43:48.664062500,-35.0,2.0,54.0,114.86359375,31.104999999999997,0.5694413125,33.99
2021-07-08 18:43:48.671875000,-35.0,2.0,54.0,114.8628125,30.13,0.569521375,33.99
2021-07-08 18:43:48.679687500,-35.0,2.0,54.0,114.86203125,28.14,0.5696014375,33.99
2021-07-08 18:43:48.687500000,-35.0,2.0,54.0,114.86125,26.15,0.5696815,33.99
2021-07-08 18:43:48.695312500,-35.0,2.0,54.0,114.86046875,23.415,0.5697615625,33.99
2021-07-08 18:43:48.703125000,-35.0,2.0,54.0,114.8596875,20.68,0.569841625,33.99
2021-07-08 18:43:48.710937500,-35.0,2.0,54.0,114.85890625,17.57,0.5699216875,33.99
2021-07-08 18:43:48.718750000,-35.0,2.0,54.0,114.858125,14.46,0.57000175,33.99
2021-07-08 18:43:48.726562500,-35.0,2.0,54.0,114.85734375,11.38,0.5700818125,33.99
2021-07-08 18:43:48.734375000,-35.0,2.0,54.0,114.8565625,8.3,0.570161875,33.99
2021-07-08 18:43:48.742187500,-35.0,2.0,54.0,114.85578125,5.585000000000001,0.5702419375,33.99
2021-07-08 18:43:48.750000000,-35.0,2.0,54.0,114.855,2.87,0.570322,33.99
2021-07-08 18:43:48.757812500,-35.0,2.0,54.0,114.85421875,0.7400000000000002,0.57028196875,33.99
2021-07-08 18:43:48.765625000,-35.0,2.0,54.0,114.8534375,-1.39,0.5702419375,33.99
2021-07-08 18:43:48.773437500,-35.0,2.0,54.0,114.85265625,-2.9350000000000005,0.57020190625,33.99
2021-07-08 18:43:48.781250000,-35.0,2.0,54.0,114.851875,-4.48,0.570161875,33.99
2021-07-08 18:43:48.789062500,-35.0,2.0,54.0,114.85109375,-5.565,0.57012184375,33.99
2021-07-08 18:43:48.796875000,-35.0,2.0,54.0,114.8503125,-6.65,0.5700818125,33.99
2021-07-08 18:43:48.804687500,-35.0,2.0,54.0,114.84953125,-7.51,0.57004178125,33.99
2021-07-08 18:43:48.812500000,-35.0,2.0,54.0,114.84875,-8.37,0.57000175,33.99
2021-07-08 18:43:48.820312500,-35.0,2.0,54.0,114.84796875,-9.235,0.56996171875,33.99
2021-07-08 18:43:48.828125000,-35.0,2.0,54.0,114.8471875,-10.1,0.5699216875,33.99
2021-07-08 18:43:48.835937500,-35.0,2.0,54.0,114.84640625,-11.135,0.56988165625,33.99
2021-07-08 18:43:48.843750000,-35.0,2.0,54.0,114.845625,-12.17,0.569841625,33.99
2021-07-08 18:43:48.851562500,-35.0,2.0,54.0,114.84484375,-13.42,0.5698015937500001,33.99
2021-07-08 18:43:48.859375000,-35.0,2.0,54.0,114.84406249999999,-14.67,0.5697615625,33.99
2021-07-08 18:43:48.867187500,-35.0,2.0,54.0,114.84328125,-16.09,0.56972153125,33.99
2021-07-08 18:43:48.875000000,-35.0,2.0,54.0,114.8425,-17.51,0.5696815,33.99
2021-07-08 18:43:48.882812500,-35.0,2.0,54.0,114.84171875,-19.065,0.56964146875,33.99
2021-07-08 18:43:48.890625000,-35.0,2.0,54.0,114.8409375,-20.62,0.5696014375,33.99
2021-07-08 18:43:48.898437500,-35.0,2.0,54.0,114.84015624999999,-22.35,0.56956140625,33.99
2021-07-08 18:43:48.906250000,-35.0,2.0,54.0,114.839375,-24.08,0.569521375,33.99
2021-07-08 18:43:48.914062500,-35.0,2.0,54.0,114.83859375,-26.15,0.56948134375,33.99
2021-07-08 18:43:48.921875000,-35.0,2.0,54.0,114.8378125,-28.22,0.5694413125,33.99
2021-07-08 18:43:48.929687500,-35.0,2.0,54.0,114.83703125,-30.86,0.56940128125,33.99
2021-07-08 18:43:48.937500000,-35.0,2.0,54.0,114.83624999999999,-33.5,0.56936125,33.99
2021-07-08 18:43:48.945312500,-35.0,2.0,54.0,114.83546875,-36.825,0.56932121875,33.99
2021-07-08 18:43:48.953125000,-35.0,2.0,54.0,114.8346875,-40.15,0.5692811875,33.99
2021-07-08 18:43:48.960937500,-35.0,2.0,54.0,114.83390625,-44.04,0.56924115625,33.99
2021-07-08 18:43:48.968750000,-35.0,2.0,54.0,114.833125,-47.93,0.569201125,33.99
2021-07-08 18:43:48.976562500,-35.0,2.0,54.0,114.83234374999999,-51.879999999999995,0.56916109375,33.99
2021-07-08 18:43:48.984375000,-35.0,2.0,54.0,114.8315625,-55.83,0.5691210625,33.99
2021-07-08 18:43:48.992187500,-35.0,2.0,54.0,114.83078125,-59.035,0.56908103125,33.99
2021-07-08 18:43:49.000000000,-35.0,2.0,54.0,114.83,-62.24,0.569041,33.99
2021-07-08 18:43:49.007812500,-35.0,2.0,54.0,114.829140625,-63.83500000000001,0.569041,33.99
2021-07-08 18:43:49.015625000,-35.0,2.0,54.0,114.82828125,-65.43,0.569041,33.99
2021-07-08 18:43:49.023437500,-35.0,2.0,54.0,114.827421875,-64.775,0.569041,33.99
2021-07-08 18:43:49.031250000,-35.0,2.0,54.0,114.8265625,-64.12,0.569041,33.99
2021-07-08 18:43:49.039062500,-35.0,2.0,54.0,114.825703125,-61.025000000000006,0.569041,33.99
2021-07-08 18:43:49.046875000,-35.0,2.0,54.0,114.82484375,-57.93,0.569041,33.99
2021-07-08 18:43:49.054687500,-35.0,2.0,54.0,114.823984375,-52.754999999999995,0.569041,33.99
2021-07-08 18:43:49.062500000,-35.0,2.0,54.0,114.823125,-47.58,0.569041,33.99
2021-07-08 18:43:49.070312500,-35.0,2.0,54.0,114.822265625,-41.055,0.569041,33.99
2021-07-08 18:43:49.078125000,-35.0,2.0,54.0,114.82140625,-34.53,0.569041,33.99
2021-07-08 18:43:49.085937500,-35.0,2.0,54.0,114.820546875,-27.53,0.569041,33.99
2021-07-08 18:43:49.093750000,-35.0,2.0,54.0,114.8196875,-20.53,0.569041,33.99
2021-07-08 18:43:49.101562500,-35.0,2.0,54.0,114.818828125,-13.805,0.569041,33.99
2021-07-08 18:43:49.109375000,-35.0,2.0,54.0,114.81796874999999,-7.08,0.569041,33.99
2021-07-08 18:43:49.117187500,-35.0,2.0,54.0,114.817109375,-1.1349999999999998,0.569041,33.99
2021-07-08 18:43:49.125000000,-35.0,2.0,54.0,114.81625,4.81,0.569041,33.99
2021-07-08 18:43:49.132812500,-35.0,2.0,54.0,114.81539062499999,9.735,0.569041,33.99
2021-07-08 18:43:49.140625000,-35.0,2.0,54.0,114.81453125,14.66,0.569041,33.99
2021-07-08 18:43:49.148437500,-35.0,2.0,54.0,114.813671875,18.455,0.569041,33.99
2021-07-08 18:43:49.156250000,-35.0,2.0,54.0,114.81281249999999,22.25,0.569041,33.99
2021-07-08 18:43:49.164062500,-35.0,2.0,54.0,114.811953125,24.905,0.569041,33.99
2021-07-08 18:43:49.171875000,-35.0,2.0,54.0,114.81109375,27.56,0.569041,33.99
2021-07-08 18:43:49.179687500,-35.0,2.0,54.0,114.810234375,29.075,0.569041,33.99
2021-07-08 18:43:49.187500000,-35.0,2.0,54.0,114.809375,30.59,0.569041,33.99
2021-07-08 18:43:49.195312500,-35.0,2.0,54.0,114.808515625,31.035,0.569041,33.99
2021-07-08 18:43:49.203125000,-35.0,2.0,54.0,114.80765625,31.48,0.569041,33.99
2021-07-08 18:43:49.210937500,-35.0,2.0,54.0,114.806796875,31.025,0.569041,33.99
2021-07-08 18:43:49.218750000,-35.0,2.0,54.0,114.8059375,30.57,0.569041,33.99
2021-07-08 18:43:49.226562500,-35.0,2.0,54.0,114.805078125,29.465,0.569041,33.99
2021-07-08 18:43:49.234375000,-35.0,2.0,54.0,114.80421875,28.36,0.569041,33.99
2021-07-08 18:43:49.242187500,-35.0,2.0,54.0,114.803359375,26.9,0.569041,33.99
2021-07-08 18:43:49.250000000,-35.0,2.0,54.0,114.8025,25.44,0.569041,33.99
2021-07-08 18:43:49.257812500,-35.0,2.0,54.0,114.801640625,23.86,0.56892090625,33.99
2021-07-08 18:43:49.265625000,-35.0,2.0,54.0,114.80078125,22.28,0.5688008125,33.99
2021-07-08 18:43:49.273437500,-35.0,2.0,54.0,114.799921875,20.725,0.56868071875,33.99
2021-07-08 18:43:49.281250000,-35.0,2.0,54.0,114.7990625,19.17,0.568560625,33.99
2021-07-08 18:43:49.289062500,-35.0,2.0,54.0,114.798203125,17.64,0.56844053125,33.99
2021-07-08 18:43:49.296875000,-35.0,2.0,54.0,114.79734375,16.11,0.5683204375,33.99
2021-07-08 18:43:49.304687500,-35.0,2.0,54.0,114.79648437499999,14.545,0.5682003437500001,33.99
2021-07-08 18:43:49.312500000,-35.0,2.0,54.0,114.795625,12.98,0.56808025,33.99
2021-07-08 18:43:49.320312500,-35.0,2.0,54.0,114.794765625,11.295,0.56796015625,33.99
2021-07-08 18:43:49.328125000,-35.0,2.0,54.0,114.79390624999999,9.61,0.5678400625,33.99
2021-07-08 18:43:49.335937500,-35.0,2.0,54.0,114.793046875,7.765,0.56771996875,33.99
2021-07-08 18:43:49.343750000,-35.0,2.0,54.0,114.7921875,5.92,0.567599875,33.99
2021-07-08 18:43:49.351562500,-35.0,2.0,53.75,114.79132812499999,3.96,0.56747978125,33.99
2021-07-08 18:43:49.359375000,-35.0,2.0,53.5,114.79046875,2.0,0.5673596875,33.99
2021-07-08 18:43:49.367187500,-35.0,2.0,53.25,114.789609375,0.010000000000000009,0.56723959375,33.99
2021-07-08 18:43:49.375000000,-35.0,2.0,53.0,114.78875,-1.98,0.5671195,33.99
2021-07-08 18:43:49.382812500,-35.0,2.0,53.25,114.787890625,-3.91,0.56699940625,33.99
2021-07-08 18:43:49.390625000,-35.0,2.0,53.5,114.78703125,-5.84,0.5668793125,33.99
2021-07-08 18:43:49.398437500,-35.0,2.0,53.75,114.786171875,-7.67,0.56675921875,33.99
2021-07-08 18:43:49.406250000,-35.0,2.0,54.0,114.7853125,-9.5,0.566639125,33.99
2021-07-08 18:43:49.414062500,-35.0,2.0,54.0,114.784453125,-11.265,0.56651903125,33.99
2021-07-08 18:43:49.421875000,-35.0,2.0,54.0,114.78359375,-13.03,0.5663989375,33.99
2021-07-08 18:43:49.429687500,-35.0,2.0,54.0,114.782734375,-14.855,0.56627884375,33.99
2021-07-08 18:43:49.437500000,-35.0,2.0,54.0,114.781875,-16.68,0.56615875,33.99
2021-07-08 18:43:49.445312500,-35.0,2.0,54.0,114.781015625,-18.735,0.5660386562499999,33.99
2021-07-08 18:43:49.453125000,-35.0,2.0,54.0,114.78015625,-20.79,0.5659185624999999,33.99
2021-07-08 18:43:49.460937500,-35.0,2.0,54.0,114.779296875,-23.27,0.56579846875,33.99
2021-07-08 18:43:49.468750000,-35.0,2.0,54.0,114.7784375,-25.75,0.565678375,33.99
2021-07-08 18:43:49.476562500,-35.0,1.75,54.0,114.777578125,-28.765,0.56555828125,33.99
2021-07-08 18:43:49.484375000,-35.0,1.5,54.0,114.77671875,-31.78,0.5654381875,33.99
2021-07-08 18:43:49.492187500,-35.0,1.25,54.0,114.775859375,-35.25,0.56531809375,33.99
2021-07-08 18:43:49.500000000,-35.0,1.0,54.0,114.775,-38.72,0.565198,33.99
2021-07-08 18:43:49.507812500,-35.0,1.25,54.0,114.774140625,-42.295,0.5652380312499999,33.99
2021-07-08 18:43:49.515625000,-35.0,1.5,54.0,114.77328125,-45.87,0.5652780625,33.99
2021-07-08 18:43:49.523437500,-35.0,1.75,54.0,114.77242187499999,-48.959999999999994,0.56531809375,33.99
2021-07-08 18:43:49.531250000,-35.0,2.0,54.0,114.7715625,-52.05,0.5653581249999999,33.99
2021-07-08 18:43:49.539062500,-35.0,2.0,54.0,114.770703125,-53.925,0.56539815625,33.99
