TimeStamp,empatica.acc.x,empatica.acc.y,empatica.acc.z,empatica.hr,empatica.bvp,empatica.eda,empatica.temp
2021-07-08 15:20:05.812500000,-34.0,6.0,54.0,81.40625,-6.14,0.5133475000000001,31.69
2021-07-08 15:20:05.820312500,-34.0,6.0,54.0,81.40390624999999,-7.82,0.5134275625,31.69
2021-07-08 15:20:05.828125000,-34.0,6.0,54.0,81.4015625,-9.5,0.513507625,31.69
2021-07-08 15:20:05.835937500,-34.0,6.0,54.0,81.39921875,-11.3,0.5135876875000001,31.69
2021-07-08 15:20:05.843750000,-34.0,6.0,54.0,81.396875,-13.1,0.51366775,31.69
2021-07-08 15:20:05.851562500,-34.0,6.0,54.0,81.39453125,-14.954999999999998,0.5137478125,31.69
2021-07-08 15:20:05.859375000,-34.0,6.0,54.0,81.39218749999999,-16.81,0.513827875,31.69
2021-07-08 15:20:05.867187500,-34.0,6.0,54.0,81.38984375,-18.645,0.5139079375,31.69
2021-07-08 15:20:05.875000000,-34.0,6.0,54.0,81.38749999999999,-20.48,0.513988,31.69
2021-07-08 15:20:05.882812500,-34.0,6.0,54.0,81.38515625,-22.245,0.5140680625,31.69
2021-07-08 15:20:05.890625000,-34.0,6.0,54.0,81.3828125,-24.01,0.514148125,31.69
2021-07-08 15:20:05.898437500,-34.0,6.0,54.0,81.38046874999999,-25.76,0.5142281875,31.69
2021-07-08 15:20:05.906250000,-34.0,6.0,54.0,81.378125,-27.51,0.51430825,31.69
2021-07-08 15:20:05.914062500,-34.0,6.0,54.0,81.37578124999999,-29.355,0.5143883125,31.69
2021-07-08 15:20:05.921875000,-34.0,6.0,54.0,81.3734375,-31.2,0.514468375,31.69
2021-07-08 15:20:05.929687500,-34.0,6.0,54.0,81.37109375,-33.28,0.5145484375,31.69
2021-07-08 15:20:05.937500000,-34.0,6.0,54.0,81.36874999999999,-35.36,0.5146284999999999,31.69
2021-07-08 15:20:05.945312500,-34.0,6.0,54.0,81.36640625,-37.725,0.5147085625,31.69
2021-07-08 15:20:05.953125000,-34.0,6.0,54.0,81.36406249999999,-40.09,0.514788625,31.69
2021-07-08 15:20:05.960937500,-34.0,6.0,54.0,81.36171875,-42.635000000000005,0.5148686875,31.69
2021-07-08 15:20:05.968750000,-34.0,6.0,54.0,81.359375,-45.18,0.51494875,31.69
2021-07-08 15:20:05.976562500,-34.0,6.0,54.0,81.35703124999999,-47.614999999999995,0.5150288125,31.69
2021-07-08 15:20:05.984375000,-34.0,6.0,54.0,81.3546875,-50.05,0.515108875,31.69
2021-07-08 15:20:05.992187500,-34.0,6.0,54.0,81.35234374999999,-51.95,0.5151889374999999,31.69
2021-07-08 15:20:06.000000000,-34.0,6.0,54.0,81.35,-53.85,0.515269,31.69
2021-07-08 15:20:06.007812500,-34.0,6.0,54.0,81.347421875,-54.760000000000005,0.5151889374999999,31.69
2021-07-08 15:20:06.015625000,-34.0,6.0,54.0,81.34484375,-55.67,0.515108875,31.69
2021-07-08 15:20:06.023437500,-34.0,6.0,54.0,81.342265625,-55.24,0.5150288125,31.69
2021-07-08 15:20:06.031250000,-34.0,6.0,54.0,81.3396875,-54.81,0.51494875,31.69
2021-07-08 15:20:06.039062500,-34.0,6.0,54.0,81.337109375,-52.935,0.5148686875,31.69
2021-07-08 15:20:06.046875000,-34.0,6.0,54.0,81.33453125,-51.06,0.514788625,31.69
2021-07-08 15:20:06.054687500,-34.0,6.0,54.0,81.331953125,-47.894999999999996,0.5147085625,31.69
2021-07-08 15:20:06.062500000,-34.0,6.0,54.0,81.329375,-44.73,0.5146284999999999,31.69
2021-07-08 15:20:06.070312500,-34.0,6.0,54.0,81.326796875,-40.68,0.5145484375,31.69
2021-07-08 15:20:06.078125000,-34.0,6.0,54.0,81.32421875,-36.63,0.514468375,31.69
2021-07-08 15:20:06.085937500,-34.0,6.0,54.0,81.321640625,-32.225,0.5143883125,31.69
2021-07-08 15:20:06.093750000,-34.0,6.0,54.0,81.3190625,-27.82,0.51430825,31.69
2021-07-08 15:20:06.101562500,-34.0,6.0,54.0,81.31648437499999,-23.575,0.5142281875,31.69
2021-07-08 15:20:06.109375000,-34.0,6.0,54.0,81.31390624999999,-19.33,0.514148125,31.69
2021-07-08 15:20:06.117187500,-34.0,6.0,54.0,81.31132812499999,-15.61,0.5140680625,31.69
2021-07-08 15:20:06.125000000,-34.0,6.0,54.0,81.30874999999999,-11.89,0.513988,31.69
2021-07-08 15:20:06.132812500,-34.0,6.0,54.0,81.30617187499999,-8.83,0.5139079375,31.69
2021-07-08 15:20:06.140625000,-34.0,6.0,54.0,81.30359374999999,-5.77,0.513827875,31.69
2021-07-08 15:20:06.148437500,-34.0,6.0,54.0,81.30101562499999,-3.3249999999999997,0.5137478125,31.69
2021-07-08 15:20:06.156250000,-34.0,6.0,54.0,81.29843749999999,-0.88,0.51366775,31.69
2021-07-08 15:20:06.164062500,-34.0,6.0,54.0,81.29585937499999,1.125,0.5135876875000001,31.69
2021-07-08 15:20:06.171875000,-34.0,6.0,54.0,81.29328124999999,3.13,0.513507625,31.69
2021-07-08 15:20:06.179687500,-34.0,6.0,54.0,81.290703125,4.895,0.5134275625,31.69
2021-07-08 15:20:06.187500000,-34.0,6.0,54.0,81.288125,6.66,0.5133475000000001,31.69
2021-07-08 15:20:06.195312500,-34.0,6.0,54.0,81.285546875,8.335,0.5132674375,31.69
2021-07-08 15:20:06.203125000,-34.0,6.0,54.0,81.28296875,10.01,0.513187375,31.69
2021-07-08 15:20:06.210937500,-34.0,6.0,54.0,81.280390625,11.645,0.5131073125,31.69
2021-07-08 15:20:06.218750000,-34.0,6.0,54.0,81.2778125,13.28,0.51302725,31.69
2021-07-08 15:20:06.226562500,-34.0,6.0,54.0,81.275234375,14.870000000000001,0.5129471875,31.69
2021-07-08 15:20:06.234375000,-34.0,6.0,54.0,81.27265625,16.46,0.512867125,31.69
2021-07-08 15:20:06.242187500,-34.0,6.0,54.0,81.270078125,17.955,0.5127870625000001,31.69
2021-07-08 15:20:06.250000000,-34.0,6.0,54.0,81.2675,19.45,0.512707,31.69
2021-07-08 15:20:06.257812500,-34.0,6.0,54.0,81.264921875,20.82,0.51274703125,31.69
2021-07-08 15:20:06.265625000,-34.0,6.0,54.0,81.26234375,22.19,0.5127870625000001,31.69
2021-07-08 15:20:06.273437500,-34.0,6.0,54.0,81.259765625,23.415,0.51282709375,31.69
2021-07-08 15:20:06.281250000,-34.0,6.0,54.0,81.2571875,24.64,0.512867125,31.69
2021-07-08 15:20:06.289062500,-34.0,6.0,54.0,81.254609375,25.73,0.51290715625,31.69
2021-07-08 15:20:06.296875000,-34.0,6.0,54.0,81.25203125,26.82,0.5129471875,31.69
2021-07-08 15:20:06.304687500,-34.0,6.0,54.0,81.24945312499999,27.745,0.51298721875,31.69
2021-07-08 15:20:06.312500000,-34.0,6.0,54.0,81.24687499999999,28.67,0.51302725,31.69
2021-07-08 15:20:06.320312500,-34.0,6.0,54.0,81.24429687499999,29.43,0.51306728125,31.69
2021-07-08 15:20:06.328125000,-34.0,6.0,54.0,81.24171874999999,30.19,0.5131073125,31.69
2021-07-08 15:20:06.335937500,-34.0,6.0,54.0,81.23914062499999,30.745,0.51314734375,31.69
2021-07-08 15:20:06.343750000,-34.0,6.0,54.0,81.23656249999999,31.3,0.513187375,31.69
2021-07-08 15:20:06.351562500,-34.0,6.0,54.0,81.23398437499999,31.65,0.51322740625,31.69
2021-07-08 15:20:06.359375000,-34.0,6.0,54.0,81.23140624999999,32.0,0.5132674375,31.69
2021-07-08 15:20:06.367187500,-34.0,6.0,54.0,81.22882812499999,32.18,0.51330746875,31.69
2021-07-08 15:20:06.375000000,-34.0,6.0,54.0,81.22625,32.36,0.5133475000000001,31.69
2021-07-08 15:20:06.382812500,-34.0,6.0,54.0,81.223671875,32.46,0.51338753125,31.69
2021-07-08 15:20:06.390625000,-34.0,6.0,54.0,81.22109375,32.56,0.5134275625,31.69
2021-07-08 15:20:06.398437500,-34.0,6.0,54.0,81.218515625,32.665000000000006,0.5134675937500001,31.69
2021-07-08 15:20:06.406250000,-34.0,6.0,54.0,81.2159375,32.77,0.513507625,31.69
2021-07-08 15:20:06.414062500,-34.0,6.0,54.0,81.213359375,32.935,0.51354765625,31.69
2021-07-08 15:20:06.421875000,-34.0,6.0,54.0,81.21078125,33.1,0.5135876875000001,31.69
2021-07-08 15:20:06.429687500,-34.0,6.0,54.0,81.208203125,33.31,0.51362771875,31.69
2021-07-08 15:20:06.437500000,-34.0,6.0,54.0,81.205625,33.52,0.51366775,31.69
2021-07-08 15:20:06.445312500,-34.0,6.0,54.0,81.203046875,33.665000000000006,0.51370778125,31.69
2021-07-08 15:20:06.453125000,-34.0,6.0,54.0,81.20046875,33.81,0.5137478125,31.69
2021-07-08 15:20:06.460937500,-34.0,6.0,54.0,81.197890625,33.755,0.51378784375,31.69
2021-07-08 15:20:06.468750000,-34.0,6.0,54.0,81.1953125,33.7,0.513827875,31.69
2021-07-08 15:20:06.476562500,-34.0,5.75,54.0,81.192734375,33.35,0.51386790625,31.69
2021-07-08 15:20:06.484375000,-34.0,5.5,54.0,81.19015625,33.0,0.5139079375,31.69
2021-07-08 15:20:06.492187500,-34.0,5.25,54.0,81.187578125,32.34,0.51394796875,31.69
2021-07-08 15:20:06.500000000,-34.0,5.0,54.0,81.185,31.68,0.513988,31.69
2021-07-08 15:20:06.507812500,-34.0,5.0,54.0,81.18242187499999,30.785,0.51394796875,31.69
2021-07-08 15:20:06.515625000,-34.0,5.0,54.0,81.17984374999999,29.89,0.5139079375,31.69
2021-07-08 15:20:06.523437500,-34.0,5.0,54.0,81.17726562499999,28.915,0.51386790625,31.69
2021-07-08 15:20:06.531250000,-34.0,5.0,54.0,81.17468749999999,27.94,0.513827875,31.69
2021-07-08 15:20:06.539062500,-34.0,5.25,54.0,81.17210937499999,27.015,0.51378784375,31.69
2021-07-08 15:20:06.546875000,-34.0,5.5,54.0,81.16953124999999,26.09,0.5137478125,31.69
2021-07-08 15:20:06.554687500,-34.0,5.75,54.0,81.16695312499999,25.28,0.51370778125,31.69
2021-07-08 15:20:06.562500000,-34.0,6.0,54.0,81.16437499999999,24.47,0.51366775,31.69
2021-07-08 15:20:06.570312500,-34.0,6.0,54.0,81.161796875,23.735,0.51362771875,31.69
2021-07-08 15:20:06.578125000,-34.0,6.0,54.0,81.15921875,23.0,0.5135876875000001,31.69
2021-07-08 15:20:06.585937500,-34.0,6.0,54.0,81.156640625,22.215,0.51354765625,31.69
2021-07-08 15:20:06.593750000,-34.0,6.0,54.0,81.1540625,21.43,0.513507625,31.69
2021-07-08 15:20:06.601562500,-34.0,6.0,54.0,81.151484375,20.46,0.5134675937500001,31.69
2021-07-08 15:20:06.609375000,-34.0,6.0,54.0,81.14890625,19.49,0.5134275625,31.69
2021-07-08 15:20:06.617187500,-34.0,6.0,54.0,81.146328125,18.27,0.51338753125,31.69
2021-07-08 15:20:06.625000000,-34.0,6.0,54.0,81.14375,17.05,0.5133475000000001,31.69
2021-07-08 15:20:06.632812500,-34.0,6.0,54.0,81.141171875,15.64,0.51330746875,31.69
2021-07-08 15:20:06.640625000,-34.0,6.0,54.0,81.13859375,14.23,0.5132674375,31.69
2021-07-08 15:20:06.648437500,-34.0,6.0,54.0,81.136015625,12.785,0.51322740625,31.69
2021-07-08 15:20:06.656250000,-34.0,6.0,54.0,81.1334375,11.34,0.513187375,31.69
2021-07-08 15:20:06.664062500,-34.0,6.0,54.0,81.130859375,10.035,0.51314734375,31.69
2021-07-08 15:20:06.671875000,-34.0,6.0,54.0,81.12828125,8.73,0.5131073125,31.69
2021-07-08 15:20:06.679687500,-34.0,6.0,54.0,81.125703125,7.66,0.51306728125,31.69
2021-07-08 15:20:06.687500000,-34.0,6.0,54.0,81.123125,6.59,0.51302725,31.69
2021-07-08 15:20:06.695312500,-34.0,6.0,54.0,81.120546875,5.72,0.51298721875,31.69
2021-07-08 15:20:06.703125000,-34.0,6.0,54.0,81.11796874999999,4.85,0.5129471875,31.69
2021-07-08 15:20:06.710937500,-34.0,6.0,54.0,81.11539062499999,4.0649999999999995,0.51290715625,31.69
2021-07-08 15:20:06.718750000,-34.0,6.0,54.0,81.11281249999999,3.28,0.512867125,31.69
2021-07-08 15:20:06.726562500,-34.0,5.75,54.0,81.11023437499999,2.3899999999999997,0.51282709375,31.69
2021-07-08 15:20:06.734375000,-34.0,5.5,54.0,81.10765624999999,1.5,0.5127870625000001,31.69
2021-07-08 15:20:06.742187500,-34.0,5.25,54.0,81.10507812499999,0.3799999999999999,0.51274703125,31.69
2021-07-08 15:20:06.750000000,-34.0,5.0,54.0,81.10249999999999,-0.74,0.512707,31.69
2021-07-08 15:20:06.757812500,-34.0,5.25,54.0,81.09992187499999,-2.1050000000000004,0.51274703125,31.69
2021-07-08 15:20:06.765625000,-34.0,5.5,54.0,81.09734375,-3.47,0.5127870625000001,31.69
2021-07-08 15:20:06.773437500,-34.0,5.75,54.0,81.094765625,-4.9750000000000005,0.51282709375,31.69
2021-07-08 15:20:06.781250000,-34.0,6.0,54.0,81.0921875,-6.48,0.512867125,31.69
2021-07-08 15:20:06.789062500,-34.0,6.0,54.0,81.089609375,-7.99,0.51290715625,31.69
2021-07-08 15:20:06.796875000,-34.0,6.0,54.0,81.08703125,-9.5,0.5129471875,31.69
2021-07-08 15:20:06.804687500,-34.0,6.0,54.0,81.084453125,-10.9,0.51298721875,31.69
2021-07-08 15:20:06.812500000,-34.0,6.0,54.0,81.081875,-12.3,0.51302725,31.69
2021-07-08 15:20:06.820312500,-34.0,6.0,54.0,81.079296875,-13.575,0.51306728125,31.69
2021-07-08 15:20:06.828125000,-34.0,6.0,54.0,81.07671875,-14.85,0.5131073125,31.69
2021-07-08 15:20:06.835937500,-34.0,6.0,54.0,81.074140625,-16.065,0.51314734375,31.69
2021-07-08 15:20:06.843750000,-34.0,6.0,54.0,81.0715625,-17.28,0.513187375,31.69
2021-07-08 15:20:06.851562500,-34.0,6.0,54.0,81.068984375,-18.58,0.51322740625,31.69
2021-07-08 15:20:06.859375000,-34.0,6.0,54.0,81.06640625,-19.88,0.5132674375,31.69
2021-07-08 15:20:06.867187500,-34.0,6.0,54.0,81.063828125,-21.424999999999997,0.51330746875,31.69
2021-07-08 15:20:06.875000000,-34.0,6.0,54.0,81.06125,-22.97,0.5133475000000001,31.69
2021-07-08 15:20:06.882812500,-34.0,6.0,54.0,81.058671875,-24.875,0.51338753125,31.69
2021-07-08 15:20:06.890625000,-34.0,6.0,54.0,81.05609375,-26.78,0.5134275625,31.69
2021-07-08 15:20:06.898437500,-34.0,6.0,54.0,81.053515625,-29.095,0.5134675937500001,31.69
2021-07-08 15:20:06.906250000,-34.0,6.0,54.0,81.05093749999999,-31.41,0.513507625,31.69
2021-07-08 15:20:06.914062500,-34.0,6.0,54.0,81.04835937499999,-34.09,0.51354765625,31.69
2021-07-08 15:20:06.921875000,-34.0,6.0,54.0,81.04578124999999,-36.77,0.5135876875000001,31.69
2021-07-08 15:20:06.929687500,-34.0,6.0,54.0,81.04320312499999,-39.635000000000005,0.51362771875,31.69
2021-07-08 15:20:06.937500000,-34.0,6.0,54.0,81.04062499999999,-42.5,0.51366775,31.69
2021-07-08 15:20:06.945312500,-34.0,6.0,54.0,81.03804687499999,-45.235,0.51370778125,31.69
2021-07-08 15:20:06.953125000,-34.0,6.0,54.0,81.03546874999999,-47.97,0.5137478125,31.69
2021-07-08 15:20:06.960937500,-34.0,6.0,54.0,81.032890625,-50.15,0.51378784375,31.69
2021-07-08 15:20:06.968750000,-34.0,6.0,54.0,81.0303125,-52.33,0.513827875,31.69
2021-07-08 15:20:06.976562500,-34.0,6.0,54.0,81.027734375,-53.535,0.51386790625,31.69
2021-07-08 15:20:06.984375000,-34.0,6.0,54.0,81.02515625,-54.74,0.5139079375,31.69
2021-07-08 15:20:06.992187500,-34.0,6.0,54.0,81.022578125,-54.635000000000005,0.51394796875,31.69
2021-07-08 15:20:07.000000000,-34.0,6.0,54.0,81.02,-54.53,0.513988,31.69
2021-07-08 15:20:07.007812500,-34.0,6.0,54.0,81.017265625,-52.99,0.513988,31.690625
2021-07-08 15:20:07.015625000,-34.0,6.0,54.0,81.01453124999999,-51.45,0.513988,31.69125
2021-07-08 15:20:07.023437500,-34.0,6.0,54.0,81.011796875,-48.615,0.513988,31.691875
2021-07-08 15:20:07.031250000,-34.0,6.0,54.0,81.0090625,-45.78,0.513988,31.692500000000003
2021-07-08 15:20:07.039062500,-34.0,6.0,54.0,81.006328125,-42.004999999999995,0.513988,31.693125000000002
2021-07-08 15:20:07.046875000,-34.0,6.0,54.0,81.00359375,-38.23,0.513988,31.69375
2021-07-08 15:20:07.054687500,-34.0,6.0,54.0,81.00085937499999,-33.989999999999995,0.513988,31.694375
2021-07-08 15:20:07.062500000,-34.0,6.0,54.0,80.998125,-29.75,0.513988,31.695
2021-07-08 15:20:07.070312500,-34.0,5.75,54.0,80.995390625,-25.509999999999998,0.513988,31.695625
2021-07-08 15:20:07.078125000,-34.0,5.5,54.0,80.99265625,-21.27,0.513988,31.696250000000003
2021-07-08 15:20:07.085937500,-34.0,5.25,54.0,80.989921875,-17.38,0.513988,31.696875000000002
2021-07-08 15:20:07.093750000,-34.0,5.0,54.0,80.98718749999999,-13.49,0.513988,31.6975
2021-07-08 15:20:07.101562500,-34.0,5.25,54.0,80.984453125,-10.115,0.513988,31.698125
2021-07-08 15:20:07.109375000,-34.0,5.5,54.0,80.98171875,-6.74,0.513988,31.69875
2021-07-08 15:20:07.117187500,-34.0,5.75,54.0,80.978984375,-3.915,0.513988,31.699375
2021-07-08 15:20:07.125000000,-34.0,6.0,54.0,80.97625,-1.09,0.513988,31.700000000000003
2021-07-08 15:20:07.132812500,-34.0,5.75,54.0,80.97351562499999,1.2750000000000001,0.513988,31.700625000000002
2021-07-08 15:20:07.140625000,-34.0,5.5,54.0,80.97078125,3.64,0.513988,31.70125
2021-07-08 15:20:07.148437500,-34.0,5.25,54.0,80.968046875,5.675000000000001,0.513988,31.701875
2021-07-08 15:20:07.156250000,-34.0,5.0,54.0,80.9653125,7.71,0.513988,31.7025
2021-07-08 15:20:07.164062500,-34.0,5.25,54.0,80.962578125,9.525,0.513988,31.703125
2021-07-08 15:20:07.171875000,-34.0,5.5,54.0,80.95984374999999,11.34,0.513988,31.70375
2021-07-08 15:20:07.179687500,-34.0,5.75,54.0,80.957109375,13.025,0.513988,31.704375000000002
2021-07-08 15:20:07.187500000,-34.0,6.0,54.0,80.954375,14.71,0.513988,31.705000000000002
2021-07-08 15:20:07.195312500,-34.0,6.0,54.0,80.951640625,16.3,0.513988,31.705625
2021-07-08 15:20:07.203125000,-34.0,6.0,54.0,80.94890625,17.89,0.513988,31.70625
2021-07-08 15:20:07.210937500,-34.0,6.0,54.0,80.94617187499999,19.365000000000002,0.513988,31.706875
2021-07-08 15:20:07.218750000,-34.0,6.0,54.0,80.9434375,20.84,0.513988,31.7075
2021-07-08 15:20:07.226562500,-34.0,6.0,54.0,80.940703125,22.175,0.513988,31.708125000000003
2021-07-08 15:20:07.234375000,-34.0,6.0,54.0,80.93796875,23.51,0.513988,31.708750000000002
2021-07-08 15:20:07.242187500,-34.0,6.0,54.0,80.935234375,24.67,0.513988,31.709375
2021-07-08 15:20:07.250000000,-34.0,6.0,54.0,80.9325,25.83,0.513988,31.71
2021-07-08 15:20:07.257812500,-34.0,5.75,54.0,80.929765625,26.77,0.51402803125,31.71
2021-07-08 15:20:07.265625000,-34.0,5.5,54.0,80.92703125,27.71,0.5140680625,31.71
2021-07-08 15:20:07.273437500,-34.0,5.25,54.0,80.924296875,28.415,0.51410809375,31.71
2021-07-08 15:20:07.281250000,-34.0,5.0,54.0,80.9215625,29.12,0.514148125,31.71
2021-07-08 15:20:07.289062500,-34.0,5.0,54.0,80.918828125,29.62,0.51418815625,31.71
2021-07-08 15:20:07.296875000,-34.0,5.0,54.0,80.91609375,30.12,0.5142281875,31.71
2021-07-08 15:20:07.304687500,-34.0,5.0,54.0,80.913359375,30.485,0.51426821875,31.71
2021-07-08 15:20:07.312500000,-34.0,5.0,54.0,80.910625,30.85,0.51430825,31.71
2021-07-08 15:20:07.320312500,-34.0,5.0,54.0,80.907890625,31.200000000000003,0.51434828125,31.71
2021-07-08 15:20:07.328125000,-34.0,5.0,54.0,80.90515625,31.55,0.5143883125,31.71
2021-07-08 15:20:07.335937500,-34.0,5.0,54.0,80.902421875,31.96,0.51442834375,31.71
2021-07-08 15:20:07.343750000,-34.0,5.0,54.0,80.8996875,32.37,0.514468375,31.71
2021-07-08 15:20:07.351562500,-34.0,5.0,54.0,80.896953125,32.875,0.5145084062499999,31.71
2021-07-08 15:20:07.359375000,-34.0,5.0,54.0,80.89421875,33.38,0.5145484375,31.71
2021-07-08 15:20:07.367187500,-34.0,5.0,54.0,80.891484375,33.92,0.51458846875,31.71
2021-07-08 15:20:07.375000000,-34.0,5.0,54.0,80.88875,34.46,0.5146284999999999,31.71
2021-07-08 15:20:07.382812500,-34.0,5.0,54.0,80.886015625,34.925,0.51466853125,31.71
2021-07-08 15:20:07.390625000,-34.0,5.0,54.0,80.88328125,35.39,0.5147085625,31.71
2021-07-08 15:20:07.398437500,-34.0,5.0,54.0,80.880546875,35.655,0.51474859375,31.71
2021-07-08 15:20:07.406250000,-34.0,5.0,54.0,80.8778125,35.92,0.514788625,31.71
2021-07-08 15:20:07.414062500,-34.0,5.25,54.0,80.875078125,35.905,0.51482865625,31.71
2021-07-08 15:20:07.421875000,-34.0,5.5,54.0,80.87234375,35.89,0.5148686875,31.71
2021-07-08 15:20:07.429687500,-34.0,5.75,54.0,80.869609375,35.585,0.51490871875,31.71
2021-07-08 15:20:07.437500000,-34.0,6.0,54.0,80.866875,35.28,0.51494875,31.71
2021-07-08 15:20:07.445312500,-34.0,5.75,54.0,80.864140625,34.735,0.51498878125,31.71
2021-07-08 15:20:07.453125000,-34.0,5.5,54.0,80.86140625,34.19,0.5150288125,31.71
2021-07-08 15:20:07.460937500,-34.0,5.25,54.0,80.858671875,33.480000000000004,0.51506884375,31.71
2021-07-08 15:20:07.468750000,-34.0,5.0,54.0,80.8559375,32.77,0.515108875,31.71
2021-07-08 15:20:07.476562500,-34.0,5.25,54.0,80.853203125,31.965000000000003,0.51514890625,31.71
2021-07-08 15:20:07.484375000,-34.0,5.5,54.0,80.85046875,31.16,0.5151889374999999,31.71
2021-07-08 15:20:07.492187500,-34.0,5.75,54.0,80.847734375,30.310000000000002,0.51522896875,31.71
2021-07-08 15:20:07.500000000,-34.0,6.0,54.0,80.845,29.46,0.515269,31.71
2021-07-08 15:20:07.507812500,-34.0,6.0,54.0,80.842265625,28.62,0.5151889374999999,31.71
2021-07-08 15:20:07.515625000,-34.0,6.0,54.0,80.83953125,27.78,0.515108875,31.71
2021-07-08 15:20:07.523437500,-34.0,6.0,54.0,80.836796875,26.96,0.5150288125,31.71
2021-07-08 15:20:07.531250000,-34.0,6.0,54.0,80.8340625,26.14,0.51494875,31.71
2021-07-08 15:20:07.539062500,-34.0,5.75,54.0,80.831328125,25.35,0.5148686875,31.71
2021-07-08 15:20:07.546875000,-34.0,5.5,54.0,80.82859375,24.56,0.514788625,31.71
2021-07-08 15:20:07.554687500,-34.0,5.25,54.0,80.825859375,23.755,0.5147085625,31.71
2021-07-08 15:20:07.562500000,-34.0,5.0,54.0,80.823125,22.95,0.5146284999999999,31.71
2021-07-08 15:20:07.570312500,-34.0,5.0,54.0,80.820390625,22.049999999999997,0.5145484375,31.71
2021-07-08 15:20:07.578125000,-34.0,5.0,54.0,80.81765625,21.15,0.514468375,31.71
2021-07-08 15:20:07.585937500,-34.0,5.0,54.0,80.814921875,20.095,0.5143883125,31.71
2021-07-08 15:20:07.593750000,-34.0,5.0,54.0,80.8121875,19.04,0.51430825,31.71
2021-07-08 15:20:07.601562500,-34.0,5.25,54.0,80.809453125,17.81,0.5142281875,31.71
2021-07-08 15:20:07.609375000,-34.0,5.5,54.0,80.80671875,16.58,0.514148125,31.71
2021-07-08 15:20:07.617187500,-34.0,5.75,54.0,80.803984375,15.23,0.5140680625,31.71
2021-07-08 15:20:07.625000000,-34.0,6.0,54.0,80.80125,13.88,0.513988,31.71
2021-07-08 15:20:07.632812500,-34.0,5.75,54.0,80.798515625,12.530000000000001,0.5139079375,31.71
2021-07-08 15:20:07.640625000,-34.0,5.5,54.0,80.79578125,11.18,0.513827875,31.71
2021-07-08 15:20:07.648437500,-34.0,5.25,54.0,80.793046875,9.934999999999999,0.5137478125,31.71
2021-07-08 15:20:07.656250000,-34.0,5.0,54.0,80.7903125,8.69,0.51366775,31.71
2021-07-08 15:20:07.664062500,-34.0,5.0,54.0,80.787578125,7.585,0.5135876875000001,31.71
2021-07-08 15:20:07.671875000,-34.0,5.0,54.0,80.78484375,6.48,0.513507625,31.71
2021-07-08 15:20:07.679687500,-34.0,5.0,54.0,80.782109375,5.45,0.5134275625,31.71
2021-07-08 15:20:07.687500000,-34.0,5.0,54.0,80.779375,4.42,0.5133475000000001,31.71
2021-07-08 15:20:07.695312500,-34.0,5.0,54.0,80.776640625,3.355,0.5132674375,31.71
2021-07-08 15:20:07.703125000,-34.0,5.0,54.0,80.77390625,2.29,0.513187375,31.71
2021-07-08 15:20:07.710937500,-34.0,5.0,54.0,80.771171875,1.055,0.5131073125,31.71
2021-07-08 15:20:07.718750000,-34.0,5.0,54.0,80.7684375,-0.18,0.51302725,31.71
2021-07-08 15:20:07.726562500,-34.0,5.0,54.0,80.765703125,-1.64,0.5129471875,31.71
2021-07-08 15:20:07.734375000,-34.0,5.0,54.0,80.76296875,-3.1,0.512867125,31.71
2021-07-08 15:20:07.742187500,-34.0,5.0,54.0,80.760234375,-4.76,0.5127870625000001,31.71
2021-07-08 15:20:07.750000000,-34.0,5.0,54.0,80.7575,-6.42,0.512707,31.71
2021-07-08 15:20:07.757812500,-34.0,5.0,54.0,80.754765625,-8.16,0.5127870625000001,31.71
2021-07-08 15:20:07.765625000,-34.0,5.0,54.0,80.75203125,-9.9,0.512867125,31.71
2021-07-08 15:20:07.773437500,-34.0,5.0,54.0,80.749296875,-11.600000000000001,0.5129471875,31.71
2021-07-08 15:20:07.781250000,-34.0,5.0,54.0,80.7465625,-13.3,0.51302725,31.71
2021-07-08 15:20:07.789062500,-34.0,5.0,54.0,80.74382812500001,-14.845,0.5131073125,31.71
2021-07-08 15:20:07.796875000,-34.0,5.0,54.0,80.74109375,-16.39,0.513187375,31.71
2021-07-08 15:20:07.804687500,-34.0,5.0,54.0,80.738359375,-17.755000000000003,0.5132674375,31.71
2021-07-08 15:20:07.812500000,-34.0,5.0,54.0,80.735625,-19.12,0.5133475000000001,31.71
2021-07-08 15:20:07.820312500,-34.0,5.25,54.0,80.732890625,-20.35,0.5134275625,31.71
2021-07-08 15:20:07.828125000,-34.0,5.5,54.0,80.73015625000001,-21.58,0.513507625,31.71
2021-07-08 15:20:07.835937500,-34.0,5.75,54.0,80.727421875,-22.795,0.5135876875000001,31.71
2021-07-08 15:20:07.843750000,-34.0,6.0,54.0,80.7246875,-24.01,0.51366775,31.71
2021-07-08 15:20:07.851562500,-34.0,5.75,54.0,80.721953125,-25.37,0.5137478125,31.71
2021-07-08 15:20:07.859375000,-34.0,5.5,54.0,80.71921875,-26.73,0.513827875,31.71
2021-07-08 15:20:07.867187500,-34.0,5.25,54.0,80.71648437500001,-28.405,0.5139079375,31.71
2021-07-08 15:20:07.875000000,-34.0,5.0,54.0,80.71375,-30.08,0.513988,31.71
2021-07-08 15:20:07.882812500,-34.0,5.25,54.0,80.711015625,-32.155,0.5140680625,31.71
2021-07-08 15:20:07.890625000,-34.0,5.5,54.0,80.70828125,-34.23,0.514148125,31.71
2021-07-08 15:20:07.898437500,-34.0,5.75,54.0,80.705546875,-36.665,0.5142281875,31.71
2021-07-08 15:20:07.906250000,-34.0,6.0,54.0,80.70281250000001,-39.1,0.51430825,31.71
2021-07-08 15:20:07.914062500,-34.0,6.0,54.0,80.700078125,-41.685,0.5143883125,31.71
2021-07-08 15:20:07.921875000,-34.0,6.0,54.0,80.69734375,-44.27,0.514468375,31.71
2021-07-08 15:20:07.929687500,-34.0,6.0,54.0,80.694609375,-46.6,0.5145484375,31.71
2021-07-08 15:20:07.937500000,-34.0,6.0,54.0,80.691875,-48.93,0.5146284999999999,31.71
2021-07-08 15:20:07.945312500,-34.0,5.75,54.0,80.68914062500001,-50.5,0.5147085625,31.71
2021-07-08 15:20:07.953125000,-34.0,5.5,54.0,80.68640625,-52.07,0.514788625,31.71
2021-07-08 15:20:07.960937500,-34.0,5.25,54.0,80.683671875,-52.425,0.5148686875,31.71
2021-07-08 15:20:07.968750000,-34.0,5.0,54.0,80.6809375,-52.78,0.51494875,31.71
2021-07-08 15:20:07.976562500,-34.0,5.0,54.0,80.678203125,-51.650000000000006,0.5150288125,31.71
2021-07-08 15:20:07.984375000,-34.0,5.0,54.0,80.67546875000001,-50.52,0.515108875,31.71
2021-07-08 15:20:07.992187500,-34.0,5.0,54.0,80.672734375,-47.955,0.5151889374999999,31.71
2021-07-08 15:20:08.000000000,-34.0,5.0,54.0,80.67,-45.39,0.515269,31.71
2021-07-08 15:20:08.007812500,-34.0,5.0,54.0,80.666953125,-41.725,0.515108875,31.709375
2021-07-08 15:20:08.015625000,-34.0,5.0,54.0,80.66390625,-38.06,0.51494875,31.708750000000002
2021-07-08 15:20:08.023437500,-34.0,5.0,54.0,80.660859375,-33.85,0.514788625,31.708125000000003
2021-07-08 15:20:08.031250000,-34.0,5.0,54.0,80.6578125,-29.64,0.5146284999999999,31.7075
2021-07-08 15:20:08.039062500,-34.0,5.0,54.0,80.654765625,-25.435000000000002,0.514468375,31.706875
2021-07-08 15:20:08.046875000,-34.0,5.0,54.0,80.65171875,-21.23,0.51430825,31.70625
2021-07-08 15:20:08.054687500,-34.0,5.0,54.0,80.648671875,-17.435000000000002,0.514148125,31.705625
2021-07-08 15:20:08.062500000,-34.0,5.0,54.0,80.645625,-13.64,0.513988,31.705000000000002
2021-07-08 15:20:08.070312500,-34.0,5.25,54.0,80.642578125,-10.425,0.5138278749999999,31.704375000000002
2021-07-08 15:20:08.078125000,-34.0,5.5,54.0,80.63953125,-7.21,0.51366775,31.70375
2021-07-08 15:20:08.085937500,-34.0,5.75,54.0,80.636484375,-4.535,0.513507625,31.703125
2021-07-08 15:20:08.093750000,-34.0,6.0,54.0,80.6334375,-1.86,0.5133475,31.7025
2021-07-08 15:20:08.101562500,-34.0,5.75,54.0,80.630390625,0.44999999999999996,0.513187375,31.701875
2021-07-08 15:20:08.109375000,-34.0,5.5,54.0,80.62734375000001,2.76,0.5130272499999999,31.70125
2021-07-08 15:20:08.117187500,-34.0,5.25,54.0,80.624296875,4.865,0.512867125,31.700625000000002
2021-07-08 15:20:08.125000000,-34.0,5.0,54.0,80.62125,6.97,0.512707,31.700000000000003
2021-07-08 15:20:08.132812500,-34.0,5.0,54.0,80.61820312500001,8.98,0.512546875,31.699375
2021-07-08 15:20:08.140625000,-34.0,5.0,54.0,80.61515625,10.99,0.51238675,31.69875
2021-07-08 15:20:08.148437500,-34.0,5.0,54.0,80.612109375,12.925,0.5122266249999999,31.698125
2021-07-08 15:20:08.156250000,-34.0,5.0,54.0,80.60906250000001,14.86,0.5120665,31.6975
2021-07-08 15:20:08.164062500,-34.0,5.0,54.0,80.606015625,16.674999999999997,0.5119063749999999,31.696875000000002
2021-07-08 15:20:08.171875000,-34.0,5.0,54.0,80.60296875,18.49,0.51174625,31.696250000000003
2021-07-08 15:20:08.179687500,-34.0,5.0,54.0,80.599921875,20.125,0.511586125,31.695625
2021-07-08 15:20:08.187500000,-34.0,5.0,54.0,80.596875,21.76,0.5114259999999999,31.695
2021-07-08 15:20:08.195312500,-34.0,5.0,54.0,80.593828125,23.155,0.511265875,31.694375
2021-07-08 15:20:08.203125000,-34.0,5.0,54.0,80.59078125,24.55,0.5111057499999999,31.69375
2021-07-08 15:20:08.210937500,-34.0,5.0,54.0,80.587734375,25.64,0.510945625,31.693125000000002
2021-07-08 15:20:08.218750000,-34.0,5.0,54.0,80.5846875,26.73,0.5107855,31.692500000000003
2021-07-08 15:20:08.226562500,-34.0,5.25,54.0,80.581640625,27.495,0.5106253749999999,31.691875
2021-07-08 15:20:08.234375000,-34.0,5.5,54.0,80.57859375,28.26,0.51046525,31.69125
2021-07-08 15:20:08.242187500,-34.0,5.75,54.0,80.575546875,28.705,0.5103051249999999,31.690625
2021-07-08 15:20:08.250000000,-34.0,6.0,54.0,80.5725,29.15,0.510145,31.69
2021-07-08 15:20:08.257812500,-34.0,5.75,54.0,80.569453125,29.33,0.5103051249999999,31.69
2021-07-08 15:20:08.265625000,-34.0,5.5,54.0,80.56640625,29.51,0.51046525,31.69
2021-07-08 15:20:08.273437500,-34.0,5.25,54.0,80.563359375,29.520000000000003,0.5106253749999999,31.69
2021-07-08 15:20:08.281250000,-34.0,5.0,54.0,80.5603125,29.53,0.5107855,31.69
2021-07-08 15:20:08.289062500,-34.0,5.0,54.0,80.557265625,29.455,0.510945625,31.69
2021-07-08 15:20:08.296875000,-34.0,5.0,54.0,80.55421875,29.38,0.5111057499999999,31.69
2021-07-08 15:20:08.304687500,-34.0,5.0,54.0,80.55117187500001,29.28,0.511265875,31.69
2021-07-08 15:20:08.312500000,-34.0,5.0,54.0,80.548125,29.18,0.5114259999999999,31.69
2021-07-08 15:20:08.320312500,-34.0,5.0,54.0,80.545078125,29.07,0.511586125,31.69
2021-07-08 15:20:08.328125000,-34.0,5.0,54.0,80.54203125000001,28.96,0.51174625,31.69
2021-07-08 15:20:08.335937500,-34.0,5.0,54.0,80.538984375,28.825000000000003,0.5119063749999999,31.69
2021-07-08 15:20:08.343750000,-34.0,5.0,54.0,80.5359375,28.69,0.5120665,31.69
2021-07-08 15:20:08.351562500,-34.0,5.0,54.0,80.53289062500001,28.495,0.5122266249999999,31.69
2021-07-08 15:20:08.359375000,-34.0,5.0,54.0,80.52984375,28.3,0.51238675,31.69
2021-07-08 15:20:08.367187500,-34.0,5.0,54.0,80.526796875,28.03,0.512546875,31.69
2021-07-08 15:20:08.375000000,-34.0,5.0,54.0,80.52375,27.76,0.512707,31.69
2021-07-08 15:20:08.382812500,-34.0,5.25,54.0,80.520703125,27.435000000000002,0.512867125,31.69
2021-07-08 15:20:08.390625000,-34.0,5.5,54.0,80.51765625,27.11,0.5130272499999999,31.69
2021-07-08 15:20:08.398437500,-34.0,5.75,54.0,80.514609375,26.77,0.513187375,31.69
2021-07-08 15:20:08.406250000,-34.0,6.0,54.0,80.5115625,26.43,0.5133475,31.69
2021-07-08 15:20:08.414062500,-34.0,6.0,54.0,80.508515625,26.11,0.513507625,31.69
2021-07-08 15:20:08.421875000,-34.0,6.0,54.0,80.50546875,25.79,0.51366775,31.69
2021-07-08 15:20:08.429687500,-34.0,6.0,54.0,80.502421875,25.48,0.5138278749999999,31.69
2021-07-08 15:20:08.437500000,-34.0,6.0,54.0,80.499375,25.17,0.513988,31.69
2021-07-08 15:20:08.445312500,-34.0,6.0,54.0,80.496328125,24.840000000000003,0.514148125,31.69
2021-07-08 15:20:08.453125000,-34.0,6.0,54.0,80.49328125,24.51,0.51430825,31.69
2021-07-08 15:20:08.460937500,-34.0,6.0,54.0,80.490234375,24.12,0.514468375,31.69
2021-07-08 15:20:08.468750000,-34.0,6.0,54.0,80.4871875,23.73,0.5146284999999999,31.69
2021-07-08 15:20:08.476562500,-34.0,6.0,54.0,80.484140625,23.25,0.514788625,31.69
2021-07-08 15:20:08.484375000,-34.0,6.0,54.0,80.48109375,22.77,0.51494875,31.69
2021-07-08 15:20:08.492187500,-34.0,6.0,54.0,80.478046875,22.185000000000002,0.515108875,31.69
2021-07-08 15:20:08.500000000,-34.0,6.0,54.0,80.475,21.6,0.515269,31.69
2021-07-08 15:20:08.507812500,-34.0,6.0,54.0,80.471953125,20.925,0.51514890625,31.69
2021-07-08 15:20:08.515625000,-34.0,6.0,54.0,80.46890625,20.25,0.5150288125,31.69
2021-07-08 15:20:08.523437500,-34.0,6.0,54.0,80.46585937500001,19.515,0.51490871875,31.69
2021-07-08 15:20:08.531250000,-34.0,6.0,54.0,80.4628125,18.78,0.514788625,31.69
2021-07-08 15:20:08.539062500,-34.0,5.75,54.0,80.459765625,17.990000000000002,0.51466853125,31.69
2021-07-08 15:20:08.546875000,-34.0,5.5,54.0,80.45671875000001,17.2,0.5145484375,31.69
2021-07-08 15:20:08.554687500,-34.0,5.25,54.0,80.453671875,16.35,0.51442834375,31.69
2021-07-08 15:20:08.562500000,-34.0,5.0,54.0,80.450625,15.5,0.51430825,31.69
2021-07-08 15:20:08.570312500,-34.0,5.25,54.0,80.447578125,14.575,0.51418815625,31.69
2021-07-08 15:20:08.578125000,-34.0,5.5,54.0,80.44453125,13.65,0.5140680625,31.69
2021-07-08 15:20:08.585937500,-34.0,5.75,54.0,80.441484375,12.625,0.51394796875,31.69
2021-07-08 15:20:08.593750000,-34.0,6.0,54.0,80.4384375,11.6,0.513827875,31.69
2021-07-08 15:20:08.601562500,-34.0,6.0,54.0,80.435390625,10.475,0.51370778125,31.69
2021-07-08 15:20:08.609375000,-34.0,6.0,54.0,80.43234375,9.35,0.5135876875000001,31.69
2021-07-08 15:20:08.617187500,-34.0,6.0,54.0,80.429296875,8.135,0.5134675937500001,31.69
2021-07-08 15:20:08.625000000,-34.0,6.0,54.0,80.42625,6.92,0.5133475000000001,31.69
2021-07-08 15:20:08.632812500,-34.0,6.0,54.0,80.423203125,5.625,0.51322740625,31.69
2021-07-08 15:20:08.640625000,-34.0,6.0,54.0,80.42015625,4.33,0.5131073125,31.69
2021-07-08 15:20:08.648437500,-34.0,6.0,54.0,80.417109375,2.98,0.51298721875,31.69
2021-07-08 15:20:08.656250000,-34.0,6.0,54.0,80.4140625,1.63,0.512867125,31.69
2021-07-08 15:20:08.664062500,-34.0,6.0,54.0,80.411015625,0.2649999999999999,0.51274703125,31.69
2021-07-08 15:20:08.671875000,-34.0,6.0,54.0,80.40796875,-1.1,0.5126269375,31.69
2021-07-08 15:20:08.679687500,-34.0,6.0,54.0,80.404921875,-2.46,0.51250684375,31.69
2021-07-08 15:20:08.687500000,-34.0,6.0,54.0,80.401875,-3.82,0.51238675,31.69
2021-07-08 15:20:08.695312500,-34.0,5.75,54.0,80.398828125,-5.12,0.51226665625,31.69
2021-07-08 15:20:08.703125000,-34.0,5.5,54.0,80.39578125,-6.42,0.5121465625,31.69
2021-07-08 15:20:08.710937500,-34.0,5.25,54.0,80.392734375,-7.64,0.51202646875,31.69
2021-07-08 15:20:08.718750000,-34.0,5.0,54.0,80.38968750000001,-8.86,0.511906375,31.69
2021-07-08 15:20:08.726562500,-34.0,5.25,54.0,80.386640625,-10.015,0.51178628125,31.69
2021-07-08 15:20:08.734375000,-34.0,5.5,54.0,80.38359375,-11.17,0.5116661875,31.69
2021-07-08 15:20:08.742187500,-34.0,5.75,54.0,80.38054687500001,-12.315000000000001,0.51154609375,31.69
2021-07-08 15:20:08.750000000,-34.0,6.0,54.0,80.3775,-13.46,0.511426,31.69
2021-07-08 15:20:08.757812500,-34.0,6.0,54.0,80.374453125,-14.695,0.51154609375,31.69
2021-07-08 15:20:08.765625000,-34.0,6.0,54.0,80.37140625,-15.93,0.5116661875,31.69
2021-07-08 15:20:08.773437500,-34.0,6.0,54.0,80.368359375,-17.4,0.51178628125,31.69
2021-07-08 15:20:08.781250000,-34.0,6.0,54.0,80.3653125,-18.87,0.511906375,31.69
2021-07-08 15:20:08.789062500,-34.0,6.0,54.0,80.362265625,-20.695,0.51202646875,31.69
2021-07-08 15:20:08.796875000,-34.0,6.0,54.0,80.35921875,-22.52,0.5121465625,31.69
2021-07-08 15:20:08.804687500,-34.0,6.0,54.0,80.356171875,-24.755,0.51226665625,31.69
2021-07-08 15:20:08.812500000,-34.0,6.0,54.0,80.353125,-26.99,0.51238675,31.69
2021-07-08 15:20:08.820312500,-34.0,6.0,54.0,80.350078125,-29.57,0.51250684375,31.69
2021-07-08 15:20:08.828125000,-34.0,6.0,54.0,80.34703125,-32.15,0.5126269375,31.69
2021-07-08 15:20:08.835937500,-34.0,6.0,54.0,80.343984375,-34.825,0.51274703125,31.69
2021-07-08 15:20:08.843750000,-34.0,6.0,54.0,80.3409375,-37.5,0.512867125,31.69
2021-07-08 15:20:08.851562500,-34.0,6.0,54.0,80.337890625,-39.879999999999995,0.51298721875,31.69
2021-07-08 15:20:08.859375000,-34.0,6.0,54.0,80.33484375,-42.26,0.5131073125,31.69
2021-07-08 15:20:08.867187500,-34.0,6.0,54.0,80.331796875,-43.89,0.51322740625,31.69
2021-07-08 15:20:08.875000000,-34.0,6.0,54.0,80.32875,-45.52,0.5133475000000001,31.69
2021-07-08 15:20:08.882812500,-34.0,6.0,54.0,80.325703125,-45.97,0.5134675937500001,31.69
2021-07-08 15:20:08.890625000,-34.0,6.0,54.0,80.32265625,-46.42,0.5135876875000001,31.69
2021-07-08 15:20:08.898437500,-34.0,6.0,54.0,80.319609375,-45.45,0.51370778125,31.69
2021-07-08 15:20:08.906250000,-34.0,6.0,54.0,80.3165625,-44.48,0.513827875,31.69
2021-07-08 15:20:08.914062500,-34.0,6.0,54.0,80.31351562500001,-42.075,0.51394796875,31.69
2021-07-08 15:20:08.921875000,-34.0,6.0,54.0,80.31046875,-39.67,0.5140680625,31.69
2021-07-08 15:20:08.929687500,-34.0,6.0,54.0,80.307421875,-36.095,0.51418815625,31.69
2021-07-08 15:20:08.937500000,-34.0,6.0,54.0,80.30437500000001,-32.52,0.51430825,31.69
2021-07-08 15:20:08.945312500,-34.0,6.0,54.0,80.301328125,-28.225,0.51442834375,31.69
2021-07-08 15:20:08.953125000,-34.0,6.0,54.0,80.29828125,-23.93,0.5145484375,31.69
2021-07-08 15:20:08.960937500,-34.0,6.0,54.0,80.295234375,-19.47,0.51466853125,31.69
2021-07-08 15:20:08.968750000,-34.0,6.0,54.0,80.2921875,-15.01,0.514788625,31.69
2021-07-08 15:20:08.976562500,-34.0,6.0,54.0,80.289140625,-10.83,0.51490871875,31.69
2021-07-08 15:20:08.984375000,-34.0,6.0,54.0,80.28609375,-6.65,0.5150288125,31.69
2021-07-08 15:20:08.992187500,-34.0,6.0,54.0,80.283046875,-3.045,0.51514890625,31.69
2021-07-08 15:20:09.000000000,-34.0,6.0,54.0,80.28,0.56,0.515269,31.69
2021-07-08 15:20:09.007812500,-34.0,5.75,54.0,80.276875,3.485,0.5151889374999999,31.69
2021-07-08 15:20:09.015625000,-34.0,5.5,54.0,80.27375,6.41,0.515108875,31.69
2021-07-08 15:20:09.023437500,-34.0,5.25,54.0,80.270625,8.7,0.5150288125,31.69
2021-07-08 15:20:09.031250000,-34.0,5.0,54.0,80.2675,10.99,0.51494875,31.69
2021-07-08 15:20:09.039062500,-34.0,5.25,54.0,80.264375,12.754999999999999,0.5148686875,31.69
2021-07-08 15:20:09.046875000,-34.0,5.5,54.0,80.26125,14.52,0.514788625,31.69
2021-07-08 15:20:09.054687500,-34.0,5.75,54.0,80.258125,15.885,0.5147085625,31.69
2021-07-08 15:20:09.062500000,-34.0,6.0,54.0,80.255,17.25,0.5146284999999999,31.69
2021-07-08 15:20:09.070312500,-34.0,6.0,54.0,80.251875,18.295,0.5145484375,31.69
2021-07-08 15:20:09.078125000,-34.0,6.0,54.0,80.24875,19.34,0.514468375,31.69
2021-07-08 15:20:09.085937500,-34.0,6.0,54.0,80.245625,20.130000000000003,0.5143883125,31.69
2021-07-08 15:20:09.093750000,-34.0,6.0,54.0,80.2425,20.92,0.51430825,31.69
2021-07-08 15:20:09.101562500,-34.0,6.0,54.0,80.239375,21.47,0.5142281875,31.69
2021-07-08 15:20:09.109375000,-34.0,6.0,54.0,80.23625,22.02,0.514148125,31.69
2021-07-08 15:20:09.117187500,-34.0,6.0,54.0,80.233125,22.4,0.5140680625,31.69
2021-07-08 15:20:09.125000000,-34.0,6.0,54.0,80.23,22.78,0.513988,31.69
2021-07-08 15:20:09.132812500,-34.0,6.0,54.0,80.226875,23.025,0.5139079375,31.69
2021-07-08 15:20:09.140625000,-34.0,6.0,54.0,80.22375,23.27,0.513827875,31.69
2021-07-08 15:20:09.148437500,-34.0,6.0,54.0,80.220625,23.445,0.5137478125,31.69
2021-07-08 15:20:09.156250000,-34.0,6.0,54.0,80.2175,23.62,0.51366775,31.69
2021-07-08 15:20:09.164062500,-34.0,6.0,54.0,80.214375,23.770000000000003,0.5135876875000001,31.69
2021-07-08 15:20:09.171875000,-34.0,6.0,54.0,80.21125,23.92,0.513507625,31.69
2021-07-08 15:20:09.179687500,-34.0,6.0,54.0,80.208125,24.055,0.5134275625,31.69
2021-07-08 15:20:09.187500000,-34.0,6.0,54.0,80.205,24.19,0.5133475000000001,31.69
2021-07-08 15:20:09.195312500,-34.0,6.0,54.0,80.201875,24.325000000000003,0.5132674375,31.69
2021-07-08 15:20:09.203125000,-34.0,6.0,54.0,80.19875,24.46,0.513187375,31.69
2021-07-08 15:20:09.210937500,-34.0,6.0,54.0,80.195625,24.59,0.5131073125,31.69
2021-07-08 15:20:09.218750000,-34.0,6.0,54.0,80.1925,24.72,0.51302725,31.69
2021-07-08 15:20:09.226562500,-34.0,6.0,54.0,80.189375,24.85,0.5129471875,31.69
2021-07-08 15:20:09.234375000,-34.0,6.0,54.0,80.18625,24.98,0.512867125,31.69
2021-07-08 15:20:09.242187500,-34.0,6.0,54.0,80.183125,25.1,0.5127870625000001,31.69
2021-07-08 15:20:09.250000000,-34.0,6.0,54.0,80.18,25.22,0.512707,31.69
2021-07-08 15:20:09.257812500,-34.0,6.0,54.0,80.176875,25.33,0.5127870625000001,31.69
2021-07-08 15:20:09.265625000,-34.0,6.0,54.0,80.17375,25.44,0.512867125,31.69
2021-07-08 15:20:09.273437500,-34.0,6.0,54.0,80.170625,25.490000000000002,0.5129471875,31.69
2021-07-08 15:20:09.281250000,-34.0,6.0,54.0,80.1675,25.54,0.51302725,31.69
2021-07-08 15:20:09.289062500,-34.0,6.0,54.0,80.16437499999999,25.5,0.5131073125,31.69
2021-07-08 15:20:09.296875000,-34.0,6.0,54.0,80.16125,25.46,0.513187375,31.69
2021-07-08 15:20:09.304687500,-34.0,6.0,54.0,80.158125,25.285,0.5132674375,31.69
2021-07-08 15:20:09.312500000,-34.0,6.0,54.0,80.155,25.11,0.5133475000000001,31.69
2021-07-08 15:20:09.320312500,-34.0,6.0,54.0,80.151875,24.755,0.5134275625,31.69
2021-07-08 15:20:09.328125000,-34.0,6.0,54.0,80.14874999999999,24.4,0.513507625,31.69
2021-07-08 15:20:09.335937500,-34.0,6.0,54.0,80.145625,23.854999999999997,0.5135876875000001,31.69
2021-07-08 15:20:09.343750000,-34.0,6.0,54.0,80.1425,23.31,0.51366775,31.69
2021-07-08 15:20:09.351562500,-34.0,6.0,54.0,80.139375,22.595,0.5137478125,31.69
2021-07-08 15:20:09.359375000,-34.0,6.0,54.0,80.13625,21.88,0.513827875,31.69
2021-07-08 15:20:09.367187500,-34.0,6.0,54.0,80.13312499999999,21.045,0.5139079375,31.69
2021-07-08 15:20:09.375000000,-34.0,6.0,54.0,80.13,20.21,0.513988,31.69
2021-07-08 15:20:09.382812500,-34.0,6.0,54.0,80.126875,19.315,0.5140680625,31.69
2021-07-08 15:20:09.390625000,-34.0,6.0,54.0,80.12375,18.42,0.514148125,31.69
2021-07-08 15:20:09.398437500,-34.0,6.0,54.0,80.120625,17.525,0.5142281875,31.69
2021-07-08 15:20:09.406250000,-34.0,6.0,54.0,80.11749999999999,16.63,0.51430825,31.69
2021-07-08 15:20:09.414062500,-33.75,6.0,54.0,80.114375,15.754999999999999,0.5143883125,31.69
2021-07-08 15:20:09.421875000,-33.5,6.0,54.0,80.11125,14.88,0.514468375,31.69
2021-07-08 15:20:09.429687500,-33.25,6.0,54.0,80.108125,14.025,0.5145484375,31.69
2021-07-08 15:20:09.437500000,-33.0,6.0,54.0,80.105,13.17,0.5146284999999999,31.69
2021-07-08 15:20:09.445312500,-33.25,6.0,54.0,80.10187499999999,12.32,0.5147085625,31.69
2021-07-08 15:20:09.453125000,-33.5,6.0,54.0,80.09875,11.47,0.514788625,31.69
2021-07-08 15:20:09.460937500,-33.75,6.0,54.0,80.095625,10.57,0.5148686875,31.69
2021-07-08 15:20:09.468750000,-34.0,6.0,54.0,80.0925,9.67,0.51494875,31.69
2021-07-08 15:20:09.476562500,-34.0,6.0,54.0,80.089375,8.665,0.5150288125,31.69
2021-07-08 15:20:09.484375000,-34.0,6.0,54.0,80.08624999999999,7.66,0.515108875,31.69
2021-07-08 15:20:09.492187500,-34.0,6.0,54.0,80.083125,6.475,0.5151889374999999,31.69
2021-07-08 15:20:09.500000000,-34.0,6.0,54.0,80.08,5.29,0.515269,31.69
2021-07-08 15:20:09.507812500,-34.0,6.0,54.0,80.076875,3.87,0.51522896875,31.69
2021-07-08 15:20:09.515625000,-34.0,6.0,54.0,80.07375,2.45,0.5151889374999999,31.69
2021-07-08 15:20:09.523437500,-34.0,6.0,54.0,80.07062499999999,0.78,0.51514890625,31.69
2021-07-08 15:20:09.531250000,-34.0,6.0,54.0,80.0675,-0.89,0.515108875,31.69
2021-07-08 15:20:09.539062500,-34.0,6.0,54.0,80.064375,-2.77,0.51506884375,31.69
2021-07-08 15:20:09.546875000,-34.0,6.0,54.0,80.06125,-4.65,0.5150288125,31.69
2021-07-08 15:20:09.554687500,-34.0,6.0,54.0,80.058125,-6.625,0.51498878125,31.69
2021-07-08 15:20:09.562500000,-34.0,6.0,54.0,80.05499999999999,-8.6,0.51494875,31.69
2021-07-08 15:20:09.570312500,-34.0,6.0,54.0,80.051875,-10.504999999999999,0.51490871875,31.69
2021-07-08 15:20:09.578125000,-34.0,6.0,54.0,80.04875,-12.41,0.5148686875,31.69
2021-07-08 15:20:09.585937500,-34.0,6.0,54.0,80.045625,-14.1,0.51482865625,31.69
2021-07-08 15:20:09.593750000,-34.0,6.0,54.0,80.0425,-15.79,0.514788625,31.69
2021-07-08 15:20:09.601562500,-34.0,6.0,54.0,80.03937499999999,-17.189999999999998,0.51474859375,31.69
2021-07-08 15:20:09.609375000,-34.0,6.0,54.0,80.03625,-18.59,0.5147085625,31.69
2021-07-08 15:20:09.617187500,-34.0,6.0,54.0,80.033125,-19.740000000000002,0.51466853125,31.69
2021-07-08 15:20:09.625000000,-34.0,6.0,54.0,80.03,-20.89,0.5146284999999999,31.69
2021-07-08 15:20:09.632812500,-34.0,5.75,54.0,80.026875,-21.939999999999998,0.51458846875,31.69
2021-07-08 15:20:09.640625000,-34.0,5.5,54.0,80.02374999999999,-22.99,0.5145484375,31.69
2021-07-08 15:20:09.648437500,-34.0,5.25,54.0,80.020625,-24.17,0.5145084062499999,31.69
2021-07-08 15:20:09.656250000,-34.0,5.0,54.0,80.0175,-25.35,0.514468375,31.69
2021-07-08 15:20:09.664062500,-34.0,5.25,54.0,80.014375,-26.86,0.51442834375,31.69
2021-07-08 15:20:09.671875000,-34.0,5.5,54.0,80.01125,-28.37,0.5143883125,31.69
2021-07-08 15:20:09.679687500,-34.0,5.75,54.0,80.00812499999999,-30.310000000000002,0.51434828125,31.69
2021-07-08 15:20:09.687500000,-34.0,6.0,54.0,80.005,-32.25,0.51430825,31.69
2021-07-08 15:20:09.695312500,-34.0,6.0,54.0,80.001875,-34.555,0.51426821875,31.69
2021-07-08 15:20:09.703125000,-34.0,6.0,54.0,79.99875,-36.86,0.5142281875,31.69
2021-07-08 15:20:09.710937500,-34.0,6.0,54.0,79.995625,-39.26,0.51418815625,31.69
2021-07-08 15:20:09.718750000,-34.0,6.0,54.0,79.99249999999999,-41.66,0.514148125,31.69
2021-07-08 15:20:09.726562500,-34.0,6.0,54.0,79.989375,-43.735,0.51410809375,31.69
2021-07-08 15:20:09.734375000,-34.0,6.0,54.0,79.98625,-45.81,0.5140680625,31.69
2021-07-08 15:20:09.742187500,-34.0,6.0,54.0,79.983125,-47.075,0.51402803125,31.69
2021-07-08 15:20:09.750000000,-34.0,6.0,54.0,79.97999999999999,-48.34,0.513988,31.69
2021-07-08 15:20:09.757812500,-34.0,6.0,54.0,79.97687499999999,-48.375,0.5139079375,31.69
2021-07-08 15:20:09.765625000,-34.0,6.0,54.0,79.97375,-48.41,0.513827875,31.69
2021-07-08 15:20:09.773437500,-34.0,6.0,54.0,79.970625,-46.995,0.5137478125,31.69
2021-07-08 15:20:09.781250000,-34.0,6.0,54.0,79.9675,-45.58,0.51366775,31.69
2021-07-08 15:20:09.789062500,-34.0,6.0,54.0,79.96437499999999,-42.81,0.5135876875000001,31.69
2021-07-08 15:20:09.796875000,-34.0,6.0,54.0,79.96124999999999,-40.04,0.513507625,31.69
2021-07-08 15:20:09.804687500,-34.0,6.0,54.0,79.958125,-36.254999999999995,0.5134275625,31.69
2021-07-08 15:20:09.812500000,-34.0,6.0,54.0,79.955,-32.47,0.5133475000000001,31.69
2021-07-08 15:20:09.820312500,-34.0,6.0,54.0,79.951875,-28.215,0.5132674375,31.69
2021-07-08 15:20:09.828125000,-34.0,6.0,54.0,79.94874999999999,-23.96,0.513187375,31.69
2021-07-08 15:20:09.835937500,-34.0,6.0,54.0,79.94562499999999,-19.76,0.5131073125,31.69
2021-07-08 15:20:09.843750000,-34.0,6.0,54.0,79.9425,-15.56,0.51302725,31.69
2021-07-08 15:20:09.851562500,-34.0,6.0,54.0,79.939375,-11.805,0.5129471875,31.69
2021-07-08 15:20:09.859375000,-34.0,6.0,54.0,79.93625,-8.05,0.512867125,31.69
2021-07-08 15:20:09.867187500,-34.0,6.0,54.0,79.93312499999999,-4.905,0.5127870625000001,31.69
2021-07-08 15:20:09.875000000,-34.0,6.0,54.0,79.92999999999999,-1.76,0.512707,31.69
2021-07-08 15:20:09.882812500,-34.0,6.0,54.0,79.926875,0.8200000000000001,0.5126269375,31.69
2021-07-08 15:20:09.890625000,-34.0,6.0,54.0,79.92375,3.4,0.5125468750000001,31.69
2021-07-08 15:20:09.898437500,-34.0,6.0,54.0,79.920625,5.59,0.5124668125,31.69
2021-07-08 15:20:09.906250000,-34.0,6.0,54.0,79.91749999999999,7.78,0.51238675,31.69
2021-07-08 15:20:09.914062500,-34.0,6.0,54.0,79.91437499999999,9.735,0.5123066875000001,31.69
2021-07-08 15:20:09.921875000,-34.0,6.0,54.0,79.91125,11.69,0.512226625,31.69
2021-07-08 15:20:09.929687500,-34.0,6.0,54.0,79.908125,13.504999999999999,0.5121465625,31.69
2021-07-08 15:20:09.937500000,-34.0,6.0,54.0,79.905,15.32,0.5120665,31.69
2021-07-08 15:20:09.945312500,-34.0,6.0,54.0,79.90187499999999,16.990000000000002,0.5119864375000001,31.69
2021-07-08 15:20:09.953125000,-34.0,6.0,54.0,79.89874999999999,18.66,0.511906375,31.69
2021-07-08 15:20:09.960937500,-34.0,6.0,54.0,79.895625,20.11,0.5118263125,31.69
2021-07-08 15:20:09.968750000,-34.0,6.0,54.0,79.8925,21.56,0.5117462500000001,31.69
2021-07-08 15:20:09.976562500,-34.0,6.0,54.0,79.889375,22.715,0.5116661875,31.69
2021-07-08 15:20:09.984375000,-34.0,6.0,54.0,79.88624999999999,23.87,0.511586125,31.69
2021-07-08 15:20:09.992187500,-34.0,6.0,54.0,79.88312499999999,24.695,0.5115060625000001,31.69
2021-07-08 15:20:10.000000000,-34.0,6.0,54.0,79.88,25.52,0.511426,31.69
2021-07-08 15:20:10.007812500,-34.0,6.0,54.0,79.876875,26.025,0.51146603125,31.689375000000002
2021-07-08 15:20:10.015625000,-34.0,6.0,54.0,79.87375,26.53,0.5115060625000001,31.688750000000002
2021-07-08 15:20:10.023437500,-34.0,6.0,54.0,79.87062499999999,26.785,0.51154609375,31.688125000000003
2021-07-08 15:20:10.031250000,-34.0,6.0,54.0,79.86749999999999,27.04,0.511586125,31.6875
2021-07-08 15:20:10.039062500,-34.0,6.0,54.0,79.864375,27.11,0.5116261562500001,31.686875
2021-07-08 15:20:10.046875000,-34.0,6.0,54.0,79.86125,27.18,0.5116661875,31.68625
2021-07-08 15:20:10.054687500,-34.0,6.0,54.0,79.858125,27.119999999999997,0.51170621875,31.685625
2021-07-08 15:20:10.062500000,-34.0,6.0,54.0,79.85499999999999,27.06,0.5117462500000001,31.685000000000002
2021-07-08 15:20:10.070312500,-34.0,6.0,54.0,79.85187499999999,26.93,0.51178628125,31.684375000000003
2021-07-08 15:20:10.078125000,-34.0,6.0,54.0,79.84875,26.8,0.5118263125,31.68375
2021-07-08 15:20:10.085937500,-34.0,6.0,54.0,79.845625,26.615000000000002,0.5118663437500001,31.683125
2021-07-08 15:20:10.093750000,-34.0,6.0,54.0,79.8425,26.43,0.511906375,31.6825
2021-07-08 15:20:10.101562500,-34.0,6.0,54.0,79.83937499999999,26.240000000000002,0.51194640625,31.681875
2021-07-08 15:20:10.109375000,-34.0,6.0,54.0,79.83624999999999,26.05,0.5119864375000001,31.681250000000002
2021-07-08 15:20:10.117187500,-34.0,6.0,54.0,79.833125,25.91,0.51202646875,31.680625000000003
2021-07-08 15:20:10.125000000,-34.0,6.0,54.0,79.83,25.77,0.5120665,31.68
2021-07-08 15:20:10.132812500,-34.0,5.75,54.0,79.826875,25.725,0.51210653125,31.679375
2021-07-08 15:20:10.140625000,-34.0,5.5,54.0,79.82374999999999,25.68,0.5121465625,31.67875
2021-07-08 15:20:10.148437500,-34.0,5.25,54.0,79.82062499999999,25.759999999999998,0.5121865937500001,31.678125
2021-07-08 15:20:10.156250000,-34.0,5.0,54.0,79.8175,25.84,0.512226625,31.677500000000002
2021-07-08 15:20:10.164062500,-34.0,5.25,54.0,79.814375,26.03,0.51226665625,31.676875000000003
2021-07-08 15:20:10.171875000,-34.0,5.5,54.0,79.81125,26.22,0.5123066875000001,31.676250000000003
2021-07-08 15:20:10.179687500,-34.0,5.75,54.0,79.808125,26.45,0.51234671875,31.675625
2021-07-08 15:20:10.187500000,-34.0,6.0,54.0,79.80499999999999,26.68,0.51238675,31.675
2021-07-08 15:20:10.195312500,-34.0,5.75,54.0,79.801875,26.845,0.5124267812500001,31.674375
2021-07-08 15:20:10.203125000,-34.0,5.5,54.0,79.79875,27.01,0.5124668125,31.673750000000002
2021-07-08 15:20:10.210937500,-34.0,5.25,54.0,79.795625,27.01,0.51250684375,31.673125000000002
2021-07-08 15:20:10.218750000,-34.0,5.0,54.0,79.7925,27.01,0.5125468750000001,31.672500000000003
2021-07-08 15:20:10.226562500,-34.0,5.25,54.0,79.78937499999999,26.755000000000003,0.51258690625,31.671875
2021-07-08 15:20:10.234375000,-34.0,5.5,54.0,79.78625,26.5,0.5126269375,31.67125
2021-07-08 15:20:10.242187500,-34.0,5.75,54.0,79.783125,25.939999999999998,0.5126669687500001,31.670625
2021-07-08 15:20:10.250000000,-34.0,6.0,54.0,79.78,25.38,0.512707,31.67
2021-07-08 15:20:10.257812500,-34.0,5.75,54.0,79.776875,24.525,0.512707,31.67
2021-07-08 15:20:10.265625000,-34.0,5.5,54.0,79.77374999999999,23.67,0.512707,31.67
2021-07-08 15:20:10.273437500,-34.0,5.25,54.0,79.770625,22.605,0.512707,31.67
2021-07-08 15:20:10.281250000,-34.0,5.0,54.0,79.7675,21.54,0.512707,31.67
2021-07-08 15:20:10.289062500,-34.0,5.25,54.0,79.764375,20.38,0.512707,31.67
2021-07-08 15:20:10.296875000,-34.0,5.5,54.0,79.76125,19.22,0.512707,31.67
2021-07-08 15:20:10.304687500,-34.0,5.75,54.0,79.75812499999999,18.095,0.512707,31.67
2021-07-08 15:20:10.312500000,-34.0,6.0,54.0,79.755,16.97,0.512707,31.67
2021-07-08 15:20:10.320312500,-34.0,6.0,54.0,79.751875,15.985,0.512707,31.67
2021-07-08 15:20:10.328125000,-34.0,6.0,54.0,79.74875,15.0,0.512707,31.67
2021-07-08 15:20:10.335937500,-34.0,6.0,54.0,79.745625,14.17,0.512707,31.67
2021-07-08 15:20:10.343750000,-34.0,6.0,54.0,79.74249999999999,13.34,0.512707,31.67
2021-07-08 15:20:10.351562500,-34.0,6.0,54.0,79.739375,12.59,0.512707,31.67
2021-07-08 15:20:10.359375000,-34.0,6.0,54.0,79.73625,11.84,0.512707,31.67
2021-07-08 15:20:10.367187500,-34.0,6.0,54.0,79.733125,11.025,0.512707,31.67
2021-07-08 15:20:10.375000000,-34.0,6.0,54.0,79.73,10.21,0.512707,31.67
2021-07-08 15:20:10.382812500,-34.0,6.0,54.0,79.72687499999999,9.175,0.512707,31.67
2021-07-08 15:20:10.390625000,-34.0,6.0,54.0,79.72375,8.14,0.512707,31.67
2021-07-08 15:20:10.398437500,-34.0,6.0,54.0,79.720625,6.825,0.512707,31.67
2021-07-08 15:20:10.406250000,-34.0,6.0,54.0,79.7175,5.51,0.512707,31.67
2021-07-08 15:20:10.414062500,-34.0,6.0,54.0,79.714375,3.945,0.512707,31.67
2021-07-08 15:20:10.421875000,-34.0,6.0,54.0,79.71124999999999,2.38,0.512707,31.67
2021-07-08 15:20:10.429687500,-34.0,6.0,54.0,79.708125,0.7050000000000001,0.512707,31.67
2021-07-08 15:20:10.437500000,-34.0,6.0,54.0,79.705,-0.97,0.512707,31.67
2021-07-08 15:20:10.445312500,-34.0,5.75,54.0,79.701875,-2.5949999999999998,0.512707,31.67
2021-07-08 15:20:10.453125000,-34.0,5.5,54.0,79.69875,-4.22,0.512707,31.67
2021-07-08 15:20:10.460937500,-34.0,5.25,54.0,79.69562499999999,-5.695,0.512707,31.67
2021-07-08 15:20:10.468750000,-34.0,5.0,54.0,79.6925,-7.17,0.512707,31.67
2021-07-08 15:20:10.476562500,-34.0,5.25,54.0,79.689375,-8.51,0.512707,31.67
2021-07-08 15:20:10.484375000,-34.0,5.5,54.0,79.68625,-9.85,0.512707,31.67
2021-07-08 15:20:10.492187500,-34.0,5.75,54.0,79.683125,-11.145,0.512707,31.67
2021-07-08 15:20:10.500000000,-34.0,6.0,54.0,79.68,-12.44,0.512707,31.67
2021-07-08 15:20:10.507812500,-34.0,6.0,54.0,79.676875,-13.83,0.512707,31.67
2021-07-08 15:20:10.515625000,-34.0,6.0,54.0,79.67375,-15.22,0.512707,31.67
2021-07-08 15:20:10.523437500,-34.0,6.0,54.0,79.670625,-16.845,0.512707,31.67
2021-07-08 15:20:10.531250000,-34.0,6.0,54.0,79.6675,-18.47,0.512707,31.67
2021-07-08 15:20:10.539062500,-34.0,6.0,54.0,79.664375,-20.41,0.512707,31.67
2021-07-08 15:20:10.546875000,-34.0,6.0,54.0,79.66125,-22.35,0.512707,31.67
2021-07-08 15:20:10.554687500,-34.0,6.0,54.0,79.658125,-24.645000000000003,0.512707,31.67
2021-07-08 15:20:10.562500000,-34.0,6.0,54.0,79.655,-26.94,0.512707,31.67
2021-07-08 15:20:10.570312500,-34.0,6.0,54.0,79.651875,-29.525,0.512707,31.67
2021-07-08 15:20:10.578125000,-34.0,6.0,54.0,79.64875,-32.11,0.512707,31.67
2021-07-08 15:20:10.585937500,-34.0,6.0,54.0,79.645625,-34.8,0.512707,31.67
2021-07-08 15:20:10.593750000,-34.0,6.0,54.0,79.6425,-37.49,0.512707,31.67
2021-07-08 15:20:10.601562500,-34.0,6.0,54.0,79.639375,-39.97,0.512707,31.67
2021-07-08 15:20:10.609375000,-34.0,6.0,54.0,79.63625,-42.45,0.512707,31.67
2021-07-08 15:20:10.617187500,-34.0,6.0,54.0,79.633125,-44.28,0.512707,31.67
2021-07-08 15:20:10.625000000,-34.0,6.0,54.0,79.63,-46.11,0.512707,31.67
2021-07-08 15:20:10.632812500,-34.0,6.0,54.0,79.626875,-46.85,0.512707,31.67
2021-07-08 15:20:10.640625000,-34.0,6.0,54.0,79.62375,-47.59,0.512707,31.67
2021-07-08 15:20:10.648437500,-34.0,6.0,54.0,79.620625,-46.94,0.512707,31.67
2021-07-08 15:20:10.656250000,-34.0,6.0,54.0,79.6175,-46.29,0.512707,31.67
2021-07-08 15:20:10.664062500,-34.0,6.0,54.0,79.614375,-44.19,0.512707,31.67
2021-07-08 15:20:10.671875000,-34.0,6.0,54.0,79.61125,-42.09,0.512707,31.67
2021-07-08 15:20:10.679687500,-34.0,6.0,54.0,79.608125,-38.78,0.512707,31.67
2021-07-08 15:20:10.687500000,-34.0,6.0,54.0,79.605,-35.47,0.512707,31.67
2021-07-08 15:20:10.695312500,-34.0,6.0,54.0,79.601875,-31.41,0.512707,31.67
2021-07-08 15:20:10.703125000,-34.0,6.0,54.0,79.59875,-27.35,0.512707,31.67
2021-07-08 15:20:10.710937500,-34.0,6.0,54.0,79.595625,-23.08,0.512707,31.67
2021-07-08 15:20:10.718750000,-34.0,6.0,54.0,79.5925,-18.81,0.512707,31.67
2021-07-08 15:20:10.726562500,-34.0,6.0,54.0,79.589375,-14.82,0.512707,31.67
2021-07-08 15:20:10.734375000,-34.0,6.0,54.0,79.58625,-10.83,0.512707,31.67
2021-07-08 15:20:10.742187500,-34.0,6.0,54.0,79.583125,-7.4399999999999995,0.512707,31.67
2021-07-08 15:20:10.750000000,-34.0,6.0,54.0,79.58,-4.05,0.512707,31.67
2021-07-08 15:20:10.757812500,-34.0,6.0,54.0,79.576875,-1.335,0.512707,31.67
2021-07-08 15:20:10.765625000,-34.0,6.0,54.0,79.57375,1.38,0.512707,31.67
2021-07-08 15:20:10.773437500,-34.0,6.0,54.0,79.570625,3.505,0.512707,31.67
2021-07-08 15:20:10.781250000,-34.0,6.0,54.0,79.5675,5.63,0.512707,31.67
2021-07-08 15:20:10.789062500,-34.0,6.0,54.0,79.564375,7.375,0.512707,31.67
2021-07-08 15:20:10.796875000,-34.0,6.0,54.0,79.56125,9.12,0.512707,31.67
2021-07-08 15:20:10.804687500,-34.0,6.0,54.0,79.558125,10.69,0.512707,31.67
2021-07-08 15:20:10.812500000,-34.0,6.0,54.0,79.555,12.26,0.512707,31.67
2021-07-08 15:20:10.820312500,-34.0,6.0,54.0,79.551875,13.79,0.512707,31.67
2021-07-08 15:20:10.828125000,-34.0,6.0,54.0,79.54875,15.32,0.512707,31.67
2021-07-08 15:20:10.835937500,-34.0,6.0,54.0,79.545625,16.82,0.512707,31.67
2021-07-08 15:20:10.843750000,-34.0,6.0,54.0,79.5425,18.32,0.512707,31.67
2021-07-08 15:20:10.851562500,-34.0,6.0,54.0,79.539375,19.705,0.512707,31.67
2021-07-08 15:20:10.859375000,-34.0,6.0,54.0,79.53625000000001,21.09,0.512707,31.67
2021-07-08 15:20:10.867187500,-34.0,6.0,54.0,79.533125,22.244999999999997,0.512707,31.67
2021-07-08 15:20:10.875000000,-34.0,6.0,54.0,79.53,23.4,0.512707,31.67
2021-07-08 15:20:10.882812500,-34.0,5.75,54.0,79.526875,24.235,0.512707,31.67
2021-07-08 15:20:10.890625000,-34.0,5.5,54.0,79.52375,25.07,0.512707,31.67
2021-07-08 15:20:10.898437500,-34.0,5.25,54.0,79.52062500000001,25.6,0.512707,31.67
2021-07-08 15:20:10.906250000,-34.0,5.0,54.0,79.5175,26.13,0.512707,31.67
2021-07-08 15:20:10.914062500,-34.0,5.25,54.0,79.514375,26.43,0.512707,31.67
2021-07-08 15:20:10.921875000,-34.0,5.5,54.0,79.51125,26.73,0.512707,31.67
2021-07-08 15:20:10.929687500,-34.0,5.75,54.0,79.508125,26.925,0.512707,31.67
2021-07-08 15:20:10.937500000,-34.0,6.0,54.0,79.50500000000001,27.12,0.512707,31.67
2021-07-08 15:20:10.945312500,-34.0,6.0,54.0,79.501875,27.295,0.512707,31.67
2021-07-08 15:20:10.953125000,-34.0,6.0,54.0,79.49875,27.47,0.512707,31.67
2021-07-08 15:20:10.960937500,-34.0,6.0,54.0,79.495625,27.66,0.512707,31.67
2021-07-08 15:20:10.968750000,-34.0,6.0,54.0,79.4925,27.85,0.512707,31.67
2021-07-08 15:20:10.976562500,-34.0,5.75,54.0,79.48937500000001,28.04,0.512707,31.67
2021-07-08 15:20:10.984375000,-34.0,5.5,54.0,79.48625,28.23,0.512707,31.67
2021-07-08 15:20:10.992187500,-34.0,5.25,54.0,79.483125,28.380000000000003,0.512707,31.67
2021-07-08 15:20:11.000000000,-34.0,5.0,54.0,79.48,28.53,0.512707,31.67
2021-07-08 15:20:11.007812500,-34.0,5.25,54.0,79.476796875,28.645000000000003,0.51274703125,31.670625
2021-07-08 15:20:11.015625000,-34.0,5.5,54.0,79.47359375,28.76,0.5127870625000001,31.67125
2021-07-08 15:20:11.023437500,-34.0,5.75,54.0,79.47039062500001,28.835,0.51282709375,31.671875
2021-07-08 15:20:11.031250000,-34.0,6.0,54.0,79.46718750000001,28.91,0.512867125,31.672500000000003
2021-07-08 15:20:11.039062500,-34.0,5.75,54.0,79.46398437500001,28.96,0.51290715625,31.673125000000002
2021-07-08 15:20:11.046875000,-34.0,5.5,54.0,79.46078125,29.01,0.5129471875,31.673750000000002
2021-07-08 15:20:11.054687500,-34.0,5.25,54.0,79.457578125,29.005000000000003,0.51298721875,31.674375
2021-07-08 15:20:11.062500000,-34.0,5.0,54.0,79.454375,29.0,0.51302725,31.675
2021-07-08 15:20:11.070312500,-34.0,5.25,54.0,79.451171875,28.92,0.51306728125,31.675625
2021-07-08 15:20:11.078125000,-34.0,5.5,54.0,79.44796875,28.84,0.5131073125,31.676250000000003
2021-07-08 15:20:11.085937500,-34.0,5.75,54.0,79.444765625,28.65,0.51314734375,31.676875000000003
2021-07-08 15:20:11.093750000,-34.0,6.0,54.0,79.4415625,28.46,0.513187375,31.677500000000002
2021-07-08 15:20:11.101562500,-34.0,6.0,54.0,79.438359375,28.12,0.51322740625,31.678125
2021-07-08 15:20:11.109375000,-34.0,6.0,54.0,79.43515625,27.78,0.5132674375,31.67875
2021-07-08 15:20:11.117187500,-34.0,6.0,54.0,79.431953125,27.28,0.51330746875,31.679375
2021-07-08 15:20:11.125000000,-34.0,6.0,54.0,79.42875000000001,26.78,0.5133475000000001,31.68
2021-07-08 15:20:11.132812500,-34.0,6.0,54.0,79.42554687500001,26.115000000000002,0.51338753125,31.680625000000003
2021-07-08 15:20:11.140625000,-34.0,6.0,54.0,79.42234375,25.45,0.5134275625,31.681250000000002
2021-07-08 15:20:11.148437500,-34.0,6.0,54.0,79.419140625,24.634999999999998,0.5134675937500001,31.681875
2021-07-08 15:20:11.156250000,-34.0,6.0,54.0,79.4159375,23.82,0.513507625,31.6825
2021-07-08 15:20:11.164062500,-34.0,6.0,54.0,79.412734375,22.87,0.51354765625,31.683125
2021-07-08 15:20:11.171875000,-34.0,6.0,54.0,79.40953125,21.92,0.5135876875000001,31.68375
2021-07-08 15:20:11.179687500,-34.0,6.0,54.0,79.406328125,20.880000000000003,0.51362771875,31.684375000000003
2021-07-08 15:20:11.187500000,-34.0,6.0,54.0,79.403125,19.84,0.51366775,31.685000000000002
2021-07-08 15:20:11.195312500,-34.0,6.0,54.0,79.399921875,18.755000000000003,0.51370778125,31.685625
2021-07-08 15:20:11.203125000,-34.0,6.0,54.0,79.39671875,17.67,0.5137478125,31.68625
2021-07-08 15:20:11.210937500,-34.0,6.0,54.0,79.393515625,16.615000000000002,0.51378784375,31.686875
2021-07-08 15:20:11.218750000,-34.0,6.0,54.0,79.39031250000001,15.56,0.513827875,31.6875
2021-07-08 15:20:11.226562500,-34.0,5.75,54.0,79.38710937500001,14.565000000000001,0.51386790625,31.688125000000003
2021-07-08 15:20:11.234375000,-34.0,5.5,54.0,79.38390625,13.57,0.5139079375,31.688750000000002
2021-07-08 15:20:11.242187500,-34.0,5.25,54.0,79.380703125,12.65,0.51394796875,31.689375000000002
2021-07-08 15:20:11.250000000,-34.0,5.0,54.0,79.3775,11.73,0.513988,31.69
2021-07-08 15:20:11.257812500,-34.0,5.25,54.0,79.374296875,10.86,0.51394796875,31.69
2021-07-08 15:20:11.265625000,-34.0,5.5,54.0,79.37109375,9.99,0.5139079375,31.69
2021-07-08 15:20:11.273437500,-34.0,5.75,54.0,79.367890625,9.11,0.51386790625,31.69
2021-07-08 15:20:11.281250000,-34.0,6.0,54.0,79.3646875,8.23,0.513827875,31.69
2021-07-08 15:20:11.289062500,-34.0,6.0,54.0,79.361484375,7.305,0.51378784375,31.69
2021-07-08 15:20:11.296875000,-34.0,6.0,54.0,79.35828125,6.38,0.5137478125,31.69
2021-07-08 15:20:11.304687500,-34.0,6.0,54.0,79.355078125,5.375,0.51370778125,31.69
2021-07-08 15:20:11.312500000,-34.0,6.0,54.0,79.351875,4.37,0.51366775,31.69
2021-07-08 15:20:11.320312500,-34.0,5.75,54.0,79.348671875,3.3,0.51362771875,31.69
2021-07-08 15:20:11.328125000,-34.0,5.5,54.0,79.34546875,2.23,0.5135876875000001,31.69
2021-07-08 15:20:11.335937500,-34.0,5.25,54.0,79.342265625,1.115,0.51354765625,31.69
2021-07-08 15:20:11.343750000,-34.0,5.0,54.0,79.3390625,0.0,0.513507625,31.69
2021-07-08 15:20:11.351562500,-34.0,5.25,54.0,79.335859375,-1.125,0.5134675937500001,31.69
2021-07-08 15:20:11.359375000,-34.0,5.5,54.0,79.33265625,-2.25,0.5134275625,31.69
2021-07-08 15:20:11.367187500,-34.0,5.75,54.0,79.329453125,-3.36,0.51338753125,31.69
2021-07-08 15:20:11.375000000,-34.0,6.0,54.0,79.32625,-4.47,0.5133475000000001,31.69
2021-07-08 15:20:11.382812500,-34.0,6.0,54.0,79.323046875,-5.555,0.51330746875,31.69
2021-07-08 15:20:11.390625000,-34.0,6.0,54.0,79.31984375,-6.64,0.5132674375,31.69
2021-07-08 15:20:11.398437500,-34.0,6.0,54.0,79.316640625,-7.6850000000000005,0.51322740625,31.69
2021-07-08 15:20:11.406250000,-34.0,6.0,54.0,79.3134375,-8.73,0.513187375,31.69
2021-07-08 15:20:11.414062500,-34.0,5.75,54.0,79.310234375,-9.77,0.51314734375,31.69
2021-07-08 15:20:11.421875000,-34.0,5.5,54.0,79.30703125,-10.81,0.5131073125,31.69
2021-07-08 15:20:11.429687500,-34.0,5.25,54.0,79.303828125,-11.875,0.51306728125,31.69
2021-07-08 15:20:11.437500000,-34.0,5.0,54.0,79.300625,-12.94,0.51302725,31.69
2021-07-08 15:20:11.445312500,-34.0,5.25,54.0,79.297421875,-14.094999999999999,0.51298721875,31.69
2021-07-08 15:20:11.453125000,-34.0,5.5,54.0,79.29421875,-15.25,0.5129471875,31.69
2021-07-08 15:20:11.460937500,-34.0,5.75,54.0,79.291015625,-16.58,0.51290715625,31.69
2021-07-08 15:20:11.468750000,-34.0,6.0,54.0,79.2878125,-17.91,0.512867125,31.69
2021-07-08 15:20:11.476562500,-34.0,5.75,54.0,79.284609375,-19.5,0.51282709375,31.69
2021-07-08 15:20:11.484375000,-34.0,5.5,54.0,79.28140625,-21.09,0.5127870625000001,31.69
2021-07-08 15:20:11.492187500,-34.0,5.25,54.0,79.278203125,-23.0,0.51274703125,31.69
2021-07-08 15:20:11.500000000,-34.0,5.0,54.0,79.275,-24.91,0.512707,31.69
2021-07-08 15:20:11.507812500,-34.0,5.25,54.0,79.27179687499999,-27.085,0.512707,31.69
2021-07-08 15:20:11.515625000,-34.0,5.5,54.0,79.26859375,-29.26,0.512707,31.69
2021-07-08 15:20:11.523437500,-34.0,5.75,54.0,79.265390625,-31.515,0.512707,31.69
2021-07-08 15:20:11.531250000,-34.0,6.0,54.0,79.2621875,-33.77,0.512707,31.69
2021-07-08 15:20:11.539062500,-34.0,5.75,54.0,79.258984375,-35.765,0.512707,31.69
2021-07-08 15:20:11.546875000,-34.0,5.5,54.0,79.25578125,-37.76,0.512707,31.69
2021-07-08 15:20:11.554687500,-34.0,5.25,54.0,79.252578125,-39.08,0.512707,31.69
2021-07-08 15:20:11.562500000,-34.0,5.0,54.0,79.249375,-40.4,0.512707,31.69
2021-07-08 15:20:11.570312500,-34.0,5.0,54.0,79.246171875,-40.65,0.512707,31.69
2021-07-08 15:20:11.578125000,-34.0,5.0,54.0,79.24296875,-40.9,0.512707,31.69
2021-07-08 15:20:11.585937500,-34.0,5.0,54.0,79.239765625,-39.89,0.512707,31.69
2021-07-08 15:20:11.593750000,-34.0,5.0,54.0,79.23656249999999,-38.88,0.512707,31.69
2021-07-08 15:20:11.601562500,-34.0,5.25,54.0,79.23335937499999,-36.66,0.512707,31.69
2021-07-08 15:20:11.609375000,-34.0,5.5,54.0,79.23015625,-34.44,0.512707,31.69
2021-07-08 15:20:11.617187500,-34.0,5.75,54.0,79.226953125,-31.354999999999997,0.512707,31.69
2021-07-08 15:20:11.625000000,-34.0,6.0,54.0,79.22375,-28.27,0.512707,31.69
2021-07-08 15:20:11.632812500,-34.0,6.0,54.0,79.220546875,-24.79,0.512707,31.69
2021-07-08 15:20:11.640625000,-34.0,6.0,54.0,79.21734375,-21.31,0.512707,31.69
2021-07-08 15:20:11.648437500,-34.0,6.0,54.0,79.214140625,-17.88,0.512707,31.69
2021-07-08 15:20:11.656250000,-34.0,6.0,54.0,79.2109375,-14.45,0.512707,31.69
2021-07-08 15:20:11.664062500,-34.0,5.75,54.0,79.207734375,-11.399999999999999,0.512707,31.69
2021-07-08 15:20:11.671875000,-34.0,5.5,54.0,79.20453125,-8.35,0.512707,31.69
2021-07-08 15:20:11.679687500,-34.0,5.25,54.0,79.201328125,-5.765,0.512707,31.69
2021-07-08 15:20:11.687500000,-34.0,5.0,54.0,79.19812499999999,-3.18,0.512707,31.69
2021-07-08 15:20:11.695312500,-34.0,5.25,54.0,79.19492187499999,-1.0050000000000003,0.512707,31.69
2021-07-08 15:20:11.703125000,-34.0,5.5,54.0,79.19171874999999,1.17,0.512707,31.69
2021-07-08 15:20:11.710937500,-34.0,5.75,54.0,79.188515625,3.065,0.512707,31.69
2021-07-08 15:20:11.718750000,-34.0,6.0,54.0,79.1853125,4.96,0.512707,31.69
2021-07-08 15:20:11.726562500,-34.0,5.75,54.0,79.182109375,6.675000000000001,0.512707,31.69
2021-07-08 15:20:11.734375000,-34.0,5.5,54.0,79.17890625,8.39,0.512707,31.69
2021-07-08 15:20:11.742187500,-34.0,5.25,54.0,79.175703125,9.97,0.512707,31.69
2021-07-08 15:20:11.750000000,-34.0,5.0,54.0,79.1725,11.55,0.512707,31.69
2021-07-08 15:20:11.757812500,-34.0,5.0,54.0,79.169296875,12.955,0.512586875,31.69
2021-07-08 15:20:11.765625000,-34.0,5.0,54.0,79.16609375,14.36,0.51246675,31.69
2021-07-08 15:20:11.773437500,-34.0,5.0,54.0,79.16289062499999,15.57,0.512346625,31.69
2021-07-08 15:20:11.781250000,-34.0,5.0,54.0,79.15968749999999,16.78,0.5122265,31.69
2021-07-08 15:20:11.789062500,-34.0,5.25,54.0,79.15648437499999,17.785,0.512106375,31.69
2021-07-08 15:20:11.796875000,-34.0,5.5,54.0,79.15328124999999,18.79,0.51198625,31.69
2021-07-08 15:20:11.804687500,-34.0,5.75,54.0,79.150078125,19.605,0.5118661250000001,31.69
2021-07-08 15:20:11.812500000,-34.0,6.0,54.0,79.146875,20.42,0.511746,31.69
2021-07-08 15:20:11.820312500,-34.0,5.75,54.0,79.143671875,21.08,0.511625875,31.69
2021-07-08 15:20:11.828125000,-34.0,5.5,54.0,79.14046875,21.74,0.51150575,31.69
2021-07-08 15:20:11.835937500,-34.0,5.25,54.0,79.137265625,22.24,0.511385625,31.69
2021-07-08 15:20:11.843750000,-34.0,5.0,54.0,79.1340625,22.74,0.5112655,31.69
2021-07-08 15:20:11.851562500,-34.0,5.25,54.0,79.130859375,23.075,0.511145375,31.69
2021-07-08 15:20:11.859375000,-34.0,5.5,54.0,79.12765625,23.41,0.51102525,31.69
2021-07-08 15:20:11.867187500,-34.0,5.75,54.0,79.12445312499999,23.57,0.510905125,31.69
2021-07-08 15:20:11.875000000,-34.0,6.0,54.0,79.12124999999999,23.73,0.510785,31.69
2021-07-08 15:20:11.882812500,-34.0,6.0,54.0,79.11804687499999,23.73,0.510664875,31.69
2021-07-08 15:20:11.890625000,-34.0,6.0,54.0,79.11484374999999,23.73,0.51054475,31.69
2021-07-08 15:20:11.898437500,-34.0,6.0,54.0,79.11164062499999,23.625,0.510424625,31.69
2021-07-08 15:20:11.906250000,-34.0,6.0,54.0,79.1084375,23.52,0.5103044999999999,31.69
2021-07-08 15:20:11.914062500,-34.0,6.0,54.0,79.105234375,23.39,0.510184375,31.69
2021-07-08 15:20:11.921875000,-34.0,6.0,54.0,79.10203125,23.26,0.51006425,31.69
2021-07-08 15:20:11.929687500,-34.0,6.0,54.0,79.098828125,23.175,0.509944125,31.69
2021-07-08 15:20:11.937500000,-34.0,6.0,54.0,79.095625,23.09,0.5098239999999999,31.69
2021-07-08 15:20:11.945312500,-34.0,5.75,54.0,79.092421875,23.085,0.5097038749999999,31.69
2021-07-08 15:20:11.953125000,-34.0,5.5,54.0,79.08921875,23.08,0.50958375,31.69
2021-07-08 15:20:11.960937500,-34.0,5.25,54.0,79.08601562499999,23.15,0.509463625,31.69
2021-07-08 15:20:11.968750000,-34.0,5.0,54.0,79.08281249999999,23.22,0.5093435,31.69
2021-07-08 15:20:11.976562500,-34.0,5.25,54.0,79.07960937499999,23.299999999999997,0.5092233749999999,31.69
2021-07-08 15:20:11.984375000,-34.0,5.5,54.0,79.07640624999999,23.38,0.50910325,31.69
2021-07-08 15:20:11.992187500,-34.0,5.75,54.0,79.07320312499999,23.38,0.508983125,31.69
2021-07-08 15:20:12.000000000,-34.0,6.0,54.0,79.07,23.38,0.508863,31.69
2021-07-08 15:20:12.007812500,-34.0,5.75,54.0,79.06671874999999,23.229999999999997,0.5089430937499999,31.689375000000002
2021-07-08 15:20:12.015625000,-34.0,5.5,54.0,79.06343749999999,23.08,0.5090231875,31.688750000000002
2021-07-08 15:20:12.023437500,-34.0,5.25,54.0,79.06015624999999,22.729999999999997,0.5091032812499999,31.688125000000003
2021-07-08 15:20:12.031250000,-34.0,5.0,54.0,79.05687499999999,22.38,0.509183375,31.6875
2021-07-08 15:20:12.039062500,-34.0,5.25,54.0,79.05359374999999,21.835,0.50926346875,31.686875
2021-07-08 15:20:12.046875000,-34.0,5.5,54.0,79.05031249999999,21.29,0.5093435625,31.68625
2021-07-08 15:20:12.054687500,-34.0,5.75,54.0,79.04703124999999,20.59,0.50942365625,31.685625
2021-07-08 15:20:12.062500000,-34.0,6.0,54.0,79.04374999999999,19.89,0.5095037499999999,31.685000000000002
2021-07-08 15:20:12.070312500,-34.0,6.0,54.0,79.04046874999999,19.11,0.50958384375,31.684375000000003
2021-07-08 15:20:12.078125000,-34.0,6.0,54.0,79.03718749999999,18.33,0.5096639374999999,31.68375
2021-07-08 15:20:12.085937500,-34.0,6.0,54.0,79.03390625,17.53,0.50974403125,31.683125
2021-07-08 15:20:12.093750000,-34.0,6.0,54.0,79.030625,16.73,0.509824125,31.6825
2021-07-08 15:20:12.101562500,-34.0,6.0,54.0,79.02734375,15.96,0.50990421875,31.681875
2021-07-08 15:20:12.109375000,-34.0,6.0,54.0,79.0240625,15.19,0.5099843125,31.681250000000002
2021-07-08 15:20:12.117187500,-34.0,6.0,54.0,79.02078125,14.465,0.51006440625,31.680625000000003
2021-07-08 15:20:12.125000000,-34.0,6.0,54.0,79.0175,13.74,0.5101445,31.68
2021-07-08 15:20:12.132812500,-34.0,6.0,54.0,79.01421875,13.055,0.51022459375,31.679375
2021-07-08 15:20:12.140625000,-34.0,6.0,54.0,79.0109375,12.37,0.5103046875,31.67875
2021-07-08 15:20:12.148437500,-34.0,6.0,54.0,79.00765625,11.71,0.51038478125,31.678125
2021-07-08 15:20:12.156250000,-34.0,6.0,54.0,79.004375,11.05,0.510464875,31.677500000000002
2021-07-08 15:20:12.164062500,-34.0,5.75,54.0,79.00109375,10.38,0.51054496875,31.676875000000003
2021-07-08 15:20:12.171875000,-34.0,5.5,54.0,78.9978125,9.71,0.5106250625000001,31.676250000000003
2021-07-08 15:20:12.179687500,-34.0,5.25,54.0,78.99453125,9.04,0.51070515625,31.675625
2021-07-08 15:20:12.187500000,-34.0,5.0,54.0,78.99125,8.37,0.5107852500000001,31.675
2021-07-08 15:20:12.195312500,-34.0,5.25,54.0,78.98796875,7.705,0.51086534375,31.674375
2021-07-08 15:20:12.203125000,-34.0,5.5,54.0,78.98468749999999,7.04,0.5109454375,31.673750000000002
2021-07-08 15:20:12.210937500,-34.0,5.75,54.0,78.98140624999999,6.42,0.51102553125,31.673125000000002
2021-07-08 15:20:12.218750000,-34.0,6.0,54.0,78.97812499999999,5.8,0.511105625,31.672500000000003
2021-07-08 15:20:12.226562500,-34.0,6.0,54.0,78.97484374999999,5.245,0.5111857187500001,31.671875
2021-07-08 15:20:12.234375000,-34.0,6.0,54.0,78.97156249999999,4.69,0.5112658125,31.67125
2021-07-08 15:20:12.242187500,-34.0,6.0,54.0,78.96828124999999,4.17,0.5113459062500001,31.670625
2021-07-08 15:20:12.250000000,-34.0,6.0,54.0,78.965,3.65,0.511426,31.67
2021-07-08 15:20:12.257812500,-34.0,6.0,54.0,78.96171875,3.115,0.5113459062500001,31.67
2021-07-08 15:20:12.265625000,-34.0,6.0,54.0,78.9584375,2.58,0.5112658125,31.67
2021-07-08 15:20:12.273437500,-34.0,6.0,54.0,78.95515625,1.92,0.5111857187500001,31.67
2021-07-08 15:20:12.281250000,-34.0,6.0,54.0,78.951875,1.26,0.511105625,31.67
2021-07-08 15:20:12.289062500,-34.0,6.0,54.0,78.94859375,0.395,0.51102553125,31.67
2021-07-08 15:20:12.296875000,-34.0,6.0,54.0,78.9453125,-0.47,0.5109454375,31.67
2021-07-08 15:20:12.304687500,-34.0,6.0,54.0,78.94203125,-1.5799999999999998,0.51086534375,31.67
2021-07-08 15:20:12.312500000,-34.0,6.0,54.0,78.93875,-2.69,0.5107852500000001,31.67
2021-07-08 15:20:12.320312500,-34.0,6.0,54.0,78.93546875,-4.02,0.51070515625,31.67
2021-07-08 15:20:12.328125000,-34.0,6.0,54.0,78.9321875,-5.35,0.5106250625000001,31.67
2021-07-08 15:20:12.335937500,-34.0,6.0,54.0,78.92890625,-6.79,0.51054496875,31.67
2021-07-08 15:20:12.343750000,-34.0,6.0,54.0,78.925625,-8.23,0.510464875,31.67
2021-07-08 15:20:12.351562500,-33.75,5.75,54.0,78.92234375,-9.635,0.51038478125,31.67
2021-07-08 15:20:12.359375000,-33.5,5.5,54.0,78.9190625,-11.04,0.5103046875,31.67
2021-07-08 15:20:12.367187500,-33.25,5.25,54.0,78.91578125,-12.295,0.51022459375,31.67
2021-07-08 15:20:12.375000000,-33.0,5.0,54.0,78.9125,-13.55,0.5101445,31.67
2021-07-08 15:20:12.382812500,-33.25,5.25,54.0,78.90921875,-14.585,0.51006440625,31.67
2021-07-08 15:20:12.390625000,-33.5,5.5,54.0,78.9059375,-15.62,0.5099843125,31.67
2021-07-08 15:20:12.398437500,-33.75,5.75,54.0,78.90265624999999,-16.45,0.50990421875,31.67
2021-07-08 15:20:12.406250000,-34.0,6.0,54.0,78.89937499999999,-17.28,0.509824125,31.67
2021-07-08 15:20:12.414062500,-34.0,6.0,54.0,78.89609374999999,-18.009999999999998,0.50974403125,31.67
2021-07-08 15:20:12.421875000,-34.0,6.0,54.0,78.8928125,-18.74,0.5096639374999999,31.67
2021-07-08 15:20:12.429687500,-34.0,6.0,54.0,78.88953125,-19.53,0.50958384375,31.67
2021-07-08 15:20:12.437500000,-34.0,6.0,54.0,78.88625,-20.32,0.5095037499999999,31.67
2021-07-08 15:20:12.445312500,-34.0,5.75,54.0,78.88296875,-21.314999999999998,0.50942365625,31.67
2021-07-08 15:20:12.453125000,-34.0,5.5,54.0,78.8796875,-22.31,0.5093435625,31.67
2021-07-08 15:20:12.460937500,-34.0,5.25,54.0,78.87640625,-23.61,0.50926346875,31.67
2021-07-08 15:20:12.468750000,-34.0,5.0,54.0,78.873125,-24.91,0.509183375,31.67
2021-07-08 15:20:12.476562500,-34.0,5.25,54.0,78.86984375,-26.485,0.5091032812499999,31.67
2021-07-08 15:20:12.484375000,-34.0,5.5,54.0,78.8665625,-28.06,0.5090231875,31.67
2021-07-08 15:20:12.492187500,-34.0,5.75,54.0,78.86328125,-29.725,0.5089430937499999,31.67
2021-07-08 15:20:12.500000000,-34.0,6.0,54.0,78.86,-31.39,0.508863,31.67
2021-07-08 15:20:12.507812500,-34.0,5.75,54.0,78.85671875,-32.82,0.5090231562499999,31.67
2021-07-08 15:20:12.515625000,-34.0,5.5,54.0,78.8534375,-34.25,0.5091833124999999,31.67
2021-07-08 15:20:12.523437500,-34.0,5.25,54.0,78.85015625,-35.08,0.5093434687499999,31.67
2021-07-08 15:20:12.531250000,-34.0,5.0,54.0,78.846875,-35.91,0.509503625,31.67
2021-07-08 15:20:12.539062500,-34.0,5.25,54.0,78.84359375,-35.805,0.50966378125,31.67
2021-07-08 15:20:12.546875000,-34.0,5.5,54.0,78.8403125,-35.7,0.5098239375,31.67
2021-07-08 15:20:12.554687500,-34.0,5.75,54.0,78.83703125,-34.540000000000006,0.50998409375,31.67
2021-07-08 15:20:12.562500000,-34.0,6.0,54.0,78.83375,-33.38,0.51014425,31.67
2021-07-08 15:20:12.570312500,-34.0,5.75,54.0,78.83046875,-31.270000000000003,0.51030440625,31.67
2021-07-08 15:20:12.578125000,-34.0,5.5,54.0,78.8271875,-29.16,0.5104645624999999,31.67
2021-07-08 15:20:12.585937500,-34.0,5.25,54.0,78.82390625000001,-26.405,0.5106247187499999,31.67
2021-07-08 15:20:12.593750000,-34.0,5.0,54.0,78.820625,-23.65,0.5107848749999999,31.67
2021-07-08 15:20:12.601562500,-34.0,5.25,54.0,78.81734375,-20.655,0.51094503125,31.67
2021-07-08 15:20:12.609375000,-34.0,5.5,54.0,78.8140625,-17.66,0.5111051875,31.67
2021-07-08 15:20:12.617187500,-34.0,5.75,54.0,78.81078125,-14.825,0.51126534375,31.67
2021-07-08 15:20:12.625000000,-34.0,6.0,54.0,78.8075,-11.99,0.5114255,31.67
2021-07-08 15:20:12.632812500,-34.0,6.0,54.0,78.80421875,-9.57,0.51158565625,31.67
2021-07-08 15:20:12.640625000,-34.0,6.0,54.0,78.8009375,-7.15,0.5117458125,31.67
2021-07-08 15:20:12.648437500,-34.0,6.0,54.0,78.79765625,-5.220000000000001,0.5119059687499999,31.67
2021-07-08 15:20:12.656250000,-34.0,6.0,54.0,78.794375,-3.29,0.512066125,31.67
2021-07-08 15:20:12.664062500,-34.0,6.0,54.0,78.79109375,-1.76,0.51222628125,31.67
2021-07-08 15:20:12.671875000,-34.0,6.0,54.0,78.7878125,-0.23,0.5123864375,31.67
2021-07-08 15:20:12.679687500,-34.0,6.0,54.0,78.78453125,1.065,0.51254659375,31.67
2021-07-08 15:20:12.687500000,-34.0,6.0,54.0,78.78125,2.36,0.51270675,31.67
2021-07-08 15:20:12.695312500,-34.0,6.0,54.0,78.77796875,3.5949999999999998,0.51286690625,31.67
2021-07-08 15:20:12.703125000,-34.0,6.0,54.0,78.7746875,4.83,0.5130270625,31.67
2021-07-08 15:20:12.710937500,-34.0,6.0,54.0,78.77140625,6.115,0.51318721875,31.67
2021-07-08 15:20:12.718750000,-34.0,6.0,54.0,78.768125,7.4,0.5133473749999999,31.67
2021-07-08 15:20:12.726562500,-34.0,5.75,54.0,78.76484375,8.754999999999999,0.51350753125,31.67
2021-07-08 15:20:12.734375000,-34.0,5.5,54.0,78.7615625,10.11,0.5136676875,31.67
2021-07-08 15:20:12.742187500,-34.0,5.25,54.0,78.75828125,11.445,0.51382784375,31.67
2021-07-08 15:20:12.750000000,-34.0,5.0,54.0,78.755,12.78,0.513988,31.67
2021-07-08 15:20:12.757812500,-34.0,5.25,54.0,78.75171875000001,13.989999999999998,0.51382784375,31.67
2021-07-08 15:20:12.765625000,-34.0,5.5,54.0,78.74843750000001,15.2,0.5136676875,31.67
2021-07-08 15:20:12.773437500,-34.0,5.75,54.0,78.74515625000001,16.17,0.51350753125,31.67
2021-07-08 15:20:12.781250000,-34.0,6.0,54.0,78.74187500000001,17.14,0.5133473749999999,31.67
2021-07-08 15:20:12.789062500,-34.0,6.0,54.0,78.73859375,17.795,0.51318721875,31.67
2021-07-08 15:20:12.796875000,-34.0,6.0,54.0,78.7353125,18.45,0.5130270625,31.67
2021-07-08 15:20:12.804687500,-34.0,6.0,54.0,78.73203125,18.805,0.51286690625,31.67
2021-07-08 15:20:12.812500000,-34.0,6.0,54.0,78.72875,19.16,0.51270675,31.67
2021-07-08 15:20:12.820312500,-34.0,6.0,54.0,78.72546875,19.295,0.51254659375,31.67
2021-07-08 15:20:12.828125000,-34.0,6.0,54.0,78.7221875,19.43,0.5123864375,31.67
2021-07-08 15:20:12.835937500,-34.0,6.0,54.0,78.71890625,19.445,0.51222628125,31.67
2021-07-08 15:20:12.843750000,-34.0,6.0,54.0,78.715625,19.46,0.512066125,31.67
2021-07-08 15:20:12.851562500,-34.0,6.0,54.0,78.71234375,19.455,0.5119059687499999,31.67
2021-07-08 15:20:12.859375000,-34.0,6.0,54.0,78.7090625,19.45,0.5117458125,31.67
2021-07-08 15:20:12.867187500,-34.0,6.0,54.0,78.70578125,19.5,0.51158565625,31.67
2021-07-08 15:20:12.875000000,-34.0,6.0,54.0,78.7025,19.55,0.5114255,31.67
2021-07-08 15:20:12.882812500,-34.0,6.0,54.0,78.69921875,19.64,0.51126534375,31.67
2021-07-08 15:20:12.890625000,-34.0,6.0,54.0,78.6959375,19.73,0.5111051875,31.67
2021-07-08 15:20:12.898437500,-34.0,6.0,54.0,78.69265625,19.84,0.51094503125,31.67
2021-07-08 15:20:12.906250000,-34.0,6.0,54.0,78.689375,19.95,0.5107848749999999,31.67
2021-07-08 15:20:12.914062500,-34.0,6.0,54.0,78.68609375,20.025,0.5106247187499999,31.67
2021-07-08 15:20:12.921875000,-34.0,6.0,54.0,78.68281250000001,20.1,0.5104645624999999,31.67
2021-07-08 15:20:12.929687500,-34.0,6.0,54.0,78.67953125000001,20.09,0.51030440625,31.67
2021-07-08 15:20:12.937500000,-34.0,6.0,54.0,78.67625000000001,20.08,0.51014425,31.67
2021-07-08 15:20:12.945312500,-34.0,6.0,54.0,78.67296875000001,19.955,0.50998409375,31.67
2021-07-08 15:20:12.953125000,-34.0,6.0,54.0,78.66968750000001,19.83,0.5098239375,31.67
2021-07-08 15:20:12.960937500,-34.0,6.0,54.0,78.66640625000001,19.58,0.50966378125,31.67
2021-07-08 15:20:12.968750000,-34.0,6.0,54.0,78.66312500000001,19.33,0.509503625,31.67
2021-07-08 15:20:12.976562500,-34.0,6.0,54.0,78.65984375000001,18.924999999999997,0.5093434687499999,31.67
2021-07-08 15:20:12.984375000,-34.0,6.0,54.0,78.6565625,18.52,0.5091833124999999,31.67
2021-07-08 15:20:12.992187500,-34.0,6.0,54.0,78.65328125,17.95,0.5090231562499999,31.67
2021-07-08 15:20:13.000000000,-34.0,6.0,54.0,78.65,17.38,0.508863,31.67
2021-07-08 15:20:13.007812500,-34.0,6.0,54.0,78.64671875,16.625,0.5089030625,31.67
2021-07-08 15:20:13.015625000,-34.0,6.0,54.0,78.6434375,15.87,0.5089431249999999,31.67
2021-07-08 15:20:13.023437500,-34.0,6.0,54.0,78.64015625,14.945,0.5089831874999999,31.67
2021-07-08 15:20:13.031250000,-34.0,6.0,54.0,78.636875,14.02,0.5090232499999999,31.67
2021-07-08 15:20:13.039062500,-34.0,6.0,54.0,78.63359375,12.98,0.5090633124999999,31.67
2021-07-08 15:20:13.046875000,-34.0,6.0,54.0,78.6303125,11.94,0.5091033749999999,31.67
2021-07-08 15:20:13.054687500,-34.0,6.0,54.0,78.62703125,10.864999999999998,0.5091434374999999,31.67
2021-07-08 15:20:13.062500000,-34.0,6.0,54.0,78.62375,9.79,0.5091835,31.67
2021-07-08 15:20:13.070312500,-34.0,6.0,54.0,78.62046875,8.77,0.5092235625,31.67
2021-07-08 15:20:13.078125000,-34.0,6.0,54.0,78.6171875,7.75,0.509263625,31.67
2021-07-08 15:20:13.085937500,-34.0,6.0,54.0,78.61390625,6.835,0.5093036875,31.67
2021-07-08 15:20:13.093750000,-34.0,6.0,54.0,78.610625,5.92,0.50934375,31.67
2021-07-08 15:20:13.101562500,-34.0,6.0,54.0,78.60734375000001,5.115,0.5093838125,31.67
2021-07-08 15:20:13.109375000,-34.0,6.0,54.0,78.60406250000001,4.31,0.509423875,31.67
2021-07-08 15:20:13.117187500,-34.0,6.0,54.0,78.60078125000001,3.5999999999999996,0.5094639375,31.67
2021-07-08 15:20:13.125000000,-34.0,6.0,54.0,78.59750000000001,2.89,0.509504,31.67
2021-07-08 15:20:13.132812500,-34.0,5.75,54.0,78.59421875000001,2.245,0.5095440625,31.67
2021-07-08 15:20:13.140625000,-34.0,5.5,54.0,78.59093750000001,1.6,0.5095841249999999,31.67
2021-07-08 15:20:13.148437500,-34.0,5.25,54.0,78.58765625000001,1.005,0.5096241874999999,31.67
2021-07-08 15:20:13.156250000,-34.0,5.0,54.0,78.58437500000001,0.41,0.5096642499999999,31.67
2021-07-08 15:20:13.164062500,-34.0,5.0,54.0,78.58109375000001,-0.13000000000000006,0.5097043124999999,31.67
2021-07-08 15:20:13.171875000,-34.0,5.0,54.0,78.57781250000001,-0.67,0.5097443749999999,31.67
2021-07-08 15:20:13.179687500,-34.0,5.0,54.0,78.57453125,-1.155,0.5097844374999999,31.67
2021-07-08 15:20:13.187500000,-34.0,5.0,54.0,78.57125,-1.64,0.5098244999999999,31.67
2021-07-08 15:20:13.195312500,-33.75,5.0,54.0,78.56796875,-2.09,0.5098645625,31.67
2021-07-08 15:20:13.203125000,-33.5,5.0,54.0,78.5646875,-2.54,0.509904625,31.67
2021-07-08 15:20:13.210937500,-33.25,5.0,54.0,78.56140625,-2.99,0.5099446875,31.67
2021-07-08 15:20:13.218750000,-33.0,5.0,54.0,78.558125,-3.44,0.50998475,31.67
2021-07-08 15:20:13.226562500,-33.25,5.25,54.0,78.55484375,-3.9450000000000003,0.5100248125,31.67
2021-07-08 15:20:13.234375000,-33.5,5.5,54.0,78.5515625,-4.45,0.510064875,31.67
2021-07-08 15:20:13.242187500,-33.75,5.75,54.0,78.54828125,-5.055,0.5101049375,31.67
2021-07-08 15:20:13.250000000,-34.0,6.0,54.0,78.545,-5.66,0.510145,31.67
2021-07-08 15:20:13.257812500,-34.0,6.0,54.0,78.54171875,-6.359999999999999,0.51006490625,31.67
2021-07-08 15:20:13.265625000,-34.0,6.0,54.0,78.5384375,-7.06,0.5099848124999999,31.67
2021-07-08 15:20:13.273437500,-34.0,6.0,54.0,78.53515625,-7.82,0.50990471875,31.67
2021-07-08 15:20:13.281250000,-34.0,6.0,54.0,78.531875,-8.58,0.5098246249999999,31.67
2021-07-08 15:20:13.289062500,-34.0,6.0,54.0,78.52859375,-9.325,0.50974453125,31.67
2021-07-08 15:20:13.296875000,-34.0,6.0,54.0,78.5253125,-10.07,0.5096644375,31.67
2021-07-08 15:20:13.304687500,-34.0,6.0,54.0,78.52203125000001,-10.754999999999999,0.50958434375,31.67
2021-07-08 15:20:13.312500000,-34.0,6.0,54.0,78.51875000000001,-11.44,0.50950425,31.67
2021-07-08 15:20:13.320312500,-34.0,6.0,54.0,78.51546875000001,-12.04,0.5094241562499999,31.67
2021-07-08 15:20:13.328125000,-34.0,6.0,54.0,78.51218750000001,-12.64,0.5093440625,31.67
2021-07-08 15:20:13.335937500,-34.0,6.0,54.0,78.50890625000001,-13.190000000000001,0.50926396875,31.67
2021-07-08 15:20:13.343750000,-34.0,6.0,54.0,78.50562500000001,-13.74,0.509183875,31.67
2021-07-08 15:20:13.351562500,-34.0,6.0,54.0,78.50234375000001,-14.325,0.50910378125,31.67
2021-07-08 15:20:13.359375000,-34.0,6.0,54.0,78.49906250000001,-14.91,0.5090236874999999,31.67
2021-07-08 15:20:13.367187500,-34.0,6.0,54.0,78.49578125000001,-15.655,0.50894359375,31.67
2021-07-08 15:20:13.375000000,-34.0,6.0,54.0,78.4925,-16.4,0.5088634999999999,31.67
2021-07-08 15:20:13.382812500,-34.0,6.0,54.0,78.48921875,-17.41,0.50878340625,31.67
2021-07-08 15:20:13.390625000,-34.0,6.0,54.0,78.4859375,-18.42,0.5087033125,31.67
2021-07-08 15:20:13.398437500,-34.0,6.0,54.0,78.48265625,-19.73,0.5086232187499999,31.67
2021-07-08 15:20:13.406250000,-34.0,6.0,54.0,78.479375,-21.04,0.508543125,31.67
2021-07-08 15:20:13.414062500,-34.0,6.0,54.0,78.47609375,-22.57,0.5084630312499999,31.67
2021-07-08 15:20:13.421875000,-34.0,6.0,54.0,78.4728125,-24.1,0.5083829375,31.67
2021-07-08 15:20:13.429687500,-34.0,6.0,54.0,78.46953125,-25.62,0.50830284375,31.67
2021-07-08 15:20:13.437500000,-34.0,6.0,54.0,78.46625,-27.14,0.50822275,31.67
2021-07-08 15:20:13.445312500,-34.0,6.0,54.0,78.46296875,-28.35,0.50814265625,31.67
2021-07-08 15:20:13.453125000,-34.0,6.0,54.0,78.4596875,-29.56,0.5080625624999999,31.67
2021-07-08 15:20:13.460937500,-34.0,6.0,54.0,78.45640625,-30.145,0.50798246875,31.67
2021-07-08 15:20:13.468750000,-34.0,6.0,54.0,78.453125,-30.73,0.507902375,31.67
2021-07-08 15:20:13.476562500,-34.0,6.0,54.0,78.44984375,-30.46,0.50782228125,31.67
2021-07-08 15:20:13.484375000,-34.0,6.0,54.0,78.4465625,-30.19,0.5077421875,31.67
2021-07-08 15:20:13.492187500,-34.0,6.0,54.0,78.44328125,-29.015,0.5076620937499999,31.67
2021-07-08 15:20:13.500000000,-34.0,6.0,54.0,78.44,-27.84,0.507582,31.67
2021-07-08 15:20:13.507812500,-34.0,6.0,54.0,78.43671875000001,-25.875,0.507702125,31.67
2021-07-08 15:20:13.515625000,-34.0,6.0,54.0,78.43343750000001,-23.91,0.50782225,31.67
2021-07-08 15:20:13.523437500,-34.0,6.0,54.0,78.43015625000001,-21.435000000000002,0.507942375,31.67
2021-07-08 15:20:13.531250000,-34.0,6.0,54.0,78.42687500000001,-18.96,0.5080625,31.67
2021-07-08 15:20:13.539062500,-34.0,6.0,54.0,78.42359375000001,-16.315,0.508182625,31.67
2021-07-08 15:20:13.546875000,-34.0,6.0,54.0,78.42031250000001,-13.67,0.50830275,31.67
2021-07-08 15:20:13.554687500,-34.0,6.0,54.0,78.41703125000001,-11.165,0.5084228749999999,31.67
2021-07-08 15:20:13.562500000,-34.0,6.0,54.0,78.41375000000001,-8.66,0.508543,31.67
2021-07-08 15:20:13.570312500,-34.0,5.75,54.0,78.41046875,-6.51,0.508663125,31.67
2021-07-08 15:20:13.578125000,-34.0,5.5,54.0,78.4071875,-4.36,0.50878325,31.67
2021-07-08 15:20:13.585937500,-34.0,5.25,54.0,78.40390625,-2.615,0.508903375,31.67
2021-07-08 15:20:13.593750000,-34.0,5.0,54.0,78.400625,-0.87,0.5090235,31.67
2021-07-08 15:20:13.601562500,-34.0,5.25,54.0,78.39734375,0.5199999999999999,0.509143625,31.67
2021-07-08 15:20:13.609375000,-34.0,5.5,54.0,78.3940625,1.91,0.50926375,31.67
2021-07-08 15:20:13.617187500,-34.0,5.75,54.0,78.39078125,3.09,0.509383875,31.67
2021-07-08 15:20:13.625000000,-34.0,6.0,54.0,78.3875,4.27,0.509504,31.67
2021-07-08 15:20:13.632812500,-34.0,6.0,54.0,78.38421875,5.345,0.509624125,31.67
2021-07-08 15:20:13.640625000,-34.0,6.0,54.0,78.3809375,6.42,0.50974425,31.67
2021-07-08 15:20:13.648437500,-34.0,6.0,54.0,78.37765625,7.46,0.509864375,31.67
2021-07-08 15:20:13.656250000,-34.0,6.0,54.0,78.374375,8.5,0.5099845000000001,31.67
2021-07-08 15:20:13.664062500,-34.0,6.0,54.0,78.37109375,9.469999999999999,0.510104625,31.67
2021-07-08 15:20:13.671875000,-34.0,6.0,54.0,78.3678125,10.44,0.51022475,31.67
2021-07-08 15:20:13.679687500,-34.0,6.0,54.0,78.36453125,11.28,0.510344875,31.67
2021-07-08 15:20:13.687500000,-34.0,6.0,54.0,78.36125,12.12,0.5104650000000001,31.67
2021-07-08 15:20:13.695312500,-34.0,6.0,54.0,78.35796875,12.754999999999999,0.5105851250000001,31.67
2021-07-08 15:20:13.703125000,-34.0,6.0,54.0,78.35468750000001,13.39,0.51070525,31.67
2021-07-08 15:20:13.710937500,-34.0,6.0,54.0,78.35140625000001,13.81,0.510825375,31.67
2021-07-08 15:20:13.718750000,-34.0,6.0,54.0,78.34812500000001,14.23,0.5109455,31.67
2021-07-08 15:20:13.726562500,-34.0,5.75,54.0,78.34484375000001,14.485,0.5110656250000001,31.67
2021-07-08 15:20:13.734375000,-34.0,5.5,54.0,78.34156250000001,14.74,0.51118575,31.67
2021-07-08 15:20:13.742187500,-34.0,5.25,54.0,78.33828125000001,14.885,0.511305875,31.67
2021-07-08 15:20:13.750000000,-34.0,5.0,54.0,78.33500000000001,15.03,0.511426,31.67
2021-07-08 15:20:13.757812500,-34.0,5.25,54.0,78.33171875000001,15.129999999999999,0.511426,31.67
2021-07-08 15:20:13.765625000,-34.0,5.5,54.0,78.3284375,15.23,0.511426,31.67
2021-07-08 15:20:13.773437500,-34.0,5.75,54.0,78.32515625,15.29,0.511426,31.67
2021-07-08 15:20:13.781250000,-34.0,6.0,54.0,78.321875,15.35,0.511426,31.67
2021-07-08 15:20:13.789062500,-34.0,5.75,54.0,78.31859375,15.34,0.511426,31.67
2021-07-08 15:20:13.796875000,-34.0,5.5,54.0,78.3153125,15.33,0.511426,31.67
2021-07-08 15:20:13.804687500,-34.0,5.25,54.0,78.31203125,15.2,0.511426,31.67
2021-07-08 15:20:13.812500000,-34.0,5.0,54.0,78.30875,15.07,0.511426,31.67
2021-07-08 15:20:13.820312500,-34.0,5.25,54.0,78.30546875,14.82,0.511426,31.67
2021-07-08 15:20:13.828125000,-34.0,5.5,54.0,78.3021875,14.57,0.511426,31.67
2021-07-08 15:20:13.835937500,-34.0,5.75,54.0,78.29890625,14.23,0.511426,31.67
2021-07-08 15:20:13.843750000,-34.0,6.0,54.0,78.295625,13.89,0.511426,31.67
2021-07-08 15:20:13.851562500,-34.0,5.75,54.0,78.29234375,13.530000000000001,0.511426,31.67
2021-07-08 15:20:13.859375000,-34.0,5.5,54.0,78.2890625,13.17,0.511426,31.67
2021-07-08 15:20:13.867187500,-34.0,5.25,54.0,78.28578125,12.85,0.511426,31.67
2021-07-08 15:20:13.875000000,-34.0,5.0,54.0,78.2825,12.53,0.511426,31.67
2021-07-08 15:20:13.882812500,-34.0,5.25,54.0,78.27921875,12.29,0.511426,31.67
2021-07-08 15:20:13.890625000,-34.0,5.5,54.0,78.2759375,12.05,0.511426,31.67
2021-07-08 15:20:13.898437500,-34.0,5.75,54.0,78.27265625,11.9,0.511426,31.67
2021-07-08 15:20:13.906250000,-34.0,6.0,54.0,78.26937500000001,11.75,0.511426,31.67
2021-07-08 15:20:13.914062500,-34.0,6.0,54.0,78.26609375000001,11.64,0.511426,31.67
2021-07-08 15:20:13.921875000,-34.0,6.0,54.0,78.26281250000001,11.53,0.511426,31.67
2021-07-08 15:20:13.929687500,-34.0,6.0,54.0,78.25953125000001,11.379999999999999,0.511426,31.67
2021-07-08 15:20:13.937500000,-34.0,6.0,54.0,78.25625000000001,11.23,0.511426,31.67
2021-07-08 15:20:13.945312500,-34.0,6.0,54.0,78.25296875000001,10.96,0.511426,31.67
2021-07-08 15:20:13.953125000,-34.0,6.0,54.0,78.24968750000001,10.69,0.511426,31.67
2021-07-08 15:20:13.960937500,-34.0,6.0,54.0,78.24640625,10.28,0.511426,31.67
2021-07-08 15:20:13.968750000,-34.0,6.0,54.0,78.243125,9.87,0.511426,31.67
2021-07-08 15:20:13.976562500,-34.0,6.0,54.0,78.23984375,9.36,0.511426,31.67
2021-07-08 15:20:13.984375000,-34.0,6.0,54.0,78.2365625,8.85,0.511426,31.67
2021-07-08 15:20:13.992187500,-34.0,6.0,54.0,78.23328125,8.344999999999999,0.511426,31.67
2021-07-08 15:20:14.000000000,-34.0,6.0,54.0,78.23,7.84,0.511426,31.67
2021-07-08 15:20:14.007812500,-34.0,6.0,54.0,78.226640625,7.449999999999999,0.5113859687500001,31.67
2021-07-08 15:20:14.015625000,-34.0,6.0,54.0,78.22328125,7.06,0.5113459375,31.67
2021-07-08 15:20:14.023437500,-34.0,6.0,54.0,78.219921875,6.82,0.51130590625,31.67
2021-07-08 15:20:14.031250000,-34.0,6.0,54.0,78.21656250000001,6.58,0.5112658750000001,31.67
2021-07-08 15:20:14.039062500,-34.0,5.75,54.0,78.213203125,6.455,0.51122584375,31.67
2021-07-08 15:20:14.046875000,-34.0,5.5,54.0,78.20984375,6.33,0.5111858125000001,31.67
2021-07-08 15:20:14.054687500,-34.0,5.25,54.0,78.206484375,6.17,0.51114578125,31.67
2021-07-08 15:20:14.062500000,-34.0,5.0,54.0,78.203125,6.01,0.51110575,31.67
2021-07-08 15:20:14.070312500,-34.0,5.25,54.0,78.199765625,5.675,0.5110657187500001,31.67
2021-07-08 15:20:14.078125000,-34.0,5.5,54.0,78.19640625000001,5.34,0.5110256875,31.67
2021-07-08 15:20:14.085937500,-34.0,5.75,54.0,78.19304687500001,4.755,0.51098565625,31.67
2021-07-08 15:20:14.093750000,-34.0,6.0,54.0,78.1896875,4.17,0.510945625,31.67
2021-07-08 15:20:14.101562500,-34.0,6.0,54.0,78.186328125,3.3899999999999997,0.51090559375,31.67
2021-07-08 15:20:14.109375000,-34.0,6.0,54.0,78.18296875,2.61,0.5108655625,31.67
2021-07-08 15:20:14.117187500,-34.0,6.0,54.0,78.179609375,1.755,0.51082553125,31.67
2021-07-08 15:20:14.125000000,-34.0,6.0,54.0,78.17625000000001,0.9,0.5107855,31.67
2021-07-08 15:20:14.132812500,-34.0,5.75,54.0,78.17289062500001,0.09999999999999998,0.51074546875,31.67
2021-07-08 15:20:14.140625000,-34.0,5.5,54.0,78.16953125,-0.7,0.5107054375,31.67
2021-07-08 15:20:14.148437500,-34.0,5.25,54.0,78.166171875,-1.4049999999999998,0.51066540625,31.67
2021-07-08 15:20:14.156250000,-34.0,5.0,54.0,78.1628125,-2.11,0.510625375,31.67
2021-07-08 15:20:14.164062500,-34.0,5.25,54.0,78.159453125,-2.76,0.51058534375,31.67
2021-07-08 15:20:14.171875000,-34.0,5.5,54.0,78.15609375,-3.41,0.5105453125,31.67
2021-07-08 15:20:14.179687500,-34.0,5.75,54.0,78.15273437500001,-4.095000000000001,0.5105052812499999,31.67
2021-07-08 15:20:14.187500000,-34.0,6.0,54.0,78.149375,-4.78,0.51046525,31.67
2021-07-08 15:20:14.195312500,-34.0,6.0,54.0,78.146015625,-5.5649999999999995,0.51042521875,31.67
2021-07-08 15:20:14.203125000,-34.0,6.0,54.0,78.14265625,-6.35,0.5103851875,31.67
2021-07-08 15:20:14.210937500,-34.0,6.0,54.0,78.139296875,-7.225,0.51034515625,31.67
2021-07-08 15:20:14.218750000,-34.0,6.0,54.0,78.1359375,-8.1,0.5103051249999999,31.67
2021-07-08 15:20:14.226562500,-34.0,5.75,54.0,78.13257812500001,-8.995000000000001,0.51026509375,31.67
2021-07-08 15:20:14.234375000,-34.0,5.5,54.0,78.12921875,-9.89,0.5102250625,31.67
2021-07-08 15:20:14.242187500,-34.0,5.25,54.0,78.125859375,-10.725000000000001,0.5101850312499999,31.67
2021-07-08 15:20:14.250000000,-34.0,5.0,54.0,78.1225,-11.56,0.510145,31.67
2021-07-08 15:20:14.257812500,-34.0,5.25,54.0,78.119140625,-12.27,0.510145,31.67
2021-07-08 15:20:14.265625000,-34.0,5.5,54.0,78.11578125,-12.98,0.510145,31.67
2021-07-08 15:20:14.273437500,-34.0,5.75,54.0,78.112421875,-13.58,0.510145,31.67
2021-07-08 15:20:14.281250000,-34.0,6.0,54.0,78.10906250000001,-14.18,0.510145,31.67
2021-07-08 15:20:14.289062500,-34.0,5.75,54.0,78.105703125,-14.71,0.510145,31.67
2021-07-08 15:20:14.296875000,-34.0,5.5,54.0,78.10234375,-15.24,0.510145,31.67
2021-07-08 15:20:14.304687500,-34.0,5.25,54.0,78.098984375,-15.795000000000002,0.510145,31.67
2021-07-08 15:20:14.312500000,-34.0,5.0,54.0,78.095625,-16.35,0.510145,31.67
2021-07-08 15:20:14.320312500,-34.0,5.25,54.0,78.092265625,-17.03,0.510145,31.67
2021-07-08 15:20:14.328125000,-34.0,5.5,54.0,78.08890625000001,-17.71,0.510145,31.67
2021-07-08 15:20:14.335937500,-34.0,5.75,54.0,78.085546875,-18.625,0.510145,31.67
2021-07-08 15:20:14.343750000,-34.0,6.0,54.0,78.0821875,-19.54,0.510145,31.67
2021-07-08 15:20:14.351562500,-34.0,6.0,54.0,78.078828125,-20.755,0.510145,31.67
2021-07-08 15:20:14.359375000,-34.0,6.0,54.0,78.07546875,-21.97,0.510145,31.67
2021-07-08 15:20:14.367187500,-34.0,6.0,54.0,78.072109375,-23.485,0.510145,31.67
2021-07-08 15:20:14.375000000,-34.0,6.0,54.0,78.06875,-25.0,0.510145,31.67
2021-07-08 15:20:14.382812500,-34.0,5.75,54.0,78.065390625,-26.705,0.510145,31.67
2021-07-08 15:20:14.390625000,-34.0,5.5,54.0,78.06203125,-28.41,0.510145,31.67
2021-07-08 15:20:14.398437500,-34.0,5.25,54.0,78.058671875,-30.045,0.510145,31.67
2021-07-08 15:20:14.406250000,-34.0,5.0,54.0,78.0553125,-31.68,0.510145,31.67
2021-07-08 15:20:14.414062500,-34.0,5.25,54.0,78.051953125,-32.905,0.510145,31.67
2021-07-08 15:20:14.421875000,-34.0,5.5,54.0,78.04859375,-34.13,0.510145,31.67
2021-07-08 15:20:14.429687500,-34.0,5.75,54.0,78.045234375,-34.595,0.510145,31.67
2021-07-08 15:20:14.437500000,-34.0,6.0,54.0,78.041875,-35.06,0.510145,31.67
2021-07-08 15:20:14.445312500,-34.0,6.0,54.0,78.038515625,-34.545,0.510145,31.67
2021-07-08 15:20:14.453125000,-34.0,6.0,54.0,78.03515625,-34.03,0.510145,31.67
2021-07-08 15:20:14.460937500,-34.0,6.0,54.0,78.031796875,-32.5,0.510145,31.67
2021-07-08 15:20:14.468750000,-34.0,6.0,54.0,78.0284375,-30.97,0.510145,31.67
2021-07-08 15:20:14.476562500,-34.0,6.0,54.0,78.02507812500001,-28.64,0.510145,31.67
2021-07-08 15:20:14.484375000,-34.0,6.0,54.0,78.02171875,-26.31,0.510145,31.67
2021-07-08 15:20:14.492187500,-34.0,6.0,54.0,78.018359375,-23.57,0.510145,31.67
2021-07-08 15:20:14.500000000,-34.0,6.0,54.0,78.015,-20.83,0.510145,31.67
2021-07-08 15:20:14.507812500,-34.0,6.0,54.0,78.011640625,-18.115,0.51006490625,31.67
2021-07-08 15:20:14.515625000,-34.0,6.0,54.0,78.00828125,-15.4,0.5099848124999999,31.67
2021-07-08 15:20:14.523437500,-34.0,6.0,54.0,78.004921875,-13.06,0.50990471875,31.67
2021-07-08 15:20:14.531250000,-34.0,6.0,54.0,78.0015625,-10.72,0.5098246249999999,31.67
2021-07-08 15:20:14.539062500,-34.0,6.0,54.0,77.998203125,-8.925,0.50974453125,31.67
2021-07-08 15:20:14.546875000,-34.0,6.0,54.0,77.99484375,-7.13,0.5096644375,31.67
2021-07-08 15:20:14.554687500,-34.0,6.0,54.0,77.991484375,-5.845,0.50958434375,31.67
2021-07-08 15:20:14.562500000,-34.0,6.0,54.0,77.988125,-4.56,0.50950425,31.67
2021-07-08 15:20:14.570312500,-34.0,5.75,54.0,77.984765625,-3.59,0.5094241562499999,31.67
2021-07-08 15:20:14.578125000,-34.0,5.5,54.0,77.98140625,-2.62,0.5093440625,31.67
2021-07-08 15:20:14.585937500,-34.0,5.25,54.0,77.978046875,-1.76,0.50926396875,31.67
2021-07-08 15:20:14.593750000,-34.0,5.0,54.0,77.9746875,-0.9,0.509183875,31.67
2021-07-08 15:20:14.601562500,-34.0,5.25,54.0,77.971328125,0.010000000000000009,0.50910378125,31.67
2021-07-08 15:20:14.609375000,-34.0,5.5,54.0,77.96796875,0.92,0.5090236874999999,31.67
2021-07-08 15:20:14.617187500,-34.0,5.75,54.0,77.964609375,1.9300000000000002,0.50894359375,31.67
2021-07-08 15:20:14.625000000,-34.0,6.0,54.0,77.96125,2.94,0.5088634999999999,31.67
2021-07-08 15:20:14.632812500,-34.0,5.75,54.0,77.957890625,3.99,0.50878340625,31.67
2021-07-08 15:20:14.640625000,-34.0,5.5,54.0,77.95453125,5.04,0.5087033125,31.67
2021-07-08 15:20:14.648437500,-34.0,5.25,54.0,77.951171875,6.035,0.5086232187499999,31.67
2021-07-08 15:20:14.656250000,-34.0,5.0,54.0,77.9478125,7.03,0.508543125,31.67
2021-07-08 15:20:14.664062500,-34.0,5.25,54.0,77.944453125,7.870000000000001,0.5084630312499999,31.67
2021-07-08 15:20:14.671875000,-34.0,5.5,54.0,77.94109375,8.71,0.5083829375,31.67
2021-07-08 15:20:14.679687500,-34.0,5.75,54.0,77.937734375,9.375,0.50830284375,31.67
2021-07-08 15:20:14.687500000,-34.0,6.0,54.0,77.934375,10.04,0.50822275,31.67
2021-07-08 15:20:14.695312500,-34.0,6.0,54.25,77.931015625,10.53,0.50814265625,31.67
2021-07-08 15:20:14.703125000,-34.0,6.0,54.5,77.92765625,11.02,0.5080625624999999,31.67
2021-07-08 15:20:14.710937500,-34.0,6.0,54.75,77.924296875,11.385,0.50798246875,31.67
2021-07-08 15:20:14.718750000,-34.0,6.0,55.0,77.9209375,11.75,0.507902375,31.67
2021-07-08 15:20:14.726562500,-34.0,6.0,54.75,77.917578125,12.02,0.50782228125,31.67
2021-07-08 15:20:14.734375000,-34.0,6.0,54.5,77.91421875,12.29,0.5077421875,31.67
2021-07-08 15:20:14.742187500,-34.0,6.0,54.25,77.910859375,12.469999999999999,0.5076620937499999,31.67
2021-07-08 15:20:14.750000000,-34.0,6.0,54.0,77.9075,12.65,0.507582,31.67
2021-07-08 15:20:14.757812500,-34.0,6.0,54.0,77.904140625,12.719999999999999,0.507702125,31.67
2021-07-08 15:20:14.765625000,-34.0,6.0,54.0,77.90078125,12.79,0.50782225,31.67
2021-07-08 15:20:14.773437500,-34.0,6.0,54.0,77.89742187499999,12.725,0.507942375,31.67
2021-07-08 15:20:14.781250000,-34.0,6.0,54.0,77.8940625,12.66,0.5080625,31.67
2021-07-08 15:20:14.789062500,-34.0,5.75,54.0,77.890703125,12.469999999999999,0.508182625,31.67
2021-07-08 15:20:14.796875000,-34.0,5.5,54.0,77.88734375,12.28,0.50830275,31.67
2021-07-08 15:20:14.804687500,-34.0,5.25,54.0,77.883984375,12.0,0.5084228749999999,31.67
2021-07-08 15:20:14.812500000,-34.0,5.0,54.0,77.880625,11.72,0.508543,31.67
2021-07-08 15:20:14.820312500,-34.0,5.25,54.0,77.87726562499999,11.47,0.508663125,31.67
2021-07-08 15:20:14.828125000,-34.0,5.5,54.0,77.87390625,11.22,0.50878325,31.67
2021-07-08 15:20:14.835937500,-34.0,5.75,54.0,77.870546875,11.09,0.508903375,31.67
2021-07-08 15:20:14.843750000,-34.0,6.0,54.0,77.8671875,10.96,0.5090235,31.67
2021-07-08 15:20:14.851562500,-34.0,6.0,54.0,77.863828125,11.025,0.509143625,31.67
2021-07-08 15:20:14.859375000,-34.0,6.0,54.0,77.86046875,11.09,0.50926375,31.67
2021-07-08 15:20:14.867187500,-34.0,6.0,54.0,77.857109375,11.305,0.509383875,31.67
2021-07-08 15:20:14.875000000,-34.0,6.0,54.0,77.85374999999999,11.52,0.509504,31.67
2021-07-08 15:20:14.882812500,-34.0,6.0,54.0,77.850390625,11.78,0.509624125,31.67
2021-07-08 15:20:14.890625000,-34.0,6.0,54.0,77.84703125,12.04,0.50974425,31.67
2021-07-08 15:20:14.898437500,-34.0,6.0,54.0,77.843671875,12.184999999999999,0.509864375,31.67
2021-07-08 15:20:14.906250000,-34.0,6.0,54.0,77.8403125,12.33,0.5099845000000001,31.67
2021-07-08 15:20:14.914062500,-34.0,6.0,54.0,77.836953125,12.27,0.510104625,31.67
2021-07-08 15:20:14.921875000,-34.0,6.0,54.0,77.83359374999999,12.21,0.51022475,31.67
2021-07-08 15:20:14.929687500,-34.0,6.0,54.0,77.830234375,11.935,0.510344875,31.67
2021-07-08 15:20:14.937500000,-34.0,6.0,54.0,77.826875,11.66,0.5104650000000001,31.67
2021-07-08 15:20:14.945312500,-34.0,6.0,54.0,77.823515625,11.24,0.5105851250000001,31.67
2021-07-08 15:20:14.953125000,-34.0,6.0,54.0,77.82015625,10.82,0.51070525,31.67
2021-07-08 15:20:14.960937500,-34.0,6.0,54.0,77.816796875,10.365,0.510825375,31.67
2021-07-08 15:20:14.968750000,-34.0,6.0,54.0,77.81343749999999,9.91,0.5109455,31.67
2021-07-08 15:20:14.976562500,-34.0,5.75,54.0,77.810078125,9.51,0.5110656250000001,31.67
2021-07-08 15:20:14.984375000,-34.0,5.5,54.0,77.80671875,9.11,0.51118575,31.67
2021-07-08 15:20:14.992187500,-34.0,5.25,54.0,77.803359375,8.78,0.511305875,31.67
2021-07-08 15:20:15.000000000,-34.0,5.0,54.0,77.8,8.45,0.511426,31.67
2021-07-08 15:20:15.007812500,-34.0,5.25,54.0,77.796640625,8.16,0.511305875,31.67
2021-07-08 15:20:15.015625000,-34.0,5.5,54.0,77.79328124999999,7.87,0.51118575,31.67
2021-07-08 15:20:15.023437500,-34.0,5.75,54.0,77.78992187499999,7.59,0.5110656250000001,31.67
2021-07-08 15:20:15.031250000,-34.0,6.0,54.0,77.7865625,7.31,0.5109455,31.67
2021-07-08 15:20:15.039062500,-34.0,6.0,54.0,77.783203125,7.02,0.510825375,31.67
2021-07-08 15:20:15.046875000,-34.0,6.0,54.0,77.77984375,6.73,0.51070525,31.67
2021-07-08 15:20:15.054687500,-34.0,6.0,54.0,77.776484375,6.44,0.5105851250000001,31.67
2021-07-08 15:20:15.062500000,-34.0,6.0,54.0,77.773125,6.15,0.5104650000000001,31.67
2021-07-08 15:20:15.070312500,-34.0,6.0,54.0,77.76976562499999,5.865,0.510344875,31.67
2021-07-08 15:20:15.078125000,-34.0,6.0,54.0,77.76640625,5.58,0.51022475,31.67
2021-07-08 15:20:15.085937500,-34.0,6.0,54.0,77.763046875,5.275,0.510104625,31.67
2021-07-08 15:20:15.093750000,-34.0,6.0,54.0,77.7596875,4.97,0.5099845000000001,31.67
2021-07-08 15:20:15.101562500,-34.0,5.75,54.0,77.756328125,4.6,0.509864375,31.67
2021-07-08 15:20:15.109375000,-34.0,5.5,54.0,77.75296875,4.23,0.50974425,31.67
2021-07-08 15:20:15.117187500,-34.0,5.25,54.0,77.74960937499999,3.74,0.509624125,31.67
2021-07-08 15:20:15.125000000,-34.0,5.0,54.0,77.74625,3.25,0.509504,31.67
2021-07-08 15:20:15.132812500,-34.0,5.0,54.0,77.742890625,2.61,0.509383875,31.67
2021-07-08 15:20:15.140625000,-34.0,5.0,54.0,77.73953125,1.97,0.50926375,31.67
2021-07-08 15:20:15.148437500,-34.0,5.0,54.0,77.736171875,1.17,0.509143625,31.67
2021-07-08 15:20:15.156250000,-34.0,5.0,54.0,77.7328125,0.37,0.5090235,31.67
2021-07-08 15:20:15.164062500,-34.0,5.25,54.0,77.72945312499999,-0.58,0.508903375,31.67
2021-07-08 15:20:15.171875000,-34.0,5.5,54.0,77.72609375,-1.53,0.50878325,31.67
2021-07-08 15:20:15.179687500,-34.0,5.75,54.0,77.722734375,-2.59,0.508663125,31.67
2021-07-08 15:20:15.187500000,-34.0,6.0,54.0,77.719375,-3.65,0.508543,31.67
2021-07-08 15:20:15.195312500,-34.0,5.75,54.0,77.716015625,-4.775,0.5084228749999999,31.67
2021-07-08 15:20:15.203125000,-34.0,5.5,54.0,77.71265625,-5.9,0.50830275,31.67
2021-07-08 15:20:15.210937500,-34.0,5.25,54.0,77.70929687499999,-7.0200000000000005,0.508182625,31.67
2021-07-08 15:20:15.218750000,-34.0,5.0,54.0,77.7059375,-8.14,0.5080625,31.67
2021-07-08 15:20:15.226562500,-34.0,5.0,54.0,77.702578125,-9.17,0.507942375,31.67
2021-07-08 15:20:15.234375000,-34.0,5.0,54.0,77.69921875,-10.2,0.50782225,31.67
2021-07-08 15:20:15.242187500,-34.0,5.0,54.0,77.695859375,-11.075,0.507702125,31.67
2021-07-08 15:20:15.250000000,-34.0,5.0,54.0,77.6925,-11.95,0.507582,31.67
2021-07-08 15:20:15.257812500,-34.0,5.25,54.0,77.689140625,-12.655,0.5076220312499999,31.67
2021-07-08 15:20:15.265625000,-34.0,5.5,54.0,77.68578125,-13.36,0.5076620625,31.67
2021-07-08 15:20:15.273437500,-34.0,5.75,54.0,77.682421875,-13.934999999999999,0.50770209375,31.67
2021-07-08 15:20:15.281250000,-34.0,6.0,54.0,77.6790625,-14.51,0.5077421249999999,31.67
2021-07-08 15:20:15.289062500,-34.0,5.75,54.0,77.675703125,-15.059999999999999,0.50778215625,31.67
2021-07-08 15:20:15.296875000,-34.0,5.5,54.0,77.67234375,-15.61,0.5078221875,31.67
2021-07-08 15:20:15.304687500,-34.0,5.25,54.0,77.668984375,-16.27,0.5078622187499999,31.67
2021-07-08 15:20:15.312500000,-34.0,5.0,54.0,77.665625,-16.93,0.50790225,31.67
2021-07-08 15:20:15.320312500,-34.0,5.0,54.0,77.662265625,-17.8,0.50794228125,31.67
2021-07-08 15:20:15.328125000,-34.0,5.0,54.0,77.65890625,-18.67,0.5079823124999999,31.67
2021-07-08 15:20:15.335937500,-34.0,5.0,54.0,77.655546875,-19.815,0.50802234375,31.67
2021-07-08 15:20:15.343750000,-34.0,5.0,54.0,77.6521875,-20.96,0.508062375,31.67
2021-07-08 15:20:15.351562500,-34.0,5.25,54.0,77.648828125,-22.37,0.5081024062499999,31.67
2021-07-08 15:20:15.359375000,-34.0,5.5,54.0,77.64546875,-23.78,0.5081424375,31.67
2021-07-08 15:20:15.367187500,-34.0,5.75,54.0,77.642109375,-25.35,0.50818246875,31.67
2021-07-08 15:20:15.375000000,-34.0,6.0,54.0,77.63875,-26.92,0.5082225,31.67
2021-07-08 15:20:15.382812500,-34.0,5.75,54.0,77.635390625,-28.48,0.50826253125,31.67
2021-07-08 15:20:15.390625000,-34.0,5.5,54.0,77.63203125,-30.04,0.5083025624999999,31.67
2021-07-08 15:20:15.398437500,-34.0,5.25,54.0,77.628671875,-31.365,0.50834259375,31.67
2021-07-08 15:20:15.406250000,-34.0,5.0,54.0,77.6253125,-32.69,0.508382625,31.67
2021-07-08 15:20:15.414062500,-34.0,5.25,54.0,77.621953125,-33.535,0.5084226562499999,31.67
2021-07-08 15:20:15.421875000,-34.0,5.5,54.0,77.61859375,-34.38,0.5084626875,31.67
2021-07-08 15:20:15.429687500,-34.0,5.75,54.0,77.615234375,-34.540000000000006,0.50850271875,31.67
2021-07-08 15:20:15.437500000,-34.0,6.0,54.0,77.611875,-34.7,0.5085427499999999,31.67
2021-07-08 15:20:15.445312500,-34.0,6.0,54.0,77.608515625,-34.075,0.50858278125,31.67
2021-07-08 15:20:15.453125000,-34.0,6.0,54.0,77.60515625000001,-33.45,0.5086228125,31.67
2021-07-08 15:20:15.460937500,-34.0,6.0,54.0,77.601796875,-32.07,0.5086628437499999,31.67
2021-07-08 15:20:15.468750000,-34.0,6.0,54.0,77.5984375,-30.69,0.508702875,31.67
2021-07-08 15:20:15.476562500,-34.0,5.75,54.0,77.595078125,-28.755000000000003,0.50874290625,31.67
2021-07-08 15:20:15.484375000,-34.0,5.5,54.0,77.59171875,-26.82,0.5087829374999999,31.67
2021-07-08 15:20:15.492187500,-34.0,5.25,54.0,77.588359375,-24.595,0.50882296875,31.67
2021-07-08 15:20:15.500000000,-34.0,5.0,54.0,77.58500000000001,-22.37,0.508863,31.67
2021-07-08 15:20:15.507812500,-34.0,5.25,54.0,77.581640625,-20.115000000000002,0.5087829374999999,31.67
2021-07-08 15:20:15.515625000,-34.0,5.5,54.0,77.57828125,-17.86,0.508702875,31.67
2021-07-08 15:20:15.523437500,-34.0,5.75,54.0,77.574921875,-15.78,0.5086228125,31.67
2021-07-08 15:20:15.531250000,-34.0,6.0,54.0,77.5715625,-13.7,0.5085427499999999,31.67
2021-07-08 15:20:15.539062500,-34.0,6.0,54.0,77.568203125,-11.879999999999999,0.5084626875,31.67
2021-07-08 15:20:15.546875000,-34.0,6.0,54.0,77.56484375,-10.06,0.508382625,31.67
2021-07-08 15:20:15.554687500,-34.0,6.0,54.0,77.561484375,-8.475,0.5083025624999999,31.67
2021-07-08 15:20:15.562500000,-34.0,6.0,54.0,77.558125,-6.89,0.5082225,31.67
2021-07-08 15:20:15.570312500,-34.0,5.75,54.0,77.554765625,-5.465,0.5081424375,31.67
2021-07-08 15:20:15.578125000,-34.0,5.5,54.0,77.55140625,-4.04,0.508062375,31.67
2021-07-08 15:20:15.585937500,-34.0,5.25,54.0,77.548046875,-2.6950000000000003,0.5079823124999999,31.67
2021-07-08 15:20:15.593750000,-34.0,5.0,54.0,77.5446875,-1.35,0.50790225,31.67
2021-07-08 15:20:15.601562500,-34.0,5.25,54.0,77.541328125,-0.06499999999999995,0.5078221875,31.67
2021-07-08 15:20:15.609375000,-34.0,5.5,54.0,77.53796875,1.22,0.5077421249999999,31.67
2021-07-08 15:20:15.617187500,-34.0,5.75,54.0,77.534609375,2.4050000000000002,0.5076620625,31.67
2021-07-08 15:20:15.625000000,-34.0,6.0,54.0,77.53125,3.59,0.507582,31.67
2021-07-08 15:20:15.632812500,-34.0,5.75,54.0,77.527890625,4.605,0.5075019374999999,31.67
2021-07-08 15:20:15.640625000,-34.0,5.5,54.0,77.52453125,5.62,0.507421875,31.67
2021-07-08 15:20:15.648437500,-34.0,5.25,54.0,77.52117187500001,6.4,0.5073418125,31.67
2021-07-08 15:20:15.656250000,-34.0,5.0,54.0,77.5178125,7.18,0.50726175,31.67
2021-07-08 15:20:15.664062500,-34.0,5.0,54.0,77.514453125,7.734999999999999,0.5071816875,31.67
2021-07-08 15:20:15.671875000,-34.0,5.0,54.0,77.51109375,8.29,0.507101625,31.67
2021-07-08 15:20:15.679687500,-34.0,5.0,54.0,77.507734375,8.655,0.5070215625,31.67
2021-07-08 15:20:15.687500000,-34.0,5.0,54.0,77.504375,9.02,0.5069414999999999,31.67
2021-07-08 15:20:15.695312500,-34.0,5.25,54.0,77.50101562500001,9.295,0.5068614375,31.67
2021-07-08 15:20:15.703125000,-34.0,5.5,54.0,77.49765625,9.57,0.506781375,31.67
2021-07-08 15:20:15.710937500,-34.0,5.75,54.0,77.494296875,9.82,0.5067013125,31.67
2021-07-08 15:20:15.718750000,-34.0,6.0,54.0,77.4909375,10.07,0.50662125,31.67
2021-07-08 15:20:15.726562500,-34.0,5.75,54.0,77.487578125,10.325,0.5065411875,31.67
2021-07-08 15:20:15.734375000,-34.0,5.5,54.0,77.48421875,10.58,0.506461125,31.67
2021-07-08 15:20:15.742187500,-34.0,5.25,54.0,77.48085937500001,10.844999999999999,0.5063810625,31.67
2021-07-08 15:20:15.750000000,-34.0,5.0,54.0,77.4775,11.11,0.506301,31.67
2021-07-08 15:20:15.757812500,-34.0,5.0,54.0,77.474140625,11.370000000000001,0.5065011875,31.67
2021-07-08 15:20:15.765625000,-34.0,5.0,54.0,77.47078125,11.63,0.506701375,31.67
2021-07-08 15:20:15.773437500,-34.0,5.0,54.0,77.467421875,11.895,0.5069015625,31.67
2021-07-08 15:20:15.781250000,-34.0,5.0,54.0,77.4640625,12.16,0.50710175,31.67
2021-07-08 15:20:15.789062500,-34.0,5.0,54.0,77.46070312500001,12.469999999999999,0.5073019375,31.67
2021-07-08 15:20:15.796875000,-34.0,5.0,54.0,77.45734375,12.78,0.507502125,31.67
2021-07-08 15:20:15.804687500,-34.0,5.0,54.0,77.453984375,13.149999999999999,0.5077023125,31.67
2021-07-08 15:20:15.812500000,-34.0,5.0,54.0,77.450625,13.52,0.5079025,31.67
2021-07-08 15:20:15.820312500,-34.0,5.0,54.0,77.447265625,13.94,0.5081026875,31.67
2021-07-08 15:20:15.828125000,-34.0,5.0,54.0,77.44390625,14.36,0.508302875,31.67
2021-07-08 15:20:15.835937500,-34.0,5.0,54.0,77.44054687500001,14.77,0.5085030625,31.67
2021-07-08 15:20:15.843750000,-34.0,5.0,54.0,77.43718750000001,15.18,0.50870325,31.67
2021-07-08 15:20:15.851562500,-34.0,5.25,54.0,77.433828125,15.51,0.5089034375,31.67
2021-07-08 15:20:15.859375000,-34.0,5.5,54.0,77.43046875,15.84,0.5091036250000001,31.67
2021-07-08 15:20:15.867187500,-34.0,5.75,54.0,77.427109375,16.009999999999998,0.5093038125,31.67
2021-07-08 15:20:15.875000000,-34.0,6.0,54.0,77.42375,16.18,0.509504,31.67
2021-07-08 15:20:15.882812500,-34.0,6.0,54.0,77.42039062500001,16.15,0.5097041875,31.67
2021-07-08 15:20:15.890625000,-34.0,6.0,54.0,77.41703125000001,16.12,0.509904375,31.67
2021-07-08 15:20:15.898437500,-34.0,6.0,54.0,77.413671875,15.850000000000001,0.5101045625,31.67
2021-07-08 15:20:15.906250000,-34.0,6.0,54.0,77.4103125,15.58,0.51030475,31.67
2021-07-08 15:20:15.914062500,-34.0,5.75,54.0,77.406953125,15.08,0.5105049375,31.67
2021-07-08 15:20:15.921875000,-34.0,5.5,54.0,77.40359375,14.58,0.510705125,31.67
2021-07-08 15:20:15.929687500,-34.0,5.25,54.0,77.40023437500001,13.85,0.5109053125,31.67
2021-07-08 15:20:15.937500000,-34.0,5.0,54.0,77.39687500000001,13.12,0.5111055,31.67
2021-07-08 15:20:15.945312500,-34.0,5.25,54.0,77.393515625,12.21,0.5113056875,31.67
2021-07-08 15:20:15.953125000,-34.0,5.5,54.0,77.39015625,11.3,0.511505875,31.67
2021-07-08 15:20:15.960937500,-34.0,5.75,54.0,77.386796875,10.29,0.5117060625000001,31.67
2021-07-08 15:20:15.968750000,-34.0,6.0,54.0,77.3834375,9.28,0.51190625,31.67
2021-07-08 15:20:15.976562500,-34.0,5.75,54.0,77.38007812500001,8.26,0.5121064375000001,31.67
2021-07-08 15:20:15.984375000,-34.0,5.5,54.0,77.37671875000001,7.24,0.512306625,31.67
2021-07-08 15:20:15.992187500,-34.0,5.25,54.0,77.373359375,6.305,0.5125068125000001,31.67
2021-07-08 15:20:16.000000000,-34.0,5.0,54.0,77.37,5.37,0.512707,31.67
2021-07-08 15:20:16.007812500,-34.0,5.25,54.0,77.3665625,4.5649999999999995,0.5126269375,31.67
2021-07-08 15:20:16.015625000,-34.0,5.5,54.0,77.36312500000001,3.76,0.5125468750000001,31.67
2021-07-08 15:20:16.023437500,-34.0,5.75,54.0,77.3596875,3.105,0.5124668125,31.67
2021-07-08 15:20:16.031250000,-34.0,6.0,54.0,77.35625,2.45,0.51238675,31.67
2021-07-08 15:20:16.039062500,-34.0,6.0,54.0,77.3528125,1.915,0.5123066875,31.67
2021-07-08 15:20:16.046875000,-34.0,6.0,54.0,77.34937500000001,1.38,0.512226625,31.67
2021-07-08 15:20:16.054687500,-34.0,6.0,54.0,77.3459375,0.9149999999999999,0.5121465625,31.67
2021-07-08 15:20:16.062500000,-34.0,6.0,54.0,77.3425,0.45,0.5120665,31.67
2021-07-08 15:20:16.070312500,-34.0,5.75,54.0,77.33906250000001,0.010000000000000009,0.5119864375000001,31.67
2021-07-08 15:20:16.078125000,-34.0,5.5,54.0,77.33562500000001,-0.43,0.511906375,31.67
2021-07-08 15:20:16.085937500,-34.0,5.25,54.0,77.3321875,-0.9000000000000001,0.5118263125,31.67
2021-07-08 15:20:16.093750000,-34.0,5.0,54.0,77.32875,-1.37,0.51174625,31.67
2021-07-08 15:20:16.101562500,-34.0,5.0,54.0,77.32531250000001,-1.87,0.5116661875,31.67
2021-07-08 15:20:16.109375000,-34.0,5.0,54.0,77.321875,-2.37,0.511586125,31.67
2021-07-08 15:20:16.117187500,-34.0,5.0,54.0,77.3184375,-2.895,0.5115060625,31.67
2021-07-08 15:20:16.125000000,-34.0,5.0,54.0,77.315,-3.42,0.5114259999999999,31.67
2021-07-08 15:20:16.132812500,-34.0,5.0,54.0,77.31156250000001,-3.92,0.5113459375,31.67
2021-07-08 15:20:16.140625000,-34.0,5.0,54.0,77.308125,-4.42,0.511265875,31.67
2021-07-08 15:20:16.148437500,-34.0,5.0,54.0,77.3046875,-4.890000000000001,0.5111858125,31.67
2021-07-08 15:20:16.156250000,-34.0,5.0,54.0,77.30125000000001,-5.36,0.51110575,31.67
2021-07-08 15:20:16.164062500,-34.0,5.0,54.0,77.2978125,-5.785,0.5110256875,31.67
2021-07-08 15:20:16.171875000,-34.0,5.0,54.0,77.294375,-6.21,0.510945625,31.67
2021-07-08 15:20:16.179687500,-34.0,5.0,54.0,77.2909375,-6.66,0.5108655624999999,31.67
2021-07-08 15:20:16.187500000,-34.0,5.0,54.0,77.28750000000001,-7.11,0.5107855,31.67
2021-07-08 15:20:16.195312500,-34.0,5.25,54.0,77.2840625,-7.65,0.5107054375,31.67
2021-07-08 15:20:16.203125000,-34.0,5.5,54.0,77.280625,-8.19,0.5106253749999999,31.67
2021-07-08 15:20:16.210937500,-34.0,5.75,54.0,77.27718750000001,-8.864999999999998,0.5105453125,31.67
2021-07-08 15:20:16.218750000,-34.0,6.0,54.0,77.27375,-9.54,0.51046525,31.67
2021-07-08 15:20:16.226562500,-34.0,6.0,54.0,77.2703125,-10.344999999999999,0.5103851875,31.67
2021-07-08 15:20:16.234375000,-34.0,6.0,54.0,77.266875,-11.15,0.5103051249999999,31.67
2021-07-08 15:20:16.242187500,-34.0,6.0,54.0,77.26343750000001,-12.02,0.5102250625,31.67
2021-07-08 15:20:16.250000000,-34.0,6.0,54.0,77.26,-12.89,0.510145,31.67
2021-07-08 15:20:16.257812500,-34.0,6.0,54.0,77.2565625,-13.73,0.5101850312499999,31.67
2021-07-08 15:20:16.265625000,-34.0,6.0,54.0,77.25312500000001,-14.57,0.5102250625,31.67
2021-07-08 15:20:16.273437500,-34.0,6.0,54.0,77.24968750000001,-15.315,0.51026509375,31.67
2021-07-08 15:20:16.281250000,-34.0,6.0,54.0,77.24625,-16.06,0.5103051249999999,31.67
2021-07-08 15:20:16.289062500,-34.0,5.75,54.25,77.2428125,-16.71,0.51034515625,31.67
2021-07-08 15:20:16.296875000,-34.0,5.5,54.5,77.23937500000001,-17.36,0.5103851875,31.67
2021-07-08 15:20:16.304687500,-34.0,5.25,54.75,77.2359375,-17.98,0.51042521875,31.67
2021-07-08 15:20:16.312500000,-34.0,5.0,55.0,77.2325,-18.6,0.51046525,31.67
2021-07-08 15:20:16.320312500,-34.0,5.0,54.75,77.22906250000001,-19.28,0.5105052812499999,31.67
2021-07-08 15:20:16.328125000,-34.0,5.0,54.5,77.22562500000001,-19.96,0.5105453125,31.67
2021-07-08 15:20:16.335937500,-34.0,5.0,54.25,77.2221875,-20.8,0.51058534375,31.67
2021-07-08 15:20:16.343750000,-34.0,5.0,54.0,77.21875,-21.64,0.510625375,31.67
2021-07-08 15:20:16.351562500,-34.0,5.0,54.0,77.21531250000001,-22.695,0.51066540625,31.67
2021-07-08 15:20:16.359375000,-34.0,5.0,54.0,77.211875,-23.75,0.5107054375,31.67
2021-07-08 15:20:16.367187500,-34.0,5.0,54.0,77.2084375,-25.03,0.51074546875,31.67
2021-07-08 15:20:16.375000000,-34.0,5.0,54.0,77.20500000000001,-26.31,0.5107855,31.67
2021-07-08 15:20:16.382812500,-34.0,5.25,54.0,77.20156250000001,-27.705,0.51082553125,31.67
2021-07-08 15:20:16.390625000,-34.0,5.5,54.0,77.198125,-29.1,0.5108655625,31.67
2021-07-08 15:20:16.398437500,-34.0,5.75,54.0,77.1946875,-30.43,0.51090559375,31.67
2021-07-08 15:20:16.406250000,-34.0,6.0,54.0,77.19125000000001,-31.76,0.510945625,31.67
2021-07-08 15:20:16.414062500,-34.0,5.75,54.0,77.1878125,-32.76,0.51098565625,31.67
2021-07-08 15:20:16.421875000,-34.0,5.5,54.0,77.184375,-33.76,0.5110256875,31.67
2021-07-08 15:20:16.429687500,-34.0,5.25,54.0,77.1809375,-34.135,0.5110657187500001,31.67
2021-07-08 15:20:16.437500000,-34.0,5.0,54.0,77.17750000000001,-34.51,0.51110575,31.67
2021-07-08 15:20:16.445312500,-34.0,5.25,54.0,77.1740625,-34.07,0.51114578125,31.67
2021-07-08 15:20:16.453125000,-34.0,5.5,54.0,77.170625,-33.63,0.5111858125000001,31.67
2021-07-08 15:20:16.460937500,-34.0,5.75,54.0,77.16718750000001,-32.34,0.51122584375,31.67
2021-07-08 15:20:16.468750000,-34.0,6.0,54.0,77.16375000000001,-31.05,0.5112658750000001,31.67
2021-07-08 15:20:16.476562500,-34.0,5.75,54.0,77.1603125,-29.095,0.51130590625,31.67
2021-07-08 15:20:16.484375000,-34.0,5.5,54.0,77.156875,-27.14,0.5113459375,31.67
2021-07-08 15:20:16.492187500,-34.0,5.25,54.0,77.15343750000001,-24.825000000000003,0.5113859687500001,31.67
2021-07-08 15:20:16.500000000,-34.0,5.0,54.0,77.15,-22.51,0.511426,31.67
2021-07-08 15:20:16.507812500,-34.0,5.0,54.0,77.1465625,-20.19,0.511305875,31.67
2021-07-08 15:20:16.515625000,-34.0,5.0,54.0,77.14312500000001,-17.87,0.51118575,31.67
2021-07-08 15:20:16.523437500,-34.0,5.0,54.0,77.13968750000001,-15.77,0.5110656250000001,31.67
2021-07-08 15:20:16.531250000,-34.0,5.0,54.0,77.13625,-13.67,0.5109455,31.67
2021-07-08 15:20:16.539062500,-34.0,5.25,54.0,77.1328125,-11.875,0.510825375,31.67
2021-07-08 15:20:16.546875000,-34.0,5.5,54.0,77.12937500000001,-10.08,0.51070525,31.67
2021-07-08 15:20:16.554687500,-34.0,5.75,54.0,77.1259375,-8.54,0.5105851250000001,31.67
2021-07-08 15:20:16.562500000,-34.0,6.0,54.0,77.1225,-7.0,0.5104650000000001,31.67
2021-07-08 15:20:16.570312500,-34.0,6.0,54.0,77.11906250000001,-5.63,0.510344875,31.67
2021-07-08 15:20:16.578125000,-34.0,6.0,54.0,77.11562500000001,-4.26,0.51022475,31.67
2021-07-08 15:20:16.585937500,-34.0,6.0,54.0,77.1121875,-2.995,0.510104625,31.67
2021-07-08 15:20:16.593750000,-34.0,6.0,54.0,77.10875,-1.73,0.5099845000000001,31.67
2021-07-08 15:20:16.601562500,-34.0,6.0,54.0,77.10531250000001,-0.5899999999999999,0.509864375,31.67
2021-07-08 15:20:16.609375000,-34.0,6.0,54.0,77.101875,0.55,0.50974425,31.67
2021-07-08 15:20:16.617187500,-34.0,6.0,54.0,77.0984375,1.5,0.509624125,31.67
2021-07-08 15:20:16.625000000,-34.0,6.0,54.0,77.095,2.45,0.509504,31.67
2021-07-08 15:20:16.632812500,-34.0,6.0,54.0,77.09156250000001,3.175,0.509383875,31.67
2021-07-08 15:20:16.640625000,-34.0,6.0,54.0,77.088125,3.9,0.50926375,31.67
2021-07-08 15:20:16.648437500,-34.0,6.0,54.0,77.0846875,4.41,0.509143625,31.67
2021-07-08 15:20:16.656250000,-34.0,6.0,54.0,77.08125000000001,4.92,0.5090235,31.67
2021-07-08 15:20:16.664062500,-34.0,6.0,54.0,77.07781250000001,5.3149999999999995,0.508903375,31.67
2021-07-08 15:20:16.671875000,-34.0,6.0,54.0,77.074375,5.71,0.50878325,31.67
2021-07-08 15:20:16.679687500,-34.0,6.0,54.0,77.0709375,6.08,0.508663125,31.67
2021-07-08 15:20:16.687500000,-34.0,6.0,54.0,77.06750000000001,6.45,0.508543,31.67
2021-07-08 15:20:16.695312500,-34.0,5.75,54.0,77.0640625,6.83,0.5084228749999999,31.67
2021-07-08 15:20:16.703125000,-34.0,5.5,54.0,77.060625,7.21,0.50830275,31.67
2021-07-08 15:20:16.710937500,-34.0,5.25,54.0,77.05718750000001,7.605,0.508182625,31.67
2021-07-08 15:20:16.718750000,-34.0,5.0,54.0,77.05375000000001,8.0,0.5080625,31.67
2021-07-08 15:20:16.726562500,-34.0,5.25,54.0,77.0503125,8.344999999999999,0.507942375,31.67
2021-07-08 15:20:16.734375000,-34.0,5.5,54.0,77.046875,8.69,0.50782225,31.67
2021-07-08 15:20:16.742187500,-34.0,5.75,54.0,77.04343750000001,8.945,0.507702125,31.67
2021-07-08 15:20:16.750000000,-34.0,6.0,54.0,77.04,9.2,0.507582,31.67
2021-07-08 15:20:16.757812500,-34.0,5.75,54.0,77.0365625,9.37,0.50774215625,31.67
2021-07-08 15:20:16.765625000,-34.0,5.5,54.0,77.03312500000001,9.54,0.5079023125,31.67
2021-07-08 15:20:16.773437500,-34.0,5.25,54.0,77.02968750000001,9.704999999999998,0.5080624687499999,31.67
2021-07-08 15:20:16.781250000,-34.0,5.0,54.0,77.02625,9.87,0.5082226249999999,31.67
2021-07-08 15:20:16.789062500,-34.0,5.25,54.0,77.0228125,10.1,0.50838278125,31.67
