TimeStamp,empatica.acc.x,empatica.acc.y,empatica.acc.z,empatica.hr,empatica.bvp,empatica.eda,empatica.temp
2021-07-08 15:15:47.492187500,-30.75,5.25,56.0,69.28234375,17.575,0.7178720937499999,32.11
2021-07-08 15:15:47.500000000,-31.0,5.0,56.0,69.28,16.81,0.717752,32.11
2021-07-08 15:15:47.507812500,-30.75,5.25,56.0,69.27765625,15.915,0.7177920312499999,32.11
2021-07-08 15:15:47.515625000,-30.5,5.5,56.0,69.2753125,15.02,0.7178320625,32.11
2021-07-08 15:15:47.523437500,-30.25,5.75,56.0,69.27296875,14.085,0.7178720937499999,32.11
2021-07-08 15:15:47.531250000,-30.0,6.0,56.0,69.270625,13.15,0.717912125,32.11
2021-07-08 15:15:47.539062500,-30.25,6.0,56.0,69.26828125,12.235,0.71795215625,32.11
2021-07-08 15:15:47.546875000,-30.5,6.0,56.0,69.2659375,11.32,0.7179921874999999,32.11
2021-07-08 15:15:47.554687500,-30.75,6.0,56.0,69.26359375,10.46,0.71803221875,32.11
2021-07-08 15:15:47.562500000,-31.0,6.0,56.0,69.26125,9.6,0.71807225,32.11
2021-07-08 15:15:47.570312500,-31.0,5.75,56.0,69.25890625,8.754999999999999,0.7181122812499999,32.11
2021-07-08 15:15:47.578125000,-31.0,5.5,56.0,69.2565625,7.91,0.7181523125,32.11
2021-07-08 15:15:47.585937500,-31.0,5.25,56.0,69.25421875,7.025,0.71819234375,32.11
2021-07-08 15:15:47.593750000,-31.0,5.0,56.0,69.251875,6.14,0.7182323749999999,32.11
2021-07-08 15:15:47.601562500,-31.0,5.25,56.0,69.24953125,5.14,0.71827240625,32.11
2021-07-08 15:15:47.609375000,-31.0,5.5,56.0,69.2471875,4.14,0.7183124375,32.11
2021-07-08 15:15:47.617187500,-31.0,5.75,56.0,69.24484375,3.0199999999999996,0.71835246875,32.11
2021-07-08 15:15:47.625000000,-31.0,6.0,56.0,69.2425,1.9,0.7183925,32.11
2021-07-08 15:15:47.632812500,-30.75,5.75,56.0,69.24015625,0.72,0.71843253125,32.11
2021-07-08 15:15:47.640625000,-30.5,5.5,56.0,69.2378125,-0.46,0.7184725625,32.11
2021-07-08 15:15:47.648437500,-30.25,5.25,56.0,69.23546875,-1.595,0.71851259375,32.11
2021-07-08 15:15:47.656250000,-30.0,5.0,56.0,69.233125,-2.73,0.7185526250000001,32.11
2021-07-08 15:15:47.664062500,-30.0,5.0,56.0,69.23078124999999,-3.7249999999999996,0.71859265625,32.11
2021-07-08 15:15:47.671875000,-30.0,5.0,56.0,69.2284375,-4.72,0.7186326875,32.11
2021-07-08 15:15:47.679687500,-30.0,5.0,56.0,69.22609375,-5.535,0.71867271875,32.11
2021-07-08 15:15:47.687500000,-30.0,5.0,56.0,69.22375,-6.35,0.71871275,32.11
2021-07-08 15:15:47.695312500,-30.25,5.25,56.0,69.22140625,-7.04,0.71875278125,32.11
2021-07-08 15:15:47.703125000,-30.5,5.5,56.0,69.21906249999999,-7.73,0.7187928125,32.11
2021-07-08 15:15:47.710937500,-30.75,5.75,56.0,69.21671875,-8.445,0.71883284375,32.11
2021-07-08 15:15:47.718750000,-31.0,6.0,56.0,69.214375,-9.16,0.718872875,32.11
2021-07-08 15:15:47.726562500,-30.75,5.75,56.0,69.21203125,-10.035,0.71891290625,32.11
2021-07-08 15:15:47.734375000,-30.5,5.5,56.0,69.2096875,-10.91,0.7189529375,32.11
2021-07-08 15:15:47.742187500,-30.25,5.25,56.0,69.20734374999999,-12.094999999999999,0.7189929687500001,32.11
2021-07-08 15:15:47.750000000,-30.0,5.0,56.0,69.205,-13.28,0.719033,32.11
2021-07-08 15:15:47.757812500,-30.0,5.0,56.0,69.20265625,-14.879999999999999,0.7191130625000001,32.11
2021-07-08 15:15:47.765625000,-30.0,5.0,56.0,69.2003125,-16.48,0.719193125,32.11
2021-07-08 15:15:47.773437500,-30.0,5.0,56.0,69.19796875,-18.505000000000003,0.7192731875,32.11
2021-07-08 15:15:47.781250000,-30.0,5.0,56.0,69.19562499999999,-20.53,0.71935325,32.11
2021-07-08 15:15:47.789062500,-30.0,5.25,56.0,69.19328125,-22.92,0.7194333125,32.11
2021-07-08 15:15:47.796875000,-30.0,5.5,56.0,69.1909375,-25.31,0.719513375,32.11
2021-07-08 15:15:47.804687500,-30.0,5.75,56.0,69.18859375,-27.86,0.7195934375,32.11
2021-07-08 15:15:47.812500000,-30.0,6.0,56.0,69.18625,-30.41,0.7196735000000001,32.11
2021-07-08 15:15:47.820312500,-30.0,6.0,56.0,69.18390624999999,-32.825,0.7197535625,32.11
2021-07-08 15:15:47.828125000,-30.0,6.0,56.0,69.1815625,-35.24,0.719833625,32.11
2021-07-08 15:15:47.835937500,-30.0,6.0,56.0,69.17921875,-37.13,0.7199136875000001,32.11
2021-07-08 15:15:47.843750000,-30.0,6.0,56.0,69.176875,-39.02,0.71999375,32.11
2021-07-08 15:15:47.851562500,-30.0,5.75,56.0,69.17453125,-40.0,0.7200738125,32.11
2021-07-08 15:15:47.859375000,-30.0,5.5,56.0,69.17218749999999,-40.98,0.720153875,32.11
2021-07-08 15:15:47.867187500,-30.0,5.25,56.0,69.16984375,-40.785,0.7202339375,32.11
2021-07-08 15:15:47.875000000,-30.0,5.0,56.0,69.16749999999999,-40.59,0.720314,32.11
2021-07-08 15:15:47.882812500,-30.0,5.25,56.0,69.16515625,-39.155,0.7203940625,32.11
2021-07-08 15:15:47.890625000,-30.0,5.5,56.0,69.1628125,-37.72,0.720474125,32.11
2021-07-08 15:15:47.898437500,-30.0,5.75,56.0,69.16046874999999,-35.21,0.7205541875,32.11
2021-07-08 15:15:47.906250000,-30.0,6.0,56.0,69.158125,-32.7,0.72063425,32.11
2021-07-08 15:15:47.914062500,-30.25,6.0,56.0,69.15578124999999,-29.46,0.7207143125,32.11
2021-07-08 15:15:47.921875000,-30.5,6.0,56.0,69.1534375,-26.22,0.720794375,32.11
2021-07-08 15:15:47.929687500,-30.75,6.0,56.0,69.15109375,-22.655,0.7208744375,32.11
2021-07-08 15:15:47.937500000,-31.0,6.0,56.0,69.14874999999999,-19.09,0.7209544999999999,32.11
2021-07-08 15:15:47.945312500,-30.75,6.0,56.0,69.14640625,-15.58,0.7210345625,32.11
2021-07-08 15:15:47.953125000,-30.5,6.0,56.0,69.14406249999999,-12.07,0.721114625,32.11
2021-07-08 15:15:47.960937500,-30.25,6.0,56.0,69.14171875,-8.88,0.7211946875,32.11
2021-07-08 15:15:47.968750000,-30.0,6.0,56.0,69.139375,-5.69,0.72127475,32.11
2021-07-08 15:15:47.976562500,-30.0,5.75,56.0,69.13703124999999,-2.955,0.7213548125,32.11
2021-07-08 15:15:47.984375000,-30.0,5.5,56.0,69.1346875,-0.22,0.721434875,32.11
2021-07-08 15:15:47.992187500,-30.0,5.25,56.0,69.13234374999999,2.0549999999999997,0.7215149375,32.11
2021-07-08 15:15:48.000000000,-30.0,5.0,56.0,69.13,4.33,0.721595,32.11
2021-07-08 15:15:48.007812500,-30.25,5.25,56.0,69.12796875,6.2,0.721595,32.10875
2021-07-08 15:15:48.015625000,-30.5,5.5,56.0,69.12593749999999,8.07,0.721595,32.1075
2021-07-08 15:15:48.023437500,-30.75,5.75,56.0,69.12390624999999,9.615,0.721595,32.10625
2021-07-08 15:15:48.031250000,-31.0,6.0,56.0,69.12187499999999,11.16,0.721595,32.105
2021-07-08 15:15:48.039062500,-31.0,6.0,56.0,69.11984375,12.465,0.721595,32.10375
2021-07-08 15:15:48.046875000,-31.0,6.0,56.0,69.1178125,13.77,0.721595,32.1025
2021-07-08 15:15:48.054687500,-31.0,6.0,56.0,69.11578125,14.879999999999999,0.721595,32.10125
2021-07-08 15:15:48.062500000,-31.0,6.0,56.0,69.11375,15.99,0.721595,32.1
2021-07-08 15:15:48.070312500,-31.0,5.75,56.0,69.11171875,16.945,0.721595,32.09875
2021-07-08 15:15:48.078125000,-31.0,5.5,56.0,69.10968749999999,17.9,0.721595,32.0975
2021-07-08 15:15:48.085937500,-31.0,5.25,56.0,69.10765624999999,18.715,0.721595,32.09625
2021-07-08 15:15:48.093750000,-31.0,5.0,56.0,69.105625,19.53,0.721595,32.095
2021-07-08 15:15:48.101562500,-31.0,5.25,56.0,69.10359375,20.21,0.721595,32.09375
2021-07-08 15:15:48.109375000,-31.0,5.5,56.0,69.1015625,20.89,0.721595,32.0925
2021-07-08 15:15:48.117187500,-31.0,5.75,56.0,69.09953125,21.450000000000003,0.721595,32.09125
2021-07-08 15:15:48.125000000,-31.0,6.0,56.0,69.0975,22.01,0.721595,32.09
2021-07-08 15:15:48.132812500,-30.75,6.0,56.0,69.09546875,22.445,0.721595,32.08875
2021-07-08 15:15:48.140625000,-30.5,6.0,56.0,69.0934375,22.88,0.721595,32.0875
2021-07-08 15:15:48.148437500,-30.25,6.0,56.0,69.09140624999999,23.2,0.721595,32.08625
2021-07-08 15:15:48.156250000,-30.0,6.0,56.0,69.08937499999999,23.52,0.721595,32.085
2021-07-08 15:15:48.164062500,-30.0,5.75,56.0,69.08734375,23.735,0.721595,32.08375
2021-07-08 15:15:48.171875000,-30.0,5.5,56.0,69.0853125,23.95,0.721595,32.0825
2021-07-08 15:15:48.179687500,-30.0,5.25,56.0,69.08328125,24.075,0.721595,32.08125
2021-07-08 15:15:48.187500000,-30.0,5.0,56.0,69.08125,24.2,0.721595,32.08
2021-07-08 15:15:48.195312500,-30.25,5.25,56.0,69.07921875,24.244999999999997,0.721595,32.07875
2021-07-08 15:15:48.203125000,-30.5,5.5,56.0,69.0771875,24.29,0.721595,32.0775
2021-07-08 15:15:48.210937500,-30.75,5.75,56.0,69.07515624999999,24.28,0.721595,32.07625
2021-07-08 15:15:48.218750000,-31.0,6.0,56.0,69.073125,24.27,0.721595,32.075
2021-07-08 15:15:48.226562500,-31.0,5.75,56.0,69.07109375,24.2,0.721595,32.07375
2021-07-08 15:15:48.234375000,-31.0,5.5,56.0,69.0690625,24.13,0.721595,32.0725
2021-07-08 15:15:48.242187500,-31.0,5.25,56.0,69.06703125,24.02,0.721595,32.07125
2021-07-08 15:15:48.250000000,-31.0,5.0,56.0,69.065,23.91,0.721595,32.07
2021-07-08 15:15:48.257812500,-31.0,5.0,56.0,69.06296875,23.755000000000003,0.72155496875,32.07
2021-07-08 15:15:48.265625000,-31.0,5.0,56.0,69.0609375,23.6,0.7215149375,32.07
2021-07-08 15:15:48.273437500,-31.0,5.0,56.0,69.05890624999999,23.39,0.72147490625,32.07
2021-07-08 15:15:48.281250000,-31.0,5.0,56.0,69.05687499999999,23.18,0.721434875,32.07
2021-07-08 15:15:48.289062500,-30.75,5.25,56.0,69.05484375,22.9,0.72139484375,32.07
2021-07-08 15:15:48.296875000,-30.5,5.5,56.0,69.0528125,22.62,0.7213548125,32.07
2021-07-08 15:15:48.304687500,-30.25,5.75,56.0,69.05078125,22.25,0.72131478125,32.07
2021-07-08 15:15:48.312500000,-30.0,6.0,56.0,69.04875,21.88,0.72127475,32.07
2021-07-08 15:15:48.320312500,-30.25,6.0,56.0,69.04671875,21.375,0.72123471875,32.07
2021-07-08 15:15:48.328125000,-30.5,6.0,56.0,69.0446875,20.87,0.7211946875,32.07
2021-07-08 15:15:48.335937500,-30.75,6.0,56.0,69.04265625,20.240000000000002,0.72115465625,32.07
2021-07-08 15:15:48.343750000,-31.0,6.0,56.0,69.040625,19.61,0.721114625,32.07
2021-07-08 15:15:48.351562500,-31.0,6.0,56.0,69.03859375,18.865000000000002,0.72107459375,32.07
2021-07-08 15:15:48.359375000,-31.0,6.0,56.0,69.0365625,18.12,0.7210345625,32.07
2021-07-08 15:15:48.367187500,-31.0,6.0,56.0,69.03453125,17.3,0.72099453125,32.07
2021-07-08 15:15:48.375000000,-31.0,6.0,56.0,69.0325,16.48,0.7209544999999999,32.07
2021-07-08 15:15:48.382812500,-31.0,5.75,56.0,69.03046875,15.65,0.72091446875,32.07
2021-07-08 15:15:48.390625000,-31.0,5.5,56.0,69.0284375,14.82,0.7208744375,32.07
2021-07-08 15:15:48.398437500,-31.0,5.25,56.0,69.02640625,14.030000000000001,0.72083440625,32.07
2021-07-08 15:15:48.406250000,-31.0,5.0,56.0,69.02437499999999,13.24,0.720794375,32.07
2021-07-08 15:15:48.414062500,-31.0,5.25,56.0,69.02234375,12.525,0.72075434375,32.07
2021-07-08 15:15:48.421875000,-31.0,5.5,56.0,69.0203125,11.81,0.7207143125,32.07
2021-07-08 15:15:48.429687500,-31.0,5.75,56.0,69.01828125,11.17,0.72067428125,32.07
2021-07-08 15:15:48.437500000,-31.0,6.0,56.0,69.01625,10.53,0.72063425,32.07
2021-07-08 15:15:48.445312500,-31.0,5.75,56.0,69.01421875,9.95,0.72059421875,32.07
2021-07-08 15:15:48.453125000,-31.0,5.5,56.0,69.0121875,9.37,0.7205541875,32.07
2021-07-08 15:15:48.460937500,-31.0,5.25,56.0,69.01015625,8.8,0.72051415625,32.07
2021-07-08 15:15:48.468750000,-31.0,5.0,56.0,69.008125,8.23,0.720474125,32.07
2021-07-08 15:15:48.476562500,-31.0,5.0,56.0,69.00609375,7.615,0.72043409375,32.07
2021-07-08 15:15:48.484375000,-31.0,5.0,56.0,69.0040625,7.0,0.7203940625,32.07
2021-07-08 15:15:48.492187500,-31.0,5.0,56.0,69.00203125,6.305,0.72035403125,32.07
2021-07-08 15:15:48.500000000,-31.0,5.0,56.0,69.0,5.61,0.720314,32.07
2021-07-08 15:15:48.507812500,-31.0,5.25,56.0,68.99796875,4.795,0.72035403125,32.07
2021-07-08 15:15:48.515625000,-31.0,5.5,56.0,68.9959375,3.98,0.7203940625,32.07
2021-07-08 15:15:48.523437500,-31.0,5.75,56.0,68.99390625,3.035,0.72043409375,32.07
2021-07-08 15:15:48.531250000,-31.0,6.0,56.0,68.991875,2.09,0.720474125,32.07
2021-07-08 15:15:48.539062500,-30.75,6.0,56.0,68.98984375,1.01,0.72051415625,32.07
2021-07-08 15:15:48.546875000,-30.5,6.0,56.0,68.9878125,-0.07,0.7205541875,32.07
2021-07-08 15:15:48.554687500,-30.25,6.0,56.0,68.98578125,-1.2800000000000002,0.72059421875,32.07
2021-07-08 15:15:48.562500000,-30.0,6.0,56.0,68.98375,-2.49,0.72063425,32.07
2021-07-08 15:15:48.570312500,-30.0,6.0,56.0,68.98171875,-3.77,0.72067428125,32.07
2021-07-08 15:15:48.578125000,-30.0,6.0,56.0,68.9796875,-5.05,0.7207143125,32.07
2021-07-08 15:15:48.585937500,-30.0,6.0,56.0,68.97765625,-6.345,0.72075434375,32.07
2021-07-08 15:15:48.593750000,-30.0,6.0,56.0,68.97562500000001,-7.64,0.720794375,32.07
2021-07-08 15:15:48.601562500,-30.25,6.0,56.0,68.97359375,-8.9,0.72083440625,32.07
2021-07-08 15:15:48.609375000,-30.5,6.0,56.0,68.9715625,-10.16,0.7208744375,32.07
2021-07-08 15:15:48.617187500,-30.75,6.0,56.0,68.96953125,-11.385,0.72091446875,32.07
2021-07-08 15:15:48.625000000,-31.0,6.0,56.0,68.9675,-12.61,0.7209544999999999,32.07
2021-07-08 15:15:48.632812500,-31.0,6.0,56.0,68.96546875,-13.83,0.72099453125,32.07
2021-07-08 15:15:48.640625000,-31.0,6.0,56.0,68.9634375,-15.05,0.7210345625,32.07
2021-07-08 15:15:48.648437500,-31.0,6.0,56.0,68.96140625,-16.365000000000002,0.72107459375,32.07
2021-07-08 15:15:48.656250000,-31.0,6.0,56.0,68.959375,-17.68,0.721114625,32.07
2021-07-08 15:15:48.664062500,-31.0,5.75,56.0,68.95734375,-19.185000000000002,0.72115465625,32.07
2021-07-08 15:15:48.671875000,-31.0,5.5,56.0,68.9553125,-20.69,0.7211946875,32.07
2021-07-08 15:15:48.679687500,-31.0,5.25,56.0,68.95328125,-22.455,0.72123471875,32.07
2021-07-08 15:15:48.687500000,-31.0,5.0,56.0,68.95125,-24.22,0.72127475,32.07
2021-07-08 15:15:48.695312500,-31.0,5.25,56.0,68.94921875,-26.229999999999997,0.72131478125,32.07
2021-07-08 15:15:48.703125000,-31.0,5.5,56.0,68.9471875,-28.24,0.7213548125,32.07
2021-07-08 15:15:48.710937500,-31.0,5.75,56.0,68.94515625,-30.354999999999997,0.72139484375,32.07
2021-07-08 15:15:48.718750000,-31.0,6.0,56.0,68.94312500000001,-32.47,0.721434875,32.07
2021-07-08 15:15:48.726562500,-30.75,6.0,56.0,68.94109375000001,-34.455,0.72147490625,32.07
2021-07-08 15:15:48.734375000,-30.5,6.0,56.0,68.9390625,-36.44,0.7215149375,32.07
2021-07-08 15:15:48.742187500,-30.25,6.0,56.0,68.93703125,-37.965,0.72155496875,32.07
2021-07-08 15:15:48.750000000,-30.0,6.0,56.0,68.935,-39.49,0.721595,32.07
2021-07-08 15:15:48.757812500,-30.25,6.0,56.0,68.93296875,-40.230000000000004,0.72139484375,32.07
2021-07-08 15:15:48.765625000,-30.5,6.0,56.0,68.9309375,-40.97,0.7211946874999999,32.07
2021-07-08 15:15:48.773437500,-30.75,6.0,56.0,68.92890625,-40.67,0.72099453125,32.07
2021-07-08 15:15:48.781250000,-31.0,6.0,56.0,68.926875,-40.37,0.720794375,32.07
2021-07-08 15:15:48.789062500,-31.0,6.0,56.0,68.92484375000001,-38.97,0.72059421875,32.07
2021-07-08 15:15:48.796875000,-31.0,6.0,56.0,68.9228125,-37.57,0.7203940625,32.07
2021-07-08 15:15:48.804687500,-31.0,6.0,56.0,68.92078125,-35.205,0.72019390625,32.07
2021-07-08 15:15:48.812500000,-31.0,6.0,56.0,68.91875,-32.84,0.71999375,32.07
2021-07-08 15:15:48.820312500,-31.0,6.0,56.0,68.91671875,-29.830000000000002,0.71979359375,32.07
2021-07-08 15:15:48.828125000,-31.0,6.0,56.0,68.9146875,-26.82,0.7195934374999999,32.07
2021-07-08 15:15:48.835937500,-31.0,6.0,56.0,68.91265625,-23.585,0.71939328125,32.07
2021-07-08 15:15:48.843750000,-31.0,6.0,56.0,68.91062500000001,-20.35,0.719193125,32.07
2021-07-08 15:15:48.851562500,-31.0,6.0,56.0,68.90859375000001,-17.26,0.71899296875,32.07
2021-07-08 15:15:48.859375000,-31.0,6.0,56.0,68.9065625,-14.17,0.7187928125,32.07
2021-07-08 15:15:48.867187500,-31.0,6.0,56.0,68.90453125,-11.469999999999999,0.71859265625,32.07
2021-07-08 15:15:48.875000000,-31.0,6.0,56.0,68.9025,-8.77,0.7183925,32.07
2021-07-08 15:15:48.882812500,-30.75,5.75,56.0,68.90046875,-6.539999999999999,0.71819234375,32.07
2021-07-08 15:15:48.890625000,-30.5,5.5,56.0,68.8984375,-4.31,0.7179921874999999,32.07
2021-07-08 15:15:48.898437500,-30.25,5.25,56.0,68.89640625,-2.4899999999999998,0.71779203125,32.07
2021-07-08 15:15:48.906250000,-30.0,5.0,56.0,68.894375,-0.67,0.717591875,32.07
2021-07-08 15:15:48.914062500,-30.25,5.0,56.0,68.89234375000001,0.86,0.71739171875,32.07
2021-07-08 15:15:48.921875000,-30.5,5.0,56.0,68.89031250000001,2.39,0.7171915625,32.07
2021-07-08 15:15:48.929687500,-30.75,5.0,56.0,68.88828125,3.7300000000000004,0.71699140625,32.07
2021-07-08 15:15:48.937500000,-31.0,5.0,56.0,68.88625,5.07,0.71679125,32.07
2021-07-08 15:15:48.945312500,-30.75,5.25,56.0,68.88421875,6.300000000000001,0.71659109375,32.07
2021-07-08 15:15:48.953125000,-30.5,5.5,56.0,68.8821875,7.53,0.7163909374999999,32.07
2021-07-08 15:15:48.960937500,-30.25,5.75,56.0,68.88015625,8.695,0.71619078125,32.07
2021-07-08 15:15:48.968750000,-30.0,6.0,56.0,68.87812500000001,9.86,0.715990625,32.07
2021-07-08 15:15:48.976562500,-30.25,5.75,56.0,68.87609375000001,10.98,0.71579046875,32.07
2021-07-08 15:15:48.984375000,-30.5,5.5,56.0,68.87406250000001,12.1,0.7155903125,32.07
2021-07-08 15:15:48.992187500,-30.75,5.25,56.0,68.87203125,13.19,0.71539015625,32.07
2021-07-08 15:15:49.000000000,-31.0,5.0,56.0,68.87,14.28,0.71519,32.07
2021-07-08 15:15:49.007812500,-31.0,5.25,56.0,68.868125,15.32,0.71531009375,32.070625
2021-07-08 15:15:49.015625000,-31.0,5.5,56.0,68.86625000000001,16.36,0.7154301875,32.07125
2021-07-08 15:15:49.023437500,-31.0,5.75,56.0,68.86437500000001,17.310000000000002,0.71555028125,32.071875
2021-07-08 15:15:49.031250000,-31.0,6.0,56.0,68.86250000000001,18.26,0.715670375,32.0725
2021-07-08 15:15:49.039062500,-31.0,5.75,56.0,68.860625,19.07,0.71579046875,32.073125
2021-07-08 15:15:49.046875000,-31.0,5.5,56.0,68.85875,19.88,0.7159105625,32.073750000000004
2021-07-08 15:15:49.054687500,-31.0,5.25,56.0,68.856875,20.505,0.71603065625,32.074375
2021-07-08 15:15:49.062500000,-31.0,5.0,56.0,68.855,21.13,0.71615075,32.075
2021-07-08 15:15:49.070312500,-31.0,5.0,56.0,68.853125,21.555,0.71627084375,32.075625
2021-07-08 15:15:49.078125000,-31.0,5.0,56.0,68.85125000000001,21.98,0.7163909375,32.07625
2021-07-08 15:15:49.085937500,-31.0,5.0,56.0,68.84937500000001,22.225,0.71651103125,32.076875
2021-07-08 15:15:49.093750000,-31.0,5.0,56.0,68.8475,22.47,0.716631125,32.0775
2021-07-08 15:15:49.101562500,-31.0,5.0,56.0,68.845625,22.56,0.71675121875,32.078125
2021-07-08 15:15:49.109375000,-31.0,5.0,56.0,68.84375,22.65,0.7168713125,32.07875
2021-07-08 15:15:49.117187500,-31.0,5.0,56.0,68.841875,22.619999999999997,0.71699140625,32.079375
2021-07-08 15:15:49.125000000,-31.0,5.0,56.0,68.84,22.59,0.7171115,32.08
2021-07-08 15:15:49.132812500,-31.0,5.0,56.0,68.838125,22.465,0.71723159375,32.080625000000005
2021-07-08 15:15:49.140625000,-31.0,5.0,56.0,68.83625,22.34,0.7173516875,32.081250000000004
2021-07-08 15:15:49.148437500,-31.0,5.0,56.0,68.83437500000001,22.130000000000003,0.71747178125,32.081875000000004
2021-07-08 15:15:49.156250000,-31.0,5.0,56.0,68.83250000000001,21.92,0.717591875,32.0825
2021-07-08 15:15:49.164062500,-31.0,5.0,56.0,68.830625,21.655,0.71771196875,32.083125
2021-07-08 15:15:49.171875000,-31.0,5.0,56.0,68.82875,21.39,0.7178320625,32.08375
2021-07-08 15:15:49.179687500,-31.0,5.0,56.0,68.826875,21.075000000000003,0.71795215625,32.084375
2021-07-08 15:15:49.187500000,-31.0,5.0,56.0,68.825,20.76,0.7180722500000001,32.085
2021-07-08 15:15:49.195312500,-31.0,5.25,56.0,68.823125,20.4,0.7181923437500001,32.085625
2021-07-08 15:15:49.203125000,-31.0,5.5,56.0,68.82125,20.04,0.7183124375000001,32.08625
2021-07-08 15:15:49.210937500,-31.0,5.75,56.0,68.81937500000001,19.605,0.7184325312500001,32.086875000000006
2021-07-08 15:15:49.218750000,-31.0,6.0,56.0,68.8175,19.17,0.7185526250000001,32.087500000000006
2021-07-08 15:15:49.226562500,-31.0,5.75,56.0,68.815625,18.630000000000003,0.71867271875,32.088125000000005
2021-07-08 15:15:49.234375000,-31.0,5.5,56.0,68.81375,18.09,0.7187928125,32.088750000000005
2021-07-08 15:15:49.242187500,-31.0,5.25,56.0,68.811875,17.425,0.71891290625,32.089375000000004
2021-07-08 15:15:49.250000000,-31.0,5.0,56.0,68.81,16.76,0.719033,32.09
2021-07-08 15:15:49.257812500,-31.0,5.0,56.0,68.808125,15.985000000000001,0.7189529375,32.09
2021-07-08 15:15:49.265625000,-31.0,5.0,56.0,68.80625,15.21,0.7188728750000001,32.09
2021-07-08 15:15:49.273437500,-31.0,5.0,56.0,68.80437500000001,14.375,0.7187928125,32.09
2021-07-08 15:15:49.281250000,-31.0,5.0,56.0,68.80250000000001,13.54,0.71871275,32.09
2021-07-08 15:15:49.289062500,-31.0,5.25,56.0,68.800625,12.725,0.7186326875,32.09
2021-07-08 15:15:49.296875000,-31.0,5.5,56.0,68.79875,11.91,0.7185526250000001,32.09
2021-07-08 15:15:49.304687500,-31.0,5.75,56.0,68.796875,11.18,0.7184725625,32.09
2021-07-08 15:15:49.312500000,-31.0,6.0,56.0,68.795,10.45,0.7183925,32.09
2021-07-08 15:15:49.320312500,-31.0,6.0,56.0,68.793125,9.815,0.7183124375000001,32.09
2021-07-08 15:15:49.328125000,-31.0,6.0,56.0,68.79125,9.18,0.718232375,32.09
2021-07-08 15:15:49.335937500,-31.0,6.0,56.0,68.789375,8.645,0.7181523125,32.09
2021-07-08 15:15:49.343750000,-31.0,6.0,56.0,68.7875,8.11,0.71807225,32.09
2021-07-08 15:15:49.351562500,-31.0,6.0,56.0,68.785625,7.625,0.7179921875,32.09
2021-07-08 15:15:49.359375000,-31.0,6.0,56.0,68.78375,7.14,0.717912125,32.09
2021-07-08 15:15:49.367187500,-31.0,6.0,56.0,68.781875,6.654999999999999,0.7178320625,32.09
2021-07-08 15:15:49.375000000,-31.0,6.0,56.0,68.78,6.17,0.717752,32.09
2021-07-08 15:15:49.382812500,-31.0,6.0,56.0,68.778125,5.63,0.7176719375,32.09
2021-07-08 15:15:49.390625000,-31.0,6.0,56.0,68.77625,5.09,0.717591875,32.09
2021-07-08 15:15:49.398437500,-31.0,6.0,56.0,68.774375,4.465,0.7175118125,32.09
2021-07-08 15:15:49.406250000,-31.0,6.0,56.0,68.77250000000001,3.84,0.71743175,32.09
2021-07-08 15:15:49.414062500,-31.0,6.0,56.0,68.770625,3.105,0.7173516875,32.09
2021-07-08 15:15:49.421875000,-31.0,6.0,56.0,68.76875,2.37,0.717271625,32.09
2021-07-08 15:15:49.429687500,-31.0,6.0,56.0,68.766875,1.52,0.7171915624999999,32.09
2021-07-08 15:15:49.437500000,-31.0,6.0,56.0,68.765,0.67,0.7171115,32.09
2021-07-08 15:15:49.445312500,-31.0,6.0,56.0,68.763125,-0.2899999999999999,0.7170314375,32.09
2021-07-08 15:15:49.453125000,-31.0,6.0,56.0,68.76125,-1.25,0.716951375,32.09
2021-07-08 15:15:49.460937500,-31.0,6.0,56.0,68.759375,-2.315,0.7168713125,32.09
2021-07-08 15:15:49.468750000,-31.0,6.0,56.0,68.7575,-3.38,0.71679125,32.09
2021-07-08 15:15:49.476562500,-31.0,6.0,56.0,68.755625,-4.5,0.7167111875,32.09
2021-07-08 15:15:49.484375000,-31.0,6.0,56.0,68.75375,-5.62,0.7166311249999999,32.09
2021-07-08 15:15:49.492187500,-31.0,6.0,56.0,68.751875,-6.755,0.7165510625,32.09
2021-07-08 15:15:49.500000000,-31.0,6.0,56.0,68.75,-7.89,0.716471,32.09
2021-07-08 15:15:49.507812500,-31.0,5.75,56.0,68.748125,-9.0,0.7165510625,32.09
2021-07-08 15:15:49.515625000,-31.0,5.5,56.0,68.74625,-10.11,0.7166311249999999,32.09
2021-07-08 15:15:49.523437500,-31.0,5.25,56.0,68.744375,-11.16,0.7167111875,32.09
2021-07-08 15:15:49.531250000,-31.0,5.0,56.0,68.7425,-12.21,0.71679125,32.09
2021-07-08 15:15:49.539062500,-31.0,5.0,56.0,68.740625,-13.235,0.7168713125,32.09
2021-07-08 15:15:49.546875000,-31.0,5.0,56.0,68.73875,-14.26,0.716951375,32.09
2021-07-08 15:15:49.554687500,-31.0,5.0,56.0,68.736875,-15.329999999999998,0.7170314375,32.09
2021-07-08 15:15:49.562500000,-31.0,5.0,56.0,68.735,-16.4,0.7171115,32.09
2021-07-08 15:15:49.570312500,-31.0,5.25,56.0,68.733125,-17.645,0.7171915624999999,32.09
2021-07-08 15:15:49.578125000,-31.0,5.5,56.0,68.73125,-18.89,0.717271625,32.09
2021-07-08 15:15:49.585937500,-31.0,5.75,56.0,68.729375,-20.405,0.7173516875,32.09
2021-07-08 15:15:49.593750000,-31.0,6.0,56.0,68.72749999999999,-21.92,0.71743175,32.09
2021-07-08 15:15:49.601562500,-31.0,5.75,56.0,68.725625,-23.765,0.7175118125,32.09
2021-07-08 15:15:49.609375000,-31.0,5.5,56.0,68.72375,-25.61,0.717591875,32.09
2021-07-08 15:15:49.617187500,-31.0,5.25,56.0,68.721875,-27.72,0.7176719375,32.09
2021-07-08 15:15:49.625000000,-31.0,5.0,56.0,68.72,-29.83,0.717752,32.09
2021-07-08 15:15:49.632812500,-31.0,5.0,56.0,68.718125,-31.99,0.7178320625,32.09
2021-07-08 15:15:49.640625000,-31.0,5.0,56.0,68.71625,-34.15,0.717912125,32.09
2021-07-08 15:15:49.648437500,-31.0,5.0,56.0,68.714375,-36.06,0.7179921875,32.09
2021-07-08 15:15:49.656250000,-31.0,5.0,56.0,68.7125,-37.97,0.71807225,32.09
2021-07-08 15:15:49.664062500,-31.0,5.25,56.0,68.710625,-39.254999999999995,0.7181523125,32.09
2021-07-08 15:15:49.671875000,-31.0,5.5,56.0,68.70875,-40.54,0.718232375,32.09
2021-07-08 15:15:49.679687500,-31.0,5.75,56.0,68.706875,-40.915,0.7183124375000001,32.09
2021-07-08 15:15:49.687500000,-31.0,6.0,56.0,68.705,-41.29,0.7183925,32.09
2021-07-08 15:15:49.695312500,-31.0,5.75,56.0,68.703125,-40.57,0.7184725625,32.09
2021-07-08 15:15:49.703125000,-31.0,5.5,56.0,68.70125,-39.85,0.7185526250000001,32.09
2021-07-08 15:15:49.710937500,-31.0,5.25,56.0,68.699375,-38.05,0.7186326875,32.09
2021-07-08 15:15:49.718750000,-31.0,5.0,56.0,68.69749999999999,-36.25,0.71871275,32.09
2021-07-08 15:15:49.726562500,-31.0,5.25,56.0,68.69562499999999,-33.575,0.7187928125,32.09
2021-07-08 15:15:49.734375000,-31.0,5.5,56.0,68.69375,-30.9,0.7188728750000001,32.09
2021-07-08 15:15:49.742187500,-31.0,5.75,56.0,68.691875,-27.695,0.7189529375,32.09
2021-07-08 15:15:49.750000000,-31.0,6.0,56.0,68.69,-24.49,0.719033,32.09
2021-07-08 15:15:49.757812500,-31.0,5.75,56.0,68.688125,-21.134999999999998,0.7189529375,32.09
2021-07-08 15:15:49.765625000,-31.0,5.5,56.0,68.68625,-17.78,0.7188728750000001,32.09
2021-07-08 15:15:49.773437500,-31.0,5.25,56.0,68.684375,-14.615,0.7187928125,32.09
2021-07-08 15:15:49.781250000,-31.0,5.0,56.0,68.6825,-11.45,0.71871275,32.09
2021-07-08 15:15:49.789062500,-31.0,5.25,56.0,68.68062499999999,-8.69,0.7186326875,32.09
2021-07-08 15:15:49.796875000,-31.0,5.5,56.0,68.67875,-5.93,0.7185526250000001,32.09
2021-07-08 15:15:49.804687500,-31.0,5.75,56.0,68.676875,-3.63,0.7184725625,32.09
2021-07-08 15:15:49.812500000,-31.0,6.0,56.0,68.675,-1.33,0.7183925,32.09
2021-07-08 15:15:49.820312500,-31.0,5.75,56.0,68.673125,0.5800000000000001,0.7183124375000001,32.09
2021-07-08 15:15:49.828125000,-31.0,5.5,56.0,68.67125,2.49,0.718232375,32.09
2021-07-08 15:15:49.835937500,-31.0,5.25,56.0,68.669375,4.16,0.7181523125,32.09
2021-07-08 15:15:49.843750000,-31.0,5.0,56.0,68.66749999999999,5.83,0.71807225,32.09
2021-07-08 15:15:49.851562500,-31.0,5.25,56.0,68.66562499999999,7.38,0.7179921875,32.09
2021-07-08 15:15:49.859375000,-31.0,5.5,56.0,68.66375,8.93,0.717912125,32.09
2021-07-08 15:15:49.867187500,-31.0,5.75,56.0,68.661875,10.399999999999999,0.7178320625,32.09
2021-07-08 15:15:49.875000000,-31.0,6.0,56.0,68.66,11.87,0.717752,32.09
2021-07-08 15:15:49.882812500,-31.0,5.75,56.0,68.658125,13.184999999999999,0.7176719375,32.09
2021-07-08 15:15:49.890625000,-31.0,5.5,56.0,68.65625,14.5,0.717591875,32.09
2021-07-08 15:15:49.898437500,-31.0,5.25,56.0,68.654375,15.565,0.7175118125,32.09
2021-07-08 15:15:49.906250000,-31.0,5.0,56.0,68.6525,16.63,0.71743175,32.09
2021-07-08 15:15:49.914062500,-31.0,5.25,56.0,68.65062499999999,17.354999999999997,0.7173516875,32.09
2021-07-08 15:15:49.921875000,-31.0,5.5,56.0,68.64874999999999,18.08,0.717271625,32.09
2021-07-08 15:15:49.929687500,-31.0,5.75,56.0,68.646875,18.445,0.7171915624999999,32.09
2021-07-08 15:15:49.937500000,-31.0,6.0,56.0,68.645,18.81,0.7171115,32.09
2021-07-08 15:15:49.945312500,-31.0,5.75,56.0,68.643125,18.88,0.7170314375,32.09
2021-07-08 15:15:49.953125000,-31.0,5.5,56.0,68.64125,18.95,0.716951375,32.09
2021-07-08 15:15:49.960937500,-31.0,5.25,56.0,68.639375,18.82,0.7168713125,32.09
2021-07-08 15:15:49.968750000,-31.0,5.0,56.0,68.63749999999999,18.69,0.71679125,32.09
2021-07-08 15:15:49.976562500,-31.0,5.0,56.0,68.63562499999999,18.47,0.7167111875,32.09
2021-07-08 15:15:49.984375000,-31.0,5.0,56.0,68.63374999999999,18.25,0.7166311249999999,32.09
2021-07-08 15:15:49.992187500,-31.0,5.0,56.0,68.631875,18.015,0.7165510625,32.09
2021-07-08 15:15:50.000000000,-31.0,5.0,56.0,68.63,17.78,0.716471,32.09
2021-07-08 15:15:50.007812500,-31.0,5.25,56.0,68.62843749999999,17.545,0.7165110312499999,32.089375000000004
2021-07-08 15:15:50.015625000,-31.0,5.5,56.0,68.626875,17.31,0.7165510625,32.088750000000005
2021-07-08 15:15:50.023437500,-31.0,5.75,56.0,68.62531249999999,17.085,0.71659109375,32.088125000000005
2021-07-08 15:15:50.031250000,-31.0,6.0,56.0,68.62375,16.86,0.7166311249999999,32.087500000000006
2021-07-08 15:15:50.039062500,-31.0,5.75,56.0,68.6221875,16.66,0.71667115625,32.086875000000006
2021-07-08 15:15:50.046875000,-31.0,5.5,56.0,68.62062499999999,16.46,0.7167111875,32.08625
2021-07-08 15:15:50.054687500,-31.0,5.25,56.0,68.6190625,16.295,0.7167512187499999,32.085625
2021-07-08 15:15:50.062500000,-31.0,5.0,56.0,68.61749999999999,16.13,0.71679125,32.085
2021-07-08 15:15:50.070312500,-31.0,5.0,56.0,68.6159375,16.009999999999998,0.71683128125,32.084375
2021-07-08 15:15:50.078125000,-31.0,5.0,56.0,68.614375,15.89,0.7168713124999999,32.08375
2021-07-08 15:15:50.085937500,-31.0,5.0,56.0,68.61281249999999,15.795,0.71691134375,32.083125
2021-07-08 15:15:50.093750000,-31.0,5.0,56.0,68.61125,15.7,0.716951375,32.0825
2021-07-08 15:15:50.101562500,-31.0,5.25,56.0,68.60968749999999,15.58,0.7169914062499999,32.081875000000004
2021-07-08 15:15:50.109375000,-31.0,5.5,56.0,68.608125,15.46,0.7170314375,32.081250000000004
2021-07-08 15:15:50.117187500,-31.0,5.75,56.0,68.6065625,15.27,0.7170714687499999,32.080625000000005
2021-07-08 15:15:50.125000000,-31.0,6.0,56.0,68.60499999999999,15.08,0.7171114999999999,32.08
2021-07-08 15:15:50.132812500,-31.0,6.0,56.0,68.6034375,14.795,0.71715153125,32.079375
2021-07-08 15:15:50.140625000,-31.0,6.0,56.0,68.60187499999999,14.51,0.7171915624999999,32.07875
2021-07-08 15:15:50.148437500,-31.0,6.0,56.0,68.6003125,14.120000000000001,0.71723159375,32.078125
2021-07-08 15:15:50.156250000,-31.0,6.0,56.0,68.59875,13.73,0.717271625,32.0775
2021-07-08 15:15:50.164062500,-30.75,6.0,56.0,68.5971875,13.26,0.7173116562499999,32.076875
2021-07-08 15:15:50.171875000,-30.5,6.0,56.0,68.595625,12.79,0.7173516875,32.07625
2021-07-08 15:15:50.179687500,-30.25,6.0,56.0,68.59406249999999,12.27,0.71739171875,32.075625
2021-07-08 15:15:50.187500000,-30.0,6.0,56.0,68.5925,11.75,0.7174317499999999,32.075
2021-07-08 15:15:50.195312500,-30.25,6.0,56.0,68.5909375,11.219999999999999,0.71747178125,32.074375
2021-07-08 15:15:50.203125000,-30.5,6.0,56.0,68.589375,10.69,0.7175118125,32.073750000000004
2021-07-08 15:15:50.210937500,-30.75,6.0,56.0,68.5878125,10.17,0.7175518437499999,32.073125
2021-07-08 15:15:50.218750000,-31.0,6.0,56.0,68.58624999999999,9.65,0.717591875,32.0725
2021-07-08 15:15:50.226562500,-31.0,6.0,56.0,68.5846875,9.16,0.71763190625,32.071875
2021-07-08 15:15:50.234375000,-31.0,6.0,56.0,68.583125,8.67,0.7176719374999999,32.07125
2021-07-08 15:15:50.242187500,-31.0,6.0,56.0,68.5815625,8.205,0.71771196875,32.070625
2021-07-08 15:15:50.250000000,-31.0,6.0,56.0,68.58,7.74,0.717752,32.07
2021-07-08 15:15:50.257812500,-31.0,6.0,56.0,68.57843749999999,7.265000000000001,0.71771196875,32.07
2021-07-08 15:15:50.265625000,-31.0,6.0,56.0,68.576875,6.79,0.7176719374999999,32.07
2021-07-08 15:15:50.273437500,-31.0,6.0,56.0,68.5753125,6.27,0.71763190625,32.07
2021-07-08 15:15:50.281250000,-31.0,6.0,56.0,68.57375,5.75,0.717591875,32.07
2021-07-08 15:15:50.289062500,-31.0,6.0,56.0,68.5721875,5.125,0.7175518437499999,32.07
2021-07-08 15:15:50.296875000,-31.0,6.0,56.0,68.57062499999999,4.5,0.7175118125,32.07
2021-07-08 15:15:50.304687500,-31.0,6.0,56.0,68.5690625,3.715,0.71747178125,32.07
2021-07-08 15:15:50.312500000,-31.0,6.0,56.0,68.5675,2.93,0.7174317499999999,32.07
2021-07-08 15:15:50.320312500,-30.75,6.0,56.0,68.5659375,1.98,0.71739171875,32.07
2021-07-08 15:15:50.328125000,-30.5,6.0,56.0,68.564375,1.03,0.7173516875,32.07
2021-07-08 15:15:50.335937500,-30.25,6.0,56.0,68.56281249999999,-0.03499999999999992,0.7173116562499999,32.07
2021-07-08 15:15:50.343750000,-30.0,6.0,56.0,68.56125,-1.1,0.717271625,32.07
2021-07-08 15:15:50.351562500,-30.25,6.0,56.0,68.5596875,-2.165,0.71723159375,32.07
2021-07-08 15:15:50.359375000,-30.5,6.0,56.0,68.558125,-3.23,0.7171915624999999,32.07
2021-07-08 15:15:50.367187500,-30.75,6.0,56.0,68.5565625,-4.185,0.71715153125,32.07
2021-07-08 15:15:50.375000000,-31.0,6.0,56.0,68.555,-5.14,0.7171114999999999,32.07
2021-07-08 15:15:50.382812500,-31.0,5.75,56.0,68.5534375,-5.925,0.7170714687499999,32.07
2021-07-08 15:15:50.390625000,-31.0,5.5,56.0,68.551875,-6.71,0.7170314375,32.07
2021-07-08 15:15:50.398437500,-31.0,5.25,56.0,68.5503125,-7.345000000000001,0.7169914062499999,32.07
2021-07-08 15:15:50.406250000,-31.0,5.0,56.0,68.54875,-7.98,0.716951375,32.07
2021-07-08 15:15:50.414062500,-31.0,5.0,56.0,68.5471875,-8.555,0.71691134375,32.07
2021-07-08 15:15:50.421875000,-31.0,5.0,56.0,68.545625,-9.13,0.7168713124999999,32.07
2021-07-08 15:15:50.429687500,-31.0,5.0,56.0,68.5440625,-9.77,0.71683128125,32.07
2021-07-08 15:15:50.437500000,-31.0,5.0,56.0,68.5425,-10.41,0.71679125,32.07
2021-07-08 15:15:50.445312500,-31.0,5.25,56.0,68.5409375,-11.215,0.7167512187499999,32.07
2021-07-08 15:15:50.453125000,-31.0,5.5,56.0,68.539375,-12.02,0.7167111875,32.07
2021-07-08 15:15:50.460937500,-31.0,5.75,56.0,68.5378125,-13.07,0.71667115625,32.07
2021-07-08 15:15:50.468750000,-31.0,6.0,56.0,68.53625,-14.12,0.7166311249999999,32.07
2021-07-08 15:15:50.476562500,-31.0,5.75,56.0,68.5346875,-15.445,0.71659109375,32.07
2021-07-08 15:15:50.484375000,-31.0,5.5,56.0,68.533125,-16.77,0.7165510625,32.07
2021-07-08 15:15:50.492187500,-31.0,5.25,56.0,68.5315625,-18.345,0.7165110312499999,32.07
2021-07-08 15:15:50.500000000,-31.0,5.0,56.0,68.53,-19.92,0.716471,32.07
2021-07-08 15:15:50.507812500,-31.0,5.0,56.0,68.5284375,-21.71,0.71639090625,32.07
2021-07-08 15:15:50.515625000,-31.0,5.0,56.0,68.526875,-23.5,0.7163108125,32.07
2021-07-08 15:15:50.523437500,-31.0,5.0,56.0,68.5253125,-25.41,0.71623071875,32.07
2021-07-08 15:15:50.531250000,-31.0,5.0,56.0,68.52375,-27.32,0.7161506249999999,32.07
2021-07-08 15:15:50.539062500,-31.0,5.25,56.0,68.5221875,-29.175,0.71607053125,32.07
2021-07-08 15:15:50.546875000,-31.0,5.5,56.0,68.520625,-31.03,0.7159904375,32.07
2021-07-08 15:15:50.554687500,-31.0,5.75,56.0,68.5190625,-32.555,0.71591034375,32.07
2021-07-08 15:15:50.562500000,-31.0,6.0,56.0,68.5175,-34.08,0.71583025,32.07
2021-07-08 15:15:50.570312500,-31.0,6.0,56.0,68.5159375,-34.955,0.7157501562499999,32.07
2021-07-08 15:15:50.578125000,-31.0,6.0,56.0,68.514375,-35.83,0.7156700625,32.07
2021-07-08 15:15:50.585937500,-31.0,6.0,56.0,68.5128125,-35.78,0.71558996875,32.07
2021-07-08 15:15:50.593750000,-31.0,6.0,56.0,68.51125,-35.73,0.715509875,32.07
2021-07-08 15:15:50.601562500,-31.0,6.0,56.0,68.5096875,-34.64,0.71542978125,32.07
2021-07-08 15:15:50.609375000,-31.0,6.0,56.0,68.508125,-33.55,0.7153496874999999,32.07
2021-07-08 15:15:50.617187500,-31.0,6.0,56.0,68.5065625,-31.515,0.71526959375,32.07
2021-07-08 15:15:50.625000000,-31.0,6.0,56.0,68.505,-29.48,0.7151894999999999,32.07
2021-07-08 15:15:50.632812500,-31.0,6.0,56.0,68.5034375,-26.77,0.71510940625,32.07
2021-07-08 15:15:50.640625000,-31.0,6.0,56.0,68.501875,-24.06,0.7150293125,32.07
2021-07-08 15:15:50.648437500,-31.0,6.0,56.0,68.5003125,-21.04,0.71494921875,32.07
2021-07-08 15:15:50.656250000,-31.0,6.0,56.0,68.49875,-18.02,0.714869125,32.07
2021-07-08 15:15:50.664062500,-31.0,5.75,56.0,68.49718750000001,-15.045,0.7147890312499999,32.07
2021-07-08 15:15:50.671875000,-31.0,5.5,56.0,68.495625,-12.07,0.7147089375,32.07
2021-07-08 15:15:50.679687500,-31.0,5.25,56.0,68.4940625,-9.375,0.71462884375,32.07
2021-07-08 15:15:50.687500000,-31.0,5.0,56.0,68.4925,-6.68,0.71454875,32.07
2021-07-08 15:15:50.695312500,-31.0,5.25,56.0,68.4909375,-4.375,0.71446865625,32.07
2021-07-08 15:15:50.703125000,-31.0,5.5,56.0,68.48937500000001,-2.07,0.7143885624999999,32.07
2021-07-08 15:15:50.710937500,-31.0,5.75,56.0,68.4878125,-0.17499999999999982,0.71430846875,32.07
2021-07-08 15:15:50.718750000,-31.0,6.0,56.0,68.48625,1.72,0.714228375,32.07
2021-07-08 15:15:50.726562500,-30.75,6.0,56.0,68.4846875,3.2700000000000005,0.71414828125,32.07
2021-07-08 15:15:50.734375000,-30.5,6.0,56.0,68.483125,4.82,0.7140681875,32.07
2021-07-08 15:15:50.742187500,-30.25,6.0,56.0,68.48156250000001,6.055,0.7139880937499999,32.07
2021-07-08 15:15:50.750000000,-30.0,6.0,56.0,68.48,7.29,0.713908,32.07
2021-07-08 15:15:50.757812500,-30.25,6.0,56.0,68.4784375,8.255,0.71414821875,32.07
2021-07-08 15:15:50.765625000,-30.5,6.0,56.0,68.476875,9.22,0.7143884375,32.07
2021-07-08 15:15:50.773437500,-30.75,6.0,56.0,68.4753125,9.945,0.7146286562499999,32.07
2021-07-08 15:15:50.781250000,-31.0,6.0,56.0,68.47375000000001,10.67,0.714868875,32.07
2021-07-08 15:15:50.789062500,-31.0,6.0,56.0,68.4721875,11.21,0.71510909375,32.07
2021-07-08 15:15:50.796875000,-31.0,6.0,56.0,68.470625,11.75,0.7153493125,32.07
2021-07-08 15:15:50.804687500,-31.0,6.0,56.0,68.4690625,12.17,0.71558953125,32.07
2021-07-08 15:15:50.812500000,-31.0,6.0,56.0,68.4675,12.59,0.7158297499999999,32.07
2021-07-08 15:15:50.820312500,-31.0,6.0,56.0,68.46593750000001,12.965,0.71606996875,32.07
2021-07-08 15:15:50.828125000,-31.0,6.0,56.0,68.464375,13.34,0.7163101875,32.07
2021-07-08 15:15:50.835937500,-31.0,6.0,56.0,68.4628125,13.719999999999999,0.71655040625,32.07
2021-07-08 15:15:50.843750000,-31.0,6.0,56.0,68.46125,14.1,0.716790625,32.07
2021-07-08 15:15:50.851562500,-31.0,6.0,56.0,68.4596875,14.495000000000001,0.71703084375,32.07
2021-07-08 15:15:50.859375000,-31.0,6.0,56.0,68.45812500000001,14.89,0.7172710625,32.07
2021-07-08 15:15:50.867187500,-31.0,6.0,56.0,68.4565625,15.275,0.71751128125,32.07
2021-07-08 15:15:50.875000000,-31.0,6.0,56.0,68.45500000000001,15.66,0.7177515,32.07
2021-07-08 15:15:50.882812500,-30.75,6.0,56.0,68.4534375,15.965,0.71799171875,32.07
2021-07-08 15:15:50.890625000,-30.5,6.0,56.0,68.451875,16.27,0.7182319375,32.07
2021-07-08 15:15:50.898437500,-30.25,6.0,56.0,68.45031250000001,16.435000000000002,0.7184721562499999,32.07
2021-07-08 15:15:50.906250000,-30.0,6.0,56.0,68.44875,16.6,0.718712375,32.07
2021-07-08 15:15:50.914062500,-30.0,6.0,56.0,68.44718750000001,16.595,0.71895259375,32.07
2021-07-08 15:15:50.921875000,-30.0,6.0,56.0,68.445625,16.59,0.7191928125,32.07
2021-07-08 15:15:50.929687500,-30.0,6.0,56.0,68.4440625,16.415,0.71943303125,32.07
2021-07-08 15:15:50.937500000,-30.0,6.0,56.0,68.44250000000001,16.24,0.71967325,32.07
2021-07-08 15:15:50.945312500,-30.25,6.0,56.0,68.4409375,15.954999999999998,0.71991346875,32.07
2021-07-08 15:15:50.953125000,-30.5,6.0,56.0,68.43937500000001,15.67,0.7201536875,32.07
2021-07-08 15:15:50.960937500,-30.75,6.0,56.0,68.4378125,15.375,0.72039390625,32.07
2021-07-08 15:15:50.968750000,-31.0,6.0,56.0,68.43625,15.08,0.720634125,32.07
2021-07-08 15:15:50.976562500,-31.0,6.0,56.0,68.43468750000001,14.85,0.72087434375,32.07
2021-07-08 15:15:50.984375000,-31.0,6.0,56.0,68.433125,14.62,0.7211145625,32.07
2021-07-08 15:15:50.992187500,-31.0,6.0,56.0,68.43156250000001,14.489999999999998,0.72135478125,32.07
2021-07-08 15:15:51.000000000,-31.0,6.0,56.0,68.43,14.36,0.721595,32.07
2021-07-08 15:15:51.007812500,-30.75,6.0,56.0,68.429140625,14.3,0.72135478125,32.070625
2021-07-08 15:15:51.015625000,-30.5,6.0,56.0,68.42828125000001,14.24,0.7211145625,32.07125
2021-07-08 15:15:51.023437500,-30.25,6.0,56.0,68.42742187500001,14.15,0.72087434375,32.071875
2021-07-08 15:15:51.031250000,-30.0,6.0,56.0,68.4265625,14.06,0.720634125,32.0725
2021-07-08 15:15:51.039062500,-30.25,6.0,56.0,68.42570312500001,13.8,0.72039390625,32.073125
2021-07-08 15:15:51.046875000,-30.5,6.0,56.0,68.42484375000001,13.54,0.7201536875,32.073750000000004
2021-07-08 15:15:51.054687500,-30.75,6.0,56.0,68.423984375,12.989999999999998,0.71991346875,32.074375
2021-07-08 15:15:51.062500000,-31.0,6.0,56.0,68.423125,12.44,0.71967325,32.075
2021-07-08 15:15:51.070312500,-31.0,6.0,56.0,68.42226562500001,11.555,0.71943303125,32.075625
2021-07-08 15:15:51.078125000,-31.0,6.0,56.0,68.42140625,10.67,0.7191928125,32.07625
2021-07-08 15:15:51.085937500,-31.0,6.0,56.0,68.420546875,9.51,0.71895259375,32.076875
2021-07-08 15:15:51.093750000,-31.0,6.0,56.0,68.41968750000001,8.35,0.718712375,32.0775
2021-07-08 15:15:51.101562500,-30.75,6.0,56.0,68.418828125,7.05,0.7184721562499999,32.078125
2021-07-08 15:15:51.109375000,-30.5,6.0,56.0,68.41796875,5.75,0.7182319375,32.07875
2021-07-08 15:15:51.117187500,-30.25,6.0,56.0,68.41710937500001,4.48,0.71799171875,32.079375
2021-07-08 15:15:51.125000000,-30.0,6.0,56.0,68.41625,3.21,0.7177515,32.08
2021-07-08 15:15:51.132812500,-30.0,6.0,56.0,68.415390625,2.08,0.71751128125,32.080625000000005
2021-07-08 15:15:51.140625000,-30.0,6.0,56.0,68.41453125000001,0.95,0.7172710625,32.081250000000004
2021-07-08 15:15:51.148437500,-30.0,6.0,56.0,68.413671875,0.0050000000000000044,0.71703084375,32.081875000000004
2021-07-08 15:15:51.156250000,-30.0,6.0,56.0,68.4128125,-0.94,0.716790625,32.0825
2021-07-08 15:15:51.164062500,-30.0,5.75,56.0,68.41195312500001,-1.765,0.71655040625,32.083125
2021-07-08 15:15:51.171875000,-30.0,5.5,56.0,68.41109375,-2.59,0.7163101875,32.08375
2021-07-08 15:15:51.179687500,-30.0,5.25,56.0,68.410234375,-3.385,0.71606996875,32.084375
2021-07-08 15:15:51.187500000,-30.0,5.0,56.0,68.40937500000001,-4.18,0.7158297499999999,32.085
2021-07-08 15:15:51.195312500,-30.25,5.25,56.0,68.408515625,-5.045,0.71558953125,32.085625
2021-07-08 15:15:51.203125000,-30.5,5.5,56.0,68.40765625,-5.91,0.7153493125,32.08625
2021-07-08 15:15:51.210937500,-30.75,5.75,56.0,68.406796875,-6.865,0.71510909375,32.086875000000006
2021-07-08 15:15:51.218750000,-31.0,6.0,56.0,68.40593750000001,-7.82,0.714868875,32.087500000000006
2021-07-08 15:15:51.226562500,-31.0,6.0,56.0,68.405078125,-8.850000000000001,0.7146286562499999,32.088125000000005
2021-07-08 15:15:51.234375000,-31.0,6.0,56.0,68.40421875,-9.88,0.7143884375,32.088750000000005
2021-07-08 15:15:51.242187500,-31.0,6.0,56.0,68.40335937500001,-10.915,0.71414821875,32.089375000000004
2021-07-08 15:15:51.250000000,-31.0,6.0,56.0,68.4025,-11.95,0.713908,32.09
2021-07-08 15:15:51.257812500,-31.0,6.0,56.0,68.401640625,-12.969999999999999,0.7139880937499999,32.09
2021-07-08 15:15:51.265625000,-31.0,6.0,56.0,68.40078125000001,-13.99,0.7140681875,32.09
2021-07-08 15:15:51.273437500,-31.0,6.0,56.0,68.399921875,-15.030000000000001,0.71414828125,32.09
2021-07-08 15:15:51.281250000,-31.0,6.0,56.0,68.3990625,-16.07,0.714228375,32.09
2021-07-08 15:15:51.289062500,-30.75,6.0,56.0,68.39820312500001,-17.225,0.71430846875,32.09
2021-07-08 15:15:51.296875000,-30.5,6.0,56.0,68.39734375,-18.38,0.7143885624999999,32.09
2021-07-08 15:15:51.304687500,-30.25,6.0,56.0,68.396484375,-19.775,0.71446865625,32.09
2021-07-08 15:15:51.312500000,-30.0,6.0,56.0,68.395625,-21.17,0.71454875,32.09
2021-07-08 15:15:51.320312500,-30.0,6.0,56.0,68.394765625,-22.86,0.71462884375,32.09
2021-07-08 15:15:51.328125000,-30.0,6.0,56.0,68.39390625,-24.55,0.7147089375,32.09
2021-07-08 15:15:51.335937500,-30.0,6.0,56.0,68.393046875,-26.515,0.7147890312499999,32.09
2021-07-08 15:15:51.343750000,-30.0,6.0,56.0,68.3921875,-28.48,0.714869125,32.09
2021-07-08 15:15:51.351562500,-30.25,5.75,56.0,68.391328125,-30.57,0.71494921875,32.09
2021-07-08 15:15:51.359375000,-30.5,5.5,56.0,68.39046875,-32.66,0.7150293125,32.09
2021-07-08 15:15:51.367187500,-30.75,5.25,56.0,68.389609375,-34.61,0.71510940625,32.09
2021-07-08 15:15:51.375000000,-31.0,5.0,56.0,68.38875,-36.56,0.7151894999999999,32.09
2021-07-08 15:15:51.382812500,-30.75,5.25,56.0,68.387890625,-38.065,0.71526959375,32.09
2021-07-08 15:15:51.390625000,-30.5,5.5,56.0,68.38703125,-39.57,0.7153496874999999,32.09
2021-07-08 15:15:51.398437500,-30.25,5.75,56.0,68.386171875,-40.33,0.71542978125,32.09
2021-07-08 15:15:51.406250000,-30.0,6.0,56.0,68.3853125,-41.09,0.715509875,32.09
2021-07-08 15:15:51.414062500,-30.25,6.0,56.0,68.38445312500001,-40.900000000000006,0.71558996875,32.09
2021-07-08 15:15:51.421875000,-30.5,6.0,56.0,68.38359375,-40.71,0.7156700625,32.09
2021-07-08 15:15:51.429687500,-30.75,6.0,56.0,68.382734375,-39.5,0.7157501562499999,32.09
2021-07-08 15:15:51.437500000,-31.0,6.0,56.0,68.38187500000001,-38.29,0.71583025,32.09
2021-07-08 15:15:51.445312500,-31.0,6.0,56.0,68.381015625,-36.15,0.71591034375,32.09
2021-07-08 15:15:51.453125000,-31.0,6.0,56.0,68.38015625,-34.01,0.7159904375,32.09
2021-07-08 15:15:51.460937500,-31.0,6.0,56.0,68.379296875,-31.145,0.71607053125,32.09
2021-07-08 15:15:51.468750000,-31.0,6.0,56.0,68.3784375,-28.28,0.7161506249999999,32.09
2021-07-08 15:15:51.476562500,-31.0,5.75,56.0,68.377578125,-24.985,0.71623071875,32.09
2021-07-08 15:15:51.484375000,-31.0,5.5,56.0,68.37671875,-21.69,0.7163108125,32.09
2021-07-08 15:15:51.492187500,-31.0,5.25,56.0,68.375859375,-18.295,0.71639090625,32.09
2021-07-08 15:15:51.500000000,-31.0,5.0,56.0,68.375,-14.9,0.716471,32.09
2021-07-08 15:15:51.507812500,-31.0,5.25,56.0,68.374140625,-11.705,0.7163508749999999,32.09
2021-07-08 15:15:51.515625000,-31.0,5.5,56.0,68.37328125,-8.51,0.71623075,32.09
2021-07-08 15:15:51.523437500,-31.0,5.75,56.0,68.372421875,-5.715,0.716110625,32.09
2021-07-08 15:15:51.531250000,-31.0,6.0,56.0,68.3715625,-2.92,0.7159905,32.09
2021-07-08 15:15:51.539062500,-30.75,6.0,56.0,68.370703125,-0.5949999999999998,0.715870375,32.09
2021-07-08 15:15:51.546875000,-30.5,6.0,56.0,68.36984375,1.73,0.7157502499999999,32.09
2021-07-08 15:15:51.554687500,-30.25,6.0,56.0,68.368984375,3.6399999999999997,0.715630125,32.09
2021-07-08 15:15:51.562500000,-30.0,6.0,56.0,68.36812499999999,5.55,0.71551,32.09
2021-07-08 15:15:51.570312500,-30.25,6.0,56.0,68.367265625,7.175000000000001,0.715389875,32.09
2021-07-08 15:15:51.578125000,-30.5,6.0,56.0,68.36640625,8.8,0.71526975,32.09
2021-07-08 15:15:51.585937500,-30.75,6.0,56.0,68.36554687499999,10.280000000000001,0.715149625,32.09
2021-07-08 15:15:51.593750000,-31.0,6.0,56.0,68.3646875,11.76,0.7150295,32.09
2021-07-08 15:15:51.601562500,-30.75,6.0,56.0,68.363828125,13.17,0.714909375,32.09
2021-07-08 15:15:51.609375000,-30.5,6.0,56.0,68.36296875,14.58,0.7147892499999999,32.09
2021-07-08 15:15:51.617187500,-30.25,6.0,56.0,68.362109375,15.885000000000002,0.714669125,32.09
2021-07-08 15:15:51.625000000,-30.0,6.0,56.0,68.36125,17.19,0.714549,32.09
2021-07-08 15:15:51.632812500,-30.25,6.0,56.0,68.360390625,18.28,0.714428875,32.09
2021-07-08 15:15:51.640625000,-30.5,6.0,56.0,68.35953125,19.37,0.71430875,32.09
2021-07-08 15:15:51.648437500,-30.75,6.0,56.0,68.358671875,20.134999999999998,0.714188625,32.09
2021-07-08 15:15:51.656250000,-31.0,6.0,56.0,68.3578125,20.9,0.7140685,32.09
2021-07-08 15:15:51.664062500,-30.75,6.0,56.0,68.356953125,21.295,0.713948375,32.09
2021-07-08 15:15:51.671875000,-30.5,6.0,56.0,68.35609375,21.69,0.7138282499999999,32.09
2021-07-08 15:15:51.679687500,-30.25,6.0,56.0,68.355234375,21.785,0.713708125,32.09
2021-07-08 15:15:51.687500000,-30.0,6.0,56.0,68.354375,21.88,0.713588,32.09
2021-07-08 15:15:51.695312500,-30.0,6.0,56.0,68.353515625,21.825,0.713467875,32.09
2021-07-08 15:15:51.703125000,-30.0,6.0,56.0,68.35265625,21.77,0.7133477500000001,32.09
2021-07-08 15:15:51.710937500,-30.0,6.0,56.0,68.35179687499999,21.735,0.713227625,32.09
2021-07-08 15:15:51.718750000,-30.0,6.0,56.0,68.3509375,21.7,0.7131075,32.09
2021-07-08 15:15:51.726562500,-30.0,6.0,56.0,68.350078125,21.799999999999997,0.712987375,32.09
2021-07-08 15:15:51.734375000,-30.0,6.0,56.0,68.34921874999999,21.9,0.71286725,32.09
2021-07-08 15:15:51.742187500,-30.0,6.0,56.0,68.348359375,22.145,0.712747125,32.09
2021-07-08 15:15:51.750000000,-30.0,6.0,56.0,68.3475,22.39,0.712627,32.09
2021-07-08 15:15:51.757812500,-30.0,6.0,56.0,68.34664062499999,22.685000000000002,0.71278715625,32.09
2021-07-08 15:15:51.765625000,-30.0,6.0,56.0,68.34578125,22.98,0.7129473125,32.09
2021-07-08 15:15:51.773437500,-30.0,6.0,56.0,68.344921875,23.200000000000003,0.71310746875,32.09
2021-07-08 15:15:51.781250000,-30.0,6.0,56.0,68.34406249999999,23.42,0.713267625,32.09
2021-07-08 15:15:51.789062500,-30.25,6.0,56.0,68.343203125,23.47,0.71342778125,32.09
2021-07-08 15:15:51.796875000,-30.5,6.0,56.0,68.34234375,23.52,0.7135879375,32.09
2021-07-08 15:15:51.804687500,-30.75,6.0,56.0,68.341484375,23.36,0.71374809375,32.09
2021-07-08 15:15:51.812500000,-31.0,6.0,56.0,68.34062499999999,23.2,0.71390825,32.09
2021-07-08 15:15:51.820312500,-31.0,6.0,56.0,68.339765625,22.835,0.71406840625,32.09
2021-07-08 15:15:51.828125000,-31.0,6.0,56.0,68.33890625,22.47,0.7142285625,32.09
2021-07-08 15:15:51.835937500,-31.0,6.0,56.0,68.33804687499999,21.93,0.71438871875,32.09
2021-07-08 15:15:51.843750000,-31.0,6.0,56.0,68.3371875,21.39,0.714548875,32.09
2021-07-08 15:15:51.851562500,-30.75,6.0,56.0,68.336328125,20.68,0.71470903125,32.09
2021-07-08 15:15:51.859375000,-30.5,6.0,56.0,68.33546874999999,19.97,0.7148691875,32.09
2021-07-08 15:15:51.867187500,-30.25,6.0,56.0,68.334609375,19.1,0.7150293437499999,32.09
2021-07-08 15:15:51.875000000,-30.0,6.0,56.0,68.33375,18.23,0.7151894999999999,32.09
2021-07-08 15:15:51.882812500,-30.0,6.0,56.0,68.33289062499999,17.21,0.71534965625,32.09
2021-07-08 15:15:51.890625000,-30.0,6.0,56.0,68.33203125,16.19,0.7155098125,32.09
2021-07-08 15:15:51.898437500,-30.0,6.0,56.0,68.331171875,15.05,0.71566996875,32.09
2021-07-08 15:15:51.906250000,-30.0,6.0,56.0,68.33031249999999,13.91,0.715830125,32.09
2021-07-08 15:15:51.914062500,-30.25,5.75,56.0,68.329453125,12.73,0.71599028125,32.09
2021-07-08 15:15:51.921875000,-30.5,5.5,56.0,68.32859375,11.55,0.7161504375,32.09
2021-07-08 15:15:51.929687500,-30.75,5.25,56.0,68.32773437499999,10.435,0.71631059375,32.09
2021-07-08 15:15:51.937500000,-31.0,5.0,56.0,68.326875,9.32,0.7164707499999999,32.09
2021-07-08 15:15:51.945312500,-31.0,5.25,56.0,68.326015625,8.365,0.7166309062499999,32.09
2021-07-08 15:15:51.953125000,-31.0,5.5,56.0,68.32515624999999,7.41,0.7167910624999999,32.09
2021-07-08 15:15:51.960937500,-31.0,5.75,56.0,68.32429687499999,6.65,0.71695121875,32.09
2021-07-08 15:15:51.968750000,-31.0,6.0,56.0,68.3234375,5.89,0.717111375,32.09
2021-07-08 15:15:51.976562500,-30.75,6.0,56.0,68.32257812499999,5.285,0.71727153125,32.09
2021-07-08 15:15:51.984375000,-30.5,6.0,56.0,68.32171874999999,4.68,0.7174316875,32.09
2021-07-08 15:15:51.992187500,-30.25,6.0,56.0,68.320859375,4.13,0.71759184375,32.09
2021-07-08 15:15:52.000000000,-30.0,6.0,56.0,68.32,3.58,0.717752,32.09
2021-07-08 15:15:52.007812500,-30.0,5.75,56.0,68.31921874999999,2.94,0.7176318749999999,32.09
2021-07-08 15:15:52.015625000,-30.0,5.5,56.0,68.31843749999999,2.3,0.7175117499999999,32.09
2021-07-08 15:15:52.023437500,-30.0,5.25,56.0,68.31765625,1.47,0.717391625,32.09
2021-07-08 15:15:52.031250000,-30.0,5.0,56.0,68.316875,0.64,0.7172715,32.09
2021-07-08 15:15:52.039062500,-30.0,5.25,56.0,68.31609375,-0.42499999999999993,0.7171513749999999,32.09
2021-07-08 15:15:52.046875000,-30.0,5.5,56.0,68.31531249999999,-1.49,0.71703125,32.09
2021-07-08 15:15:52.054687500,-30.0,5.75,56.0,68.31453124999999,-2.74,0.716911125,32.09
2021-07-08 15:15:52.062500000,-30.0,6.0,56.0,68.31375,-3.99,0.716791,32.09
2021-07-08 15:15:52.070312500,-30.25,6.0,56.0,68.31296875,-5.325,0.7166708749999999,32.09
2021-07-08 15:15:52.078125000,-30.5,6.0,56.0,68.3121875,-6.66,0.7165507499999999,32.09
2021-07-08 15:15:52.085937500,-30.75,6.0,56.0,68.31140624999999,-7.93,0.716430625,32.09
2021-07-08 15:15:52.093750000,-31.0,6.0,56.0,68.31062499999999,-9.2,0.7163105,32.09
2021-07-08 15:15:52.101562500,-31.0,6.0,56.0,68.30984375,-10.335,0.7161903749999999,32.09
2021-07-08 15:15:52.109375000,-31.0,6.0,56.0,68.3090625,-11.47,0.71607025,32.09
2021-07-08 15:15:52.117187500,-31.0,6.0,56.0,68.30828125,-12.475000000000001,0.715950125,32.09
2021-07-08 15:15:52.125000000,-31.0,6.0,56.0,68.30749999999999,-13.48,0.71583,32.09
2021-07-08 15:15:52.132812500,-30.75,6.0,56.0,68.30671874999999,-14.48,0.7157098749999999,32.09
2021-07-08 15:15:52.140625000,-30.5,6.0,56.0,68.3059375,-15.48,0.7155897499999999,32.09
2021-07-08 15:15:52.148437500,-30.25,6.0,56.0,68.30515625,-16.67,0.715469625,32.09
2021-07-08 15:15:52.156250000,-30.0,6.0,56.0,68.304375,-17.86,0.7153495,32.09
2021-07-08 15:15:52.164062500,-30.0,6.0,56.0,68.30359374999999,-19.4,0.715229375,32.09
2021-07-08 15:15:52.171875000,-30.0,6.0,56.0,68.30281249999999,-20.94,0.71510925,32.09
2021-07-08 15:15:52.179687500,-30.0,6.0,56.0,68.30203125,-22.880000000000003,0.714989125,32.09
2021-07-08 15:15:52.187500000,-30.0,6.0,56.0,68.30125,-24.82,0.714869,32.09
2021-07-08 15:15:52.195312500,-30.0,6.0,56.0,68.30046875,-27.03,0.714748875,32.09
2021-07-08 15:15:52.203125000,-30.0,6.0,56.0,68.29968749999999,-29.24,0.7146287499999999,32.09
2021-07-08 15:15:52.210937500,-30.0,6.0,56.0,68.29890624999999,-31.4,0.714508625,32.09
2021-07-08 15:15:52.218750000,-30.0,6.0,56.0,68.298125,-33.56,0.7143885,32.09
2021-07-08 15:15:52.226562500,-30.25,5.75,56.0,68.29734375,-35.265,0.714268375,32.09
2021-07-08 15:15:52.234375000,-30.5,5.5,56.0,68.2965625,-36.97,0.71414825,32.09
2021-07-08 15:15:52.242187500,-30.75,5.25,56.0,68.29578124999999,-37.805,0.714028125,32.09
2021-07-08 15:15:52.250000000,-31.0,5.0,56.0,68.29499999999999,-38.64,0.713908,32.09
2021-07-08 15:15:52.257812500,-31.0,5.25,56.0,68.29421875,-38.34,0.7139480625,32.09
2021-07-08 15:15:52.265625000,-31.0,5.5,56.0,68.2934375,-38.04,0.713988125,32.09
2021-07-08 15:15:52.273437500,-31.0,5.75,56.0,68.29265625,-36.545,0.7140281875,32.09
2021-07-08 15:15:52.281250000,-31.0,6.0,56.0,68.29187499999999,-35.05,0.71406825,32.09
2021-07-08 15:15:52.289062500,-31.0,6.0,56.0,68.29109375,-32.55,0.7141083125,32.09
2021-07-08 15:15:52.296875000,-31.0,6.0,56.0,68.2903125,-30.05,0.714148375,32.09
2021-07-08 15:15:52.304687500,-31.0,6.0,56.0,68.28953125,-26.875,0.7141884374999999,32.09
2021-07-08 15:15:52.312500000,-31.0,6.0,56.0,68.28875,-23.7,0.7142284999999999,32.09
2021-07-08 15:15:52.320312500,-31.0,6.0,56.0,68.28796874999999,-20.255,0.7142685625,32.09
2021-07-08 15:15:52.328125000,-31.0,6.0,56.0,68.2871875,-16.81,0.714308625,32.09
2021-07-08 15:15:52.335937500,-31.0,6.0,56.0,68.28640625,-13.469999999999999,0.7143486875,32.09
2021-07-08 15:15:52.343750000,-31.0,6.0,56.0,68.285625,-10.13,0.71438875,32.09
2021-07-08 15:15:52.351562500,-30.75,6.0,56.0,68.28484375,-7.1450000000000005,0.7144288125,32.09
2021-07-08 15:15:52.359375000,-30.5,6.0,56.0,68.28406249999999,-4.16,0.714468875,32.09
2021-07-08 15:15:52.367187500,-30.25,6.0,56.0,68.28328125,-1.6550000000000002,0.7145089375,32.09
2021-07-08 15:15:52.375000000,-30.0,6.0,56.0,68.2825,0.85,0.714549,32.09
2021-07-08 15:15:52.382812500,-30.25,6.0,56.0,68.28171875,2.89,0.7145890625,32.09
2021-07-08 15:15:52.390625000,-30.5,6.0,56.0,68.2809375,4.93,0.714629125,32.09
2021-07-08 15:15:52.398437500,-30.75,6.0,56.0,68.28015624999999,6.575,0.7146691875,32.09
2021-07-08 15:15:52.406250000,-31.0,6.0,56.0,68.279375,8.22,0.71470925,32.09
2021-07-08 15:15:52.414062500,-31.0,6.0,56.0,68.27859375,9.61,0.7147493125,32.09
2021-07-08 15:15:52.421875000,-31.0,6.0,56.0,68.2778125,11.0,0.714789375,32.09
2021-07-08 15:15:52.429687500,-31.0,6.0,56.0,68.27703125,12.23,0.7148294374999999,32.09
2021-07-08 15:15:52.437500000,-31.0,6.0,56.0,68.27624999999999,13.46,0.7148695,32.09
2021-07-08 15:15:52.445312500,-31.0,5.75,56.0,68.27546875,14.600000000000001,0.7149095625,32.09
2021-07-08 15:15:52.453125000,-31.0,5.5,56.0,68.2746875,15.74,0.714949625,32.09
2021-07-08 15:15:52.460937500,-31.0,5.25,56.0,68.27390625,16.79,0.7149896875,32.09
2021-07-08 15:15:52.468750000,-31.0,5.0,56.0,68.273125,17.84,0.71502975,32.09
2021-07-08 15:15:52.476562500,-31.0,5.25,56.0,68.27234374999999,18.744999999999997,0.7150698125,32.09
2021-07-08 15:15:52.484375000,-31.0,5.5,56.0,68.2715625,19.65,0.715109875,32.09
2021-07-08 15:15:52.492187500,-31.0,5.75,56.0,68.27078125,20.345,0.7151499375,32.09
2021-07-08 15:15:52.500000000,-31.0,6.0,56.0,68.27,21.04,0.71519,32.09
2021-07-08 15:15:52.507812500,-31.0,6.0,56.0,68.26921875,21.494999999999997,0.7151499375,32.09
2021-07-08 15:15:52.515625000,-31.0,6.0,56.0,68.26843749999999,21.95,0.715109875,32.09
2021-07-08 15:15:52.523437500,-31.0,6.0,56.0,68.26765625,22.205,0.7150698125,32.09
2021-07-08 15:15:52.531250000,-31.0,6.0,56.0,68.266875,22.46,0.71502975,32.09
2021-07-08 15:15:52.539062500,-31.0,6.0,56.0,68.26609375,22.61,0.7149896875,32.09
2021-07-08 15:15:52.546875000,-31.0,6.0,56.0,68.2653125,22.76,0.714949625,32.09
2021-07-08 15:15:52.554687500,-31.0,6.0,56.0,68.26453124999999,22.945,0.7149095625,32.09
2021-07-08 15:15:52.562500000,-31.0,6.0,56.0,68.26375,23.13,0.7148695,32.09
2021-07-08 15:15:52.570312500,-31.0,6.0,56.0,68.26296875,23.424999999999997,0.7148294374999999,32.09
2021-07-08 15:15:52.578125000,-31.0,6.0,56.0,68.2621875,23.72,0.714789375,32.09
2021-07-08 15:15:52.585937500,-31.0,6.0,56.0,68.26140625,24.13,0.7147493125,32.09
2021-07-08 15:15:52.593750000,-31.0,6.0,56.0,68.26062499999999,24.54,0.71470925,32.09
2021-07-08 15:15:52.601562500,-30.75,5.75,56.0,68.25984375,24.96,0.7146691875,32.09
2021-07-08 15:15:52.609375000,-30.5,5.5,56.0,68.2590625,25.38,0.714629125,32.09
2021-07-08 15:15:52.617187500,-30.25,5.25,56.0,68.25828125,25.68,0.7145890625,32.09
2021-07-08 15:15:52.625000000,-30.0,5.0,56.0,68.2575,25.98,0.714549,32.09
2021-07-08 15:15:52.632812500,-30.25,5.25,56.0,68.25671874999999,26.08,0.7145089375,32.09
2021-07-08 15:15:52.640625000,-30.5,5.5,56.0,68.2559375,26.18,0.714468875,32.09
2021-07-08 15:15:52.648437500,-30.75,5.75,56.0,68.25515625,26.085,0.7144288125,32.09
2021-07-08 15:15:52.656250000,-31.0,6.0,56.0,68.254375,25.99,0.71438875,32.09
2021-07-08 15:15:52.664062500,-30.75,6.0,56.0,68.25359375,25.775,0.7143486875,32.09
2021-07-08 15:15:52.671875000,-30.5,6.0,56.0,68.25281249999999,25.56,0.714308625,32.09
2021-07-08 15:15:52.679687500,-30.25,6.0,56.0,68.25203125,25.325,0.7142685625,32.09
2021-07-08 15:15:52.687500000,-30.0,6.0,56.0,68.25125,25.09,0.7142284999999999,32.09
2021-07-08 15:15:52.695312500,-30.25,6.0,56.0,68.25046875,24.865000000000002,0.7141884374999999,32.09
2021-07-08 15:15:52.703125000,-30.5,6.0,56.0,68.2496875,24.64,0.714148375,32.09
2021-07-08 15:15:52.710937500,-30.75,6.0,56.0,68.24890624999999,24.365000000000002,0.7141083125,32.09
2021-07-08 15:15:52.718750000,-31.0,6.0,56.0,68.248125,24.09,0.71406825,32.09
2021-07-08 15:15:52.726562500,-31.0,5.75,56.0,68.24734375,23.625,0.7140281875,32.09
2021-07-08 15:15:52.734375000,-31.0,5.5,56.0,68.2465625,23.16,0.713988125,32.09
2021-07-08 15:15:52.742187500,-31.0,5.25,56.0,68.24578125,22.35,0.7139480625,32.09
2021-07-08 15:15:52.750000000,-31.0,5.0,56.0,68.245,21.54,0.713908,32.09
2021-07-08 15:15:52.757812500,-31.0,5.25,56.0,68.24421875,20.345,0.713908,32.09
2021-07-08 15:15:52.765625000,-31.0,5.5,56.0,68.2434375,19.15,0.713908,32.09
2021-07-08 15:15:52.773437500,-31.0,5.75,56.0,68.24265625,17.67,0.713908,32.09
2021-07-08 15:15:52.781250000,-31.0,6.0,56.0,68.241875,16.19,0.713908,32.09
2021-07-08 15:15:52.789062500,-31.0,5.75,56.0,68.24109375,14.655000000000001,0.713908,32.09
2021-07-08 15:15:52.796875000,-31.0,5.5,56.0,68.2403125,13.12,0.713908,32.09
2021-07-08 15:15:52.804687500,-31.0,5.25,56.0,68.23953125,11.78,0.713908,32.09
2021-07-08 15:15:52.812500000,-31.0,5.0,56.0,68.23875,10.44,0.713908,32.09
2021-07-08 15:15:52.820312500,-31.0,5.0,56.0,68.23796875,9.46,0.713908,32.09
2021-07-08 15:15:52.828125000,-31.0,5.0,56.0,68.2371875,8.48,0.713908,32.09
2021-07-08 15:15:52.835937500,-31.0,5.0,56.0,68.23640625,7.83,0.713908,32.09
2021-07-08 15:15:52.843750000,-31.0,5.0,56.0,68.235625,7.18,0.713908,32.09
2021-07-08 15:15:52.851562500,-31.0,5.25,56.0,68.23484375,6.699999999999999,0.713908,32.09
2021-07-08 15:15:52.859375000,-31.0,5.5,56.0,68.2340625,6.22,0.713908,32.09
2021-07-08 15:15:52.867187500,-31.0,5.75,56.0,68.23328125,5.67,0.713908,32.09
2021-07-08 15:15:52.875000000,-31.0,6.0,56.0,68.2325,5.12,0.713908,32.09
2021-07-08 15:15:52.882812500,-31.0,6.0,56.0,68.23171875,4.355,0.713908,32.09
2021-07-08 15:15:52.890625000,-31.0,6.0,56.0,68.2309375,3.59,0.713908,32.09
2021-07-08 15:15:52.898437500,-31.0,6.0,56.0,68.23015625,2.57,0.713908,32.09
2021-07-08 15:15:52.906250000,-31.0,6.0,56.0,68.229375,1.55,0.713908,32.09
2021-07-08 15:15:52.914062500,-31.0,6.0,56.0,68.22859375,0.3800000000000001,0.713908,32.09
2021-07-08 15:15:52.921875000,-31.0,6.0,56.0,68.2278125,-0.79,0.713908,32.09
2021-07-08 15:15:52.929687500,-31.0,6.0,56.0,68.22703125,-1.985,0.713908,32.09
2021-07-08 15:15:52.937500000,-31.0,6.0,56.0,68.22625,-3.18,0.713908,32.09
2021-07-08 15:15:52.945312500,-31.0,6.0,56.0,68.22546875,-4.3100000000000005,0.713908,32.09
2021-07-08 15:15:52.953125000,-31.0,6.0,56.0,68.2246875,-5.44,0.713908,32.09
2021-07-08 15:15:52.960937500,-31.0,6.0,56.0,68.22390625,-6.52,0.713908,32.09
2021-07-08 15:15:52.968750000,-31.0,6.0,56.0,68.223125,-7.6,0.713908,32.09
2021-07-08 15:15:52.976562500,-31.0,6.0,56.0,68.22234375,-8.66,0.713908,32.09
2021-07-08 15:15:52.984375000,-31.0,6.0,56.0,68.2215625,-9.72,0.713908,32.09
2021-07-08 15:15:52.992187500,-31.0,6.0,56.0,68.22078125,-10.835,0.713908,32.09
2021-07-08 15:15:53.000000000,-31.0,6.0,56.0,68.22,-11.95,0.713908,32.09
2021-07-08 15:15:53.007812500,-31.0,5.75,56.0,68.21906249999999,-13.145,0.7138279375,32.09
2021-07-08 15:15:53.015625000,-31.0,5.5,56.0,68.218125,-14.34,0.713747875,32.09
2021-07-08 15:15:53.023437500,-31.0,5.25,56.0,68.2171875,-15.61,0.7136678125,32.09
2021-07-08 15:15:53.031250000,-31.0,5.0,56.0,68.21625,-16.88,0.71358775,32.09
2021-07-08 15:15:53.039062500,-31.0,5.0,56.0,68.2153125,-18.215,0.7135076875,32.09
2021-07-08 15:15:53.046875000,-31.0,5.0,56.0,68.214375,-19.55,0.713427625,32.09
2021-07-08 15:15:53.054687500,-31.0,5.0,56.0,68.2134375,-20.915,0.7133475625,32.09
2021-07-08 15:15:53.062500000,-31.0,5.0,56.0,68.2125,-22.28,0.7132674999999999,32.09
2021-07-08 15:15:53.070312500,-31.0,5.25,56.0,68.2115625,-23.575000000000003,0.7131874375,32.09
2021-07-08 15:15:53.078125000,-31.0,5.5,56.0,68.210625,-24.87,0.713107375,32.09
2021-07-08 15:15:53.085937500,-31.0,5.75,56.0,68.2096875,-25.915,0.7130273125,32.09
2021-07-08 15:15:53.093750000,-31.0,6.0,56.0,68.20875,-26.96,0.71294725,32.09
2021-07-08 15:15:53.101562500,-31.0,6.0,56.0,68.2078125,-27.509999999999998,0.7128671875,32.09
2021-07-08 15:15:53.109375000,-31.0,6.0,56.0,68.206875,-28.06,0.712787125,32.09
2021-07-08 15:15:53.117187500,-31.0,6.0,56.0,68.2059375,-27.875,0.7127070625,32.09
2021-07-08 15:15:53.125000000,-31.0,6.0,56.0,68.205,-27.69,0.712627,32.09
2021-07-08 15:15:53.132812500,-31.0,5.75,56.0,68.20406249999999,-26.634999999999998,0.7125469375,32.09
2021-07-08 15:15:53.140625000,-31.0,5.5,56.0,68.203125,-25.58,0.712466875,32.09
2021-07-08 15:15:53.148437500,-31.0,5.25,56.0,68.2021875,-23.72,0.7123868125,32.09
2021-07-08 15:15:53.156250000,-31.0,5.0,56.0,68.20125,-21.86,0.71230675,32.09
2021-07-08 15:15:53.164062500,-31.0,5.25,56.0,68.2003125,-19.41,0.7122266875000001,32.09
2021-07-08 15:15:53.171875000,-31.0,5.5,56.0,68.199375,-16.96,0.712146625,32.09
2021-07-08 15:15:53.179687500,-31.0,5.75,56.0,68.1984375,-14.260000000000002,0.7120665625,32.09
2021-07-08 15:15:53.187500000,-31.0,6.0,56.0,68.19749999999999,-11.56,0.7119865000000001,32.09
2021-07-08 15:15:53.195312500,-31.0,6.0,56.0,68.1965625,-8.92,0.7119064375,32.09
2021-07-08 15:15:53.203125000,-31.0,6.0,56.0,68.19562499999999,-6.28,0.711826375,32.09
2021-07-08 15:15:53.210937500,-31.0,6.0,56.0,68.1946875,-3.93,0.7117463125,32.09
2021-07-08 15:15:53.218750000,-31.0,6.0,56.0,68.19375,-1.58,0.7116662500000001,32.09
2021-07-08 15:15:53.226562500,-31.0,6.0,56.0,68.1928125,0.375,0.7115861875,32.09
2021-07-08 15:15:53.234375000,-31.0,6.0,56.0,68.191875,2.33,0.711506125,32.09
2021-07-08 15:15:53.242187500,-31.0,6.0,56.0,68.1909375,3.875,0.7114260625000001,32.09
2021-07-08 15:15:53.250000000,-31.0,6.0,56.0,68.19,5.42,0.711346,32.09
2021-07-08 15:15:53.257812500,-31.0,6.0,56.0,68.18906249999999,6.609999999999999,0.71138603125,32.09
2021-07-08 15:15:53.265625000,-31.0,6.0,56.0,68.188125,7.8,0.7114260625000001,32.09
2021-07-08 15:15:53.273437500,-31.0,6.0,56.0,68.1871875,8.709999999999999,0.71146609375,32.09
2021-07-08 15:15:53.281250000,-31.0,6.0,56.0,68.18625,9.62,0.711506125,32.09
2021-07-08 15:15:53.289062500,-31.0,6.0,56.0,68.1853125,10.35,0.7115461562500001,32.09
2021-07-08 15:15:53.296875000,-31.0,6.0,56.0,68.184375,11.08,0.7115861875,32.09
2021-07-08 15:15:53.304687500,-31.0,6.0,56.0,68.1834375,11.705,0.71162621875,32.09
2021-07-08 15:15:53.312500000,-31.0,6.0,56.0,68.1825,12.33,0.7116662500000001,32.09
2021-07-08 15:15:53.320312500,-31.0,5.75,56.0,68.1815625,12.915,0.71170628125,32.09
2021-07-08 15:15:53.328125000,-31.0,5.5,56.0,68.18062499999999,13.5,0.7117463125,32.09
2021-07-08 15:15:53.335937500,-31.0,5.25,56.0,68.1796875,14.055,0.71178634375,32.09
2021-07-08 15:15:53.343750000,-31.0,5.0,56.0,68.17875,14.61,0.711826375,32.09
2021-07-08 15:15:53.351562500,-31.0,5.25,56.0,68.1778125,15.129999999999999,0.71186640625,32.09
2021-07-08 15:15:53.359375000,-31.0,5.5,56.0,68.176875,15.65,0.7119064375,32.09
2021-07-08 15:15:53.367187500,-31.0,5.75,56.0,68.1759375,16.115,0.71194646875,32.09
2021-07-08 15:15:53.375000000,-31.0,6.0,56.0,68.175,16.58,0.7119865000000001,32.09
2021-07-08 15:15:53.382812500,-31.0,6.0,56.0,68.17406249999999,17.0,0.71202653125,32.09
2021-07-08 15:15:53.390625000,-31.0,6.0,56.0,68.173125,17.42,0.7120665625,32.09
2021-07-08 15:15:53.398437500,-31.0,6.0,56.0,68.17218749999999,17.810000000000002,0.7121065937500001,32.09
2021-07-08 15:15:53.406250000,-31.0,6.0,56.0,68.17125,18.2,0.712146625,32.09
2021-07-08 15:15:53.414062500,-31.0,6.0,56.0,68.1703125,18.575,0.71218665625,32.09
2021-07-08 15:15:53.421875000,-31.0,6.0,56.0,68.169375,18.95,0.7122266875000001,32.09
2021-07-08 15:15:53.429687500,-31.0,6.0,56.0,68.1684375,19.295,0.71226671875,32.09
2021-07-08 15:15:53.437500000,-31.0,6.0,56.0,68.16749999999999,19.64,0.71230675,32.09
2021-07-08 15:15:53.445312500,-31.0,6.0,56.0,68.1665625,19.92,0.7123467812500001,32.09
2021-07-08 15:15:53.453125000,-31.0,6.0,56.0,68.16562499999999,20.2,0.7123868125,32.09
2021-07-08 15:15:53.460937500,-31.0,6.0,56.0,68.1646875,20.369999999999997,0.71242684375,32.09
2021-07-08 15:15:53.468750000,-31.0,6.0,56.0,68.16375,20.54,0.712466875,32.09
2021-07-08 15:15:53.476562500,-31.0,6.0,56.0,68.1628125,20.575,0.71250690625,32.09
2021-07-08 15:15:53.484375000,-31.0,6.0,56.0,68.161875,20.61,0.7125469375,32.09
2021-07-08 15:15:53.492187500,-31.0,6.0,56.0,68.1609375,20.549999999999997,0.71258696875,32.09
2021-07-08 15:15:53.500000000,-31.0,6.0,56.0,68.16,20.49,0.712627,32.09
2021-07-08 15:15:53.507812500,-31.0,6.0,56.0,68.15906249999999,20.395,0.71258696875,32.09
2021-07-08 15:15:53.515625000,-31.0,6.0,56.0,68.158125,20.3,0.7125469375,32.09
2021-07-08 15:15:53.523437500,-31.0,6.0,56.0,68.15718749999999,20.21,0.71250690625,32.09
2021-07-08 15:15:53.531250000,-31.0,6.0,56.0,68.15625,20.12,0.712466875,32.09
2021-07-08 15:15:53.539062500,-31.0,6.0,56.0,68.1553125,20.035,0.71242684375,32.09
2021-07-08 15:15:53.546875000,-31.0,6.0,56.0,68.154375,19.95,0.7123868125,32.09
2021-07-08 15:15:53.554687500,-31.0,6.0,56.0,68.1534375,19.814999999999998,0.7123467812500001,32.09
2021-07-08 15:15:53.562500000,-31.0,6.0,56.0,68.1525,19.68,0.71230675,32.09
2021-07-08 15:15:53.570312500,-31.0,6.0,56.0,68.1515625,19.41,0.71226671875,32.09
2021-07-08 15:15:53.578125000,-31.0,6.0,56.0,68.15062499999999,19.14,0.7122266875000001,32.09
2021-07-08 15:15:53.585937500,-31.0,6.0,56.0,68.1496875,18.700000000000003,0.71218665625,32.09
2021-07-08 15:15:53.593750000,-31.0,6.0,56.0,68.14874999999999,18.26,0.712146625,32.09
2021-07-08 15:15:53.601562500,-31.0,6.0,56.0,68.1478125,17.67,0.7121065937500001,32.09
2021-07-08 15:15:53.609375000,-31.0,6.0,56.0,68.146875,17.08,0.7120665625,32.09
2021-07-08 15:15:53.617187500,-31.0,6.0,56.0,68.1459375,16.43,0.71202653125,32.09
2021-07-08 15:15:53.625000000,-31.0,6.0,56.0,68.145,15.78,0.7119865000000001,32.09
2021-07-08 15:15:53.632812500,-31.0,5.75,56.0,68.14406249999999,15.175,0.71194646875,32.09
2021-07-08 15:15:53.640625000,-31.0,5.5,56.0,68.143125,14.57,0.7119064375,32.09
2021-07-08 15:15:53.648437500,-31.0,5.25,56.0,68.14218749999999,14.100000000000001,0.71186640625,32.09
2021-07-08 15:15:53.656250000,-31.0,5.0,56.0,68.14125,13.63,0.711826375,32.09
2021-07-08 15:15:53.664062500,-31.0,5.25,56.0,68.1403125,13.315000000000001,0.71178634375,32.09
2021-07-08 15:15:53.671875000,-31.0,5.5,56.0,68.139375,13.0,0.7117463125,32.09
2021-07-08 15:15:53.679687500,-31.0,5.75,56.0,68.1384375,12.79,0.71170628125,32.09
2021-07-08 15:15:53.687500000,-31.0,6.0,56.0,68.13749999999999,12.58,0.7116662500000001,32.09
2021-07-08 15:15:53.695312500,-31.0,6.0,56.0,68.1365625,12.395,0.71162621875,32.09
2021-07-08 15:15:53.703125000,-31.0,6.0,56.0,68.13562499999999,12.21,0.7115861875,32.09
2021-07-08 15:15:53.710937500,-31.0,6.0,56.0,68.1346875,11.96,0.7115461562500001,32.09
2021-07-08 15:15:53.718750000,-31.0,6.0,56.0,68.13374999999999,11.71,0.711506125,32.09
2021-07-08 15:15:53.726562500,-31.0,6.0,56.0,68.1328125,11.34,0.71146609375,32.09
2021-07-08 15:15:53.734375000,-31.0,6.0,56.0,68.131875,10.97,0.7114260625000001,32.09
2021-07-08 15:15:53.742187500,-31.0,6.0,56.0,68.1309375,10.455,0.71138603125,32.09
2021-07-08 15:15:53.750000000,-31.0,6.0,56.0,68.13,9.94,0.711346,32.09
2021-07-08 15:15:53.757812500,-31.0,6.0,56.0,68.12906249999999,9.29,0.7112659375,32.09
2021-07-08 15:15:53.765625000,-31.0,6.0,56.0,68.128125,8.64,0.7111858750000001,32.09
2021-07-08 15:15:53.773437500,-31.0,6.0,56.0,68.12718749999999,7.875,0.7111058125,32.09
2021-07-08 15:15:53.781250000,-31.0,6.0,56.0,68.12625,7.11,0.71102575,32.09
2021-07-08 15:15:53.789062500,-31.0,6.0,56.0,68.12531249999999,6.24,0.7109456875,32.09
2021-07-08 15:15:53.796875000,-31.0,6.0,56.0,68.124375,5.37,0.7108656250000001,32.09
2021-07-08 15:15:53.804687500,-31.0,6.0,56.0,68.1234375,4.395,0.7107855625,32.09
2021-07-08 15:15:53.812500000,-31.0,6.0,56.0,68.1225,3.42,0.7107055,32.09
2021-07-08 15:15:53.820312500,-31.0,6.0,56.0,68.1215625,2.37,0.7106254375000001,32.09
2021-07-08 15:15:53.828125000,-31.0,6.0,56.0,68.12062499999999,1.32,0.710545375,32.09
2021-07-08 15:15:53.835937500,-31.0,6.0,56.0,68.1196875,0.22999999999999998,0.7104653125,32.09
2021-07-08 15:15:53.843750000,-31.0,6.0,56.0,68.11874999999999,-0.86,0.71038525,32.09
2021-07-08 15:15:53.851562500,-31.0,6.0,56.0,68.1178125,-1.9449999999999998,0.7103051875,32.09
2021-07-08 15:15:53.859375000,-31.0,6.0,56.0,68.116875,-3.03,0.710225125,32.09
2021-07-08 15:15:53.867187500,-31.0,6.0,56.0,68.1159375,-4.055,0.7101450625,32.09
2021-07-08 15:15:53.875000000,-31.0,6.0,56.0,68.115,-5.08,0.710065,32.09
2021-07-08 15:15:53.882812500,-31.0,6.0,56.0,68.11406249999999,-6.045,0.7099849375,32.09
2021-07-08 15:15:53.890625000,-31.0,6.0,56.0,68.113125,-7.01,0.709904875,32.09
2021-07-08 15:15:53.898437500,-31.0,6.0,56.0,68.11218749999999,-7.93,0.7098248125,32.09
2021-07-08 15:15:53.906250000,-31.0,6.0,56.0,68.11125,-8.85,0.70974475,32.09
2021-07-08 15:15:53.914062500,-31.0,6.0,56.0,68.11031249999999,-9.8,0.7096646875,32.09
2021-07-08 15:15:53.921875000,-31.0,6.0,56.0,68.109375,-10.75,0.709584625,32.09
2021-07-08 15:15:53.929687500,-31.0,6.0,56.0,68.1084375,-11.82,0.7095045624999999,32.09
2021-07-08 15:15:53.937500000,-31.0,6.0,56.0,68.10749999999999,-12.89,0.7094245,32.09
2021-07-08 15:15:53.945312500,-31.0,6.0,56.0,68.1065625,-14.129999999999999,0.7093444375,32.09
2021-07-08 15:15:53.953125000,-31.0,6.0,56.0,68.10562499999999,-15.37,0.709264375,32.09
2021-07-08 15:15:53.960937500,-31.0,6.0,56.0,68.1046875,-16.765,0.7091843125,32.09
2021-07-08 15:15:53.968750000,-31.0,6.0,56.0,68.10374999999999,-18.16,0.70910425,32.09
2021-07-08 15:15:53.976562500,-31.0,6.0,56.0,68.1028125,-19.59,0.7090241875,32.09
2021-07-08 15:15:53.984375000,-31.0,6.0,56.0,68.10187499999999,-21.02,0.7089441249999999,32.09
2021-07-08 15:15:53.992187500,-31.0,6.0,56.0,68.1009375,-22.259999999999998,0.7088640625,32.09
2021-07-08 15:15:54.000000000,-31.0,6.0,56.0,68.1,-23.5,0.708784,32.09
2021-07-08 15:15:54.007812500,-31.0,6.0,55.75,68.099375,-24.3,0.70906425,32.09
2021-07-08 15:15:54.015625000,-31.0,6.0,55.5,68.09875,-25.1,0.7093444999999999,32.09
2021-07-08 15:15:54.023437500,-31.0,6.0,55.25,68.098125,-25.255000000000003,0.7096247499999999,32.09
2021-07-08 15:15:54.031250000,-31.0,6.0,55.0,68.0975,-25.41,0.709905,32.09
2021-07-08 15:15:54.039062500,-31.0,5.75,55.25,68.096875,-24.83,0.71018525,32.09
2021-07-08 15:15:54.046875000,-31.0,5.5,55.5,68.09625,-24.25,0.7104655,32.09
2021-07-08 15:15:54.054687500,-31.0,5.25,55.75,68.095625,-23.009999999999998,0.71074575,32.09
2021-07-08 15:15:54.062500000,-31.0,5.0,56.0,68.095,-21.77,0.7110259999999999,32.09
2021-07-08 15:15:54.070312500,-31.0,5.25,56.0,68.094375,-20.1,0.7113062499999999,32.09
2021-07-08 15:15:54.078125000,-31.0,5.5,56.0,68.09375,-18.43,0.7115865,32.09
2021-07-08 15:15:54.085937500,-31.0,5.75,56.0,68.093125,-16.61,0.71186675,32.09
2021-07-08 15:15:54.093750000,-31.0,6.0,56.0,68.0925,-14.79,0.712147,32.09
2021-07-08 15:15:54.101562500,-31.0,6.0,56.0,68.09187499999999,-13.065,0.71242725,32.09
2021-07-08 15:15:54.109375000,-31.0,6.0,56.0,68.09124999999999,-11.34,0.7127074999999999,32.09
2021-07-08 15:15:54.117187500,-31.0,6.0,56.0,68.09062499999999,-9.85,0.7129877499999999,32.09
2021-07-08 15:15:54.125000000,-31.0,6.0,56.0,68.08999999999999,-8.36,0.713268,32.09
2021-07-08 15:15:54.132812500,-31.0,6.0,56.0,68.08937499999999,-7.135,0.71354825,32.09
2021-07-08 15:15:54.140625000,-31.0,6.0,56.0,68.08874999999999,-5.91,0.7138285,32.09
2021-07-08 15:15:54.148437500,-31.0,6.0,56.0,68.08812499999999,-4.87,0.71410875,32.09
2021-07-08 15:15:54.156250000,-31.0,6.0,56.0,68.08749999999999,-3.83,0.7143889999999999,32.09
2021-07-08 15:15:54.164062500,-31.0,6.0,56.0,68.08687499999999,-2.88,0.7146692499999999,32.09
2021-07-08 15:15:54.171875000,-31.0,6.0,56.0,68.08624999999999,-1.93,0.7149494999999999,32.09
2021-07-08 15:15:54.179687500,-31.0,6.0,56.0,68.085625,-1.0,0.71522975,32.09
2021-07-08 15:15:54.187500000,-31.0,6.0,56.0,68.085,-0.07,0.71551,32.09
2021-07-08 15:15:54.195312500,-31.0,6.0,56.0,68.084375,0.8600000000000001,0.71579025,32.09
2021-07-08 15:15:54.203125000,-31.0,6.0,56.0,68.08375,1.79,0.7160704999999999,32.09
2021-07-08 15:15:54.210937500,-31.0,6.0,56.0,68.083125,2.7,0.7163507499999999,32.09
2021-07-08 15:15:54.218750000,-31.0,6.0,56.0,68.0825,3.61,0.7166309999999999,32.09
2021-07-08 15:15:54.226562500,-31.0,6.0,56.0,68.081875,4.455,0.71691125,32.09
2021-07-08 15:15:54.234375000,-31.0,6.0,56.0,68.08125,5.3,0.7171915,32.09
2021-07-08 15:15:54.242187500,-31.0,6.0,56.0,68.080625,6.029999999999999,0.71747175,32.09
2021-07-08 15:15:54.250000000,-31.0,6.0,56.0,68.08,6.76,0.717752,32.09
2021-07-08 15:15:54.257812500,-31.0,6.0,56.0,68.079375,7.33,0.71747175,32.09
2021-07-08 15:15:54.265625000,-31.0,6.0,56.0,68.07875,7.9,0.7171915,32.09
2021-07-08 15:15:54.273437500,-31.0,6.0,56.0,68.078125,8.3,0.71691125,32.09
2021-07-08 15:15:54.281250000,-31.0,6.0,56.0,68.0775,8.7,0.7166309999999999,32.09
2021-07-08 15:15:54.289062500,-31.0,6.0,56.0,68.076875,8.93,0.7163507499999999,32.09
2021-07-08 15:15:54.296875000,-31.0,6.0,56.0,68.07625,9.16,0.7160704999999999,32.09
2021-07-08 15:15:54.304687500,-31.0,6.0,56.0,68.07562499999999,9.26,0.71579025,32.09
2021-07-08 15:15:54.312500000,-31.0,6.0,56.0,68.07499999999999,9.36,0.71551,32.09
2021-07-08 15:15:54.320312500,-31.0,6.0,56.0,68.07437499999999,9.379999999999999,0.71522975,32.09
2021-07-08 15:15:54.328125000,-31.0,6.0,56.0,68.07374999999999,9.4,0.7149494999999999,32.09
2021-07-08 15:15:54.335937500,-31.0,6.0,56.0,68.07312499999999,9.415,0.7146692499999999,32.09
2021-07-08 15:15:54.343750000,-31.0,6.0,56.0,68.07249999999999,9.43,0.7143889999999999,32.09
2021-07-08 15:15:54.351562500,-31.0,6.0,56.0,68.07187499999999,9.485,0.71410875,32.09
2021-07-08 15:15:54.359375000,-31.0,6.0,56.0,68.07124999999999,9.54,0.7138285,32.09
2021-07-08 15:15:54.367187500,-31.0,6.0,56.0,68.07062499999999,9.649999999999999,0.71354825,32.09
2021-07-08 15:15:54.375000000,-31.0,6.0,56.0,68.07,9.76,0.713268,32.09
2021-07-08 15:15:54.382812500,-31.0,5.75,56.0,68.069375,9.89,0.7129877499999999,32.09
2021-07-08 15:15:54.390625000,-31.0,5.5,56.0,68.06875,10.02,0.7127074999999999,32.09
2021-07-08 15:15:54.398437500,-31.0,5.25,56.0,68.068125,10.120000000000001,0.71242725,32.09
2021-07-08 15:15:54.406250000,-31.0,5.0,56.0,68.0675,10.22,0.712147,32.09
2021-07-08 15:15:54.414062500,-30.75,5.25,56.0,68.066875,10.23,0.71186675,32.09
2021-07-08 15:15:54.421875000,-30.5,5.5,56.0,68.06625,10.24,0.7115865,32.09
2021-07-08 15:15:54.429687500,-30.25,5.75,56.0,68.065625,10.14,0.7113062499999999,32.09
2021-07-08 15:15:54.437500000,-30.0,6.0,56.0,68.065,10.04,0.7110259999999999,32.09
2021-07-08 15:15:54.445312500,-30.25,6.0,56.0,68.064375,9.86,0.71074575,32.09
2021-07-08 15:15:54.453125000,-30.5,6.0,56.0,68.06375,9.68,0.7104655,32.09
2021-07-08 15:15:54.460937500,-30.75,6.0,56.0,68.063125,9.485,0.71018525,32.09
2021-07-08 15:15:54.468750000,-31.0,6.0,56.0,68.0625,9.29,0.709905,32.09
2021-07-08 15:15:54.476562500,-31.0,6.0,56.0,68.061875,9.14,0.7096247499999999,32.09
2021-07-08 15:15:54.484375000,-31.0,6.0,56.0,68.06125,8.99,0.7093444999999999,32.09
2021-07-08 15:15:54.492187500,-31.0,6.0,56.0,68.060625,8.89,0.70906425,32.09
2021-07-08 15:15:54.500000000,-31.0,6.0,56.0,68.06,8.79,0.708784,32.09
2021-07-08 15:15:54.507812500,-31.0,5.75,56.0,68.05937499999999,8.7,0.7088240312499999,32.09
2021-07-08 15:15:54.515625000,-31.0,5.5,56.0,68.05874999999999,8.61,0.7088640625,32.09
2021-07-08 15:15:54.523437500,-31.0,5.25,56.0,68.05812499999999,8.42,0.70890409375,32.09
2021-07-08 15:15:54.531250000,-31.0,5.0,56.0,68.05749999999999,8.23,0.7089441249999999,32.09
2021-07-08 15:15:54.539062500,-30.75,5.25,56.0,68.05687499999999,7.880000000000001,0.70898415625,32.09
2021-07-08 15:15:54.546875000,-30.5,5.5,56.0,68.05624999999999,7.53,0.7090241875,32.09
2021-07-08 15:15:54.554687500,-30.25,5.75,56.0,68.05562499999999,6.995,0.7090642187499999,32.09
2021-07-08 15:15:54.562500000,-30.0,6.0,56.0,68.05499999999999,6.46,0.70910425,32.09
2021-07-08 15:15:54.570312500,-30.25,6.0,56.0,68.054375,5.805,0.70914428125,32.09
2021-07-08 15:15:54.578125000,-30.5,6.0,56.0,68.05375,5.15,0.7091843124999999,32.09
2021-07-08 15:15:54.585937500,-30.75,6.0,56.0,68.053125,4.475,0.70922434375,32.09
2021-07-08 15:15:54.593750000,-31.0,6.0,56.0,68.0525,3.8,0.709264375,32.09
2021-07-08 15:15:54.601562500,-31.0,6.0,56.0,68.051875,3.1849999999999996,0.7093044062499999,32.09
2021-07-08 15:15:54.609375000,-31.0,6.0,56.0,68.05125,2.57,0.7093444375,32.09
2021-07-08 15:15:54.617187500,-31.0,6.0,56.0,68.050625,2.0149999999999997,0.7093844687499999,32.09
2021-07-08 15:15:54.625000000,-31.0,6.0,56.0,68.05,1.46,0.7094244999999999,32.09
2021-07-08 15:15:54.632812500,-31.0,6.0,56.0,68.049375,0.9,0.70946453125,32.09
2021-07-08 15:15:54.640625000,-31.0,6.0,56.0,68.04875,0.34,0.7095045624999999,32.09
2021-07-08 15:15:54.648437500,-31.0,6.0,56.0,68.048125,-0.305,0.70954459375,32.09
2021-07-08 15:15:54.656250000,-31.0,6.0,56.0,68.0475,-0.95,0.709584625,32.09
2021-07-08 15:15:54.664062500,-30.75,6.0,56.0,68.046875,-1.7000000000000002,0.7096246562499999,32.09
2021-07-08 15:15:54.671875000,-30.5,6.0,56.0,68.04625,-2.45,0.7096646875,32.09
2021-07-08 15:15:54.679687500,-30.25,6.0,56.0,68.045625,-3.235,0.70970471875,32.09
2021-07-08 15:15:54.687500000,-30.0,6.0,56.0,68.045,-4.02,0.7097447499999999,32.09
2021-07-08 15:15:54.695312500,-30.25,6.0,56.0,68.044375,-4.71,0.70978478125,32.09
2021-07-08 15:15:54.703125000,-30.5,6.0,56.0,68.04374999999999,-5.4,0.7098248125,32.09
2021-07-08 15:15:54.710937500,-30.75,6.0,56.0,68.04312499999999,-5.865,0.7098648437499999,32.09
2021-07-08 15:15:54.718750000,-31.0,6.0,56.0,68.04249999999999,-6.33,0.709904875,32.09
2021-07-08 15:15:54.726562500,-31.0,6.0,56.0,68.04187499999999,-6.54,0.70994490625,32.09
2021-07-08 15:15:54.734375000,-31.0,6.0,56.0,68.04124999999999,-6.75,0.7099849374999999,32.09
2021-07-08 15:15:54.742187500,-31.0,6.0,56.0,68.04062499999999,-6.785,0.71002496875,32.09
2021-07-08 15:15:54.750000000,-31.0,6.0,56.0,68.03999999999999,-6.82,0.710065,32.09
2021-07-08 15:15:54.757812500,-31.0,6.0,56.0,68.03937499999999,-6.82,0.71002496875,32.09
2021-07-08 15:15:54.765625000,-31.0,6.0,56.0,68.03875,-6.82,0.7099849374999999,32.09
2021-07-08 15:15:54.773437500,-31.0,6.0,56.0,68.038125,-6.945,0.70994490625,32.09
2021-07-08 15:15:54.781250000,-31.0,6.0,56.0,68.0375,-7.07,0.709904875,32.09
2021-07-08 15:15:54.789062500,-31.0,6.0,56.0,68.036875,-7.405,0.7098648437499999,32.09
2021-07-08 15:15:54.796875000,-31.0,6.0,56.0,68.03625,-7.74,0.7098248125,32.09
2021-07-08 15:15:54.804687500,-31.0,6.0,56.0,68.035625,-8.344999999999999,0.70978478125,32.09
2021-07-08 15:15:54.812500000,-31.0,6.0,56.0,68.035,-8.95,0.7097447499999999,32.09
2021-07-08 15:15:54.820312500,-31.0,6.0,56.0,68.034375,-9.83,0.70970471875,32.09
2021-07-08 15:15:54.828125000,-31.0,6.0,56.0,68.03375,-10.71,0.7096646875,32.09
2021-07-08 15:15:54.835937500,-31.0,6.0,56.0,68.033125,-11.82,0.7096246562499999,32.09
2021-07-08 15:15:54.843750000,-31.0,6.0,56.0,68.0325,-12.93,0.709584625,32.09
2021-07-08 15:15:54.851562500,-30.75,6.0,56.0,68.031875,-14.184999999999999,0.70954459375,32.09
2021-07-08 15:15:54.859375000,-30.5,6.0,56.0,68.03125,-15.44,0.7095045624999999,32.09
2021-07-08 15:15:54.867187500,-30.25,6.0,56.0,68.030625,-16.69,0.70946453125,32.09
2021-07-08 15:15:54.875000000,-30.0,6.0,56.0,68.03,-17.94,0.7094244999999999,32.09
2021-07-08 15:15:54.882812500,-30.25,6.0,56.0,68.029375,-18.955,0.7093844687499999,32.09
2021-07-08 15:15:54.890625000,-30.5,6.0,56.0,68.02875,-19.97,0.7093444375,32.09
2021-07-08 15:15:54.898437500,-30.75,6.0,56.0,68.028125,-20.5,0.7093044062499999,32.09
2021-07-08 15:15:54.906250000,-31.0,6.0,56.0,68.02749999999999,-21.03,0.709264375,32.09
2021-07-08 15:15:54.914062500,-31.0,6.0,56.0,68.02687499999999,-20.915,0.70922434375,32.09
2021-07-08 15:15:54.921875000,-31.0,6.0,56.0,68.02624999999999,-20.8,0.7091843124999999,32.09
2021-07-08 15:15:54.929687500,-31.0,6.0,56.0,68.02562499999999,-20.035,0.70914428125,32.09
2021-07-08 15:15:54.937500000,-31.0,6.0,56.0,68.02499999999999,-19.27,0.70910425,32.09
2021-07-08 15:15:54.945312500,-31.0,6.0,56.0,68.02437499999999,-18.025,0.7090642187499999,32.09
2021-07-08 15:15:54.953125000,-31.0,6.0,56.0,68.02374999999999,-16.78,0.7090241875,32.09
2021-07-08 15:15:54.960937500,-31.0,6.0,56.0,68.023125,-15.32,0.70898415625,32.09
2021-07-08 15:15:54.968750000,-31.0,6.0,56.0,68.0225,-13.86,0.7089441249999999,32.09
2021-07-08 15:15:54.976562500,-30.75,6.0,56.0,68.021875,-12.455,0.70890409375,32.09
2021-07-08 15:15:54.984375000,-30.5,6.0,56.0,68.02125,-11.05,0.7088640625,32.09
2021-07-08 15:15:54.992187500,-30.25,6.0,56.0,68.020625,-9.850000000000001,0.7088240312499999,32.09
2021-07-08 15:15:55.000000000,-30.0,6.0,56.0,68.02,-8.65,0.708784,32.09
2021-07-08 15:15:55.007812500,-30.25,6.0,56.0,68.019453125,-7.675000000000001,0.7089841874999999,32.089375000000004
2021-07-08 15:15:55.015625000,-30.5,6.0,56.0,68.01890625,-6.7,0.709184375,32.088750000000005
2021-07-08 15:15:55.023437500,-30.75,6.0,56.0,68.018359375,-5.865,0.7093845624999999,32.088125000000005
2021-07-08 15:15:55.031250000,-31.0,6.0,56.0,68.01781249999999,-5.03,0.70958475,32.087500000000006
2021-07-08 15:15:55.039062500,-31.0,6.0,56.0,68.017265625,-4.23,0.7097849374999999,32.086875000000006
2021-07-08 15:15:55.046875000,-31.0,6.0,56.0,68.01671875,-3.43,0.709985125,32.08625
2021-07-08 15:15:55.054687500,-31.0,6.0,56.0,68.016171875,-2.625,0.7101853124999999,32.085625
2021-07-08 15:15:55.062500000,-31.0,6.0,56.0,68.015625,-1.82,0.7103855,32.085
2021-07-08 15:15:55.070312500,-31.0,5.75,56.0,68.015078125,-0.99,0.7105856875,32.084375
2021-07-08 15:15:55.078125000,-31.0,5.5,56.0,68.01453124999999,-0.16,0.710785875,32.08375
2021-07-08 15:15:55.085937500,-31.0,5.25,56.0,68.01398437499999,0.6499999999999999,0.7109860625,32.083125
2021-07-08 15:15:55.093750000,-31.0,5.0,56.0,68.0134375,1.46,0.71118625,32.0825
2021-07-08 15:15:55.101562500,-31.0,5.25,56.0,68.012890625,2.2199999999999998,0.7113864375,32.081875000000004
2021-07-08 15:15:55.109375000,-31.0,5.5,56.0,68.01234375,2.98,0.711586625,32.081250000000004
2021-07-08 15:15:55.117187500,-31.0,5.75,56.0,68.011796875,3.6500000000000004,0.7117868125,32.080625000000005
2021-07-08 15:15:55.125000000,-31.0,6.0,56.0,68.01124999999999,4.32,0.7119869999999999,32.08
2021-07-08 15:15:55.132812500,-30.75,6.0,56.0,68.01070312499999,4.87,0.7121871875,32.079375
2021-07-08 15:15:55.140625000,-30.5,6.0,56.0,68.01015625,5.42,0.7123873749999999,32.07875
2021-07-08 15:15:55.148437500,-30.25,6.0,56.0,68.009609375,5.82,0.7125875625,32.078125
2021-07-08 15:15:55.156250000,-30.0,6.0,56.0,68.0090625,6.22,0.7127877499999999,32.0775
2021-07-08 15:15:55.164062500,-30.25,6.0,56.0,68.008515625,6.425,0.7129879375,32.076875
2021-07-08 15:15:55.171875000,-30.5,6.0,56.0,68.00796875,6.63,0.713188125,32.07625
2021-07-08 15:15:55.179687500,-30.75,6.0,56.0,68.00742187499999,6.609999999999999,0.7133883125,32.075625
2021-07-08 15:15:55.187500000,-31.0,6.0,56.0,68.006875,6.59,0.7135885,32.075
2021-07-08 15:15:55.195312500,-31.0,6.0,56.0,68.006328125,6.375,0.7137886875,32.074375
2021-07-08 15:15:55.203125000,-31.0,6.0,56.0,68.00578125,6.16,0.713988875,32.073750000000004
2021-07-08 15:15:55.210937500,-31.0,6.0,56.0,68.005234375,5.835,0.7141890625,32.073125
2021-07-08 15:15:55.218750000,-31.0,6.0,56.0,68.0046875,5.51,0.71438925,32.0725
2021-07-08 15:15:55.226562500,-31.0,6.0,56.0,68.00414062499999,5.199999999999999,0.7145894375,32.071875
2021-07-08 15:15:55.234375000,-31.0,6.0,56.0,68.00359375,4.89,0.714789625,32.07125
2021-07-08 15:15:55.242187500,-31.0,6.0,56.0,68.003046875,4.695,0.7149898125,32.070625
2021-07-08 15:15:55.250000000,-31.0,6.0,56.0,68.0025,4.5,0.71519,32.07
2021-07-08 15:15:55.257812500,-31.0,6.0,56.0,68.001953125,4.470000000000001,0.7149898125,32.07
2021-07-08 15:15:55.265625000,-31.0,6.0,56.0,68.00140625,4.44,0.714789625,32.07
2021-07-08 15:15:55.273437500,-31.0,6.0,56.0,68.000859375,4.550000000000001,0.7145894375,32.07
2021-07-08 15:15:55.281250000,-31.0,6.0,56.0,68.00031249999999,4.66,0.71438925,32.07
2021-07-08 15:15:55.289062500,-30.75,6.0,56.0,67.999765625,4.84,0.7141890625,32.07
2021-07-08 15:15:55.296875000,-30.5,6.0,56.0,67.99921875,5.02,0.713988875,32.07
2021-07-08 15:15:55.304687500,-30.25,6.0,56.0,67.998671875,5.175,0.7137886875,32.07
2021-07-08 15:15:55.312500000,-30.0,6.0,56.0,67.998125,5.33,0.7135885,32.07
2021-07-08 15:15:55.320312500,-30.25,6.0,56.0,67.997578125,5.4,0.7133883125,32.07
2021-07-08 15:15:55.328125000,-30.5,6.0,56.0,67.99703124999999,5.47,0.713188125,32.07
2021-07-08 15:15:55.335937500,-30.75,6.0,56.0,67.996484375,5.43,0.7129879375,32.07
2021-07-08 15:15:55.343750000,-31.0,6.0,56.0,67.9959375,5.39,0.7127877499999999,32.07
2021-07-08 15:15:55.351562500,-30.75,5.75,56.0,67.995390625,5.25,0.7125875625,32.07
2021-07-08 15:15:55.359375000,-30.5,5.5,56.0,67.99484375,5.11,0.7123873749999999,32.07
2021-07-08 15:15:55.367187500,-30.25,5.25,56.0,67.994296875,4.875,0.7121871875,32.07
2021-07-08 15:15:55.375000000,-30.0,5.0,56.0,67.99375,4.64,0.7119869999999999,32.07
2021-07-08 15:15:55.382812500,-30.25,5.25,56.0,67.993203125,4.31,0.7117868125,32.07
2021-07-08 15:15:55.390625000,-30.5,5.5,56.0,67.99265625,3.98,0.711586625,32.07
2021-07-08 15:15:55.398437500,-30.75,5.75,56.0,67.992109375,3.535,0.7113864375,32.07
2021-07-08 15:15:55.406250000,-31.0,6.0,56.0,67.9915625,3.09,0.71118625,32.07
2021-07-08 15:15:55.414062500,-31.0,6.0,56.0,67.991015625,2.5549999999999997,0.7109860625,32.07
2021-07-08 15:15:55.421875000,-31.0,6.0,56.0,67.99046875,2.02,0.710785875,32.07
2021-07-08 15:15:55.429687500,-31.0,6.0,56.0,67.989921875,1.435,0.7105856875,32.07
2021-07-08 15:15:55.437500000,-31.0,6.0,56.0,67.989375,0.85,0.7103855,32.07
2021-07-08 15:15:55.445312500,-30.75,6.0,56.0,67.988828125,0.31499999999999995,0.7101853124999999,32.07
2021-07-08 15:15:55.453125000,-30.5,6.0,56.0,67.98828125,-0.22,0.709985125,32.07
2021-07-08 15:15:55.460937500,-30.25,6.0,56.0,67.987734375,-0.62,0.7097849374999999,32.07
2021-07-08 15:15:55.468750000,-30.0,6.0,56.0,67.9871875,-1.02,0.70958475,32.07
2021-07-08 15:15:55.476562500,-30.0,6.0,56.0,67.98664062499999,-1.2349999999999999,0.7093845624999999,32.07
2021-07-08 15:15:55.484375000,-30.0,6.0,56.0,67.98609375,-1.45,0.709184375,32.07
2021-07-08 15:15:55.492187500,-30.0,6.0,56.0,67.985546875,-1.5150000000000001,0.7089841874999999,32.07
2021-07-08 15:15:55.500000000,-30.0,6.0,56.0,67.985,-1.58,0.708784,32.07
2021-07-08 15:15:55.507812500,-30.25,6.0,56.0,67.984453125,-1.6,0.7088640625,32.07
2021-07-08 15:15:55.515625000,-30.5,6.0,56.0,67.98390625,-1.62,0.7089441249999999,32.07
2021-07-08 15:15:55.523437500,-30.75,6.0,56.0,67.983359375,-1.725,0.7090241875,32.07
2021-07-08 15:15:55.531250000,-31.0,6.0,56.0,67.9828125,-1.83,0.70910425,32.07
2021-07-08 15:15:55.539062500,-30.75,6.0,56.0,67.982265625,-2.1100000000000003,0.7091843125,32.07
2021-07-08 15:15:55.546875000,-30.5,6.0,56.0,67.98171875,-2.39,0.709264375,32.07
2021-07-08 15:15:55.554687500,-30.25,6.0,56.0,67.981171875,-2.865,0.7093444375,32.07
2021-07-08 15:15:55.562500000,-30.0,6.0,56.0,67.980625,-3.34,0.7094245,32.07
2021-07-08 15:15:55.570312500,-30.0,6.0,56.0,67.980078125,-3.94,0.7095045624999999,32.07
2021-07-08 15:15:55.578125000,-30.0,6.0,56.0,67.97953125,-4.54,0.709584625,32.07
2021-07-08 15:15:55.585937500,-30.0,6.0,56.0,67.978984375,-5.18,0.7096646875,32.07
2021-07-08 15:15:55.593750000,-30.0,6.0,56.0,67.9784375,-5.82,0.70974475,32.07
2021-07-08 15:15:55.601562500,-30.0,6.0,56.0,67.977890625,-6.415,0.7098248125,32.07
2021-07-08 15:15:55.609375000,-30.0,6.0,56.0,67.97734375,-7.01,0.709904875,32.07
2021-07-08 15:15:55.617187500,-30.0,6.0,56.0,67.976796875,-7.56,0.7099849375,32.07
2021-07-08 15:15:55.625000000,-30.0,6.0,56.0,67.97625,-8.11,0.710065,32.07
2021-07-08 15:15:55.632812500,-30.0,6.0,56.0,67.975703125,-8.645,0.7101450625,32.07
2021-07-08 15:15:55.640625000,-30.0,6.0,56.0,67.97515625,-9.18,0.710225125,32.07
2021-07-08 15:15:55.648437500,-30.0,6.0,56.0,67.974609375,-9.754999999999999,0.7103051875,32.07
2021-07-08 15:15:55.656250000,-30.0,6.0,56.0,67.9740625,-10.33,0.71038525,32.07
2021-07-08 15:15:55.664062500,-30.25,5.75,56.0,67.973515625,-11.01,0.7104653125,32.07
2021-07-08 15:15:55.671875000,-30.5,5.5,56.0,67.97296875,-11.69,0.710545375,32.07
2021-07-08 15:15:55.679687500,-30.75,5.25,56.0,67.972421875,-12.495000000000001,0.7106254375000001,32.07
2021-07-08 15:15:55.687500000,-31.0,5.0,56.0,67.971875,-13.3,0.7107055,32.07
2021-07-08 15:15:55.695312500,-31.0,5.25,56.0,67.971328125,-14.23,0.7107855625,32.07
2021-07-08 15:15:55.703125000,-31.0,5.5,56.0,67.97078125,-15.16,0.7108656250000001,32.07
2021-07-08 15:15:55.710937500,-31.0,5.75,56.0,67.970234375,-16.185000000000002,0.7109456875,32.07
2021-07-08 15:15:55.718750000,-31.0,6.0,56.0,67.9696875,-17.21,0.71102575,32.07
2021-07-08 15:15:55.726562500,-31.0,6.0,56.0,67.969140625,-18.285,0.7111058125,32.07
2021-07-08 15:15:55.734375000,-31.0,6.0,56.0,67.96859375,-19.36,0.7111858750000001,32.07
2021-07-08 15:15:55.742187500,-31.0,6.0,56.0,67.968046875,-20.395,0.7112659375,32.07
2021-07-08 15:15:55.750000000,-31.0,6.0,56.0,67.9675,-21.43,0.711346,32.07
2021-07-08 15:15:55.757812500,-30.75,6.0,56.0,67.966953125,-22.285,0.7111858750000001,32.07
2021-07-08 15:15:55.765625000,-30.5,6.0,56.0,67.96640625,-23.14,0.71102575,32.07
2021-07-08 15:15:55.773437500,-30.25,6.0,56.0,67.96585937500001,-23.65,0.7108656250000001,32.07
2021-07-08 15:15:55.781250000,-30.0,6.0,56.0,67.9653125,-24.16,0.7107055,32.07
2021-07-08 15:15:55.789062500,-30.25,6.0,56.0,67.964765625,-24.165,0.710545375,32.07
2021-07-08 15:15:55.796875000,-30.5,6.0,56.0,67.96421875,-24.17,0.7103852500000001,32.07
2021-07-08 15:15:55.804687500,-30.75,6.0,56.0,67.963671875,-23.575000000000003,0.710225125,32.07
2021-07-08 15:15:55.812500000,-31.0,6.0,56.0,67.963125,-22.98,0.7100650000000001,32.07
2021-07-08 15:15:55.820312500,-30.75,6.0,56.0,67.96257812500001,-21.795,0.709904875,32.07
2021-07-08 15:15:55.828125000,-30.5,6.0,56.0,67.96203125,-20.61,0.70974475,32.07
2021-07-08 15:15:55.835937500,-30.25,6.0,56.0,67.961484375,-18.990000000000002,0.7095846250000001,32.07
2021-07-08 15:15:55.843750000,-30.0,6.0,56.0,67.9609375,-17.37,0.7094245,32.07
2021-07-08 15:15:55.851562500,-30.0,6.0,56.0,67.960390625,-15.510000000000002,0.7092643750000001,32.07
2021-07-08 15:15:55.859375000,-30.0,6.0,56.0,67.95984375,-13.65,0.70910425,32.07
2021-07-08 15:15:55.867187500,-30.0,6.0,56.0,67.959296875,-11.780000000000001,0.708944125,32.07
2021-07-08 15:15:55.875000000,-30.0,6.0,56.0,67.95875000000001,-9.91,0.7087840000000001,32.07
2021-07-08 15:15:55.882812500,-30.25,6.0,56.0,67.958203125,-8.195,0.708623875,32.07
2021-07-08 15:15:55.890625000,-30.5,6.0,56.0,67.95765625,-6.48,0.7084637500000001,32.07
2021-07-08 15:15:55.898437500,-30.75,6.0,56.0,67.957109375,-5.005,0.708303625,32.07
2021-07-08 15:15:55.906250000,-31.0,6.0,56.0,67.9565625,-3.53,0.7081435,32.07
2021-07-08 15:15:55.914062500,-30.75,5.75,56.0,67.956015625,-2.3,0.707983375,32.07
2021-07-08 15:15:55.921875000,-30.5,5.5,56.0,67.95546875000001,-1.07,0.70782325,32.07
2021-07-08 15:15:55.929687500,-30.25,5.25,56.0,67.954921875,-0.040000000000000036,0.7076631250000001,32.07
2021-07-08 15:15:55.937500000,-30.0,5.0,56.0,67.954375,0.99,0.707503,32.07
2021-07-08 15:15:55.945312500,-30.25,5.25,56.0,67.953828125,1.855,0.707342875,32.07
2021-07-08 15:15:55.953125000,-30.5,5.5,56.0,67.95328125,2.72,0.70718275,32.07
2021-07-08 15:15:55.960937500,-30.75,5.75,56.0,67.952734375,3.4450000000000003,0.707022625,32.07
2021-07-08 15:15:55.968750000,-31.0,6.0,56.0,67.95218750000001,4.17,0.7068625000000001,32.07
2021-07-08 15:15:55.976562500,-30.75,6.0,56.0,67.951640625,4.75,0.706702375,32.07
2021-07-08 15:15:55.984375000,-30.5,6.0,56.0,67.95109375,5.33,0.70654225,32.07
2021-07-08 15:15:55.992187500,-30.25,6.0,56.0,67.950546875,5.77,0.706382125,32.07
2021-07-08 15:15:56.000000000,-30.0,6.0,56.0,67.95,6.21,0.706222,32.07
2021-07-08 15:15:56.007812500,-30.25,6.0,56.0,67.949375,6.54,0.70642215625,32.070625
2021-07-08 15:15:56.015625000,-30.5,6.0,56.0,67.94875,6.87,0.7066223125,32.07125
2021-07-08 15:15:56.023437500,-30.75,6.0,56.0,67.948125,7.105,0.70682246875,32.071875
2021-07-08 15:15:56.031250000,-31.0,6.0,56.0,67.9475,7.34,0.707022625,32.0725
2021-07-08 15:15:56.039062500,-30.75,6.0,56.0,67.946875,7.52,0.70722278125,32.073125
2021-07-08 15:15:56.046875000,-30.5,6.0,56.0,67.94625,7.7,0.7074229375000001,32.073750000000004
2021-07-08 15:15:56.054687500,-30.25,6.0,56.0,67.945625,7.825,0.70762309375,32.074375
2021-07-08 15:15:56.062500000,-30.0,6.0,56.0,67.94500000000001,7.95,0.70782325,32.075
2021-07-08 15:15:56.070312500,-30.25,6.0,56.0,67.94437500000001,8.01,0.70802340625,32.075625
2021-07-08 15:15:56.078125000,-30.5,6.0,56.0,67.94375000000001,8.07,0.7082235625,32.07625
2021-07-08 15:15:56.085937500,-30.75,6.0,56.0,67.94312500000001,8.05,0.70842371875,32.076875
2021-07-08 15:15:56.093750000,-31.0,6.0,56.0,67.94250000000001,8.03,0.708623875,32.0775
2021-07-08 15:15:56.101562500,-31.0,6.0,56.0,67.941875,7.945,0.70882403125,32.078125
2021-07-08 15:15:56.109375000,-31.0,6.0,56.0,67.94125,7.86,0.7090241875000001,32.07875
2021-07-08 15:15:56.117187500,-31.0,6.0,56.0,67.940625,7.745,0.70922434375,32.079375
2021-07-08 15:15:56.125000000,-31.0,6.0,56.0,67.94,7.63,0.7094245,32.08
2021-07-08 15:15:56.132812500,-31.0,6.0,56.0,67.939375,7.545,0.70962465625,32.080625000000005
2021-07-08 15:15:56.140625000,-31.0,6.0,56.0,67.93875,7.46,0.7098248125,32.081250000000004
2021-07-08 15:15:56.148437500,-31.0,6.0,56.0,67.938125,7.470000000000001,0.71002496875,32.081875000000004
2021-07-08 15:15:56.156250000,-31.0,6.0,56.0,67.9375,7.48,0.710225125,32.0825
2021-07-08 15:15:56.164062500,-31.0,6.0,56.0,67.936875,7.595000000000001,0.71042528125,32.083125
2021-07-08 15:15:56.171875000,-31.0,6.0,56.0,67.93625,7.71,0.7106254375000001,32.08375
2021-07-08 15:15:56.179687500,-31.0,6.0,56.0,67.935625,7.91,0.71082559375,32.084375
2021-07-08 15:15:56.187500000,-31.0,6.0,56.0,67.935,8.11,0.71102575,32.085
2021-07-08 15:15:56.195312500,-31.0,5.75,56.0,67.934375,8.315,0.71122590625,32.085625
2021-07-08 15:15:56.203125000,-31.0,5.5,56.0,67.93375,8.52,0.7114260625,32.08625
2021-07-08 15:15:56.210937500,-31.0,5.25,56.0,67.933125,8.635,0.71162621875,32.086875000000006
2021-07-08 15:15:56.218750000,-31.0,5.0,56.0,67.9325,8.75,0.711826375,32.087500000000006
2021-07-08 15:15:56.226562500,-30.75,5.0,56.0,67.931875,8.68,0.71202653125,32.088125000000005
2021-07-08 15:15:56.234375000,-30.5,5.0,56.0,67.93125,8.61,0.7122266875000001,32.088750000000005
2021-07-08 15:15:56.242187500,-30.25,5.0,56.0,67.930625,8.275,0.71242684375,32.089375000000004
2021-07-08 15:15:56.250000000,-30.0,5.0,56.0,67.93,7.94,0.712627,32.09
2021-07-08 15:15:56.257812500,-30.0,5.0,56.0,67.92937500000001,7.34,0.71242684375,32.09
2021-07-08 15:15:56.265625000,-30.0,5.0,56.0,67.92875000000001,6.74,0.7122266875000001,32.09
2021-07-08 15:15:56.273437500,-30.0,5.0,56.0,67.92812500000001,5.945,0.71202653125,32.09
2021-07-08 15:15:56.281250000,-30.0,5.0,56.0,67.92750000000001,5.15,0.711826375,32.09
2021-07-08 15:15:56.289062500,-30.0,5.25,56.0,67.92687500000001,4.26,0.71162621875,32.09
2021-07-08 15:15:56.296875000,-30.0,5.5,56.0,67.92625000000001,3.37,0.7114260625,32.09
2021-07-08 15:15:56.304687500,-30.0,5.75,56.0,67.925625,2.52,0.71122590625,32.09
2021-07-08 15:15:56.312500000,-30.0,6.0,56.0,67.925,1.67,0.71102575,32.09
2021-07-08 15:15:56.320312500,-30.25,6.0,56.0,67.924375,0.97,0.71082559375,32.09
2021-07-08 15:15:56.328125000,-30.5,6.0,56.0,67.92375,0.27,0.7106254375000001,32.09
2021-07-08 15:15:56.335937500,-30.75,6.0,56.0,67.923125,-0.24,0.71042528125,32.09
2021-07-08 15:15:56.343750000,-31.0,6.0,56.0,67.9225,-0.75,0.710225125,32.09
2021-07-08 15:15:56.351562500,-31.0,6.0,56.0,67.921875,-1.0550000000000002,0.71002496875,32.09
2021-07-08 15:15:56.359375000,-31.0,6.0,56.0,67.92125,-1.36,0.7098248125,32.09
2021-07-08 15:15:56.367187500,-31.0,6.0,56.0,67.920625,-1.51,0.70962465625,32.09
2021-07-08 15:15:56.375000000,-31.0,6.0,56.0,67.92,-1.66,0.7094245,32.09
2021-07-08 15:15:56.382812500,-30.75,5.75,56.0,67.919375,-1.7,0.70922434375,32.09
2021-07-08 15:15:56.390625000,-30.5,5.5,56.0,67.91875,-1.74,0.7090241875000001,32.09
2021-07-08 15:15:56.398437500,-30.25,5.25,56.0,67.918125,-1.71,0.70882403125,32.09
2021-07-08 15:15:56.406250000,-30.0,5.0,56.0,67.9175,-1.68,0.708623875,32.09
2021-07-08 15:15:56.414062500,-30.25,5.0,56.0,67.916875,-1.635,0.70842371875,32.09
2021-07-08 15:15:56.421875000,-30.5,5.0,56.0,67.91625,-1.59,0.7082235625,32.09
2021-07-08 15:15:56.429687500,-30.75,5.0,56.0,67.915625,-1.5950000000000002,0.70802340625,32.09
2021-07-08 15:15:56.437500000,-31.0,5.0,56.0,67.915,-1.6,0.70782325,32.09
2021-07-08 15:15:56.445312500,-31.0,5.25,56.0,67.914375,-1.735,0.70762309375,32.09
2021-07-08 15:15:56.453125000,-31.0,5.5,56.0,67.91375000000001,-1.87,0.7074229375000001,32.09
2021-07-08 15:15:56.460937500,-31.0,5.75,56.0,67.91312500000001,-2.19,0.70722278125,32.09
2021-07-08 15:15:56.468750000,-31.0,6.0,56.0,67.91250000000001,-2.51,0.707022625,32.09
2021-07-08 15:15:56.476562500,-30.75,6.0,56.0,67.91187500000001,-3.0199999999999996,0.70682246875,32.09
2021-07-08 15:15:56.484375000,-30.5,6.0,56.0,67.91125000000001,-3.53,0.7066223125,32.09
2021-07-08 15:15:56.492187500,-30.25,6.0,56.0,67.91062500000001,-4.185,0.70642215625,32.09
2021-07-08 15:15:56.500000000,-30.0,6.0,56.0,67.91,-4.84,0.706222,32.09
2021-07-08 15:15:56.507812500,-30.0,5.75,56.0,67.909375,-5.54,0.70642215625,32.09
2021-07-08 15:15:56.515625000,-30.0,5.5,56.0,67.90875,-6.24,0.7066223125,32.09
2021-07-08 15:15:56.523437500,-30.0,5.25,56.0,67.908125,-6.92,0.70682246875,32.09
2021-07-08 15:15:56.531250000,-30.0,5.0,56.0,67.9075,-7.6,0.707022625,32.09
2021-07-08 15:15:56.539062500,-30.25,5.0,56.0,67.906875,-8.205,0.70722278125,32.09
2021-07-08 15:15:56.546875000,-30.5,5.0,56.0,67.90625,-8.81,0.7074229375000001,32.09
2021-07-08 15:15:56.554687500,-30.75,5.0,56.0,67.905625,-9.345,0.70762309375,32.09
2021-07-08 15:15:56.562500000,-31.0,5.0,56.0,67.905,-9.88,0.70782325,32.09
2021-07-08 15:15:56.570312500,-30.75,5.25,56.0,67.904375,-10.39,0.70802340625,32.09
2021-07-08 15:15:56.578125000,-30.5,5.5,56.0,67.90375,-10.9,0.7082235625,32.09
2021-07-08 15:15:56.585937500,-30.25,5.75,56.0,67.903125,-11.42,0.70842371875,32.09
2021-07-08 15:15:56.593750000,-30.0,6.0,56.0,67.9025,-11.94,0.708623875,32.09
2021-07-08 15:15:56.601562500,-30.0,5.75,56.0,67.901875,-12.515,0.70882403125,32.09
2021-07-08 15:15:56.609375000,-30.0,5.5,56.0,67.90125,-13.09,0.7090241875000001,32.09
2021-07-08 15:15:56.617187500,-30.0,5.25,56.0,67.900625,-13.765,0.70922434375,32.09
2021-07-08 15:15:56.625000000,-30.0,5.0,56.0,67.9,-14.44,0.7094245,32.09
2021-07-08 15:15:56.632812500,-30.25,5.0,56.0,67.899375,-15.254999999999999,0.70962465625,32.09
2021-07-08 15:15:56.640625000,-30.5,5.0,56.0,67.89875,-16.07,0.7098248125,32.09
2021-07-08 15:15:56.648437500,-30.75,5.0,56.0,67.89812500000001,-17.025,0.71002496875,32.09
2021-07-08 15:15:56.656250000,-31.0,5.0,56.0,67.89750000000001,-17.98,0.710225125,32.09
2021-07-08 15:15:56.664062500,-31.0,5.25,56.0,67.89687500000001,-19.0,0.71042528125,32.09
2021-07-08 15:15:56.671875000,-31.0,5.5,56.0,67.89625000000001,-20.02,0.7106254375000001,32.09
2021-07-08 15:15:56.679687500,-31.0,5.75,56.0,67.89562500000001,-20.939999999999998,0.71082559375,32.09
2021-07-08 15:15:56.687500000,-31.0,6.0,56.0,67.89500000000001,-21.86,0.71102575,32.09
2021-07-08 15:15:56.695312500,-31.0,5.75,56.0,67.89437500000001,-22.465,0.71122590625,32.09
2021-07-08 15:15:56.703125000,-31.0,5.5,56.0,67.89375,-23.07,0.7114260625,32.09
2021-07-08 15:15:56.710937500,-31.0,5.25,56.0,67.893125,-23.14,0.71162621875,32.09
2021-07-08 15:15:56.718750000,-31.0,5.0,56.0,67.8925,-23.21,0.711826375,32.09
2021-07-08 15:15:56.726562500,-30.75,5.25,56.0,67.891875,-22.62,0.71202653125,32.09
2021-07-08 15:15:56.734375000,-30.5,5.5,56.0,67.89125,-22.03,0.7122266875000001,32.09
2021-07-08 15:15:56.742187500,-30.25,5.75,56.0,67.890625,-20.810000000000002,0.71242684375,32.09
2021-07-08 15:15:56.750000000,-30.0,6.0,56.0,67.89,-19.59,0.712627,32.09
2021-07-08 15:15:56.757812500,-30.25,6.0,56.0,67.889375,-17.915,0.7125469375,32.09
2021-07-08 15:15:56.765625000,-30.5,6.0,56.0,67.88875,-16.24,0.712466875,32.09
2021-07-08 15:15:56.773437500,-30.75,6.0,56.0,67.888125,-14.355,0.7123868125,32.09
2021-07-08 15:15:56.781250000,-31.0,6.0,56.0,67.8875,-12.47,0.71230675,32.09
2021-07-08 15:15:56.789062500,-30.75,5.75,56.0,67.886875,-10.64,0.7122266875,32.09
2021-07-08 15:15:56.796875000,-30.5,5.5,56.0,67.88625,-8.81,0.712146625,32.09
2021-07-08 15:15:56.804687500,-30.25,5.25,56.0,67.885625,-7.225,0.7120665625,32.09
2021-07-08 15:15:56.812500000,-30.0,5.0,56.0,67.885,-5.64,0.7119865,32.09
2021-07-08 15:15:56.820312500,-30.25,5.25,56.0,67.884375,-4.41,0.7119064375,32.09
2021-07-08 15:15:56.828125000,-30.5,5.5,56.0,67.88375,-3.18,0.711826375,32.09
2021-07-08 15:15:56.835937500,-30.75,5.75,56.0,67.883125,-2.285,0.7117463125,32.09
2021-07-08 15:15:56.843750000,-31.0,6.0,56.0,67.88250000000001,-1.39,0.71166625,32.09
2021-07-08 15:15:56.851562500,-30.75,6.0,56.0,67.88187500000001,-0.75,0.7115861875,32.09
2021-07-08 15:15:56.859375000,-30.5,6.0,56.0,67.88125000000001,-0.11,0.711506125,32.09
2021-07-08 15:15:56.867187500,-30.25,6.0,56.0,67.88062500000001,0.39,0.7114260625,32.09
2021-07-08 15:15:56.875000000,-30.0,6.0,56.0,67.88000000000001,0.89,0.711346,32.09
2021-07-08 15:15:56.882812500,-30.25,6.0,56.0,67.87937500000001,1.335,0.7112659375,32.09
2021-07-08 15:15:56.890625000,-30.5,6.0,56.0,67.87875000000001,1.78,0.711185875,32.09
2021-07-08 15:15:56.898437500,-30.75,6.0,56.0,67.87812500000001,2.2,0.7111058124999999,32.09
2021-07-08 15:15:56.906250000,-31.0,6.0,56.0,67.8775,2.62,0.71102575,32.09
2021-07-08 15:15:56.914062500,-30.75,6.0,56.0,67.876875,2.995,0.7109456875,32.09
2021-07-08 15:15:56.921875000,-30.5,6.0,56.0,67.87625,3.37,0.710865625,32.09
2021-07-08 15:15:56.929687500,-30.25,6.0,56.0,67.875625,3.685,0.7107855624999999,32.09
2021-07-08 15:15:56.937500000,-30.0,6.0,56.0,67.875,4.0,0.7107055,32.09
2021-07-08 15:15:56.945312500,-30.25,6.0,56.0,67.874375,4.25,0.7106254375,32.09
2021-07-08 15:15:56.953125000,-30.5,6.0,56.0,67.87375,4.5,0.7105453749999999,32.09
2021-07-08 15:15:56.960937500,-30.75,6.0,56.0,67.873125,4.715,0.7104653125,32.09
2021-07-08 15:15:56.968750000,-31.0,6.0,56.0,67.8725,4.93,0.71038525,32.09
2021-07-08 15:15:56.976562500,-31.0,6.0,56.0,67.871875,5.16,0.7103051874999999,32.09
2021-07-08 15:15:56.984375000,-31.0,6.0,56.0,67.87125,5.39,0.7102251249999999,32.09
2021-07-08 15:15:56.992187500,-31.0,6.0,56.0,67.870625,5.66,0.7101450625,32.09
2021-07-08 15:15:57.000000000,-31.0,6.0,56.0,67.87,5.93,0.710065,32.09
2021-07-08 15:15:57.007812500,-31.0,6.0,56.0,67.869296875,6.199999999999999,0.710065,32.09
2021-07-08 15:15:57.015625000,-31.0,6.0,56.0,67.86859375,6.47,0.710065,32.09
2021-07-08 15:15:57.023437500,-31.0,6.0,56.0,67.867890625,6.68,0.710065,32.09
2021-07-08 15:15:57.031250000,-31.0,6.0,56.0,67.8671875,6.89,0.710065,32.09
2021-07-08 15:15:57.039062500,-31.0,5.75,56.0,67.866484375,6.96,0.710065,32.09
2021-07-08 15:15:57.046875000,-31.0,5.5,56.0,67.86578125,7.03,0.710065,32.09
2021-07-08 15:15:57.054687500,-31.0,5.25,56.0,67.86507812500001,6.9399999999999995,0.710065,32.09
2021-07-08 15:15:57.062500000,-31.0,5.0,56.0,67.86437500000001,6.85,0.710065,32.09
2021-07-08 15:15:57.070312500,-31.0,5.25,56.0,67.86367187500001,6.65,0.710065,32.09
2021-07-08 15:15:57.078125000,-31.0,5.5,56.0,67.86296875000001,6.45,0.710065,32.09
2021-07-08 15:15:57.085937500,-31.0,5.75,56.0,67.862265625,6.225,0.710065,32.09
2021-07-08 15:15:57.093750000,-31.0,6.0,56.0,67.8615625,6.0,0.710065,32.09
2021-07-08 15:15:57.101562500,-31.0,5.75,56.0,67.860859375,5.845000000000001,0.710065,32.09
2021-07-08 15:15:57.109375000,-31.0,5.5,56.0,67.86015625,5.69,0.710065,32.09
2021-07-08 15:15:57.117187500,-31.0,5.25,56.0,67.859453125,5.61,0.710065,32.09
2021-07-08 15:15:57.125000000,-31.0,5.0,56.0,67.85875,5.53,0.710065,32.09
2021-07-08 15:15:57.132812500,-31.0,5.25,56.0,67.858046875,5.505000000000001,0.710065,32.09
2021-07-08 15:15:57.140625000,-31.0,5.5,56.0,67.85734375,5.48,0.710065,32.09
2021-07-08 15:15:57.148437500,-31.0,5.75,56.0,67.856640625,5.4350000000000005,0.710065,32.09
2021-07-08 15:15:57.156250000,-31.0,6.0,56.0,67.85593750000001,5.39,0.710065,32.09
2021-07-08 15:15:57.164062500,-31.0,6.0,56.0,67.85523437500001,5.26,0.710065,32.09
2021-07-08 15:15:57.171875000,-31.0,6.0,56.0,67.85453125000001,5.13,0.710065,32.09
2021-07-08 15:15:57.179687500,-31.0,6.0,56.0,67.853828125,4.9,0.710065,32.09
2021-07-08 15:15:57.187500000,-31.0,6.0,56.0,67.853125,4.67,0.710065,32.09
2021-07-08 15:15:57.195312500,-31.0,6.0,56.0,67.852421875,4.37,0.710065,32.09
2021-07-08 15:15:57.203125000,-31.0,6.0,56.0,67.85171875,4.07,0.710065,32.09
2021-07-08 15:15:57.210937500,-31.0,6.0,56.0,67.851015625,3.75,0.710065,32.09
2021-07-08 15:15:57.218750000,-31.0,6.0,56.0,67.8503125,3.43,0.710065,32.09
2021-07-08 15:15:57.226562500,-31.0,6.0,56.0,67.849609375,3.135,0.710065,32.09
2021-07-08 15:15:57.234375000,-31.0,6.0,56.0,67.84890625,2.84,0.710065,32.09
2021-07-08 15:15:57.242187500,-31.0,6.0,56.0,67.848203125,2.61,0.710065,32.09
2021-07-08 15:15:57.250000000,-31.0,6.0,56.0,67.8475,2.38,0.710065,32.09
2021-07-08 15:15:57.257812500,-30.75,6.0,56.0,67.84679687500001,2.21,0.7098648437499999,32.09
2021-07-08 15:15:57.265625000,-30.5,6.0,56.0,67.84609375000001,2.04,0.7096646874999999,32.09
2021-07-08 15:15:57.273437500,-30.25,6.0,56.0,67.84539062500001,1.9100000000000001,0.70946453125,32.09
2021-07-08 15:15:57.281250000,-30.0,6.0,56.0,67.8446875,1.78,0.709264375,32.09
2021-07-08 15:15:57.289062500,-30.25,5.75,56.0,67.843984375,1.67,0.7090642187499999,32.09
2021-07-08 15:15:57.296875000,-30.5,5.5,56.0,67.84328125,1.56,0.7088640625,32.09
2021-07-08 15:15:57.304687500,-30.75,5.25,56.0,67.842578125,1.455,0.70866390625,32.09
2021-07-08 15:15:57.312500000,-31.0,5.0,56.0,67.841875,1.35,0.70846375,32.09
2021-07-08 15:15:57.320312500,-31.0,5.25,56.0,67.841171875,1.215,0.7082635937499999,32.09
2021-07-08 15:15:57.328125000,-31.0,5.5,56.0,67.84046875,1.08,0.7080634374999999,32.09
2021-07-08 15:15:57.335937500,-31.0,5.75,56.0,67.839765625,0.9,0.70786328125,32.09
2021-07-08 15:15:57.343750000,-31.0,6.0,56.0,67.8390625,0.72,0.707663125,32.09
2021-07-08 15:15:57.351562500,-31.0,5.75,56.0,67.83835937500001,0.475,0.7074629687499999,32.09
2021-07-08 15:15:57.359375000,-31.0,5.5,56.0,67.83765625000001,0.23,0.7072628125,32.09
2021-07-08 15:15:57.367187500,-31.0,5.25,56.0,67.83695312500001,-0.12999999999999998,0.70706265625,32.09
2021-07-08 15:15:57.375000000,-31.0,5.0,56.0,67.83625,-0.49,0.7068625,32.09
2021-07-08 15:15:57.382812500,-31.0,5.0,56.0,67.835546875,-0.97,0.7066623437499999,32.09
2021-07-08 15:15:57.390625000,-31.0,5.0,56.0,67.83484375,-1.45,0.7064621874999999,32.09
2021-07-08 15:15:57.398437500,-31.0,5.0,56.0,67.834140625,-2.04,0.70626203125,32.09
2021-07-08 15:15:57.406250000,-31.0,5.0,56.0,67.8334375,-2.63,0.706061875,32.09
2021-07-08 15:15:57.414062500,-31.0,5.0,56.0,67.832734375,-3.31,0.7058617187499999,32.09
2021-07-08 15:15:57.421875000,-31.0,5.0,56.0,67.83203125,-3.99,0.7056615625,32.09
2021-07-08 15:15:57.429687500,-31.0,5.0,56.0,67.831328125,-4.705,0.70546140625,32.09
2021-07-08 15:15:57.437500000,-31.0,5.0,56.0,67.830625,-5.42,0.70526125,32.09
2021-07-08 15:15:57.445312500,-31.0,5.0,56.0,67.829921875,-6.125,0.7050610937499999,32.09
2021-07-08 15:15:57.453125000,-31.0,5.0,56.0,67.82921875000001,-6.83,0.7048609374999999,32.09
2021-07-08 15:15:57.460937500,-31.0,5.0,56.0,67.82851562500001,-7.51,0.70466078125,32.09
2021-07-08 15:15:57.468750000,-31.0,5.0,56.0,67.82781250000001,-8.19,0.704460625,32.09
2021-07-08 15:15:57.476562500,-31.0,5.0,56.0,67.827109375,-8.855,0.7042604687499999,32.09
2021-07-08 15:15:57.484375000,-31.0,5.0,56.0,67.82640625,-9.52,0.7040603125,32.09
2021-07-08 15:15:57.492187500,-31.0,5.0,56.0,67.825703125,-10.18,0.70386015625,32.09
2021-07-08 15:15:57.500000000,-31.0,5.0,56.0,67.825,-10.84,0.70366,32.09
2021-07-08 15:15:57.507812500,-31.0,5.25,56.0,67.824296875,-11.555,0.7037400625,32.09
2021-07-08 15:15:57.515625000,-31.0,5.5,56.0,67.82359375,-12.27,0.7038201249999999,32.09
2021-07-08 15:15:57.523437500,-31.0,5.75,56.0,67.822890625,-13.045,0.7039001874999999,32.09
2021-07-08 15:15:57.531250000,-31.0,6.0,56.0,67.8221875,-13.82,0.70398025,32.09
2021-07-08 15:15:57.539062500,-31.0,6.0,56.0,67.821484375,-14.690000000000001,0.7040603125,32.09
2021-07-08 15:15:57.546875000,-31.0,6.0,56.0,67.82078125,-15.56,0.7041403749999999,32.09
2021-07-08 15:15:57.554687500,-31.0,6.0,56.0,67.82007812500001,-16.545,0.7042204375,32.09
2021-07-08 15:15:57.562500000,-31.0,6.0,56.0,67.81937500000001,-17.53,0.7043005,32.09
2021-07-08 15:15:57.570312500,-31.0,5.75,56.0,67.818671875,-18.625,0.7043805624999999,32.09
2021-07-08 15:15:57.578125000,-31.0,5.5,56.0,67.81796875,-19.72,0.704460625,32.09
2021-07-08 15:15:57.585937500,-31.0,5.25,56.0,67.817265625,-20.86,0.7045406875,32.09
2021-07-08 15:15:57.593750000,-31.0,5.0,56.0,67.8165625,-22.0,0.70462075,32.09
2021-07-08 15:15:57.601562500,-31.0,5.25,56.0,67.815859375,-23.045,0.7047008124999999,32.09
2021-07-08 15:15:57.609375000,-31.0,5.5,56.0,67.81515625,-24.09,0.704780875,32.09
2021-07-08 15:15:57.617187500,-31.0,5.75,56.0,67.814453125,-24.869999999999997,0.7048609375,32.09
2021-07-08 15:15:57.625000000,-31.0,6.0,56.0,67.81375,-25.65,0.704941,32.09
2021-07-08 15:15:57.632812500,-31.0,5.75,56.0,67.813046875,-25.96,0.7050210625,32.09
2021-07-08 15:15:57.640625000,-31.0,5.5,56.0,67.81234375,-26.27,0.705101125,32.09
2021-07-08 15:15:57.648437500,-31.0,5.25,56.0,67.811640625,-26.009999999999998,0.7051811875,32.09
2021-07-08 15:15:57.656250000,-31.0,5.0,56.0,67.81093750000001,-25.75,0.70526125,32.09
2021-07-08 15:15:57.664062500,-31.0,5.0,56.0,67.81023437500001,-24.89,0.7053413125,32.09
2021-07-08 15:15:57.671875000,-31.0,5.0,56.0,67.80953125,-24.03,0.705421375,32.09
2021-07-08 15:15:57.679687500,-31.0,5.0,56.0,67.808828125,-22.700000000000003,0.7055014375,32.09
2021-07-08 15:15:57.687500000,-31.0,5.0,56.0,67.808125,-21.37,0.7055815,32.09
2021-07-08 15:15:57.695312500,-31.0,5.25,56.0,67.807421875,-19.775,0.7056615625,32.09
2021-07-08 15:15:57.703125000,-31.0,5.5,56.0,67.80671875,-18.18,0.705741625,32.09
2021-07-08 15:15:57.710937500,-31.0,5.75,56.0,67.806015625,-16.53,0.7058216875,32.09
2021-07-08 15:15:57.718750000,-31.0,6.0,56.0,67.8053125,-14.88,0.70590175,32.09
2021-07-08 15:15:57.726562500,-31.0,5.75,56.0,67.804609375,-13.34,0.7059818125,32.09
2021-07-08 15:15:57.734375000,-31.0,5.5,56.0,67.80390625,-11.8,0.7060618750000001,32.09
2021-07-08 15:15:57.742187500,-31.0,5.25,56.0,67.803203125,-10.43,0.7061419375,32.09
2021-07-08 15:15:57.750000000,-31.0,5.0,56.0,67.80250000000001,-9.06,0.706222,32.09
2021-07-08 15:15:57.757812500,-31.0,5.0,56.0,67.80179687500001,-7.86,0.706382125,32.09
2021-07-08 15:15:57.765625000,-31.0,5.0,56.0,67.80109375,-6.66,0.70654225,32.09
2021-07-08 15:15:57.773437500,-31.0,5.0,56.0,67.800390625,-5.57,0.706702375,32.09
2021-07-08 15:15:57.781250000,-31.0,5.0,56.0,67.7996875,-4.48,0.7068625000000001,32.09
2021-07-08 15:15:57.789062500,-31.0,5.0,56.0,67.798984375,-3.47,0.707022625,32.09
2021-07-08 15:15:57.796875000,-31.0,5.0,56.0,67.79828125,-2.46,0.70718275,32.09
2021-07-08 15:15:57.804687500,-31.0,5.0,56.0,67.797578125,-1.505,0.707342875,32.09
2021-07-08 15:15:57.812500000,-31.0,5.0,56.0,67.796875,-0.55,0.707503,32.09
2021-07-08 15:15:57.820312500,-31.0,5.25,56.0,67.796171875,0.32499999999999996,0.7076631250000001,32.09
2021-07-08 15:15:57.828125000,-31.0,5.5,56.0,67.79546875,1.2,0.70782325,32.09
2021-07-08 15:15:57.835937500,-31.0,5.75,56.0,67.794765625,1.96,0.707983375,32.09
2021-07-08 15:15:57.843750000,-31.0,6.0,56.0,67.7940625,2.72,0.7081435,32.09
2021-07-08 15:15:57.851562500,-31.0,6.0,56.0,67.79335937500001,3.3550000000000004,0.708303625,32.09
2021-07-08 15:15:57.859375000,-31.0,6.0,56.0,67.79265625000001,3.99,0.7084637500000001,32.09
2021-07-08 15:15:57.867187500,-31.0,6.0,56.0,67.791953125,4.49,0.708623875,32.09
2021-07-08 15:15:57.875000000,-31.0,6.0,56.0,67.79125,4.99,0.7087840000000001,32.09
2021-07-08 15:15:57.882812500,-31.0,6.0,56.0,67.790546875,5.385,0.708944125,32.09
2021-07-08 15:15:57.890625000,-31.0,6.0,56.0,67.78984375,5.78,0.70910425,32.09
2021-07-08 15:15:57.898437500,-31.0,6.0,56.0,67.789140625,6.08,0.7092643750000001,32.09
2021-07-08 15:15:57.906250000,-31.0,6.0,56.0,67.7884375,6.38,0.7094245,32.09
2021-07-08 15:15:57.914062500,-31.0,5.75,56.0,67.787734375,6.609999999999999,0.7095846250000001,32.09
2021-07-08 15:15:57.921875000,-31.0,5.5,56.0,67.78703125,6.84,0.70974475,32.09
2021-07-08 15:15:57.929687500,-31.0,5.25,56.0,67.786328125,7.029999999999999,0.709904875,32.09
2021-07-08 15:15:57.937500000,-31.0,5.0,56.0,67.785625,7.22,0.7100650000000001,32.09
2021-07-08 15:15:57.945312500,-31.0,5.0,56.0,67.784921875,7.375,0.710225125,32.09
2021-07-08 15:15:57.953125000,-31.0,5.0,56.0,67.78421875000001,7.53,0.7103852500000001,32.09
2021-07-08 15:15:57.960937500,-31.0,5.0,56.0,67.783515625,7.67,0.710545375,32.09
2021-07-08 15:15:57.968750000,-31.0,5.0,56.0,67.7828125,7.81,0.7107055,32.09
2021-07-08 15:15:57.976562500,-30.75,5.0,56.0,67.782109375,7.949999999999999,0.7108656250000001,32.09
2021-07-08 15:15:57.984375000,-30.5,5.0,56.0,67.78140625,8.09,0.71102575,32.09
2021-07-08 15:15:57.992187500,-30.25,5.0,56.0,67.780703125,8.23,0.7111858750000001,32.09
2021-07-08 15:15:58.000000000,-30.0,5.0,56.0,67.78,8.37,0.711346,32.09
2021-07-08 15:15:58.007812500,-30.25,5.0,56.0,67.779375,8.495,0.71114584375,32.09
2021-07-08 15:15:58.015625000,-30.5,5.0,56.0,67.77875,8.62,0.7109456875,32.09
2021-07-08 15:15:58.023437500,-30.75,5.0,56.0,67.778125,8.7,0.7107455312500001,32.09
2021-07-08 15:15:58.031250000,-31.0,5.0,56.0,67.7775,8.78,0.710545375,32.09
2021-07-08 15:15:58.039062500,-31.0,5.25,56.0,67.776875,8.795,0.71034521875,32.09
2021-07-08 15:15:58.046875000,-31.0,5.5,56.0,67.77625,8.81,0.7101450625000001,32.09
2021-07-08 15:15:58.054687500,-31.0,5.75,56.0,67.775625,8.760000000000002,0.7099449062500001,32.09
2021-07-08 15:15:58.062500000,-31.0,6.0,56.0,67.775,8.71,0.70974475,32.09
2021-07-08 15:15:58.070312500,-31.0,6.0,56.0,67.774375,8.600000000000001,0.70954459375,32.09
2021-07-08 15:15:58.078125000,-31.0,6.0,56.0,67.77375,8.49,0.7093444375,32.09
2021-07-08 15:15:58.085937500,-31.0,6.0,56.0,67.77312500000001,8.344999999999999,0.7091442812500001,32.09
2021-07-08 15:15:58.093750000,-31.0,6.0,56.0,67.77250000000001,8.2,0.708944125,32.09
2021-07-08 15:15:58.101562500,-30.75,6.0,56.0,67.771875,8.045,0.70874396875,32.09
2021-07-08 15:15:58.109375000,-30.5,6.0,56.0,67.77125,7.89,0.7085438125000001,32.09
2021-07-08 15:15:58.117187500,-30.25,6.0,56.0,67.770625,7.715,0.7083436562500001,32.09
2021-07-08 15:15:58.125000000,-30.0,6.0,56.0,67.77,7.54,0.7081435,32.09
2021-07-08 15:15:58.132812500,-30.25,6.0,56.0,67.769375,7.335,0.70794334375,32.09
2021-07-08 15:15:58.140625000,-30.5,6.0,56.0,67.76875,7.13,0.7077431875,32.09
2021-07-08 15:15:58.148437500,-30.75,6.0,56.0,67.768125,6.855,0.7075430312500001,32.09
2021-07-08 15:15:58.156250000,-31.0,6.0,56.0,67.7675,6.58,0.707342875,32.09
2021-07-08 15:15:58.164062500,-31.0,6.0,56.0,67.766875,6.220000000000001,0.70714271875,32.09
2021-07-08 15:15:58.171875000,-31.0,6.0,56.0,67.76625,5.86,0.7069425625000001,32.09
2021-07-08 15:15:58.179687500,-31.0,6.0,56.0,67.765625,5.41,0.7067424062500001,32.09
2021-07-08 15:15:58.187500000,-31.0,6.0,56.0,67.765,4.96,0.70654225,32.09
2021-07-08 15:15:58.195312500,-30.75,6.0,56.0,67.764375,4.4399999999999995,0.70634209375,32.09
2021-07-08 15:15:58.203125000,-30.5,6.0,56.0,67.76375,3.92,0.7061419375,32.09
2021-07-08 15:15:58.210937500,-30.25,6.0,56.0,67.763125,3.37,0.7059417812500001,32.09
2021-07-08 15:15:58.218750000,-30.0,6.0,56.0,67.7625,2.82,0.705741625,32.09
2021-07-08 15:15:58.226562500,-30.25,6.0,56.0,67.761875,2.2649999999999997,0.70554146875,32.09
2021-07-08 15:15:58.234375000,-30.5,6.0,56.0,67.76125,1.71,0.7053413125000001,32.09
2021-07-08 15:15:58.242187500,-30.75,6.0,56.0,67.760625,1.155,0.7051411562500001,32.09
2021-07-08 15:15:58.250000000,-31.0,6.0,56.0,67.76,0.6,0.704941,32.09
2021-07-08 15:15:58.257812500,-30.75,6.0,56.0,67.759375,-0.015000000000000013,0.70506109375,32.09
2021-07-08 15:15:58.265625000,-30.5,6.0,56.0,67.75875,-0.63,0.7051811875,32.09
2021-07-08 15:15:58.273437500,-30.25,6.0,56.0,67.758125,-1.3850000000000002,0.70530128125,32.09
2021-07-08 15:15:58.281250000,-30.0,6.0,56.0,67.75750000000001,-2.14,0.705421375,32.09
2021-07-08 15:15:58.289062500,-30.25,6.0,56.0,67.75687500000001,-3.08,0.70554146875,32.09
2021-07-08 15:15:58.296875000,-30.5,6.0,56.0,67.75625000000001,-4.02,0.7056615625,32.09
2021-07-08 15:15:58.304687500,-30.75,6.0,56.0,67.755625,-5.14,0.70578165625,32.09
2021-07-08 15:15:58.312500000,-31.0,6.0,56.0,67.755,-6.26,0.70590175,32.09
2021-07-08 15:15:58.320312500,-31.0,6.0,56.0,67.754375,-7.465,0.70602184375,32.09
2021-07-08 15:15:58.328125000,-31.0,6.0,56.0,67.75375,-8.67,0.7061419375,32.09
2021-07-08 15:15:58.335937500,-31.0,6.0,56.0,67.753125,-9.795,0.70626203125,32.09
2021-07-08 15:15:58.343750000,-31.0,6.0,56.0,67.7525,-10.92,0.706382125,32.09
2021-07-08 15:15:58.351562500,-31.0,6.0,56.0,67.751875,-11.844999999999999,0.70650221875,32.09
2021-07-08 15:15:58.359375000,-31.0,6.0,56.0,67.75125,-12.77,0.7066223125,32.09
2021-07-08 15:15:58.367187500,-31.0,6.0,56.0,67.750625,-13.445,0.70674240625,32.09
2021-07-08 15:15:58.375000000,-31.0,6.0,56.0,67.75,-14.12,0.7068625,32.09
2021-07-08 15:15:58.382812500,-30.75,6.0,56.0,67.749375,-14.61,0.70698259375,32.09
2021-07-08 15:15:58.390625000,-30.5,6.0,56.0,67.74875,-15.1,0.7071026875,32.09
2021-07-08 15:15:58.398437500,-30.25,6.0,56.0,67.748125,-15.57,0.70722278125,32.09
2021-07-08 15:15:58.406250000,-30.0,6.0,56.0,67.7475,-16.04,0.707342875,32.09
2021-07-08 15:15:58.414062500,-30.0,6.0,56.0,67.746875,-16.665,0.70746296875,32.09
2021-07-08 15:15:58.421875000,-30.0,6.0,56.0,67.74625,-17.29,0.7075830625,32.09
2021-07-08 15:15:58.429687500,-30.0,6.0,56.0,67.745625,-18.17,0.70770315625,32.09
2021-07-08 15:15:58.437500000,-30.0,6.0,56.0,67.745,-19.05,0.70782325,32.09
2021-07-08 15:15:58.445312500,-30.0,6.0,56.0,67.744375,-20.18,0.70794334375,32.09
2021-07-08 15:15:58.453125000,-30.0,6.0,56.0,67.74375,-21.31,0.7080634375,32.09
2021-07-08 15:15:58.460937500,-30.0,6.0,56.0,67.743125,-22.545,0.70818353125,32.09
2021-07-08 15:15:58.468750000,-30.0,6.0,56.0,67.7425,-23.78,0.708303625,32.09
