TimeStamp,empatica.acc.x,empatica.acc.y,empatica.acc.z,empatica.hr,empatica.bvp,empatica.eda,empatica.temp
2021-06-23 10:35:06.351562500,-24.75,6.0,58.0,101.424609375,-188.20999999999998,7.2679900625,29.97
2021-06-23 10:35:06.359375000,-24.5,6.0,58.0,101.42515625,-187.38,7.268350375,29.97
2021-06-23 10:35:06.367187500,-24.25,6.0,58.0,101.425703125,-185.135,7.2687106875,29.97
2021-06-23 10:35:06.375000000,-24.0,6.0,58.0,101.42625000000001,-182.89,7.269071,29.97
2021-06-23 10:35:06.382812500,-24.0,5.75,58.25,101.42679687500001,-178.88,7.2694313125,29.97
2021-06-23 10:35:06.390625000,-24.0,5.5,58.5,101.42734375,-174.87,7.269791625,29.97
2021-06-23 10:35:06.398437500,-24.0,5.25,58.75,101.427890625,-168.79500000000002,7.2701519375,29.97
2021-06-23 10:35:06.406250000,-24.0,5.0,59.0,101.4284375,-162.72,7.2705122499999995,29.97
2021-06-23 10:35:06.414062500,-24.0,5.0,59.0,101.428984375,-154.485,7.2708725625,29.97
2021-06-23 10:35:06.421875000,-24.0,5.0,59.0,101.42953125,-146.25,7.271232875,29.97
2021-06-23 10:35:06.429687500,-24.0,5.0,59.0,101.43007812500001,-136.02,7.2715931875,29.97
2021-06-23 10:35:06.437500000,-24.0,5.0,59.0,101.430625,-125.79,7.2719534999999995,29.97
2021-06-23 10:35:06.445312500,-24.0,5.0,59.0,101.431171875,-113.98,7.272313812499999,29.97
2021-06-23 10:35:06.453125000,-24.0,5.0,59.0,101.43171875,-102.17,7.272674125,29.97
2021-06-23 10:35:06.460937500,-24.0,5.0,59.0,101.432265625,-89.42500000000001,7.2730344375,29.97
2021-06-23 10:35:06.468750000,-24.0,5.0,59.0,101.4328125,-76.68,7.27339475,29.97
2021-06-23 10:35:06.476562500,-24.25,5.25,58.75,101.43335937500001,-63.800000000000004,7.273755062499999,29.97
2021-06-23 10:35:06.484375000,-24.5,5.5,58.5,101.43390625,-50.92,7.274115375,29.97
2021-06-23 10:35:06.492187500,-24.75,5.75,58.25,101.434453125,-38.765,7.2744756875,29.97
2021-06-23 10:35:06.500000000,-25.0,6.0,58.0,101.435,-26.61,7.274836,29.97
2021-06-23 10:35:06.507812500,-25.0,6.0,58.0,101.435546875,-15.995,7.275276375,29.97
2021-06-23 10:35:06.515625000,-25.0,6.0,58.0,101.43609375,-5.38,7.27571675,29.97
2021-06-23 10:35:06.523437500,-25.0,6.0,58.0,101.436640625,3.0650000000000004,7.276157125,29.97
2021-06-23 10:35:06.531250000,-25.0,6.0,58.0,101.43718750000001,11.51,7.276597499999999,29.97
2021-06-23 10:35:06.539062500,-24.75,5.75,58.25,101.437734375,17.51,7.2770378749999995,29.97
2021-06-23 10:35:06.546875000,-24.5,5.5,58.5,101.43828125,23.51,7.27747825,29.97
2021-06-23 10:35:06.554687500,-24.25,5.25,58.75,101.438828125,27.18,7.277918625,29.97
2021-06-23 10:35:06.562500000,-24.0,5.0,59.0,101.439375,30.85,7.278359,29.97
2021-06-23 10:35:06.570312500,-24.25,5.0,58.75,101.439921875,32.67,7.278799375,29.97
2021-06-23 10:35:06.578125000,-24.5,5.0,58.5,101.44046875000001,34.49,7.2792397499999995,29.97
2021-06-23 10:35:06.585937500,-24.75,5.0,58.25,101.441015625,35.144999999999996,7.279680125,29.97
2021-06-23 10:35:06.593750000,-25.0,5.0,58.0,101.4415625,35.8,7.2801205,29.97
2021-06-23 10:35:06.601562500,-25.0,5.25,58.0,101.442109375,36.025,7.280560875,29.97
2021-06-23 10:35:06.609375000,-25.0,5.5,58.0,101.44265625,36.25,7.28100125,29.97
2021-06-23 10:35:06.617187500,-25.0,5.75,58.0,101.443203125,36.665,7.281441625,29.97
2021-06-23 10:35:06.625000000,-25.0,6.0,58.0,101.44375,37.08,7.2818819999999995,29.97
2021-06-23 10:35:06.632812500,-25.0,5.75,58.0,101.444296875,38.105000000000004,7.282322375,29.97
2021-06-23 10:35:06.640625000,-25.0,5.5,58.0,101.44484375,39.13,7.28276275,29.97
2021-06-23 10:35:06.648437500,-25.0,5.25,58.0,101.445390625,40.935,7.283203125,29.97
2021-06-23 10:35:06.656250000,-25.0,5.0,58.0,101.4459375,42.74,7.2836435,29.97
2021-06-23 10:35:06.664062500,-25.0,5.25,58.0,101.446484375,45.25,7.284083875,29.97
2021-06-23 10:35:06.671875000,-25.0,5.5,58.0,101.44703125,47.76,7.2845242500000005,29.97
2021-06-23 10:35:06.679687500,-25.0,5.75,58.0,101.447578125,50.665,7.284964625,29.97
2021-06-23 10:35:06.687500000,-25.0,6.0,58.0,101.448125,53.57,7.285405,29.97
2021-06-23 10:35:06.695312500,-25.0,5.75,58.25,101.448671875,56.425,7.285845375,29.97
2021-06-23 10:35:06.703125000,-25.0,5.5,58.5,101.44921875,59.28,7.28628575,29.97
2021-06-23 10:35:06.710937500,-25.0,5.25,58.75,101.449765625,61.625,7.286726125,29.97
2021-06-23 10:35:06.718750000,-25.0,5.0,59.0,101.4503125,63.97,7.2871665000000005,29.97
2021-06-23 10:35:06.726562500,-25.0,5.0,59.0,101.45085937500001,65.47999999999999,7.287606875,29.97
2021-06-23 10:35:06.734375000,-25.0,5.0,59.0,101.45140625,66.99,7.28804725,29.97
2021-06-23 10:35:06.742187500,-25.0,5.0,59.0,101.451953125,67.58,7.288487625,29.97
2021-06-23 10:35:06.750000000,-25.0,5.0,59.0,101.4525,68.17,7.288928,29.97
2021-06-23 10:35:06.757812500,-24.75,5.0,59.0,101.453046875,68.00999999999999,7.289008093750001,29.97
2021-06-23 10:35:06.765625000,-24.5,5.0,59.0,101.45359375,67.85,7.2890881875,29.97
2021-06-23 10:35:06.773437500,-24.25,5.0,59.0,101.454140625,67.255,7.28916828125,29.97
2021-06-23 10:35:06.781250000,-24.0,5.0,59.0,101.4546875,66.66,7.289248375000001,29.97
2021-06-23 10:35:06.789062500,-24.25,5.0,58.75,101.455234375,65.925,7.28932846875,29.97
2021-06-23 10:35:06.796875000,-24.5,5.0,58.5,101.45578125,65.19,7.2894085625,29.97
2021-06-23 10:35:06.804687500,-24.75,5.0,58.25,101.456328125,64.41499999999999,7.2894886562500005,29.97
2021-06-23 10:35:06.812500000,-25.0,5.0,58.0,101.456875,63.64,7.28956875,29.97
2021-06-23 10:35:06.820312500,-25.0,5.0,58.0,101.457421875,62.715,7.28964884375,29.97
2021-06-23 10:35:06.828125000,-25.0,5.0,58.0,101.45796875,61.79,7.2897289375000005,29.97
2021-06-23 10:35:06.835937500,-25.0,5.0,58.0,101.458515625,60.504999999999995,7.28980903125,29.97
2021-06-23 10:35:06.843750000,-25.0,5.0,58.0,101.4590625,59.22,7.289889125,29.97
2021-06-23 10:35:06.851562500,-25.25,5.25,58.0,101.459609375,57.435,7.2899692187500005,29.97
2021-06-23 10:35:06.859375000,-25.5,5.5,58.0,101.46015625,55.65,7.2900493125,29.97
2021-06-23 10:35:06.867187500,-25.75,5.75,58.0,101.460703125,53.4,7.29012940625,29.97
2021-06-23 10:35:06.875000000,-26.0,6.0,58.0,101.46125,51.15,7.2902095,29.97
2021-06-23 10:35:06.882812500,-26.0,6.0,58.0,101.461796875,48.675,7.29028959375,29.97
2021-06-23 10:35:06.890625000,-26.0,6.0,58.0,101.46234375,46.2,7.2903696875,29.97
2021-06-23 10:35:06.898437500,-26.0,6.0,58.0,101.462890625,43.760000000000005,7.2904497812499995,29.97
2021-06-23 10:35:06.906250000,-26.0,6.0,58.0,101.4634375,41.32,7.290529875,29.97
2021-06-23 10:35:06.914062500,-26.0,5.75,58.0,101.463984375,39.03,7.29060996875,29.97
2021-06-23 10:35:06.921875000,-26.0,5.5,58.0,101.46453125,36.74,7.2906900624999995,29.97
2021-06-23 10:35:06.929687500,-26.0,5.25,58.0,101.465078125,34.394999999999996,7.29077015625,29.97
2021-06-23 10:35:06.937500000,-26.0,5.0,58.0,101.465625,32.05,7.29085025,29.97
2021-06-23 10:35:06.945312500,-26.0,5.0,58.0,101.466171875,29.189999999999998,7.2909303437499995,29.97
2021-06-23 10:35:06.953125000,-26.0,5.0,58.0,101.46671875,26.33,7.2910104375,29.97
2021-06-23 10:35:06.960937500,-26.0,5.0,58.0,101.467265625,22.345,7.29109053125,29.97
2021-06-23 10:35:06.968750000,-26.0,5.0,58.0,101.4678125,18.36,7.2911706249999995,29.97
2021-06-23 10:35:06.976562500,-25.75,5.0,58.0,101.468359375,12.77,7.29125071875,29.97
2021-06-23 10:35:06.984375000,-25.5,5.0,58.0,101.46890625,7.18,7.2913308125,29.97
2021-06-23 10:35:06.992187500,-25.25,5.0,58.0,101.469453125,-0.15500000000000025,7.291410906249999,29.97
2021-06-23 10:35:07.000000000,-25.0,5.0,58.0,101.47,-7.49,7.291491,29.97
2021-06-23 10:35:07.007812500,-25.25,5.0,58.0,101.470078125,-16.235,7.29125078125,29.970625
2021-06-23 10:35:07.015625000,-25.5,5.0,58.0,101.47015625,-24.98,7.2910105624999995,29.971249999999998
2021-06-23 10:35:07.023437500,-25.75,5.0,58.0,101.470234375,-34.345,7.290770343749999,29.971874999999997
2021-06-23 10:35:07.031250000,-26.0,5.0,58.0,101.4703125,-43.71,7.290530125,29.9725
2021-06-23 10:35:07.039062500,-26.0,5.0,58.0,101.470390625,-52.605000000000004,7.29028990625,29.973125
2021-06-23 10:35:07.046875000,-26.0,5.0,58.0,101.47046875,-61.5,7.2900496875,29.97375
2021-06-23 10:35:07.054687500,-26.0,5.0,58.0,101.470546875,-68.735,7.28980946875,29.974375
2021-06-23 10:35:07.062500000,-26.0,5.0,58.0,101.470625,-75.97,7.28956925,29.974999999999998
2021-06-23 10:35:07.070312500,-25.75,5.0,58.25,101.470703125,-80.58,7.289329031249999,29.975624999999997
2021-06-23 10:35:07.078125000,-25.5,5.0,58.5,101.47078125,-85.19,7.2890888125,29.97625
2021-06-23 10:35:07.085937500,-25.25,5.0,58.75,101.470859375,-86.625,7.28884859375,29.976875
2021-06-23 10:35:07.093750000,-25.0,5.0,59.0,101.4709375,-88.06,7.288608375,29.9775
2021-06-23 10:35:07.101562500,-25.0,5.0,59.0,101.47101562499999,-86.36,7.28836815625,29.978125
2021-06-23 10:35:07.109375000,-25.0,5.0,59.0,101.47109375,-84.66,7.2881279375,29.978749999999998
2021-06-23 10:35:07.117187500,-25.0,5.0,59.0,101.471171875,-80.39,7.2878877187499995,29.979374999999997
2021-06-23 10:35:07.125000000,-25.0,5.0,59.0,101.47125,-76.12,7.2876475,29.979999999999997
2021-06-23 10:35:07.132812500,-25.0,5.25,58.75,101.471328125,-70.24000000000001,7.28740728125,29.980625
2021-06-23 10:35:07.140625000,-25.0,5.5,58.5,101.47140625,-64.36,7.2871670625,29.98125
2021-06-23 10:35:07.148437500,-25.0,5.75,58.25,101.471484375,-57.955,7.28692684375,29.981875
2021-06-23 10:35:07.156250000,-25.0,6.0,58.0,101.4715625,-51.55,7.286686625,29.982499999999998
2021-06-23 10:35:07.164062500,-25.25,5.75,58.0,101.471640625,-45.565,7.28644640625,29.983124999999998
2021-06-23 10:35:07.171875000,-25.5,5.5,58.0,101.47171875,-39.58,7.2862061874999995,29.983749999999997
2021-06-23 10:35:07.179687500,-25.75,5.25,58.0,101.471796875,-34.68,7.28596596875,29.984375
2021-06-23 10:35:07.187500000,-26.0,5.0,58.0,101.471875,-29.78,7.28572575,29.985
2021-06-23 10:35:07.195312500,-26.0,5.0,58.0,101.471953125,-26.310000000000002,7.28548553125,29.985625
2021-06-23 10:35:07.203125000,-26.0,5.0,58.0,101.47203125,-22.84,7.2852453125,29.98625
2021-06-23 10:35:07.210937500,-26.0,5.0,58.0,101.472109375,-20.86,7.28500509375,29.986874999999998
2021-06-23 10:35:07.218750000,-26.0,5.0,58.0,101.4721875,-18.88,7.284764875,29.987499999999997
2021-06-23 10:35:07.226562500,-26.0,5.0,58.0,101.472265625,-18.275,7.28452465625,29.988125
2021-06-23 10:35:07.234375000,-26.0,5.0,58.0,101.47234375,-17.67,7.2842844375,29.98875
2021-06-23 10:35:07.242187500,-26.0,5.0,58.0,101.472421875,-18.19,7.28404421875,29.989375
2021-06-23 10:35:07.250000000,-26.0,5.0,58.0,101.4725,-18.71,7.283804,29.99
2021-06-23 10:35:07.257812500,-25.5,4.75,58.25,101.472578125,-19.98,7.283804,29.99
2021-06-23 10:35:07.265625000,-25.0,4.5,58.5,101.47265625,-21.25,7.283804,29.99
2021-06-23 10:35:07.273437500,-24.5,4.25,58.75,101.472734375,-22.795,7.283804,29.99
2021-06-23 10:35:07.281250000,-24.0,4.0,59.0,101.4728125,-24.34,7.283804,29.99
2021-06-23 10:35:07.289062500,-24.0,4.25,59.0,101.472890625,-25.65,7.283804,29.99
2021-06-23 10:35:07.296875000,-24.0,4.5,59.0,101.47296875,-26.96,7.283804,29.99
2021-06-23 10:35:07.304687500,-24.0,4.75,59.0,101.473046875,-27.57,7.283804,29.99
2021-06-23 10:35:07.312500000,-24.0,5.0,59.0,101.473125,-28.18,7.283804,29.99
2021-06-23 10:35:07.320312500,-24.5,5.0,58.75,101.473203125,-27.835,7.283804,29.99
2021-06-23 10:35:07.328125000,-25.0,5.0,58.5,101.47328125,-27.49,7.283804,29.99
2021-06-23 10:35:07.335937500,-25.5,5.0,58.25,101.473359375,-26.229999999999997,7.283804,29.99
2021-06-23 10:35:07.343750000,-26.0,5.0,58.0,101.4734375,-24.97,7.283804,29.99
2021-06-23 10:35:07.351562500,-26.0,5.25,58.0,101.473515625,-23.11,7.283804,29.99
2021-06-23 10:35:07.359375000,-26.0,5.5,58.0,101.47359375,-21.25,7.283804,29.99
2021-06-23 10:35:07.367187500,-26.0,5.75,58.0,101.473671875,-19.285,7.283804,29.99
2021-06-23 10:35:07.375000000,-26.0,6.0,58.0,101.47375,-17.32,7.283804,29.99
2021-06-23 10:35:07.382812500,-26.0,5.75,58.0,101.473828125,-15.725000000000001,7.283804,29.99
2021-06-23 10:35:07.390625000,-26.0,5.5,58.0,101.47390625,-14.13,7.283804,29.99
2021-06-23 10:35:07.398437500,-26.0,5.25,58.0,101.473984375,-13.195,7.283804,29.99
2021-06-23 10:35:07.406250000,-26.0,5.0,58.0,101.4740625,-12.26,7.283804,29.99
2021-06-23 10:35:07.414062500,-26.0,5.0,58.0,101.474140625,-12.004999999999999,7.283804,29.99
2021-06-23 10:35:07.421875000,-26.0,5.0,58.0,101.47421875,-11.75,7.283804,29.99
2021-06-23 10:35:07.429687500,-26.0,5.0,58.0,101.47429687500001,-11.969999999999999,7.283804,29.99
2021-06-23 10:35:07.437500000,-26.0,5.0,58.0,101.474375,-12.19,7.283804,29.99
2021-06-23 10:35:07.445312500,-26.0,5.0,58.0,101.474453125,-12.585,7.283804,29.99
2021-06-23 10:35:07.453125000,-26.0,5.0,58.0,101.47453125,-12.98,7.283804,29.99
2021-06-23 10:35:07.460937500,-26.0,5.0,58.0,101.474609375,-13.285,7.283804,29.99
2021-06-23 10:35:07.468750000,-26.0,5.0,58.0,101.4746875,-13.59,7.283804,29.99
2021-06-23 10:35:07.476562500,-25.75,5.0,58.0,101.474765625,-13.684999999999999,7.283804,29.99
2021-06-23 10:35:07.484375000,-25.5,5.0,58.0,101.47484375,-13.78,7.283804,29.99
2021-06-23 10:35:07.492187500,-25.25,5.0,58.0,101.474921875,-13.684999999999999,7.283804,29.99
2021-06-23 10:35:07.500000000,-25.0,5.0,58.0,101.475,-13.59,7.283804,29.99
2021-06-23 10:35:07.507812500,-25.25,5.0,58.0,101.475078125,-13.434999999999999,7.283804,29.99
2021-06-23 10:35:07.515625000,-25.5,5.0,58.0,101.47515625,-13.28,7.283804,29.99
2021-06-23 10:35:07.523437500,-25.75,5.0,58.0,101.475234375,-13.21,7.283804,29.99
2021-06-23 10:35:07.531250000,-26.0,5.0,58.0,101.4753125,-13.14,7.283804,29.99
2021-06-23 10:35:07.539062500,-26.0,5.0,58.0,101.475390625,-13.27,7.283804,29.99
2021-06-23 10:35:07.546875000,-26.0,5.0,58.0,101.47546875,-13.4,7.283804,29.99
2021-06-23 10:35:07.554687500,-26.0,5.0,58.0,101.475546875,-13.785,7.283804,29.99
2021-06-23 10:35:07.562500000,-26.0,5.0,58.0,101.47562500000001,-14.17,7.283804,29.99
2021-06-23 10:35:07.570312500,-26.25,5.25,57.75,101.475703125,-14.844999999999999,7.283804,29.99
2021-06-23 10:35:07.578125000,-26.5,5.5,57.5,101.47578125,-15.52,7.283804,29.99
2021-06-23 10:35:07.585937500,-26.75,5.75,57.25,101.475859375,-16.465,7.283804,29.99
2021-06-23 10:35:07.593750000,-27.0,6.0,57.0,101.4759375,-17.41,7.283804,29.99
2021-06-23 10:35:07.601562500,-26.75,5.5,57.25,101.476015625,-18.57,7.283804,29.99
2021-06-23 10:35:07.609375000,-26.5,5.0,57.5,101.47609375,-19.73,7.283804,29.99
2021-06-23 10:35:07.617187500,-26.25,4.5,57.75,101.476171875,-20.950000000000003,7.283804,29.99
2021-06-23 10:35:07.625000000,-26.0,4.0,58.0,101.47625000000001,-22.17,7.283804,29.99
2021-06-23 10:35:07.632812500,-25.75,4.25,58.0,101.47632812500001,-23.200000000000003,7.283804,29.99
2021-06-23 10:35:07.640625000,-25.5,4.5,58.0,101.47640625,-24.23,7.283804,29.99
2021-06-23 10:35:07.648437500,-25.25,4.75,58.0,101.476484375,-24.759999999999998,7.283804,29.99
2021-06-23 10:35:07.656250000,-25.0,5.0,58.0,101.4765625,-25.29,7.283804,29.99
2021-06-23 10:35:07.664062500,-25.0,5.0,58.0,101.476640625,-25.015,7.283804,29.99
2021-06-23 10:35:07.671875000,-25.0,5.0,58.0,101.47671875,-24.74,7.283804,29.99
2021-06-23 10:35:07.679687500,-25.0,5.0,58.0,101.476796875,-23.5,7.283804,29.99
2021-06-23 10:35:07.687500000,-25.0,5.0,58.0,101.476875,-22.26,7.283804,29.99
2021-06-23 10:35:07.695312500,-25.0,5.0,58.0,101.47695312500001,-20.07,7.283804,29.99
2021-06-23 10:35:07.703125000,-25.0,5.0,58.0,101.47703125,-17.88,7.283804,29.99
2021-06-23 10:35:07.710937500,-25.0,5.0,58.0,101.477109375,-14.98,7.283804,29.99
2021-06-23 10:35:07.718750000,-25.0,5.0,58.0,101.4771875,-12.08,7.283804,29.99
2021-06-23 10:35:07.726562500,-25.0,5.0,58.25,101.477265625,-8.845,7.283804,29.99
2021-06-23 10:35:07.734375000,-25.0,5.0,58.5,101.47734375,-5.61,7.283804,29.99
2021-06-23 10:35:07.742187500,-25.0,5.0,58.75,101.477421875,-2.47,7.283804,29.99
2021-06-23 10:35:07.750000000,-25.0,5.0,59.0,101.4775,0.67,7.283804,29.99
2021-06-23 10:35:07.757812500,-25.0,5.0,58.75,101.47757812500001,3.395,7.28320346875,29.99
2021-06-23 10:35:07.765625000,-25.0,5.0,58.5,101.47765625000001,6.12,7.2826029375,29.99
2021-06-23 10:35:07.773437500,-25.0,5.0,58.25,101.477734375,8.25,7.28200240625,29.99
2021-06-23 10:35:07.781250000,-25.0,5.0,58.0,101.4778125,10.38,7.281401875,29.99
2021-06-23 10:35:07.789062500,-25.25,5.0,58.0,101.477890625,11.89,7.28080134375,29.99
2021-06-23 10:35:07.796875000,-25.5,5.0,58.0,101.47796875,13.4,7.2802008124999995,29.99
2021-06-23 10:35:07.804687500,-25.75,5.0,58.0,101.478046875,14.370000000000001,7.27960028125,29.99
2021-06-23 10:35:07.812500000,-26.0,5.0,58.0,101.478125,15.34,7.27899975,29.99
2021-06-23 10:35:07.820312500,-25.75,4.75,58.25,101.47820312500001,15.87,7.27839921875,29.99
2021-06-23 10:35:07.828125000,-25.5,4.5,58.5,101.47828125000001,16.4,7.2777986875,29.99
2021-06-23 10:35:07.835937500,-25.25,4.25,58.75,101.478359375,16.555,7.27719815625,29.99
2021-06-23 10:35:07.843750000,-25.0,4.0,59.0,101.4784375,16.71,7.276597625,29.99
2021-06-23 10:35:07.851562500,-25.0,4.5,58.75,101.478515625,16.535,7.27599709375,29.99
2021-06-23 10:35:07.859375000,-25.0,5.0,58.5,101.47859375,16.36,7.2753965625,29.99
2021-06-23 10:35:07.867187500,-25.0,5.5,58.25,101.478671875,15.89,7.27479603125,29.99
2021-06-23 10:35:07.875000000,-25.0,6.0,58.0,101.47875,15.42,7.274195499999999,29.99
2021-06-23 10:35:07.882812500,-25.25,6.0,58.0,101.478828125,14.75,7.2735949687499994,29.99
2021-06-23 10:35:07.890625000,-25.5,6.0,58.0,101.47890625000001,14.08,7.2729944374999995,29.99
2021-06-23 10:35:07.898437500,-25.75,6.0,58.0,101.47898437500001,13.385,7.27239390625,29.99
2021-06-23 10:35:07.906250000,-26.0,6.0,58.0,101.4790625,12.69,7.271793375,29.99
2021-06-23 10:35:07.914062500,-26.0,6.0,58.0,101.479140625,12.184999999999999,7.27119284375,29.99
2021-06-23 10:35:07.921875000,-26.0,6.0,58.0,101.47921875,11.68,7.2705923125,29.99
2021-06-23 10:35:07.929687500,-26.0,6.0,58.0,101.479296875,11.545,7.26999178125,29.99
2021-06-23 10:35:07.937500000,-26.0,6.0,58.0,101.479375,11.41,7.26939125,29.99
2021-06-23 10:35:07.945312500,-25.75,6.0,58.0,101.479453125,11.685,7.26879071875,29.99
2021-06-23 10:35:07.953125000,-25.5,6.0,58.0,101.47953125000001,11.96,7.2681901875,29.99
2021-06-23 10:35:07.960937500,-25.25,6.0,58.0,101.47960937500001,12.52,7.267589656249999,29.99
2021-06-23 10:35:07.968750000,-25.0,6.0,58.0,101.4796875,13.08,7.266989124999999,29.99
2021-06-23 10:35:07.976562500,-25.0,5.75,58.0,101.479765625,13.65,7.2663885937499995,29.99
2021-06-23 10:35:07.984375000,-25.0,5.5,58.0,101.47984375,14.22,7.2657880624999995,29.99
2021-06-23 10:35:07.992187500,-25.0,5.25,58.0,101.479921875,14.485,7.26518753125,29.99
2021-06-23 10:35:08.000000000,-25.0,5.0,58.0,101.48,14.75,7.264587,29.99
2021-06-23 10:35:08.007812500,-25.0,5.0,58.25,101.479921875,14.515,7.26462703125,29.99
2021-06-23 10:35:08.015625000,-25.0,5.0,58.5,101.47984375,14.28,7.2646670625,29.99
2021-06-23 10:35:08.023437500,-25.0,5.0,58.75,101.479765625,13.54,7.264707093749999,29.99
2021-06-23 10:35:08.031250000,-25.0,5.0,59.0,101.4796875,12.8,7.2647471249999995,29.99
2021-06-23 10:35:08.039062500,-25.0,5.0,58.75,101.47960937500001,11.73,7.26478715625,29.99
2021-06-23 10:35:08.046875000,-25.0,5.0,58.5,101.47953125000001,10.66,7.2648271875,29.99
2021-06-23 10:35:08.054687500,-25.0,5.0,58.25,101.479453125,9.49,7.26486721875,29.99
2021-06-23 10:35:08.062500000,-25.0,5.0,58.0,101.479375,8.32,7.26490725,29.99
2021-06-23 10:35:08.070312500,-25.25,5.0,58.0,101.479296875,7.225,7.2649472812499996,29.99
2021-06-23 10:35:08.078125000,-25.5,5.0,58.0,101.47921875,6.13,7.2649873125,29.99
2021-06-23 10:35:08.085937500,-25.75,5.0,58.0,101.479140625,5.13,7.26502734375,29.99
2021-06-23 10:35:08.093750000,-26.0,5.0,58.0,101.4790625,4.13,7.265067375,29.99
2021-06-23 10:35:08.101562500,-26.0,5.0,58.0,101.47898437500001,3.0949999999999998,7.26510740625,29.99
2021-06-23 10:35:08.109375000,-26.0,5.0,58.0,101.47890625000001,2.06,7.2651474375,29.99
2021-06-23 10:35:08.117187500,-26.0,5.0,58.0,101.478828125,0.8,7.26518746875,29.99
2021-06-23 10:35:08.125000000,-26.0,5.0,58.0,101.47875,-0.46,7.2652275,29.99
2021-06-23 10:35:08.132812500,-25.75,5.0,58.0,101.478671875,-2.1,7.26526753125,29.99
2021-06-23 10:35:08.140625000,-25.5,5.0,58.0,101.47859375,-3.74,7.2653075625,29.99
2021-06-23 10:35:08.148437500,-25.25,5.0,58.0,101.478515625,-5.800000000000001,7.26534759375,29.99
2021-06-23 10:35:08.156250000,-25.0,5.0,58.0,101.4784375,-7.86,7.265387625,29.99
2021-06-23 10:35:08.164062500,-25.0,5.0,58.0,101.478359375,-10.265,7.26542765625,29.99
2021-06-23 10:35:08.171875000,-25.0,5.0,58.0,101.47828125000001,-12.67,7.2654676875,29.99
2021-06-23 10:35:08.179687500,-25.0,5.0,58.0,101.47820312500001,-15.245000000000001,7.26550771875,29.99
2021-06-23 10:35:08.187500000,-25.0,5.0,58.0,101.478125,-17.82,7.26554775,29.99
2021-06-23 10:35:08.195312500,-25.25,5.0,58.0,101.478046875,-20.295,7.26558778125,29.99
2021-06-23 10:35:08.203125000,-25.5,5.0,58.0,101.47796875,-22.77,7.2656278125,29.99
2021-06-23 10:35:08.210937500,-25.75,5.0,58.0,101.477890625,-24.855,7.26566784375,29.99
2021-06-23 10:35:08.218750000,-26.0,5.0,58.0,101.4778125,-26.94,7.265707875,29.99
2021-06-23 10:35:08.226562500,-25.75,5.0,58.0,101.477734375,-28.305,7.2657479062500006,29.99
2021-06-23 10:35:08.234375000,-25.5,5.0,58.0,101.47765625000001,-29.67,7.2657879375,29.99
2021-06-23 10:35:08.242187500,-25.25,5.0,58.0,101.47757812500001,-30.055,7.26582796875,29.99
2021-06-23 10:35:08.250000000,-25.0,5.0,58.0,101.4775,-30.44,7.265868,29.99
2021-06-23 10:35:08.257812500,-25.0,5.0,58.0,101.477421875,-29.665,7.265347562500001,29.99
2021-06-23 10:35:08.265625000,-25.0,5.0,58.0,101.47734375,-28.89,7.264827125,29.99
2021-06-23 10:35:08.273437500,-25.0,5.0,58.0,101.477265625,-26.955,7.2643066875,29.99
2021-06-23 10:35:08.281250000,-25.0,5.0,58.0,101.4771875,-25.02,7.26378625,29.99
2021-06-23 10:35:08.289062500,-25.25,5.0,58.0,101.477109375,-22.119999999999997,7.2632658125,29.99
2021-06-23 10:35:08.296875000,-25.5,5.0,58.0,101.47703125,-19.22,7.262745375000001,29.99
2021-06-23 10:35:08.304687500,-25.75,5.0,58.0,101.47695312500001,-15.715,7.2622249375,29.99
2021-06-23 10:35:08.312500000,-26.0,5.0,58.0,101.476875,-12.21,7.2617045000000005,29.99
2021-06-23 10:35:08.320312500,-26.0,5.0,58.0,101.476796875,-8.525,7.2611840625,29.99
2021-06-23 10:35:08.328125000,-26.0,5.0,58.0,101.47671875,-4.84,7.260663625,29.99
2021-06-23 10:35:08.335937500,-26.0,5.0,58.0,101.476640625,-1.3899999999999997,7.260143187500001,29.99
2021-06-23 10:35:08.343750000,-26.0,5.0,58.0,101.4765625,2.06,7.25962275,29.99
2021-06-23 10:35:08.351562500,-25.75,5.0,58.0,101.476484375,4.945,7.2591023125000005,29.99
2021-06-23 10:35:08.359375000,-25.5,5.0,58.0,101.47640625,7.83,7.258581875,29.99
2021-06-23 10:35:08.367187500,-25.25,5.0,58.0,101.47632812500001,9.95,7.2580614375,29.99
2021-06-23 10:35:08.375000000,-25.0,5.0,58.0,101.47625000000001,12.07,7.257541,29.99
2021-06-23 10:35:08.382812500,-25.0,5.0,58.0,101.476171875,13.325,7.2570205625,29.99
2021-06-23 10:35:08.390625000,-25.0,5.0,58.0,101.47609375,14.58,7.2565001250000005,29.99
2021-06-23 10:35:08.398437500,-25.0,5.0,58.0,101.476015625,14.969999999999999,7.2559796875,29.99
2021-06-23 10:35:08.406250000,-25.0,5.0,58.0,101.4759375,15.36,7.25545925,29.99
2021-06-23 10:35:08.414062500,-25.25,5.0,58.0,101.475859375,14.975,7.2549388125,29.99
2021-06-23 10:35:08.421875000,-25.5,5.0,58.0,101.47578125,14.59,7.254418375,29.99
2021-06-23 10:35:08.429687500,-25.75,5.0,58.0,101.475703125,13.58,7.253897937500001,29.99
2021-06-23 10:35:08.437500000,-26.0,5.0,58.0,101.47562500000001,12.57,7.2533775,29.99
2021-06-23 10:35:08.445312500,-25.75,5.0,58.0,101.475546875,11.15,7.2528570625,29.99
2021-06-23 10:35:08.453125000,-25.5,5.0,58.0,101.47546875,9.73,7.252336625,29.99
2021-06-23 10:35:08.460937500,-25.25,5.0,58.0,101.475390625,8.16,7.2518161875,29.99
2021-06-23 10:35:08.468750000,-25.0,5.0,58.0,101.4753125,6.59,7.251295750000001,29.99
2021-06-23 10:35:08.476562500,-25.0,5.0,58.0,101.475234375,5.17,7.2507753125,29.99
2021-06-23 10:35:08.484375000,-25.0,5.0,58.0,101.47515625,3.75,7.250254875,29.99
2021-06-23 10:35:08.492187500,-25.0,5.0,58.0,101.475078125,2.725,7.2497344375,29.99
2021-06-23 10:35:08.500000000,-25.0,5.0,58.0,101.475,1.7,7.249214,29.99
2021-06-23 10:35:08.507812500,-25.0,5.0,58.0,101.474921875,1.2,7.249294062500001,29.99
2021-06-23 10:35:08.515625000,-25.0,5.0,58.0,101.47484375,0.7,7.249374125,29.99
2021-06-23 10:35:08.523437500,-25.0,5.0,58.0,101.474765625,0.7,7.2494541875000005,29.99
2021-06-23 10:35:08.531250000,-25.0,5.0,58.0,101.4746875,0.7,7.24953425,29.99
2021-06-23 10:35:08.539062500,-25.0,5.0,58.0,101.474609375,1.055,7.2496143125,29.99
2021-06-23 10:35:08.546875000,-25.0,5.0,58.0,101.47453125,1.41,7.249694375000001,29.99
2021-06-23 10:35:08.554687500,-25.0,5.0,58.0,101.474453125,1.8649999999999998,7.2497744375,29.99
2021-06-23 10:35:08.562500000,-25.0,5.0,58.0,101.474375,2.32,7.2498545000000005,29.99
2021-06-23 10:35:08.570312500,-25.0,5.0,58.0,101.47429687500001,2.63,7.2499345625,29.99
2021-06-23 10:35:08.578125000,-25.0,5.0,58.0,101.47421875,2.94,7.250014625,29.99
2021-06-23 10:35:08.585937500,-25.0,5.0,58.0,101.474140625,2.925,7.250094687500001,29.99
2021-06-23 10:35:08.593750000,-25.0,5.0,58.0,101.4740625,2.91,7.25017475,29.99
2021-06-23 10:35:08.601562500,-25.0,5.0,58.0,101.473984375,2.52,7.250254812500001,29.99
2021-06-23 10:35:08.609375000,-25.0,5.0,58.0,101.47390625,2.13,7.250334875,29.99
2021-06-23 10:35:08.617187500,-25.0,5.0,58.0,101.473828125,1.405,7.2504149375,29.99
2021-06-23 10:35:08.625000000,-25.0,5.0,58.0,101.47375,0.68,7.250495000000001,29.99
2021-06-23 10:35:08.632812500,-25.0,5.0,58.0,101.473671875,-0.2499999999999999,7.2505750625,29.99
2021-06-23 10:35:08.640625000,-25.0,5.0,58.0,101.47359375,-1.18,7.250655125000001,29.99
2021-06-23 10:35:08.648437500,-25.0,5.0,58.0,101.473515625,-2.17,7.2507351875,29.99
2021-06-23 10:35:08.656250000,-25.0,5.0,58.0,101.4734375,-3.16,7.2508152500000005,29.99
2021-06-23 10:35:08.664062500,-25.25,5.0,58.0,101.473359375,-4.125,7.2508953125,29.99
2021-06-23 10:35:08.671875000,-25.5,5.0,58.0,101.47328125,-5.09,7.250975375,29.99
2021-06-23 10:35:08.679687500,-25.75,5.0,58.0,101.473203125,-6.055,7.251055437500001,29.99
2021-06-23 10:35:08.687500000,-26.0,5.0,58.0,101.473125,-7.02,7.2511355,29.99
2021-06-23 10:35:08.695312500,-25.75,5.0,58.0,101.473046875,-8.1,7.2512155625000005,29.99
2021-06-23 10:35:08.703125000,-25.5,5.0,58.0,101.47296875,-9.18,7.251295625,29.99
2021-06-23 10:35:08.710937500,-25.25,5.0,58.0,101.472890625,-10.555,7.2513756875,29.99
2021-06-23 10:35:08.718750000,-25.0,5.0,58.0,101.4728125,-11.93,7.251455750000001,29.99
2021-06-23 10:35:08.726562500,-25.0,5.0,58.0,101.472734375,-13.71,7.2515358125,29.99
2021-06-23 10:35:08.734375000,-25.0,5.0,58.0,101.47265625,-15.49,7.251615875000001,29.99
2021-06-23 10:35:08.742187500,-25.0,5.0,58.0,101.472578125,-17.685,7.2516959375,29.99
2021-06-23 10:35:08.750000000,-25.0,5.0,58.0,101.4725,-19.88,7.251776,29.99
2021-06-23 10:35:08.757812500,-25.0,5.0,58.0,101.472421875,-22.259999999999998,7.251335625,29.99
2021-06-23 10:35:08.765625000,-25.0,5.0,58.0,101.47234375,-24.64,7.25089525,29.99
2021-06-23 10:35:08.773437500,-25.0,5.0,58.0,101.472265625,-26.805,7.250454875,29.99
2021-06-23 10:35:08.781250000,-25.0,5.0,58.0,101.4721875,-28.97,7.250014500000001,29.99
2021-06-23 10:35:08.789062500,-25.0,5.0,58.0,101.472109375,-30.439999999999998,7.2495741250000005,29.99
2021-06-23 10:35:08.796875000,-25.0,5.0,58.0,101.47203125,-31.91,7.24913375,29.99
2021-06-23 10:35:08.804687500,-25.0,5.0,58.0,101.471953125,-32.26,7.248693375,29.99
2021-06-23 10:35:08.812500000,-25.0,5.0,58.0,101.471875,-32.61,7.248253,29.99
2021-06-23 10:35:08.820312500,-25.0,5.0,58.0,101.471796875,-31.65,7.247812625,29.99
2021-06-23 10:35:08.828125000,-25.0,5.0,58.0,101.47171875,-30.69,7.247372250000001,29.99
2021-06-23 10:35:08.835937500,-25.0,5.0,58.0,101.471640625,-28.5,7.2469318750000005,29.99
2021-06-23 10:35:08.843750000,-25.0,5.0,58.0,101.4715625,-26.31,7.2464915,29.99
2021-06-23 10:35:08.851562500,-25.0,5.0,58.0,101.471484375,-23.215,7.246051125,29.99
2021-06-23 10:35:08.859375000,-25.0,5.0,58.0,101.47140625,-20.12,7.24561075,29.99
2021-06-23 10:35:08.867187500,-25.0,5.0,58.0,101.471328125,-16.58,7.245170375,29.99
2021-06-23 10:35:08.875000000,-25.0,5.0,58.0,101.47125,-13.04,7.244730000000001,29.99
2021-06-23 10:35:08.882812500,-25.0,5.0,58.0,101.471171875,-9.48,7.244289625,29.99
2021-06-23 10:35:08.890625000,-25.0,5.0,58.0,101.47109375,-5.92,7.24384925,29.99
2021-06-23 10:35:08.898437500,-25.0,5.0,58.0,101.47101562499999,-2.66,7.243408875,29.99
2021-06-23 10:35:08.906250000,-25.0,5.0,58.0,101.4709375,0.6,7.2429685,29.99
2021-06-23 10:35:08.914062500,-25.0,5.0,58.0,101.470859375,3.4050000000000002,7.242528125,29.99
2021-06-23 10:35:08.921875000,-25.0,5.0,58.0,101.47078125,6.21,7.24208775,29.99
2021-06-23 10:35:08.929687500,-25.0,5.0,58.0,101.470703125,8.505,7.241647375,29.99
2021-06-23 10:35:08.937500000,-25.0,5.0,58.0,101.470625,10.8,7.241207,29.99
2021-06-23 10:35:08.945312500,-25.0,5.0,58.0,101.470546875,12.58,7.240766625,29.99
2021-06-23 10:35:08.953125000,-25.0,5.0,58.0,101.47046875,14.36,7.24032625,29.99
2021-06-23 10:35:08.960937500,-25.0,5.0,58.0,101.470390625,15.584999999999999,7.239885875,29.99
2021-06-23 10:35:08.968750000,-25.0,5.0,58.0,101.4703125,16.81,7.2394454999999995,29.99
2021-06-23 10:35:08.976562500,-25.0,5.0,58.0,101.470234375,17.439999999999998,7.239005125,29.99
2021-06-23 10:35:08.984375000,-25.0,5.0,58.0,101.47015625,18.07,7.23856475,29.99
2021-06-23 10:35:08.992187500,-25.0,5.0,58.0,101.470078125,18.095,7.238124375,29.99
2021-06-23 10:35:09.000000000,-25.0,5.0,58.0,101.47,18.12,7.237684,29.99
2021-06-23 10:35:09.007812500,-25.0,5.0,58.0,101.47,17.615000000000002,7.2378841875,29.99
2021-06-23 10:35:09.015625000,-25.0,5.0,58.0,101.47,17.11,7.238084375,29.99
2021-06-23 10:35:09.023437500,-25.0,5.0,58.0,101.47,16.275,7.2382845625,29.99
2021-06-23 10:35:09.031250000,-25.0,5.0,58.0,101.47,15.44,7.23848475,29.99
2021-06-23 10:35:09.039062500,-25.0,5.0,58.0,101.47,14.565,7.2386849374999995,29.99
2021-06-23 10:35:09.046875000,-25.0,5.0,58.0,101.47,13.69,7.2388851249999995,29.99
2021-06-23 10:35:09.054687500,-25.0,5.0,58.0,101.47,13.04,7.239085312499999,29.99
2021-06-23 10:35:09.062500000,-25.0,5.0,58.0,101.47,12.39,7.239285499999999,29.99
2021-06-23 10:35:09.070312500,-25.0,5.0,58.0,101.47,12.135000000000002,7.2394856875,29.99
2021-06-23 10:35:09.078125000,-25.0,5.0,58.0,101.47,11.88,7.239685875,29.99
2021-06-23 10:35:09.085937500,-25.0,5.0,58.0,101.47,12.010000000000002,7.2398860625,29.99
2021-06-23 10:35:09.093750000,-25.0,5.0,58.0,101.47,12.14,7.24008625,29.99
2021-06-23 10:35:09.101562500,-25.0,5.0,58.0,101.47,12.49,7.2402864375,29.99
2021-06-23 10:35:09.109375000,-25.0,5.0,58.0,101.47,12.84,7.240486625,29.99
2021-06-23 10:35:09.117187500,-25.0,5.0,58.0,101.47,13.175,7.2406868125,29.99
2021-06-23 10:35:09.125000000,-25.0,5.0,58.0,101.47,13.51,7.240887,29.99
2021-06-23 10:35:09.132812500,-25.0,5.0,58.0,101.47,13.61,7.2410871875,29.99
2021-06-23 10:35:09.140625000,-25.0,5.0,58.0,101.47,13.71,7.241287375,29.99
2021-06-23 10:35:09.148437500,-25.0,5.0,58.0,101.47,13.47,7.2414875625,29.99
2021-06-23 10:35:09.156250000,-25.0,5.0,58.0,101.47,13.23,7.24168775,29.99
2021-06-23 10:35:09.164062500,-25.0,5.0,58.0,101.47,12.665,7.2418879375,29.99
2021-06-23 10:35:09.171875000,-25.0,5.0,58.0,101.47,12.1,7.2420881249999995,29.99
2021-06-23 10:35:09.179687500,-25.0,5.0,58.0,101.47,11.32,7.2422883124999995,29.99
2021-06-23 10:35:09.187500000,-25.0,5.0,58.0,101.47,10.54,7.2424885,29.99
2021-06-23 10:35:09.195312500,-25.0,5.0,58.0,101.47,9.67,7.2426886875,29.99
2021-06-23 10:35:09.203125000,-25.0,5.0,58.0,101.47,8.8,7.242888875,29.99
2021-06-23 10:35:09.210937500,-25.0,5.0,58.0,101.47,7.92,7.2430890625,29.99
2021-06-23 10:35:09.218750000,-25.0,5.0,58.0,101.47,7.04,7.24328925,29.99
2021-06-23 10:35:09.226562500,-25.0,5.0,58.0,101.47,6.145,7.2434894375,29.99
2021-06-23 10:35:09.234375000,-25.0,5.0,58.0,101.47,5.25,7.243689625,29.99
2021-06-23 10:35:09.242187500,-25.0,5.0,58.0,101.47,4.24,7.2438898125,29.99
2021-06-23 10:35:09.250000000,-25.0,5.0,58.0,101.47,3.23,7.24409,29.99
2021-06-23 10:35:09.257812500,-25.0,5.0,58.0,101.47,1.94,7.24384978125,29.99
2021-06-23 10:35:09.265625000,-25.0,5.0,58.0,101.47,0.65,7.2436095625,29.99
2021-06-23 10:35:09.273437500,-25.0,5.0,58.0,101.47,-1.105,7.2433693437499995,29.99
2021-06-23 10:35:09.281250000,-25.0,5.0,58.0,101.47,-2.86,7.243129125,29.99
2021-06-23 10:35:09.289062500,-25.0,5.0,58.0,101.47,-5.225,7.24288890625,29.99
2021-06-23 10:35:09.296875000,-25.0,5.0,58.0,101.47,-7.59,7.2426486875,29.99
2021-06-23 10:35:09.304687500,-25.0,5.0,58.0,101.47,-10.565,7.24240846875,29.99
2021-06-23 10:35:09.312500000,-25.0,5.0,58.0,101.47,-13.54,7.24216825,29.99
2021-06-23 10:35:09.320312500,-25.0,5.0,58.0,101.47,-16.905,7.24192803125,29.99
2021-06-23 10:35:09.328125000,-25.0,5.0,58.0,101.47,-20.27,7.2416878125,29.99
2021-06-23 10:35:09.335937500,-25.0,5.0,58.0,101.47,-23.560000000000002,7.24144759375,29.99
2021-06-23 10:35:09.343750000,-25.0,5.0,58.0,101.47,-26.85,7.241207375,29.99
2021-06-23 10:35:09.351562500,-25.0,5.0,58.0,101.47,-29.455000000000002,7.24096715625,29.99
2021-06-23 10:35:09.359375000,-25.0,5.0,58.0,101.47,-32.06,7.2407269375,29.99
2021-06-23 10:35:09.367187500,-25.0,5.0,58.0,101.47,-33.375,7.24048671875,29.99
2021-06-23 10:35:09.375000000,-25.0,5.0,58.0,101.47,-34.69,7.2402465,29.99
2021-06-23 10:35:09.382812500,-25.0,5.0,58.0,101.47,-34.334999999999994,7.24000628125,29.99
2021-06-23 10:35:09.390625000,-25.0,5.0,58.0,101.47,-33.98,7.2397660625,29.99
2021-06-23 10:35:09.398437500,-25.0,5.0,58.0,101.47,-31.939999999999998,7.23952584375,29.99
2021-06-23 10:35:09.406250000,-25.0,5.0,58.0,101.47,-29.9,7.239285625,29.99
2021-06-23 10:35:09.414062500,-25.0,5.0,58.0,101.47,-26.545,7.23904540625,29.99
2021-06-23 10:35:09.421875000,-25.0,5.0,58.0,101.47,-23.19,7.2388051875,29.99
2021-06-23 10:35:09.429687500,-25.0,5.0,58.0,101.47,-19.14,7.23856496875,29.99
2021-06-23 10:35:09.437500000,-25.0,5.0,58.0,101.47,-15.09,7.23832475,29.99
2021-06-23 10:35:09.445312500,-25.0,5.0,58.0,101.47,-11.004999999999999,7.23808453125,29.99
2021-06-23 10:35:09.453125000,-25.0,5.0,58.0,101.47,-6.92,7.2378443125,29.99
2021-06-23 10:35:09.460937500,-25.0,5.0,58.0,101.47,-3.325,7.23760409375,29.99
2021-06-23 10:35:09.468750000,-25.0,5.0,58.0,101.47,0.27,7.237363875,29.99
2021-06-23 10:35:09.476562500,-25.0,5.0,58.0,101.47,3.155,7.2371236562500005,29.99
2021-06-23 10:35:09.484375000,-25.0,5.0,58.0,101.47,6.04,7.2368834375,29.99
2021-06-23 10:35:09.492187500,-25.0,5.0,58.0,101.47,8.21,7.23664321875,29.99
2021-06-23 10:35:09.500000000,-25.0,5.0,58.0,101.47,10.38,7.236403,29.99
2021-06-23 10:35:09.507812500,-25.0,5.0,58.0,101.47,11.985,7.23644303125,29.99
2021-06-23 10:35:09.515625000,-25.0,5.0,58.0,101.47,13.59,7.2364830625000005,29.99
2021-06-23 10:35:09.523437500,-25.0,5.0,58.0,101.47,14.795,7.23652309375,29.99
2021-06-23 10:35:09.531250000,-25.0,5.0,58.0,101.47,16.0,7.236563125,29.99
2021-06-23 10:35:09.539062500,-25.0,5.0,58.0,101.47,16.89,7.23660315625,29.99
2021-06-23 10:35:09.546875000,-25.0,5.0,58.0,101.47,17.78,7.2366431875,29.99
2021-06-23 10:35:09.554687500,-25.0,5.0,58.0,101.47,18.355,7.23668321875,29.99
2021-06-23 10:35:09.562500000,-25.0,5.0,58.0,101.47,18.93,7.23672325,29.99
2021-06-23 10:35:09.570312500,-25.0,5.0,58.0,101.47,19.155,7.23676328125,29.99
2021-06-23 10:35:09.578125000,-25.0,5.0,58.0,101.47,19.38,7.2368033125,29.99
2021-06-23 10:35:09.585937500,-25.0,5.0,58.0,101.47,19.229999999999997,7.23684334375,29.99
2021-06-23 10:35:09.593750000,-25.0,5.0,58.0,101.47,19.08,7.236883375,29.99
2021-06-23 10:35:09.601562500,-25.25,5.0,58.25,101.47,18.634999999999998,7.23692340625,29.99
2021-06-23 10:35:09.609375000,-25.5,5.0,58.5,101.47,18.19,7.2369634375,29.99
2021-06-23 10:35:09.617187500,-25.75,5.0,58.75,101.47,17.61,7.23700346875,29.99
2021-06-23 10:35:09.625000000,-26.0,5.0,59.0,101.47,17.03,7.2370435,29.99
2021-06-23 10:35:09.632812500,-25.75,5.0,58.75,101.47,16.53,7.23708353125,29.99
2021-06-23 10:35:09.640625000,-25.5,5.0,58.5,101.47,16.03,7.2371235625,29.99
2021-06-23 10:35:09.648437500,-25.25,5.0,58.25,101.47,15.790000000000001,7.23716359375,29.99
2021-06-23 10:35:09.656250000,-25.0,5.0,58.0,101.47,15.55,7.237203625,29.99
2021-06-23 10:35:09.664062500,-25.0,5.0,58.0,101.47,15.665,7.2372436562499995,29.99
2021-06-23 10:35:09.671875000,-25.0,5.0,58.0,101.47,15.78,7.2372836875,29.99
2021-06-23 10:35:09.679687500,-25.0,5.0,58.0,101.47,16.19,7.23732371875,29.99
2021-06-23 10:35:09.687500000,-25.0,5.0,58.0,101.47,16.6,7.23736375,29.99
2021-06-23 10:35:09.695312500,-25.0,5.0,58.25,101.47,17.105,7.23740378125,29.99
2021-06-23 10:35:09.703125000,-25.0,5.0,58.5,101.47,17.61,7.2374438125,29.99
2021-06-23 10:35:09.710937500,-25.0,5.0,58.75,101.47,17.955,7.23748384375,29.99
2021-06-23 10:35:09.718750000,-25.0,5.0,59.0,101.47,18.3,7.237523875,29.99
2021-06-23 10:35:09.726562500,-25.0,5.0,58.75,101.47,18.25,7.23756390625,29.99
2021-06-23 10:35:09.734375000,-25.0,5.0,58.5,101.47,18.2,7.237603937499999,29.99
2021-06-23 10:35:09.742187500,-25.0,5.0,58.25,101.47,17.63,7.23764396875,29.99
2021-06-23 10:35:09.750000000,-25.0,5.0,58.0,101.47,17.06,7.237684,29.99
2021-06-23 10:35:09.757812500,-25.0,5.0,58.0,101.47,16.005,7.2378841875,29.99
2021-06-23 10:35:09.765625000,-25.0,5.0,58.0,101.47,14.95,7.238084375,29.99
2021-06-23 10:35:09.773437500,-25.0,5.0,58.0,101.47,13.555,7.2382845625,29.99
2021-06-23 10:35:09.781250000,-25.0,5.0,58.0,101.47,12.16,7.23848475,29.99
2021-06-23 10:35:09.789062500,-25.0,5.0,58.0,101.47,10.61,7.2386849374999995,29.99
2021-06-23 10:35:09.796875000,-25.0,5.0,58.0,101.47,9.06,7.2388851249999995,29.99
2021-06-23 10:35:09.804687500,-25.0,5.0,58.0,101.47,7.5,7.239085312499999,29.99
2021-06-23 10:35:09.812500000,-25.0,5.0,58.0,101.47,5.94,7.239285499999999,29.99
2021-06-23 10:35:09.820312500,-25.0,5.0,58.0,101.47,4.4,7.2394856875,29.99
2021-06-23 10:35:09.828125000,-25.0,5.0,58.0,101.47,2.86,7.239685875,29.99
2021-06-23 10:35:09.835937500,-25.0,5.0,58.0,101.47,1.31,7.2398860625,29.99
2021-06-23 10:35:09.843750000,-25.0,5.0,58.0,101.47,-0.24,7.24008625,29.99
2021-06-23 10:35:09.851562500,-25.0,5.0,58.0,101.47,-1.8949999999999998,7.2402864375,29.99
2021-06-23 10:35:09.859375000,-25.0,5.0,58.0,101.47,-3.55,7.240486625,29.99
2021-06-23 10:35:09.867187500,-25.0,5.0,58.0,101.47,-5.404999999999999,7.2406868125,29.99
2021-06-23 10:35:09.875000000,-25.0,5.0,58.0,101.47,-7.26,7.240887,29.99
2021-06-23 10:35:09.882812500,-25.0,5.0,58.0,101.47,-9.335,7.2410871875,29.99
2021-06-23 10:35:09.890625000,-25.0,5.0,58.0,101.47,-11.41,7.241287375,29.99
2021-06-23 10:35:09.898437500,-25.0,5.0,58.0,101.47,-13.695,7.2414875625,29.99
2021-06-23 10:35:09.906250000,-25.0,5.0,58.0,101.47,-15.98,7.24168775,29.99
2021-06-23 10:35:09.914062500,-25.0,5.0,58.0,101.47,-18.435000000000002,7.2418879375,29.99
2021-06-23 10:35:09.921875000,-25.0,5.0,58.0,101.47,-20.89,7.2420881249999995,29.99
2021-06-23 10:35:09.929687500,-25.0,5.0,58.0,101.47,-23.41,7.2422883124999995,29.99
2021-06-23 10:35:09.937500000,-25.0,5.0,58.0,101.47,-25.93,7.2424885,29.99
2021-06-23 10:35:09.945312500,-25.0,5.0,58.0,101.47,-28.335,7.2426886875,29.99
2021-06-23 10:35:09.953125000,-25.0,5.0,58.0,101.47,-30.74,7.242888875,29.99
2021-06-23 10:35:09.960937500,-25.0,5.0,58.0,101.47,-32.699999999999996,7.2430890625,29.99
2021-06-23 10:35:09.968750000,-25.0,5.0,58.0,101.47,-34.66,7.24328925,29.99
2021-06-23 10:35:09.976562500,-25.0,5.0,58.0,101.47,-35.754999999999995,7.2434894375,29.99
2021-06-23 10:35:09.984375000,-25.0,5.0,58.0,101.47,-36.85,7.243689625,29.99
2021-06-23 10:35:09.992187500,-25.0,5.0,58.0,101.47,-36.650000000000006,7.2438898125,29.99
2021-06-23 10:35:10.000000000,-25.0,5.0,58.0,101.47,-36.45,7.24409,29.99
2021-06-23 10:35:10.007812500,-25.0,5.0,58.0,101.470234375,-34.730000000000004,7.24348946875,29.99
2021-06-23 10:35:10.015625000,-25.0,5.0,58.0,101.47046875,-33.01,7.2428889375,29.99
2021-06-23 10:35:10.023437500,-25.0,5.0,58.0,101.470703125,-29.835,7.24228840625,29.99
2021-06-23 10:35:10.031250000,-25.0,5.0,58.0,101.4709375,-26.66,7.241687875,29.99
2021-06-23 10:35:10.039062500,-25.0,5.0,58.0,101.471171875,-22.42,7.24108734375,29.99
2021-06-23 10:35:10.046875000,-25.0,5.0,58.0,101.47140625,-18.18,7.2404868124999995,29.99
2021-06-23 10:35:10.054687500,-25.0,5.0,58.0,101.47164062499999,-13.495000000000001,7.2398862812499996,29.99
2021-06-23 10:35:10.062500000,-25.0,5.0,58.0,101.471875,-8.81,7.23928575,29.99
2021-06-23 10:35:10.070312500,-25.0,5.0,58.0,101.472109375,-4.275,7.23868521875,29.99
2021-06-23 10:35:10.078125000,-25.0,5.0,58.0,101.47234375,0.26,7.2380846875,29.99
2021-06-23 10:35:10.085937500,-25.0,5.0,58.0,101.472578125,4.1899999999999995,7.23748415625,29.99
2021-06-23 10:35:10.093750000,-25.0,5.0,58.0,101.4728125,8.12,7.236883625,29.99
2021-06-23 10:35:10.101562500,-25.0,5.0,58.0,101.473046875,11.239999999999998,7.23628309375,29.99
2021-06-23 10:35:10.109375000,-25.0,5.0,58.0,101.47328125,14.36,7.2356825625,29.99
2021-06-23 10:35:10.117187500,-25.0,5.0,58.0,101.473515625,16.665,7.23508203125,29.99
2021-06-23 10:35:10.125000000,-25.0,5.0,58.0,101.47375,18.97,7.234481499999999,29.99
2021-06-23 10:35:10.132812500,-25.0,5.0,58.0,101.473984375,20.57,7.233880968749999,29.99
2021-06-23 10:35:10.140625000,-25.0,5.0,58.0,101.47421875,22.17,7.2332804374999995,29.99
2021-06-23 10:35:10.148437500,-25.0,5.0,58.0,101.474453125,23.18,7.23267990625,29.99
2021-06-23 10:35:10.156250000,-25.0,5.0,58.0,101.4746875,24.19,7.232079375,29.99
2021-06-23 10:35:10.164062500,-25.0,5.0,58.0,101.47492187499999,24.695,7.23147884375,29.99
2021-06-23 10:35:10.171875000,-25.0,5.0,58.0,101.47515625,25.2,7.2308783125,29.99
2021-06-23 10:35:10.179687500,-25.0,5.0,58.0,101.475390625,25.295,7.23027778125,29.99
2021-06-23 10:35:10.187500000,-25.0,5.0,58.0,101.475625,25.39,7.22967725,29.99
2021-06-23 10:35:10.195312500,-25.0,5.0,58.0,101.475859375,25.215,7.22907671875,29.99
2021-06-23 10:35:10.203125000,-25.0,5.0,58.0,101.47609375,25.04,7.2284761875,29.99
2021-06-23 10:35:10.210937500,-25.0,5.0,58.0,101.476328125,24.755,7.227875656249999,29.99
2021-06-23 10:35:10.218750000,-25.0,5.0,58.0,101.4765625,24.47,7.227275124999999,29.99
2021-06-23 10:35:10.226562500,-25.0,5.0,58.0,101.476796875,24.27,7.226674593749999,29.99
2021-06-23 10:35:10.234375000,-25.0,5.0,58.0,101.47703125,24.07,7.2260740624999995,29.99
2021-06-23 10:35:10.242187500,-25.0,5.0,58.0,101.477265625,24.095,7.22547353125,29.99
2021-06-23 10:35:10.250000000,-25.0,5.0,58.0,101.47749999999999,24.12,7.224873,29.99
2021-06-23 10:35:10.257812500,-25.0,5.0,58.0,101.477734375,24.405,7.2248329687499995,29.99
2021-06-23 10:35:10.265625000,-25.0,5.0,58.0,101.47796875,24.69,7.224792937499999,29.99
2021-06-23 10:35:10.273437500,-25.0,5.0,58.0,101.478203125,25.185000000000002,7.22475290625,29.99
2021-06-23 10:35:10.281250000,-25.0,5.0,58.0,101.4784375,25.68,7.224712875,29.99
2021-06-23 10:35:10.289062500,-25.0,5.0,58.0,101.478671875,26.215,7.22467284375,29.99
2021-06-23 10:35:10.296875000,-25.0,5.0,58.0,101.47890625,26.75,7.2246328124999994,29.99
2021-06-23 10:35:10.304687500,-25.0,5.0,58.0,101.479140625,27.155,7.22459278125,29.99
2021-06-23 10:35:10.312500000,-25.0,5.0,58.0,101.479375,27.56,7.22455275,29.99
2021-06-23 10:35:10.320312500,-25.0,5.0,58.0,101.479609375,27.695,7.22451271875,29.99
2021-06-23 10:35:10.328125000,-25.0,5.0,58.0,101.47984375,27.83,7.2244726875,29.99
2021-06-23 10:35:10.335937500,-25.0,5.0,58.0,101.480078125,27.65,7.224432656249999,29.99
2021-06-23 10:35:10.343750000,-25.0,5.0,58.0,101.4803125,27.47,7.224392625,29.99
2021-06-23 10:35:10.351562500,-25.0,5.0,58.0,101.480546875,27.049999999999997,7.22435259375,29.99
2021-06-23 10:35:10.359375000,-25.0,5.0,58.0,101.48078124999999,26.63,7.2243125625,29.99
2021-06-23 10:35:10.367187500,-25.0,5.0,58.0,101.481015625,26.09,7.22427253125,29.99
2021-06-23 10:35:10.375000000,-25.0,5.0,58.0,101.48125,25.55,7.224232499999999,29.99
2021-06-23 10:35:10.382812500,-25.0,5.0,58.0,101.481484375,25.0,7.22419246875,29.99
2021-06-23 10:35:10.390625000,-25.0,5.0,58.0,101.48171875,24.45,7.2241524375,29.99
2021-06-23 10:35:10.398437500,-25.0,5.0,58.0,101.481953125,23.875,7.22411240625,29.99
2021-06-23 10:35:10.406250000,-25.0,5.0,58.0,101.4821875,23.3,7.2240723749999995,29.99
2021-06-23 10:35:10.414062500,-25.0,5.0,58.0,101.482421875,22.57,7.22403234375,29.99
2021-06-23 10:35:10.421875000,-25.0,5.0,58.0,101.48265625,21.84,7.2239923125,29.99
2021-06-23 10:35:10.429687500,-25.0,5.0,58.0,101.482890625,20.77,7.22395228125,29.99
2021-06-23 10:35:10.437500000,-25.0,5.0,58.0,101.483125,19.7,7.22391225,29.99
2021-06-23 10:35:10.445312500,-25.0,5.0,58.0,101.483359375,18.15,7.2238722187499995,29.99
2021-06-23 10:35:10.453125000,-25.0,5.0,58.0,101.48359375,16.6,7.2238321875,29.99
2021-06-23 10:35:10.460937500,-25.0,5.0,58.0,101.483828125,14.595,7.22379215625,29.99
2021-06-23 10:35:10.468750000,-25.0,5.0,58.0,101.4840625,12.59,7.223752125,29.99
2021-06-23 10:35:10.476562500,-25.0,5.0,58.0,101.484296875,10.309999999999999,7.22371209375,29.99
2021-06-23 10:35:10.484375000,-25.0,5.0,58.0,101.48453125,8.03,7.2236720625,29.99
2021-06-23 10:35:10.492187500,-25.0,5.0,58.0,101.484765625,5.765,7.22363203125,29.99
2021-06-23 10:35:10.500000000,-25.0,5.0,58.0,101.485,3.5,7.223592,29.99
2021-06-23 10:35:10.507812500,-25.0,5.0,58.0,101.485234375,1.5150000000000001,7.2235119375,29.99
2021-06-23 10:35:10.515625000,-25.0,5.0,58.0,101.48546875,-0.47,7.223431875,29.99
2021-06-23 10:35:10.523437500,-25.0,5.0,58.0,101.485703125,-2.035,7.2233518125,29.99
2021-06-23 10:35:10.531250000,-25.0,5.0,58.0,101.4859375,-3.6,7.22327175,29.99
2021-06-23 10:35:10.539062500,-25.0,5.0,58.0,101.486171875,-4.79,7.2231916875,29.99
2021-06-23 10:35:10.546875000,-25.0,5.0,58.0,101.48640625,-5.98,7.223111625,29.99
2021-06-23 10:35:10.554687500,-25.0,5.0,58.0,101.48664062499999,-6.98,7.2230315625,29.99
2021-06-23 10:35:10.562500000,-25.0,5.0,58.0,101.486875,-7.98,7.2229515,29.99
2021-06-23 10:35:10.570312500,-25.0,5.0,58.0,101.487109375,-9.045,7.2228714375,29.99
2021-06-23 10:35:10.578125000,-25.0,5.0,58.0,101.48734375,-10.11,7.222791375,29.99
2021-06-23 10:35:10.585937500,-25.0,5.0,58.0,101.487578125,-11.495000000000001,7.2227113124999995,29.99
2021-06-23 10:35:10.593750000,-25.0,5.0,58.0,101.4878125,-12.88,7.22263125,29.99
2021-06-23 10:35:10.601562500,-25.0,5.0,58.0,101.488046875,-14.765,7.2225511875,29.99
2021-06-23 10:35:10.609375000,-25.0,5.0,58.0,101.48828125,-16.65,7.222471125,29.99
2021-06-23 10:35:10.617187500,-25.0,5.0,58.0,101.488515625,-19.104999999999997,7.2223910625,29.99
2021-06-23 10:35:10.625000000,-25.0,5.0,58.0,101.48875,-21.56,7.2223109999999995,29.99
2021-06-23 10:35:10.632812500,-25.0,5.0,58.0,101.488984375,-24.505,7.2222309375,29.99
2021-06-23 10:35:10.640625000,-25.0,5.0,58.0,101.48921875,-27.45,7.222150875,29.99
2021-06-23 10:35:10.648437500,-25.0,5.0,58.0,101.489453125,-30.585,7.2220708125,29.99
2021-06-23 10:35:10.656250000,-25.0,5.0,58.0,101.4896875,-33.72,7.22199075,29.99
2021-06-23 10:35:10.664062500,-25.0,5.0,58.0,101.489921875,-36.565,7.2219106875,29.99
2021-06-23 10:35:10.671875000,-25.0,5.0,58.0,101.49015625,-39.41,7.221830625,29.99
2021-06-23 10:35:10.679687500,-25.0,5.0,58.0,101.490390625,-41.375,7.2217505625,29.99
2021-06-23 10:35:10.687500000,-25.0,5.0,58.0,101.490625,-43.34,7.2216705,29.99
2021-06-23 10:35:10.695312500,-25.0,5.0,58.25,101.490859375,-43.870000000000005,7.2215904375,29.99
2021-06-23 10:35:10.703125000,-25.0,5.0,58.5,101.49109375,-44.4,7.221510375,29.99
2021-06-23 10:35:10.710937500,-25.0,5.0,58.75,101.491328125,-43.18,7.2214303125,29.99
2021-06-23 10:35:10.718750000,-25.0,5.0,59.0,101.4915625,-41.96,7.2213502499999995,29.99
2021-06-23 10:35:10.726562500,-25.0,5.0,59.0,101.491796875,-39.019999999999996,7.2212701875,29.99
2021-06-23 10:35:10.734375000,-25.0,5.0,59.0,101.49203125,-36.08,7.221190125,29.99
2021-06-23 10:35:10.742187500,-25.0,5.0,59.0,101.492265625,-31.82,7.2211100625,29.99
2021-06-23 10:35:10.750000000,-25.0,5.0,59.0,101.4925,-27.56,7.22103,29.99
2021-06-23 10:35:10.757812500,-25.0,5.0,58.75,101.492734375,-22.61,7.220869875,29.99
2021-06-23 10:35:10.765625000,-25.0,5.0,58.5,101.49296875,-17.66,7.22070975,29.99
2021-06-23 10:35:10.773437500,-25.0,5.0,58.25,101.493203125,-12.69,7.220549625,29.99
2021-06-23 10:35:10.781250000,-25.0,5.0,58.0,101.4934375,-7.72,7.2203895,29.99
2021-06-23 10:35:10.789062500,-25.0,5.0,58.0,101.493671875,-3.2800000000000002,7.220229375,29.99
2021-06-23 10:35:10.796875000,-25.0,5.0,58.0,101.49390625,1.16,7.22006925,29.99
2021-06-23 10:35:10.804687500,-25.0,5.0,58.0,101.494140625,4.76,7.219909125,29.99
2021-06-23 10:35:10.812500000,-25.0,5.0,58.0,101.494375,8.36,7.219749,29.99
2021-06-23 10:35:10.820312500,-25.0,5.0,58.0,101.494609375,11.05,7.219588875,29.99
2021-06-23 10:35:10.828125000,-25.0,5.0,58.0,101.49484375,13.74,7.21942875,29.99
2021-06-23 10:35:10.835937500,-25.0,5.0,58.0,101.495078125,15.605,7.219268625,29.99
2021-06-23 10:35:10.843750000,-25.0,5.0,58.0,101.4953125,17.47,7.2191085,29.99
2021-06-23 10:35:10.851562500,-25.0,5.0,58.0,101.495546875,18.665,7.218948375,29.99
2021-06-23 10:35:10.859375000,-25.0,5.0,58.0,101.49578125,19.86,7.21878825,29.99
2021-06-23 10:35:10.867187500,-25.0,5.0,58.0,101.496015625,20.545,7.218628125,29.99
2021-06-23 10:35:10.875000000,-25.0,5.0,58.0,101.49625,21.23,7.218468,29.99
2021-06-23 10:35:10.882812500,-25.0,5.0,58.0,101.496484375,21.555,7.218307875,29.99
2021-06-23 10:35:10.890625000,-25.0,5.0,58.0,101.49671875,21.88,7.21814775,29.99
2021-06-23 10:35:10.898437500,-25.0,5.0,58.0,101.496953125,21.965,7.217987625,29.99
2021-06-23 10:35:10.906250000,-25.0,5.0,58.0,101.4971875,22.05,7.2178275,29.99
2021-06-23 10:35:10.914062500,-25.0,5.0,58.0,101.497421875,22.02,7.217667375,29.99
2021-06-23 10:35:10.921875000,-25.0,5.0,58.0,101.49765625,21.99,7.217507250000001,29.99
2021-06-23 10:35:10.929687500,-25.0,5.0,58.0,101.497890625,21.95,7.217347125,29.99
2021-06-23 10:35:10.937500000,-25.0,5.0,58.0,101.498125,21.91,7.217187,29.99
2021-06-23 10:35:10.945312500,-25.25,5.0,58.0,101.498359375,21.97,7.217026875,29.99
2021-06-23 10:35:10.953125000,-25.5,5.0,58.0,101.49859375,22.03,7.21686675,29.99
2021-06-23 10:35:10.960937500,-25.75,5.0,58.0,101.498828125,22.255000000000003,7.2167066250000005,29.99
2021-06-23 10:35:10.968750000,-26.0,5.0,58.0,101.4990625,22.48,7.216546500000001,29.99
2021-06-23 10:35:10.976562500,-25.75,5.0,58.0,101.499296875,22.915,7.216386375,29.99
2021-06-23 10:35:10.984375000,-25.5,5.0,58.0,101.49953125,23.35,7.21622625,29.99
2021-06-23 10:35:10.992187500,-25.25,5.0,58.0,101.499765625,23.995,7.216066125,29.99
2021-06-23 10:35:11.000000000,-25.0,5.0,58.0,101.5,24.64,7.215906,29.99
2021-06-23 10:35:11.007812500,-25.0,5.0,58.0,101.500390625,25.445,7.2152654375,29.99
2021-06-23 10:35:11.015625000,-25.0,5.0,58.0,101.50078125,26.25,7.214624875,29.99
2021-06-23 10:35:11.023437500,-25.0,5.0,58.0,101.501171875,27.095,7.2139843125,29.99
2021-06-23 10:35:11.031250000,-25.0,5.0,58.0,101.5015625,27.94,7.21334375,29.99
2021-06-23 10:35:11.039062500,-25.0,5.0,58.0,101.501953125,28.67,7.2127031875,29.99
2021-06-23 10:35:11.046875000,-25.0,5.0,58.0,101.50234375,29.4,7.212062625000001,29.99
2021-06-23 10:35:11.054687500,-25.0,5.0,58.0,101.502734375,29.84,7.2114220625000005,29.99
2021-06-23 10:35:11.062500000,-25.0,5.0,58.0,101.503125,30.28,7.2107815,29.99
2021-06-23 10:35:11.070312500,-25.0,5.0,58.0,101.503515625,30.305,7.2101409375,29.99
2021-06-23 10:35:11.078125000,-25.0,5.0,58.0,101.50390625,30.33,7.209500375,29.99
2021-06-23 10:35:11.085937500,-25.0,5.0,58.0,101.504296875,29.895,7.2088598125,29.99
2021-06-23 10:35:11.093750000,-25.0,5.0,58.0,101.5046875,29.46,7.20821925,29.99
2021-06-23 10:35:11.101562500,-25.0,5.0,58.0,101.505078125,28.630000000000003,7.2075786875,29.99
2021-06-23 10:35:11.109375000,-25.0,5.0,58.0,101.50546875,27.8,7.206938125,29.99
2021-06-23 10:35:11.117187500,-25.0,5.0,58.0,101.505859375,26.715,7.2062975625,29.99
2021-06-23 10:35:11.125000000,-25.0,5.0,58.0,101.50625,25.63,7.205657,29.99
2021-06-23 10:35:11.132812500,-25.0,5.0,58.0,101.506640625,24.45,7.2050164375,29.99
2021-06-23 10:35:11.140625000,-25.0,5.0,58.0,101.50703125,23.27,7.204375875,29.99
2021-06-23 10:35:11.148437500,-25.0,5.0,58.0,101.507421875,22.105,7.2037353125,29.99
2021-06-23 10:35:11.156250000,-25.0,5.0,58.0,101.5078125,20.94,7.20309475,29.99
2021-06-23 10:35:11.164062500,-25.0,5.0,58.0,101.508203125,19.835,7.2024541875,29.99
2021-06-23 10:35:11.171875000,-25.0,5.0,58.0,101.50859375,18.73,7.201813625,29.99
2021-06-23 10:35:11.179687500,-25.0,5.0,58.0,101.508984375,17.675,7.2011730625,29.99
2021-06-23 10:35:11.187500000,-25.0,5.0,58.0,101.509375,16.62,7.2005325,29.99
2021-06-23 10:35:11.195312500,-25.0,5.0,58.0,101.509765625,15.56,7.1998919374999995,29.99
2021-06-23 10:35:11.203125000,-25.0,5.0,58.0,101.51015625,14.5,7.199251374999999,29.99
2021-06-23 10:35:11.210937500,-25.0,5.0,58.0,101.510546875,13.4,7.1986108125,29.99
2021-06-23 10:35:11.218750000,-25.0,5.0,58.0,101.5109375,12.3,7.19797025,29.99
2021-06-23 10:35:11.226562500,-25.0,5.0,58.0,101.511328125,11.135000000000002,7.1973296875,29.99
2021-06-23 10:35:11.234375000,-25.0,5.0,58.0,101.51171875,9.97,7.196689125,29.99
2021-06-23 10:35:11.242187500,-25.0,5.0,58.0,101.512109375,8.74,7.1960485625,29.99
2021-06-23 10:35:11.250000000,-25.0,5.0,58.0,101.5125,7.51,7.195408,29.99
2021-06-23 10:35:11.257812500,-25.0,5.0,58.0,101.512890625,6.21,7.195528093749999,29.99
2021-06-23 10:35:11.265625000,-25.0,5.0,58.0,101.51328125,4.91,7.1956481875,29.99
2021-06-23 10:35:11.273437500,-25.0,5.0,58.0,101.513671875,3.55,7.1957682812499995,29.99
2021-06-23 10:35:11.281250000,-25.0,5.0,58.0,101.5140625,2.19,7.195888375,29.99
2021-06-23 10:35:11.289062500,-25.25,5.0,58.0,101.514453125,0.7749999999999999,7.19600846875,29.99
2021-06-23 10:35:11.296875000,-25.5,5.0,58.0,101.51484375,-0.64,7.196128562499999,29.99
2021-06-23 10:35:11.304687500,-25.75,5.0,58.0,101.515234375,-2.08,7.19624865625,29.99
2021-06-23 10:35:11.312500000,-26.0,5.0,58.0,101.515625,-3.52,7.1963687499999995,29.99
2021-06-23 10:35:11.320312500,-25.75,5.0,58.0,101.516015625,-4.965,7.19648884375,29.99
2021-06-23 10:35:11.328125000,-25.5,5.0,58.0,101.51640625,-6.41,7.1966089375,29.99
2021-06-23 10:35:11.335937500,-25.25,5.0,58.0,101.516796875,-7.835,7.196729031249999,29.99
2021-06-23 10:35:11.343750000,-25.0,5.0,58.0,101.5171875,-9.26,7.196849125,29.99
2021-06-23 10:35:11.351562500,-25.0,5.0,58.0,101.517578125,-10.665,7.19696921875,29.99
2021-06-23 10:35:11.359375000,-25.0,5.0,58.0,101.51796875,-12.07,7.1970893125,29.99
2021-06-23 10:35:11.367187500,-25.0,5.0,58.0,101.518359375,-13.52,7.19720940625,29.99
2021-06-23 10:35:11.375000000,-25.0,5.0,58.0,101.51875,-14.97,7.1973295,29.99
2021-06-23 10:35:11.382812500,-25.0,5.0,58.0,101.519140625,-16.55,7.19744959375,29.99
2021-06-23 10:35:11.390625000,-25.0,5.0,58.0,101.51953125,-18.13,7.1975696875,29.99
2021-06-23 10:35:11.398437500,-25.0,5.0,58.0,101.519921875,-19.945,7.19768978125,29.99
2021-06-23 10:35:11.406250000,-25.0,5.0,58.0,101.5203125,-21.76,7.197809875,29.99
2021-06-23 10:35:11.414062500,-25.0,5.0,58.0,101.520703125,-23.855,7.1979299687500005,29.99
2021-06-23 10:35:11.421875000,-25.0,5.0,58.0,101.52109375,-25.95,7.1980500625,29.99
2021-06-23 10:35:11.429687500,-25.0,5.0,58.0,101.521484375,-28.23,7.19817015625,29.99
2021-06-23 10:35:11.437500000,-25.0,5.0,58.0,101.521875,-30.51,7.19829025,29.99
2021-06-23 10:35:11.445312500,-25.25,5.0,58.0,101.522265625,-32.69,7.19841034375,29.99
2021-06-23 10:35:11.453125000,-25.5,5.0,58.0,101.52265625,-34.87,7.1985304375000005,29.99
2021-06-23 10:35:11.460937500,-25.75,5.0,58.0,101.523046875,-36.45,7.19865053125,29.99
2021-06-23 10:35:11.468750000,-26.0,5.0,58.0,101.5234375,-38.03,7.198770625,29.99
2021-06-23 10:35:11.476562500,-26.0,5.0,58.0,101.523828125,-38.465,7.19889071875,29.99
2021-06-23 10:35:11.484375000,-26.0,5.0,58.0,101.52421875,-38.9,7.1990108125,29.99
2021-06-23 10:35:11.492187500,-26.0,5.0,58.0,101.524609375,-37.78,7.199130906250001,29.99
2021-06-23 10:35:11.500000000,-26.0,5.0,58.0,101.525,-36.66,7.199251,29.99
2021-06-23 10:35:11.507812500,-25.75,5.0,58.0,101.525390625,-33.915,7.19921096875,29.99
2021-06-23 10:35:11.515625000,-25.5,5.0,58.0,101.52578125,-31.17,7.1991709375,29.99
2021-06-23 10:35:11.523437500,-25.25,5.0,58.0,101.526171875,-27.16,7.199130906250001,29.99
2021-06-23 10:35:11.531250000,-25.0,5.0,58.0,101.5265625,-23.15,7.1990908750000004,29.99
2021-06-23 10:35:11.539062500,-25.0,5.0,58.25,101.52695312499999,-18.555,7.19905084375,29.99
2021-06-23 10:35:11.546875000,-25.0,5.0,58.5,101.52734375,-13.96,7.1990108125,29.99
2021-06-23 10:35:11.554687500,-25.0,5.0,58.75,101.527734375,-9.55,7.19897078125,29.99
2021-06-23 10:35:11.562500000,-25.0,5.0,59.0,101.528125,-5.14,7.198930750000001,29.99
2021-06-23 10:35:11.570312500,-25.25,5.0,58.75,101.528515625,-1.505,7.19889071875,29.99
2021-06-23 10:35:11.578125000,-25.5,5.0,58.5,101.52890624999999,2.13,7.1988506875,29.99
2021-06-23 10:35:11.585937500,-25.75,5.0,58.25,101.529296875,4.77,7.19881065625,29.99
2021-06-23 10:35:11.593750000,-26.0,5.0,58.0,101.5296875,7.41,7.198770625,29.99
2021-06-23 10:35:11.601562500,-26.0,5.0,58.0,101.530078125,9.15,7.19873059375,29.99
2021-06-23 10:35:11.609375000,-26.0,5.0,58.0,101.53046875,10.89,7.1986905625,29.99
2021-06-23 10:35:11.617187500,-26.0,5.0,58.0,101.53085937499999,12.025,7.19865053125,29.99
2021-06-23 10:35:11.625000000,-26.0,5.0,58.0,101.53125,13.16,7.1986105,29.99
2021-06-23 10:35:11.632812500,-25.75,5.0,58.0,101.531640625,13.940000000000001,7.19857046875,29.99
2021-06-23 10:35:11.640625000,-25.5,5.0,58.0,101.53203125,14.72,7.1985304375,29.99
2021-06-23 10:35:11.648437500,-25.25,5.0,58.0,101.532421875,15.285,7.19849040625,29.99
2021-06-23 10:35:11.656250000,-25.0,5.0,58.0,101.53281249999999,15.85,7.198450375,29.99
2021-06-23 10:35:11.664062500,-25.25,5.0,58.0,101.533203125,16.205,7.19841034375,29.99
2021-06-23 10:35:11.671875000,-25.5,5.0,58.0,101.53359375,16.56,7.1983703125,29.99
2021-06-23 10:35:11.679687500,-25.75,5.0,58.0,101.533984375,16.68,7.19833028125,29.99
2021-06-23 10:35:11.687500000,-26.0,5.0,58.0,101.534375,16.8,7.1982902499999994,29.99
2021-06-23 10:35:11.695312500,-25.75,5.0,58.0,101.53476562499999,16.740000000000002,7.19825021875,29.99
2021-06-23 10:35:11.703125000,-25.5,5.0,58.0,101.53515625,16.68,7.1982101875,29.99
2021-06-23 10:35:11.710937500,-25.25,5.0,58.0,101.535546875,16.595,7.19817015625,29.99
2021-06-23 10:35:11.718750000,-25.0,5.0,58.0,101.5359375,16.51,7.198130125,29.99
2021-06-23 10:35:11.726562500,-25.25,5.0,58.0,101.536328125,16.61,7.198090093749999,29.99
2021-06-23 10:35:11.734375000,-25.5,5.0,58.0,101.53671874999999,16.71,7.1980500625,29.99
2021-06-23 10:35:11.742187500,-25.75,5.0,58.0,101.537109375,17.155,7.19801003125,29.99
2021-06-23 10:35:11.750000000,-26.0,5.0,58.0,101.5375,17.6,7.19797,29.99
2021-06-23 10:35:11.757812500,-26.0,5.0,57.75,101.537890625,18.415,7.197809875,29.99
2021-06-23 10:35:11.765625000,-26.0,5.0,57.5,101.53828125,19.23,7.19764975,29.99
2021-06-23 10:35:11.773437500,-26.0,5.0,57.25,101.53867187499999,20.3,7.197489625,29.99
2021-06-23 10:35:11.781250000,-26.0,5.0,57.0,101.5390625,21.37,7.1973294999999995,29.99
2021-06-23 10:35:11.789062500,-25.75,5.0,57.25,101.539453125,22.455,7.197169375,29.99
2021-06-23 10:35:11.796875000,-25.5,5.0,57.5,101.53984375,23.54,7.19700925,29.99
2021-06-23 10:35:11.804687500,-25.25,5.0,57.75,101.540234375,24.415,7.196849125,29.99
2021-06-23 10:35:11.812500000,-25.0,5.0,58.0,101.54062499999999,25.29,7.196689,29.99
2021-06-23 10:35:11.820312500,-25.0,5.0,58.0,101.541015625,25.799999999999997,7.196528875,29.99
2021-06-23 10:35:11.828125000,-25.0,5.0,58.0,101.54140625,26.31,7.1963687499999995,29.99
2021-06-23 10:35:11.835937500,-25.0,5.0,58.0,101.541796875,26.435,7.196208625,29.99
2021-06-23 10:35:11.843750000,-25.0,5.0,58.0,101.5421875,26.56,7.1960485,29.99
2021-06-23 10:35:11.851562500,-25.25,5.0,58.0,101.54257812499999,26.38,7.195888375,29.99
2021-06-23 10:35:11.859375000,-25.5,5.0,58.0,101.54296875,26.2,7.19572825,29.99
2021-06-23 10:35:11.867187500,-25.75,5.0,58.0,101.543359375,25.825,7.195568125,29.99
2021-06-23 10:35:11.875000000,-26.0,5.0,58.0,101.54375,25.45,7.1954080000000005,29.99
2021-06-23 10:35:11.882812500,-25.75,5.0,58.0,101.544140625,24.955,7.195247875,29.99
2021-06-23 10:35:11.890625000,-25.5,5.0,58.0,101.54453124999999,24.46,7.19508775,29.99
2021-06-23 10:35:11.898437500,-25.25,5.0,58.0,101.544921875,23.845,7.194927625,29.99
2021-06-23 10:35:11.906250000,-25.0,5.0,58.0,101.5453125,23.23,7.1947675,29.99
2021-06-23 10:35:11.914062500,-25.0,5.0,58.0,101.545703125,22.435000000000002,7.194607375,29.99
2021-06-23 10:35:11.921875000,-25.0,5.0,58.0,101.54609375,21.64,7.1944472500000005,29.99
2021-06-23 10:35:11.929687500,-25.0,5.0,58.0,101.54648437499999,20.630000000000003,7.194287125,29.99
2021-06-23 10:35:11.937500000,-25.0,5.0,58.0,101.546875,19.62,7.194127,29.99
2021-06-23 10:35:11.945312500,-25.0,5.0,58.0,101.547265625,18.405,7.193966875,29.99
2021-06-23 10:35:11.953125000,-25.0,5.0,58.0,101.54765625,17.19,7.19380675,29.99
2021-06-23 10:35:11.960937500,-25.0,5.0,58.0,101.548046875,15.835,7.193646625,29.99
2021-06-23 10:35:11.968750000,-25.0,5.0,58.0,101.54843749999999,14.48,7.193486500000001,29.99
2021-06-23 10:35:11.976562500,-25.0,5.0,58.0,101.548828125,13.105,7.193326375,29.99
2021-06-23 10:35:11.984375000,-25.0,5.0,58.0,101.54921875,11.73,7.19316625,29.99
2021-06-23 10:35:11.992187500,-25.0,5.0,58.0,101.549609375,10.42,7.193006125,29.99
2021-06-23 10:35:12.000000000,-25.0,5.0,58.0,101.55,9.11,7.192846,29.99
2021-06-23 10:35:12.007812500,-25.0,5.0,58.0,101.55039062499999,7.89,7.192725906250001,29.99
2021-06-23 10:35:12.015625000,-25.0,5.0,58.0,101.55078125,6.67,7.1926058125,29.99
2021-06-23 10:35:12.023437500,-25.0,5.0,58.0,101.551171875,5.52,7.19248571875,29.99
2021-06-23 10:35:12.031250000,-25.0,5.0,58.0,101.5515625,4.37,7.192365625,29.99
2021-06-23 10:35:12.039062500,-25.25,5.0,58.0,101.551953125,3.21,7.19224553125,29.99
2021-06-23 10:35:12.046875000,-25.5,5.0,58.0,101.55234374999999,2.05,7.1921254375000006,29.99
2021-06-23 10:35:12.054687500,-25.75,5.0,58.0,101.552734375,0.825,7.19200534375,29.99
2021-06-23 10:35:12.062500000,-26.0,5.0,58.0,101.553125,-0.4,7.19188525,29.99
2021-06-23 10:35:12.070312500,-26.0,5.0,58.0,101.553515625,-1.7000000000000002,7.19176515625,29.99
2021-06-23 10:35:12.078125000,-26.0,5.0,58.0,101.55390625,-3.0,7.1916450625,29.99
2021-06-23 10:35:12.085937500,-26.0,5.0,58.0,101.55429687499999,-4.32,7.1915249687500005,29.99
2021-06-23 10:35:12.093750000,-26.0,5.0,58.0,101.5546875,-5.64,7.191404875,29.99
2021-06-23 10:35:12.101562500,-26.0,5.0,58.0,101.555078125,-6.885,7.19128478125,29.99
2021-06-23 10:35:12.109375000,-26.0,5.0,58.0,101.55546875,-8.13,7.1911646875,29.99
2021-06-23 10:35:12.117187500,-26.0,5.0,58.0,101.555859375,-9.21,7.19104459375,29.99
2021-06-23 10:35:12.125000000,-26.0,5.0,58.0,101.55624999999999,-10.29,7.1909244999999995,29.99
2021-06-23 10:35:12.132812500,-26.0,5.0,58.0,101.556640625,-11.165,7.19080440625,29.99
2021-06-23 10:35:12.140625000,-26.0,5.0,58.0,101.55703125,-12.04,7.1906843125,29.99
2021-06-23 10:35:12.148437500,-26.0,5.0,58.0,101.557421875,-12.765,7.19056421875,29.99
2021-06-23 10:35:12.156250000,-26.0,5.0,58.0,101.5578125,-13.49,7.190444125,29.99
2021-06-23 10:35:12.164062500,-26.0,5.0,58.0,101.55820312499999,-14.225000000000001,7.190324031249999,29.99
2021-06-23 10:35:12.171875000,-26.0,5.0,58.0,101.55859375,-14.96,7.1902039375,29.99
2021-06-23 10:35:12.179687500,-26.0,5.0,58.0,101.558984375,-15.93,7.19008384375,29.99
2021-06-23 10:35:12.187500000,-26.0,5.0,58.0,101.559375,-16.9,7.1899637499999995,29.99
2021-06-23 10:35:12.195312500,-25.75,5.0,58.0,101.559765625,-18.295,7.18984365625,29.99
2021-06-23 10:35:12.203125000,-25.5,5.0,58.0,101.56015624999999,-19.69,7.189723562499999,29.99
2021-06-23 10:35:12.210937500,-25.25,5.0,58.0,101.560546875,-21.57,7.18960346875,29.99
2021-06-23 10:35:12.218750000,-25.0,5.0,58.0,101.5609375,-23.45,7.189483375,29.99
2021-06-23 10:35:12.226562500,-25.0,5.0,58.0,101.561328125,-25.625,7.1893632812499995,29.99
2021-06-23 10:35:12.234375000,-25.0,5.0,58.0,101.56171875,-27.8,7.1892431875,29.99
2021-06-23 10:35:12.242187500,-25.0,5.0,58.0,101.56210937499999,-29.86,7.189123093749999,29.99
2021-06-23 10:35:12.250000000,-25.0,5.0,58.0,101.5625,-31.92,7.189003,29.99
2021-06-23 10:35:12.257812500,-25.25,5.0,58.0,101.562890625,-33.31,7.1886426875,29.99
2021-06-23 10:35:12.265625000,-25.5,5.0,58.0,101.56328125,-34.7,7.188282375,29.99
2021-06-23 10:35:12.273437500,-25.75,5.0,58.0,101.563671875,-34.905,7.187922062499999,29.99
2021-06-23 10:35:12.281250000,-26.0,5.0,58.0,101.56406249999999,-35.11,7.1875617499999995,29.99
2021-06-23 10:35:12.289062500,-26.0,5.0,58.0,101.564453125,-33.805,7.1872014375,29.99
2021-06-23 10:35:12.296875000,-26.0,5.0,58.0,101.56484375,-32.5,7.186841125,29.99
2021-06-23 10:35:12.304687500,-26.0,5.0,58.0,101.565234375,-29.725,7.186480812499999,29.99
2021-06-23 10:35:12.312500000,-26.0,5.0,58.0,101.565625,-26.95,7.1861204999999995,29.99
2021-06-23 10:35:12.320312500,-25.75,5.0,58.0,101.56601562499999,-23.035,7.1857601875,29.99
2021-06-23 10:35:12.328125000,-25.5,5.0,58.0,101.56640625,-19.12,7.185399875,29.99
2021-06-23 10:35:12.335937500,-25.25,5.0,58.0,101.566796875,-14.64,7.1850395625,29.99
2021-06-23 10:35:12.343750000,-25.0,5.0,58.0,101.5671875,-10.16,7.184679249999999,29.99
2021-06-23 10:35:12.351562500,-25.25,5.0,58.0,101.567578125,-5.725,7.1843189375,29.99
2021-06-23 10:35:12.359375000,-25.5,5.0,58.0,101.56796874999999,-1.29,7.183958625,29.99
2021-06-23 10:35:12.367187500,-25.75,5.0,58.0,101.568359375,2.59,7.1835983125,29.99
2021-06-23 10:35:12.375000000,-26.0,5.0,58.0,101.56875,6.47,7.183237999999999,29.99
2021-06-23 10:35:12.382812500,-26.0,5.0,58.0,101.569140625,9.48,7.1828776874999996,29.99
2021-06-23 10:35:12.390625000,-26.0,5.0,58.0,101.56953125,12.49,7.182517375,29.99
2021-06-23 10:35:12.398437500,-26.0,5.0,58.0,101.56992187499999,14.530000000000001,7.1821570625,29.99
2021-06-23 10:35:12.406250000,-26.0,5.0,58.0,101.5703125,16.57,7.18179675,29.99
2021-06-23 10:35:12.414062500,-25.75,5.0,58.0,101.570703125,17.675,7.1814364374999995,29.99
2021-06-23 10:35:12.421875000,-25.5,5.0,58.0,101.57109375,18.78,7.181076125,29.99
2021-06-23 10:35:12.429687500,-25.25,5.0,58.0,101.571484375,19.09,7.1807158125,29.99
2021-06-23 10:35:12.437500000,-25.0,5.0,58.0,101.57187499999999,19.4,7.1803555,29.99
2021-06-23 10:35:12.445312500,-25.0,5.0,58.0,101.572265625,19.104999999999997,7.1799951875,29.99
2021-06-23 10:35:12.453125000,-25.0,5.0,58.0,101.57265625,18.81,7.179634875,29.99
2021-06-23 10:35:12.460937500,-25.0,5.0,58.0,101.573046875,18.145,7.1792745625,29.99
2021-06-23 10:35:12.468750000,-25.0,5.0,58.0,101.5734375,17.48,7.17891425,29.99
2021-06-23 10:35:12.476562500,-25.25,5.0,58.0,101.57382812499999,16.69,7.1785539375,29.99
2021-06-23 10:35:12.484375000,-25.5,5.0,58.0,101.57421875,15.9,7.178193625,29.99
2021-06-23 10:35:12.492187500,-25.75,5.0,58.0,101.574609375,15.215,7.1778333125,29.99
2021-06-23 10:35:12.500000000,-26.0,5.0,58.0,101.57499999999999,14.53,7.177473,29.99
2021-06-23 10:35:12.507812500,-26.0,5.0,58.0,101.575390625,14.145,7.1775530625,29.99
2021-06-23 10:35:12.515625000,-26.0,5.0,58.0,101.57578124999999,13.76,7.177633125,29.99
2021-06-23 10:35:12.523437500,-26.0,5.0,58.0,101.576171875,13.77,7.1777131875,29.99
2021-06-23 10:35:12.531250000,-26.0,5.0,58.0,101.5765625,13.78,7.17779325,29.99
2021-06-23 10:35:12.539062500,-25.75,5.0,58.0,101.57695312499999,14.175,7.1778733125,29.99
2021-06-23 10:35:12.546875000,-25.5,5.0,58.0,101.57734375,14.57,7.177953375,29.99
2021-06-23 10:35:12.554687500,-25.25,5.0,58.0,101.57773437499999,15.25,7.1780334375,29.99
2021-06-23 10:35:12.562500000,-25.0,5.0,58.0,101.578125,15.93,7.1781135,29.99
2021-06-23 10:35:12.570312500,-25.0,5.0,58.0,101.578515625,16.744999999999997,7.1781935625,29.99
2021-06-23 10:35:12.578125000,-25.0,5.0,58.0,101.57890624999999,17.56,7.178273625,29.99
2021-06-23 10:35:12.585937500,-25.0,5.0,58.0,101.579296875,18.32,7.1783536875000005,29.99
2021-06-23 10:35:12.593750000,-25.0,5.0,58.0,101.57968749999999,19.08,7.17843375,29.99
2021-06-23 10:35:12.601562500,-25.0,5.0,58.0,101.580078125,19.634999999999998,7.1785138125,29.99
2021-06-23 10:35:12.609375000,-25.0,5.0,58.0,101.58046875,20.19,7.178593875,29.99
2021-06-23 10:35:12.617187500,-25.0,5.0,58.0,101.58085937499999,20.415,7.1786739375,29.99
2021-06-23 10:35:12.625000000,-25.0,5.0,58.0,101.58125,20.64,7.178754,29.99
2021-06-23 10:35:12.632812500,-25.0,5.0,58.0,101.58164062499999,20.495,7.1788340625,29.99
2021-06-23 10:35:12.640625000,-25.0,5.0,58.0,101.58203125,20.35,7.178914125,29.99
2021-06-23 10:35:12.648437500,-25.0,5.0,58.0,101.582421875,19.865000000000002,7.1789941875,29.99
2021-06-23 10:35:12.656250000,-25.0,5.0,58.0,101.58281249999999,19.38,7.17907425,29.99
2021-06-23 10:35:12.664062500,-25.0,5.0,58.0,101.583203125,18.66,7.1791543125,29.99
2021-06-23 10:35:12.671875000,-25.0,5.0,58.0,101.58359374999999,17.94,7.179234375,29.99
2021-06-23 10:35:12.679687500,-25.0,5.0,58.0,101.583984375,17.125,7.1793144375,29.99
2021-06-23 10:35:12.687500000,-25.0,5.0,58.0,101.584375,16.31,7.1793945,29.99
2021-06-23 10:35:12.695312500,-25.25,5.0,58.0,101.58476562499999,15.54,7.1794745625,29.99
2021-06-23 10:35:12.703125000,-25.5,5.0,58.0,101.58515625,14.77,7.179554625,29.99
2021-06-23 10:35:12.710937500,-25.75,5.0,58.0,101.58554687499999,14.115,7.1796346875,29.99
2021-06-23 10:35:12.718750000,-26.0,5.0,58.0,101.5859375,13.46,7.1797147500000005,29.99
2021-06-23 10:35:12.726562500,-26.0,5.0,58.0,101.586328125,12.91,7.1797948125,29.99
2021-06-23 10:35:12.734375000,-26.0,5.0,58.0,101.58671874999999,12.36,7.179874875,29.99
2021-06-23 10:35:12.742187500,-26.0,5.0,58.0,101.587109375,11.844999999999999,7.1799549375,29.99
2021-06-23 10:35:12.750000000,-26.0,5.0,58.0,101.58749999999999,11.33,7.180035,29.99
2021-06-23 10:35:12.757812500,-26.0,5.0,58.0,101.587890625,10.745000000000001,7.179594625,29.99
2021-06-23 10:35:12.765625000,-26.0,5.0,58.0,101.58828125,10.16,7.17915425,29.99
2021-06-23 10:35:12.773437500,-26.0,5.0,58.0,101.58867187499999,9.425,7.178713875000001,29.99
2021-06-23 10:35:12.781250000,-26.0,5.0,58.0,101.5890625,8.69,7.1782735,29.99
2021-06-23 10:35:12.789062500,-25.75,5.0,58.0,101.58945312499999,7.77,7.177833125,29.99
2021-06-23 10:35:12.796875000,-25.5,5.0,58.0,101.58984375,6.85,7.17739275,29.99
2021-06-23 10:35:12.804687500,-25.25,5.0,58.0,101.590234375,5.744999999999999,7.176952375,29.99
2021-06-23 10:35:12.812500000,-25.0,5.0,58.0,101.59062499999999,4.64,7.176512000000001,29.99
2021-06-23 10:35:12.820312500,-25.0,5.0,58.0,101.591015625,3.4,7.1760716250000005,29.99
2021-06-23 10:35:12.828125000,-25.0,5.0,58.0,101.59140624999999,2.16,7.17563125,29.99
2021-06-23 10:35:12.835937500,-25.0,5.0,58.0,101.591796875,0.8450000000000002,7.175190875,29.99
2021-06-23 10:35:12.843750000,-25.0,5.0,58.0,101.5921875,-0.47,7.1747505,29.99
2021-06-23 10:35:12.851562500,-25.0,5.0,58.0,101.59257812499999,-1.7950000000000002,7.174310125,29.99
2021-06-23 10:35:12.859375000,-25.0,5.0,58.0,101.59296875,-3.12,7.173869750000001,29.99
2021-06-23 10:35:12.867187500,-25.0,5.0,58.0,101.59335937499999,-4.38,7.173429375,29.99
2021-06-23 10:35:12.875000000,-25.0,5.0,58.0,101.59375,-5.64,7.172989,29.99
2021-06-23 10:35:12.882812500,-25.25,5.0,58.0,101.594140625,-6.77,7.172548625,29.99
2021-06-23 10:35:12.890625000,-25.5,5.0,58.0,101.59453124999999,-7.9,7.17210825,29.99
2021-06-23 10:35:12.898437500,-25.75,5.0,58.0,101.594921875,-8.865,7.171667875000001,29.99
2021-06-23 10:35:12.906250000,-26.0,5.0,58.0,101.59531249999999,-9.83,7.1712275000000005,29.99
2021-06-23 10:35:12.914062500,-25.75,5.0,58.0,101.595703125,-10.65,7.170787125,29.99
2021-06-23 10:35:12.921875000,-25.5,5.0,58.0,101.59609375,-11.47,7.17034675,29.99
2021-06-23 10:35:12.929687500,-25.25,5.0,58.0,101.59648437499999,-12.225000000000001,7.169906375,29.99
2021-06-23 10:35:12.937500000,-25.0,5.0,58.0,101.596875,-12.98,7.169466,29.99
2021-06-23 10:35:12.945312500,-25.0,5.0,58.0,101.59726562499999,-13.82,7.169025625000001,29.99
2021-06-23 10:35:12.953125000,-25.0,5.0,58.0,101.59765625,-14.66,7.1685852500000005,29.99
2021-06-23 10:35:12.960937500,-25.0,5.0,58.0,101.598046875,-15.745,7.168144875,29.99
2021-06-23 10:35:12.968750000,-25.0,5.0,58.0,101.59843749999999,-16.83,7.1677045,29.99
2021-06-23 10:35:12.976562500,-25.0,5.0,58.0,101.598828125,-18.265,7.167264125,29.99
2021-06-23 10:35:12.984375000,-25.0,5.0,58.0,101.59921874999999,-19.7,7.166823750000001,29.99
2021-06-23 10:35:12.992187500,-25.0,5.0,58.0,101.599609375,-21.509999999999998,7.1663833750000006,29.99
2021-06-23 10:35:13.000000000,-25.0,5.0,58.0,101.6,-23.32,7.165943,29.99
2021-06-23 10:35:13.007812500,-25.0,5.0,58.0,101.600625,-25.37,7.165983000000001,29.99
2021-06-23 10:35:13.015625000,-25.0,5.0,58.0,101.60125,-27.42,7.166023,29.99
2021-06-23 10:35:13.023437500,-25.0,5.0,58.0,101.60187499999999,-29.395000000000003,7.166063,29.99
2021-06-23 10:35:13.031250000,-25.0,5.0,58.0,101.60249999999999,-31.37,7.1661030000000006,29.99
2021-06-23 10:35:13.039062500,-25.0,5.0,58.0,101.60312499999999,-32.845,7.166143,29.99
2021-06-23 10:35:13.046875000,-25.0,5.0,58.0,101.60374999999999,-34.32,7.166183,29.99
2021-06-23 10:35:13.054687500,-25.0,5.0,58.0,101.60437499999999,-34.805,7.1662230000000005,29.99
2021-06-23 10:35:13.062500000,-25.0,5.0,58.0,101.60499999999999,-35.29,7.166263000000001,29.99
2021-06-23 10:35:13.070312500,-25.0,5.0,58.0,101.60562499999999,-34.44,7.166303,29.99
2021-06-23 10:35:13.078125000,-25.0,5.0,58.0,101.60624999999999,-33.59,7.166343,29.99
2021-06-23 10:35:13.085937500,-25.0,5.0,58.0,101.606875,-31.285000000000004,7.166383000000001,29.99
2021-06-23 10:35:13.093750000,-25.0,5.0,58.0,101.6075,-28.98,7.166423,29.99
2021-06-23 10:35:13.101562500,-25.25,5.0,58.0,101.608125,-25.445,7.166463,29.99
2021-06-23 10:35:13.109375000,-25.5,5.0,58.0,101.60875,-21.91,7.1665030000000005,29.99
2021-06-23 10:35:13.117187500,-25.75,5.0,58.0,101.609375,-17.68,7.166543,29.99
2021-06-23 10:35:13.125000000,-26.0,5.0,58.0,101.61,-13.45,7.166583,29.99
2021-06-23 10:35:13.132812500,-26.0,5.0,58.0,101.610625,-9.184999999999999,7.166623,29.99
2021-06-23 10:35:13.140625000,-26.0,5.0,58.0,101.61125,-4.92,7.166663,29.99
2021-06-23 10:35:13.148437500,-26.0,5.0,58.0,101.611875,-1.23,7.166703,29.99
2021-06-23 10:35:13.156250000,-26.0,5.0,58.0,101.6125,2.46,7.166743,29.99
2021-06-23 10:35:13.164062500,-25.75,5.0,58.0,101.613125,5.205,7.166783,29.99
2021-06-23 10:35:13.171875000,-25.5,5.0,58.0,101.61375,7.95,7.166823,29.99
2021-06-23 10:35:13.179687500,-25.25,5.0,58.0,101.614375,9.67,7.166863,29.99
2021-06-23 10:35:13.187500000,-25.0,5.0,58.0,101.615,11.39,7.166903,29.99
2021-06-23 10:35:13.195312500,-25.0,5.0,58.0,101.615625,12.254999999999999,7.166943,29.99
2021-06-23 10:35:13.203125000,-25.0,5.0,58.0,101.61625,13.12,7.166983,29.99
2021-06-23 10:35:13.210937500,-25.0,5.0,58.0,101.616875,13.385,7.167023,29.99
2021-06-23 10:35:13.218750000,-25.0,5.0,58.0,101.61749999999999,13.65,7.167063,29.99
2021-06-23 10:35:13.226562500,-25.0,5.0,58.25,101.61812499999999,13.555,7.167103,29.99
2021-06-23 10:35:13.234375000,-25.0,5.0,58.5,101.61874999999999,13.46,7.167143,29.99
2021-06-23 10:35:13.242187500,-25.0,5.0,58.75,101.61937499999999,13.14,7.167183,29.99
2021-06-23 10:35:13.250000000,-25.0,5.0,59.0,101.62,12.82,7.167223,29.99
2021-06-23 10:35:13.257812500,-25.0,5.0,58.75,101.620625,12.36,7.1669828125,29.99
2021-06-23 10:35:13.265625000,-25.0,5.0,58.5,101.62125,11.9,7.1667426249999995,29.99
2021-06-23 10:35:13.273437500,-25.0,5.0,58.25,101.621875,11.36,7.1665024375,29.99
2021-06-23 10:35:13.281250000,-25.0,5.0,58.0,101.6225,10.82,7.16626225,29.99
2021-06-23 10:35:13.289062500,-25.25,5.0,58.0,101.623125,10.29,7.1660220625,29.99
2021-06-23 10:35:13.296875000,-25.5,5.0,58.0,101.62375,9.76,7.165781875,29.99
2021-06-23 10:35:13.304687500,-25.75,5.0,58.0,101.624375,9.36,7.1655416875,29.99
2021-06-23 10:35:13.312500000,-26.0,5.0,58.0,101.625,8.96,7.1653015,29.99
2021-06-23 10:35:13.320312500,-26.0,5.0,58.0,101.625625,8.805,7.1650613125,29.99
2021-06-23 10:35:13.328125000,-26.0,5.0,58.0,101.62625,8.65,7.164821125,29.99
2021-06-23 10:35:13.335937500,-26.0,5.0,58.0,101.626875,8.805,7.1645809375,29.99
2021-06-23 10:35:13.343750000,-26.0,5.0,58.0,101.6275,8.96,7.16434075,29.99
2021-06-23 10:35:13.351562500,-25.75,5.0,58.0,101.628125,9.38,7.1641005625,29.99
2021-06-23 10:35:13.359375000,-25.5,5.0,58.0,101.62875,9.8,7.1638603750000005,29.99
2021-06-23 10:35:13.367187500,-25.25,5.0,58.0,101.629375,10.385000000000002,7.1636201875,29.99
2021-06-23 10:35:13.375000000,-25.0,5.0,58.0,101.63,10.97,7.16338,29.99
2021-06-23 10:35:13.382812500,-25.0,5.0,58.0,101.630625,11.54,7.1631398125,29.99
2021-06-23 10:35:13.390625000,-25.0,5.0,58.0,101.63125,12.11,7.162899625,29.99
2021-06-23 10:35:13.398437500,-25.0,5.0,58.0,101.631875,12.52,7.1626594375,29.99
2021-06-23 10:35:13.406250000,-25.0,5.0,58.0,101.6325,12.93,7.16241925,29.99
2021-06-23 10:35:13.414062500,-25.0,5.0,58.0,101.63312499999999,13.07,7.1621790625,29.99
2021-06-23 10:35:13.421875000,-25.0,5.0,58.0,101.63375,13.21,7.161938875000001,29.99
2021-06-23 10:35:13.429687500,-25.0,5.0,58.0,101.634375,13.100000000000001,7.1616986875,29.99
2021-06-23 10:35:13.437500000,-25.0,5.0,58.0,101.635,12.99,7.1614585,29.99
2021-06-23 10:35:13.445312500,-25.0,5.0,58.0,101.635625,12.719999999999999,7.1612183125,29.99
2021-06-23 10:35:13.453125000,-25.0,5.0,58.0,101.63625,12.45,7.160978125,29.99
2021-06-23 10:35:13.460937500,-25.0,5.0,58.0,101.636875,12.175,7.1607379375,29.99
2021-06-23 10:35:13.468750000,-25.0,5.0,58.0,101.6375,11.9,7.16049775,29.99
2021-06-23 10:35:13.476562500,-25.25,5.0,58.0,101.638125,11.719999999999999,7.1602575625,29.99
2021-06-23 10:35:13.484375000,-25.5,5.0,58.0,101.63875,11.54,7.160017375000001,29.99
2021-06-23 10:35:13.492187500,-25.75,5.0,58.0,101.639375,11.48,7.1597771875000005,29.99
2021-06-23 10:35:13.500000000,-26.0,5.0,58.0,101.64,11.42,7.159537,29.99
2021-06-23 10:35:13.507812500,-25.75,5.0,58.0,101.640625,11.4,7.1597771875000005,29.99
2021-06-23 10:35:13.515625000,-25.5,5.0,58.0,101.64125,11.38,7.160017375000001,29.99
2021-06-23 10:35:13.523437500,-25.25,5.0,58.0,101.641875,11.255,7.1602575625,29.99
2021-06-23 10:35:13.531250000,-25.0,5.0,58.0,101.6425,11.13,7.16049775,29.99
2021-06-23 10:35:13.539062500,-25.0,5.0,58.0,101.643125,10.780000000000001,7.1607379375,29.99
2021-06-23 10:35:13.546875000,-25.0,5.0,58.0,101.64375,10.43,7.160978125,29.99
2021-06-23 10:35:13.554687500,-25.0,5.0,58.0,101.644375,9.79,7.1612183125,29.99
2021-06-23 10:35:13.562500000,-25.0,5.0,58.0,101.645,9.15,7.1614585,29.99
2021-06-23 10:35:13.570312500,-25.25,5.0,58.0,101.645625,8.22,7.1616986875,29.99
2021-06-23 10:35:13.578125000,-25.5,5.0,58.0,101.64625,7.29,7.161938875000001,29.99
2021-06-23 10:35:13.585937500,-25.75,5.0,58.0,101.64687500000001,6.125,7.1621790625,29.99
2021-06-23 10:35:13.593750000,-26.0,5.0,58.0,101.64750000000001,4.96,7.16241925,29.99
2021-06-23 10:35:13.601562500,-25.75,5.0,58.0,101.64812500000001,3.62,7.1626594375,29.99
2021-06-23 10:35:13.609375000,-25.5,5.0,58.0,101.64875,2.28,7.162899625,29.99
2021-06-23 10:35:13.617187500,-25.25,5.0,58.0,101.649375,0.8199999999999998,7.1631398125,29.99
2021-06-23 10:35:13.625000000,-25.0,5.0,58.0,101.65,-0.64,7.16338,29.99
2021-06-23 10:35:13.632812500,-25.0,5.0,58.0,101.650625,-2.135,7.1636201875,29.99
2021-06-23 10:35:13.640625000,-25.0,5.0,58.0,101.65125,-3.63,7.1638603750000005,29.99
2021-06-23 10:35:13.648437500,-25.0,5.0,58.0,101.651875,-5.05,7.1641005625,29.99
2021-06-23 10:35:13.656250000,-25.0,5.0,58.0,101.6525,-6.47,7.16434075,29.99
2021-06-23 10:35:13.664062500,-25.0,5.0,58.0,101.653125,-7.67,7.1645809375,29.99
2021-06-23 10:35:13.671875000,-25.0,5.0,58.0,101.65375,-8.87,7.164821125,29.99
2021-06-23 10:35:13.679687500,-25.0,5.0,58.0,101.654375,-9.795,7.1650613125,29.99
2021-06-23 10:35:13.687500000,-25.0,5.0,58.0,101.655,-10.72,7.1653015,29.99
2021-06-23 10:35:13.695312500,-25.25,5.0,58.0,101.655625,-11.415,7.1655416875,29.99
2021-06-23 10:35:13.703125000,-25.5,5.0,58.0,101.65625,-12.11,7.165781875,29.99
2021-06-23 10:35:13.710937500,-25.75,5.0,58.0,101.656875,-12.76,7.1660220625,29.99
2021-06-23 10:35:13.718750000,-26.0,5.0,58.0,101.6575,-13.41,7.16626225,29.99
2021-06-23 10:35:13.726562500,-26.0,5.0,58.0,101.658125,-14.285,7.1665024375,29.99
2021-06-23 10:35:13.734375000,-26.0,5.0,58.0,101.65875,-15.16,7.1667426249999995,29.99
2021-06-23 10:35:13.742187500,-26.0,5.0,58.0,101.659375,-16.5,7.1669828125,29.99
2021-06-23 10:35:13.750000000,-26.0,5.0,58.0,101.66,-17.84,7.167223,29.99
2021-06-23 10:35:13.757812500,-26.0,5.0,58.0,101.66062500000001,-19.740000000000002,7.167062875,29.99
2021-06-23 10:35:13.765625000,-26.0,5.0,58.0,101.66125000000001,-21.64,7.16690275,29.99
2021-06-23 10:35:13.773437500,-26.0,5.0,58.0,101.66187500000001,-23.955,7.166742625,29.99
2021-06-23 10:35:13.781250000,-26.0,5.0,58.0,101.66250000000001,-26.27,7.1665825,29.99
2021-06-23 10:35:13.789062500,-25.75,5.0,58.25,101.66312500000001,-28.625,7.166422375,29.99
2021-06-23 10:35:13.796875000,-25.5,5.0,58.5,101.66375000000001,-30.98,7.16626225,29.99
2021-06-23 10:35:13.804687500,-25.25,5.0,58.75,101.664375,-32.85,7.166102125,29.99
2021-06-23 10:35:13.812500000,-25.0,5.0,59.0,101.665,-34.72,7.165942,29.99
2021-06-23 10:35:13.820312500,-25.0,5.0,58.75,101.665625,-35.585,7.165781875,29.99
2021-06-23 10:35:13.828125000,-25.0,5.0,58.5,101.66625,-36.45,7.16562175,29.99
2021-06-23 10:35:13.835937500,-25.0,5.0,58.25,101.666875,-35.95,7.165461625,29.99
2021-06-23 10:35:13.843750000,-25.0,5.0,58.0,101.6675,-35.45,7.1653015,29.99
2021-06-23 10:35:13.851562500,-25.0,5.0,58.0,101.668125,-33.515,7.165141375,29.99
2021-06-23 10:35:13.859375000,-25.0,5.0,58.0,101.66875,-31.58,7.16498125,29.99
2021-06-23 10:35:13.867187500,-25.0,5.0,58.0,101.669375,-28.43,7.1648211250000005,29.99
2021-06-23 10:35:13.875000000,-25.0,5.0,58.0,101.67,-25.28,7.164661000000001,29.99
2021-06-23 10:35:13.882812500,-25.0,5.0,58.0,101.670625,-21.37,7.164500875,29.99
2021-06-23 10:35:13.890625000,-25.0,5.0,58.0,101.67125,-17.46,7.16434075,29.99
2021-06-23 10:35:13.898437500,-25.0,5.0,58.0,101.671875,-13.365,7.164180625,29.99
2021-06-23 10:35:13.906250000,-25.0,5.0,58.0,101.6725,-9.27,7.1640205,29.99
2021-06-23 10:35:13.914062500,-25.0,5.0,58.0,101.673125,-5.515,7.1638603750000005,29.99
2021-06-23 10:35:13.921875000,-25.0,5.0,58.0,101.67375000000001,-1.76,7.163700250000001,29.99
2021-06-23 10:35:13.929687500,-25.0,5.0,58.0,101.67437500000001,1.285,7.163540125,29.99
2021-06-23 10:35:13.937500000,-25.0,5.0,58.0,101.67500000000001,4.33,7.16338,29.99
2021-06-23 10:35:13.945312500,-25.25,5.0,58.0,101.67562500000001,6.5,7.163219875,29.99
2021-06-23 10:35:13.953125000,-25.5,5.0,58.0,101.67625000000001,8.67,7.16305975,29.99
2021-06-23 10:35:13.960937500,-25.75,5.0,58.0,101.67687500000001,9.969999999999999,7.1628996250000005,29.99
2021-06-23 10:35:13.968750000,-26.0,5.0,58.0,101.67750000000001,11.27,7.162739500000001,29.99
2021-06-23 10:35:13.976562500,-26.0,5.0,58.0,101.67812500000001,11.82,7.162579375,29.99
2021-06-23 10:35:13.984375000,-26.0,5.0,58.0,101.67875000000001,12.37,7.16241925,29.99
2021-06-23 10:35:13.992187500,-26.0,5.0,58.0,101.67937500000001,12.329999999999998,7.162259125,29.99
2021-06-23 10:35:14.000000000,-26.0,5.0,58.0,101.68,12.29,7.162099,29.99
2021-06-23 10:35:14.007812500,-26.0,5.0,58.0,101.680390625,11.84,7.1620189375,29.990624999999998
2021-06-23 10:35:14.015625000,-26.0,5.0,58.0,101.68078125000001,11.39,7.161938875000001,29.991249999999997
2021-06-23 10:35:14.023437500,-26.0,5.0,58.0,101.681171875,10.715,7.1618588125,29.991875
2021-06-23 10:35:14.031250000,-26.0,5.0,58.0,101.68156250000001,10.04,7.161778750000001,29.9925
2021-06-23 10:35:14.039062500,-25.75,5.0,58.0,101.681953125,9.315,7.1616986875,29.993125
2021-06-23 10:35:14.046875000,-25.5,5.0,58.0,101.68234375,8.59,7.161618625,29.99375
2021-06-23 10:35:14.054687500,-25.25,5.0,58.0,101.68273437500001,8.004999999999999,7.1615385625000005,29.994374999999998
2021-06-23 10:35:14.062500000,-25.0,5.0,58.0,101.683125,7.42,7.1614585,29.994999999999997
2021-06-23 10:35:14.070312500,-25.0,5.0,58.0,101.68351562500001,7.115,7.161378437500001,29.995625
2021-06-23 10:35:14.078125000,-25.0,5.0,58.0,101.68390625,6.81,7.161298375,29.99625
2021-06-23 10:35:14.085937500,-25.0,5.0,58.0,101.684296875,6.875,7.1612183125,29.996875
2021-06-23 10:35:14.093750000,-25.0,5.0,58.0,101.68468750000001,6.94,7.1611382500000005,29.9975
2021-06-23 10:35:14.101562500,-25.0,5.0,58.0,101.685078125,7.385,7.1610581875,29.998124999999998
2021-06-23 10:35:14.109375000,-25.0,5.0,58.0,101.68546875000001,7.83,7.160978125000001,29.99875
2021-06-23 10:35:14.117187500,-25.0,5.0,58.0,101.685859375,8.559999999999999,7.1608980625,29.999375
2021-06-23 10:35:14.125000000,-25.0,5.0,58.0,101.68625,9.29,7.160818000000001,30.0
2021-06-23 10:35:14.132812500,-25.25,5.0,58.0,101.68664062500001,10.17,7.1607379375,30.000625
2021-06-23 10:35:14.140625000,-25.5,5.0,58.0,101.68703125,11.05,7.160657875,30.00125
2021-06-23 10:35:14.148437500,-25.75,5.0,58.0,101.68742187500001,11.895,7.160577812500001,30.001875000000002
2021-06-23 10:35:14.156250000,-26.0,5.0,58.0,101.6878125,12.74,7.16049775,30.0025
2021-06-23 10:35:14.164062500,-26.0,5.0,58.0,101.688203125,13.395,7.160417687500001,30.003125
2021-06-23 10:35:14.171875000,-26.0,5.0,58.0,101.68859375000001,14.05,7.160337625,30.00375
2021-06-23 10:35:14.179687500,-26.0,5.0,58.0,101.688984375,14.38,7.1602575625,30.004375
2021-06-23 10:35:14.187500000,-26.0,5.0,58.0,101.68937500000001,14.71,7.1601775000000005,30.005000000000003
2021-06-23 10:35:14.195312500,-25.75,5.0,58.25,101.689765625,14.685,7.1600974375,30.005625000000002
2021-06-23 10:35:14.203125000,-25.5,5.0,58.5,101.69015625,14.66,7.160017375000001,30.00625
2021-06-23 10:35:14.210937500,-25.25,5.0,58.75,101.69054687500001,14.32,7.1599373125,30.006875
2021-06-23 10:35:14.218750000,-25.0,5.0,59.0,101.6909375,13.98,7.15985725,30.0075
2021-06-23 10:35:14.226562500,-25.25,5.0,59.0,101.69132812500001,13.42,7.1597771875000005,30.008125
2021-06-23 10:35:14.234375000,-25.5,5.0,59.0,101.69171875,12.86,7.159697125,30.008750000000003
2021-06-23 10:35:14.242187500,-25.75,5.0,59.0,101.692109375,12.195,7.159617062500001,30.009375000000002
2021-06-23 10:35:14.250000000,-26.0,5.0,59.0,101.69250000000001,11.53,7.159537,30.01
2021-06-23 10:35:14.257812500,-25.75,5.25,58.5,101.692890625,10.864999999999998,7.1594569375,30.01
2021-06-23 10:35:14.265625000,-25.5,5.5,58.0,101.69328125000001,10.2,7.159376875,30.01
2021-06-23 10:35:14.273437500,-25.25,5.75,57.5,101.693671875,9.59,7.1592968125,30.01
2021-06-23 10:35:14.281250000,-25.0,6.0,57.0,101.6940625,8.98,7.159216750000001,30.01
2021-06-23 10:35:14.289062500,-25.25,5.75,57.0,101.69445312500001,8.41,7.1591366875,30.01
2021-06-23 10:35:14.296875000,-25.5,5.5,57.0,101.69484375,7.84,7.159056625,30.01
2021-06-23 10:35:14.304687500,-25.75,5.25,57.0,101.69523437500001,7.245,7.1589765625,30.01
2021-06-23 10:35:14.312500000,-26.0,5.0,57.0,101.695625,6.65,7.1588965,30.01
2021-06-23 10:35:14.320312500,-26.0,5.0,57.25,101.696015625,5.945,7.1588164375000005,30.01
2021-06-23 10:35:14.328125000,-26.0,5.0,57.5,101.69640625000001,5.24,7.158736375,30.01
2021-06-23 10:35:14.335937500,-26.0,5.0,57.75,101.696796875,4.35,7.1586563125,30.01
2021-06-23 10:35:14.343750000,-26.0,5.0,58.0,101.69718750000001,3.46,7.15857625,30.01
2021-06-23 10:35:14.351562500,-25.75,5.0,58.0,101.697578125,2.38,7.1584961875,30.01
2021-06-23 10:35:14.359375000,-25.5,5.0,58.0,101.69796875,1.3,7.1584161250000005,30.01
2021-06-23 10:35:14.367187500,-25.25,5.0,58.0,101.69835937500001,0.08000000000000007,7.1583360625,30.01
2021-06-23 10:35:14.375000000,-25.0,5.0,58.0,101.69875,-1.14,7.158256,30.01
2021-06-23 10:35:14.382812500,-25.0,5.0,58.0,101.69914062500001,-2.3899999999999997,7.1581759375,30.01
2021-06-23 10:35:14.390625000,-25.0,5.0,58.0,101.69953125,-3.64,7.158095875,30.01
2021-06-23 10:35:14.398437500,-25.0,5.0,58.0,101.699921875,-4.8,7.1580158125,30.01
2021-06-23 10:35:14.406250000,-25.0,5.0,58.0,101.70031250000001,-5.96,7.15793575,30.01
2021-06-23 10:35:14.414062500,-25.25,5.0,58.0,101.700703125,-6.98,7.157855687500001,30.01
2021-06-23 10:35:14.421875000,-25.5,5.0,58.0,101.70109375000001,-8.0,7.157775625,30.01
2021-06-23 10:35:14.429687500,-25.75,5.0,58.0,101.701484375,-8.89,7.1576955625,30.01
2021-06-23 10:35:14.437500000,-26.0,5.0,58.0,101.701875,-9.78,7.1576155,30.01
2021-06-23 10:35:14.445312500,-25.75,5.0,58.0,101.70226562500001,-10.629999999999999,7.1575354375,30.01
2021-06-23 10:35:14.453125000,-25.5,5.0,58.0,101.70265625,-11.48,7.1574553750000005,30.01
2021-06-23 10:35:14.460937500,-25.25,5.0,58.0,101.70304687500001,-12.405000000000001,7.1573753125,30.01
2021-06-23 10:35:14.468750000,-25.0,5.0,58.0,101.7034375,-13.33,7.15729525,30.01
2021-06-23 10:35:14.476562500,-25.0,5.0,58.0,101.703828125,-14.415,7.1572151875,30.01
2021-06-23 10:35:14.484375000,-25.0,5.0,58.0,101.70421875000001,-15.5,7.157135125,30.01
2021-06-23 10:35:14.492187500,-25.0,5.0,58.0,101.704609375,-16.759999999999998,7.1570550625000005,30.01
2021-06-23 10:35:14.500000000,-25.0,5.0,58.0,101.70500000000001,-18.02,7.156975,30.01
2021-06-23 10:35:14.507812500,-25.0,5.0,58.0,101.705390625,-19.45,7.156534625,30.01
2021-06-23 10:35:14.515625000,-25.0,5.0,58.0,101.70578125,-20.88,7.15609425,30.01
2021-06-23 10:35:14.523437500,-25.0,5.0,58.0,101.70617187500001,-22.415,7.1556538750000005,30.01
2021-06-23 10:35:14.531250000,-25.0,5.0,58.0,101.7065625,-23.95,7.1552135,30.01
2021-06-23 10:35:14.539062500,-25.0,5.0,58.0,101.706953125,-25.455,7.154773125,30.01
2021-06-23 10:35:14.546875000,-25.0,5.0,58.0,101.70734375,-26.96,7.15433275,30.01
2021-06-23 10:35:14.554687500,-25.0,5.0,58.0,101.707734375,-28.22,7.153892375,30.01
2021-06-23 10:35:14.562500000,-25.0,5.0,58.0,101.70812500000001,-29.48,7.153452,30.01
2021-06-23 10:35:14.570312500,-25.0,5.0,58.0,101.708515625,-30.155,7.153011625,30.01
2021-06-23 10:35:14.578125000,-25.0,5.0,58.0,101.70890625,-30.83,7.15257125,30.01
2021-06-23 10:35:14.585937500,-25.0,5.0,58.0,101.709296875,-30.555,7.152130875,30.01
2021-06-23 10:35:14.593750000,-25.0,5.0,58.0,101.7096875,-30.28,7.1516905,30.01
2021-06-23 10:35:14.601562500,-25.25,5.0,58.0,101.71007812500001,-28.79,7.151250125,30.01
2021-06-23 10:35:14.609375000,-25.5,5.0,58.0,101.71046875,-27.3,7.1508097500000005,30.01
2021-06-23 10:35:14.617187500,-25.75,5.0,58.0,101.710859375,-24.575000000000003,7.150369375,30.01
2021-06-23 10:35:14.625000000,-26.0,5.0,58.0,101.71125,-21.85,7.149929,30.01
2021-06-23 10:35:14.632812500,-26.0,5.0,58.0,101.711640625,-18.205000000000002,7.149488625,30.01
2021-06-23 10:35:14.640625000,-26.0,5.0,58.0,101.71203125000001,-14.56,7.14904825,30.01
2021-06-23 10:35:14.648437500,-26.0,5.0,58.0,101.712421875,-10.57,7.148607875000001,30.01
2021-06-23 10:35:14.656250000,-26.0,5.0,58.0,101.7128125,-6.58,7.1481675000000005,30.01
2021-06-23 10:35:14.664062500,-25.75,5.0,58.0,101.713203125,-2.91,7.147727125,30.01
2021-06-23 10:35:14.671875000,-25.5,5.0,58.0,101.71359375,0.76,7.14728675,30.01
2021-06-23 10:35:14.679687500,-25.25,5.0,58.0,101.71398437500001,3.6000000000000005,7.146846375,30.01
2021-06-23 10:35:14.687500000,-25.0,5.0,58.0,101.714375,6.44,7.146406000000001,30.01
2021-06-23 10:35:14.695312500,-25.25,5.0,58.0,101.714765625,8.215,7.1459656250000005,30.01
2021-06-23 10:35:14.703125000,-25.5,5.0,58.0,101.71515625,9.99,7.14552525,30.01
2021-06-23 10:35:14.710937500,-25.75,5.0,58.0,101.715546875,10.795,7.145084875,30.01
2021-06-23 10:35:14.718750000,-26.0,5.0,58.0,101.71593750000001,11.6,7.1446445,30.01
2021-06-23 10:35:14.726562500,-26.0,5.0,58.0,101.716328125,11.69,7.144204125,30.01
2021-06-23 10:35:14.734375000,-26.0,5.0,58.0,101.71671875,11.78,7.143763750000001,30.01
2021-06-23 10:35:14.742187500,-26.0,5.0,58.0,101.717109375,11.44,7.1433233750000005,30.01
2021-06-23 10:35:14.750000000,-26.0,5.0,58.0,101.7175,11.1,7.142883,30.01
2021-06-23 10:35:14.757812500,-26.0,5.0,58.0,101.71789062500001,10.545,7.1431231875000005,30.01
2021-06-23 10:35:14.765625000,-26.0,5.0,58.0,101.71828125,9.99,7.143363375,30.01
2021-06-23 10:35:14.773437500,-26.0,5.0,58.0,101.718671875,9.335,7.1436035625,30.01
2021-06-23 10:35:14.781250000,-26.0,5.0,58.0,101.7190625,8.68,7.14384375,30.01
2021-06-23 10:35:14.789062500,-26.0,5.0,58.0,101.719453125,7.984999999999999,7.1440839375000005,30.01
2021-06-23 10:35:14.796875000,-26.0,5.0,58.0,101.71984375000001,7.29,7.144324125000001,30.01
2021-06-23 10:35:14.804687500,-26.0,5.0,58.0,101.720234375,6.66,7.1445643125,30.01
2021-06-23 10:35:14.812500000,-26.0,5.0,58.0,101.720625,6.03,7.1448045,30.01
2021-06-23 10:35:14.820312500,-25.75,5.0,58.0,101.721015625,5.6,7.1450446875,30.01
2021-06-23 10:35:14.828125000,-25.5,5.0,58.0,101.72140625,5.17,7.145284875,30.01
2021-06-23 10:35:14.835937500,-25.25,5.0,58.0,101.72179687500001,5.085,7.1455250625,30.01
2021-06-23 10:35:14.843750000,-25.0,5.0,58.0,101.7221875,5.0,7.14576525,30.01
2021-06-23 10:35:14.851562500,-25.25,5.0,58.0,101.722578125,5.3149999999999995,7.1460054375,30.01
2021-06-23 10:35:14.859375000,-25.5,5.0,58.0,101.72296875,5.63,7.146245625000001,30.01
2021-06-23 10:35:14.867187500,-25.75,5.0,58.0,101.723359375,6.29,7.1464858125,30.01
2021-06-23 10:35:14.875000000,-26.0,5.0,58.0,101.72375000000001,6.95,7.146726,30.01
2021-06-23 10:35:14.882812500,-26.0,5.0,58.0,101.724140625,7.755000000000001,7.1469661875,30.01
2021-06-23 10:35:14.890625000,-26.0,5.0,58.0,101.72453125,8.56,7.147206375,30.01
2021-06-23 10:35:14.898437500,-26.0,5.0,58.0,101.724921875,9.280000000000001,7.1474465625,30.01
2021-06-23 10:35:14.906250000,-26.0,5.0,58.0,101.7253125,10.0,7.14768675,30.01
2021-06-23 10:35:14.914062500,-26.0,5.0,58.0,101.72570312500001,10.455,7.1479269375,30.01
2021-06-23 10:35:14.921875000,-26.0,5.0,58.0,101.72609375,10.91,7.1481671250000005,30.01
2021-06-23 10:35:14.929687500,-26.0,5.0,58.0,101.726484375,11.025,7.1484073125,30.01
2021-06-23 10:35:14.937500000,-26.0,5.0,58.0,101.726875,11.14,7.1486475,30.01
2021-06-23 10:35:14.945312500,-26.0,5.0,58.0,101.727265625,10.98,7.1488876875,30.01
2021-06-23 10:35:14.953125000,-26.0,5.0,58.0,101.72765625000001,10.82,7.149127875,30.01
2021-06-23 10:35:14.960937500,-26.0,5.0,58.0,101.728046875,10.5,7.1493680625,30.01
2021-06-23 10:35:14.968750000,-26.0,5.0,58.0,101.7284375,10.18,7.14960825,30.01
2021-06-23 10:35:14.976562500,-26.0,5.0,58.0,101.728828125,9.805,7.1498484375,30.01
2021-06-23 10:35:14.984375000,-26.0,5.0,58.0,101.72921875,9.43,7.150088625,30.01
2021-06-23 10:35:14.992187500,-26.0,5.0,58.0,101.72960937500001,9.0,7.1503288125,30.01
2021-06-23 10:35:15.000000000,-26.0,5.0,58.0,101.73,8.57,7.150569,30.01
2021-06-23 10:35:15.007812500,-26.0,5.0,58.0,101.730546875,8.05,7.15052896875,30.009375000000002
2021-06-23 10:35:15.015625000,-26.0,5.0,58.0,101.73109375,7.53,7.1504889375,30.008750000000003
2021-06-23 10:35:15.023437500,-26.0,5.0,58.0,101.731640625,6.82,7.15044890625,30.008125
2021-06-23 10:35:15.031250000,-26.0,5.0,58.0,101.73218750000001,6.11,7.150408875,30.0075
2021-06-23 10:35:15.039062500,-26.0,5.0,58.0,101.732734375,5.1850000000000005,7.15036884375,30.006875
2021-06-23 10:35:15.046875000,-26.0,5.0,58.0,101.73328125,4.26,7.1503288125,30.00625
2021-06-23 10:35:15.054687500,-26.0,5.0,58.0,101.733828125,3.1399999999999997,7.1502887812500004,30.005625000000002
2021-06-23 10:35:15.062500000,-26.0,5.0,58.0,101.734375,2.02,7.15024875,30.005000000000003
2021-06-23 10:35:15.070312500,-26.0,5.0,58.0,101.734921875,0.815,7.15020871875,30.004375
2021-06-23 10:35:15.078125000,-26.0,5.0,58.0,101.73546875000001,-0.39,7.1501686875,30.00375
2021-06-23 10:35:15.085937500,-26.0,5.0,58.0,101.73601562500001,-1.5699999999999998,7.15012865625,30.003125
2021-06-23 10:35:15.093750000,-26.0,5.0,58.0,101.7365625,-2.75,7.150088625,30.0025
2021-06-23 10:35:15.101562500,-26.0,5.0,58.0,101.737109375,-3.79,7.15004859375,30.001875000000002
2021-06-23 10:35:15.109375000,-26.0,5.0,58.0,101.73765625,-4.83,7.1500085625,30.00125
2021-06-23 10:35:15.117187500,-26.0,5.0,58.0,101.738203125,-5.67,7.14996853125,30.000625
2021-06-23 10:35:15.125000000,-26.0,5.0,58.0,101.73875000000001,-6.51,7.1499285,30.0
2021-06-23 10:35:15.132812500,-26.0,5.0,58.0,101.73929687500001,-7.14,7.14988846875,29.999375
2021-06-23 10:35:15.140625000,-26.0,5.0,58.0,101.73984375,-7.77,7.1498484375,29.99875
2021-06-23 10:35:15.148437500,-26.0,5.0,58.0,101.740390625,-8.215,7.14980840625,29.998124999999998
2021-06-23 10:35:15.156250000,-26.0,5.0,58.0,101.7409375,-8.66,7.149768375,29.9975
2021-06-23 10:35:15.164062500,-26.0,5.25,58.0,101.741484375,-8.955,7.1497283437500005,29.996875
2021-06-23 10:35:15.171875000,-26.0,5.5,58.0,101.74203125,-9.25,7.1496883125,29.99625
2021-06-23 10:35:15.179687500,-26.0,5.75,58.0,101.74257812500001,-9.485,7.14964828125,29.995625
2021-06-23 10:35:15.187500000,-26.0,6.0,58.0,101.743125,-9.72,7.14960825,29.994999999999997
2021-06-23 10:35:15.195312500,-26.0,5.75,58.0,101.743671875,-9.99,7.14956821875,29.994374999999998
2021-06-23 10:35:15.203125000,-26.0,5.5,58.0,101.74421875,-10.26,7.1495281875000005,29.99375
2021-06-23 10:35:15.210937500,-26.0,5.25,58.0,101.744765625,-10.7,7.14948815625,29.993125
2021-06-23 10:35:15.218750000,-26.0,5.0,58.0,101.7453125,-11.14,7.149448125,29.9925
2021-06-23 10:35:15.226562500,-26.0,5.0,58.0,101.74585937500001,-11.91,7.14940809375,29.991875
2021-06-23 10:35:15.234375000,-26.0,5.0,58.0,101.74640625,-12.68,7.149368062500001,29.991249999999997
2021-06-23 10:35:15.242187500,-26.0,5.0,58.0,101.746953125,-13.895,7.1493280312500005,29.990624999999998
2021-06-23 10:35:15.250000000,-26.0,5.0,58.0,101.7475,-15.11,7.149288,29.99
2021-06-23 10:35:15.257812500,-26.0,5.0,58.0,101.748046875,-16.795,7.14908784375,29.99
2021-06-23 10:35:15.265625000,-26.0,5.0,58.0,101.74859375,-18.48,7.1488876875,29.99
2021-06-23 10:35:15.273437500,-26.0,5.0,58.0,101.749140625,-20.495,7.14868753125,29.99
2021-06-23 10:35:15.281250000,-26.0,5.0,58.0,101.74968750000001,-22.51,7.148487375,29.99
2021-06-23 10:35:15.289062500,-26.0,5.0,58.0,101.750234375,-24.535,7.14828721875,29.99
2021-06-23 10:35:15.296875000,-26.0,5.0,58.0,101.75078125,-26.56,7.1480870625,29.99
2021-06-23 10:35:15.304687500,-26.0,5.0,58.0,101.751328125,-28.104999999999997,7.14788690625,29.99
2021-06-23 10:35:15.312500000,-26.0,5.0,58.0,101.751875,-29.65,7.14768675,29.99
2021-06-23 10:35:15.320312500,-26.0,5.0,58.0,101.752421875,-30.225,7.14748659375,29.99
2021-06-23 10:35:15.328125000,-26.0,5.0,58.0,101.75296875000001,-30.8,7.1472864375,29.99
2021-06-23 10:35:15.335937500,-26.0,5.0,58.0,101.753515625,-30.055,7.14708628125,29.99
2021-06-23 10:35:15.343750000,-26.0,5.0,58.0,101.7540625,-29.31,7.146886125,29.99
2021-06-23 10:35:15.351562500,-26.0,5.0,58.0,101.754609375,-27.18,7.14668596875,29.99
2021-06-23 10:35:15.359375000,-26.0,5.0,58.0,101.75515625,-25.05,7.1464858125,29.99
2021-06-23 10:35:15.367187500,-26.0,5.0,58.0,101.755703125,-21.825000000000003,7.14628565625,29.99
2021-06-23 10:35:15.375000000,-26.0,5.0,58.0,101.75625,-18.6,7.1460855,29.99
2021-06-23 10:35:15.382812500,-25.75,5.0,58.0,101.756796875,-14.830000000000002,7.145885343750001,29.99
2021-06-23 10:35:15.390625000,-25.5,5.0,58.0,101.75734375,-11.06,7.145685187500001,29.99
2021-06-23 10:35:15.398437500,-25.25,5.0,58.0,101.757890625,-7.365,7.145485031250001,29.99
2021-06-23 10:35:15.406250000,-25.0,5.0,58.0,101.7584375,-3.67,7.145284875000001,29.99
2021-06-23 10:35:15.414062500,-25.25,5.0,58.0,101.758984375,-0.5350000000000001,7.145084718750001,29.99
2021-06-23 10:35:15.421875000,-25.5,5.0,58.0,101.75953125,2.6,7.144884562500001,29.99
2021-06-23 10:35:15.429687500,-25.75,5.0,58.0,101.760078125,4.915000000000001,7.144684406250001,29.99
2021-06-23 10:35:15.437500000,-26.0,5.0,58.0,101.760625,7.23,7.1444842500000005,29.99
2021-06-23 10:35:15.445312500,-25.75,5.0,58.0,101.761171875,8.695,7.1442840937500005,29.99
2021-06-23 10:35:15.453125000,-25.5,5.0,58.0,101.76171875,10.16,7.1440839375000005,29.99
2021-06-23 10:35:15.460937500,-25.25,5.0,58.0,101.762265625,10.895,7.1438837812500005,29.99
2021-06-23 10:35:15.468750000,-25.0,5.0,58.0,101.7628125,11.63,7.143683625,29.99
2021-06-23 10:35:15.476562500,-25.25,5.0,58.0,101.76335937500001,11.780000000000001,7.14348346875,29.99
2021-06-23 10:35:15.484375000,-25.5,5.0,58.0,101.76390625,11.93,7.1432833125,29.99
2021-06-23 10:35:15.492187500,-25.75,5.0,58.0,101.764453125,11.605,7.14308315625,29.99
2021-06-23 10:35:15.500000000,-26.0,5.0,58.0,101.765,11.28,7.142883,29.99
2021-06-23 10:35:15.507812500,-26.0,5.0,58.0,101.765546875,10.585,7.1428029375,29.99
2021-06-23 10:35:15.515625000,-26.0,5.0,58.0,101.76609375,9.89,7.1427228750000005,29.99
2021-06-23 10:35:15.523437500,-26.0,5.0,58.0,101.766640625,8.97,7.1426428125,29.99
2021-06-23 10:35:15.531250000,-26.0,5.0,58.0,101.7671875,8.05,7.142562750000001,29.99
2021-06-23 10:35:15.539062500,-26.0,5.0,58.0,101.767734375,7.085000000000001,7.1424826875,29.99
2021-06-23 10:35:15.546875000,-26.0,5.0,58.0,101.76828125,6.12,7.142402625,29.99
2021-06-23 10:35:15.554687500,-26.0,5.0,58.0,101.768828125,5.335,7.1423225625,29.99
2021-06-23 10:35:15.562500000,-26.0,5.0,58.0,101.769375,4.55,7.1422425,29.99
2021-06-23 10:35:15.570312500,-26.0,5.0,58.0,101.769921875,4.135,7.142162437500001,29.99
2021-06-23 10:35:15.578125000,-26.0,5.0,58.0,101.77046875,3.72,7.142082375,29.99
2021-06-23 10:35:15.585937500,-26.0,5.0,58.0,101.771015625,3.75,7.1420023125,29.99
2021-06-23 10:35:15.593750000,-26.0,5.0,58.0,101.7715625,3.78,7.14192225,29.99
2021-06-23 10:35:15.601562500,-26.0,5.0,58.0,101.772109375,4.225,7.1418421875,29.99
2021-06-23 10:35:15.609375000,-26.0,5.0,58.0,101.77265625,4.67,7.1417621250000005,29.99
2021-06-23 10:35:15.617187500,-26.0,5.0,58.0,101.773203125,5.37,7.1416820625,29.99
2021-06-23 10:35:15.625000000,-26.0,5.0,58.0,101.77375,6.07,7.141602000000001,29.99
2021-06-23 10:35:15.632812500,-26.0,5.25,58.0,101.774296875,6.8149999999999995,7.1415219375,29.99
2021-06-23 10:35:15.640625000,-26.0,5.5,58.0,101.77484375,7.56,7.141441875,29.99
2021-06-23 10:35:15.648437500,-26.0,5.75,58.0,101.775390625,8.165,7.1413618125000005,29.99
2021-06-23 10:35:15.656250000,-26.0,6.0,58.0,101.7759375,8.77,7.14128175,29.99
2021-06-23 10:35:15.664062500,-25.75,6.0,58.0,101.776484375,9.125,7.141201687500001,29.99
2021-06-23 10:35:15.671875000,-25.5,6.0,58.0,101.77703125,9.48,7.141121625,29.99
2021-06-23 10:35:15.679687500,-25.25,6.0,58.0,101.777578125,9.595,7.1410415625,29.99
2021-06-23 10:35:15.687500000,-25.0,6.0,58.0,101.778125,9.71,7.1409615,29.99
2021-06-23 10:35:15.695312500,-25.0,6.0,58.0,101.778671875,9.675,7.1408814375,29.99
2021-06-23 10:35:15.703125000,-25.0,6.0,58.0,101.77921875,9.64,7.140801375000001,29.99
2021-06-23 10:35:15.710937500,-25.0,6.0,58.0,101.779765625,9.575,7.1407213125,29.99
2021-06-23 10:35:15.718750000,-25.0,6.0,58.0,101.7803125,9.51,7.14064125,29.99
2021-06-23 10:35:15.726562500,-25.25,5.75,58.0,101.780859375,9.46,7.1405611875,29.99
2021-06-23 10:35:15.734375000,-25.5,5.5,58.0,101.78140625,9.41,7.140481125,29.99
2021-06-23 10:35:15.742187500,-25.75,5.25,58.0,101.781953125,9.305,7.1404010625000005,29.99
2021-06-23 10:35:15.750000000,-26.0,5.0,58.0,101.7825,9.2,7.140321,29.99
2021-06-23 10:35:15.757812500,-26.0,5.0,58.0,101.783046875,8.86,7.140481125,29.99
2021-06-23 10:35:15.765625000,-26.0,5.0,58.0,101.78359375,8.52,7.14064125,29.99
2021-06-23 10:35:15.773437500,-26.0,5.0,58.0,101.78414062499999,7.765,7.140801375,29.99
2021-06-23 10:35:15.781250000,-26.0,5.0,58.0,101.7846875,7.01,7.1409615,29.99
2021-06-23 10:35:15.789062500,-26.0,5.25,58.0,101.785234375,5.765,7.141121625,29.99
2021-06-23 10:35:15.796875000,-26.0,5.5,58.0,101.78578125,4.52,7.14128175,29.99
2021-06-23 10:35:15.804687500,-26.0,5.75,58.0,101.786328125,2.885,7.141441875,29.99
2021-06-23 10:35:15.812500000,-26.0,6.0,58.0,101.786875,1.25,7.141602,29.99
2021-06-23 10:35:15.820312500,-26.0,6.0,58.0,101.78742187499999,-0.53,7.141762125,29.99
2021-06-23 10:35:15.828125000,-26.0,6.0,58.0,101.78796875,-2.31,7.14192225,29.99
2021-06-23 10:35:15.835937500,-26.0,6.0,58.0,101.788515625,-3.9349999999999996,7.142082375,29.99
2021-06-23 10:35:15.843750000,-26.0,6.0,58.0,101.7890625,-5.56,7.1422425,29.99
2021-06-23 10:35:15.851562500,-25.75,5.75,58.0,101.789609375,-6.789999999999999,7.142402625,29.99
2021-06-23 10:35:15.859375000,-25.5,5.5,58.0,101.79015625,-8.02,7.14256275,29.99
2021-06-23 10:35:15.867187500,-25.25,5.25,58.0,101.790703125,-8.805,7.142722875,29.99
2021-06-23 10:35:15.875000000,-25.0,5.0,58.0,101.79124999999999,-9.59,7.142882999999999,29.99
2021-06-23 10:35:15.882812500,-25.0,5.0,58.0,101.791796875,-10.01,7.143043125,29.99
2021-06-23 10:35:15.890625000,-25.0,5.0,58.0,101.79234375,-10.43,7.14320325,29.99
2021-06-23 10:35:15.898437500,-25.0,5.0,58.0,101.792890625,-10.719999999999999,7.143363375,29.99
2021-06-23 10:35:15.906250000,-25.0,5.0,58.0,101.7934375,-11.01,7.1435235,29.99
2021-06-23 10:35:15.914062500,-25.25,5.0,58.0,101.793984375,-11.385,7.1436836249999995,29.99
2021-06-23 10:35:15.921875000,-25.5,5.0,58.0,101.79453124999999,-11.76,7.143843749999999,29.99
2021-06-23 10:35:15.929687500,-25.75,5.0,58.0,101.795078125,-12.425,7.144003875,29.99
2021-06-23 10:35:15.937500000,-26.0,5.0,58.0,101.795625,-13.09,7.144164,29.99
2021-06-23 10:35:15.945312500,-25.75,5.0,58.0,101.796171875,-14.120000000000001,7.144324125,29.99
2021-06-23 10:35:15.953125000,-25.5,5.0,58.0,101.79671875,-15.15,7.14448425,29.99
2021-06-23 10:35:15.960937500,-25.25,5.0,58.0,101.797265625,-16.555,7.1446443749999995,29.99
2021-06-23 10:35:15.968750000,-25.0,5.0,58.0,101.79781249999999,-17.96,7.144804499999999,29.99
2021-06-23 10:35:15.976562500,-25.0,5.0,58.0,101.798359375,-19.62,7.144964625,29.99
2021-06-23 10:35:15.984375000,-25.0,5.0,58.0,101.79890625,-21.28,7.14512475,29.99
2021-06-23 10:35:15.992187500,-25.0,5.0,58.0,101.799453125,-22.950000000000003,7.145284875,29.99
2021-06-23 10:35:16.000000000,-25.0,5.0,58.0,101.8,-24.62,7.145445,29.99
2021-06-23 10:35:16.007812500,-25.25,5.0,58.0,101.80039062499999,-25.990000000000002,7.14532490625,29.99
2021-06-23 10:35:16.015625000,-25.5,5.0,58.0,101.80078125,-27.36,7.145204812499999,29.99
2021-06-23 10:35:16.023437500,-25.75,5.0,58.0,101.801171875,-28.03,7.14508471875,29.99
2021-06-23 10:35:16.031250000,-26.0,5.0,58.0,101.8015625,-28.7,7.144964625,29.99
2021-06-23 10:35:16.039062500,-26.0,5.0,58.0,101.801953125,-28.345,7.1448445312499995,29.99
2021-06-23 10:35:16.046875000,-26.0,5.0,58.0,101.80234374999999,-27.99,7.1447244375,29.99
2021-06-23 10:35:16.054687500,-26.0,5.0,58.0,101.802734375,-26.439999999999998,7.144604343749999,29.99
2021-06-23 10:35:16.062500000,-26.0,5.0,58.0,101.803125,-24.89,7.14448425,29.99
2021-06-23 10:35:16.070312500,-25.75,5.0,58.0,101.803515625,-22.205,7.14436415625,29.99
2021-06-23 10:35:16.078125000,-25.5,5.0,58.0,101.80390625,-19.52,7.144244062499999,29.99
2021-06-23 10:35:16.085937500,-25.25,5.0,58.0,101.80429687499999,-16.009999999999998,7.14412396875,29.99
2021-06-23 10:35:16.093750000,-25.0,5.0,58.0,101.8046875,-12.5,7.144003874999999,29.99
2021-06-23 10:35:16.101562500,-25.0,5.0,58.0,101.805078125,-8.635,7.14388378125,29.99
2021-06-23 10:35:16.109375000,-25.0,5.0,58.0,101.80546875,-4.77,7.1437636875,29.99
2021-06-23 10:35:16.117187500,-25.0,5.0,58.0,101.805859375,-1.08,7.143643593749999,29.99
2021-06-23 10:35:16.125000000,-25.0,5.0,58.0,101.80624999999999,2.61,7.1435235,29.99
2021-06-23 10:35:16.132812500,-25.25,5.25,58.0,101.806640625,5.705,7.14340340625,29.99
2021-06-23 10:35:16.140625000,-25.5,5.5,58.0,101.80703125,8.8,7.1432833124999995,29.99
2021-06-23 10:35:16.148437500,-25.75,5.75,58.0,101.807421875,11.030000000000001,7.14316321875,29.99
2021-06-23 10:35:16.156250000,-26.0,6.0,58.0,101.8078125,13.26,7.143043125,29.99
2021-06-23 10:35:16.164062500,-26.0,6.0,58.0,101.80820312499999,14.58,7.14292303125,29.99
2021-06-23 10:35:16.171875000,-26.0,6.0,58.0,101.80859375,15.9,7.1428029375,29.99
2021-06-23 10:35:16.179687500,-26.0,6.0,58.0,101.808984375,16.4,7.142682843749999,29.99
2021-06-23 10:35:16.187500000,-26.0,6.0,58.0,101.809375,16.9,7.14256275,29.99
2021-06-23 10:35:16.195312500,-25.75,5.75,58.0,101.809765625,16.695,7.14244265625,29.99
2021-06-23 10:35:16.203125000,-25.5,5.5,58.0,101.81015624999999,16.49,7.1423225624999995,29.99
2021-06-23 10:35:16.210937500,-25.25,5.25,58.0,101.810546875,15.745,7.14220246875,29.99
2021-06-23 10:35:16.218750000,-25.0,5.0,58.0,101.8109375,15.0,7.142082374999999,29.99
2021-06-23 10:35:16.226562500,-25.0,5.0,58.25,101.811328125,13.835,7.14196228125,29.99
2021-06-23 10:35:16.234375000,-25.0,5.0,58.5,101.81171875,12.67,7.1418421875,29.99
2021-06-23 10:35:16.242187500,-25.0,5.0,58.75,101.81210937499999,11.254999999999999,7.1417220937499994,29.99
2021-06-23 10:35:16.250000000,-25.0,5.0,59.0,101.8125,9.84,7.141602,29.99
2021-06-23 10:35:16.257812500,-25.0,5.25,58.75,101.812890625,8.395,7.141161625,29.99
2021-06-23 10:35:16.265625000,-25.0,5.5,58.5,101.81328125,6.95,7.1407212499999995,29.99
2021-06-23 10:35:16.273437500,-25.0,5.75,58.25,101.813671875,5.765000000000001,7.140280875,29.99
2021-06-23 10:35:16.281250000,-25.0,6.0,58.0,101.81406249999999,4.58,7.1398405,29.99
2021-06-23 10:35:16.289062500,-25.25,5.75,58.0,101.814453125,3.9000000000000004,7.139400125,29.99
2021-06-23 10:35:16.296875000,-25.5,5.5,58.0,101.81484375,3.22,7.13895975,29.99
2021-06-23 10:35:16.304687500,-25.75,5.25,58.0,101.815234375,3.2,7.138519375,29.99
2021-06-23 10:35:16.312500000,-26.0,5.0,58.0,101.815625,3.18,7.138078999999999,29.99
2021-06-23 10:35:16.320312500,-26.0,5.0,58.0,101.81601562499999,3.785,7.137638625,29.99
2021-06-23 10:35:16.328125000,-26.0,5.0,58.0,101.81640625,4.39,7.13719825,29.99
2021-06-23 10:35:16.335937500,-26.0,5.0,58.0,101.816796875,5.4,7.136757875,29.99
2021-06-23 10:35:16.343750000,-26.0,5.0,58.0,101.8171875,6.41,7.1363175,29.99
2021-06-23 10:35:16.351562500,-25.75,5.25,58.0,101.817578125,7.535,7.1358771249999995,29.99
2021-06-23 10:35:16.359375000,-25.5,5.5,58.0,101.81796874999999,8.66,7.13543675,29.99
2021-06-23 10:35:16.367187500,-25.25,5.75,58.0,101.818359375,9.620000000000001,7.134996375,29.99
2021-06-23 10:35:16.375000000,-25.0,6.0,58.0,101.81875,10.58,7.134556,29.99
2021-06-23 10:35:16.382812500,-25.0,5.75,58.25,101.819140625,11.205,7.134115625,29.99
2021-06-23 10:35:16.390625000,-25.0,5.5,58.5,101.81953125,11.83,7.13367525,29.99
2021-06-23 10:35:16.398437500,-25.0,5.25,58.75,101.81992187499999,12.09,7.133234875,29.99
2021-06-23 10:35:16.406250000,-25.0,5.0,59.0,101.8203125,12.35,7.1327945,29.99
2021-06-23 10:35:16.414062500,-25.0,5.0,58.75,101.820703125,12.309999999999999,7.132354125,29.99
2021-06-23 10:35:16.421875000,-25.0,5.0,58.5,101.82109375,12.27,7.13191375,29.99
2021-06-23 10:35:16.429687500,-25.0,5.0,58.25,101.821484375,11.985,7.131473375,29.99
2021-06-23 10:35:16.437500000,-25.0,5.0,58.0,101.82187499999999,11.7,7.131033,29.99
2021-06-23 10:35:16.445312500,-25.25,5.0,58.0,101.822265625,11.215,7.130592625,29.99
2021-06-23 10:35:16.453125000,-25.5,5.0,58.0,101.82265625,10.73,7.13015225,29.99
2021-06-23 10:35:16.460937500,-25.75,5.0,58.0,101.823046875,10.030000000000001,7.129711875,29.99
2021-06-23 10:35:16.468750000,-26.0,5.0,58.0,101.8234375,9.33,7.1292715,29.99
2021-06-23 10:35:16.476562500,-25.75,5.0,58.0,101.82382812499999,8.405000000000001,7.128831125,29.99
2021-06-23 10:35:16.484375000,-25.5,5.0,58.0,101.82421875,7.48,7.12839075,29.99
2021-06-23 10:35:16.492187500,-25.25,5.0,58.0,101.824609375,6.34,7.127950375,29.99
2021-06-23 10:35:16.500000000,-25.0,5.0,58.0,101.82499999999999,5.2,7.12751,29.99
2021-06-23 10:35:16.507812500,-25.0,5.0,58.0,101.825390625,3.92,7.1277501875,29.99
2021-06-23 10:35:16.515625000,-25.0,5.0,58.0,101.82578124999999,2.64,7.1279903749999995,29.99
2021-06-23 10:35:16.523437500,-25.0,5.0,58.0,101.826171875,1.3050000000000002,7.1282305625,29.99
2021-06-23 10:35:16.531250000,-25.0,5.0,58.0,101.8265625,-0.03,7.12847075,29.99
2021-06-23 10:35:16.539062500,-25.0,5.0,58.0,101.82695312499999,-1.3350000000000002,7.1287109375,29.99
2021-06-23 10:35:16.546875000,-25.0,5.0,58.0,101.82734375,-2.64,7.128951125,29.99
2021-06-23 10:35:16.554687500,-25.0,5.0,58.0,101.82773437499999,-3.84,7.1291913125,29.99
2021-06-23 10:35:16.562500000,-25.0,5.0,58.0,101.828125,-5.04,7.1294315,29.99
2021-06-23 10:35:16.570312500,-25.0,5.0,58.0,101.828515625,-6.109999999999999,7.1296716875,29.99
2021-06-23 10:35:16.578125000,-25.0,5.0,58.0,101.82890624999999,-7.18,7.1299118749999995,29.99
2021-06-23 10:35:16.585937500,-25.0,5.0,58.0,101.829296875,-8.120000000000001,7.1301520625,29.99
2021-06-23 10:35:16.593750000,-25.0,5.0,58.0,101.82968749999999,-9.06,7.13039225,29.99
2021-06-23 10:35:16.601562500,-25.0,5.0,58.0,101.830078125,-9.91,7.1306324375,29.99
2021-06-23 10:35:16.609375000,-25.0,5.0,58.0,101.83046875,-10.76,7.130872625,29.99
2021-06-23 10:35:16.617187500,-25.0,5.0,58.0,101.83085937499999,-11.620000000000001,7.1311128125,29.99
2021-06-23 10:35:16.625000000,-25.0,5.0,58.0,101.83125,-12.48,7.131353,29.99
2021-06-23 10:35:16.632812500,-25.0,5.0,58.0,101.83164062499999,-13.485,7.1315931875,29.99
2021-06-23 10:35:16.640625000,-25.0,5.0,58.0,101.83203125,-14.49,7.131833374999999,29.99
2021-06-23 10:35:16.648437500,-25.0,5.0,58.0,101.832421875,-15.79,7.1320735625,29.99
2021-06-23 10:35:16.656250000,-25.0,5.0,58.0,101.83281249999999,-17.09,7.13231375,29.99
2021-06-23 10:35:16.664062500,-25.0,5.0,58.0,101.833203125,-18.765,7.1325539375,29.99
2021-06-23 10:35:16.671875000,-25.0,5.0,58.0,101.83359374999999,-20.44,7.132794125,29.99
2021-06-23 10:35:16.679687500,-25.0,5.0,58.0,101.833984375,-22.465,7.1330343124999995,29.99
2021-06-23 10:35:16.687500000,-25.0,5.0,58.0,101.834375,-24.49,7.1332745,29.99
2021-06-23 10:35:16.695312500,-25.0,5.0,58.0,101.83476562499999,-26.619999999999997,7.1335146875,29.99
2021-06-23 10:35:16.703125000,-25.0,5.0,58.0,101.83515625,-28.75,7.133754874999999,29.99
2021-06-23 10:35:16.710937500,-25.0,5.0,58.0,101.83554687499999,-30.58,7.1339950624999995,29.99
2021-06-23 10:35:16.718750000,-25.0,5.0,58.0,101.8359375,-32.41,7.13423525,29.99
2021-06-23 10:35:16.726562500,-25.0,5.0,58.0,101.836328125,-33.455,7.1344754375,29.99
2021-06-23 10:35:16.734375000,-25.0,5.0,58.0,101.83671874999999,-34.5,7.134715625,29.99
2021-06-23 10:35:16.742187500,-25.0,5.0,58.0,101.837109375,-34.34,7.134955812499999,29.99
2021-06-23 10:35:16.750000000,-25.0,5.0,58.0,101.83749999999999,-34.18,7.135196,29.99
2021-06-23 10:35:16.757812500,-25.0,5.0,58.0,101.837890625,-32.625,7.1346755625,29.99
2021-06-23 10:35:16.765625000,-25.0,5.0,58.0,101.83828125,-31.07,7.1341551249999995,29.99
2021-06-23 10:35:16.773437500,-25.0,5.0,58.0,101.83867187499999,-28.23,7.1336346875,29.99
2021-06-23 10:35:16.781250000,-25.0,5.0,58.0,101.8390625,-25.39,7.133114249999999,29.99
2021-06-23 10:35:16.789062500,-25.0,5.0,58.0,101.83945312499999,-21.65,7.1325938125,29.99
2021-06-23 10:35:16.796875000,-25.0,5.0,58.0,101.83984375,-17.91,7.132073375,29.99
2021-06-23 10:35:16.804687500,-25.0,5.0,58.0,101.840234375,-13.82,7.1315529374999995,29.99
2021-06-23 10:35:16.812500000,-25.0,5.0,58.0,101.84062499999999,-9.73,7.1310325,29.99
2021-06-23 10:35:16.820312500,-25.0,5.0,58.0,101.841015625,-5.805,7.130512062499999,29.99
2021-06-23 10:35:16.828125000,-25.0,5.0,58.0,101.84140624999999,-1.88,7.129991625,29.99
2021-06-23 10:35:16.835937500,-25.0,5.0,58.0,101.841796875,1.505,7.1294711875,29.99
2021-06-23 10:35:16.843750000,-25.0,5.0,58.0,101.8421875,4.89,7.12895075,29.99
2021-06-23 10:35:16.851562500,-25.0,5.0,58.0,101.84257812499999,7.515000000000001,7.1284303125,29.99
2021-06-23 10:35:16.859375000,-25.0,5.0,58.0,101.84296875,10.14,7.127909874999999,29.99
2021-06-23 10:35:16.867187500,-25.0,5.0,58.0,101.84335937499999,11.93,7.1273894375,29.99
2021-06-23 10:35:16.875000000,-25.0,5.0,58.0,101.84375,13.72,7.126868999999999,29.99
2021-06-23 10:35:16.882812500,-25.0,5.0,58.0,101.844140625,14.635000000000002,7.1263485625,29.99
2021-06-23 10:35:16.890625000,-25.0,5.0,58.0,101.84453124999999,15.55,7.125828125,29.99
2021-06-23 10:35:16.898437500,-25.0,5.0,58.0,101.844921875,15.59,7.125307687499999,29.99
2021-06-23 10:35:16.906250000,-25.0,5.0,58.0,101.84531249999999,15.63,7.12478725,29.99
2021-06-23 10:35:16.914062500,-25.0,5.0,58.0,101.845703125,14.86,7.124266812499999,29.99
2021-06-23 10:35:16.921875000,-25.0,5.0,58.0,101.84609375,14.09,7.123746375,29.99
2021-06-23 10:35:16.929687500,-25.0,5.0,58.0,101.84648437499999,12.7,7.1232259375,29.99
2021-06-23 10:35:16.937500000,-25.0,5.0,58.0,101.846875,11.31,7.1227054999999995,29.99
2021-06-23 10:35:16.945312500,-25.0,5.0,58.0,101.84726562499999,9.615,7.1221850625,29.99
2021-06-23 10:35:16.953125000,-25.0,5.0,58.0,101.84765625,7.92,7.121664624999999,29.99
2021-06-23 10:35:16.960937500,-25.0,5.0,58.0,101.848046875,6.32,7.1211441875,29.99
2021-06-23 10:35:16.968750000,-25.0,5.0,58.0,101.84843749999999,4.72,7.12062375,29.99
2021-06-23 10:35:16.976562500,-25.0,5.0,58.0,101.848828125,3.585,7.1201033124999995,29.99
2021-06-23 10:35:16.984375000,-25.0,5.0,58.0,101.84921874999999,2.45,7.119582875,29.99
2021-06-23 10:35:16.992187500,-25.0,5.0,58.0,101.849609375,1.98,7.119062437499999,29.99
2021-06-23 10:35:17.000000000,-25.0,5.0,58.0,101.85,1.51,7.118542,29.99
2021-06-23 10:35:17.007812500,-25.0,5.0,58.0,101.84976562499999,1.7,7.1187421875,29.989375
2021-06-23 10:35:17.015625000,-25.0,5.0,58.0,101.84953125,1.89,7.118942375,29.98875
2021-06-23 10:35:17.023437500,-25.0,5.0,58.0,101.849296875,2.555,7.1191425624999995,29.988125
2021-06-23 10:35:17.031250000,-25.0,5.0,58.0,101.84906249999999,3.22,7.1193427499999995,29.987499999999997
2021-06-23 10:35:17.039062500,-25.0,5.0,58.0,101.848828125,4.0600000000000005,7.1195429374999994,29.986874999999998
2021-06-23 10:35:17.046875000,-25.0,5.0,58.0,101.84859374999999,4.9,7.119743124999999,29.98625
2021-06-23 10:35:17.054687500,-25.0,5.0,58.0,101.848359375,5.665,7.119943312499999,29.985625
2021-06-23 10:35:17.062500000,-25.0,5.0,58.0,101.848125,6.43,7.120143499999999,29.985
2021-06-23 10:35:17.070312500,-25.0,5.0,58.0,101.84789062499999,6.955,7.1203436875,29.984375
2021-06-23 10:35:17.078125000,-25.0,5.0,58.0,101.84765625,7.48,7.120543875,29.983749999999997
2021-06-23 10:35:17.085937500,-25.0,5.0,58.0,101.847421875,7.7,7.1207440625,29.983124999999998
2021-06-23 10:35:17.093750000,-25.0,5.0,58.0,101.84718749999999,7.92,7.12094425,29.982499999999998
2021-06-23 10:35:17.101562500,-25.0,5.0,58.0,101.846953125,7.865,7.1211444375,29.981875
2021-06-23 10:35:17.109375000,-25.0,5.0,58.0,101.84671875,7.81,7.121344625,29.98125
2021-06-23 10:35:17.117187500,-25.0,5.0,58.0,101.84648437499999,7.529999999999999,7.1215448125,29.980625
2021-06-23 10:35:17.125000000,-25.0,5.0,58.0,101.84625,7.25,7.121745,29.979999999999997
2021-06-23 10:35:17.132812500,-25.0,5.25,58.0,101.84601562499999,6.8100000000000005,7.1219451875,29.979374999999997
2021-06-23 10:35:17.140625000,-25.0,5.5,58.0,101.84578124999999,6.37,7.122145375,29.978749999999998
2021-06-23 10:35:17.148437500,-25.0,5.75,58.0,101.845546875,5.795,7.1223455625,29.978125
2021-06-23 10:35:17.156250000,-25.0,6.0,58.0,101.84531249999999,5.22,7.12254575,29.9775
2021-06-23 10:35:17.164062500,-25.0,5.75,58.25,101.845078125,4.529999999999999,7.1227459374999995,29.976875
2021-06-23 10:35:17.171875000,-25.0,5.5,58.5,101.84484375,3.84,7.1229461249999995,29.97625
2021-06-23 10:35:17.179687500,-25.0,5.25,58.75,101.84460937499999,3.0300000000000002,7.123146312499999,29.975624999999997
2021-06-23 10:35:17.187500000,-25.0,5.0,59.0,101.844375,2.22,7.1233465,29.974999999999998
2021-06-23 10:35:17.195312500,-25.0,5.0,58.75,101.844140625,1.31,7.1235466875,29.974375
2021-06-23 10:35:17.203125000,-25.0,5.0,58.5,101.84390624999999,0.4,7.123746875,29.97375
2021-06-23 10:35:17.210937500,-25.0,5.0,58.25,101.843671875,-0.5850000000000001,7.1239470625,29.973125
2021-06-23 10:35:17.218750000,-25.0,5.0,58.0,101.8434375,-1.57,7.12414725,29.9725
