TimeStamp,empatica.acc.x,empatica.acc.y,empatica.acc.z,empatica.hr,empatica.bvp,empatica.eda,empatica.temp
2021-07-06 17:21:26.179687500,-17.25,13.0,60.0,92.339453125,-17.645,2.78015628125,33.244375
2021-07-06 17:21:26.187500000,-17.0,13.0,60.0,92.338125,-20.51,2.78011625,33.245
2021-07-06 17:21:26.195312500,-17.0,13.0,59.75,92.336796875,-22.925,2.78007621875,33.245625
2021-07-06 17:21:26.203125000,-17.0,13.0,59.5,92.33546875,-25.34,2.7800361875,33.246249999999996
2021-07-06 17:21:26.210937500,-17.0,13.0,59.25,92.334140625,-27.535,2.77999615625,33.246875
2021-07-06 17:21:26.218750000,-17.0,13.0,59.0,92.3328125,-29.73,2.779956125,33.2475
2021-07-06 17:21:26.226562500,-17.0,13.25,59.0,92.331484375,-32.055,2.7799160937500003,33.248125
2021-07-06 17:21:26.234375000,-17.0,13.5,59.0,92.33015625,-34.38,2.7798760625,33.24875
2021-07-06 17:21:26.242187500,-17.0,13.75,59.0,92.328828125,-37.19,2.7798360312500003,33.249375
2021-07-06 17:21:26.250000000,-17.0,14.0,59.0,92.3275,-40.0,2.779796,33.25
2021-07-06 17:21:26.257812500,-17.25,13.75,59.0,92.326171875,-43.56,2.77967590625,33.25
2021-07-06 17:21:26.265625000,-17.5,13.5,59.0,92.32484375,-47.12,2.7795558125,33.25
2021-07-06 17:21:26.273437500,-17.75,13.25,59.0,92.323515625,-51.495,2.7794357187500003,33.25
2021-07-06 17:21:26.281250000,-18.0,13.0,59.0,92.3221875,-55.87,2.779315625,33.25
2021-07-06 17:21:26.289062500,-17.75,13.25,59.25,92.320859375,-60.81,2.77919553125,33.25
2021-07-06 17:21:26.296875000,-17.5,13.5,59.5,92.31953125,-65.75,2.7790754375,33.25
2021-07-06 17:21:26.304687500,-17.25,13.75,59.75,92.31820312500001,-70.575,2.7789553437500003,33.25
2021-07-06 17:21:26.312500000,-17.0,14.0,60.0,92.31687500000001,-75.4,2.77883525,33.25
2021-07-06 17:21:26.320312500,-17.25,13.75,59.75,92.31554687500001,-79.105,2.77871515625,33.25
2021-07-06 17:21:26.328125000,-17.5,13.5,59.5,92.31421875000001,-82.81,2.7785950625,33.25
2021-07-06 17:21:26.335937500,-17.75,13.25,59.25,92.31289062500001,-84.225,2.77847496875,33.25
2021-07-06 17:21:26.343750000,-18.0,13.0,59.0,92.31156250000001,-85.64,2.7783548750000002,33.25
2021-07-06 17:21:26.351562500,-17.75,13.0,59.0,92.31023437500001,-83.85,2.77823478125,33.25
2021-07-06 17:21:26.359375000,-17.5,13.0,59.0,92.30890625,-82.06,2.7781146875,33.25
2021-07-06 17:21:26.367187500,-17.25,13.0,59.0,92.307578125,-76.735,2.77799459375,33.25
2021-07-06 17:21:26.375000000,-17.0,13.0,59.0,92.30625,-71.41,2.7778745000000002,33.25
2021-07-06 17:21:26.382812500,-17.25,13.25,59.25,92.304921875,-63.035,2.77775440625,33.25
2021-07-06 17:21:26.390625000,-17.5,13.5,59.5,92.30359375,-54.66,2.7776343125,33.25
2021-07-06 17:21:26.398437500,-17.75,13.75,59.75,92.302265625,-44.425,2.77751421875,33.25
2021-07-06 17:21:26.406250000,-18.0,14.0,60.0,92.3009375,-34.19,2.777394125,33.25
2021-07-06 17:21:26.414062500,-18.0,13.75,60.0,92.299609375,-23.64,2.77727403125,33.25
2021-07-06 17:21:26.421875000,-18.0,13.5,60.0,92.29828125,-13.09,2.7771539375,33.25
2021-07-06 17:21:26.429687500,-18.0,13.25,60.0,92.296953125,-3.635,2.77703384375,33.25
2021-07-06 17:21:26.437500000,-18.0,13.0,60.0,92.295625,5.82,2.77691375,33.25
2021-07-06 17:21:26.445312500,-17.75,13.0,60.0,92.294296875,13.235,2.7767936562499997,33.25
2021-07-06 17:21:26.453125000,-17.5,13.0,60.0,92.29296875,20.65,2.7766735625,33.25
2021-07-06 17:21:26.460937500,-17.25,13.0,60.0,92.291640625,25.71,2.77655346875,33.25
2021-07-06 17:21:26.468750000,-17.0,13.0,60.0,92.2903125,30.77,2.776433375,33.25
2021-07-06 17:21:26.476562500,-17.25,13.25,60.0,92.288984375,33.645,2.7763132812499998,33.25
2021-07-06 17:21:26.484375000,-17.5,13.5,60.0,92.28765625,36.52,2.7761931875,33.25
2021-07-06 17:21:26.492187500,-17.75,13.75,60.0,92.286328125,37.620000000000005,2.77607309375,33.25
2021-07-06 17:21:26.500000000,-18.0,14.0,60.0,92.285,38.72,2.775953,33.25
2021-07-06 17:21:26.507812500,-18.0,13.75,59.75,92.28367187500001,38.495000000000005,2.7760330625,33.25
2021-07-06 17:21:26.515625000,-18.0,13.5,59.5,92.28234375000001,38.27,2.7761131249999997,33.25
2021-07-06 17:21:26.523437500,-18.0,13.25,59.25,92.28101562500001,37.095,2.7761931875,33.25
2021-07-06 17:21:26.531250000,-18.0,13.0,59.0,92.27968750000001,35.92,2.77627325,33.25
2021-07-06 17:21:26.539062500,-17.75,13.0,59.0,92.27835937500001,34.14,2.7763533125,33.25
2021-07-06 17:21:26.546875000,-17.5,13.0,59.0,92.27703125000001,32.36,2.776433375,33.25
2021-07-06 17:21:26.554687500,-17.25,13.0,59.0,92.275703125,30.325,2.7765134375,33.25
2021-07-06 17:21:26.562500000,-17.0,13.0,59.0,92.274375,28.29,2.7765934999999997,33.25
2021-07-06 17:21:26.570312500,-17.25,13.0,59.25,92.273046875,26.36,2.7766735625,33.25
2021-07-06 17:21:26.578125000,-17.5,13.0,59.5,92.27171875,24.43,2.776753625,33.25
2021-07-06 17:21:26.585937500,-17.75,13.0,59.75,92.270390625,22.9,2.7768336875,33.25
2021-07-06 17:21:26.593750000,-18.0,13.0,60.0,92.2690625,21.37,2.77691375,33.25
2021-07-06 17:21:26.601562500,-17.75,13.0,60.0,92.267734375,20.41,2.7769938124999998,33.25
2021-07-06 17:21:26.609375000,-17.5,13.0,60.0,92.26640625,19.45,2.777073875,33.25
2021-07-06 17:21:26.617187500,-17.25,13.0,60.0,92.265078125,19.049999999999997,2.7771539375,33.25
2021-07-06 17:21:26.625000000,-17.0,13.0,60.0,92.26375,18.65,2.777234,33.25
2021-07-06 17:21:26.632812500,-17.0,13.0,60.0,92.262421875,18.665,2.7773140625,33.25
2021-07-06 17:21:26.640625000,-17.0,13.0,60.0,92.26109375,18.68,2.777394125,33.25
2021-07-06 17:21:26.648437500,-17.0,13.0,60.0,92.259765625,18.93,2.7774741875,33.25
2021-07-06 17:21:26.656250000,-17.0,13.0,60.0,92.2584375,19.18,2.77755425,33.25
2021-07-06 17:21:26.664062500,-17.25,13.0,60.0,92.257109375,19.509999999999998,2.7776343125,33.25
2021-07-06 17:21:26.671875000,-17.5,13.0,60.0,92.25578125,19.84,2.777714375,33.25
2021-07-06 17:21:26.679687500,-17.75,13.0,60.0,92.254453125,20.215,2.7777944375,33.25
2021-07-06 17:21:26.687500000,-18.0,13.0,60.0,92.253125,20.59,2.7778745000000002,33.25
2021-07-06 17:21:26.695312500,-18.0,13.0,59.75,92.251796875,21.005000000000003,2.7779545625,33.25
2021-07-06 17:21:26.703125000,-18.0,13.0,59.5,92.25046875000001,21.42,2.778034625,33.25
2021-07-06 17:21:26.710937500,-18.0,13.0,59.25,92.24914062500001,21.85,2.7781146875,33.25
2021-07-06 17:21:26.718750000,-18.0,13.0,59.0,92.24781250000001,22.28,2.77819475,33.25
2021-07-06 17:21:26.726562500,-17.75,13.25,59.25,92.24648437500001,22.595,2.7782748125,33.25
2021-07-06 17:21:26.734375000,-17.5,13.5,59.5,92.24515625000001,22.91,2.7783548750000002,33.25
2021-07-06 17:21:26.742187500,-17.25,13.75,59.75,92.24382812500001,22.869999999999997,2.7784349375,33.25
2021-07-06 17:21:26.750000000,-17.0,14.0,60.0,92.2425,22.83,2.778515,33.25
2021-07-06 17:21:26.757812500,-17.0,13.75,60.0,92.241171875,22.159999999999997,2.77827478125,33.25
2021-07-06 17:21:26.765625000,-17.0,13.5,60.0,92.23984375,21.49,2.7780345625000002,33.25
2021-07-06 17:21:26.773437500,-17.0,13.25,60.0,92.238515625,20.009999999999998,2.77779434375,33.25
2021-07-06 17:21:26.781250000,-17.0,13.0,60.0,92.2371875,18.53,2.777554125,33.25
2021-07-06 17:21:26.789062500,-17.25,13.0,60.0,92.235859375,16.23,2.77731390625,33.25
2021-07-06 17:21:26.796875000,-17.5,13.0,60.0,92.23453125,13.93,2.7770736875,33.25
2021-07-06 17:21:26.804687500,-17.75,13.0,60.0,92.233203125,11.0,2.77683346875,33.25
2021-07-06 17:21:26.812500000,-18.0,13.0,60.0,92.231875,8.07,2.77659325,33.25
2021-07-06 17:21:26.820312500,-18.0,13.25,60.0,92.230546875,4.83,2.77635303125,33.25
2021-07-06 17:21:26.828125000,-18.0,13.5,60.0,92.22921875,1.59,2.7761128125,33.25
2021-07-06 17:21:26.835937500,-18.0,13.75,60.0,92.227890625,-1.6249999999999998,2.77587259375,33.25
2021-07-06 17:21:26.843750000,-18.0,14.0,60.0,92.2265625,-4.84,2.775632375,33.25
2021-07-06 17:21:26.851562500,-17.75,13.75,59.75,92.225234375,-7.795,2.77539215625,33.25
2021-07-06 17:21:26.859375000,-17.5,13.5,59.5,92.22390625,-10.75,2.7751519375,33.25
2021-07-06 17:21:26.867187500,-17.25,13.25,59.25,92.222578125,-13.41,2.77491171875,33.25
2021-07-06 17:21:26.875000000,-17.0,13.0,59.0,92.22125,-16.07,2.7746715,33.25
2021-07-06 17:21:26.882812500,-17.0,13.25,59.25,92.219921875,-18.585,2.77443128125,33.25
2021-07-06 17:21:26.890625000,-17.0,13.5,59.5,92.21859375,-21.1,2.7741910625,33.25
2021-07-06 17:21:26.898437500,-17.0,13.75,59.75,92.217265625,-23.82,2.77395084375,33.25
2021-07-06 17:21:26.906250000,-17.0,14.0,60.0,92.21593750000001,-26.54,2.773710625,33.25
2021-07-06 17:21:26.914062500,-17.25,14.0,59.75,92.21460937500001,-29.849999999999998,2.77347040625,33.25
2021-07-06 17:21:26.921875000,-17.5,14.0,59.5,92.21328125000001,-33.16,2.7732301875,33.25
2021-07-06 17:21:26.929687500,-17.75,14.0,59.25,92.21195312500001,-37.364999999999995,2.7729899687499997,33.25
2021-07-06 17:21:26.937500000,-18.0,14.0,59.0,92.21062500000001,-41.57,2.77274975,33.25
2021-07-06 17:21:26.945312500,-17.75,13.75,59.0,92.209296875,-46.655,2.77250953125,33.25
2021-07-06 17:21:26.953125000,-17.5,13.5,59.0,92.20796875,-51.74,2.7722693124999997,33.25
2021-07-06 17:21:26.960937500,-17.25,13.25,59.0,92.206640625,-57.235,2.77202909375,33.25
2021-07-06 17:21:26.968750000,-17.0,13.0,59.0,92.2053125,-62.73,2.771788875,33.25
2021-07-06 17:21:26.976562500,-17.25,13.0,59.0,92.203984375,-67.66499999999999,2.77154865625,33.25
2021-07-06 17:21:26.984375000,-17.5,13.0,59.0,92.20265625,-72.6,2.7713084374999997,33.25
2021-07-06 17:21:26.992187500,-17.75,13.0,59.0,92.201328125,-75.72,2.77106821875,33.25
2021-07-06 17:21:27.000000000,-18.0,13.0,59.0,92.2,-78.84,2.770828,33.25
2021-07-06 17:21:27.007812500,-17.75,13.0,59.25,92.19898437500001,-78.935,2.77098815625,33.249375
2021-07-06 17:21:27.015625000,-17.5,13.0,59.5,92.19796875,-79.03,2.7711483125,33.24875
2021-07-06 17:21:27.023437500,-17.25,13.0,59.75,92.19695312500001,-75.41499999999999,2.77130846875,33.248125
2021-07-06 17:21:27.031250000,-17.0,13.0,60.0,92.1959375,-71.8,2.771468625,33.2475
2021-07-06 17:21:27.039062500,-17.0,13.25,60.0,92.194921875,-64.60499999999999,2.77162878125,33.246875
2021-07-06 17:21:27.046875000,-17.0,13.5,60.0,92.19390625,-57.41,2.7717889374999998,33.246249999999996
2021-07-06 17:21:27.054687500,-17.0,13.75,60.0,92.192890625,-47.595,2.77194909375,33.245625
2021-07-06 17:21:27.062500000,-17.0,14.0,60.0,92.191875,-37.78,2.7721092499999997,33.245
2021-07-06 17:21:27.070312500,-17.0,13.75,60.0,92.190859375,-26.855,2.77226940625,33.244375
2021-07-06 17:21:27.078125000,-17.0,13.5,60.0,92.18984375000001,-15.93,2.7724295624999997,33.24375
2021-07-06 17:21:27.085937500,-17.0,13.25,60.0,92.188828125,-5.484999999999999,2.77258971875,33.243125
2021-07-06 17:21:27.093750000,-17.0,13.0,60.0,92.1878125,4.96,2.7727498749999997,33.2425
2021-07-06 17:21:27.101562500,-17.0,13.0,60.0,92.186796875,13.7,2.77291003125,33.241875
2021-07-06 17:21:27.109375000,-17.0,13.0,60.0,92.18578125,22.44,2.7730701874999997,33.24125
2021-07-06 17:21:27.117187500,-17.0,13.0,60.0,92.184765625,28.855000000000004,2.77323034375,33.240625
2021-07-06 17:21:27.125000000,-17.0,13.0,60.0,92.18375,35.27,2.7733904999999996,33.239999999999995
2021-07-06 17:21:27.132812500,-17.0,13.0,60.0,92.182734375,39.325,2.77355065625,33.239374999999995
2021-07-06 17:21:27.140625000,-17.0,13.0,60.0,92.18171875,43.38,2.7737108125,33.238749999999996
2021-07-06 17:21:27.148437500,-17.0,13.0,60.0,92.18070312500001,45.39,2.77387096875,33.238125
2021-07-06 17:21:27.156250000,-17.0,13.0,60.0,92.1796875,47.4,2.774031125,33.2375
2021-07-06 17:21:27.164062500,-17.0,13.0,60.0,92.178671875,47.815,2.77419128125,33.236875
2021-07-06 17:21:27.171875000,-17.0,13.0,60.0,92.17765625,48.23,2.7743514375,33.23625
2021-07-06 17:21:27.179687500,-17.0,13.0,60.0,92.176640625,47.459999999999994,2.77451159375,33.235625
2021-07-06 17:21:27.187500000,-17.0,13.0,60.0,92.175625,46.69,2.77467175,33.235
2021-07-06 17:21:27.195312500,-17.0,13.0,59.75,92.174609375,45.095,2.7748319062499998,33.234375
2021-07-06 17:21:27.203125000,-17.0,13.0,59.5,92.17359375,43.5,2.7749920625,33.23375
2021-07-06 17:21:27.210937500,-17.0,13.0,59.25,92.172578125,41.41,2.7751522187499997,33.233124999999994
2021-07-06 17:21:27.218750000,-17.0,13.0,59.0,92.17156250000001,39.32,2.775312375,33.232499999999995
2021-07-06 17:21:27.226562500,-17.0,13.0,59.25,92.170546875,37.06,2.7754725312499997,33.231874999999995
2021-07-06 17:21:27.234375000,-17.0,13.0,59.5,92.16953125,34.8,2.7756326875,33.231249999999996
2021-07-06 17:21:27.242187500,-17.0,13.0,59.75,92.168515625,32.695,2.7757928437499997,33.230624999999996
2021-07-06 17:21:27.250000000,-17.0,13.0,60.0,92.1675,30.59,2.775953,33.23
2021-07-06 17:21:27.257812500,-17.0,13.0,60.0,92.166484375,28.895,2.7757127812499998,33.23
2021-07-06 17:21:27.265625000,-17.0,13.0,60.0,92.16546875,27.2,2.7754725625,33.23
2021-07-06 17:21:27.273437500,-17.0,13.0,60.0,92.164453125,26.049999999999997,2.77523234375,33.23
2021-07-06 17:21:27.281250000,-17.0,13.0,60.0,92.1634375,24.9,2.774992125,33.23
2021-07-06 17:21:27.289062500,-17.0,13.0,59.75,92.162421875,24.285,2.77475190625,33.23
2021-07-06 17:21:27.296875000,-17.0,13.0,59.5,92.16140625,23.67,2.7745116875,33.23
2021-07-06 17:21:27.304687500,-17.0,13.0,59.25,92.160390625,23.475,2.77427146875,33.23
2021-07-06 17:21:27.312500000,-17.0,13.0,59.0,92.159375,23.28,2.77403125,33.23
2021-07-06 17:21:27.320312500,-17.0,13.25,59.0,92.158359375,23.33,2.77379103125,33.23
2021-07-06 17:21:27.328125000,-17.0,13.5,59.0,92.15734375,23.38,2.7735508125,33.23
2021-07-06 17:21:27.335937500,-17.0,13.75,59.0,92.156328125,23.494999999999997,2.7733105937499998,33.23
2021-07-06 17:21:27.343750000,-17.0,14.0,59.0,92.1553125,23.61,2.773070375,33.23
2021-07-06 17:21:27.351562500,-17.0,13.75,59.0,92.154296875,23.66,2.77283015625,33.23
2021-07-06 17:21:27.359375000,-17.0,13.5,59.0,92.15328125,23.71,2.7725899375,33.23
2021-07-06 17:21:27.367187500,-17.0,13.25,59.0,92.152265625,23.595,2.77234971875,33.23
2021-07-06 17:21:27.375000000,-17.0,13.0,59.0,92.15125,23.48,2.7721095,33.23
2021-07-06 17:21:27.382812500,-17.0,13.0,59.0,92.150234375,23.15,2.77186928125,33.23
2021-07-06 17:21:27.390625000,-17.0,13.0,59.0,92.14921875,22.82,2.7716290625,33.23
2021-07-06 17:21:27.398437500,-17.0,13.0,59.0,92.148203125,22.205,2.77138884375,33.23
2021-07-06 17:21:27.406250000,-17.0,13.0,59.0,92.1471875,21.59,2.771148625,33.23
2021-07-06 17:21:27.414062500,-17.0,13.0,59.25,92.146171875,20.605,2.7709084062500002,33.23
2021-07-06 17:21:27.421875000,-17.0,13.0,59.5,92.14515625,19.62,2.7706681875,33.23
2021-07-06 17:21:27.429687500,-17.0,13.0,59.75,92.144140625,18.18,2.77042796875,33.23
2021-07-06 17:21:27.437500000,-17.0,13.0,60.0,92.143125,16.74,2.77018775,33.23
2021-07-06 17:21:27.445312500,-17.0,13.0,59.75,92.142109375,14.78,2.76994753125,33.23
2021-07-06 17:21:27.453125000,-17.0,13.0,59.5,92.14109375,12.82,2.7697073125,33.23
2021-07-06 17:21:27.460937500,-17.0,13.0,59.25,92.140078125,10.35,2.76946709375,33.23
2021-07-06 17:21:27.468750000,-17.0,13.0,59.0,92.1390625,7.88,2.769226875,33.23
2021-07-06 17:21:27.476562500,-17.0,13.0,59.0,92.138046875,5.05,2.76898665625,33.23
2021-07-06 17:21:27.484375000,-17.0,13.0,59.0,92.13703124999999,2.22,2.7687464375,33.23
2021-07-06 17:21:27.492187500,-17.0,13.0,59.0,92.136015625,-0.77,2.7685062187500002,33.23
2021-07-06 17:21:27.500000000,-17.0,13.0,59.0,92.13499999999999,-3.76,2.768266,33.23
2021-07-06 17:21:27.507812500,-17.0,13.0,59.25,92.133984375,-6.66,2.768386125,33.23
2021-07-06 17:21:27.515625000,-17.0,13.0,59.5,92.13296875,-9.56,2.76850625,33.23
2021-07-06 17:21:27.523437500,-17.0,13.0,59.75,92.131953125,-12.21,2.768626375,33.23
2021-07-06 17:21:27.531250000,-17.0,13.0,60.0,92.1309375,-14.86,2.7687465,33.23
2021-07-06 17:21:27.539062500,-17.0,13.0,60.0,92.129921875,-17.275,2.7688666250000002,33.23
2021-07-06 17:21:27.546875000,-17.0,13.0,60.0,92.12890625,-19.69,2.7689867500000003,33.23
2021-07-06 17:21:27.554687500,-17.0,13.0,60.0,92.12789062499999,-22.115000000000002,2.7691068750000003,33.23
2021-07-06 17:21:27.562500000,-17.0,13.0,60.0,92.126875,-24.54,2.769227,33.23
2021-07-06 17:21:27.570312500,-17.0,13.0,60.0,92.12585937499999,-27.335,2.769347125,33.23
2021-07-06 17:21:27.578125000,-17.0,13.0,60.0,92.12484375,-30.13,2.76946725,33.23
2021-07-06 17:21:27.585937500,-17.0,13.0,60.0,92.123828125,-33.655,2.769587375,33.23
2021-07-06 17:21:27.593750000,-17.0,13.0,60.0,92.1228125,-37.18,2.7697075,33.23
2021-07-06 17:21:27.601562500,-17.0,13.0,60.0,92.121796875,-41.515,2.769827625,33.23
2021-07-06 17:21:27.609375000,-17.0,13.0,60.0,92.12078125,-45.85,2.76994775,33.23
2021-07-06 17:21:27.617187500,-17.0,13.0,60.0,92.119765625,-50.625,2.770067875,33.23
2021-07-06 17:21:27.625000000,-17.0,13.0,60.0,92.11874999999999,-55.4,2.770188,33.23
2021-07-06 17:21:27.632812500,-17.0,13.0,60.0,92.117734375,-59.735,2.770308125,33.23
2021-07-06 17:21:27.640625000,-17.0,13.0,60.0,92.11671874999999,-64.07,2.77042825,33.23
2021-07-06 17:21:27.648437500,-17.0,13.0,60.0,92.115703125,-66.735,2.770548375,33.23
2021-07-06 17:21:27.656250000,-17.0,13.0,60.0,92.1146875,-69.4,2.7706685,33.23
2021-07-06 17:21:27.664062500,-17.0,13.0,60.0,92.113671875,-69.215,2.7707886250000002,33.23
2021-07-06 17:21:27.671875000,-17.0,13.0,60.0,92.11265625,-69.03,2.7709087500000003,33.23
2021-07-06 17:21:27.679687500,-17.0,13.0,60.0,92.11164062499999,-65.28999999999999,2.7710288750000003,33.23
2021-07-06 17:21:27.687500000,-17.0,13.0,60.0,92.110625,-61.55,2.7711490000000003,33.23
2021-07-06 17:21:27.695312500,-17.0,13.0,60.0,92.10960937499999,-54.345,2.771269125,33.23
2021-07-06 17:21:27.703125000,-17.0,13.0,60.0,92.10859375,-47.14,2.77138925,33.23
2021-07-06 17:21:27.710937500,-17.0,13.0,60.0,92.10757812499999,-37.4,2.771509375,33.23
2021-07-06 17:21:27.718750000,-17.0,13.0,60.0,92.1065625,-27.66,2.7716295,33.23
2021-07-06 17:21:27.726562500,-17.0,13.0,60.0,92.105546875,-16.875,2.771749625,33.23
2021-07-06 17:21:27.734375000,-17.0,13.0,60.0,92.10453125,-6.09,2.77186975,33.23
2021-07-06 17:21:27.742187500,-17.0,13.0,60.0,92.103515625,4.16,2.771989875,33.23
2021-07-06 17:21:27.750000000,-17.0,13.0,60.0,92.10249999999999,14.41,2.77211,33.23
2021-07-06 17:21:27.757812500,-16.75,13.0,60.0,92.101484375,22.915,2.77178971875,33.23
2021-07-06 17:21:27.765625000,-16.5,13.0,60.0,92.10046874999999,31.42,2.7714694375,33.23
2021-07-06 17:21:27.773437500,-16.25,13.0,60.0,92.099453125,37.59,2.77114915625,33.23
2021-07-06 17:21:27.781250000,-16.0,13.0,60.0,92.09843749999999,43.76,2.7708288750000003,33.23
2021-07-06 17:21:27.789062500,-16.25,13.0,60.0,92.097421875,47.614999999999995,2.7705085937500002,33.23
2021-07-06 17:21:27.796875000,-16.5,13.0,60.0,92.09640625,51.47,2.7701883125,33.23
2021-07-06 17:21:27.804687500,-16.75,13.0,60.0,92.095390625,53.375,2.76986803125,33.23
2021-07-06 17:21:27.812500000,-17.0,13.0,60.0,92.094375,55.28,2.76954775,33.23
2021-07-06 17:21:27.820312500,-17.0,13.0,60.0,92.09335937499999,55.7,2.76922746875,33.23
2021-07-06 17:21:27.828125000,-17.0,13.0,60.0,92.09234375,56.12,2.7689071875,33.23
2021-07-06 17:21:27.835937500,-17.0,13.0,60.0,92.09132812499999,55.445,2.76858690625,33.23
2021-07-06 17:21:27.843750000,-17.0,13.0,60.0,92.0903125,54.77,2.768266625,33.23
2021-07-06 17:21:27.851562500,-17.0,13.0,60.0,92.08929687499999,53.28,2.7679463437500003,33.23
2021-07-06 17:21:27.859375000,-17.0,13.0,60.0,92.08828125,51.79,2.7676260625,33.23
2021-07-06 17:21:27.867187500,-17.0,13.0,60.0,92.087265625,49.75,2.76730578125,33.23
2021-07-06 17:21:27.875000000,-17.0,13.0,60.0,92.08624999999999,47.71,2.7669855,33.23
2021-07-06 17:21:27.882812500,-17.0,13.0,60.0,92.085234375,45.425,2.76666521875,33.23
2021-07-06 17:21:27.890625000,-17.0,13.0,60.0,92.08421874999999,43.14,2.7663449375,33.23
2021-07-06 17:21:27.898437500,-17.0,13.0,60.0,92.083203125,40.935,2.76602465625,33.23
2021-07-06 17:21:27.906250000,-17.0,13.0,60.0,92.08218749999999,38.73,2.7657043750000003,33.23
2021-07-06 17:21:27.914062500,-17.0,13.0,59.75,92.081171875,36.91,2.7653840937500003,33.23
2021-07-06 17:21:27.921875000,-17.0,13.0,59.5,92.08015624999999,35.09,2.7650638125,33.23
2021-07-06 17:21:27.929687500,-17.0,13.0,59.25,92.079140625,33.81,2.76474353125,33.23
2021-07-06 17:21:27.937500000,-17.0,13.0,59.0,92.078125,32.53,2.76442325,33.23
2021-07-06 17:21:27.945312500,-17.0,13.0,59.25,92.07710937499999,31.805,2.76410296875,33.23
2021-07-06 17:21:27.953125000,-17.0,13.0,59.5,92.07609375,31.08,2.7637826875,33.23
2021-07-06 17:21:27.960937500,-17.0,13.0,59.75,92.07507812499999,30.795,2.76346240625,33.23
2021-07-06 17:21:27.968750000,-17.0,13.0,60.0,92.0740625,30.51,2.763142125,33.23
2021-07-06 17:21:27.976562500,-17.0,13.0,60.0,92.07304687499999,30.515,2.7628218437500003,33.23
2021-07-06 17:21:27.984375000,-17.0,13.0,60.0,92.07203125,30.52,2.7625015625000002,33.23
2021-07-06 17:21:27.992187500,-17.0,13.0,60.0,92.07101562499999,30.705,2.76218128125,33.23
2021-07-06 17:21:28.000000000,-17.0,13.0,60.0,92.07,30.89,2.761861,33.23
2021-07-06 17:21:28.007812500,-17.0,13.0,60.0,92.06906249999999,31.175,2.76206115625,33.230624999999996
2021-07-06 17:21:28.015625000,-17.0,13.0,60.0,92.068125,31.46,2.7622613125,33.231249999999996
2021-07-06 17:21:28.023437500,-17.0,13.0,60.0,92.06718749999999,31.785,2.76246146875,33.231874999999995
2021-07-06 17:21:28.031250000,-17.0,13.0,60.0,92.06625,32.11,2.7626616250000002,33.232499999999995
2021-07-06 17:21:28.039062500,-16.75,13.0,60.0,92.06531249999999,32.370000000000005,2.7628617812500003,33.233124999999994
2021-07-06 17:21:28.046875000,-16.5,13.0,60.0,92.064375,32.63,2.7630619375000003,33.23375
2021-07-06 17:21:28.054687500,-16.25,13.0,60.0,92.06343749999999,32.644999999999996,2.7632620937500003,33.234375
2021-07-06 17:21:28.062500000,-16.0,13.0,60.0,92.0625,32.66,2.76346225,33.235
2021-07-06 17:21:28.070312500,-16.25,13.0,60.0,92.0615625,32.165,2.76366240625,33.235625
2021-07-06 17:21:28.078125000,-16.5,13.0,60.0,92.06062499999999,31.67,2.7638625625,33.23625
2021-07-06 17:21:28.085937500,-16.75,13.0,60.0,92.0596875,30.42,2.76406271875,33.236875
2021-07-06 17:21:28.093750000,-17.0,13.0,60.0,92.05874999999999,29.17,2.764262875,33.2375
2021-07-06 17:21:28.101562500,-16.75,13.0,60.0,92.0578125,27.0,2.76446303125,33.238125
2021-07-06 17:21:28.109375000,-16.5,13.0,60.0,92.05687499999999,24.83,2.7646631875,33.238749999999996
2021-07-06 17:21:28.117187500,-16.25,13.0,60.0,92.0559375,21.775,2.76486334375,33.239374999999995
2021-07-06 17:21:28.125000000,-16.0,13.0,60.0,92.05499999999999,18.72,2.7650635,33.239999999999995
2021-07-06 17:21:28.132812500,-16.25,13.0,60.0,92.0540625,15.015,2.76526365625,33.240625
2021-07-06 17:21:28.140625000,-16.5,13.0,60.0,92.053125,11.31,2.7654638125,33.24125
2021-07-06 17:21:28.148437500,-16.75,13.0,60.0,92.05218749999999,7.380000000000001,2.76566396875,33.241875
2021-07-06 17:21:28.156250000,-17.0,13.0,60.0,92.05125,3.45,2.7658641250000002,33.2425
2021-07-06 17:21:28.164062500,-16.75,13.0,60.0,92.05031249999999,-0.2400000000000002,2.7660642812500003,33.243125
2021-07-06 17:21:28.171875000,-16.5,13.0,60.0,92.049375,-3.93,2.7662644375000003,33.24375
2021-07-06 17:21:28.179687500,-16.25,13.0,60.0,92.04843749999999,-7.030000000000001,2.7664645937500003,33.244375
2021-07-06 17:21:28.187500000,-16.0,13.0,60.0,92.0475,-10.13,2.7666647500000003,33.245
2021-07-06 17:21:28.195312500,-16.0,13.0,60.0,92.0465625,-12.535,2.76686490625,33.245625
2021-07-06 17:21:28.203125000,-16.0,13.0,60.0,92.045625,-14.94,2.7670650625,33.246249999999996
2021-07-06 17:21:28.210937500,-16.0,13.0,60.0,92.0446875,-16.83,2.76726521875,33.246875
2021-07-06 17:21:28.218750000,-16.0,13.0,60.0,92.04374999999999,-18.72,2.767465375,33.2475
2021-07-06 17:21:28.226562500,-16.25,13.0,60.0,92.0428125,-20.56,2.76766553125,33.248125
2021-07-06 17:21:28.234375000,-16.5,13.0,60.0,92.04187499999999,-22.4,2.7678656875,33.24875
2021-07-06 17:21:28.242187500,-16.75,13.0,60.0,92.0409375,-24.735,2.76806584375,33.249375
2021-07-06 17:21:28.250000000,-17.0,13.0,60.0,92.03999999999999,-27.07,2.768266,33.25
2021-07-06 17:21:28.257812500,-16.75,13.0,60.0,92.0390625,-30.365,2.76814590625,33.25
2021-07-06 17:21:28.265625000,-16.5,13.0,60.0,92.038125,-33.66,2.7680258125,33.25
2021-07-06 17:21:28.273437500,-16.25,13.0,60.0,92.0371875,-38.065,2.7679057187500002,33.25
2021-07-06 17:21:28.281250000,-16.0,13.0,60.0,92.03625,-42.47,2.767785625,33.25
2021-07-06 17:21:28.289062500,-16.0,13.0,60.0,92.03531249999999,-47.595,2.76766553125,33.25
2021-07-06 17:21:28.296875000,-16.0,13.0,60.0,92.034375,-52.72,2.7675454375,33.25
2021-07-06 17:21:28.304687500,-16.0,13.0,60.0,92.03343749999999,-57.665,2.7674253437500003,33.25
2021-07-06 17:21:28.312500000,-16.0,13.0,60.0,92.0325,-62.61,2.76730525,33.25
2021-07-06 17:21:28.320312500,-16.0,13.0,60.0,92.03156249999999,-66.07,2.76718515625,33.25
2021-07-06 17:21:28.328125000,-16.0,13.0,60.0,92.030625,-69.53,2.7670650625,33.25
2021-07-06 17:21:28.335937500,-16.0,13.0,60.0,92.0296875,-70.215,2.76694496875,33.25
2021-07-06 17:21:28.343750000,-16.0,13.0,60.0,92.02875,-70.9,2.766824875,33.25
2021-07-06 17:21:28.351562500,-16.0,13.0,60.0,92.0278125,-67.95500000000001,2.76670478125,33.25
2021-07-06 17:21:28.359375000,-16.0,13.0,60.0,92.02687499999999,-65.01,2.7665846875,33.25
2021-07-06 17:21:28.367187500,-16.0,13.0,60.0,92.0259375,-58.39,2.76646459375,33.25
2021-07-06 17:21:28.375000000,-16.0,13.0,60.0,92.02499999999999,-51.77,2.7663444999999998,33.25
2021-07-06 17:21:28.382812500,-16.25,13.0,60.0,92.0240625,-42.3,2.76622440625,33.25
2021-07-06 17:21:28.390625000,-16.5,13.0,60.0,92.023125,-32.83,2.7661043125,33.25
2021-07-06 17:21:28.398437500,-16.75,13.0,60.0,92.0221875,-22.005,2.76598421875,33.25
2021-07-06 17:21:28.406250000,-17.0,13.0,60.0,92.02125,-11.18,2.765864125,33.25
2021-07-06 17:21:28.414062500,-17.0,13.0,60.0,92.0203125,-0.6400000000000006,2.76574403125,33.25
2021-07-06 17:21:28.421875000,-17.0,13.0,60.0,92.019375,9.9,2.7656239375,33.25
2021-07-06 17:21:28.429687500,-17.0,13.0,60.0,92.01843749999999,18.810000000000002,2.76550384375,33.25
2021-07-06 17:21:28.437500000,-17.0,13.0,60.0,92.0175,27.72,2.76538375,33.25
2021-07-06 17:21:28.445312500,-16.75,13.0,60.0,92.01656249999999,34.275,2.7652636562499997,33.25
2021-07-06 17:21:28.453125000,-16.5,13.0,60.0,92.015625,40.83,2.7651435625,33.25
2021-07-06 17:21:28.460937500,-16.25,13.0,60.0,92.0146875,44.95,2.76502346875,33.25
2021-07-06 17:21:28.468750000,-16.0,13.0,60.0,92.01375,49.07,2.764903375,33.25
2021-07-06 17:21:28.476562500,-16.0,13.0,60.0,92.0128125,51.11,2.7647832812499997,33.25
2021-07-06 17:21:28.484375000,-16.0,13.0,60.0,92.011875,53.15,2.7646631875,33.25
2021-07-06 17:21:28.492187500,-16.0,13.0,60.0,92.0109375,53.59,2.76454309375,33.25
2021-07-06 17:21:28.500000000,-16.0,13.0,60.0,92.00999999999999,54.03,2.764423,33.25
2021-07-06 17:21:28.507812500,-16.0,13.0,60.0,92.0090625,53.295,2.7645030624999998,33.25
2021-07-06 17:21:28.515625000,-16.0,13.0,60.0,92.00812499999999,52.56,2.7645831249999997,33.25
2021-07-06 17:21:28.523437500,-16.0,13.0,60.0,92.0071875,50.93,2.7646631875,33.25
2021-07-06 17:21:28.531250000,-16.0,13.0,60.0,92.00625,49.3,2.76474325,33.25
2021-07-06 17:21:28.539062500,-16.25,13.0,60.0,92.0053125,47.015,2.7648233125,33.25
2021-07-06 17:21:28.546875000,-16.5,13.0,60.0,92.004375,44.73,2.764903375,33.25
2021-07-06 17:21:28.554687500,-16.75,13.0,60.0,92.0034375,42.105,2.7649834374999998,33.25
2021-07-06 17:21:28.562500000,-17.0,13.0,60.0,92.0025,39.48,2.7650635,33.25
2021-07-06 17:21:28.570312500,-16.75,13.0,60.0,92.0015625,36.935,2.7651435625,33.25
2021-07-06 17:21:28.578125000,-16.5,13.0,60.0,92.000625,34.39,2.765223625,33.25
2021-07-06 17:21:28.585937500,-16.25,13.0,60.0,91.9996875,32.365,2.7653036875,33.25
2021-07-06 17:21:28.593750000,-16.0,13.0,60.0,91.99875,30.34,2.76538375,33.25
2021-07-06 17:21:28.601562500,-16.0,13.0,60.0,91.9978125,29.189999999999998,2.7654638124999997,33.25
2021-07-06 17:21:28.609375000,-16.0,13.0,60.0,91.996875,28.04,2.765543875,33.25
2021-07-06 17:21:28.617187500,-16.0,13.0,60.0,91.9959375,27.895,2.7656239375,33.25
2021-07-06 17:21:28.625000000,-16.0,13.0,60.0,91.995,27.75,2.765704,33.25
2021-07-06 17:21:28.632812500,-16.0,13.0,60.0,91.9940625,28.445,2.7657840625,33.25
2021-07-06 17:21:28.640625000,-16.0,13.0,60.0,91.993125,29.14,2.765864125,33.25
2021-07-06 17:21:28.648437500,-16.0,13.0,60.0,91.9921875,30.29,2.7659441875,33.25
2021-07-06 17:21:28.656250000,-16.0,13.0,60.0,91.99125,31.44,2.76602425,33.25
2021-07-06 17:21:28.664062500,-16.25,13.0,60.0,91.9903125,32.62,2.7661043125,33.25
2021-07-06 17:21:28.671875000,-16.5,13.0,60.0,91.989375,33.8,2.766184375,33.25
2021-07-06 17:21:28.679687500,-16.75,13.0,60.0,91.9884375,34.66,2.7662644375,33.25
2021-07-06 17:21:28.687500000,-17.0,13.0,60.0,91.9875,35.52,2.7663444999999998,33.25
2021-07-06 17:21:28.695312500,-16.75,13.0,60.0,91.9865625,35.925,2.7664245625,33.25
2021-07-06 17:21:28.703125000,-16.5,13.0,60.0,91.985625,36.33,2.766504625,33.25
2021-07-06 17:21:28.710937500,-16.25,13.0,60.0,91.9846875,36.335,2.7665846875,33.25
2021-07-06 17:21:28.718750000,-16.0,13.0,60.0,91.98375,36.34,2.76666475,33.25
2021-07-06 17:21:28.726562500,-16.0,13.0,60.0,91.9828125,36.1,2.7667448125,33.25
2021-07-06 17:21:28.734375000,-16.0,13.0,60.0,91.981875,35.86,2.766824875,33.25
2021-07-06 17:21:28.742187500,-16.0,13.0,60.0,91.9809375,35.489999999999995,2.7669049375,33.25
2021-07-06 17:21:28.750000000,-16.0,13.0,60.0,91.98,35.12,2.766985,33.25
2021-07-06 17:21:28.757812500,-16.0,13.0,60.0,91.9790625,34.61,2.76686490625,33.25
2021-07-06 17:21:28.765625000,-16.0,13.0,60.0,91.978125,34.1,2.7667448125,33.25
2021-07-06 17:21:28.773437500,-16.0,13.0,60.0,91.9771875,33.245000000000005,2.76662471875,33.25
2021-07-06 17:21:28.781250000,-16.0,13.0,60.0,91.97625000000001,32.39,2.766504625,33.25
2021-07-06 17:21:28.789062500,-16.25,13.0,60.0,91.9753125,30.925,2.76638453125,33.25
2021-07-06 17:21:28.796875000,-16.5,13.0,60.0,91.974375,29.46,2.7662644375000003,33.25
2021-07-06 17:21:28.804687500,-16.75,13.0,60.0,91.9734375,27.155,2.76614434375,33.25
2021-07-06 17:21:28.812500000,-17.0,13.0,60.0,91.9725,24.85,2.76602425,33.25
2021-07-06 17:21:28.820312500,-16.75,13.0,60.0,91.9715625,21.645000000000003,2.76590415625,33.25
2021-07-06 17:21:28.828125000,-16.5,13.0,60.0,91.970625,18.44,2.7657840625,33.25
2021-07-06 17:21:28.835937500,-16.25,13.0,60.0,91.9696875,14.5,2.76566396875,33.25
2021-07-06 17:21:28.843750000,-16.0,13.0,60.0,91.96875,10.56,2.765543875,33.25
2021-07-06 17:21:28.851562500,-16.0,13.0,60.0,91.96781250000001,6.2700000000000005,2.76542378125,33.25
2021-07-06 17:21:28.859375000,-16.0,13.0,60.0,91.966875,1.98,2.7653036875000003,33.25
2021-07-06 17:21:28.867187500,-16.0,13.0,60.0,91.9659375,-2.185,2.7651835937500002,33.25
2021-07-06 17:21:28.875000000,-16.0,13.0,60.0,91.965,-6.35,2.7650635,33.25
2021-07-06 17:21:28.882812500,-16.0,13.0,60.0,91.9640625,-9.995000000000001,2.76494340625,33.25
2021-07-06 17:21:28.890625000,-16.0,13.0,60.0,91.963125,-13.64,2.7648233125,33.25
2021-07-06 17:21:28.898437500,-16.0,13.0,60.0,91.9621875,-16.575000000000003,2.7647032187500002,33.25
2021-07-06 17:21:28.906250000,-16.0,13.0,60.0,91.96125,-19.51,2.764583125,33.25
2021-07-06 17:21:28.914062500,-16.0,13.0,60.0,91.9603125,-21.83,2.76446303125,33.25
2021-07-06 17:21:28.921875000,-16.0,13.0,60.0,91.95937500000001,-24.15,2.7643429375000004,33.25
2021-07-06 17:21:28.929687500,-16.0,13.0,60.0,91.9584375,-26.14,2.7642228437500003,33.25
2021-07-06 17:21:28.937500000,-16.0,13.0,60.0,91.9575,-28.13,2.76410275,33.25
2021-07-06 17:21:28.945312500,-16.25,13.0,60.0,91.9565625,-30.205,2.76398265625,33.25
2021-07-06 17:21:28.953125000,-16.5,13.0,60.0,91.955625,-32.28,2.7638625625,33.25
2021-07-06 17:21:28.960937500,-16.75,13.0,60.0,91.9546875,-34.845,2.7637424687500003,33.25
2021-07-06 17:21:28.968750000,-17.0,13.0,60.0,91.95375,-37.41,2.763622375,33.25
2021-07-06 17:21:28.976562500,-16.75,13.0,60.0,91.95281250000001,-40.73,2.76350228125,33.25
2021-07-06 17:21:28.984375000,-16.5,13.0,60.0,91.951875,-44.05,2.7633821875000004,33.25
2021-07-06 17:21:28.992187500,-16.25,13.0,60.0,91.95093750000001,-48.17,2.7632620937500003,33.25
2021-07-06 17:21:29.000000000,-16.0,13.0,60.0,91.95,-52.29,2.763142,33.25
2021-07-06 17:21:29.007812500,-16.0,13.0,60.0,91.9490625,-56.925,2.76294184375,33.25
2021-07-06 17:21:29.015625000,-16.0,13.0,60.0,91.948125,-61.56,2.7627416875,33.25
2021-07-06 17:21:29.023437500,-16.0,13.0,60.0,91.9471875,-66.035,2.76254153125,33.25
2021-07-06 17:21:29.031250000,-16.0,13.0,60.0,91.94625,-70.51,2.762341375,33.25
2021-07-06 17:21:29.039062500,-16.0,13.0,60.0,91.9453125,-73.81,2.76214121875,33.25
2021-07-06 17:21:29.046875000,-16.0,13.0,60.0,91.94437500000001,-77.11,2.7619410625,33.25
2021-07-06 17:21:29.054687500,-16.0,13.0,60.0,91.9434375,-78.10499999999999,2.76174090625,33.25
2021-07-06 17:21:29.062500000,-16.0,13.0,60.0,91.9425,-79.1,2.76154075,33.25
2021-07-06 17:21:29.070312500,-16.0,13.0,60.0,91.9415625,-76.895,2.7613405937500004,33.25
2021-07-06 17:21:29.078125000,-16.0,13.0,60.0,91.940625,-74.69,2.7611404375000004,33.25
2021-07-06 17:21:29.085937500,-16.0,13.0,60.0,91.9396875,-68.97,2.7609402812500003,33.25
2021-07-06 17:21:29.093750000,-16.0,13.0,60.0,91.93875,-63.25,2.7607401250000003,33.25
2021-07-06 17:21:29.101562500,-16.0,13.0,60.0,91.9378125,-54.489999999999995,2.7605399687500003,33.25
2021-07-06 17:21:29.109375000,-16.0,13.0,60.0,91.936875,-45.73,2.7603398125000003,33.25
2021-07-06 17:21:29.117187500,-16.0,13.0,60.0,91.93593750000001,-35.129999999999995,2.7601396562500002,33.25
2021-07-06 17:21:29.125000000,-16.0,13.0,60.0,91.935,-24.53,2.7599395,33.25
2021-07-06 17:21:29.132812500,-16.25,13.0,60.0,91.9340625,-13.635000000000002,2.75973934375,33.25
2021-07-06 17:21:29.140625000,-16.5,13.0,60.0,91.933125,-2.74,2.7595391875,33.25
2021-07-06 17:21:29.148437500,-16.75,13.0,60.0,91.9321875,7.034999999999998,2.75933903125,33.25
2021-07-06 17:21:29.156250000,-17.0,13.0,60.0,91.93125,16.81,2.759138875,33.25
2021-07-06 17:21:29.164062500,-17.0,13.0,60.0,91.9303125,24.519999999999996,2.75893871875,33.25
2021-07-06 17:21:29.171875000,-17.0,13.0,60.0,91.92937500000001,32.23,2.7587385625,33.25
2021-07-06 17:21:29.179687500,-17.0,13.0,60.0,91.9284375,37.55,2.75853840625,33.25
2021-07-06 17:21:29.187500000,-17.0,13.0,60.0,91.92750000000001,42.87,2.7583382500000004,33.25
2021-07-06 17:21:29.195312500,-16.75,13.0,60.0,91.9265625,45.965,2.7581380937500004,33.25
2021-07-06 17:21:29.203125000,-16.5,13.0,60.0,91.925625,49.06,2.7579379375000004,33.25
2021-07-06 17:21:29.210937500,-16.25,13.0,60.0,91.9246875,50.3,2.7577377812500004,33.25
2021-07-06 17:21:29.218750000,-16.0,13.0,60.0,91.92375,51.54,2.7575376250000003,33.25
2021-07-06 17:21:29.226562500,-16.0,13.0,60.0,91.9228125,51.305,2.7573374687500003,33.25
2021-07-06 17:21:29.234375000,-16.0,13.0,60.0,91.921875,51.07,2.7571373125000003,33.25
2021-07-06 17:21:29.242187500,-16.0,13.0,60.0,91.92093750000001,49.685,2.7569371562500002,33.25
2021-07-06 17:21:29.250000000,-16.0,13.0,60.0,91.92,48.3,2.756737,33.25
2021-07-06 17:21:29.257812500,-16.0,13.0,60.0,91.9190625,46.06,2.7569371562500002,33.25
2021-07-06 17:21:29.265625000,-16.0,13.0,60.0,91.918125,43.82,2.7571373125000003,33.25
2021-07-06 17:21:29.273437500,-16.0,13.0,60.0,91.9171875,41.1,2.7573374687500003,33.25
2021-07-06 17:21:29.281250000,-16.0,13.0,60.0,91.91625,38.38,2.7575376250000003,33.25
2021-07-06 17:21:29.289062500,-16.0,13.0,60.0,91.9153125,35.665000000000006,2.7577377812500004,33.25
2021-07-06 17:21:29.296875000,-16.0,13.0,60.0,91.914375,32.95,2.7579379375000004,33.25
2021-07-06 17:21:29.304687500,-16.0,13.0,60.0,91.9134375,30.725,2.7581380937500004,33.25
2021-07-06 17:21:29.312500000,-16.0,13.0,60.0,91.9125,28.5,2.7583382500000004,33.25
2021-07-06 17:21:29.320312500,-16.0,13.0,60.0,91.9115625,27.165,2.75853840625,33.25
2021-07-06 17:21:29.328125000,-16.0,13.0,60.0,91.910625,25.83,2.7587385625,33.25
2021-07-06 17:21:29.335937500,-16.0,13.0,60.0,91.9096875,25.534999999999997,2.75893871875,33.25
2021-07-06 17:21:29.343750000,-16.0,13.0,60.0,91.90875,25.24,2.759138875,33.25
2021-07-06 17:21:29.351562500,-16.0,13.0,60.0,91.9078125,25.875,2.75933903125,33.25
2021-07-06 17:21:29.359375000,-16.0,13.0,60.0,91.906875,26.51,2.7595391875,33.25
2021-07-06 17:21:29.367187500,-16.0,13.0,60.0,91.90593750000001,27.71,2.75973934375,33.25
2021-07-06 17:21:29.375000000,-16.0,13.0,60.0,91.905,28.91,2.7599395,33.25
2021-07-06 17:21:29.382812500,-16.0,13.0,60.0,91.9040625,30.215,2.7601396562500002,33.25
2021-07-06 17:21:29.390625000,-16.0,13.0,60.0,91.903125,31.52,2.7603398125000003,33.25
2021-07-06 17:21:29.398437500,-16.0,13.0,60.0,91.9021875,32.53,2.7605399687500003,33.25
2021-07-06 17:21:29.406250000,-16.0,13.0,60.0,91.90125,33.54,2.7607401250000003,33.25
2021-07-06 17:21:29.414062500,-16.0,13.0,60.0,91.9003125,34.035,2.7609402812500003,33.25
2021-07-06 17:21:29.421875000,-16.0,13.0,60.0,91.899375,34.53,2.7611404375000004,33.25
2021-07-06 17:21:29.429687500,-16.0,13.0,60.0,91.8984375,34.515,2.7613405937500004,33.25
2021-07-06 17:21:29.437500000,-16.0,13.0,60.0,91.89750000000001,34.5,2.76154075,33.25
2021-07-06 17:21:29.445312500,-16.0,13.0,60.0,91.8965625,34.15,2.76174090625,33.25
2021-07-06 17:21:29.453125000,-16.0,13.0,60.0,91.895625,33.8,2.7619410625,33.25
2021-07-06 17:21:29.460937500,-16.0,13.0,60.0,91.8946875,33.349999999999994,2.76214121875,33.25
2021-07-06 17:21:29.468750000,-16.0,13.0,60.0,91.89375,32.9,2.762341375,33.25
2021-07-06 17:21:29.476562500,-16.0,13.0,60.0,91.8928125,32.47,2.76254153125,33.25
2021-07-06 17:21:29.484375000,-16.0,13.0,60.0,91.891875,32.04,2.7627416875,33.25
2021-07-06 17:21:29.492187500,-16.0,13.0,60.0,91.8909375,31.585,2.76294184375,33.25
2021-07-06 17:21:29.500000000,-16.0,13.0,60.0,91.89,31.13,2.763142,33.25
2021-07-06 17:21:29.507812500,-16.0,13.0,60.0,91.8890625,30.405,2.763142,33.25
2021-07-06 17:21:29.515625000,-16.0,13.0,60.0,91.888125,29.68,2.763142,33.25
2021-07-06 17:21:29.523437500,-16.0,13.0,60.0,91.8871875,28.355,2.763142,33.25
2021-07-06 17:21:29.531250000,-16.0,13.0,60.0,91.88625,27.03,2.763142,33.25
2021-07-06 17:21:29.539062500,-16.0,13.0,60.0,91.8853125,24.835,2.763142,33.25
2021-07-06 17:21:29.546875000,-16.0,13.0,60.0,91.884375,22.64,2.763142,33.25
2021-07-06 17:21:29.554687500,-16.0,13.0,60.0,91.8834375,19.490000000000002,2.763142,33.25
2021-07-06 17:21:29.562500000,-16.0,13.0,60.0,91.8825,16.34,2.763142,33.25
2021-07-06 17:21:29.570312500,-16.0,13.0,60.0,91.8815625,12.415,2.763142,33.25
2021-07-06 17:21:29.578125000,-16.0,13.0,60.0,91.880625,8.49,2.763142,33.25
2021-07-06 17:21:29.585937500,-16.0,13.0,60.0,91.8796875,4.14,2.763142,33.25
2021-07-06 17:21:29.593750000,-16.0,13.0,60.0,91.87875,-0.21,2.763142,33.25
2021-07-06 17:21:29.601562500,-16.0,13.0,60.0,91.8778125,-4.529999999999999,2.763142,33.25
2021-07-06 17:21:29.609375000,-16.0,13.0,60.0,91.876875,-8.85,2.763142,33.25
2021-07-06 17:21:29.617187500,-16.0,13.0,60.0,91.8759375,-12.794999999999998,2.763142,33.25
2021-07-06 17:21:29.625000000,-16.0,13.0,60.0,91.875,-16.74,2.763142,33.25
2021-07-06 17:21:29.632812500,-16.0,13.0,60.0,91.8740625,-20.104999999999997,2.763142,33.25
2021-07-06 17:21:29.640625000,-16.0,13.0,60.0,91.873125,-23.47,2.763142,33.25
2021-07-06 17:21:29.648437500,-16.0,13.0,60.0,91.8721875,-26.31,2.763142,33.25
2021-07-06 17:21:29.656250000,-16.0,13.0,60.0,91.87125,-29.15,2.763142,33.25
2021-07-06 17:21:29.664062500,-16.0,13.0,60.0,91.8703125,-31.665,2.763142,33.25
2021-07-06 17:21:29.671875000,-16.0,13.0,60.0,91.869375,-34.18,2.763142,33.25
2021-07-06 17:21:29.679687500,-16.0,13.0,60.0,91.8684375,-36.685,2.763142,33.25
2021-07-06 17:21:29.687500000,-16.0,13.0,60.0,91.8675,-39.19,2.763142,33.25
2021-07-06 17:21:29.695312500,-16.0,13.0,60.0,91.8665625,-42.03,2.763142,33.25
2021-07-06 17:21:29.703125000,-16.0,13.0,60.0,91.865625,-44.87,2.763142,33.25
2021-07-06 17:21:29.710937500,-16.0,13.0,60.0,91.8646875,-48.305,2.763142,33.25
2021-07-06 17:21:29.718750000,-16.0,13.0,60.0,91.86375,-51.74,2.763142,33.25
2021-07-06 17:21:29.726562500,-16.0,13.0,60.0,91.8628125,-55.81,2.763142,33.25
2021-07-06 17:21:29.734375000,-16.0,13.0,60.0,91.861875,-59.88,2.763142,33.25
2021-07-06 17:21:29.742187500,-16.0,13.0,60.0,91.8609375,-64.305,2.763142,33.25
2021-07-06 17:21:29.750000000,-16.0,13.0,60.0,91.86,-68.73,2.763142,33.25
2021-07-06 17:21:29.757812500,-16.0,13.0,60.0,91.8590625,-72.775,2.7635023125,33.25
2021-07-06 17:21:29.765625000,-16.0,13.0,60.0,91.858125,-76.82,2.7638626250000002,33.25
2021-07-06 17:21:29.773437500,-16.0,13.0,60.0,91.8571875,-79.41999999999999,2.7642229375,33.25
2021-07-06 17:21:29.781250000,-16.0,13.0,60.0,91.85625,-82.02,2.7645832500000003,33.25
2021-07-06 17:21:29.789062500,-16.0,13.0,60.0,91.8553125,-82.035,2.7649435625,33.25
2021-07-06 17:21:29.796875000,-16.0,13.0,60.0,91.854375,-82.05,2.7653038750000003,33.25
2021-07-06 17:21:29.804687500,-16.0,13.0,60.0,91.8534375,-78.655,2.7656641875,33.25
2021-07-06 17:21:29.812500000,-16.0,13.0,60.0,91.85249999999999,-75.26,2.7660245000000003,33.25
2021-07-06 17:21:29.820312500,-16.0,13.0,60.0,91.8515625,-68.345,2.7663848125,33.25
2021-07-06 17:21:29.828125000,-16.0,13.0,60.0,91.850625,-61.43,2.766745125,33.25
2021-07-06 17:21:29.835937500,-16.0,13.0,60.0,91.8496875,-51.71,2.7671054375,33.25
2021-07-06 17:21:29.843750000,-16.0,13.0,60.0,91.84875,-41.99,2.76746575,33.25
2021-07-06 17:21:29.851562500,-16.0,13.0,60.0,91.8478125,-30.810000000000002,2.7678260625,33.25
2021-07-06 17:21:29.859375000,-16.0,13.0,60.0,91.846875,-19.63,2.768186375,33.25
2021-07-06 17:21:29.867187500,-16.0,13.0,60.0,91.8459375,-8.58,2.7685466875,33.25
2021-07-06 17:21:29.875000000,-16.0,13.0,60.0,91.845,2.47,2.768907,33.25
2021-07-06 17:21:29.882812500,-16.0,13.0,60.0,91.84406249999999,12.030000000000001,2.7692673125,33.25
2021-07-06 17:21:29.890625000,-16.0,13.0,60.0,91.843125,21.59,2.769627625,33.25
2021-07-06 17:21:29.898437500,-16.0,13.0,60.0,91.8421875,28.854999999999997,2.7699879375,33.25
2021-07-06 17:21:29.906250000,-16.0,13.0,60.0,91.84125,36.12,2.77034825,33.25
2021-07-06 17:21:29.914062500,-16.0,13.0,60.0,91.8403125,40.879999999999995,2.7707085625,33.25
2021-07-06 17:21:29.921875000,-16.0,13.0,60.0,91.839375,45.64,2.771068875,33.25
2021-07-06 17:21:29.929687500,-16.0,13.0,60.0,91.8384375,48.125,2.7714291875,33.25
2021-07-06 17:21:29.937500000,-16.0,13.0,60.0,91.8375,50.61,2.7717894999999997,33.25
2021-07-06 17:21:29.945312500,-16.0,13.0,60.0,91.8365625,51.29,2.7721498125,33.25
2021-07-06 17:21:29.953125000,-16.0,13.0,60.0,91.835625,51.97,2.7725101249999997,33.25
2021-07-06 17:21:29.960937500,-16.0,13.0,60.0,91.8346875,51.32,2.7728704375,33.25
2021-07-06 17:21:29.968750000,-16.0,13.0,60.0,91.83375,50.67,2.7732307499999997,33.25
2021-07-06 17:21:29.976562500,-16.0,13.0,60.0,91.8328125,49.14,2.7735910625,33.25
2021-07-06 17:21:29.984375000,-16.0,13.0,60.0,91.831875,47.61,2.7739513749999998,33.25
2021-07-06 17:21:29.992187500,-16.0,13.0,60.0,91.8309375,45.575,2.7743116875,33.25
2021-07-06 17:21:30.000000000,-16.0,13.0,60.0,91.83,43.54,2.774672,33.25
2021-07-06 17:21:30.007812500,-16.0,13.0,60.0,91.829140625,41.345,2.77487215625,33.24875
2021-07-06 17:21:30.015625000,-16.0,13.0,60.0,91.82828125,39.15,2.7750723125,33.2475
2021-07-06 17:21:30.023437500,-16.0,13.0,60.0,91.827421875,37.095,2.77527246875,33.24625
2021-07-06 17:21:30.031250000,-16.0,13.0,60.0,91.8265625,35.04,2.775472625,33.245
2021-07-06 17:21:30.039062500,-16.0,13.0,60.0,91.825703125,33.385,2.77567278125,33.24375
2021-07-06 17:21:30.046875000,-16.0,13.0,60.0,91.82484375,31.73,2.7758729375,33.2425
2021-07-06 17:21:30.054687500,-16.0,13.0,60.0,91.823984375,30.66,2.77607309375,33.24125
2021-07-06 17:21:30.062500000,-16.0,13.0,60.0,91.823125,29.59,2.77627325,33.24
2021-07-06 17:21:30.070312500,-16.0,13.0,60.0,91.822265625,29.165,2.7764734062499996,33.23875
2021-07-06 17:21:30.078125000,-16.0,13.0,60.0,91.82140625,28.74,2.7766735624999996,33.2375
2021-07-06 17:21:30.085937500,-16.0,13.0,60.0,91.820546875,28.935,2.7768737187499997,33.23625
2021-07-06 17:21:30.093750000,-16.0,13.0,60.0,91.8196875,29.13,2.7770738749999997,33.235
2021-07-06 17:21:30.101562500,-16.0,13.0,60.0,91.818828125,29.814999999999998,2.7772740312499997,33.23375
2021-07-06 17:21:30.109375000,-16.0,13.0,60.0,91.81796874999999,30.5,2.7774741874999997,33.2325
2021-07-06 17:21:30.117187500,-16.0,13.0,60.0,91.817109375,31.465,2.7776743437499998,33.23125
2021-07-06 17:21:30.125000000,-16.0,13.0,60.0,91.81625,32.43,2.7778745,33.230000000000004
2021-07-06 17:21:30.132812500,-16.0,13.0,60.0,91.81539062499999,33.44,2.77807465625,33.22875
2021-07-06 17:21:30.140625000,-16.0,13.0,60.0,91.81453125,34.45,2.7782748125,33.2275
2021-07-06 17:21:30.148437500,-16.0,13.0,60.0,91.813671875,35.265,2.77847496875,33.22625
2021-07-06 17:21:30.156250000,-16.0,13.0,60.0,91.81281249999999,36.08,2.778675125,33.225
2021-07-06 17:21:30.164062500,-16.0,13.0,60.0,91.811953125,36.525,2.77887528125,33.22375
2021-07-06 17:21:30.171875000,-16.0,13.0,60.0,91.81109375,36.97,2.7790754375,33.222500000000004
2021-07-06 17:21:30.179687500,-16.0,13.0,60.0,91.810234375,36.955,2.77927559375,33.22125
2021-07-06 17:21:30.187500000,-16.0,13.0,60.0,91.809375,36.94,2.7794757499999996,33.22
2021-07-06 17:21:30.195312500,-16.0,13.0,60.0,91.808515625,36.45,2.7796759062499996,33.21875
2021-07-06 17:21:30.203125000,-16.0,13.0,60.0,91.80765625,35.96,2.7798760624999996,33.2175
2021-07-06 17:21:30.210937500,-16.0,13.0,60.0,91.806796875,35.05,2.7800762187499997,33.21625
2021-07-06 17:21:30.218750000,-16.0,13.0,60.0,91.8059375,34.14,2.7802763749999997,33.215
2021-07-06 17:21:30.226562500,-16.0,13.0,60.0,91.805078125,32.870000000000005,2.7804765312499997,33.21375
2021-07-06 17:21:30.234375000,-16.0,13.0,60.0,91.80421875,31.6,2.7806766874999997,33.2125
2021-07-06 17:21:30.242187500,-16.0,13.0,60.0,91.803359375,30.015,2.7808768437499998,33.21125
2021-07-06 17:21:30.250000000,-16.0,13.0,60.0,91.8025,28.43,2.781077,33.21
2021-07-06 17:21:30.257812500,-16.0,13.0,60.0,91.801640625,26.545,2.781517375,33.21
2021-07-06 17:21:30.265625000,-16.0,13.0,60.0,91.80078125,24.66,2.7819577499999997,33.21
2021-07-06 17:21:30.273437500,-16.0,13.0,60.0,91.799921875,22.475,2.782398125,33.21
2021-07-06 17:21:30.281250000,-16.0,13.0,60.0,91.7990625,20.29,2.7828385,33.21
2021-07-06 17:21:30.289062500,-16.0,13.0,60.0,91.798203125,17.78,2.7832788749999997,33.21
2021-07-06 17:21:30.296875000,-16.0,13.0,60.0,91.79734375,15.27,2.78371925,33.21
2021-07-06 17:21:30.304687500,-16.0,13.0,60.0,91.79648437499999,12.434999999999999,2.784159625,33.21
2021-07-06 17:21:30.312500000,-16.0,13.0,60.0,91.795625,9.6,2.7845999999999997,33.21
2021-07-06 17:21:30.320312500,-16.0,13.0,60.0,91.794765625,6.484999999999999,2.785040375,33.21
2021-07-06 17:21:30.328125000,-16.0,13.0,60.0,91.79390624999999,3.37,2.78548075,33.21
2021-07-06 17:21:30.335937500,-16.0,13.0,60.0,91.793046875,0.06000000000000005,2.7859211249999998,33.21
2021-07-06 17:21:30.343750000,-16.0,13.0,60.0,91.7921875,-3.25,2.7863615,33.21
2021-07-06 17:21:30.351562500,-16.0,13.0,60.0,91.79132812499999,-6.645,2.786801875,33.21
2021-07-06 17:21:30.359375000,-16.0,13.0,60.0,91.79046875,-10.04,2.78724225,33.21
2021-07-06 17:21:30.367187500,-16.0,13.0,60.0,91.789609375,-13.385,2.787682625,33.21
2021-07-06 17:21:30.375000000,-16.0,13.0,60.0,91.78875,-16.73,2.7881229999999997,33.21
2021-07-06 17:21:30.382812500,-16.0,13.0,60.0,91.787890625,-19.935000000000002,2.788563375,33.21
2021-07-06 17:21:30.390625000,-16.0,13.0,60.0,91.78703125,-23.14,2.78900375,33.21
2021-07-06 17:21:30.398437500,-16.0,13.0,60.0,91.786171875,-26.134999999999998,2.7894441249999997,33.21
2021-07-06 17:21:30.406250000,-16.0,13.0,60.0,91.7853125,-29.13,2.7898845,33.21
2021-07-06 17:21:30.414062500,-16.0,13.0,60.0,91.784453125,-31.894999999999996,2.790324875,33.21
2021-07-06 17:21:30.421875000,-16.0,13.0,60.0,91.78359375,-34.66,2.7907652499999998,33.21
2021-07-06 17:21:30.429687500,-16.0,13.0,60.0,91.782734375,-37.2,2.791205625,33.21
2021-07-06 17:21:30.437500000,-16.0,13.0,60.0,91.781875,-39.74,2.791646,33.21
2021-07-06 17:21:30.445312500,-16.0,13.0,60.0,91.781015625,-42.144999999999996,2.792086375,33.21
2021-07-06 17:21:30.453125000,-16.0,13.0,60.0,91.78015625,-44.55,2.79252675,33.21
2021-07-06 17:21:30.460937500,-16.0,13.0,60.0,91.779296875,-47.015,2.792967125,33.21
2021-07-06 17:21:30.468750000,-16.0,13.0,60.0,91.7784375,-49.48,2.7934075,33.21
2021-07-06 17:21:30.476562500,-16.0,13.0,60.0,91.777578125,-52.31,2.793847875,33.21
2021-07-06 17:21:30.484375000,-16.0,13.0,60.0,91.77671875,-55.14,2.79428825,33.21
2021-07-06 17:21:30.492187500,-16.0,13.0,60.0,91.775859375,-58.644999999999996,2.794728625,33.21
2021-07-06 17:21:30.500000000,-16.0,13.0,60.0,91.775,-62.15,2.795169,33.21
2021-07-06 17:21:30.507812500,-16.0,13.0,60.0,91.774140625,-66.46,2.795008875,33.21
2021-07-06 17:21:30.515625000,-16.0,13.0,60.0,91.77328125,-70.77,2.79484875,33.21
2021-07-06 17:21:30.523437500,-16.0,13.0,60.0,91.77242187499999,-75.57,2.794688625,33.21
2021-07-06 17:21:30.531250000,-16.0,13.0,60.0,91.7715625,-80.37,2.7945285,33.21
2021-07-06 17:21:30.539062500,-16.0,13.0,60.0,91.770703125,-84.795,2.794368375,33.21
2021-07-06 17:21:30.546875000,-16.0,13.0,60.0,91.76984374999999,-89.22,2.79420825,33.21
2021-07-06 17:21:30.554687500,-16.0,13.0,60.0,91.768984375,-91.965,2.794048125,33.21
2021-07-06 17:21:30.562500000,-16.0,13.0,60.0,91.768125,-94.71,2.793888,33.21
2021-07-06 17:21:30.570312500,-16.0,13.0,60.0,91.767265625,-94.41999999999999,2.793727875,33.21
2021-07-06 17:21:30.578125000,-16.0,13.0,60.0,91.76640625,-94.13,2.7935677500000002,33.21
2021-07-06 17:21:30.585937500,-16.0,13.0,60.0,91.765546875,-89.94,2.793407625,33.21
2021-07-06 17:21:30.593750000,-16.0,13.0,60.0,91.7646875,-85.75,2.7932475,33.21
2021-07-06 17:21:30.601562500,-16.0,13.0,60.0,91.763828125,-77.695,2.7930873750000003,33.21
2021-07-06 17:21:30.609375000,-16.0,13.0,60.0,91.76296875,-69.64,2.79292725,33.21
2021-07-06 17:21:30.617187500,-16.0,13.0,60.0,91.762109375,-58.725,2.792767125,33.21
2021-07-06 17:21:30.625000000,-16.0,13.0,60.0,91.76125,-47.81,2.7926070000000003,33.21
2021-07-06 17:21:30.632812500,-16.0,13.0,60.0,91.760390625,-35.75,2.792446875,33.21
2021-07-06 17:21:30.640625000,-16.0,13.0,60.0,91.75953125,-23.69,2.79228675,33.21
2021-07-06 17:21:30.648437500,-16.0,13.0,60.0,91.758671875,-12.285,2.792126625,33.21
2021-07-06 17:21:30.656250000,-16.0,13.0,60.0,91.7578125,-0.88,2.7919665,33.21
2021-07-06 17:21:30.664062500,-16.0,13.0,60.0,91.756953125,8.489999999999998,2.791806375,33.21
2021-07-06 17:21:30.671875000,-16.0,13.0,60.0,91.75609375,17.86,2.79164625,33.21
2021-07-06 17:21:30.679687500,-16.0,13.0,60.0,91.755234375,24.575,2.791486125,33.21
2021-07-06 17:21:30.687500000,-16.0,13.0,60.0,91.754375,31.29,2.791326,33.21
2021-07-06 17:21:30.695312500,-16.0,13.0,60.0,91.753515625,35.445,2.791165875,33.21
2021-07-06 17:21:30.703125000,-16.0,13.0,60.0,91.75265625,39.6,2.79100575,33.21
2021-07-06 17:21:30.710937500,-16.0,13.0,60.0,91.751796875,41.7,2.790845625,33.21
2021-07-06 17:21:30.718750000,-16.0,13.0,60.0,91.75093749999999,43.8,2.7906855,33.21
2021-07-06 17:21:30.726562500,-16.0,13.0,60.0,91.750078125,44.44,2.790525375,33.21
2021-07-06 17:21:30.734375000,-16.0,13.0,60.0,91.74921875,45.08,2.7903652500000002,33.21
2021-07-06 17:21:30.742187500,-16.0,13.0,60.0,91.74835937499999,44.715,2.790205125,33.21
2021-07-06 17:21:30.750000000,-16.0,13.0,60.0,91.7475,44.35,2.790045,33.21
2021-07-06 17:21:30.757812500,-16.0,13.0,60.0,91.746640625,43.265,2.7900850312500003,33.21
2021-07-06 17:21:30.765625000,-16.0,13.0,60.0,91.74578125,42.18,2.7901250625,33.21
2021-07-06 17:21:30.773437500,-16.0,13.0,60.0,91.744921875,40.595,2.79016509375,33.21
2021-07-06 17:21:30.781250000,-16.0,13.0,60.0,91.7440625,39.01,2.790205125,33.21
2021-07-06 17:21:30.789062500,-16.0,13.0,60.0,91.743203125,37.185,2.79024515625,33.21
2021-07-06 17:21:30.796875000,-16.0,13.0,60.0,91.74234375,35.36,2.7902851875000003,33.21
2021-07-06 17:21:30.804687500,-16.0,13.0,60.0,91.741484375,33.635,2.79032521875,33.21
2021-07-06 17:21:30.812500000,-16.0,13.0,60.0,91.740625,31.91,2.7903652500000002,33.21
2021-07-06 17:21:30.820312500,-15.75,13.0,60.0,91.739765625,30.645,2.79040528125,33.21
2021-07-06 17:21:30.828125000,-15.5,13.0,60.0,91.73890625,29.38,2.7904453125,33.21
2021-07-06 17:21:30.835937500,-15.25,13.0,60.0,91.738046875,28.799999999999997,2.7904853437500003,33.21
2021-07-06 17:21:30.843750000,-15.0,13.0,60.0,91.7371875,28.22,2.790525375,33.21
2021-07-06 17:21:30.851562500,-15.25,13.0,60.0,91.736328125,28.36,2.7905654062500003,33.21
2021-07-06 17:21:30.859375000,-15.5,13.0,60.0,91.73546875,28.5,2.7906054375,33.21
2021-07-06 17:21:30.867187500,-15.75,13.0,60.0,91.734609375,29.17,2.79064546875,33.21
2021-07-06 17:21:30.875000000,-16.0,13.0,60.0,91.73375,29.84,2.7906855000000004,33.21
2021-07-06 17:21:30.882812500,-15.75,13.0,60.0,91.732890625,30.755000000000003,2.79072553125,33.21
2021-07-06 17:21:30.890625000,-15.5,13.0,60.0,91.73203125,31.67,2.7907655625000003,33.21
2021-07-06 17:21:30.898437500,-15.25,13.0,60.0,91.731171875,32.535,2.79080559375,33.21
2021-07-06 17:21:30.906250000,-15.0,13.0,60.0,91.7303125,33.4,2.790845625,33.21
2021-07-06 17:21:30.914062500,-15.25,13.0,60.0,91.72945312499999,34.04,2.79088565625,33.21
2021-07-06 17:21:30.921875000,-15.5,13.0,60.0,91.72859375,34.68,2.7909256875,33.21
2021-07-06 17:21:30.929687500,-15.75,13.0,60.0,91.727734375,35.05,2.7909657187500003,33.21
2021-07-06 17:21:30.937500000,-16.0,13.0,60.0,91.72687499999999,35.42,2.79100575,33.21
2021-07-06 17:21:30.945312500,-16.0,13.0,60.0,91.726015625,35.585,2.7910457812500002,33.21
2021-07-06 17:21:30.953125000,-16.0,13.0,60.0,91.72515625,35.75,2.7910858125,33.21
2021-07-06 17:21:30.960937500,-16.0,13.0,60.0,91.724296875,35.745000000000005,2.79112584375,33.21
2021-07-06 17:21:30.968750000,-16.0,13.0,60.0,91.7234375,35.74,2.7911658750000004,33.21
2021-07-06 17:21:30.976562500,-16.0,13.0,60.0,91.722578125,35.565,2.79120590625,33.21
2021-07-06 17:21:30.984375000,-16.0,13.0,60.0,91.72171875,35.39,2.7912459375000003,33.21
2021-07-06 17:21:30.992187500,-16.0,13.0,60.0,91.720859375,34.93,2.79128596875,33.21
2021-07-06 17:21:31.000000000,-16.0,13.0,60.0,91.72,34.47,2.791326,33.21
2021-07-06 17:21:31.007812500,-15.75,13.0,60.0,91.718828125,33.565,2.7910457500000003,33.210625
2021-07-06 17:21:31.015625000,-15.5,13.0,60.0,91.71765625,32.66,2.7907655,33.21125
2021-07-06 17:21:31.023437500,-15.25,13.0,60.0,91.716484375,31.154999999999998,2.79048525,33.211875
2021-07-06 17:21:31.031250000,-15.0,13.0,60.0,91.7153125,29.65,2.7902050000000003,33.2125
2021-07-06 17:21:31.039062500,-15.25,13.0,60.0,91.714140625,27.49,2.78992475,33.213125
2021-07-06 17:21:31.046875000,-15.5,13.0,60.0,91.71296875,25.33,2.7896445,33.21375
2021-07-06 17:21:31.054687500,-15.75,13.0,60.0,91.711796875,22.549999999999997,2.78936425,33.214375
2021-07-06 17:21:31.062500000,-16.0,13.0,60.0,91.710625,19.77,2.789084,33.215
2021-07-06 17:21:31.070312500,-15.75,13.0,60.0,91.709453125,16.5,2.78880375,33.215625
2021-07-06 17:21:31.078125000,-15.5,13.0,60.0,91.70828125,13.23,2.7885235,33.21625
2021-07-06 17:21:31.085937500,-15.25,13.0,60.0,91.707109375,9.67,2.7882432500000003,33.216875
2021-07-06 17:21:31.093750000,-15.0,13.0,60.0,91.7059375,6.11,2.787963,33.2175
2021-07-06 17:21:31.101562500,-15.0,13.0,60.0,91.704765625,2.435,2.78768275,33.218125
2021-07-06 17:21:31.109375000,-15.0,13.0,60.0,91.70359375,-1.24,2.7874025000000002,33.21875
2021-07-06 17:21:31.117187500,-15.0,13.0,60.0,91.702421875,-4.835,2.78712225,33.219375
2021-07-06 17:21:31.125000000,-15.0,13.0,60.0,91.70125,-8.43,2.786842,33.22
2021-07-06 17:21:31.132812500,-15.0,13.0,60.0,91.700078125,-11.8,2.78656175,33.220625
2021-07-06 17:21:31.140625000,-15.0,13.0,60.0,91.69890625,-15.17,2.7862815,33.22125
2021-07-06 17:21:31.148437500,-15.0,13.0,60.0,91.697734375,-18.205,2.78600125,33.221875
2021-07-06 17:21:31.156250000,-15.0,13.0,60.0,91.6965625,-21.24,2.785721,33.2225
2021-07-06 17:21:31.164062500,-15.0,13.0,60.0,91.695390625,-23.89,2.78544075,33.223124999999996
2021-07-06 17:21:31.171875000,-15.0,13.0,60.0,91.69421875,-26.54,2.7851605,33.223749999999995
2021-07-06 17:21:31.179687500,-15.0,13.0,60.0,91.693046875,-28.84,2.78488025,33.224374999999995
2021-07-06 17:21:31.187500000,-15.0,13.0,60.0,91.691875,-31.14,2.7846,33.224999999999994
2021-07-06 17:21:31.195312500,-15.25,13.0,60.0,91.690703125,-33.25,2.78431975,33.225625
2021-07-06 17:21:31.203125000,-15.5,13.0,60.0,91.68953125,-35.36,2.7840395,33.22625
2021-07-06 17:21:31.210937500,-15.75,13.0,60.0,91.688359375,-37.55,2.78375925,33.226875
2021-07-06 17:21:31.218750000,-16.0,13.0,60.0,91.6871875,-39.74,2.783479,33.2275
2021-07-06 17:21:31.226562500,-15.75,13.0,60.0,91.686015625,-42.365,2.78319875,33.228125
2021-07-06 17:21:31.234375000,-15.5,13.0,60.0,91.68484375,-44.99,2.7829185,33.22875
2021-07-06 17:21:31.242187500,-15.25,13.0,60.0,91.683671875,-48.345,2.7826382499999998,33.229375
2021-07-06 17:21:31.250000000,-15.0,13.0,60.0,91.6825,-51.7,2.782358,33.23
2021-07-06 17:21:31.257812500,-15.25,13.0,60.0,91.681328125,-55.845,2.782358,33.23
2021-07-06 17:21:31.265625000,-15.5,13.0,60.0,91.68015625,-59.99,2.782358,33.23
2021-07-06 17:21:31.273437500,-15.75,13.0,60.0,91.678984375,-64.605,2.782358,33.23
2021-07-06 17:21:31.281250000,-16.0,13.0,60.0,91.6778125,-69.22,2.782358,33.23
2021-07-06 17:21:31.289062500,-15.75,13.0,60.0,91.67664062499999,-73.5,2.782358,33.23
2021-07-06 17:21:31.296875000,-15.5,13.0,60.0,91.67546875,-77.78,2.782358,33.23
2021-07-06 17:21:31.304687500,-15.25,13.0,60.0,91.674296875,-80.58,2.782358,33.23
2021-07-06 17:21:31.312500000,-15.0,13.0,60.0,91.673125,-83.38,2.782358,33.23
2021-07-06 17:21:31.320312500,-15.25,13.0,60.0,91.671953125,-83.535,2.782358,33.23
2021-07-06 17:21:31.328125000,-15.5,13.0,60.0,91.67078124999999,-83.69,2.782358,33.23
2021-07-06 17:21:31.335937500,-15.75,13.0,60.0,91.669609375,-80.43,2.782358,33.23
2021-07-06 17:21:31.343750000,-16.0,13.0,60.0,91.6684375,-77.17,2.782358,33.23
2021-07-06 17:21:31.351562500,-16.0,13.0,60.0,91.667265625,-70.43,2.782358,33.23
2021-07-06 17:21:31.359375000,-16.0,13.0,60.0,91.66609375,-63.69,2.782358,33.23
2021-07-06 17:21:31.367187500,-16.0,13.0,60.0,91.66492187499999,-54.209999999999994,2.782358,33.23
2021-07-06 17:21:31.375000000,-16.0,13.0,60.0,91.66375,-44.73,2.782358,33.23
2021-07-06 17:21:31.382812500,-15.75,13.0,60.0,91.662578125,-33.849999999999994,2.782358,33.23
2021-07-06 17:21:31.390625000,-15.5,13.0,60.0,91.66140625,-22.97,2.782358,33.23
2021-07-06 17:21:31.398437500,-15.25,13.0,60.0,91.660234375,-12.229999999999999,2.782358,33.23
2021-07-06 17:21:31.406250000,-15.0,13.0,60.0,91.65906249999999,-1.49,2.782358,33.23
2021-07-06 17:21:31.414062500,-15.0,13.0,60.0,91.657890625,7.834999999999999,2.782358,33.23
2021-07-06 17:21:31.421875000,-15.0,13.0,60.0,91.65671875,17.16,2.782358,33.23
2021-07-06 17:21:31.429687500,-15.0,13.0,60.0,91.655546875,24.29,2.782358,33.23
2021-07-06 17:21:31.437500000,-15.0,13.0,60.0,91.654375,31.42,2.782358,33.23
2021-07-06 17:21:31.445312500,-15.25,13.0,60.0,91.65320312499999,36.185,2.782358,33.23
2021-07-06 17:21:31.453125000,-15.5,13.0,60.0,91.65203125,40.95,2.782358,33.23
2021-07-06 17:21:31.460937500,-15.75,13.0,60.0,91.650859375,43.59,2.782358,33.23
2021-07-06 17:21:31.468750000,-16.0,13.0,60.0,91.6496875,46.23,2.782358,33.23
2021-07-06 17:21:31.476562500,-15.75,13.0,60.0,91.648515625,47.2,2.782358,33.23
2021-07-06 17:21:31.484375000,-15.5,13.0,60.0,91.64734374999999,48.17,2.782358,33.23
2021-07-06 17:21:31.492187500,-15.25,13.0,60.0,91.646171875,47.93,2.782358,33.23
2021-07-06 17:21:31.500000000,-15.0,13.0,60.0,91.645,47.69,2.782358,33.23
2021-07-06 17:21:31.507812500,-15.25,13.0,60.0,91.643828125,46.635,2.7823179687499997,33.23
2021-07-06 17:21:31.515625000,-15.5,13.0,60.0,91.64265625,45.58,2.7822779375,33.23
2021-07-06 17:21:31.523437500,-15.75,13.0,60.0,91.64148437499999,44.025,2.78223790625,33.23
2021-07-06 17:21:31.531250000,-16.0,13.0,60.0,91.6403125,42.47,2.782197875,33.23
2021-07-06 17:21:31.539062500,-15.75,13.0,60.0,91.639140625,40.695,2.78215784375,33.23
2021-07-06 17:21:31.546875000,-15.5,13.0,60.0,91.63796875,38.92,2.7821178124999997,33.23
2021-07-06 17:21:31.554687500,-15.25,13.0,60.0,91.636796875,37.185,2.78207778125,33.23
2021-07-06 17:21:31.562500000,-15.0,13.0,60.0,91.63562499999999,35.45,2.7820377499999998,33.23
2021-07-06 17:21:31.570312500,-15.0,13.0,60.0,91.634453125,33.985,2.78199771875,33.23
2021-07-06 17:21:31.578125000,-15.0,13.0,60.0,91.63328125,32.52,2.7819576875,33.23
2021-07-06 17:21:31.585937500,-15.0,13.0,60.0,91.632109375,31.520000000000003,2.7819176562499996,33.23
2021-07-06 17:21:31.593750000,-15.0,13.0,60.0,91.6309375,30.52,2.781877625,33.23
2021-07-06 17:21:31.601562500,-15.25,13.0,60.0,91.62976562499999,30.09,2.7818375937499997,33.23
2021-07-06 17:21:31.609375000,-15.5,13.0,60.0,91.62859375,29.66,2.7817975625,33.23
2021-07-06 17:21:31.617187500,-15.75,13.0,60.0,91.627421875,29.8,2.78175753125,33.23
2021-07-06 17:21:31.625000000,-16.0,13.0,60.0,91.62625,29.94,2.7817175,33.23
2021-07-06 17:21:31.632812500,-15.75,13.0,60.0,91.625078125,30.54,2.78167746875,33.23
2021-07-06 17:21:31.640625000,-15.5,13.0,60.0,91.62390624999999,31.14,2.7816374374999997,33.23
2021-07-06 17:21:31.648437500,-15.25,13.0,60.0,91.622734375,32.010000000000005,2.78159740625,33.23
2021-07-06 17:21:31.656250000,-15.0,13.0,60.0,91.6215625,32.88,2.7815573749999998,33.23
2021-07-06 17:21:31.664062500,-15.0,13.0,60.0,91.620390625,33.775000000000006,2.78151734375,33.23
2021-07-06 17:21:31.671875000,-15.0,13.0,60.0,91.61921875,34.67,2.7814773125,33.23
2021-07-06 17:21:31.679687500,-15.0,13.0,60.0,91.61804687499999,35.365,2.7814372812499997,33.23
2021-07-06 17:21:31.687500000,-15.0,13.0,60.0,91.616875,36.06,2.78139725,33.23
2021-07-06 17:21:31.695312500,-15.0,13.0,60.0,91.615703125,36.415000000000006,2.7813572187499997,33.23
2021-07-06 17:21:31.703125000,-15.0,13.0,60.0,91.61453125,36.77,2.7813171875,33.23
2021-07-06 17:21:31.710937500,-15.0,13.0,60.0,91.613359375,36.705,2.78127715625,33.23
2021-07-06 17:21:31.718750000,-15.0,13.0,60.0,91.61218749999999,36.64,2.7812371249999996,33.23
2021-07-06 17:21:31.726562500,-15.0,13.0,60.0,91.611015625,36.19,2.78119709375,33.23
2021-07-06 17:21:31.734375000,-15.0,13.0,60.0,91.60984375,35.74,2.7811570624999997,33.23
2021-07-06 17:21:31.742187500,-15.0,13.0,60.0,91.608671875,34.955,2.78111703125,33.23
2021-07-06 17:21:31.750000000,-15.0,13.0,60.0,91.60749999999999,34.17,2.781077,33.23
2021-07-06 17:21:31.757812500,-15.0,13.0,60.0,91.60632812499999,33.105000000000004,2.7808768437499998,33.23
2021-07-06 17:21:31.765625000,-15.0,13.0,60.0,91.60515625,32.04,2.7806766874999997,33.23
2021-07-06 17:21:31.773437500,-15.0,13.0,60.0,91.603984375,30.7,2.7804765312499997,33.23
2021-07-06 17:21:31.781250000,-15.0,13.0,60.0,91.6028125,29.36,2.7802763749999997,33.23
2021-07-06 17:21:31.789062500,-15.0,13.0,60.0,91.60164062499999,27.7,2.7800762187499997,33.23
2021-07-06 17:21:31.796875000,-15.0,13.0,60.0,91.60046874999999,26.04,2.7798760624999996,33.23
2021-07-06 17:21:31.804687500,-15.0,13.0,60.0,91.599296875,23.97,2.7796759062499996,33.23
2021-07-06 17:21:31.812500000,-15.0,13.0,60.0,91.598125,21.9,2.7794757499999996,33.23
2021-07-06 17:21:31.820312500,-15.0,13.0,60.0,91.596953125,19.365,2.77927559375,33.23
2021-07-06 17:21:31.828125000,-15.0,13.0,60.0,91.59578124999999,16.83,2.7790754375,33.23
2021-07-06 17:21:31.835937500,-15.0,13.0,60.0,91.59460937499999,13.829999999999998,2.77887528125,33.23
2021-07-06 17:21:31.843750000,-15.0,13.0,60.0,91.5934375,10.83,2.778675125,33.23
2021-07-06 17:21:31.851562500,-15.0,13.0,60.0,91.592265625,7.455,2.77847496875,33.23
2021-07-06 17:21:31.859375000,-15.0,13.0,60.0,91.59109375,4.08,2.7782748125,33.23
2021-07-06 17:21:31.867187500,-15.0,13.0,60.0,91.58992187499999,0.5,2.77807465625,33.23
2021-07-06 17:21:31.875000000,-15.0,13.0,60.0,91.58874999999999,-3.08,2.7778745,33.23
2021-07-06 17:21:31.882812500,-15.0,13.0,60.0,91.587578125,-6.68,2.7776743437499998,33.23
2021-07-06 17:21:31.890625000,-15.0,13.0,60.0,91.58640625,-10.28,2.7774741874999997,33.23
2021-07-06 17:21:31.898437500,-15.0,13.0,60.0,91.585234375,-13.719999999999999,2.7772740312499997,33.23
2021-07-06 17:21:31.906250000,-15.0,13.0,60.0,91.58406249999999,-17.16,2.7770738749999997,33.23
2021-07-06 17:21:31.914062500,-15.0,13.0,60.0,91.58289062499999,-20.325,2.7768737187499997,33.23
2021-07-06 17:21:31.921875000,-15.0,13.0,60.0,91.58171875,-23.49,2.7766735624999996,33.23
2021-07-06 17:21:31.929687500,-15.0,13.0,60.0,91.580546875,-26.33,2.7764734062499996,33.23
2021-07-06 17:21:31.937500000,-15.0,13.0,60.0,91.579375,-29.17,2.77627325,33.23
2021-07-06 17:21:31.945312500,-15.0,13.0,60.0,91.57820312499999,-31.705000000000002,2.77607309375,33.23
2021-07-06 17:21:31.953125000,-15.0,13.0,60.0,91.57703124999999,-34.24,2.7758729375,33.23
2021-07-06 17:21:31.960937500,-15.0,13.0,60.0,91.575859375,-36.6,2.77567278125,33.23
2021-07-06 17:21:31.968750000,-15.0,13.0,60.0,91.5746875,-38.96,2.775472625,33.23
2021-07-06 17:21:31.976562500,-15.0,13.0,60.0,91.573515625,-41.36,2.77527246875,33.23
2021-07-06 17:21:31.984375000,-15.0,13.0,60.0,91.57234374999999,-43.76,2.7750723125,33.23
2021-07-06 17:21:31.992187500,-15.0,13.0,60.0,91.57117187499999,-46.519999999999996,2.77487215625,33.23
2021-07-06 17:21:32.000000000,-15.0,13.0,60.0,91.57,-49.28,2.774672,33.23
2021-07-06 17:21:32.007812500,-15.0,13.0,60.0,91.56851562499999,-52.71,2.7744718125,33.23
2021-07-06 17:21:32.015625000,-15.0,13.0,60.0,91.56703125,-56.14,2.774271625,33.23
2021-07-06 17:21:32.023437500,-15.0,13.0,60.0,91.565546875,-60.315,2.7740714375,33.23
2021-07-06 17:21:32.031250000,-15.0,13.0,60.0,91.56406249999999,-64.49,2.77387125,33.23
2021-07-06 17:21:32.039062500,-15.0,13.0,60.0,91.56257812499999,-69.095,2.7736710625,33.23
2021-07-06 17:21:32.046875000,-15.0,13.0,60.0,91.56109375,-73.7,2.7734708749999997,33.23
2021-07-06 17:21:32.054687500,-15.0,13.0,60.0,91.559609375,-77.88,2.7732706874999997,33.23
2021-07-06 17:21:32.062500000,-15.0,13.0,60.0,91.55812499999999,-82.06,2.7730704999999998,33.23
2021-07-06 17:21:32.070312500,-15.25,13.0,60.0,91.556640625,-84.595,2.7728703125,33.23
2021-07-06 17:21:32.078125000,-15.5,13.0,60.0,91.55515625,-87.13,2.772670125,33.23
2021-07-06 17:21:32.085937500,-15.75,13.0,60.0,91.55367187499999,-86.75999999999999,2.7724699375,33.23
2021-07-06 17:21:32.093750000,-16.0,13.0,60.0,91.55218749999999,-86.39,2.77226975,33.23
2021-07-06 17:21:32.101562500,-15.75,13.0,60.0,91.550703125,-82.33500000000001,2.7720695625,33.23
2021-07-06 17:21:32.109375000,-15.5,13.0,60.0,91.54921875,-78.28,2.771869375,33.23
2021-07-06 17:21:32.117187500,-15.25,13.0,60.0,91.54773437499999,-70.57,2.7716691875,33.23
2021-07-06 17:21:32.125000000,-15.0,13.0,60.0,91.54624999999999,-62.86,2.7714689999999997,33.23
2021-07-06 17:21:32.132812500,-15.0,13.0,60.0,91.544765625,-52.46,2.7712688125,33.23
2021-07-06 17:21:32.140625000,-15.0,13.0,60.0,91.54328124999999,-42.06,2.771068625,33.23
2021-07-06 17:21:32.148437500,-15.0,13.0,60.0,91.54179687499999,-30.535000000000004,2.7708684375,33.23
2021-07-06 17:21:32.156250000,-15.0,13.0,60.0,91.5403125,-19.01,2.77066825,33.23
2021-07-06 17:21:32.164062500,-15.25,13.0,60.0,91.538828125,-8.045000000000002,2.7704680625,33.23
2021-07-06 17:21:32.171875000,-15.5,13.0,60.0,91.53734374999999,2.92,2.770267875,33.23
2021-07-06 17:21:32.179687500,-15.75,13.0,60.0,91.53585937499999,12.005,2.7700676875,33.23
2021-07-06 17:21:32.187500000,-16.0,13.0,60.0,91.534375,21.09,2.7698675,33.23
2021-07-06 17:21:32.195312500,-15.75,13.0,60.0,91.532890625,27.65,2.7696673125,33.23
2021-07-06 17:21:32.203125000,-15.5,13.0,60.0,91.53140624999999,34.21,2.7694671250000003,33.23
2021-07-06 17:21:32.210937500,-15.25,13.0,60.0,91.529921875,38.245000000000005,2.7692669375,33.23
2021-07-06 17:21:32.218750000,-15.0,13.0,60.0,91.5284375,42.28,2.76906675,33.23
2021-07-06 17:21:32.226562500,-15.0,13.0,60.0,91.52695312499999,44.245000000000005,2.7688665625,33.23
2021-07-06 17:21:32.234375000,-15.0,13.0,60.0,91.52546874999999,46.21,2.768666375,33.23
2021-07-06 17:21:32.242187500,-15.0,13.0,60.0,91.523984375,46.695,2.7684661875,33.23
2021-07-06 17:21:32.250000000,-15.0,13.0,60.0,91.5225,47.18,2.768266,33.23
2021-07-06 17:21:32.257812500,-15.0,13.0,60.0,91.52101562499999,46.685,2.768386125,33.23
2021-07-06 17:21:32.265625000,-15.0,13.0,60.0,91.51953125,46.19,2.76850625,33.23
2021-07-06 17:21:32.273437500,-15.0,13.0,60.0,91.518046875,45.075,2.768626375,33.23
2021-07-06 17:21:32.281250000,-15.0,13.0,60.0,91.51656249999999,43.96,2.7687465,33.23
2021-07-06 17:21:32.289062500,-15.0,13.0,60.0,91.51507812499999,42.475,2.7688666250000002,33.23
2021-07-06 17:21:32.296875000,-15.0,13.0,60.0,91.51359375,40.99,2.7689867500000003,33.23
2021-07-06 17:21:32.304687500,-15.0,13.0,60.0,91.512109375,39.38,2.7691068750000003,33.23
2021-07-06 17:21:32.312500000,-15.0,13.0,60.0,91.51062499999999,37.77,2.769227,33.23
2021-07-06 17:21:32.320312500,-15.0,13.0,60.0,91.509140625,36.27,2.769347125,33.23
2021-07-06 17:21:32.328125000,-15.0,13.0,60.0,91.50765625,34.77,2.76946725,33.23
2021-07-06 17:21:32.335937500,-15.0,13.0,60.0,91.50617187499999,33.66,2.769587375,33.23
2021-07-06 17:21:32.343750000,-15.0,13.0,60.0,91.50468749999999,32.55,2.7697075,33.23
2021-07-06 17:21:32.351562500,-15.25,13.0,60.0,91.503203125,32.01,2.769827625,33.23
2021-07-06 17:21:32.359375000,-15.5,13.0,60.0,91.50171875,31.47,2.76994775,33.23
2021-07-06 17:21:32.367187500,-15.75,13.0,60.0,91.50023437499999,31.549999999999997,2.770067875,33.23
2021-07-06 17:21:32.375000000,-16.0,13.0,60.0,91.49875,31.63,2.770188,33.23
2021-07-06 17:21:32.382812500,-16.0,13.0,60.0,91.497265625,32.21,2.770308125,33.23
2021-07-06 17:21:32.390625000,-16.0,13.0,60.0,91.49578125,32.79,2.77042825,33.23
2021-07-06 17:21:32.398437500,-16.0,13.0,60.0,91.49429687499999,33.61,2.770548375,33.23
2021-07-06 17:21:32.406250000,-16.0,13.0,60.0,91.4928125,34.43,2.7706685,33.23
2021-07-06 17:21:32.414062500,-16.0,13.0,60.0,91.491328125,35.215,2.7707886250000002,33.23
2021-07-06 17:21:32.421875000,-16.0,13.0,60.0,91.48984374999999,36.0,2.7709087500000003,33.23
2021-07-06 17:21:32.429687500,-16.0,13.0,60.0,91.48835937499999,36.555,2.7710288750000003,33.23
2021-07-06 17:21:32.437500000,-16.0,13.0,60.0,91.486875,37.11,2.7711490000000003,33.23
2021-07-06 17:21:32.445312500,-16.0,13.0,60.0,91.485390625,37.36,2.771269125,33.23
2021-07-06 17:21:32.453125000,-16.0,13.0,60.0,91.48390624999999,37.61,2.77138925,33.23
2021-07-06 17:21:32.460937500,-16.0,13.0,60.0,91.482421875,37.595,2.771509375,33.23
2021-07-06 17:21:32.468750000,-16.0,13.0,60.0,91.4809375,37.58,2.7716295,33.23
2021-07-06 17:21:32.476562500,-16.0,13.0,60.0,91.47945312499999,37.364999999999995,2.771749625,33.23
2021-07-06 17:21:32.484375000,-16.0,13.0,60.0,91.47796874999999,37.15,2.77186975,33.23
2021-07-06 17:21:32.492187500,-16.0,13.0,60.0,91.476484375,36.75,2.771989875,33.23
2021-07-06 17:21:32.500000000,-16.0,13.0,60.0,91.475,36.35,2.77211,33.23
2021-07-06 17:21:32.507812500,-16.0,13.0,60.0,91.47351562499999,35.705,2.77178971875,33.23
2021-07-06 17:21:32.515625000,-16.0,13.0,60.0,91.47203125,35.06,2.7714694375,33.23
2021-07-06 17:21:32.523437500,-16.0,13.0,60.0,91.470546875,34.065,2.77114915625,33.23
2021-07-06 17:21:32.531250000,-16.0,13.0,60.0,91.46906249999999,33.07,2.7708288750000003,33.23
2021-07-06 17:21:32.539062500,-16.0,13.0,60.0,91.46757812499999,31.634999999999998,2.7705085937500002,33.23
2021-07-06 17:21:32.546875000,-16.0,13.0,60.0,91.46609375,30.2,2.7701883125,33.23
2021-07-06 17:21:32.554687500,-16.0,13.0,60.0,91.464609375,28.28,2.76986803125,33.23
2021-07-06 17:21:32.562500000,-16.0,13.0,60.0,91.46312499999999,26.36,2.76954775,33.23
2021-07-06 17:21:32.570312500,-16.0,13.0,60.0,91.461640625,23.985,2.76922746875,33.23
2021-07-06 17:21:32.578125000,-16.0,13.0,60.0,91.46015625,21.61,2.7689071875,33.23
2021-07-06 17:21:32.585937500,-16.0,13.0,60.0,91.458671875,18.83,2.76858690625,33.23
2021-07-06 17:21:32.593750000,-16.0,13.0,60.0,91.45718749999999,16.05,2.768266625,33.23
2021-07-06 17:21:32.601562500,-15.75,13.0,60.0,91.455703125,12.95,2.7679463437500003,33.23
2021-07-06 17:21:32.609375000,-15.5,13.0,60.0,91.45421875,9.85,2.7676260625,33.23
2021-07-06 17:21:32.617187500,-15.25,13.0,60.0,91.45273437499999,6.54,2.76730578125,33.23
2021-07-06 17:21:32.625000000,-15.0,13.0,60.0,91.45124999999999,3.23,2.7669855,33.23
2021-07-06 17:21:32.632812500,-15.0,13.0,60.0,91.449765625,-0.1599999999999997,2.76666521875,33.23
2021-07-06 17:21:32.640625000,-15.0,13.0,60.0,91.44828125,-3.55,2.7663449375,33.23
2021-07-06 17:21:32.648437500,-15.0,13.0,60.0,91.44679687499999,-6.834999999999999,2.76602465625,33.23
2021-07-06 17:21:32.656250000,-15.0,13.0,60.0,91.4453125,-10.12,2.7657043750000003,33.23
2021-07-06 17:21:32.664062500,-15.25,13.0,60.0,91.443828125,-13.14,2.7653840937500003,33.23
2021-07-06 17:21:32.671875000,-15.5,13.0,60.0,91.44234374999999,-16.16,2.7650638125,33.23
2021-07-06 17:21:32.679687500,-15.75,13.0,60.0,91.44085937499999,-18.79,2.76474353125,33.23
2021-07-06 17:21:32.687500000,-16.0,13.0,60.0,91.439375,-21.42,2.76442325,33.23
2021-07-06 17:21:32.695312500,-15.75,13.0,60.0,91.437890625,-23.66,2.76410296875,33.23
2021-07-06 17:21:32.703125000,-15.5,13.0,60.0,91.43640624999999,-25.9,2.7637826875,33.23
2021-07-06 17:21:32.710937500,-15.25,13.0,60.0,91.434921875,-27.884999999999998,2.76346240625,33.23
2021-07-06 17:21:32.718750000,-15.0,13.0,60.0,91.4334375,-29.87,2.763142125,33.23
2021-07-06 17:21:32.726562500,-15.25,13.0,60.0,91.43195312499999,-31.83,2.7628218437500003,33.23
2021-07-06 17:21:32.734375000,-15.5,13.0,60.0,91.43046874999999,-33.79,2.7625015625000002,33.23
2021-07-06 17:21:32.742187500,-15.75,13.0,60.0,91.428984375,-36.019999999999996,2.76218128125,33.23
2021-07-06 17:21:32.750000000,-16.0,13.0,60.0,91.4275,-38.25,2.761861,33.23
2021-07-06 17:21:32.757812500,-16.0,13.0,60.0,91.42601562499999,-41.03,2.7619810937500002,33.23
2021-07-06 17:21:32.765625000,-16.0,13.0,60.0,91.42453125,-43.81,2.7621011875,33.23
2021-07-06 17:21:32.773437500,-16.0,13.0,60.0,91.423046875,-47.335,2.76222128125,33.23
2021-07-06 17:21:32.781250000,-16.0,13.0,60.0,91.4215625,-50.86,2.762341375,33.23
2021-07-06 17:21:32.789062500,-16.0,13.0,60.0,91.42007812499999,-55.125,2.76246146875,33.23
2021-07-06 17:21:32.796875000,-16.0,13.0,60.0,91.41859375,-59.39,2.7625815625000003,33.23
2021-07-06 17:21:32.804687500,-16.0,13.0,60.0,91.417109375,-64.06,2.76270165625,33.23
2021-07-06 17:21:32.812500000,-16.0,13.0,60.0,91.41562499999999,-68.73,2.76282175,33.23
2021-07-06 17:21:32.820312500,-16.0,13.0,60.0,91.414140625,-73.08500000000001,2.76294184375,33.23
2021-07-06 17:21:32.828125000,-16.0,13.0,60.0,91.41265625,-77.44,2.7630619375,33.23
2021-07-06 17:21:32.835937500,-16.0,13.0,60.0,91.411171875,-80.435,2.76318203125,33.23
2021-07-06 17:21:32.843750000,-16.0,13.0,60.0,91.40968749999999,-83.43,2.763302125,33.23
2021-07-06 17:21:32.851562500,-16.0,13.0,60.0,91.408203125,-83.935,2.76342221875,33.23
2021-07-06 17:21:32.859375000,-16.0,13.0,60.0,91.40671875,-84.44,2.7635423125000003,33.23
2021-07-06 17:21:32.867187500,-16.0,13.0,60.0,91.40523437499999,-81.58,2.76366240625,33.23
2021-07-06 17:21:32.875000000,-16.0,13.0,60.0,91.40375,-78.72,2.7637825,33.23
2021-07-06 17:21:32.882812500,-16.0,13.0,60.0,91.402265625,-72.25,2.76390259375,33.23
2021-07-06 17:21:32.890625000,-16.0,13.0,60.0,91.40078125,-65.78,2.7640226875,33.23
2021-07-06 17:21:32.898437500,-16.0,13.0,60.0,91.39929687499999,-56.28,2.76414278125,33.23
2021-07-06 17:21:32.906250000,-16.0,13.0,60.0,91.3978125,-46.78,2.764262875,33.23
2021-07-06 17:21:32.914062500,-16.0,13.0,60.0,91.396328125,-35.495000000000005,2.76438296875,33.23
2021-07-06 17:21:32.921875000,-16.0,13.0,60.0,91.39484374999999,-24.21,2.7645030625,33.23
2021-07-06 17:21:32.929687500,-16.0,13.0,60.0,91.39335937499999,-12.74,2.76462315625,33.23
2021-07-06 17:21:32.937500000,-16.0,13.0,60.0,91.391875,-1.27,2.76474325,33.23
2021-07-06 17:21:32.945312500,-16.0,13.0,60.0,91.390390625,8.925,2.76486334375,33.23
2021-07-06 17:21:32.953125000,-16.0,13.0,60.0,91.38890624999999,19.12,2.7649834374999998,33.23
2021-07-06 17:21:32.960937500,-16.0,13.0,60.0,91.387421875,27.060000000000002,2.76510353125,33.23
2021-07-06 17:21:32.968750000,-16.0,13.0,60.0,91.3859375,35.0,2.765223625,33.23
2021-07-06 17:21:32.976562500,-16.0,13.0,60.0,91.384453125,40.364999999999995,2.76534371875,33.23
2021-07-06 17:21:32.984375000,-16.0,13.0,60.0,91.38296874999999,45.73,2.7654638125,33.23
2021-07-06 17:21:32.992187500,-16.0,13.0,60.0,91.381484375,48.72,2.76558390625,33.23
2021-07-06 17:21:33.000000000,-16.0,13.0,60.0,91.38,51.71,2.765704,33.23
2021-07-06 17:21:33.007812500,-16.0,13.0,60.0,91.37859375,52.815,2.76550384375,33.23
2021-07-06 17:21:33.015625000,-16.0,13.0,60.0,91.37718749999999,53.92,2.7653036875,33.23
2021-07-06 17:21:33.023437500,-16.0,13.0,60.0,91.37578124999999,53.665,2.76510353125,33.23
2021-07-06 17:21:33.031250000,-16.0,13.0,60.0,91.374375,53.41,2.764903375,33.23
2021-07-06 17:21:33.039062500,-16.0,13.0,60.0,91.37296875,52.235,2.76470321875,33.23
2021-07-06 17:21:33.046875000,-16.0,13.0,60.0,91.3715625,51.06,2.7645030624999998,33.23
2021-07-06 17:21:33.054687500,-16.0,13.0,60.0,91.37015625,49.315,2.7643029062499997,33.23
2021-07-06 17:21:33.062500000,-16.0,13.0,60.0,91.36874999999999,47.57,2.76410275,33.23
2021-07-06 17:21:33.070312500,-16.0,13.0,60.0,91.36734374999999,45.57,2.76390259375,33.23
2021-07-06 17:21:33.078125000,-16.0,13.0,60.0,91.3659375,43.57,2.7637024375,33.23
2021-07-06 17:21:33.085937500,-16.0,13.0,60.0,91.36453125,41.625,2.76350228125,33.23
2021-07-06 17:21:33.093750000,-16.0,13.0,60.0,91.363125,39.68,2.763302125,33.23
2021-07-06 17:21:33.101562500,-16.0,13.0,60.0,91.36171875,38.08,2.76310196875,33.23
2021-07-06 17:21:33.109375000,-16.0,13.0,60.0,91.36031249999999,36.48,2.7629018125,33.23
2021-07-06 17:21:33.117187500,-16.0,13.0,60.0,91.35890624999999,35.43,2.76270165625,33.23
2021-07-06 17:21:33.125000000,-16.0,13.0,60.0,91.3575,34.38,2.7625015,33.23
2021-07-06 17:21:33.132812500,-16.0,13.0,60.0,91.35609375,33.915000000000006,2.76230134375,33.23
2021-07-06 17:21:33.140625000,-16.0,13.0,60.0,91.3546875,33.45,2.7621011875,33.23
2021-07-06 17:21:33.148437500,-16.0,13.0,60.0,91.35328125,33.435,2.76190103125,33.23
2021-07-06 17:21:33.156250000,-16.0,13.0,60.0,91.35187499999999,33.42,2.761700875,33.23
2021-07-06 17:21:33.164062500,-16.0,13.0,60.0,91.35046874999999,33.615,2.76150071875,33.23
2021-07-06 17:21:33.171875000,-16.0,13.0,60.0,91.3490625,33.81,2.7613005624999998,33.23
2021-07-06 17:21:33.179687500,-16.0,13.0,60.0,91.34765625,34.0,2.7611004062499998,33.23
2021-07-06 17:21:33.187500000,-16.0,13.0,60.0,91.34625,34.19,2.7609002499999997,33.23
2021-07-06 17:21:33.195312500,-16.0,13.0,60.0,91.34484375,34.254999999999995,2.76070009375,33.23
2021-07-06 17:21:33.203125000,-16.0,13.0,60.0,91.3434375,34.32,2.7604999375,33.23
2021-07-06 17:21:33.210937500,-16.0,13.0,60.0,91.34203124999999,34.275,2.76029978125,33.23
2021-07-06 17:21:33.218750000,-16.0,13.0,60.0,91.340625,34.23,2.760099625,33.23
2021-07-06 17:21:33.226562500,-16.0,13.0,60.0,91.33921875,34.155,2.75989946875,33.23
2021-07-06 17:21:33.234375000,-16.0,13.0,60.0,91.3378125,34.08,2.7596993125,33.23
2021-07-06 17:21:33.242187500,-16.0,13.0,60.0,91.33640625,34.03,2.75949915625,33.23
2021-07-06 17:21:33.250000000,-16.0,13.0,60.0,91.335,33.98,2.759299,33.23
2021-07-06 17:21:33.257812500,-16.0,13.0,60.0,91.33359374999999,33.9,2.759178875,33.23
2021-07-06 17:21:33.265625000,-16.0,13.0,60.0,91.3321875,33.82,2.75905875,33.23
2021-07-06 17:21:33.273437500,-16.0,13.0,60.0,91.33078125,33.555,2.758938625,33.23
2021-07-06 17:21:33.281250000,-16.0,13.0,60.0,91.329375,33.29,2.7588185,33.23
2021-07-06 17:21:33.289062500,-16.0,13.0,60.0,91.32796875,32.67,2.758698375,33.23
2021-07-06 17:21:33.296875000,-16.0,13.0,60.0,91.3265625,32.05,2.75857825,33.23
2021-07-06 17:21:33.304687500,-16.0,13.0,60.0,91.32515624999999,30.99,2.7584581249999998,33.23
2021-07-06 17:21:33.312500000,-16.0,13.0,60.0,91.32375,29.93,2.758338,33.23
2021-07-06 17:21:33.320312500,-16.0,13.0,60.0,91.32234375,28.445,2.758217875,33.23
2021-07-06 17:21:33.328125000,-16.0,13.0,60.0,91.3209375,26.96,2.75809775,33.23
2021-07-06 17:21:33.335937500,-16.0,13.0,60.0,91.31953125,25.15,2.757977625,33.23
2021-07-06 17:21:33.343750000,-16.0,13.0,60.0,91.318125,23.34,2.7578575,33.23
2021-07-06 17:21:33.351562500,-16.0,13.0,60.0,91.31671874999999,21.305,2.757737375,33.23
2021-07-06 17:21:33.359375000,-16.0,13.0,60.0,91.3153125,19.27,2.75761725,33.23
2021-07-06 17:21:33.367187500,-16.0,13.0,60.0,91.31390625,17.04,2.757497125,33.23
2021-07-06 17:21:33.375000000,-16.0,13.0,60.0,91.3125,14.81,2.757377,33.23
2021-07-06 17:21:33.382812500,-16.0,13.0,60.0,91.31109375,12.335,2.757256875,33.23
2021-07-06 17:21:33.390625000,-16.0,13.0,60.0,91.3096875,9.86,2.75713675,33.23
2021-07-06 17:21:33.398437500,-16.0,13.0,60.0,91.30828125,7.05,2.757016625,33.23
2021-07-06 17:21:33.406250000,-16.0,13.0,60.0,91.306875,4.24,2.7568965,33.23
2021-07-06 17:21:33.414062500,-16.0,13.0,60.0,91.30546875,1.0700000000000003,2.756776375,33.23
2021-07-06 17:21:33.421875000,-16.0,13.0,60.0,91.3040625,-2.1,2.75665625,33.23
2021-07-06 17:21:33.429687500,-16.0,13.0,60.0,91.30265625,-5.540000000000001,2.756536125,33.23
2021-07-06 17:21:33.437500000,-16.0,13.0,60.0,91.30125,-8.98,2.7564159999999998,33.23
2021-07-06 17:21:33.445312500,-16.0,13.0,60.0,91.29984375,-12.475000000000001,2.756295875,33.23
2021-07-06 17:21:33.453125000,-16.0,13.0,60.0,91.2984375,-15.97,2.75617575,33.23
2021-07-06 17:21:33.460937500,-16.0,13.0,60.0,91.29703125,-19.25,2.756055625,33.23
2021-07-06 17:21:33.468750000,-16.0,13.0,60.0,91.295625,-22.53,2.7559355,33.23
2021-07-06 17:21:33.476562500,-16.0,13.0,60.0,91.29421875,-25.37,2.755815375,33.23
2021-07-06 17:21:33.484375000,-16.0,13.0,60.0,91.2928125,-28.21,2.75569525,33.23
2021-07-06 17:21:33.492187500,-16.0,13.0,60.0,91.29140625,-30.53,2.755575125,33.23
2021-07-06 17:21:33.500000000,-16.0,13.0,60.0,91.28999999999999,-32.85,2.755455,33.23
2021-07-06 17:21:33.507812500,-16.0,13.0,60.0,91.28859375,-34.735,2.75541496875,33.23
2021-07-06 17:21:33.515625000,-16.0,13.0,60.0,91.2871875,-36.62,2.7553749375,33.23
2021-07-06 17:21:33.523437500,-16.0,13.0,60.0,91.28578125,-38.315,2.75533490625,33.23
2021-07-06 17:21:33.531250000,-16.0,13.0,60.0,91.284375,-40.01,2.755294875,33.23
2021-07-06 17:21:33.539062500,-16.0,13.0,60.0,91.28296875,-41.89,2.75525484375,33.23
2021-07-06 17:21:33.546875000,-16.0,13.0,60.0,91.28156249999999,-43.77,2.7552148124999998,33.23
2021-07-06 17:21:33.554687500,-16.0,13.0,60.0,91.28015625,-46.225,2.75517478125,33.23
2021-07-06 17:21:33.562500000,-16.0,13.0,60.0,91.27875,-48.68,2.75513475,33.23
2021-07-06 17:21:33.570312500,-16.0,13.0,60.0,91.27734375,-52.0,2.75509471875,33.23
2021-07-06 17:21:33.578125000,-16.0,13.0,60.0,91.2759375,-55.32,2.7550546875,33.23
2021-07-06 17:21:33.585937500,-16.0,13.0,60.0,91.27453125,-59.489999999999995,2.7550146562499997,33.23
2021-07-06 17:21:33.593750000,-16.0,13.0,60.0,91.273125,-63.66,2.754974625,33.23
2021-07-06 17:21:33.601562500,-16.0,13.0,60.0,91.27171875,-68.22,2.75493459375,33.23
2021-07-06 17:21:33.609375000,-16.0,13.0,60.0,91.2703125,-72.78,2.7548945625,33.23
2021-07-06 17:21:33.617187500,-16.0,13.0,60.0,91.26890625,-76.745,2.75485453125,33.23
2021-07-06 17:21:33.625000000,-16.0,13.0,60.0,91.2675,-80.71,2.7548145,33.23
2021-07-06 17:21:33.632812500,-16.0,13.0,60.0,91.26609375,-82.81,2.75477446875,33.23
2021-07-06 17:21:33.640625000,-16.0,13.0,60.0,91.2646875,-84.91,2.7547344375,33.23
2021-07-06 17:21:33.648437500,-16.0,13.0,60.0,91.26328125,-83.945,2.75469440625,33.23
2021-07-06 17:21:33.656250000,-16.0,13.0,60.0,91.261875,-82.98,2.754654375,33.23
2021-07-06 17:21:33.664062500,-16.0,13.0,60.0,91.26046875,-78.28999999999999,2.75461434375,33.23
2021-07-06 17:21:33.671875000,-16.0,13.0,60.0,91.2590625,-73.6,2.7545743125,33.23
2021-07-06 17:21:33.679687500,-16.0,13.0,60.0,91.25765625,-65.38499999999999,2.7545342812499998,33.23
2021-07-06 17:21:33.687500000,-16.0,13.0,60.0,91.25625,-57.17,2.75449425,33.23
2021-07-06 17:21:33.695312500,-16.0,13.0,60.0,91.25484375,-46.515,2.75445421875,33.23
2021-07-06 17:21:33.703125000,-16.0,13.0,60.0,91.2534375,-35.86,2.7544141875,33.23
2021-07-06 17:21:33.710937500,-16.0,13.0,60.0,91.25203125,-24.405,2.75437415625,33.23
2021-07-06 17:21:33.718750000,-16.0,13.0,60.0,91.250625,-12.95,2.7543341249999997,33.23
2021-07-06 17:21:33.726562500,-16.0,13.0,60.0,91.24921875,-2.3599999999999994,2.75429409375,33.23
2021-07-06 17:21:33.734375000,-16.0,13.0,60.0,91.2478125,8.23,2.7542540625,33.23
2021-07-06 17:21:33.742187500,-16.0,13.0,60.0,91.24640625,16.73,2.75421403125,33.23
2021-07-06 17:21:33.750000000,-16.0,13.0,60.0,91.245,25.23,2.754174,33.23
2021-07-06 17:21:33.757812500,-16.0,13.0,60.0,91.24359375,31.104999999999997,2.7540939375,33.23
2021-07-06 17:21:33.765625000,-16.0,13.0,60.0,91.2421875,36.98,2.754013875,33.23
2021-07-06 17:21:33.773437500,-16.0,13.0,60.0,91.24078125,40.36,2.7539338125,33.23
2021-07-06 17:21:33.781250000,-16.0,13.0,60.0,91.239375,43.74,2.7538537499999998,33.23
2021-07-06 17:21:33.789062500,-16.0,13.0,60.0,91.23796875000001,45.144999999999996,2.7537736875,33.23
2021-07-06 17:21:33.796875000,-16.0,13.0,60.0,91.2365625,46.55,2.753693625,33.23
2021-07-06 17:21:33.804687500,-16.0,13.0,60.0,91.23515625,46.575,2.7536135625,33.23
2021-07-06 17:21:33.812500000,-16.0,13.0,60.0,91.23375,46.6,2.7535335,33.23
2021-07-06 17:21:33.820312500,-16.25,13.0,60.0,91.23234375,45.735,2.7534534375,33.23
2021-07-06 17:21:33.828125000,-16.5,13.0,60.0,91.2309375,44.87,2.753373375,33.23
2021-07-06 17:21:33.835937500,-16.75,13.0,60.0,91.22953125000001,43.435,2.7532933125,33.23
2021-07-06 17:21:33.843750000,-17.0,13.0,60.0,91.228125,42.0,2.75321325,33.23
2021-07-06 17:21:33.851562500,-17.0,13.0,60.0,91.22671875,40.22,2.7531331875,33.23
2021-07-06 17:21:33.859375000,-17.0,13.0,60.0,91.2253125,38.44,2.753053125,33.23
2021-07-06 17:21:33.867187500,-17.0,13.0,60.0,91.22390625,36.519999999999996,2.7529730625,33.23
2021-07-06 17:21:33.875000000,-17.0,13.0,60.0,91.2225,34.6,2.7528930000000003,33.23
2021-07-06 17:21:33.882812500,-16.75,13.0,60.0,91.22109375000001,32.8,2.7528129375,33.23
2021-07-06 17:21:33.890625000,-16.5,13.0,60.0,91.2196875,31.0,2.752732875,33.23
2021-07-06 17:21:33.898437500,-16.25,13.0,60.0,91.21828125,29.585,2.7526528125,33.23
2021-07-06 17:21:33.906250000,-16.0,13.0,60.0,91.216875,28.17,2.75257275,33.23
2021-07-06 17:21:33.914062500,-16.25,13.0,60.0,91.21546875,27.375,2.7524926875,33.23
2021-07-06 17:21:33.921875000,-16.5,13.0,60.0,91.2140625,26.58,2.7524126250000003,33.23
2021-07-06 17:21:33.929687500,-16.75,13.0,60.0,91.21265625000001,26.479999999999997,2.7523325625,33.23
2021-07-06 17:21:33.937500000,-17.0,13.0,60.0,91.21125,26.38,2.7522525,33.23
2021-07-06 17:21:33.945312500,-17.0,13.0,60.0,91.20984375,26.875,2.7521724375,33.23
2021-07-06 17:21:33.953125000,-17.0,13.0,60.0,91.2084375,27.37,2.752092375,33.23
2021-07-06 17:21:33.960937500,-17.0,13.0,60.0,91.20703125,28.21,2.7520123125000002,33.23
2021-07-06 17:21:33.968750000,-17.0,13.0,60.0,91.205625,29.05,2.7519322500000003,33.23
2021-07-06 17:21:33.976562500,-17.0,13.25,60.0,91.20421875000001,29.91,2.7518521875,33.23
2021-07-06 17:21:33.984375000,-17.0,13.5,60.0,91.20281250000001,30.77,2.751772125,33.23
2021-07-06 17:21:33.992187500,-17.0,13.75,60.0,91.20140625,31.36,2.7516920625,33.23
2021-07-06 17:21:34.000000000,-17.0,14.0,60.0,91.2,31.95,2.751612,33.23
2021-07-06 17:21:34.007812500,-17.0,13.75,60.0,91.1984375,32.105,2.7516520312500004,33.23
2021-07-06 17:21:34.015625000,-17.0,13.5,60.0,91.196875,32.26,2.7516920625,33.23
2021-07-06 17:21:34.023437500,-17.0,13.25,60.0,91.1953125,31.965,2.7517320937500003,33.23
2021-07-06 17:21:34.031250000,-17.0,13.0,60.0,91.19375000000001,31.67,2.751772125,33.23
2021-07-06 17:21:34.039062500,-16.75,13.0,60.0,91.1921875,31.03,2.75181215625,33.23
2021-07-06 17:21:34.046875000,-16.5,13.0,60.0,91.190625,30.39,2.7518521875,33.23
2021-07-06 17:21:34.054687500,-16.25,13.0,60.0,91.1890625,29.55,2.75189221875,33.23
2021-07-06 17:21:34.062500000,-16.0,13.0,60.0,91.1875,28.71,2.7519322500000003,33.23
2021-07-06 17:21:34.070312500,-16.25,13.0,60.0,91.18593750000001,27.765,2.75197228125,33.23
2021-07-06 17:21:34.078125000,-16.5,13.0,60.0,91.184375,26.82,2.7520123125000002,33.23
2021-07-06 17:21:34.085937500,-16.75,13.0,60.0,91.1828125,25.765,2.75205234375,33.23
2021-07-06 17:21:34.093750000,-17.0,13.0,60.0,91.18125,24.71,2.752092375,33.23
2021-07-06 17:21:34.101562500,-17.0,13.0,60.0,91.1796875,23.46,2.75213240625,33.23
2021-07-06 17:21:34.109375000,-17.0,13.0,60.0,91.17812500000001,22.21,2.7521724375,33.23
2021-07-06 17:21:34.117187500,-17.0,13.0,60.0,91.1765625,20.630000000000003,2.75221246875,33.23
2021-07-06 17:21:34.125000000,-17.0,13.0,60.0,91.175,19.05,2.7522525,33.23
2021-07-06 17:21:34.132812500,-16.75,13.0,60.0,91.1734375,16.990000000000002,2.75229253125,33.23
2021-07-06 17:21:34.140625000,-16.5,13.0,60.0,91.171875,14.93,2.7523325625,33.23
2021-07-06 17:21:34.148437500,-16.25,13.0,60.0,91.17031250000001,12.344999999999999,2.75237259375,33.23
2021-07-06 17:21:34.156250000,-16.0,13.0,60.0,91.16875,9.76,2.752412625,33.23
2021-07-06 17:21:34.164062500,-16.0,13.0,60.0,91.1671875,6.6899999999999995,2.75245265625,33.23
2021-07-06 17:21:34.171875000,-16.0,13.0,60.0,91.165625,3.62,2.7524926874999998,33.23
2021-07-06 17:21:34.179687500,-16.0,13.0,60.0,91.1640625,0.2250000000000001,2.75253271875,33.23
2021-07-06 17:21:34.187500000,-16.0,13.0,60.0,91.16250000000001,-3.17,2.7525727499999997,33.23
2021-07-06 17:21:34.195312500,-16.0,13.0,60.0,91.1609375,-6.65,2.75261278125,33.23
2021-07-06 17:21:34.203125000,-16.0,13.0,60.0,91.159375,-10.13,2.7526528125,33.23
2021-07-06 17:21:34.210937500,-16.0,13.0,60.0,91.1578125,-13.455000000000002,2.75269284375,33.23
2021-07-06 17:21:34.218750000,-16.0,13.0,60.0,91.15625,-16.78,2.752732875,33.23
2021-07-06 17:21:34.226562500,-16.25,13.0,59.75,91.15468750000001,-19.75,2.7527729062499997,33.23
2021-07-06 17:21:34.234375000,-16.5,13.0,59.5,91.153125,-22.72,2.7528129375,33.23
2021-07-06 17:21:34.242187500,-16.75,13.0,59.25,91.1515625,-25.244999999999997,2.7528529687499996,33.23
2021-07-06 17:21:34.250000000,-17.0,13.0,59.0,91.15,-27.77,2.752893,33.23
2021-07-06 17:21:34.257812500,-17.0,13.0,59.25,91.1484375,-29.875,2.75269284375,33.23
2021-07-06 17:21:34.265625000,-17.0,13.0,59.5,91.14687500000001,-31.98,2.7524926874999998,33.23
2021-07-06 17:21:34.273437500,-17.0,13.0,59.75,91.1453125,-33.82,2.7522925312499997,33.23
2021-07-06 17:21:34.281250000,-17.0,13.0,60.0,91.14375,-35.66,2.7520923749999997,33.23
2021-07-06 17:21:34.289062500,-16.75,13.0,60.0,91.1421875,-37.47,2.7518922187499997,33.23
2021-07-06 17:21:34.296875000,-16.5,13.0,60.0,91.140625,-39.28,2.7516920624999996,33.23
2021-07-06 17:21:34.304687500,-16.25,13.0,60.0,91.13906250000001,-41.36,2.7514919062499996,33.23
2021-07-06 17:21:34.312500000,-16.0,13.0,60.0,91.1375,-43.44,2.75129175,33.23
2021-07-06 17:21:34.320312500,-16.25,13.0,60.0,91.1359375,-46.08,2.75109159375,33.23
2021-07-06 17:21:34.328125000,-16.5,13.0,60.0,91.134375,-48.72,2.7508914375,33.23
2021-07-06 17:21:34.335937500,-16.75,13.0,60.0,91.1328125,-52.06,2.75069128125,33.23
2021-07-06 17:21:34.343750000,-17.0,13.0,60.0,91.13125000000001,-55.4,2.750491125,33.23
2021-07-06 17:21:34.351562500,-17.0,13.0,60.0,91.1296875,-59.269999999999996,2.75029096875,33.23
2021-07-06 17:21:34.359375000,-17.0,13.0,60.0,91.128125,-63.14,2.7500908125,33.23
2021-07-06 17:21:34.367187500,-17.0,13.0,60.0,91.1265625,-66.95,2.74989065625,33.23
2021-07-06 17:21:34.375000000,-17.0,13.0,60.0,91.125,-70.76,2.7496905,33.23
2021-07-06 17:21:34.382812500,-17.0,13.0,60.0,91.12343750000001,-73.525,2.74949034375,33.23
2021-07-06 17:21:34.390625000,-17.0,13.0,60.0,91.121875,-76.29,2.7492901874999998,33.23
2021-07-06 17:21:34.398437500,-17.0,13.0,60.0,91.1203125,-76.89,2.7490900312499997,33.23
2021-07-06 17:21:34.406250000,-17.0,13.0,60.0,91.11875,-77.49,2.7488898749999997,33.23
2021-07-06 17:21:34.414062500,-17.0,13.0,60.0,91.1171875,-75.055,2.7486897187499997,33.23
2021-07-06 17:21:34.421875000,-17.0,13.0,60.0,91.11562500000001,-72.62,2.7484895624999996,33.23
2021-07-06 17:21:34.429687500,-17.0,13.0,60.0,91.1140625,-66.89500000000001,2.7482894062499996,33.23
2021-07-06 17:21:34.437500000,-17.0,13.0,60.0,91.1125,-61.17,2.7480892499999996,33.23
2021-07-06 17:21:34.445312500,-17.0,13.0,60.0,91.1109375,-52.68,2.74788909375,33.23
2021-07-06 17:21:34.453125000,-17.0,13.0,60.0,91.109375,-44.19,2.7476889375,33.23
2021-07-06 17:21:34.460937500,-17.0,13.0,60.0,91.10781250000001,-34.11,2.74748878125,33.23
2021-07-06 17:21:34.468750000,-17.0,13.0,60.0,91.10625,-24.03,2.747288625,33.23
2021-07-06 17:21:34.476562500,-17.0,13.0,60.0,91.1046875,-13.790000000000001,2.74708846875,33.23
2021-07-06 17:21:34.484375000,-17.0,13.0,60.0,91.103125,-3.55,2.7468883125,33.23
2021-07-06 17:21:34.492187500,-17.0,13.0,60.0,91.1015625,5.590000000000001,2.74668815625,33.23
2021-07-06 17:21:34.500000000,-17.0,13.0,60.0,91.1,14.73,2.746488,33.23
2021-07-06 17:21:34.507812500,-17.0,13.0,60.0,91.0984375,21.975,2.7465680624999997,33.23
2021-07-06 17:21:34.515625000,-17.0,13.0,60.0,91.096875,29.22,2.7466481249999997,33.23
2021-07-06 17:21:34.523437500,-17.0,13.0,60.0,91.0953125,34.305,2.7467281875,33.23
2021-07-06 17:21:34.531250000,-17.0,13.0,60.0,91.09375,39.39,2.74680825,33.23
2021-07-06 17:21:34.539062500,-17.0,13.0,60.0,91.0921875,42.43,2.7468883125,33.23
2021-07-06 17:21:34.546875000,-17.0,13.0,60.0,91.090625,45.47,2.746968375,33.23
2021-07-06 17:21:34.554687500,-17.0,13.0,60.0,91.0890625,46.724999999999994,2.7470484374999997,33.23
2021-07-06 17:21:34.562500000,-17.0,13.0,60.0,91.0875,47.98,2.7471284999999996,33.23
2021-07-06 17:21:34.570312500,-16.75,13.0,60.0,91.0859375,47.724999999999994,2.7472085625,33.23
2021-07-06 17:21:34.578125000,-16.5,13.0,60.0,91.084375,47.47,2.747288625,33.23
2021-07-06 17:21:34.585937500,-16.25,13.0,60.0,91.0828125,45.989999999999995,2.7473686875,33.23
2021-07-06 17:21:34.593750000,-16.0,13.0,60.0,91.08125,44.51,2.7474487499999998,33.23
2021-07-06 17:21:34.601562500,-16.25,13.0,60.0,91.0796875,42.15,2.7475288124999997,33.23
2021-07-06 17:21:34.609375000,-16.5,13.0,60.0,91.078125,39.79,2.747608875,33.23
2021-07-06 17:21:34.617187500,-16.75,13.0,60.0,91.0765625,36.995000000000005,2.7476889375,33.23
2021-07-06 17:21:34.625000000,-17.0,13.0,60.0,91.075,34.2,2.747769,33.23
2021-07-06 17:21:34.632812500,-17.0,13.0,60.0,91.0734375,31.485,2.7478490625,33.23
2021-07-06 17:21:34.640625000,-17.0,13.0,60.0,91.071875,28.77,2.7479291249999998,33.23
2021-07-06 17:21:34.648437500,-17.0,13.0,60.0,91.0703125,26.575,2.7480091875,33.23
2021-07-06 17:21:34.656250000,-17.0,13.0,60.0,91.06875,24.38,2.74808925,33.23
2021-07-06 17:21:34.664062500,-16.75,13.0,60.0,91.0671875,22.939999999999998,2.7481693125,33.23
2021-07-06 17:21:34.671875000,-16.5,13.0,60.0,91.065625,21.5,2.748249375,33.23
2021-07-06 17:21:34.679687500,-16.25,13.0,60.0,91.0640625,20.79,2.7483294375,33.23
2021-07-06 17:21:34.687500000,-16.0,13.0,60.0,91.0625,20.08,2.7484095,33.23
2021-07-06 17:21:34.695312500,-16.0,13.0,60.0,91.0609375,19.875,2.7484895625,33.23
2021-07-06 17:21:34.703125000,-16.0,13.0,60.0,91.059375,19.67,2.748569625,33.23
2021-07-06 17:21:34.710937500,-16.0,13.0,60.0,91.0578125,19.695,2.7486496875,33.23
2021-07-06 17:21:34.718750000,-16.0,13.0,60.0,91.05625,19.72,2.74872975,33.23
2021-07-06 17:21:34.726562500,-16.0,13.0,60.0,91.0546875,19.77,2.7488098125,33.23
2021-07-06 17:21:34.734375000,-16.0,13.0,60.0,91.053125,19.82,2.748889875,33.23
2021-07-06 17:21:34.742187500,-16.0,13.0,60.0,91.0515625,19.855,2.7489699375,33.23
2021-07-06 17:21:34.750000000,-16.0,13.0,60.0,91.05,19.89,2.74905,33.23
2021-07-06 17:21:34.757812500,-16.0,13.0,60.0,91.0484375,19.97,2.74888984375,33.23
2021-07-06 17:21:34.765625000,-16.0,13.0,60.0,91.046875,20.05,2.7487296875,33.23
2021-07-06 17:21:34.773437500,-16.0,13.0,60.0,91.0453125,20.255000000000003,2.74856953125,33.23
2021-07-06 17:21:34.781250000,-16.0,13.0,60.0,91.04375,20.46,2.748409375,33.23
2021-07-06 17:21:34.789062500,-16.0,13.0,60.0,91.0421875,20.755000000000003,2.74824921875,33.23
2021-07-06 17:21:34.796875000,-16.0,13.0,60.0,91.040625,21.05,2.7480890625,33.23
2021-07-06 17:21:34.804687500,-16.0,13.0,60.0,91.0390625,21.245,2.74792890625,33.23
2021-07-06 17:21:34.812500000,-16.0,13.0,60.0,91.0375,21.44,2.74776875,33.23
2021-07-06 17:21:34.820312500,-16.25,13.0,60.0,91.0359375,21.235,2.74760859375,33.23
2021-07-06 17:21:34.828125000,-16.5,13.0,60.0,91.034375,21.03,2.7474484375,33.23
2021-07-06 17:21:34.835937500,-16.75,13.0,60.0,91.0328125,20.105,2.74728828125,33.23
2021-07-06 17:21:34.843750000,-17.0,13.0,60.0,91.03125,19.18,2.747128125,33.23
2021-07-06 17:21:34.851562500,-16.75,13.0,60.0,91.0296875,17.325,2.74696796875,33.23
2021-07-06 17:21:34.859375000,-16.5,13.0,60.0,91.028125,15.47,2.7468078125,33.23
2021-07-06 17:21:34.867187500,-16.25,13.0,60.0,91.0265625,12.705,2.74664765625,33.23
2021-07-06 17:21:34.875000000,-16.0,13.0,60.0,91.025,9.94,2.7464874999999997,33.23
2021-07-06 17:21:34.882812500,-16.0,13.0,60.0,91.0234375,6.484999999999999,2.74632734375,33.23
2021-07-06 17:21:34.890625000,-16.0,13.0,60.0,91.021875,3.03,2.7461671874999998,33.23
2021-07-06 17:21:34.898437500,-16.0,13.0,60.0,91.0203125,-0.7449999999999997,2.74600703125,33.23
2021-07-06 17:21:34.906250000,-16.0,13.0,60.0,91.01875,-4.52,2.745846875,33.23
2021-07-06 17:21:34.914062500,-16.25,13.0,60.0,91.0171875,-8.219999999999999,2.74568671875,33.23
2021-07-06 17:21:34.921875000,-16.5,13.0,60.0,91.015625,-11.92,2.7455265625,33.23
2021-07-06 17:21:34.929687500,-16.75,13.0,60.0,91.0140625,-15.245000000000001,2.74536640625,33.23
2021-07-06 17:21:34.937500000,-17.0,13.0,60.0,91.0125,-18.57,2.74520625,33.23
2021-07-06 17:21:34.945312500,-16.75,13.0,60.0,91.0109375,-21.375,2.74504609375,33.23
2021-07-06 17:21:34.953125000,-16.5,13.0,60.0,91.009375,-24.18,2.7448859375,33.23
2021-07-06 17:21:34.960937500,-16.25,13.0,60.0,91.0078125,-26.515,2.74472578125,33.23
2021-07-06 17:21:34.968750000,-16.0,13.0,60.0,91.00625,-28.85,2.744565625,33.23
2021-07-06 17:21:34.976562500,-16.0,13.0,60.0,91.0046875,-30.925,2.74440546875,33.23
2021-07-06 17:21:34.984375000,-16.0,13.0,60.0,91.003125,-33.0,2.7442453125,33.23
2021-07-06 17:21:34.992187500,-16.0,13.0,60.0,91.0015625,-35.135000000000005,2.74408515625,33.23
2021-07-06 17:21:35.000000000,-16.0,13.0,60.0,91.0,-37.27,2.743925,33.23
2021-07-06 17:21:35.007812500,-16.25,13.0,60.0,90.998203125,-39.80500000000001,2.7439650625,33.23
2021-07-06 17:21:35.015625000,-16.5,13.0,60.0,90.99640625,-42.34,2.744005125,33.23
2021-07-06 17:21:35.023437500,-16.75,13.0,60.0,90.994609375,-45.52,2.7440451875,33.23
2021-07-06 17:21:35.031250000,-17.0,13.0,60.0,90.9928125,-48.7,2.74408525,33.23
2021-07-06 17:21:35.039062500,-16.75,13.0,60.0,90.991015625,-52.5,2.7441253125,33.23
2021-07-06 17:21:35.046875000,-16.5,13.0,60.0,90.98921875,-56.3,2.744165375,33.23
2021-07-06 17:21:35.054687500,-16.25,13.0,60.0,90.987421875,-60.269999999999996,2.7442054375,33.23
2021-07-06 17:21:35.062500000,-16.0,13.0,60.0,90.985625,-64.24,2.7442455,33.23
2021-07-06 17:21:35.070312500,-16.0,13.0,60.0,90.983828125,-67.515,2.7442855625,33.23
2021-07-06 17:21:35.078125000,-16.0,13.0,60.0,90.98203125,-70.79,2.744325625,33.23
2021-07-06 17:21:35.085937500,-16.0,13.0,60.0,90.980234375,-72.245,2.7443656875,33.23
2021-07-06 17:21:35.093750000,-16.0,13.0,60.0,90.9784375,-73.7,2.74440575,33.23
2021-07-06 17:21:35.101562500,-16.0,13.0,60.0,90.976640625,-72.33500000000001,2.7444458125,33.23
2021-07-06 17:21:35.109375000,-16.0,13.0,60.0,90.97484375,-70.97,2.744485875,33.23
2021-07-06 17:21:35.117187500,-16.0,13.0,60.0,90.973046875,-66.35,2.7445259375,33.23
2021-07-06 17:21:35.125000000,-16.0,13.0,60.0,90.97125,-61.73,2.744566,33.23
2021-07-06 17:21:35.132812500,-16.0,13.0,60.0,90.969453125,-54.17,2.7446060625,33.23
2021-07-06 17:21:35.140625000,-16.0,13.0,60.0,90.96765625,-46.61,2.744646125,33.23
2021-07-06 17:21:35.148437500,-16.0,13.0,60.0,90.965859375,-37.195,2.7446861875,33.23
2021-07-06 17:21:35.156250000,-16.0,13.0,60.0,90.9640625,-27.78,2.7447262500000003,33.23
2021-07-06 17:21:35.164062500,-16.0,13.0,60.0,90.962265625,-17.985,2.7447663125,33.23
2021-07-06 17:21:35.171875000,-16.0,13.0,60.0,90.96046875,-8.19,2.744806375,33.23
2021-07-06 17:21:35.179687500,-16.0,13.0,60.0,90.958671875,0.5750000000000011,2.7448464375,33.23
2021-07-06 17:21:35.187500000,-16.0,13.0,60.0,90.956875,9.34,2.7448865000000002,33.23
2021-07-06 17:21:35.195312500,-16.0,13.0,60.0,90.955078125,16.155,2.7449265625000003,33.23
2021-07-06 17:21:35.203125000,-16.0,13.0,60.0,90.95328125,22.97,2.744966625,33.23
2021-07-06 17:21:35.210937500,-16.0,13.0,60.0,90.95148437499999,27.509999999999998,2.7450066875,33.23
2021-07-06 17:21:35.218750000,-16.0,13.0,60.0,90.9496875,32.05,2.74504675,33.23
2021-07-06 17:21:35.226562500,-16.0,13.0,60.0,90.947890625,34.51,2.7450868125000003,33.23
2021-07-06 17:21:35.234375000,-16.0,13.0,60.0,90.94609375,36.97,2.745126875,33.23
2021-07-06 17:21:35.242187500,-16.0,13.0,60.0,90.94429687499999,37.795,2.7451669375,33.23
2021-07-06 17:21:35.250000000,-16.0,13.0,60.0,90.9425,38.62,2.745207,33.23
2021-07-06 17:21:35.257812500,-16.0,13.0,60.0,90.940703125,38.269999999999996,2.7451669375,33.23
2021-07-06 17:21:35.265625000,-16.0,13.0,60.0,90.93890625,37.92,2.745126875,33.23
2021-07-06 17:21:35.273437500,-16.0,13.0,60.0,90.937109375,36.78,2.7450868125000003,33.23
2021-07-06 17:21:35.281250000,-16.0,13.0,60.0,90.9353125,35.64,2.74504675,33.23
2021-07-06 17:21:35.289062500,-16.0,13.0,60.0,90.933515625,34.019999999999996,2.7450066875,33.23
2021-07-06 17:21:35.296875000,-16.0,13.0,60.0,90.93171875,32.4,2.744966625,33.23
2021-07-06 17:21:35.304687500,-16.0,13.0,60.0,90.929921875,30.58,2.7449265625000003,33.23
2021-07-06 17:21:35.312500000,-16.0,13.0,60.0,90.928125,28.76,2.7448865000000002,33.23
2021-07-06 17:21:35.320312500,-16.0,13.0,60.0,90.926328125,27.03,2.7448464375,33.23
2021-07-06 17:21:35.328125000,-16.0,13.0,60.0,90.92453125,25.3,2.744806375,33.23
2021-07-06 17:21:35.335937500,-16.0,13.0,60.0,90.922734375,23.89,2.7447663125,33.23
2021-07-06 17:21:35.343750000,-16.0,13.0,60.0,90.9209375,22.48,2.7447262500000003,33.23
2021-07-06 17:21:35.351562500,-16.0,13.0,60.0,90.919140625,21.509999999999998,2.7446861875,33.23
2021-07-06 17:21:35.359375000,-16.0,13.0,60.0,90.91734375,20.54,2.744646125,33.23
2021-07-06 17:21:35.367187500,-16.0,13.0,60.0,90.915546875,20.005,2.7446060625,33.23
2021-07-06 17:21:35.375000000,-16.0,13.0,60.0,90.91375,19.47,2.744566,33.23
2021-07-06 17:21:35.382812500,-16.0,13.0,60.0,90.911953125,19.255,2.7445259375,33.23
2021-07-06 17:21:35.390625000,-16.0,13.0,60.0,90.91015625,19.04,2.744485875,33.23
2021-07-06 17:21:35.398437500,-16.0,13.0,60.0,90.908359375,18.98,2.7444458125,33.23
2021-07-06 17:21:35.406250000,-16.0,13.0,60.0,90.90656249999999,18.92,2.74440575,33.23
2021-07-06 17:21:35.414062500,-16.0,13.0,60.0,90.904765625,18.905,2.7443656875,33.23
2021-07-06 17:21:35.421875000,-16.0,13.0,60.0,90.90296875,18.89,2.744325625,33.23
2021-07-06 17:21:35.429687500,-16.0,13.0,60.0,90.901171875,18.875,2.7442855625,33.23
2021-07-06 17:21:35.437500000,-16.0,13.0,60.0,90.89937499999999,18.86,2.7442455,33.23
2021-07-06 17:21:35.445312500,-16.0,13.0,60.0,90.897578125,18.86,2.7442054375,33.23
2021-07-06 17:21:35.453125000,-16.0,13.0,60.0,90.89578125,18.86,2.744165375,33.23
2021-07-06 17:21:35.460937500,-16.0,13.0,60.0,90.893984375,18.884999999999998,2.7441253125,33.23
2021-07-06 17:21:35.468750000,-16.0,13.0,60.0,90.89218749999999,18.91,2.74408525,33.23
2021-07-06 17:21:35.476562500,-16.0,13.0,60.0,90.890390625,18.89,2.7440451875,33.23
2021-07-06 17:21:35.484375000,-16.0,13.0,60.0,90.88859375,18.87,2.744005125,33.23
2021-07-06 17:21:35.492187500,-16.0,13.0,60.0,90.886796875,18.655,2.7439650625,33.23
2021-07-06 17:21:35.500000000,-16.0,13.0,60.0,90.88499999999999,18.44,2.743925,33.23
2021-07-06 17:21:35.507812500,-16.0,13.0,60.0,90.883203125,17.785,2.743925,33.23
2021-07-06 17:21:35.515625000,-16.0,13.0,60.0,90.88140625,17.13,2.743925,33.23
2021-07-06 17:21:35.523437500,-16.0,13.0,60.0,90.879609375,15.829999999999998,2.743925,33.23
2021-07-06 17:21:35.531250000,-16.0,13.0,60.0,90.8778125,14.53,2.743925,33.23
2021-07-06 17:21:35.539062500,-16.0,13.0,60.0,90.876015625,12.48,2.743925,33.23
2021-07-06 17:21:35.546875000,-16.0,13.0,60.0,90.87421875,10.43,2.743925,33.23
2021-07-06 17:21:35.554687500,-16.0,13.0,60.0,90.872421875,7.705,2.743925,33.23
2021-07-06 17:21:35.562500000,-16.0,13.0,60.0,90.870625,4.98,2.743925,33.23
2021-07-06 17:21:35.570312500,-16.0,13.0,60.0,90.868828125,1.83,2.743925,33.23
2021-07-06 17:21:35.578125000,-16.0,13.0,60.0,90.86703125,-1.32,2.743925,33.23
2021-07-06 17:21:35.585937500,-16.0,13.0,60.0,90.865234375,-4.535,2.743925,33.23
2021-07-06 17:21:35.593750000,-16.0,13.0,60.0,90.8634375,-7.75,2.743925,33.23
2021-07-06 17:21:35.601562500,-16.0,13.0,60.0,90.86164062499999,-10.695,2.743925,33.23
2021-07-06 17:21:35.609375000,-16.0,13.0,60.0,90.85984375,-13.64,2.743925,33.23
2021-07-06 17:21:35.617187500,-16.0,13.0,60.0,90.858046875,-16.12,2.743925,33.23
2021-07-06 17:21:35.625000000,-16.0,13.0,60.0,90.85625,-18.6,2.743925,33.23
2021-07-06 17:21:35.632812500,-16.0,13.0,60.0,90.85445312499999,-20.64,2.743925,33.23
2021-07-06 17:21:35.640625000,-16.0,13.0,60.0,90.85265625,-22.68,2.743925,33.23
2021-07-06 17:21:35.648437500,-16.0,13.0,60.0,90.850859375,-24.54,2.743925,33.23
2021-07-06 17:21:35.656250000,-16.0,13.0,60.0,90.8490625,-26.4,2.743925,33.23
2021-07-06 17:21:35.664062500,-16.0,13.0,60.0,90.84726562499999,-28.494999999999997,2.743925,33.23
2021-07-06 17:21:35.671875000,-16.0,13.0,60.0,90.84546875,-30.59,2.743925,33.23
2021-07-06 17:21:35.679687500,-16.0,13.0,60.0,90.843671875,-33.385,2.743925,33.23
2021-07-06 17:21:35.687500000,-16.0,13.0,60.0,90.841875,-36.18,2.743925,33.23
2021-07-06 17:21:35.695312500,-16.0,13.0,60.0,90.84007812499999,-39.894999999999996,2.743925,33.23
2021-07-06 17:21:35.703125000,-16.0,13.0,60.0,90.83828125,-43.61,2.743925,33.23
2021-07-06 17:21:35.710937500,-16.0,13.0,60.0,90.836484375,-48.095,2.743925,33.23
2021-07-06 17:21:35.718750000,-16.0,13.0,60.0,90.8346875,-52.58,2.743925,33.23
2021-07-06 17:21:35.726562500,-16.0,13.0,60.0,90.83289062499999,-57.135,2.743925,33.23
2021-07-06 17:21:35.734375000,-16.0,13.0,60.0,90.83109375,-61.69,2.743925,33.23
2021-07-06 17:21:35.742187500,-16.0,13.0,60.0,90.829296875,-65.18,2.743925,33.23
2021-07-06 17:21:35.750000000,-16.0,13.0,60.0,90.8275,-68.67,2.743925,33.23
2021-07-06 17:21:35.757812500,-15.75,13.0,60.0,90.825703125,-69.855,2.74364478125,33.23
2021-07-06 17:21:35.765625000,-15.5,13.0,60.0,90.82390625,-71.04,2.7433645625,33.23
2021-07-06 17:21:35.773437500,-15.25,13.0,60.0,90.822109375,-69.005,2.74308434375,33.23
2021-07-06 17:21:35.781250000,-15.0,13.0,60.0,90.8203125,-66.97,2.742804125,33.23
2021-07-06 17:21:35.789062500,-15.25,13.0,60.0,90.818515625,-61.489999999999995,2.7425239062499998,33.23
2021-07-06 17:21:35.796875000,-15.5,13.0,60.0,90.81671874999999,-56.01,2.7422436875,33.23
2021-07-06 17:21:35.804687500,-15.75,13.0,60.0,90.814921875,-47.715,2.74196346875,33.23
2021-07-06 17:21:35.812500000,-16.0,13.0,60.0,90.813125,-39.42,2.74168325,33.23
2021-07-06 17:21:35.820312500,-16.0,13.0,60.0,90.811328125,-29.595,2.74140303125,33.23
2021-07-06 17:21:35.828125000,-16.0,13.0,60.0,90.80953124999999,-19.77,2.7411228125,33.23
2021-07-06 17:21:35.835937500,-16.0,13.0,60.0,90.807734375,-9.915,2.74084259375,33.23
2021-07-06 17:21:35.843750000,-16.0,13.0,60.0,90.8059375,-0.06,2.7405623749999997,33.23
2021-07-06 17:21:35.851562500,-16.0,13.0,60.0,90.804140625,8.499999999999998,2.7402821562499997,33.23
2021-07-06 17:21:35.859375000,-16.0,13.0,60.0,90.80234374999999,17.06,2.7400019374999998,33.23
2021-07-06 17:21:35.867187500,-16.0,13.0,60.0,90.800546875,23.564999999999998,2.73972171875,33.23
2021-07-06 17:21:35.875000000,-16.0,13.0,60.0,90.79875,30.07,2.7394415,33.23
2021-07-06 17:21:35.882812500,-16.0,13.0,60.0,90.796953125,34.3,2.73916128125,33.23
2021-07-06 17:21:35.890625000,-16.0,13.0,60.0,90.79515624999999,38.53,2.7388810625,33.23
2021-07-06 17:21:35.898437500,-16.0,13.0,60.0,90.793359375,40.725,2.73860084375,33.23
2021-07-06 17:21:35.906250000,-16.0,13.0,60.0,90.7915625,42.92,2.738320625,33.23
2021-07-06 17:21:35.914062500,-16.0,13.0,60.0,90.789765625,43.519999999999996,2.7380404062499997,33.23
2021-07-06 17:21:35.921875000,-16.0,13.0,60.0,90.78796874999999,44.12,2.7377601874999997,33.23
2021-07-06 17:21:35.929687500,-16.0,13.0,60.0,90.786171875,43.575,2.7374799687499998,33.23
2021-07-06 17:21:35.937500000,-16.0,13.0,60.0,90.784375,43.03,2.73719975,33.23
2021-07-06 17:21:35.945312500,-16.0,13.0,60.0,90.782578125,41.760000000000005,2.73691953125,33.23
2021-07-06 17:21:35.953125000,-16.0,13.0,60.0,90.78078124999999,40.49,2.7366393125,33.23
2021-07-06 17:21:35.960937500,-16.0,13.0,60.0,90.778984375,38.82,2.73635909375,33.23
2021-07-06 17:21:35.968750000,-16.0,13.0,60.0,90.7771875,37.15,2.7360788749999996,33.23
2021-07-06 17:21:35.976562500,-16.0,13.0,60.0,90.775390625,35.36,2.7357986562499996,33.23
2021-07-06 17:21:35.984375000,-16.0,13.0,60.0,90.77359374999999,33.57,2.7355184374999997,33.23
2021-07-06 17:21:35.992187500,-16.0,13.0,60.0,90.77179687499999,31.880000000000003,2.7352382187499997,33.23
2021-07-06 17:21:36.000000000,-16.0,13.0,60.0,90.77,30.19,2.734958,33.23
2021-07-06 17:21:36.007812500,-16.0,13.0,60.0,90.76828125,28.735,2.7351181249999996,33.23
2021-07-06 17:21:36.015625000,-16.0,13.0,60.0,90.76656249999999,27.28,2.73527825,33.23
2021-07-06 17:21:36.023437500,-16.0,13.0,60.0,90.76484375,26.125,2.7354383749999998,33.23
2021-07-06 17:21:36.031250000,-16.0,13.0,60.0,90.763125,24.97,2.7355985,33.23
2021-07-06 17:21:36.039062500,-16.0,13.0,60.0,90.76140625,24.095,2.735758625,33.23
2021-07-06 17:21:36.046875000,-16.0,13.0,60.0,90.7596875,23.22,2.7359187499999997,33.23
2021-07-06 17:21:36.054687500,-16.0,13.0,60.0,90.75796874999999,22.59,2.736078875,33.23
2021-07-06 17:21:36.062500000,-16.0,13.0,60.0,90.75625,21.96,2.736239,33.23
2021-07-06 17:21:36.070312500,-16.0,13.0,60.0,90.75453125,21.55,2.7363991249999997,33.23
2021-07-06 17:21:36.078125000,-16.0,13.0,60.0,90.75281249999999,21.14,2.73655925,33.23
2021-07-06 17:21:36.085937500,-16.0,13.0,60.0,90.75109375,20.939999999999998,2.736719375,33.23
2021-07-06 17:21:36.093750000,-16.0,13.0,60.0,90.749375,20.74,2.7368794999999997,33.23
2021-07-06 17:21:36.101562500,-16.0,13.0,60.0,90.74765624999999,20.74,2.737039625,33.23
2021-07-06 17:21:36.109375000,-16.0,13.0,60.0,90.7459375,20.74,2.73719975,33.23
2021-07-06 17:21:36.117187500,-16.0,13.0,60.0,90.74421875,20.89,2.737359875,33.23
2021-07-06 17:21:36.125000000,-16.0,13.0,60.0,90.74249999999999,21.04,2.73752,33.23
2021-07-06 17:21:36.132812500,-16.0,13.0,60.0,90.74078125,21.205,2.737680125,33.23
2021-07-06 17:21:36.140625000,-16.0,13.0,60.0,90.7390625,21.37,2.73784025,33.23
2021-07-06 17:21:36.148437500,-16.0,13.0,60.0,90.73734375,21.32,2.738000375,33.23
2021-07-06 17:21:36.156250000,-16.0,13.0,60.0,90.735625,21.27,2.7381605,33.23
2021-07-06 17:21:36.164062500,-16.0,13.0,60.0,90.73390624999999,20.72,2.738320625,33.23
2021-07-06 17:21:36.171875000,-16.0,13.0,60.0,90.7321875,20.17,2.73848075,33.23
2021-07-06 17:21:36.179687500,-16.0,13.0,60.0,90.73046875,18.91,2.738640875,33.23
2021-07-06 17:21:36.187500000,-16.0,13.0,60.0,90.72874999999999,17.65,2.738801,33.23
2021-07-06 17:21:36.195312500,-16.0,13.0,60.0,90.72703125,15.64,2.738961125,33.23
2021-07-06 17:21:36.203125000,-16.0,13.0,60.0,90.7253125,13.63,2.73912125,33.23
2021-07-06 17:21:36.210937500,-16.0,13.0,60.0,90.72359374999999,11.030000000000001,2.739281375,33.23
2021-07-06 17:21:36.218750000,-16.0,13.0,60.0,90.721875,8.43,2.7394415,33.23
2021-07-06 17:21:36.226562500,-15.75,13.0,60.0,90.72015625,5.57,2.739601625,33.23
2021-07-06 17:21:36.234375000,-15.5,13.0,60.0,90.7184375,2.71,2.73976175,33.23
2021-07-06 17:21:36.242187500,-15.25,13.0,60.0,90.71671875,-0.07000000000000028,2.7399218750000003,33.23
2021-07-06 17:21:36.250000000,-15.0,13.0,60.0,90.715,-2.85,2.740082,33.23
2021-07-06 17:21:36.257812500,-15.0,13.0,60.0,90.71328125,-5.3149999999999995,2.73984178125,33.23
2021-07-06 17:21:36.265625000,-15.0,13.0,60.0,90.7115625,-7.78,2.7396015625000003,33.23
2021-07-06 17:21:36.273437500,-15.0,13.0,60.0,90.70984374999999,-9.92,2.73936134375,33.23
2021-07-06 17:21:36.281250000,-15.0,13.0,60.0,90.708125,-12.06,2.739121125,33.23
2021-07-06 17:21:36.289062500,-15.25,13.0,60.0,90.70640625,-14.045000000000002,2.73888090625,33.23
2021-07-06 17:21:36.296875000,-15.5,13.0,60.0,90.70468749999999,-16.03,2.7386406875000002,33.23
2021-07-06 17:21:36.304687500,-15.75,13.0,60.0,90.70296875,-18.134999999999998,2.73840046875,33.23
2021-07-06 17:21:36.312500000,-16.0,13.0,60.0,90.70125,-20.24,2.73816025,33.23
2021-07-06 17:21:36.320312500,-16.0,13.0,60.0,90.69953124999999,-22.744999999999997,2.7379200312500003,33.23
2021-07-06 17:21:36.328125000,-16.0,13.0,60.0,90.6978125,-25.25,2.7376798125,33.23
2021-07-06 17:21:36.335937500,-16.0,13.0,60.0,90.69609375,-28.365000000000002,2.73743959375,33.23
2021-07-06 17:21:36.343750000,-16.0,13.0,60.0,90.694375,-31.48,2.737199375,33.23
2021-07-06 17:21:36.351562500,-16.0,13.0,60.0,90.69265625,-35.24,2.73695915625,33.23
2021-07-06 17:21:36.359375000,-16.0,13.0,60.0,90.69093749999999,-39.0,2.7367189375,33.23
2021-07-06 17:21:36.367187500,-16.0,13.0,60.0,90.68921875,-43.175,2.73647871875,33.23
2021-07-06 17:21:36.375000000,-16.0,13.0,60.0,90.6875,-47.35,2.7362385,33.23
2021-07-06 17:21:36.382812500,-15.75,13.0,60.0,90.68578124999999,-51.365,2.73599828125,33.23
2021-07-06 17:21:36.390625000,-15.5,13.0,60.0,90.6840625,-55.38,2.7357580625,33.23
2021-07-06 17:21:36.398437500,-15.25,13.0,60.0,90.68234375,-58.31,2.73551784375,33.23
2021-07-06 17:21:36.406250000,-15.0,13.0,60.0,90.68062499999999,-61.24,2.735277625,33.23
2021-07-06 17:21:36.414062500,-15.25,13.0,60.0,90.67890625,-62.040000000000006,2.73503740625,33.23
2021-07-06 17:21:36.421875000,-15.5,13.0,60.0,90.6771875,-62.84,2.7347971875,33.23
2021-07-06 17:21:36.429687500,-15.75,13.0,60.0,90.67546875,-60.625,2.7345569687499998,33.23
2021-07-06 17:21:36.437500000,-16.0,13.0,60.0,90.67375,-58.41,2.73431675,33.23
2021-07-06 17:21:36.445312500,-15.75,13.0,60.0,90.67203125,-52.885,2.73407653125,33.23
2021-07-06 17:21:36.453125000,-15.5,13.0,60.0,90.6703125,-47.36,2.7338363125,33.23
2021-07-06 17:21:36.460937500,-15.25,13.0,60.0,90.66859375,-39.025,2.73359609375,33.23
2021-07-06 17:21:36.468750000,-15.0,13.0,60.0,90.66687499999999,-30.69,2.733355875,33.23
2021-07-06 17:21:36.476562500,-15.0,13.0,60.0,90.66515625,-20.755000000000003,2.73311565625,33.23
2021-07-06 17:21:36.484375000,-15.0,13.0,60.0,90.6634375,-10.82,2.7328754374999997,33.23
2021-07-06 17:21:36.492187500,-15.0,13.0,60.0,90.66171874999999,-0.8300000000000001,2.73263521875,33.23
2021-07-06 17:21:36.500000000,-15.0,13.0,60.0,90.66,9.16,2.732395,33.23
2021-07-06 17:21:36.507812500,-15.25,13.0,60.0,90.65828125,17.795,2.7323149375,33.23
2021-07-06 17:21:36.515625000,-15.5,13.0,60.0,90.65656249999999,26.43,2.732234875,33.23
2021-07-06 17:21:36.523437500,-15.75,13.0,60.0,90.65484375,32.835,2.7321548125,33.23
2021-07-06 17:21:36.531250000,-16.0,13.0,60.0,90.653125,39.24,2.7320747499999998,33.23
2021-07-06 17:21:36.539062500,-15.75,13.0,60.0,90.65140625,43.205,2.7319946875,33.23
2021-07-06 17:21:36.546875000,-15.5,13.0,60.0,90.6496875,47.17,2.731914625,33.23
2021-07-06 17:21:36.554687500,-15.25,13.0,60.0,90.64796874999999,49.019999999999996,2.7318345625,33.23
2021-07-06 17:21:36.562500000,-15.0,13.0,60.0,90.64625,50.87,2.7317545,33.23
2021-07-06 17:21:36.570312500,-15.25,13.0,60.0,90.64453125,51.17,2.7316744375,33.23
2021-07-06 17:21:36.578125000,-15.5,13.0,60.0,90.64281249999999,51.47,2.731594375,33.23
2021-07-06 17:21:36.585937500,-15.75,13.0,60.0,90.64109375,50.795,2.7315143125,33.23
2021-07-06 17:21:36.593750000,-16.0,13.0,60.0,90.639375,50.12,2.73143425,33.23
2021-07-06 17:21:36.601562500,-16.0,13.0,60.0,90.63765624999999,48.879999999999995,2.7313541875,33.23
2021-07-06 17:21:36.609375000,-16.0,13.0,60.0,90.6359375,47.64,2.731274125,33.23
2021-07-06 17:21:36.617187500,-16.0,13.0,60.0,90.63421875,46.1,2.7311940625,33.23
2021-07-06 17:21:36.625000000,-16.0,13.0,60.0,90.6325,44.56,2.731114,33.23
2021-07-06 17:21:36.632812500,-15.75,13.0,60.0,90.63078125,42.89,2.7310339375,33.23
2021-07-06 17:21:36.640625000,-15.5,13.0,60.0,90.6290625,41.22,2.730953875,33.23
2021-07-06 17:21:36.648437500,-15.25,13.0,60.0,90.62734375,39.57,2.7308738125,33.23
2021-07-06 17:21:36.656250000,-15.0,13.0,60.0,90.625625,37.92,2.73079375,33.23
2021-07-06 17:21:36.664062500,-15.0,13.0,60.0,90.62390624999999,36.41,2.7307136875,33.23
2021-07-06 17:21:36.671875000,-15.0,13.0,60.0,90.6221875,34.9,2.7306336250000003,33.23
2021-07-06 17:21:36.679687500,-15.0,13.0,60.0,90.62046875,33.59,2.7305535625,33.23
2021-07-06 17:21:36.687500000,-15.0,13.0,60.0,90.61874999999999,32.28,2.7304735,33.23
2021-07-06 17:21:36.695312500,-15.0,13.0,60.0,90.61703125,31.17,2.7303934375,33.23
2021-07-06 17:21:36.703125000,-15.0,13.0,60.0,90.6153125,30.06,2.730313375,33.23
2021-07-06 17:21:36.710937500,-15.0,13.0,60.0,90.61359374999999,29.075,2.7302333125000002,33.23
2021-07-06 17:21:36.718750000,-15.0,13.0,60.0,90.611875,28.09,2.7301532500000003,33.23
2021-07-06 17:21:36.726562500,-15.25,13.0,60.0,90.61015625,27.125,2.7300731875,33.23
2021-07-06 17:21:36.734375000,-15.5,13.0,60.0,90.6084375,26.16,2.729993125,33.23
2021-07-06 17:21:36.742187500,-15.75,13.0,60.0,90.60671875,25.17,2.7299130625,33.23
2021-07-06 17:21:36.750000000,-16.0,13.0,60.0,90.60499999999999,24.18,2.729833,33.23
2021-07-06 17:21:36.757812500,-15.75,13.0,60.0,90.60328125,23.189999999999998,2.7299130625,33.23
2021-07-06 17:21:36.765625000,-15.5,13.0,60.0,90.6015625,22.2,2.729993125,33.23
2021-07-06 17:21:36.773437500,-15.25,13.0,60.0,90.59984374999999,21.314999999999998,2.7300731875,33.23
2021-07-06 17:21:36.781250000,-15.0,13.0,60.0,90.598125,20.43,2.7301532500000003,33.23
2021-07-06 17:21:36.789062500,-15.25,13.0,60.0,90.59640625,19.740000000000002,2.7302333125000002,33.23
2021-07-06 17:21:36.796875000,-15.5,13.0,60.0,90.59468749999999,19.05,2.730313375,33.23
2021-07-06 17:21:36.804687500,-15.75,13.0,60.0,90.59296875,18.58,2.7303934375,33.23
2021-07-06 17:21:36.812500000,-16.0,13.0,60.0,90.59125,18.11,2.7304735,33.23
2021-07-06 17:21:36.820312500,-15.75,13.0,60.0,90.58953125,17.735,2.7305535625,33.23
2021-07-06 17:21:36.828125000,-15.5,13.0,60.0,90.5878125,17.36,2.7306336250000003,33.23
2021-07-06 17:21:36.835937500,-15.25,13.0,60.0,90.58609375,16.825,2.7307136875,33.23
2021-07-06 17:21:36.843750000,-15.0,13.0,60.0,90.584375,16.29,2.73079375,33.23
2021-07-06 17:21:36.851562500,-15.0,13.0,60.0,90.58265625,15.28,2.7308738125,33.23
2021-07-06 17:21:36.859375000,-15.0,13.0,60.0,90.58093749999999,14.27,2.730953875,33.23
2021-07-06 17:21:36.867187500,-15.0,13.0,60.0,90.57921875,12.53,2.7310339375,33.23
2021-07-06 17:21:36.875000000,-15.0,13.0,60.0,90.5775,10.79,2.731114,33.23
2021-07-06 17:21:36.882812500,-15.25,13.0,60.0,90.57578124999999,8.254999999999999,2.7311940625,33.23
2021-07-06 17:21:36.890625000,-15.5,13.0,60.0,90.5740625,5.72,2.731274125,33.23
2021-07-06 17:21:36.898437500,-15.75,13.0,60.0,90.57234375,2.53,2.7313541875,33.23
2021-07-06 17:21:36.906250000,-16.0,13.0,60.0,90.57062499999999,-0.66,2.73143425,33.23
2021-07-06 17:21:36.914062500,-16.0,13.0,60.0,90.56890625,-4.18,2.7315143125,33.23
2021-07-06 17:21:36.921875000,-16.0,13.0,60.0,90.5671875,-7.7,2.731594375,33.23
2021-07-06 17:21:36.929687500,-16.0,13.0,60.0,90.56546875,-11.145,2.7316744375,33.23
2021-07-06 17:21:36.937500000,-16.0,13.0,60.0,90.56375,-14.59,2.7317545,33.23
2021-07-06 17:21:36.945312500,-15.75,13.0,60.0,90.56203125,-17.64,2.7318345625,33.23
2021-07-06 17:21:36.953125000,-15.5,13.0,60.0,90.5603125,-20.69,2.731914625,33.23
2021-07-06 17:21:36.960937500,-15.25,13.0,60.0,90.55859375,-23.195,2.7319946875,33.23
