TimeStamp,empatica.acc.x,empatica.acc.y,empatica.acc.z,empatica.hr,empatica.bvp,empatica.eda,empatica.temp
2021-06-30 18:40:06.968750000,-64.0,14.0,3.0,90.5734375,10.23,3.518709125,33.09
2021-06-30 18:40:06.976562500,-64.0,14.0,2.75,90.57257812499999,11.905000000000001,3.5186690937500003,33.09
2021-06-30 18:40:06.984375000,-64.0,14.0,2.5,90.57171874999999,13.58,3.5186290625,33.09
2021-06-30 18:40:06.992187500,-64.0,14.0,2.25,90.570859375,14.7,3.5185890312500003,33.09
2021-06-30 18:40:07.000000000,-64.0,14.0,2.0,90.57,15.82,3.518549,33.09
2021-06-30 18:40:07.007812500,-64.0,14.0,2.0,90.56890625,16.425,3.5184689375000002,33.09
2021-06-30 18:40:07.015625000,-64.0,14.0,2.0,90.56781249999999,17.03,3.5183888750000003,33.09
2021-06-30 18:40:07.023437500,-64.0,14.0,2.0,90.56671874999999,17.225,3.5183088125,33.09
2021-06-30 18:40:07.031250000,-64.0,14.0,2.0,90.565625,17.42,3.51822875,33.09
2021-06-30 18:40:07.039062500,-64.0,14.0,2.0,90.56453124999999,17.29,3.5181486875,33.09
2021-06-30 18:40:07.046875000,-64.0,14.0,2.0,90.56343749999999,17.16,3.518068625,33.09
2021-06-30 18:40:07.054687500,-64.0,14.0,2.0,90.56234375,16.8,3.5179885625000002,33.09
2021-06-30 18:40:07.062500000,-64.0,14.0,2.0,90.56125,16.44,3.5179085,33.09
2021-06-30 18:40:07.070312500,-64.0,14.0,2.0,90.56015624999999,15.950000000000001,3.5178284375,33.09
2021-06-30 18:40:07.078125000,-64.0,14.0,2.0,90.5590625,15.46,3.517748375,33.09
2021-06-30 18:40:07.085937500,-64.0,14.0,2.0,90.55796875,14.95,3.5176683125,33.09
2021-06-30 18:40:07.093750000,-64.0,14.0,2.0,90.55687499999999,14.44,3.51758825,33.09
2021-06-30 18:40:07.101562500,-64.0,14.0,2.0,90.55578125,14.015,3.5175081875000003,33.09
2021-06-30 18:40:07.109375000,-64.0,14.0,2.0,90.5546875,13.59,3.517428125,33.09
2021-06-30 18:40:07.117187500,-64.0,14.0,2.0,90.55359374999999,13.34,3.5173480625,33.09
2021-06-30 18:40:07.125000000,-64.0,14.0,2.0,90.5525,13.09,3.517268,33.09
2021-06-30 18:40:07.132812500,-64.0,14.0,2.0,90.55140625,13.035,3.5171879375,33.09
2021-06-30 18:40:07.140625000,-64.0,14.0,2.0,90.55031249999999,12.98,3.517107875,33.09
2021-06-30 18:40:07.148437500,-64.0,14.0,2.0,90.54921875,13.07,3.5170278125,33.09
2021-06-30 18:40:07.156250000,-64.0,14.0,2.0,90.548125,13.16,3.51694775,33.09
2021-06-30 18:40:07.164062500,-64.0,14.0,2.0,90.54703124999999,13.3,3.5168676875,33.09
2021-06-30 18:40:07.171875000,-64.0,14.0,2.0,90.5459375,13.44,3.516787625,33.09
2021-06-30 18:40:07.179687500,-64.0,14.0,2.0,90.54484375,13.53,3.5167075625,33.09
2021-06-30 18:40:07.187500000,-64.0,14.0,2.0,90.54374999999999,13.62,3.5166275000000002,33.09
2021-06-30 18:40:07.195312500,-64.0,14.0,2.25,90.54265625,13.605,3.5165474375,33.09
2021-06-30 18:40:07.203125000,-64.0,14.0,2.5,90.5415625,13.59,3.516467375,33.09
2021-06-30 18:40:07.210937500,-64.0,14.0,2.75,90.54046875,13.495000000000001,3.5163873125,33.09
2021-06-30 18:40:07.218750000,-64.0,14.0,3.0,90.53937499999999,13.4,3.51630725,33.09
2021-06-30 18:40:07.226562500,-64.0,14.0,2.75,90.53828125,13.295,3.5162271875,33.09
2021-06-30 18:40:07.234375000,-64.0,14.0,2.5,90.5371875,13.19,3.516147125,33.09
2021-06-30 18:40:07.242187500,-64.0,14.0,2.25,90.53609374999999,13.114999999999998,3.5160670625,33.09
2021-06-30 18:40:07.250000000,-64.0,14.0,2.0,90.535,13.04,3.515987,33.09
2021-06-30 18:40:07.257812500,-64.0,14.0,2.25,90.53390625,12.975,3.51610709375,33.09
2021-06-30 18:40:07.265625000,-64.0,14.0,2.5,90.53281249999999,12.91,3.5162271875,33.09
2021-06-30 18:40:07.273437500,-64.0,14.0,2.75,90.53171875,12.76,3.51634728125,33.09
2021-06-30 18:40:07.281250000,-64.0,14.0,3.0,90.530625,12.61,3.516467375,33.09
2021-06-30 18:40:07.289062500,-64.0,14.0,2.75,90.52953124999999,12.23,3.51658746875,33.09
2021-06-30 18:40:07.296875000,-64.0,14.0,2.5,90.5284375,11.85,3.5167075624999997,33.09
2021-06-30 18:40:07.304687500,-64.0,14.0,2.25,90.52734375,11.175,3.51682765625,33.09
2021-06-30 18:40:07.312500000,-64.0,14.0,2.0,90.52625,10.5,3.51694775,33.09
2021-06-30 18:40:07.320312500,-64.0,14.0,2.0,90.52515625,9.545,3.51706784375,33.09
2021-06-30 18:40:07.328125000,-64.0,14.0,2.0,90.5240625,8.59,3.5171879375,33.09
2021-06-30 18:40:07.335937500,-64.0,14.0,2.0,90.52296875,7.52,3.51730803125,33.09
2021-06-30 18:40:07.343750000,-64.0,14.0,2.0,90.521875,6.45,3.517428125,33.09
2021-06-30 18:40:07.351562500,-64.0,14.0,2.0,90.52078125,5.470000000000001,3.51754821875,33.09
2021-06-30 18:40:07.359375000,-64.0,14.0,2.0,90.5196875,4.49,3.5176683124999997,33.09
2021-06-30 18:40:07.367187500,-64.0,14.0,2.0,90.51859375,3.77,3.5177884062499998,33.09
2021-06-30 18:40:07.375000000,-64.0,14.0,2.0,90.5175,3.05,3.5179085,33.09
2021-06-30 18:40:07.382812500,-64.0,14.0,2.25,90.51640625,2.655,3.51802859375,33.09
2021-06-30 18:40:07.390625000,-64.0,14.0,2.5,90.5153125,2.26,3.5181486875,33.09
2021-06-30 18:40:07.398437500,-64.0,14.0,2.75,90.51421875,2.09,3.5182687812499998,33.09
2021-06-30 18:40:07.406250000,-64.0,14.0,3.0,90.513125,1.92,3.518388875,33.09
2021-06-30 18:40:07.414062500,-64.0,14.0,2.75,90.51203124999999,1.7799999999999998,3.51850896875,33.09
2021-06-30 18:40:07.421875000,-64.0,14.0,2.5,90.5109375,1.64,3.5186290624999996,33.09
2021-06-30 18:40:07.429687500,-64.0,14.0,2.25,90.50984375,1.2999999999999998,3.5187491562499997,33.09
2021-06-30 18:40:07.437500000,-64.0,14.0,2.0,90.50874999999999,0.96,3.51886925,33.09
2021-06-30 18:40:07.445312500,-64.0,14.0,2.0,90.50765625,0.28,3.51898934375,33.09
2021-06-30 18:40:07.453125000,-64.0,14.0,2.0,90.5065625,-0.4,3.5191094375,33.09
2021-06-30 18:40:07.460937500,-64.0,14.0,2.0,90.50546875,-1.475,3.5192295312499997,33.09
2021-06-30 18:40:07.468750000,-64.0,14.0,2.0,90.504375,-2.55,3.519349625,33.09
2021-06-30 18:40:07.476562500,-64.0,14.0,2.0,90.50328125,-3.96,3.51946971875,33.09
2021-06-30 18:40:07.484375000,-64.0,14.0,2.0,90.5021875,-5.37,3.5195898124999996,33.09
2021-06-30 18:40:07.492187500,-64.0,14.0,2.0,90.50109375,-6.970000000000001,3.5197099062499997,33.09
2021-06-30 18:40:07.500000000,-64.0,14.0,2.0,90.5,-8.57,3.51983,33.09
2021-06-30 18:40:07.507812500,-64.0,14.0,2.25,90.49890625,-10.17,3.5195898124999996,33.09
2021-06-30 18:40:07.515625000,-64.0,14.0,2.5,90.4978125,-11.77,3.519349625,33.09
2021-06-30 18:40:07.523437500,-64.0,14.0,2.75,90.49671875,-13.125,3.5191094375,33.09
2021-06-30 18:40:07.531250000,-64.0,14.0,3.0,90.495625,-14.48,3.51886925,33.09
2021-06-30 18:40:07.539062500,-64.0,14.0,2.75,90.49453125,-15.305,3.5186290624999996,33.09
2021-06-30 18:40:07.546875000,-64.0,14.0,2.5,90.4934375,-16.13,3.518388875,33.09
2021-06-30 18:40:07.554687500,-64.0,14.0,2.25,90.49234375,-16.189999999999998,3.5181486875,33.09
2021-06-30 18:40:07.562500000,-64.0,14.0,2.0,90.49125000000001,-16.25,3.5179085,33.09
2021-06-30 18:40:07.570312500,-64.0,14.0,2.0,90.49015625,-15.41,3.5176683124999997,33.09
2021-06-30 18:40:07.578125000,-64.0,14.0,2.0,90.4890625,-14.57,3.517428125,33.09
2021-06-30 18:40:07.585937500,-64.0,14.0,2.0,90.48796875000001,-12.905000000000001,3.5171879375,33.09
2021-06-30 18:40:07.593750000,-64.0,14.0,2.0,90.486875,-11.24,3.51694775,33.09
2021-06-30 18:40:07.601562500,-64.0,14.0,2.0,90.48578125,-9.01,3.5167075624999997,33.09
2021-06-30 18:40:07.609375000,-64.0,14.0,2.0,90.4846875,-6.78,3.516467375,33.09
2021-06-30 18:40:07.617187500,-64.0,14.0,2.0,90.48359375,-4.405,3.5162271875,33.09
2021-06-30 18:40:07.625000000,-64.0,14.0,2.0,90.4825,-2.03,3.515987,33.09
2021-06-30 18:40:07.632812500,-64.0,14.0,2.25,90.48140625,0.0950000000000002,3.5157468124999998,33.09
2021-06-30 18:40:07.640625000,-64.0,14.0,2.5,90.4803125,2.22,3.515506625,33.09
2021-06-30 18:40:07.648437500,-64.0,14.0,2.75,90.47921875,3.84,3.5152664375000002,33.09
2021-06-30 18:40:07.656250000,-64.0,14.0,3.0,90.478125,5.46,3.51502625,33.09
2021-06-30 18:40:07.664062500,-64.0,14.0,3.0,90.47703125,6.535,3.5147860625,33.09
2021-06-30 18:40:07.671875000,-64.0,14.0,3.0,90.4759375,7.61,3.514545875,33.09
2021-06-30 18:40:07.679687500,-64.0,14.0,3.0,90.47484375,8.25,3.5143056875000003,33.09
2021-06-30 18:40:07.687500000,-64.0,14.0,3.0,90.47375,8.89,3.5140655,33.09
2021-06-30 18:40:07.695312500,-64.0,14.0,2.75,90.47265625,9.280000000000001,3.5138253125,33.09
2021-06-30 18:40:07.703125000,-64.0,14.0,2.5,90.4715625,9.67,3.513585125,33.09
2021-06-30 18:40:07.710937500,-64.0,14.0,2.25,90.47046875000001,9.92,3.5133449375000003,33.09
2021-06-30 18:40:07.718750000,-64.0,14.0,2.0,90.469375,10.17,3.51310475,33.09
2021-06-30 18:40:07.726562500,-64.0,13.75,2.0,90.46828125,10.295,3.5128645625,33.09
2021-06-30 18:40:07.734375000,-64.0,13.5,2.0,90.46718750000001,10.42,3.512624375,33.09
2021-06-30 18:40:07.742187500,-64.0,13.25,2.0,90.46609375,10.35,3.5123841875000004,33.09
2021-06-30 18:40:07.750000000,-64.0,13.0,2.0,90.465,10.28,3.512144,33.09
2021-06-30 18:40:07.757812500,-64.0,13.25,2.0,90.46390625000001,9.93,3.5123841875000004,33.09
2021-06-30 18:40:07.765625000,-64.0,13.5,2.0,90.4628125,9.58,3.512624375,33.09
2021-06-30 18:40:07.773437500,-64.0,13.75,2.0,90.46171875,8.969999999999999,3.5128645625,33.09
2021-06-30 18:40:07.781250000,-64.0,14.0,2.0,90.46062500000001,8.36,3.51310475,33.09
2021-06-30 18:40:07.789062500,-64.0,14.0,2.25,90.45953125,7.584999999999999,3.5133449375000003,33.09
2021-06-30 18:40:07.796875000,-64.0,14.0,2.5,90.4584375,6.81,3.513585125,33.09
2021-06-30 18:40:07.804687500,-64.0,14.0,2.75,90.45734375,6.045,3.5138253125,33.09
2021-06-30 18:40:07.812500000,-64.0,14.0,3.0,90.45625000000001,5.28,3.5140655,33.09
2021-06-30 18:40:07.820312500,-64.0,14.0,2.75,90.45515625,4.7,3.5143056875000003,33.09
2021-06-30 18:40:07.828125000,-64.0,14.0,2.5,90.4540625,4.12,3.514545875,33.09
2021-06-30 18:40:07.835937500,-64.0,14.0,2.25,90.45296875000001,3.825,3.5147860625,33.09
2021-06-30 18:40:07.843750000,-64.0,14.0,2.0,90.451875,3.53,3.51502625,33.09
2021-06-30 18:40:07.851562500,-64.0,14.0,2.0,90.45078125,3.51,3.5152664375000002,33.09
2021-06-30 18:40:07.859375000,-64.0,14.0,2.0,90.44968750000001,3.49,3.515506625,33.09
2021-06-30 18:40:07.867187500,-64.0,14.0,2.0,90.44859375,3.645,3.5157468124999998,33.09
2021-06-30 18:40:07.875000000,-64.0,14.0,2.0,90.4475,3.8,3.515987,33.09
2021-06-30 18:40:07.882812500,-64.0,14.0,2.25,90.44640625000001,4.0,3.5162271875,33.09
2021-06-30 18:40:07.890625000,-64.0,14.0,2.5,90.4453125,4.2,3.516467375,33.09
2021-06-30 18:40:07.898437500,-64.0,14.0,2.75,90.44421875,4.35,3.5167075624999997,33.09
2021-06-30 18:40:07.906250000,-64.0,14.0,3.0,90.44312500000001,4.5,3.51694775,33.09
2021-06-30 18:40:07.914062500,-64.0,14.0,3.0,90.44203125,4.5649999999999995,3.5171879375,33.09
2021-06-30 18:40:07.921875000,-64.0,14.0,3.0,90.4409375,4.63,3.517428125,33.09
2021-06-30 18:40:07.929687500,-64.0,14.0,3.0,90.43984375000001,4.625,3.5176683124999997,33.09
2021-06-30 18:40:07.937500000,-64.0,14.0,3.0,90.43875,4.62,3.5179085,33.09
2021-06-30 18:40:07.945312500,-64.0,14.0,3.0,90.43765625,4.550000000000001,3.5181486875,33.09
2021-06-30 18:40:07.953125000,-64.0,14.0,3.0,90.43656250000001,4.48,3.518388875,33.09
2021-06-30 18:40:07.960937500,-64.0,14.0,3.0,90.43546875000001,4.32,3.5186290624999996,33.09
2021-06-30 18:40:07.968750000,-64.0,14.0,3.0,90.434375,4.16,3.51886925,33.09
2021-06-30 18:40:07.976562500,-64.0,14.0,3.0,90.43328125000001,3.835,3.5191094375,33.09
2021-06-30 18:40:07.984375000,-64.0,14.0,3.0,90.43218750000001,3.51,3.519349625,33.09
2021-06-30 18:40:07.992187500,-64.0,14.0,3.0,90.43109375,2.9749999999999996,3.5195898124999996,33.09
2021-06-30 18:40:08.000000000,-64.0,14.0,3.0,90.43,2.44,3.51983,33.09
2021-06-30 18:40:08.007812500,-64.0,14.0,2.75,90.42757812500001,1.6949999999999998,3.51954978125,33.089375000000004
2021-06-30 18:40:08.015625000,-64.0,14.0,2.5,90.42515625,0.95,3.5192695625,33.088750000000005
2021-06-30 18:40:08.023437500,-64.0,14.0,2.25,90.422734375,0.06999999999999995,3.51898934375,33.088125000000005
2021-06-30 18:40:08.031250000,-64.0,14.0,2.0,90.42031250000001,-0.81,3.518709125,33.087500000000006
2021-06-30 18:40:08.039062500,-64.0,14.0,2.0,90.41789062500001,-1.73,3.51842890625,33.086875000000006
2021-06-30 18:40:08.046875000,-64.0,14.0,2.0,90.41546875,-2.65,3.5181486874999996,33.08625
2021-06-30 18:40:08.054687500,-64.0,14.0,2.0,90.413046875,-3.575,3.5178684687499997,33.085625
2021-06-30 18:40:08.062500000,-64.0,14.0,2.0,90.41062500000001,-4.5,3.5175882499999997,33.085
2021-06-30 18:40:08.070312500,-64.0,13.75,2.0,90.408203125,-5.484999999999999,3.51730803125,33.084375
2021-06-30 18:40:08.078125000,-64.0,13.5,2.0,90.40578125,-6.47,3.5170278125,33.08375
2021-06-30 18:40:08.085937500,-64.0,13.25,2.0,90.40335937500001,-7.664999999999999,3.51674759375,33.083125
2021-06-30 18:40:08.093750000,-64.0,13.0,2.0,90.40093750000001,-8.86,3.516467375,33.0825
2021-06-30 18:40:08.101562500,-64.0,13.25,2.25,90.398515625,-10.370000000000001,3.51618715625,33.081875000000004
2021-06-30 18:40:08.109375000,-64.0,13.5,2.5,90.39609375,-11.88,3.5159069375,33.081250000000004
2021-06-30 18:40:08.117187500,-64.0,13.75,2.75,90.39367187500001,-13.71,3.51562671875,33.080625000000005
2021-06-30 18:40:08.125000000,-64.0,14.0,3.0,90.39125000000001,-15.54,3.5153464999999997,33.08
2021-06-30 18:40:08.132812500,-64.0,14.0,3.0,90.388828125,-17.490000000000002,3.5150662812499998,33.079375
2021-06-30 18:40:08.140625000,-64.0,14.0,3.0,90.38640625000001,-19.44,3.5147860625,33.07875
2021-06-30 18:40:08.148437500,-64.0,14.0,3.0,90.38398437500001,-21.15,3.51450584375,33.078125
2021-06-30 18:40:08.156250000,-64.0,14.0,3.0,90.3815625,-22.86,3.514225625,33.0775
2021-06-30 18:40:08.164062500,-64.0,13.75,2.75,90.379140625,-23.939999999999998,3.51394540625,33.076875
2021-06-30 18:40:08.171875000,-64.0,13.5,2.5,90.37671875000001,-25.02,3.5136651875,33.07625
2021-06-30 18:40:08.179687500,-64.0,13.25,2.25,90.37429687500001,-25.165,3.51338496875,33.075625
2021-06-30 18:40:08.187500000,-64.0,13.0,2.0,90.371875,-25.31,3.51310475,33.075
2021-06-30 18:40:08.195312500,-64.0,13.25,2.0,90.369453125,-24.41,3.51282453125,33.074375
2021-06-30 18:40:08.203125000,-64.0,13.5,2.0,90.36703125000001,-23.51,3.5125443125,33.073750000000004
2021-06-30 18:40:08.210937500,-64.0,13.75,2.0,90.364609375,-21.705,3.51226409375,33.073125
2021-06-30 18:40:08.218750000,-64.0,14.0,2.0,90.3621875,-19.9,3.511983875,33.0725
2021-06-30 18:40:08.226562500,-64.0,14.0,2.25,90.35976562500001,-17.46,3.51170365625,33.071875
2021-06-30 18:40:08.234375000,-64.0,14.0,2.5,90.35734375000001,-15.02,3.5114234375,33.07125
2021-06-30 18:40:08.242187500,-64.0,14.0,2.75,90.354921875,-12.33,3.51114321875,33.070625
2021-06-30 18:40:08.250000000,-64.0,14.0,3.0,90.3525,-9.64,3.510863,33.07
2021-06-30 18:40:08.257812500,-64.0,14.0,3.0,90.35007812500001,-7.040000000000001,3.51106315625,33.07
2021-06-30 18:40:08.265625000,-64.0,14.0,3.0,90.34765625,-4.44,3.5112633125,33.07
2021-06-30 18:40:08.273437500,-64.0,14.0,3.0,90.345234375,-2.1900000000000004,3.51146346875,33.07
2021-06-30 18:40:08.281250000,-64.0,14.0,3.0,90.34281250000001,0.06,3.511663625,33.07
2021-06-30 18:40:08.289062500,-64.0,13.75,2.75,90.34039062500001,1.845,3.51186378125,33.07
2021-06-30 18:40:08.296875000,-64.0,13.5,2.5,90.33796875,3.63,3.5120639375000002,33.07
2021-06-30 18:40:08.304687500,-64.0,13.25,2.25,90.335546875,4.96,3.5122640937500003,33.07
2021-06-30 18:40:08.312500000,-64.0,13.0,2.0,90.33312500000001,6.29,3.51246425,33.07
2021-06-30 18:40:08.320312500,-64.0,13.0,2.25,90.330703125,7.25,3.51266440625,33.07
2021-06-30 18:40:08.328125000,-64.0,13.0,2.5,90.32828125,8.21,3.5128645625,33.07
2021-06-30 18:40:08.335937500,-64.0,13.0,2.75,90.32585937500001,8.895,3.51306471875,33.07
2021-06-30 18:40:08.343750000,-64.0,13.0,3.0,90.32343750000001,9.58,3.513264875,33.07
2021-06-30 18:40:08.351562500,-64.0,13.25,3.0,90.321015625,10.045,3.51346503125,33.07
2021-06-30 18:40:08.359375000,-64.0,13.5,3.0,90.31859375,10.51,3.5136651875,33.07
2021-06-30 18:40:08.367187500,-64.0,13.75,3.0,90.31617187500001,10.735,3.51386534375,33.07
2021-06-30 18:40:08.375000000,-64.0,14.0,3.0,90.31375,10.96,3.5140655,33.07
2021-06-30 18:40:08.382812500,-64.0,14.0,3.0,90.311328125,10.905000000000001,3.51426565625,33.07
2021-06-30 18:40:08.390625000,-64.0,14.0,3.0,90.30890625,10.85,3.5144658125,33.07
2021-06-30 18:40:08.398437500,-64.0,14.0,3.0,90.30648437500001,10.515,3.51466596875,33.07
2021-06-30 18:40:08.406250000,-64.0,14.0,3.0,90.3040625,10.18,3.514866125,33.07
2021-06-30 18:40:08.414062500,-64.0,13.75,2.75,90.301640625,9.649999999999999,3.51506628125,33.07
2021-06-30 18:40:08.421875000,-64.0,13.5,2.5,90.29921875000001,9.12,3.5152664375000002,33.07
2021-06-30 18:40:08.429687500,-64.0,13.25,2.25,90.29679687500001,8.57,3.5154665937500003,33.07
2021-06-30 18:40:08.437500000,-64.0,13.0,2.0,90.294375,8.02,3.5156667500000003,33.07
2021-06-30 18:40:08.445312500,-64.0,13.25,2.0,90.291953125,7.63,3.51586690625,33.07
2021-06-30 18:40:08.453125000,-64.0,13.5,2.0,90.28953125000001,7.24,3.5160670625,33.07
2021-06-30 18:40:08.460937500,-64.0,13.75,2.0,90.287109375,7.11,3.51626721875,33.07
2021-06-30 18:40:08.468750000,-64.0,14.0,2.0,90.2846875,6.98,3.516467375,33.07
2021-06-30 18:40:08.476562500,-64.0,13.75,2.25,90.28226562500001,7.1,3.51666753125,33.07
2021-06-30 18:40:08.484375000,-64.0,13.5,2.5,90.27984375000001,7.22,3.5168676875,33.07
2021-06-30 18:40:08.492187500,-64.0,13.25,2.75,90.277421875,7.449999999999999,3.51706784375,33.07
2021-06-30 18:40:08.500000000,-64.0,13.0,3.0,90.275,7.68,3.517268,33.07
2021-06-30 18:40:08.507812500,-64.0,13.25,3.0,90.27257812500001,7.84,3.51714790625,33.07
2021-06-30 18:40:08.515625000,-64.0,13.5,3.0,90.27015625,8.0,3.5170278125,33.07
2021-06-30 18:40:08.523437500,-64.0,13.75,3.0,90.267734375,7.984999999999999,3.51690771875,33.07
2021-06-30 18:40:08.531250000,-64.0,14.0,3.0,90.26531250000001,7.97,3.516787625,33.07
2021-06-30 18:40:08.539062500,-64.0,14.0,3.0,90.26289062500001,7.755,3.51666753125,33.07
2021-06-30 18:40:08.546875000,-64.0,14.0,3.0,90.26046875,7.54,3.5165474375,33.07
2021-06-30 18:40:08.554687500,-64.0,14.0,3.0,90.258046875,7.2,3.51642734375,33.07
2021-06-30 18:40:08.562500000,-64.0,14.0,3.0,90.25562500000001,6.86,3.51630725,33.07
2021-06-30 18:40:08.570312500,-64.0,14.0,2.75,90.253203125,6.525,3.51618715625,33.07
2021-06-30 18:40:08.578125000,-64.0,14.0,2.5,90.25078125,6.19,3.5160670625,33.07
2021-06-30 18:40:08.585937500,-64.0,14.0,2.25,90.248359375,5.94,3.51594696875,33.07
2021-06-30 18:40:08.593750000,-64.0,14.0,2.0,90.24593750000001,5.69,3.515826875,33.07
2021-06-30 18:40:08.601562500,-64.0,14.0,2.25,90.243515625,5.525,3.51570678125,33.07
2021-06-30 18:40:08.609375000,-64.0,14.0,2.5,90.24109375,5.36,3.5155866875,33.07
2021-06-30 18:40:08.617187500,-64.0,14.0,2.75,90.23867187500001,5.205,3.51546659375,33.07
2021-06-30 18:40:08.625000000,-64.0,14.0,3.0,90.23625000000001,5.05,3.5153464999999997,33.07
2021-06-30 18:40:08.632812500,-64.0,13.75,3.0,90.233828125,4.765000000000001,3.51522640625,33.07
2021-06-30 18:40:08.640625000,-64.0,13.5,3.0,90.23140625,4.48,3.5151063125,33.07
2021-06-30 18:40:08.648437500,-64.0,13.25,3.0,90.22898437500001,3.8950000000000005,3.51498621875,33.07
2021-06-30 18:40:08.656250000,-64.0,13.0,3.0,90.2265625,3.31,3.5148661249999997,33.07
2021-06-30 18:40:08.664062500,-63.75,13.0,3.0,90.224140625,2.3200000000000003,3.51474603125,33.07
2021-06-30 18:40:08.671875000,-63.5,13.0,3.0,90.22171875000001,1.33,3.5146259375,33.07
2021-06-30 18:40:08.679687500,-63.25,13.0,3.0,90.21929687500001,-0.11499999999999999,3.51450584375,33.07
2021-06-30 18:40:08.687500000,-63.0,13.0,3.0,90.216875,-1.56,3.5143857499999998,33.07
2021-06-30 18:40:08.695312500,-63.25,13.0,2.75,90.214453125,-3.42,3.5142656562499996,33.07
2021-06-30 18:40:08.703125000,-63.5,13.0,2.5,90.21203125000001,-5.28,3.5141455625,33.07
2021-06-30 18:40:08.710937500,-63.75,13.0,2.25,90.209609375,-7.425000000000001,3.51402546875,33.07
2021-06-30 18:40:08.718750000,-64.0,13.0,2.0,90.2071875,-9.57,3.5139053749999998,33.07
2021-06-30 18:40:08.726562500,-64.0,13.0,2.0,90.20476562500001,-11.785,3.5137852812499997,33.07
2021-06-30 18:40:08.734375000,-64.0,13.0,2.0,90.20234375000001,-14.0,3.5136651875,33.07
2021-06-30 18:40:08.742187500,-64.0,13.0,2.0,90.199921875,-16.0,3.51354509375,33.07
2021-06-30 18:40:08.750000000,-64.0,13.0,2.0,90.1975,-18.0,3.513425,33.07
2021-06-30 18:40:08.757812500,-64.0,13.0,2.0,90.19507812500001,-19.445,3.5133049062499997,33.07
2021-06-30 18:40:08.765625000,-64.0,13.0,2.0,90.19265625,-20.89,3.5131848124999996,33.07
2021-06-30 18:40:08.773437500,-64.0,13.0,2.0,90.190234375,-21.47,3.51306471875,33.07
2021-06-30 18:40:08.781250000,-64.0,13.0,2.0,90.1878125,-22.05,3.512944625,33.07
2021-06-30 18:40:08.789062500,-64.0,13.0,2.25,90.18539062500001,-21.57,3.5128245312499997,33.07
2021-06-30 18:40:08.796875000,-64.0,13.0,2.5,90.18296875,-21.09,3.5127044375,33.07
2021-06-30 18:40:08.804687500,-64.0,13.0,2.75,90.180546875,-19.555,3.51258434375,33.07
2021-06-30 18:40:08.812500000,-64.0,13.0,3.0,90.17812500000001,-18.02,3.51246425,33.07
2021-06-30 18:40:08.820312500,-64.0,13.0,3.0,90.175703125,-15.64,3.5123441562499997,33.07
2021-06-30 18:40:08.828125000,-64.0,13.0,3.0,90.17328125,-13.26,3.5122240624999996,33.07
2021-06-30 18:40:08.835937500,-64.0,13.0,3.0,90.170859375,-10.44,3.51210396875,33.07
2021-06-30 18:40:08.843750000,-64.0,13.0,3.0,90.16843750000001,-7.62,3.511983875,33.07
2021-06-30 18:40:08.851562500,-64.0,13.25,3.25,90.166015625,-4.83,3.5118637812499998,33.07
2021-06-30 18:40:08.859375000,-64.0,13.5,3.5,90.16359375,-2.04,3.5117436875,33.07
2021-06-30 18:40:08.867187500,-64.0,13.75,3.75,90.16117187500001,0.33000000000000007,3.51162359375,33.07
2021-06-30 18:40:08.875000000,-64.0,14.0,4.0,90.15875,2.7,3.5115035,33.07
2021-06-30 18:40:08.882812500,-64.0,14.0,3.75,90.156328125,4.455,3.51138340625,33.07
2021-06-30 18:40:08.890625000,-64.0,14.0,3.5,90.15390625,6.21,3.5112633124999997,33.07
2021-06-30 18:40:08.898437500,-64.0,14.0,3.25,90.15148437500001,7.359999999999999,3.51114321875,33.07
2021-06-30 18:40:08.906250000,-64.0,14.0,3.0,90.1490625,8.51,3.511023125,33.07
2021-06-30 18:40:08.914062500,-64.0,14.0,2.75,90.146640625,9.24,3.51090303125,33.07
2021-06-30 18:40:08.921875000,-64.0,14.0,2.5,90.14421875000001,9.97,3.5107829375,33.07
2021-06-30 18:40:08.929687500,-64.0,14.0,2.25,90.14179687500001,10.495000000000001,3.51066284375,33.07
2021-06-30 18:40:08.937500000,-64.0,14.0,2.0,90.139375,11.02,3.51054275,33.07
2021-06-30 18:40:08.945312500,-64.0,14.0,2.25,90.136953125,11.51,3.51042265625,33.07
2021-06-30 18:40:08.953125000,-64.0,14.0,2.5,90.13453125000001,12.0,3.5103025624999997,33.07
2021-06-30 18:40:08.960937500,-64.0,14.0,2.75,90.132109375,12.475,3.51018246875,33.07
2021-06-30 18:40:08.968750000,-64.0,14.0,3.0,90.1296875,12.95,3.510062375,33.07
2021-06-30 18:40:08.976562500,-64.0,13.75,2.75,90.127265625,13.34,3.50994228125,33.07
2021-06-30 18:40:08.984375000,-64.0,13.5,2.5,90.12484375000001,13.73,3.5098221875,33.07
2021-06-30 18:40:08.992187500,-64.0,13.25,2.25,90.122421875,13.92,3.50970209375,33.07
2021-06-30 18:40:09.000000000,-64.0,13.0,2.0,90.12,14.11,3.509582,33.07
2021-06-30 18:40:09.007812500,-64.0,12.75,2.0,90.117265625,14.04,3.50978215625,33.070625
2021-06-30 18:40:09.015625000,-64.0,12.5,2.0,90.11453125,13.97,3.5099823125,33.07125
2021-06-30 18:40:09.023437500,-64.0,12.25,2.0,90.11179687500001,13.675,3.51018246875,33.071875
2021-06-30 18:40:09.031250000,-64.0,12.0,2.0,90.10906250000001,13.38,3.510382625,33.0725
2021-06-30 18:40:09.039062500,-64.0,12.25,2.0,90.106328125,12.98,3.51058278125,33.073125
2021-06-30 18:40:09.046875000,-64.0,12.5,2.0,90.10359375,12.58,3.5107829375,33.073750000000004
2021-06-30 18:40:09.054687500,-64.0,12.75,2.0,90.100859375,12.235,3.51098309375,33.074375
2021-06-30 18:40:09.062500000,-64.0,13.0,2.0,90.09812500000001,11.89,3.51118325,33.075
2021-06-30 18:40:09.070312500,-64.0,13.0,2.0,90.09539062500001,11.72,3.51138340625,33.075625
2021-06-30 18:40:09.078125000,-64.0,13.0,2.0,90.09265625,11.55,3.5115835625,33.07625
2021-06-30 18:40:09.085937500,-64.0,13.0,2.0,90.089921875,11.565000000000001,3.51178371875,33.076875
2021-06-30 18:40:09.093750000,-64.0,13.0,2.0,90.0871875,11.58,3.511983875,33.0775
2021-06-30 18:40:09.101562500,-64.0,13.0,2.25,90.08445312500001,11.705,3.51218403125,33.078125
2021-06-30 18:40:09.109375000,-64.0,13.0,2.5,90.08171875000001,11.83,3.5123841875,33.07875
2021-06-30 18:40:09.117187500,-64.0,13.0,2.75,90.078984375,11.93,3.51258434375,33.079375
2021-06-30 18:40:09.125000000,-64.0,13.0,3.0,90.07625,12.03,3.5127845,33.08
2021-06-30 18:40:09.132812500,-64.0,13.0,3.0,90.073515625,11.995000000000001,3.51298465625,33.080625000000005
2021-06-30 18:40:09.140625000,-64.0,13.0,3.0,90.07078125000001,11.96,3.5131848125,33.081250000000004
2021-06-30 18:40:09.148437500,-64.0,13.0,3.0,90.06804687500001,11.735,3.51338496875,33.081875000000004
2021-06-30 18:40:09.156250000,-64.0,13.0,3.0,90.0653125,11.51,3.513585125,33.0825
2021-06-30 18:40:09.164062500,-64.0,13.25,3.0,90.062578125,11.115,3.51378528125,33.083125
2021-06-30 18:40:09.171875000,-64.0,13.5,3.0,90.05984375,10.72,3.5139854375,33.08375
2021-06-30 18:40:09.179687500,-64.0,13.75,3.0,90.057109375,10.205,3.51418559375,33.084375
2021-06-30 18:40:09.187500000,-64.0,14.0,3.0,90.05437500000001,9.69,3.5143857499999998,33.085
2021-06-30 18:40:09.195312500,-64.0,14.0,3.0,90.051640625,9.1,3.51458590625,33.085625
2021-06-30 18:40:09.203125000,-64.0,14.0,3.0,90.04890625,8.51,3.5147860625,33.08625
2021-06-30 18:40:09.210937500,-64.0,14.0,3.0,90.046171875,7.85,3.51498621875,33.086875000000006
2021-06-30 18:40:09.218750000,-64.0,14.0,3.0,90.0434375,7.19,3.515186375,33.087500000000006
2021-06-30 18:40:09.226562500,-64.0,14.0,3.0,90.04070312500001,6.42,3.51538653125,33.088125000000005
2021-06-30 18:40:09.234375000,-64.0,14.0,3.0,90.03796875,5.65,3.5155866875,33.088750000000005
2021-06-30 18:40:09.242187500,-64.0,14.0,3.0,90.035234375,4.705,3.51578684375,33.089375000000004
2021-06-30 18:40:09.250000000,-64.0,14.0,3.0,90.0325,3.76,3.515987,33.09
2021-06-30 18:40:09.257812500,-63.75,13.75,3.0,90.029765625,2.5749999999999997,3.51570675,33.09
2021-06-30 18:40:09.265625000,-63.5,13.5,3.0,90.02703125000001,1.39,3.5154265,33.09
2021-06-30 18:40:09.273437500,-63.25,13.25,3.0,90.024296875,-0.06000000000000005,3.51514625,33.09
2021-06-30 18:40:09.281250000,-63.0,13.0,3.0,90.0215625,-1.51,3.514866,33.09
2021-06-30 18:40:09.289062500,-63.25,13.0,3.0,90.018828125,-3.2250000000000005,3.51458575,33.09
2021-06-30 18:40:09.296875000,-63.5,13.0,3.0,90.01609375,-4.94,3.5143055,33.09
2021-06-30 18:40:09.304687500,-63.75,13.0,3.0,90.01335937500001,-6.870000000000001,3.51402525,33.09
2021-06-30 18:40:09.312500000,-64.0,13.0,3.0,90.010625,-8.8,3.513745,33.09
2021-06-30 18:40:09.320312500,-64.0,13.0,3.0,90.007890625,-10.825,3.51346475,33.09
2021-06-30 18:40:09.328125000,-64.0,13.0,3.0,90.00515625,-12.85,3.5131845,33.09
2021-06-30 18:40:09.335937500,-64.0,13.0,3.0,90.002421875,-14.794999999999998,3.51290425,33.09
2021-06-30 18:40:09.343750000,-64.0,13.0,3.0,89.99968750000001,-16.74,3.512624,33.09
2021-06-30 18:40:09.351562500,-64.0,13.0,3.0,89.996953125,-18.38,3.51234375,33.09
2021-06-30 18:40:09.359375000,-64.0,13.0,3.0,89.99421875,-20.02,3.5120635,33.09
2021-06-30 18:40:09.367187500,-64.0,13.0,3.0,89.991484375,-21.119999999999997,3.51178325,33.09
2021-06-30 18:40:09.375000000,-64.0,13.0,3.0,89.98875,-22.22,3.5115030000000003,33.09
2021-06-30 18:40:09.382812500,-64.0,13.25,3.0,89.98601562500001,-22.57,3.51122275,33.09
2021-06-30 18:40:09.390625000,-64.0,13.5,3.0,89.98328125,-22.92,3.5109425,33.09
2021-06-30 18:40:09.398437500,-64.0,13.75,3.0,89.980546875,-22.375,3.51066225,33.09
2021-06-30 18:40:09.406250000,-64.0,14.0,3.0,89.9778125,-21.83,3.510382,33.09
2021-06-30 18:40:09.414062500,-64.0,14.0,3.0,89.975078125,-20.36,3.51010175,33.09
2021-06-30 18:40:09.421875000,-64.0,14.0,3.0,89.97234375000001,-18.89,3.5098215,33.09
2021-06-30 18:40:09.429687500,-64.0,14.0,3.0,89.969609375,-16.635,3.5095412500000003,33.09
2021-06-30 18:40:09.437500000,-64.0,14.0,3.0,89.966875,-14.38,3.509261,33.09
2021-06-30 18:40:09.445312500,-64.0,14.0,3.0,89.964140625,-11.59,3.50898075,33.09
2021-06-30 18:40:09.453125000,-64.0,14.0,3.0,89.96140625,-8.8,3.5087005,33.09
2021-06-30 18:40:09.460937500,-64.0,14.0,3.0,89.95867187500001,-5.83,3.50842025,33.09
2021-06-30 18:40:09.468750000,-64.0,14.0,3.0,89.9559375,-2.86,3.50814,33.09
2021-06-30 18:40:09.476562500,-64.0,14.0,3.0,89.953203125,-0.05500000000000016,3.50785975,33.09
2021-06-30 18:40:09.484375000,-64.0,14.0,3.0,89.95046875,2.75,3.5075795000000003,33.09
2021-06-30 18:40:09.492187500,-64.0,14.0,3.0,89.947734375,5.12,3.50729925,33.09
2021-06-30 18:40:09.500000000,-64.0,14.0,3.0,89.945,7.49,3.507019,33.09
2021-06-30 18:40:09.507812500,-64.0,14.0,3.0,89.942265625,9.32,3.5072592187500002,33.09
2021-06-30 18:40:09.515625000,-64.0,14.0,3.0,89.93953125,11.15,3.5074994375,33.09
2021-06-30 18:40:09.523437500,-64.0,14.0,3.0,89.936796875,12.485,3.50773965625,33.09
2021-06-30 18:40:09.531250000,-64.0,14.0,3.0,89.9340625,13.82,3.507979875,33.09
2021-06-30 18:40:09.539062500,-64.0,14.0,3.0,89.931328125,14.805,3.50822009375,33.09
2021-06-30 18:40:09.546875000,-64.0,14.0,3.0,89.92859375,15.79,3.5084603125,33.09
2021-06-30 18:40:09.554687500,-64.0,14.0,3.0,89.925859375,16.585,3.50870053125,33.09
2021-06-30 18:40:09.562500000,-64.0,14.0,3.0,89.923125,17.38,3.50894075,33.09
2021-06-30 18:40:09.570312500,-64.0,14.0,3.0,89.920390625,18.06,3.50918096875,33.09
2021-06-30 18:40:09.578125000,-64.0,14.0,3.0,89.91765625,18.74,3.5094211875,33.09
2021-06-30 18:40:09.585937500,-64.0,14.0,3.0,89.914921875,19.31,3.5096614062500002,33.09
2021-06-30 18:40:09.593750000,-64.0,14.0,3.0,89.9121875,19.88,3.509901625,33.09
2021-06-30 18:40:09.601562500,-64.0,14.0,3.0,89.909453125,20.27,3.51014184375,33.09
2021-06-30 18:40:09.609375000,-64.0,14.0,3.0,89.90671875,20.66,3.5103820625,33.09
2021-06-30 18:40:09.617187500,-64.0,14.0,3.0,89.903984375,20.82,3.51062228125,33.09
2021-06-30 18:40:09.625000000,-64.0,14.0,3.0,89.90125,20.98,3.5108625,33.09
2021-06-30 18:40:09.632812500,-64.0,13.75,2.75,89.898515625,20.915,3.51110271875,33.09
2021-06-30 18:40:09.640625000,-64.0,13.5,2.5,89.89578125,20.85,3.5113429375,33.09
2021-06-30 18:40:09.648437500,-64.0,13.25,2.25,89.893046875,20.64,3.51158315625,33.09
2021-06-30 18:40:09.656250000,-64.0,13.0,2.0,89.8903125,20.43,3.511823375,33.09
2021-06-30 18:40:09.664062500,-64.0,13.0,2.25,89.887578125,20.185000000000002,3.5120635937499998,33.09
2021-06-30 18:40:09.671875000,-64.0,13.0,2.5,89.88484375,19.94,3.5123038125,33.09
2021-06-30 18:40:09.679687500,-64.0,13.0,2.75,89.882109375,19.75,3.51254403125,33.09
2021-06-30 18:40:09.687500000,-64.0,13.0,3.0,89.879375,19.56,3.51278425,33.09
2021-06-30 18:40:09.695312500,-64.0,13.0,3.0,89.876640625,19.439999999999998,3.51302446875,33.09
2021-06-30 18:40:09.703125000,-64.0,13.0,3.0,89.87390625,19.32,3.5132646875,33.09
2021-06-30 18:40:09.710937500,-64.0,13.0,3.0,89.871171875,19.23,3.51350490625,33.09
2021-06-30 18:40:09.718750000,-64.0,13.0,3.0,89.8684375,19.14,3.513745125,33.09
2021-06-30 18:40:09.726562500,-64.0,13.0,3.0,89.865703125,19.005000000000003,3.51398534375,33.09
2021-06-30 18:40:09.734375000,-64.0,13.0,3.0,89.86296875,18.87,3.5142255625,33.09
2021-06-30 18:40:09.742187500,-64.0,13.0,3.0,89.860234375,18.625,3.5144657812499998,33.09
2021-06-30 18:40:09.750000000,-64.0,13.0,3.0,89.8575,18.38,3.514706,33.09
2021-06-30 18:40:09.757812500,-64.0,13.25,3.0,89.854765625,18.0,3.51482609375,33.09
2021-06-30 18:40:09.765625000,-64.0,13.5,3.0,89.85203125,17.62,3.5149461875,33.09
2021-06-30 18:40:09.773437500,-64.0,13.75,3.0,89.849296875,17.130000000000003,3.5150662812499998,33.09
2021-06-30 18:40:09.781250000,-64.0,14.0,3.0,89.8465625,16.64,3.515186375,33.09
2021-06-30 18:40:09.789062500,-64.0,14.0,3.0,89.843828125,16.060000000000002,3.51530646875,33.09
2021-06-30 18:40:09.796875000,-64.0,14.0,3.0,89.84109375,15.48,3.5154265625,33.09
2021-06-30 18:40:09.804687500,-64.0,14.0,3.0,89.838359375,14.825,3.5155466562499997,33.09
2021-06-30 18:40:09.812500000,-64.0,14.0,3.0,89.835625,14.17,3.51566675,33.09
2021-06-30 18:40:09.820312500,-64.0,14.0,3.0,89.832890625,13.405000000000001,3.51578684375,33.09
2021-06-30 18:40:09.828125000,-64.0,14.0,3.0,89.83015625,12.64,3.5159069375,33.09
2021-06-30 18:40:09.835937500,-64.0,14.0,3.0,89.827421875,11.71,3.51602703125,33.09
2021-06-30 18:40:09.843750000,-64.0,14.0,3.0,89.8246875,10.78,3.516147125,33.09
2021-06-30 18:40:09.851562500,-64.0,14.0,3.0,89.821953125,9.629999999999999,3.51626721875,33.09
2021-06-30 18:40:09.859375000,-64.0,14.0,3.0,89.81921874999999,8.48,3.5163873125,33.09
2021-06-30 18:40:09.867187500,-64.0,14.0,3.0,89.816484375,7.075,3.51650740625,33.09
2021-06-30 18:40:09.875000000,-64.0,14.0,3.0,89.81375,5.67,3.5166275000000002,33.09
2021-06-30 18:40:09.882812500,-64.0,13.75,3.0,89.811015625,4.055,3.51674759375,33.09
2021-06-30 18:40:09.890625000,-64.0,13.5,3.0,89.80828125,2.44,3.5168676875,33.09
2021-06-30 18:40:09.898437500,-64.0,13.25,3.0,89.80554687499999,0.7250000000000001,3.51698778125,33.09
2021-06-30 18:40:09.906250000,-64.0,13.0,3.0,89.8028125,-0.99,3.517107875,33.09
2021-06-30 18:40:09.914062500,-64.0,13.0,3.0,89.800078125,-2.67,3.51722796875,33.09
2021-06-30 18:40:09.921875000,-64.0,13.0,3.0,89.79734375,-4.35,3.5173480625,33.09
2021-06-30 18:40:09.929687500,-64.0,13.0,3.0,89.794609375,-5.84,3.51746815625,33.09
2021-06-30 18:40:09.937500000,-64.0,13.0,3.0,89.79187499999999,-7.33,3.51758825,33.09
2021-06-30 18:40:09.945312500,-64.0,13.0,3.0,89.789140625,-8.54,3.5177083437500003,33.09
2021-06-30 18:40:09.953125000,-64.0,13.0,3.0,89.78640625,-9.75,3.5178284375,33.09
2021-06-30 18:40:09.960937500,-64.0,13.0,3.0,89.783671875,-10.684999999999999,3.51794853125,33.09
2021-06-30 18:40:09.968750000,-64.0,13.0,3.0,89.7809375,-11.62,3.518068625,33.09
2021-06-30 18:40:09.976562500,-64.0,13.0,3.0,89.77820312499999,-12.37,3.5181887187500003,33.09
2021-06-30 18:40:09.984375000,-64.0,13.0,3.0,89.77546875,-13.12,3.5183088125,33.09
2021-06-30 18:40:09.992187500,-64.0,13.0,3.0,89.772734375,-13.864999999999998,3.51842890625,33.09
2021-06-30 18:40:10.000000000,-64.0,13.0,3.0,89.77,-14.61,3.518549,33.09
2021-06-30 18:40:10.007812500,-64.0,13.0,3.0,89.76773437499999,-15.56,3.51850896875,33.089375000000004
2021-06-30 18:40:10.015625000,-64.0,13.0,3.0,89.76546875,-16.51,3.5184689375000002,33.088750000000005
2021-06-30 18:40:10.023437500,-64.0,13.0,3.0,89.76320312499999,-17.825000000000003,3.51842890625,33.088125000000005
2021-06-30 18:40:10.031250000,-64.0,13.0,3.0,89.7609375,-19.14,3.5183888750000003,33.087500000000006
2021-06-30 18:40:10.039062500,-64.0,13.25,3.0,89.75867187499999,-20.92,3.51834884375,33.086875000000006
2021-06-30 18:40:10.046875000,-64.0,13.5,3.0,89.75640625,-22.7,3.5183088125,33.08625
2021-06-30 18:40:10.054687500,-64.0,13.75,3.0,89.75414062499999,-24.895,3.51826878125,33.085625
2021-06-30 18:40:10.062500000,-64.0,14.0,3.0,89.751875,-27.09,3.51822875,33.085
2021-06-30 18:40:10.070312500,-64.0,14.0,3.0,89.74960937499999,-29.48,3.5181887187500003,33.084375
2021-06-30 18:40:10.078125000,-64.0,14.0,3.0,89.74734375,-31.87,3.5181486875,33.08375
2021-06-30 18:40:10.085937500,-64.0,14.0,3.0,89.74507812499999,-34.085,3.51810865625,33.083125
2021-06-30 18:40:10.093750000,-64.0,14.0,3.0,89.7428125,-36.3,3.518068625,33.0825
2021-06-30 18:40:10.101562500,-64.0,13.75,3.0,89.74054687499999,-37.9,3.51802859375,33.081875000000004
2021-06-30 18:40:10.109375000,-64.0,13.5,3.0,89.73828125,-39.5,3.5179885625000002,33.081250000000004
2021-06-30 18:40:10.117187500,-64.0,13.25,3.0,89.736015625,-40.065,3.51794853125,33.080625000000005
2021-06-30 18:40:10.125000000,-64.0,13.0,3.0,89.73375,-40.63,3.5179085,33.08
2021-06-30 18:40:10.132812500,-64.0,13.25,3.0,89.731484375,-39.95,3.51786846875,33.079375
2021-06-30 18:40:10.140625000,-64.0,13.5,3.0,89.72921875,-39.27,3.5178284375,33.07875
2021-06-30 18:40:10.148437500,-64.0,13.75,3.0,89.726953125,-37.400000000000006,3.51778840625,33.078125
2021-06-30 18:40:10.156250000,-64.0,14.0,3.0,89.7246875,-35.53,3.517748375,33.0775
2021-06-30 18:40:10.164062500,-64.0,13.75,3.0,89.722421875,-32.775,3.5177083437500003,33.076875
2021-06-30 18:40:10.171875000,-64.0,13.5,3.0,89.72015625,-30.02,3.5176683125,33.07625
2021-06-30 18:40:10.179687500,-64.0,13.25,3.0,89.717890625,-26.85,3.51762828125,33.075625
2021-06-30 18:40:10.187500000,-64.0,13.0,3.0,89.715625,-23.68,3.51758825,33.075
2021-06-30 18:40:10.195312500,-64.0,13.0,3.0,89.713359375,-20.535,3.51754821875,33.074375
2021-06-30 18:40:10.203125000,-64.0,13.0,3.0,89.71109375,-17.39,3.5175081875000003,33.073750000000004
2021-06-30 18:40:10.210937500,-64.0,13.0,3.0,89.708828125,-14.555,3.51746815625,33.073125
2021-06-30 18:40:10.218750000,-64.0,13.0,3.0,89.7065625,-11.72,3.517428125,33.0725
2021-06-30 18:40:10.226562500,-64.0,13.0,3.0,89.704296875,-9.275,3.51738809375,33.071875
2021-06-30 18:40:10.234375000,-64.0,13.0,3.0,89.70203125,-6.83,3.5173480625,33.07125
2021-06-30 18:40:10.242187500,-64.0,13.0,3.0,89.699765625,-4.66,3.5173080312500002,33.070625
2021-06-30 18:40:10.250000000,-64.0,13.0,3.0,89.69749999999999,-2.49,3.517268,33.07
2021-06-30 18:40:10.257812500,-64.0,13.0,3.0,89.695234375,-0.42500000000000027,3.51722796875,33.07
2021-06-30 18:40:10.265625000,-64.0,13.0,3.0,89.69296874999999,1.64,3.5171879375,33.07
2021-06-30 18:40:10.273437500,-64.0,13.0,3.0,89.690703125,3.715,3.51714790625,33.07
2021-06-30 18:40:10.281250000,-64.0,13.0,3.0,89.68843749999999,5.79,3.517107875,33.07
2021-06-30 18:40:10.289062500,-64.0,13.0,3.0,89.686171875,7.890000000000001,3.51706784375,33.07
2021-06-30 18:40:10.296875000,-64.0,13.0,3.0,89.68390624999999,9.99,3.5170278125,33.07
2021-06-30 18:40:10.304687500,-64.0,13.0,3.0,89.681640625,12.035,3.51698778125,33.07
2021-06-30 18:40:10.312500000,-64.0,13.0,3.0,89.679375,14.08,3.51694775,33.07
2021-06-30 18:40:10.320312500,-64.0,13.25,3.0,89.677109375,15.95,3.51690771875,33.07
2021-06-30 18:40:10.328125000,-64.0,13.5,3.0,89.67484375,17.82,3.5168676875,33.07
2021-06-30 18:40:10.335937500,-64.0,13.75,3.0,89.672578125,19.42,3.51682765625,33.07
2021-06-30 18:40:10.343750000,-64.0,14.0,3.0,89.6703125,21.02,3.516787625,33.07
2021-06-30 18:40:10.351562500,-64.0,13.75,3.0,89.668046875,22.295,3.51674759375,33.07
2021-06-30 18:40:10.359375000,-64.0,13.5,3.0,89.66578125,23.57,3.5167075625,33.07
2021-06-30 18:40:10.367187500,-64.0,13.25,3.0,89.663515625,24.52,3.51666753125,33.07
2021-06-30 18:40:10.375000000,-64.0,13.0,3.0,89.66125,25.47,3.5166275000000002,33.07
2021-06-30 18:40:10.382812500,-64.0,13.0,3.0,89.658984375,26.125,3.51658746875,33.07
2021-06-30 18:40:10.390625000,-64.0,13.0,3.0,89.65671875,26.78,3.5165474375,33.07
2021-06-30 18:40:10.398437500,-64.0,13.0,3.0,89.654453125,27.18,3.51650740625,33.07
2021-06-30 18:40:10.406250000,-64.0,13.0,3.0,89.6521875,27.58,3.516467375,33.07
2021-06-30 18:40:10.414062500,-64.0,13.25,3.0,89.649921875,27.75,3.51642734375,33.07
2021-06-30 18:40:10.421875000,-64.0,13.5,3.0,89.64765625,27.92,3.5163873125,33.07
2021-06-30 18:40:10.429687500,-64.0,13.75,3.0,89.645390625,27.915,3.51634728125,33.07
2021-06-30 18:40:10.437500000,-64.0,14.0,3.0,89.643125,27.91,3.51630725,33.07
2021-06-30 18:40:10.445312500,-64.0,13.75,3.0,89.640859375,27.765,3.51626721875,33.07
2021-06-30 18:40:10.453125000,-64.0,13.5,3.0,89.63859375,27.62,3.5162271875,33.07
2021-06-30 18:40:10.460937500,-64.0,13.25,3.0,89.636328125,27.41,3.51618715625,33.07
2021-06-30 18:40:10.468750000,-64.0,13.0,3.0,89.6340625,27.2,3.516147125,33.07
2021-06-30 18:40:10.476562500,-64.0,13.0,3.0,89.631796875,26.97,3.51610709375,33.07
2021-06-30 18:40:10.484375000,-64.0,13.0,3.0,89.62953125,26.74,3.5160670625,33.07
2021-06-30 18:40:10.492187500,-64.0,13.0,3.0,89.627265625,26.52,3.51602703125,33.07
2021-06-30 18:40:10.500000000,-64.0,13.0,3.0,89.625,26.3,3.515987,33.07
2021-06-30 18:40:10.507812500,-64.0,13.0,3.0,89.622734375,26.085,3.51578684375,33.07
2021-06-30 18:40:10.515625000,-64.0,13.0,3.0,89.62046875,25.87,3.5155866875,33.07
2021-06-30 18:40:10.523437500,-64.0,13.0,3.0,89.618203125,25.62,3.51538653125,33.07
2021-06-30 18:40:10.531250000,-64.0,13.0,3.0,89.6159375,25.37,3.515186375,33.07
2021-06-30 18:40:10.539062500,-64.0,13.0,3.0,89.613671875,25.035,3.51498621875,33.07
2021-06-30 18:40:10.546875000,-64.0,13.0,3.0,89.61140625,24.7,3.5147860625,33.07
2021-06-30 18:40:10.554687500,-64.0,13.0,3.0,89.609140625,24.244999999999997,3.51458590625,33.07
2021-06-30 18:40:10.562500000,-64.0,13.0,3.0,89.606875,23.79,3.5143857499999998,33.07
2021-06-30 18:40:10.570312500,-64.0,13.0,3.0,89.604609375,23.225,3.51418559375,33.07
2021-06-30 18:40:10.578125000,-64.0,13.0,3.0,89.60234375,22.66,3.5139854375,33.07
2021-06-30 18:40:10.585937500,-64.0,13.0,3.0,89.600078125,22.0,3.51378528125,33.07
2021-06-30 18:40:10.593750000,-64.0,13.0,3.0,89.5978125,21.34,3.513585125,33.07
2021-06-30 18:40:10.601562500,-64.0,13.0,3.0,89.595546875,20.615000000000002,3.51338496875,33.07
2021-06-30 18:40:10.609375000,-64.0,13.0,3.0,89.59328125,19.89,3.5131848125,33.07
2021-06-30 18:40:10.617187500,-64.0,13.0,3.0,89.591015625,19.130000000000003,3.51298465625,33.07
2021-06-30 18:40:10.625000000,-64.0,13.0,3.0,89.58875,18.37,3.5127845,33.07
2021-06-30 18:40:10.632812500,-64.0,13.0,3.0,89.586484375,17.585,3.51258434375,33.07
2021-06-30 18:40:10.640625000,-64.0,13.0,3.0,89.58421875,16.8,3.5123841875,33.07
2021-06-30 18:40:10.648437500,-64.0,13.0,3.0,89.581953125,16.0,3.51218403125,33.07
2021-06-30 18:40:10.656250000,-64.0,13.0,3.0,89.5796875,15.2,3.511983875,33.07
2021-06-30 18:40:10.664062500,-64.0,13.25,3.0,89.577421875,14.415,3.51178371875,33.07
2021-06-30 18:40:10.671875000,-64.0,13.5,3.0,89.57515625,13.63,3.5115835625,33.07
2021-06-30 18:40:10.679687500,-64.0,13.75,3.0,89.572890625,12.875,3.51138340625,33.07
2021-06-30 18:40:10.687500000,-64.0,14.0,3.0,89.570625,12.12,3.51118325,33.07
2021-06-30 18:40:10.695312500,-64.0,13.75,3.0,89.568359375,11.42,3.51098309375,33.07
2021-06-30 18:40:10.703125000,-64.0,13.5,3.0,89.56609375000001,10.72,3.5107829375,33.07
2021-06-30 18:40:10.710937500,-64.0,13.25,3.0,89.563828125,10.05,3.51058278125,33.07
2021-06-30 18:40:10.718750000,-64.0,13.0,3.0,89.56156250000001,9.38,3.510382625,33.07
2021-06-30 18:40:10.726562500,-64.0,13.0,3.0,89.559296875,8.690000000000001,3.51018246875,33.07
2021-06-30 18:40:10.734375000,-64.0,13.0,3.0,89.55703125000001,8.0,3.5099823125,33.07
2021-06-30 18:40:10.742187500,-64.0,13.0,3.0,89.554765625,7.220000000000001,3.50978215625,33.07
2021-06-30 18:40:10.750000000,-64.0,13.0,3.0,89.55250000000001,6.44,3.509582,33.07
2021-06-30 18:40:10.757812500,-64.0,13.0,3.0,89.550234375,5.525,3.509582,33.07
2021-06-30 18:40:10.765625000,-64.0,13.0,3.0,89.54796875,4.61,3.509582,33.07
2021-06-30 18:40:10.773437500,-64.0,13.0,3.0,89.545703125,3.555,3.509582,33.07
2021-06-30 18:40:10.781250000,-64.0,13.0,3.0,89.5434375,2.5,3.509582,33.07
2021-06-30 18:40:10.789062500,-64.0,13.0,3.0,89.541171875,1.36,3.509582,33.07
2021-06-30 18:40:10.796875000,-64.0,13.0,3.0,89.53890625,0.22,3.509582,33.07
2021-06-30 18:40:10.804687500,-64.0,13.0,3.0,89.536640625,-0.925,3.509582,33.07
2021-06-30 18:40:10.812500000,-64.0,13.0,3.0,89.534375,-2.07,3.509582,33.07
2021-06-30 18:40:10.820312500,-64.0,13.0,3.0,89.532109375,-3.1550000000000002,3.509582,33.07
2021-06-30 18:40:10.828125000,-64.0,13.0,3.0,89.52984375,-4.24,3.509582,33.07
2021-06-30 18:40:10.835937500,-64.0,13.0,3.0,89.527578125,-5.24,3.509582,33.07
2021-06-30 18:40:10.843750000,-64.0,13.0,3.0,89.5253125,-6.24,3.509582,33.07
2021-06-30 18:40:10.851562500,-64.0,13.0,3.0,89.523046875,-7.205,3.509582,33.07
2021-06-30 18:40:10.859375000,-64.0,13.0,3.0,89.52078125,-8.17,3.509582,33.07
2021-06-30 18:40:10.867187500,-64.0,13.0,3.0,89.518515625,-9.21,3.509582,33.07
2021-06-30 18:40:10.875000000,-64.0,13.0,3.0,89.51625,-10.25,3.509582,33.07
2021-06-30 18:40:10.882812500,-64.0,13.0,3.0,89.513984375,-11.495000000000001,3.509582,33.07
2021-06-30 18:40:10.890625000,-64.0,13.0,3.0,89.51171875,-12.74,3.509582,33.07
2021-06-30 18:40:10.898437500,-64.0,13.0,3.0,89.50945312500001,-14.305,3.509582,33.07
2021-06-30 18:40:10.906250000,-64.0,13.0,3.0,89.5071875,-15.87,3.509582,33.07
2021-06-30 18:40:10.914062500,-64.0,13.0,3.0,89.50492187500001,-17.835,3.509582,33.07
2021-06-30 18:40:10.921875000,-64.0,13.0,3.0,89.50265625,-19.8,3.509582,33.07
2021-06-30 18:40:10.929687500,-64.0,13.0,3.0,89.50039062500001,-22.125,3.509582,33.07
2021-06-30 18:40:10.937500000,-64.0,13.0,3.0,89.498125,-24.45,3.509582,33.07
2021-06-30 18:40:10.945312500,-64.0,13.0,3.0,89.49585937500001,-26.975,3.509582,33.07
2021-06-30 18:40:10.953125000,-64.0,13.0,3.0,89.49359375,-29.5,3.509582,33.07
2021-06-30 18:40:10.960937500,-64.0,13.0,3.0,89.49132812500001,-31.955,3.509582,33.07
2021-06-30 18:40:10.968750000,-64.0,13.0,3.0,89.4890625,-34.41,3.509582,33.07
2021-06-30 18:40:10.976562500,-64.0,13.0,3.0,89.48679687500001,-36.435,3.509582,33.07
2021-06-30 18:40:10.984375000,-64.0,13.0,3.0,89.48453125,-38.46,3.509582,33.07
2021-06-30 18:40:10.992187500,-64.0,13.0,3.0,89.48226562500001,-39.69,3.509582,33.07
2021-06-30 18:40:11.000000000,-64.0,13.0,3.0,89.48,-40.92,3.509582,33.07
2021-06-30 18:40:11.007812500,-64.0,13.0,3.0,89.47757812500001,-41.075,3.50934178125,33.07
2021-06-30 18:40:11.015625000,-64.0,13.0,3.0,89.47515625,-41.23,3.5091015625,33.07
2021-06-30 18:40:11.023437500,-64.0,13.0,3.0,89.472734375,-40.209999999999994,3.50886134375,33.07
2021-06-30 18:40:11.031250000,-64.0,13.0,3.0,89.4703125,-39.19,3.508621125,33.07
2021-06-30 18:40:11.039062500,-64.0,13.0,3.0,89.46789062500001,-37.125,3.50838090625,33.07
2021-06-30 18:40:11.046875000,-64.0,13.0,3.0,89.46546875,-35.06,3.5081406875,33.07
2021-06-30 18:40:11.054687500,-64.0,13.0,3.0,89.463046875,-32.295,3.50790046875,33.07
2021-06-30 18:40:11.062500000,-64.0,13.0,3.0,89.46062500000001,-29.53,3.50766025,33.07
2021-06-30 18:40:11.070312500,-64.0,13.0,3.0,89.458203125,-26.525,3.50742003125,33.07
2021-06-30 18:40:11.078125000,-64.0,13.0,3.0,89.45578125,-23.52,3.5071798125,33.07
2021-06-30 18:40:11.085937500,-64.0,13.0,3.0,89.453359375,-20.72,3.50693959375,33.07
2021-06-30 18:40:11.093750000,-64.0,13.0,3.0,89.45093750000001,-17.92,3.506699375,33.07
2021-06-30 18:40:11.101562500,-64.0,13.0,3.0,89.448515625,-15.615000000000002,3.50645915625,33.07
2021-06-30 18:40:11.109375000,-64.0,13.0,3.0,89.44609375,-13.31,3.5062189375,33.07
2021-06-30 18:40:11.117187500,-64.0,13.0,3.0,89.443671875,-11.58,3.5059787187500002,33.07
2021-06-30 18:40:11.125000000,-64.0,13.0,3.0,89.44125,-9.85,3.5057385,33.07
2021-06-30 18:40:11.132812500,-64.0,13.0,2.75,89.438828125,-8.57,3.50549828125,33.07
2021-06-30 18:40:11.140625000,-64.0,13.0,2.5,89.43640625,-7.29,3.5052580625000003,33.07
2021-06-30 18:40:11.148437500,-64.0,13.0,2.25,89.43398437500001,-6.23,3.50501784375,33.07
2021-06-30 18:40:11.156250000,-64.0,13.0,2.0,89.4315625,-5.17,3.504777625,33.07
2021-06-30 18:40:11.164062500,-64.0,13.0,2.25,89.429140625,-4.105,3.5045374062500003,33.07
2021-06-30 18:40:11.171875000,-64.0,13.0,2.5,89.42671875,-3.04,3.5042971875,33.07
2021-06-30 18:40:11.179687500,-64.0,13.0,2.75,89.42429687500001,-1.83,3.50405696875,33.07
2021-06-30 18:40:11.187500000,-64.0,13.0,3.0,89.421875,-0.62,3.5038167500000004,33.07
2021-06-30 18:40:11.195312500,-64.0,13.0,3.0,89.419453125,0.735,3.5035765312500002,33.07
2021-06-30 18:40:11.203125000,-64.0,13.0,3.0,89.41703125000001,2.09,3.5033363125,33.07
2021-06-30 18:40:11.210937500,-64.0,13.0,3.0,89.414609375,3.51,3.50309609375,33.07
2021-06-30 18:40:11.218750000,-64.0,13.0,3.0,89.4121875,4.93,3.5028558750000003,33.07
2021-06-30 18:40:11.226562500,-64.0,13.0,3.25,89.409765625,6.26,3.50261565625,33.07
2021-06-30 18:40:11.234375000,-64.0,13.0,3.5,89.40734375000001,7.59,3.5023754375,33.07
2021-06-30 18:40:11.242187500,-64.0,13.0,3.75,89.404921875,8.695,3.5021352187500003,33.07
2021-06-30 18:40:11.250000000,-64.0,13.0,4.0,89.4025,9.8,3.501895,33.07
2021-06-30 18:40:11.257812500,-64.0,13.0,3.75,89.40007812500001,10.59,3.50177490625,33.07
2021-06-30 18:40:11.265625000,-64.0,13.0,3.5,89.39765625,11.38,3.5016548125,33.07
2021-06-30 18:40:11.273437500,-64.0,13.0,3.25,89.395234375,11.84,3.5015347187500003,33.07
2021-06-30 18:40:11.281250000,-64.0,13.0,3.0,89.3928125,12.3,3.5014146250000002,33.07
2021-06-30 18:40:11.289062500,-64.0,13.0,3.0,89.39039062500001,12.47,3.50129453125,33.07
2021-06-30 18:40:11.296875000,-64.0,13.0,3.0,89.38796875,12.64,3.5011744375,33.07
2021-06-30 18:40:11.304687500,-64.0,13.0,3.0,89.385546875,12.600000000000001,3.5010543437500004,33.07
2021-06-30 18:40:11.312500000,-64.0,13.0,3.0,89.383125,12.56,3.5009342500000002,33.07
2021-06-30 18:40:11.320312500,-64.0,13.0,3.0,89.380703125,12.415,3.50081415625,33.07
2021-06-30 18:40:11.328125000,-64.0,13.0,3.0,89.37828125,12.27,3.5006940625,33.07
2021-06-30 18:40:11.335937500,-64.0,13.0,3.0,89.375859375,12.105,3.50057396875,33.07
2021-06-30 18:40:11.343750000,-64.0,13.0,3.0,89.37343750000001,11.94,3.5004538750000003,33.07
2021-06-30 18:40:11.351562500,-64.0,13.0,3.0,89.371015625,11.815,3.50033378125,33.07
2021-06-30 18:40:11.359375000,-64.0,13.0,3.0,89.36859375,11.69,3.5002136875,33.07
2021-06-30 18:40:11.367187500,-64.0,13.0,3.0,89.366171875,11.645,3.50009359375,33.07
2021-06-30 18:40:11.375000000,-64.0,13.0,3.0,89.36375000000001,11.6,3.4999735000000003,33.07
2021-06-30 18:40:11.382812500,-64.0,13.0,3.0,89.361328125,11.64,3.49985340625,33.07
2021-06-30 18:40:11.390625000,-64.0,13.0,3.0,89.35890625,11.68,3.4997333125,33.07
2021-06-30 18:40:11.398437500,-64.0,13.0,3.0,89.35648437500001,11.809999999999999,3.49961321875,33.07
2021-06-30 18:40:11.406250000,-64.0,13.0,3.0,89.3540625,11.94,3.499493125,33.07
2021-06-30 18:40:11.414062500,-64.0,13.0,3.0,89.351640625,12.129999999999999,3.49937303125,33.07
2021-06-30 18:40:11.421875000,-64.0,13.0,3.0,89.34921875,12.32,3.4992529375,33.07
2021-06-30 18:40:11.429687500,-64.0,13.0,3.0,89.34679687500001,12.49,3.49913284375,33.07
2021-06-30 18:40:11.437500000,-64.0,13.0,3.0,89.344375,12.66,3.49901275,33.07
2021-06-30 18:40:11.445312500,-64.0,13.0,3.0,89.341953125,12.715,3.49889265625,33.07
2021-06-30 18:40:11.453125000,-64.0,13.0,3.0,89.33953125000001,12.77,3.4987725625,33.07
2021-06-30 18:40:11.460937500,-64.0,13.0,3.0,89.337109375,12.59,3.49865246875,33.07
2021-06-30 18:40:11.468750000,-64.0,13.0,3.0,89.3346875,12.41,3.498532375,33.07
2021-06-30 18:40:11.476562500,-64.0,13.0,3.0,89.332265625,11.96,3.49841228125,33.07
2021-06-30 18:40:11.484375000,-64.0,13.0,3.0,89.32984375000001,11.51,3.4982921875,33.07
2021-06-30 18:40:11.492187500,-64.0,13.0,3.0,89.327421875,10.809999999999999,3.49817209375,33.07
2021-06-30 18:40:11.500000000,-64.0,13.0,3.0,89.325,10.11,3.498052,33.07
2021-06-30 18:40:11.507812500,-64.0,13.0,3.0,89.322578125,9.27,3.49809203125,33.07
2021-06-30 18:40:11.515625000,-64.0,13.0,3.0,89.32015625,8.43,3.4981320625,33.07
2021-06-30 18:40:11.523437500,-64.0,13.0,3.0,89.317734375,7.585,3.49817209375,33.07
2021-06-30 18:40:11.531250000,-64.0,13.0,3.0,89.3153125,6.74,3.498212125,33.07
2021-06-30 18:40:11.539062500,-64.0,13.0,3.0,89.31289062500001,6.005,3.49825215625,33.07
2021-06-30 18:40:11.546875000,-64.0,13.0,3.0,89.31046875,5.27,3.4982921875,33.07
2021-06-30 18:40:11.554687500,-64.0,13.0,3.0,89.308046875,4.699999999999999,3.49833221875,33.07
2021-06-30 18:40:11.562500000,-64.0,13.0,3.0,89.305625,4.13,3.49837225,33.07
2021-06-30 18:40:11.570312500,-64.0,13.0,3.0,89.303203125,3.705,3.49841228125,33.07
2021-06-30 18:40:11.578125000,-64.0,13.0,3.0,89.30078125,3.28,3.4984523125,33.07
2021-06-30 18:40:11.585937500,-64.0,13.0,3.0,89.298359375,2.95,3.49849234375,33.07
2021-06-30 18:40:11.593750000,-64.0,13.0,3.0,89.29593750000001,2.62,3.498532375,33.07
2021-06-30 18:40:11.601562500,-64.0,13.0,3.0,89.293515625,2.3200000000000003,3.49857240625,33.07
2021-06-30 18:40:11.609375000,-64.0,13.0,3.0,89.29109375,2.02,3.4986124375,33.07
2021-06-30 18:40:11.617187500,-64.0,13.0,3.0,89.288671875,1.685,3.49865246875,33.07
2021-06-30 18:40:11.625000000,-64.0,13.0,3.0,89.28625,1.35,3.4986924999999998,33.07
2021-06-30 18:40:11.632812500,-64.0,13.0,3.0,89.283828125,0.9650000000000001,3.49873253125,33.07
2021-06-30 18:40:11.640625000,-64.0,13.0,3.0,89.28140625,0.58,3.4987725625,33.07
2021-06-30 18:40:11.648437500,-64.0,13.0,3.0,89.27898437500001,0.12,3.49881259375,33.07
2021-06-30 18:40:11.656250000,-64.0,13.0,3.0,89.2765625,-0.34,3.498852625,33.07
2021-06-30 18:40:11.664062500,-64.0,13.0,3.0,89.274140625,-0.875,3.49889265625,33.07
2021-06-30 18:40:11.671875000,-64.0,13.0,3.0,89.27171875,-1.41,3.4989326875,33.07
2021-06-30 18:40:11.679687500,-64.0,13.0,3.0,89.26929687500001,-2.04,3.49897271875,33.07
2021-06-30 18:40:11.687500000,-64.0,13.0,3.0,89.266875,-2.67,3.49901275,33.07
2021-06-30 18:40:11.695312500,-64.0,13.0,3.0,89.264453125,-3.405,3.49905278125,33.07
2021-06-30 18:40:11.703125000,-64.0,13.0,3.0,89.26203125,-4.14,3.4990928125,33.07
2021-06-30 18:40:11.710937500,-64.0,13.0,3.0,89.259609375,-4.984999999999999,3.49913284375,33.07
2021-06-30 18:40:11.718750000,-64.0,13.0,3.0,89.2571875,-5.83,3.499172875,33.07
2021-06-30 18:40:11.726562500,-64.0,13.0,3.0,89.254765625,-6.77,3.49921290625,33.07
2021-06-30 18:40:11.734375000,-64.0,13.0,3.0,89.25234375000001,-7.71,3.4992529375,33.07
2021-06-30 18:40:11.742187500,-64.0,13.0,3.0,89.249921875,-8.69,3.49929296875,33.07
2021-06-30 18:40:11.750000000,-64.0,13.0,3.0,89.2475,-9.67,3.499333,33.07
2021-06-30 18:40:11.757812500,-64.0,13.0,3.0,89.245078125,-10.61,3.4991328125,33.07
2021-06-30 18:40:11.765625000,-64.0,13.0,3.0,89.24265625,-11.55,3.498932625,33.07
2021-06-30 18:40:11.773437500,-64.0,13.0,3.0,89.240234375,-12.4,3.4987324375,33.07
2021-06-30 18:40:11.781250000,-64.0,13.0,3.0,89.2378125,-13.25,3.4985322500000002,33.07
2021-06-30 18:40:11.789062500,-64.0,13.0,3.0,89.23539062500001,-14.004999999999999,3.4983320625,33.07
2021-06-30 18:40:11.796875000,-64.0,13.0,3.0,89.23296875,-14.76,3.498131875,33.07
2021-06-30 18:40:11.804687500,-64.0,13.0,3.0,89.230546875,-15.530000000000001,3.4979316875,33.07
2021-06-30 18:40:11.812500000,-64.0,13.0,3.0,89.228125,-16.3,3.4977315,33.07
2021-06-30 18:40:11.820312500,-64.0,13.0,3.0,89.225703125,-17.235,3.4975313125,33.07
2021-06-30 18:40:11.828125000,-64.0,13.0,3.0,89.22328125,-18.17,3.497331125,33.07
2021-06-30 18:40:11.835937500,-64.0,13.0,3.0,89.220859375,-19.425,3.4971309375,33.07
2021-06-30 18:40:11.843750000,-64.0,13.0,3.0,89.21843750000001,-20.68,3.4969307499999998,33.07
2021-06-30 18:40:11.851562500,-64.0,13.0,3.0,89.216015625,-22.29,3.4967305625,33.07
2021-06-30 18:40:11.859375000,-64.0,13.0,3.0,89.21359375,-23.9,3.496530375,33.07
2021-06-30 18:40:11.867187500,-64.0,13.0,3.0,89.211171875,-25.744999999999997,3.4963301875,33.07
2021-06-30 18:40:11.875000000,-64.0,13.0,3.0,89.20875000000001,-27.59,3.49613,33.07
2021-06-30 18:40:11.882812500,-64.0,13.0,3.0,89.206328125,-29.36,3.4959298125,33.07
2021-06-30 18:40:11.890625000,-64.0,13.0,3.0,89.20390625,-31.13,3.495729625,33.07
2021-06-30 18:40:11.898437500,-64.0,13.0,3.0,89.201484375,-32.46,3.4955294375,33.07
2021-06-30 18:40:11.906250000,-64.0,13.0,3.0,89.1990625,-33.79,3.49532925,33.07
2021-06-30 18:40:11.914062500,-64.0,13.0,3.0,89.196640625,-34.33,3.4951290624999998,33.07
2021-06-30 18:40:11.921875000,-64.0,13.0,3.0,89.19421875,-34.87,3.494928875,33.07
2021-06-30 18:40:11.929687500,-64.0,13.0,3.0,89.19179687500001,-34.415,3.4947286875,33.07
2021-06-30 18:40:11.937500000,-64.0,13.0,3.0,89.189375,-33.96,3.4945285,33.07
2021-06-30 18:40:11.945312500,-64.0,13.0,3.0,89.186953125,-32.53,3.4943283125,33.07
2021-06-30 18:40:11.953125000,-64.0,13.0,3.0,89.18453125,-31.1,3.494128125,33.07
2021-06-30 18:40:11.960937500,-64.0,13.0,3.0,89.182109375,-28.885,3.4939279375,33.07
2021-06-30 18:40:11.968750000,-64.0,13.0,3.0,89.1796875,-26.67,3.4937277499999997,33.07
2021-06-30 18:40:11.976562500,-64.0,13.0,3.0,89.177265625,-23.975,3.4935275624999997,33.07
2021-06-30 18:40:11.984375000,-64.0,13.0,3.0,89.17484375000001,-21.28,3.493327375,33.07
2021-06-30 18:40:11.992187500,-64.0,13.0,3.0,89.172421875,-18.435000000000002,3.4931271875,33.07
2021-06-30 18:40:12.000000000,-64.0,13.0,3.0,89.17,-15.59,3.492927,33.07
2021-06-30 18:40:12.007812500,-64.0,13.0,3.0,89.167265625,-12.875,3.4931271875,33.07
2021-06-30 18:40:12.015625000,-64.0,13.0,3.0,89.16453125,-10.16,3.493327375,33.07
2021-06-30 18:40:12.023437500,-64.0,13.0,3.0,89.16179687500001,-7.775,3.4935275624999997,33.07
2021-06-30 18:40:12.031250000,-64.0,13.0,3.0,89.1590625,-5.39,3.4937277499999997,33.07
2021-06-30 18:40:12.039062500,-64.0,13.0,3.0,89.156328125,-3.4349999999999996,3.4939279375,33.07
2021-06-30 18:40:12.046875000,-64.0,13.0,3.0,89.15359375,-1.48,3.494128125,33.07
2021-06-30 18:40:12.054687500,-64.0,13.0,3.0,89.150859375,0.02499999999999991,3.4943283125,33.07
2021-06-30 18:40:12.062500000,-64.0,13.0,3.0,89.14812500000001,1.53,3.4945285,33.07
2021-06-30 18:40:12.070312500,-64.0,13.0,3.0,89.145390625,2.6500000000000004,3.4947286875,33.07
2021-06-30 18:40:12.078125000,-64.0,13.0,3.0,89.14265625,3.77,3.494928875,33.07
2021-06-30 18:40:12.085937500,-64.0,13.0,3.0,89.139921875,4.615,3.4951290624999998,33.07
2021-06-30 18:40:12.093750000,-64.0,13.0,3.0,89.1371875,5.46,3.49532925,33.07
2021-06-30 18:40:12.101562500,-64.0,13.0,3.0,89.13445312500001,6.140000000000001,3.4955294375,33.07
2021-06-30 18:40:12.109375000,-64.0,13.0,3.0,89.13171875,6.82,3.495729625,33.07
2021-06-30 18:40:12.117187500,-64.0,13.0,3.0,89.128984375,7.46,3.4959298125,33.07
2021-06-30 18:40:12.125000000,-64.0,13.0,3.0,89.12625,8.1,3.49613,33.07
2021-06-30 18:40:12.132812500,-64.0,13.25,3.0,89.123515625,8.76,3.4963301875,33.07
2021-06-30 18:40:12.140625000,-64.0,13.5,3.0,89.12078125000001,9.42,3.496530375,33.07
2021-06-30 18:40:12.148437500,-64.0,13.75,3.0,89.118046875,10.1,3.4967305625,33.07
2021-06-30 18:40:12.156250000,-64.0,14.0,3.0,89.1153125,10.78,3.4969307499999998,33.07
2021-06-30 18:40:12.164062500,-64.0,13.75,3.0,89.112578125,11.44,3.4971309375,33.07
2021-06-30 18:40:12.171875000,-64.0,13.5,3.0,89.10984375,12.1,3.497331125,33.07
2021-06-30 18:40:12.179687500,-64.0,13.25,3.0,89.107109375,12.649999999999999,3.4975313125,33.07
2021-06-30 18:40:12.187500000,-64.0,13.0,3.0,89.104375,13.2,3.4977315,33.07
2021-06-30 18:40:12.195312500,-64.0,13.0,3.0,89.101640625,13.575,3.4979316875,33.07
2021-06-30 18:40:12.203125000,-64.0,13.0,3.0,89.09890625,13.95,3.498131875,33.07
2021-06-30 18:40:12.210937500,-64.0,13.0,3.0,89.096171875,14.09,3.4983320625,33.07
2021-06-30 18:40:12.218750000,-64.0,13.0,3.0,89.0934375,14.23,3.4985322500000002,33.07
2021-06-30 18:40:12.226562500,-64.0,13.0,3.0,89.090703125,14.15,3.4987324375,33.07
2021-06-30 18:40:12.234375000,-64.0,13.0,3.0,89.08796875,14.07,3.498932625,33.07
2021-06-30 18:40:12.242187500,-64.0,13.0,3.0,89.085234375,13.81,3.4991328125,33.07
2021-06-30 18:40:12.250000000,-64.0,13.0,3.0,89.0825,13.55,3.499333,33.07
2021-06-30 18:40:12.257812500,-64.0,13.0,3.0,89.079765625,13.195,3.498892625,33.07
2021-06-30 18:40:12.265625000,-64.0,13.0,3.0,89.07703125,12.84,3.49845225,33.07
2021-06-30 18:40:12.273437500,-64.0,13.0,3.0,89.074296875,12.469999999999999,3.498011875,33.07
2021-06-30 18:40:12.281250000,-64.0,13.0,3.0,89.0715625,12.1,3.4975715,33.07
2021-06-30 18:40:12.289062500,-64.0,13.0,3.0,89.068828125,11.785,3.497131125,33.07
2021-06-30 18:40:12.296875000,-64.0,13.0,3.0,89.06609375,11.47,3.49669075,33.07
2021-06-30 18:40:12.304687500,-64.0,13.0,3.0,89.063359375,11.235,3.496250375,33.07
2021-06-30 18:40:12.312500000,-64.0,13.0,3.0,89.060625,11.0,3.49581,33.07
2021-06-30 18:40:12.320312500,-64.0,13.0,3.0,89.057890625,10.865,3.495369625,33.07
2021-06-30 18:40:12.328125000,-64.0,13.0,3.0,89.05515625,10.73,3.4949292499999998,33.07
2021-06-30 18:40:12.335937500,-64.0,13.0,3.0,89.052421875,10.71,3.494488875,33.07
2021-06-30 18:40:12.343750000,-64.0,13.0,3.0,89.0496875,10.69,3.4940485,33.07
2021-06-30 18:40:12.351562500,-64.0,13.0,3.0,89.046953125,10.785,3.4936081249999997,33.07
2021-06-30 18:40:12.359375000,-64.0,13.0,3.0,89.04421875,10.88,3.49316775,33.07
2021-06-30 18:40:12.367187500,-64.0,13.0,3.0,89.041484375,11.075,3.492727375,33.07
2021-06-30 18:40:12.375000000,-64.0,13.0,3.0,89.03875,11.27,3.492287,33.07
2021-06-30 18:40:12.382812500,-64.0,13.0,3.0,89.036015625,11.53,3.491846625,33.07
2021-06-30 18:40:12.390625000,-64.0,13.0,3.0,89.03328125,11.79,3.49140625,33.07
2021-06-30 18:40:12.398437500,-64.0,13.0,3.0,89.030546875,12.035,3.490965875,33.07
2021-06-30 18:40:12.406250000,-64.0,13.0,3.0,89.0278125,12.28,3.4905255,33.07
2021-06-30 18:40:12.414062500,-64.0,13.0,2.75,89.025078125,12.434999999999999,3.490085125,33.07
2021-06-30 18:40:12.421875000,-64.0,13.0,2.5,89.02234375,12.59,3.48964475,33.07
2021-06-30 18:40:12.429687500,-64.0,13.0,2.25,89.019609375,12.58,3.489204375,33.07
2021-06-30 18:40:12.437500000,-64.0,13.0,2.0,89.016875,12.57,3.4887639999999998,33.07
2021-06-30 18:40:12.445312500,-64.0,13.0,2.5,89.014140625,12.395,3.488323625,33.07
2021-06-30 18:40:12.453125000,-64.0,13.0,3.0,89.01140625,12.22,3.48788325,33.07
2021-06-30 18:40:12.460937500,-64.0,13.0,3.5,89.008671875,11.925,3.4874428749999997,33.07
2021-06-30 18:40:12.468750000,-64.0,13.0,4.0,89.0059375,11.63,3.4870025,33.07
2021-06-30 18:40:12.476562500,-64.0,13.25,4.0,89.003203125,11.3,3.486562125,33.07
2021-06-30 18:40:12.484375000,-64.0,13.5,4.0,89.00046875,10.97,3.4861217499999997,33.07
2021-06-30 18:40:12.492187500,-64.0,13.75,4.0,88.997734375,10.695,3.485681375,33.07
2021-06-30 18:40:12.500000000,-64.0,14.0,4.0,88.995,10.42,3.485241,33.07
2021-06-30 18:40:12.507812500,-64.0,14.0,3.75,88.992265625,10.225,3.485241,33.07
2021-06-30 18:40:12.515625000,-64.0,14.0,3.5,88.98953125,10.03,3.485241,33.07
2021-06-30 18:40:12.523437500,-64.0,14.0,3.25,88.986796875,9.915,3.485241,33.07
2021-06-30 18:40:12.531250000,-64.0,14.0,3.0,88.9840625,9.8,3.485241,33.07
2021-06-30 18:40:12.539062500,-64.0,13.75,3.0,88.98132812499999,9.705,3.485241,33.07
2021-06-30 18:40:12.546875000,-64.0,13.5,3.0,88.97859375,9.61,3.485241,33.07
2021-06-30 18:40:12.554687500,-64.0,13.25,3.0,88.975859375,9.469999999999999,3.485241,33.07
2021-06-30 18:40:12.562500000,-64.0,13.0,3.0,88.973125,9.33,3.485241,33.07
2021-06-30 18:40:12.570312500,-64.0,13.0,3.0,88.970390625,9.07,3.485241,33.07
2021-06-30 18:40:12.578125000,-64.0,13.0,3.0,88.96765624999999,8.81,3.485241,33.07
2021-06-30 18:40:12.585937500,-64.0,13.0,3.0,88.964921875,8.41,3.485241,33.07
2021-06-30 18:40:12.593750000,-64.0,13.0,3.0,88.9621875,8.01,3.485241,33.07
2021-06-30 18:40:12.601562500,-64.0,13.0,3.0,88.959453125,7.4350000000000005,3.485241,33.07
2021-06-30 18:40:12.609375000,-64.0,13.0,3.0,88.95671875,6.86,3.485241,33.07
2021-06-30 18:40:12.617187500,-64.0,13.0,3.0,88.95398437499999,6.155,3.485241,33.07
2021-06-30 18:40:12.625000000,-64.0,13.0,3.0,88.95125,5.45,3.485241,33.07
2021-06-30 18:40:12.632812500,-64.0,13.25,3.0,88.948515625,4.66,3.485241,33.07
2021-06-30 18:40:12.640625000,-64.0,13.5,3.0,88.94578125,3.87,3.485241,33.07
2021-06-30 18:40:12.648437500,-64.0,13.75,3.0,88.943046875,3.055,3.485241,33.07
2021-06-30 18:40:12.656250000,-64.0,14.0,3.0,88.94031249999999,2.24,3.485241,33.07
2021-06-30 18:40:12.664062500,-64.0,14.0,3.0,88.937578125,1.4500000000000002,3.485241,33.07
2021-06-30 18:40:12.671875000,-64.0,14.0,3.0,88.93484375,0.66,3.485241,33.07
2021-06-30 18:40:12.679687500,-64.0,14.0,3.0,88.932109375,-0.09499999999999997,3.485241,33.07
2021-06-30 18:40:12.687500000,-64.0,14.0,3.0,88.929375,-0.85,3.485241,33.07
2021-06-30 18:40:12.695312500,-64.0,13.75,3.0,88.92664062499999,-1.58,3.485241,33.07
2021-06-30 18:40:12.703125000,-64.0,13.5,3.0,88.92390625,-2.31,3.485241,33.07
2021-06-30 18:40:12.710937500,-64.0,13.25,3.0,88.921171875,-3.04,3.485241,33.07
2021-06-30 18:40:12.718750000,-64.0,13.0,3.0,88.9184375,-3.77,3.485241,33.07
2021-06-30 18:40:12.726562500,-64.0,13.0,3.0,88.915703125,-4.535,3.485241,33.07
2021-06-30 18:40:12.734375000,-64.0,13.0,3.0,88.91296874999999,-5.3,3.485241,33.07
2021-06-30 18:40:12.742187500,-64.0,13.0,3.0,88.910234375,-6.15,3.485241,33.07
2021-06-30 18:40:12.750000000,-64.0,13.0,3.0,88.9075,-7.0,3.485241,33.07
2021-06-30 18:40:12.757812500,-64.0,13.0,3.0,88.904765625,-7.995,3.4854811875,33.07
2021-06-30 18:40:12.765625000,-64.0,13.0,3.0,88.90203125,-8.99,3.485721375,33.07
2021-06-30 18:40:12.773437500,-64.0,13.0,3.0,88.89929687499999,-10.195,3.4859615625,33.07
2021-06-30 18:40:12.781250000,-64.0,13.0,3.0,88.8965625,-11.4,3.4862017499999998,33.07
2021-06-30 18:40:12.789062500,-64.0,13.0,3.0,88.893828125,-12.83,3.4864419375,33.07
2021-06-30 18:40:12.796875000,-64.0,13.0,3.0,88.89109375,-14.26,3.4866821249999997,33.07
2021-06-30 18:40:12.804687500,-64.0,13.0,3.0,88.888359375,-15.835,3.4869223125,33.07
2021-06-30 18:40:12.812500000,-64.0,13.0,3.0,88.88562499999999,-17.41,3.4871624999999997,33.07
2021-06-30 18:40:12.820312500,-64.0,13.0,3.0,88.882890625,-18.925,3.4874026875,33.07
2021-06-30 18:40:12.828125000,-64.0,13.0,3.0,88.88015625,-20.44,3.4876428749999997,33.07
2021-06-30 18:40:12.835937500,-64.0,13.0,3.0,88.877421875,-21.59,3.4878830625,33.07
2021-06-30 18:40:12.843750000,-64.0,13.0,3.0,88.8746875,-22.74,3.4881232499999997,33.07
2021-06-30 18:40:12.851562500,-64.0,13.0,3.0,88.87195312499999,-23.174999999999997,3.4883634375,33.07
2021-06-30 18:40:12.859375000,-64.0,13.0,3.0,88.86921874999999,-23.61,3.4886036249999997,33.07
2021-06-30 18:40:12.867187500,-64.0,13.0,3.0,88.866484375,-23.11,3.4888438125,33.07
2021-06-30 18:40:12.875000000,-64.0,13.0,3.0,88.86375,-22.61,3.489084,33.07
2021-06-30 18:40:12.882812500,-64.0,13.0,3.0,88.861015625,-21.13,3.4893241875,33.07
2021-06-30 18:40:12.890625000,-64.0,13.0,3.0,88.85828124999999,-19.65,3.489564375,33.07
2021-06-30 18:40:12.898437500,-64.0,13.0,3.0,88.85554687499999,-17.369999999999997,3.4898045625,33.07
2021-06-30 18:40:12.906250000,-64.0,13.0,3.0,88.8528125,-15.09,3.49004475,33.07
2021-06-30 18:40:12.914062500,-64.0,13.0,3.0,88.850078125,-12.370000000000001,3.4902849375,33.07
2021-06-30 18:40:12.921875000,-64.0,13.0,3.0,88.84734375,-9.65,3.490525125,33.07
2021-06-30 18:40:12.929687500,-64.0,13.0,3.0,88.84460937499999,-6.92,3.4907653124999998,33.07
2021-06-30 18:40:12.937500000,-64.0,13.0,3.0,88.84187499999999,-4.19,3.4910055,33.07
2021-06-30 18:40:12.945312500,-64.0,13.25,2.75,88.839140625,-1.8250000000000002,3.4912456874999998,33.07
2021-06-30 18:40:12.953125000,-64.0,13.5,2.5,88.83640625,0.54,3.491485875,33.07
2021-06-30 18:40:12.960937500,-64.0,13.75,2.25,88.833671875,2.295,3.4917260624999997,33.07
2021-06-30 18:40:12.968750000,-64.0,14.0,2.0,88.83093749999999,4.05,3.49196625,33.07
2021-06-30 18:40:12.976562500,-64.0,14.0,2.25,88.82820312499999,5.15,3.4922064374999997,33.07
2021-06-30 18:40:12.984375000,-64.0,14.0,2.5,88.82546875,6.25,3.492446625,33.07
2021-06-30 18:40:12.992187500,-64.0,14.0,2.75,88.822734375,6.79,3.4926868124999997,33.07
2021-06-30 18:40:13.000000000,-64.0,14.0,3.0,88.82,7.33,3.492927,33.07
2021-06-30 18:40:13.007812500,-64.0,13.75,3.0,88.81726562499999,7.505,3.49272684375,33.069375
2021-06-30 18:40:13.015625000,-64.0,13.5,3.0,88.81453124999999,7.68,3.4925266875,33.06875
2021-06-30 18:40:13.023437500,-64.0,13.25,3.0,88.811796875,7.699999999999999,3.49232653125,33.068125
2021-06-30 18:40:13.031250000,-64.0,13.0,3.0,88.8090625,7.72,3.492126375,33.0675
2021-06-30 18:40:13.039062500,-64.0,13.0,3.0,88.806328125,7.755,3.4919262187499998,33.066875
2021-06-30 18:40:13.046875000,-64.0,13.0,3.0,88.80359374999999,7.79,3.4917260624999997,33.06625
2021-06-30 18:40:13.054687500,-64.0,13.0,3.0,88.80085937499999,7.914999999999999,3.4915259062499997,33.065625
2021-06-30 18:40:13.062500000,-64.0,13.0,3.0,88.798125,8.04,3.4913257499999997,33.065
2021-06-30 18:40:13.070312500,-64.0,13.0,3.0,88.795390625,8.254999999999999,3.49112559375,33.064375
2021-06-30 18:40:13.078125000,-64.0,13.0,3.0,88.79265625,8.47,3.4909254375,33.06375
2021-06-30 18:40:13.085937500,-64.0,13.0,3.0,88.78992187499999,8.735,3.49072528125,33.063125
2021-06-30 18:40:13.093750000,-64.0,13.0,3.0,88.78718749999999,9.0,3.490525125,33.0625
2021-06-30 18:40:13.101562500,-64.0,13.0,3.0,88.784453125,9.26,3.49032496875,33.061875
2021-06-30 18:40:13.109375000,-64.0,13.0,3.0,88.78171875,9.52,3.4901248125,33.06125
2021-06-30 18:40:13.117187500,-64.0,13.0,3.0,88.778984375,9.745000000000001,3.48992465625,33.060625
2021-06-30 18:40:13.125000000,-64.0,13.0,3.0,88.77624999999999,9.97,3.4897245,33.06
2021-06-30 18:40:13.132812500,-64.0,13.0,3.0,88.77351562499999,10.16,3.48952434375,33.059374999999996
2021-06-30 18:40:13.140625000,-64.0,13.0,3.0,88.77078125,10.35,3.4893241875,33.058749999999996
2021-06-30 18:40:13.148437500,-64.0,13.0,3.0,88.768046875,10.524999999999999,3.48912403125,33.058125
2021-06-30 18:40:13.156250000,-64.0,13.0,3.0,88.7653125,10.7,3.488923875,33.0575
2021-06-30 18:40:13.164062500,-64.0,13.0,3.0,88.76257812499999,10.885,3.4887237187499998,33.056875
2021-06-30 18:40:13.171875000,-64.0,13.0,3.0,88.75984374999999,11.07,3.4885235624999997,33.05625
2021-06-30 18:40:13.179687500,-64.0,13.0,3.0,88.757109375,11.285,3.4883234062499997,33.055625
2021-06-30 18:40:13.187500000,-64.0,13.0,3.0,88.754375,11.5,3.48812325,33.055
2021-06-30 18:40:13.195312500,-64.0,13.0,3.0,88.751640625,11.754999999999999,3.48792309375,33.054375
2021-06-30 18:40:13.203125000,-64.0,13.0,3.0,88.74890624999999,12.01,3.4877229375,33.05375
2021-06-30 18:40:13.210937500,-64.0,13.0,3.0,88.74617187499999,12.315,3.48752278125,33.053124999999994
2021-06-30 18:40:13.218750000,-64.0,13.0,3.0,88.7434375,12.62,3.487322625,33.052499999999995
2021-06-30 18:40:13.226562500,-64.0,13.25,3.0,88.740703125,12.945,3.48712246875,33.051874999999995
2021-06-30 18:40:13.234375000,-64.0,13.5,3.0,88.73796875,13.27,3.4869223125,33.051249999999996
2021-06-30 18:40:13.242187500,-64.0,13.75,3.0,88.73523437499999,13.605,3.48672215625,33.050625
2021-06-30 18:40:13.250000000,-64.0,14.0,3.0,88.73249999999999,13.94,3.486522,33.05
2021-06-30 18:40:13.257812500,-64.0,13.75,3.0,88.729765625,14.235,3.486401875,33.05
2021-06-30 18:40:13.265625000,-64.0,13.5,3.0,88.72703125,14.53,3.48628175,33.05
2021-06-30 18:40:13.273437500,-64.0,13.25,3.0,88.724296875,14.75,3.486161625,33.05
2021-06-30 18:40:13.281250000,-64.0,13.0,3.0,88.72156249999999,14.97,3.4860415,33.05
2021-06-30 18:40:13.289062500,-64.0,13.25,3.0,88.718828125,15.065000000000001,3.4859213749999998,33.05
2021-06-30 18:40:13.296875000,-64.0,13.5,3.0,88.71609375,15.16,3.4858012499999997,33.05
2021-06-30 18:40:13.304687500,-64.0,13.75,3.0,88.713359375,15.07,3.4856811249999997,33.05
2021-06-30 18:40:13.312500000,-64.0,14.0,3.0,88.710625,14.98,3.4855609999999997,33.05
2021-06-30 18:40:13.320312500,-64.0,13.75,3.0,88.70789062499999,14.66,3.485440875,33.05
2021-06-30 18:40:13.328125000,-64.0,13.5,3.0,88.70515625,14.34,3.48532075,33.05
2021-06-30 18:40:13.335937500,-64.0,13.25,3.0,88.702421875,13.77,3.485200625,33.05
2021-06-30 18:40:13.343750000,-64.0,13.0,3.0,88.6996875,13.2,3.4850805,33.05
2021-06-30 18:40:13.351562500,-64.0,13.0,3.0,88.696953125,12.415,3.484960375,33.05
2021-06-30 18:40:13.359375000,-64.0,13.0,3.0,88.69421874999999,11.63,3.48484025,33.05
2021-06-30 18:40:13.367187500,-64.0,13.0,3.0,88.691484375,10.74,3.484720125,33.05
2021-06-30 18:40:13.375000000,-64.0,13.0,3.0,88.68875,9.85,3.4846,33.05
2021-06-30 18:40:13.382812500,-64.0,13.0,3.0,88.686015625,8.995000000000001,3.484479875,33.05
2021-06-30 18:40:13.390625000,-64.0,13.0,3.0,88.68328125,8.14,3.48435975,33.05
2021-06-30 18:40:13.398437500,-64.0,13.0,3.0,88.68054687499999,7.465,3.484239625,33.05
2021-06-30 18:40:13.406250000,-64.0,13.0,3.0,88.6778125,6.79,3.4841195,33.05
2021-06-30 18:40:13.414062500,-64.0,13.0,3.0,88.675078125,6.355,3.483999375,33.05
2021-06-30 18:40:13.421875000,-64.0,13.0,3.0,88.67234375,5.92,3.4838792499999998,33.05
2021-06-30 18:40:13.429687500,-64.0,13.0,3.0,88.669609375,5.695,3.4837591249999997,33.05
2021-06-30 18:40:13.437500000,-64.0,13.0,3.0,88.66687499999999,5.47,3.483639,33.05
2021-06-30 18:40:13.445312500,-64.0,13.0,3.0,88.664140625,5.355,3.483518875,33.05
2021-06-30 18:40:13.453125000,-64.0,13.0,3.0,88.66140625,5.24,3.48339875,33.05
2021-06-30 18:40:13.460937500,-64.0,13.0,3.0,88.658671875,5.115,3.483278625,33.05
2021-06-30 18:40:13.468750000,-64.0,13.0,3.0,88.6559375,4.99,3.4831585,33.05
2021-06-30 18:40:13.476562500,-64.0,13.25,3.0,88.65320312499999,4.775,3.483038375,33.05
2021-06-30 18:40:13.484375000,-64.0,13.5,3.0,88.65046875,4.56,3.48291825,33.05
2021-06-30 18:40:13.492187500,-64.0,13.75,3.0,88.647734375,4.2299999999999995,3.482798125,33.05
2021-06-30 18:40:13.500000000,-64.0,14.0,3.0,88.645,3.9,3.482678,33.05
2021-06-30 18:40:13.507812500,-64.0,13.75,3.0,88.642265625,3.46,3.4825979375,33.05
2021-06-30 18:40:13.515625000,-64.0,13.5,3.0,88.63953124999999,3.02,3.482517875,33.05
2021-06-30 18:40:13.523437500,-64.0,13.25,3.0,88.636796875,2.48,3.4824378125,33.05
2021-06-30 18:40:13.531250000,-64.0,13.0,3.0,88.6340625,1.94,3.48235775,33.05
2021-06-30 18:40:13.539062500,-64.0,13.0,3.0,88.631328125,1.31,3.4822776875,33.05
2021-06-30 18:40:13.546875000,-64.0,13.0,3.0,88.62859375,0.68,3.482197625,33.05
2021-06-30 18:40:13.554687500,-64.0,13.0,3.0,88.62585937499999,-0.029999999999999916,3.4821175625,33.05
2021-06-30 18:40:13.562500000,-64.0,13.0,3.0,88.623125,-0.74,3.4820375,33.05
2021-06-30 18:40:13.570312500,-64.0,13.0,3.0,88.620390625,-1.48,3.4819574375,33.05
2021-06-30 18:40:13.578125000,-64.0,13.0,3.0,88.61765625,-2.22,3.481877375,33.05
2021-06-30 18:40:13.585937500,-64.0,13.0,3.0,88.614921875,-2.91,3.4817973125,33.05
2021-06-30 18:40:13.593750000,-64.0,13.0,3.0,88.61218749999999,-3.6,3.48171725,33.05
2021-06-30 18:40:13.601562500,-64.0,13.0,2.75,88.609453125,-4.175,3.4816371875,33.05
2021-06-30 18:40:13.609375000,-64.0,13.0,2.5,88.60671875,-4.75,3.481557125,33.05
2021-06-30 18:40:13.617187500,-64.0,13.0,2.25,88.603984375,-5.1850000000000005,3.4814770625,33.05
2021-06-30 18:40:13.625000000,-64.0,13.0,2.0,88.60125,-5.62,3.4813970000000003,33.05
2021-06-30 18:40:13.632812500,-64.0,13.0,2.25,88.59851562499999,-5.984999999999999,3.4813169375,33.05
2021-06-30 18:40:13.640625000,-64.0,13.0,2.5,88.59578125,-6.35,3.481236875,33.05
2021-06-30 18:40:13.648437500,-64.0,13.0,2.75,88.593046875,-6.8,3.4811568125,33.05
2021-06-30 18:40:13.656250000,-64.0,13.0,3.0,88.5903125,-7.25,3.48107675,33.05
2021-06-30 18:40:13.664062500,-64.0,13.0,3.0,88.587578125,-7.945,3.4809966875000002,33.05
2021-06-30 18:40:13.671875000,-64.0,13.0,3.0,88.58484374999999,-8.64,3.4809166250000003,33.05
2021-06-30 18:40:13.679687500,-64.0,13.0,3.0,88.582109375,-9.655000000000001,3.4808365625,33.05
2021-06-30 18:40:13.687500000,-64.0,13.0,3.0,88.579375,-10.67,3.4807565,33.05
2021-06-30 18:40:13.695312500,-64.0,13.0,3.0,88.576640625,-11.995000000000001,3.4806764375,33.05
2021-06-30 18:40:13.703125000,-64.0,13.0,3.0,88.57390625,-13.32,3.480596375,33.05
2021-06-30 18:40:13.710937500,-64.0,13.0,3.0,88.57117187499999,-14.815,3.4805163125000003,33.05
2021-06-30 18:40:13.718750000,-64.0,13.0,3.0,88.5684375,-16.31,3.4804362500000003,33.05
2021-06-30 18:40:13.726562500,-64.0,13.0,3.0,88.565703125,-17.75,3.4803561875,33.05
2021-06-30 18:40:13.734375000,-64.0,13.0,3.0,88.56296875,-19.19,3.480276125,33.05
2021-06-30 18:40:13.742187500,-64.0,13.0,3.0,88.560234375,-20.32,3.4801960625,33.05
2021-06-30 18:40:13.750000000,-64.0,13.0,3.0,88.5575,-21.45,3.480116,33.05
2021-06-30 18:40:13.757812500,-64.0,13.0,3.0,88.554765625,-22.025,3.4803161875,33.05
2021-06-30 18:40:13.765625000,-64.0,13.0,3.0,88.55203125,-22.6,3.480516375,33.05
2021-06-30 18:40:13.773437500,-64.0,13.0,3.0,88.549296875,-22.450000000000003,3.4807165625,33.05
2021-06-30 18:40:13.781250000,-64.0,13.0,3.0,88.5465625,-22.3,3.48091675,33.05
2021-06-30 18:40:13.789062500,-64.0,13.0,3.0,88.543828125,-21.36,3.4811169375,33.05
2021-06-30 18:40:13.796875000,-64.0,13.0,3.0,88.54109375,-20.42,3.4813171250000003,33.05
2021-06-30 18:40:13.804687500,-64.0,13.0,3.0,88.538359375,-18.775,3.4815173125000003,33.05
2021-06-30 18:40:13.812500000,-64.0,13.0,3.0,88.535625,-17.13,3.4817175000000002,33.05
2021-06-30 18:40:13.820312500,-64.0,13.0,3.0,88.532890625,-15.0,3.4819176875,33.05
2021-06-30 18:40:13.828125000,-64.0,13.0,3.0,88.53015625,-12.87,3.482117875,33.05
2021-06-30 18:40:13.835937500,-64.0,13.0,3.0,88.527421875,-10.565,3.4823180625,33.05
2021-06-30 18:40:13.843750000,-64.0,13.0,3.0,88.5246875,-8.26,3.48251825,33.05
2021-06-30 18:40:13.851562500,-64.0,13.25,3.0,88.521953125,-6.109999999999999,3.4827184375,33.05
2021-06-30 18:40:13.859375000,-64.0,13.5,3.0,88.51921875,-3.96,3.482918625,33.05
2021-06-30 18:40:13.867187500,-64.0,13.75,3.0,88.516484375,-2.205,3.4831188125,33.05
2021-06-30 18:40:13.875000000,-64.0,14.0,3.0,88.51375,-0.45,3.483319,33.05
2021-06-30 18:40:13.882812500,-64.0,14.0,3.0,88.511015625,0.8050000000000002,3.4835191875000002,33.05
2021-06-30 18:40:13.890625000,-64.0,14.0,3.0,88.50828125,2.06,3.483719375,33.05
2021-06-30 18:40:13.898437500,-64.0,14.0,3.0,88.505546875,2.83,3.4839195625,33.05
2021-06-30 18:40:13.906250000,-64.0,14.0,3.0,88.5028125,3.6,3.48411975,33.05
2021-06-30 18:40:13.914062500,-64.0,13.75,3.0,88.500078125,3.9800000000000004,3.4843199375,33.05
2021-06-30 18:40:13.921875000,-64.0,13.5,3.0,88.49734375,4.36,3.484520125,33.05
2021-06-30 18:40:13.929687500,-64.0,13.25,3.0,88.494609375,4.475,3.4847203125,33.05
2021-06-30 18:40:13.937500000,-64.0,13.0,3.0,88.491875,4.59,3.4849205,33.05
2021-06-30 18:40:13.945312500,-64.0,13.0,3.0,88.489140625,4.545,3.4851206875,33.05
2021-06-30 18:40:13.953125000,-64.0,13.0,3.0,88.48640625,4.5,3.4853208749999998,33.05
2021-06-30 18:40:13.960937500,-64.0,13.0,3.0,88.483671875,4.37,3.4855210625,33.05
2021-06-30 18:40:13.968750000,-64.0,13.0,3.0,88.4809375,4.24,3.48572125,33.05
2021-06-30 18:40:13.976562500,-64.0,13.0,3.0,88.478203125,4.1,3.4859214375,33.05
2021-06-30 18:40:13.984375000,-64.0,13.0,3.0,88.47546875,3.96,3.486121625,33.05
2021-06-30 18:40:13.992187500,-64.0,13.0,3.0,88.472734375,3.8899999999999997,3.4863218125,33.05
2021-06-30 18:40:14.000000000,-64.0,13.0,3.0,88.47,3.82,3.486522,33.05
2021-06-30 18:40:14.007812500,-64.0,13.0,3.0,88.466953125,3.87,3.4866020625,33.050625
2021-06-30 18:40:14.015625000,-64.0,13.0,3.0,88.46390625,3.92,3.4866821249999997,33.051249999999996
2021-06-30 18:40:14.023437500,-64.0,13.0,3.0,88.460859375,4.125,3.4867621875,33.051874999999995
2021-06-30 18:40:14.031250000,-64.0,13.0,3.0,88.4578125,4.33,3.48684225,33.052499999999995
2021-06-30 18:40:14.039062500,-64.0,13.0,3.0,88.454765625,4.66,3.4869223125,33.053124999999994
2021-06-30 18:40:14.046875000,-64.0,13.0,3.0,88.45171875,4.99,3.487002375,33.05375
2021-06-30 18:40:14.054687500,-64.0,13.0,3.0,88.448671875,5.355,3.4870824375,33.054375
2021-06-30 18:40:14.062500000,-64.0,13.0,3.0,88.44562499999999,5.72,3.4871625,33.055
2021-06-30 18:40:14.070312500,-64.0,13.0,3.0,88.442578125,6.0600000000000005,3.4872425625,33.055625
2021-06-30 18:40:14.078125000,-64.0,13.0,3.0,88.43953125,6.4,3.487322625,33.05625
2021-06-30 18:40:14.085937500,-64.0,13.0,3.0,88.43648437499999,6.655,3.4874026875,33.056875
2021-06-30 18:40:14.093750000,-64.0,13.0,3.0,88.4334375,6.91,3.48748275,33.0575
2021-06-30 18:40:14.101562500,-64.0,13.0,3.0,88.430390625,7.09,3.4875628124999998,33.058125
2021-06-30 18:40:14.109375000,-64.0,13.0,3.0,88.42734375,7.27,3.487642875,33.058749999999996
2021-06-30 18:40:14.117187500,-64.0,13.0,3.0,88.424296875,7.42,3.4877229375,33.059374999999996
2021-06-30 18:40:14.125000000,-64.0,13.0,3.0,88.42125,7.57,3.487803,33.06
2021-06-30 18:40:14.132812500,-64.0,13.0,3.0,88.418203125,7.715,3.4878830625,33.060625
2021-06-30 18:40:14.140625000,-64.0,13.0,3.0,88.41515625,7.86,3.487963125,33.06125
2021-06-30 18:40:14.148437500,-64.0,13.0,3.0,88.412109375,8.015,3.4880431875,33.061875
2021-06-30 18:40:14.156250000,-64.0,13.0,3.0,88.4090625,8.17,3.48812325,33.0625
2021-06-30 18:40:14.164062500,-64.0,13.25,3.0,88.406015625,8.32,3.4882033125,33.063125
2021-06-30 18:40:14.171875000,-64.0,13.5,3.0,88.40296875,8.47,3.488283375,33.06375
2021-06-30 18:40:14.179687500,-64.0,13.75,3.0,88.399921875,8.575,3.4883634375,33.064375
2021-06-30 18:40:14.187500000,-64.0,14.0,3.0,88.396875,8.68,3.4884435,33.065
2021-06-30 18:40:14.195312500,-64.0,14.0,3.0,88.393828125,8.7,3.4885235625,33.065625
2021-06-30 18:40:14.203125000,-64.0,14.0,3.0,88.39078125,8.72,3.488603625,33.06625
2021-06-30 18:40:14.210937500,-64.0,14.0,3.0,88.387734375,8.615,3.4886836875,33.066875
2021-06-30 18:40:14.218750000,-64.0,14.0,3.0,88.3846875,8.51,3.48876375,33.0675
2021-06-30 18:40:14.226562500,-64.0,13.75,2.75,88.381640625,8.26,3.4888438125,33.068125
2021-06-30 18:40:14.234375000,-64.0,13.5,2.5,88.37859375,8.01,3.4889238750000002,33.06875
2021-06-30 18:40:14.242187500,-64.0,13.25,2.25,88.375546875,7.609999999999999,3.4890039375,33.069375
2021-06-30 18:40:14.250000000,-64.0,13.0,2.0,88.3725,7.21,3.489084,33.07
2021-06-30 18:40:14.257812500,-64.0,13.0,2.25,88.36945312499999,6.67,3.48904396875,33.07
2021-06-30 18:40:14.265625000,-64.0,13.0,2.5,88.36640625,6.13,3.4890039375,33.07
2021-06-30 18:40:14.273437500,-64.0,13.0,2.75,88.363359375,5.48,3.48896390625,33.07
2021-06-30 18:40:14.281250000,-64.0,13.0,3.0,88.36031249999999,4.83,3.4889238750000002,33.07
2021-06-30 18:40:14.289062500,-64.0,13.0,3.0,88.357265625,4.135,3.48888384375,33.07
2021-06-30 18:40:14.296875000,-64.0,13.0,3.0,88.35421875,3.44,3.4888438125,33.07
2021-06-30 18:40:14.304687500,-64.0,13.0,3.0,88.351171875,2.7649999999999997,3.48880378125,33.07
2021-06-30 18:40:14.312500000,-64.0,13.0,3.0,88.348125,2.09,3.48876375,33.07
2021-06-30 18:40:14.320312500,-64.0,13.0,3.0,88.345078125,1.5,3.48872371875,33.07
2021-06-30 18:40:14.328125000,-64.0,13.0,3.0,88.34203125,0.91,3.4886836875,33.07
2021-06-30 18:40:14.335937500,-64.0,13.0,3.0,88.338984375,0.44,3.48864365625,33.07
2021-06-30 18:40:14.343750000,-64.0,13.0,3.0,88.3359375,-0.03,3.488603625,33.07
2021-06-30 18:40:14.351562500,-64.0,13.0,3.0,88.332890625,-0.39,3.48856359375,33.07
2021-06-30 18:40:14.359375000,-64.0,13.0,3.0,88.32984375,-0.75,3.4885235625,33.07
2021-06-30 18:40:14.367187500,-64.0,13.0,3.0,88.326796875,-1.0350000000000001,3.48848353125,33.07
2021-06-30 18:40:14.375000000,-64.0,13.0,3.0,88.32375,-1.32,3.4884435,33.07
2021-06-30 18:40:14.382812500,-64.0,13.0,3.0,88.320703125,-1.585,3.48840346875,33.07
2021-06-30 18:40:14.390625000,-64.0,13.0,3.0,88.31765625,-1.85,3.4883634375,33.07
2021-06-30 18:40:14.398437500,-64.0,13.0,3.0,88.314609375,-2.115,3.48832340625,33.07
2021-06-30 18:40:14.406250000,-64.0,13.0,3.0,88.3115625,-2.38,3.488283375,33.07
2021-06-30 18:40:14.414062500,-64.0,13.0,3.0,88.308515625,-2.6550000000000002,3.4882433437500002,33.07
2021-06-30 18:40:14.421875000,-64.0,13.0,3.0,88.30546875,-2.93,3.4882033125,33.07
2021-06-30 18:40:14.429687500,-64.0,13.0,3.0,88.302421875,-3.2,3.48816328125,33.07
2021-06-30 18:40:14.437500000,-64.0,13.0,3.0,88.299375,-3.47,3.48812325,33.07
2021-06-30 18:40:14.445312500,-64.0,13.0,3.0,88.296328125,-3.71,3.48808321875,33.07
2021-06-30 18:40:14.453125000,-64.0,13.0,3.0,88.29328124999999,-3.95,3.4880431875,33.07
2021-06-30 18:40:14.460937500,-64.0,13.0,3.0,88.290234375,-4.135,3.48800315625,33.07
2021-06-30 18:40:14.468750000,-64.0,13.0,3.0,88.2871875,-4.32,3.487963125,33.07
2021-06-30 18:40:14.476562500,-64.0,13.0,3.0,88.28414062499999,-4.46,3.48792309375,33.07
2021-06-30 18:40:14.484375000,-64.0,13.0,3.0,88.28109375,-4.6,3.4878830625,33.07
2021-06-30 18:40:14.492187500,-64.0,13.0,3.0,88.278046875,-4.715,3.48784303125,33.07
2021-06-30 18:40:14.500000000,-64.0,13.0,3.0,88.275,-4.83,3.487803,33.07
2021-06-30 18:40:14.507812500,-64.0,13.0,3.0,88.271953125,-4.970000000000001,3.48784303125,33.07
2021-06-30 18:40:14.515625000,-64.0,13.0,3.0,88.26890625,-5.11,3.4878830625,33.07
2021-06-30 18:40:14.523437500,-64.0,13.0,3.0,88.265859375,-5.32,3.48792309375,33.07
2021-06-30 18:40:14.531250000,-64.0,13.0,3.0,88.2628125,-5.53,3.487963125,33.07
2021-06-30 18:40:14.539062500,-64.0,13.25,3.0,88.259765625,-5.87,3.48800315625,33.07
2021-06-30 18:40:14.546875000,-64.0,13.5,3.0,88.25671875,-6.21,3.4880431875,33.07
2021-06-30 18:40:14.554687500,-64.0,13.75,3.0,88.253671875,-6.725,3.48808321875,33.07
2021-06-30 18:40:14.562500000,-64.0,14.0,3.0,88.250625,-7.24,3.48812325,33.07
2021-06-30 18:40:14.570312500,-64.0,14.0,3.0,88.247578125,-7.98,3.48816328125,33.07
2021-06-30 18:40:14.578125000,-64.0,14.0,3.0,88.24453125,-8.72,3.4882033125,33.07
2021-06-30 18:40:14.585937500,-64.0,14.0,3.0,88.241484375,-9.695,3.4882433437500002,33.07
2021-06-30 18:40:14.593750000,-64.0,14.0,3.0,88.2384375,-10.67,3.488283375,33.07
2021-06-30 18:40:14.601562500,-64.0,13.75,3.0,88.235390625,-11.82,3.48832340625,33.07
2021-06-30 18:40:14.609375000,-64.0,13.5,3.0,88.23234375,-12.97,3.4883634375,33.07
2021-06-30 18:40:14.617187500,-64.0,13.25,3.0,88.229296875,-14.129999999999999,3.48840346875,33.07
2021-06-30 18:40:14.625000000,-64.0,13.0,3.0,88.22625,-15.29,3.4884435,33.07
2021-06-30 18:40:14.632812500,-64.0,13.0,3.0,88.223203125,-16.21,3.48848353125,33.07
2021-06-30 18:40:14.640625000,-64.0,13.0,3.0,88.22015625,-17.13,3.4885235625,33.07
2021-06-30 18:40:14.648437500,-64.0,13.0,3.0,88.21710937499999,-17.545,3.48856359375,33.07
2021-06-30 18:40:14.656250000,-64.0,13.0,3.0,88.2140625,-17.96,3.488603625,33.07
2021-06-30 18:40:14.664062500,-64.0,13.0,3.0,88.211015625,-17.695,3.48864365625,33.07
2021-06-30 18:40:14.671875000,-64.0,13.0,3.0,88.20796874999999,-17.43,3.4886836875,33.07
2021-06-30 18:40:14.679687500,-64.0,13.0,3.0,88.204921875,-16.465,3.48872371875,33.07
2021-06-30 18:40:14.687500000,-64.0,13.0,3.0,88.201875,-15.5,3.48876375,33.07
2021-06-30 18:40:14.695312500,-64.0,13.25,3.0,88.19882812499999,-13.985,3.48880378125,33.07
2021-06-30 18:40:14.703125000,-64.0,13.5,3.0,88.19578125,-12.47,3.4888438125,33.07
2021-06-30 18:40:14.710937500,-64.0,13.75,3.0,88.192734375,-10.67,3.48888384375,33.07
2021-06-30 18:40:14.718750000,-64.0,14.0,3.0,88.1896875,-8.87,3.4889238750000002,33.07
2021-06-30 18:40:14.726562500,-64.0,14.0,3.0,88.186640625,-7.055,3.48896390625,33.07
2021-06-30 18:40:14.734375000,-64.0,14.0,3.0,88.18359375,-5.24,3.4890039375,33.07
2021-06-30 18:40:14.742187500,-64.0,14.0,3.0,88.180546875,-3.62,3.48904396875,33.07
2021-06-30 18:40:14.750000000,-64.0,14.0,3.0,88.1775,-2.0,3.489084,33.07
2021-06-30 18:40:14.757812500,-64.0,14.0,3.0,88.174453125,-0.665,3.48880375,33.07
2021-06-30 18:40:14.765625000,-64.0,14.0,3.0,88.17140625,0.67,3.4885235,33.07
2021-06-30 18:40:14.773437500,-64.0,14.0,3.0,88.168359375,1.71,3.48824325,33.07
2021-06-30 18:40:14.781250000,-64.0,14.0,3.0,88.1653125,2.75,3.487963,33.07
2021-06-30 18:40:14.789062500,-64.0,14.0,3.0,88.162265625,3.52,3.4876827500000003,33.07
2021-06-30 18:40:14.796875000,-64.0,14.0,3.0,88.15921875,4.29,3.4874025,33.07
2021-06-30 18:40:14.804687500,-64.0,14.0,3.0,88.156171875,4.83,3.48712225,33.07
2021-06-30 18:40:14.812500000,-64.0,14.0,3.0,88.153125,5.37,3.486842,33.07
2021-06-30 18:40:14.820312500,-64.0,14.0,3.0,88.150078125,5.720000000000001,3.48656175,33.07
2021-06-30 18:40:14.828125000,-64.0,14.0,3.0,88.14703125,6.07,3.4862815,33.07
2021-06-30 18:40:14.835937500,-64.0,14.0,3.0,88.143984375,6.25,3.48600125,33.07
2021-06-30 18:40:14.843750000,-64.0,14.0,3.0,88.14093749999999,6.43,3.4857210000000003,33.07
2021-06-30 18:40:14.851562500,-64.0,14.0,3.0,88.137890625,6.484999999999999,3.48544075,33.07
2021-06-30 18:40:14.859375000,-64.0,14.0,3.0,88.13484375,6.54,3.4851605,33.07
2021-06-30 18:40:14.867187500,-64.0,14.0,3.0,88.13179687499999,6.495,3.4848802500000002,33.07
2021-06-30 18:40:14.875000000,-64.0,14.0,3.0,88.12875,6.45,3.4846000000000004,33.07
2021-06-30 18:40:14.882812500,-64.0,13.75,3.0,88.125703125,6.33,3.48431975,33.07
2021-06-30 18:40:14.890625000,-64.0,13.5,3.0,88.12265624999999,6.21,3.4840395,33.07
2021-06-30 18:40:14.898437500,-64.0,13.25,3.0,88.119609375,6.015000000000001,3.4837592500000003,33.07
2021-06-30 18:40:14.906250000,-64.0,13.0,3.0,88.1165625,5.82,3.483479,33.07
2021-06-30 18:40:14.914062500,-64.0,13.0,3.0,88.113515625,5.575,3.48319875,33.07
2021-06-30 18:40:14.921875000,-64.0,13.0,3.0,88.11046875,5.33,3.4829185000000003,33.07
2021-06-30 18:40:14.929687500,-64.0,13.0,3.0,88.107421875,5.09,3.4826382500000004,33.07
2021-06-30 18:40:14.937500000,-64.0,13.0,3.0,88.104375,4.85,3.482358,33.07
2021-06-30 18:40:14.945312500,-64.0,13.25,3.0,88.101328125,4.699999999999999,3.48207775,33.07
2021-06-30 18:40:14.953125000,-64.0,13.5,3.0,88.09828125,4.55,3.4817975000000003,33.07
2021-06-30 18:40:14.960937500,-64.0,13.75,3.0,88.095234375,4.5649999999999995,3.48151725,33.07
2021-06-30 18:40:14.968750000,-64.0,14.0,3.0,88.0921875,4.58,3.481237,33.07
2021-06-30 18:40:14.976562500,-64.0,14.0,3.0,88.089140625,4.77,3.4809567500000003,33.07
2021-06-30 18:40:14.984375000,-64.0,14.0,3.0,88.08609375,4.96,3.4806765000000004,33.07
2021-06-30 18:40:14.992187500,-64.0,14.0,3.0,88.083046875,5.275,3.48039625,33.07
2021-06-30 18:40:15.000000000,-64.0,14.0,3.0,88.08,5.59,3.480116,33.07
2021-06-30 18:40:15.007812500,-64.0,14.0,3.0,88.0771875,5.895,3.48039625,33.069375
2021-06-30 18:40:15.015625000,-64.0,14.0,3.0,88.074375,6.2,3.4806765000000004,33.06875
2021-06-30 18:40:15.023437500,-64.0,14.0,3.0,88.0715625,6.385,3.4809567500000003,33.068125
2021-06-30 18:40:15.031250000,-64.0,14.0,3.0,88.06875,6.57,3.481237,33.0675
2021-06-30 18:40:15.039062500,-64.0,13.75,3.0,88.0659375,6.585,3.48151725,33.066875
2021-06-30 18:40:15.046875000,-64.0,13.5,3.0,88.063125,6.6,3.4817975000000003,33.06625
2021-06-30 18:40:15.054687500,-64.0,13.25,3.0,88.0603125,6.46,3.48207775,33.065625
2021-06-30 18:40:15.062500000,-64.0,13.0,3.0,88.0575,6.32,3.482358,33.065
2021-06-30 18:40:15.070312500,-64.0,13.25,3.0,88.0546875,6.125,3.4826382500000004,33.064375
2021-06-30 18:40:15.078125000,-64.0,13.5,3.0,88.051875,5.93,3.4829185000000003,33.06375
2021-06-30 18:40:15.085937500,-64.0,13.75,3.0,88.0490625,5.75,3.48319875,33.063125
2021-06-30 18:40:15.093750000,-64.0,14.0,3.0,88.04625,5.57,3.483479,33.0625
2021-06-30 18:40:15.101562500,-64.0,13.75,3.0,88.0434375,5.445,3.4837592500000003,33.061875
2021-06-30 18:40:15.109375000,-64.0,13.5,3.0,88.04062499999999,5.32,3.4840395,33.06125
2021-06-30 18:40:15.117187500,-64.0,13.25,3.0,88.0378125,5.21,3.48431975,33.060625
2021-06-30 18:40:15.125000000,-64.0,13.0,3.0,88.035,5.1,3.4846000000000004,33.06
2021-06-30 18:40:15.132812500,-64.0,13.25,3.0,88.03218749999999,4.925,3.4848802500000002,33.059374999999996
2021-06-30 18:40:15.140625000,-64.0,13.5,3.0,88.029375,4.75,3.4851605,33.058749999999996
2021-06-30 18:40:15.148437500,-64.0,13.75,3.0,88.0265625,4.46,3.48544075,33.058125
2021-06-30 18:40:15.156250000,-64.0,14.0,3.0,88.02374999999999,4.17,3.4857210000000003,33.0575
2021-06-30 18:40:15.164062500,-64.0,14.0,3.0,88.0209375,3.755,3.48600125,33.056875
2021-06-30 18:40:15.171875000,-64.0,14.0,3.0,88.018125,3.34,3.4862815,33.05625
2021-06-30 18:40:15.179687500,-64.0,14.0,3.0,88.0153125,2.87,3.48656175,33.055625
2021-06-30 18:40:15.187500000,-64.0,14.0,3.0,88.0125,2.4,3.486842,33.055
2021-06-30 18:40:15.195312500,-64.0,13.75,3.0,88.0096875,1.955,3.48712225,33.054375
2021-06-30 18:40:15.203125000,-64.0,13.5,3.0,88.006875,1.51,3.4874025,33.05375
2021-06-30 18:40:15.210937500,-64.0,13.25,3.0,88.0040625,1.165,3.4876827500000003,33.053124999999994
2021-06-30 18:40:15.218750000,-64.0,13.0,3.0,88.00125,0.82,3.487963,33.052499999999995
2021-06-30 18:40:15.226562500,-64.0,13.0,3.0,87.9984375,0.58,3.48824325,33.051874999999995
2021-06-30 18:40:15.234375000,-64.0,13.0,3.0,87.995625,0.34,3.4885235,33.051249999999996
2021-06-30 18:40:15.242187500,-64.0,13.0,3.0,87.9928125,0.17500000000000002,3.48880375,33.050625
2021-06-30 18:40:15.250000000,-64.0,13.0,3.0,87.99,0.01,3.489084,33.05
2021-06-30 18:40:15.257812500,-64.0,13.0,3.0,87.9871875,-0.13999999999999999,3.48892384375,33.05
2021-06-30 18:40:15.265625000,-64.0,13.0,3.0,87.984375,-0.29,3.4887636875,33.05
2021-06-30 18:40:15.273437500,-64.0,13.0,3.0,87.9815625,-0.45999999999999996,3.48860353125,33.05
2021-06-30 18:40:15.281250000,-64.0,13.0,3.0,87.97875,-0.63,3.488443375,33.05
2021-06-30 18:40:15.289062500,-64.0,13.0,3.0,87.9759375,-0.825,3.48828321875,33.05
2021-06-30 18:40:15.296875000,-64.0,13.0,3.0,87.973125,-1.02,3.4881230625,33.05
2021-06-30 18:40:15.304687500,-64.0,13.0,3.0,87.97031249999999,-1.22,3.48796290625,33.05
2021-06-30 18:40:15.312500000,-64.0,13.0,3.0,87.9675,-1.42,3.48780275,33.05
2021-06-30 18:40:15.320312500,-64.0,13.0,3.0,87.9646875,-1.585,3.48764259375,33.05
2021-06-30 18:40:15.328125000,-64.0,13.0,3.0,87.96187499999999,-1.75,3.4874824375,33.05
2021-06-30 18:40:15.335937500,-64.0,13.0,3.0,87.9590625,-1.865,3.48732228125,33.05
2021-06-30 18:40:15.343750000,-64.0,13.0,3.0,87.95625,-1.98,3.4871621250000002,33.05
2021-06-30 18:40:15.351562500,-64.0,13.0,3.0,87.95343749999999,-2.05,3.48700196875,33.05
2021-06-30 18:40:15.359375000,-64.0,13.0,3.0,87.950625,-2.12,3.4868418125000002,33.05
2021-06-30 18:40:15.367187500,-64.0,13.0,3.0,87.9478125,-2.185,3.48668165625,33.05
2021-06-30 18:40:15.375000000,-64.0,13.0,3.0,87.945,-2.25,3.4865215000000003,33.05
2021-06-30 18:40:15.382812500,-64.0,13.0,3.0,87.9421875,-2.365,3.48636134375,33.05
2021-06-30 18:40:15.390625000,-64.0,13.0,3.0,87.939375,-2.48,3.4862011875,33.05
2021-06-30 18:40:15.398437500,-64.0,13.0,3.0,87.9365625,-2.715,3.48604103125,33.05
2021-06-30 18:40:15.406250000,-64.0,13.0,3.0,87.93375,-2.95,3.485880875,33.05
2021-06-30 18:40:15.414062500,-64.0,13.25,3.0,87.9309375,-3.345,3.48572071875,33.05
2021-06-30 18:40:15.421875000,-64.0,13.5,3.0,87.928125,-3.74,3.4855605625,33.05
2021-06-30 18:40:15.429687500,-64.0,13.75,3.0,87.9253125,-4.3149999999999995,3.48540040625,33.05
2021-06-30 18:40:15.437500000,-64.0,14.0,3.0,87.9225,-4.89,3.48524025,33.05
2021-06-30 18:40:15.445312500,-64.0,13.75,3.0,87.9196875,-5.645,3.48508009375,33.05
2021-06-30 18:40:15.453125000,-64.0,13.5,3.0,87.916875,-6.4,3.4849199375,33.05
2021-06-30 18:40:15.460937500,-64.0,13.25,3.0,87.9140625,-7.305000000000001,3.48475978125,33.05
2021-06-30 18:40:15.468750000,-64.0,13.0,3.0,87.91125,-8.21,3.484599625,33.05
2021-06-30 18:40:15.476562500,-64.0,13.0,3.0,87.9084375,-9.215,3.48443946875,33.05
2021-06-30 18:40:15.484375000,-64.0,13.0,3.0,87.905625,-10.22,3.4842793125,33.05
2021-06-30 18:40:15.492187500,-64.0,13.0,3.0,87.9028125,-11.24,3.4841191562500002,33.05
2021-06-30 18:40:15.500000000,-64.0,13.0,3.0,87.9,-12.26,3.483959,33.05
2021-06-30 18:40:15.507812500,-64.0,13.25,3.0,87.8971875,-13.155000000000001,3.48391896875,33.05
2021-06-30 18:40:15.515625000,-64.0,13.5,3.0,87.894375,-14.05,3.4838789375,33.05
2021-06-30 18:40:15.523437500,-64.0,13.75,3.0,87.89156249999999,-14.645,3.48383890625,33.05
2021-06-30 18:40:15.531250000,-64.0,14.0,3.0,87.88875,-15.24,3.483798875,33.05
2021-06-30 18:40:15.539062500,-64.0,13.75,3.0,87.8859375,-15.379999999999999,3.48375884375,33.05
2021-06-30 18:40:15.546875000,-64.0,13.5,3.0,87.88312499999999,-15.52,3.4837188125,33.05
2021-06-30 18:40:15.554687500,-64.0,13.25,3.0,87.8803125,-15.1,3.48367878125,33.05
2021-06-30 18:40:15.562500000,-64.0,13.0,3.0,87.8775,-14.68,3.48363875,33.05
2021-06-30 18:40:15.570312500,-64.0,13.0,3.0,87.8746875,-13.725,3.48359871875,33.05
2021-06-30 18:40:15.578125000,-64.0,13.0,3.0,87.871875,-12.77,3.4835586875,33.05
2021-06-30 18:40:15.585937500,-64.0,13.0,3.0,87.8690625,-11.43,3.48351865625,33.05
2021-06-30 18:40:15.593750000,-64.0,13.0,3.0,87.86625,-10.09,3.483478625,33.05
2021-06-30 18:40:15.601562500,-64.0,13.25,3.0,87.8634375,-8.605,3.48343859375,33.05
2021-06-30 18:40:15.609375000,-64.0,13.5,3.0,87.860625,-7.12,3.4833985625,33.05
2021-06-30 18:40:15.617187500,-64.0,13.75,3.0,87.8578125,-5.74,3.48335853125,33.05
2021-06-30 18:40:15.625000000,-64.0,14.0,3.0,87.855,-4.36,3.4833185,33.05
2021-06-30 18:40:15.632812500,-64.0,13.75,3.0,87.8521875,-3.265,3.48327846875,33.05
2021-06-30 18:40:15.640625000,-64.0,13.5,3.0,87.849375,-2.17,3.4832384375,33.05
2021-06-30 18:40:15.648437500,-64.0,13.25,3.0,87.8465625,-1.4,3.48319840625,33.05
2021-06-30 18:40:15.656250000,-64.0,13.0,3.0,87.84375,-0.63,3.483158375,33.05
2021-06-30 18:40:15.664062500,-64.0,13.25,3.0,87.8409375,-0.11499999999999999,3.48311834375,33.05
2021-06-30 18:40:15.671875000,-64.0,13.5,3.0,87.838125,0.4,3.4830783125,33.05
2021-06-30 18:40:15.679687500,-64.0,13.75,3.0,87.8353125,0.77,3.48303828125,33.05
2021-06-30 18:40:15.687500000,-64.0,14.0,3.0,87.8325,1.14,3.48299825,33.05
2021-06-30 18:40:15.695312500,-64.0,13.75,3.0,87.8296875,1.4449999999999998,3.48295821875,33.05
2021-06-30 18:40:15.703125000,-64.0,13.5,3.0,87.826875,1.75,3.4829181875,33.05
2021-06-30 18:40:15.710937500,-64.0,13.25,3.0,87.8240625,2.005,3.48287815625,33.05
2021-06-30 18:40:15.718750000,-64.0,13.0,3.0,87.82124999999999,2.26,3.482838125,33.05
2021-06-30 18:40:15.726562500,-64.0,13.0,3.0,87.8184375,2.3949999999999996,3.48279809375,33.05
2021-06-30 18:40:15.734375000,-64.0,13.0,3.0,87.815625,2.53,3.4827580625,33.05
2021-06-30 18:40:15.742187500,-64.0,13.0,3.0,87.81281249999999,2.49,3.48271803125,33.05
2021-06-30 18:40:15.750000000,-64.0,13.0,3.0,87.81,2.45,3.482678,33.05
2021-06-30 18:40:15.757812500,-64.0,13.0,3.0,87.8071875,2.24,3.4826379687499998,33.05
2021-06-30 18:40:15.765625000,-64.0,13.0,3.0,87.804375,2.03,3.4825979375,33.05
2021-06-30 18:40:15.773437500,-64.0,13.0,3.0,87.8015625,1.73,3.48255790625,33.05
2021-06-30 18:40:15.781250000,-64.0,13.0,3.0,87.79875,1.43,3.482517875,33.05
2021-06-30 18:40:15.789062500,-64.0,13.0,3.0,87.7959375,1.18,3.48247784375,33.05
2021-06-30 18:40:15.796875000,-64.0,13.0,3.0,87.793125,0.93,3.4824378124999997,33.05
2021-06-30 18:40:15.804687500,-64.0,13.0,3.0,87.7903125,0.875,3.48239778125,33.05
2021-06-30 18:40:15.812500000,-64.0,13.0,3.0,87.7875,0.82,3.48235775,33.05
2021-06-30 18:40:15.820312500,-64.0,13.0,2.75,87.7846875,1.02,3.48231771875,33.05
2021-06-30 18:40:15.828125000,-64.0,13.0,2.5,87.781875,1.22,3.4822776875,33.05
2021-06-30 18:40:15.835937500,-64.0,13.0,2.25,87.7790625,1.62,3.4822376562499997,33.05
2021-06-30 18:40:15.843750000,-64.0,13.0,2.0,87.77625,2.02,3.482197625,33.05
2021-06-30 18:40:15.851562500,-64.0,13.0,2.25,87.7734375,2.51,3.48215759375,33.05
2021-06-30 18:40:15.859375000,-64.0,13.0,2.5,87.770625,3.0,3.4821175625,33.05
2021-06-30 18:40:15.867187500,-64.0,13.0,2.75,87.7678125,3.435,3.48207753125,33.05
2021-06-30 18:40:15.875000000,-64.0,13.0,3.0,87.765,3.87,3.4820374999999997,33.05
2021-06-30 18:40:15.882812500,-64.0,13.0,3.0,87.7621875,4.18,3.48199746875,33.05
2021-06-30 18:40:15.890625000,-64.0,13.0,3.0,87.759375,4.49,3.4819574374999998,33.05
2021-06-30 18:40:15.898437500,-64.0,13.0,3.0,87.7565625,4.695,3.48191740625,33.05
2021-06-30 18:40:15.906250000,-64.0,13.0,3.0,87.75375,4.9,3.481877375,33.05
2021-06-30 18:40:15.914062500,-63.75,13.0,3.0,87.75093749999999,5.07,3.48183734375,33.05
2021-06-30 18:40:15.921875000,-63.5,13.0,3.0,87.748125,5.24,3.4817973125,33.05
2021-06-30 18:40:15.929687500,-63.25,13.0,3.0,87.7453125,5.465,3.4817572812499997,33.05
2021-06-30 18:40:15.937500000,-63.0,13.0,3.0,87.74249999999999,5.69,3.48171725,33.05
2021-06-30 18:40:15.945312500,-63.25,13.0,3.0,87.7396875,5.99,3.48167721875,33.05
2021-06-30 18:40:15.953125000,-63.5,13.0,3.0,87.736875,6.29,3.4816371875,33.05
2021-06-30 18:40:15.960937500,-63.75,13.0,3.0,87.7340625,6.63,3.48159715625,33.05
2021-06-30 18:40:15.968750000,-64.0,13.0,3.0,87.73125,6.97,3.4815571249999997,33.05
2021-06-30 18:40:15.976562500,-64.0,13.0,3.0,87.7284375,7.26,3.48151709375,33.05
2021-06-30 18:40:15.984375000,-64.0,13.0,3.0,87.725625,7.55,3.4814770624999998,33.05
2021-06-30 18:40:15.992187500,-64.0,13.0,3.0,87.7228125,7.725,3.48143703125,33.05
2021-06-30 18:40:16.000000000,-64.0,13.0,3.0,87.72,7.9,3.481397,33.05
2021-06-30 18:40:16.007812500,-64.0,13.0,3.0,87.717265625,7.9350000000000005,3.4811568125,33.049375
2021-06-30 18:40:16.015625000,-64.0,13.0,3.0,87.71453125,7.97,3.480916625,33.04875
2021-06-30 18:40:16.023437500,-64.0,13.0,3.0,87.711796875,7.904999999999999,3.4806764374999997,33.048125
2021-06-30 18:40:16.031250000,-64.0,13.0,3.0,87.7090625,7.84,3.48043625,33.0475
2021-06-30 18:40:16.039062500,-64.0,13.0,3.0,87.706328125,7.755,3.4801960625,33.046875
2021-06-30 18:40:16.046875000,-64.0,13.0,3.0,87.70359375,7.67,3.479955875,33.04625
2021-06-30 18:40:16.054687500,-64.0,13.0,3.0,87.700859375,7.62,3.4797156874999997,33.045625
2021-06-30 18:40:16.062500000,-64.0,13.0,3.0,87.698125,7.57,3.4794755,33.045
2021-06-30 18:40:16.070312500,-64.0,13.0,3.25,87.695390625,7.555,3.4792353125,33.044374999999995
2021-06-30 18:40:16.078125000,-64.0,13.0,3.5,87.69265625,7.54,3.478995125,33.043749999999996
2021-06-30 18:40:16.085937500,-64.0,13.0,3.75,87.689921875,7.52,3.4787549374999998,33.043124999999996
2021-06-30 18:40:16.093750000,-64.0,13.0,4.0,87.6871875,7.5,3.47851475,33.0425
2021-06-30 18:40:16.101562500,-64.0,13.0,3.75,87.684453125,7.390000000000001,3.4782745625000002,33.041875
2021-06-30 18:40:16.109375000,-64.0,13.0,3.5,87.68171875,7.28,3.478034375,33.04125
2021-06-30 18:40:16.117187500,-64.0,13.0,3.25,87.678984375,7.02,3.4777941875,33.040625
2021-06-30 18:40:16.125000000,-64.0,13.0,3.0,87.67625,6.76,3.477554,33.04
2021-06-30 18:40:16.132812500,-64.0,13.0,3.0,87.673515625,6.345,3.4773138125000003,33.039375
2021-06-30 18:40:16.140625000,-64.0,13.0,3.0,87.67078125,5.93,3.477073625,33.03875
2021-06-30 18:40:16.148437500,-64.0,13.0,3.0,87.668046875,5.39,3.4768334375,33.038125
2021-06-30 18:40:16.156250000,-64.0,13.0,3.0,87.6653125,4.85,3.47659325,33.0375
2021-06-30 18:40:16.164062500,-64.0,13.0,3.0,87.662578125,4.255,3.4763530625000003,33.036875
2021-06-30 18:40:16.171875000,-64.0,13.0,3.0,87.65984375,3.66,3.476112875,33.03625
2021-06-30 18:40:16.179687500,-64.0,13.0,3.0,87.657109375,3.055,3.4758726875,33.035625
2021-06-30 18:40:16.187500000,-64.0,13.0,3.0,87.654375,2.45,3.4756325,33.035
2021-06-30 18:40:16.195312500,-64.0,13.25,3.0,87.651640625,1.84,3.4753923125000004,33.034375
2021-06-30 18:40:16.203125000,-64.0,13.5,3.0,87.64890625,1.23,3.475152125,33.03375
2021-06-30 18:40:16.210937500,-64.0,13.75,3.0,87.646171875,0.58,3.4749119375,33.033125
2021-06-30 18:40:16.218750000,-64.0,14.0,3.0,87.6434375,-0.07,3.47467175,33.0325
2021-06-30 18:40:16.226562500,-64.0,14.0,3.0,87.640703125,-0.8049999999999999,3.4744315625000004,33.031875
2021-06-30 18:40:16.234375000,-64.0,14.0,3.0,87.63796875,-1.54,3.474191375,33.03125
2021-06-30 18:40:16.242187500,-64.0,14.0,3.0,87.635234375,-2.38,3.4739511875,33.030625
2021-06-30 18:40:16.250000000,-64.0,14.0,3.0,87.6325,-3.22,3.473711,33.03
2021-06-30 18:40:16.257812500,-63.75,14.0,3.0,87.629765625,-4.1450000000000005,3.4739511875,33.03
2021-06-30 18:40:16.265625000,-63.5,14.0,3.0,87.62703125,-5.07,3.474191375,33.03
2021-06-30 18:40:16.273437500,-63.25,14.0,3.0,87.624296875,-5.99,3.4744315625000004,33.03
2021-06-30 18:40:16.281250000,-63.0,14.0,3.0,87.6215625,-6.91,3.47467175,33.03
2021-06-30 18:40:16.289062500,-63.25,13.75,2.75,87.61882812500001,-7.74,3.4749119375,33.03
2021-06-30 18:40:16.296875000,-63.5,13.5,2.5,87.61609375,-8.57,3.475152125,33.03
2021-06-30 18:40:16.304687500,-63.75,13.25,2.25,87.613359375,-9.185,3.4753923125000004,33.03
2021-06-30 18:40:16.312500000,-64.0,13.0,2.0,87.610625,-9.8,3.4756325,33.03
2021-06-30 18:40:16.320312500,-64.25,13.0,2.25,87.607890625,-10.105,3.4758726875,33.03
2021-06-30 18:40:16.328125000,-64.5,13.0,2.5,87.60515625000001,-10.41,3.476112875,33.03
2021-06-30 18:40:16.335937500,-64.75,13.0,2.75,87.602421875,-10.32,3.4763530625000003,33.03
2021-06-30 18:40:16.343750000,-65.0,13.0,3.0,87.5996875,-10.23,3.47659325,33.03
2021-06-30 18:40:16.351562500,-64.5,13.0,3.0,87.596953125,-9.705,3.4768334375,33.03
2021-06-30 18:40:16.359375000,-64.0,13.0,3.0,87.59421875,-9.18,3.477073625,33.03
2021-06-30 18:40:16.367187500,-63.5,13.0,3.0,87.59148437500001,-8.235,3.4773138125000003,33.03
2021-06-30 18:40:16.375000000,-63.0,13.0,3.0,87.58875,-7.29,3.477554,33.03
2021-06-30 18:40:16.382812500,-63.25,13.25,3.0,87.586015625,-6.045,3.4777941875,33.03
2021-06-30 18:40:16.390625000,-63.5,13.5,3.0,87.58328125,-4.8,3.478034375,33.03
2021-06-30 18:40:16.398437500,-63.75,13.75,3.0,87.580546875,-3.44,3.4782745625000002,33.03
2021-06-30 18:40:16.406250000,-64.0,14.0,3.0,87.57781250000001,-2.08,3.47851475,33.03
2021-06-30 18:40:16.414062500,-64.0,13.75,3.0,87.575078125,-0.8400000000000001,3.4787549374999998,33.03
2021-06-30 18:40:16.421875000,-64.0,13.5,3.0,87.57234375,0.4,3.478995125,33.03
2021-06-30 18:40:16.429687500,-64.0,13.25,3.0,87.569609375,1.3250000000000002,3.4792353125,33.03
2021-06-30 18:40:16.437500000,-64.0,13.0,3.0,87.566875,2.25,3.4794755,33.03
2021-06-30 18:40:16.445312500,-64.0,13.0,3.0,87.56414062500001,2.7350000000000003,3.4797156874999997,33.03
2021-06-30 18:40:16.453125000,-64.0,13.0,3.0,87.56140625,3.22,3.479955875,33.03
2021-06-30 18:40:16.460937500,-64.0,13.0,3.0,87.558671875,3.285,3.4801960625,33.03
2021-06-30 18:40:16.468750000,-64.0,13.0,3.0,87.5559375,3.35,3.48043625,33.03
2021-06-30 18:40:16.476562500,-64.0,13.0,3.0,87.553203125,3.105,3.4806764374999997,33.03
2021-06-30 18:40:16.484375000,-64.0,13.0,3.0,87.55046875000001,2.86,3.480916625,33.03
2021-06-30 18:40:16.492187500,-64.0,13.0,3.0,87.547734375,2.46,3.4811568125,33.03
2021-06-30 18:40:16.500000000,-64.0,13.0,3.0,87.545,2.06,3.481397,33.03
2021-06-30 18:40:16.507812500,-64.0,13.25,3.0,87.542265625,1.645,3.4811568125,33.03
2021-06-30 18:40:16.515625000,-64.0,13.5,3.0,87.53953125,1.23,3.480916625,33.03
2021-06-30 18:40:16.523437500,-64.0,13.75,3.0,87.53679687500001,0.88,3.4806764374999997,33.03
2021-06-30 18:40:16.531250000,-64.0,14.0,3.0,87.5340625,0.53,3.48043625,33.03
2021-06-30 18:40:16.539062500,-64.0,14.0,3.0,87.531328125,0.28,3.4801960625,33.03
2021-06-30 18:40:16.546875000,-64.0,14.0,3.0,87.52859375,0.03,3.479955875,33.03
2021-06-30 18:40:16.554687500,-64.0,14.0,3.0,87.525859375,-0.12500000000000003,3.4797156874999997,33.03
2021-06-30 18:40:16.562500000,-64.0,14.0,3.0,87.52312500000001,-0.28,3.4794755,33.03
2021-06-30 18:40:16.570312500,-64.0,13.75,3.0,87.520390625,-0.35,3.4792353125,33.03
2021-06-30 18:40:16.578125000,-64.0,13.5,3.0,87.51765625,-0.42,3.478995125,33.03
2021-06-30 18:40:16.585937500,-64.0,13.25,3.0,87.514921875,-0.4,3.4787549374999998,33.03
2021-06-30 18:40:16.593750000,-64.0,13.0,3.0,87.5121875,-0.38,3.47851475,33.03
2021-06-30 18:40:16.601562500,-64.0,13.0,3.0,87.50945312500001,-0.25,3.4782745625000002,33.03
2021-06-30 18:40:16.609375000,-64.0,13.0,3.0,87.50671875,-0.12,3.478034375,33.03
2021-06-30 18:40:16.617187500,-64.0,13.0,3.0,87.503984375,0.11000000000000001,3.4777941875,33.03
2021-06-30 18:40:16.625000000,-64.0,13.0,3.0,87.50125,0.34,3.477554,33.03
2021-06-30 18:40:16.632812500,-64.0,13.0,3.0,87.498515625,0.655,3.4773138125000003,33.03
2021-06-30 18:40:16.640625000,-64.0,13.0,3.0,87.49578125000001,0.97,3.477073625,33.03
2021-06-30 18:40:16.648437500,-64.0,13.0,3.0,87.493046875,1.2999999999999998,3.4768334375,33.03
2021-06-30 18:40:16.656250000,-64.0,13.0,3.0,87.4903125,1.63,3.47659325,33.03
2021-06-30 18:40:16.664062500,-64.0,13.0,3.0,87.487578125,1.91,3.4763530625000003,33.03
2021-06-30 18:40:16.671875000,-64.0,13.0,3.0,87.48484375,2.19,3.476112875,33.03
2021-06-30 18:40:16.679687500,-64.0,13.0,3.0,87.48210937500001,2.38,3.4758726875,33.03
2021-06-30 18:40:16.687500000,-64.0,13.0,3.0,87.479375,2.57,3.4756325,33.03
2021-06-30 18:40:16.695312500,-64.0,13.0,3.0,87.476640625,2.645,3.4753923125000004,33.03
2021-06-30 18:40:16.703125000,-64.0,13.0,3.0,87.47390625,2.72,3.475152125,33.03
2021-06-30 18:40:16.710937500,-64.0,13.0,3.0,87.471171875,2.6900000000000004,3.4749119375,33.03
2021-06-30 18:40:16.718750000,-64.0,13.0,3.0,87.46843750000001,2.66,3.47467175,33.03
2021-06-30 18:40:16.726562500,-64.0,13.0,3.0,87.465703125,2.545,3.4744315625000004,33.03
2021-06-30 18:40:16.734375000,-64.0,13.0,3.0,87.46296875,2.43,3.474191375,33.03
2021-06-30 18:40:16.742187500,-64.0,13.0,3.0,87.460234375,2.2350000000000003,3.4739511875,33.03
2021-06-30 18:40:16.750000000,-64.0,13.0,3.0,87.45750000000001,2.04,3.473711,33.03
2021-06-30 18:40:16.757812500,-64.0,13.0,3.0,87.45476562500001,1.7650000000000001,3.47367096875,33.03
2021-06-30 18:40:16.765625000,-64.0,13.0,3.0,87.45203125,1.49,3.4736309375000003,33.03
2021-06-30 18:40:16.773437500,-64.0,13.0,3.0,87.449296875,1.105,3.47359090625,33.03
2021-06-30 18:40:16.781250000,-64.0,13.0,3.0,87.4465625,0.72,3.4735508750000004,33.03
2021-06-30 18:40:16.789062500,-64.0,13.25,3.0,87.44382812500001,0.22999999999999998,3.47351084375,33.03
2021-06-30 18:40:16.796875000,-64.0,13.5,3.0,87.44109375000001,-0.26,3.4734708125,33.03
2021-06-30 18:40:16.804687500,-64.0,13.75,3.0,87.438359375,-0.855,3.4734307812500003,33.03
2021-06-30 18:40:16.812500000,-64.0,14.0,3.0,87.435625,-1.45,3.47339075,33.03
2021-06-30 18:40:16.820312500,-64.0,14.0,3.0,87.432890625,-2.1,3.4733507187500003,33.03
2021-06-30 18:40:16.828125000,-64.0,14.0,3.0,87.43015625000001,-2.75,3.4733106875,33.03
2021-06-30 18:40:16.835937500,-64.0,14.0,3.0,87.42742187500001,-3.43,3.47327065625,33.03
2021-06-30 18:40:16.843750000,-64.0,14.0,3.0,87.4246875,-4.11,3.4732306250000002,33.03
2021-06-30 18:40:16.851562500,-64.0,13.75,3.0,87.421953125,-4.800000000000001,3.47319059375,33.03
2021-06-30 18:40:16.859375000,-64.0,13.5,3.0,87.41921875,-5.49,3.4731505625000003,33.03
2021-06-30 18:40:16.867187500,-64.0,13.25,3.0,87.41648437500001,-6.21,3.47311053125,33.03
2021-06-30 18:40:16.875000000,-64.0,13.0,3.0,87.41375000000001,-6.93,3.4730705000000004,33.03
2021-06-30 18:40:16.882812500,-64.0,13.0,3.0,87.411015625,-7.71,3.47303046875,33.03
2021-06-30 18:40:16.890625000,-64.0,13.0,3.0,87.40828125,-8.49,3.4729904375,33.03
2021-06-30 18:40:16.898437500,-64.0,13.0,3.0,87.405546875,-9.385,3.4729504062500003,33.03
2021-06-30 18:40:16.906250000,-64.0,13.0,3.0,87.40281250000001,-10.28,3.472910375,33.03
2021-06-30 18:40:16.914062500,-64.0,13.0,3.0,87.40007812500001,-11.335,3.4728703437500004,33.03
2021-06-30 18:40:16.921875000,-64.0,13.0,3.0,87.39734375,-12.39,3.4728303125,33.03
2021-06-30 18:40:16.929687500,-64.0,13.0,3.0,87.394609375,-13.615,3.47279028125,33.03
2021-06-30 18:40:16.937500000,-64.0,13.0,3.0,87.391875,-14.84,3.4727502500000003,33.03
2021-06-30 18:40:16.945312500,-64.0,13.0,3.0,87.38914062500001,-16.22,3.47271021875,33.03
2021-06-30 18:40:16.953125000,-64.0,13.0,3.0,87.38640625000001,-17.6,3.4726701875000003,33.03
2021-06-30 18:40:16.960937500,-64.0,13.0,3.0,87.383671875,-19.075000000000003,3.47263015625,33.03
2021-06-30 18:40:16.968750000,-64.0,13.0,3.0,87.3809375,-20.55,3.472590125,33.03
2021-06-30 18:40:16.976562500,-64.0,13.0,3.0,87.378203125,-21.990000000000002,3.4725500937500002,33.03
2021-06-30 18:40:16.984375000,-64.0,13.0,3.0,87.37546875000001,-23.43,3.4725100625,33.03
2021-06-30 18:40:16.992187500,-64.0,13.0,3.0,87.37273437500001,-24.68,3.4724700312500003,33.03
2021-06-30 18:40:17.000000000,-64.0,13.0,3.0,87.37,-25.93,3.47243,33.03
2021-06-30 18:40:17.007812500,-64.0,13.0,3.0,87.36734375,-26.8,3.472590125,33.030625
2021-06-30 18:40:17.015625000,-64.0,13.0,3.0,87.3646875,-27.67,3.4727502500000003,33.03125
2021-06-30 18:40:17.023437500,-64.0,13.0,3.0,87.36203125,-28.0,3.472910375,33.031875
2021-06-30 18:40:17.031250000,-64.0,13.0,3.0,87.359375,-28.33,3.4730705,33.0325
2021-06-30 18:40:17.039062500,-64.0,13.0,3.0,87.35671875,-28.034999999999997,3.4732306250000002,33.033125
2021-06-30 18:40:17.046875000,-64.0,13.0,3.0,87.3540625,-27.74,3.47339075,33.03375
2021-06-30 18:40:17.054687500,-64.0,13.0,3.0,87.35140625000001,-26.85,3.473550875,33.034375
2021-06-30 18:40:17.062500000,-64.0,13.0,3.0,87.34875000000001,-25.96,3.473711,33.035
2021-06-30 18:40:17.070312500,-64.0,13.0,3.0,87.34609375000001,-24.585,3.473871125,33.035625
2021-06-30 18:40:17.078125000,-64.0,13.0,3.0,87.34343750000001,-23.21,3.47403125,33.03625
2021-06-30 18:40:17.085937500,-64.0,13.0,3.0,87.34078125,-21.555,3.474191375,33.036875
2021-06-30 18:40:17.093750000,-64.0,13.0,3.0,87.338125,-19.9,3.4743515,33.0375
2021-06-30 18:40:17.101562500,-64.0,13.0,3.0,87.33546875,-18.185,3.474511625,33.038125
2021-06-30 18:40:17.109375000,-64.0,13.0,3.0,87.3328125,-16.47,3.47467175,33.03875
2021-06-30 18:40:17.117187500,-64.0,13.0,3.0,87.33015625,-14.885,3.474831875,33.039375
2021-06-30 18:40:17.125000000,-64.0,13.0,3.0,87.3275,-13.3,3.4749920000000003,33.04
2021-06-30 18:40:17.132812500,-64.0,13.0,3.0,87.32484375,-11.98,3.475152125,33.040625
2021-06-30 18:40:17.140625000,-64.0,13.0,3.0,87.3221875,-10.66,3.47531225,33.04125
2021-06-30 18:40:17.148437500,-64.0,13.0,3.0,87.31953125,-9.68,3.4754723750000003,33.041875
2021-06-30 18:40:17.156250000,-64.0,13.0,3.0,87.31687500000001,-8.7,3.4756325,33.0425
2021-06-30 18:40:17.164062500,-64.0,13.0,3.0,87.31421875000001,-8.05,3.475792625,33.043124999999996
2021-06-30 18:40:17.171875000,-64.0,13.0,3.0,87.31156250000001,-7.4,3.4759527500000003,33.043749999999996
2021-06-30 18:40:17.179687500,-64.0,13.0,3.0,87.30890625,-7.0600000000000005,3.476112875,33.044374999999995
2021-06-30 18:40:17.187500000,-64.0,13.0,3.0,87.30625,-6.72,3.476273,33.045
2021-06-30 18:40:17.195312500,-64.0,13.0,3.0,87.30359375,-6.605,3.4764331250000002,33.045625
2021-06-30 18:40:17.203125000,-64.0,13.0,3.0,87.3009375,-6.49,3.47659325,33.04625
2021-06-30 18:40:17.210937500,-64.0,13.0,3.0,87.29828125,-6.53,3.476753375,33.046875
2021-06-30 18:40:17.218750000,-64.0,13.0,3.0,87.295625,-6.57,3.4769135,33.0475
2021-06-30 18:40:17.226562500,-64.0,13.0,3.0,87.29296875,-6.68,3.477073625,33.048125
2021-06-30 18:40:17.234375000,-64.0,13.0,3.0,87.2903125,-6.79,3.47723375,33.04875
2021-06-30 18:40:17.242187500,-64.0,13.0,3.0,87.28765625,-6.88,3.477393875,33.049375
2021-06-30 18:40:17.250000000,-64.0,13.0,3.0,87.285,-6.97,3.477554,33.05
2021-06-30 18:40:17.257812500,-64.0,13.0,3.0,87.28234375000001,-6.99,3.47759403125,33.05
2021-06-30 18:40:17.265625000,-64.0,13.0,3.0,87.27968750000001,-7.01,3.4776340625,33.05
2021-06-30 18:40:17.273437500,-64.0,13.0,3.0,87.27703125000001,-6.9350000000000005,3.47767409375,33.05
2021-06-30 18:40:17.281250000,-64.0,13.0,3.0,87.274375,-6.86,3.477714125,33.05
2021-06-30 18:40:17.289062500,-64.0,13.0,3.0,87.27171875,-6.73,3.47775415625,33.05
2021-06-30 18:40:17.296875000,-64.0,13.0,3.0,87.2690625,-6.6,3.4777941875000002,33.05
2021-06-30 18:40:17.304687500,-64.0,13.0,3.0,87.26640625,-6.455,3.47783421875,33.05
2021-06-30 18:40:17.312500000,-64.0,13.0,3.0,87.26375,-6.31,3.47787425,33.05
2021-06-30 18:40:17.320312500,-64.0,13.0,2.75,87.26109375,-6.185,3.47791428125,33.05
2021-06-30 18:40:17.328125000,-64.0,13.0,2.5,87.2584375,-6.06,3.4779543125,33.05
2021-06-30 18:40:17.335937500,-64.0,13.0,2.25,87.25578125,-5.9399999999999995,3.4779943437500003,33.05
2021-06-30 18:40:17.343750000,-64.0,13.0,2.0,87.253125,-5.82,3.478034375,33.05
2021-06-30 18:40:17.351562500,-64.0,13.0,2.25,87.25046875000001,-5.640000000000001,3.47807440625,33.05
2021-06-30 18:40:17.359375000,-64.0,13.0,2.5,87.24781250000001,-5.46,3.4781144375,33.05
2021-06-30 18:40:17.367187500,-64.0,13.0,2.75,87.24515625000001,-5.140000000000001,3.47815446875,33.05
2021-06-30 18:40:17.375000000,-64.0,13.0,3.0,87.2425,-4.82,3.4781945,33.05
2021-06-30 18:40:17.382812500,-64.0,13.0,3.0,87.23984375,-4.29,3.47823453125,33.05
2021-06-30 18:40:17.390625000,-64.0,13.0,3.0,87.2371875,-3.76,3.4782745625000002,33.05
2021-06-30 18:40:17.398437500,-64.0,13.0,3.0,87.23453125,-3.045,3.47831459375,33.05
2021-06-30 18:40:17.406250000,-64.0,13.0,3.0,87.231875,-2.33,3.478354625,33.05
2021-06-30 18:40:17.414062500,-64.0,13.25,3.0,87.22921875,-1.525,3.47839465625,33.05
2021-06-30 18:40:17.421875000,-64.0,13.5,3.0,87.2265625,-0.72,3.4784346875,33.05
2021-06-30 18:40:17.429687500,-64.0,13.75,3.0,87.22390625,0.025000000000000022,3.4784747187500002,33.05
2021-06-30 18:40:17.437500000,-64.0,14.0,3.0,87.22125,0.77,3.47851475,33.05
2021-06-30 18:40:17.445312500,-64.0,14.0,3.0,87.21859375,1.315,3.47855478125,33.05
2021-06-30 18:40:17.453125000,-64.0,14.0,3.0,87.21593750000001,1.86,3.4785948125,33.05
2021-06-30 18:40:17.460937500,-64.0,14.0,3.0,87.21328125000001,2.13,3.47863484375,33.05
2021-06-30 18:40:17.468750000,-64.0,14.0,3.0,87.21062500000001,2.4,3.4786748750000003,33.05
2021-06-30 18:40:17.476562500,-64.0,13.75,3.0,87.20796875,2.435,3.47871490625,33.05
2021-06-30 18:40:17.484375000,-64.0,13.5,3.0,87.2053125,2.47,3.4787549375,33.05
2021-06-30 18:40:17.492187500,-64.0,13.25,3.0,87.20265625,2.35,3.47879496875,33.05
2021-06-30 18:40:17.500000000,-64.0,13.0,3.0,87.2,2.23,3.478835,33.05
2021-06-30 18:40:17.507812500,-64.0,13.0,3.0,87.19734375,2.035,3.4788750312500003,33.05
2021-06-30 18:40:17.515625000,-64.0,13.0,3.0,87.1946875,1.84,3.4789150625,33.05
2021-06-30 18:40:17.523437500,-64.0,13.0,3.0,87.19203125,1.6,3.4789550937500002,33.05
2021-06-30 18:40:17.531250000,-64.0,13.0,3.0,87.189375,1.36,3.478995125,33.05
2021-06-30 18:40:17.539062500,-64.0,13.25,3.0,87.18671875,1.045,3.47903515625,33.05
2021-06-30 18:40:17.546875000,-64.0,13.5,3.0,87.1840625,0.73,3.4790751875000003,33.05
2021-06-30 18:40:17.554687500,-64.0,13.75,3.0,87.18140625000001,0.24,3.47911521875,33.05
2021-06-30 18:40:17.562500000,-64.0,14.0,3.0,87.17875000000001,-0.25,3.4791552500000003,33.05
2021-06-30 18:40:17.570312500,-64.0,14.0,3.0,87.17609375,-0.98,3.47919528125,33.05
2021-06-30 18:40:17.578125000,-64.0,14.0,3.0,87.1734375,-1.71,3.4792353125,33.05
2021-06-30 18:40:17.585937500,-64.0,14.0,3.0,87.17078125,-2.7199999999999998,3.4792753437500004,33.05
2021-06-30 18:40:17.593750000,-64.0,14.0,3.0,87.168125,-3.73,3.479315375,33.05
2021-06-30 18:40:17.601562500,-64.0,13.75,3.0,87.16546875,-4.995,3.4793554062500003,33.05
2021-06-30 18:40:17.609375000,-64.0,13.5,3.0,87.1628125,-6.26,3.4793954375,33.05
2021-06-30 18:40:17.617187500,-64.0,13.25,3.0,87.16015625,-7.685,3.47943546875,33.05
2021-06-30 18:40:17.625000000,-64.0,13.0,3.0,87.1575,-9.11,3.4794755000000004,33.05
2021-06-30 18:40:17.632812500,-64.0,13.0,3.0,87.15484375,-10.565,3.47951553125,33.05
2021-06-30 18:40:17.640625000,-64.0,13.0,3.0,87.1521875,-12.02,3.4795555625000003,33.05
2021-06-30 18:40:17.648437500,-64.0,13.0,3.0,87.14953125,-13.35,3.47959559375,33.05
2021-06-30 18:40:17.656250000,-64.0,13.0,3.0,87.14687500000001,-14.68,3.4796356250000002,33.05
2021-06-30 18:40:17.664062500,-64.0,13.0,3.0,87.14421875000001,-15.68,3.47967565625,33.05
2021-06-30 18:40:17.671875000,-64.0,13.0,3.0,87.1415625,-16.68,3.4797156875,33.05
2021-06-30 18:40:17.679687500,-64.0,13.0,3.0,87.13890625,-17.16,3.4797557187500003,33.05
2021-06-30 18:40:17.687500000,-64.0,13.0,3.0,87.13625,-17.64,3.47979575,33.05
2021-06-30 18:40:17.695312500,-64.0,13.0,3.0,87.13359375,-17.465,3.4798357812500003,33.05
2021-06-30 18:40:17.703125000,-64.0,13.0,3.0,87.1309375,-17.29,3.4798758125,33.05
2021-06-30 18:40:17.710937500,-64.0,13.0,3.0,87.12828125,-16.42,3.47991584375,33.05
2021-06-30 18:40:17.718750000,-64.0,13.0,3.0,87.125625,-15.55,3.4799558750000004,33.05
2021-06-30 18:40:17.726562500,-64.0,13.0,3.0,87.12296875,-14.09,3.47999590625,33.05
2021-06-30 18:40:17.734375000,-64.0,13.0,3.0,87.1203125,-12.63,3.4800359375000003,33.05
2021-06-30 18:40:17.742187500,-64.0,13.0,3.0,87.11765625,-10.79,3.48007596875,33.05
2021-06-30 18:40:17.750000000,-64.0,13.0,3.0,87.11500000000001,-8.95,3.480116,33.05
2021-06-30 18:40:17.757812500,-64.0,13.25,3.0,87.11234375000001,-7.015,3.47999590625,33.05
2021-06-30 18:40:17.765625000,-64.0,13.5,3.0,87.1096875,-5.08,3.4798758125,33.05
2021-06-30 18:40:17.773437500,-64.0,13.75,3.0,87.10703125,-3.285,3.4797557187500003,33.05
2021-06-30 18:40:17.781250000,-64.0,14.0,3.0,87.104375,-1.49,3.4796356250000002,33.05
2021-06-30 18:40:17.789062500,-64.0,13.75,3.0,87.10171875,0.010000000000000009,3.47951553125,33.05
2021-06-30 18:40:17.796875000,-64.0,13.5,3.0,87.0990625,1.51,3.4793954375,33.05
2021-06-30 18:40:17.804687500,-64.0,13.25,3.0,87.09640625,2.6550000000000002,3.4792753437500004,33.05
2021-06-30 18:40:17.812500000,-64.0,13.0,3.0,87.09375,3.8,3.4791552500000003,33.05
2021-06-30 18:40:17.820312500,-64.0,13.25,3.0,87.09109375,4.595,3.47903515625,33.05
2021-06-30 18:40:17.828125000,-64.0,13.5,3.0,87.0884375,5.39,3.4789150625,33.05
2021-06-30 18:40:17.835937500,-64.0,13.75,3.0,87.08578125,5.835,3.47879496875,33.05
2021-06-30 18:40:17.843750000,-64.0,14.0,3.0,87.083125,6.28,3.4786748750000003,33.05
2021-06-30 18:40:17.851562500,-64.0,14.0,3.0,87.08046875000001,6.380000000000001,3.47855478125,33.05
