TimeStamp,empatica.acc.x,empatica.acc.y,empatica.acc.z,empatica.hr,empatica.bvp,empatica.eda,empatica.temp
2021-06-29 10:40:56.828125000,-42.0,4.0,49.0,75.7834375,23.55,1.9660815,34.05
2021-06-29 10:40:56.835937500,-42.0,4.0,49.0,75.78328125,20.700000000000003,1.9663617500000001,34.05
2021-06-29 10:40:56.843750000,-42.0,4.0,49.0,75.783125,17.85,1.966642,34.05
2021-06-29 10:40:56.851562500,-42.0,4.0,49.0,75.78296875,15.485,1.96692225,34.05
2021-06-29 10:40:56.859375000,-42.0,4.0,49.0,75.7828125,13.12,1.9672025,34.05
2021-06-29 10:40:56.867187500,-42.0,4.0,49.0,75.78265625,11.16,1.96748275,34.05
2021-06-29 10:40:56.875000000,-42.0,4.0,49.0,75.7825,9.2,1.9677630000000002,34.05
2021-06-29 10:40:56.882812500,-41.75,4.0,49.0,75.78234375,7.41,1.96804325,34.05
2021-06-29 10:40:56.890625000,-41.5,4.0,49.0,75.7821875,5.62,1.9683235000000001,34.05
2021-06-29 10:40:56.898437500,-41.25,4.0,49.0,75.78203125,3.725,1.96860375,34.05
2021-06-29 10:40:56.906250000,-41.0,4.0,49.0,75.781875,1.83,1.968884,34.05
2021-06-29 10:40:56.914062500,-41.0,4.0,49.0,75.78171875,-0.3599999999999999,1.96916425,34.05
2021-06-29 10:40:56.921875000,-41.0,4.0,49.0,75.7815625,-2.55,1.9694445,34.05
2021-06-29 10:40:56.929687500,-41.0,4.0,49.0,75.78140625,-5.08,1.9697247500000001,34.05
2021-06-29 10:40:56.937500000,-41.0,4.0,49.0,75.78125,-7.61,1.970005,34.05
2021-06-29 10:40:56.945312500,-41.0,4.0,49.25,75.78109375,-10.375,1.97028525,34.05
2021-06-29 10:40:56.953125000,-41.0,4.0,49.5,75.78093750000001,-13.14,1.9705655,34.05
2021-06-29 10:40:56.960937500,-41.0,4.0,49.75,75.78078125,-15.96,1.97084575,34.05
2021-06-29 10:40:56.968750000,-41.0,4.0,50.0,75.780625,-18.78,1.9711260000000002,34.05
2021-06-29 10:40:56.976562500,-40.75,4.0,50.0,75.78046875,-21.465,1.97140625,34.05
2021-06-29 10:40:56.984375000,-40.5,4.0,50.0,75.78031250000001,-24.15,1.9716865000000001,34.05
2021-06-29 10:40:56.992187500,-40.25,4.0,50.0,75.78015625,-26.56,1.97196675,34.05
2021-06-29 10:40:57.000000000,-40.0,4.0,50.0,75.78,-28.97,1.972247,34.05
2021-06-29 10:40:57.007812500,-40.0,4.0,50.25,75.779921875,-31.095,1.9720468125000001,34.049375
2021-06-29 10:40:57.015625000,-40.0,4.0,50.5,75.77984375,-33.22,1.971846625,34.04875
2021-06-29 10:40:57.023437500,-40.0,4.0,50.75,75.779765625,-35.155,1.9716464375,34.048125
2021-06-29 10:40:57.031250000,-40.0,4.0,51.0,75.7796875,-37.09,1.97144625,34.0475
2021-06-29 10:40:57.039062500,-40.5,4.0,50.5,75.779609375,-39.065,1.9712460625000001,34.046875
2021-06-29 10:40:57.046875000,-41.0,4.0,50.0,75.77953125,-41.04,1.9710458750000002,34.04625
2021-06-29 10:40:57.054687500,-41.5,4.0,49.5,75.779453125,-43.370000000000005,1.9708456875,34.045625
2021-06-29 10:40:57.062500000,-42.0,4.0,49.0,75.779375,-45.7,1.9706455,34.045
2021-06-29 10:40:57.070312500,-42.0,4.0,49.0,75.779296875,-48.74,1.9704453125,34.044374999999995
2021-06-29 10:40:57.078125000,-42.0,4.0,49.0,75.77921875,-51.78,1.970245125,34.043749999999996
2021-06-29 10:40:57.085937500,-42.0,4.0,49.0,75.779140625,-55.785,1.9700449375,34.043124999999996
2021-06-29 10:40:57.093750000,-42.0,4.0,49.0,75.7790625,-59.79,1.96984475,34.0425
2021-06-29 10:40:57.101562500,-41.75,4.0,49.25,75.77898437500001,-64.765,1.9696445625,34.041875
2021-06-29 10:40:57.109375000,-41.5,4.0,49.5,75.77890625,-69.74,1.9694443750000001,34.04125
2021-06-29 10:40:57.117187500,-41.25,4.0,49.75,75.778828125,-75.29499999999999,1.9692441875,34.040625
2021-06-29 10:40:57.125000000,-41.0,4.0,50.0,75.77875,-80.85,1.969044,34.04
2021-06-29 10:40:57.132812500,-41.25,4.0,49.75,75.778671875,-86.15,1.9688438125,34.039375
2021-06-29 10:40:57.140625000,-41.5,4.0,49.5,75.77859375,-91.45,1.968643625,34.03875
2021-06-29 10:40:57.148437500,-41.75,4.0,49.25,75.778515625,-95.38,1.9684434375,34.038125
2021-06-29 10:40:57.156250000,-42.0,4.0,49.0,75.7784375,-99.31,1.96824325,34.0375
2021-06-29 10:40:57.164062500,-41.75,4.0,49.25,75.778359375,-100.71000000000001,1.9680430625,34.036875
2021-06-29 10:40:57.171875000,-41.5,4.0,49.5,75.77828125,-102.11,1.967842875,34.03625
2021-06-29 10:40:57.179687500,-41.25,4.0,49.75,75.778203125,-100.19,1.9676426875,34.035625
2021-06-29 10:40:57.187500000,-41.0,4.0,50.0,75.778125,-98.27,1.9674425,34.035
2021-06-29 10:40:57.195312500,-41.0,4.0,49.75,75.778046875,-92.85499999999999,1.9672423125,34.034375
2021-06-29 10:40:57.203125000,-41.0,4.0,49.5,75.77796875,-87.44,1.9670421249999999,34.03375
2021-06-29 10:40:57.210937500,-41.0,4.0,49.25,75.777890625,-79.08,1.9668419375,34.033125
2021-06-29 10:40:57.218750000,-41.0,4.0,49.0,75.7778125,-70.72,1.96664175,34.0325
2021-06-29 10:40:57.226562500,-41.25,4.0,49.0,75.777734375,-60.55,1.9664415625,34.031875
2021-06-29 10:40:57.234375000,-41.5,4.0,49.0,75.77765625,-50.38,1.966241375,34.03125
2021-06-29 10:40:57.242187500,-41.75,4.0,49.0,75.777578125,-39.745000000000005,1.9660411875,34.030625
2021-06-29 10:40:57.250000000,-42.0,4.0,49.0,75.7775,-29.11,1.965841,34.03
2021-06-29 10:40:57.257812500,-42.0,4.0,49.0,75.777421875,-19.225,1.96596109375,34.03
2021-06-29 10:40:57.265625000,-42.0,4.0,49.0,75.77734375,-9.34,1.9660811875,34.03
2021-06-29 10:40:57.273437500,-42.0,4.0,49.0,75.777265625,-1.0299999999999994,1.96620128125,34.03
2021-06-29 10:40:57.281250000,-42.0,4.0,49.0,75.7771875,7.28,1.966321375,34.03
2021-06-29 10:40:57.289062500,-42.0,4.0,49.0,75.777109375,13.649999999999999,1.96644146875,34.03
2021-06-29 10:40:57.296875000,-42.0,4.0,49.0,75.77703125,20.02,1.9665615625,34.03
2021-06-29 10:40:57.304687500,-42.0,4.0,49.0,75.776953125,24.45,1.96668165625,34.03
2021-06-29 10:40:57.312500000,-42.0,4.0,49.0,75.776875,28.88,1.96680175,34.03
2021-06-29 10:40:57.320312500,-42.0,4.0,49.0,75.776796875,31.564999999999998,1.96692184375,34.03
2021-06-29 10:40:57.328125000,-42.0,4.0,49.0,75.77671875,34.25,1.9670419375,34.03
2021-06-29 10:40:57.335937500,-42.0,4.0,49.0,75.776640625,35.465,1.96716203125,34.03
2021-06-29 10:40:57.343750000,-42.0,4.0,49.0,75.7765625,36.68,1.9672821249999999,34.03
2021-06-29 10:40:57.351562500,-42.0,4.0,49.0,75.776484375,36.705,1.96740221875,34.03
2021-06-29 10:40:57.359375000,-42.0,4.0,49.0,75.77640625,36.73,1.9675223124999999,34.03
2021-06-29 10:40:57.367187500,-42.0,4.0,49.0,75.776328125,35.9,1.96764240625,34.03
2021-06-29 10:40:57.375000000,-42.0,4.0,49.0,75.77625,35.07,1.9677625,34.03
2021-06-29 10:40:57.382812500,-42.0,4.0,49.0,75.776171875,33.785,1.96788259375,34.03
2021-06-29 10:40:57.390625000,-42.0,4.0,49.0,75.77609375,32.5,1.9680026875,34.03
2021-06-29 10:40:57.398437500,-42.0,4.0,49.0,75.776015625,31.205,1.96812278125,34.03
2021-06-29 10:40:57.406250000,-42.0,4.0,49.0,75.7759375,29.91,1.968242875,34.03
2021-06-29 10:40:57.414062500,-42.0,4.0,49.0,75.775859375,29.045,1.96836296875,34.03
2021-06-29 10:40:57.421875000,-42.0,4.0,49.0,75.77578125,28.18,1.9684830625,34.03
2021-06-29 10:40:57.429687500,-42.0,4.0,49.0,75.77570312499999,28.035,1.96860315625,34.03
2021-06-29 10:40:57.437500000,-42.0,4.0,49.0,75.775625,27.89,1.96872325,34.03
2021-06-29 10:40:57.445312500,-42.0,4.0,49.0,75.775546875,28.57,1.96884334375,34.03
2021-06-29 10:40:57.453125000,-42.0,4.0,49.0,75.77546875,29.25,1.9689634375,34.03
2021-06-29 10:40:57.460937500,-42.0,4.0,49.0,75.775390625,30.65,1.96908353125,34.03
2021-06-29 10:40:57.468750000,-42.0,4.0,49.0,75.7753125,32.05,1.969203625,34.03
2021-06-29 10:40:57.476562500,-42.0,4.0,49.0,75.775234375,33.894999999999996,1.96932371875,34.03
2021-06-29 10:40:57.484375000,-42.0,4.0,49.0,75.77515625,35.74,1.9694438125,34.03
2021-06-29 10:40:57.492187500,-42.0,4.0,49.0,75.775078125,37.755,1.9695639062499999,34.03
2021-06-29 10:40:57.500000000,-42.0,4.0,49.0,75.775,39.77,1.969684,34.03
2021-06-29 10:40:57.507812500,-42.0,4.0,49.0,75.774921875,41.685,1.96964396875,34.03
2021-06-29 10:40:57.515625000,-42.0,4.0,49.0,75.77484375,43.6,1.9696039375,34.03
2021-06-29 10:40:57.523437500,-42.0,4.0,49.0,75.774765625,45.260000000000005,1.9695639062499999,34.03
2021-06-29 10:40:57.531250000,-42.0,4.0,49.0,75.7746875,46.92,1.969523875,34.03
2021-06-29 10:40:57.539062500,-41.75,4.0,49.25,75.774609375,48.215,1.96948384375,34.03
2021-06-29 10:40:57.546875000,-41.5,4.0,49.5,75.77453125,49.51,1.9694438125,34.03
2021-06-29 10:40:57.554687500,-41.25,4.0,49.75,75.774453125,50.34,1.96940378125,34.03
2021-06-29 10:40:57.562500000,-41.0,4.0,50.0,75.77437499999999,51.17,1.9693637499999999,34.03
2021-06-29 10:40:57.570312500,-41.0,4.0,49.75,75.774296875,51.394999999999996,1.96932371875,34.03
2021-06-29 10:40:57.578125000,-41.0,4.0,49.5,75.77421875,51.62,1.9692836875,34.03
2021-06-29 10:40:57.585937500,-41.0,4.0,49.25,75.774140625,51.095,1.96924365625,34.03
2021-06-29 10:40:57.593750000,-41.0,4.0,49.0,75.7740625,50.57,1.969203625,34.03
2021-06-29 10:40:57.601562500,-41.0,4.0,49.0,75.773984375,49.195,1.96916359375,34.03
2021-06-29 10:40:57.609375000,-41.0,4.0,49.0,75.77390625,47.82,1.9691235624999999,34.03
2021-06-29 10:40:57.617187500,-41.0,4.0,49.0,75.773828125,45.629999999999995,1.96908353125,34.03
2021-06-29 10:40:57.625000000,-41.0,4.0,49.0,75.77374999999999,43.44,1.9690435,34.03
2021-06-29 10:40:57.632812500,-41.0,4.0,49.25,75.77367187499999,40.62,1.96900346875,34.03
2021-06-29 10:40:57.640625000,-41.0,4.0,49.5,75.77359375,37.8,1.9689634375,34.03
2021-06-29 10:40:57.648437500,-41.0,4.0,49.75,75.773515625,34.66,1.9689234062499998,34.03
2021-06-29 10:40:57.656250000,-41.0,4.0,50.0,75.7734375,31.52,1.9688833749999999,34.03
2021-06-29 10:40:57.664062500,-41.0,4.0,49.75,75.773359375,28.369999999999997,1.96884334375,34.03
2021-06-29 10:40:57.671875000,-41.0,4.0,49.5,75.77328125,25.22,1.9688033125,34.03
2021-06-29 10:40:57.679687500,-41.0,4.0,49.25,75.773203125,22.285,1.96876328125,34.03
2021-06-29 10:40:57.687500000,-41.0,4.0,49.0,75.773125,19.35,1.96872325,34.03
2021-06-29 10:40:57.695312500,-41.0,4.0,49.0,75.77304687499999,16.700000000000003,1.9686832187499999,34.03
2021-06-29 10:40:57.703125000,-41.0,4.0,49.0,75.77296875,14.05,1.9686431875,34.03
2021-06-29 10:40:57.710937500,-41.0,4.0,49.0,75.772890625,11.63,1.96860315625,34.03
2021-06-29 10:40:57.718750000,-41.0,4.0,49.0,75.7728125,9.21,1.968563125,34.03
2021-06-29 10:40:57.726562500,-41.0,4.0,49.25,75.772734375,6.890000000000001,1.96852309375,34.03
2021-06-29 10:40:57.734375000,-41.0,4.0,49.5,75.77265625,4.57,1.9684830624999998,34.03
2021-06-29 10:40:57.742187500,-41.0,4.0,49.75,75.772578125,2.2600000000000002,1.9684430312499999,34.03
2021-06-29 10:40:57.750000000,-41.0,4.0,50.0,75.7725,-0.05,1.968403,34.03
2021-06-29 10:40:57.757812500,-41.0,4.0,49.75,75.77242187499999,-2.3649999999999998,1.9683229375,34.03
2021-06-29 10:40:57.765625000,-41.0,4.0,49.5,75.77234374999999,-4.68,1.9682428749999998,34.03
2021-06-29 10:40:57.773437500,-41.0,4.0,49.25,75.772265625,-6.955,1.9681628125,34.03
2021-06-29 10:40:57.781250000,-41.0,4.0,49.0,75.7721875,-9.23,1.96808275,34.03
2021-06-29 10:40:57.789062500,-41.25,4.0,49.25,75.772109375,-11.385,1.9680026874999998,34.03
2021-06-29 10:40:57.796875000,-41.5,4.0,49.5,75.77203125,-13.54,1.967922625,34.03
2021-06-29 10:40:57.804687500,-41.75,4.0,49.75,75.771953125,-15.54,1.9678425625,34.03
2021-06-29 10:40:57.812500000,-42.0,4.0,50.0,75.771875,-17.54,1.9677624999999999,34.03
2021-06-29 10:40:57.820312500,-41.75,4.0,49.75,75.77179687499999,-19.445,1.9676824375,34.03
2021-06-29 10:40:57.828125000,-41.5,4.0,49.5,75.77171874999999,-21.35,1.967602375,34.03
2021-06-29 10:40:57.835937500,-41.25,4.0,49.25,75.771640625,-23.305,1.9675223124999999,34.03
2021-06-29 10:40:57.843750000,-41.0,4.0,49.0,75.7715625,-25.26,1.96744225,34.03
2021-06-29 10:40:57.851562500,-41.0,4.0,49.0,75.771484375,-27.475,1.9673621875,34.03
2021-06-29 10:40:57.859375000,-41.0,4.0,49.0,75.77140625,-29.69,1.9672821249999999,34.03
2021-06-29 10:40:57.867187500,-41.0,4.0,49.0,75.771328125,-32.395,1.9672020625,34.03
2021-06-29 10:40:57.875000000,-41.0,4.0,49.0,75.77125,-35.1,1.9671219999999998,34.03
2021-06-29 10:40:57.882812500,-41.0,4.0,49.0,75.771171875,-38.519999999999996,1.9670419375,34.03
2021-06-29 10:40:57.890625000,-41.0,4.0,49.0,75.77109374999999,-41.94,1.966961875,34.03
2021-06-29 10:40:57.898437500,-41.0,4.0,49.0,75.77101562499999,-46.18,1.9668818124999998,34.03
2021-06-29 10:40:57.906250000,-41.0,4.0,49.0,75.7709375,-50.42,1.96680175,34.03
2021-06-29 10:40:57.914062500,-41.25,4.0,49.25,75.770859375,-55.400000000000006,1.9667216875,34.03
2021-06-29 10:40:57.921875000,-41.5,4.0,49.5,75.77078125,-60.38,1.9666416249999998,34.03
2021-06-29 10:40:57.929687500,-41.75,4.0,49.75,75.770703125,-65.68,1.9665615625,34.03
2021-06-29 10:40:57.937500000,-42.0,4.0,50.0,75.770625,-70.98,1.9664815,34.03
2021-06-29 10:40:57.945312500,-42.0,4.0,49.75,75.770546875,-75.815,1.9664014374999998,34.03
2021-06-29 10:40:57.953125000,-42.0,4.0,49.5,75.77046874999999,-80.65,1.966321375,34.03
2021-06-29 10:40:57.960937500,-42.0,4.0,49.25,75.77039062499999,-83.99000000000001,1.9662413125,34.03
2021-06-29 10:40:57.968750000,-42.0,4.0,49.0,75.7703125,-87.33,1.9661612499999999,34.03
2021-06-29 10:40:57.976562500,-42.0,4.0,49.0,75.770234375,-88.15,1.9660811875,34.03
2021-06-29 10:40:57.984375000,-42.0,4.0,49.0,75.77015625,-88.97,1.966001125,34.03
2021-06-29 10:40:57.992187500,-42.0,4.0,49.0,75.770078125,-86.60499999999999,1.9659210624999999,34.03
2021-06-29 10:40:58.000000000,-42.0,4.0,49.0,75.77,-84.24,1.965841,34.03
2021-06-29 10:40:58.007812500,-41.75,4.0,49.25,75.76984374999999,-78.63,1.9663614375,34.030625
2021-06-29 10:40:58.015625000,-41.5,4.0,49.5,75.76968749999999,-73.02,1.966881875,34.03125
2021-06-29 10:40:58.023437500,-41.25,4.0,49.75,75.76953125,-64.765,1.9674023125,34.031875
2021-06-29 10:40:58.031250000,-41.0,4.0,50.0,75.769375,-56.51,1.96792275,34.0325
2021-06-29 10:40:58.039062500,-41.25,4.0,49.75,75.76921875,-46.72,1.9684431875,34.033125
2021-06-29 10:40:58.046875000,-41.5,4.0,49.5,75.76906249999999,-36.93,1.968963625,34.03375
2021-06-29 10:40:58.054687500,-41.75,4.0,49.25,75.76890625,-26.85,1.9694840624999999,34.034375
2021-06-29 10:40:58.062500000,-42.0,4.0,49.0,75.76875,-16.77,1.9700045,34.035
2021-06-29 10:40:58.070312500,-41.75,4.0,49.0,75.76859375,-7.475,1.9705249375,34.035625
2021-06-29 10:40:58.078125000,-41.5,4.0,49.0,75.76843749999999,1.82,1.9710453749999999,34.03625
2021-06-29 10:40:58.085937500,-41.25,4.0,49.0,75.76828125,9.645,1.9715658125,34.036875
2021-06-29 10:40:58.093750000,-41.0,4.0,49.0,75.768125,17.47,1.9720862499999998,34.0375
2021-06-29 10:40:58.101562500,-41.0,4.0,49.0,75.76796875,23.535,1.9726066875,34.038125
2021-06-29 10:40:58.109375000,-41.0,4.0,49.0,75.76781249999999,29.6,1.973127125,34.03875
2021-06-29 10:40:58.117187500,-41.0,4.0,49.0,75.76765625,33.855000000000004,1.9736475624999998,34.039375
2021-06-29 10:40:58.125000000,-41.0,4.0,49.0,75.7675,38.11,1.974168,34.04
2021-06-29 10:40:58.132812500,-41.25,4.0,49.0,75.76734375,40.635,1.9746884375,34.040625
2021-06-29 10:40:58.140625000,-41.5,4.0,49.0,75.76718749999999,43.16,1.9752088749999999,34.04125
2021-06-29 10:40:58.148437500,-41.75,4.0,49.0,75.76703125,44.075,1.9757293125,34.041875
2021-06-29 10:40:58.156250000,-42.0,4.0,49.0,75.766875,44.99,1.97624975,34.0425
2021-06-29 10:40:58.164062500,-42.0,4.0,49.0,75.76671875,44.49,1.9767701874999999,34.043124999999996
2021-06-29 10:40:58.171875000,-42.0,4.0,49.0,75.76656249999999,43.99,1.977290625,34.043749999999996
2021-06-29 10:40:58.179687500,-42.0,4.0,49.0,75.76640625,42.41,1.9778110624999998,34.044374999999995
2021-06-29 10:40:58.187500000,-42.0,4.0,49.0,75.76625,40.83,1.9783315,34.045
2021-06-29 10:40:58.195312500,-41.75,4.0,49.0,75.76609375,38.67,1.9788519375,34.045625
2021-06-29 10:40:58.203125000,-41.5,4.0,49.0,75.76593749999999,36.51,1.9793723749999999,34.04625
2021-06-29 10:40:58.210937500,-41.25,4.0,49.0,75.76578125,34.355000000000004,1.9798928125,34.046875
2021-06-29 10:40:58.218750000,-41.0,4.0,49.0,75.765625,32.2,1.9804132499999998,34.0475
2021-06-29 10:40:58.226562500,-41.25,4.0,49.0,75.76546875,30.55,1.9809336874999999,34.048125
2021-06-29 10:40:58.234375000,-41.5,4.0,49.0,75.7653125,28.9,1.981454125,34.04875
2021-06-29 10:40:58.242187500,-41.75,4.0,49.0,75.76515625,28.08,1.9819745624999998,34.049375
2021-06-29 10:40:58.250000000,-42.0,4.0,49.0,75.765,27.26,1.982495,34.05
2021-06-29 10:40:58.257812500,-42.0,4.0,49.0,75.76484375,27.325000000000003,1.982054625,34.05
2021-06-29 10:40:58.265625000,-42.0,4.0,49.0,75.7646875,27.39,1.9816142499999998,34.05
2021-06-29 10:40:58.273437500,-42.0,4.0,49.0,75.76453124999999,28.15,1.9811738749999999,34.05
2021-06-29 10:40:58.281250000,-42.0,4.0,49.0,75.764375,28.91,1.9807335,34.05
2021-06-29 10:40:58.289062500,-41.75,4.0,49.0,75.76421875,30.08,1.980293125,34.05
2021-06-29 10:40:58.296875000,-41.5,4.0,49.0,75.7640625,31.25,1.9798527499999998,34.05
2021-06-29 10:40:58.304687500,-41.25,4.0,49.0,75.76390624999999,32.535,1.979412375,34.05
2021-06-29 10:40:58.312500000,-41.0,4.0,49.0,75.76375,33.82,1.978972,34.05
2021-06-29 10:40:58.320312500,-41.0,4.0,49.0,75.76359375,35.025,1.9785316249999998,34.05
2021-06-29 10:40:58.328125000,-41.0,4.0,49.0,75.7634375,36.23,1.9780912499999999,34.05
2021-06-29 10:40:58.335937500,-41.0,4.0,49.0,75.76328124999999,37.239999999999995,1.977650875,34.05
2021-06-29 10:40:58.343750000,-41.0,4.0,49.0,75.763125,38.25,1.9772105,34.05
2021-06-29 10:40:58.351562500,-41.25,4.0,49.0,75.76296875,39.015,1.9767701249999998,34.05
2021-06-29 10:40:58.359375000,-41.5,4.0,49.0,75.7628125,39.78,1.9763297499999999,34.05
2021-06-29 10:40:58.367187500,-41.75,4.0,49.0,75.76265624999999,40.230000000000004,1.975889375,34.05
2021-06-29 10:40:58.375000000,-42.0,4.0,49.0,75.7625,40.68,1.9754489999999998,34.05
2021-06-29 10:40:58.382812500,-42.0,4.0,49.0,75.76234375,40.715,1.9750086249999999,34.05
2021-06-29 10:40:58.390625000,-42.0,4.0,49.0,75.7621875,40.75,1.97456825,34.05
2021-06-29 10:40:58.398437500,-42.0,4.0,49.0,75.76203124999999,40.245000000000005,1.974127875,34.05
2021-06-29 10:40:58.406250000,-42.0,4.0,49.0,75.761875,39.74,1.9736874999999998,34.05
2021-06-29 10:40:58.414062500,-42.0,4.0,49.0,75.76171875,38.58,1.9732471249999999,34.05
2021-06-29 10:40:58.421875000,-42.0,4.0,49.0,75.7615625,37.42,1.97280675,34.05
2021-06-29 10:40:58.429687500,-42.0,4.0,49.0,75.76140625,35.57,1.972366375,34.05
2021-06-29 10:40:58.437500000,-42.0,4.0,49.0,75.76125,33.72,1.9719259999999998,34.05
2021-06-29 10:40:58.445312500,-42.0,4.0,49.0,75.76109375,31.255,1.971485625,34.05
2021-06-29 10:40:58.453125000,-42.0,4.0,49.0,75.7609375,28.79,1.97104525,34.05
2021-06-29 10:40:58.460937500,-42.0,4.0,49.0,75.76078125,25.89,1.9706048749999998,34.05
2021-06-29 10:40:58.468750000,-42.0,4.0,49.0,75.760625,22.99,1.9701644999999999,34.05
2021-06-29 10:40:58.476562500,-42.0,4.0,49.0,75.76046875,19.895,1.969724125,34.05
2021-06-29 10:40:58.484375000,-42.0,4.0,49.0,75.7603125,16.8,1.96928375,34.05
2021-06-29 10:40:58.492187500,-42.0,4.0,49.0,75.76015625,13.72,1.9688433749999998,34.05
2021-06-29 10:40:58.500000000,-42.0,4.0,49.0,75.75999999999999,10.64,1.968403,34.05
2021-06-29 10:40:58.507812500,-42.0,4.0,49.0,75.75984375,7.67,1.9682428749999998,34.05
2021-06-29 10:40:58.515625000,-42.0,4.0,49.0,75.7596875,4.7,1.96808275,34.05
2021-06-29 10:40:58.523437500,-42.0,4.0,49.0,75.75953125,1.8650000000000002,1.967922625,34.05
2021-06-29 10:40:58.531250000,-42.0,4.0,49.0,75.75937499999999,-0.97,1.9677624999999999,34.05
2021-06-29 10:40:58.539062500,-42.0,4.0,49.0,75.75921875,-3.75,1.967602375,34.05
2021-06-29 10:40:58.546875000,-42.0,4.0,49.0,75.7590625,-6.53,1.96744225,34.05
2021-06-29 10:40:58.554687500,-42.0,4.0,49.0,75.75890625,-9.285,1.9672821249999999,34.05
2021-06-29 10:40:58.562500000,-42.0,4.0,49.0,75.75874999999999,-12.04,1.9671219999999998,34.05
2021-06-29 10:40:58.570312500,-42.0,4.0,49.0,75.75859375,-14.725,1.966961875,34.05
2021-06-29 10:40:58.578125000,-42.0,4.0,49.0,75.7584375,-17.41,1.96680175,34.05
2021-06-29 10:40:58.585937500,-42.0,4.0,49.0,75.75828125,-19.91,1.9666416249999998,34.05
2021-06-29 10:40:58.593750000,-42.0,4.0,49.0,75.75812499999999,-22.41,1.9664815,34.05
2021-06-29 10:40:58.601562500,-42.0,4.0,49.0,75.75796875,-24.615000000000002,1.966321375,34.05
2021-06-29 10:40:58.609375000,-42.0,4.0,49.0,75.7578125,-26.82,1.9661612499999999,34.05
2021-06-29 10:40:58.617187500,-42.0,4.0,49.0,75.75765625,-28.71,1.966001125,34.05
2021-06-29 10:40:58.625000000,-42.0,4.0,49.0,75.7575,-30.6,1.965841,34.05
2021-06-29 10:40:58.632812500,-42.0,4.0,49.0,75.75734375,-32.32,1.9656808749999999,34.05
2021-06-29 10:40:58.640625000,-42.0,4.0,49.0,75.7571875,-34.04,1.96552075,34.05
2021-06-29 10:40:58.648437500,-42.0,4.0,49.0,75.75703125,-35.9,1.965360625,34.05
2021-06-29 10:40:58.656250000,-42.0,4.0,49.0,75.756875,-37.76,1.9652005,34.05
2021-06-29 10:40:58.664062500,-42.0,4.0,49.0,75.75671875,-40.16,1.965040375,34.05
2021-06-29 10:40:58.671875000,-42.0,4.0,49.0,75.7565625,-42.56,1.96488025,34.05
2021-06-29 10:40:58.679687500,-42.0,4.0,49.0,75.75640625,-45.865,1.964720125,34.05
2021-06-29 10:40:58.687500000,-42.0,4.0,49.0,75.75625,-49.17,1.96456,34.05
2021-06-29 10:40:58.695312500,-42.0,4.0,49.0,75.75609375,-53.57,1.964399875,34.05
2021-06-29 10:40:58.703125000,-42.0,4.0,49.0,75.7559375,-57.97,1.96423975,34.05
2021-06-29 10:40:58.710937500,-42.0,4.0,49.0,75.75578125,-63.3,1.9640796249999999,34.05
2021-06-29 10:40:58.718750000,-42.0,4.0,49.0,75.755625,-68.63,1.9639195,34.05
2021-06-29 10:40:58.726562500,-42.0,4.0,49.0,75.75546875,-74.33,1.963759375,34.05
2021-06-29 10:40:58.734375000,-42.0,4.0,49.0,75.7553125,-80.03,1.96359925,34.05
2021-06-29 10:40:58.742187500,-42.0,4.0,49.0,75.75515625,-85.13,1.963439125,34.05
2021-06-29 10:40:58.750000000,-42.0,4.0,49.0,75.755,-90.23,1.963279,34.05
2021-06-29 10:40:58.757812500,-42.0,4.0,49.0,75.75484374999999,-93.55000000000001,1.963279,34.05
2021-06-29 10:40:58.765625000,-42.0,4.0,49.0,75.7546875,-96.87,1.963279,34.05
2021-06-29 10:40:58.773437500,-42.0,4.0,49.0,75.75453125,-97.325,1.963279,34.05
2021-06-29 10:40:58.781250000,-42.0,4.0,49.0,75.754375,-97.78,1.963279,34.05
2021-06-29 10:40:58.789062500,-42.0,4.0,49.0,75.75421874999999,-94.77000000000001,1.963279,34.05
2021-06-29 10:40:58.796875000,-42.0,4.0,49.0,75.7540625,-91.76,1.963279,34.05
2021-06-29 10:40:58.804687500,-42.0,4.0,49.0,75.75390625,-85.37,1.963279,34.05
2021-06-29 10:40:58.812500000,-42.0,4.0,49.0,75.75375,-78.98,1.963279,34.05
2021-06-29 10:40:58.820312500,-42.0,4.0,49.0,75.75359375,-70.04,1.963279,34.05
2021-06-29 10:40:58.828125000,-42.0,4.0,49.0,75.7534375,-61.1,1.963279,34.05
2021-06-29 10:40:58.835937500,-42.0,4.0,49.0,75.75328125,-50.89,1.963279,34.05
2021-06-29 10:40:58.843750000,-42.0,4.0,49.0,75.753125,-40.68,1.963279,34.05
2021-06-29 10:40:58.851562500,-42.0,4.0,49.0,75.75296875,-30.55,1.963279,34.05
2021-06-29 10:40:58.859375000,-42.0,4.0,49.0,75.7528125,-20.42,1.963279,34.05
2021-06-29 10:40:58.867187500,-42.0,4.0,49.0,75.75265625,-11.425,1.963279,34.05
2021-06-29 10:40:58.875000000,-42.0,4.0,49.0,75.7525,-2.43,1.963279,34.05
2021-06-29 10:40:58.882812500,-41.75,4.0,49.0,75.75234375,4.879999999999999,1.963279,34.05
2021-06-29 10:40:58.890625000,-41.5,4.0,49.0,75.7521875,12.19,1.963279,34.05
2021-06-29 10:40:58.898437500,-41.25,4.0,49.0,75.75203125,17.73,1.963279,34.05
2021-06-29 10:40:58.906250000,-41.0,4.0,49.0,75.751875,23.27,1.963279,34.05
2021-06-29 10:40:58.914062500,-41.0,4.0,49.0,75.75171875,27.235,1.963279,34.05
2021-06-29 10:40:58.921875000,-41.0,4.0,49.0,75.7515625,31.2,1.963279,34.05
2021-06-29 10:40:58.929687500,-41.0,4.0,49.0,75.75140625,33.875,1.963279,34.05
2021-06-29 10:40:58.937500000,-41.0,4.0,49.0,75.75125,36.55,1.963279,34.05
2021-06-29 10:40:58.945312500,-41.0,4.0,49.0,75.75109375,38.17,1.963279,34.05
2021-06-29 10:40:58.953125000,-41.0,4.0,49.0,75.7509375,39.79,1.963279,34.05
2021-06-29 10:40:58.960937500,-41.0,4.0,49.0,75.75078125,40.515,1.963279,34.05
2021-06-29 10:40:58.968750000,-41.0,4.0,49.0,75.750625,41.24,1.963279,34.05
2021-06-29 10:40:58.976562500,-41.25,4.0,49.0,75.75046875,41.235,1.963279,34.05
2021-06-29 10:40:58.984375000,-41.5,4.0,49.0,75.7503125,41.23,1.963279,34.05
2021-06-29 10:40:58.992187500,-41.75,4.0,49.0,75.75015625,40.7,1.963279,34.05
2021-06-29 10:40:59.000000000,-42.0,4.0,49.0,75.75,40.17,1.963279,34.05
2021-06-29 10:40:59.007812500,-42.0,3.75,49.0,75.75,39.400000000000006,1.9636393125,34.0484375
2021-06-29 10:40:59.015625000,-42.0,3.5,49.0,75.75,38.63,1.963999625,34.046875
2021-06-29 10:40:59.023437500,-42.0,3.25,49.0,75.75,37.945,1.9643599375,34.045312499999994
2021-06-29 10:40:59.031250000,-42.0,3.0,49.0,75.75,37.26,1.96472025,34.043749999999996
2021-06-29 10:40:59.039062500,-42.0,3.25,49.0,75.75,36.959999999999994,1.9650805625,34.0421875
2021-06-29 10:40:59.046875000,-42.0,3.5,49.0,75.75,36.66,1.965440875,34.040625
2021-06-29 10:40:59.054687500,-42.0,3.75,49.0,75.75,36.915,1.9658011875,34.0390625
2021-06-29 10:40:59.062500000,-42.0,4.0,49.0,75.75,37.17,1.9661615000000001,34.037499999999994
2021-06-29 10:40:59.070312500,-42.0,4.0,49.0,75.75,38.0,1.9665218125,34.035937499999996
2021-06-29 10:40:59.078125000,-42.0,4.0,49.0,75.75,38.83,1.966882125,34.034375
2021-06-29 10:40:59.085937500,-42.0,4.0,49.0,75.75,40.099999999999994,1.9672424375,34.0328125
2021-06-29 10:40:59.093750000,-42.0,4.0,49.0,75.75,41.37,1.96760275,34.03125
2021-06-29 10:40:59.101562500,-42.0,4.0,49.0,75.75,42.834999999999994,1.9679630625,34.0296875
2021-06-29 10:40:59.109375000,-42.0,4.0,49.0,75.75,44.3,1.968323375,34.028124999999996
2021-06-29 10:40:59.117187500,-42.0,4.0,49.0,75.75,45.715,1.9686836875,34.0265625
2021-06-29 10:40:59.125000000,-42.0,4.0,49.0,75.75,47.13,1.969044,34.025
2021-06-29 10:40:59.132812500,-42.0,4.0,49.0,75.75,48.285,1.9694043125,34.0234375
2021-06-29 10:40:59.140625000,-42.0,4.0,49.0,75.75,49.44,1.969764625,34.021875
2021-06-29 10:40:59.148437500,-42.0,4.0,49.0,75.75,50.17,1.9701249375,34.020312499999996
2021-06-29 10:40:59.156250000,-42.0,4.0,49.0,75.75,50.9,1.97048525,34.01875
2021-06-29 10:40:59.164062500,-41.75,4.0,49.0,75.75,51.099999999999994,1.9708455625,34.0171875
2021-06-29 10:40:59.171875000,-41.5,4.0,49.0,75.75,51.3,1.971205875,34.015625
2021-06-29 10:40:59.179687500,-41.25,4.0,49.0,75.75,50.875,1.9715661875000001,34.0140625
2021-06-29 10:40:59.187500000,-41.0,4.0,49.0,75.75,50.45,1.9719265,34.0125
2021-06-29 10:40:59.195312500,-41.0,4.0,49.0,75.75,49.35,1.9722868125,34.0109375
2021-06-29 10:40:59.203125000,-41.0,4.0,49.0,75.75,48.25,1.972647125,34.009375
2021-06-29 10:40:59.210937500,-41.0,4.0,49.0,75.75,46.480000000000004,1.9730074375,34.0078125
2021-06-29 10:40:59.218750000,-41.0,4.0,49.0,75.75,44.71,1.97336775,34.00625
2021-06-29 10:40:59.226562500,-41.0,4.0,49.0,75.75,42.36,1.9737280625,34.0046875
2021-06-29 10:40:59.234375000,-41.0,4.0,49.0,75.75,40.01,1.974088375,34.003125
2021-06-29 10:40:59.242187500,-41.0,4.0,49.0,75.75,37.224999999999994,1.9744486875,34.0015625
2021-06-29 10:40:59.250000000,-41.0,4.0,49.0,75.75,34.44,1.974809,34.0
2021-06-29 10:40:59.257812500,-41.0,4.0,49.0,75.75,31.4,1.97452875,34.0
2021-06-29 10:40:59.265625000,-41.0,4.0,49.0,75.75,28.36,1.9742485,34.0
2021-06-29 10:40:59.273437500,-41.0,4.0,49.0,75.75,25.189999999999998,1.97396825,34.0
2021-06-29 10:40:59.281250000,-41.0,4.0,49.0,75.75,22.02,1.973688,34.0
2021-06-29 10:40:59.289062500,-41.0,4.0,49.0,75.75,18.775,1.97340775,34.0
2021-06-29 10:40:59.296875000,-41.0,4.0,49.0,75.75,15.53,1.9731275,34.0
2021-06-29 10:40:59.304687500,-41.0,4.0,49.0,75.75,12.239999999999998,1.97284725,34.0
2021-06-29 10:40:59.312500000,-41.0,4.0,49.0,75.75,8.95,1.972567,34.0
2021-06-29 10:40:59.320312500,-41.25,4.0,49.0,75.75,5.654999999999999,1.97228675,34.0
2021-06-29 10:40:59.328125000,-41.5,4.0,49.0,75.75,2.36,1.9720065,34.0
2021-06-29 10:40:59.335937500,-41.75,4.0,49.0,75.75,-0.8500000000000001,1.97172625,34.0
2021-06-29 10:40:59.343750000,-42.0,4.0,49.0,75.75,-4.06,1.971446,34.0
2021-06-29 10:40:59.351562500,-42.0,4.0,49.25,75.75,-7.0600000000000005,1.97116575,34.0
2021-06-29 10:40:59.359375000,-42.0,4.0,49.5,75.75,-10.06,1.9708855,34.0
2021-06-29 10:40:59.367187500,-42.0,4.0,49.75,75.75,-12.760000000000002,1.97060525,34.0
2021-06-29 10:40:59.375000000,-42.0,4.0,50.0,75.75,-15.46,1.9703249999999999,34.0
2021-06-29 10:40:59.382812500,-42.0,4.0,49.75,75.75,-17.84,1.97004475,34.0
2021-06-29 10:40:59.390625000,-42.0,4.0,49.5,75.75,-20.22,1.9697645,34.0
2021-06-29 10:40:59.398437500,-42.0,4.0,49.25,75.75,-22.384999999999998,1.96948425,34.0
2021-06-29 10:40:59.406250000,-42.0,4.0,49.0,75.75,-24.55,1.969204,34.0
2021-06-29 10:40:59.414062500,-41.75,4.0,49.0,75.75,-26.67,1.96892375,34.0
2021-06-29 10:40:59.421875000,-41.5,4.0,49.0,75.75,-28.79,1.9686435,34.0
2021-06-29 10:40:59.429687500,-41.25,4.0,49.0,75.75,-31.075,1.96836325,34.0
2021-06-29 10:40:59.437500000,-41.0,4.0,49.0,75.75,-33.36,1.968083,34.0
2021-06-29 10:40:59.445312500,-41.25,4.0,49.0,75.75,-35.995000000000005,1.96780275,34.0
2021-06-29 10:40:59.453125000,-41.5,4.0,49.0,75.75,-38.63,1.9675225,34.0
2021-06-29 10:40:59.460937500,-41.75,4.0,49.0,75.75,-41.785,1.96724225,34.0
2021-06-29 10:40:59.468750000,-42.0,4.0,49.0,75.75,-44.94,1.9669619999999999,34.0
2021-06-29 10:40:59.476562500,-41.75,4.0,49.0,75.75,-48.745,1.96668175,34.0
2021-06-29 10:40:59.484375000,-41.5,4.0,49.0,75.75,-52.55,1.9664015,34.0
2021-06-29 10:40:59.492187500,-41.25,4.0,49.0,75.75,-56.974999999999994,1.96612125,34.0
2021-06-29 10:40:59.500000000,-41.0,4.0,49.0,75.75,-61.4,1.965841,34.0
2021-06-29 10:40:59.507812500,-41.0,4.0,49.0,75.75,-66.135,1.9660812187499999,34.0
2021-06-29 10:40:59.515625000,-41.0,4.0,49.0,75.75,-70.87,1.9663214375,34.0
2021-06-29 10:40:59.523437500,-41.0,4.0,49.0,75.75,-75.26,1.96656165625,34.0
2021-06-29 10:40:59.531250000,-41.0,4.0,49.0,75.75,-79.65,1.966801875,34.0
2021-06-29 10:40:59.539062500,-41.25,4.0,49.25,75.75,-82.735,1.96704209375,34.0
2021-06-29 10:40:59.546875000,-41.5,4.0,49.5,75.75,-85.82,1.9672823124999999,34.0
2021-06-29 10:40:59.554687500,-41.75,4.0,49.75,75.75,-86.6,1.96752253125,34.0
2021-06-29 10:40:59.562500000,-42.0,4.0,50.0,75.75,-87.38,1.96776275,34.0
2021-06-29 10:40:59.570312500,-42.0,4.0,49.75,75.75,-85.16,1.96800296875,34.0
2021-06-29 10:40:59.578125000,-42.0,4.0,49.5,75.75,-82.94,1.9682431875,34.0
2021-06-29 10:40:59.585937500,-42.0,4.0,49.25,75.75,-77.655,1.9684834062499998,34.0
2021-06-29 10:40:59.593750000,-42.0,4.0,49.0,75.75,-72.37,1.968723625,34.0
2021-06-29 10:40:59.601562500,-41.75,4.0,49.0,75.75,-64.63,1.9689638437499999,34.0
2021-06-29 10:40:59.609375000,-41.5,4.0,49.0,75.75,-56.89,1.9692040625,34.0
2021-06-29 10:40:59.617187500,-41.25,4.0,49.0,75.75,-47.805,1.96944428125,34.0
2021-06-29 10:40:59.625000000,-41.0,4.0,49.0,75.75,-38.72,1.9696845,34.0
2021-06-29 10:40:59.632812500,-41.0,4.0,49.0,75.75,-29.52,1.96992471875,34.0
2021-06-29 10:40:59.640625000,-41.0,4.0,49.0,75.75,-20.32,1.9701649374999999,34.0
2021-06-29 10:40:59.648437500,-41.0,4.0,49.0,75.75,-11.98,1.97040515625,34.0
2021-06-29 10:40:59.656250000,-41.0,4.0,49.0,75.75,-3.64,1.970645375,34.0
2021-06-29 10:40:59.664062500,-41.0,4.0,49.0,75.75,3.2950000000000004,1.97088559375,34.0
2021-06-29 10:40:59.671875000,-41.0,4.0,49.0,75.75,10.23,1.9711258125,34.0
2021-06-29 10:40:59.679687500,-41.0,4.0,49.0,75.75,15.645,1.9713660312499999,34.0
2021-06-29 10:40:59.687500000,-41.0,4.0,49.0,75.75,21.06,1.97160625,34.0
2021-06-29 10:40:59.695312500,-41.0,4.0,49.0,75.75,25.04,1.97184646875,34.0
2021-06-29 10:40:59.703125000,-41.0,4.0,49.0,75.75,29.02,1.9720866875,34.0
2021-06-29 10:40:59.710937500,-41.0,4.0,49.0,75.75,31.68,1.97232690625,34.0
2021-06-29 10:40:59.718750000,-41.0,4.0,49.0,75.75,34.34,1.9725671249999999,34.0
2021-06-29 10:40:59.726562500,-41.0,4.0,49.25,75.75,35.72,1.97280734375,34.0
2021-06-29 10:40:59.734375000,-41.0,4.0,49.5,75.75,37.1,1.9730475625,34.0
2021-06-29 10:40:59.742187500,-41.0,4.0,49.75,75.75,37.24,1.97328778125,34.0
2021-06-29 10:40:59.750000000,-41.0,4.0,50.0,75.75,37.38,1.973528,34.0
2021-06-29 10:40:59.757812500,-41.25,4.0,49.75,75.75,36.455,1.97336784375,34.0
2021-06-29 10:40:59.765625000,-41.5,4.0,49.5,75.75,35.53,1.9732076875,34.0
2021-06-29 10:40:59.773437500,-41.75,4.0,49.25,75.75,33.915,1.97304753125,34.0
2021-06-29 10:40:59.781250000,-42.0,4.0,49.0,75.75,32.3,1.972887375,34.0
2021-06-29 10:40:59.789062500,-42.0,4.0,49.0,75.75,30.555,1.97272721875,34.0
2021-06-29 10:40:59.796875000,-42.0,4.0,49.0,75.75,28.81,1.9725670625,34.0
2021-06-29 10:40:59.804687500,-42.0,4.0,49.0,75.75,27.505,1.97240690625,34.0
2021-06-29 10:40:59.812500000,-42.0,4.0,49.0,75.75,26.2,1.97224675,34.0
2021-06-29 10:40:59.820312500,-41.75,4.0,49.0,75.75,25.755,1.9720865937499998,34.0
2021-06-29 10:40:59.828125000,-41.5,4.0,49.0,75.75,25.31,1.9719264374999999,34.0
2021-06-29 10:40:59.835937500,-41.25,4.0,49.0,75.75,25.85,1.9717662812499999,34.0
2021-06-29 10:40:59.843750000,-41.0,4.0,49.0,75.75,26.39,1.9716061249999999,34.0
2021-06-29 10:40:59.851562500,-41.25,4.0,49.0,75.75,27.740000000000002,1.9714459687499999,34.0
2021-06-29 10:40:59.859375000,-41.5,4.0,49.0,75.75,29.09,1.9712858125,34.0
2021-06-29 10:40:59.867187500,-41.75,4.0,49.0,75.75,30.905,1.97112565625,34.0
2021-06-29 10:40:59.875000000,-42.0,4.0,49.0,75.75,32.72,1.9709655,34.0
2021-06-29 10:40:59.882812500,-42.0,4.0,49.0,75.75,34.599999999999994,1.97080534375,34.0
2021-06-29 10:40:59.890625000,-42.0,4.0,49.0,75.75,36.48,1.9706451875,34.0
2021-06-29 10:40:59.898437500,-42.0,4.0,49.0,75.75,38.125,1.97048503125,34.0
2021-06-29 10:40:59.906250000,-42.0,4.0,49.0,75.75,39.77,1.970324875,34.0
2021-06-29 10:40:59.914062500,-42.0,4.0,49.0,75.75,41.0,1.97016471875,34.0
2021-06-29 10:40:59.921875000,-42.0,4.0,49.0,75.75,42.23,1.9700045625,34.0
2021-06-29 10:40:59.929687500,-42.0,4.0,49.0,75.75,42.959999999999994,1.96984440625,34.0
2021-06-29 10:40:59.937500000,-42.0,4.0,49.0,75.75,43.69,1.9696842499999998,34.0
2021-06-29 10:40:59.945312500,-41.75,4.0,49.0,75.75,43.89,1.9695240937499998,34.0
2021-06-29 10:40:59.953125000,-41.5,4.0,49.0,75.75,44.09,1.9693639374999998,34.0
2021-06-29 10:40:59.960937500,-41.25,4.0,49.0,75.75,43.71,1.9692037812499998,34.0
2021-06-29 10:40:59.968750000,-41.0,4.0,49.0,75.75,43.33,1.9690436249999999,34.0
2021-06-29 10:40:59.976562500,-41.0,4.0,49.0,75.75,42.305,1.9688834687499999,34.0
2021-06-29 10:40:59.984375000,-41.0,4.0,49.0,75.75,41.28,1.9687233124999999,34.0
2021-06-29 10:40:59.992187500,-41.0,4.0,49.0,75.75,39.519999999999996,1.96856315625,34.0
2021-06-29 10:41:00.000000000,-41.0,4.0,49.0,75.75,37.76,1.968403,34.0
2021-06-29 10:41:00.007812500,-41.0,4.0,49.0,75.75015625,35.235,1.96848309375,34.0009375
2021-06-29 10:41:00.015625000,-41.0,4.0,49.0,75.7503125,32.71,1.9685631874999998,34.001875
2021-06-29 10:41:00.023437500,-41.0,4.0,49.0,75.75046875,29.465,1.9686432812499999,34.0028125
2021-06-29 10:41:00.031250000,-41.0,4.0,49.0,75.750625,26.22,1.968723375,34.00375
2021-06-29 10:41:00.039062500,-41.0,4.0,49.0,75.75078125,22.415,1.96880346875,34.0046875
2021-06-29 10:41:00.046875000,-41.0,4.0,49.0,75.7509375,18.61,1.9688835624999999,34.005625
2021-06-29 10:41:00.054687500,-41.0,4.0,49.0,75.75109375,14.504999999999999,1.96896365625,34.0065625
2021-06-29 10:41:00.062500000,-41.0,4.0,49.0,75.75125,10.4,1.96904375,34.0075
2021-06-29 10:41:00.070312500,-41.25,4.0,49.0,75.75140625,6.32,1.9691238437499998,34.0084375
2021-06-29 10:41:00.078125000,-41.5,4.0,49.0,75.7515625,2.24,1.9692039375,34.009375
2021-06-29 10:41:00.085937500,-41.75,4.0,49.0,75.75171875,-1.52,1.96928403125,34.0103125
2021-06-29 10:41:00.093750000,-42.0,4.0,49.0,75.751875,-5.28,1.969364125,34.011250000000004
2021-06-29 10:41:00.101562500,-42.0,4.0,49.0,75.75203125,-8.545,1.9694442187499999,34.0121875
2021-06-29 10:41:00.109375000,-42.0,4.0,49.0,75.7521875,-11.81,1.9695243125,34.013125
2021-06-29 10:41:00.117187500,-42.0,4.0,49.0,75.75234375,-14.565000000000001,1.96960440625,34.0140625
2021-06-29 10:41:00.125000000,-42.0,4.0,49.0,75.7525,-17.32,1.9696845,34.015
2021-06-29 10:41:00.132812500,-42.0,4.0,49.0,75.75265625,-19.72,1.96976459375,34.0159375
2021-06-29 10:41:00.140625000,-42.0,4.0,49.0,75.7528125,-22.12,1.9698446875,34.016875
2021-06-29 10:41:00.148437500,-42.0,4.0,49.0,75.75296875,-24.44,1.96992478125,34.0178125
2021-06-29 10:41:00.156250000,-42.0,4.0,49.0,75.753125,-26.76,1.9700048749999999,34.01875
2021-06-29 10:41:00.164062500,-42.0,4.0,49.0,75.75328125,-29.305,1.97008496875,34.0196875
2021-06-29 10:41:00.171875000,-42.0,4.0,49.0,75.7534375,-31.85,1.9701650625,34.020625
2021-06-29 10:41:00.179687500,-42.0,4.0,49.0,75.75359375,-34.900000000000006,1.97024515625,34.0215625
2021-06-29 10:41:00.187500000,-42.0,4.0,49.0,75.75375,-37.95,1.97032525,34.0225
2021-06-29 10:41:00.195312500,-42.0,4.0,49.0,75.75390625,-41.665000000000006,1.97040534375,34.0234375
2021-06-29 10:41:00.203125000,-42.0,4.0,49.0,75.7540625,-45.38,1.9704854375,34.024375
2021-06-29 10:41:00.210937500,-42.0,4.0,49.0,75.75421874999999,-49.695,1.97056553125,34.0253125
2021-06-29 10:41:00.218750000,-42.0,4.0,49.0,75.754375,-54.01,1.970645625,34.026250000000005
2021-06-29 10:41:00.226562500,-41.75,4.0,49.0,75.75453125,-58.58,1.97072571875,34.027187500000004
2021-06-29 10:41:00.234375000,-41.5,4.0,49.0,75.7546875,-63.15,1.9708058125,34.028125
2021-06-29 10:41:00.242187500,-41.25,4.0,49.0,75.75484374999999,-67.29,1.97088590625,34.0290625
2021-06-29 10:41:00.250000000,-41.0,4.0,49.0,75.755,-71.43,1.970966,34.03
2021-06-29 10:41:00.257812500,-41.25,4.0,49.25,75.75515625,-74.225,1.97072578125,34.03
2021-06-29 10:41:00.265625000,-41.5,4.0,49.5,75.7553125,-77.02,1.9704855625,34.03
2021-06-29 10:41:00.273437500,-41.75,4.0,49.75,75.75546875,-77.565,1.97024534375,34.03
2021-06-29 10:41:00.281250000,-42.0,4.0,50.0,75.755625,-78.11,1.970005125,34.03
2021-06-29 10:41:00.289062500,-41.75,4.0,49.75,75.75578125,-75.815,1.96976490625,34.03
2021-06-29 10:41:00.296875000,-41.5,4.0,49.5,75.7559375,-73.52,1.9695246875,34.03
2021-06-29 10:41:00.304687500,-41.25,4.0,49.25,75.75609375,-68.315,1.96928446875,34.03
2021-06-29 10:41:00.312500000,-41.0,4.0,49.0,75.75625,-63.11,1.96904425,34.03
2021-06-29 10:41:00.320312500,-41.25,4.0,49.0,75.75640625,-55.56,1.96880403125,34.03
2021-06-29 10:41:00.328125000,-41.5,4.0,49.0,75.7565625,-48.01,1.9685638125,34.03
2021-06-29 10:41:00.335937500,-41.75,4.0,49.0,75.75671875,-39.1,1.96832359375,34.03
2021-06-29 10:41:00.343750000,-42.0,4.0,49.0,75.756875,-30.19,1.968083375,34.03
2021-06-29 10:41:00.351562500,-41.75,4.0,49.0,75.75703125,-21.055,1.96784315625,34.03
2021-06-29 10:41:00.359375000,-41.5,4.0,49.0,75.7571875,-11.92,1.9676029375,34.03
2021-06-29 10:41:00.367187500,-41.25,4.0,49.0,75.75734375,-3.5250000000000004,1.96736271875,34.03
2021-06-29 10:41:00.375000000,-41.0,4.0,49.0,75.7575,4.87,1.9671224999999999,34.03
2021-06-29 10:41:00.382812500,-41.25,4.0,49.25,75.75765625,11.93,1.96688228125,34.03
2021-06-29 10:41:00.390625000,-41.5,4.0,49.5,75.7578125,18.99,1.9666420625,34.03
2021-06-29 10:41:00.398437500,-41.75,4.0,49.75,75.75796875,24.465,1.96640184375,34.03
2021-06-29 10:41:00.406250000,-42.0,4.0,50.0,75.75812499999999,29.94,1.966161625,34.03
2021-06-29 10:41:00.414062500,-42.0,3.75,50.0,75.75828125,33.82,1.96592140625,34.03
2021-06-29 10:41:00.421875000,-42.0,3.5,50.0,75.7584375,37.7,1.9656811875,34.03
2021-06-29 10:41:00.429687500,-42.0,3.25,50.0,75.75859375,40.085,1.96544096875,34.03
2021-06-29 10:41:00.437500000,-42.0,3.0,50.0,75.75874999999999,42.47,1.96520075,34.03
2021-06-29 10:41:00.445312500,-41.75,3.25,49.75,75.75890625,43.489999999999995,1.96496053125,34.03
2021-06-29 10:41:00.453125000,-41.5,3.5,49.5,75.7590625,44.51,1.9647203125,34.03
2021-06-29 10:41:00.460937500,-41.25,3.75,49.25,75.75921875,44.33,1.96448009375,34.03
2021-06-29 10:41:00.468750000,-41.0,4.0,49.0,75.75937499999999,44.15,1.964239875,34.03
2021-06-29 10:41:00.476562500,-41.0,4.0,49.0,75.75953125,43.019999999999996,1.96399965625,34.03
2021-06-29 10:41:00.484375000,-41.0,4.0,49.0,75.7596875,41.89,1.9637594375,34.03
2021-06-29 10:41:00.492187500,-41.0,4.0,49.0,75.75984375,40.225,1.96351921875,34.03
2021-06-29 10:41:00.500000000,-41.0,4.0,49.0,75.75999999999999,38.56,1.963279,34.03
2021-06-29 10:41:00.507812500,-41.0,4.0,49.25,75.76015625,36.845,1.96351921875,34.03
2021-06-29 10:41:00.515625000,-41.0,4.0,49.5,75.7603125,35.13,1.9637594375,34.03
2021-06-29 10:41:00.523437500,-41.0,4.0,49.75,75.76046875,33.84,1.96399965625,34.03
2021-06-29 10:41:00.531250000,-41.0,4.0,50.0,75.760625,32.55,1.964239875,34.03
2021-06-29 10:41:00.539062500,-41.0,4.0,50.0,75.76078125,32.03,1.96448009375,34.03
2021-06-29 10:41:00.546875000,-41.0,4.0,50.0,75.7609375,31.51,1.9647203125,34.03
2021-06-29 10:41:00.554687500,-41.0,4.0,50.0,75.76109375,31.85,1.96496053125,34.03
2021-06-29 10:41:00.562500000,-41.0,4.0,50.0,75.76125,32.19,1.96520075,34.03
2021-06-29 10:41:00.570312500,-41.0,4.0,49.75,75.76140625,33.22,1.96544096875,34.03
2021-06-29 10:41:00.578125000,-41.0,4.0,49.5,75.7615625,34.25,1.9656811875,34.03
2021-06-29 10:41:00.585937500,-41.0,4.0,49.25,75.76171875,35.595,1.96592140625,34.03
2021-06-29 10:41:00.593750000,-41.0,4.0,49.0,75.761875,36.94,1.966161625,34.03
2021-06-29 10:41:00.601562500,-41.25,4.0,49.0,75.76203124999999,38.18,1.96640184375,34.03
2021-06-29 10:41:00.609375000,-41.5,4.0,49.0,75.7621875,39.42,1.9666420625,34.03
2021-06-29 10:41:00.617187500,-41.75,4.0,49.0,75.76234375,40.24,1.96688228125,34.03
2021-06-29 10:41:00.625000000,-42.0,4.0,49.0,75.7625,41.06,1.9671224999999999,34.03
2021-06-29 10:41:00.632812500,-42.0,4.0,49.0,75.76265624999999,41.33,1.96736271875,34.03
2021-06-29 10:41:00.640625000,-42.0,4.0,49.0,75.7628125,41.6,1.9676029375,34.03
2021-06-29 10:41:00.648437500,-42.0,4.0,49.0,75.76296875,41.370000000000005,1.96784315625,34.03
2021-06-29 10:41:00.656250000,-42.0,4.0,49.0,75.763125,41.14,1.968083375,34.03
2021-06-29 10:41:00.664062500,-42.0,4.0,49.0,75.76328124999999,40.54,1.96832359375,34.03
2021-06-29 10:41:00.671875000,-42.0,4.0,49.0,75.7634375,39.94,1.9685638125,34.03
2021-06-29 10:41:00.679687500,-42.0,4.0,49.0,75.76359375,39.045,1.96880403125,34.03
2021-06-29 10:41:00.687500000,-42.0,4.0,49.0,75.76375,38.15,1.96904425,34.03
2021-06-29 10:41:00.695312500,-42.0,4.0,49.25,75.76390624999999,36.93,1.96928446875,34.03
2021-06-29 10:41:00.703125000,-42.0,4.0,49.5,75.7640625,35.71,1.9695246875,34.03
2021-06-29 10:41:00.710937500,-42.0,4.0,49.75,75.76421875,34.015,1.96976490625,34.03
2021-06-29 10:41:00.718750000,-42.0,4.0,50.0,75.764375,32.32,1.970005125,34.03
2021-06-29 10:41:00.726562500,-41.75,4.0,49.75,75.76453124999999,29.98,1.97024534375,34.03
2021-06-29 10:41:00.734375000,-41.5,4.0,49.5,75.7646875,27.64,1.9704855625,34.03
2021-06-29 10:41:00.742187500,-41.25,4.0,49.25,75.76484375,24.57,1.97072578125,34.03
2021-06-29 10:41:00.750000000,-41.0,4.0,49.0,75.765,21.5,1.970966,34.03
2021-06-29 10:41:00.757812500,-41.25,4.0,49.0,75.76515625,17.785,1.97088590625,34.03
2021-06-29 10:41:00.765625000,-41.5,4.0,49.0,75.7653125,14.07,1.9708058125,34.03
2021-06-29 10:41:00.773437500,-41.75,4.0,49.0,75.76546875,9.97,1.97072571875,34.03
2021-06-29 10:41:00.781250000,-42.0,4.0,49.0,75.765625,5.87,1.970645625,34.03
2021-06-29 10:41:00.789062500,-42.0,4.0,49.25,75.76578125,1.7400000000000002,1.97056553125,34.03
2021-06-29 10:41:00.796875000,-42.0,4.0,49.5,75.76593749999999,-2.39,1.9704854375,34.03
2021-06-29 10:41:00.804687500,-42.0,4.0,49.75,75.76609375,-6.1899999999999995,1.97040534375,34.03
2021-06-29 10:41:00.812500000,-42.0,4.0,50.0,75.76625,-9.99,1.97032525,34.03
2021-06-29 10:41:00.820312500,-41.75,4.0,49.75,75.76640625,-13.215,1.97024515625,34.03
2021-06-29 10:41:00.828125000,-41.5,4.0,49.5,75.76656249999999,-16.44,1.9701650625,34.03
2021-06-29 10:41:00.835937500,-41.25,4.0,49.25,75.76671875,-19.035,1.97008496875,34.03
2021-06-29 10:41:00.843750000,-41.0,4.0,49.0,75.766875,-21.63,1.9700048749999999,34.03
2021-06-29 10:41:00.851562500,-41.25,4.0,49.0,75.76703125,-23.755,1.96992478125,34.03
2021-06-29 10:41:00.859375000,-41.5,4.0,49.0,75.76718749999999,-25.88,1.9698446875,34.03
2021-06-29 10:41:00.867187500,-41.75,4.0,49.0,75.76734375,-27.865000000000002,1.96976459375,34.03
2021-06-29 10:41:00.875000000,-42.0,4.0,49.0,75.7675,-29.85,1.9696845,34.03
2021-06-29 10:41:00.882812500,-41.75,4.0,49.0,75.76765625,-32.1,1.96960440625,34.03
2021-06-29 10:41:00.890625000,-41.5,4.0,49.0,75.76781249999999,-34.35,1.9695243125,34.03
2021-06-29 10:41:00.898437500,-41.25,4.0,49.0,75.76796875,-37.265,1.9694442187499999,34.03
2021-06-29 10:41:00.906250000,-41.0,4.0,49.0,75.768125,-40.18,1.969364125,34.03
2021-06-29 10:41:00.914062500,-41.25,4.0,49.0,75.76828125,-43.995000000000005,1.96928403125,34.03
2021-06-29 10:41:00.921875000,-41.5,4.0,49.0,75.76843749999999,-47.81,1.9692039375,34.03
2021-06-29 10:41:00.929687500,-41.75,4.0,49.0,75.76859375,-52.505,1.9691238437499998,34.03
2021-06-29 10:41:00.937500000,-42.0,4.0,49.0,75.76875,-57.2,1.96904375,34.03
2021-06-29 10:41:00.945312500,-41.75,4.0,49.0,75.76890625,-62.39,1.96896365625,34.03
2021-06-29 10:41:00.953125000,-41.5,4.0,49.0,75.76906249999999,-67.58,1.9688835624999999,34.03
2021-06-29 10:41:00.960937500,-41.25,4.0,49.0,75.76921875,-72.53,1.96880346875,34.03
2021-06-29 10:41:00.968750000,-41.0,4.0,49.0,75.769375,-77.48,1.968723375,34.03
2021-06-29 10:41:00.976562500,-41.25,4.0,49.25,75.76953125,-81.19,1.9686432812499999,34.03
2021-06-29 10:41:00.984375000,-41.5,4.0,49.5,75.76968749999999,-84.9,1.9685631874999998,34.03
2021-06-29 10:41:00.992187500,-41.75,4.0,49.75,75.76984374999999,-86.33500000000001,1.96848309375,34.03
2021-06-29 10:41:01.000000000,-42.0,4.0,50.0,75.77,-87.77,1.968403,34.03
2021-06-29 10:41:01.007812500,-42.0,4.0,49.75,75.770234375,-86.18,1.96848309375,34.0290625
2021-06-29 10:41:01.015625000,-42.0,4.0,49.5,75.77046874999999,-84.59,1.9685631874999998,34.028125
2021-06-29 10:41:01.023437500,-42.0,4.0,49.25,75.770703125,-79.765,1.9686432812499999,34.027187500000004
2021-06-29 10:41:01.031250000,-42.0,4.0,49.0,75.7709375,-74.94,1.968723375,34.026250000000005
2021-06-29 10:41:01.039062500,-42.0,4.0,49.0,75.771171875,-67.325,1.96880346875,34.0253125
2021-06-29 10:41:01.046875000,-42.0,4.0,49.0,75.77140625,-59.71,1.9688835624999999,34.024375
2021-06-29 10:41:01.054687500,-42.0,4.0,49.0,75.77164062499999,-50.32,1.96896365625,34.0234375
2021-06-29 10:41:01.062500000,-42.0,4.0,49.0,75.771875,-40.93,1.96904375,34.0225
2021-06-29 10:41:01.070312500,-42.0,4.0,49.0,75.772109375,-31.025,1.9691238437499998,34.0215625
2021-06-29 10:41:01.078125000,-42.0,4.0,49.0,75.77234374999999,-21.12,1.9692039375,34.020625
2021-06-29 10:41:01.085937500,-42.0,4.0,49.0,75.772578125,-11.870000000000001,1.96928403125,34.0196875
2021-06-29 10:41:01.093750000,-42.0,4.0,49.0,75.7728125,-2.62,1.969364125,34.01875
2021-06-29 10:41:01.101562500,-42.0,4.0,49.0,75.77304687499999,5.180000000000001,1.9694442187499999,34.0178125
2021-06-29 10:41:01.109375000,-42.0,4.0,49.0,75.77328125,12.98,1.9695243125,34.016875
2021-06-29 10:41:01.117187500,-42.0,4.0,49.0,75.773515625,19.009999999999998,1.96960440625,34.0159375
2021-06-29 10:41:01.125000000,-42.0,4.0,49.0,75.77374999999999,25.04,1.9696845,34.015
2021-06-29 10:41:01.132812500,-42.0,4.0,49.0,75.773984375,29.365,1.96976459375,34.0140625
2021-06-29 10:41:01.140625000,-42.0,4.0,49.0,75.77421875,33.69,1.9698446875,34.013125
2021-06-29 10:41:01.148437500,-42.0,4.0,49.0,75.774453125,36.555,1.96992478125,34.0121875
2021-06-29 10:41:01.156250000,-42.0,4.0,49.0,75.7746875,39.42,1.9700048749999999,34.011250000000004
2021-06-29 10:41:01.164062500,-42.0,4.0,49.0,75.77492187499999,41.095,1.97008496875,34.0103125
2021-06-29 10:41:01.171875000,-42.0,4.0,49.0,75.77515625,42.77,1.9701650625,34.009375
2021-06-29 10:41:01.179687500,-42.0,4.0,49.0,75.775390625,43.46,1.97024515625,34.0084375
2021-06-29 10:41:01.187500000,-42.0,4.0,49.0,75.77562499999999,44.15,1.97032525,34.0075
2021-06-29 10:41:01.195312500,-42.0,4.0,49.0,75.775859375,44.025,1.97040534375,34.0065625
2021-06-29 10:41:01.203125000,-42.0,4.0,49.0,75.77609375,43.9,1.9704854375,34.005625
2021-06-29 10:41:01.210937500,-42.0,4.0,49.0,75.77632812499999,43.19,1.97056553125,34.0046875
2021-06-29 10:41:01.218750000,-42.0,4.0,49.0,75.7765625,42.48,1.970645625,34.00375
2021-06-29 10:41:01.226562500,-42.0,4.0,49.0,75.776796875,41.515,1.97072571875,34.0028125
2021-06-29 10:41:01.234375000,-42.0,4.0,49.0,75.77703125,40.55,1.9708058125,34.001875
2021-06-29 10:41:01.242187500,-42.0,4.0,49.0,75.777265625,39.73,1.97088590625,34.0009375
2021-06-29 10:41:01.250000000,-42.0,4.0,49.0,75.7775,38.91,1.970966,34.0
2021-06-29 10:41:01.257812500,-42.0,4.0,49.0,75.777734375,38.595,1.9710460625,34.0
2021-06-29 10:41:01.265625000,-42.0,4.0,49.0,75.77796875,38.28,1.971126125,34.0
2021-06-29 10:41:01.273437500,-42.0,4.0,49.0,75.77820312499999,38.665,1.9712061875,34.0
2021-06-29 10:41:01.281250000,-42.0,4.0,49.0,75.7784375,39.05,1.97128625,34.0
2021-06-29 10:41:01.289062500,-42.0,4.0,49.0,75.778671875,40.095,1.9713663125,34.0
2021-06-29 10:41:01.296875000,-42.0,4.0,49.0,75.77890624999999,41.14,1.971446375,34.0
2021-06-29 10:41:01.304687500,-42.0,4.0,49.0,75.779140625,42.575,1.9715264375,34.0
2021-06-29 10:41:01.312500000,-42.0,4.0,49.0,75.779375,44.01,1.9716065,34.0
2021-06-29 10:41:01.320312500,-42.0,4.0,49.0,75.77960937499999,45.435,1.9716865625,34.0
2021-06-29 10:41:01.328125000,-42.0,4.0,49.0,75.77984375,46.86,1.9717666249999999,34.0
2021-06-29 10:41:01.335937500,-42.0,4.0,49.0,75.780078125,47.89,1.9718466875,34.0
2021-06-29 10:41:01.343750000,-42.0,4.0,49.0,75.7803125,48.92,1.97192675,34.0
2021-06-29 10:41:01.351562500,-42.0,4.0,49.0,75.780546875,49.305,1.9720068124999999,34.0
2021-06-29 10:41:01.359375000,-42.0,4.0,49.0,75.78078124999999,49.69,1.972086875,34.0
2021-06-29 10:41:01.367187500,-42.0,4.0,49.0,75.781015625,49.379999999999995,1.9721669375,34.0
2021-06-29 10:41:01.375000000,-42.0,4.0,49.0,75.78125,49.07,1.9722469999999999,34.0
2021-06-29 10:41:01.382812500,-42.0,4.0,49.0,75.78148437499999,48.18,1.9723270625,34.0
2021-06-29 10:41:01.390625000,-42.0,4.0,49.0,75.78171875,47.29,1.972407125,34.0
2021-06-29 10:41:01.398437500,-42.0,4.0,49.0,75.781953125,46.015,1.9724871875,34.0
2021-06-29 10:41:01.406250000,-42.0,4.0,49.0,75.78218749999999,44.74,1.97256725,34.0
2021-06-29 10:41:01.414062500,-42.0,4.0,49.0,75.782421875,43.230000000000004,1.9726473125,34.0
2021-06-29 10:41:01.421875000,-42.0,4.0,49.0,75.78265625,41.72,1.972727375,34.0
2021-06-29 10:41:01.429687500,-42.0,4.0,49.0,75.782890625,40.025,1.9728074375,34.0
2021-06-29 10:41:01.437500000,-42.0,4.0,49.0,75.783125,38.33,1.9728875,34.0
2021-06-29 10:41:01.445312500,-42.0,4.0,49.0,75.783359375,36.375,1.9729675625,34.0
2021-06-29 10:41:01.453125000,-42.0,4.0,49.0,75.78359375,34.42,1.973047625,34.0
2021-06-29 10:41:01.460937500,-42.0,4.0,49.0,75.783828125,32.08,1.9731276875,34.0
2021-06-29 10:41:01.468750000,-42.0,4.0,49.0,75.78406249999999,29.74,1.97320775,34.0
2021-06-29 10:41:01.476562500,-42.0,4.0,49.0,75.784296875,26.935,1.9732878125,34.0
2021-06-29 10:41:01.484375000,-42.0,4.0,49.0,75.78453125,24.13,1.9733678749999999,34.0
2021-06-29 10:41:01.492187500,-42.0,4.0,49.0,75.78476562499999,20.9,1.9734479375,34.0
2021-06-29 10:41:01.500000000,-42.0,4.0,49.0,75.785,17.67,1.973528,34.0
2021-06-29 10:41:01.507812500,-42.0,4.0,49.0,75.785234375,14.165000000000001,1.973407875,34.0
2021-06-29 10:41:01.515625000,-42.0,4.0,49.0,75.78546874999999,10.66,1.97328775,34.0
2021-06-29 10:41:01.523437500,-42.0,4.0,49.0,75.785703125,7.125,1.9731676249999999,34.0
2021-06-29 10:41:01.531250000,-42.0,4.0,49.0,75.7859375,3.59,1.9730474999999998,34.0
2021-06-29 10:41:01.539062500,-42.0,4.0,49.0,75.786171875,0.2649999999999997,1.972927375,34.0
2021-06-29 10:41:01.546875000,-42.0,4.0,49.0,75.78640625,-3.06,1.97280725,34.0
2021-06-29 10:41:01.554687500,-42.0,4.0,49.0,75.78664062499999,-6.0600000000000005,1.972687125,34.0
2021-06-29 10:41:01.562500000,-42.0,4.0,49.0,75.786875,-9.06,1.972567,34.0
2021-06-29 10:41:01.570312500,-42.0,4.0,49.0,75.787109375,-11.725000000000001,1.972446875,34.0
2021-06-29 10:41:01.578125000,-42.0,4.0,49.0,75.78734374999999,-14.39,1.97232675,34.0
2021-06-29 10:41:01.585937500,-42.0,4.0,49.0,75.787578125,-16.845,1.9722066249999999,34.0
2021-06-29 10:41:01.593750000,-42.0,4.0,49.0,75.7878125,-19.3,1.9720865,34.0
2021-06-29 10:41:01.601562500,-41.75,4.0,49.0,75.78804687499999,-21.725,1.971966375,34.0
2021-06-29 10:41:01.609375000,-41.5,4.0,49.0,75.78828125,-24.15,1.97184625,34.0
2021-06-29 10:41:01.617187500,-41.25,4.0,49.0,75.788515625,-26.74,1.971726125,34.0
2021-06-29 10:41:01.625000000,-41.0,4.0,49.0,75.78875,-29.33,1.971606,34.0
2021-06-29 10:41:01.632812500,-41.0,4.0,49.0,75.788984375,-32.235,1.971485875,34.0
2021-06-29 10:41:01.640625000,-41.0,4.0,49.0,75.78921875,-35.14,1.97136575,34.0
2021-06-29 10:41:01.648437500,-41.0,4.0,49.0,75.789453125,-38.495000000000005,1.971245625,34.0
2021-06-29 10:41:01.656250000,-41.0,4.0,49.0,75.7896875,-41.85,1.9711254999999999,34.0
2021-06-29 10:41:01.664062500,-41.0,4.0,49.25,75.78992187499999,-45.71,1.971005375,34.0
2021-06-29 10:41:01.671875000,-41.0,4.0,49.5,75.79015625,-49.57,1.97088525,34.0
2021-06-29 10:41:01.679687500,-41.0,4.0,49.75,75.790390625,-53.84,1.970765125,34.0
2021-06-29 10:41:01.687500000,-41.0,4.0,50.0,75.79062499999999,-58.11,1.970645,34.0
2021-06-29 10:41:01.695312500,-41.25,4.0,49.75,75.790859375,-62.455,1.970524875,34.0
2021-06-29 10:41:01.703125000,-41.5,4.0,49.5,75.79109375,-66.8,1.97040475,34.0
2021-06-29 10:41:01.710937500,-41.75,4.0,49.25,75.79132812499999,-70.58500000000001,1.970284625,34.0
2021-06-29 10:41:01.718750000,-42.0,4.0,49.0,75.7915625,-74.37,1.9701645,34.0
2021-06-29 10:41:01.726562500,-42.0,4.0,49.0,75.791796875,-76.72,1.970044375,34.0
2021-06-29 10:41:01.734375000,-42.0,4.0,49.0,75.79203125,-79.07,1.96992425,34.0
2021-06-29 10:41:01.742187500,-42.0,4.0,49.0,75.792265625,-79.11,1.969804125,34.0
2021-06-29 10:41:01.750000000,-42.0,4.0,49.0,75.79249999999999,-79.15,1.969684,34.0
2021-06-29 10:41:01.757812500,-42.0,4.0,49.0,75.792734375,-76.305,1.969684,34.0
2021-06-29 10:41:01.765625000,-42.0,4.0,49.0,75.79296875,-73.46,1.969684,34.0
2021-06-29 10:41:01.773437500,-42.0,4.0,49.0,75.79320312499999,-67.71,1.969684,34.0
2021-06-29 10:41:01.781250000,-42.0,4.0,49.0,75.7934375,-61.96,1.969684,34.0
2021-06-29 10:41:01.789062500,-42.0,4.0,49.0,75.793671875,-53.900000000000006,1.969684,34.0
2021-06-29 10:41:01.796875000,-42.0,4.0,49.0,75.79390624999999,-45.84,1.969684,34.0
2021-06-29 10:41:01.804687500,-42.0,4.0,49.0,75.794140625,-36.555,1.969684,34.0
2021-06-29 10:41:01.812500000,-42.0,4.0,49.0,75.794375,-27.27,1.969684,34.0
2021-06-29 10:41:01.820312500,-41.75,4.0,49.0,75.794609375,-17.990000000000002,1.969684,34.0
2021-06-29 10:41:01.828125000,-41.5,4.0,49.0,75.79484375,-8.71,1.969684,34.0
2021-06-29 10:41:01.835937500,-41.25,4.0,49.0,75.795078125,-0.46000000000000085,1.969684,34.0
2021-06-29 10:41:01.843750000,-41.0,4.0,49.0,75.7953125,7.79,1.969684,34.0
2021-06-29 10:41:01.851562500,-41.25,4.0,49.0,75.795546875,14.415,1.969684,34.0
2021-06-29 10:41:01.859375000,-41.5,4.0,49.0,75.79578124999999,21.04,1.969684,34.0
2021-06-29 10:41:01.867187500,-41.75,4.0,49.0,75.796015625,25.9,1.969684,34.0
2021-06-29 10:41:01.875000000,-42.0,4.0,49.0,75.79625,30.76,1.969684,34.0
2021-06-29 10:41:01.882812500,-42.0,4.0,49.0,75.79648437499999,34.02,1.969684,34.0
2021-06-29 10:41:01.890625000,-42.0,4.0,49.0,75.79671875,37.28,1.969684,34.0
2021-06-29 10:41:01.898437500,-42.0,4.0,49.0,75.796953125,39.22,1.969684,34.0
2021-06-29 10:41:01.906250000,-42.0,4.0,49.0,75.79718749999999,41.16,1.969684,34.0
2021-06-29 10:41:01.914062500,-41.75,4.0,49.0,75.797421875,42.025,1.969684,34.0
2021-06-29 10:41:01.921875000,-41.5,4.0,49.0,75.79765625,42.89,1.969684,34.0
2021-06-29 10:41:01.929687500,-41.25,4.0,49.0,75.797890625,42.870000000000005,1.969684,34.0
2021-06-29 10:41:01.937500000,-41.0,4.0,49.0,75.798125,42.85,1.969684,34.0
2021-06-29 10:41:01.945312500,-41.25,4.0,49.0,75.798359375,42.135000000000005,1.969684,34.0
2021-06-29 10:41:01.953125000,-41.5,4.0,49.0,75.79859375,41.42,1.969684,34.0
2021-06-29 10:41:01.960937500,-41.75,4.0,49.0,75.798828125,40.265,1.969684,34.0
2021-06-29 10:41:01.968750000,-42.0,4.0,49.0,75.79906249999999,39.11,1.969684,34.0
2021-06-29 10:41:01.976562500,-42.0,4.0,49.0,75.799296875,37.879999999999995,1.969684,34.0
2021-06-29 10:41:01.984375000,-42.0,4.0,49.0,75.79953125,36.65,1.969684,34.0
2021-06-29 10:41:01.992187500,-42.0,4.0,49.0,75.79976562499999,35.754999999999995,1.969684,34.0
2021-06-29 10:41:02.000000000,-42.0,4.0,49.0,75.8,34.86,1.969684,34.0
2021-06-29 10:41:02.007812500,-42.0,4.0,49.0,75.800234375,34.620000000000005,1.9696039375,34.0009375
2021-06-29 10:41:02.015625000,-42.0,4.0,49.0,75.80046875,34.38,1.969523875,34.001875
2021-06-29 10:41:02.023437500,-42.0,4.0,49.0,75.800703125,34.96,1.9694438125,34.0028125
2021-06-29 10:41:02.031250000,-42.0,4.0,49.0,75.8009375,35.54,1.96936375,34.00375
2021-06-29 10:41:02.039062500,-42.0,4.0,49.25,75.801171875,36.83,1.9692836875,34.0046875
2021-06-29 10:41:02.046875000,-42.0,4.0,49.5,75.80140625,38.12,1.969203625,34.005625
2021-06-29 10:41:02.054687500,-42.0,4.0,49.75,75.80164062499999,39.805,1.9691235625,34.0065625
2021-06-29 10:41:02.062500000,-42.0,4.0,50.0,75.801875,41.49,1.9690435,34.0075
2021-06-29 10:41:02.070312500,-41.75,4.0,49.75,75.802109375,43.14,1.9689634375,34.0084375
2021-06-29 10:41:02.078125000,-41.5,4.0,49.5,75.80234374999999,44.79,1.968883375,34.009375
2021-06-29 10:41:02.085937500,-41.25,4.0,49.25,75.802578125,46.0,1.9688033125,34.0103125
2021-06-29 10:41:02.093750000,-41.0,4.0,49.0,75.8028125,47.21,1.96872325,34.011250000000004
2021-06-29 10:41:02.101562500,-41.0,4.0,49.0,75.80304687499999,47.725,1.9686431875000001,34.0121875
2021-06-29 10:41:02.109375000,-41.0,4.0,49.0,75.80328125,48.24,1.968563125,34.013125
2021-06-29 10:41:02.117187500,-41.0,4.0,49.0,75.803515625,47.980000000000004,1.9684830625,34.0140625
2021-06-29 10:41:02.125000000,-41.0,4.0,49.0,75.80375,47.72,1.968403,34.015
2021-06-29 10:41:02.132812500,-41.25,4.0,49.0,75.803984375,46.769999999999996,1.9683229375,34.0159375
2021-06-29 10:41:02.140625000,-41.5,4.0,49.0,75.80421875,45.82,1.968242875,34.016875
2021-06-29 10:41:02.148437500,-41.75,4.0,49.0,75.804453125,44.335,1.9681628125,34.0178125
2021-06-29 10:41:02.156250000,-42.0,4.0,49.0,75.8046875,42.85,1.96808275,34.01875
2021-06-29 10:41:02.164062500,-41.75,4.0,49.0,75.80492187499999,40.980000000000004,1.9680026875,34.0196875
2021-06-29 10:41:02.171875000,-41.5,4.0,49.0,75.80515625,39.11,1.967922625,34.020625
2021-06-29 10:41:02.179687500,-41.25,4.0,49.0,75.805390625,36.945,1.9678425625,34.0215625
2021-06-29 10:41:02.187500000,-41.0,4.0,49.0,75.80562499999999,34.78,1.9677625,34.0225
2021-06-29 10:41:02.195312500,-41.0,4.0,49.25,75.805859375,32.36,1.9676824375,34.0234375
2021-06-29 10:41:02.203125000,-41.0,4.0,49.5,75.80609375,29.94,1.967602375,34.024375
2021-06-29 10:41:02.210937500,-41.0,4.0,49.75,75.806328125,27.265,1.9675223125,34.0253125
2021-06-29 10:41:02.218750000,-41.0,4.0,50.0,75.8065625,24.59,1.96744225,34.026250000000005
2021-06-29 10:41:02.226562500,-41.0,4.0,50.0,75.806796875,21.67,1.9673621875,34.027187500000004
2021-06-29 10:41:02.234375000,-41.0,4.0,50.0,75.80703125,18.75,1.967282125,34.028125
2021-06-29 10:41:02.242187500,-41.0,4.0,50.0,75.807265625,15.655000000000001,1.9672020625,34.0290625
2021-06-29 10:41:02.250000000,-41.0,4.0,50.0,75.8075,12.56,1.967122,34.03
2021-06-29 10:41:02.257812500,-41.0,4.0,50.0,75.807734375,9.370000000000001,1.9672020625,34.03
2021-06-29 10:41:02.265625000,-41.0,4.0,50.0,75.80796875,6.18,1.967282125,34.03
2021-06-29 10:41:02.273437500,-41.0,4.0,50.0,75.80820312499999,3.03,1.9673621875,34.03
2021-06-29 10:41:02.281250000,-41.0,4.0,50.0,75.8084375,-0.12,1.96744225,34.03
2021-06-29 10:41:02.289062500,-41.25,4.0,49.75,75.808671875,-3.13,1.9675223125,34.03
2021-06-29 10:41:02.296875000,-41.5,4.0,49.5,75.80890624999999,-6.14,1.967602375,34.03
2021-06-29 10:41:02.304687500,-41.75,4.0,49.25,75.809140625,-8.92,1.9676824375,34.03
2021-06-29 10:41:02.312500000,-42.0,4.0,49.0,75.809375,-11.7,1.9677625,34.03
2021-06-29 10:41:02.320312500,-42.0,4.0,49.0,75.809609375,-14.225,1.9678425625,34.03
2021-06-29 10:41:02.328125000,-42.0,4.0,49.0,75.80984375,-16.75,1.967922625,34.03
2021-06-29 10:41:02.335937500,-42.0,4.0,49.0,75.810078125,-19.03,1.9680026875,34.03
2021-06-29 10:41:02.343750000,-42.0,4.0,49.0,75.8103125,-21.31,1.96808275,34.03
2021-06-29 10:41:02.351562500,-41.75,4.0,49.0,75.810546875,-23.395,1.9681628125,34.03
2021-06-29 10:41:02.359375000,-41.5,4.0,49.0,75.81078124999999,-25.48,1.968242875,34.03
2021-06-29 10:41:02.367187500,-41.25,4.0,49.0,75.811015625,-27.490000000000002,1.9683229375,34.03
2021-06-29 10:41:02.375000000,-41.0,4.0,49.0,75.81125,-29.5,1.968403,34.03
2021-06-29 10:41:02.382812500,-41.0,4.0,49.0,75.81148437499999,-31.58,1.9684830625,34.03
2021-06-29 10:41:02.390625000,-41.0,4.0,49.0,75.81171875,-33.66,1.968563125,34.03
2021-06-29 10:41:02.398437500,-41.0,4.0,49.0,75.811953125,-36.015,1.9686431875000001,34.03
2021-06-29 10:41:02.406250000,-41.0,4.0,49.0,75.8121875,-38.37,1.96872325,34.03
2021-06-29 10:41:02.414062500,-41.25,4.0,49.0,75.812421875,-41.239999999999995,1.9688033125,34.03
2021-06-29 10:41:02.421875000,-41.5,4.0,49.0,75.81265625,-44.11,1.968883375,34.03
2021-06-29 10:41:02.429687500,-41.75,4.0,49.0,75.812890625,-47.68,1.9689634375,34.03
2021-06-29 10:41:02.437500000,-42.0,4.0,49.0,75.813125,-51.25,1.9690435,34.03
2021-06-29 10:41:02.445312500,-41.75,4.0,49.0,75.813359375,-55.510000000000005,1.9691235625,34.03
2021-06-29 10:41:02.453125000,-41.5,4.0,49.0,75.81359375,-59.77,1.969203625,34.03
2021-06-29 10:41:02.460937500,-41.25,4.0,49.0,75.813828125,-64.39,1.9692836875,34.03
2021-06-29 10:41:02.468750000,-41.0,4.0,49.0,75.81406249999999,-69.01,1.96936375,34.03
2021-06-29 10:41:02.476562500,-41.0,4.0,49.0,75.814296875,-73.295,1.9694438125,34.03
2021-06-29 10:41:02.484375000,-41.0,4.0,49.0,75.81453125,-77.58,1.969523875,34.03
2021-06-29 10:41:02.492187500,-41.0,4.0,49.0,75.81476562499999,-80.535,1.9696039375,34.03
2021-06-29 10:41:02.500000000,-41.0,4.0,49.0,75.815,-83.49,1.969684,34.03
2021-06-29 10:41:02.507812500,-41.25,4.0,49.0,75.815234375,-84.13499999999999,1.96976409375,34.03
2021-06-29 10:41:02.515625000,-41.5,4.0,49.0,75.81546875,-84.78,1.9698441875,34.03
2021-06-29 10:41:02.523437500,-41.75,4.0,49.0,75.815703125,-82.435,1.96992428125,34.03
2021-06-29 10:41:02.531250000,-42.0,4.0,49.0,75.8159375,-80.09,1.970004375,34.03
2021-06-29 10:41:02.539062500,-41.75,4.0,49.0,75.816171875,-74.685,1.97008446875,34.03
2021-06-29 10:41:02.546875000,-41.5,4.0,49.0,75.81640625,-69.28,1.9701645625,34.03
2021-06-29 10:41:02.554687500,-41.25,4.0,49.0,75.81664062499999,-61.41,1.97024465625,34.03
2021-06-29 10:41:02.562500000,-41.0,4.0,49.0,75.816875,-53.54,1.97032475,34.03
2021-06-29 10:41:02.570312500,-41.0,4.0,49.0,75.817109375,-44.28,1.97040484375,34.03
2021-06-29 10:41:02.578125000,-41.0,4.0,49.0,75.81734374999999,-35.02,1.9704849375,34.03
2021-06-29 10:41:02.585937500,-41.0,4.0,49.0,75.817578125,-25.595000000000002,1.97056503125,34.03
2021-06-29 10:41:02.593750000,-41.0,4.0,49.0,75.8178125,-16.17,1.970645125,34.03
2021-06-29 10:41:02.601562500,-41.25,4.0,49.0,75.818046875,-7.620000000000001,1.97072521875,34.03
2021-06-29 10:41:02.609375000,-41.5,4.0,49.0,75.81828125,0.93,1.9708053125,34.03
2021-06-29 10:41:02.617187500,-41.75,4.0,49.0,75.818515625,7.965,1.97088540625,34.03
2021-06-29 10:41:02.625000000,-42.0,4.0,49.0,75.81875,15.0,1.9709655000000001,34.03
2021-06-29 10:41:02.632812500,-41.75,4.0,49.0,75.818984375,20.285,1.97104559375,34.03
2021-06-29 10:41:02.640625000,-41.5,4.0,49.0,75.81921875,25.57,1.9711256875,34.03
2021-06-29 10:41:02.648437500,-41.25,4.0,49.0,75.819453125,29.165,1.9712057812500001,34.03
2021-06-29 10:41:02.656250000,-41.0,4.0,49.0,75.8196875,32.76,1.971285875,34.03
2021-06-29 10:41:02.664062500,-41.25,4.0,49.0,75.81992187499999,34.815,1.97136596875,34.03
2021-06-29 10:41:02.671875000,-41.5,4.0,49.0,75.82015625,36.87,1.9714460625,34.03
2021-06-29 10:41:02.679687500,-41.75,4.0,49.0,75.820390625,37.545,1.9715261562500002,34.03
2021-06-29 10:41:02.687500000,-42.0,4.0,49.0,75.82062499999999,38.22,1.97160625,34.03
2021-06-29 10:41:02.695312500,-41.75,4.0,49.0,75.820859375,37.695,1.97168634375,34.03
2021-06-29 10:41:02.703125000,-41.5,4.0,49.0,75.82109375,37.17,1.9717664375000001,34.03
2021-06-29 10:41:02.710937500,-41.25,4.0,49.0,75.821328125,35.715,1.97184653125,34.03
2021-06-29 10:41:02.718750000,-41.0,4.0,49.0,75.8215625,34.26,1.971926625,34.03
2021-06-29 10:41:02.726562500,-41.0,4.0,49.25,75.821796875,32.305,1.97200671875,34.03
2021-06-29 10:41:02.734375000,-41.0,4.0,49.5,75.82203125,30.35,1.9720868125000002,34.03
2021-06-29 10:41:02.742187500,-41.0,4.0,49.75,75.822265625,28.47,1.97216690625,34.03
2021-06-29 10:41:02.750000000,-41.0,4.0,50.0,75.82249999999999,26.59,1.972247,34.03
2021-06-29 10:41:02.757812500,-41.0,4.0,50.0,75.822734375,25.345,1.9723270625,34.03
2021-06-29 10:41:02.765625000,-41.0,4.0,50.0,75.82296875,24.1,1.9724071250000001,34.03
2021-06-29 10:41:02.773437500,-41.0,4.0,50.0,75.82320312499999,23.89,1.9724871875,34.03
2021-06-29 10:41:02.781250000,-41.0,4.0,50.0,75.8234375,23.68,1.97256725,34.03
2021-06-29 10:41:02.789062500,-41.25,4.0,49.75,75.823671875,24.6,1.9726473125000001,34.03
2021-06-29 10:41:02.796875000,-41.5,4.0,49.5,75.82390625,25.52,1.972727375,34.03
2021-06-29 10:41:02.804687500,-41.75,4.0,49.25,75.824140625,27.310000000000002,1.9728074375,34.03
2021-06-29 10:41:02.812500000,-42.0,4.0,49.0,75.824375,29.1,1.9728875000000001,34.03
2021-06-29 10:41:02.820312500,-41.75,4.0,49.0,75.824609375,31.27,1.9729675625,34.03
2021-06-29 10:41:02.828125000,-41.5,4.0,49.0,75.82484375,33.44,1.973047625,34.03
2021-06-29 10:41:02.835937500,-41.25,4.0,49.0,75.825078125,35.44,1.9731276875000001,34.03
2021-06-29 10:41:02.843750000,-41.0,4.0,49.0,75.8253125,37.44,1.97320775,34.03
2021-06-29 10:41:02.851562500,-41.25,4.0,49.25,75.825546875,38.834999999999994,1.9732878125,34.03
2021-06-29 10:41:02.859375000,-41.5,4.0,49.5,75.82578124999999,40.23,1.973367875,34.03
2021-06-29 10:41:02.867187500,-41.75,4.0,49.75,75.826015625,40.815,1.9734479375,34.03
2021-06-29 10:41:02.875000000,-42.0,4.0,50.0,75.82625,41.4,1.973528,34.03
2021-06-29 10:41:02.882812500,-42.0,4.0,49.75,75.82648437499999,41.2,1.9736080625,34.03
2021-06-29 10:41:02.890625000,-42.0,4.0,49.5,75.82671875,41.0,1.973688125,34.03
2021-06-29 10:41:02.898437500,-42.0,4.0,49.25,75.826953125,40.18,1.9737681875000002,34.03
2021-06-29 10:41:02.906250000,-42.0,4.0,49.0,75.8271875,39.36,1.97384825,34.03
2021-06-29 10:41:02.914062500,-41.75,4.0,49.0,75.827421875,38.120000000000005,1.9739283125,34.03
2021-06-29 10:41:02.921875000,-41.5,4.0,49.0,75.82765625,36.88,1.9740083750000001,34.03
2021-06-29 10:41:02.929687500,-41.25,4.0,49.0,75.827890625,35.32,1.9740884375,34.03
2021-06-29 10:41:02.937500000,-41.0,4.0,49.0,75.828125,33.76,1.9741685,34.03
2021-06-29 10:41:02.945312500,-41.25,4.0,49.0,75.828359375,31.875,1.9742485625000001,34.03
2021-06-29 10:41:02.953125000,-41.5,4.0,49.0,75.82859375,29.99,1.974328625,34.03
2021-06-29 10:41:02.960937500,-41.75,4.0,49.0,75.828828125,27.7,1.9744086875,34.03
2021-06-29 10:41:02.968750000,-42.0,4.0,49.0,75.82906249999999,25.41,1.9744887500000001,34.03
2021-06-29 10:41:02.976562500,-41.75,4.0,49.0,75.829296875,22.65,1.9745688125,34.03
2021-06-29 10:41:02.984375000,-41.5,4.0,49.0,75.82953125,19.89,1.974648875,34.03
2021-06-29 10:41:02.992187500,-41.25,4.0,49.0,75.829765625,16.7,1.9747289375000001,34.03
2021-06-29 10:41:03.000000000,-41.0,4.0,49.0,75.83,13.51,1.974809,34.03
2021-06-29 10:41:03.007812500,-41.25,4.0,49.0,75.8303125,10.065,1.974809,34.030625
2021-06-29 10:41:03.015625000,-41.5,4.0,49.0,75.830625,6.62,1.974809,34.03125
2021-06-29 10:41:03.023437500,-41.75,4.0,49.0,75.8309375,3.215,1.974809,34.031875
2021-06-29 10:41:03.031250000,-42.0,4.0,49.0,75.83125,-0.19,1.974809,34.0325
2021-06-29 10:41:03.039062500,-41.75,4.0,49.0,75.8315625,-3.315,1.974809,34.033125
2021-06-29 10:41:03.046875000,-41.5,4.0,49.0,75.831875,-6.44,1.974809,34.03375
2021-06-29 10:41:03.054687500,-41.25,4.0,49.0,75.8321875,-9.145,1.974809,34.034375
2021-06-29 10:41:03.062500000,-41.0,4.0,49.0,75.8325,-11.85,1.974809,34.035
2021-06-29 10:41:03.070312500,-41.25,4.0,49.0,75.8328125,-14.219999999999999,1.974809,34.035625
2021-06-29 10:41:03.078125000,-41.5,4.0,49.0,75.833125,-16.59,1.974809,34.03625
2021-06-29 10:41:03.085937500,-41.75,4.0,49.0,75.8334375,-18.84,1.974809,34.036875
2021-06-29 10:41:03.093750000,-42.0,4.0,49.0,75.83375,-21.09,1.974809,34.0375
2021-06-29 10:41:03.101562500,-42.0,4.0,49.0,75.8340625,-23.485,1.974809,34.038125
2021-06-29 10:41:03.109375000,-42.0,4.0,49.0,75.834375,-25.88,1.974809,34.03875
2021-06-29 10:41:03.117187500,-42.0,4.0,49.0,75.8346875,-28.645,1.974809,34.039375
2021-06-29 10:41:03.125000000,-42.0,4.0,49.0,75.835,-31.41,1.974809,34.04
2021-06-29 10:41:03.132812500,-42.0,4.0,49.0,75.8353125,-34.65,1.974809,34.040625
2021-06-29 10:41:03.140625000,-42.0,4.0,49.0,75.835625,-37.89,1.974809,34.04125
2021-06-29 10:41:03.148437500,-42.0,4.0,49.0,75.8359375,-41.620000000000005,1.974809,34.041875
2021-06-29 10:41:03.156250000,-42.0,4.0,49.0,75.83624999999999,-45.35,1.974809,34.0425
2021-06-29 10:41:03.164062500,-42.0,4.0,49.0,75.8365625,-49.480000000000004,1.974809,34.043124999999996
2021-06-29 10:41:03.171875000,-42.0,4.0,49.0,75.836875,-53.61,1.974809,34.043749999999996
2021-06-29 10:41:03.179687500,-42.0,4.0,49.0,75.8371875,-57.925,1.974809,34.044374999999995
2021-06-29 10:41:03.187500000,-42.0,4.0,49.0,75.8375,-62.24,1.974809,34.045
2021-06-29 10:41:03.195312500,-42.0,4.0,49.25,75.8378125,-66.275,1.974809,34.045625
2021-06-29 10:41:03.203125000,-42.0,4.0,49.5,75.838125,-70.31,1.974809,34.04625
2021-06-29 10:41:03.210937500,-42.0,4.0,49.75,75.8384375,-73.345,1.974809,34.046875
2021-06-29 10:41:03.218750000,-42.0,4.0,50.0,75.83875,-76.38,1.974809,34.0475
2021-06-29 10:41:03.226562500,-41.75,4.0,50.0,75.8390625,-77.56,1.974809,34.048125
2021-06-29 10:41:03.234375000,-41.5,4.0,50.0,75.839375,-78.74,1.974809,34.04875
2021-06-29 10:41:03.242187500,-41.25,4.0,50.0,75.8396875,-77.35,1.974809,34.049375
2021-06-29 10:41:03.250000000,-41.0,4.0,50.0,75.84,-75.96,1.974809,34.05
2021-06-29 10:41:03.257812500,-41.25,4.0,49.75,75.8403125,-71.735,1.9747289375000001,34.05
2021-06-29 10:41:03.265625000,-41.5,4.0,49.5,75.840625,-67.51,1.974648875,34.05
2021-06-29 10:41:03.273437500,-41.75,4.0,49.25,75.8409375,-60.775000000000006,1.9745688125,34.05
2021-06-29 10:41:03.281250000,-42.0,4.0,49.0,75.84125,-54.04,1.9744887500000001,34.05
2021-06-29 10:41:03.289062500,-41.75,4.0,49.25,75.8415625,-45.68,1.9744086875,34.05
2021-06-29 10:41:03.296875000,-41.5,4.0,49.5,75.841875,-37.32,1.974328625,34.05
2021-06-29 10:41:03.304687500,-41.25,4.0,49.75,75.8421875,-28.45,1.9742485625000001,34.05
2021-06-29 10:41:03.312500000,-41.0,4.0,50.0,75.8425,-19.58,1.9741685,34.05
2021-06-29 10:41:03.320312500,-41.25,4.0,49.75,75.8428125,-11.229999999999999,1.9740884375,34.05
2021-06-29 10:41:03.328125000,-41.5,4.0,49.5,75.843125,-2.88,1.9740083750000001,34.05
2021-06-29 10:41:03.335937500,-41.75,4.0,49.25,75.84343750000001,4.284999999999999,1.9739283125,34.05
2021-06-29 10:41:03.343750000,-42.0,4.0,49.0,75.84375,11.45,1.97384825,34.05
2021-06-29 10:41:03.351562500,-42.0,4.0,49.0,75.8440625,17.155,1.9737681875000002,34.05
2021-06-29 10:41:03.359375000,-42.0,4.0,49.0,75.844375,22.86,1.973688125,34.05
2021-06-29 10:41:03.367187500,-42.0,4.0,49.0,75.8446875,27.09,1.9736080625,34.05
2021-06-29 10:41:03.375000000,-42.0,4.0,49.0,75.845,31.32,1.973528,34.05
2021-06-29 10:41:03.382812500,-42.0,4.0,49.0,75.8453125,34.17,1.9734479375,34.05
2021-06-29 10:41:03.390625000,-42.0,4.0,49.0,75.845625,37.02,1.973367875,34.05
2021-06-29 10:41:03.398437500,-42.0,4.0,49.0,75.8459375,38.575,1.9732878125,34.05
2021-06-29 10:41:03.406250000,-42.0,4.0,49.0,75.84625,40.13,1.97320775,34.05
2021-06-29 10:41:03.414062500,-42.0,4.0,49.0,75.8465625,40.510000000000005,1.9731276875000001,34.05
2021-06-29 10:41:03.421875000,-42.0,4.0,49.0,75.846875,40.89,1.973047625,34.05
2021-06-29 10:41:03.429687500,-42.0,4.0,49.0,75.8471875,40.315,1.9729675625,34.05
2021-06-29 10:41:03.437500000,-42.0,4.0,49.0,75.8475,39.74,1.9728875000000001,34.05
2021-06-29 10:41:03.445312500,-41.75,4.0,49.0,75.8478125,38.56,1.9728074375,34.05
2021-06-29 10:41:03.453125000,-41.5,4.0,49.0,75.848125,37.38,1.972727375,34.05
2021-06-29 10:41:03.460937500,-41.25,4.0,49.0,75.8484375,36.055,1.9726473125000001,34.05
2021-06-29 10:41:03.468750000,-41.0,4.0,49.0,75.84875,34.73,1.97256725,34.05
2021-06-29 10:41:03.476562500,-41.0,4.0,49.0,75.8490625,33.724999999999994,1.9724871875,34.05
2021-06-29 10:41:03.484375000,-41.0,4.0,49.0,75.849375,32.72,1.9724071250000001,34.05
2021-06-29 10:41:03.492187500,-41.0,4.0,49.0,75.8496875,32.355,1.9723270625,34.05
2021-06-29 10:41:03.500000000,-41.0,4.0,49.0,75.85,31.99,1.972247,34.05
2021-06-29 10:41:03.507812500,-41.25,4.0,49.0,75.8503125,32.394999999999996,1.9722069687500001,34.05
2021-06-29 10:41:03.515625000,-41.5,4.0,49.0,75.85062500000001,32.8,1.9721669375000002,34.05
2021-06-29 10:41:03.523437500,-41.75,4.0,49.0,75.8509375,33.91,1.97212690625,34.05
2021-06-29 10:41:03.531250000,-42.0,4.0,49.0,75.85125000000001,35.02,1.972086875,34.05
2021-06-29 10:41:03.539062500,-42.0,4.0,49.0,75.8515625,36.595,1.97204684375,34.05
2021-06-29 10:41:03.546875000,-42.0,4.0,49.0,75.851875,38.17,1.9720068125,34.05
2021-06-29 10:41:03.554687500,-42.0,4.0,49.0,75.8521875,39.875,1.9719667812500001,34.05
2021-06-29 10:41:03.562500000,-42.0,4.0,49.0,75.8525,41.58,1.9719267500000002,34.05
2021-06-29 10:41:03.570312500,-41.75,4.0,49.0,75.8528125,43.07,1.97188671875,34.05
2021-06-29 10:41:03.578125000,-41.5,4.0,49.0,75.853125,44.56,1.9718466875,34.05
2021-06-29 10:41:03.585937500,-41.25,4.0,49.0,75.8534375,45.545,1.97180665625,34.05
2021-06-29 10:41:03.593750000,-41.0,4.0,49.0,75.85375,46.53,1.971766625,34.05
2021-06-29 10:41:03.601562500,-41.0,4.0,49.0,75.8540625,46.805,1.9717265937500001,34.05
2021-06-29 10:41:03.609375000,-41.0,4.0,49.0,75.854375,47.08,1.9716865625,34.05
2021-06-29 10:41:03.617187500,-41.0,4.0,49.0,75.8546875,46.555,1.97164653125,34.05
2021-06-29 10:41:03.625000000,-41.0,4.0,49.0,75.855,46.03,1.9716065,34.05
2021-06-29 10:41:03.632812500,-41.25,4.0,49.0,75.8553125,44.730000000000004,1.97156646875,34.05
2021-06-29 10:41:03.640625000,-41.5,4.0,49.0,75.855625,43.43,1.9715264375000001,34.05
2021-06-29 10:41:03.648437500,-41.75,4.0,49.0,75.8559375,41.485,1.97148640625,34.05
2021-06-29 10:41:03.656250000,-42.0,4.0,49.0,75.85625,39.54,1.971446375,34.05
2021-06-29 10:41:03.664062500,-42.0,4.0,49.0,75.8565625,37.175,1.97140634375,34.05
2021-06-29 10:41:03.671875000,-42.0,4.0,49.0,75.856875,34.81,1.9713663125,34.05
2021-06-29 10:41:03.679687500,-42.0,4.0,49.0,75.85718750000001,32.245000000000005,1.97132628125,34.05
2021-06-29 10:41:03.687500000,-42.0,4.0,49.0,75.8575,29.68,1.97128625,34.05
2021-06-29 10:41:03.695312500,-42.0,4.0,49.0,75.85781250000001,27.115000000000002,1.97124621875,34.05
2021-06-29 10:41:03.703125000,-42.0,4.0,49.0,75.858125,24.55,1.9712061875,34.05
2021-06-29 10:41:03.710937500,-42.0,4.0,49.0,75.85843750000001,22.08,1.97116615625,34.05
2021-06-29 10:41:03.718750000,-42.0,4.0,49.0,75.85875,19.61,1.971126125,34.05
2021-06-29 10:41:03.726562500,-42.0,4.0,49.0,75.85906250000001,17.24,1.97108609375,34.05
2021-06-29 10:41:03.734375000,-42.0,4.0,49.0,75.859375,14.87,1.9710460625,34.05
2021-06-29 10:41:03.742187500,-42.0,4.0,49.0,75.8596875,12.524999999999999,1.97100603125,34.05
2021-06-29 10:41:03.750000000,-42.0,4.0,49.0,75.86,10.18,1.970966,34.05
2021-06-29 10:41:03.757812500,-42.0,4.0,49.0,75.8603125,7.8,1.97088590625,34.05
2021-06-29 10:41:03.765625000,-42.0,4.0,49.0,75.860625,5.42,1.9708058125,34.05
2021-06-29 10:41:03.773437500,-42.0,4.0,49.0,75.8609375,2.99,1.97072571875,34.05
2021-06-29 10:41:03.781250000,-42.0,4.0,49.0,75.86125,0.56,1.970645625,34.05
2021-06-29 10:41:03.789062500,-41.75,4.0,49.0,75.8615625,-1.8850000000000002,1.97056553125,34.05
2021-06-29 10:41:03.796875000,-41.5,4.0,49.0,75.861875,-4.33,1.9704854375,34.05
2021-06-29 10:41:03.804687500,-41.25,4.0,49.0,75.8621875,-6.74,1.97040534375,34.05
2021-06-29 10:41:03.812500000,-41.0,4.0,49.0,75.8625,-9.15,1.97032525,34.05
2021-06-29 10:41:03.820312500,-41.25,4.0,49.0,75.8628125,-11.51,1.97024515625,34.05
2021-06-29 10:41:03.828125000,-41.5,4.0,49.0,75.863125,-13.87,1.9701650625,34.05
2021-06-29 10:41:03.835937500,-41.75,4.0,49.0,75.8634375,-16.24,1.97008496875,34.05
2021-06-29 10:41:03.843750000,-42.0,4.0,49.0,75.86375000000001,-18.61,1.9700048749999999,34.05
2021-06-29 10:41:03.851562500,-42.0,4.0,49.0,75.8640625,-21.1,1.96992478125,34.05
2021-06-29 10:41:03.859375000,-42.0,4.0,49.0,75.86437500000001,-23.59,1.9698446875,34.05
2021-06-29 10:41:03.867187500,-42.0,4.0,49.0,75.8646875,-26.35,1.96976459375,34.05
2021-06-29 10:41:03.875000000,-42.0,4.0,49.0,75.86500000000001,-29.11,1.9696845,34.05
2021-06-29 10:41:03.882812500,-42.0,4.0,49.0,75.8653125,-32.269999999999996,1.96960440625,34.05
2021-06-29 10:41:03.890625000,-42.0,4.0,49.0,75.86562500000001,-35.43,1.9695243125,34.05
2021-06-29 10:41:03.898437500,-42.0,4.0,49.0,75.8659375,-39.1,1.9694442187499999,34.05
2021-06-29 10:41:03.906250000,-42.0,4.0,49.0,75.86625000000001,-42.77,1.969364125,34.05
2021-06-29 10:41:03.914062500,-42.0,4.0,49.0,75.8665625,-47.005,1.96928403125,34.05
2021-06-29 10:41:03.921875000,-42.0,4.0,49.0,75.86687500000001,-51.24,1.9692039375,34.05
2021-06-29 10:41:03.929687500,-42.0,4.0,49.0,75.8671875,-55.96,1.9691238437499998,34.05
2021-06-29 10:41:03.937500000,-42.0,4.0,49.0,75.8675,-60.68,1.96904375,34.05
2021-06-29 10:41:03.945312500,-42.0,4.0,49.0,75.8678125,-65.585,1.96896365625,34.05
2021-06-29 10:41:03.953125000,-42.0,4.0,49.0,75.868125,-70.49,1.9688835624999999,34.05
2021-06-29 10:41:03.960937500,-42.0,4.0,49.0,75.8684375,-75.0,1.96880346875,34.05
2021-06-29 10:41:03.968750000,-42.0,4.0,49.0,75.86875,-79.51,1.968723375,34.05
2021-06-29 10:41:03.976562500,-42.0,4.0,49.25,75.8690625,-82.785,1.9686432812499999,34.05
2021-06-29 10:41:03.984375000,-42.0,4.0,49.5,75.869375,-86.06,1.9685631874999998,34.05
2021-06-29 10:41:03.992187500,-42.0,4.0,49.75,75.8696875,-87.21000000000001,1.96848309375,34.05
2021-06-29 10:41:04.000000000,-42.0,4.0,50.0,75.87,-88.36,1.968403,34.05
2021-06-29 10:41:04.007812500,-42.0,4.0,49.75,75.870078125,-86.72,1.968523125,34.049375
2021-06-29 10:41:04.015625000,-42.0,4.0,49.5,75.87015625000001,-85.08,1.96864325,34.04875
2021-06-29 10:41:04.023437500,-42.0,4.0,49.25,75.87023437500001,-80.445,1.968763375,34.048125
2021-06-29 10:41:04.031250000,-42.0,4.0,49.0,75.87031250000001,-75.81,1.9688835,34.0475
2021-06-29 10:41:04.039062500,-42.0,4.0,49.0,75.870390625,-68.54,1.969003625,34.046875
2021-06-29 10:41:04.046875000,-42.0,4.0,49.0,75.87046875,-61.27,1.9691237499999998,34.04625
2021-06-29 10:41:04.054687500,-42.0,4.0,49.0,75.870546875,-52.24,1.9692438749999999,34.045625
2021-06-29 10:41:04.062500000,-42.0,4.0,49.0,75.870625,-43.21,1.969364,34.045
2021-06-29 10:41:04.070312500,-42.0,4.0,49.0,75.870703125,-33.505,1.969484125,34.044374999999995
2021-06-29 10:41:04.078125000,-42.0,4.0,49.0,75.87078125000001,-23.8,1.96960425,34.043749999999996
2021-06-29 10:41:04.085937500,-42.0,4.0,49.0,75.87085937500001,-14.475000000000001,1.969724375,34.043124999999996
2021-06-29 10:41:04.093750000,-42.0,4.0,49.0,75.8709375,-5.15,1.9698445,34.0425
2021-06-29 10:41:04.101562500,-42.0,4.0,49.0,75.871015625,2.99,1.969964625,34.041875
2021-06-29 10:41:04.109375000,-42.0,4.0,49.0,75.87109375,11.13,1.97008475,34.04125
2021-06-29 10:41:04.117187500,-42.0,4.0,49.0,75.871171875,17.63,1.970204875,34.040625
2021-06-29 10:41:04.125000000,-42.0,4.0,49.0,75.87125,24.13,1.9703249999999999,34.04
2021-06-29 10:41:04.132812500,-42.0,4.0,49.0,75.871328125,28.854999999999997,1.970445125,34.039375
2021-06-29 10:41:04.140625000,-42.0,4.0,49.0,75.87140625,33.58,1.97056525,34.03875
2021-06-29 10:41:04.148437500,-42.0,4.0,49.0,75.87148437500001,36.595,1.970685375,34.038125
2021-06-29 10:41:04.156250000,-42.0,4.0,49.0,75.87156250000001,39.61,1.9708055,34.0375
2021-06-29 10:41:04.164062500,-42.0,4.0,49.0,75.871640625,41.08,1.970925625,34.036875
2021-06-29 10:41:04.171875000,-42.0,4.0,49.0,75.87171875,42.55,1.97104575,34.03625
2021-06-29 10:41:04.179687500,-42.0,4.0,49.0,75.871796875,42.72,1.971165875,34.035625
2021-06-29 10:41:04.187500000,-42.0,4.0,49.0,75.871875,42.89,1.971286,34.035
2021-06-29 10:41:04.195312500,-42.0,4.0,49.0,75.871953125,42.065,1.9714061250000001,34.034375
2021-06-29 10:41:04.203125000,-42.0,4.0,49.0,75.87203125,41.24,1.9715262500000001,34.03375
2021-06-29 10:41:04.210937500,-42.0,4.0,49.0,75.87210937500001,39.845,1.971646375,34.033125
2021-06-29 10:41:04.218750000,-42.0,4.0,49.0,75.8721875,38.45,1.9717665,34.0325
2021-06-29 10:41:04.226562500,-42.0,4.0,49.0,75.872265625,37.0,1.971886625,34.031875
2021-06-29 10:41:04.234375000,-42.0,4.0,49.0,75.87234375,35.55,1.97200675,34.03125
2021-06-29 10:41:04.242187500,-42.0,4.0,49.0,75.872421875,34.55,1.972126875,34.030625
2021-06-29 10:41:04.250000000,-42.0,4.0,49.0,75.8725,33.55,1.972247,34.03
2021-06-29 10:41:04.257812500,-42.0,4.0,49.0,75.872578125,33.39,1.97208684375,34.03
2021-06-29 10:41:04.265625000,-42.0,4.0,49.0,75.87265625,33.23,1.9719266875,34.03
2021-06-29 10:41:04.273437500,-42.0,4.0,49.0,75.87273437500001,34.04,1.9717665312500001,34.03
2021-06-29 10:41:04.281250000,-42.0,4.0,49.0,75.87281250000001,34.85,1.9716063750000001,34.03
2021-06-29 10:41:04.289062500,-42.0,4.0,49.0,75.872890625,36.455,1.9714462187500001,34.03
2021-06-29 10:41:04.296875000,-42.0,4.0,49.0,75.87296875,38.06,1.9712860625000002,34.03
2021-06-29 10:41:04.304687500,-42.0,4.0,49.0,75.873046875,40.075,1.9711259062500002,34.03
2021-06-29 10:41:04.312500000,-42.0,4.0,49.0,75.873125,42.09,1.97096575,34.03
2021-06-29 10:41:04.320312500,-42.0,4.0,49.0,75.873203125,44.06,1.97080559375,34.03
2021-06-29 10:41:04.328125000,-42.0,4.0,49.0,75.87328125,46.03,1.9706454375,34.03
2021-06-29 10:41:04.335937500,-42.0,4.0,49.0,75.873359375,47.625,1.97048528125,34.03
2021-06-29 10:41:04.343750000,-42.0,4.0,49.0,75.8734375,49.22,1.970325125,34.03
2021-06-29 10:41:04.351562500,-42.0,3.75,49.0,75.873515625,50.275,1.97016496875,34.03
2021-06-29 10:41:04.359375000,-42.0,3.5,49.0,75.87359375,51.33,1.9700048125,34.03
2021-06-29 10:41:04.367187500,-42.0,3.25,49.0,75.873671875,51.83,1.96984465625,34.03
2021-06-29 10:41:04.375000000,-42.0,3.0,49.0,75.87375,52.33,1.9696845,34.03
2021-06-29 10:41:04.382812500,-42.0,3.25,49.0,75.873828125,52.305,1.96952434375,34.03
2021-06-29 10:41:04.390625000,-42.0,3.5,49.0,75.87390625,52.28,1.9693641875,34.03
2021-06-29 10:41:04.398437500,-42.0,3.75,49.0,75.873984375,51.75,1.96920403125,34.03
2021-06-29 10:41:04.406250000,-42.0,4.0,49.0,75.87406250000001,51.22,1.969043875,34.03
2021-06-29 10:41:04.414062500,-42.0,4.0,49.0,75.874140625,50.14,1.9688837187500001,34.03
2021-06-29 10:41:04.421875000,-42.0,4.0,49.0,75.87421875,49.06,1.9687235625000001,34.03
2021-06-29 10:41:04.429687500,-42.0,4.0,49.0,75.874296875,47.400000000000006,1.9685634062500001,34.03
2021-06-29 10:41:04.437500000,-42.0,4.0,49.0,75.874375,45.74,1.9684032500000002,34.03
2021-06-29 10:41:04.445312500,-42.0,4.0,49.0,75.874453125,43.525000000000006,1.96824309375,34.03
2021-06-29 10:41:04.453125000,-42.0,4.0,49.0,75.87453125,41.31,1.9680829375,34.03
2021-06-29 10:41:04.460937500,-42.0,4.0,49.0,75.874609375,38.650000000000006,1.96792278125,34.03
2021-06-29 10:41:04.468750000,-42.0,4.0,49.0,75.8746875,35.99,1.967762625,34.03
2021-06-29 10:41:04.476562500,-42.0,4.0,49.0,75.874765625,33.065,1.96760246875,34.03
2021-06-29 10:41:04.484375000,-42.0,4.0,49.0,75.87484375,30.14,1.9674423125,34.03
2021-06-29 10:41:04.492187500,-42.0,4.0,49.0,75.874921875,27.16,1.96728215625,34.03
2021-06-29 10:41:04.500000000,-42.0,4.0,49.0,75.875,24.18,1.967122,34.03
2021-06-29 10:41:04.507812500,-42.0,4.0,49.0,75.875078125,21.35,1.96728215625,34.03
2021-06-29 10:41:04.515625000,-42.0,4.0,49.0,75.87515625,18.52,1.9674423125,34.03
2021-06-29 10:41:04.523437500,-42.0,4.0,49.0,75.875234375,15.969999999999999,1.96760246875,34.03
2021-06-29 10:41:04.531250000,-42.0,4.0,49.0,75.8753125,13.42,1.967762625,34.03
2021-06-29 10:41:04.539062500,-42.0,4.0,49.0,75.875390625,11.2,1.96792278125,34.03
2021-06-29 10:41:04.546875000,-42.0,4.0,49.0,75.87546875,8.98,1.9680829375,34.03
2021-06-29 10:41:04.554687500,-42.0,4.0,49.0,75.875546875,6.98,1.96824309375,34.03
2021-06-29 10:41:04.562500000,-42.0,4.0,49.0,75.875625,4.98,1.9684032500000002,34.03
2021-06-29 10:41:04.570312500,-42.0,4.0,49.0,75.875703125,3.0250000000000004,1.9685634062500001,34.03
2021-06-29 10:41:04.578125000,-42.0,4.0,49.0,75.87578125,1.07,1.9687235625000001,34.03
2021-06-29 10:41:04.585937500,-42.0,4.0,49.0,75.875859375,-1.075,1.9688837187500001,34.03
2021-06-29 10:41:04.593750000,-42.0,4.0,49.0,75.87593749999999,-3.22,1.969043875,34.03
2021-06-29 10:41:04.601562500,-42.0,4.0,49.0,75.876015625,-5.705,1.96920403125,34.03
2021-06-29 10:41:04.609375000,-42.0,4.0,49.0,75.87609375,-8.19,1.9693641875,34.03
2021-06-29 10:41:04.617187500,-42.0,4.0,49.0,75.876171875,-11.0,1.96952434375,34.03
2021-06-29 10:41:04.625000000,-42.0,4.0,49.0,75.87625,-13.81,1.9696845,34.03
2021-06-29 10:41:04.632812500,-42.0,4.0,49.0,75.876328125,-16.75,1.96984465625,34.03
2021-06-29 10:41:04.640625000,-42.0,4.0,49.0,75.87640625,-19.69,1.9700048125,34.03
2021-06-29 10:41:04.648437500,-42.0,4.0,49.0,75.876484375,-22.455,1.97016496875,34.03
2021-06-29 10:41:04.656250000,-42.0,4.0,49.0,75.8765625,-25.22,1.970325125,34.03
2021-06-29 10:41:04.664062500,-42.0,4.0,49.0,75.876640625,-27.535,1.97048528125,34.03
2021-06-29 10:41:04.671875000,-42.0,4.0,49.0,75.87671875,-29.85,1.9706454375,34.03
2021-06-29 10:41:04.679687500,-42.0,4.0,49.0,75.876796875,-31.61,1.97080559375,34.03
2021-06-29 10:41:04.687500000,-42.0,4.0,49.0,75.876875,-33.37,1.97096575,34.03
2021-06-29 10:41:04.695312500,-42.0,4.0,49.0,75.876953125,-34.709999999999994,1.9711259062500002,34.03
2021-06-29 10:41:04.703125000,-42.0,4.0,49.0,75.87703125,-36.05,1.9712860625000002,34.03
2021-06-29 10:41:04.710937500,-42.0,4.0,49.0,75.877109375,-37.315,1.9714462187500001,34.03
2021-06-29 10:41:04.718750000,-42.0,4.0,49.0,75.87718749999999,-38.58,1.9716063750000001,34.03
2021-06-29 10:41:04.726562500,-42.0,4.0,49.0,75.87726562499999,-40.239999999999995,1.9717665312500001,34.03
2021-06-29 10:41:04.734375000,-42.0,4.0,49.0,75.87734375,-41.9,1.9719266875,34.03
2021-06-29 10:41:04.742187500,-42.0,4.0,49.0,75.877421875,-44.43,1.97208684375,34.03
2021-06-29 10:41:04.750000000,-42.0,4.0,49.0,75.8775,-46.96,1.972247,34.03
2021-06-29 10:41:04.757812500,-42.0,4.0,49.0,75.877578125,-50.675,1.9723270625,34.03
2021-06-29 10:41:04.765625000,-42.0,4.0,49.0,75.87765625,-54.39,1.9724071250000001,34.03
2021-06-29 10:41:04.773437500,-42.0,4.0,49.0,75.877734375,-59.32,1.9724871875,34.03
2021-06-29 10:41:04.781250000,-42.0,4.0,49.0,75.8778125,-64.25,1.97256725,34.03
2021-06-29 10:41:04.789062500,-42.0,4.0,49.0,75.87789062499999,-69.985,1.9726473125000001,34.03
2021-06-29 10:41:04.796875000,-42.0,4.0,49.0,75.87796875,-75.72,1.972727375,34.03
2021-06-29 10:41:04.804687500,-42.0,4.0,49.0,75.878046875,-81.405,1.9728074375,34.03
2021-06-29 10:41:04.812500000,-42.0,4.0,49.0,75.878125,-87.09,1.9728875000000001,34.03
2021-06-29 10:41:04.820312500,-42.0,4.0,49.0,75.878203125,-91.53999999999999,1.9729675625,34.03
2021-06-29 10:41:04.828125000,-42.0,4.0,49.0,75.87828125,-95.99,1.973047625,34.03
2021-06-29 10:41:04.835937500,-42.0,4.0,49.0,75.878359375,-97.975,1.9731276875000001,34.03
2021-06-29 10:41:04.843750000,-42.0,4.0,49.0,75.87843749999999,-99.96,1.97320775,34.03
2021-06-29 10:41:04.851562500,-42.0,4.0,49.0,75.87851562499999,-98.59,1.9732878125,34.03
2021-06-29 10:41:04.859375000,-42.0,4.0,49.0,75.87859375,-97.22,1.973367875,34.03
2021-06-29 10:41:04.867187500,-42.0,4.0,49.0,75.878671875,-92.235,1.9734479375,34.03
2021-06-29 10:41:04.875000000,-42.0,4.0,49.0,75.87875,-87.25,1.973528,34.03
2021-06-29 10:41:04.882812500,-42.0,4.0,49.0,75.878828125,-79.16499999999999,1.9736080625,34.03
2021-06-29 10:41:04.890625000,-42.0,4.0,49.0,75.87890625,-71.08,1.973688125,34.03
2021-06-29 10:41:04.898437500,-42.0,4.0,49.0,75.878984375,-60.995,1.9737681875000002,34.03
2021-06-29 10:41:04.906250000,-42.0,4.0,49.0,75.8790625,-50.91,1.97384825,34.03
2021-06-29 10:41:04.914062500,-42.0,4.0,49.0,75.87914062499999,-40.199999999999996,1.9739283125,34.03
2021-06-29 10:41:04.921875000,-42.0,4.0,49.0,75.87921874999999,-29.49,1.9740083750000001,34.03
2021-06-29 10:41:04.929687500,-42.0,4.0,49.0,75.879296875,-19.43,1.9740884375,34.03
2021-06-29 10:41:04.937500000,-42.0,4.0,49.0,75.879375,-9.37,1.9741685,34.03
2021-06-29 10:41:04.945312500,-42.0,4.0,49.0,75.879453125,-0.8450000000000006,1.9742485625000001,34.03
2021-06-29 10:41:04.953125000,-42.0,4.0,49.0,75.87953125,7.68,1.974328625,34.03
2021-06-29 10:41:04.960937500,-42.0,4.0,49.0,75.879609375,14.265,1.9744086875,34.03
2021-06-29 10:41:04.968750000,-42.0,4.0,49.0,75.87968749999999,20.85,1.9744887500000001,34.03
2021-06-29 10:41:04.976562500,-42.0,4.0,49.0,75.87976562499999,25.47,1.9745688125,34.03
2021-06-29 10:41:04.984375000,-42.0,4.0,49.0,75.87984374999999,30.09,1.974648875,34.03
2021-06-29 10:41:04.992187500,-42.0,4.0,49.0,75.879921875,32.965,1.9747289375000001,34.03
2021-06-29 10:41:05.000000000,-42.0,4.0,49.0,75.88,35.84,1.974809,34.03
2021-06-29 10:41:05.007812500,-42.0,4.0,49.0,75.8803125,37.27,1.9747289375000001,34.030625
2021-06-29 10:41:05.015625000,-42.0,4.0,49.0,75.880625,38.7,1.974648875,34.03125
2021-06-29 10:41:05.023437500,-42.0,4.0,49.0,75.8809375,38.985,1.9745688125,34.031875
2021-06-29 10:41:05.031250000,-42.0,4.0,49.0,75.88125,39.27,1.9744887500000001,34.0325
2021-06-29 10:41:05.039062500,-42.0,4.0,49.0,75.8815625,38.74,1.9744086875,34.033125
2021-06-29 10:41:05.046875000,-42.0,4.0,49.0,75.881875,38.21,1.974328625,34.03375
2021-06-29 10:41:05.054687500,-42.0,4.0,49.0,75.8821875,37.21,1.9742485625000001,34.034375
2021-06-29 10:41:05.062500000,-42.0,4.0,49.0,75.8825,36.21,1.9741685,34.035
2021-06-29 10:41:05.070312500,-42.0,4.0,49.0,75.8828125,35.135000000000005,1.9740884375,34.035625
2021-06-29 10:41:05.078125000,-42.0,4.0,49.0,75.88312499999999,34.06,1.9740083750000001,34.03625
2021-06-29 10:41:05.085937500,-42.0,4.0,49.0,75.8834375,33.3,1.9739283125,34.036875
2021-06-29 10:41:05.093750000,-42.0,4.0,49.0,75.88374999999999,32.54,1.97384825,34.0375
2021-06-29 10:41:05.101562500,-42.0,4.0,49.0,75.8840625,32.415,1.9737681875000002,34.038125
2021-06-29 10:41:05.109375000,-42.0,4.0,49.0,75.88437499999999,32.29,1.973688125,34.03875
2021-06-29 10:41:05.117187500,-42.0,4.0,49.0,75.8846875,32.925,1.9736080625,34.039375
2021-06-29 10:41:05.125000000,-42.0,4.0,49.0,75.88499999999999,33.56,1.973528,34.04
2021-06-29 10:41:05.132812500,-42.0,4.0,49.0,75.8853125,34.89,1.9734479375,34.040625
2021-06-29 10:41:05.140625000,-42.0,4.0,49.0,75.88562499999999,36.22,1.973367875,34.04125
2021-06-29 10:41:05.148437500,-42.0,4.0,49.0,75.8859375,37.974999999999994,1.9732878125,34.041875
2021-06-29 10:41:05.156250000,-42.0,4.0,49.0,75.88624999999999,39.73,1.97320775,34.0425
2021-06-29 10:41:05.164062500,-42.0,4.0,49.0,75.8865625,41.575,1.9731276875000001,34.043124999999996
2021-06-29 10:41:05.171875000,-42.0,4.0,49.0,75.886875,43.42,1.973047625,34.043749999999996
2021-06-29 10:41:05.179687500,-42.0,4.0,49.0,75.8871875,45.03,1.9729675625,34.044374999999995
2021-06-29 10:41:05.187500000,-42.0,4.0,49.0,75.8875,46.64,1.9728875000000001,34.045
2021-06-29 10:41:05.195312500,-42.0,4.0,49.25,75.8878125,47.865,1.9728074375,34.045625
2021-06-29 10:41:05.203125000,-42.0,4.0,49.5,75.888125,49.09,1.972727375,34.04625
2021-06-29 10:41:05.210937500,-42.0,4.0,49.75,75.8884375,49.905,1.9726473125000001,34.046875
2021-06-29 10:41:05.218750000,-42.0,4.0,50.0,75.88875,50.72,1.97256725,34.0475
2021-06-29 10:41:05.226562500,-42.0,4.0,49.75,75.8890625,51.185,1.9724871875,34.048125
2021-06-29 10:41:05.234375000,-42.0,4.0,49.5,75.889375,51.65,1.9724071250000001,34.04875
2021-06-29 10:41:05.242187500,-42.0,4.0,49.25,75.8896875,51.81,1.9723270625,34.049375
2021-06-29 10:41:05.250000000,-42.0,4.0,49.0,75.89,51.97,1.972247,34.05
2021-06-29 10:41:05.257812500,-41.75,4.0,49.25,75.8903125,51.754999999999995,1.972247,34.05
2021-06-29 10:41:05.265625000,-41.5,4.0,49.5,75.890625,51.54,1.972247,34.05
2021-06-29 10:41:05.273437500,-41.25,4.0,49.75,75.89093749999999,50.8,1.972247,34.05
2021-06-29 10:41:05.281250000,-41.0,4.0,50.0,75.89125,50.06,1.972247,34.05
2021-06-29 10:41:05.289062500,-41.25,4.0,49.75,75.89156249999999,48.605000000000004,1.972247,34.05
2021-06-29 10:41:05.296875000,-41.5,4.0,49.5,75.891875,47.15,1.972247,34.05
2021-06-29 10:41:05.304687500,-41.75,4.0,49.25,75.89218749999999,44.870000000000005,1.972247,34.05
2021-06-29 10:41:05.312500000,-42.0,4.0,49.0,75.8925,42.59,1.972247,34.05
2021-06-29 10:41:05.320312500,-42.0,4.0,49.0,75.89281249999999,39.53,1.972247,34.05
2021-06-29 10:41:05.328125000,-42.0,4.0,49.0,75.893125,36.47,1.972247,34.05
2021-06-29 10:41:05.335937500,-42.0,4.0,49.0,75.8934375,32.879999999999995,1.972247,34.05
2021-06-29 10:41:05.343750000,-42.0,4.0,49.0,75.89375,29.29,1.972247,34.05
2021-06-29 10:41:05.351562500,-42.0,4.0,49.0,75.8940625,25.555,1.972247,34.05
2021-06-29 10:41:05.359375000,-42.0,4.0,49.0,75.894375,21.82,1.972247,34.05
2021-06-29 10:41:05.367187500,-42.0,4.0,49.0,75.8946875,18.38,1.972247,34.05
2021-06-29 10:41:05.375000000,-42.0,4.0,49.0,75.895,14.94,1.972247,34.05
2021-06-29 10:41:05.382812500,-42.0,4.0,49.0,75.8953125,12.120000000000001,1.972247,34.05
2021-06-29 10:41:05.390625000,-42.0,4.0,49.0,75.895625,9.3,1.972247,34.05
2021-06-29 10:41:05.398437500,-42.0,4.0,49.0,75.8959375,7.2,1.972247,34.05
2021-06-29 10:41:05.406250000,-42.0,4.0,49.0,75.89625,5.1,1.972247,34.05
2021-06-29 10:41:05.414062500,-42.0,4.0,49.0,75.8965625,3.5649999999999995,1.972247,34.05
2021-06-29 10:41:05.421875000,-42.0,4.0,49.0,75.896875,2.03,1.972247,34.05
2021-06-29 10:41:05.429687500,-42.0,4.0,49.0,75.8971875,0.7149999999999999,1.972247,34.05
2021-06-29 10:41:05.437500000,-42.0,4.0,49.0,75.8975,-0.6,1.972247,34.05
2021-06-29 10:41:05.445312500,-42.0,4.0,49.25,75.8978125,-2.05,1.972247,34.05
2021-06-29 10:41:05.453125000,-42.0,4.0,49.5,75.898125,-3.5,1.972247,34.05
2021-06-29 10:41:05.460937500,-42.0,4.0,49.75,75.8984375,-5.305,1.972247,34.05
2021-06-29 10:41:05.468750000,-42.0,4.0,50.0,75.89874999999999,-7.11,1.972247,34.05
2021-06-29 10:41:05.476562500,-42.0,4.0,49.75,75.8990625,-9.26,1.972247,34.05
2021-06-29 10:41:05.484375000,-42.0,4.0,49.5,75.89937499999999,-11.41,1.972247,34.05
2021-06-29 10:41:05.492187500,-42.0,4.0,49.25,75.8996875,-13.725,1.972247,34.05
2021-06-29 10:41:05.500000000,-42.0,4.0,49.0,75.9,-16.04,1.972247,34.05
2021-06-29 10:41:05.507812500,-42.0,4.0,49.0,75.9003125,-18.31,1.972126875,34.05
2021-06-29 10:41:05.515625000,-42.0,4.0,49.0,75.900625,-20.58,1.97200675,34.05
2021-06-29 10:41:05.523437500,-42.0,4.0,49.0,75.9009375,-22.659999999999997,1.971886625,34.05
2021-06-29 10:41:05.531250000,-42.0,4.0,49.0,75.90125,-24.74,1.9717665,34.05
2021-06-29 10:41:05.539062500,-42.0,4.0,49.0,75.9015625,-26.65,1.971646375,34.05
2021-06-29 10:41:05.546875000,-42.0,4.0,49.0,75.901875,-28.56,1.9715262500000001,34.05
2021-06-29 10:41:05.554687500,-42.0,4.0,49.0,75.9021875,-30.439999999999998,1.9714061250000001,34.05
2021-06-29 10:41:05.562500000,-42.0,4.0,49.0,75.9025,-32.32,1.971286,34.05
2021-06-29 10:41:05.570312500,-42.0,4.0,49.0,75.9028125,-34.35,1.971165875,34.05
2021-06-29 10:41:05.578125000,-42.0,4.0,49.0,75.903125,-36.38,1.97104575,34.05
2021-06-29 10:41:05.585937500,-42.0,4.0,49.0,75.9034375,-38.735,1.970925625,34.05
2021-06-29 10:41:05.593750000,-42.0,4.0,49.0,75.90375,-41.09,1.9708055,34.05
2021-06-29 10:41:05.601562500,-42.0,4.0,49.0,75.9040625,-43.945,1.970685375,34.05
2021-06-29 10:41:05.609375000,-42.0,4.0,49.0,75.904375,-46.8,1.97056525,34.05
2021-06-29 10:41:05.617187500,-42.0,4.0,49.0,75.9046875,-50.269999999999996,1.970445125,34.05
2021-06-29 10:41:05.625000000,-42.0,4.0,49.0,75.905,-53.74,1.9703249999999999,34.05
2021-06-29 10:41:05.632812500,-42.0,4.0,49.0,75.9053125,-57.870000000000005,1.970204875,34.05
2021-06-29 10:41:05.640625000,-42.0,4.0,49.0,75.905625,-62.0,1.97008475,34.05
2021-06-29 10:41:05.648437500,-42.0,4.0,49.0,75.9059375,-66.59,1.969964625,34.05
2021-06-29 10:41:05.656250000,-42.0,4.0,49.0,75.90625,-71.18,1.9698445,34.05
2021-06-29 10:41:05.664062500,-42.0,4.0,49.0,75.90656249999999,-75.685,1.969724375,34.05
2021-06-29 10:41:05.671875000,-42.0,4.0,49.0,75.906875,-80.19,1.96960425,34.05
2021-06-29 10:41:05.679687500,-42.0,4.0,49.0,75.9071875,-83.75999999999999,1.969484125,34.05
2021-06-29 10:41:05.687500000,-42.0,4.0,49.0,75.9075,-87.33,1.969364,34.05
2021-06-29 10:41:05.695312500,-42.0,4.0,49.0,75.9078125,-88.935,1.9692438749999999,34.05
2021-06-29 10:41:05.703125000,-42.0,4.0,49.0,75.908125,-90.54,1.9691237499999998,34.05
2021-06-29 10:41:05.710937500,-42.0,4.0,49.0,75.9084375,-89.315,1.969003625,34.05
2021-06-29 10:41:05.718750000,-42.0,4.0,49.0,75.90875,-88.09,1.9688835,34.05
2021-06-29 10:41:05.726562500,-42.0,4.0,49.0,75.9090625,-83.655,1.968763375,34.05
2021-06-29 10:41:05.734375000,-42.0,4.0,49.0,75.909375,-79.22,1.96864325,34.05
2021-06-29 10:41:05.742187500,-42.0,4.0,49.0,75.9096875,-71.875,1.968523125,34.05
2021-06-29 10:41:05.750000000,-42.0,4.0,49.0,75.91,-64.53,1.968403,34.05
2021-06-29 10:41:05.757812500,-42.0,4.0,49.0,75.9103125,-55.150000000000006,1.968523125,34.05
2021-06-29 10:41:05.765625000,-42.0,4.0,49.0,75.910625,-45.77,1.96864325,34.05
2021-06-29 10:41:05.773437500,-42.0,4.0,49.0,75.9109375,-35.61,1.968763375,34.05
2021-06-29 10:41:05.781250000,-42.0,4.0,49.0,75.91125,-25.45,1.9688835,34.05
2021-06-29 10:41:05.789062500,-42.0,4.0,49.0,75.9115625,-15.725,1.969003625,34.05
2021-06-29 10:41:05.796875000,-42.0,4.0,49.0,75.911875,-6.0,1.9691237499999998,34.05
2021-06-29 10:41:05.804687500,-42.0,4.0,49.0,75.9121875,2.365,1.9692438749999999,34.05
2021-06-29 10:41:05.812500000,-42.0,4.0,49.0,75.9125,10.73,1.969364,34.05
2021-06-29 10:41:05.820312500,-42.0,4.0,49.0,75.9128125,17.23,1.969484125,34.05
2021-06-29 10:41:05.828125000,-42.0,4.0,49.0,75.913125,23.73,1.96960425,34.05
2021-06-29 10:41:05.835937500,-42.0,4.0,49.0,75.9134375,28.225,1.969724375,34.05
2021-06-29 10:41:05.843750000,-42.0,4.0,49.0,75.91375000000001,32.72,1.9698445,34.05
2021-06-29 10:41:05.851562500,-42.0,4.0,49.25,75.9140625,35.335,1.969964625,34.05
2021-06-29 10:41:05.859375000,-42.0,4.0,49.5,75.914375,37.95,1.97008475,34.05
2021-06-29 10:41:05.867187500,-42.0,4.0,49.75,75.9146875,38.905,1.970204875,34.05
2021-06-29 10:41:05.875000000,-42.0,4.0,50.0,75.915,39.86,1.9703249999999999,34.05
2021-06-29 10:41:05.882812500,-42.0,4.0,49.75,75.9153125,39.45,1.970445125,34.05
2021-06-29 10:41:05.890625000,-42.0,4.0,49.5,75.915625,39.04,1.97056525,34.05
2021-06-29 10:41:05.898437500,-42.0,4.0,49.25,75.9159375,37.599999999999994,1.970685375,34.05
2021-06-29 10:41:05.906250000,-42.0,4.0,49.0,75.91625,36.16,1.9708055,34.05
2021-06-29 10:41:05.914062500,-42.0,4.0,49.0,75.9165625,34.135,1.970925625,34.05
2021-06-29 10:41:05.921875000,-42.0,4.0,49.0,75.916875,32.11,1.97104575,34.05
2021-06-29 10:41:05.929687500,-42.0,4.0,49.0,75.9171875,29.990000000000002,1.971165875,34.05
2021-06-29 10:41:05.937500000,-42.0,4.0,49.0,75.9175,27.87,1.971286,34.05
2021-06-29 10:41:05.945312500,-42.0,4.0,49.0,75.9178125,26.175,1.9714061250000001,34.05
2021-06-29 10:41:05.953125000,-42.0,4.0,49.0,75.918125,24.48,1.9715262500000001,34.05
2021-06-29 10:41:05.960937500,-42.0,4.0,49.0,75.9184375,23.625,1.971646375,34.05
2021-06-29 10:41:05.968750000,-42.0,4.0,49.0,75.91875,22.77,1.9717665,34.05
2021-06-29 10:41:05.976562500,-42.0,4.0,49.0,75.9190625,22.98,1.971886625,34.05
2021-06-29 10:41:05.984375000,-42.0,4.0,49.0,75.919375,23.19,1.97200675,34.05
2021-06-29 10:41:05.992187500,-42.0,4.0,49.0,75.9196875,24.425,1.972126875,34.05
2021-06-29 10:41:06.000000000,-42.0,4.0,49.0,75.92,25.66,1.972247,34.05
2021-06-29 10:41:06.007812500,-42.0,4.0,49.0,75.920390625,27.630000000000003,1.9720468125000001,34.05
2021-06-29 10:41:06.015625000,-42.0,4.0,49.0,75.92078125,29.6,1.971846625,34.05
2021-06-29 10:41:06.023437500,-42.0,4.0,49.0,75.921171875,31.89,1.9716464375,34.05
2021-06-29 10:41:06.031250000,-42.0,4.0,49.0,75.92156250000001,34.18,1.97144625,34.05
2021-06-29 10:41:06.039062500,-42.0,4.0,49.0,75.921953125,36.355000000000004,1.9712460625000001,34.05
2021-06-29 10:41:06.046875000,-42.0,4.0,49.0,75.92234375,38.53,1.9710458750000002,34.05
2021-06-29 10:41:06.054687500,-42.0,4.0,49.0,75.922734375,40.230000000000004,1.9708456875,34.05
2021-06-29 10:41:06.062500000,-42.0,4.0,49.0,75.923125,41.93,1.9706455,34.05
2021-06-29 10:41:06.070312500,-42.0,4.0,49.0,75.92351562500001,42.955,1.9704453125,34.05
2021-06-29 10:41:06.078125000,-42.0,4.0,49.0,75.92390625,43.98,1.970245125,34.05
2021-06-29 10:41:06.085937500,-42.0,4.0,49.0,75.924296875,44.269999999999996,1.9700449375,34.05
2021-06-29 10:41:06.093750000,-42.0,4.0,49.0,75.9246875,44.56,1.96984475,34.05
2021-06-29 10:41:06.101562500,-41.75,4.0,49.0,75.925078125,44.115,1.9696445625,34.05
2021-06-29 10:41:06.109375000,-41.5,4.0,49.0,75.92546875000001,43.67,1.9694443750000001,34.05
2021-06-29 10:41:06.117187500,-41.25,4.0,49.0,75.925859375,42.53,1.9692441875,34.05
2021-06-29 10:41:06.125000000,-41.0,4.0,49.0,75.92625,41.39,1.969044,34.05
2021-06-29 10:41:06.132812500,-41.25,4.0,49.0,75.926640625,39.595,1.9688438125,34.05
2021-06-29 10:41:06.140625000,-41.5,4.0,49.0,75.92703125,37.8,1.968643625,34.05
2021-06-29 10:41:06.148437500,-41.75,4.0,49.0,75.92742187500001,35.385,1.9684434375,34.05
2021-06-29 10:41:06.156250000,-42.0,4.0,49.0,75.9278125,32.97,1.96824325,34.05
2021-06-29 10:41:06.164062500,-42.0,4.0,49.0,75.928203125,30.045,1.9680430625,34.05
2021-06-29 10:41:06.171875000,-42.0,4.0,49.0,75.92859375,27.12,1.967842875,34.05
2021-06-29 10:41:06.179687500,-42.0,4.0,49.0,75.928984375,23.880000000000003,1.9676426875,34.05
2021-06-29 10:41:06.187500000,-42.0,4.0,49.0,75.92937500000001,20.64,1.9674425,34.05
2021-06-29 10:41:06.195312500,-41.75,4.0,49.0,75.929765625,17.315,1.9672423125,34.05
2021-06-29 10:41:06.203125000,-41.5,4.0,49.0,75.93015625,13.99,1.9670421249999999,34.05
2021-06-29 10:41:06.210937500,-41.25,4.0,49.0,75.930546875,10.83,1.9668419375,34.05
2021-06-29 10:41:06.218750000,-41.0,4.0,49.0,75.9309375,7.67,1.96664175,34.05
2021-06-29 10:41:06.226562500,-41.25,4.0,49.0,75.93132812500001,4.845,1.9664415625,34.05
2021-06-29 10:41:06.234375000,-41.5,4.0,49.0,75.93171875,2.02,1.966241375,34.05
2021-06-29 10:41:06.242187500,-41.75,4.0,49.0,75.932109375,-0.4849999999999999,1.9660411875,34.05
2021-06-29 10:41:06.250000000,-42.0,4.0,49.0,75.9325,-2.99,1.965841,34.05
2021-06-29 10:41:06.257812500,-42.0,4.0,49.0,75.932890625,-5.335,1.9660411875,34.05
2021-06-29 10:41:06.265625000,-42.0,4.0,49.0,75.93328125000001,-7.68,1.966241375,34.05
2021-06-29 10:41:06.273437500,-42.0,4.0,49.0,75.933671875,-10.08,1.9664415625,34.05
2021-06-29 10:41:06.281250000,-42.0,4.0,49.0,75.9340625,-12.48,1.96664175,34.05
2021-06-29 10:41:06.289062500,-41.75,4.0,49.0,75.934453125,-15.120000000000001,1.9668419375,34.05
2021-06-29 10:41:06.296875000,-41.5,4.0,49.0,75.93484375,-17.76,1.9670421249999999,34.05
2021-06-29 10:41:06.304687500,-41.25,4.0,49.0,75.93523437500001,-20.64,1.9672423125,34.05
2021-06-29 10:41:06.312500000,-41.0,4.0,49.0,75.935625,-23.52,1.9674425,34.05
2021-06-29 10:41:06.320312500,-41.25,4.0,49.0,75.936015625,-26.46,1.9676426875,34.05
2021-06-29 10:41:06.328125000,-41.5,4.0,49.0,75.93640625,-29.4,1.967842875,34.05
2021-06-29 10:41:06.335937500,-41.75,4.0,49.0,75.936796875,-32.125,1.9680430625,34.05
2021-06-29 10:41:06.343750000,-42.0,4.0,49.0,75.93718750000001,-34.85,1.96824325,34.05
2021-06-29 10:41:06.351562500,-42.0,4.0,49.0,75.937578125,-37.095,1.9684434375,34.05
2021-06-29 10:41:06.359375000,-42.0,4.0,49.0,75.93796875,-39.34,1.968643625,34.05
2021-06-29 10:41:06.367187500,-42.0,4.0,49.0,75.938359375,-41.05,1.9688438125,34.05
2021-06-29 10:41:06.375000000,-42.0,4.0,49.0,75.93875,-42.76,1.969044,34.05
2021-06-29 10:41:06.382812500,-42.0,4.0,49.0,75.93914062500001,-44.095,1.9692441875,34.05
2021-06-29 10:41:06.390625000,-42.0,4.0,49.0,75.93953125,-45.43,1.9694443750000001,34.05
2021-06-29 10:41:06.398437500,-42.0,4.0,49.0,75.939921875,-46.785,1.9696445625,34.05
2021-06-29 10:41:06.406250000,-42.0,4.0,49.0,75.9403125,-48.14,1.96984475,34.05
2021-06-29 10:41:06.414062500,-42.0,4.0,49.25,75.940703125,-50.010000000000005,1.9700449375,34.05
2021-06-29 10:41:06.421875000,-42.0,4.0,49.5,75.94109375000001,-51.88,1.970245125,34.05
2021-06-29 10:41:06.429687500,-42.0,4.0,49.75,75.941484375,-54.71,1.9704453125,34.05
2021-06-29 10:41:06.437500000,-42.0,4.0,50.0,75.941875,-57.54,1.9706455,34.05
2021-06-29 10:41:06.445312500,-42.0,4.0,49.75,75.942265625,-61.510000000000005,1.9708456875,34.05
2021-06-29 10:41:06.453125000,-42.0,4.0,49.5,75.94265625,-65.48,1.9710458750000002,34.05
2021-06-29 10:41:06.460937500,-42.0,4.0,49.25,75.94304687500001,-70.37,1.9712460625000001,34.05
2021-06-29 10:41:06.468750000,-42.0,4.0,49.0,75.9434375,-75.26,1.97144625,34.05
2021-06-29 10:41:06.476562500,-42.0,4.0,49.0,75.943828125,-80.38,1.9716464375,34.05
2021-06-29 10:41:06.484375000,-42.0,4.0,49.0,75.94421875,-85.5,1.971846625,34.05
2021-06-29 10:41:06.492187500,-42.0,4.0,49.0,75.944609375,-89.78,1.9720468125000001,34.05
2021-06-29 10:41:06.500000000,-42.0,4.0,49.0,75.945,-94.06,1.972247,34.05
2021-06-29 10:41:06.507812500,-42.0,4.0,49.0,75.945390625,-96.315,1.97208684375,34.05
2021-06-29 10:41:06.515625000,-42.0,4.0,49.0,75.94578125,-98.57,1.9719266875,34.05
2021-06-29 10:41:06.523437500,-42.0,4.0,49.0,75.946171875,-97.81,1.9717665312500001,34.05
2021-06-29 10:41:06.531250000,-42.0,4.0,49.0,75.9465625,-97.05,1.9716063750000001,34.05
2021-06-29 10:41:06.539062500,-42.0,4.0,49.0,75.946953125,-92.86,1.9714462187500001,34.05
2021-06-29 10:41:06.546875000,-42.0,4.0,49.0,75.94734375,-88.67,1.9712860625000002,34.05
2021-06-29 10:41:06.554687500,-42.0,4.0,49.0,75.947734375,-81.325,1.9711259062500002,34.05
2021-06-29 10:41:06.562500000,-42.0,4.0,49.0,75.948125,-73.98,1.97096575,34.05
2021-06-29 10:41:06.570312500,-41.75,4.0,49.0,75.948515625,-64.39,1.97080559375,34.05
2021-06-29 10:41:06.578125000,-41.5,4.0,49.0,75.94890625,-54.8,1.9706454375,34.05
2021-06-29 10:41:06.585937500,-41.25,4.0,49.0,75.949296875,-44.215,1.97048528125,34.05
2021-06-29 10:41:06.593750000,-41.0,4.0,49.0,75.9496875,-33.63,1.970325125,34.05
2021-06-29 10:41:06.601562500,-41.25,4.0,49.0,75.950078125,-23.285,1.97016496875,34.05
2021-06-29 10:41:06.609375000,-41.5,4.0,49.0,75.95046875,-12.94,1.9700048125,34.05
2021-06-29 10:41:06.617187500,-41.75,4.0,49.0,75.950859375,-3.785,1.96984465625,34.05
2021-06-29 10:41:06.625000000,-42.0,4.0,49.0,75.95125,5.37,1.9696845,34.05
2021-06-29 10:41:06.632812500,-42.0,4.0,49.0,75.951640625,12.8,1.96952434375,34.05
2021-06-29 10:41:06.640625000,-42.0,4.0,49.0,75.95203125,20.23,1.9693641875,34.05
2021-06-29 10:41:06.648437500,-42.0,4.0,49.0,75.952421875,25.77,1.96920403125,34.05
2021-06-29 10:41:06.656250000,-42.0,4.0,49.0,75.9528125,31.31,1.969043875,34.05
2021-06-29 10:41:06.664062500,-42.0,4.0,49.0,75.953203125,35.035,1.9688837187500001,34.05
2021-06-29 10:41:06.671875000,-42.0,4.0,49.0,75.95359375,38.76,1.9687235625000001,34.05
2021-06-29 10:41:06.679687500,-42.0,4.0,49.0,75.953984375,40.849999999999994,1.9685634062500001,34.05
2021-06-29 10:41:06.687500000,-42.0,4.0,49.0,75.954375,42.94,1.9684032500000002,34.05
2021-06-29 10:41:06.695312500,-42.0,4.0,49.0,75.954765625,43.644999999999996,1.96824309375,34.05
2021-06-29 10:41:06.703125000,-42.0,4.0,49.0,75.95515625,44.35,1.9680829375,34.05
2021-06-29 10:41:06.710937500,-42.0,4.0,49.0,75.955546875,43.97,1.96792278125,34.05
2021-06-29 10:41:06.718750000,-42.0,4.0,49.0,75.9559375,43.59,1.967762625,34.05
2021-06-29 10:41:06.726562500,-42.0,4.0,49.0,75.956328125,42.510000000000005,1.96760246875,34.05
2021-06-29 10:41:06.734375000,-42.0,4.0,49.0,75.95671875,41.43,1.9674423125,34.05
2021-06-29 10:41:06.742187500,-42.0,4.0,49.0,75.957109375,40.105000000000004,1.96728215625,34.05
2021-06-29 10:41:06.750000000,-42.0,4.0,49.0,75.9575,38.78,1.967122,34.05
2021-06-29 10:41:06.757812500,-42.0,4.0,49.0,75.957890625,37.650000000000006,1.967242125,34.05
2021-06-29 10:41:06.765625000,-42.0,4.0,49.0,75.95828125,36.52,1.96736225,34.05
2021-06-29 10:41:06.773437500,-42.0,4.0,49.0,75.958671875,35.945,1.9674823750000001,34.05
2021-06-29 10:41:06.781250000,-42.0,4.0,49.0,75.9590625,35.37,1.9676025,34.05
2021-06-29 10:41:06.789062500,-42.0,4.0,49.0,75.959453125,35.55,1.967722625,34.05
2021-06-29 10:41:06.796875000,-42.0,4.0,49.0,75.95984375,35.73,1.96784275,34.05
2021-06-29 10:41:06.804687500,-42.0,4.0,49.0,75.960234375,36.614999999999995,1.967962875,34.05
2021-06-29 10:41:06.812500000,-42.0,4.0,49.0,75.960625,37.5,1.968083,34.05
2021-06-29 10:41:06.820312500,-42.0,4.0,49.0,75.961015625,38.84,1.968203125,34.05
2021-06-29 10:41:06.828125000,-42.0,4.0,49.0,75.96140625,40.18,1.96832325,34.05
2021-06-29 10:41:06.835937500,-42.0,4.0,49.0,75.961796875,41.635000000000005,1.968443375,34.05
2021-06-29 10:41:06.843750000,-42.0,4.0,49.0,75.9621875,43.09,1.9685635000000001,34.05
2021-06-29 10:41:06.851562500,-42.0,4.0,49.0,75.962578125,44.355000000000004,1.968683625,34.05
2021-06-29 10:41:06.859375000,-42.0,4.0,49.0,75.96296875,45.62,1.96880375,34.05
2021-06-29 10:41:06.867187500,-42.0,4.0,49.0,75.963359375,46.519999999999996,1.968923875,34.05
2021-06-29 10:41:06.875000000,-42.0,4.0,49.0,75.96375,47.42,1.969044,34.05
2021-06-29 10:41:06.882812500,-42.0,4.0,49.0,75.964140625,47.97,1.969164125,34.05
2021-06-29 10:41:06.890625000,-42.0,4.0,49.0,75.96453125,48.52,1.96928425,34.05
2021-06-29 10:41:06.898437500,-42.0,4.0,49.0,75.964921875,48.82,1.969404375,34.05
2021-06-29 10:41:06.906250000,-42.0,4.0,49.0,75.9653125,49.12,1.9695245,34.05
2021-06-29 10:41:06.914062500,-42.0,4.0,49.0,75.965703125,49.224999999999994,1.969644625,34.05
2021-06-29 10:41:06.921875000,-42.0,4.0,49.0,75.96609375,49.33,1.96976475,34.05
2021-06-29 10:41:06.929687500,-42.0,4.0,49.0,75.966484375,49.175,1.969884875,34.05
2021-06-29 10:41:06.937500000,-42.0,4.0,49.0,75.966875,49.02,1.970005,34.05
2021-06-29 10:41:06.945312500,-42.0,4.0,49.0,75.967265625,48.415000000000006,1.970125125,34.05
2021-06-29 10:41:06.953125000,-42.0,4.0,49.0,75.96765625,47.81,1.97024525,34.05
2021-06-29 10:41:06.960937500,-42.0,4.0,49.0,75.968046875,46.545,1.970365375,34.05
2021-06-29 10:41:06.968750000,-42.0,4.0,49.0,75.9684375,45.28,1.9704855000000001,34.05
2021-06-29 10:41:06.976562500,-42.0,4.0,49.0,75.968828125,43.245000000000005,1.970605625,34.05
2021-06-29 10:41:06.984375000,-42.0,4.0,49.0,75.96921875,41.21,1.97072575,34.05
2021-06-29 10:41:06.992187500,-42.0,4.0,49.0,75.969609375,38.46,1.970845875,34.05
2021-06-29 10:41:07.000000000,-42.0,4.0,49.0,75.97,35.71,1.970966,34.05
2021-06-29 10:41:07.007812500,-42.0,4.0,49.0,75.970234375,32.515,1.9712061875,34.05
2021-06-29 10:41:07.015625000,-42.0,4.0,49.0,75.97046875,29.32,1.971446375,34.05
2021-06-29 10:41:07.023437500,-42.0,4.0,49.0,75.970703125,26.03,1.9716865625,34.05
2021-06-29 10:41:07.031250000,-42.0,4.0,49.0,75.9709375,22.74,1.97192675,34.05
2021-06-29 10:41:07.039062500,-42.0,4.0,49.0,75.971171875,19.659999999999997,1.9721669375,34.05
2021-06-29 10:41:07.046875000,-42.0,4.0,49.0,75.97140625,16.58,1.972407125,34.05
2021-06-29 10:41:07.054687500,-42.0,4.0,49.0,75.97164062499999,13.864999999999998,1.9726473125,34.05
2021-06-29 10:41:07.062500000,-42.0,4.0,49.0,75.971875,11.15,1.9728875000000001,34.05
2021-06-29 10:41:07.070312500,-42.0,4.0,49.0,75.972109375,8.780000000000001,1.9731276875000001,34.05
2021-06-29 10:41:07.078125000,-42.0,4.0,49.0,75.97234375,6.41,1.973367875,34.05
2021-06-29 10:41:07.085937500,-42.0,4.0,49.0,75.972578125,4.2,1.9736080625,34.05
2021-06-29 10:41:07.093750000,-42.0,4.0,49.0,75.9728125,1.99,1.97384825,34.05
2021-06-29 10:41:07.101562500,-42.0,4.0,49.0,75.973046875,-0.2649999999999999,1.9740884375,34.05
2021-06-29 10:41:07.109375000,-42.0,4.0,49.0,75.97328125,-2.52,1.974328625,34.05
2021-06-29 10:41:07.117187500,-42.0,4.0,49.0,75.973515625,-4.975,1.9745688125,34.05
2021-06-29 10:41:07.125000000,-42.0,4.0,49.0,75.97375,-7.43,1.974809,34.05
2021-06-29 10:41:07.132812500,-42.0,4.0,49.0,75.973984375,-10.09,1.9750491875,34.05
2021-06-29 10:41:07.140625000,-42.0,4.0,49.0,75.97421875,-12.75,1.975289375,34.05
2021-06-29 10:41:07.148437500,-42.0,4.0,49.0,75.974453125,-15.485,1.9755295625,34.05
2021-06-29 10:41:07.156250000,-42.0,4.0,49.0,75.9746875,-18.22,1.97576975,34.05
2021-06-29 10:41:07.164062500,-42.0,4.0,49.0,75.97492187499999,-20.84,1.9760099375,34.05
2021-06-29 10:41:07.171875000,-42.0,4.0,49.0,75.97515625,-23.46,1.976250125,34.05
2021-06-29 10:41:07.179687500,-42.0,4.0,49.0,75.975390625,-25.815,1.9764903125,34.05
2021-06-29 10:41:07.187500000,-42.0,4.0,49.0,75.975625,-28.17,1.9767305,34.05
2021-06-29 10:41:07.195312500,-42.0,4.0,49.0,75.975859375,-30.245,1.9769706875000002,34.05
2021-06-29 10:41:07.203125000,-42.0,4.0,49.0,75.97609375,-32.32,1.9772108750000001,34.05
2021-06-29 10:41:07.210937500,-42.0,4.0,49.0,75.976328125,-34.265,1.9774510625000001,34.05
2021-06-29 10:41:07.218750000,-42.0,4.0,49.0,75.9765625,-36.21,1.9776912500000001,34.05
2021-06-29 10:41:07.226562500,-42.0,4.0,49.0,75.976796875,-38.28,1.9779314375000001,34.05
2021-06-29 10:41:07.234375000,-42.0,4.0,49.0,75.97703125,-40.35,1.978171625,34.05
2021-06-29 10:41:07.242187500,-42.0,4.0,49.0,75.977265625,-42.875,1.9784118125,34.05
2021-06-29 10:41:07.250000000,-42.0,4.0,49.0,75.97749999999999,-45.4,1.978652,34.05
2021-06-29 10:41:07.257812500,-42.0,4.0,49.0,75.977734375,-48.635,1.978491875,34.05
2021-06-29 10:41:07.265625000,-42.0,4.0,49.0,75.97796875,-51.87,1.9783317500000002,34.05
2021-06-29 10:41:07.273437500,-42.0,4.0,49.0,75.978203125,-55.93,1.978171625,34.05
2021-06-29 10:41:07.281250000,-42.0,4.0,49.0,75.9784375,-59.99,1.9780115,34.05
2021-06-29 10:41:07.289062500,-42.0,4.0,49.0,75.978671875,-64.74,1.977851375,34.05
2021-06-29 10:41:07.296875000,-42.0,4.0,49.0,75.97890625,-69.49,1.9776912500000001,34.05
2021-06-29 10:41:07.304687500,-42.0,4.0,49.0,75.979140625,-74.475,1.977531125,34.05
2021-06-29 10:41:07.312500000,-42.0,4.0,49.0,75.979375,-79.46,1.977371,34.05
2021-06-29 10:41:07.320312500,-42.0,4.0,49.0,75.979609375,-83.895,1.9772108750000001,34.05
2021-06-29 10:41:07.328125000,-42.0,4.0,49.0,75.97984375,-88.33,1.97705075,34.05
2021-06-29 10:41:07.335937500,-42.0,4.0,49.0,75.980078125,-91.21000000000001,1.976890625,34.05
2021-06-29 10:41:07.343750000,-42.0,4.0,49.0,75.9803125,-94.09,1.9767305,34.05
2021-06-29 10:41:07.351562500,-42.0,4.0,49.0,75.980546875,-94.45,1.976570375,34.05
2021-06-29 10:41:07.359375000,-42.0,4.0,49.0,75.98078124999999,-94.81,1.97641025,34.05
2021-06-29 10:41:07.367187500,-42.0,4.0,49.0,75.981015625,-92.055,1.976250125,34.05
2021-06-29 10:41:07.375000000,-42.0,4.0,49.0,75.98125,-89.3,1.9760900000000001,34.05
2021-06-29 10:41:07.382812500,-42.0,4.0,49.0,75.981484375,-83.41499999999999,1.975929875,34.05
2021-06-29 10:41:07.390625000,-42.0,4.0,49.0,75.98171875,-77.53,1.97576975,34.05
2021-06-29 10:41:07.398437500,-42.0,4.0,49.0,75.981953125,-69.145,1.975609625,34.05
2021-06-29 10:41:07.406250000,-42.0,4.0,49.0,75.9821875,-60.76,1.9754495,34.05
2021-06-29 10:41:07.414062500,-42.0,4.0,49.0,75.982421875,-50.945,1.975289375,34.05
2021-06-29 10:41:07.421875000,-42.0,4.0,49.0,75.98265625,-41.13,1.97512925,34.05
2021-06-29 10:41:07.429687500,-42.0,4.0,49.0,75.982890625,-31.075000000000003,1.9749691249999999,34.05
2021-06-29 10:41:07.437500000,-42.0,4.0,49.0,75.983125,-21.02,1.974809,34.05
2021-06-29 10:41:07.445312500,-42.0,4.0,49.0,75.983359375,-11.715,1.974648875,34.05
2021-06-29 10:41:07.453125000,-42.0,4.0,49.0,75.98359375,-2.41,1.97448875,34.05
2021-06-29 10:41:07.460937500,-42.0,4.0,49.0,75.983828125,5.52,1.974328625,34.05
2021-06-29 10:41:07.468750000,-42.0,4.0,49.0,75.9840625,13.45,1.9741685,34.05
2021-06-29 10:41:07.476562500,-42.0,4.0,49.0,75.984296875,19.7,1.974008375,34.05
2021-06-29 10:41:07.484375000,-42.0,4.0,49.0,75.98453125,25.95,1.9738482499999999,34.05
2021-06-29 10:41:07.492187500,-42.0,4.0,49.0,75.984765625,30.46,1.973688125,34.05
2021-06-29 10:41:07.500000000,-42.0,4.0,49.0,75.985,34.97,1.973528,34.05
2021-06-29 10:41:07.507812500,-42.0,4.0,49.0,75.985234375,37.75,1.973528,34.05
2021-06-29 10:41:07.515625000,-42.0,4.0,49.0,75.98546875,40.53,1.973528,34.05
2021-06-29 10:41:07.523437500,-42.0,4.0,49.0,75.985703125,41.685,1.973528,34.05
2021-06-29 10:41:07.531250000,-42.0,4.0,49.0,75.9859375,42.84,1.973528,34.05
2021-06-29 10:41:07.539062500,-42.0,4.0,49.0,75.986171875,42.605000000000004,1.973528,34.05
2021-06-29 10:41:07.546875000,-42.0,4.0,49.0,75.98640625,42.37,1.973528,34.05
2021-06-29 10:41:07.554687500,-42.0,4.0,49.0,75.98664062499999,41.129999999999995,1.973528,34.05
2021-06-29 10:41:07.562500000,-42.0,4.0,49.0,75.986875,39.89,1.973528,34.05
2021-06-29 10:41:07.570312500,-42.0,4.0,49.0,75.987109375,38.19,1.973528,34.05
2021-06-29 10:41:07.578125000,-42.0,4.0,49.0,75.98734375,36.49,1.973528,34.05
2021-06-29 10:41:07.585937500,-42.0,4.0,49.0,75.987578125,34.94,1.973528,34.05
2021-06-29 10:41:07.593750000,-42.0,4.0,49.0,75.9878125,33.39,1.973528,34.05
2021-06-29 10:41:07.601562500,-42.0,4.0,49.0,75.988046875,32.49,1.973528,34.05
2021-06-29 10:41:07.609375000,-42.0,4.0,49.0,75.98828125,31.59,1.973528,34.05
2021-06-29 10:41:07.617187500,-42.0,4.0,49.0,75.988515625,31.645,1.973528,34.05
2021-06-29 10:41:07.625000000,-42.0,4.0,49.0,75.98875,31.7,1.973528,34.05
2021-06-29 10:41:07.632812500,-42.0,4.0,49.0,75.988984375,32.725,1.973528,34.05
2021-06-29 10:41:07.640625000,-42.0,4.0,49.0,75.98921875,33.75,1.973528,34.05
2021-06-29 10:41:07.648437500,-42.0,4.0,49.0,75.989453125,35.5,1.973528,34.05
2021-06-29 10:41:07.656250000,-42.0,4.0,49.0,75.9896875,37.25,1.973528,34.05
2021-06-29 10:41:07.664062500,-42.0,4.0,49.0,75.989921875,39.335,1.973528,34.05
2021-06-29 10:41:07.671875000,-42.0,4.0,49.0,75.99015625,41.42,1.973528,34.05
2021-06-29 10:41:07.679687500,-42.0,4.0,49.0,75.990390625,43.45,1.973528,34.05
2021-06-29 10:41:07.687500000,-42.0,4.0,49.0,75.990625,45.48,1.973528,34.05
2021-06-29 10:41:07.695312500,-42.0,4.0,49.0,75.990859375,47.17,1.973528,34.05
2021-06-29 10:41:07.703125000,-42.0,4.0,49.0,75.99109375,48.86,1.973528,34.05
2021-06-29 10:41:07.710937500,-42.0,4.0,49.0,75.991328125,50.11,1.973528,34.05
2021-06-29 10:41:07.718750000,-42.0,4.0,49.0,75.9915625,51.36,1.973528,34.05
2021-06-29 10:41:07.726562500,-42.0,4.0,49.0,75.991796875,52.21,1.973528,34.05
2021-06-29 10:41:07.734375000,-42.0,4.0,49.0,75.99203125,53.06,1.973528,34.05
2021-06-29 10:41:07.742187500,-42.0,4.0,49.0,75.992265625,53.56,1.973528,34.05
2021-06-29 10:41:07.750000000,-42.0,4.0,49.0,75.9925,54.06,1.973528,34.05
2021-06-29 10:41:07.757812500,-42.0,4.0,49.0,75.992734375,54.17,1.9736080624999999,34.05
2021-06-29 10:41:07.765625000,-42.0,4.0,49.0,75.99296875,54.28,1.973688125,34.05
2021-06-29 10:41:07.773437500,-42.0,4.0,49.0,75.993203125,53.83,1.9737681875,34.05
2021-06-29 10:41:07.781250000,-42.0,4.0,49.0,75.9934375,53.38,1.9738482499999999,34.05
2021-06-29 10:41:07.789062500,-42.0,4.0,49.0,75.993671875,52.144999999999996,1.9739283125,34.05
2021-06-29 10:41:07.796875000,-42.0,4.0,49.0,75.99390625,50.91,1.974008375,34.05
2021-06-29 10:41:07.804687500,-42.0,4.0,49.0,75.994140625,48.72,1.9740884374999998,34.05
2021-06-29 10:41:07.812500000,-42.0,4.0,49.0,75.994375,46.53,1.9741685,34.05
2021-06-29 10:41:07.820312500,-42.0,4.0,49.0,75.994609375,43.465,1.9742485625,34.05
2021-06-29 10:41:07.828125000,-42.0,4.0,49.0,75.99484375,40.4,1.9743286249999998,34.05
2021-06-29 10:41:07.835937500,-42.0,4.0,49.0,75.995078125,36.730000000000004,1.9744086875,34.05
2021-06-29 10:41:07.843750000,-42.0,4.0,49.0,75.9953125,33.06,1.97448875,34.05
2021-06-29 10:41:07.851562500,-42.0,4.0,49.0,75.995546875,29.240000000000002,1.9745688124999998,34.05
2021-06-29 10:41:07.859375000,-42.0,4.0,49.0,75.99578125,25.42,1.974648875,34.05
