TimeStamp,empatica.acc.x,empatica.acc.y,empatica.acc.z,empatica.hr,empatica.bvp,empatica.eda,empatica.temp
2021-06-21 12:25:46.070312500,-45.0,15.0,44.0,79.74875,86.405,0.6054296875,238.65
2021-06-21 12:25:46.078125000,-45.0,15.0,44.0,79.7475,87.4,0.605629875,238.65
2021-06-21 12:25:46.085937500,-45.0,15.0,44.0,79.74625,87.94,0.6058300625,238.65
2021-06-21 12:25:46.093750000,-45.0,15.0,44.0,79.745,88.48,0.60603025,238.65
2021-06-21 12:25:46.101562500,-45.0,15.25,44.0,79.74375,88.41,0.6062304375,238.65
2021-06-21 12:25:46.109375000,-45.0,15.5,44.0,79.7425,88.34,0.606430625,238.65
2021-06-21 12:25:46.117187500,-45.0,15.75,44.0,79.74125000000001,87.635,0.6066308125000001,238.65
2021-06-21 12:25:46.125000000,-45.0,16.0,44.0,79.74000000000001,86.93,0.606831,238.65
2021-06-21 12:25:46.132812500,-45.0,15.75,44.0,79.73875000000001,85.58500000000001,0.6070311875,238.65
2021-06-21 12:25:46.140625000,-45.0,15.5,44.0,79.7375,84.24,0.607231375,238.65
2021-06-21 12:25:46.148437500,-45.0,15.25,44.0,79.73625,82.185,0.6074315625,238.65
2021-06-21 12:25:46.156250000,-45.0,15.0,44.0,79.735,80.13,0.60763175,238.65
2021-06-21 12:25:46.164062500,-45.0,15.0,44.0,79.73375,77.195,0.6078319375,238.65
2021-06-21 12:25:46.171875000,-45.0,15.0,44.0,79.7325,74.26,0.608032125,238.65
2021-06-21 12:25:46.179687500,-45.0,15.0,44.0,79.73125,70.265,0.6082323125,238.65
2021-06-21 12:25:46.187500000,-45.0,15.0,44.0,79.73,66.27,0.6084324999999999,238.65
2021-06-21 12:25:46.195312500,-45.0,15.0,44.0,79.72875,61.15,0.6086326875,238.65
2021-06-21 12:25:46.203125000,-45.0,15.0,44.0,79.7275,56.03,0.6088328749999999,238.65
2021-06-21 12:25:46.210937500,-45.0,15.0,44.0,79.72625000000001,49.965,0.6090330625,238.65
2021-06-21 12:25:46.218750000,-45.0,15.0,44.0,79.72500000000001,43.9,0.60923325,238.65
2021-06-21 12:25:46.226562500,-45.0,15.0,44.0,79.72375000000001,37.305,0.6094334375,238.65
2021-06-21 12:25:46.234375000,-45.0,15.0,44.0,79.7225,30.71,0.609633625,238.65
2021-06-21 12:25:46.242187500,-45.0,15.0,44.0,79.72125,24.125,0.6098338125,238.65
2021-06-21 12:25:46.250000000,-45.0,15.0,44.0,79.72,17.54,0.610034,238.65
2021-06-21 12:25:46.257812500,-45.0,15.0,44.0,79.71875,11.43,0.6098338125,238.65
2021-06-21 12:25:46.265625000,-45.0,15.0,44.0,79.7175,5.32,0.609633625,238.65
2021-06-21 12:25:46.273437500,-45.0,15.0,44.0,79.71625,-0.11999999999999922,0.6094334375,238.65
2021-06-21 12:25:46.281250000,-45.0,15.0,44.0,79.715,-5.56,0.60923325,238.65
2021-06-21 12:25:46.289062500,-45.0,15.25,44.0,79.71375,-10.475000000000001,0.6090330625,238.65
2021-06-21 12:25:46.296875000,-45.0,15.5,44.0,79.7125,-15.39,0.6088328749999999,238.65
2021-06-21 12:25:46.304687500,-45.0,15.75,44.0,79.71125,-20.16,0.6086326875,238.65
2021-06-21 12:25:46.312500000,-45.0,16.0,44.0,79.71000000000001,-24.93,0.6084324999999999,238.65
2021-06-21 12:25:46.320312500,-45.0,15.75,44.0,79.70875,-29.95,0.6082323125,238.65
2021-06-21 12:25:46.328125000,-45.0,15.5,44.0,79.7075,-34.97,0.608032125,238.65
2021-06-21 12:25:46.335937500,-45.0,15.25,44.0,79.70625,-40.425,0.6078319375,238.65
2021-06-21 12:25:46.343750000,-45.0,15.0,44.0,79.705,-45.88,0.60763175,238.65
2021-06-21 12:25:46.351562500,-44.75,15.0,44.0,79.70375,-51.595,0.6074315625,238.65
2021-06-21 12:25:46.359375000,-44.5,15.0,44.0,79.7025,-57.31,0.607231375,238.65
2021-06-21 12:25:46.367187500,-44.25,15.0,44.0,79.70125,-62.86,0.6070311875,238.65
2021-06-21 12:25:46.375000000,-44.0,15.0,44.0,79.7,-68.41,0.606831,238.65
2021-06-21 12:25:46.382812500,-44.25,15.0,44.0,79.69875,-73.28999999999999,0.6066308125000001,238.65
2021-06-21 12:25:46.390625000,-44.5,15.0,44.0,79.6975,-78.17,0.606430625,238.65
2021-06-21 12:25:46.398437500,-44.75,15.0,44.0,79.69625,-82.105,0.6062304375,238.65
2021-06-21 12:25:46.406250000,-45.0,15.0,44.0,79.69500000000001,-86.04,0.60603025,238.65
2021-06-21 12:25:46.414062500,-45.0,15.0,44.0,79.69375,-89.135,0.6058300625,238.65
2021-06-21 12:25:46.421875000,-45.0,15.0,44.0,79.6925,-92.23,0.605629875,238.65
2021-06-21 12:25:46.429687500,-45.0,15.0,44.0,79.69125,-95.025,0.6054296875,238.65
2021-06-21 12:25:46.437500000,-45.0,15.0,44.0,79.69,-97.82,0.6052295000000001,238.65
2021-06-21 12:25:46.445312500,-45.0,15.0,44.0,79.68875,-101.13,0.6050293125,238.65
2021-06-21 12:25:46.453125000,-45.0,15.0,44.0,79.6875,-104.44,0.6048291250000001,238.65
2021-06-21 12:25:46.460937500,-45.0,15.0,44.0,79.68625,-109.1,0.6046289375,238.65
2021-06-21 12:25:46.468750000,-45.0,15.0,44.0,79.685,-113.76,0.6044287500000001,238.65
2021-06-21 12:25:46.476562500,-45.0,15.0,44.0,79.68375,-120.355,0.6042285625,238.65
2021-06-21 12:25:46.484375000,-45.0,15.0,44.0,79.6825,-126.95,0.6040283750000001,238.65
2021-06-21 12:25:46.492187500,-45.0,15.0,44.0,79.68125,-135.49,0.6038281875,238.65
2021-06-21 12:25:46.500000000,-45.0,15.0,44.0,79.68,-144.03,0.603628,238.65
2021-06-21 12:25:46.507812500,-45.0,15.25,44.0,79.67875,-153.715,0.6035879687500001,238.65
2021-06-21 12:25:46.515625000,-45.0,15.5,44.0,79.6775,-163.4,0.6035479375,238.65
2021-06-21 12:25:46.523437500,-45.0,15.75,44.0,79.67625,-172.565,0.6035079062500001,238.65
2021-06-21 12:25:46.531250000,-45.0,16.0,44.0,79.675,-181.73,0.603467875,238.65
2021-06-21 12:25:46.539062500,-45.0,16.0,44.0,79.67375,-188.02499999999998,0.60342784375,238.65
2021-06-21 12:25:46.546875000,-45.0,16.0,44.0,79.6725,-194.32,0.6033878125000001,238.65
2021-06-21 12:25:46.554687500,-45.0,16.0,44.0,79.67125,-195.225,0.60334778125,238.65
2021-06-21 12:25:46.562500000,-45.0,16.0,44.0,79.67,-196.13,0.60330775,238.65
2021-06-21 12:25:46.570312500,-45.0,15.75,44.0,79.66875,-189.73000000000002,0.6032677187500001,238.65
2021-06-21 12:25:46.578125000,-45.0,15.5,44.0,79.6675,-183.33,0.6032276875,238.65
2021-06-21 12:25:46.585937500,-45.0,15.25,44.0,79.66625,-169.03500000000003,0.60318765625,238.65
2021-06-21 12:25:46.593750000,-45.0,15.0,44.0,79.66499999999999,-154.74,0.6031476250000001,238.65
2021-06-21 12:25:46.601562500,-45.0,15.0,44.0,79.66375,-133.7,0.60310759375,238.65
2021-06-21 12:25:46.609375000,-45.0,15.0,44.0,79.6625,-112.66,0.6030675625,238.65
2021-06-21 12:25:46.617187500,-45.0,15.0,44.0,79.66125,-87.58,0.60302753125,238.65
2021-06-21 12:25:46.625000000,-45.0,15.0,44.0,79.66,-62.5,0.6029875,238.65
2021-06-21 12:25:46.632812500,-45.0,15.0,44.0,79.65875,-36.879999999999995,0.60294746875,238.65
2021-06-21 12:25:46.640625000,-45.0,15.0,44.0,79.6575,-11.26,0.6029074375,238.65
2021-06-21 12:25:46.648437500,-45.0,15.0,44.0,79.65625,11.595,0.60286740625,238.65
2021-06-21 12:25:46.656250000,-45.0,15.0,44.0,79.655,34.45,0.6028273749999999,238.65
2021-06-21 12:25:46.664062500,-45.0,15.0,44.0,79.65375,52.34,0.60278734375,238.65
2021-06-21 12:25:46.671875000,-45.0,15.0,44.0,79.6525,70.23,0.6027473125,238.65
2021-06-21 12:25:46.679687500,-45.0,15.0,44.0,79.65125,82.39,0.60270728125,238.65
2021-06-21 12:25:46.687500000,-45.0,15.0,44.0,79.64999999999999,94.55,0.60266725,238.65
2021-06-21 12:25:46.695312500,-44.75,15.0,44.0,79.64874999999999,101.47,0.60262721875,238.65
2021-06-21 12:25:46.703125000,-44.5,15.0,44.0,79.6475,108.39,0.6025871875,238.65
2021-06-21 12:25:46.710937500,-44.25,15.0,44.0,79.64625,111.21000000000001,0.60254715625,238.65
2021-06-21 12:25:46.718750000,-44.0,15.0,44.0,79.645,114.03,0.602507125,238.65
2021-06-21 12:25:46.726562500,-44.25,15.0,44.0,79.64375,113.99000000000001,0.60246709375,238.65
2021-06-21 12:25:46.734375000,-44.5,15.0,44.0,79.6425,113.95,0.6024270625,238.65
2021-06-21 12:25:46.742187500,-44.75,15.0,44.0,79.64125,112.025,0.6023870312499999,238.65
2021-06-21 12:25:46.750000000,-45.0,15.0,44.0,79.64,110.1,0.602347,238.65
2021-06-21 12:25:46.757812500,-44.75,15.0,44.0,79.63875,107.00999999999999,0.6023870312499999,238.65
2021-06-21 12:25:46.765625000,-44.5,15.0,44.0,79.6375,103.92,0.6024270625,238.65
2021-06-21 12:25:46.773437500,-44.25,15.0,44.0,79.63624999999999,100.27000000000001,0.60246709375,238.65
2021-06-21 12:25:46.781250000,-44.0,15.0,44.0,79.63499999999999,96.62,0.602507125,238.65
2021-06-21 12:25:46.789062500,-44.0,15.0,44.0,79.63374999999999,93.055,0.60254715625,238.65
2021-06-21 12:25:46.796875000,-44.0,15.0,44.0,79.6325,89.49,0.6025871875,238.65
2021-06-21 12:25:46.804687500,-44.0,15.0,44.0,79.63125,86.645,0.60262721875,238.65
2021-06-21 12:25:46.812500000,-44.0,15.0,44.0,79.63,83.8,0.60266725,238.65
2021-06-21 12:25:46.820312500,-44.25,15.0,44.0,79.62875,82.11500000000001,0.60270728125,238.65
2021-06-21 12:25:46.828125000,-44.5,15.0,44.0,79.6275,80.43,0.6027473125,238.65
2021-06-21 12:25:46.835937500,-44.75,15.0,44.0,79.62625,79.99000000000001,0.60278734375,238.65
2021-06-21 12:25:46.843750000,-45.0,15.0,44.0,79.625,79.55,0.6028273749999999,238.65
2021-06-21 12:25:46.851562500,-45.0,15.0,44.0,79.62375,80.045,0.60286740625,238.65
2021-06-21 12:25:46.859375000,-45.0,15.0,44.0,79.6225,80.54,0.6029074375,238.65
2021-06-21 12:25:46.867187500,-45.0,15.0,44.0,79.62124999999999,81.415,0.60294746875,238.65
2021-06-21 12:25:46.875000000,-45.0,15.0,44.0,79.61999999999999,82.29,0.6029875,238.65
2021-06-21 12:25:46.882812500,-45.0,15.0,44.0,79.61874999999999,82.99000000000001,0.60302753125,238.65
2021-06-21 12:25:46.890625000,-45.0,15.0,44.0,79.61749999999999,83.69,0.6030675625,238.65
2021-06-21 12:25:46.898437500,-45.0,15.0,44.0,79.61625,83.925,0.60310759375,238.65
2021-06-21 12:25:46.906250000,-45.0,15.0,44.0,79.615,84.16,0.6031476250000001,238.65
2021-06-21 12:25:46.914062500,-45.0,15.0,44.0,79.61375,83.93,0.60318765625,238.65
2021-06-21 12:25:46.921875000,-45.0,15.0,44.0,79.6125,83.7,0.6032276875,238.65
2021-06-21 12:25:46.929687500,-45.0,15.0,44.0,79.61125,83.16499999999999,0.6032677187500001,238.65
2021-06-21 12:25:46.937500000,-45.0,15.0,44.0,79.61,82.63,0.60330775,238.65
2021-06-21 12:25:46.945312500,-45.0,15.0,44.0,79.60875,81.895,0.60334778125,238.65
2021-06-21 12:25:46.953125000,-45.0,15.0,44.0,79.6075,81.16,0.6033878125000001,238.65
2021-06-21 12:25:46.960937500,-45.0,15.0,44.0,79.60624999999999,80.09,0.60342784375,238.65
2021-06-21 12:25:46.968750000,-45.0,15.0,44.0,79.60499999999999,79.02,0.603467875,238.65
2021-06-21 12:25:46.976562500,-45.0,15.25,44.0,79.60374999999999,77.25,0.6035079062500001,238.65
2021-06-21 12:25:46.984375000,-45.0,15.5,44.0,79.60249999999999,75.48,0.6035479375,238.65
2021-06-21 12:25:46.992187500,-45.0,15.75,44.0,79.60125,72.58000000000001,0.6035879687500001,238.65
2021-06-21 12:25:47.000000000,-45.0,16.0,44.0,79.6,69.68,0.603628,238.65
2021-06-21 12:25:47.007812500,-45.0,15.75,44.25,79.59875,65.41,0.6035079062500001,238.65
2021-06-21 12:25:47.015625000,-45.0,15.5,44.5,79.5975,61.14,0.6033878125000001,238.65
2021-06-21 12:25:47.023437500,-45.0,15.25,44.75,79.59625,55.620000000000005,0.6032677187500001,238.65
2021-06-21 12:25:47.031250000,-45.0,15.0,45.0,79.595,50.1,0.6031476250000001,238.65
2021-06-21 12:25:47.039062500,-45.0,15.0,44.75,79.59375,43.83,0.6030275312500001,238.65
2021-06-21 12:25:47.046875000,-45.0,15.0,44.5,79.5925,37.56,0.6029074375000001,238.65
2021-06-21 12:25:47.054687500,-45.0,15.0,44.25,79.59124999999999,31.18,0.6027873437500001,238.65
2021-06-21 12:25:47.062500000,-45.0,15.0,44.0,79.58999999999999,24.8,0.6026672500000001,238.65
2021-06-21 12:25:47.070312500,-45.0,15.0,44.0,79.58874999999999,18.875,0.60254715625,238.65
2021-06-21 12:25:47.078125000,-45.0,15.0,44.0,79.58749999999999,12.95,0.6024270625,238.65
2021-06-21 12:25:47.085937500,-45.0,15.0,44.0,79.58624999999999,7.6899999999999995,0.60230696875,238.65
2021-06-21 12:25:47.093750000,-45.0,15.0,44.0,79.585,2.43,0.602186875,238.65
2021-06-21 12:25:47.101562500,-45.0,15.0,44.0,79.58375,-2.3349999999999995,0.60206678125,238.65
2021-06-21 12:25:47.109375000,-45.0,15.0,44.0,79.5825,-7.1,0.6019466875,238.65
2021-06-21 12:25:47.117187500,-45.0,15.0,44.0,79.58125,-11.774999999999999,0.60182659375,238.65
2021-06-21 12:25:47.125000000,-45.0,15.0,44.0,79.58,-16.45,0.6017065,238.65
2021-06-21 12:25:47.132812500,-45.0,15.0,44.0,79.57875,-21.43,0.60158640625,238.65
2021-06-21 12:25:47.140625000,-45.0,15.0,44.0,79.5775,-26.41,0.6014663125,238.65
2021-06-21 12:25:47.148437500,-45.0,15.0,44.0,79.57625,-31.845,0.60134621875,238.65
2021-06-21 12:25:47.156250000,-45.0,15.0,44.0,79.57499999999999,-37.28,0.6012261250000001,238.65
2021-06-21 12:25:47.164062500,-45.0,15.0,44.0,79.57374999999999,-42.975,0.6011060312500001,238.65
2021-06-21 12:25:47.171875000,-45.0,15.0,44.0,79.57249999999999,-48.67,0.6009859375000001,238.65
2021-06-21 12:25:47.179687500,-45.0,15.0,44.0,79.57124999999999,-54.18,0.6008658437500001,238.65
2021-06-21 12:25:47.187500000,-45.0,15.0,44.0,79.57,-59.69,0.60074575,238.65
2021-06-21 12:25:47.195312500,-45.0,15.0,44.0,79.56875,-64.52,0.60062565625,238.65
2021-06-21 12:25:47.203125000,-45.0,15.0,44.0,79.5675,-69.35,0.6005055625,238.65
2021-06-21 12:25:47.210937500,-45.0,15.0,44.0,79.56625,-73.205,0.60038546875,238.65
2021-06-21 12:25:47.218750000,-45.0,15.0,44.0,79.565,-77.06,0.600265375,238.65
2021-06-21 12:25:47.226562500,-45.0,15.0,44.0,79.56375,-80.045,0.60014528125,238.65
2021-06-21 12:25:47.234375000,-45.0,15.0,44.0,79.5625,-83.03,0.6000251875,238.65
2021-06-21 12:25:47.242187500,-45.0,15.0,44.0,79.56125,-85.64,0.59990509375,238.65
2021-06-21 12:25:47.250000000,-45.0,15.0,44.0,79.56,-88.25,0.599785,238.65
2021-06-21 12:25:47.257812500,-45.0,15.0,44.0,79.55874999999999,-91.28999999999999,0.59982503125,238.65
2021-06-21 12:25:47.265625000,-45.0,15.0,44.0,79.55749999999999,-94.33,0.5998650625,238.65
2021-06-21 12:25:47.273437500,-45.0,15.0,44.0,79.55624999999999,-98.72,0.59990509375,238.65
2021-06-21 12:25:47.281250000,-45.0,15.0,44.0,79.55499999999999,-103.11,0.599945125,238.65
2021-06-21 12:25:47.289062500,-45.0,15.0,44.0,79.55375,-109.50999999999999,0.59998515625,238.65
2021-06-21 12:25:47.296875000,-45.0,15.0,44.0,79.5525,-115.91,0.6000251875,238.65
2021-06-21 12:25:47.304687500,-45.0,15.0,44.0,79.55125,-124.41499999999999,0.60006521875,238.65
2021-06-21 12:25:47.312500000,-45.0,15.0,44.0,79.55,-132.92,0.60010525,238.65
2021-06-21 12:25:47.320312500,-45.0,15.0,44.0,79.54875,-142.7,0.60014528125,238.65
2021-06-21 12:25:47.328125000,-45.0,15.0,44.0,79.5475,-152.48,0.6001853125,238.65
2021-06-21 12:25:47.335937500,-45.0,15.0,44.0,79.54625,-161.76,0.60022534375,238.65
2021-06-21 12:25:47.343750000,-45.0,15.0,44.0,79.545,-171.04,0.600265375,238.65
2021-06-21 12:25:47.351562500,-45.0,15.0,44.0,79.54374999999999,-177.315,0.60030540625,238.65
2021-06-21 12:25:47.359375000,-45.0,15.0,44.0,79.54249999999999,-183.59,0.6003454375,238.65
2021-06-21 12:25:47.367187500,-45.0,15.0,44.0,79.54124999999999,-184.29500000000002,0.60038546875,238.65
2021-06-21 12:25:47.375000000,-45.0,15.0,44.0,79.53999999999999,-185.0,0.6004255000000001,238.65
2021-06-21 12:25:47.382812500,-45.0,15.25,44.25,79.53875,-178.285,0.60046553125,238.65
2021-06-21 12:25:47.390625000,-45.0,15.5,44.5,79.5375,-171.57,0.6005055625,238.65
2021-06-21 12:25:47.398437500,-45.0,15.75,44.75,79.53625,-157.055,0.60054559375,238.65
2021-06-21 12:25:47.406250000,-45.0,16.0,45.0,79.535,-142.54,0.600585625,238.65
2021-06-21 12:25:47.414062500,-45.0,15.75,44.75,79.53375,-121.585,0.60062565625,238.65
2021-06-21 12:25:47.421875000,-45.0,15.5,44.5,79.5325,-100.63,0.6006656875,238.65
2021-06-21 12:25:47.429687500,-45.0,15.25,44.25,79.53125,-76.025,0.60070571875,238.65
2021-06-21 12:25:47.437500000,-45.0,15.0,44.0,79.53,-51.42,0.60074575,238.65
2021-06-21 12:25:47.445312500,-45.0,15.0,44.0,79.52875,-26.635,0.60078578125,238.65
2021-06-21 12:25:47.453125000,-45.0,15.0,44.0,79.52749999999999,-1.85,0.6008258125,238.65
2021-06-21 12:25:47.460937500,-45.0,15.0,44.0,79.52624999999999,19.99,0.60086584375,238.65
2021-06-21 12:25:47.468750000,-45.0,15.0,44.0,79.52499999999999,41.83,0.600905875,238.65
2021-06-21 12:25:47.476562500,-45.0,15.0,44.0,79.52374999999999,58.65,0.60094590625,238.65
2021-06-21 12:25:47.484375000,-45.0,15.0,44.0,79.5225,75.47,0.6009859375,238.65
2021-06-21 12:25:47.492187500,-45.0,15.0,44.0,79.52125,86.59,0.60102596875,238.65
2021-06-21 12:25:47.500000000,-45.0,15.0,44.0,79.52,97.71,0.601066,238.65
2021-06-21 12:25:47.507812500,-45.0,15.0,44.0,79.51875,103.63499999999999,0.60102596875,238.65
2021-06-21 12:25:47.515625000,-45.0,15.0,44.0,79.5175,109.56,0.6009859375,238.65
2021-06-21 12:25:47.523437500,-45.0,15.0,44.0,79.51625,111.47,0.60094590625,238.65
2021-06-21 12:25:47.531250000,-45.0,15.0,44.0,79.515,113.38,0.600905875,238.65
2021-06-21 12:25:47.539062500,-45.0,15.0,44.0,79.51375,112.57499999999999,0.60086584375,238.65
2021-06-21 12:25:47.546875000,-45.0,15.0,44.0,79.5125,111.77,0.6008258125,238.65
2021-06-21 12:25:47.554687500,-45.0,15.0,44.0,79.51124999999999,109.345,0.60078578125,238.65
2021-06-21 12:25:47.562500000,-45.0,15.0,44.0,79.50999999999999,106.92,0.60074575,238.65
2021-06-21 12:25:47.570312500,-45.0,15.0,44.0,79.50874999999999,103.63,0.60070571875,238.65
2021-06-21 12:25:47.578125000,-45.0,15.0,44.0,79.5075,100.34,0.6006656875,238.65
2021-06-21 12:25:47.585937500,-45.0,15.0,44.0,79.50625,96.69,0.60062565625,238.65
2021-06-21 12:25:47.593750000,-45.0,15.0,44.0,79.505,93.04,0.600585625,238.65
2021-06-21 12:25:47.601562500,-45.0,15.0,44.0,79.50375,89.45,0.60054559375,238.65
2021-06-21 12:25:47.609375000,-45.0,15.0,44.0,79.5025,85.86,0.6005055625,238.65
2021-06-21 12:25:47.617187500,-45.0,15.0,44.0,79.50125,82.72999999999999,0.60046553125,238.65
2021-06-21 12:25:47.625000000,-45.0,15.0,44.0,79.5,79.6,0.6004255000000001,238.65
2021-06-21 12:25:47.632812500,-44.75,15.0,44.0,79.49875,77.31,0.60038546875,238.65
2021-06-21 12:25:47.640625000,-44.5,15.0,44.0,79.4975,75.02,0.6003454375,238.65
2021-06-21 12:25:47.648437500,-44.25,15.0,44.0,79.49625,73.82,0.60030540625,238.65
2021-06-21 12:25:47.656250000,-44.0,15.0,44.0,79.49499999999999,72.62,0.600265375,238.65
2021-06-21 12:25:47.664062500,-44.25,15.25,44.0,79.49374999999999,72.525,0.60022534375,238.65
2021-06-21 12:25:47.671875000,-44.5,15.5,44.0,79.49249999999999,72.43,0.6001853125,238.65
2021-06-21 12:25:47.679687500,-44.75,15.75,44.0,79.49125,73.2,0.60014528125,238.65
2021-06-21 12:25:47.687500000,-45.0,16.0,44.0,79.49,73.97,0.60010525,238.65
2021-06-21 12:25:47.695312500,-45.0,16.0,44.0,79.48875,75.175,0.60006521875,238.65
2021-06-21 12:25:47.703125000,-45.0,16.0,44.0,79.4875,76.38,0.6000251875,238.65
2021-06-21 12:25:47.710937500,-45.0,16.0,44.0,79.48625,77.5,0.59998515625,238.65
2021-06-21 12:25:47.718750000,-45.0,16.0,44.0,79.485,78.62,0.599945125,238.65
2021-06-21 12:25:47.726562500,-44.75,15.75,44.0,79.48375,79.185,0.59990509375,238.65
2021-06-21 12:25:47.734375000,-44.5,15.5,44.0,79.4825,79.75,0.5998650625,238.65
2021-06-21 12:25:47.742187500,-44.25,15.25,44.0,79.48125,79.425,0.59982503125,238.65
2021-06-21 12:25:47.750000000,-44.0,15.0,44.0,79.47999999999999,79.1,0.599785,238.65
2021-06-21 12:25:47.757812500,-44.0,15.0,44.0,79.47874999999999,77.715,0.599785,238.65
2021-06-21 12:25:47.765625000,-44.0,15.0,44.0,79.47749999999999,76.33,0.599785,238.65
2021-06-21 12:25:47.773437500,-44.0,15.0,44.0,79.47625,73.88,0.599785,238.65
2021-06-21 12:25:47.781250000,-44.0,15.0,44.0,79.475,71.43,0.599785,238.65
2021-06-21 12:25:47.789062500,-44.5,15.0,44.0,79.47375,68.01,0.599785,238.65
2021-06-21 12:25:47.796875000,-45.0,15.0,44.0,79.4725,64.59,0.599785,238.65
2021-06-21 12:25:47.804687500,-45.5,15.0,44.0,79.47125,60.39,0.599785,238.65
2021-06-21 12:25:47.812500000,-46.0,15.0,44.0,79.47,56.19,0.599785,238.65
2021-06-21 12:25:47.820312500,-45.75,15.25,44.0,79.46875,51.394999999999996,0.599785,238.65
2021-06-21 12:25:47.828125000,-45.5,15.5,44.0,79.4675,46.6,0.599785,238.65
2021-06-21 12:25:47.835937500,-45.25,15.75,44.0,79.46625,41.370000000000005,0.599785,238.65
2021-06-21 12:25:47.843750000,-45.0,16.0,44.0,79.465,36.14,0.599785,238.65
2021-06-21 12:25:47.851562500,-45.0,15.75,44.0,79.46374999999999,30.555,0.599785,238.65
2021-06-21 12:25:47.859375000,-45.0,15.5,44.0,79.46249999999999,24.97,0.599785,238.65
2021-06-21 12:25:47.867187500,-45.0,15.25,44.0,79.46124999999999,19.025,0.599785,238.65
2021-06-21 12:25:47.875000000,-45.0,15.0,44.0,79.46,13.08,0.599785,238.65
2021-06-21 12:25:47.882812500,-45.0,15.0,44.0,79.45875,6.75,0.599785,238.65
2021-06-21 12:25:47.890625000,-45.0,15.0,44.0,79.4575,0.42,0.599785,238.65
2021-06-21 12:25:47.898437500,-45.0,15.0,44.0,79.45625,-6.26,0.599785,238.65
2021-06-21 12:25:47.906250000,-45.0,15.0,44.0,79.455,-12.94,0.599785,238.65
2021-06-21 12:25:47.914062500,-45.0,15.0,44.0,79.45375,-19.81,0.599785,238.65
2021-06-21 12:25:47.921875000,-45.0,15.0,44.0,79.4525,-26.68,0.599785,238.65
2021-06-21 12:25:47.929687500,-45.0,15.0,44.0,79.45125,-33.415,0.599785,238.65
2021-06-21 12:25:47.937500000,-45.0,15.0,44.0,79.45,-40.15,0.599785,238.65
2021-06-21 12:25:47.945312500,-45.0,15.0,44.0,79.44875,-46.364999999999995,0.599785,238.65
2021-06-21 12:25:47.953125000,-45.0,15.0,44.0,79.44749999999999,-52.58,0.599785,238.65
2021-06-21 12:25:47.960937500,-45.0,15.0,44.0,79.44624999999999,-57.94,0.599785,238.65
2021-06-21 12:25:47.968750000,-45.0,15.0,44.0,79.445,-63.3,0.599785,238.65
2021-06-21 12:25:47.976562500,-45.0,15.0,44.0,79.44375,-67.655,0.599785,238.65
2021-06-21 12:25:47.984375000,-45.0,15.0,44.0,79.4425,-72.01,0.599785,238.65
2021-06-21 12:25:47.992187500,-45.0,15.0,44.0,79.44125,-75.475,0.599785,238.65
2021-06-21 12:25:48.000000000,-45.0,15.0,44.0,79.44,-78.94,0.599785,238.65
2021-06-21 12:25:48.007812500,-45.0,15.0,44.0,79.43890625,-81.925,0.5997049375,238.65
2021-06-21 12:25:48.015625000,-45.0,15.0,44.0,79.43781249999999,-84.91,0.5996248750000001,238.65
2021-06-21 12:25:48.023437500,-45.0,15.0,44.0,79.43671875,-88.02,0.5995448125,238.65
2021-06-21 12:25:48.031250000,-45.0,15.0,44.0,79.435625,-91.13,0.59946475,238.65
2021-06-21 12:25:48.039062500,-45.0,15.25,44.0,79.43453124999999,-95.115,0.5993846875,238.65
2021-06-21 12:25:48.046875000,-45.0,15.5,44.0,79.4334375,-99.1,0.599304625,238.65
2021-06-21 12:25:48.054687500,-45.0,15.75,44.0,79.43234375,-104.63499999999999,0.5992245625,238.65
2021-06-21 12:25:48.062500000,-45.0,16.0,44.0,79.43124999999999,-110.17,0.5991445,238.65
2021-06-21 12:25:48.070312500,-45.0,15.75,44.0,79.43015625,-117.57,0.5990644375,238.65
2021-06-21 12:25:48.078125000,-45.0,15.5,44.0,79.4290625,-124.97,0.598984375,238.65
2021-06-21 12:25:48.085937500,-45.0,15.25,44.0,79.42796874999999,-133.91,0.5989043125,238.65
2021-06-21 12:25:48.093750000,-45.0,15.0,44.0,79.426875,-142.85,0.59882425,238.65
2021-06-21 12:25:48.101562500,-45.0,15.0,44.0,79.42578125,-152.14,0.5987441875,238.65
2021-06-21 12:25:48.109375000,-45.0,15.0,44.0,79.4246875,-161.43,0.598664125,238.65
2021-06-21 12:25:48.117187500,-45.0,15.0,44.0,79.42359375,-169.035,0.5985840625,238.65
2021-06-21 12:25:48.125000000,-45.0,15.0,44.0,79.4225,-176.64,0.5985039999999999,238.65
2021-06-21 12:25:48.132812500,-45.0,15.0,44.0,79.42140625,-180.115,0.5984239375,238.65
2021-06-21 12:25:48.140625000,-45.0,15.0,44.0,79.4203125,-183.59,0.598343875,238.65
2021-06-21 12:25:48.148437500,-45.0,15.0,44.0,79.41921875,-180.785,0.5982638124999999,238.65
2021-06-21 12:25:48.156250000,-45.0,15.0,44.0,79.418125,-177.98,0.59818375,238.65
2021-06-21 12:25:48.164062500,-45.0,15.0,44.0,79.41703125,-167.81,0.5981036875,238.65
2021-06-21 12:25:48.171875000,-45.0,15.0,44.0,79.4159375,-157.64,0.598023625,238.65
2021-06-21 12:25:48.179687500,-45.0,15.0,44.0,79.41484375,-140.57999999999998,0.5979435624999999,238.65
2021-06-21 12:25:48.187500000,-45.0,15.0,44.0,79.41375,-123.52,0.5978635,238.65
2021-06-21 12:25:48.195312500,-44.75,15.0,44.0,79.41265625,-101.60499999999999,0.5977834375,238.65
2021-06-21 12:25:48.203125000,-44.5,15.0,44.0,79.4115625,-79.69,0.5977033749999999,238.65
2021-06-21 12:25:48.210937500,-44.25,15.0,44.0,79.41046874999999,-55.945,0.5976233125,238.65
2021-06-21 12:25:48.218750000,-44.0,15.0,44.0,79.409375,-32.2,0.59754325,238.65
2021-06-21 12:25:48.226562500,-44.25,15.0,44.0,79.40828125,-9.775000000000002,0.5974631874999999,238.65
2021-06-21 12:25:48.234375000,-44.5,15.0,44.0,79.40718749999999,12.65,0.5973831249999999,238.65
2021-06-21 12:25:48.242187500,-44.75,15.0,44.0,79.40609375,31.300000000000004,0.5973030625,238.65
2021-06-21 12:25:48.250000000,-45.0,15.0,44.0,79.405,49.95,0.597223,238.65
2021-06-21 12:25:48.257812500,-45.0,15.25,44.0,79.40390624999999,63.54,0.597223,238.65
2021-06-21 12:25:48.265625000,-45.0,15.5,44.0,79.4028125,77.13,0.597223,238.65
2021-06-21 12:25:48.273437500,-45.0,15.75,44.0,79.40171875,85.50999999999999,0.597223,238.65
2021-06-21 12:25:48.281250000,-45.0,16.0,44.0,79.40062499999999,93.89,0.597223,238.65
2021-06-21 12:25:48.289062500,-45.0,15.75,44.0,79.39953125,97.705,0.597223,238.65
2021-06-21 12:25:48.296875000,-45.0,15.5,44.0,79.3984375,101.52,0.597223,238.65
2021-06-21 12:25:48.304687500,-45.0,15.25,44.0,79.39734375,101.72,0.597223,238.65
2021-06-21 12:25:48.312500000,-45.0,15.0,44.0,79.39625,101.92,0.597223,238.65
2021-06-21 12:25:48.320312500,-44.75,15.0,44.0,79.39515625,99.455,0.597223,238.65
2021-06-21 12:25:48.328125000,-44.5,15.0,44.0,79.3940625,96.99,0.597223,238.65
2021-06-21 12:25:48.335937500,-44.25,15.0,44.0,79.39296875,92.715,0.597223,238.65
2021-06-21 12:25:48.343750000,-44.0,15.0,44.0,79.391875,88.44,0.597223,238.65
2021-06-21 12:25:48.351562500,-44.25,15.0,44.0,79.39078125,83.19,0.597223,238.65
2021-06-21 12:25:48.359375000,-44.5,15.0,44.0,79.3896875,77.94,0.597223,238.65
2021-06-21 12:25:48.367187500,-44.75,15.0,44.0,79.38859375,72.62,0.597223,238.65
2021-06-21 12:25:48.375000000,-45.0,15.0,44.0,79.3875,67.3,0.597223,238.65
2021-06-21 12:25:48.382812500,-45.0,15.0,44.0,79.38640625,62.84,0.597223,238.65
2021-06-21 12:25:48.390625000,-45.0,15.0,44.0,79.3853125,58.38,0.597223,238.65
2021-06-21 12:25:48.398437500,-45.0,15.0,44.0,79.38421875,55.56,0.597223,238.65
2021-06-21 12:25:48.406250000,-45.0,15.0,44.0,79.38312499999999,52.74,0.597223,238.65
2021-06-21 12:25:48.414062500,-44.75,15.0,44.0,79.38203125,51.945,0.597223,238.65
2021-06-21 12:25:48.421875000,-44.5,15.0,44.0,79.3809375,51.15,0.597223,238.65
2021-06-21 12:25:48.429687500,-44.25,15.0,44.0,79.37984374999999,52.2,0.597223,238.65
2021-06-21 12:25:48.437500000,-44.0,15.0,44.0,79.37875,53.25,0.597223,238.65
2021-06-21 12:25:48.445312500,-44.25,15.0,44.0,79.37765625,55.47,0.597223,238.65
2021-06-21 12:25:48.453125000,-44.5,15.0,44.0,79.37656249999999,57.69,0.597223,238.65
2021-06-21 12:25:48.460937500,-44.75,15.0,44.0,79.37546875,60.114999999999995,0.597223,238.65
2021-06-21 12:25:48.468750000,-45.0,15.0,44.0,79.374375,62.54,0.597223,238.65
2021-06-21 12:25:48.476562500,-45.0,15.0,44.0,79.37328124999999,64.285,0.597223,238.65
2021-06-21 12:25:48.484375000,-45.0,15.0,44.0,79.3721875,66.03,0.597223,238.65
2021-06-21 12:25:48.492187500,-45.0,15.0,44.0,79.37109375,66.57,0.597223,238.65
2021-06-21 12:25:48.500000000,-45.0,15.0,44.0,79.37,67.11,0.597223,238.65
2021-06-21 12:25:48.507812500,-45.0,15.0,44.0,79.36890625,66.36500000000001,0.597223,238.65
2021-06-21 12:25:48.515625000,-45.0,15.0,44.0,79.3678125,65.62,0.597223,238.65
2021-06-21 12:25:48.523437500,-45.0,15.0,44.0,79.36671875,63.895,0.597223,238.65
2021-06-21 12:25:48.531250000,-45.0,15.0,44.0,79.365625,62.17,0.597223,238.65
2021-06-21 12:25:48.539062500,-45.0,15.0,44.0,79.36453125,59.88,0.597223,238.65
2021-06-21 12:25:48.546875000,-45.0,15.0,44.0,79.3634375,57.59,0.597223,238.65
2021-06-21 12:25:48.554687500,-45.0,15.0,44.0,79.36234375,54.985,0.597223,238.65
2021-06-21 12:25:48.562500000,-45.0,15.0,44.0,79.36125,52.38,0.597223,238.65
2021-06-21 12:25:48.570312500,-45.0,15.0,44.0,79.36015625,49.38,0.597223,238.65
2021-06-21 12:25:48.578125000,-45.0,15.0,44.0,79.3590625,46.38,0.597223,238.65
2021-06-21 12:25:48.585937500,-45.0,15.0,44.0,79.35796875,42.605000000000004,0.597223,238.65
2021-06-21 12:25:48.593750000,-45.0,15.0,44.0,79.356875,38.83,0.597223,238.65
2021-06-21 12:25:48.601562500,-45.0,15.0,44.0,79.35578124999999,33.78,0.597223,238.65
2021-06-21 12:25:48.609375000,-45.0,15.0,44.0,79.3546875,28.73,0.597223,238.65
2021-06-21 12:25:48.617187500,-45.0,15.0,44.0,79.35359375,22.105,0.597223,238.65
2021-06-21 12:25:48.625000000,-45.0,15.0,44.0,79.35249999999999,15.48,0.597223,238.65
2021-06-21 12:25:48.632812500,-44.75,15.0,44.0,79.35140625,7.390000000000001,0.597223,238.65
2021-06-21 12:25:48.640625000,-44.5,15.0,44.0,79.3503125,-0.7,0.597223,238.65
2021-06-21 12:25:48.648437500,-44.25,15.0,44.0,79.34921874999999,-9.629999999999999,0.597223,238.65
2021-06-21 12:25:48.656250000,-44.0,15.0,44.0,79.348125,-18.56,0.597223,238.65
2021-06-21 12:25:48.664062500,-44.25,15.0,44.0,79.34703125,-27.36,0.597223,238.65
2021-06-21 12:25:48.671875000,-44.5,15.0,44.0,79.34593749999999,-36.16,0.597223,238.65
2021-06-21 12:25:48.679687500,-44.75,15.0,44.0,79.34484375,-43.86,0.597223,238.65
2021-06-21 12:25:48.687500000,-45.0,15.0,44.0,79.34375,-51.56,0.597223,238.65
2021-06-21 12:25:48.695312500,-45.0,15.0,44.0,79.34265624999999,-57.510000000000005,0.597223,238.65
2021-06-21 12:25:48.703125000,-45.0,15.0,44.0,79.3415625,-63.46,0.597223,238.65
2021-06-21 12:25:48.710937500,-45.0,15.0,44.0,79.34046875,-67.6,0.597223,238.65
2021-06-21 12:25:48.718750000,-45.0,15.0,44.0,79.339375,-71.74,0.597223,238.65
2021-06-21 12:25:48.726562500,-45.0,15.0,44.0,79.33828125,-74.615,0.597223,238.65
2021-06-21 12:25:48.734375000,-45.0,15.0,44.0,79.3371875,-77.49,0.597223,238.65
2021-06-21 12:25:48.742187500,-45.0,15.0,44.0,79.33609375,-80.05,0.597223,238.65
2021-06-21 12:25:48.750000000,-45.0,15.0,44.0,79.335,-82.61,0.597223,238.65
2021-06-21 12:25:48.757812500,-45.0,15.0,44.0,79.33390625,-85.935,0.597062875,238.65
2021-06-21 12:25:48.765625000,-45.0,15.0,44.0,79.3328125,-89.26,0.5969027499999999,238.65
2021-06-21 12:25:48.773437500,-45.0,15.0,44.0,79.33171875,-94.235,0.596742625,238.65
2021-06-21 12:25:48.781250000,-45.0,15.0,44.0,79.330625,-99.21,0.5965825,238.65
2021-06-21 12:25:48.789062500,-45.0,15.0,44.0,79.32953125,-106.24,0.596422375,238.65
2021-06-21 12:25:48.796875000,-45.0,15.0,44.0,79.32843749999999,-113.27,0.59626225,238.65
2021-06-21 12:25:48.804687500,-45.0,15.0,44.0,79.32734375,-122.035,0.5961021249999999,238.65
2021-06-21 12:25:48.812500000,-45.0,15.0,44.0,79.32625,-130.8,0.595942,238.65
2021-06-21 12:25:48.820312500,-45.0,15.25,44.25,79.32515624999999,-140.10000000000002,0.595781875,238.65
2021-06-21 12:25:48.828125000,-45.0,15.5,44.5,79.3240625,-149.4,0.59562175,238.65
2021-06-21 12:25:48.835937500,-45.0,15.75,44.75,79.32296875,-157.255,0.595461625,238.65
2021-06-21 12:25:48.843750000,-45.0,16.0,45.0,79.32187499999999,-165.11,0.5953014999999999,238.65
2021-06-21 12:25:48.851562500,-45.0,15.75,44.75,79.32078125,-169.125,0.595141375,238.65
2021-06-21 12:25:48.859375000,-45.0,15.5,44.5,79.3196875,-173.14,0.59498125,238.65
2021-06-21 12:25:48.867187500,-45.0,15.25,44.25,79.31859374999999,-171.14499999999998,0.594821125,238.65
2021-06-21 12:25:48.875000000,-45.0,15.0,44.0,79.3175,-169.15,0.594661,238.65
2021-06-21 12:25:48.882812500,-45.0,15.0,44.0,79.31640625,-159.935,0.594500875,238.65
2021-06-21 12:25:48.890625000,-45.0,15.0,44.0,79.31531249999999,-150.72,0.59434075,238.65
2021-06-21 12:25:48.898437500,-45.0,15.0,44.0,79.31421875,-134.57,0.594180625,238.65
2021-06-21 12:25:48.906250000,-45.0,15.0,44.0,79.313125,-118.42,0.5940205000000001,238.65
2021-06-21 12:25:48.914062500,-45.0,15.0,44.0,79.31203125,-97.185,0.593860375,238.65
2021-06-21 12:25:48.921875000,-45.0,15.0,44.0,79.3109375,-75.95,0.59370025,238.65
2021-06-21 12:25:48.929687500,-45.0,15.0,44.0,79.30984375,-52.56,0.593540125,238.65
2021-06-21 12:25:48.937500000,-45.0,15.0,44.0,79.30875,-29.17,0.59338,238.65
2021-06-21 12:25:48.945312500,-45.0,15.0,44.0,79.30765625,-6.789999999999999,0.5932198750000001,238.65
2021-06-21 12:25:48.953125000,-45.0,15.0,44.0,79.3065625,15.59,0.59305975,238.65
2021-06-21 12:25:48.960937500,-45.0,15.0,44.0,79.30546875,34.400000000000006,0.592899625,238.65
2021-06-21 12:25:48.968750000,-45.0,15.0,44.0,79.304375,53.21,0.5927395,238.65
2021-06-21 12:25:48.976562500,-45.0,15.0,44.0,79.30328125,67.095,0.592579375,238.65
2021-06-21 12:25:48.984375000,-45.0,15.0,44.0,79.3021875,80.98,0.5924192500000001,238.65
2021-06-21 12:25:48.992187500,-45.0,15.0,44.0,79.30109374999999,89.815,0.592259125,238.65
2021-06-21 12:25:49.000000000,-45.0,15.0,44.0,79.3,98.65,0.592099,238.65
2021-06-21 12:25:49.007812500,-45.0,15.0,44.25,79.29906249999999,103.20500000000001,0.59221909375,238.65
2021-06-21 12:25:49.015625000,-45.0,15.0,44.5,79.298125,107.76,0.5923391875,238.65
2021-06-21 12:25:49.023437500,-45.0,15.0,44.75,79.29718749999999,109.215,0.59245928125,238.65
2021-06-21 12:25:49.031250000,-45.0,15.0,45.0,79.29625,110.67,0.592579375,238.65
2021-06-21 12:25:49.039062500,-45.0,15.0,44.75,79.2953125,110.11500000000001,0.59269946875,238.65
2021-06-21 12:25:49.046875000,-45.0,15.0,44.5,79.294375,109.56,0.5928195625,238.65
2021-06-21 12:25:49.054687500,-45.0,15.0,44.25,79.2934375,107.805,0.59293965625,238.65
2021-06-21 12:25:49.062500000,-45.0,15.0,44.0,79.2925,106.05,0.59305975,238.65
2021-06-21 12:25:49.070312500,-45.0,15.0,44.0,79.2915625,103.645,0.59317984375,238.65
2021-06-21 12:25:49.078125000,-45.0,15.0,44.0,79.29062499999999,101.24,0.5932999375,238.65
2021-06-21 12:25:49.085937500,-45.0,15.0,44.0,79.2896875,98.56,0.59342003125,238.65
2021-06-21 12:25:49.093750000,-45.0,15.0,44.0,79.28875,95.88,0.593540125,238.65
2021-06-21 12:25:49.101562500,-45.0,15.0,44.0,79.2878125,93.28999999999999,0.59366021875,238.65
2021-06-21 12:25:49.109375000,-45.0,15.0,44.0,79.286875,90.7,0.5937803125,238.65
2021-06-21 12:25:49.117187500,-45.0,15.0,44.0,79.2859375,88.53999999999999,0.59390040625,238.65
2021-06-21 12:25:49.125000000,-45.0,15.0,44.0,79.285,86.38,0.5940205000000001,238.65
2021-06-21 12:25:49.132812500,-45.0,15.0,44.0,79.2840625,84.905,0.5941405937500001,238.65
2021-06-21 12:25:49.140625000,-45.0,15.0,44.0,79.283125,83.43,0.5942606875,238.65
2021-06-21 12:25:49.148437500,-45.0,15.0,44.0,79.28218749999999,82.73500000000001,0.59438078125,238.65
2021-06-21 12:25:49.156250000,-45.0,15.0,44.0,79.28125,82.04,0.594500875,238.65
2021-06-21 12:25:49.164062500,-44.75,15.0,44.0,79.2803125,82.005,0.59462096875,238.65
2021-06-21 12:25:49.171875000,-44.5,15.0,44.0,79.279375,81.97,0.5947410625,238.65
2021-06-21 12:25:49.179687500,-44.25,15.0,44.0,79.2784375,82.295,0.59486115625,238.65
2021-06-21 12:25:49.187500000,-44.0,15.0,44.0,79.2775,82.62,0.59498125,238.65
2021-06-21 12:25:49.195312500,-44.0,15.0,44.0,79.2765625,82.965,0.59510134375,238.65
2021-06-21 12:25:49.203125000,-44.0,15.0,44.0,79.275625,83.31,0.5952214375,238.65
2021-06-21 12:25:49.210937500,-44.0,15.0,44.0,79.2746875,83.39500000000001,0.59534153125,238.65
2021-06-21 12:25:49.218750000,-44.0,15.0,44.0,79.27374999999999,83.48,0.595461625,238.65
2021-06-21 12:25:49.226562500,-44.5,15.25,44.0,79.2728125,83.12,0.59558171875,238.65
2021-06-21 12:25:49.234375000,-45.0,15.5,44.0,79.271875,82.76,0.5957018125,238.65
2021-06-21 12:25:49.242187500,-45.5,15.75,44.0,79.2709375,81.855,0.59582190625,238.65
2021-06-21 12:25:49.250000000,-46.0,16.0,44.0,79.27,80.95,0.595942,238.65
2021-06-21 12:25:49.257812500,-45.5,15.75,44.0,79.2690625,79.39500000000001,0.5957418437499999,238.65
2021-06-21 12:25:49.265625000,-45.0,15.5,44.0,79.268125,77.84,0.5955416874999999,238.65
2021-06-21 12:25:49.273437500,-44.5,15.25,44.0,79.2671875,75.47,0.59534153125,238.65
2021-06-21 12:25:49.281250000,-44.0,15.0,44.0,79.26625,73.1,0.595141375,238.65
2021-06-21 12:25:49.289062500,-44.25,15.0,44.0,79.2653125,69.74,0.59494121875,238.65
2021-06-21 12:25:49.296875000,-44.5,15.0,44.0,79.264375,66.38,0.5947410625,238.65
2021-06-21 12:25:49.304687500,-44.75,15.0,44.0,79.2634375,61.955,0.59454090625,238.65
2021-06-21 12:25:49.312500000,-45.0,15.0,44.0,79.2625,57.53,0.59434075,238.65
2021-06-21 12:25:49.320312500,-45.0,15.0,44.0,79.2615625,52.120000000000005,0.59414059375,238.65
2021-06-21 12:25:49.328125000,-45.0,15.0,44.0,79.260625,46.71,0.5939404374999999,238.65
2021-06-21 12:25:49.335937500,-45.0,15.0,44.0,79.2596875,40.64,0.59374028125,238.65
2021-06-21 12:25:49.343750000,-45.0,15.0,44.0,79.25875,34.57,0.593540125,238.65
2021-06-21 12:25:49.351562500,-45.0,15.0,44.0,79.2578125,28.25,0.59333996875,238.65
2021-06-21 12:25:49.359375000,-45.0,15.0,44.0,79.256875,21.93,0.5931398125,238.65
2021-06-21 12:25:49.367187500,-45.0,15.0,44.0,79.2559375,15.705,0.59293965625,238.65
2021-06-21 12:25:49.375000000,-45.0,15.0,44.0,79.255,9.48,0.5927395,238.65
2021-06-21 12:25:49.382812500,-45.0,15.0,44.0,79.2540625,3.505,0.59253934375,238.65
2021-06-21 12:25:49.390625000,-45.0,15.0,44.0,79.253125,-2.47,0.5923391874999999,238.65
2021-06-21 12:25:49.398437500,-45.0,15.0,44.0,79.2521875,-8.285,0.59213903125,238.65
2021-06-21 12:25:49.406250000,-45.0,15.0,44.0,79.25125,-14.1,0.591938875,238.65
2021-06-21 12:25:49.414062500,-45.0,15.0,44.0,79.2503125,-19.94,0.59173871875,238.65
2021-06-21 12:25:49.421875000,-45.0,15.0,44.0,79.249375,-25.78,0.5915385625,238.65
2021-06-21 12:25:49.429687500,-45.0,15.0,44.0,79.2484375,-31.745,0.59133840625,238.65
2021-06-21 12:25:49.437500000,-45.0,15.0,44.0,79.2475,-37.71,0.59113825,238.65
2021-06-21 12:25:49.445312500,-45.0,15.0,44.0,79.2465625,-43.685,0.59093809375,238.65
2021-06-21 12:25:49.453125000,-45.0,15.0,44.0,79.245625,-49.66,0.5907379374999999,238.65
2021-06-21 12:25:49.460937500,-45.0,15.0,44.0,79.2446875,-55.305,0.59053778125,238.65
2021-06-21 12:25:49.468750000,-45.0,15.0,44.0,79.24375,-60.95,0.590337625,238.65
2021-06-21 12:25:49.476562500,-45.0,15.0,44.0,79.2428125,-65.855,0.59013746875,238.65
2021-06-21 12:25:49.484375000,-45.0,15.0,44.0,79.24187500000001,-70.76,0.5899373125,238.65
2021-06-21 12:25:49.492187500,-45.0,15.0,44.0,79.2409375,-74.69,0.58973715625,238.65
2021-06-21 12:25:49.500000000,-45.0,15.0,44.0,79.24000000000001,-78.62,0.589537,238.65
2021-06-21 12:25:49.507812500,-45.0,15.0,44.0,79.2390625,-81.695,0.5896971249999999,238.65
2021-06-21 12:25:49.515625000,-45.0,15.0,44.0,79.238125,-84.77,0.58985725,238.65
2021-06-21 12:25:49.523437500,-45.0,15.0,44.0,79.2371875,-87.49,0.590017375,238.65
2021-06-21 12:25:49.531250000,-45.0,15.0,44.0,79.23625,-90.21,0.5901775,238.65
2021-06-21 12:25:49.539062500,-45.0,15.0,44.0,79.2353125,-93.375,0.590337625,238.65
2021-06-21 12:25:49.546875000,-45.0,15.0,44.0,79.234375,-96.54,0.5904977499999999,238.65
2021-06-21 12:25:49.554687500,-45.0,15.0,44.0,79.23343750000001,-101.025,0.590657875,238.65
2021-06-21 12:25:49.562500000,-45.0,15.0,44.0,79.2325,-105.51,0.590818,238.65
2021-06-21 12:25:49.570312500,-44.75,15.0,44.0,79.23156250000001,-111.985,0.590978125,238.65
2021-06-21 12:25:49.578125000,-44.5,15.0,44.0,79.230625,-118.46,0.59113825,238.65
2021-06-21 12:25:49.585937500,-44.25,15.0,44.0,79.2296875,-127.00999999999999,0.5912983749999999,238.65
2021-06-21 12:25:49.593750000,-44.0,15.0,44.0,79.22875,-135.56,0.5914585,238.65
2021-06-21 12:25:49.601562500,-44.25,15.0,44.0,79.2278125,-145.435,0.591618625,238.65
2021-06-21 12:25:49.609375000,-44.5,15.0,44.0,79.226875,-155.31,0.59177875,238.65
2021-06-21 12:25:49.617187500,-44.75,15.0,44.0,79.2259375,-164.76999999999998,0.591938875,238.65
2021-06-21 12:25:49.625000000,-45.0,15.0,44.0,79.22500000000001,-174.23,0.5920989999999999,238.65
2021-06-21 12:25:49.632812500,-45.0,15.0,44.0,79.2240625,-180.785,0.592259125,238.65
2021-06-21 12:25:49.640625000,-45.0,15.0,44.0,79.22312500000001,-187.34,0.59241925,238.65
2021-06-21 12:25:49.648437500,-45.0,15.0,44.0,79.2221875,-188.35000000000002,0.592579375,238.65
2021-06-21 12:25:49.656250000,-45.0,15.0,44.0,79.22125,-189.36,0.5927395,238.65
2021-06-21 12:25:49.664062500,-45.0,15.0,44.0,79.2203125,-182.895,0.592899625,238.65
2021-06-21 12:25:49.671875000,-45.0,15.0,44.0,79.219375,-176.43,0.59305975,238.65
2021-06-21 12:25:49.679687500,-45.0,15.0,44.0,79.21843750000001,-162.03,0.593219875,238.65
2021-06-21 12:25:49.687500000,-45.0,15.0,44.0,79.2175,-147.63,0.59338,238.65
2021-06-21 12:25:49.695312500,-45.0,15.0,44.0,79.21656250000001,-126.66,0.593540125,238.65
2021-06-21 12:25:49.703125000,-45.0,15.0,44.0,79.215625,-105.69,0.59370025,238.65
2021-06-21 12:25:49.710937500,-45.0,15.0,44.0,79.21468750000001,-81.02,0.593860375,238.65
2021-06-21 12:25:49.718750000,-45.0,15.0,44.0,79.21375,-56.35,0.5940205,238.65
2021-06-21 12:25:49.726562500,-45.0,15.0,44.0,79.2128125,-31.495,0.594180625,238.65
2021-06-21 12:25:49.734375000,-45.0,15.0,44.0,79.211875,-6.64,0.59434075,238.65
2021-06-21 12:25:49.742187500,-45.0,15.0,44.0,79.2109375,15.23,0.594500875,238.65
2021-06-21 12:25:49.750000000,-45.0,15.0,44.0,79.21000000000001,37.1,0.594661,238.65
2021-06-21 12:25:49.757812500,-45.0,15.0,44.25,79.2090625,54.03,0.5945809375,238.65
2021-06-21 12:25:49.765625000,-45.0,15.0,44.5,79.20812500000001,70.96,0.594500875,238.65
2021-06-21 12:25:49.773437500,-45.0,15.0,44.75,79.2071875,82.43,0.5944208125,238.65
2021-06-21 12:25:49.781250000,-45.0,15.0,45.0,79.20625000000001,93.9,0.59434075,238.65
2021-06-21 12:25:49.789062500,-44.75,15.0,44.75,79.2053125,100.55000000000001,0.5942606875,238.65
2021-06-21 12:25:49.796875000,-44.5,15.0,44.5,79.204375,107.2,0.594180625,238.65
2021-06-21 12:25:49.804687500,-44.25,15.0,44.25,79.2034375,110.28,0.5941005625,238.65
2021-06-21 12:25:49.812500000,-44.0,15.0,44.0,79.2025,113.36,0.5940205000000001,238.65
2021-06-21 12:25:49.820312500,-44.25,15.0,44.0,79.20156250000001,114.12,0.5939404375,238.65
2021-06-21 12:25:49.828125000,-44.5,15.0,44.0,79.200625,114.88,0.593860375,238.65
2021-06-21 12:25:49.835937500,-44.75,15.0,44.0,79.19968750000001,114.3,0.5937803125,238.65
2021-06-21 12:25:49.843750000,-45.0,15.0,44.0,79.19875,113.72,0.59370025,238.65
2021-06-21 12:25:49.851562500,-45.0,15.0,44.0,79.19781250000001,112.405,0.5936201875,238.65
2021-06-21 12:25:49.859375000,-45.0,15.0,44.0,79.196875,111.09,0.593540125,238.65
2021-06-21 12:25:49.867187500,-45.0,15.0,44.0,79.1959375,109.475,0.5934600625,238.65
2021-06-21 12:25:49.875000000,-45.0,15.0,44.0,79.19500000000001,107.86,0.59338,238.65
2021-06-21 12:25:49.882812500,-45.0,15.0,44.0,79.1940625,106.28,0.5932999375,238.65
2021-06-21 12:25:49.890625000,-45.0,15.0,44.0,79.19312500000001,104.7,0.5932198750000001,238.65
2021-06-21 12:25:49.898437500,-45.0,15.0,44.0,79.1921875,103.495,0.5931398125,238.65
2021-06-21 12:25:49.906250000,-45.0,15.0,44.0,79.19125000000001,102.29,0.59305975,238.65
2021-06-21 12:25:49.914062500,-45.0,15.0,44.0,79.1903125,101.67500000000001,0.5929796875000001,238.65
2021-06-21 12:25:49.921875000,-45.0,15.0,44.0,79.18937500000001,101.06,0.592899625,238.65
2021-06-21 12:25:49.929687500,-45.0,15.0,44.0,79.1884375,101.025,0.5928195625,238.65
2021-06-21 12:25:49.937500000,-45.0,15.0,44.0,79.1875,100.99,0.5927395,238.65
2021-06-21 12:25:49.945312500,-45.0,15.0,44.0,79.18656250000001,101.27,0.5926594375,238.65
2021-06-21 12:25:49.953125000,-45.0,15.0,44.0,79.185625,101.55,0.592579375,238.65
2021-06-21 12:25:49.960937500,-45.0,15.0,44.0,79.18468750000001,101.715,0.5924993125,238.65
2021-06-21 12:25:49.968750000,-45.0,15.0,44.0,79.18375,101.88,0.5924192500000001,238.65
2021-06-21 12:25:49.976562500,-45.0,15.0,44.0,79.18281250000001,101.55,0.5923391875,238.65
2021-06-21 12:25:49.984375000,-45.0,15.0,44.0,79.181875,101.22,0.592259125,238.65
2021-06-21 12:25:49.992187500,-45.0,15.0,44.0,79.18093750000001,100.245,0.5921790625000001,238.65
2021-06-21 12:25:50.000000000,-45.0,15.0,44.0,79.18,99.27,0.592099,238.65
2021-06-21 12:25:50.007812500,-44.75,15.0,44.0,79.17960937500001,97.84,0.5921790625000001,238.65
2021-06-21 12:25:50.015625000,-44.5,15.0,44.0,79.17921875,96.41,0.592259125,238.65
2021-06-21 12:25:50.023437500,-44.25,15.0,44.0,79.17882812500001,94.91499999999999,0.5923391875,238.65
2021-06-21 12:25:50.031250000,-44.0,15.0,44.0,79.1784375,93.42,0.5924192500000001,238.65
2021-06-21 12:25:50.039062500,-44.25,15.0,44.0,79.178046875,92.17,0.5924993125,238.65
2021-06-21 12:25:50.046875000,-44.5,15.0,44.0,79.17765625000001,90.92,0.592579375,238.65
2021-06-21 12:25:50.054687500,-44.75,15.0,44.0,79.177265625,89.91,0.5926594375,238.65
2021-06-21 12:25:50.062500000,-45.0,15.0,44.0,79.17687500000001,88.9,0.5927395,238.65
2021-06-21 12:25:50.070312500,-45.0,15.0,44.0,79.176484375,87.685,0.5928195625,238.65
2021-06-21 12:25:50.078125000,-45.0,15.0,44.0,79.17609375,86.47,0.592899625,238.65
2021-06-21 12:25:50.085937500,-45.0,15.0,44.0,79.17570312500001,84.35499999999999,0.5929796875000001,238.65
2021-06-21 12:25:50.093750000,-45.0,15.0,44.0,79.1753125,82.24,0.59305975,238.65
2021-06-21 12:25:50.101562500,-45.0,15.0,44.25,79.17492187500001,78.57,0.5931398125,238.65
2021-06-21 12:25:50.109375000,-45.0,15.0,44.5,79.17453125,74.9,0.5932198750000001,238.65
2021-06-21 12:25:50.117187500,-45.0,15.0,44.75,79.174140625,69.41,0.5932999375,238.65
2021-06-21 12:25:50.125000000,-45.0,15.0,45.0,79.17375000000001,63.92,0.59338,238.65
2021-06-21 12:25:50.132812500,-44.75,15.0,44.75,79.173359375,56.94,0.5934600625,238.65
2021-06-21 12:25:50.140625000,-44.5,15.0,44.5,79.17296875000001,49.96,0.593540125,238.65
2021-06-21 12:25:50.148437500,-44.25,15.0,44.25,79.172578125,42.28,0.5936201875,238.65
2021-06-21 12:25:50.156250000,-44.0,15.0,44.0,79.1721875,34.6,0.59370025,238.65
2021-06-21 12:25:50.164062500,-44.25,15.0,44.0,79.171796875,27.225,0.5937803125,238.65
2021-06-21 12:25:50.171875000,-44.5,15.0,44.0,79.17140625,19.85,0.593860375,238.65
2021-06-21 12:25:50.179687500,-44.75,15.0,44.0,79.17101562500001,13.585,0.5939404375,238.65
2021-06-21 12:25:50.187500000,-45.0,15.0,44.0,79.170625,7.32,0.5940205000000001,238.65
2021-06-21 12:25:50.195312500,-45.0,15.0,44.0,79.170234375,2.505,0.5941005625,238.65
2021-06-21 12:25:50.203125000,-45.0,15.0,44.0,79.16984375,-2.31,0.594180625,238.65
2021-06-21 12:25:50.210937500,-45.0,15.0,44.0,79.169453125,-5.92,0.5942606875,238.65
2021-06-21 12:25:50.218750000,-45.0,15.0,44.0,79.16906250000001,-9.53,0.59434075,238.65
2021-06-21 12:25:50.226562500,-44.75,15.0,44.25,79.168671875,-12.585,0.5944208125,238.65
2021-06-21 12:25:50.234375000,-44.5,15.0,44.5,79.16828125,-15.64,0.594500875,238.65
2021-06-21 12:25:50.242187500,-44.25,15.0,44.75,79.167890625,-18.955,0.5945809375,238.65
2021-06-21 12:25:50.250000000,-44.0,15.0,45.0,79.1675,-22.27,0.594661,238.65
2021-06-21 12:25:50.257812500,-44.25,15.0,44.75,79.16710937500001,-26.465,0.59454090625,238.65
2021-06-21 12:25:50.265625000,-44.5,15.0,44.5,79.16671875,-30.66,0.5944208125,238.65
2021-06-21 12:25:50.273437500,-44.75,15.0,44.25,79.166328125,-35.945,0.59430071875,238.65
2021-06-21 12:25:50.281250000,-45.0,15.0,44.0,79.1659375,-41.23,0.594180625,238.65
2021-06-21 12:25:50.289062500,-45.0,15.0,44.0,79.165546875,-47.31999999999999,0.59406053125,238.65
2021-06-21 12:25:50.296875000,-45.0,15.0,44.0,79.16515625000001,-53.41,0.5939404375,238.65
2021-06-21 12:25:50.304687500,-45.0,15.0,44.0,79.164765625,-59.655,0.59382034375,238.65
2021-06-21 12:25:50.312500000,-45.0,15.0,44.0,79.164375,-65.9,0.5937002499999999,238.65
2021-06-21 12:25:50.320312500,-45.0,15.0,44.0,79.163984375,-71.57,0.5935801562499999,238.65
2021-06-21 12:25:50.328125000,-45.0,15.0,44.0,79.16359375,-77.24,0.5934600624999999,238.65
2021-06-21 12:25:50.335937500,-45.0,15.0,44.0,79.16320312500001,-81.805,0.59333996875,238.65
2021-06-21 12:25:50.343750000,-45.0,15.0,44.0,79.1628125,-86.37,0.593219875,238.65
2021-06-21 12:25:50.351562500,-44.75,15.0,44.0,79.162421875,-89.765,0.59309978125,238.65
2021-06-21 12:25:50.359375000,-44.5,15.0,44.0,79.16203125,-93.16,0.5929796875,238.65
2021-06-21 12:25:50.367187500,-44.25,15.0,44.0,79.161640625,-95.86,0.59285959375,238.65
2021-06-21 12:25:50.375000000,-44.0,15.0,44.0,79.16125,-98.56,0.5927395,238.65
2021-06-21 12:25:50.382812500,-44.0,15.0,44.0,79.160859375,-101.49000000000001,0.59261940625,238.65
2021-06-21 12:25:50.390625000,-44.0,15.0,44.0,79.16046875,-104.42,0.5924993125,238.65
2021-06-21 12:25:50.398437500,-44.0,15.0,44.0,79.160078125,-108.705,0.59237921875,238.65
2021-06-21 12:25:50.406250000,-44.0,15.0,44.0,79.1596875,-112.99,0.592259125,238.65
2021-06-21 12:25:50.414062500,-44.25,15.0,44.0,79.159296875,-119.50999999999999,0.59213903125,238.65
2021-06-21 12:25:50.421875000,-44.5,15.0,44.0,79.15890625,-126.03,0.5920189375,238.65
2021-06-21 12:25:50.429687500,-44.75,15.0,44.0,79.158515625,-134.995,0.59189884375,238.65
2021-06-21 12:25:50.437500000,-45.0,15.0,44.0,79.158125,-143.96,0.59177875,238.65
2021-06-21 12:25:50.445312500,-45.0,15.0,44.25,79.157734375,-154.56,0.5916586562499999,238.65
2021-06-21 12:25:50.453125000,-45.0,15.0,44.5,79.15734375,-165.16,0.5915385624999999,238.65
2021-06-21 12:25:50.460937500,-45.0,15.0,44.75,79.156953125,-175.445,0.5914184687499999,238.65
2021-06-21 12:25:50.468750000,-45.0,15.0,45.0,79.1565625,-185.73,0.5912983749999999,238.65
2021-06-21 12:25:50.476562500,-44.75,15.0,45.0,79.156171875,-192.97,0.5911782812499999,238.65
2021-06-21 12:25:50.484375000,-44.5,15.0,45.0,79.15578125,-200.21,0.5910581874999999,238.65
2021-06-21 12:25:50.492187500,-44.25,15.0,45.0,79.155390625,-201.595,0.59093809375,238.65
2021-06-21 12:25:50.500000000,-44.0,15.0,45.0,79.155,-202.98,0.590818,238.65
2021-06-21 12:25:50.507812500,-44.25,15.0,44.75,79.154609375,-196.52499999999998,0.5908580312499999,238.65
2021-06-21 12:25:50.515625000,-44.5,15.0,44.5,79.15421875,-190.07,0.5908980625,238.65
2021-06-21 12:25:50.523437500,-44.75,15.0,44.25,79.153828125,-175.38,0.59093809375,238.65
2021-06-21 12:25:50.531250000,-45.0,15.0,44.0,79.1534375,-160.69,0.5909781249999999,238.65
2021-06-21 12:25:50.539062500,-45.0,15.0,44.25,79.153046875,-139.245,0.59101815625,238.65
2021-06-21 12:25:50.546875000,-45.0,15.0,44.5,79.15265625,-117.8,0.5910581874999999,238.65
2021-06-21 12:25:50.554687500,-45.0,15.0,44.75,79.152265625,-92.58,0.59109821875,238.65
2021-06-21 12:25:50.562500000,-45.0,15.0,45.0,79.151875,-67.36,0.59113825,238.65
2021-06-21 12:25:50.570312500,-44.75,15.0,44.75,79.151484375,-41.965,0.5911782812499999,238.65
2021-06-21 12:25:50.578125000,-44.5,15.0,44.5,79.15109375,-16.57,0.5912183125,238.65
2021-06-21 12:25:50.585937500,-44.25,15.0,44.25,79.150703125,5.814999999999998,0.59125834375,238.65
2021-06-21 12:25:50.593750000,-44.0,15.0,44.0,79.1503125,28.2,0.591298375,238.65
2021-06-21 12:25:50.601562500,-44.25,15.0,44.0,79.149921875,45.595,0.59133840625,238.65
2021-06-21 12:25:50.609375000,-44.5,15.0,44.0,79.14953125,62.99,0.5913784375,238.65
2021-06-21 12:25:50.617187500,-44.75,15.0,44.0,79.149140625,74.885,0.59141846875,238.65
2021-06-21 12:25:50.625000000,-45.0,15.0,44.0,79.14875,86.78,0.5914585,238.65
2021-06-21 12:25:50.632812500,-45.0,15.0,44.25,79.148359375,93.81,0.59149853125,238.65
2021-06-21 12:25:50.640625000,-45.0,15.0,44.5,79.14796875,100.84,0.5915385625,238.65
2021-06-21 12:25:50.648437500,-45.0,15.0,44.75,79.147578125,104.205,0.59157859375,238.65
2021-06-21 12:25:50.656250000,-45.0,15.0,45.0,79.1471875,107.57,0.591618625,238.65
2021-06-21 12:25:50.664062500,-45.0,15.0,45.0,79.14679687499999,108.47999999999999,0.59165865625,238.65
2021-06-21 12:25:50.671875000,-45.0,15.0,45.0,79.14640625,109.39,0.5916986875,238.65
2021-06-21 12:25:50.679687500,-45.0,15.0,45.0,79.146015625,108.745,0.5917387187500001,238.65
2021-06-21 12:25:50.687500000,-45.0,15.0,45.0,79.145625,108.1,0.59177875,238.65
2021-06-21 12:25:50.695312500,-44.75,15.0,44.75,79.145234375,106.535,0.59181878125,238.65
2021-06-21 12:25:50.703125000,-44.5,15.0,44.5,79.14484374999999,104.97,0.5918588125,238.65
2021-06-21 12:25:50.710937500,-44.25,15.0,44.25,79.144453125,102.985,0.59189884375,238.65
2021-06-21 12:25:50.718750000,-44.0,15.0,44.0,79.1440625,101.0,0.5919388750000001,238.65
2021-06-21 12:25:50.726562500,-44.25,15.0,44.0,79.143671875,99.11,0.59197890625,238.65
2021-06-21 12:25:50.734375000,-44.5,15.0,44.0,79.14328125,97.22,0.5920189375,238.65
2021-06-21 12:25:50.742187500,-44.75,15.0,44.0,79.14289062499999,95.9,0.5920589687500001,238.65
2021-06-21 12:25:50.750000000,-45.0,15.0,44.0,79.1425,94.58,0.592099,238.65
2021-06-21 12:25:50.757812500,-45.0,15.0,44.25,79.142109375,94.13,0.5920589687500001,238.65
2021-06-21 12:25:50.765625000,-45.0,15.0,44.5,79.14171875,93.68,0.5920189375,238.65
2021-06-21 12:25:50.773437500,-45.0,15.0,44.75,79.141328125,94.07,0.59197890625,238.65
2021-06-21 12:25:50.781250000,-45.0,15.0,45.0,79.14093749999999,94.46,0.5919388750000001,238.65
2021-06-21 12:25:50.789062500,-45.0,15.0,45.0,79.140546875,95.315,0.59189884375,238.65
2021-06-21 12:25:50.796875000,-45.0,15.0,45.0,79.14015625,96.17,0.5918588125,238.65
2021-06-21 12:25:50.804687500,-45.0,15.0,45.0,79.139765625,96.95,0.59181878125,238.65
2021-06-21 12:25:50.812500000,-45.0,15.0,45.0,79.139375,97.73,0.59177875,238.65
2021-06-21 12:25:50.820312500,-45.0,15.0,44.75,79.13898437499999,97.975,0.5917387187500001,238.65
2021-06-21 12:25:50.828125000,-45.0,15.0,44.5,79.13859375,98.22,0.5916986875,238.65
2021-06-21 12:25:50.835937500,-45.0,15.0,44.25,79.138203125,97.735,0.59165865625,238.65
2021-06-21 12:25:50.843750000,-45.0,15.0,44.0,79.1378125,97.25,0.591618625,238.65
2021-06-21 12:25:50.851562500,-45.0,15.0,44.0,79.137421875,96.16,0.59157859375,238.65
2021-06-21 12:25:50.859375000,-45.0,15.0,44.0,79.13703124999999,95.07,0.5915385625,238.65
2021-06-21 12:25:50.867187500,-45.0,15.0,44.0,79.136640625,93.69999999999999,0.59149853125,238.65
2021-06-21 12:25:50.875000000,-45.0,15.0,44.0,79.13624999999999,92.33,0.5914585,238.65
2021-06-21 12:25:50.882812500,-45.0,15.0,44.25,79.135859375,90.94,0.59141846875,238.65
2021-06-21 12:25:50.890625000,-45.0,15.0,44.5,79.13546875,89.55,0.5913784375,238.65
2021-06-21 12:25:50.898437500,-45.0,15.0,44.75,79.13507812499999,88.21000000000001,0.59133840625,238.65
2021-06-21 12:25:50.906250000,-45.0,15.0,45.0,79.1346875,86.87,0.591298375,238.65
2021-06-21 12:25:50.914062500,-45.0,15.0,44.75,79.13429687499999,85.385,0.59125834375,238.65
2021-06-21 12:25:50.921875000,-45.0,15.0,44.5,79.13390625,83.9,0.5912183125,238.65
2021-06-21 12:25:50.929687500,-45.0,15.0,44.25,79.133515625,81.9,0.5911782812499999,238.65
2021-06-21 12:25:50.937500000,-45.0,15.0,44.0,79.13312499999999,79.9,0.59113825,238.65
2021-06-21 12:25:50.945312500,-45.0,15.0,44.0,79.132734375,76.985,0.59109821875,238.65
2021-06-21 12:25:50.953125000,-45.0,15.0,44.0,79.13234374999999,74.07,0.5910581874999999,238.65
2021-06-21 12:25:50.960937500,-45.0,15.0,44.0,79.131953125,69.965,0.59101815625,238.65
2021-06-21 12:25:50.968750000,-45.0,15.0,44.0,79.1315625,65.86,0.5909781249999999,238.65
2021-06-21 12:25:50.976562500,-45.0,15.0,44.25,79.13117187499999,60.54,0.59093809375,238.65
2021-06-21 12:25:50.984375000,-45.0,15.0,44.5,79.13078125,55.22,0.5908980625,238.65
2021-06-21 12:25:50.992187500,-45.0,15.0,44.75,79.13039062499999,48.96,0.5908580312499999,238.65
2021-06-21 12:25:51.000000000,-45.0,15.0,45.0,79.13,42.7,0.590818,238.65
2021-06-21 12:25:51.007812500,-45.0,15.0,45.0,79.129921875,36.035000000000004,0.5908580312499999,238.65
2021-06-21 12:25:51.015625000,-45.0,15.0,45.0,79.12984374999999,29.37,0.5908980625,238.65
2021-06-21 12:25:51.023437500,-45.0,15.0,45.0,79.12976562499999,23.005000000000003,0.59093809375,238.65
2021-06-21 12:25:51.031250000,-45.0,15.0,45.0,79.12968749999999,16.64,0.5909781249999999,238.65
2021-06-21 12:25:51.039062500,-44.75,15.0,44.75,79.129609375,11.195,0.59101815625,238.65
2021-06-21 12:25:51.046875000,-44.5,15.0,44.5,79.12953125,5.75,0.5910581874999999,238.65
2021-06-21 12:25:51.054687500,-44.25,15.0,44.25,79.129453125,1.5600000000000005,0.59109821875,238.65
2021-06-21 12:25:51.062500000,-44.0,15.0,44.0,79.129375,-2.63,0.59113825,238.65
2021-06-21 12:25:51.070312500,-44.25,15.0,44.0,79.129296875,-5.6850000000000005,0.5911782812499999,238.65
2021-06-21 12:25:51.078125000,-44.5,15.0,44.0,79.12921874999999,-8.74,0.5912183125,238.65
2021-06-21 12:25:51.085937500,-44.75,15.0,44.0,79.12914062499999,-11.235,0.59125834375,238.65
2021-06-21 12:25:51.093750000,-45.0,15.0,44.0,79.1290625,-13.73,0.591298375,238.65
2021-06-21 12:25:51.101562500,-45.0,15.0,44.25,79.128984375,-16.450000000000003,0.59133840625,238.65
2021-06-21 12:25:51.109375000,-45.0,15.0,44.5,79.12890625,-19.17,0.5913784375,238.65
2021-06-21 12:25:51.117187500,-45.0,15.0,44.75,79.128828125,-22.795,0.59141846875,238.65
2021-06-21 12:25:51.125000000,-45.0,15.0,45.0,79.12875,-26.42,0.5914585,238.65
2021-06-21 12:25:51.132812500,-44.75,15.0,45.0,79.128671875,-31.150000000000002,0.59149853125,238.65
2021-06-21 12:25:51.140625000,-44.5,15.0,45.0,79.12859375,-35.88,0.5915385625,238.65
2021-06-21 12:25:51.148437500,-44.25,15.0,45.0,79.12851562499999,-41.400000000000006,0.59157859375,238.65
2021-06-21 12:25:51.156250000,-44.0,15.0,45.0,79.12843749999999,-46.92,0.591618625,238.65
2021-06-21 12:25:51.164062500,-44.25,15.0,45.0,79.128359375,-52.53,0.59165865625,238.65
2021-06-21 12:25:51.171875000,-44.5,15.0,45.0,79.12828125,-58.14,0.5916986875,238.65
2021-06-21 12:25:51.179687500,-44.75,15.0,45.0,79.128203125,-63.105,0.5917387187500001,238.65
2021-06-21 12:25:51.187500000,-45.0,15.0,45.0,79.128125,-68.07,0.59177875,238.65
2021-06-21 12:25:51.195312500,-45.0,15.0,44.75,79.128046875,-72.01499999999999,0.59181878125,238.65
2021-06-21 12:25:51.203125000,-45.0,15.0,44.5,79.12796875,-75.96,0.5918588125,238.65
2021-06-21 12:25:51.210937500,-45.0,15.0,44.25,79.12789062499999,-79.06,0.59189884375,238.65
2021-06-21 12:25:51.218750000,-45.0,15.0,44.0,79.1278125,-82.16,0.5919388750000001,238.65
2021-06-21 12:25:51.226562500,-45.0,15.0,44.25,79.127734375,-85.08500000000001,0.59197890625,238.65
2021-06-21 12:25:51.234375000,-45.0,15.0,44.5,79.12765625,-88.01,0.5920189375,238.65
2021-06-21 12:25:51.242187500,-45.0,15.0,44.75,79.127578125,-91.70500000000001,0.5920589687500001,238.65
2021-06-21 12:25:51.250000000,-45.0,15.0,45.0,79.1275,-95.4,0.592099,238.65
2021-06-21 12:25:51.257812500,-44.75,15.0,44.75,79.127421875,-100.74000000000001,0.59213903125,238.65
2021-06-21 12:25:51.265625000,-44.5,15.0,44.5,79.12734375,-106.08,0.5921790625000001,238.65
2021-06-21 12:25:51.273437500,-44.25,15.0,44.25,79.12726562499999,-113.57,0.59221909375,238.65
2021-06-21 12:25:51.281250000,-44.0,15.0,44.0,79.12718749999999,-121.06,0.592259125,238.65
2021-06-21 12:25:51.289062500,-44.25,15.0,44.0,79.127109375,-130.61,0.5922991562500001,238.65
2021-06-21 12:25:51.296875000,-44.5,15.0,44.0,79.12703125,-140.16,0.5923391875,238.65
2021-06-21 12:25:51.304687500,-44.75,15.0,44.0,79.126953125,-150.89499999999998,0.59237921875,238.65
2021-06-21 12:25:51.312500000,-45.0,15.0,44.0,79.126875,-161.63,0.5924192500000001,238.65
2021-06-21 12:25:51.320312500,-45.0,15.0,44.25,79.126796875,-171.85,0.59245928125,238.65
2021-06-21 12:25:51.328125000,-45.0,15.0,44.5,79.12671875,-182.07,0.5924993125,238.65
2021-06-21 12:25:51.335937500,-45.0,15.0,44.75,79.126640625,-189.435,0.5925393437500001,238.65
2021-06-21 12:25:51.343750000,-45.0,15.0,45.0,79.1265625,-196.8,0.592579375,238.65
2021-06-21 12:25:51.351562500,-45.0,15.0,45.0,79.126484375,-198.775,0.59261940625,238.65
2021-06-21 12:25:51.359375000,-45.0,15.0,45.0,79.12640625,-200.75,0.5926594375,238.65
2021-06-21 12:25:51.367187500,-45.0,15.0,45.0,79.126328125,-195.34,0.59269946875,238.65
2021-06-21 12:25:51.375000000,-45.0,15.0,45.0,79.12625,-189.93,0.5927395,238.65
2021-06-21 12:25:51.382812500,-44.75,15.0,44.75,79.126171875,-176.435,0.59277953125,238.65
2021-06-21 12:25:51.390625000,-44.5,15.0,44.5,79.12609375,-162.94,0.5928195625,238.65
2021-06-21 12:25:51.398437500,-44.25,15.0,44.25,79.126015625,-142.39,0.5928595937500001,238.65
2021-06-21 12:25:51.406250000,-44.0,15.0,44.0,79.12593749999999,-121.84,0.592899625,238.65
2021-06-21 12:25:51.414062500,-44.25,15.0,44.0,79.125859375,-96.89,0.59293965625,238.65
2021-06-21 12:25:51.421875000,-44.5,15.0,44.0,79.12578125,-71.94,0.5929796875000001,238.65
2021-06-21 12:25:51.429687500,-44.75,15.0,44.0,79.125703125,-46.16,0.59301971875,238.65
2021-06-21 12:25:51.437500000,-45.0,15.0,44.0,79.125625,-20.38,0.59305975,238.65
2021-06-21 12:25:51.445312500,-45.0,15.0,44.25,79.125546875,2.775000000000002,0.5930997812500001,238.65
2021-06-21 12:25:51.453125000,-45.0,15.0,44.5,79.12546875,25.93,0.5931398125,238.65
2021-06-21 12:25:51.460937500,-45.0,15.0,44.75,79.125390625,44.06,0.59317984375,238.65
2021-06-21 12:25:51.468750000,-45.0,15.0,45.0,79.1253125,62.19,0.5932198750000001,238.65
2021-06-21 12:25:51.476562500,-44.75,15.0,45.0,79.125234375,74.44,0.59325990625,238.65
2021-06-21 12:25:51.484375000,-44.5,15.0,45.0,79.12515625,86.69,0.5932999375,238.65
2021-06-21 12:25:51.492187500,-44.25,15.0,45.0,79.125078125,93.595,0.5933399687500001,238.65
2021-06-21 12:25:51.500000000,-44.0,15.0,45.0,79.125,100.5,0.59338,238.65
2021-06-21 12:25:51.507812500,-44.25,15.0,44.75,79.124921875,103.39,0.5930997812500001,238.65
2021-06-21 12:25:51.515625000,-44.5,15.0,44.5,79.12484375,106.28,0.5928195625,238.65
2021-06-21 12:25:51.523437500,-44.75,15.0,44.25,79.124765625,106.58,0.5925393437500001,238.65
2021-06-21 12:25:51.531250000,-45.0,15.0,44.0,79.1246875,106.88,0.592259125,238.65
2021-06-21 12:25:51.539062500,-45.0,15.0,44.0,79.124609375,105.68,0.59197890625,238.65
2021-06-21 12:25:51.546875000,-45.0,15.0,44.0,79.12453125,104.48,0.5916986875,238.65
2021-06-21 12:25:51.554687500,-45.0,15.0,44.0,79.124453125,102.41,0.59141846875,238.65
2021-06-21 12:25:51.562500000,-45.0,15.0,44.0,79.124375,100.34,0.59113825,238.65
2021-06-21 12:25:51.570312500,-45.0,15.0,44.25,79.124296875,97.81,0.59085803125,238.65
2021-06-21 12:25:51.578125000,-45.0,15.0,44.5,79.12421875,95.28,0.5905778125,238.65
2021-06-21 12:25:51.585937500,-45.0,15.0,44.75,79.124140625,92.705,0.59029759375,238.65
2021-06-21 12:25:51.593750000,-45.0,15.0,45.0,79.12406250000001,90.13,0.590017375,238.65
2021-06-21 12:25:51.601562500,-44.75,15.0,44.75,79.123984375,88.0,0.58973715625,238.65
2021-06-21 12:25:51.609375000,-44.5,15.0,44.5,79.12390625,85.87,0.5894569374999999,238.65
2021-06-21 12:25:51.617187500,-44.25,15.0,44.25,79.123828125,84.61,0.58917671875,238.65
2021-06-21 12:25:51.625000000,-44.0,15.0,44.0,79.12375,83.35,0.5888964999999999,238.65
2021-06-21 12:25:51.632812500,-44.25,15.0,44.0,79.123671875,83.125,0.58861628125,238.65
2021-06-21 12:25:51.640625000,-44.5,15.0,44.0,79.12359375,82.9,0.5883360625,238.65
2021-06-21 12:25:51.648437500,-44.75,15.0,44.0,79.123515625,83.48,0.58805584375,238.65
2021-06-21 12:25:51.656250000,-45.0,15.0,44.0,79.1234375,84.06,0.587775625,238.65
2021-06-21 12:25:51.664062500,-45.0,15.0,44.0,79.123359375,84.89500000000001,0.58749540625,238.65
2021-06-21 12:25:51.671875000,-45.0,15.0,44.0,79.12328125,85.73,0.5872151875,238.65
2021-06-21 12:25:51.679687500,-45.0,15.0,44.0,79.123203125,86.265,0.58693496875,238.65
2021-06-21 12:25:51.687500000,-45.0,15.0,44.0,79.123125,86.8,0.58665475,238.65
2021-06-21 12:25:51.695312500,-45.0,15.0,44.0,79.123046875,86.735,0.5863745312499999,238.65
2021-06-21 12:25:51.703125000,-45.0,15.0,44.0,79.12296875,86.67,0.5860943125,238.65
2021-06-21 12:25:51.710937500,-45.0,15.0,44.0,79.122890625,86.075,0.5858140937499999,238.65
2021-06-21 12:25:51.718750000,-45.0,15.0,44.0,79.12281250000001,85.48,0.585533875,238.65
2021-06-21 12:25:51.726562500,-45.0,15.0,44.0,79.12273437500001,84.65,0.5852536562499999,238.65
2021-06-21 12:25:51.734375000,-45.0,15.0,44.0,79.12265625,83.82,0.5849734375,238.65
2021-06-21 12:25:51.742187500,-45.0,15.0,44.0,79.122578125,82.965,0.5846932187499999,238.65
2021-06-21 12:25:51.750000000,-45.0,15.0,44.0,79.1225,82.11,0.584413,238.65
2021-06-21 12:25:51.757812500,-45.0,15.0,44.0,79.122421875,81.125,0.5845731249999999,238.65
2021-06-21 12:25:51.765625000,-45.0,15.0,44.0,79.12234375,80.14,0.58473325,238.65
2021-06-21 12:25:51.773437500,-45.0,15.0,44.0,79.122265625,78.545,0.5848933749999999,238.65
2021-06-21 12:25:51.781250000,-45.0,15.0,44.0,79.1221875,76.95,0.5850535,238.65
2021-06-21 12:25:51.789062500,-45.0,15.0,44.25,79.12210937500001,74.155,0.585213625,238.65
2021-06-21 12:25:51.796875000,-45.0,15.0,44.5,79.12203125,71.36,0.5853737499999999,238.65
2021-06-21 12:25:51.804687500,-45.0,15.0,44.75,79.121953125,67.02,0.585533875,238.65
2021-06-21 12:25:51.812500000,-45.0,15.0,45.0,79.121875,62.68,0.5856939999999999,238.65
2021-06-21 12:25:51.820312500,-44.75,15.0,44.75,79.121796875,56.92,0.585854125,238.65
2021-06-21 12:25:51.828125000,-44.5,15.0,44.5,79.12171875,51.16,0.58601425,238.65
2021-06-21 12:25:51.835937500,-44.25,15.0,44.25,79.121640625,44.59,0.5861743749999999,238.65
2021-06-21 12:25:51.843750000,-44.0,15.0,44.0,79.12156250000001,38.02,0.5863345,238.65
2021-06-21 12:25:51.851562500,-44.25,15.0,44.0,79.12148437500001,31.46,0.5864946249999999,238.65
2021-06-21 12:25:51.859375000,-44.5,15.0,44.0,79.12140625,24.9,0.58665475,238.65
2021-06-21 12:25:51.867187500,-44.75,15.0,44.0,79.121328125,18.98,0.586814875,238.65
2021-06-21 12:25:51.875000000,-45.0,15.0,44.0,79.12125,13.06,0.586975,238.65
2021-06-21 12:25:51.882812500,-45.0,15.0,44.0,79.121171875,7.995,0.587135125,238.65
2021-06-21 12:25:51.890625000,-45.0,15.0,44.0,79.12109375,2.93,0.5872952499999999,238.65
2021-06-21 12:25:51.898437500,-45.0,15.0,44.0,79.121015625,-1.5550000000000002,0.587455375,238.65
2021-06-21 12:25:51.906250000,-45.0,15.0,44.0,79.1209375,-6.04,0.5876155,238.65
2021-06-21 12:25:51.914062500,-45.0,15.0,44.0,79.12085937500001,-10.465,0.587775625,238.65
2021-06-21 12:25:51.921875000,-45.0,15.0,44.0,79.12078125000001,-14.89,0.58793575,238.65
2021-06-21 12:25:51.929687500,-45.0,15.0,44.0,79.120703125,-19.700000000000003,0.5880958749999999,238.65
2021-06-21 12:25:51.937500000,-45.0,15.0,44.0,79.120625,-24.51,0.588256,238.65
2021-06-21 12:25:51.945312500,-45.0,15.0,44.0,79.120546875,-29.814999999999998,0.588416125,238.65
2021-06-21 12:25:51.953125000,-45.0,15.0,44.0,79.12046875,-35.12,0.58857625,238.65
2021-06-21 12:25:51.960937500,-45.0,15.0,44.0,79.120390625,-40.675,0.588736375,238.65
2021-06-21 12:25:51.968750000,-45.0,15.0,44.0,79.12031250000001,-46.23,0.5888964999999999,238.65
2021-06-21 12:25:51.976562500,-45.0,15.0,44.0,79.12023437500001,-51.54,0.589056625,238.65
2021-06-21 12:25:51.984375000,-45.0,15.0,44.0,79.12015625000001,-56.85,0.58921675,238.65
2021-06-21 12:25:51.992187500,-45.0,15.0,44.0,79.120078125,-61.45,0.589376875,238.65
2021-06-21 12:25:52.000000000,-45.0,15.0,44.0,79.12,-66.05,0.589537,238.65
2021-06-21 12:25:52.007812500,-45.0,15.0,44.0,79.11960937500001,-69.725,0.58949696875,238.65
2021-06-21 12:25:52.015625000,-45.0,15.0,44.0,79.11921875,-73.4,0.5894569374999999,238.65
2021-06-21 12:25:52.023437500,-45.0,15.0,44.0,79.11882812500001,-76.265,0.58941690625,238.65
2021-06-21 12:25:52.031250000,-45.0,15.0,44.0,79.1184375,-79.13,0.589376875,238.65
2021-06-21 12:25:52.039062500,-44.75,15.0,44.0,79.118046875,-81.6,0.58933684375,238.65
2021-06-21 12:25:52.046875000,-44.5,15.0,44.0,79.11765625000001,-84.07,0.5892968125,238.65
2021-06-21 12:25:52.054687500,-44.25,15.0,44.0,79.117265625,-86.77,0.58925678125,238.65
2021-06-21 12:25:52.062500000,-44.0,15.0,44.0,79.11687500000001,-89.47,0.58921675,238.65
2021-06-21 12:25:52.070312500,-44.25,15.0,44.0,79.116484375,-93.13,0.58917671875,238.65
2021-06-21 12:25:52.078125000,-44.5,15.0,44.0,79.11609375,-96.79,0.5891366875,238.65
2021-06-21 12:25:52.085937500,-44.75,15.0,44.0,79.11570312500001,-102.09,0.58909665625,238.65
2021-06-21 12:25:52.093750000,-45.0,15.0,44.0,79.1153125,-107.39,0.589056625,238.65
2021-06-21 12:25:52.101562500,-45.25,15.0,44.0,79.11492187500001,-114.67,0.58901659375,238.65
2021-06-21 12:25:52.109375000,-45.5,15.0,44.0,79.11453125,-121.95,0.5889765625,238.65
2021-06-21 12:25:52.117187500,-45.75,15.0,44.0,79.114140625,-130.875,0.58893653125,238.65
2021-06-21 12:25:52.125000000,-46.0,15.0,44.0,79.11375000000001,-139.8,0.5888964999999999,238.65
2021-06-21 12:25:52.132812500,-45.75,15.0,44.0,79.113359375,-149.075,0.58885646875,238.65
2021-06-21 12:25:52.140625000,-45.5,15.0,44.0,79.11296875000001,-158.35,0.5888164375,238.65
2021-06-21 12:25:52.148437500,-45.25,15.0,44.0,79.112578125,-165.74,0.5887764062499999,238.65
2021-06-21 12:25:52.156250000,-45.0,15.0,44.0,79.1121875,-173.13,0.588736375,238.65
2021-06-21 12:25:52.164062500,-44.75,15.0,44.0,79.111796875,-175.925,0.58869634375,238.65
2021-06-21 12:25:52.171875000,-44.5,15.0,44.0,79.11140625,-178.72,0.5886563125,238.65
2021-06-21 12:25:52.179687500,-44.25,15.0,44.0,79.11101562500001,-174.62,0.58861628125,238.65
2021-06-21 12:25:52.187500000,-44.0,15.0,44.0,79.110625,-170.52,0.58857625,238.65
2021-06-21 12:25:52.195312500,-44.25,15.0,44.0,79.110234375,-158.525,0.58853621875,238.65
2021-06-21 12:25:52.203125000,-44.5,15.0,44.0,79.10984375,-146.53,0.5884961875,238.65
2021-06-21 12:25:52.210937500,-44.75,15.0,44.0,79.109453125,-127.52000000000001,0.58845615625,238.65
2021-06-21 12:25:52.218750000,-45.0,15.0,44.0,79.10906250000001,-108.51,0.588416125,238.65
2021-06-21 12:25:52.226562500,-45.25,15.0,44.0,79.108671875,-85.095,0.58837609375,238.65
2021-06-21 12:25:52.234375000,-45.5,15.0,44.0,79.10828125,-61.68,0.5883360625,238.65
2021-06-21 12:25:52.242187500,-45.75,15.0,44.0,79.107890625,-37.41,0.58829603125,238.65
2021-06-21 12:25:52.250000000,-46.0,15.0,44.0,79.1075,-13.14,0.588256,238.65
2021-06-21 12:25:52.257812500,-45.75,15.0,44.0,79.10710937500001,8.615000000000002,0.58821596875,238.65
2021-06-21 12:25:52.265625000,-45.5,15.0,44.0,79.10671875,30.37,0.5881759375,238.65
2021-06-21 12:25:52.273437500,-45.25,15.0,44.0,79.106328125,47.33,0.58813590625,238.65
2021-06-21 12:25:52.281250000,-45.0,15.0,44.0,79.1059375,64.29,0.588095875,238.65
2021-06-21 12:25:52.289062500,-45.0,15.0,44.0,79.105546875,75.665,0.58805584375,238.65
2021-06-21 12:25:52.296875000,-45.0,15.0,44.0,79.10515625000001,87.04,0.5880158125,238.65
2021-06-21 12:25:52.304687500,-45.0,15.0,44.0,79.104765625,93.30000000000001,0.58797578125,238.65
2021-06-21 12:25:52.312500000,-45.0,15.0,44.0,79.104375,99.56,0.58793575,238.65
2021-06-21 12:25:52.320312500,-45.25,15.0,44.0,79.103984375,101.825,0.58789571875,238.65
2021-06-21 12:25:52.328125000,-45.5,15.0,44.0,79.10359375,104.09,0.5878556875000001,238.65
2021-06-21 12:25:52.335937500,-45.75,15.0,44.0,79.10320312500001,103.58500000000001,0.58781565625,238.65
2021-06-21 12:25:52.343750000,-46.0,15.0,44.0,79.1028125,103.08,0.587775625,238.65
2021-06-21 12:25:52.351562500,-45.75,15.0,44.0,79.102421875,100.765,0.5877355937500001,238.65
2021-06-21 12:25:52.359375000,-45.5,15.0,44.0,79.10203125,98.45,0.5876955625,238.65
2021-06-21 12:25:52.367187500,-45.25,15.0,44.0,79.101640625,95.02000000000001,0.58765553125,238.65
2021-06-21 12:25:52.375000000,-45.0,15.0,44.0,79.10125,91.59,0.5876155000000001,238.65
2021-06-21 12:25:52.382812500,-45.0,15.0,44.0,79.100859375,87.64,0.58757546875,238.65
2021-06-21 12:25:52.390625000,-45.0,15.0,44.0,79.10046875,83.69,0.5875354375,238.65
2021-06-21 12:25:52.398437500,-45.0,15.0,44.0,79.100078125,79.81,0.58749540625,238.65
2021-06-21 12:25:52.406250000,-45.0,15.0,44.0,79.0996875,75.93,0.587455375,238.65
2021-06-21 12:25:52.414062500,-45.0,15.0,44.0,79.099296875,72.695,0.58741534375,238.65
2021-06-21 12:25:52.421875000,-45.0,15.0,44.0,79.09890625,69.46,0.5873753125,238.65
2021-06-21 12:25:52.429687500,-45.0,15.0,44.0,79.098515625,67.31,0.58733528125,238.65
2021-06-21 12:25:52.437500000,-45.0,15.0,44.0,79.098125,65.16,0.58729525,238.65
2021-06-21 12:25:52.445312500,-45.25,15.0,44.0,79.097734375,64.275,0.58725521875,238.65
2021-06-21 12:25:52.453125000,-45.5,15.0,44.0,79.09734375,63.39,0.5872151875,238.65
2021-06-21 12:25:52.460937500,-45.75,15.0,44.0,79.096953125,63.635000000000005,0.58717515625,238.65
2021-06-21 12:25:52.468750000,-46.0,15.0,44.0,79.0965625,63.88,0.587135125,238.65
2021-06-21 12:25:52.476562500,-45.75,15.0,44.0,79.096171875,64.895,0.58709509375,238.65
2021-06-21 12:25:52.484375000,-45.5,15.0,44.0,79.09578125,65.91,0.5870550625000001,238.65
2021-06-21 12:25:52.492187500,-45.25,15.0,44.0,79.095390625,67.255,0.58701503125,238.65
2021-06-21 12:25:52.500000000,-45.0,15.0,44.0,79.095,68.6,0.586975,238.65
2021-06-21 12:25:52.507812500,-45.0,15.0,44.0,79.094609375,69.85499999999999,0.5868148750000001,238.65
2021-06-21 12:25:52.515625000,-45.0,15.0,44.0,79.09421875,71.11,0.58665475,238.65
2021-06-21 12:25:52.523437500,-45.0,15.0,44.0,79.093828125,71.935,0.586494625,238.65
2021-06-21 12:25:52.531250000,-45.0,15.0,44.0,79.0934375,72.76,0.5863345,238.65
2021-06-21 12:25:52.539062500,-45.25,15.0,44.0,79.093046875,72.83000000000001,0.586174375,238.65
2021-06-21 12:25:52.546875000,-45.5,15.0,44.0,79.09265625,72.9,0.5860142500000001,238.65
2021-06-21 12:25:52.554687500,-45.75,15.0,44.0,79.092265625,71.92,0.585854125,238.65
2021-06-21 12:25:52.562500000,-46.0,15.0,44.0,79.091875,70.94,0.585694,238.65
2021-06-21 12:25:52.570312500,-45.75,15.0,44.0,79.091484375,68.695,0.585533875,238.65
2021-06-21 12:25:52.578125000,-45.5,15.0,44.0,79.09109375,66.45,0.58537375,238.65
2021-06-21 12:25:52.585937500,-45.25,15.0,44.0,79.090703125,62.905,0.5852136250000001,238.65
2021-06-21 12:25:52.593750000,-45.0,15.0,44.0,79.0903125,59.36,0.5850535,238.65
2021-06-21 12:25:52.601562500,-45.0,15.0,44.0,79.089921875,54.730000000000004,0.584893375,238.65
2021-06-21 12:25:52.609375000,-45.0,15.0,44.0,79.08953125,50.1,0.58473325,238.65
2021-06-21 12:25:52.617187500,-45.0,15.0,44.0,79.089140625,44.82,0.584573125,238.65
2021-06-21 12:25:52.625000000,-45.0,15.0,44.0,79.08875,39.54,0.5844130000000001,238.65
2021-06-21 12:25:52.632812500,-45.0,15.0,44.0,79.088359375,34.085,0.584252875,238.65
2021-06-21 12:25:52.640625000,-45.0,15.0,44.0,79.08796875,28.63,0.58409275,238.65
2021-06-21 12:25:52.648437500,-45.0,15.0,44.0,79.087578125,23.305,0.583932625,238.65
2021-06-21 12:25:52.656250000,-45.0,15.0,44.0,79.0871875,17.98,0.5837725,238.65
2021-06-21 12:25:52.664062500,-45.25,15.0,44.0,79.08679687499999,12.780000000000001,0.583612375,238.65
2021-06-21 12:25:52.671875000,-45.5,15.0,44.0,79.08640625,7.58,0.58345225,238.65
2021-06-21 12:25:52.679687500,-45.75,15.0,44.0,79.086015625,2.255,0.583292125,238.65
2021-06-21 12:25:52.687500000,-46.0,15.0,44.0,79.085625,-3.07,0.583132,238.65
2021-06-21 12:25:52.695312500,-45.75,15.0,44.0,79.085234375,-8.825,0.582971875,238.65
2021-06-21 12:25:52.703125000,-45.5,15.0,44.0,79.08484374999999,-14.58,0.58281175,238.65
2021-06-21 12:25:52.710937500,-45.25,15.0,44.0,79.084453125,-20.825,0.582651625,238.65
2021-06-21 12:25:52.718750000,-45.0,15.0,44.0,79.0840625,-27.07,0.5824915,238.65
2021-06-21 12:25:52.726562500,-45.0,15.0,44.0,79.083671875,-33.510000000000005,0.582331375,238.65
2021-06-21 12:25:52.734375000,-45.0,15.0,44.0,79.08328125,-39.95,0.58217125,238.65
2021-06-21 12:25:52.742187500,-45.0,15.0,44.0,79.08289062499999,-46.040000000000006,0.582011125,238.65
2021-06-21 12:25:52.750000000,-45.0,15.0,44.0,79.0825,-52.13,0.581851,238.65
2021-06-21 12:25:52.757812500,-45.25,15.0,44.0,79.082109375,-57.325,0.581851,238.65
2021-06-21 12:25:52.765625000,-45.5,15.0,44.0,79.08171875,-62.52,0.581851,238.65
2021-06-21 12:25:52.773437500,-45.75,15.0,44.0,79.081328125,-66.565,0.581851,238.65
2021-06-21 12:25:52.781250000,-46.0,15.0,44.0,79.08093749999999,-70.61,0.581851,238.65
2021-06-21 12:25:52.789062500,-46.0,15.0,43.75,79.080546875,-73.71000000000001,0.581851,238.65
2021-06-21 12:25:52.796875000,-46.0,15.0,43.5,79.08015625,-76.81,0.581851,238.65
2021-06-21 12:25:52.804687500,-46.0,15.0,43.25,79.079765625,-79.505,0.581851,238.65
2021-06-21 12:25:52.812500000,-46.0,15.0,43.0,79.079375,-82.2,0.581851,238.65
2021-06-21 12:25:52.820312500,-45.75,15.0,43.25,79.07898437499999,-85.215,0.581851,238.65
2021-06-21 12:25:52.828125000,-45.5,15.0,43.5,79.07859375,-88.23,0.581851,238.65
2021-06-21 12:25:52.835937500,-45.25,15.0,43.75,79.078203125,-92.23,0.581851,238.65
2021-06-21 12:25:52.843750000,-45.0,15.0,44.0,79.0778125,-96.23,0.581851,238.65
2021-06-21 12:25:52.851562500,-45.0,15.0,44.0,79.077421875,-101.74000000000001,0.581851,238.65
2021-06-21 12:25:52.859375000,-45.0,15.0,44.0,79.07703124999999,-107.25,0.581851,238.65
2021-06-21 12:25:52.867187500,-45.0,15.0,44.0,79.076640625,-114.47999999999999,0.581851,238.65
2021-06-21 12:25:52.875000000,-45.0,15.0,44.0,79.07624999999999,-121.71,0.581851,238.65
2021-06-21 12:25:52.882812500,-45.25,15.0,44.0,79.075859375,-130.46,0.581851,238.65
2021-06-21 12:25:52.890625000,-45.5,15.0,44.0,79.07546875,-139.21,0.581851,238.65
2021-06-21 12:25:52.898437500,-45.75,15.0,44.0,79.07507812499999,-148.62,0.581851,238.65
2021-06-21 12:25:52.906250000,-46.0,15.0,44.0,79.0746875,-158.03,0.581851,238.65
2021-06-21 12:25:52.914062500,-46.0,15.0,43.75,79.07429687499999,-166.41500000000002,0.581851,238.65
2021-06-21 12:25:52.921875000,-46.0,15.0,43.5,79.07390625,-174.8,0.581851,238.65
2021-06-21 12:25:52.929687500,-46.0,15.0,43.25,79.073515625,-179.85500000000002,0.581851,238.65
2021-06-21 12:25:52.937500000,-46.0,15.0,43.0,79.07312499999999,-184.91,0.581851,238.65
2021-06-21 12:25:52.945312500,-45.75,15.0,43.25,79.072734375,-184.195,0.581851,238.65
2021-06-21 12:25:52.953125000,-45.5,15.0,43.5,79.07234374999999,-183.48,0.581851,238.65
2021-06-21 12:25:52.960937500,-45.25,15.0,43.75,79.071953125,-175.305,0.581851,238.65
2021-06-21 12:25:52.968750000,-45.0,15.0,44.0,79.0715625,-167.13,0.581851,238.65
2021-06-21 12:25:52.976562500,-45.0,15.0,44.0,79.07117187499999,-151.305,0.581851,238.65
2021-06-21 12:25:52.984375000,-45.0,15.0,44.0,79.07078125,-135.48,0.581851,238.65
2021-06-21 12:25:52.992187500,-45.0,15.0,44.0,79.07039062499999,-113.615,0.581851,238.65
2021-06-21 12:25:53.000000000,-45.0,15.0,44.0,79.07,-91.75,0.581851,238.65
2021-06-21 12:25:53.007812500,-45.0,15.0,44.0,79.069453125,-66.945,0.581851,238.65
2021-06-21 12:25:53.015625000,-45.0,15.0,44.0,79.06890625,-42.14,0.581851,238.65
2021-06-21 12:25:53.023437500,-45.0,15.0,44.0,79.068359375,-17.985,0.581851,238.65
2021-06-21 12:25:53.031250000,-45.0,15.0,44.0,79.06781249999999,6.17,0.581851,238.65
2021-06-21 12:25:53.039062500,-45.25,15.0,44.0,79.06726562499999,26.630000000000003,0.581851,238.65
2021-06-21 12:25:53.046875000,-45.5,15.0,44.0,79.06671874999999,47.09,0.581851,238.65
2021-06-21 12:25:53.054687500,-45.75,15.0,44.0,79.066171875,62.155,0.581851,238.65
2021-06-21 12:25:53.062500000,-46.0,15.0,44.0,79.065625,77.22,0.581851,238.65
2021-06-21 12:25:53.070312500,-45.75,15.0,44.0,79.065078125,86.725,0.581851,238.65
2021-06-21 12:25:53.078125000,-45.5,15.0,44.0,79.06453124999999,96.23,0.581851,238.65
2021-06-21 12:25:53.085937500,-45.25,15.0,44.0,79.06398437499999,101.12,0.581851,238.65
2021-06-21 12:25:53.093750000,-45.0,15.0,44.0,79.06343749999999,106.01,0.581851,238.65
2021-06-21 12:25:53.101562500,-45.0,15.0,44.0,79.062890625,107.70500000000001,0.581851,238.65
2021-06-21 12:25:53.109375000,-45.0,15.0,44.0,79.06234375,109.4,0.581851,238.65
2021-06-21 12:25:53.117187500,-45.0,15.0,44.0,79.061796875,109.17500000000001,0.581851,238.65
2021-06-21 12:25:53.125000000,-45.0,15.0,44.0,79.06125,108.95,0.581851,238.65
2021-06-21 12:25:53.132812500,-45.25,15.0,43.75,79.06070312499999,107.685,0.581851,238.65
2021-06-21 12:25:53.140625000,-45.5,15.0,43.5,79.06015624999999,106.42,0.581851,238.65
2021-06-21 12:25:53.148437500,-45.75,15.0,43.25,79.059609375,104.625,0.581851,238.65
2021-06-21 12:25:53.156250000,-46.0,15.0,43.0,79.0590625,102.83,0.581851,238.65
2021-06-21 12:25:53.164062500,-45.75,15.0,43.25,79.058515625,100.85499999999999,0.581851,238.65
2021-06-21 12:25:53.171875000,-45.5,15.0,43.5,79.05796875,98.88,0.581851,238.65
2021-06-21 12:25:53.179687500,-45.25,15.0,43.75,79.05742187499999,97.065,0.581851,238.65
2021-06-21 12:25:53.187500000,-45.0,15.0,44.0,79.05687499999999,95.25,0.581851,238.65
2021-06-21 12:25:53.195312500,-45.0,15.0,44.0,79.056328125,93.905,0.581851,238.65
2021-06-21 12:25:53.203125000,-45.0,15.0,44.0,79.05578125,92.56,0.581851,238.65
2021-06-21 12:25:53.210937500,-45.0,15.0,44.0,79.055234375,91.87,0.581851,238.65
2021-06-21 12:25:53.218750000,-45.0,15.0,44.0,79.0546875,91.18,0.581851,238.65
2021-06-21 12:25:53.226562500,-45.25,15.0,44.0,79.05414062499999,91.06,0.581851,238.65
2021-06-21 12:25:53.234375000,-45.5,15.0,44.0,79.05359374999999,90.94,0.581851,238.65
2021-06-21 12:25:53.242187500,-45.75,15.0,44.0,79.05304687499999,91.035,0.581851,238.65
2021-06-21 12:25:53.250000000,-46.0,15.0,44.0,79.0525,91.13,0.581851,238.65
2021-06-21 12:25:53.257812500,-45.75,15.0,44.0,79.051953125,91.005,0.58189103125,238.65
2021-06-21 12:25:53.265625000,-45.5,15.0,44.0,79.05140625,90.88,0.5819310625,238.65
2021-06-21 12:25:53.273437500,-45.25,15.0,44.0,79.050859375,90.265,0.58197109375,238.65
2021-06-21 12:25:53.281250000,-45.0,15.0,44.0,79.05031249999999,89.65,0.582011125,238.65
2021-06-21 12:25:53.289062500,-45.0,15.0,44.0,79.04976562499999,88.595,0.58205115625,238.65
2021-06-21 12:25:53.296875000,-45.0,15.0,44.0,79.04921875,87.54,0.5820911875,238.65
2021-06-21 12:25:53.304687500,-45.0,15.0,44.0,79.048671875,86.37,0.58213121875,238.65
2021-06-21 12:25:53.312500000,-45.0,15.0,44.0,79.048125,85.2,0.58217125,238.65
2021-06-21 12:25:53.320312500,-45.0,15.0,44.0,79.047578125,84.245,0.58221128125,238.65
2021-06-21 12:25:53.328125000,-45.0,15.0,44.0,79.04703124999999,83.29,0.5822513125,238.65
2021-06-21 12:25:53.335937500,-45.0,15.0,44.0,79.04648437499999,82.59,0.58229134375,238.65
2021-06-21 12:25:53.343750000,-45.0,15.0,44.0,79.0459375,81.89,0.582331375,238.65
2021-06-21 12:25:53.351562500,-45.0,15.0,44.0,79.045390625,81.035,0.58237140625,238.65
2021-06-21 12:25:53.359375000,-45.0,15.0,44.0,79.04484375,80.18,0.5824114375,238.65
2021-06-21 12:25:53.367187500,-45.0,15.0,44.0,79.044296875,78.45,0.58245146875,238.65
2021-06-21 12:25:53.375000000,-45.0,15.0,44.0,79.04374999999999,76.72,0.5824914999999999,238.65
2021-06-21 12:25:53.382812500,-45.25,15.0,44.0,79.04320312499999,73.44,0.58253153125,238.65
2021-06-21 12:25:53.390625000,-45.5,15.0,44.0,79.04265625,70.16,0.5825715625,238.65
2021-06-21 12:25:53.398437500,-45.75,15.0,44.0,79.042109375,65.08,0.58261159375,238.65
2021-06-21 12:25:53.406250000,-46.0,15.0,44.0,79.0415625,60.0,0.582651625,238.65
2021-06-21 12:25:53.414062500,-45.75,15.0,44.0,79.041015625,53.495000000000005,0.58269165625,238.65
2021-06-21 12:25:53.421875000,-45.5,15.0,44.0,79.04046875,46.99,0.5827316875,238.65
2021-06-21 12:25:53.429687500,-45.25,15.0,44.0,79.03992187499999,39.89,0.58277171875,238.65
2021-06-21 12:25:53.437500000,-45.0,15.0,44.0,79.03937499999999,32.79,0.58281175,238.65
2021-06-21 12:25:53.445312500,-45.0,15.0,44.0,79.038828125,26.02,0.58285178125,238.65
2021-06-21 12:25:53.453125000,-45.0,15.0,44.0,79.03828125,19.25,0.5828918125,238.65
2021-06-21 12:25:53.460937500,-45.0,15.0,44.0,79.037734375,13.35,0.58293184375,238.65
2021-06-21 12:25:53.468750000,-45.0,15.0,44.0,79.0371875,7.45,0.582971875,238.65
2021-06-21 12:25:53.476562500,-45.0,15.0,44.0,79.03664062499999,2.3950000000000005,0.58301190625,238.65
2021-06-21 12:25:53.484375000,-45.0,15.0,44.0,79.03609374999999,-2.66,0.5830519375,238.65
2021-06-21 12:25:53.492187500,-45.0,15.0,44.0,79.035546875,-7.36,0.58309196875,238.65
2021-06-21 12:25:53.500000000,-45.0,15.0,44.0,79.035,-12.06,0.583132,238.65
2021-06-21 12:25:53.507812500,-45.0,15.0,44.0,79.034453125,-17.005,0.5830519375,238.65
2021-06-21 12:25:53.515625000,-45.0,15.0,44.0,79.03390625,-21.95,0.582971875,238.65
2021-06-21 12:25:53.523437500,-45.0,15.0,44.0,79.033359375,-27.46,0.5828918125,238.65
2021-06-21 12:25:53.531250000,-45.0,15.0,44.0,79.03281249999999,-32.97,0.58281175,238.65
2021-06-21 12:25:53.539062500,-45.0,15.0,44.0,79.032265625,-38.879999999999995,0.5827316875,238.65
2021-06-21 12:25:53.546875000,-45.0,15.0,44.0,79.03171875,-44.79,0.582651625,238.65
2021-06-21 12:25:53.554687500,-45.0,15.0,44.0,79.031171875,-50.59,0.5825715625,238.65
2021-06-21 12:25:53.562500000,-45.0,15.0,44.0,79.030625,-56.39,0.5824914999999999,238.65
2021-06-21 12:25:53.570312500,-45.0,15.0,44.0,79.030078125,-61.52,0.5824114375,238.65
2021-06-21 12:25:53.578125000,-45.0,15.0,44.0,79.02953124999999,-66.65,0.582331375,238.65
2021-06-21 12:25:53.585937500,-45.0,15.0,44.0,79.028984375,-70.805,0.5822513125,238.65
2021-06-21 12:25:53.593750000,-45.0,15.0,44.0,79.0284375,-74.96,0.58217125,238.65
2021-06-21 12:25:53.601562500,-45.25,15.0,44.0,79.027890625,-78.225,0.5820911875,238.65
2021-06-21 12:25:53.609375000,-45.5,15.0,44.0,79.02734375,-81.49,0.582011125,238.65
2021-06-21 12:25:53.617187500,-45.75,15.0,44.0,79.026796875,-84.3,0.5819310625,238.65
2021-06-21 12:25:53.625000000,-46.0,15.0,44.0,79.02625,-87.11,0.581851,238.65
2021-06-21 12:25:53.632812500,-46.0,15.0,44.0,79.02570312499999,-90.08,0.5817709375,238.65
2021-06-21 12:25:53.640625000,-46.0,15.0,44.0,79.02515625,-93.05,0.581690875,238.65
2021-06-21 12:25:53.648437500,-46.0,15.0,44.0,79.024609375,-96.83500000000001,0.5816108125,238.65
2021-06-21 12:25:53.656250000,-46.0,15.0,44.0,79.0240625,-100.62,0.58153075,238.65
2021-06-21 12:25:53.664062500,-45.75,15.0,44.0,79.023515625,-105.845,0.5814506875000001,238.65
2021-06-21 12:25:53.671875000,-45.5,15.0,44.0,79.02296875,-111.07,0.581370625,238.65
2021-06-21 12:25:53.679687500,-45.25,15.0,44.0,79.02242187499999,-118.19,0.5812905625,238.65
2021-06-21 12:25:53.687500000,-45.0,15.0,44.0,79.021875,-125.31,0.5812105000000001,238.65
2021-06-21 12:25:53.695312500,-45.0,15.0,43.75,79.021328125,-134.32999999999998,0.5811304375,238.65
2021-06-21 12:25:53.703125000,-45.0,15.0,43.5,79.02078125,-143.35,0.581050375,238.65
2021-06-21 12:25:53.710937500,-45.0,15.0,43.25,79.020234375,-153.48000000000002,0.5809703125,238.65
2021-06-21 12:25:53.718750000,-45.0,15.0,43.0,79.0196875,-163.61,0.58089025,238.65
2021-06-21 12:25:53.726562500,-45.25,15.0,43.25,79.01914062499999,-173.03,0.5808101875,238.65
2021-06-21 12:25:53.734375000,-45.5,15.0,43.5,79.01859375,-182.45,0.580730125,238.65
2021-06-21 12:25:53.742187500,-45.75,15.0,43.75,79.018046875,-188.485,0.5806500625000001,238.65
2021-06-21 12:25:53.750000000,-46.0,15.0,44.0,79.0175,-194.52,0.58057,238.65
2021-06-21 12:25:53.757812500,-45.75,15.0,44.0,79.016953125,-194.32,0.5804899375,238.65
2021-06-21 12:25:53.765625000,-45.5,15.0,44.0,79.01640625,-194.12,0.5804098750000001,238.65
2021-06-21 12:25:53.773437500,-45.25,15.0,44.0,79.015859375,-185.745,0.5803298125,238.65
2021-06-21 12:25:53.781250000,-45.0,15.0,44.0,79.0153125,-177.37,0.58024975,238.65
2021-06-21 12:25:53.789062500,-45.0,15.0,44.0,79.014765625,-160.67000000000002,0.5801696875,238.65
2021-06-21 12:25:53.796875000,-45.0,15.0,44.0,79.01421875,-143.97,0.580089625,238.65
2021-06-21 12:25:53.804687500,-45.0,15.0,44.0,79.013671875,-120.9,0.5800095625,238.65
2021-06-21 12:25:53.812500000,-45.0,15.0,44.0,79.013125,-97.83,0.5799295,238.65
2021-06-21 12:25:53.820312500,-45.0,15.0,44.0,79.012578125,-71.895,0.5798494375000001,238.65
2021-06-21 12:25:53.828125000,-45.0,15.0,44.0,79.01203124999999,-45.96,0.579769375,238.65
2021-06-21 12:25:53.835937500,-45.0,15.0,44.0,79.011484375,-21.1,0.5796893125,238.65
2021-06-21 12:25:53.843750000,-45.0,15.0,44.0,79.0109375,3.76,0.57960925,238.65
2021-06-21 12:25:53.851562500,-45.25,15.0,44.0,79.010390625,24.43,0.5795291875,238.65
2021-06-21 12:25:53.859375000,-45.5,15.0,44.0,79.00984375,45.1,0.579449125,238.65
2021-06-21 12:25:53.867187500,-45.75,15.0,44.0,79.009296875,60.05500000000001,0.5793690625,238.65
2021-06-21 12:25:53.875000000,-46.0,15.0,44.0,79.00874999999999,75.01,0.5792889999999999,238.65
2021-06-21 12:25:53.882812500,-45.75,15.0,44.0,79.008203125,84.36500000000001,0.5792089375,238.65
2021-06-21 12:25:53.890625000,-45.5,15.0,44.0,79.00765625,93.72,0.579128875,238.65
2021-06-21 12:25:53.898437500,-45.25,15.0,44.0,79.007109375,98.67,0.5790488125,238.65
2021-06-21 12:25:53.906250000,-45.0,15.0,44.0,79.0065625,103.62,0.57896875,238.65
2021-06-21 12:25:53.914062500,-45.0,15.0,44.0,79.006015625,105.6,0.5788886875,238.65
2021-06-21 12:25:53.921875000,-45.0,15.0,44.0,79.00546875,107.58,0.578808625,238.65
2021-06-21 12:25:53.929687500,-45.0,15.0,44.0,79.004921875,107.75,0.5787285624999999,238.65
2021-06-21 12:25:53.937500000,-45.0,15.0,44.0,79.004375,107.92,0.5786485,238.65
2021-06-21 12:25:53.945312500,-45.25,15.0,43.75,79.003828125,106.965,0.5785684375,238.65
2021-06-21 12:25:53.953125000,-45.5,15.0,43.5,79.00328125,106.01,0.5784883749999999,238.65
2021-06-21 12:25:53.960937500,-45.75,15.0,43.25,79.002734375,104.34,0.5784083125,238.65
2021-06-21 12:25:53.968750000,-46.0,15.0,43.0,79.0021875,102.67,0.57832825,238.65
2021-06-21 12:25:53.976562500,-46.0,15.0,43.25,79.001640625,100.7,0.5782481875,238.65
2021-06-21 12:25:53.984375000,-46.0,15.0,43.5,79.00109375,98.73,0.5781681249999999,238.65
2021-06-21 12:25:53.992187500,-46.0,15.0,43.75,79.000546875,97.005,0.5780880625,238.65
2021-06-21 12:25:54.000000000,-46.0,15.0,44.0,79.0,95.28,0.578008,238.65
2021-06-21 12:25:54.007812500,-45.75,15.0,44.0,78.999296875,94.31,0.57812809375,238.65
2021-06-21 12:25:54.015625000,-45.5,15.0,44.0,78.99859375,93.34,0.5782481875,238.65
2021-06-21 12:25:54.023437500,-45.25,15.0,44.0,78.997890625,93.34,0.57836828125,238.65
2021-06-21 12:25:54.031250000,-45.0,15.0,44.0,78.9971875,93.34,0.5784883749999999,238.65
2021-06-21 12:25:54.039062500,-45.25,15.0,44.0,78.996484375,94.08,0.5786084687499999,238.65
2021-06-21 12:25:54.046875000,-45.5,15.0,44.0,78.99578125,94.82,0.5787285624999999,238.65
2021-06-21 12:25:54.054687500,-45.75,15.0,44.0,78.995078125,95.66499999999999,0.5788486562499999,238.65
2021-06-21 12:25:54.062500000,-46.0,15.0,44.0,78.994375,96.51,0.57896875,238.65
2021-06-21 12:25:54.070312500,-46.0,15.0,43.75,78.993671875,96.78999999999999,0.57908884375,238.65
2021-06-21 12:25:54.078125000,-46.0,15.0,43.5,78.99296875,97.07,0.5792089375,238.65
2021-06-21 12:25:54.085937500,-46.0,15.0,43.25,78.992265625,96.465,0.57932903125,238.65
2021-06-21 12:25:54.093750000,-46.0,15.0,43.0,78.9915625,95.86,0.579449125,238.65
2021-06-21 12:25:54.101562500,-45.75,15.0,43.25,78.990859375,94.57,0.57956921875,238.65
2021-06-21 12:25:54.109375000,-45.5,15.0,43.5,78.99015625,93.28,0.5796893125,238.65
2021-06-21 12:25:54.117187500,-45.25,15.0,43.75,78.989453125,91.92,0.57980940625,238.65
2021-06-21 12:25:54.125000000,-45.0,15.0,44.0,78.98875,90.56,0.5799295,238.65
2021-06-21 12:25:54.132812500,-45.0,15.0,44.0,78.988046875,89.7,0.58004959375,238.65
2021-06-21 12:25:54.140625000,-45.0,15.0,44.0,78.98734375,88.84,0.5801696875,238.65
2021-06-21 12:25:54.148437500,-45.0,15.0,44.0,78.98664062499999,88.61500000000001,0.58028978125,238.65
2021-06-21 12:25:54.156250000,-45.0,15.0,44.0,78.9859375,88.39,0.580409875,238.65
2021-06-21 12:25:54.164062500,-45.0,15.0,44.0,78.985234375,88.265,0.58052996875,238.65
2021-06-21 12:25:54.171875000,-45.0,15.0,44.0,78.98453125,88.14,0.5806500625,238.65
2021-06-21 12:25:54.179687500,-45.0,15.0,44.0,78.983828125,87.16499999999999,0.58077015625,238.65
2021-06-21 12:25:54.187500000,-45.0,15.0,44.0,78.983125,86.19,0.5808902499999999,238.65
2021-06-21 12:25:54.195312500,-45.25,15.0,43.75,78.982421875,83.445,0.58101034375,238.65
2021-06-21 12:25:54.203125000,-45.5,15.0,43.5,78.98171875,80.7,0.5811304375,238.65
2021-06-21 12:25:54.210937500,-45.75,15.0,43.25,78.981015625,75.78999999999999,0.58125053125,238.65
2021-06-21 12:25:54.218750000,-46.0,15.0,43.0,78.9803125,70.88,0.581370625,238.65
2021-06-21 12:25:54.226562500,-45.75,15.0,43.25,78.979609375,64.175,0.58149071875,238.65
2021-06-21 12:25:54.234375000,-45.5,15.0,43.5,78.97890625,57.47,0.5816108125,238.65
2021-06-21 12:25:54.242187500,-45.25,15.0,43.75,78.978203125,49.870000000000005,0.58173090625,238.65
2021-06-21 12:25:54.250000000,-45.0,15.0,44.0,78.97749999999999,42.27,0.581851,238.65
2021-06-21 12:25:54.257812500,-45.0,15.0,44.0,78.976796875,34.835,0.581690875,238.65
2021-06-21 12:25:54.265625000,-45.0,15.0,44.0,78.97609375,27.4,0.58153075,238.65
2021-06-21 12:25:54.273437500,-45.0,15.0,44.0,78.975390625,20.869999999999997,0.581370625,238.65
2021-06-21 12:25:54.281250000,-45.0,15.0,44.0,78.9746875,14.34,0.5812105,238.65
2021-06-21 12:25:54.289062500,-45.25,15.0,43.75,78.973984375,8.9,0.581050375,238.65
2021-06-21 12:25:54.296875000,-45.5,15.0,43.5,78.97328125,3.46,0.58089025,238.65
2021-06-21 12:25:54.304687500,-45.75,15.0,43.25,78.972578125,-1.1749999999999998,0.580730125,238.65
2021-06-21 12:25:54.312500000,-46.0,15.0,43.0,78.971875,-5.81,0.58057,238.65
2021-06-21 12:25:54.320312500,-46.0,15.0,43.0,78.971171875,-10.129999999999999,0.580409875,238.65
2021-06-21 12:25:54.328125000,-46.0,15.0,43.0,78.97046875,-14.45,0.58024975,238.65
2021-06-21 12:25:54.335937500,-46.0,15.0,43.0,78.969765625,-18.869999999999997,0.580089625,238.65
2021-06-21 12:25:54.343750000,-46.0,15.0,43.0,78.96906249999999,-23.29,0.5799295,238.65
2021-06-21 12:25:54.351562500,-45.75,15.0,43.25,78.968359375,-27.965,0.579769375,238.65
2021-06-21 12:25:54.359375000,-45.5,15.0,43.5,78.96765625,-32.64,0.57960925,238.65
2021-06-21 12:25:54.367187500,-45.25,15.0,43.75,78.966953125,-37.49,0.579449125,238.65
2021-06-21 12:25:54.375000000,-45.0,15.0,44.0,78.96625,-42.34,0.5792889999999999,238.65
2021-06-21 12:25:54.382812500,-45.0,15.0,44.0,78.965546875,-47.175,0.579128875,238.65
2021-06-21 12:25:54.390625000,-45.0,15.0,44.0,78.96484375,-52.01,0.57896875,238.65
2021-06-21 12:25:54.398437500,-45.0,15.0,44.0,78.964140625,-56.605000000000004,0.578808625,238.65
2021-06-21 12:25:54.406250000,-45.0,15.0,44.0,78.9634375,-61.2,0.5786485,238.65
2021-06-21 12:25:54.414062500,-45.25,15.0,43.75,78.962734375,-65.38499999999999,0.5784883749999999,238.65
2021-06-21 12:25:54.421875000,-45.5,15.0,43.5,78.96203125,-69.57,0.57832825,238.65
2021-06-21 12:25:54.429687500,-45.75,15.0,43.25,78.961328125,-73.22999999999999,0.578168125,238.65
2021-06-21 12:25:54.437500000,-46.0,15.0,43.0,78.960625,-76.89,0.578008,238.65
2021-06-21 12:25:54.445312500,-46.0,15.0,43.0,78.95992187499999,-80.025,0.577847875,238.65
2021-06-21 12:25:54.453125000,-46.0,15.0,43.0,78.95921875,-83.16,0.5776877499999999,238.65
2021-06-21 12:25:54.460937500,-46.0,15.0,43.0,78.958515625,-85.97,0.577527625,238.65
2021-06-21 12:25:54.468750000,-46.0,15.0,43.0,78.9578125,-88.78,0.5773675,238.65
2021-06-21 12:25:54.476562500,-45.75,15.0,43.25,78.957109375,-91.8,0.577207375,238.65
2021-06-21 12:25:54.484375000,-45.5,15.0,43.5,78.95640625,-94.82,0.57704725,238.65
2021-06-21 12:25:54.492187500,-45.25,15.0,43.75,78.955703125,-98.88,0.576887125,238.65
2021-06-21 12:25:54.500000000,-45.0,15.0,44.0,78.955,-102.94,0.576727,238.65
2021-06-21 12:25:54.507812500,-45.0,15.0,44.0,78.954296875,-108.945,0.5768070625,238.65
2021-06-21 12:25:54.515625000,-45.0,15.0,44.0,78.95359375,-114.95,0.576887125,238.65
2021-06-21 12:25:54.523437500,-45.0,15.0,44.0,78.952890625,-123.34,0.5769671875,238.65
2021-06-21 12:25:54.531250000,-45.0,15.0,44.0,78.9521875,-131.73,0.57704725,238.65
2021-06-21 12:25:54.539062500,-45.25,15.0,44.0,78.95148437499999,-141.92000000000002,0.5771273125,238.65
2021-06-21 12:25:54.546875000,-45.5,15.0,44.0,78.95078124999999,-152.11,0.577207375,238.65
2021-06-21 12:25:54.554687500,-45.75,15.0,44.0,78.950078125,-162.22500000000002,0.5772874375,238.65
2021-06-21 12:25:54.562500000,-46.0,15.0,44.0,78.949375,-172.34,0.5773675,238.65
2021-06-21 12:25:54.570312500,-46.0,15.0,43.75,78.948671875,-179.49,0.5774475625,238.65
2021-06-21 12:25:54.578125000,-46.0,15.0,43.5,78.94796875,-186.64,0.577527625,238.65
2021-06-21 12:25:54.585937500,-46.0,15.0,43.25,78.947265625,-187.755,0.5776076875,238.65
2021-06-21 12:25:54.593750000,-46.0,15.0,43.0,78.9465625,-188.87,0.57768775,238.65
2021-06-21 12:25:54.601562500,-45.75,15.0,43.25,78.945859375,-181.87,0.5777678125,238.65
2021-06-21 12:25:54.609375000,-45.5,15.0,43.5,78.94515625,-174.87,0.577847875,238.65
2021-06-21 12:25:54.617187500,-45.25,15.0,43.75,78.944453125,-159.54000000000002,0.5779279375,238.65
2021-06-21 12:25:54.625000000,-45.0,15.0,44.0,78.94375,-144.21,0.5780080000000001,238.65
2021-06-21 12:25:54.632812500,-45.0,15.0,44.0,78.943046875,-122.415,0.5780880625,238.65
2021-06-21 12:25:54.640625000,-45.0,15.0,44.0,78.94234374999999,-100.62,0.578168125,238.65
2021-06-21 12:25:54.648437500,-45.0,15.0,44.0,78.94164062499999,-75.69,0.5782481875000001,238.65
2021-06-21 12:25:54.656250000,-45.0,15.0,44.0,78.9409375,-50.76,0.57832825,238.65
2021-06-21 12:25:54.664062500,-45.25,15.0,43.75,78.940234375,-26.365,0.5784083125,238.65
2021-06-21 12:25:54.671875000,-45.5,15.0,43.5,78.93953125,-1.97,0.578488375,238.65
2021-06-21 12:25:54.679687500,-45.75,15.0,43.25,78.938828125,18.96,0.5785684375000001,238.65
2021-06-21 12:25:54.687500000,-46.0,15.0,43.0,78.938125,39.89,0.5786485,238.65
2021-06-21 12:25:54.695312500,-45.75,15.0,43.25,78.937421875,55.82,0.5787285625,238.65
2021-06-21 12:25:54.703125000,-45.5,15.0,43.5,78.93671875,71.75,0.5788086250000001,238.65
2021-06-21 12:25:54.710937500,-45.25,15.0,43.75,78.936015625,82.49000000000001,0.5788886875,238.65
2021-06-21 12:25:54.718750000,-45.0,15.0,44.0,78.9353125,93.23,0.57896875,238.65
2021-06-21 12:25:54.726562500,-45.0,15.0,44.0,78.934609375,99.45,0.5790488125000001,238.65
2021-06-21 12:25:54.734375000,-45.0,15.0,44.0,78.93390624999999,105.67,0.5791288750000001,238.65
2021-06-21 12:25:54.742187500,-45.0,15.0,44.0,78.93320312499999,108.33,0.5792089375,238.65
2021-06-21 12:25:54.750000000,-45.0,15.0,44.0,78.9325,110.99,0.579289,238.65
2021-06-21 12:25:54.757812500,-45.25,15.0,43.75,78.931796875,110.995,0.57908884375,238.65
2021-06-21 12:25:54.765625000,-45.5,15.0,43.5,78.93109375,111.0,0.5788886875,238.65
2021-06-21 12:25:54.773437500,-45.75,15.0,43.25,78.930390625,109.15,0.5786885312500001,238.65
2021-06-21 12:25:54.781250000,-46.0,15.0,43.0,78.9296875,107.3,0.578488375,238.65
2021-06-21 12:25:54.789062500,-46.0,15.0,43.0,78.928984375,104.41499999999999,0.57828821875,238.65
2021-06-21 12:25:54.796875000,-46.0,15.0,43.0,78.92828125,101.53,0.5780880625,238.65
2021-06-21 12:25:54.804687500,-46.0,15.0,43.0,78.927578125,98.48,0.5778879062500001,238.65
2021-06-21 12:25:54.812500000,-46.0,15.0,43.0,78.926875,95.43,0.57768775,238.65
2021-06-21 12:25:54.820312500,-45.75,15.0,43.25,78.926171875,93.0,0.57748759375,238.65
2021-06-21 12:25:54.828125000,-45.5,15.0,43.5,78.92546875,90.57,0.5772874375,238.65
2021-06-21 12:25:54.835937500,-45.25,15.0,43.75,78.92476562499999,89.22999999999999,0.57708728125,238.65
2021-06-21 12:25:54.843750000,-45.0,15.0,44.0,78.92406249999999,87.89,0.5768871250000001,238.65
2021-06-21 12:25:54.851562500,-45.25,15.0,44.0,78.923359375,87.63499999999999,0.57668696875,238.65
2021-06-21 12:25:54.859375000,-45.5,15.0,44.0,78.92265625,87.38,0.5764868125,238.65
2021-06-21 12:25:54.867187500,-45.75,15.0,44.0,78.921953125,87.765,0.57628665625,238.65
2021-06-21 12:25:54.875000000,-46.0,15.0,44.0,78.92125,88.15,0.5760865,238.65
2021-06-21 12:25:54.882812500,-46.0,15.0,44.0,78.920546875,88.545,0.57588634375,238.65
2021-06-21 12:25:54.890625000,-46.0,15.0,44.0,78.91984375,88.94,0.5756861875,238.65
2021-06-21 12:25:54.898437500,-46.0,15.0,44.0,78.919140625,88.88499999999999,0.57548603125,238.65
2021-06-21 12:25:54.906250000,-46.0,15.0,44.0,78.9184375,88.83,0.575285875,238.65
2021-06-21 12:25:54.914062500,-46.0,15.0,43.75,78.917734375,88.25,0.57508571875,238.65
2021-06-21 12:25:54.921875000,-46.0,15.0,43.5,78.91703125,87.67,0.5748855625,238.65
2021-06-21 12:25:54.929687500,-46.0,15.0,43.25,78.91632812499999,86.86500000000001,0.57468540625,238.65
2021-06-21 12:25:54.937500000,-46.0,15.0,43.0,78.91562499999999,86.06,0.57448525,238.65
2021-06-21 12:25:54.945312500,-46.0,15.0,43.25,78.91492187499999,85.42,0.5742850937499999,238.65
2021-06-21 12:25:54.953125000,-46.0,15.0,43.5,78.91421875,84.78,0.5740849375,238.65
2021-06-21 12:25:54.960937500,-46.0,15.0,43.75,78.913515625,84.52000000000001,0.57388478125,238.65
2021-06-21 12:25:54.968750000,-46.0,15.0,44.0,78.9128125,84.26,0.573684625,238.65
2021-06-21 12:25:54.976562500,-46.0,15.0,43.75,78.912109375,84.155,0.5734844687499999,238.65
2021-06-21 12:25:54.984375000,-46.0,15.0,43.5,78.91140625,84.05,0.5732843125,238.65
2021-06-21 12:25:54.992187500,-46.0,15.0,43.25,78.910703125,83.5,0.57308415625,238.65
2021-06-21 12:25:55.000000000,-46.0,15.0,43.0,78.91,82.95,0.572884,238.65
2021-06-21 12:25:55.007812500,-46.0,15.0,43.0,78.909296875,81.255,0.5730441249999999,238.65
2021-06-21 12:25:55.015625000,-46.0,15.0,43.0,78.90859375,79.56,0.57320425,238.65
2021-06-21 12:25:55.023437500,-46.0,15.0,43.0,78.907890625,76.24000000000001,0.5733643749999999,238.65
2021-06-21 12:25:55.031250000,-46.0,15.0,43.0,78.90718749999999,72.92,0.5735245,238.65
2021-06-21 12:25:55.039062500,-46.0,15.0,43.0,78.90648437499999,67.96000000000001,0.573684625,238.65
2021-06-21 12:25:55.046875000,-46.0,15.0,43.0,78.90578124999999,63.0,0.5738447499999999,238.65
2021-06-21 12:25:55.054687500,-46.0,15.0,43.0,78.905078125,56.85,0.574004875,238.65
2021-06-21 12:25:55.062500000,-46.0,15.0,43.0,78.904375,50.7,0.5741649999999999,238.65
2021-06-21 12:25:55.070312500,-45.75,15.0,43.25,78.903671875,44.025000000000006,0.574325125,238.65
2021-06-21 12:25:55.078125000,-45.5,15.0,43.5,78.90296875,37.35,0.57448525,238.65
2021-06-21 12:25:55.085937500,-45.25,15.0,43.75,78.902265625,30.785,0.5746453749999999,238.65
2021-06-21 12:25:55.093750000,-45.0,15.0,44.0,78.9015625,24.22,0.5748055,238.65
2021-06-21 12:25:55.101562500,-45.0,15.0,44.0,78.900859375,18.15,0.5749656249999999,238.65
2021-06-21 12:25:55.109375000,-45.0,15.0,44.0,78.90015625,12.08,0.57512575,238.65
2021-06-21 12:25:55.117187500,-45.0,15.0,44.0,78.899453125,6.6,0.575285875,238.65
2021-06-21 12:25:55.125000000,-45.0,15.0,44.0,78.89874999999999,1.12,0.5754459999999999,238.65
2021-06-21 12:25:55.132812500,-45.25,15.0,43.75,78.89804687499999,-3.87,0.575606125,238.65
2021-06-21 12:25:55.140625000,-45.5,15.0,43.5,78.89734374999999,-8.86,0.5757662499999999,238.65
2021-06-21 12:25:55.148437500,-45.75,15.0,43.25,78.89664062499999,-13.549999999999999,0.575926375,238.65
2021-06-21 12:25:55.156250000,-46.0,15.0,43.0,78.8959375,-18.24,0.5760865,238.65
2021-06-21 12:25:55.164062500,-46.0,15.0,43.25,78.895234375,-22.795,0.576246625,238.65
2021-06-21 12:25:55.171875000,-46.0,15.0,43.5,78.89453125,-27.35,0.57640675,238.65
2021-06-21 12:25:55.179687500,-46.0,15.0,43.75,78.893828125,-31.88,0.5765668749999999,238.65
2021-06-21 12:25:55.187500000,-46.0,15.0,44.0,78.893125,-36.41,0.576727,238.65
2021-06-21 12:25:55.195312500,-45.75,15.0,44.0,78.892421875,-40.97,0.576887125,238.65
2021-06-21 12:25:55.203125000,-45.5,15.0,44.0,78.89171875,-45.53,0.57704725,238.65
2021-06-21 12:25:55.210937500,-45.25,15.0,44.0,78.891015625,-50.115,0.577207375,238.65
2021-06-21 12:25:55.218750000,-45.0,15.0,44.0,78.8903125,-54.7,0.5773674999999999,238.65
2021-06-21 12:25:55.226562500,-45.25,15.0,43.75,78.88960937499999,-59.205,0.577527625,238.65
2021-06-21 12:25:55.234375000,-45.5,15.0,43.5,78.88890624999999,-63.71,0.5776877499999999,238.65
2021-06-21 12:25:55.242187500,-45.75,15.0,43.25,78.88820312499999,-67.93,0.577847875,238.65
2021-06-21 12:25:55.250000000,-46.0,15.0,43.0,78.88749999999999,-72.15,0.578008,238.65
2021-06-21 12:25:55.257812500,-46.0,15.0,43.0,78.886796875,-75.885,0.57796796875,238.65
2021-06-21 12:25:55.265625000,-46.0,15.0,43.0,78.88609375,-79.62,0.5779279374999999,238.65
2021-06-21 12:25:55.273437500,-46.0,15.0,43.0,78.885390625,-82.80000000000001,0.57788790625,238.65
2021-06-21 12:25:55.281250000,-46.0,15.0,43.0,78.8846875,-85.98,0.577847875,238.65
2021-06-21 12:25:55.289062500,-46.0,15.0,43.25,78.883984375,-88.855,0.5778078437499999,238.65
2021-06-21 12:25:55.296875000,-46.0,15.0,43.5,78.88328125,-91.73,0.5777678125,238.65
2021-06-21 12:25:55.304687500,-46.0,15.0,43.75,78.882578125,-94.97,0.57772778125,238.65
2021-06-21 12:25:55.312500000,-46.0,15.0,44.0,78.881875,-98.21,0.5776877499999999,238.65
2021-06-21 12:25:55.320312500,-46.0,15.0,44.0,78.88117187499999,-102.76499999999999,0.57764771875,238.65
2021-06-21 12:25:55.328125000,-46.0,15.0,44.0,78.88046874999999,-107.32,0.5776076875,238.65
2021-06-21 12:25:55.335937500,-46.0,15.0,44.0,78.87976562499999,-114.005,0.57756765625,238.65
2021-06-21 12:25:55.343750000,-46.0,15.0,44.0,78.87906249999999,-120.69,0.577527625,238.65
2021-06-21 12:25:55.351562500,-46.0,15.0,43.75,78.878359375,-129.64,0.57748759375,238.65
2021-06-21 12:25:55.359375000,-46.0,15.0,43.5,78.87765625,-138.59,0.5774475625,238.65
2021-06-21 12:25:55.367187500,-46.0,15.0,43.25,78.876953125,-148.75,0.57740753125,238.65
2021-06-21 12:25:55.375000000,-46.0,15.0,43.0,78.87625,-158.91,0.5773675,238.65
2021-06-21 12:25:55.382812500,-46.0,15.0,43.0,78.875546875,-167.975,0.57732746875,238.65
2021-06-21 12:25:55.390625000,-46.0,15.0,43.0,78.87484375,-177.04,0.5772874375,238.65
2021-06-21 12:25:55.398437500,-46.0,15.0,43.0,78.874140625,-181.97,0.5772474062499999,238.65
2021-06-21 12:25:55.406250000,-46.0,15.0,43.0,78.8734375,-186.9,0.577207375,238.65
2021-06-21 12:25:55.414062500,-46.0,15.0,43.25,78.872734375,-184.935,0.57716734375,238.65
2021-06-21 12:25:55.421875000,-46.0,15.0,43.5,78.87203124999999,-182.97,0.5771273124999999,238.65
2021-06-21 12:25:55.429687500,-46.0,15.0,43.75,78.87132812499999,-172.66500000000002,0.57708728125,238.65
2021-06-21 12:25:55.437500000,-46.0,15.0,44.0,78.87062499999999,-162.36,0.57704725,238.65
2021-06-21 12:25:55.445312500,-45.75,15.0,43.75,78.86992187499999,-144.33,0.5770072187499999,238.65
2021-06-21 12:25:55.453125000,-45.5,15.0,43.5,78.86921875,-126.3,0.5769671875,238.65
2021-06-21 12:25:55.460937500,-45.25,15.0,43.25,78.868515625,-103.06,0.57692715625,238.65
2021-06-21 12:25:55.468750000,-45.0,15.0,43.0,78.8678125,-79.82,0.576887125,238.65
2021-06-21 12:25:55.476562500,-45.25,15.0,43.0,78.867109375,-55.0,0.57684709375,238.65
2021-06-21 12:25:55.484375000,-45.5,15.0,43.0,78.86640625,-30.18,0.5768070625,238.65
2021-06-21 12:25:55.492187500,-45.75,15.0,43.0,78.865703125,-7.300000000000001,0.57676703125,238.65
2021-06-21 12:25:55.500000000,-46.0,15.0,43.0,78.865,15.58,0.576727,238.65
2021-06-21 12:25:55.507812500,-46.0,15.0,43.0,78.864296875,34.125,0.57668696875,238.65
2021-06-21 12:25:55.515625000,-46.0,15.0,43.0,78.86359374999999,52.67,0.5766469375,238.65
2021-06-21 12:25:55.523437500,-46.0,15.0,43.0,78.86289062499999,65.95,0.57660690625,238.65
2021-06-21 12:25:55.531250000,-46.0,15.0,43.0,78.86218749999999,79.23,0.576566875,238.65
2021-06-21 12:25:55.539062500,-46.0,15.0,43.25,78.86148437499999,87.57,0.57652684375,238.65
2021-06-21 12:25:55.546875000,-46.0,15.0,43.5,78.86078124999999,95.91,0.5764868125,238.65
2021-06-21 12:25:55.554687500,-46.0,15.0,43.75,78.860078125,100.21000000000001,0.57644678125,238.65
2021-06-21 12:25:55.562500000,-46.0,15.0,44.0,78.859375,104.51,0.57640675,238.65
2021-06-21 12:25:55.570312500,-46.0,15.0,43.75,78.858671875,105.65,0.57636671875,238.65
2021-06-21 12:25:55.578125000,-46.0,15.0,43.5,78.85796875,106.79,0.5763266875,238.65
2021-06-21 12:25:55.585937500,-46.0,15.0,43.25,78.857265625,105.415,0.57628665625,238.65
2021-06-21 12:25:55.593750000,-46.0,15.0,43.0,78.8565625,104.04,0.576246625,238.65
2021-06-21 12:25:55.601562500,-46.0,15.0,43.0,78.855859375,100.69,0.57620659375,238.65
2021-06-21 12:25:55.609375000,-46.0,15.0,43.0,78.85515625,97.34,0.5761665625,238.65
2021-06-21 12:25:55.617187500,-46.0,15.0,43.0,78.85445312499999,92.715,0.57612653125,238.65
2021-06-21 12:25:55.625000000,-46.0,15.0,43.0,78.85374999999999,88.09,0.5760865,238.65
2021-06-21 12:25:55.632812500,-46.0,15.0,43.0,78.85304687499999,83.2,0.57604646875,238.65
2021-06-21 12:25:55.640625000,-46.0,15.0,43.0,78.85234374999999,78.31,0.5760064375,238.65
2021-06-21 12:25:55.648437500,-46.0,15.0,43.0,78.85164062499999,74.285,0.57596640625,238.65
2021-06-21 12:25:55.656250000,-46.0,15.0,43.0,78.8509375,70.26,0.575926375,238.65
2021-06-21 12:25:55.664062500,-45.75,15.0,43.0,78.850234375,67.965,0.57588634375,238.65
2021-06-21 12:25:55.671875000,-45.5,15.0,43.0,78.84953125,65.67,0.5758463125,238.65
2021-06-21 12:25:55.679687500,-45.25,15.0,43.0,78.848828125,65.38,0.57580628125,238.65
2021-06-21 12:25:55.687500000,-45.0,15.0,43.0,78.848125,65.09,0.57576625,238.65
2021-06-21 12:25:55.695312500,-45.25,15.0,43.25,78.847421875,66.33,0.57572621875,238.65
2021-06-21 12:25:55.703125000,-45.5,15.0,43.5,78.84671875,67.57,0.5756861875,238.65
2021-06-21 12:25:55.710937500,-45.75,15.0,43.75,78.84601562499999,69.37,0.57564615625,238.65
2021-06-21 12:25:55.718750000,-46.0,15.0,44.0,78.84531249999999,71.17,0.575606125,238.65
2021-06-21 12:25:55.726562500,-46.0,15.0,43.75,78.84460937499999,72.48,0.57556609375,238.65
2021-06-21 12:25:55.734375000,-46.0,15.0,43.5,78.84390624999999,73.79,0.5755260625,238.65
2021-06-21 12:25:55.742187500,-46.0,15.0,43.25,78.84320312499999,73.95500000000001,0.57548603125,238.65
2021-06-21 12:25:55.750000000,-46.0,15.0,43.0,78.8425,74.12,0.575446,238.65
2021-06-21 12:25:55.757812500,-46.0,15.0,43.0,78.841796875,73.05000000000001,0.575446,238.65
2021-06-21 12:25:55.765625000,-46.0,15.0,43.0,78.84109375,71.98,0.575446,238.65
2021-06-21 12:25:55.773437500,-46.0,15.0,43.0,78.840390625,70.07,0.575446,238.65
2021-06-21 12:25:55.781250000,-46.0,15.0,43.0,78.8396875,68.16,0.575446,238.65
2021-06-21 12:25:55.789062500,-46.0,15.0,43.25,78.838984375,65.96,0.575446,238.65
2021-06-21 12:25:55.796875000,-46.0,15.0,43.5,78.83828125,63.76,0.575446,238.65
2021-06-21 12:25:55.804687500,-46.0,15.0,43.75,78.837578125,61.61,0.575446,238.65
2021-06-21 12:25:55.812500000,-46.0,15.0,44.0,78.83687499999999,59.46,0.575446,238.65
2021-06-21 12:25:55.820312500,-46.0,15.0,43.75,78.83617187499999,57.28,0.575446,238.65
2021-06-21 12:25:55.828125000,-46.0,15.0,43.5,78.83546874999999,55.1,0.575446,238.65
2021-06-21 12:25:55.835937500,-46.0,15.0,43.25,78.83476562499999,52.45,0.575446,238.65
2021-06-21 12:25:55.843750000,-46.0,15.0,43.0,78.83406249999999,49.8,0.575446,238.65
2021-06-21 12:25:55.851562500,-46.0,15.0,43.0,78.833359375,46.129999999999995,0.575446,238.65
2021-06-21 12:25:55.859375000,-46.0,15.0,43.0,78.83265625,42.46,0.575446,238.65
2021-06-21 12:25:55.867187500,-46.0,15.0,43.0,78.831953125,37.405,0.575446,238.65
2021-06-21 12:25:55.875000000,-46.0,15.0,43.0,78.83125,32.35,0.575446,238.65
2021-06-21 12:25:55.882812500,-46.0,15.0,43.0,78.830546875,25.92,0.575446,238.65
2021-06-21 12:25:55.890625000,-46.0,15.0,43.0,78.82984375,19.49,0.575446,238.65
2021-06-21 12:25:55.898437500,-46.0,15.0,43.0,78.829140625,12.075,0.575446,238.65
2021-06-21 12:25:55.906250000,-46.0,15.0,43.0,78.82843749999999,4.66,0.575446,238.65
2021-06-21 12:25:55.914062500,-45.75,15.0,43.25,78.82773437499999,-3.1550000000000002,0.575446,238.65
2021-06-21 12:25:55.921875000,-45.5,15.0,43.5,78.82703124999999,-10.97,0.575446,238.65
2021-06-21 12:25:55.929687500,-45.25,15.0,43.75,78.82632812499999,-18.565,0.575446,238.65
2021-06-21 12:25:55.937500000,-45.0,15.0,44.0,78.82562499999999,-26.16,0.575446,238.65
2021-06-21 12:25:55.945312500,-45.25,15.0,43.75,78.82492187499999,-33.03,0.575446,238.65
2021-06-21 12:25:55.953125000,-45.5,15.0,43.5,78.82421875,-39.9,0.575446,238.65
2021-06-21 12:25:55.960937500,-45.75,15.0,43.25,78.823515625,-45.724999999999994,0.575446,238.65
2021-06-21 12:25:55.968750000,-46.0,15.0,43.0,78.8228125,-51.55,0.575446,238.65
2021-06-21 12:25:55.976562500,-46.0,15.0,43.0,78.822109375,-56.195,0.575446,238.65
2021-06-21 12:25:55.984375000,-46.0,15.0,43.0,78.82140625,-60.84,0.575446,238.65
2021-06-21 12:25:55.992187500,-46.0,15.0,43.0,78.820703125,-64.39,0.575446,238.65
2021-06-21 12:25:56.000000000,-46.0,15.0,43.0,78.82,-67.94,0.575446,238.65
2021-06-21 12:25:56.007812500,-46.0,15.0,43.25,78.81929687499999,-70.795,0.57532590625,238.65
2021-06-21 12:25:56.015625000,-46.0,15.0,43.5,78.81859374999999,-73.65,0.5752058125,238.65
2021-06-21 12:25:56.023437500,-46.0,15.0,43.75,78.81789062499999,-76.53,0.57508571875,238.65
2021-06-21 12:25:56.031250000,-46.0,15.0,44.0,78.81718749999999,-79.41,0.574965625,238.65
2021-06-21 12:25:56.039062500,-45.75,15.0,44.0,78.81648437499999,-83.27,0.57484553125,238.65
2021-06-21 12:25:56.046875000,-45.5,15.0,44.0,78.81578125,-87.13,0.5747254375,238.65
2021-06-21 12:25:56.054687500,-45.25,15.0,44.0,78.815078125,-92.75999999999999,0.57460534375,238.65
2021-06-21 12:25:56.062500000,-45.0,15.0,44.0,78.814375,-98.39,0.57448525,238.65
2021-06-21 12:25:56.070312500,-45.5,15.0,43.75,78.813671875,-105.945,0.57436515625,238.65
2021-06-21 12:25:56.078125000,-46.0,15.0,43.5,78.81296875,-113.5,0.5742450625,238.65
2021-06-21 12:25:56.085937500,-46.5,15.0,43.25,78.812265625,-122.085,0.57412496875,238.65
2021-06-21 12:25:56.093750000,-47.0,15.0,43.0,78.8115625,-130.67,0.574004875,238.65
2021-06-21 12:25:56.101562500,-46.75,15.0,43.0,78.81085937499999,-138.3,0.57388478125,238.65
2021-06-21 12:25:56.109375000,-46.5,15.0,43.0,78.81015624999999,-145.93,0.5737646875,238.65
2021-06-21 12:25:56.117187500,-46.25,15.0,43.0,78.80945312499999,-150.025,0.57364459375,238.65
2021-06-21 12:25:56.125000000,-46.0,15.0,43.0,78.80874999999999,-154.12,0.5735245,238.65
2021-06-21 12:25:56.132812500,-46.0,15.0,43.0,78.80804687499999,-152.35500000000002,0.57340440625,238.65
2021-06-21 12:25:56.140625000,-46.0,15.0,43.0,78.80734375,-150.59,0.5732843125,238.65
2021-06-21 12:25:56.148437500,-46.0,15.0,43.0,78.806640625,-141.825,0.57316421875,238.65
2021-06-21 12:25:56.156250000,-46.0,15.0,43.0,78.8059375,-133.06,0.573044125,238.65
2021-06-21 12:25:56.164062500,-46.0,15.0,43.25,78.805234375,-117.825,0.57292403125,238.65
2021-06-21 12:25:56.171875000,-46.0,15.0,43.5,78.80453125,-102.59,0.5728039375,238.65
2021-06-21 12:25:56.179687500,-46.0,15.0,43.75,78.803828125,-82.925,0.57268384375,238.65
2021-06-21 12:25:56.187500000,-46.0,15.0,44.0,78.803125,-63.26,0.57256375,238.65
2021-06-21 12:25:56.195312500,-46.0,15.0,43.75,78.802421875,-42.004999999999995,0.5724436562499999,238.65
2021-06-21 12:25:56.203125000,-46.0,15.0,43.5,78.80171874999999,-20.75,0.5723235624999999,238.65
2021-06-21 12:25:56.210937500,-46.0,15.0,43.25,78.80101562499999,-0.6449999999999996,0.5722034687499999,238.65
2021-06-21 12:25:56.218750000,-46.0,15.0,43.0,78.80031249999999,19.46,0.572083375,238.65
2021-06-21 12:25:56.226562500,-46.0,15.0,43.0,78.79960937499999,36.504999999999995,0.57196328125,238.65
2021-06-21 12:25:56.234375000,-46.0,15.0,43.0,78.79890625,53.55,0.5718431875,238.65
2021-06-21 12:25:56.242187500,-46.0,15.0,43.0,78.798203125,66.65,0.57172309375,238.65
2021-06-21 12:25:56.250000000,-46.0,15.0,43.0,78.7975,79.75,0.571603,238.65
2021-06-21 12:25:56.257812500,-46.0,15.0,43.0,78.796796875,88.805,0.57172309375,238.65
2021-06-21 12:25:56.265625000,-46.0,15.0,43.0,78.79609375,97.86,0.5718431875,238.65
2021-06-21 12:25:56.273437500,-46.0,15.0,43.0,78.795390625,103.11500000000001,0.57196328125,238.65
2021-06-21 12:25:56.281250000,-46.0,15.0,43.0,78.7946875,108.37,0.572083375,238.65
2021-06-21 12:25:56.289062500,-46.0,15.0,43.0,78.793984375,110.07,0.5722034687499999,238.65
2021-06-21 12:25:56.296875000,-46.0,15.0,43.0,78.79328124999999,111.77,0.5723235624999999,238.65
2021-06-21 12:25:56.304687500,-46.0,15.0,43.0,78.79257812499999,110.175,0.5724436562499999,238.65
2021-06-21 12:25:56.312500000,-46.0,15.0,43.0,78.79187499999999,108.58,0.57256375,238.65
2021-06-21 12:25:56.320312500,-46.0,15.0,43.0,78.791171875,104.17,0.57268384375,238.65
2021-06-21 12:25:56.328125000,-46.0,15.0,43.0,78.79046875,99.76,0.5728039375,238.65
2021-06-21 12:25:56.335937500,-46.0,15.0,43.0,78.789765625,93.465,0.57292403125,238.65
2021-06-21 12:25:56.343750000,-46.0,15.0,43.0,78.7890625,87.17,0.573044125,238.65
2021-06-21 12:25:56.351562500,-46.0,15.0,43.25,78.788359375,80.33,0.57316421875,238.65
2021-06-21 12:25:56.359375000,-46.0,15.0,43.5,78.78765625,73.49,0.5732843125,238.65
2021-06-21 12:25:56.367187500,-46.0,15.0,43.75,78.786953125,67.57499999999999,0.57340440625,238.65
2021-06-21 12:25:56.375000000,-46.0,15.0,44.0,78.78625,61.66,0.5735245,238.65
2021-06-21 12:25:56.382812500,-46.0,15.0,43.75,78.785546875,57.754999999999995,0.57364459375,238.65
2021-06-21 12:25:56.390625000,-46.0,15.0,43.5,78.78484375,53.85,0.5737646875,238.65
2021-06-21 12:25:56.398437500,-46.0,15.0,43.25,78.78414062499999,52.31,0.57388478125,238.65
2021-06-21 12:25:56.406250000,-46.0,15.0,43.0,78.78343749999999,50.77,0.574004875,238.65
2021-06-21 12:25:56.414062500,-46.0,15.0,43.0,78.782734375,51.16,0.57412496875,238.65
2021-06-21 12:25:56.421875000,-46.0,15.0,43.0,78.78203125,51.55,0.5742450625,238.65
2021-06-21 12:25:56.429687500,-46.0,15.0,43.0,78.781328125,52.89,0.57436515625,238.65
2021-06-21 12:25:56.437500000,-46.0,15.0,43.0,78.780625,54.23,0.57448525,238.65
2021-06-21 12:25:56.445312500,-46.0,15.0,43.0,78.779921875,55.525,0.57460534375,238.65
2021-06-21 12:25:56.453125000,-46.0,15.0,43.0,78.77921875,56.82,0.5747254375,238.65
2021-06-21 12:25:56.460937500,-46.0,15.0,43.0,78.778515625,57.415,0.57484553125,238.65
2021-06-21 12:25:56.468750000,-46.0,15.0,43.0,78.7778125,58.01,0.574965625,238.65
2021-06-21 12:25:56.476562500,-46.0,15.0,43.25,78.777109375,57.769999999999996,0.57508571875,238.65
2021-06-21 12:25:56.484375000,-46.0,15.0,43.5,78.77640625,57.53,0.5752058125,238.65
2021-06-21 12:25:56.492187500,-46.0,15.0,43.75,78.77570312499999,56.705,0.57532590625,238.65
2021-06-21 12:25:56.500000000,-46.0,15.0,44.0,78.775,55.88,0.575446,238.65
2021-06-21 12:25:56.507812500,-46.0,15.0,43.75,78.774296875,54.769999999999996,0.57540596875,238.65
2021-06-21 12:25:56.515625000,-46.0,15.0,43.5,78.77359375,53.66,0.5753659375,238.65
2021-06-21 12:25:56.523437500,-46.0,15.0,43.25,78.772890625,52.355,0.57532590625,238.65
2021-06-21 12:25:56.531250000,-46.0,15.0,43.0,78.7721875,51.05,0.5752858750000001,238.65
2021-06-21 12:25:56.539062500,-46.0,15.0,43.0,78.771484375,49.325,0.57524584375,238.65
2021-06-21 12:25:56.546875000,-46.0,15.0,43.0,78.77078125,47.6,0.5752058125,238.65
2021-06-21 12:25:56.554687500,-46.0,15.0,43.0,78.770078125,45.010000000000005,0.5751657812500001,238.65
2021-06-21 12:25:56.562500000,-46.0,15.0,43.0,78.769375,42.42,0.57512575,238.65
2021-06-21 12:25:56.570312500,-46.0,15.0,43.0,78.768671875,38.525000000000006,0.57508571875,238.65
2021-06-21 12:25:56.578125000,-46.0,15.0,43.0,78.76796875,34.63,0.5750456875000001,238.65
2021-06-21 12:25:56.585937500,-46.0,15.0,43.0,78.767265625,29.23,0.57500565625,238.65
2021-06-21 12:25:56.593750000,-46.0,15.0,43.0,78.7665625,23.83,0.574965625,238.65
2021-06-21 12:25:56.601562500,-46.0,15.0,43.0,78.765859375,17.03,0.5749255937500001,238.65
2021-06-21 12:25:56.609375000,-46.0,15.0,43.0,78.76515625,10.23,0.5748855625,238.65
2021-06-21 12:25:56.617187500,-46.0,15.0,43.0,78.764453125,2.4400000000000004,0.57484553125,238.65
2021-06-21 12:25:56.625000000,-46.0,15.0,43.0,78.76375,-5.35,0.5748055000000001,238.65
2021-06-21 12:25:56.632812500,-46.0,15.0,43.0,78.763046875,-13.540000000000001,0.57476546875,238.65
2021-06-21 12:25:56.640625000,-46.0,15.0,43.0,78.76234375,-21.73,0.5747254375,238.65
2021-06-21 12:25:56.648437500,-46.0,15.0,43.0,78.761640625,-29.665,0.57468540625,238.65
2021-06-21 12:25:56.656250000,-46.0,15.0,43.0,78.7609375,-37.6,0.574645375,238.65
2021-06-21 12:25:56.664062500,-46.25,15.0,43.0,78.760234375,-44.665,0.57460534375,238.65
2021-06-21 12:25:56.671875000,-46.5,15.0,43.0,78.75953125,-51.73,0.5745653125,238.65
2021-06-21 12:25:56.679687500,-46.75,15.0,43.0,78.758828125,-57.47,0.57452528125,238.65
2021-06-21 12:25:56.687500000,-47.0,15.0,43.0,78.758125,-63.21,0.5744852500000001,238.65
2021-06-21 12:25:56.695312500,-46.75,15.0,43.25,78.757421875,-67.455,0.57444521875,238.65
2021-06-21 12:25:56.703125000,-46.5,15.0,43.5,78.75671875,-71.7,0.5744051875,238.65
2021-06-21 12:25:56.710937500,-46.25,15.0,43.75,78.756015625,-74.705,0.5743651562500001,238.65
2021-06-21 12:25:56.718750000,-46.0,15.0,44.0,78.7553125,-77.71,0.574325125,238.65
2021-06-21 12:25:56.726562500,-46.0,15.0,44.0,78.754609375,-80.235,0.57428509375,238.65
2021-06-21 12:25:56.734375000,-46.0,15.0,44.0,78.75390625,-82.76,0.5742450625000001,238.65
2021-06-21 12:25:56.742187500,-46.0,15.0,44.0,78.753203125,-85.92500000000001,0.57420503125,238.65
2021-06-21 12:25:56.750000000,-46.0,15.0,44.0,78.7525,-89.09,0.574165,238.65
2021-06-21 12:25:56.757812500,-46.0,15.0,43.75,78.751796875,-94.0,0.5741249687500001,238.65
2021-06-21 12:25:56.765625000,-46.0,15.0,43.5,78.75109375,-98.91,0.5740849375,238.65
2021-06-21 12:25:56.773437500,-46.0,15.0,43.25,78.75039062500001,-106.06,0.57404490625,238.65
2021-06-21 12:25:56.781250000,-46.0,15.0,43.0,78.74968750000001,-113.21,0.574004875,238.65
2021-06-21 12:25:56.789062500,-46.0,15.0,43.0,78.748984375,-122.01499999999999,0.57396484375,238.65
2021-06-21 12:25:56.796875000,-46.0,15.0,43.0,78.74828125,-130.82,0.5739248125,238.65
2021-06-21 12:25:56.804687500,-46.0,15.0,43.0,78.747578125,-139.43,0.57388478125,238.65
