TimeStamp,empatica.acc.x,empatica.acc.y,empatica.acc.z,empatica.hr,empatica.bvp,empatica.eda,empatica.temp
2021-06-21 12:35:36.562500000,-46.0,-14.0,43.0,77.418125,65.12,0.34838475,238.65
2021-06-21 12:35:36.570312500,-46.0,-14.0,43.0,77.417265625,66.20500000000001,0.34818459375,238.65
2021-06-21 12:35:36.578125000,-46.0,-14.0,43.0,77.41640625000001,67.29,0.3479844375,238.65
2021-06-21 12:35:36.585937500,-46.0,-14.0,43.0,77.415546875,67.325,0.34778428125000005,238.65
2021-06-21 12:35:36.593750000,-46.0,-14.0,43.0,77.4146875,67.36,0.347584125,238.65
2021-06-21 12:35:36.601562500,-46.25,-14.0,42.75,77.41382812500001,66.655,0.34738396875,238.65
2021-06-21 12:35:36.609375000,-46.5,-14.0,42.5,77.41296875,65.95,0.3471838125,238.65
2021-06-21 12:35:36.617187500,-46.75,-14.0,42.25,77.412109375,64.735,0.34698365625000005,238.65
2021-06-21 12:35:36.625000000,-47.0,-14.0,42.0,77.41125000000001,63.52,0.3467835,238.65
2021-06-21 12:35:36.632812500,-46.75,-14.0,42.25,77.410390625,62.010000000000005,0.34658334375,238.65
2021-06-21 12:35:36.640625000,-46.5,-14.0,42.5,77.40953125,60.5,0.3463831875,238.65
2021-06-21 12:35:36.648437500,-46.25,-14.0,42.75,77.40867187500001,58.875,0.34618303125000005,238.65
2021-06-21 12:35:36.656250000,-46.0,-14.0,43.0,77.4078125,57.25,0.345982875,238.65
2021-06-21 12:35:36.664062500,-46.25,-14.0,43.0,77.406953125,55.67,0.34578271875,238.65
2021-06-21 12:35:36.671875000,-46.5,-14.0,43.0,77.40609375000001,54.09,0.3455825625,238.65
2021-06-21 12:35:36.679687500,-46.75,-14.0,43.0,77.405234375,52.67,0.34538240625000005,238.65
2021-06-21 12:35:36.687500000,-47.0,-14.0,43.0,77.404375,51.25,0.34518225,238.65
2021-06-21 12:35:36.695312500,-46.75,-14.0,43.0,77.40351562500001,50.1,0.34498209375,238.65
2021-06-21 12:35:36.703125000,-46.5,-14.0,43.0,77.40265625,48.95,0.3447819375,238.65
2021-06-21 12:35:36.710937500,-46.25,-14.0,43.0,77.401796875,48.155,0.34458178125000005,238.65
2021-06-21 12:35:36.718750000,-46.0,-14.0,43.0,77.4009375,47.36,0.344381625,238.65
2021-06-21 12:35:36.726562500,-46.25,-14.0,42.75,77.40007812500001,46.96,0.34418146875,238.65
2021-06-21 12:35:36.734375000,-46.5,-14.0,42.5,77.39921875,46.56,0.3439813125,238.65
2021-06-21 12:35:36.742187500,-46.75,-14.0,42.25,77.398359375,46.565,0.34378115625000005,238.65
2021-06-21 12:35:36.750000000,-47.0,-14.0,42.0,77.39750000000001,46.57,0.343581,238.65
2021-06-21 12:35:36.757812500,-46.75,-14.0,42.0,77.396640625,46.9,0.34370109375,238.65
2021-06-21 12:35:36.765625000,-46.5,-14.0,42.0,77.39578125,47.23,0.3438211875,238.65
2021-06-21 12:35:36.773437500,-46.25,-14.0,42.0,77.39492187500001,47.709999999999994,0.34394128125,238.65
2021-06-21 12:35:36.781250000,-46.0,-14.0,42.0,77.3940625,48.19,0.344061375,238.65
2021-06-21 12:35:36.789062500,-46.0,-14.0,42.25,77.393203125,48.555,0.34418146875,238.65
2021-06-21 12:35:36.796875000,-46.0,-14.0,42.5,77.39234375000001,48.92,0.34430156250000005,238.65
2021-06-21 12:35:36.804687500,-46.0,-14.0,42.75,77.391484375,48.835,0.34442165625000004,238.65
2021-06-21 12:35:36.812500000,-46.0,-14.0,43.0,77.390625,48.75,0.34454175000000004,238.65
2021-06-21 12:35:36.820312500,-46.25,-14.0,43.0,77.38976562500001,47.870000000000005,0.34466184375000003,238.65
2021-06-21 12:35:36.828125000,-46.5,-14.0,43.0,77.38890625,46.99,0.3447819375,238.65
2021-06-21 12:35:36.835937500,-46.75,-14.0,43.0,77.388046875,45.08,0.34490203125,238.65
2021-06-21 12:35:36.843750000,-47.0,-14.0,43.0,77.38718750000001,43.17,0.345022125,238.65
2021-06-21 12:35:36.851562500,-47.0,-14.0,43.0,77.386328125,40.150000000000006,0.34514221875,238.65
2021-06-21 12:35:36.859375000,-47.0,-14.0,43.0,77.38546875,37.13,0.3452623125,238.65
2021-06-21 12:35:36.867187500,-47.0,-14.0,43.0,77.38460937500001,33.120000000000005,0.34538240625,238.65
2021-06-21 12:35:36.875000000,-47.0,-14.0,43.0,77.38375,29.11,0.34550250000000005,238.65
2021-06-21 12:35:36.882812500,-47.0,-14.0,43.0,77.382890625,24.42,0.34562259375000004,238.65
2021-06-21 12:35:36.890625000,-47.0,-14.0,43.0,77.38203125000001,19.73,0.34574268750000003,238.65
2021-06-21 12:35:36.898437500,-47.0,-14.0,43.0,77.381171875,14.77,0.34586278125000003,238.65
2021-06-21 12:35:36.906250000,-47.0,-14.0,43.0,77.3803125,9.81,0.345982875,238.65
2021-06-21 12:35:36.914062500,-46.75,-14.0,43.0,77.379453125,4.99,0.34610296875,238.65
2021-06-21 12:35:36.921875000,-46.5,-14.0,43.0,77.37859375000001,0.17,0.3462230625,238.65
2021-06-21 12:35:36.929687500,-46.25,-14.0,43.0,77.377734375,-4.235,0.34634315625,238.65
2021-06-21 12:35:36.937500000,-46.0,-14.0,43.0,77.376875,-8.64,0.34646325,238.65
2021-06-21 12:35:36.945312500,-46.0,-14.0,43.0,77.37601562500001,-12.6,0.34658334375,238.65
2021-06-21 12:35:36.953125000,-46.0,-14.0,43.0,77.37515625,-16.56,0.3467034375,238.65
2021-06-21 12:35:36.960937500,-46.0,-14.0,43.0,77.374296875,-20.335,0.34682353125000004,238.65
2021-06-21 12:35:36.968750000,-46.0,-14.0,43.0,77.37343750000001,-24.11,0.34694362500000003,238.65
2021-06-21 12:35:36.976562500,-46.25,-14.0,43.0,77.372578125,-28.134999999999998,0.34706371875,238.65
2021-06-21 12:35:36.984375000,-46.5,-14.0,43.0,77.37171875,-32.16,0.3471838125,238.65
2021-06-21 12:35:36.992187500,-46.75,-14.0,43.0,77.37085937500001,-36.864999999999995,0.34730390625,238.65
2021-06-21 12:35:37.000000000,-47.0,-14.0,43.0,77.37,-41.57,0.347424,238.65
2021-06-21 12:35:37.007812500,-46.75,-14.0,43.0,77.36828125000001,-47.07,0.34730390625,238.65
2021-06-21 12:35:37.015625000,-46.5,-14.0,43.0,77.3665625,-52.57,0.3471838125,238.65
2021-06-21 12:35:37.023437500,-46.25,-14.0,43.0,77.36484375,-58.45,0.34706371875,238.65
2021-06-21 12:35:37.031250000,-46.0,-14.0,43.0,77.36312500000001,-64.33,0.34694362500000003,238.65
2021-06-21 12:35:37.039062500,-46.0,-14.0,43.0,77.36140625,-69.6,0.34682353125000004,238.65
2021-06-21 12:35:37.046875000,-46.0,-14.0,43.0,77.3596875,-74.87,0.3467034375,238.65
2021-06-21 12:35:37.054687500,-46.0,-14.0,43.0,77.35796875,-78.17500000000001,0.34658334375,238.65
2021-06-21 12:35:37.062500000,-46.0,-14.0,43.0,77.35625,-81.48,0.34646325,238.65
2021-06-21 12:35:37.070312500,-46.0,-14.0,43.0,77.35453125000001,-81.535,0.34634315625,238.65
2021-06-21 12:35:37.078125000,-46.0,-14.0,43.0,77.3528125,-81.59,0.3462230625,238.65
2021-06-21 12:35:37.085937500,-46.0,-14.0,43.0,77.35109375,-77.685,0.34610296875,238.65
2021-06-21 12:35:37.093750000,-46.0,-14.0,43.0,77.34937500000001,-73.78,0.345982875,238.65
2021-06-21 12:35:37.101562500,-46.25,-14.0,43.0,77.34765625,-66.055,0.34586278125000003,238.65
2021-06-21 12:35:37.109375000,-46.5,-14.0,43.0,77.3459375,-58.33,0.34574268750000003,238.65
2021-06-21 12:35:37.117187500,-46.75,-14.0,43.0,77.34421875000001,-47.815,0.34562259375000004,238.65
2021-06-21 12:35:37.125000000,-47.0,-14.0,43.0,77.3425,-37.3,0.34550250000000005,238.65
2021-06-21 12:35:37.132812500,-47.0,-14.0,43.0,77.34078125,-25.544999999999998,0.34538240625,238.65
2021-06-21 12:35:37.140625000,-47.0,-14.0,43.0,77.33906250000001,-13.79,0.3452623125,238.65
2021-06-21 12:35:37.148437500,-47.0,-14.0,43.0,77.33734375,-2.41,0.34514221875,238.65
2021-06-21 12:35:37.156250000,-47.0,-14.0,43.0,77.33562500000001,8.97,0.345022125,238.65
2021-06-21 12:35:37.164062500,-46.75,-14.0,43.0,77.33390625,18.765,0.34490203125,238.65
2021-06-21 12:35:37.171875000,-46.5,-14.0,43.0,77.3321875,28.56,0.3447819375,238.65
2021-06-21 12:35:37.179687500,-46.25,-14.0,43.0,77.33046875000001,36.16,0.34466184375000003,238.65
2021-06-21 12:35:37.187500000,-46.0,-14.0,43.0,77.32875,43.76,0.34454175000000004,238.65
2021-06-21 12:35:37.195312500,-46.0,-14.0,43.0,77.32703125,49.105000000000004,0.34442165625000004,238.65
2021-06-21 12:35:37.203125000,-46.0,-14.0,43.0,77.32531250000001,54.45,0.34430156250000005,238.65
2021-06-21 12:35:37.210937500,-46.0,-14.0,43.0,77.32359375,57.84,0.34418146875,238.65
2021-06-21 12:35:37.218750000,-46.0,-14.0,43.0,77.321875,61.23,0.344061375,238.65
2021-06-21 12:35:37.226562500,-46.0,-14.0,43.0,77.32015625000001,63.099999999999994,0.34394128125,238.65
2021-06-21 12:35:37.234375000,-46.0,-14.0,43.0,77.3184375,64.97,0.3438211875,238.65
2021-06-21 12:35:37.242187500,-46.0,-14.0,43.0,77.31671875,65.71000000000001,0.34370109375,238.65
2021-06-21 12:35:37.250000000,-46.0,-14.0,43.0,77.315,66.45,0.343581,238.65
2021-06-21 12:35:37.257812500,-46.0,-14.0,43.0,77.31328125,66.36,0.34370109375,238.65
2021-06-21 12:35:37.265625000,-46.0,-14.0,43.0,77.31156250000001,66.27,0.3438211875,238.65
2021-06-21 12:35:37.273437500,-46.0,-14.0,43.0,77.30984375,65.595,0.34394128125,238.65
2021-06-21 12:35:37.281250000,-46.0,-14.0,43.0,77.308125,64.92,0.344061375,238.65
2021-06-21 12:35:37.289062500,-46.0,-14.0,43.0,77.30640625000001,63.86,0.34418146875,238.65
2021-06-21 12:35:37.296875000,-46.0,-14.0,43.0,77.3046875,62.8,0.34430156250000005,238.65
2021-06-21 12:35:37.304687500,-46.0,-14.0,43.0,77.30296875,61.519999999999996,0.34442165625000004,238.65
2021-06-21 12:35:37.312500000,-46.0,-14.0,43.0,77.30125000000001,60.24,0.34454175000000004,238.65
2021-06-21 12:35:37.320312500,-46.0,-14.0,43.0,77.29953125,58.86,0.34466184375000003,238.65
2021-06-21 12:35:37.328125000,-46.0,-14.0,43.0,77.2978125,57.48,0.3447819375,238.65
2021-06-21 12:35:37.335937500,-46.0,-14.0,43.0,77.29609375000001,56.09,0.34490203125,238.65
2021-06-21 12:35:37.343750000,-46.0,-14.0,43.0,77.294375,54.7,0.345022125,238.65
2021-06-21 12:35:37.351562500,-46.0,-14.0,43.0,77.29265625000001,53.34,0.34514221875,238.65
2021-06-21 12:35:37.359375000,-46.0,-14.0,43.0,77.2909375,51.98,0.3452623125,238.65
2021-06-21 12:35:37.367187500,-46.0,-14.0,43.0,77.28921875,50.665,0.34538240625,238.65
2021-06-21 12:35:37.375000000,-46.0,-14.0,43.0,77.28750000000001,49.35,0.34550250000000005,238.65
2021-06-21 12:35:37.382812500,-46.0,-14.0,43.0,77.28578125,48.115,0.34562259375000004,238.65
2021-06-21 12:35:37.390625000,-46.0,-14.0,43.0,77.2840625,46.88,0.34574268750000003,238.65
2021-06-21 12:35:37.398437500,-46.0,-14.0,43.0,77.28234375000001,45.765,0.34586278125000003,238.65
2021-06-21 12:35:37.406250000,-46.0,-14.0,43.0,77.280625,44.65,0.345982875,238.65
2021-06-21 12:35:37.414062500,-46.0,-14.25,42.75,77.27890625,43.7,0.34610296875,238.65
2021-06-21 12:35:37.421875000,-46.0,-14.5,42.5,77.27718750000001,42.75,0.3462230625,238.65
2021-06-21 12:35:37.429687500,-46.0,-14.75,42.25,77.27546875,42.004999999999995,0.34634315625,238.65
2021-06-21 12:35:37.437500000,-46.0,-15.0,42.0,77.27375,41.26,0.34646325,238.65
2021-06-21 12:35:37.445312500,-46.0,-14.75,42.25,77.27203125000001,40.685,0.34658334375,238.65
2021-06-21 12:35:37.453125000,-46.0,-14.5,42.5,77.2703125,40.11,0.3467034375,238.65
2021-06-21 12:35:37.460937500,-46.0,-14.25,42.75,77.26859375000001,39.56,0.34682353125000004,238.65
2021-06-21 12:35:37.468750000,-46.0,-14.0,43.0,77.266875,39.01,0.34694362500000003,238.65
2021-06-21 12:35:37.476562500,-46.25,-14.0,43.0,77.26515625,38.224999999999994,0.34706371875,238.65
2021-06-21 12:35:37.484375000,-46.5,-14.0,43.0,77.26343750000001,37.44,0.3471838125,238.65
2021-06-21 12:35:37.492187500,-46.75,-14.0,43.0,77.26171875,36.11,0.34730390625,238.65
2021-06-21 12:35:37.500000000,-47.0,-14.0,43.0,77.26,34.78,0.347424,238.65
2021-06-21 12:35:37.507812500,-46.75,-14.0,43.0,77.25828125000001,32.63,0.34730390625,238.65
2021-06-21 12:35:37.515625000,-46.5,-14.0,43.0,77.2565625,30.48,0.3471838125,238.65
2021-06-21 12:35:37.523437500,-46.25,-14.0,43.0,77.25484375,27.365000000000002,0.34706371875,238.65
2021-06-21 12:35:37.531250000,-46.0,-14.0,43.0,77.25312500000001,24.25,0.34694362500000003,238.65
2021-06-21 12:35:37.539062500,-46.25,-14.0,43.0,77.25140625,20.259999999999998,0.34682353125000004,238.65
2021-06-21 12:35:37.546875000,-46.5,-14.0,43.0,77.24968750000001,16.27,0.3467034375,238.65
2021-06-21 12:35:37.554687500,-46.75,-14.0,43.0,77.24796875,11.675,0.34658334375,238.65
2021-06-21 12:35:37.562500000,-47.0,-14.0,43.0,77.24625,7.08,0.34646325,238.65
2021-06-21 12:35:37.570312500,-46.75,-14.0,43.0,77.24453125000001,2.295,0.34634315625,238.65
2021-06-21 12:35:37.578125000,-46.5,-14.0,43.0,77.2428125,-2.49,0.3462230625,238.65
2021-06-21 12:35:37.585937500,-46.25,-14.0,43.0,77.24109375,-7.075,0.34610296875,238.65
2021-06-21 12:35:37.593750000,-46.0,-14.0,43.0,77.23937500000001,-11.66,0.345982875,238.65
2021-06-21 12:35:37.601562500,-46.0,-14.0,43.0,77.23765625,-15.795,0.34586278125000003,238.65
2021-06-21 12:35:37.609375000,-46.0,-14.0,43.0,77.2359375,-19.93,0.34574268750000003,238.65
2021-06-21 12:35:37.617187500,-46.0,-14.0,43.0,77.23421875000001,-23.64,0.34562259375000004,238.65
2021-06-21 12:35:37.625000000,-46.0,-14.0,43.0,77.2325,-27.35,0.34550250000000005,238.65
2021-06-21 12:35:37.632812500,-46.0,-14.0,43.0,77.23078125,-30.94,0.34538240625,238.65
2021-06-21 12:35:37.640625000,-46.0,-14.0,43.0,77.22906250000001,-34.53,0.3452623125,238.65
2021-06-21 12:35:37.648437500,-46.0,-14.0,43.0,77.22734375,-38.510000000000005,0.34514221875,238.65
2021-06-21 12:35:37.656250000,-46.0,-14.0,43.0,77.22562500000001,-42.49,0.345022125,238.65
2021-06-21 12:35:37.664062500,-46.0,-14.0,43.0,77.22390625,-47.385000000000005,0.34490203125,238.65
2021-06-21 12:35:37.671875000,-46.0,-14.0,43.0,77.2221875,-52.28,0.3447819375,238.65
2021-06-21 12:35:37.679687500,-46.0,-14.0,43.0,77.22046875000001,-58.3,0.34466184375000003,238.65
2021-06-21 12:35:37.687500000,-46.0,-14.0,43.0,77.21875,-64.32,0.34454175000000004,238.65
2021-06-21 12:35:37.695312500,-46.0,-14.0,42.75,77.21703125,-71.115,0.34442165625000004,238.65
2021-06-21 12:35:37.703125000,-46.0,-14.0,42.5,77.21531250000001,-77.91,0.34430156250000005,238.65
2021-06-21 12:35:37.710937500,-46.0,-14.0,42.25,77.21359375,-84.52,0.34418146875,238.65
2021-06-21 12:35:37.718750000,-46.0,-14.0,42.0,77.211875,-91.13,0.344061375,238.65
2021-06-21 12:35:37.726562500,-46.0,-14.0,42.25,77.21015625000001,-96.16499999999999,0.34394128125,238.65
2021-06-21 12:35:37.734375000,-46.0,-14.0,42.5,77.2084375,-101.2,0.3438211875,238.65
2021-06-21 12:35:37.742187500,-46.0,-14.0,42.75,77.20671875000001,-103.265,0.34370109375,238.65
2021-06-21 12:35:37.750000000,-46.0,-14.0,43.0,77.20500000000001,-105.33,0.343581,238.65
2021-06-21 12:35:37.757812500,-46.0,-14.0,43.0,77.20328125,-103.535,0.34370109375,238.65
2021-06-21 12:35:37.765625000,-46.0,-14.0,43.0,77.20156250000001,-101.74,0.3438211875,238.65
2021-06-21 12:35:37.773437500,-46.0,-14.0,43.0,77.19984375,-96.025,0.34394128125,238.65
2021-06-21 12:35:37.781250000,-46.0,-14.0,43.0,77.198125,-90.31,0.344061375,238.65
2021-06-21 12:35:37.789062500,-46.0,-14.0,43.0,77.19640625000001,-81.44,0.34418146875,238.65
2021-06-21 12:35:37.796875000,-46.0,-14.0,43.0,77.1946875,-72.57,0.34430156250000005,238.65
2021-06-21 12:35:37.804687500,-46.0,-14.0,43.0,77.19296875,-61.864999999999995,0.34442165625000004,238.65
2021-06-21 12:35:37.812500000,-46.0,-14.0,43.0,77.19125000000001,-51.16,0.34454175000000004,238.65
2021-06-21 12:35:37.820312500,-46.0,-14.0,43.0,77.18953125,-40.055,0.34466184375000003,238.65
2021-06-21 12:35:37.828125000,-46.0,-14.0,43.0,77.1878125,-28.95,0.3447819375,238.65
2021-06-21 12:35:37.835937500,-46.0,-14.0,43.0,77.18609375000001,-18.6,0.34490203125,238.65
2021-06-21 12:35:37.843750000,-46.0,-14.0,43.0,77.184375,-8.25,0.345022125,238.65
2021-06-21 12:35:37.851562500,-46.0,-14.0,43.0,77.18265625000001,0.6349999999999998,0.34514221875,238.65
2021-06-21 12:35:37.859375000,-46.0,-14.0,43.0,77.1809375,9.52,0.3452623125,238.65
2021-06-21 12:35:37.867187500,-46.0,-14.0,43.0,77.17921875,16.689999999999998,0.34538240625,238.65
2021-06-21 12:35:37.875000000,-46.0,-14.0,43.0,77.17750000000001,23.86,0.34550250000000005,238.65
2021-06-21 12:35:37.882812500,-46.0,-14.0,43.0,77.17578125,29.39,0.34562259375000004,238.65
2021-06-21 12:35:37.890625000,-46.0,-14.0,43.0,77.1740625,34.92,0.34574268750000003,238.65
2021-06-21 12:35:37.898437500,-46.0,-14.0,43.0,77.17234375000001,39.055,0.34586278125000003,238.65
2021-06-21 12:35:37.906250000,-46.0,-14.0,43.0,77.170625,43.19,0.345982875,238.65
2021-06-21 12:35:37.914062500,-46.0,-14.0,43.0,77.16890625,46.235,0.34610296875,238.65
2021-06-21 12:35:37.921875000,-46.0,-14.0,43.0,77.16718750000001,49.28,0.3462230625,238.65
2021-06-21 12:35:37.929687500,-46.0,-14.0,43.0,77.16546875,51.55,0.34634315625,238.65
2021-06-21 12:35:37.937500000,-46.0,-14.0,43.0,77.16375000000001,53.82,0.34646325,238.65
2021-06-21 12:35:37.945312500,-46.0,-14.0,42.75,77.16203125000001,55.555,0.34658334375,238.65
2021-06-21 12:35:37.953125000,-46.0,-14.0,42.5,77.1603125,57.29,0.3467034375,238.65
2021-06-21 12:35:37.960937500,-46.0,-14.0,42.25,77.15859375000001,58.655,0.34682353125000004,238.65
2021-06-21 12:35:37.968750000,-46.0,-14.0,42.0,77.156875,60.02,0.34694362500000003,238.65
2021-06-21 12:35:37.976562500,-46.0,-14.0,42.25,77.15515625,61.05,0.34706371875,238.65
2021-06-21 12:35:37.984375000,-46.0,-14.0,42.5,77.15343750000001,62.08,0.3471838125,238.65
2021-06-21 12:35:37.992187500,-46.0,-14.0,42.75,77.15171875,62.769999999999996,0.34730390625,238.65
2021-06-21 12:35:38.000000000,-46.0,-14.0,43.0,77.15,63.46,0.347424,238.65
2021-06-21 12:35:38.007812500,-46.0,-14.0,43.0,77.1484375,63.8,0.34738396875,238.65
2021-06-21 12:35:38.015625000,-46.0,-14.0,43.0,77.14687500000001,64.14,0.34734393750000003,238.65
2021-06-21 12:35:38.023437500,-46.0,-14.0,43.0,77.1453125,64.18,0.34730390625,238.65
2021-06-21 12:35:38.031250000,-46.0,-14.0,43.0,77.14375000000001,64.22,0.347263875,238.65
2021-06-21 12:35:38.039062500,-46.0,-14.0,43.0,77.1421875,64.065,0.34722384375,238.65
2021-06-21 12:35:38.046875000,-46.0,-14.0,43.0,77.140625,63.91,0.3471838125,238.65
2021-06-21 12:35:38.054687500,-46.0,-14.0,43.0,77.13906250000001,63.66,0.34714378125,238.65
2021-06-21 12:35:38.062500000,-46.0,-14.0,43.0,77.1375,63.41,0.34710375,238.65
2021-06-21 12:35:38.070312500,-46.0,-14.0,43.0,77.13593750000001,63.099999999999994,0.34706371875,238.65
2021-06-21 12:35:38.078125000,-46.0,-14.0,43.0,77.134375,62.79,0.3470236875,238.65
2021-06-21 12:35:38.085937500,-46.0,-14.0,43.0,77.1328125,62.379999999999995,0.34698365625,238.65
2021-06-21 12:35:38.093750000,-46.0,-14.0,43.0,77.13125000000001,61.97,0.346943625,238.65
2021-06-21 12:35:38.101562500,-46.0,-14.0,43.0,77.1296875,61.394999999999996,0.34690359375,238.65
2021-06-21 12:35:38.109375000,-46.0,-14.0,43.0,77.12812500000001,60.82,0.3468635625,238.65
2021-06-21 12:35:38.117187500,-46.0,-14.0,43.0,77.1265625,60.025,0.34682353125,238.65
2021-06-21 12:35:38.125000000,-46.0,-14.0,43.0,77.125,59.23,0.3467835,238.65
2021-06-21 12:35:38.132812500,-46.0,-14.0,43.0,77.12343750000001,58.25,0.34674346875,238.65
2021-06-21 12:35:38.140625000,-46.0,-14.0,43.0,77.121875,57.27,0.3467034375,238.65
2021-06-21 12:35:38.148437500,-46.0,-14.0,43.0,77.12031250000001,56.16,0.34666340625,238.65
2021-06-21 12:35:38.156250000,-46.0,-14.0,43.0,77.11875,55.05,0.346623375,238.65
2021-06-21 12:35:38.164062500,-46.25,-14.0,43.0,77.1171875,53.795,0.34658334375,238.65
2021-06-21 12:35:38.171875000,-46.5,-14.0,43.0,77.11562500000001,52.54,0.3465433125,238.65
2021-06-21 12:35:38.179687500,-46.75,-14.0,43.0,77.1140625,51.004999999999995,0.34650328124999996,238.65
2021-06-21 12:35:38.187500000,-47.0,-14.0,43.0,77.11250000000001,49.47,0.34646325,238.65
2021-06-21 12:35:38.195312500,-46.75,-14.0,43.0,77.1109375,47.379999999999995,0.34642321875,238.65
2021-06-21 12:35:38.203125000,-46.5,-14.0,43.0,77.109375,45.29,0.34638318749999997,238.65
2021-06-21 12:35:38.210937500,-46.25,-14.0,43.0,77.10781250000001,42.315,0.34634315625,238.65
2021-06-21 12:35:38.218750000,-46.0,-14.0,43.0,77.10625,39.34,0.346303125,238.65
2021-06-21 12:35:38.226562500,-46.0,-14.0,43.0,77.10468750000001,35.260000000000005,0.34626309375,238.65
2021-06-21 12:35:38.234375000,-46.0,-14.0,43.0,77.103125,31.18,0.34622306249999996,238.65
2021-06-21 12:35:38.242187500,-46.0,-14.0,43.0,77.1015625,26.025,0.34618303125,238.65
2021-06-21 12:35:38.250000000,-46.0,-14.0,43.0,77.10000000000001,20.87,0.346143,238.65
2021-06-21 12:35:38.257812500,-46.0,-14.0,43.0,77.0984375,14.975000000000001,0.3460629375,238.65
2021-06-21 12:35:38.265625000,-46.0,-14.0,43.0,77.09687500000001,9.08,0.34598287499999997,238.65
2021-06-21 12:35:38.273437500,-46.0,-14.0,43.0,77.0953125,3.0150000000000006,0.3459028125,238.65
2021-06-21 12:35:38.281250000,-46.0,-14.0,43.0,77.09375,-3.05,0.34582274999999996,238.65
2021-06-21 12:35:38.289062500,-46.0,-14.0,43.0,77.09218750000001,-8.675,0.3457426875,238.65
2021-06-21 12:35:38.296875000,-46.0,-14.0,43.0,77.090625,-14.3,0.345662625,238.65
2021-06-21 12:35:38.304687500,-46.0,-14.0,43.0,77.08906250000001,-19.03,0.34558256249999997,238.65
2021-06-21 12:35:38.312500000,-46.0,-14.0,43.0,77.0875,-23.76,0.3455025,238.65
2021-06-21 12:35:38.320312500,-46.0,-14.0,43.0,77.0859375,-27.505000000000003,0.3454224375,238.65
2021-06-21 12:35:38.328125000,-46.0,-14.0,43.0,77.08437500000001,-31.25,0.345342375,238.65
2021-06-21 12:35:38.335937500,-46.0,-14.0,43.0,77.0828125,-34.254999999999995,0.3452623125,238.65
2021-06-21 12:35:38.343750000,-46.0,-14.0,43.0,77.08125000000001,-37.26,0.34518225,238.65
2021-06-21 12:35:38.351562500,-46.0,-14.0,43.0,77.0796875,-40.084999999999994,0.3451021875,238.65
2021-06-21 12:35:38.359375000,-46.0,-14.0,43.0,77.078125,-42.91,0.345022125,238.65
2021-06-21 12:35:38.367187500,-46.0,-14.0,43.0,77.07656250000001,-46.215,0.3449420625,238.65
2021-06-21 12:35:38.375000000,-46.0,-14.0,43.0,77.075,-49.52,0.344862,238.65
2021-06-21 12:35:38.382812500,-46.0,-14.0,43.0,77.07343750000001,-53.89,0.3447819375,238.65
2021-06-21 12:35:38.390625000,-46.0,-14.0,43.0,77.071875,-58.26,0.344701875,238.65
2021-06-21 12:35:38.398437500,-46.0,-14.0,43.0,77.0703125,-63.94499999999999,0.3446218125,238.65
2021-06-21 12:35:38.406250000,-46.0,-14.0,43.0,77.06875000000001,-69.63,0.34454175,238.65
2021-06-21 12:35:38.414062500,-46.0,-14.0,43.0,77.0671875,-76.41499999999999,0.3444616875,238.65
2021-06-21 12:35:38.421875000,-46.0,-14.0,43.0,77.06562500000001,-83.2,0.344381625,238.65
2021-06-21 12:35:38.429687500,-46.0,-14.0,43.0,77.0640625,-90.33500000000001,0.3443015625,238.65
2021-06-21 12:35:38.437500000,-46.0,-14.0,43.0,77.0625,-97.47,0.3442215,238.65
2021-06-21 12:35:38.445312500,-46.0,-14.0,43.0,77.06093750000001,-103.72999999999999,0.34414143750000004,238.65
2021-06-21 12:35:38.453125000,-46.0,-14.0,43.0,77.059375,-109.99,0.344061375,238.65
2021-06-21 12:35:38.460937500,-46.0,-14.0,43.0,77.05781250000001,-113.945,0.3439813125,238.65
2021-06-21 12:35:38.468750000,-46.0,-14.0,43.0,77.05625,-117.9,0.34390125000000005,238.65
2021-06-21 12:35:38.476562500,-46.0,-14.0,43.0,77.0546875,-118.33000000000001,0.3438211875,238.65
2021-06-21 12:35:38.484375000,-46.0,-14.0,43.0,77.05312500000001,-118.76,0.34374112500000004,238.65
2021-06-21 12:35:38.492187500,-46.0,-14.0,43.0,77.0515625,-115.005,0.3436610625,238.65
2021-06-21 12:35:38.500000000,-46.0,-14.0,43.0,77.05000000000001,-111.25,0.343581,238.65
2021-06-21 12:35:38.507812500,-46.0,-14.0,43.0,77.0484375,-103.47,0.34374112500000004,238.65
2021-06-21 12:35:38.515625000,-46.0,-14.0,43.0,77.046875,-95.69,0.34390125000000005,238.65
2021-06-21 12:35:38.523437500,-46.0,-14.0,43.0,77.04531250000001,-84.86500000000001,0.344061375,238.65
2021-06-21 12:35:38.531250000,-46.0,-14.0,43.0,77.04375,-74.04,0.3442215,238.65
2021-06-21 12:35:38.539062500,-46.0,-14.0,43.0,77.0421875,-61.64,0.344381625,238.65
2021-06-21 12:35:38.546875000,-46.0,-14.0,43.0,77.040625,-49.24,0.34454175000000004,238.65
2021-06-21 12:35:38.554687500,-46.0,-14.0,43.0,77.0390625,-36.86,0.344701875,238.65
2021-06-21 12:35:38.562500000,-46.0,-14.0,43.0,77.03750000000001,-24.48,0.344862,238.65
2021-06-21 12:35:38.570312500,-46.0,-14.0,43.0,77.0359375,-13.425,0.345022125,238.65
2021-06-21 12:35:38.578125000,-46.0,-14.0,43.0,77.034375,-2.37,0.34518225,238.65
2021-06-21 12:35:38.585937500,-46.0,-14.0,43.0,77.0328125,6.6049999999999995,0.34534237500000003,238.65
2021-06-21 12:35:38.593750000,-46.0,-14.0,43.0,77.03125,15.58,0.3455025,238.65
2021-06-21 12:35:38.601562500,-46.0,-14.0,43.0,77.02968750000001,22.285,0.345662625,238.65
2021-06-21 12:35:38.609375000,-46.0,-14.0,43.0,77.028125,28.99,0.34582275,238.65
2021-06-21 12:35:38.617187500,-46.0,-14.0,43.0,77.0265625,33.695,0.345982875,238.65
2021-06-21 12:35:38.625000000,-46.0,-14.0,43.0,77.025,38.4,0.346143,238.65
2021-06-21 12:35:38.632812500,-46.25,-14.0,43.0,77.0234375,41.625,0.346303125,238.65
2021-06-21 12:35:38.640625000,-46.5,-14.0,43.0,77.02187500000001,44.85,0.34646325,238.65
2021-06-21 12:35:38.648437500,-46.75,-14.0,43.0,77.0203125,47.17,0.346623375,238.65
2021-06-21 12:35:38.656250000,-47.0,-14.0,43.0,77.01875,49.49,0.3467835,238.65
2021-06-21 12:35:38.664062500,-46.75,-14.0,43.0,77.0171875,51.36,0.346943625,238.65
2021-06-21 12:35:38.671875000,-46.5,-14.0,43.0,77.015625,53.23,0.34710375,238.65
2021-06-21 12:35:38.679687500,-46.25,-14.0,43.0,77.01406250000001,54.9,0.347263875,238.65
2021-06-21 12:35:38.687500000,-46.0,-14.0,43.0,77.0125,56.57,0.347424,238.65
2021-06-21 12:35:38.695312500,-46.0,-14.0,43.0,77.0109375,58.085,0.347584125,238.65
2021-06-21 12:35:38.703125000,-46.0,-14.0,43.0,77.009375,59.6,0.34774425,238.65
2021-06-21 12:35:38.710937500,-46.0,-14.0,43.0,77.0078125,60.865,0.347904375,238.65
2021-06-21 12:35:38.718750000,-46.0,-14.0,43.0,77.00625000000001,62.13,0.3480645,238.65
2021-06-21 12:35:38.726562500,-46.0,-14.0,43.0,77.0046875,63.035,0.348224625,238.65
2021-06-21 12:35:38.734375000,-46.0,-14.0,43.0,77.003125,63.94,0.34838474999999997,238.65
2021-06-21 12:35:38.742187500,-46.0,-14.0,43.0,77.0015625,64.435,0.348544875,238.65
2021-06-21 12:35:38.750000000,-46.0,-14.0,43.0,77.0,64.93,0.348705,238.65
2021-06-21 12:35:38.757812500,-46.0,-14.0,43.0,76.99843750000001,65.075,0.348544875,238.65
2021-06-21 12:35:38.765625000,-46.0,-14.0,43.0,76.996875,65.22,0.34838474999999997,238.65
2021-06-21 12:35:38.773437500,-46.0,-14.0,43.0,76.9953125,65.125,0.348224625,238.65
2021-06-21 12:35:38.781250000,-46.0,-14.0,43.0,76.99375,65.03,0.3480645,238.65
2021-06-21 12:35:38.789062500,-46.0,-14.0,43.0,76.9921875,64.795,0.347904375,238.65
2021-06-21 12:35:38.796875000,-46.0,-14.0,43.0,76.99062500000001,64.56,0.34774425,238.65
2021-06-21 12:35:38.804687500,-46.0,-14.0,43.0,76.9890625,64.2,0.347584125,238.65
2021-06-21 12:35:38.812500000,-46.0,-14.0,43.0,76.9875,63.84,0.347424,238.65
2021-06-21 12:35:38.820312500,-46.0,-14.0,42.75,76.9859375,63.3,0.347263875,238.65
2021-06-21 12:35:38.828125000,-46.0,-14.0,42.5,76.984375,62.76,0.34710375,238.65
2021-06-21 12:35:38.835937500,-46.0,-14.0,42.25,76.98281250000001,61.989999999999995,0.346943625,238.65
2021-06-21 12:35:38.843750000,-46.0,-14.0,42.0,76.98125,61.22,0.3467835,238.65
2021-06-21 12:35:38.851562500,-46.0,-14.0,42.25,76.9796875,60.185,0.346623375,238.65
2021-06-21 12:35:38.859375000,-46.0,-14.0,42.5,76.978125,59.15,0.34646325,238.65
2021-06-21 12:35:38.867187500,-46.0,-14.0,42.75,76.9765625,57.879999999999995,0.346303125,238.65
2021-06-21 12:35:38.875000000,-46.0,-14.0,43.0,76.97500000000001,56.61,0.346143,238.65
2021-06-21 12:35:38.882812500,-46.0,-14.0,43.0,76.9734375,55.16,0.345982875,238.65
2021-06-21 12:35:38.890625000,-46.0,-14.0,43.0,76.971875,53.71,0.34582275,238.65
2021-06-21 12:35:38.898437500,-46.0,-14.0,43.0,76.9703125,52.055,0.345662625,238.65
2021-06-21 12:35:38.906250000,-46.0,-14.0,43.0,76.96875,50.4,0.3455025,238.65
2021-06-21 12:35:38.914062500,-46.0,-14.0,43.0,76.96718750000001,48.45,0.34534237500000003,238.65
2021-06-21 12:35:38.921875000,-46.0,-14.0,43.0,76.965625,46.5,0.34518225,238.65
2021-06-21 12:35:38.929687500,-46.0,-14.0,43.0,76.9640625,44.09,0.345022125,238.65
2021-06-21 12:35:38.937500000,-46.0,-14.0,43.0,76.9625,41.68,0.344862,238.65
2021-06-21 12:35:38.945312500,-46.0,-14.0,43.0,76.9609375,38.625,0.344701875,238.65
2021-06-21 12:35:38.953125000,-46.0,-14.0,43.0,76.95937500000001,35.57,0.34454175000000004,238.65
2021-06-21 12:35:38.960937500,-46.0,-14.0,43.0,76.9578125,31.795,0.344381625,238.65
2021-06-21 12:35:38.968750000,-46.0,-14.0,43.0,76.95625,28.02,0.3442215,238.65
2021-06-21 12:35:38.976562500,-46.0,-14.0,43.0,76.9546875,23.58,0.344061375,238.65
2021-06-21 12:35:38.984375000,-46.0,-14.0,43.0,76.953125,19.14,0.34390125000000005,238.65
2021-06-21 12:35:38.992187500,-46.0,-14.0,43.0,76.95156250000001,14.254999999999999,0.34374112500000004,238.65
2021-06-21 12:35:39.000000000,-46.0,-14.0,43.0,76.95,9.37,0.343581,238.65
2021-06-21 12:35:39.007812500,-46.0,-14.0,43.0,76.94828125000001,4.369999999999999,0.34370109375,238.65
2021-06-21 12:35:39.015625000,-46.0,-14.0,43.0,76.9465625,-0.63,0.3438211875,238.65
2021-06-21 12:35:39.023437500,-46.0,-14.0,43.0,76.94484375,-5.42,0.34394128125,238.65
2021-06-21 12:35:39.031250000,-46.0,-14.0,43.0,76.94312500000001,-10.21,0.344061375,238.65
2021-06-21 12:35:39.039062500,-46.25,-14.0,43.0,76.94140625,-14.55,0.34418146875,238.65
2021-06-21 12:35:39.046875000,-46.5,-14.0,43.0,76.9396875,-18.89,0.34430156250000005,238.65
2021-06-21 12:35:39.054687500,-46.75,-14.0,43.0,76.93796875,-22.700000000000003,0.34442165625000004,238.65
2021-06-21 12:35:39.062500000,-47.0,-14.0,43.0,76.93625,-26.51,0.34454175000000004,238.65
2021-06-21 12:35:39.070312500,-46.75,-14.0,43.0,76.93453125,-29.875,0.34466184375000003,238.65
2021-06-21 12:35:39.078125000,-46.5,-14.0,43.0,76.9328125,-33.24,0.3447819375,238.65
2021-06-21 12:35:39.085937500,-46.25,-14.0,43.0,76.93109375,-36.38,0.34490203125,238.65
2021-06-21 12:35:39.093750000,-46.0,-14.0,43.0,76.92937500000001,-39.52,0.345022125,238.65
2021-06-21 12:35:39.101562500,-46.0,-14.0,43.0,76.92765625,-42.74,0.34514221875,238.65
2021-06-21 12:35:39.109375000,-46.0,-14.0,43.0,76.9259375,-45.96,0.3452623125,238.65
2021-06-21 12:35:39.117187500,-46.0,-14.0,43.0,76.92421875000001,-49.625,0.34538240625,238.65
2021-06-21 12:35:39.125000000,-46.0,-14.0,43.0,76.9225,-53.29,0.34550250000000005,238.65
2021-06-21 12:35:39.132812500,-46.0,-14.0,43.0,76.92078125,-57.695,0.34562259375000004,238.65
2021-06-21 12:35:39.140625000,-46.0,-14.0,43.0,76.91906250000001,-62.1,0.34574268750000003,238.65
2021-06-21 12:35:39.148437500,-46.0,-14.0,43.0,76.91734375,-67.4,0.34586278125000003,238.65
2021-06-21 12:35:39.156250000,-46.0,-14.0,43.0,76.915625,-72.7,0.345982875,238.65
2021-06-21 12:35:39.164062500,-46.0,-14.0,43.0,76.91390625,-78.725,0.34610296875,238.65
2021-06-21 12:35:39.171875000,-46.0,-14.0,43.0,76.9121875,-84.75,0.3462230625,238.65
2021-06-21 12:35:39.179687500,-46.0,-14.0,43.0,76.91046875,-90.88499999999999,0.34634315625,238.65
2021-06-21 12:35:39.187500000,-46.0,-14.0,43.0,76.90875,-97.02,0.34646325,238.65
2021-06-21 12:35:39.195312500,-46.0,-14.0,43.0,76.90703125,-102.215,0.34658334375,238.65
2021-06-21 12:35:39.203125000,-46.0,-14.0,43.0,76.90531250000001,-107.41,0.3467034375,238.65
2021-06-21 12:35:39.210937500,-46.0,-14.0,43.0,76.90359375,-110.38,0.34682353125000004,238.65
2021-06-21 12:35:39.218750000,-46.0,-14.0,43.0,76.901875,-113.35,0.34694362500000003,238.65
2021-06-21 12:35:39.226562500,-46.0,-14.0,43.0,76.90015625000001,-112.97,0.34706371875,238.65
2021-06-21 12:35:39.234375000,-46.0,-14.0,43.0,76.8984375,-112.59,0.3471838125,238.65
2021-06-21 12:35:39.242187500,-46.0,-14.0,43.0,76.89671875,-108.25,0.34730390625,238.65
2021-06-21 12:35:39.250000000,-46.0,-14.0,43.0,76.89500000000001,-103.91,0.347424,238.65
2021-06-21 12:35:39.257812500,-46.0,-14.0,43.0,76.89328125,-95.815,0.347263875,238.65
2021-06-21 12:35:39.265625000,-46.0,-14.0,43.0,76.8915625,-87.72,0.34710375,238.65
2021-06-21 12:35:39.273437500,-46.0,-14.0,43.0,76.88984375,-76.84,0.34694362500000003,238.65
2021-06-21 12:35:39.281250000,-46.0,-14.0,43.0,76.888125,-65.96,0.3467835,238.65
2021-06-21 12:35:39.289062500,-46.0,-14.0,43.0,76.88640625000001,-53.78999999999999,0.346623375,238.65
2021-06-21 12:35:39.296875000,-46.0,-14.0,43.0,76.8846875,-41.62,0.34646325,238.65
2021-06-21 12:35:39.304687500,-46.0,-14.0,43.0,76.88296875,-29.71,0.346303125,238.65
2021-06-21 12:35:39.312500000,-46.0,-14.0,43.0,76.88125000000001,-17.8,0.346143,238.65
2021-06-21 12:35:39.320312500,-46.0,-14.0,42.75,76.87953125,-7.390000000000001,0.345982875,238.65
2021-06-21 12:35:39.328125000,-46.0,-14.0,42.5,76.8778125,3.02,0.34582275,238.65
2021-06-21 12:35:39.335937500,-46.0,-14.0,42.25,76.87609375000001,11.275,0.345662625,238.65
2021-06-21 12:35:39.343750000,-46.0,-14.0,42.0,76.874375,19.53,0.3455025,238.65
2021-06-21 12:35:39.351562500,-46.25,-14.25,42.25,76.87265625,25.560000000000002,0.345342375,238.65
2021-06-21 12:35:39.359375000,-46.5,-14.5,42.5,76.8709375,31.59,0.34518225,238.65
2021-06-21 12:35:39.367187500,-46.75,-14.75,42.75,76.86921875,35.725,0.345022125,238.65
2021-06-21 12:35:39.375000000,-47.0,-15.0,43.0,76.8675,39.86,0.344862,238.65
2021-06-21 12:35:39.382812500,-47.0,-14.75,42.75,76.86578125,42.635,0.344701875,238.65
2021-06-21 12:35:39.390625000,-47.0,-14.5,42.5,76.8640625,45.41,0.34454175,238.65
2021-06-21 12:35:39.398437500,-47.0,-14.25,42.25,76.86234375000001,47.295,0.344381625,238.65
2021-06-21 12:35:39.406250000,-47.0,-14.0,42.0,76.860625,49.18,0.3442215,238.65
2021-06-21 12:35:39.414062500,-46.75,-14.0,42.25,76.85890625,50.495000000000005,0.344061375,238.65
2021-06-21 12:35:39.421875000,-46.5,-14.0,42.5,76.85718750000001,51.81,0.34390125,238.65
2021-06-21 12:35:39.429687500,-46.25,-14.0,42.75,76.85546875,52.715,0.343741125,238.65
2021-06-21 12:35:39.437500000,-46.0,-14.0,43.0,76.85375,53.62,0.343581,238.65
2021-06-21 12:35:39.445312500,-46.0,-14.25,43.0,76.85203125000001,54.195,0.343420875,238.65
2021-06-21 12:35:39.453125000,-46.0,-14.5,43.0,76.8503125,54.77,0.34326075,238.65
2021-06-21 12:35:39.460937500,-46.0,-14.75,43.0,76.84859375,55.07,0.343100625,238.65
2021-06-21 12:35:39.468750000,-46.0,-15.0,43.0,76.846875,55.37,0.3429405,238.65
2021-06-21 12:35:39.476562500,-46.25,-14.75,43.0,76.84515625,55.480000000000004,0.34278037499999997,238.65
2021-06-21 12:35:39.484375000,-46.5,-14.5,43.0,76.84343750000001,55.59,0.34262025,238.65
2021-06-21 12:35:39.492187500,-46.75,-14.25,43.0,76.84171875,55.63,0.342460125,238.65
2021-06-21 12:35:39.500000000,-47.0,-14.0,43.0,76.84,55.67,0.3423,238.65
2021-06-21 12:35:39.507812500,-47.0,-14.0,42.75,76.83828125000001,55.725,0.34242009375,238.65
2021-06-21 12:35:39.515625000,-47.0,-14.0,42.5,76.8365625,55.78,0.3425401875,238.65
2021-06-21 12:35:39.523437500,-47.0,-14.0,42.25,76.83484375,55.915,0.34266028125,238.65
2021-06-21 12:35:39.531250000,-47.0,-14.0,42.0,76.83312500000001,56.05,0.34278037499999997,238.65
2021-06-21 12:35:39.539062500,-46.75,-14.25,42.0,76.83140625,56.26,0.34290046874999996,238.65
2021-06-21 12:35:39.546875000,-46.5,-14.5,42.0,76.8296875,56.47,0.3430205625,238.65
2021-06-21 12:35:39.554687500,-46.25,-14.75,42.0,76.82796875,56.72,0.34314065625,238.65
2021-06-21 12:35:39.562500000,-46.0,-15.0,42.0,76.82625,56.97,0.34326075,238.65
2021-06-21 12:35:39.570312500,-46.25,-15.0,42.0,76.82453125,57.19,0.34338084375,238.65
2021-06-21 12:35:39.578125000,-46.5,-15.0,42.0,76.8228125,57.41,0.3435009375,238.65
2021-06-21 12:35:39.585937500,-46.75,-15.0,42.0,76.82109375,57.515,0.34362103125,238.65
2021-06-21 12:35:39.593750000,-47.0,-15.0,42.0,76.81937500000001,57.62,0.343741125,238.65
2021-06-21 12:35:39.601562500,-47.0,-15.0,42.0,76.81765625,57.489999999999995,0.34386121875,238.65
2021-06-21 12:35:39.609375000,-47.0,-15.0,42.0,76.8159375,57.36,0.34398131249999997,238.65
2021-06-21 12:35:39.617187500,-47.0,-15.0,42.0,76.81421875000001,56.864999999999995,0.34410140624999996,238.65
2021-06-21 12:35:39.625000000,-47.0,-15.0,42.0,76.8125,56.37,0.34422149999999996,238.65
2021-06-21 12:35:39.632812500,-47.0,-15.0,42.0,76.81078125,55.394999999999996,0.34434159375,238.65
2021-06-21 12:35:39.640625000,-47.0,-15.0,42.0,76.80906250000001,54.42,0.3444616875,238.65
2021-06-21 12:35:39.648437500,-47.0,-15.0,42.0,76.80734375,52.905,0.34458178125,238.65
2021-06-21 12:35:39.656250000,-47.0,-15.0,42.0,76.805625,51.39,0.344701875,238.65
2021-06-21 12:35:39.664062500,-47.0,-15.0,42.0,76.80390625,49.370000000000005,0.34482196875,238.65
2021-06-21 12:35:39.671875000,-47.0,-15.0,42.0,76.8021875,47.35,0.3449420625,238.65
2021-06-21 12:35:39.679687500,-47.0,-15.0,42.0,76.80046875000001,44.93,0.34506215625,238.65
2021-06-21 12:35:39.687500000,-47.0,-15.0,42.0,76.79875,42.51,0.34518224999999997,238.65
2021-06-21 12:35:39.695312500,-46.75,-15.0,42.0,76.79703125,39.805,0.34530234374999996,238.65
2021-06-21 12:35:39.703125000,-46.5,-15.0,42.0,76.79531250000001,37.1,0.34542243749999996,238.65
2021-06-21 12:35:39.710937500,-46.25,-15.0,42.0,76.79359375,34.19,0.34554253125,238.65
2021-06-21 12:35:39.718750000,-46.0,-15.0,42.0,76.791875,31.28,0.345662625,238.65
2021-06-21 12:35:39.726562500,-46.25,-15.0,42.0,76.79015625000001,28.155,0.34578271875,238.65
2021-06-21 12:35:39.734375000,-46.5,-15.0,42.0,76.7884375,25.03,0.3459028125,238.65
2021-06-21 12:35:39.742187500,-46.75,-15.0,42.0,76.78671875,21.634999999999998,0.34602290625,238.65
2021-06-21 12:35:39.750000000,-47.0,-15.0,42.0,76.785,18.24,0.346143,238.65
2021-06-21 12:35:39.757812500,-47.0,-15.0,42.0,76.78328125,14.559999999999999,0.3460629375,238.65
2021-06-21 12:35:39.765625000,-47.0,-15.0,42.0,76.7815625,10.88,0.34598287499999997,238.65
2021-06-21 12:35:39.773437500,-47.0,-15.0,42.0,76.77984375,6.945,0.3459028125,238.65
2021-06-21 12:35:39.781250000,-47.0,-15.0,42.0,76.778125,3.01,0.34582274999999996,238.65
2021-06-21 12:35:39.789062500,-46.75,-15.0,42.0,76.77640625000001,-1.0549999999999997,0.3457426875,238.65
2021-06-21 12:35:39.796875000,-46.5,-15.0,42.0,76.7746875,-5.12,0.345662625,238.65
2021-06-21 12:35:39.804687500,-46.25,-15.0,42.0,76.77296875,-9.16,0.34558256249999997,238.65
2021-06-21 12:35:39.812500000,-46.0,-15.0,42.0,76.77125000000001,-13.2,0.3455025,238.65
2021-06-21 12:35:39.820312500,-46.25,-15.0,42.0,76.76953125,-17.07,0.3454224375,238.65
2021-06-21 12:35:39.828125000,-46.5,-15.0,42.0,76.7678125,-20.94,0.345342375,238.65
2021-06-21 12:35:39.835937500,-46.75,-15.0,42.0,76.76609375000001,-24.55,0.3452623125,238.65
2021-06-21 12:35:39.843750000,-47.0,-15.0,42.0,76.764375,-28.16,0.34518225,238.65
2021-06-21 12:35:39.851562500,-47.0,-15.0,42.0,76.76265625,-31.5,0.3451021875,238.65
2021-06-21 12:35:39.859375000,-47.0,-15.0,42.0,76.7609375,-34.84,0.345022125,238.65
2021-06-21 12:35:39.867187500,-47.0,-15.0,42.0,76.75921875,-37.94,0.3449420625,238.65
2021-06-21 12:35:39.875000000,-47.0,-15.0,42.0,76.75750000000001,-41.04,0.344862,238.65
2021-06-21 12:35:39.882812500,-47.0,-14.75,42.0,76.75578125,-43.985,0.3447819375,238.65
2021-06-21 12:35:39.890625000,-47.0,-14.5,42.0,76.7540625,-46.93,0.344701875,238.65
2021-06-21 12:35:39.898437500,-47.0,-14.25,42.0,76.75234375000001,-49.875,0.3446218125,238.65
2021-06-21 12:35:39.906250000,-47.0,-14.0,42.0,76.750625,-52.82,0.34454175,238.65
2021-06-21 12:35:39.914062500,-47.0,-14.25,42.0,76.74890625,-56.065,0.3444616875,238.65
2021-06-21 12:35:39.921875000,-47.0,-14.5,42.0,76.74718750000001,-59.31,0.344381625,238.65
2021-06-21 12:35:39.929687500,-47.0,-14.75,42.0,76.74546875,-63.185,0.3443015625,238.65
2021-06-21 12:35:39.937500000,-47.0,-15.0,42.0,76.74375,-67.06,0.3442215,238.65
2021-06-21 12:35:39.945312500,-46.75,-15.0,42.0,76.74203125000001,-71.795,0.34414143750000004,238.65
2021-06-21 12:35:39.953125000,-46.5,-15.0,42.0,76.7403125,-76.53,0.344061375,238.65
2021-06-21 12:35:39.960937500,-46.25,-15.0,42.0,76.73859375,-82.005,0.3439813125,238.65
2021-06-21 12:35:39.968750000,-46.0,-15.0,42.0,76.736875,-87.48,0.34390125000000005,238.65
2021-06-21 12:35:39.976562500,-46.25,-15.0,42.0,76.73515625,-93.025,0.3438211875,238.65
2021-06-21 12:35:39.984375000,-46.5,-15.0,42.0,76.73343750000001,-98.57,0.34374112500000004,238.65
2021-06-21 12:35:39.992187500,-46.75,-15.0,42.0,76.73171875,-103.01499999999999,0.3436610625,238.65
2021-06-21 12:35:40.000000000,-47.0,-15.0,42.0,76.73,-107.46,0.343581,238.65
2021-06-21 12:35:40.007812500,-46.75,-15.0,42.0,76.728046875,-109.38499999999999,0.34362103125000004,238.65
2021-06-21 12:35:40.015625000,-46.5,-15.0,42.0,76.72609375,-111.31,0.3436610625,238.65
2021-06-21 12:35:40.023437500,-46.25,-15.0,42.0,76.724140625,-109.57,0.34370109375,238.65
2021-06-21 12:35:40.031250000,-46.0,-15.0,42.0,76.7221875,-107.83,0.34374112500000004,238.65
2021-06-21 12:35:40.039062500,-46.25,-15.0,42.0,76.720234375,-101.97999999999999,0.34378115625,238.65
2021-06-21 12:35:40.046875000,-46.5,-15.0,42.0,76.71828125,-96.13,0.3438211875,238.65
2021-06-21 12:35:40.054687500,-46.75,-15.0,42.0,76.716328125,-86.675,0.34386121875000003,238.65
2021-06-21 12:35:40.062500000,-47.0,-15.0,42.0,76.714375,-77.22,0.34390125000000005,238.65
2021-06-21 12:35:40.070312500,-47.0,-15.0,42.0,76.712421875,-65.5,0.34394128125,238.65
2021-06-21 12:35:40.078125000,-47.0,-15.0,42.0,76.71046875,-53.78,0.3439813125,238.65
2021-06-21 12:35:40.085937500,-47.0,-15.0,42.0,76.708515625,-41.51,0.34402134375000004,238.65
2021-06-21 12:35:40.093750000,-47.0,-15.0,42.0,76.7065625,-29.24,0.344061375,238.65
2021-06-21 12:35:40.101562500,-47.0,-15.0,42.0,76.704609375,-18.015,0.34410140625,238.65
2021-06-21 12:35:40.109375000,-47.0,-15.0,42.0,76.70265625,-6.79,0.34414143750000004,238.65
2021-06-21 12:35:40.117187500,-47.0,-15.0,42.0,76.700703125,2.3400000000000007,0.34418146875,238.65
2021-06-21 12:35:40.125000000,-47.0,-15.0,42.0,76.69875,11.47,0.3442215,238.65
2021-06-21 12:35:40.132812500,-47.0,-15.0,42.0,76.696796875,18.13,0.34426153125000003,238.65
2021-06-21 12:35:40.140625000,-47.0,-15.0,42.0,76.69484375,24.79,0.3443015625,238.65
2021-06-21 12:35:40.148437500,-47.0,-15.0,42.0,76.692890625,29.145,0.34434159375,238.65
2021-06-21 12:35:40.156250000,-47.0,-15.0,42.0,76.6909375,33.5,0.344381625,238.65
2021-06-21 12:35:40.164062500,-47.0,-15.0,42.0,76.688984375,36.0,0.34442165625,238.65
2021-06-21 12:35:40.171875000,-47.0,-15.0,42.0,76.68703125,38.5,0.3444616875,238.65
2021-06-21 12:35:40.179687500,-47.0,-15.0,42.0,76.685078125,39.629999999999995,0.34450171875,238.65
2021-06-21 12:35:40.187500000,-47.0,-15.0,42.0,76.683125,40.76,0.34454175,238.65
2021-06-21 12:35:40.195312500,-47.0,-15.0,42.0,76.681171875,40.93,0.34458178125,238.65
2021-06-21 12:35:40.203125000,-47.0,-15.0,42.0,76.67921875,41.1,0.3446218125,238.65
2021-06-21 12:35:40.210937500,-47.0,-15.0,42.0,76.677265625,40.655,0.34466184375000003,238.65
2021-06-21 12:35:40.218750000,-47.0,-15.0,42.0,76.6753125,40.21,0.344701875,238.65
2021-06-21 12:35:40.226562500,-47.0,-15.0,42.0,76.673359375,39.480000000000004,0.34474190625,238.65
2021-06-21 12:35:40.234375000,-47.0,-15.0,42.0,76.67140625,38.75,0.3447819375,238.65
2021-06-21 12:35:40.242187500,-47.0,-15.0,42.0,76.669453125,38.055,0.34482196875,238.65
2021-06-21 12:35:40.250000000,-47.0,-15.0,42.0,76.6675,37.36,0.344862,238.65
2021-06-21 12:35:40.257812500,-47.0,-15.0,42.0,76.665546875,36.955,0.34490203125,238.65
2021-06-21 12:35:40.265625000,-47.0,-15.0,42.0,76.66359375,36.55,0.3449420625,238.65
2021-06-21 12:35:40.273437500,-47.0,-15.0,42.0,76.661640625,36.53,0.34498209375,238.65
2021-06-21 12:35:40.281250000,-47.0,-15.0,42.0,76.6596875,36.51,0.345022125,238.65
2021-06-21 12:35:40.289062500,-47.0,-15.0,42.0,76.657734375,36.78,0.34506215625,238.65
2021-06-21 12:35:40.296875000,-47.0,-15.0,42.0,76.65578125,37.05,0.3451021875,238.65
2021-06-21 12:35:40.304687500,-47.0,-15.0,42.0,76.653828125,37.385,0.34514221875,238.65
2021-06-21 12:35:40.312500000,-47.0,-15.0,42.0,76.651875,37.72,0.34518225,238.65
2021-06-21 12:35:40.320312500,-47.0,-15.0,42.0,76.649921875,37.894999999999996,0.34522228125,238.65
2021-06-21 12:35:40.328125000,-47.0,-15.0,42.0,76.64796875,38.07,0.3452623125,238.65
2021-06-21 12:35:40.335937500,-47.0,-15.0,42.0,76.646015625,37.985,0.34530234375,238.65
2021-06-21 12:35:40.343750000,-47.0,-15.0,42.0,76.6440625,37.9,0.345342375,238.65
2021-06-21 12:35:40.351562500,-47.0,-15.0,42.0,76.642109375,37.644999999999996,0.34538240625,238.65
2021-06-21 12:35:40.359375000,-47.0,-15.0,42.0,76.64015625,37.39,0.3454224375,238.65
2021-06-21 12:35:40.367187500,-47.0,-15.0,42.0,76.638203125,37.129999999999995,0.34546246875,238.65
2021-06-21 12:35:40.375000000,-47.0,-15.0,42.0,76.63625,36.87,0.3455025,238.65
2021-06-21 12:35:40.382812500,-47.0,-15.0,42.0,76.634296875,36.724999999999994,0.34554253125,238.65
2021-06-21 12:35:40.390625000,-47.0,-15.0,42.0,76.63234375,36.58,0.34558256249999997,238.65
2021-06-21 12:35:40.398437500,-47.0,-15.0,42.0,76.630390625,36.489999999999995,0.34562259375,238.65
2021-06-21 12:35:40.406250000,-47.0,-15.0,42.0,76.6284375,36.4,0.345662625,238.65
2021-06-21 12:35:40.414062500,-47.0,-15.0,42.0,76.626484375,36.09,0.34570265624999996,238.65
2021-06-21 12:35:40.421875000,-47.0,-15.0,42.0,76.62453125,35.78,0.3457426875,238.65
2021-06-21 12:35:40.429687500,-47.0,-15.0,42.0,76.622578125,34.894999999999996,0.34578271875,238.65
2021-06-21 12:35:40.437500000,-47.0,-15.0,42.0,76.620625,34.01,0.34582274999999996,238.65
2021-06-21 12:35:40.445312500,-47.0,-15.0,42.0,76.618671875,32.28,0.34586278125,238.65
2021-06-21 12:35:40.453125000,-47.0,-15.0,42.0,76.61671875,30.55,0.3459028125,238.65
2021-06-21 12:35:40.460937500,-47.0,-15.0,42.0,76.614765625,27.93,0.34594284375,238.65
2021-06-21 12:35:40.468750000,-47.0,-15.0,42.0,76.6128125,25.31,0.34598287499999997,238.65
2021-06-21 12:35:40.476562500,-47.0,-15.0,41.75,76.610859375,22.015,0.34602290625,238.65
2021-06-21 12:35:40.484375000,-47.0,-15.0,41.5,76.60890625,18.72,0.3460629375,238.65
2021-06-21 12:35:40.492187500,-47.0,-15.0,41.25,76.606953125,15.129999999999999,0.34610296874999996,238.65
2021-06-21 12:35:40.500000000,-47.0,-15.0,41.0,76.605,11.54,0.346143,238.65
2021-06-21 12:35:40.507812500,-47.0,-15.0,41.25,76.603046875,8.045,0.3460629375,238.65
2021-06-21 12:35:40.515625000,-47.0,-15.0,41.5,76.60109375,4.55,0.34598287499999997,238.65
2021-06-21 12:35:40.523437500,-47.0,-15.0,41.75,76.599140625,1.395,0.3459028125,238.65
2021-06-21 12:35:40.531250000,-47.0,-15.0,42.0,76.5971875,-1.76,0.34582274999999996,238.65
2021-06-21 12:35:40.539062500,-47.0,-15.0,42.0,76.595234375,-4.495,0.3457426875,238.65
2021-06-21 12:35:40.546875000,-47.0,-15.0,42.0,76.59328125,-7.23,0.345662625,238.65
2021-06-21 12:35:40.554687500,-47.0,-15.0,42.0,76.591328125,-9.595,0.34558256249999997,238.65
2021-06-21 12:35:40.562500000,-47.0,-15.0,42.0,76.589375,-11.96,0.3455025,238.65
2021-06-21 12:35:40.570312500,-47.0,-15.0,42.0,76.587421875,-14.085,0.3454224375,238.65
2021-06-21 12:35:40.578125000,-47.0,-15.0,42.0,76.58546875,-16.21,0.345342375,238.65
2021-06-21 12:35:40.585937500,-47.0,-15.0,42.0,76.583515625,-18.25,0.3452623125,238.65
2021-06-21 12:35:40.593750000,-47.0,-15.0,42.0,76.5815625,-20.29,0.34518225,238.65
2021-06-21 12:35:40.601562500,-47.0,-15.0,42.0,76.579609375,-22.369999999999997,0.3451021875,238.65
2021-06-21 12:35:40.609375000,-47.0,-15.0,42.0,76.57765625,-24.45,0.345022125,238.65
2021-06-21 12:35:40.617187500,-47.0,-15.0,42.0,76.575703125,-26.68,0.3449420625,238.65
2021-06-21 12:35:40.625000000,-47.0,-15.0,42.0,76.57375,-28.91,0.344862,238.65
2021-06-21 12:35:40.632812500,-47.0,-14.75,42.0,76.571796875,-31.35,0.3447819375,238.65
2021-06-21 12:35:40.640625000,-47.0,-14.5,42.0,76.56984375,-33.79,0.344701875,238.65
2021-06-21 12:35:40.648437500,-47.0,-14.25,42.0,76.567890625,-36.405,0.3446218125,238.65
2021-06-21 12:35:40.656250000,-47.0,-14.0,42.0,76.5659375,-39.02,0.34454175,238.65
2021-06-21 12:35:40.664062500,-47.0,-14.0,42.0,76.563984375,-41.69,0.3444616875,238.65
2021-06-21 12:35:40.671875000,-47.0,-14.0,42.0,76.56203125,-44.36,0.344381625,238.65
2021-06-21 12:35:40.679687500,-47.0,-14.0,42.0,76.560078125,-46.92,0.3443015625,238.65
2021-06-21 12:35:40.687500000,-47.0,-14.0,42.0,76.558125,-49.48,0.3442215,238.65
2021-06-21 12:35:40.695312500,-47.0,-14.25,42.0,76.556171875,-51.81999999999999,0.34414143750000004,238.65
2021-06-21 12:35:40.703125000,-47.0,-14.5,42.0,76.55421875,-54.16,0.344061375,238.65
2021-06-21 12:35:40.710937500,-47.0,-14.75,42.0,76.552265625,-56.39,0.3439813125,238.65
2021-06-21 12:35:40.718750000,-47.0,-15.0,42.0,76.5503125,-58.62,0.34390125000000005,238.65
2021-06-21 12:35:40.726562500,-47.0,-15.0,42.0,76.548359375,-61.09,0.3438211875,238.65
2021-06-21 12:35:40.734375000,-47.0,-15.0,42.0,76.54640625,-63.56,0.34374112500000004,238.65
2021-06-21 12:35:40.742187500,-47.0,-15.0,42.0,76.544453125,-66.78,0.3436610625,238.65
2021-06-21 12:35:40.750000000,-47.0,-15.0,42.0,76.5425,-70.0,0.343581,238.65
2021-06-21 12:35:40.757812500,-47.0,-15.0,42.0,76.540546875,-74.35499999999999,0.34370109375,238.65
2021-06-21 12:35:40.765625000,-47.0,-15.0,42.0,76.53859375,-78.71,0.3438211875,238.65
2021-06-21 12:35:40.773437500,-47.0,-15.0,42.0,76.536640625,-84.155,0.34394128125,238.65
2021-06-21 12:35:40.781250000,-47.0,-15.0,42.0,76.5346875,-89.6,0.344061375,238.65
2021-06-21 12:35:40.789062500,-47.0,-15.0,42.0,76.532734375,-95.465,0.34418146875,238.65
2021-06-21 12:35:40.796875000,-47.0,-15.0,42.0,76.53078125,-101.33,0.34430156250000005,238.65
2021-06-21 12:35:40.804687500,-47.0,-15.0,42.0,76.528828125,-106.345,0.34442165625000004,238.65
2021-06-21 12:35:40.812500000,-47.0,-15.0,42.0,76.526875,-111.36,0.34454175000000004,238.65
2021-06-21 12:35:40.820312500,-47.0,-15.0,42.0,76.524921875,-114.03999999999999,0.34466184375000003,238.65
2021-06-21 12:35:40.828125000,-47.0,-15.0,42.0,76.52296875,-116.72,0.3447819375,238.65
2021-06-21 12:35:40.835937500,-47.0,-15.0,42.0,76.521015625,-115.8,0.34490203125,238.65
2021-06-21 12:35:40.843750000,-47.0,-15.0,42.0,76.5190625,-114.88,0.345022125,238.65
2021-06-21 12:35:40.851562500,-47.0,-15.0,42.0,76.517109375,-109.78999999999999,0.34514221875,238.65
2021-06-21 12:35:40.859375000,-47.0,-15.0,42.0,76.51515625,-104.7,0.3452623125,238.65
2021-06-21 12:35:40.867187500,-47.0,-15.0,42.0,76.513203125,-95.805,0.34538240625,238.65
2021-06-21 12:35:40.875000000,-47.0,-15.0,42.0,76.51125,-86.91,0.34550250000000005,238.65
2021-06-21 12:35:40.882812500,-47.0,-15.0,42.0,76.509296875,-75.4,0.34562259375000004,238.65
2021-06-21 12:35:40.890625000,-47.0,-15.0,42.0,76.50734375,-63.89,0.34574268750000003,238.65
2021-06-21 12:35:40.898437500,-47.0,-15.0,42.0,76.505390625,-51.4,0.34586278125000003,238.65
2021-06-21 12:35:40.906250000,-47.0,-15.0,42.0,76.5034375,-38.91,0.345982875,238.65
2021-06-21 12:35:40.914062500,-47.0,-15.0,42.0,76.501484375,-27.06,0.34610296875,238.65
2021-06-21 12:35:40.921875000,-47.0,-15.0,42.0,76.49953125,-15.21,0.3462230625,238.65
2021-06-21 12:35:40.929687500,-47.0,-15.0,42.0,76.497578125,-5.1850000000000005,0.34634315625,238.65
2021-06-21 12:35:40.937500000,-47.0,-15.0,42.0,76.495625,4.84,0.34646325,238.65
2021-06-21 12:35:40.945312500,-47.0,-15.0,42.0,76.493671875,12.51,0.34658334375,238.65
2021-06-21 12:35:40.953125000,-47.0,-15.0,42.0,76.49171875,20.18,0.3467034375,238.65
2021-06-21 12:35:40.960937500,-47.0,-15.0,42.0,76.489765625,25.55,0.34682353125000004,238.65
2021-06-21 12:35:40.968750000,-47.0,-15.0,42.0,76.4878125,30.92,0.34694362500000003,238.65
2021-06-21 12:35:40.976562500,-47.0,-15.0,42.0,76.485859375,34.445,0.34706371875,238.65
2021-06-21 12:35:40.984375000,-47.0,-15.0,42.0,76.48390625,37.97,0.3471838125,238.65
2021-06-21 12:35:40.992187500,-47.0,-15.0,42.0,76.481953125,40.22,0.34730390625,238.65
2021-06-21 12:35:41.000000000,-47.0,-15.0,42.0,76.48,42.47,0.347424,238.65
2021-06-21 12:35:41.007812500,-47.0,-15.0,42.0,76.47820312500001,43.93,0.34730390625,238.65
2021-06-21 12:35:41.015625000,-47.0,-15.0,42.0,76.47640625000001,45.39,0.3471838125,238.65
2021-06-21 12:35:41.023437500,-47.0,-15.0,42.0,76.474609375,46.325,0.34706371875,238.65
2021-06-21 12:35:41.031250000,-47.0,-15.0,42.0,76.4728125,47.26,0.34694362500000003,238.65
2021-06-21 12:35:41.039062500,-47.0,-15.0,42.0,76.471015625,47.8,0.34682353125000004,238.65
2021-06-21 12:35:41.046875000,-47.0,-15.0,42.0,76.46921875000001,48.34,0.3467034375,238.65
2021-06-21 12:35:41.054687500,-47.0,-15.0,42.0,76.467421875,48.57,0.34658334375,238.65
2021-06-21 12:35:41.062500000,-47.0,-15.0,42.0,76.465625,48.8,0.34646325,238.65
2021-06-21 12:35:41.070312500,-47.0,-15.0,42.0,76.463828125,48.834999999999994,0.34634315625,238.65
2021-06-21 12:35:41.078125000,-47.0,-15.0,42.0,76.46203125000001,48.87,0.3462230625,238.65
2021-06-21 12:35:41.085937500,-47.0,-15.0,42.0,76.460234375,48.92,0.34610296875,238.65
2021-06-21 12:35:41.093750000,-47.0,-15.0,42.0,76.4584375,48.97,0.345982875,238.65
2021-06-21 12:35:41.101562500,-47.0,-15.0,42.0,76.456640625,49.254999999999995,0.34586278125000003,238.65
2021-06-21 12:35:41.109375000,-47.0,-15.0,42.0,76.45484375000001,49.54,0.34574268750000003,238.65
2021-06-21 12:35:41.117187500,-47.0,-15.0,42.0,76.453046875,50.19,0.34562259375000004,238.65
2021-06-21 12:35:41.125000000,-47.0,-15.0,42.0,76.45125,50.84,0.34550250000000005,238.65
2021-06-21 12:35:41.132812500,-47.0,-15.0,42.0,76.449453125,51.8,0.34538240625,238.65
2021-06-21 12:35:41.140625000,-47.0,-15.0,42.0,76.44765625000001,52.76,0.3452623125,238.65
2021-06-21 12:35:41.148437500,-47.0,-15.0,42.0,76.445859375,53.815,0.34514221875,238.65
2021-06-21 12:35:41.156250000,-47.0,-15.0,42.0,76.4440625,54.87,0.345022125,238.65
2021-06-21 12:35:41.164062500,-47.0,-15.0,42.0,76.442265625,55.730000000000004,0.34490203125,238.65
2021-06-21 12:35:41.171875000,-47.0,-15.0,42.0,76.44046875000001,56.59,0.3447819375,238.65
2021-06-21 12:35:41.179687500,-47.0,-15.0,42.0,76.438671875,57.035,0.34466184375000003,238.65
2021-06-21 12:35:41.187500000,-47.0,-15.0,42.0,76.436875,57.48,0.34454175000000004,238.65
2021-06-21 12:35:41.195312500,-47.0,-15.0,42.0,76.435078125,57.47,0.34442165625000004,238.65
2021-06-21 12:35:41.203125000,-47.0,-15.0,42.0,76.43328125000001,57.46,0.34430156250000005,238.65
2021-06-21 12:35:41.210937500,-47.0,-15.0,42.0,76.431484375,57.120000000000005,0.34418146875,238.65
2021-06-21 12:35:41.218750000,-47.0,-15.0,42.0,76.4296875,56.78,0.344061375,238.65
2021-06-21 12:35:41.226562500,-47.0,-15.0,42.0,76.427890625,56.34,0.34394128125,238.65
2021-06-21 12:35:41.234375000,-47.0,-15.0,42.0,76.42609375,55.9,0.3438211875,238.65
2021-06-21 12:35:41.242187500,-47.0,-15.0,42.0,76.424296875,55.489999999999995,0.34370109375,238.65
2021-06-21 12:35:41.250000000,-47.0,-15.0,42.0,76.4225,55.08,0.343581,238.65
2021-06-21 12:35:41.257812500,-47.0,-15.0,42.0,76.420703125,54.68,0.34362103125000004,238.65
2021-06-21 12:35:41.265625000,-47.0,-15.0,42.0,76.41890625,54.28,0.3436610625,238.65
2021-06-21 12:35:41.273437500,-47.0,-15.0,42.0,76.41710937500001,53.655,0.34370109375,238.65
2021-06-21 12:35:41.281250000,-47.0,-15.0,42.0,76.4153125,53.03,0.34374112500000004,238.65
2021-06-21 12:35:41.289062500,-47.0,-15.0,42.0,76.413515625,51.845,0.34378115625,238.65
2021-06-21 12:35:41.296875000,-47.0,-15.0,42.0,76.41171875,50.66,0.3438211875,238.65
2021-06-21 12:35:41.304687500,-47.0,-15.0,42.0,76.40992187500001,48.629999999999995,0.34386121875000003,238.65
2021-06-21 12:35:41.312500000,-47.0,-15.0,42.0,76.408125,46.6,0.34390125000000005,238.65
2021-06-21 12:35:41.320312500,-47.0,-15.0,42.0,76.406328125,43.64,0.34394128125,238.65
2021-06-21 12:35:41.328125000,-47.0,-15.0,42.0,76.40453125,40.68,0.3439813125,238.65
2021-06-21 12:35:41.335937500,-47.0,-15.0,42.0,76.40273437500001,36.95,0.34402134375000004,238.65
2021-06-21 12:35:41.343750000,-47.0,-15.0,42.0,76.4009375,33.22,0.344061375,238.65
2021-06-21 12:35:41.351562500,-47.0,-14.75,42.0,76.399140625,29.104999999999997,0.34410140625,238.65
2021-06-21 12:35:41.359375000,-47.0,-14.5,42.0,76.39734375,24.99,0.34414143750000004,238.65
2021-06-21 12:35:41.367187500,-47.0,-14.25,42.0,76.39554687500001,20.935,0.34418146875,238.65
2021-06-21 12:35:41.375000000,-47.0,-14.0,42.0,76.39375,16.88,0.3442215,238.65
2021-06-21 12:35:41.382812500,-47.25,-14.25,41.75,76.391953125,13.239999999999998,0.34426153125000003,238.65
2021-06-21 12:35:41.390625000,-47.5,-14.5,41.5,76.39015625,9.6,0.3443015625,238.65
2021-06-21 12:35:41.398437500,-47.75,-14.75,41.25,76.38835937500001,6.51,0.34434159375,238.65
2021-06-21 12:35:41.406250000,-48.0,-15.0,41.0,76.3865625,3.42,0.344381625,238.65
2021-06-21 12:35:41.414062500,-47.75,-15.0,41.25,76.384765625,0.7949999999999999,0.34442165625,238.65
2021-06-21 12:35:41.421875000,-47.5,-15.0,41.5,76.38296875,-1.83,0.3444616875,238.65
2021-06-21 12:35:41.429687500,-47.25,-15.0,41.75,76.381171875,-4.234999999999999,0.34450171875,238.65
2021-06-21 12:35:41.437500000,-47.0,-15.0,42.0,76.379375,-6.64,0.34454175,238.65
2021-06-21 12:35:41.445312500,-47.0,-15.0,42.0,76.377578125,-9.165,0.34458178125,238.65
2021-06-21 12:35:41.453125000,-47.0,-15.0,42.0,76.37578125,-11.69,0.3446218125,238.65
2021-06-21 12:35:41.460937500,-47.0,-15.0,42.0,76.373984375,-14.669999999999998,0.34466184375000003,238.65
2021-06-21 12:35:41.468750000,-47.0,-15.0,42.0,76.3721875,-17.65,0.344701875,238.65
2021-06-21 12:35:41.476562500,-47.0,-15.0,42.0,76.370390625,-21.345,0.34474190625,238.65
2021-06-21 12:35:41.484375000,-47.0,-15.0,42.0,76.36859375,-25.04,0.3447819375,238.65
2021-06-21 12:35:41.492187500,-47.0,-15.0,42.0,76.366796875,-29.555,0.34482196875,238.65
2021-06-21 12:35:41.500000000,-47.0,-15.0,42.0,76.36500000000001,-34.07,0.344862,238.65
2021-06-21 12:35:41.507812500,-47.0,-15.0,42.0,76.363203125,-39.22,0.3447819375,238.65
2021-06-21 12:35:41.515625000,-47.0,-15.0,42.0,76.36140625,-44.37,0.344701875,238.65
2021-06-21 12:35:41.523437500,-47.0,-15.0,42.0,76.359609375,-49.625,0.3446218125,238.65
2021-06-21 12:35:41.531250000,-47.0,-15.0,42.0,76.35781250000001,-54.88,0.34454175,238.65
2021-06-21 12:35:41.539062500,-47.0,-15.0,42.0,76.356015625,-59.315,0.3444616875,238.65
2021-06-21 12:35:41.546875000,-47.0,-15.0,42.0,76.35421875,-63.75,0.344381625,238.65
2021-06-21 12:35:41.554687500,-47.0,-15.0,42.0,76.352421875,-66.27000000000001,0.3443015625,238.65
2021-06-21 12:35:41.562500000,-47.0,-15.0,42.0,76.35062500000001,-68.79,0.3442215,238.65
2021-06-21 12:35:41.570312500,-47.0,-15.0,42.0,76.348828125,-68.41,0.3441414375,238.65
2021-06-21 12:35:41.578125000,-47.0,-15.0,42.0,76.34703125,-68.03,0.344061375,238.65
2021-06-21 12:35:41.585937500,-47.0,-15.0,42.0,76.345234375,-64.25,0.3439813125,238.65
2021-06-21 12:35:41.593750000,-47.0,-15.0,42.0,76.34343750000001,-60.47,0.34390125,238.65
2021-06-21 12:35:41.601562500,-47.0,-15.0,42.0,76.341640625,-53.474999999999994,0.3438211875,238.65
2021-06-21 12:35:41.609375000,-47.0,-15.0,42.0,76.33984375,-46.48,0.343741125,238.65
2021-06-21 12:35:41.617187500,-47.0,-15.0,42.0,76.338046875,-37.129999999999995,0.3436610625,238.65
2021-06-21 12:35:41.625000000,-47.0,-15.0,42.0,76.33625,-27.78,0.343581,238.65
2021-06-21 12:35:41.632812500,-47.0,-15.0,41.75,76.334453125,-17.365000000000002,0.3435009375,238.65
2021-06-21 12:35:41.640625000,-47.0,-15.0,41.5,76.33265625,-6.95,0.343420875,238.65
2021-06-21 12:35:41.648437500,-47.0,-15.0,41.25,76.330859375,3.204999999999999,0.3433408125,238.65
2021-06-21 12:35:41.656250000,-47.0,-15.0,41.0,76.3290625,13.36,0.34326075,238.65
2021-06-21 12:35:41.664062500,-47.0,-15.0,41.25,76.327265625,22.2,0.34318068749999997,238.65
2021-06-21 12:35:41.671875000,-47.0,-15.0,41.5,76.32546875,31.04,0.343100625,238.65
2021-06-21 12:35:41.679687500,-47.0,-15.0,41.75,76.323671875,37.97,0.3430205625,238.65
2021-06-21 12:35:41.687500000,-47.0,-15.0,42.0,76.321875,44.9,0.3429405,238.65
2021-06-21 12:35:41.695312500,-47.25,-15.0,41.75,76.320078125,49.765,0.3428604375,238.65
2021-06-21 12:35:41.703125000,-47.5,-15.0,41.5,76.31828125,54.63,0.34278037499999997,238.65
2021-06-21 12:35:41.710937500,-47.75,-15.0,41.25,76.316484375,57.615,0.3427003125,238.65
2021-06-21 12:35:41.718750000,-48.0,-15.0,41.0,76.3146875,60.6,0.34262025,238.65
2021-06-21 12:35:41.726562500,-47.75,-15.0,41.25,76.312890625,62.05,0.3425401875,238.65
2021-06-21 12:35:41.734375000,-47.5,-15.0,41.5,76.31109375,63.5,0.342460125,238.65
2021-06-21 12:35:41.742187500,-47.25,-15.0,41.75,76.309296875,63.8,0.34238006249999997,238.65
2021-06-21 12:35:41.750000000,-47.0,-15.0,42.0,76.3075,64.1,0.3423,238.65
2021-06-21 12:35:41.757812500,-47.0,-15.0,42.0,76.30570312500001,63.625,0.3423,238.65
2021-06-21 12:35:41.765625000,-47.0,-15.0,42.0,76.30390625,63.15,0.3423,238.65
2021-06-21 12:35:41.773437500,-47.0,-15.0,42.0,76.302109375,62.21,0.3423,238.65
2021-06-21 12:35:41.781250000,-47.0,-15.0,42.0,76.3003125,61.27,0.3423,238.65
2021-06-21 12:35:41.789062500,-47.0,-15.0,42.0,76.29851562500001,60.135000000000005,0.3423,238.65
2021-06-21 12:35:41.796875000,-47.0,-15.0,42.0,76.29671875,59.0,0.3423,238.65
2021-06-21 12:35:41.804687500,-47.0,-15.0,42.0,76.294921875,57.89,0.3423,238.65
2021-06-21 12:35:41.812500000,-47.0,-15.0,42.0,76.293125,56.78,0.3423,238.65
2021-06-21 12:35:41.820312500,-47.0,-15.0,42.0,76.291328125,55.86,0.3423,238.65
2021-06-21 12:35:41.828125000,-47.0,-15.0,42.0,76.28953125,54.94,0.3423,238.65
2021-06-21 12:35:41.835937500,-47.0,-15.0,42.0,76.287734375,54.305,0.3423,238.65
2021-06-21 12:35:41.843750000,-47.0,-15.0,42.0,76.2859375,53.67,0.3423,238.65
2021-06-21 12:35:41.851562500,-47.0,-15.0,42.0,76.284140625,53.345,0.3423,238.65
2021-06-21 12:35:41.859375000,-47.0,-15.0,42.0,76.28234375,53.02,0.3423,238.65
2021-06-21 12:35:41.867187500,-47.0,-15.0,42.0,76.280546875,52.935,0.3423,238.65
2021-06-21 12:35:41.875000000,-47.0,-15.0,42.0,76.27875,52.85,0.3423,238.65
2021-06-21 12:35:41.882812500,-47.0,-15.0,42.0,76.276953125,52.870000000000005,0.3423,238.65
2021-06-21 12:35:41.890625000,-47.0,-15.0,42.0,76.27515625,52.89,0.3423,238.65
2021-06-21 12:35:41.898437500,-47.0,-15.0,42.0,76.273359375,52.86,0.3423,238.65
2021-06-21 12:35:41.906250000,-47.0,-15.0,42.0,76.2715625,52.83,0.3423,238.65
2021-06-21 12:35:41.914062500,-47.0,-15.0,41.75,76.269765625,52.599999999999994,0.3423,238.65
2021-06-21 12:35:41.921875000,-47.0,-15.0,41.5,76.26796875,52.37,0.3423,238.65
2021-06-21 12:35:41.929687500,-47.0,-15.0,41.25,76.266171875,51.845,0.3423,238.65
2021-06-21 12:35:41.937500000,-47.0,-15.0,41.0,76.264375,51.32,0.3423,238.65
2021-06-21 12:35:41.945312500,-47.0,-15.0,41.25,76.262578125,50.46,0.3423,238.65
2021-06-21 12:35:41.953125000,-47.0,-15.0,41.5,76.26078125,49.6,0.3423,238.65
2021-06-21 12:35:41.960937500,-47.0,-15.0,41.75,76.258984375,48.370000000000005,0.3423,238.65
2021-06-21 12:35:41.968750000,-47.0,-15.0,42.0,76.2571875,47.14,0.3423,238.65
2021-06-21 12:35:41.976562500,-47.0,-15.0,42.0,76.255390625,45.535,0.3423,238.65
2021-06-21 12:35:41.984375000,-47.0,-15.0,42.0,76.25359375,43.93,0.3423,238.65
2021-06-21 12:35:41.992187500,-47.0,-15.0,42.0,76.251796875,41.945,0.3423,238.65
2021-06-21 12:35:42.000000000,-47.0,-15.0,42.0,76.25,39.96,0.3423,238.65
2021-06-21 12:35:42.007812500,-47.0,-15.0,42.0,76.248203125,37.575,0.3423,238.65
2021-06-21 12:35:42.015625000,-47.0,-15.0,42.0,76.24640625,35.19,0.3423,238.65
2021-06-21 12:35:42.023437500,-47.0,-15.0,42.0,76.244609375,32.42,0.3423,238.65
2021-06-21 12:35:42.031250000,-47.0,-15.0,42.0,76.2428125,29.65,0.3423,238.65
2021-06-21 12:35:42.039062500,-47.0,-15.0,41.75,76.241015625,26.525,0.3423,238.65
2021-06-21 12:35:42.046875000,-47.0,-15.0,41.5,76.23921875,23.4,0.3423,238.65
2021-06-21 12:35:42.054687500,-47.0,-15.0,41.25,76.237421875,19.975,0.3423,238.65
2021-06-21 12:35:42.062500000,-47.0,-15.0,41.0,76.235625,16.55,0.3423,238.65
2021-06-21 12:35:42.070312500,-47.0,-15.0,41.25,76.233828125,12.9,0.3423,238.65
2021-06-21 12:35:42.078125000,-47.0,-15.0,41.5,76.23203125,9.25,0.3423,238.65
2021-06-21 12:35:42.085937500,-47.0,-15.0,41.75,76.230234375,5.47,0.3423,238.65
2021-06-21 12:35:42.093750000,-47.0,-15.0,42.0,76.2284375,1.69,0.3423,238.65
2021-06-21 12:35:42.101562500,-47.0,-15.0,41.75,76.226640625,-2.1250000000000004,0.3423,238.65
2021-06-21 12:35:42.109375000,-47.0,-15.0,41.5,76.22484375,-5.94,0.3423,238.65
2021-06-21 12:35:42.117187500,-47.0,-15.0,41.25,76.223046875,-9.665000000000001,0.3423,238.65
2021-06-21 12:35:42.125000000,-47.0,-15.0,41.0,76.22125,-13.39,0.3423,238.65
2021-06-21 12:35:42.132812500,-47.0,-15.0,41.25,76.219453125,-16.884999999999998,0.3423,238.65
2021-06-21 12:35:42.140625000,-47.0,-15.0,41.5,76.21765625,-20.38,0.3423,238.65
2021-06-21 12:35:42.148437500,-47.0,-15.0,41.75,76.215859375,-23.54,0.3423,238.65
2021-06-21 12:35:42.156250000,-47.0,-15.0,42.0,76.2140625,-26.7,0.3423,238.65
2021-06-21 12:35:42.164062500,-47.0,-15.0,42.0,76.212265625,-29.485,0.3423,238.65
2021-06-21 12:35:42.171875000,-47.0,-15.0,42.0,76.21046875,-32.27,0.3423,238.65
2021-06-21 12:35:42.179687500,-47.0,-15.0,42.0,76.208671875,-34.755,0.3423,238.65
2021-06-21 12:35:42.187500000,-47.0,-15.0,42.0,76.206875,-37.24,0.3423,238.65
2021-06-21 12:35:42.195312500,-47.0,-15.0,41.75,76.205078125,-39.615,0.3423,238.65
2021-06-21 12:35:42.203125000,-47.0,-15.0,41.5,76.20328125,-41.99,0.3423,238.65
2021-06-21 12:35:42.210937500,-47.0,-15.0,41.25,76.20148437499999,-44.56,0.3423,238.65
2021-06-21 12:35:42.218750000,-47.0,-15.0,41.0,76.1996875,-47.13,0.3423,238.65
2021-06-21 12:35:42.226562500,-47.0,-15.0,41.25,76.197890625,-50.225,0.3423,238.65
2021-06-21 12:35:42.234375000,-47.0,-15.0,41.5,76.19609375,-53.32,0.3423,238.65
2021-06-21 12:35:42.242187500,-47.0,-15.0,41.75,76.19429687499999,-57.185,0.3423,238.65
2021-06-21 12:35:42.250000000,-47.0,-15.0,42.0,76.1925,-61.05,0.3423,238.65
2021-06-21 12:35:42.257812500,-47.0,-15.0,42.0,76.190703125,-65.735,0.34242009375,238.65
2021-06-21 12:35:42.265625000,-47.0,-15.0,42.0,76.18890625,-70.42,0.3425401875,238.65
2021-06-21 12:35:42.273437500,-47.0,-15.0,42.0,76.187109375,-75.61500000000001,0.34266028125,238.65
2021-06-21 12:35:42.281250000,-47.0,-15.0,42.0,76.1853125,-80.81,0.34278037499999997,238.65
2021-06-21 12:35:42.289062500,-47.0,-15.0,42.0,76.183515625,-85.825,0.34290046874999996,238.65
2021-06-21 12:35:42.296875000,-47.0,-15.0,42.0,76.18171875,-90.84,0.3430205625,238.65
2021-06-21 12:35:42.304687500,-47.0,-15.0,42.0,76.179921875,-94.64500000000001,0.34314065625,238.65
2021-06-21 12:35:42.312500000,-47.0,-15.0,42.0,76.178125,-98.45,0.34326075,238.65
2021-06-21 12:35:42.320312500,-47.0,-15.0,41.75,76.176328125,-99.92,0.34338084375,238.65
2021-06-21 12:35:42.328125000,-47.0,-15.0,41.5,76.17453125,-101.39,0.3435009375,238.65
2021-06-21 12:35:42.335937500,-47.0,-15.0,41.25,76.172734375,-99.63,0.34362103125,238.65
2021-06-21 12:35:42.343750000,-47.0,-15.0,41.0,76.1709375,-97.87,0.343741125,238.65
2021-06-21 12:35:42.351562500,-47.0,-15.0,41.0,76.169140625,-92.53999999999999,0.34386121875,238.65
2021-06-21 12:35:42.359375000,-47.0,-15.0,41.0,76.16734375,-87.21,0.34398131249999997,238.65
2021-06-21 12:35:42.367187500,-47.0,-15.0,41.0,76.165546875,-78.74,0.34410140624999996,238.65
2021-06-21 12:35:42.375000000,-47.0,-15.0,41.0,76.16375,-70.27,0.34422149999999996,238.65
2021-06-21 12:35:42.382812500,-47.0,-15.0,41.25,76.161953125,-59.735,0.34434159375,238.65
2021-06-21 12:35:42.390625000,-47.0,-15.0,41.5,76.16015625,-49.2,0.3444616875,238.65
2021-06-21 12:35:42.398437500,-47.0,-15.0,41.75,76.158359375,-38.06,0.34458178125,238.65
2021-06-21 12:35:42.406250000,-47.0,-15.0,42.0,76.15656249999999,-26.92,0.344701875,238.65
2021-06-21 12:35:42.414062500,-47.25,-15.0,42.0,76.154765625,-16.575000000000003,0.34482196875,238.65
2021-06-21 12:35:42.421875000,-47.5,-15.0,42.0,76.15296875,-6.23,0.3449420625,238.65
2021-06-21 12:35:42.429687500,-47.75,-15.0,42.0,76.151171875,2.335000000000001,0.34506215625,238.65
2021-06-21 12:35:42.437500000,-48.0,-15.0,42.0,76.14937499999999,10.9,0.34518224999999997,238.65
2021-06-21 12:35:42.445312500,-47.75,-15.0,41.75,76.147578125,17.285,0.34530234374999996,238.65
2021-06-21 12:35:42.453125000,-47.5,-15.0,41.5,76.14578125,23.67,0.34542243749999996,238.65
2021-06-21 12:35:42.460937500,-47.25,-15.0,41.25,76.143984375,27.990000000000002,0.34554253125,238.65
2021-06-21 12:35:42.468750000,-47.0,-15.0,41.0,76.14218749999999,32.31,0.345662625,238.65
2021-06-21 12:35:42.476562500,-47.25,-15.0,41.0,76.140390625,35.015,0.34578271875,238.65
2021-06-21 12:35:42.484375000,-47.5,-15.0,41.0,76.13859375,37.72,0.3459028125,238.65
2021-06-21 12:35:42.492187500,-47.75,-15.0,41.0,76.136796875,39.31,0.34602290625,238.65
2021-06-21 12:35:42.500000000,-48.0,-15.0,41.0,76.13499999999999,40.9,0.346143,238.65
2021-06-21 12:35:42.507812500,-47.75,-15.0,41.0,76.133203125,41.82,0.346143,238.65
2021-06-21 12:35:42.515625000,-47.5,-15.0,41.0,76.13140625,42.74,0.346143,238.65
2021-06-21 12:35:42.523437500,-47.25,-15.0,41.0,76.129609375,43.3,0.346143,238.65
2021-06-21 12:35:42.531250000,-47.0,-15.0,41.0,76.1278125,43.86,0.346143,238.65
2021-06-21 12:35:42.539062500,-47.0,-15.0,41.0,76.126015625,44.245000000000005,0.346143,238.65
2021-06-21 12:35:42.546875000,-47.0,-15.0,41.0,76.12421875,44.63,0.346143,238.65
2021-06-21 12:35:42.554687500,-47.0,-15.0,41.0,76.122421875,44.985,0.346143,238.65
2021-06-21 12:35:42.562500000,-47.0,-15.0,41.0,76.120625,45.34,0.346143,238.65
2021-06-21 12:35:42.570312500,-47.25,-15.0,41.0,76.118828125,45.72,0.346143,238.65
2021-06-21 12:35:42.578125000,-47.5,-15.0,41.0,76.11703125,46.1,0.346143,238.65
2021-06-21 12:35:42.585937500,-47.75,-15.0,41.0,76.115234375,46.525000000000006,0.346143,238.65
2021-06-21 12:35:42.593750000,-48.0,-15.0,41.0,76.1134375,46.95,0.346143,238.65
2021-06-21 12:35:42.601562500,-47.75,-15.0,41.25,76.11164062499999,47.39,0.346143,238.65
2021-06-21 12:35:42.609375000,-47.5,-15.0,41.5,76.10984375,47.83,0.346143,238.65
2021-06-21 12:35:42.617187500,-47.25,-15.0,41.75,76.108046875,48.245,0.346143,238.65
2021-06-21 12:35:42.625000000,-47.0,-15.0,42.0,76.10625,48.66,0.346143,238.65
2021-06-21 12:35:42.632812500,-47.0,-15.0,42.0,76.10445312499999,49.03,0.346143,238.65
2021-06-21 12:35:42.640625000,-47.0,-15.0,42.0,76.10265625,49.4,0.346143,238.65
2021-06-21 12:35:42.648437500,-47.0,-15.0,42.0,76.100859375,49.715,0.346143,238.65
2021-06-21 12:35:42.656250000,-47.0,-15.0,42.0,76.0990625,50.03,0.346143,238.65
2021-06-21 12:35:42.664062500,-47.25,-15.0,42.0,76.09726562499999,50.305,0.346143,238.65
2021-06-21 12:35:42.671875000,-47.5,-15.0,42.0,76.09546875,50.58,0.346143,238.65
2021-06-21 12:35:42.679687500,-47.75,-15.0,42.0,76.093671875,50.815,0.346143,238.65
2021-06-21 12:35:42.687500000,-48.0,-15.0,42.0,76.091875,51.05,0.346143,238.65
2021-06-21 12:35:42.695312500,-48.0,-15.0,41.75,76.09007812499999,51.195,0.346143,238.65
2021-06-21 12:35:42.703125000,-48.0,-15.0,41.5,76.08828125,51.34,0.346143,238.65
2021-06-21 12:35:42.710937500,-48.0,-15.0,41.25,76.086484375,51.3,0.346143,238.65
2021-06-21 12:35:42.718750000,-48.0,-15.0,41.0,76.0846875,51.26,0.346143,238.65
2021-06-21 12:35:42.726562500,-47.75,-15.0,41.0,76.08289062499999,50.875,0.346143,238.65
2021-06-21 12:35:42.734375000,-47.5,-15.0,41.0,76.08109375,50.49,0.346143,238.65
2021-06-21 12:35:42.742187500,-47.25,-15.0,41.0,76.079296875,49.64,0.346143,238.65
2021-06-21 12:35:42.750000000,-47.0,-15.0,41.0,76.0775,48.79,0.346143,238.65
2021-06-21 12:35:42.757812500,-47.0,-15.0,41.25,76.075703125,47.405,0.34602290625,238.65
2021-06-21 12:35:42.765625000,-47.0,-15.0,41.5,76.07390625,46.02,0.3459028125,238.65
2021-06-21 12:35:42.773437500,-47.0,-15.0,41.75,76.072109375,44.120000000000005,0.34578271875,238.65
2021-06-21 12:35:42.781250000,-47.0,-15.0,42.0,76.0703125,42.22,0.345662625,238.65
2021-06-21 12:35:42.789062500,-47.0,-15.0,42.0,76.068515625,39.93,0.34554253125,238.65
2021-06-21 12:35:42.796875000,-47.0,-15.0,42.0,76.06671874999999,37.64,0.34542243749999996,238.65
2021-06-21 12:35:42.804687500,-47.0,-15.0,42.0,76.064921875,35.095,0.34530234374999996,238.65
2021-06-21 12:35:42.812500000,-47.0,-15.0,42.0,76.063125,32.55,0.34518224999999997,238.65
2021-06-21 12:35:42.820312500,-47.0,-15.0,41.75,76.061328125,29.839999999999996,0.34506215625,238.65
2021-06-21 12:35:42.828125000,-47.0,-15.0,41.5,76.05953124999999,27.13,0.3449420625,238.65
2021-06-21 12:35:42.835937500,-47.0,-15.0,41.25,76.057734375,24.28,0.34482196875,238.65
2021-06-21 12:35:42.843750000,-47.0,-15.0,41.0,76.0559375,21.43,0.344701875,238.65
2021-06-21 12:35:42.851562500,-47.0,-15.0,41.0,76.054140625,18.41,0.34458178125,238.65
2021-06-21 12:35:42.859375000,-47.0,-15.0,41.0,76.05234374999999,15.39,0.3444616875,238.65
2021-06-21 12:35:42.867187500,-47.0,-15.0,41.0,76.050546875,12.17,0.34434159375,238.65
2021-06-21 12:35:42.875000000,-47.0,-15.0,41.0,76.04875,8.95,0.34422149999999996,238.65
2021-06-21 12:35:42.882812500,-47.0,-15.0,41.0,76.046953125,5.574999999999999,0.34410140624999996,238.65
2021-06-21 12:35:42.890625000,-47.0,-15.0,41.0,76.04515624999999,2.2,0.34398131249999997,238.65
2021-06-21 12:35:42.898437500,-47.0,-15.0,41.0,76.043359375,-1.2199999999999998,0.34386121875,238.65
2021-06-21 12:35:42.906250000,-47.0,-15.0,41.0,76.0415625,-4.64,0.343741125,238.65
2021-06-21 12:35:42.914062500,-47.0,-15.0,41.0,76.039765625,-7.9399999999999995,0.34362103125,238.65
2021-06-21 12:35:42.921875000,-47.0,-15.0,41.0,76.03796874999999,-11.24,0.3435009375,238.65
2021-06-21 12:35:42.929687500,-47.0,-15.0,41.0,76.036171875,-14.29,0.34338084375,238.65
2021-06-21 12:35:42.937500000,-47.0,-15.0,41.0,76.034375,-17.34,0.34326075,238.65
2021-06-21 12:35:42.945312500,-47.25,-15.0,41.0,76.032578125,-20.09,0.34314065625,238.65
2021-06-21 12:35:42.953125000,-47.5,-15.0,41.0,76.03078124999999,-22.84,0.3430205625,238.65
2021-06-21 12:35:42.960937500,-47.75,-15.0,41.0,76.028984375,-25.355,0.34290046874999996,238.65
2021-06-21 12:35:42.968750000,-48.0,-15.0,41.0,76.0271875,-27.87,0.34278037499999997,238.65
2021-06-21 12:35:42.976562500,-47.75,-15.0,41.0,76.025390625,-30.275,0.34266028125,238.65
2021-06-21 12:35:42.984375000,-47.5,-15.0,41.0,76.02359374999999,-32.68,0.3425401875,238.65
2021-06-21 12:35:42.992187500,-47.25,-15.0,41.0,76.02179687499999,-35.144999999999996,0.34242009375,238.65
2021-06-21 12:35:43.000000000,-47.0,-15.0,41.0,76.02,-37.61,0.3423,238.65
2021-06-21 12:35:43.007812500,-47.0,-15.0,41.25,76.01851562499999,-40.34,0.3423,238.65
2021-06-21 12:35:43.015625000,-47.0,-15.0,41.5,76.01703125,-43.07,0.3423,238.65
2021-06-21 12:35:43.023437500,-47.0,-15.0,41.75,76.015546875,-46.275,0.3423,238.65
2021-06-21 12:35:43.031250000,-47.0,-15.0,42.0,76.0140625,-49.48,0.3423,238.65
2021-06-21 12:35:43.039062500,-47.0,-15.0,42.0,76.01257812499999,-53.345,0.3423,238.65
2021-06-21 12:35:43.046875000,-47.0,-15.0,42.0,76.01109375,-57.21,0.3423,238.65
2021-06-21 12:35:43.054687500,-47.0,-15.0,42.0,76.009609375,-61.739999999999995,0.3423,238.65
2021-06-21 12:35:43.062500000,-47.0,-15.0,42.0,76.00812499999999,-66.27,0.3423,238.65
2021-06-21 12:35:43.070312500,-47.0,-15.0,42.0,76.006640625,-71.12,0.3423,238.65
2021-06-21 12:35:43.078125000,-47.0,-15.0,42.0,76.00515625,-75.97,0.3423,238.65
2021-06-21 12:35:43.085937500,-47.0,-15.0,42.0,76.003671875,-80.39,0.3423,238.65
2021-06-21 12:35:43.093750000,-47.0,-15.0,42.0,76.00218749999999,-84.81,0.3423,238.65
2021-06-21 12:35:43.101562500,-47.0,-15.0,42.0,76.000703125,-87.725,0.3423,238.65
2021-06-21 12:35:43.109375000,-47.0,-15.0,42.0,75.99921875,-90.64,0.3423,238.65
2021-06-21 12:35:43.117187500,-47.0,-15.0,42.0,75.997734375,-90.93,0.3423,238.65
2021-06-21 12:35:43.125000000,-47.0,-15.0,42.0,75.99625,-91.22,0.3423,238.65
2021-06-21 12:35:43.132812500,-47.0,-15.0,42.0,75.994765625,-88.15,0.3423,238.65
2021-06-21 12:35:43.140625000,-47.0,-15.0,42.0,75.99328125,-85.08,0.3423,238.65
2021-06-21 12:35:43.148437500,-47.0,-15.0,42.0,75.99179687499999,-78.59,0.3423,238.65
2021-06-21 12:35:43.156250000,-47.0,-15.0,42.0,75.9903125,-72.1,0.3423,238.65
2021-06-21 12:35:43.164062500,-47.0,-15.0,42.0,75.988828125,-62.905,0.3423,238.65
2021-06-21 12:35:43.171875000,-47.0,-15.0,42.0,75.98734375,-53.71,0.3423,238.65
2021-06-21 12:35:43.179687500,-47.0,-15.0,42.0,75.98585937499999,-43.09,0.3423,238.65
2021-06-21 12:35:43.187500000,-47.0,-15.0,42.0,75.984375,-32.47,0.3423,238.65
2021-06-21 12:35:43.195312500,-47.0,-15.0,41.75,75.982890625,-21.884999999999998,0.3423,238.65
2021-06-21 12:35:43.203125000,-47.0,-15.0,41.5,75.98140624999999,-11.3,0.3423,238.65
2021-06-21 12:35:43.210937500,-47.0,-15.0,41.25,75.979921875,-1.9649999999999999,0.3423,238.65
2021-06-21 12:35:43.218750000,-47.0,-15.0,41.0,75.9784375,7.37,0.3423,238.65
2021-06-21 12:35:43.226562500,-47.25,-15.0,41.0,75.976953125,14.739999999999998,0.3423,238.65
2021-06-21 12:35:43.234375000,-47.5,-15.0,41.0,75.97546874999999,22.11,0.3423,238.65
2021-06-21 12:35:43.242187500,-47.75,-15.0,41.0,75.973984375,27.33,0.3423,238.65
2021-06-21 12:35:43.250000000,-48.0,-15.0,41.0,75.9725,32.55,0.3423,238.65
2021-06-21 12:35:43.257812500,-48.0,-15.0,41.0,75.97101562499999,35.855,0.3423,238.65
2021-06-21 12:35:43.265625000,-48.0,-15.0,41.0,75.96953125,39.16,0.3423,238.65
2021-06-21 12:35:43.273437500,-48.0,-15.0,41.0,75.968046875,40.985,0.3423,238.65
2021-06-21 12:35:43.281250000,-48.0,-15.0,41.0,75.9665625,42.81,0.3423,238.65
2021-06-21 12:35:43.289062500,-47.75,-15.0,41.25,75.96507812499999,43.644999999999996,0.3423,238.65
2021-06-21 12:35:43.296875000,-47.5,-15.0,41.5,75.96359375,44.48,0.3423,238.65
2021-06-21 12:35:43.304687500,-47.25,-15.0,41.75,75.962109375,44.735,0.3423,238.65
2021-06-21 12:35:43.312500000,-47.0,-15.0,42.0,75.960625,44.99,0.3423,238.65
2021-06-21 12:35:43.320312500,-47.0,-15.0,42.0,75.959140625,44.980000000000004,0.3423,238.65
2021-06-21 12:35:43.328125000,-47.0,-15.0,42.0,75.95765625,44.97,0.3423,238.65
2021-06-21 12:35:43.335937500,-47.0,-15.0,42.0,75.956171875,44.925,0.3423,238.65
2021-06-21 12:35:43.343750000,-47.0,-15.0,42.0,75.95468749999999,44.88,0.3423,238.65
2021-06-21 12:35:43.351562500,-47.0,-15.0,41.75,75.953203125,44.92,0.3423,238.65
2021-06-21 12:35:43.359375000,-47.0,-15.0,41.5,75.95171875,44.96,0.3423,238.65
2021-06-21 12:35:43.367187500,-47.0,-15.0,41.25,75.950234375,45.129999999999995,0.3423,238.65
2021-06-21 12:35:43.375000000,-47.0,-15.0,41.0,75.94874999999999,45.3,0.3423,238.65
2021-06-21 12:35:43.382812500,-47.0,-15.0,41.0,75.947265625,45.56,0.3423,238.65
2021-06-21 12:35:43.390625000,-47.0,-15.0,41.0,75.94578125,45.82,0.3423,238.65
2021-06-21 12:35:43.398437500,-47.0,-15.0,41.0,75.94429687499999,46.08,0.3423,238.65
2021-06-21 12:35:43.406250000,-47.0,-15.0,41.0,75.9428125,46.34,0.3423,238.65
2021-06-21 12:35:43.414062500,-47.25,-15.0,41.0,75.941328125,46.525000000000006,0.3423,238.65
2021-06-21 12:35:43.421875000,-47.5,-15.0,41.0,75.93984375,46.71,0.3423,238.65
2021-06-21 12:35:43.429687500,-47.75,-15.0,41.0,75.93835937499999,46.78,0.3423,238.65
2021-06-21 12:35:43.437500000,-48.0,-15.0,41.0,75.936875,46.85,0.3423,238.65
2021-06-21 12:35:43.445312500,-47.75,-15.0,41.0,75.935390625,46.825,0.3423,238.65
2021-06-21 12:35:43.453125000,-47.5,-15.0,41.0,75.93390624999999,46.8,0.3423,238.65
2021-06-21 12:35:43.460937500,-47.25,-15.0,41.0,75.932421875,46.73,0.3423,238.65
2021-06-21 12:35:43.468750000,-47.0,-15.0,41.0,75.9309375,46.66,0.3423,238.65
2021-06-21 12:35:43.476562500,-47.0,-15.0,41.25,75.929453125,46.565,0.3423,238.65
2021-06-21 12:35:43.484375000,-47.0,-15.0,41.5,75.92796874999999,46.47,0.3423,238.65
2021-06-21 12:35:43.492187500,-47.0,-15.0,41.75,75.926484375,46.315,0.3423,238.65
2021-06-21 12:35:43.500000000,-47.0,-15.0,42.0,75.925,46.16,0.3423,238.65
2021-06-21 12:35:43.507812500,-47.0,-15.0,42.0,75.923515625,45.834999999999994,0.34234003125,238.65
2021-06-21 12:35:43.515625000,-47.0,-15.0,42.0,75.92203125,45.51,0.34238006249999997,238.65
2021-06-21 12:35:43.523437500,-47.0,-15.0,42.0,75.920546875,44.875,0.34242009375,238.65
2021-06-21 12:35:43.531250000,-47.0,-15.0,42.0,75.9190625,44.24,0.342460125,238.65
2021-06-21 12:35:43.539062500,-47.0,-15.0,41.75,75.91757812499999,43.150000000000006,0.34250015625,238.65
2021-06-21 12:35:43.546875000,-47.0,-15.0,41.5,75.91609375,42.06,0.3425401875,238.65
2021-06-21 12:35:43.554687500,-47.0,-15.0,41.25,75.914609375,40.42,0.34258021875,238.65
2021-06-21 12:35:43.562500000,-47.0,-15.0,41.0,75.913125,38.78,0.34262025,238.65
2021-06-21 12:35:43.570312500,-47.25,-15.0,41.0,75.911640625,36.59,0.34266028125,238.65
2021-06-21 12:35:43.578125000,-47.5,-15.0,41.0,75.91015625,34.4,0.3427003125,238.65
2021-06-21 12:35:43.585937500,-47.75,-15.0,41.0,75.908671875,31.72,0.34274034375,238.65
2021-06-21 12:35:43.593750000,-48.0,-15.0,41.0,75.90718749999999,29.04,0.342780375,238.65
2021-06-21 12:35:43.601562500,-47.75,-15.0,41.25,75.905703125,26.0,0.34282040625,238.65
2021-06-21 12:35:43.609375000,-47.5,-15.0,41.5,75.90421875,22.96,0.3428604375,238.65
2021-06-21 12:35:43.617187500,-47.25,-15.0,41.75,75.902734375,19.735,0.34290046875,238.65
2021-06-21 12:35:43.625000000,-47.0,-15.0,42.0,75.90125,16.51,0.3429405,238.65
2021-06-21 12:35:43.632812500,-47.0,-15.0,41.75,75.899765625,13.23,0.34298053125,238.65
2021-06-21 12:35:43.640625000,-47.0,-15.0,41.5,75.89828125,9.95,0.3430205625,238.65
2021-06-21 12:35:43.648437500,-47.0,-15.0,41.25,75.89679687499999,6.725,0.34306059375000003,238.65
2021-06-21 12:35:43.656250000,-47.0,-15.0,41.0,75.8953125,3.5,0.343100625,238.65
2021-06-21 12:35:43.664062500,-47.0,-15.0,41.0,75.893828125,0.3700000000000001,0.34314065625,238.65
2021-06-21 12:35:43.671875000,-47.0,-15.0,41.0,75.89234375,-2.76,0.3431806875,238.65
2021-06-21 12:35:43.679687500,-47.0,-15.0,41.0,75.89085937499999,-5.795,0.34322071875000004,238.65
2021-06-21 12:35:43.687500000,-47.0,-15.0,41.0,75.889375,-8.83,0.34326075,238.65
2021-06-21 12:35:43.695312500,-47.0,-15.0,41.0,75.887890625,-11.8,0.34330078125,238.65
2021-06-21 12:35:43.703125000,-47.0,-15.0,41.0,75.88640625,-14.77,0.34334081250000004,238.65
2021-06-21 12:35:43.710937500,-47.0,-15.0,41.0,75.884921875,-17.67,0.34338084375,238.65
2021-06-21 12:35:43.718750000,-47.0,-15.0,41.0,75.8834375,-20.57,0.343420875,238.65
2021-06-21 12:35:43.726562500,-47.0,-15.0,41.0,75.881953125,-23.37,0.34346090625000003,238.65
2021-06-21 12:35:43.734375000,-47.0,-15.0,41.0,75.88046874999999,-26.17,0.34350093750000005,238.65
2021-06-21 12:35:43.742187500,-47.0,-15.0,41.0,75.878984375,-28.8,0.34354096875,238.65
2021-06-21 12:35:43.750000000,-47.0,-15.0,41.0,75.8775,-31.43,0.343581,238.65
2021-06-21 12:35:43.757812500,-47.0,-15.0,41.0,75.876015625,-33.84,0.34354096875,238.65
2021-06-21 12:35:43.765625000,-47.0,-15.0,41.0,75.87453125,-36.25,0.34350093750000005,238.65
2021-06-21 12:35:43.773437500,-47.0,-15.0,41.0,75.873046875,-38.47,0.34346090625000003,238.65
2021-06-21 12:35:43.781250000,-47.0,-15.0,41.0,75.8715625,-40.69,0.343420875,238.65
2021-06-21 12:35:43.789062500,-47.0,-15.0,41.0,75.87007812499999,-42.864999999999995,0.34338084375,238.65
2021-06-21 12:35:43.796875000,-47.0,-15.0,41.0,75.86859375,-45.04,0.34334081250000004,238.65
2021-06-21 12:35:43.804687500,-47.0,-15.0,41.0,75.867109375,-47.455,0.34330078125,238.65
2021-06-21 12:35:43.812500000,-47.0,-15.0,41.0,75.865625,-49.87,0.34326075,238.65
2021-06-21 12:35:43.820312500,-47.0,-15.0,41.25,75.864140625,-52.849999999999994,0.34322071875000004,238.65
2021-06-21 12:35:43.828125000,-47.0,-15.0,41.5,75.86265625,-55.83,0.3431806875,238.65
2021-06-21 12:35:43.835937500,-47.0,-15.0,41.75,75.861171875,-59.61,0.34314065625,238.65
2021-06-21 12:35:43.843750000,-47.0,-15.0,42.0,75.85968749999999,-63.39,0.343100625,238.65
2021-06-21 12:35:43.851562500,-47.0,-15.25,41.75,75.858203125,-67.9,0.34306059375000003,238.65
2021-06-21 12:35:43.859375000,-47.0,-15.5,41.5,75.85671875,-72.41,0.3430205625,238.65
2021-06-21 12:35:43.867187500,-47.0,-15.75,41.25,75.855234375,-77.175,0.34298053125,238.65
2021-06-21 12:35:43.875000000,-47.0,-16.0,41.0,75.85374999999999,-81.94,0.3429405,238.65
2021-06-21 12:35:43.882812500,-47.0,-15.75,41.25,75.852265625,-86.06,0.34290046875,238.65
2021-06-21 12:35:43.890625000,-47.0,-15.5,41.5,75.85078125,-90.18,0.3428604375,238.65
2021-06-21 12:35:43.898437500,-47.0,-15.25,41.75,75.849296875,-92.5,0.34282040625,238.65
2021-06-21 12:35:43.906250000,-47.0,-15.0,42.0,75.8478125,-94.82,0.342780375,238.65
2021-06-21 12:35:43.914062500,-47.0,-15.0,41.75,75.846328125,-94.305,0.34274034375,238.65
2021-06-21 12:35:43.921875000,-47.0,-15.0,41.5,75.84484375,-93.79,0.3427003125,238.65
2021-06-21 12:35:43.929687500,-47.0,-15.0,41.25,75.84335937499999,-89.85,0.34266028125,238.65
2021-06-21 12:35:43.937500000,-47.0,-15.0,41.0,75.841875,-85.91,0.34262025,238.65
2021-06-21 12:35:43.945312500,-47.0,-15.0,41.0,75.840390625,-78.68,0.34258021875,238.65
2021-06-21 12:35:43.953125000,-47.0,-15.0,41.0,75.83890625,-71.45,0.3425401875,238.65
2021-06-21 12:35:43.960937500,-47.0,-15.0,41.0,75.837421875,-61.760000000000005,0.34250015625,238.65
2021-06-21 12:35:43.968750000,-47.0,-15.0,41.0,75.8359375,-52.07,0.342460125,238.65
2021-06-21 12:35:43.976562500,-47.0,-15.0,41.25,75.834453125,-41.245000000000005,0.34242009375,238.65
2021-06-21 12:35:43.984375000,-47.0,-15.0,41.5,75.83296874999999,-30.42,0.34238006249999997,238.65
2021-06-21 12:35:43.992187500,-47.0,-15.0,41.75,75.831484375,-19.845,0.34234003125,238.65
2021-06-21 12:35:44.000000000,-47.0,-15.0,42.0,75.83,-9.27,0.3423,238.65
2021-06-21 12:35:44.007812500,-47.25,-15.0,41.75,75.829765625,-0.08500000000000085,0.34234003125,238.65
2021-06-21 12:35:44.015625000,-47.5,-15.0,41.5,75.82953125,9.1,0.34238006249999997,238.65
2021-06-21 12:35:44.023437500,-47.75,-15.0,41.25,75.829296875,16.24,0.34242009375,238.65
2021-06-21 12:35:44.031250000,-48.0,-15.0,41.0,75.82906249999999,23.38,0.342460125,238.65
2021-06-21 12:35:44.039062500,-47.75,-15.0,41.0,75.828828125,28.33,0.34250015625,238.65
2021-06-21 12:35:44.046875000,-47.5,-15.0,41.0,75.82859375,33.28,0.3425401875,238.65
2021-06-21 12:35:44.054687500,-47.25,-15.0,41.0,75.828359375,36.260000000000005,0.34258021875,238.65
2021-06-21 12:35:44.062500000,-47.0,-15.0,41.0,75.828125,39.24,0.34262025,238.65
2021-06-21 12:35:44.070312500,-47.0,-15.0,41.0,75.827890625,40.665000000000006,0.34266028125,238.65
2021-06-21 12:35:44.078125000,-47.0,-15.0,41.0,75.82765625,42.09,0.3427003125,238.65
2021-06-21 12:35:44.085937500,-47.0,-15.0,41.0,75.827421875,42.42,0.34274034375,238.65
2021-06-21 12:35:44.093750000,-47.0,-15.0,41.0,75.8271875,42.75,0.342780375,238.65
2021-06-21 12:35:44.101562500,-47.0,-15.0,41.0,75.826953125,42.379999999999995,0.34282040625,238.65
2021-06-21 12:35:44.109375000,-47.0,-15.0,41.0,75.82671875,42.01,0.3428604375,238.65
2021-06-21 12:35:44.117187500,-47.0,-15.0,41.0,75.82648437499999,41.269999999999996,0.34290046875,238.65
2021-06-21 12:35:44.125000000,-47.0,-15.0,41.0,75.82625,40.53,0.3429405,238.65
2021-06-21 12:35:44.132812500,-47.25,-15.0,41.0,75.826015625,39.68,0.34298053125,238.65
2021-06-21 12:35:44.140625000,-47.5,-15.0,41.0,75.82578124999999,38.83,0.3430205625,238.65
2021-06-21 12:35:44.148437500,-47.75,-15.0,41.0,75.825546875,38.06,0.34306059375000003,238.65
2021-06-21 12:35:44.156250000,-48.0,-15.0,41.0,75.8253125,37.29,0.343100625,238.65
2021-06-21 12:35:44.164062500,-47.75,-15.0,41.0,75.825078125,36.75,0.34314065625,238.65
2021-06-21 12:35:44.171875000,-47.5,-15.0,41.0,75.82484375,36.21,0.3431806875,238.65
2021-06-21 12:35:44.179687500,-47.25,-15.0,41.0,75.824609375,35.995000000000005,0.34322071875000004,238.65
2021-06-21 12:35:44.187500000,-47.0,-15.0,41.0,75.824375,35.78,0.34326075,238.65
2021-06-21 12:35:44.195312500,-47.0,-15.0,41.25,75.824140625,35.91,0.34330078125,238.65
2021-06-21 12:35:44.203125000,-47.0,-15.0,41.5,75.82390625,36.04,0.34334081250000004,238.65
2021-06-21 12:35:44.210937500,-47.0,-15.0,41.75,75.823671875,36.474999999999994,0.34338084375,238.65
2021-06-21 12:35:44.218750000,-47.0,-15.0,42.0,75.8234375,36.91,0.343420875,238.65
2021-06-21 12:35:44.226562500,-47.0,-15.0,41.75,75.82320312499999,37.525,0.34346090625000003,238.65
2021-06-21 12:35:44.234375000,-47.0,-15.0,41.5,75.82296875,38.14,0.34350093750000005,238.65
2021-06-21 12:35:44.242187500,-47.0,-15.0,41.25,75.822734375,38.775,0.34354096875,238.65
2021-06-21 12:35:44.250000000,-47.0,-15.0,41.0,75.82249999999999,39.41,0.343581,238.65
2021-06-21 12:35:44.257812500,-47.0,-15.0,41.0,75.822265625,39.849999999999994,0.3436610625,238.65
2021-06-21 12:35:44.265625000,-47.0,-15.0,41.0,75.82203125,40.29,0.34374112500000004,238.65
2021-06-21 12:35:44.273437500,-47.0,-15.0,41.0,75.821796875,40.385,0.3438211875,238.65
2021-06-21 12:35:44.281250000,-47.0,-15.0,41.0,75.8215625,40.48,0.34390125000000005,238.65
2021-06-21 12:35:44.289062500,-47.0,-15.0,41.0,75.821328125,40.14,0.3439813125,238.65
2021-06-21 12:35:44.296875000,-47.0,-15.0,41.0,75.82109375,39.8,0.344061375,238.65
2021-06-21 12:35:44.304687500,-47.0,-15.0,41.0,75.820859375,39.015,0.34414143750000004,238.65
2021-06-21 12:35:44.312500000,-47.0,-15.0,41.0,75.82062499999999,38.23,0.3442215,238.65
2021-06-21 12:35:44.320312500,-47.25,-15.0,41.0,75.820390625,37.055,0.3443015625,238.65
2021-06-21 12:35:44.328125000,-47.5,-15.0,41.0,75.82015625,35.88,0.344381625,238.65
2021-06-21 12:35:44.335937500,-47.75,-15.0,41.0,75.81992187499999,34.38,0.3444616875,238.65
2021-06-21 12:35:44.343750000,-48.0,-15.0,41.0,75.8196875,32.88,0.34454175,238.65
2021-06-21 12:35:44.351562500,-48.0,-15.0,41.0,75.819453125,31.090000000000003,0.3446218125,238.65
2021-06-21 12:35:44.359375000,-48.0,-15.0,41.0,75.81921875,29.3,0.344701875,238.65
2021-06-21 12:35:44.367187500,-48.0,-15.0,41.0,75.818984375,27.22,0.3447819375,238.65
2021-06-21 12:35:44.375000000,-48.0,-15.0,41.0,75.81875,25.14,0.344862,238.65
2021-06-21 12:35:44.382812500,-48.0,-15.0,41.0,75.818515625,22.735,0.3449420625,238.65
2021-06-21 12:35:44.390625000,-48.0,-15.0,41.0,75.81828125,20.33,0.345022125,238.65
2021-06-21 12:35:44.398437500,-48.0,-15.0,41.0,75.818046875,17.595,0.3451021875,238.65
2021-06-21 12:35:44.406250000,-48.0,-15.0,41.0,75.8178125,14.86,0.34518225,238.65
2021-06-21 12:35:44.414062500,-48.0,-15.0,41.0,75.817578125,11.825,0.3452623125,238.65
2021-06-21 12:35:44.421875000,-48.0,-15.0,41.0,75.81734374999999,8.79,0.345342375,238.65
2021-06-21 12:35:44.429687500,-48.0,-15.0,41.0,75.817109375,5.534999999999999,0.3454224375,238.65
2021-06-21 12:35:44.437500000,-48.0,-15.0,41.0,75.816875,2.28,0.3455025,238.65
2021-06-21 12:35:44.445312500,-48.0,-15.0,41.0,75.81664062499999,-1.0800000000000005,0.34558256249999997,238.65
2021-06-21 12:35:44.453125000,-48.0,-15.0,41.0,75.81640625,-4.44,0.345662625,238.65
2021-06-21 12:35:44.460937500,-48.0,-15.0,41.0,75.816171875,-7.785,0.3457426875,238.65
2021-06-21 12:35:44.468750000,-48.0,-15.0,41.0,75.8159375,-11.13,0.34582274999999996,238.65
2021-06-21 12:35:44.476562500,-47.75,-15.0,41.0,75.815703125,-14.350000000000001,0.3459028125,238.65
2021-06-21 12:35:44.484375000,-47.5,-15.0,41.0,75.81546875,-17.57,0.34598287499999997,238.65
2021-06-21 12:35:44.492187500,-47.25,-15.0,41.0,75.815234375,-20.57,0.3460629375,238.65
2021-06-21 12:35:44.500000000,-47.0,-15.0,41.0,75.815,-23.57,0.346143,238.65
2021-06-21 12:35:44.507812500,-47.0,-15.0,41.25,75.81476562499999,-26.28,0.34602290625,238.65
2021-06-21 12:35:44.515625000,-47.0,-15.0,41.5,75.81453125,-28.99,0.3459028125,238.65
2021-06-21 12:35:44.523437500,-47.0,-15.0,41.75,75.814296875,-31.36,0.34578271875,238.65
2021-06-21 12:35:44.531250000,-47.0,-15.0,42.0,75.81406249999999,-33.73,0.345662625,238.65
2021-06-21 12:35:44.539062500,-47.25,-15.0,41.75,75.813828125,-35.785,0.34554253125,238.65
2021-06-21 12:35:44.546875000,-47.5,-15.0,41.5,75.81359375,-37.84,0.34542243749999996,238.65
2021-06-21 12:35:44.554687500,-47.75,-15.0,41.25,75.813359375,-39.675,0.34530234374999996,238.65
2021-06-21 12:35:44.562500000,-48.0,-15.0,41.0,75.813125,-41.51,0.34518224999999997,238.65
2021-06-21 12:35:44.570312500,-47.75,-15.0,41.0,75.812890625,-43.34,0.34506215625,238.65
2021-06-21 12:35:44.578125000,-47.5,-15.0,41.0,75.81265625,-45.17,0.3449420625,238.65
2021-06-21 12:35:44.585937500,-47.25,-15.0,41.0,75.812421875,-47.25,0.34482196875,238.65
2021-06-21 12:35:44.593750000,-47.0,-15.0,41.0,75.8121875,-49.33,0.344701875,238.65
2021-06-21 12:35:44.601562500,-47.25,-15.0,41.0,75.811953125,-51.93,0.34458178125,238.65
2021-06-21 12:35:44.609375000,-47.5,-15.0,41.0,75.81171875,-54.53,0.3444616875,238.65
2021-06-21 12:35:44.617187500,-47.75,-15.0,41.0,75.81148437499999,-57.78,0.34434159375,238.65
2021-06-21 12:35:44.625000000,-48.0,-15.0,41.0,75.81125,-61.03,0.34422149999999996,238.65
2021-06-21 12:35:44.632812500,-47.75,-15.0,41.25,75.811015625,-64.8,0.34410140624999996,238.65
2021-06-21 12:35:44.640625000,-47.5,-15.0,41.5,75.81078124999999,-68.57,0.34398131249999997,238.65
2021-06-21 12:35:44.648437500,-47.25,-15.0,41.75,75.810546875,-72.37,0.34386121875,238.65
2021-06-21 12:35:44.656250000,-47.0,-15.0,42.0,75.8103125,-76.17,0.343741125,238.65
2021-06-21 12:35:44.664062500,-47.0,-15.0,41.75,75.810078125,-79.195,0.34362103125,238.65
2021-06-21 12:35:44.671875000,-47.0,-15.0,41.5,75.80984375,-82.22,0.3435009375,238.65
2021-06-21 12:35:44.679687500,-47.0,-15.0,41.25,75.809609375,-83.49000000000001,0.34338084375,238.65
2021-06-21 12:35:44.687500000,-47.0,-15.0,41.0,75.809375,-84.76,0.34326075,238.65
2021-06-21 12:35:44.695312500,-47.25,-15.0,41.0,75.809140625,-83.42,0.34314065625,238.65
2021-06-21 12:35:44.703125000,-47.5,-15.0,41.0,75.80890624999999,-82.08,0.3430205625,238.65
2021-06-21 12:35:44.710937500,-47.75,-15.0,41.0,75.808671875,-77.695,0.34290046874999996,238.65
2021-06-21 12:35:44.718750000,-48.0,-15.0,41.0,75.8084375,-73.31,0.34278037499999997,238.65
2021-06-21 12:35:44.726562500,-48.0,-15.0,41.0,75.80820312499999,-66.055,0.34266028125,238.65
2021-06-21 12:35:44.734375000,-48.0,-15.0,41.0,75.80796875,-58.8,0.3425401875,238.65
2021-06-21 12:35:44.742187500,-48.0,-15.0,41.0,75.807734375,-49.474999999999994,0.34242009375,238.65
2021-06-21 12:35:44.750000000,-48.0,-15.0,41.0,75.8075,-40.15,0.3423,238.65
2021-06-21 12:35:44.757812500,-48.0,-15.0,41.0,75.807265625,-29.96,0.34234003125,238.65
2021-06-21 12:35:44.765625000,-48.0,-15.0,41.0,75.80703125,-19.77,0.34238006249999997,238.65
2021-06-21 12:35:44.773437500,-48.0,-15.0,41.0,75.806796875,-9.99,0.34242009375,238.65
2021-06-21 12:35:44.781250000,-48.0,-15.0,41.0,75.8065625,-0.21,0.342460125,238.65
2021-06-21 12:35:44.789062500,-47.75,-15.0,41.0,75.806328125,8.165,0.34250015625,238.65
2021-06-21 12:35:44.796875000,-47.5,-15.0,41.0,75.80609375,16.54,0.3425401875,238.65
2021-06-21 12:35:44.804687500,-47.25,-15.0,41.0,75.805859375,22.95,0.34258021875,238.65
2021-06-21 12:35:44.812500000,-47.0,-15.0,41.0,75.80562499999999,29.36,0.34262025,238.65
2021-06-21 12:35:44.820312500,-47.0,-15.0,41.0,75.805390625,33.705,0.34266028125,238.65
2021-06-21 12:35:44.828125000,-47.0,-15.0,41.0,75.80515625,38.05,0.3427003125,238.65
2021-06-21 12:35:44.835937500,-47.0,-15.0,41.0,75.80492187499999,40.535,0.34274034375,238.65
2021-06-21 12:35:44.843750000,-47.0,-15.0,41.0,75.8046875,43.02,0.342780375,238.65
2021-06-21 12:35:44.851562500,-47.0,-15.0,41.25,75.804453125,43.975,0.34282040625,238.65
2021-06-21 12:35:44.859375000,-47.0,-15.0,41.5,75.80421875,44.93,0.3428604375,238.65
2021-06-21 12:35:44.867187500,-47.0,-15.0,41.75,75.803984375,44.69,0.34290046875,238.65
2021-06-21 12:35:44.875000000,-47.0,-15.0,42.0,75.80375,44.45,0.3429405,238.65
2021-06-21 12:35:44.882812500,-47.25,-15.0,41.75,75.803515625,43.32,0.34298053125,238.65
2021-06-21 12:35:44.890625000,-47.5,-15.0,41.5,75.80328125,42.19,0.3430205625,238.65
2021-06-21 12:35:44.898437500,-47.75,-15.0,41.25,75.80304687499999,40.480000000000004,0.34306059375000003,238.65
2021-06-21 12:35:44.906250000,-48.0,-15.0,41.0,75.8028125,38.77,0.343100625,238.65
2021-06-21 12:35:44.914062500,-47.75,-15.0,41.0,75.802578125,36.835,0.34314065625,238.65
2021-06-21 12:35:44.921875000,-47.5,-15.0,41.0,75.80234374999999,34.9,0.3431806875,238.65
2021-06-21 12:35:44.929687500,-47.25,-15.0,41.0,75.802109375,33.129999999999995,0.34322071875000004,238.65
2021-06-21 12:35:44.937500000,-47.0,-15.0,41.0,75.801875,31.36,0.34326075,238.65
2021-06-21 12:35:44.945312500,-47.0,-15.0,41.25,75.80164062499999,30.095,0.34330078125,238.65
2021-06-21 12:35:44.953125000,-47.0,-15.0,41.5,75.80140625,28.83,0.34334081250000004,238.65
2021-06-21 12:35:44.960937500,-47.0,-15.0,41.75,75.801171875,28.28,0.34338084375,238.65
2021-06-21 12:35:44.968750000,-47.0,-15.0,42.0,75.8009375,27.73,0.343420875,238.65
2021-06-21 12:35:44.976562500,-47.0,-15.0,41.75,75.800703125,27.880000000000003,0.34346090625000003,238.65
2021-06-21 12:35:44.984375000,-47.0,-15.0,41.5,75.80046875,28.03,0.34350093750000005,238.65
2021-06-21 12:35:44.992187500,-47.0,-15.0,41.25,75.800234375,28.68,0.34354096875,238.65
2021-06-21 12:35:45.000000000,-47.0,-15.0,41.0,75.8,29.33,0.343581,238.65
2021-06-21 12:35:45.007812500,-47.25,-15.0,41.0,75.79984375,30.18,0.34354096875,238.65
2021-06-21 12:35:45.015625000,-47.5,-15.0,41.0,75.79968749999999,31.03,0.34350093750000005,238.65
2021-06-21 12:35:45.023437500,-47.75,-15.0,41.0,75.79953125,31.8,0.34346090625000003,238.65
2021-06-21 12:35:45.031250000,-48.0,-15.0,41.0,75.799375,32.57,0.343420875,238.65
2021-06-21 12:35:45.039062500,-48.0,-15.0,41.0,75.79921875,33.120000000000005,0.34338084375,238.65
2021-06-21 12:35:45.046875000,-48.0,-15.0,41.0,75.79906249999999,33.67,0.34334081250000004,238.65
2021-06-21 12:35:45.054687500,-48.0,-15.0,41.0,75.79890625,33.995000000000005,0.34330078125,238.65
2021-06-21 12:35:45.062500000,-48.0,-15.0,41.0,75.79875,34.32,0.34326075,238.65
2021-06-21 12:35:45.070312500,-48.0,-15.0,41.0,75.79859375,34.504999999999995,0.34322071875000004,238.65
2021-06-21 12:35:45.078125000,-48.0,-15.0,41.0,75.79843749999999,34.69,0.3431806875,238.65
2021-06-21 12:35:45.085937500,-48.0,-15.0,41.0,75.79828125,34.76,0.34314065625,238.65
2021-06-21 12:35:45.093750000,-48.0,-15.0,41.0,75.798125,34.83,0.343100625,238.65
2021-06-21 12:35:45.101562500,-47.75,-15.0,41.0,75.79796875,34.65,0.34306059375000003,238.65
2021-06-21 12:35:45.109375000,-47.5,-15.0,41.0,75.79781249999999,34.47,0.3430205625,238.65
2021-06-21 12:35:45.117187500,-47.25,-15.0,41.0,75.79765625,33.754999999999995,0.34298053125,238.65
2021-06-21 12:35:45.125000000,-47.0,-15.0,41.0,75.7975,33.04,0.3429405,238.65
2021-06-21 12:35:45.132812500,-47.25,-15.0,41.0,75.79734375,31.46,0.34290046875,238.65
2021-06-21 12:35:45.140625000,-47.5,-15.0,41.0,75.79718749999999,29.88,0.3428604375,238.65
2021-06-21 12:35:45.148437500,-47.75,-15.0,41.0,75.79703125,27.21,0.34282040625,238.65
2021-06-21 12:35:45.156250000,-48.0,-15.0,41.0,75.796875,24.54,0.342780375,238.65
2021-06-21 12:35:45.164062500,-48.0,-15.0,41.0,75.79671875,20.855,0.34274034375,238.65
2021-06-21 12:35:45.171875000,-48.0,-15.0,41.0,75.7965625,17.17,0.3427003125,238.65
2021-06-21 12:35:45.179687500,-48.0,-15.0,41.0,75.79640625,12.845,0.34266028125,238.65
2021-06-21 12:35:45.187500000,-48.0,-15.0,41.0,75.79625,8.52,0.34262025,238.65
2021-06-21 12:35:45.195312500,-48.0,-15.0,41.0,75.79609375,4.109999999999999,0.34258021875,238.65
2021-06-21 12:35:45.203125000,-48.0,-15.0,41.0,75.7959375,-0.3,0.3425401875,238.65
2021-06-21 12:35:45.210937500,-48.0,-15.0,41.0,75.79578125,-4.220000000000001,0.34250015625,238.65
2021-06-21 12:35:45.218750000,-48.0,-15.0,41.0,75.795625,-8.14,0.342460125,238.65
2021-06-21 12:35:45.226562500,-47.75,-15.0,41.0,75.79546875,-11.23,0.34242009375,238.65
2021-06-21 12:35:45.234375000,-47.5,-15.0,41.0,75.7953125,-14.32,0.34238006249999997,238.65
2021-06-21 12:35:45.242187500,-47.25,-15.0,41.0,75.79515625,-16.57,0.34234003125,238.65
2021-06-21 12:35:45.250000000,-47.0,-15.0,41.0,75.795,-18.82,0.3423,238.65
2021-06-21 12:35:45.257812500,-47.0,-15.0,41.0,75.79484375,-20.535,0.34238006249999997,238.65
2021-06-21 12:35:45.265625000,-47.0,-15.0,41.0,75.7946875,-22.25,0.342460125,238.65
2021-06-21 12:35:45.273437500,-47.0,-15.0,41.0,75.79453124999999,-23.915,0.3425401875,238.65
2021-06-21 12:35:45.281250000,-47.0,-15.0,41.0,75.794375,-25.58,0.34262025,238.65
2021-06-21 12:35:45.289062500,-47.25,-15.0,41.0,75.79421875,-27.705,0.3427003125,238.65
2021-06-21 12:35:45.296875000,-47.5,-15.0,41.0,75.7940625,-29.83,0.34278037499999997,238.65
2021-06-21 12:35:45.304687500,-47.75,-15.0,41.0,75.79390624999999,-32.76,0.3428604375,238.65
2021-06-21 12:35:45.312500000,-48.0,-15.0,41.0,75.79375,-35.69,0.3429405,238.65
2021-06-21 12:35:45.320312500,-48.0,-15.0,41.0,75.79359375,-39.504999999999995,0.3430205625,238.65
2021-06-21 12:35:45.328125000,-48.0,-15.0,41.0,75.7934375,-43.32,0.343100625,238.65
2021-06-21 12:35:45.335937500,-48.0,-15.0,41.0,75.79328124999999,-47.739999999999995,0.34318068749999997,238.65
2021-06-21 12:35:45.343750000,-48.0,-15.0,41.0,75.793125,-52.16,0.34326075,238.65
2021-06-21 12:35:45.351562500,-47.75,-15.0,41.0,75.79296875,-56.504999999999995,0.3433408125,238.65
2021-06-21 12:35:45.359375000,-47.5,-15.0,41.0,75.7928125,-60.85,0.343420875,238.65
2021-06-21 12:35:45.367187500,-47.25,-15.0,41.0,75.79265625,-64.205,0.3435009375,238.65
2021-06-21 12:35:45.375000000,-47.0,-15.0,41.0,75.7925,-67.56,0.343581,238.65
2021-06-21 12:35:45.382812500,-47.0,-15.0,41.0,75.79234375,-68.92,0.3436610625,238.65
2021-06-21 12:35:45.390625000,-47.0,-15.0,41.0,75.7921875,-70.28,0.343741125,238.65
2021-06-21 12:35:45.398437500,-47.0,-15.0,41.0,75.79203125,-68.855,0.3438211875,238.65
2021-06-21 12:35:45.406250000,-47.0,-15.0,41.0,75.791875,-67.43,0.34390125,238.65
2021-06-21 12:35:45.414062500,-47.0,-15.0,41.0,75.79171875,-62.955,0.3439813125,238.65
2021-06-21 12:35:45.421875000,-47.0,-15.0,41.0,75.7915625,-58.48,0.344061375,238.65
2021-06-21 12:35:45.429687500,-47.0,-15.0,41.0,75.79140625,-51.31,0.3441414375,238.65
2021-06-21 12:35:45.437500000,-47.0,-15.0,41.0,75.79125,-44.14,0.3442215,238.65
2021-06-21 12:35:45.445312500,-47.0,-15.0,41.0,75.79109375,-35.205,0.3443015625,238.65
2021-06-21 12:35:45.453125000,-47.0,-15.0,41.0,75.7909375,-26.27,0.344381625,238.65
2021-06-21 12:35:45.460937500,-47.0,-15.0,41.0,75.79078125,-16.795,0.3444616875,238.65
2021-06-21 12:35:45.468750000,-47.0,-15.0,41.0,75.790625,-7.32,0.34454175,238.65
2021-06-21 12:35:45.476562500,-47.25,-15.0,41.0,75.79046875,1.5199999999999996,0.3446218125,238.65
2021-06-21 12:35:45.484375000,-47.5,-15.0,41.0,75.7903125,10.36,0.344701875,238.65
2021-06-21 12:35:45.492187500,-47.75,-15.0,41.0,75.79015625,17.73,0.3447819375,238.65
2021-06-21 12:35:45.500000000,-48.0,-15.0,41.0,75.78999999999999,25.1,0.344862,238.65
2021-06-21 12:35:45.507812500,-48.0,-15.0,41.0,75.78984375,30.625,0.34474190625,238.65
2021-06-21 12:35:45.515625000,-48.0,-15.0,41.0,75.7896875,36.15,0.3446218125,238.65
2021-06-21 12:35:45.523437500,-48.0,-15.0,41.0,75.78953125,39.845,0.34450171875,238.65
2021-06-21 12:35:45.531250000,-48.0,-15.0,41.0,75.78937499999999,43.54,0.344381625,238.65
2021-06-21 12:35:45.539062500,-48.0,-15.0,41.0,75.78921875,45.665,0.34426153125000003,238.65
2021-06-21 12:35:45.546875000,-48.0,-15.0,41.0,75.7890625,47.79,0.3441414375,238.65
2021-06-21 12:35:45.554687500,-48.0,-15.0,41.0,75.78890625,48.665,0.34402134375,238.65
2021-06-21 12:35:45.562500000,-48.0,-15.0,41.0,75.78875,49.54,0.34390125,238.65
2021-06-21 12:35:45.570312500,-47.75,-15.0,41.0,75.78859375,49.46,0.34378115625,238.65
2021-06-21 12:35:45.578125000,-47.5,-15.0,41.0,75.7884375,49.38,0.3436610625,238.65
2021-06-21 12:35:45.585937500,-47.25,-15.0,41.0,75.78828125,48.595,0.34354096875,238.65
2021-06-21 12:35:45.593750000,-47.0,-15.0,41.0,75.788125,47.81,0.343420875,238.65
2021-06-21 12:35:45.601562500,-47.0,-15.0,41.0,75.78796875,46.55,0.34330078125,238.65
2021-06-21 12:35:45.609375000,-47.0,-15.0,41.0,75.7878125,45.29,0.3431806875,238.65
2021-06-21 12:35:45.617187500,-47.0,-15.0,41.0,75.78765625,43.81,0.34306059375000003,238.65
2021-06-21 12:35:45.625000000,-47.0,-15.0,41.0,75.7875,42.33,0.3429405,238.65
2021-06-21 12:35:45.632812500,-47.25,-15.0,41.0,75.78734375,40.915,0.34282040625,238.65
2021-06-21 12:35:45.640625000,-47.5,-15.0,41.0,75.7871875,39.5,0.3427003125,238.65
2021-06-21 12:35:45.648437500,-47.75,-15.0,41.0,75.78703125,38.39,0.34258021875,238.65
2021-06-21 12:35:45.656250000,-48.0,-15.0,41.0,75.786875,37.28,0.342460125,238.65
2021-06-21 12:35:45.664062500,-48.0,-15.0,41.0,75.78671875,36.644999999999996,0.34234003125,238.65
2021-06-21 12:35:45.671875000,-48.0,-15.0,41.0,75.7865625,36.01,0.3422199375,238.65
2021-06-21 12:35:45.679687500,-48.0,-15.0,41.0,75.78640625,35.849999999999994,0.34209984375,238.65
2021-06-21 12:35:45.687500000,-48.0,-15.0,41.0,75.78625,35.69,0.34197975,238.65
2021-06-21 12:35:45.695312500,-47.75,-15.0,41.0,75.78609375,35.855000000000004,0.34185965625000003,238.65
2021-06-21 12:35:45.703125000,-47.5,-15.0,41.0,75.7859375,36.02,0.34173956250000004,238.65
2021-06-21 12:35:45.710937500,-47.25,-15.0,41.0,75.78578125,36.245000000000005,0.34161946875,238.65
2021-06-21 12:35:45.718750000,-47.0,-15.0,41.0,75.785625,36.47,0.341499375,238.65
2021-06-21 12:35:45.726562500,-47.25,-15.0,41.0,75.78546875,36.465,0.34137928125,238.65
2021-06-21 12:35:45.734375000,-47.5,-15.0,41.0,75.7853125,36.46,0.3412591875,238.65
2021-06-21 12:35:45.742187500,-47.75,-15.0,41.0,75.78515625,35.985,0.34113909375,238.65
2021-06-21 12:35:45.750000000,-48.0,-15.0,41.0,75.785,35.51,0.341019,238.65
2021-06-21 12:35:45.757812500,-48.0,-15.0,41.0,75.78484375,34.515,0.3410990625,238.65
2021-06-21 12:35:45.765625000,-48.0,-15.0,41.0,75.7846875,33.52,0.341179125,238.65
2021-06-21 12:35:45.773437500,-48.0,-15.0,41.0,75.78453125,32.095,0.3412591875,238.65
2021-06-21 12:35:45.781250000,-48.0,-15.0,41.0,75.784375,30.67,0.34133925000000004,238.65
2021-06-21 12:35:45.789062500,-48.0,-15.0,41.0,75.78421875,29.020000000000003,0.3414193125,238.65
2021-06-21 12:35:45.796875000,-48.0,-15.0,41.0,75.7840625,27.37,0.341499375,238.65
2021-06-21 12:35:45.804687500,-48.0,-15.0,41.0,75.78390625,25.695,0.3415794375,238.65
2021-06-21 12:35:45.812500000,-48.0,-15.0,41.0,75.78375,24.02,0.3416595,238.65
2021-06-21 12:35:45.820312500,-48.0,-15.0,41.0,75.78359375,22.39,0.34173956250000004,238.65
2021-06-21 12:35:45.828125000,-48.0,-15.0,41.0,75.7834375,20.76,0.341819625,238.65
2021-06-21 12:35:45.835937500,-48.0,-15.0,41.0,75.78328125,19.065,0.3418996875,238.65
2021-06-21 12:35:45.843750000,-48.0,-15.0,41.0,75.783125,17.37,0.34197975,238.65
2021-06-21 12:35:45.851562500,-48.0,-15.0,41.0,75.78296875,15.38,0.3420598125,238.65
2021-06-21 12:35:45.859375000,-48.0,-15.0,41.0,75.7828125,13.39,0.34213987500000004,238.65
2021-06-21 12:35:45.867187500,-48.0,-15.0,41.0,75.78265625,10.850000000000001,0.3422199375,238.65
2021-06-21 12:35:45.875000000,-48.0,-15.0,41.0,75.7825,8.31,0.34230000000000005,238.65
2021-06-21 12:35:45.882812500,-47.75,-15.0,41.0,75.78234375,5.085000000000001,0.3423800625,238.65
2021-06-21 12:35:45.890625000,-47.5,-15.0,41.0,75.7821875,1.86,0.342460125,238.65
2021-06-21 12:35:45.898437500,-47.25,-15.0,41.0,75.78203125,-1.9749999999999999,0.34254018750000004,238.65
2021-06-21 12:35:45.906250000,-47.0,-15.0,41.0,75.781875,-5.81,0.34262025,238.65
2021-06-21 12:35:45.914062500,-47.25,-15.0,41.0,75.78171875,-9.945,0.34270031250000005,238.65
2021-06-21 12:35:45.921875000,-47.5,-15.0,41.0,75.7815625,-14.08,0.342780375,238.65
2021-06-21 12:35:45.929687500,-47.75,-15.0,41.0,75.78140625,-18.105,0.3428604375,238.65
2021-06-21 12:35:45.937500000,-48.0,-15.0,41.0,75.78125,-22.13,0.34294050000000004,238.65
2021-06-21 12:35:45.945312500,-48.0,-15.0,41.0,75.78109375,-25.655,0.3430205625,238.65
2021-06-21 12:35:45.953125000,-48.0,-15.0,41.0,75.78093750000001,-29.18,0.34310062500000005,238.65
2021-06-21 12:35:45.960937500,-48.0,-15.0,41.0,75.78078125,-32.015,0.3431806875,238.65
2021-06-21 12:35:45.968750000,-48.0,-15.0,41.0,75.780625,-34.85,0.34326075,238.65
2021-06-21 12:35:45.976562500,-47.75,-15.0,41.0,75.78046875,-37.055,0.34334081250000004,238.65
2021-06-21 12:35:45.984375000,-47.5,-15.0,41.0,75.78031250000001,-39.26,0.343420875,238.65
2021-06-21 12:35:45.992187500,-47.25,-15.0,41.0,75.78015625,-41.12,0.34350093750000005,238.65
2021-06-21 12:35:46.000000000,-47.0,-15.0,41.0,75.78,-42.98,0.343581,238.65
2021-06-21 12:35:46.007812500,-47.25,-15.0,41.0,75.78,-44.93,0.34346090625000003,238.65
2021-06-21 12:35:46.015625000,-47.5,-15.0,41.0,75.78,-46.88,0.34334081250000004,238.65
2021-06-21 12:35:46.023437500,-47.75,-15.0,41.0,75.78,-49.38,0.34322071875000004,238.65
2021-06-21 12:35:46.031250000,-48.0,-15.0,41.0,75.78,-51.88,0.34310062500000005,238.65
2021-06-21 12:35:46.039062500,-48.0,-15.0,41.0,75.78,-55.28,0.34298053125,238.65
2021-06-21 12:35:46.046875000,-48.0,-15.0,41.0,75.78,-58.68,0.3428604375,238.65
2021-06-21 12:35:46.054687500,-48.0,-15.0,41.0,75.78,-63.114999999999995,0.34274034375,238.65
2021-06-21 12:35:46.062500000,-48.0,-15.0,41.0,75.78,-67.55,0.34262025,238.65
2021-06-21 12:35:46.070312500,-47.75,-15.0,41.0,75.78,-72.805,0.34250015625,238.65
2021-06-21 12:35:46.078125000,-47.5,-15.0,41.0,75.78,-78.06,0.3423800625,238.65
2021-06-21 12:35:46.085937500,-47.25,-15.0,41.0,75.78,-83.485,0.34225996875000003,238.65
2021-06-21 12:35:46.093750000,-47.0,-15.0,41.0,75.78,-88.91,0.342139875,238.65
2021-06-21 12:35:46.101562500,-47.25,-15.0,41.0,75.78,-93.49,0.34201978125,238.65
2021-06-21 12:35:46.109375000,-47.5,-15.0,41.0,75.78,-98.07,0.3418996875,238.65
2021-06-21 12:35:46.117187500,-47.75,-15.0,41.0,75.78,-100.60499999999999,0.34177959375,238.65
2021-06-21 12:35:46.125000000,-48.0,-15.0,41.0,75.78,-103.14,0.3416595,238.65
2021-06-21 12:35:46.132812500,-48.0,-15.0,41.0,75.78,-102.59,0.34153940625,238.65
2021-06-21 12:35:46.140625000,-48.0,-15.0,41.0,75.78,-102.04,0.3414193125,238.65
2021-06-21 12:35:46.148437500,-48.0,-15.0,41.0,75.78,-97.915,0.34129921875,238.65
2021-06-21 12:35:46.156250000,-48.0,-15.0,41.0,75.78,-93.79,0.341179125,238.65
2021-06-21 12:35:46.164062500,-48.0,-15.0,41.0,75.78,-86.36500000000001,0.34105903125,238.65
2021-06-21 12:35:46.171875000,-48.0,-15.0,41.0,75.78,-78.94,0.3409389375,238.65
2021-06-21 12:35:46.179687500,-48.0,-15.0,41.0,75.78,-69.22,0.34081884375,238.65
2021-06-21 12:35:46.187500000,-48.0,-15.0,41.0,75.78,-59.5,0.34069875,238.65
2021-06-21 12:35:46.195312500,-48.0,-15.0,41.0,75.78,-48.935,0.34057865625,238.65
2021-06-21 12:35:46.203125000,-48.0,-15.0,41.0,75.78,-38.37,0.3404585625,238.65
2021-06-21 12:35:46.210937500,-48.0,-15.0,41.0,75.78,-28.384999999999998,0.34033846875,238.65
2021-06-21 12:35:46.218750000,-48.0,-15.0,41.0,75.78,-18.4,0.34021837499999996,238.65
2021-06-21 12:35:46.226562500,-47.75,-15.0,41.0,75.78,-10.02,0.34009828124999997,238.65
2021-06-21 12:35:46.234375000,-47.5,-15.0,41.0,75.78,-1.64,0.3399781875,238.65
2021-06-21 12:35:46.242187500,-47.25,-15.0,41.0,75.78,4.69,0.33985809375,238.65
2021-06-21 12:35:46.250000000,-47.0,-15.0,41.0,75.78,11.02,0.339738,238.65
2021-06-21 12:35:46.257812500,-47.25,-15.0,41.0,75.78,15.39,0.33981806249999996,238.65
2021-06-21 12:35:46.265625000,-47.5,-15.0,41.0,75.78,19.76,0.339898125,238.65
2021-06-21 12:35:46.273437500,-47.75,-15.0,41.0,75.78,22.595,0.3399781875,238.65
2021-06-21 12:35:46.281250000,-48.0,-15.0,41.0,75.78,25.43,0.34005825,238.65
2021-06-21 12:35:46.289062500,-48.0,-15.0,41.0,75.78,27.21,0.3401383125,238.65
2021-06-21 12:35:46.296875000,-48.0,-15.0,41.0,75.78,28.99,0.34021837499999996,238.65
2021-06-21 12:35:46.304687500,-48.0,-15.0,41.0,75.78,30.13,0.3402984375,238.65
2021-06-21 12:35:46.312500000,-48.0,-15.0,41.0,75.78,31.27,0.3403785,238.65
2021-06-21 12:35:46.320312500,-47.75,-15.0,41.0,75.78,32.06,0.3404585625,238.65
2021-06-21 12:35:46.328125000,-47.5,-15.0,41.0,75.78,32.85,0.340538625,238.65
2021-06-21 12:35:46.335937500,-47.25,-15.0,41.0,75.78,33.465,0.34061868749999996,238.65
2021-06-21 12:35:46.343750000,-47.0,-15.0,41.0,75.78,34.08,0.34069875,238.65
2021-06-21 12:35:46.351562500,-47.25,-15.0,41.0,75.78,34.635,0.3407788125,238.65
2021-06-21 12:35:46.359375000,-47.5,-15.0,41.0,75.78,35.19,0.340858875,238.65
2021-06-21 12:35:46.367187500,-47.75,-15.0,41.0,75.78,35.75,0.3409389375,238.65
2021-06-21 12:35:46.375000000,-48.0,-15.0,41.0,75.78,36.31,0.34101899999999996,238.65
2021-06-21 12:35:46.382812500,-47.75,-15.0,41.0,75.78,36.885000000000005,0.3410990625,238.65
2021-06-21 12:35:46.390625000,-47.5,-15.0,41.0,75.78,37.46,0.34117912499999997,238.65
2021-06-21 12:35:46.398437500,-47.25,-15.0,41.0,75.78,38.004999999999995,0.3412591875,238.65
2021-06-21 12:35:46.406250000,-47.0,-15.0,41.0,75.78,38.55,0.34133925,238.65
2021-06-21 12:35:46.414062500,-47.25,-15.0,41.0,75.78,39.025,0.3414193125,238.65
2021-06-21 12:35:46.421875000,-47.5,-15.0,41.0,75.78,39.5,0.341499375,238.65
2021-06-21 12:35:46.429687500,-47.75,-15.0,41.0,75.78,39.875,0.34157943749999997,238.65
2021-06-21 12:35:46.437500000,-48.0,-15.0,41.0,75.78,40.25,0.3416595,238.65
2021-06-21 12:35:46.445312500,-47.75,-15.0,41.0,75.78,40.519999999999996,0.3417395625,238.65
2021-06-21 12:35:46.453125000,-47.5,-15.0,41.0,75.78,40.79,0.341819625,238.65
2021-06-21 12:35:46.460937500,-47.25,-15.0,41.0,75.78,40.980000000000004,0.3418996875,238.65
2021-06-21 12:35:46.468750000,-47.0,-15.0,41.0,75.78,41.17,0.34197974999999997,238.65
2021-06-21 12:35:46.476562500,-47.0,-15.0,41.0,75.78,41.295,0.3420598125,238.65
2021-06-21 12:35:46.484375000,-47.0,-15.0,41.0,75.78,41.42,0.342139875,238.65
2021-06-21 12:35:46.492187500,-47.0,-15.0,41.0,75.78,41.44,0.3422199375,238.65
2021-06-21 12:35:46.500000000,-47.0,-15.0,41.0,75.78,41.46,0.3423,238.65
2021-06-21 12:35:46.507812500,-47.25,-15.0,41.0,75.78,41.275000000000006,0.34234003125,238.65
2021-06-21 12:35:46.515625000,-47.5,-15.0,41.0,75.78,41.09,0.34238006249999997,238.65
2021-06-21 12:35:46.523437500,-47.75,-15.0,41.0,75.78,40.6,0.34242009375,238.65
2021-06-21 12:35:46.531250000,-48.0,-15.0,41.0,75.78,40.11,0.342460125,238.65
2021-06-21 12:35:46.539062500,-48.0,-15.0,41.0,75.78,39.22,0.34250015625,238.65
2021-06-21 12:35:46.546875000,-48.0,-15.0,41.0,75.78,38.33,0.3425401875,238.65
2021-06-21 12:35:46.554687500,-48.0,-15.0,41.0,75.78,37.004999999999995,0.34258021875,238.65
2021-06-21 12:35:46.562500000,-48.0,-15.0,41.0,75.78,35.68,0.34262025,238.65
2021-06-21 12:35:46.570312500,-48.0,-15.0,41.0,75.78,33.925,0.34266028125,238.65
2021-06-21 12:35:46.578125000,-48.0,-15.0,41.0,75.78,32.17,0.3427003125,238.65
2021-06-21 12:35:46.585937500,-48.0,-15.0,41.0,75.78,30.020000000000003,0.34274034375,238.65
2021-06-21 12:35:46.593750000,-48.0,-15.0,41.0,75.78,27.87,0.342780375,238.65
2021-06-21 12:35:46.601562500,-48.0,-15.0,41.0,75.78,25.384999999999998,0.34282040625,238.65
2021-06-21 12:35:46.609375000,-48.0,-15.0,41.0,75.78,22.9,0.3428604375,238.65
2021-06-21 12:35:46.617187500,-48.0,-15.0,41.0,75.78,20.165,0.34290046875,238.65
2021-06-21 12:35:46.625000000,-48.0,-15.0,41.0,75.78,17.43,0.3429405,238.65
2021-06-21 12:35:46.632812500,-48.0,-15.0,41.0,75.78,14.54,0.34298053125,238.65
2021-06-21 12:35:46.640625000,-48.0,-15.0,41.0,75.78,11.65,0.3430205625,238.65
2021-06-21 12:35:46.648437500,-48.0,-15.0,41.0,75.78,8.695,0.34306059375000003,238.65
2021-06-21 12:35:46.656250000,-48.0,-15.0,41.0,75.78,5.74,0.343100625,238.65
2021-06-21 12:35:46.664062500,-48.0,-15.0,41.0,75.78,2.79,0.34314065625,238.65
2021-06-21 12:35:46.671875000,-48.0,-15.0,41.0,75.78,-0.16,0.3431806875,238.65
2021-06-21 12:35:46.679687500,-48.0,-15.0,41.0,75.78,-3.11,0.34322071875000004,238.65
2021-06-21 12:35:46.687500000,-48.0,-15.0,41.0,75.78,-6.06,0.34326075,238.65
2021-06-21 12:35:46.695312500,-48.0,-15.0,41.0,75.78,-9.035,0.34330078125,238.65
2021-06-21 12:35:46.703125000,-48.0,-15.0,41.0,75.78,-12.01,0.34334081250000004,238.65
2021-06-21 12:35:46.710937500,-48.0,-15.0,41.0,75.78,-15.035,0.34338084375,238.65
2021-06-21 12:35:46.718750000,-48.0,-15.0,41.0,75.78,-18.06,0.343420875,238.65
2021-06-21 12:35:46.726562500,-48.0,-15.0,41.0,75.78,-21.09,0.34346090625000003,238.65
2021-06-21 12:35:46.734375000,-48.0,-15.0,41.0,75.78,-24.12,0.34350093750000005,238.65
2021-06-21 12:35:46.742187500,-48.0,-15.0,41.0,75.78,-27.055,0.34354096875,238.65
2021-06-21 12:35:46.750000000,-48.0,-15.0,41.0,75.78,-29.99,0.343581,238.65
2021-06-21 12:35:46.757812500,-48.0,-15.0,41.0,75.78,-32.705,0.34354096875,238.65
2021-06-21 12:35:46.765625000,-48.0,-15.0,41.0,75.78,-35.42,0.34350093750000005,238.65
2021-06-21 12:35:46.773437500,-48.0,-15.0,41.0,75.78,-37.870000000000005,0.34346090625000003,238.65
2021-06-21 12:35:46.781250000,-48.0,-15.0,41.0,75.78,-40.32,0.343420875,238.65
2021-06-21 12:35:46.789062500,-48.0,-15.0,41.0,75.78,-42.635000000000005,0.34338084375,238.65
2021-06-21 12:35:46.796875000,-48.0,-15.0,41.0,75.78,-44.95,0.34334081250000004,238.65
2021-06-21 12:35:46.804687500,-48.0,-15.0,41.0,75.78,-47.435,0.34330078125,238.65
2021-06-21 12:35:46.812500000,-48.0,-15.0,41.0,75.78,-49.92,0.34326075,238.65
2021-06-21 12:35:46.820312500,-48.0,-15.0,41.0,75.78,-52.980000000000004,0.34322071875000004,238.65
2021-06-21 12:35:46.828125000,-48.0,-15.0,41.0,75.78,-56.04,0.3431806875,238.65
2021-06-21 12:35:46.835937500,-48.0,-15.0,41.0,75.78,-59.989999999999995,0.34314065625,238.65
2021-06-21 12:35:46.843750000,-48.0,-15.0,41.0,75.78,-63.94,0.343100625,238.65
2021-06-21 12:35:46.851562500,-48.0,-15.0,41.0,75.78,-68.765,0.34306059375000003,238.65
2021-06-21 12:35:46.859375000,-48.0,-15.0,41.0,75.78,-73.59,0.3430205625,238.65
2021-06-21 12:35:46.867187500,-48.0,-15.0,41.0,75.78,-78.805,0.34298053125,238.65
2021-06-21 12:35:46.875000000,-48.0,-15.0,41.0,75.78,-84.02,0.3429405,238.65
2021-06-21 12:35:46.882812500,-48.0,-15.0,41.0,75.78,-88.69,0.34290046875,238.65
2021-06-21 12:35:46.890625000,-48.0,-15.0,41.0,75.78,-93.36,0.3428604375,238.65
2021-06-21 12:35:46.898437500,-48.0,-15.0,41.0,75.78,-96.28999999999999,0.34282040625,238.65
2021-06-21 12:35:46.906250000,-48.0,-15.0,41.0,75.78,-99.22,0.342780375,238.65
2021-06-21 12:35:46.914062500,-48.0,-15.0,41.0,75.78,-99.325,0.34274034375,238.65
2021-06-21 12:35:46.921875000,-48.0,-15.0,41.0,75.78,-99.43,0.3427003125,238.65
2021-06-21 12:35:46.929687500,-48.0,-15.0,41.0,75.78,-96.09,0.34266028125,238.65
2021-06-21 12:35:46.937500000,-48.0,-15.0,41.0,75.78,-92.75,0.34262025,238.65
2021-06-21 12:35:46.945312500,-48.0,-15.0,41.0,75.78,-86.055,0.34258021875,238.65
2021-06-21 12:35:46.953125000,-48.0,-15.0,41.0,75.78,-79.36,0.3425401875,238.65
2021-06-21 12:35:46.960937500,-48.0,-15.0,41.0,75.78,-70.09,0.34250015625,238.65
2021-06-21 12:35:46.968750000,-48.0,-15.0,41.0,75.78,-60.82,0.342460125,238.65
2021-06-21 12:35:46.976562500,-48.0,-15.0,41.0,75.78,-50.225,0.34242009375,238.65
2021-06-21 12:35:46.984375000,-48.0,-15.0,41.0,75.78,-39.63,0.34238006249999997,238.65
2021-06-21 12:35:46.992187500,-48.0,-15.0,41.0,75.78,-29.04,0.34234003125,238.65
2021-06-21 12:35:47.000000000,-48.0,-15.0,41.0,75.78,-18.45,0.3423,238.65
2021-06-21 12:35:47.007812500,-48.0,-15.0,41.0,75.77921875,-8.975,0.3423,238.65
2021-06-21 12:35:47.015625000,-48.0,-15.0,41.0,75.7784375,0.5,0.3423,238.65
2021-06-21 12:35:47.023437500,-48.0,-15.0,41.0,75.77765625,8.235,0.3423,238.65
2021-06-21 12:35:47.031250000,-48.0,-15.0,41.0,75.776875,15.97,0.3423,238.65
2021-06-21 12:35:47.039062500,-47.75,-15.0,41.0,75.77609375,21.78,0.3423,238.65
2021-06-21 12:35:47.046875000,-47.5,-15.0,41.0,75.7753125,27.59,0.3423,238.65
2021-06-21 12:35:47.054687500,-47.25,-15.0,41.0,75.77453125,31.630000000000003,0.3423,238.65
2021-06-21 12:35:47.062500000,-47.0,-15.0,41.0,75.77375,35.67,0.3423,238.65
2021-06-21 12:35:47.070312500,-47.0,-15.0,41.0,75.77296875,38.269999999999996,0.3423,238.65
2021-06-21 12:35:47.078125000,-47.0,-15.0,41.0,75.7721875,40.87,0.3423,238.65
2021-06-21 12:35:47.085937500,-47.0,-15.0,41.0,75.77140625,42.379999999999995,0.3423,238.65
2021-06-21 12:35:47.093750000,-47.0,-15.0,41.0,75.770625,43.89,0.3423,238.65
2021-06-21 12:35:47.101562500,-47.25,-15.0,41.0,75.76984375,44.655,0.3423,238.65
2021-06-21 12:35:47.109375000,-47.5,-15.0,41.0,75.7690625,45.42,0.3423,238.65
2021-06-21 12:35:47.117187500,-47.75,-15.0,41.0,75.76828125,45.755,0.3423,238.65
2021-06-21 12:35:47.125000000,-48.0,-15.0,41.0,75.7675,46.09,0.3423,238.65
2021-06-21 12:35:47.132812500,-48.0,-15.0,41.0,75.76671875,46.265,0.3423,238.65
2021-06-21 12:35:47.140625000,-48.0,-15.0,41.0,75.7659375,46.44,0.3423,238.65
2021-06-21 12:35:47.148437500,-48.0,-15.0,41.0,75.76515625,46.655,0.3423,238.65
2021-06-21 12:35:47.156250000,-48.0,-15.0,41.0,75.764375,46.87,0.3423,238.65
2021-06-21 12:35:47.164062500,-48.0,-15.0,41.0,75.76359375,47.22,0.3423,238.65
2021-06-21 12:35:47.171875000,-48.0,-15.0,41.0,75.7628125,47.57,0.3423,238.65
2021-06-21 12:35:47.179687500,-48.0,-15.0,41.0,75.76203125,48.055,0.3423,238.65
2021-06-21 12:35:47.187500000,-48.0,-15.0,41.0,75.76125,48.54,0.3423,238.65
2021-06-21 12:35:47.195312500,-48.0,-15.25,41.0,75.76046875,49.085,0.3423,238.65
2021-06-21 12:35:47.203125000,-48.0,-15.5,41.0,75.7596875,49.63,0.3423,238.65
2021-06-21 12:35:47.210937500,-48.0,-15.75,41.0,75.75890625,50.13,0.3423,238.65
