TimeStamp,empatica.acc.x,empatica.acc.y,empatica.acc.z,empatica.hr,empatica.bvp,empatica.eda,empatica.temp
2021-07-06 16:26:22.007812500,-32.0,3.0,55.0,59.348671875,-22.025,0.8609428125,32.61
2021-07-06 16:26:22.015625000,-32.0,3.0,55.0,59.34734375,-22.81,0.860702625,32.61
2021-07-06 16:26:22.023437500,-32.0,3.0,55.0,59.346015625,-23.655,0.8604624375000001,32.61
2021-07-06 16:26:22.031250000,-32.0,3.0,55.0,59.3446875,-24.5,0.8602222500000001,32.61
2021-07-06 16:26:22.039062500,-32.0,3.0,55.0,59.343359375,-25.41,0.8599820625,32.61
2021-07-06 16:26:22.046875000,-32.0,3.0,55.0,59.34203125,-26.32,0.859741875,32.61
2021-07-06 16:26:22.054687500,-32.0,3.0,55.0,59.340703125000005,-27.195,0.8595016875,32.61
2021-07-06 16:26:22.062500000,-32.0,3.0,55.0,59.339375000000004,-28.07,0.8592615,32.61
2021-07-06 16:26:22.070312500,-32.0,3.0,55.0,59.338046875,-28.759999999999998,0.8590213125,32.61
2021-07-06 16:26:22.078125000,-32.0,3.0,55.0,59.33671875,-29.45,0.858781125,32.61
2021-07-06 16:26:22.085937500,-32.0,3.0,55.0,59.335390625,-29.795,0.8585409375,32.61
2021-07-06 16:26:22.093750000,-32.0,3.0,55.0,59.3340625,-30.14,0.85830075,32.61
2021-07-06 16:26:22.101562500,-32.0,2.75,55.0,59.332734375,-30.02,0.8580605625,32.61
2021-07-06 16:26:22.109375000,-32.0,2.5,55.0,59.33140625,-29.9,0.857820375,32.61
2021-07-06 16:26:22.117187500,-32.0,2.25,55.0,59.330078125,-29.29,0.8575801875,32.61
2021-07-06 16:26:22.125000000,-32.0,2.0,55.0,59.32875,-28.68,0.85734,32.61
2021-07-06 16:26:22.132812500,-32.0,2.25,55.0,59.327421875,-27.634999999999998,0.8570998125,32.61
2021-07-06 16:26:22.140625000,-32.0,2.5,55.0,59.32609375,-26.59,0.856859625,32.61
2021-07-06 16:26:22.148437500,-32.0,2.75,55.0,59.324765625,-25.189999999999998,0.8566194375,32.61
2021-07-06 16:26:22.156250000,-32.0,3.0,55.0,59.323437500000004,-23.79,0.85637925,32.61
2021-07-06 16:26:22.164062500,-32.0,2.75,55.0,59.322109375000004,-22.14,0.8561390624999999,32.61
2021-07-06 16:26:22.171875000,-32.0,2.5,55.0,59.32078125,-20.49,0.855898875,32.61
2021-07-06 16:26:22.179687500,-32.0,2.25,55.0,59.319453125,-18.659999999999997,0.8556586875,32.61
2021-07-06 16:26:22.187500000,-32.0,2.0,55.0,59.318125,-16.83,0.8554185,32.61
2021-07-06 16:26:22.195312500,-32.0,2.25,55.0,59.316796875,-14.879999999999999,0.8551783125,32.61
2021-07-06 16:26:22.203125000,-32.0,2.5,55.0,59.31546875,-12.93,0.854938125,32.61
2021-07-06 16:26:22.210937500,-32.0,2.75,55.0,59.314140625,-10.905000000000001,0.8546979375,32.61
2021-07-06 16:26:22.218750000,-32.0,3.0,55.0,59.3128125,-8.88,0.8544577499999999,32.61
2021-07-06 16:26:22.226562500,-32.0,3.0,55.0,59.311484375,-6.82,0.8542175624999999,32.61
2021-07-06 16:26:22.234375000,-32.0,3.0,55.0,59.31015625,-4.76,0.8539773749999999,32.61
2021-07-06 16:26:22.242187500,-32.0,3.0,55.0,59.308828125,-2.71,0.8537371874999999,32.61
2021-07-06 16:26:22.250000000,-32.0,3.0,55.0,59.307500000000005,-0.66,0.853497,32.61
2021-07-06 16:26:22.257812500,-32.0,3.0,55.0,59.306171875000004,1.33,0.8536170937499999,32.61
2021-07-06 16:26:22.265625000,-32.0,3.0,55.0,59.30484375,3.32,0.8537371874999999,32.61
2021-07-06 16:26:22.273437500,-32.0,3.0,55.0,59.303515625,5.2,0.8538572812499999,32.61
2021-07-06 16:26:22.281250000,-32.0,3.0,55.0,59.3021875,7.08,0.8539773749999999,32.61
2021-07-06 16:26:22.289062500,-32.0,2.75,55.0,59.300859375,8.775,0.8540974687499999,32.61
2021-07-06 16:26:22.296875000,-32.0,2.5,55.0,59.29953125,10.47,0.8542175624999999,32.61
2021-07-06 16:26:22.304687500,-32.0,2.25,55.0,59.298203125,11.92,0.8543376562499999,32.61
2021-07-06 16:26:22.312500000,-32.0,2.0,55.0,59.296875,13.37,0.8544577499999999,32.61
2021-07-06 16:26:22.320312500,-32.0,2.0,55.0,59.295546875,14.515,0.85457784375,32.61
2021-07-06 16:26:22.328125000,-32.0,2.0,55.0,59.29421875,15.66,0.8546979375,32.61
2021-07-06 16:26:22.335937500,-32.0,2.0,55.0,59.292890625,16.475,0.85481803125,32.61
2021-07-06 16:26:22.343750000,-32.0,2.0,55.0,59.2915625,17.29,0.854938125,32.61
2021-07-06 16:26:22.351562500,-32.0,2.0,55.0,59.290234375000004,17.775,0.85505821875,32.61
2021-07-06 16:26:22.359375000,-32.0,2.0,55.0,59.288906250000004,18.26,0.8551783125,32.61
2021-07-06 16:26:22.367187500,-32.0,2.0,55.0,59.287578125,18.490000000000002,0.85529840625,32.61
2021-07-06 16:26:22.375000000,-32.0,2.0,55.0,59.28625,18.72,0.8554185,32.61
2021-07-06 16:26:22.382812500,-32.0,2.25,55.0,59.284921875,18.765,0.85553859375,32.61
2021-07-06 16:26:22.390625000,-32.0,2.5,55.0,59.28359375,18.81,0.8556586875,32.61
2021-07-06 16:26:22.398437500,-32.0,2.75,55.0,59.282265625,18.77,0.85577878125,32.61
2021-07-06 16:26:22.406250000,-32.0,3.0,55.0,59.2809375,18.73,0.855898875,32.61
2021-07-06 16:26:22.414062500,-32.0,2.75,55.0,59.279609375,18.66,0.8560189687499999,32.61
2021-07-06 16:26:22.421875000,-32.0,2.5,55.0,59.27828125,18.59,0.8561390624999999,32.61
2021-07-06 16:26:22.429687500,-32.0,2.25,55.0,59.276953125,18.525,0.8562591562499999,32.61
2021-07-06 16:26:22.437500000,-32.0,2.0,55.0,59.275625,18.46,0.85637925,32.61
2021-07-06 16:26:22.445312500,-32.0,2.25,55.0,59.274296875,18.39,0.85649934375,32.61
2021-07-06 16:26:22.453125000,-32.0,2.5,55.0,59.272968750000004,18.32,0.8566194375,32.61
2021-07-06 16:26:22.460937500,-32.0,2.75,55.0,59.271640625,18.225,0.85673953125,32.61
2021-07-06 16:26:22.468750000,-32.0,3.0,55.0,59.2703125,18.13,0.856859625,32.61
2021-07-06 16:26:22.476562500,-32.0,3.0,55.0,59.268984375,17.990000000000002,0.85697971875,32.61
2021-07-06 16:26:22.484375000,-32.0,3.0,55.0,59.26765625,17.85,0.8570998125,32.61
2021-07-06 16:26:22.492187500,-32.0,3.0,55.0,59.266328125,17.65,0.85721990625,32.61
2021-07-06 16:26:22.500000000,-32.0,3.0,55.0,59.265,17.45,0.85734,32.61
2021-07-06 16:26:22.507812500,-32.0,3.0,55.0,59.263671875,17.185000000000002,0.85721990625,32.61
2021-07-06 16:26:22.515625000,-32.0,3.0,55.0,59.26234375,16.92,0.8570998125,32.61
2021-07-06 16:26:22.523437500,-32.0,3.0,55.0,59.261015625,16.595,0.85697971875,32.61
2021-07-06 16:26:22.531250000,-32.0,3.0,55.0,59.2596875,16.27,0.856859625,32.61
2021-07-06 16:26:22.539062500,-32.0,3.0,55.0,59.258359375,15.875,0.85673953125,32.61
2021-07-06 16:26:22.546875000,-32.0,3.0,55.0,59.25703125,15.48,0.8566194375,32.61
2021-07-06 16:26:22.554687500,-32.0,3.0,55.0,59.255703125000004,15.02,0.85649934375,32.61
2021-07-06 16:26:22.562500000,-32.0,3.0,55.0,59.254375,14.56,0.85637925,32.61
2021-07-06 16:26:22.570312500,-32.0,2.75,55.0,59.253046875,14.045,0.8562591562499999,32.61
2021-07-06 16:26:22.578125000,-32.0,2.5,55.0,59.25171875,13.53,0.8561390624999999,32.61
2021-07-06 16:26:22.585937500,-32.0,2.25,55.0,59.250390625,12.98,0.8560189687499999,32.61
2021-07-06 16:26:22.593750000,-32.0,2.0,55.0,59.2490625,12.43,0.855898875,32.61
2021-07-06 16:26:22.601562500,-32.0,2.25,55.0,59.247734375,11.870000000000001,0.85577878125,32.61
2021-07-06 16:26:22.609375000,-32.0,2.5,55.0,59.24640625,11.31,0.8556586875,32.61
2021-07-06 16:26:22.617187500,-32.0,2.75,55.0,59.245078125,10.754999999999999,0.85553859375,32.61
2021-07-06 16:26:22.625000000,-32.0,3.0,55.0,59.24375,10.2,0.8554185,32.61
2021-07-06 16:26:22.632812500,-32.0,3.0,55.0,59.242421875,9.66,0.85529840625,32.61
2021-07-06 16:26:22.640625000,-32.0,3.0,55.0,59.24109375,9.12,0.8551783125,32.61
2021-07-06 16:26:22.648437500,-32.0,3.0,55.0,59.239765625,8.559999999999999,0.85505821875,32.61
2021-07-06 16:26:22.656250000,-32.0,3.0,55.0,59.2384375,8.0,0.854938125,32.61
2021-07-06 16:26:22.664062500,-32.0,2.75,55.0,59.237109375,7.390000000000001,0.85481803125,32.61
2021-07-06 16:26:22.671875000,-32.0,2.5,55.0,59.23578125,6.78,0.8546979375,32.61
2021-07-06 16:26:22.679687500,-32.0,2.25,55.0,59.234453125,6.09,0.85457784375,32.61
2021-07-06 16:26:22.687500000,-32.0,2.0,55.0,59.233125,5.4,0.8544577499999999,32.61
2021-07-06 16:26:22.695312500,-32.0,2.25,55.0,59.231796875,4.595000000000001,0.8543376562499999,32.61
2021-07-06 16:26:22.703125000,-32.0,2.5,55.0,59.23046875,3.79,0.8542175624999999,32.61
2021-07-06 16:26:22.710937500,-32.0,2.75,55.0,59.229140625,2.875,0.8540974687499999,32.61
2021-07-06 16:26:22.718750000,-32.0,3.0,55.0,59.2278125,1.96,0.8539773749999999,32.61
2021-07-06 16:26:22.726562500,-32.0,3.0,55.0,59.226484375,0.975,0.8538572812499999,32.61
2021-07-06 16:26:22.734375000,-32.0,3.0,55.0,59.22515625,-0.01,0.8537371874999999,32.61
2021-07-06 16:26:22.742187500,-32.0,3.0,55.0,59.223828125,-1.04,0.8536170937499999,32.61
2021-07-06 16:26:22.750000000,-32.0,3.0,55.0,59.2225,-2.07,0.853497,32.61
2021-07-06 16:26:22.757812500,-32.0,3.0,55.0,59.221171875,-3.1049999999999995,0.85345696875,32.61
2021-07-06 16:26:22.765625000,-32.0,3.0,55.0,59.21984375,-4.14,0.8534169374999999,32.61
2021-07-06 16:26:22.773437500,-32.0,3.0,55.0,59.218515625,-5.13,0.85337690625,32.61
2021-07-06 16:26:22.781250000,-32.0,3.0,55.0,59.2171875,-6.12,0.853336875,32.61
2021-07-06 16:26:22.789062500,-32.0,2.75,55.0,59.215859375,-7.050000000000001,0.8532968437499999,32.61
2021-07-06 16:26:22.796875000,-32.0,2.5,55.0,59.21453125,-7.98,0.8532568125,32.61
2021-07-06 16:26:22.804687500,-32.0,2.25,55.0,59.213203125,-8.825,0.85321678125,32.61
2021-07-06 16:26:22.812500000,-32.0,2.0,55.0,59.211875,-9.67,0.8531767499999999,32.61
2021-07-06 16:26:22.820312500,-32.0,2.25,55.0,59.210546875,-10.41,0.85313671875,32.61
2021-07-06 16:26:22.828125000,-32.0,2.5,55.0,59.20921875,-11.15,0.8530966875,32.61
2021-07-06 16:26:22.835937500,-32.0,2.75,55.0,59.207890625,-11.785,0.8530566562499999,32.61
2021-07-06 16:26:22.843750000,-32.0,3.0,55.0,59.2065625,-12.42,0.853016625,32.61
2021-07-06 16:26:22.851562500,-32.0,3.0,55.0,59.205234375,-12.975,0.85297659375,32.61
2021-07-06 16:26:22.859375000,-32.0,3.0,55.0,59.20390625,-13.53,0.8529365624999999,32.61
2021-07-06 16:26:22.867187500,-32.0,3.0,55.0,59.202578125,-14.03,0.85289653125,32.61
2021-07-06 16:26:22.875000000,-32.0,3.0,55.0,59.20125,-14.53,0.8528564999999999,32.61
2021-07-06 16:26:22.882812500,-32.0,3.0,55.0,59.199921875,-15.03,0.85281646875,32.61
2021-07-06 16:26:22.890625000,-32.0,3.0,55.0,59.19859375,-15.53,0.8527764375,32.61
2021-07-06 16:26:22.898437500,-32.0,3.0,55.0,59.197265625,-16.105,0.8527364062499999,32.61
2021-07-06 16:26:22.906250000,-32.0,3.0,55.0,59.1959375,-16.68,0.852696375,32.61
2021-07-06 16:26:22.914062500,-32.0,3.0,55.0,59.194609375,-17.384999999999998,0.85265634375,32.61
2021-07-06 16:26:22.921875000,-32.0,3.0,55.0,59.19328125,-18.09,0.8526163124999999,32.61
2021-07-06 16:26:22.929687500,-32.0,3.0,55.0,59.191953125,-18.965,0.85257628125,32.61
2021-07-06 16:26:22.937500000,-32.0,3.0,55.0,59.190625,-19.84,0.85253625,32.61
2021-07-06 16:26:22.945312500,-32.0,2.75,55.0,59.189296875,-20.855,0.8524962187499999,32.61
2021-07-06 16:26:22.953125000,-32.0,2.5,55.0,59.18796875,-21.87,0.8524561875,32.61
2021-07-06 16:26:22.960937500,-32.0,2.25,55.0,59.186640625,-22.91,0.85241615625,32.61
2021-07-06 16:26:22.968750000,-32.0,2.0,55.0,59.1853125,-23.95,0.8523761249999999,32.61
2021-07-06 16:26:22.976562500,-32.0,2.25,55.0,59.183984375,-24.86,0.85233609375,32.61
2021-07-06 16:26:22.984375000,-32.0,2.5,55.0,59.18265625,-25.77,0.8522960625,32.61
2021-07-06 16:26:22.992187500,-32.0,2.75,55.0,59.181328125,-26.35,0.8522560312499999,32.61
2021-07-06 16:26:23.000000000,-32.0,3.0,55.0,59.18,-26.93,0.852216,32.61
2021-07-06 16:26:23.007812500,-32.0,3.0,55.0,59.17875,-27.045,0.85201584375,32.61
2021-07-06 16:26:23.015625000,-32.0,3.0,55.0,59.1775,-27.16,0.8518156875,32.61
2021-07-06 16:26:23.023437500,-32.0,3.0,55.0,59.17625,-26.735,0.85161553125,32.61
2021-07-06 16:26:23.031250000,-32.0,3.0,55.0,59.175,-26.31,0.851415375,32.61
2021-07-06 16:26:23.039062500,-32.0,3.0,55.0,59.17375,-25.4,0.85121521875,32.61
2021-07-06 16:26:23.046875000,-32.0,3.0,55.0,59.1725,-24.49,0.8510150624999999,32.61
2021-07-06 16:26:23.054687500,-32.0,3.0,55.0,59.17125,-23.205,0.85081490625,32.61
2021-07-06 16:26:23.062500000,-32.0,3.0,55.0,59.17,-21.92,0.85061475,32.61
2021-07-06 16:26:23.070312500,-32.0,3.0,55.0,59.16875,-20.405,0.85041459375,32.61
2021-07-06 16:26:23.078125000,-32.0,3.0,55.0,59.1675,-18.89,0.8502144375,32.61
2021-07-06 16:26:23.085937500,-32.0,3.0,55.0,59.16625,-17.275,0.85001428125,32.61
2021-07-06 16:26:23.093750000,-32.0,3.0,55.0,59.165,-15.66,0.849814125,32.61
2021-07-06 16:26:23.101562500,-32.0,2.75,55.0,59.16375,-14.01,0.84961396875,32.61
2021-07-06 16:26:23.109375000,-32.0,2.5,55.0,59.1625,-12.36,0.8494138124999999,32.61
2021-07-06 16:26:23.117187500,-32.0,2.25,55.0,59.16125,-10.695,0.84921365625,32.61
2021-07-06 16:26:23.125000000,-32.0,2.0,55.0,59.16,-9.03,0.8490135,32.61
2021-07-06 16:26:23.132812500,-32.0,2.25,55.0,59.15875,-7.34,0.84881334375,32.61
2021-07-06 16:26:23.140625000,-32.0,2.5,55.0,59.1575,-5.65,0.8486131875,32.61
2021-07-06 16:26:23.148437500,-32.0,2.75,55.0,59.15625,-3.95,0.84841303125,32.61
2021-07-06 16:26:23.156250000,-32.0,3.0,55.0,59.155,-2.25,0.848212875,32.61
2021-07-06 16:26:23.164062500,-32.0,3.0,55.0,59.15375,-0.5800000000000001,0.84801271875,32.61
2021-07-06 16:26:23.171875000,-32.0,3.0,55.0,59.1525,1.09,0.8478125624999999,32.61
2021-07-06 16:26:23.179687500,-32.0,3.0,55.0,59.15125,2.6900000000000004,0.84761240625,32.61
2021-07-06 16:26:23.187500000,-32.0,3.0,55.0,59.15,4.29,0.84741225,32.61
2021-07-06 16:26:23.195312500,-32.0,3.0,55.0,59.14875,5.775,0.84721209375,32.61
2021-07-06 16:26:23.203125000,-32.0,3.0,55.0,59.1475,7.26,0.8470119375,32.61
2021-07-06 16:26:23.210937500,-32.0,3.0,55.0,59.14625,8.6,0.84681178125,32.61
2021-07-06 16:26:23.218750000,-32.0,3.0,55.0,59.145,9.94,0.846611625,32.61
2021-07-06 16:26:23.226562500,-32.0,3.0,55.0,59.14375,11.135,0.84641146875,32.61
2021-07-06 16:26:23.234375000,-32.0,3.0,55.0,59.1425,12.33,0.8462113124999999,32.61
2021-07-06 16:26:23.242187500,-32.0,3.0,55.0,59.14125,13.375,0.84601115625,32.61
2021-07-06 16:26:23.250000000,-32.0,3.0,55.0,59.14,14.42,0.845811,32.61
2021-07-06 16:26:23.257812500,-32.0,3.0,55.0,59.13875,15.29,0.84593109375,32.61
2021-07-06 16:26:23.265625000,-32.0,3.0,55.0,59.1375,16.16,0.8460511875,32.61
2021-07-06 16:26:23.273437500,-32.0,3.0,55.0,59.136250000000004,16.825,0.84617128125,32.61
2021-07-06 16:26:23.281250000,-32.0,3.0,55.0,59.135,17.49,0.846291375,32.61
2021-07-06 16:26:23.289062500,-32.0,3.0,55.0,59.13375,17.924999999999997,0.84641146875,32.61
2021-07-06 16:26:23.296875000,-32.0,3.0,55.0,59.1325,18.36,0.8465315625,32.61
2021-07-06 16:26:23.304687500,-32.0,3.0,55.0,59.13125,18.560000000000002,0.8466516562499999,32.61
2021-07-06 16:26:23.312500000,-32.0,3.0,55.0,59.13,18.76,0.84677175,32.61
2021-07-06 16:26:23.320312500,-32.0,3.0,55.0,59.128750000000004,18.765,0.84689184375,32.61
2021-07-06 16:26:23.328125000,-32.0,3.0,55.0,59.1275,18.77,0.8470119375,32.61
2021-07-06 16:26:23.335937500,-32.0,3.0,55.0,59.12625,18.665,0.84713203125,32.61
2021-07-06 16:26:23.343750000,-32.0,3.0,55.0,59.125,18.56,0.847252125,32.61
2021-07-06 16:26:23.351562500,-32.0,2.75,55.0,59.12375,18.43,0.84737221875,32.61
2021-07-06 16:26:23.359375000,-32.0,2.5,55.0,59.1225,18.3,0.8474923125,32.61
2021-07-06 16:26:23.367187500,-32.0,2.25,55.0,59.12125,18.195,0.84761240625,32.61
2021-07-06 16:26:23.375000000,-32.0,2.0,55.0,59.120000000000005,18.09,0.8477325,32.61
2021-07-06 16:26:23.382812500,-32.0,2.25,55.0,59.11875,18.015,0.84785259375,32.61
2021-07-06 16:26:23.390625000,-32.0,2.5,55.0,59.1175,17.94,0.8479726875,32.61
2021-07-06 16:26:23.398437500,-32.0,2.75,55.0,59.11625,17.855,0.84809278125,32.61
2021-07-06 16:26:23.406250000,-32.0,3.0,55.0,59.115,17.77,0.848212875,32.61
2021-07-06 16:26:23.414062500,-32.0,3.0,55.0,59.11375,17.619999999999997,0.84833296875,32.61
2021-07-06 16:26:23.421875000,-32.0,3.0,55.0,59.112500000000004,17.47,0.8484530625,32.61
2021-07-06 16:26:23.429687500,-32.0,3.0,55.0,59.11125,17.205,0.84857315625,32.61
2021-07-06 16:26:23.437500000,-32.0,3.0,55.0,59.11,16.94,0.84869325,32.61
2021-07-06 16:26:23.445312500,-32.0,3.0,55.0,59.10875,16.55,0.8488133437500001,32.61
2021-07-06 16:26:23.453125000,-32.0,3.0,55.0,59.1075,16.16,0.8489334375,32.61
2021-07-06 16:26:23.460937500,-32.0,3.0,55.0,59.10625,15.665,0.84905353125,32.61
2021-07-06 16:26:23.468750000,-32.0,3.0,55.0,59.105000000000004,15.17,0.849173625,32.61
2021-07-06 16:26:23.476562500,-32.0,3.0,55.0,59.10375,14.594999999999999,0.84929371875,32.61
2021-07-06 16:26:23.484375000,-32.0,3.0,55.0,59.1025,14.02,0.8494138125,32.61
2021-07-06 16:26:23.492187500,-32.0,3.0,55.0,59.10125,13.399999999999999,0.84953390625,32.61
2021-07-06 16:26:23.500000000,-32.0,3.0,55.0,59.1,12.78,0.849654,32.61
2021-07-06 16:26:23.507812500,-32.0,2.75,55.0,59.09875,12.14,0.8493737812500001,32.61
2021-07-06 16:26:23.515625000,-32.0,2.5,55.0,59.097500000000004,11.5,0.8490935625,32.61
2021-07-06 16:26:23.523437500,-32.0,2.25,55.0,59.096250000000005,10.855,0.8488133437500001,32.61
2021-07-06 16:26:23.531250000,-32.0,2.0,55.0,59.095,10.21,0.848533125,32.61
2021-07-06 16:26:23.539062500,-32.0,2.0,55.0,59.09375,9.57,0.84825290625,32.61
2021-07-06 16:26:23.546875000,-32.0,2.0,55.0,59.0925,8.93,0.8479726875,32.61
2021-07-06 16:26:23.554687500,-32.0,2.0,55.0,59.09125,8.325,0.84769246875,32.61
2021-07-06 16:26:23.562500000,-32.0,2.0,55.0,59.09,7.72,0.84741225,32.61
2021-07-06 16:26:23.570312500,-32.0,2.0,55.0,59.088750000000005,7.165,0.84713203125,32.61
2021-07-06 16:26:23.578125000,-32.0,2.0,55.0,59.0875,6.61,0.8468518125,32.61
2021-07-06 16:26:23.585937500,-32.0,2.0,55.0,59.08625,6.115,0.84657159375,32.61
2021-07-06 16:26:23.593750000,-32.0,2.0,55.0,59.085,5.62,0.846291375,32.61
2021-07-06 16:26:23.601562500,-32.0,2.0,55.0,59.08375,5.15,0.84601115625,32.61
2021-07-06 16:26:23.609375000,-32.0,2.0,55.0,59.0825,4.68,0.8457309375,32.61
2021-07-06 16:26:23.617187500,-32.0,2.0,55.0,59.081250000000004,4.1899999999999995,0.84545071875,32.61
2021-07-06 16:26:23.625000000,-32.0,2.0,55.0,59.08,3.7,0.8451705,32.61
2021-07-06 16:26:23.632812500,-32.25,2.0,55.0,59.07875,3.1100000000000003,0.84489028125,32.61
2021-07-06 16:26:23.640625000,-32.5,2.0,55.0,59.0775,2.52,0.8446100625,32.61
2021-07-06 16:26:23.648437500,-32.75,2.0,55.0,59.07625,1.775,0.84432984375,32.61
2021-07-06 16:26:23.656250000,-33.0,2.0,55.0,59.075,1.03,0.844049625,32.61
2021-07-06 16:26:23.664062500,-32.75,2.0,55.0,59.073750000000004,0.14500000000000002,0.84376940625,32.61
2021-07-06 16:26:23.671875000,-32.5,2.0,55.0,59.072500000000005,-0.74,0.8434891875,32.61
2021-07-06 16:26:23.679687500,-32.25,2.0,55.0,59.07125,-1.7200000000000002,0.84320896875,32.61
2021-07-06 16:26:23.687500000,-32.0,2.0,55.0,59.07,-2.7,0.84292875,32.61
2021-07-06 16:26:23.695312500,-32.0,2.0,55.0,59.06875,-3.6750000000000003,0.8426485312499999,32.61
2021-07-06 16:26:23.703125000,-32.0,2.0,55.0,59.0675,-4.65,0.8423683125,32.61
2021-07-06 16:26:23.710937500,-32.0,2.0,55.0,59.066250000000004,-5.535,0.8420880937499999,32.61
2021-07-06 16:26:23.718750000,-32.0,2.0,55.0,59.065000000000005,-6.42,0.841807875,32.61
2021-07-06 16:26:23.726562500,-32.0,2.25,55.0,59.06375,-7.1850000000000005,0.8415276562499999,32.61
2021-07-06 16:26:23.734375000,-32.0,2.5,55.0,59.0625,-7.95,0.8412474375,32.61
2021-07-06 16:26:23.742187500,-32.0,2.75,55.0,59.06125,-8.645,0.8409672187499999,32.61
2021-07-06 16:26:23.750000000,-32.0,3.0,55.0,59.06,-9.34,0.840687,32.61
2021-07-06 16:26:23.757812500,-32.0,3.0,55.25,59.05875,-10.05,0.8408471249999999,32.61
2021-07-06 16:26:23.765625000,-32.0,3.0,55.5,59.057500000000005,-10.76,0.84100725,32.61
2021-07-06 16:26:23.773437500,-32.0,3.0,55.75,59.056250000000006,-11.59,0.8411673749999999,32.61
2021-07-06 16:26:23.781250000,-32.0,3.0,56.0,59.055,-12.42,0.8413275,32.61
2021-07-06 16:26:23.789062500,-32.0,3.0,55.75,59.05375,-13.425,0.841487625,32.61
2021-07-06 16:26:23.796875000,-32.0,3.0,55.5,59.0525,-14.43,0.8416477499999999,32.61
2021-07-06 16:26:23.804687500,-32.0,3.0,55.25,59.05125,-15.605,0.841807875,32.61
2021-07-06 16:26:23.812500000,-32.0,3.0,55.0,59.050000000000004,-16.78,0.8419679999999999,32.61
2021-07-06 16:26:23.820312500,-32.0,3.0,55.0,59.048750000000005,-18.05,0.842128125,32.61
2021-07-06 16:26:23.828125000,-32.0,3.0,55.0,59.0475,-19.32,0.84228825,32.61
2021-07-06 16:26:23.835937500,-32.0,3.0,55.0,59.04625,-20.595,0.8424483749999999,32.61
2021-07-06 16:26:23.843750000,-32.0,3.0,55.0,59.045,-21.87,0.8426085,32.61
2021-07-06 16:26:23.851562500,-32.0,2.75,55.0,59.04375,-23.060000000000002,0.8427686249999999,32.61
2021-07-06 16:26:23.859375000,-32.0,2.5,55.0,59.042500000000004,-24.25,0.84292875,32.61
2021-07-06 16:26:23.867187500,-32.0,2.25,55.0,59.041250000000005,-25.285,0.843088875,32.61
2021-07-06 16:26:23.875000000,-32.0,2.0,55.0,59.040000000000006,-26.32,0.8432489999999999,32.61
2021-07-06 16:26:23.882812500,-32.25,2.25,55.0,59.03875,-27.14,0.843409125,32.61
2021-07-06 16:26:23.890625000,-32.5,2.5,55.0,59.0375,-27.96,0.8435692499999999,32.61
2021-07-06 16:26:23.898437500,-32.75,2.75,55.0,59.03625,-28.509999999999998,0.843729375,32.61
2021-07-06 16:26:23.906250000,-33.0,3.0,55.0,59.035000000000004,-29.06,0.8438895,32.61
2021-07-06 16:26:23.914062500,-32.75,2.75,55.0,59.033750000000005,-29.27,0.844049625,32.61
2021-07-06 16:26:23.921875000,-32.5,2.5,55.0,59.032500000000006,-29.48,0.84420975,32.61
2021-07-06 16:26:23.929687500,-32.25,2.25,55.0,59.03125,-29.275,0.8443698749999999,32.61
2021-07-06 16:26:23.937500000,-32.0,2.0,55.0,59.03,-29.07,0.84453,32.61
2021-07-06 16:26:23.945312500,-32.0,2.0,55.0,59.02875,-28.405,0.844690125,32.61
2021-07-06 16:26:23.953125000,-32.0,2.0,55.0,59.0275,-27.74,0.84485025,32.61
2021-07-06 16:26:23.960937500,-32.0,2.0,55.0,59.026250000000005,-26.619999999999997,0.845010375,32.61
2021-07-06 16:26:23.968750000,-32.0,2.0,55.0,59.025000000000006,-25.5,0.8451704999999999,32.61
2021-07-06 16:26:23.976562500,-32.0,2.0,55.0,59.02375,-24.005000000000003,0.845330625,32.61
2021-07-06 16:26:23.984375000,-32.0,2.0,55.0,59.0225,-22.51,0.84549075,32.61
2021-07-06 16:26:23.992187500,-32.0,2.0,55.0,59.02125,-20.785,0.845650875,32.61
2021-07-06 16:26:24.000000000,-32.0,2.0,55.0,59.02,-19.06,0.845811,32.61
2021-07-06 16:26:24.007812500,-32.0,2.25,55.0,59.018515625000006,-17.24,0.8457309375,32.61
2021-07-06 16:26:24.015625000,-32.0,2.5,55.0,59.01703125,-15.42,0.845650875,32.61
2021-07-06 16:26:24.023437500,-32.0,2.75,55.0,59.015546875000005,-13.620000000000001,0.8455708125,32.61
2021-07-06 16:26:24.031250000,-32.0,3.0,55.0,59.0140625,-11.82,0.84549075,32.61
2021-07-06 16:26:24.039062500,-32.0,3.0,55.0,59.012578125000005,-10.08,0.8454106875,32.61
2021-07-06 16:26:24.046875000,-32.0,3.0,55.0,59.01109375,-8.34,0.845330625,32.61
2021-07-06 16:26:24.054687500,-32.0,3.0,55.0,59.009609375000004,-6.645,0.8452505625,32.61
2021-07-06 16:26:24.062500000,-32.0,3.0,55.0,59.008125,-4.95,0.8451705,32.61
2021-07-06 16:26:24.070312500,-32.25,2.75,55.0,59.006640625,-3.255,0.8450904375,32.61
2021-07-06 16:26:24.078125000,-32.5,2.5,55.0,59.005156250000006,-1.56,0.845010375,32.61
2021-07-06 16:26:24.085937500,-32.75,2.25,55.0,59.003671875,0.14000000000000012,0.8449303125,32.61
2021-07-06 16:26:24.093750000,-33.0,2.0,55.0,59.002187500000005,1.84,0.84485025,32.61
2021-07-06 16:26:24.101562500,-32.75,2.25,55.0,59.000703125,3.5,0.8447701875,32.61
2021-07-06 16:26:24.109375000,-32.5,2.5,55.0,58.999218750000004,5.16,0.844690125,32.61
2021-07-06 16:26:24.117187500,-32.25,2.75,55.0,58.997734375,6.68,0.8446100625,32.61
2021-07-06 16:26:24.125000000,-32.0,3.0,55.0,58.99625,8.2,0.84453,32.61
2021-07-06 16:26:24.132812500,-32.25,2.75,55.0,58.994765625,9.475,0.8444499375,32.61
2021-07-06 16:26:24.140625000,-32.5,2.5,55.0,58.99328125,10.75,0.844369875,32.61
2021-07-06 16:26:24.148437500,-32.75,2.25,55.0,58.991796875000006,11.71,0.8442898125,32.61
2021-07-06 16:26:24.156250000,-33.0,2.0,55.0,58.9903125,12.67,0.84420975,32.61
2021-07-06 16:26:24.164062500,-32.75,2.0,55.0,58.988828125000005,13.3,0.8441296875000001,32.61
2021-07-06 16:26:24.171875000,-32.5,2.0,55.0,58.98734375,13.93,0.844049625,32.61
2021-07-06 16:26:24.179687500,-32.25,2.0,55.0,58.985859375000004,14.285,0.8439695625,32.61
2021-07-06 16:26:24.187500000,-32.0,2.0,55.0,58.984375,14.64,0.8438895,32.61
2021-07-06 16:26:24.195312500,-32.0,2.25,55.0,58.982890625,14.785,0.8438094375,32.61
2021-07-06 16:26:24.203125000,-32.0,2.5,55.0,58.98140625,14.93,0.843729375,32.61
2021-07-06 16:26:24.210937500,-32.0,2.75,55.0,58.979921875,14.934999999999999,0.8436493125,32.61
2021-07-06 16:26:24.218750000,-32.0,3.0,55.0,58.978437500000005,14.94,0.84356925,32.61
2021-07-06 16:26:24.226562500,-32.0,3.0,55.0,58.976953125,14.815,0.8434891875,32.61
2021-07-06 16:26:24.234375000,-32.0,3.0,55.0,58.975468750000005,14.69,0.843409125,32.61
2021-07-06 16:26:24.242187500,-32.0,3.0,55.0,58.973984375,14.445,0.8433290625000001,32.61
2021-07-06 16:26:24.250000000,-32.0,3.0,55.0,58.972500000000004,14.2,0.843249,32.61
2021-07-06 16:26:24.257812500,-32.0,3.0,55.0,58.971015625,13.82,0.84328903125,32.61
2021-07-06 16:26:24.265625000,-32.0,3.0,55.0,58.96953125,13.44,0.8433290625000001,32.61
2021-07-06 16:26:24.273437500,-32.0,3.0,55.0,58.968046875,12.95,0.84336909375,32.61
2021-07-06 16:26:24.281250000,-32.0,3.0,55.0,58.9665625,12.46,0.843409125,32.61
2021-07-06 16:26:24.289062500,-32.25,2.75,55.0,58.965078125000005,11.9,0.84344915625,32.61
2021-07-06 16:26:24.296875000,-32.5,2.5,55.0,58.96359375,11.34,0.8434891875,32.61
2021-07-06 16:26:24.304687500,-32.75,2.25,55.0,58.962109375000004,10.77,0.84352921875,32.61
2021-07-06 16:26:24.312500000,-33.0,2.0,55.0,58.960625,10.2,0.84356925,32.61
2021-07-06 16:26:24.320312500,-32.75,2.25,55.0,58.959140625,9.684999999999999,0.84360928125,32.61
2021-07-06 16:26:24.328125000,-32.5,2.5,55.0,58.95765625,9.17,0.8436493125,32.61
2021-07-06 16:26:24.335937500,-32.25,2.75,55.0,58.956171875,8.75,0.84368934375,32.61
2021-07-06 16:26:24.343750000,-32.0,3.0,55.0,58.9546875,8.33,0.843729375,32.61
2021-07-06 16:26:24.351562500,-32.0,3.0,55.0,58.953203125,8.0,0.84376940625,32.61
2021-07-06 16:26:24.359375000,-32.0,3.0,55.0,58.951718750000005,7.67,0.8438094375,32.61
2021-07-06 16:26:24.367187500,-32.0,3.0,55.0,58.950234375,7.42,0.84384946875,32.61
2021-07-06 16:26:24.375000000,-32.0,3.0,55.0,58.948750000000004,7.17,0.8438895,32.61
2021-07-06 16:26:24.382812500,-32.0,3.0,55.25,58.947265625,6.96,0.84392953125,32.61
2021-07-06 16:26:24.390625000,-32.0,3.0,55.5,58.94578125,6.75,0.8439695625,32.61
2021-07-06 16:26:24.398437500,-32.0,3.0,55.75,58.944296875,6.525,0.8440095937500001,32.61
2021-07-06 16:26:24.406250000,-32.0,3.0,56.0,58.9428125,6.3,0.844049625,32.61
2021-07-06 16:26:24.414062500,-32.0,2.75,55.75,58.941328125,6.0,0.84408965625,32.61
2021-07-06 16:26:24.421875000,-32.0,2.5,55.5,58.93984375,5.7,0.8441296875000001,32.61
2021-07-06 16:26:24.429687500,-32.0,2.25,55.25,58.938359375000005,5.28,0.84416971875,32.61
2021-07-06 16:26:24.437500000,-32.0,2.0,55.0,58.936875,4.86,0.84420975,32.61
2021-07-06 16:26:24.445312500,-32.0,2.0,55.0,58.935390625000004,4.325,0.84424978125,32.61
2021-07-06 16:26:24.453125000,-32.0,2.0,55.0,58.93390625,3.79,0.8442898125,32.61
2021-07-06 16:26:24.460937500,-32.0,2.0,55.0,58.932421875,3.17,0.84432984375,32.61
2021-07-06 16:26:24.468750000,-32.0,2.0,55.0,58.9309375,2.55,0.844369875,32.61
2021-07-06 16:26:24.476562500,-32.0,2.0,55.25,58.929453125,1.915,0.84440990625,32.61
2021-07-06 16:26:24.484375000,-32.0,2.0,55.5,58.92796875,1.28,0.8444499375,32.61
2021-07-06 16:26:24.492187500,-32.0,2.0,55.75,58.926484375,0.7050000000000001,0.84448996875,32.61
2021-07-06 16:26:24.500000000,-32.0,2.0,56.0,58.925,0.13,0.84453,32.61
2021-07-06 16:26:24.507812500,-32.0,2.25,55.75,58.923515625,-0.345,0.84432984375,32.61
2021-07-06 16:26:24.515625000,-32.0,2.5,55.5,58.92203125,-0.82,0.8441296875,32.61
2021-07-06 16:26:24.523437500,-32.0,2.75,55.25,58.920546875,-1.185,0.84392953125,32.61
2021-07-06 16:26:24.531250000,-32.0,3.0,55.0,58.9190625,-1.55,0.843729375,32.61
2021-07-06 16:26:24.539062500,-32.0,3.0,55.0,58.917578125,-1.83,0.84352921875,32.61
2021-07-06 16:26:24.546875000,-32.0,3.0,55.0,58.91609375,-2.11,0.8433290625000001,32.61
2021-07-06 16:26:24.554687500,-32.0,3.0,55.0,58.914609375,-2.365,0.84312890625,32.61
2021-07-06 16:26:24.562500000,-32.0,3.0,55.0,58.913125,-2.62,0.84292875,32.61
2021-07-06 16:26:24.570312500,-32.0,3.0,55.0,58.911640625,-2.89,0.84272859375,32.61
2021-07-06 16:26:24.578125000,-32.0,3.0,55.0,58.91015625,-3.16,0.8425284375,32.61
2021-07-06 16:26:24.585937500,-32.0,3.0,55.0,58.908671875,-3.4850000000000003,0.84232828125,32.61
2021-07-06 16:26:24.593750000,-32.0,3.0,55.0,58.9071875,-3.81,0.842128125,32.61
2021-07-06 16:26:24.601562500,-32.0,3.0,55.0,58.905703125,-4.215,0.84192796875,32.61
2021-07-06 16:26:24.609375000,-32.0,3.0,55.0,58.90421875,-4.62,0.8417278125000001,32.61
2021-07-06 16:26:24.617187500,-32.0,3.0,55.0,58.902734375,-5.08,0.84152765625,32.61
2021-07-06 16:26:24.625000000,-32.0,3.0,55.0,58.90125,-5.54,0.8413275,32.61
2021-07-06 16:26:24.632812500,-32.0,3.0,55.0,58.899765625,-6.029999999999999,0.84112734375,32.61
2021-07-06 16:26:24.640625000,-32.0,3.0,55.0,58.89828125,-6.52,0.8409271875,32.61
2021-07-06 16:26:24.648437500,-32.0,3.0,55.0,58.896796875,-6.98,0.84072703125,32.61
2021-07-06 16:26:24.656250000,-32.0,3.0,55.0,58.8953125,-7.44,0.840526875,32.61
2021-07-06 16:26:24.664062500,-32.0,3.0,55.0,58.893828125,-7.825000000000001,0.84032671875,32.61
2021-07-06 16:26:24.671875000,-32.0,3.0,55.0,58.89234375,-8.21,0.8401265625000001,32.61
2021-07-06 16:26:24.679687500,-32.0,3.0,55.0,58.890859375,-8.505,0.83992640625,32.61
2021-07-06 16:26:24.687500000,-32.0,3.0,55.0,58.889375,-8.8,0.83972625,32.61
2021-07-06 16:26:24.695312500,-32.0,3.0,55.0,58.887890625,-9.030000000000001,0.83952609375,32.61
2021-07-06 16:26:24.703125000,-32.0,3.0,55.0,58.88640625,-9.26,0.8393259375,32.61
2021-07-06 16:26:24.710937500,-32.0,3.0,55.0,58.884921874999996,-9.495000000000001,0.83912578125,32.61
2021-07-06 16:26:24.718750000,-32.0,3.0,55.0,58.8834375,-9.73,0.838925625,32.61
2021-07-06 16:26:24.726562500,-32.0,3.0,55.0,58.881953125,-10.015,0.83872546875,32.61
2021-07-06 16:26:24.734375000,-32.0,3.0,55.0,58.88046875,-10.3,0.8385253125000001,32.61
2021-07-06 16:26:24.742187500,-32.0,3.0,55.0,58.878984375,-10.665,0.83832515625,32.61
2021-07-06 16:26:24.750000000,-32.0,3.0,55.0,58.8775,-11.03,0.838125,32.61
2021-07-06 16:26:24.757812500,-32.0,2.75,55.0,58.876015625,-11.434999999999999,0.8382050625,32.61
2021-07-06 16:26:24.765625000,-32.0,2.5,55.0,58.87453125,-11.84,0.838285125,32.61
2021-07-06 16:26:24.773437500,-32.0,2.25,55.0,58.873046875,-12.254999999999999,0.8383651875,32.61
2021-07-06 16:26:24.781250000,-32.0,2.0,55.0,58.871562499999996,-12.67,0.83844525,32.61
2021-07-06 16:26:24.789062500,-32.0,2.25,55.0,58.870078125,-13.075,0.8385253125,32.61
2021-07-06 16:26:24.796875000,-32.0,2.5,55.0,58.86859375,-13.48,0.838605375,32.61
2021-07-06 16:26:24.804687500,-32.0,2.75,55.0,58.867109375,-13.905000000000001,0.8386854375,32.61
2021-07-06 16:26:24.812500000,-32.0,3.0,55.0,58.865625,-14.33,0.8387655,32.61
2021-07-06 16:26:24.820312500,-32.0,2.75,55.0,58.864140625,-14.795,0.8388455625,32.61
2021-07-06 16:26:24.828125000,-32.0,2.5,55.0,58.86265625,-15.26,0.838925625,32.61
2021-07-06 16:26:24.835937500,-32.0,2.25,55.0,58.861171875,-15.809999999999999,0.8390056875,32.61
2021-07-06 16:26:24.843750000,-32.0,2.0,55.0,58.8596875,-16.36,0.83908575,32.61
2021-07-06 16:26:24.851562500,-32.0,2.25,55.0,58.858203124999996,-16.965,0.8391658125,32.61
2021-07-06 16:26:24.859375000,-32.0,2.5,55.0,58.85671875,-17.57,0.839245875,32.61
2021-07-06 16:26:24.867187500,-32.0,2.75,55.0,58.855234375,-18.21,0.8393259375,32.61
2021-07-06 16:26:24.875000000,-32.0,3.0,55.0,58.85375,-18.85,0.839406,32.61
2021-07-06 16:26:24.882812500,-32.0,3.0,55.0,58.852265625,-19.520000000000003,0.8394860625,32.61
2021-07-06 16:26:24.890625000,-32.0,3.0,55.0,58.85078125,-20.19,0.8395661249999999,32.61
2021-07-06 16:26:24.898437500,-32.0,3.0,55.0,58.849296875,-20.9,0.8396461875,32.61
2021-07-06 16:26:24.906250000,-32.0,3.0,55.0,58.847812499999996,-21.61,0.83972625,32.61
2021-07-06 16:26:24.914062500,-32.0,2.75,55.25,58.846328125,-22.36,0.8398063124999999,32.61
2021-07-06 16:26:24.921875000,-32.0,2.5,55.5,58.844843749999995,-23.11,0.839886375,32.61
2021-07-06 16:26:24.929687500,-32.0,2.25,55.75,58.843359375,-23.825,0.8399664375,32.61
2021-07-06 16:26:24.937500000,-32.0,2.0,56.0,58.841875,-24.54,0.8400464999999999,32.61
2021-07-06 16:26:24.945312500,-32.25,2.25,55.75,58.840390625,-25.064999999999998,0.8401265625,32.61
2021-07-06 16:26:24.953125000,-32.5,2.5,55.5,58.83890625,-25.59,0.840206625,32.61
2021-07-06 16:26:24.960937500,-32.75,2.75,55.25,58.837421875,-25.740000000000002,0.8402866875,32.61
2021-07-06 16:26:24.968750000,-33.0,3.0,55.0,58.8359375,-25.89,0.8403667499999999,32.61
2021-07-06 16:26:24.976562500,-32.75,2.75,55.0,58.834453124999996,-25.53,0.8404468125,32.61
2021-07-06 16:26:24.984375000,-32.5,2.5,55.0,58.83296875,-25.17,0.840526875,32.61
2021-07-06 16:26:24.992187500,-32.25,2.25,55.0,58.831484374999995,-24.265,0.8406069374999999,32.61
2021-07-06 16:26:25.000000000,-32.0,2.0,55.0,58.83,-23.36,0.840687,32.61
2021-07-06 16:26:25.007812500,-32.0,2.25,55.0,58.82875,-22.009999999999998,0.8404868437499999,32.61
2021-07-06 16:26:25.015625000,-32.0,2.5,55.0,58.8275,-20.66,0.8402866874999999,32.61
2021-07-06 16:26:25.023437500,-32.0,2.75,55.0,58.82625,-19.03,0.84008653125,32.61
2021-07-06 16:26:25.031250000,-32.0,3.0,55.0,58.824999999999996,-17.4,0.839886375,32.61
2021-07-06 16:26:25.039062500,-32.0,3.0,55.0,58.82375,-15.64,0.8396862187499999,32.61
2021-07-06 16:26:25.046875000,-32.0,3.0,55.0,58.8225,-13.88,0.8394860625,32.61
2021-07-06 16:26:25.054687500,-32.0,3.0,55.0,58.82125,-12.07,0.83928590625,32.61
2021-07-06 16:26:25.062500000,-32.0,3.0,55.0,58.82,-10.26,0.83908575,32.61
2021-07-06 16:26:25.070312500,-32.0,3.0,55.25,58.81875,-8.425,0.8388855937499999,32.61
2021-07-06 16:26:25.078125000,-32.0,3.0,55.5,58.817499999999995,-6.59,0.8386854374999999,32.61
2021-07-06 16:26:25.085937500,-32.0,3.0,55.75,58.81625,-4.734999999999999,0.83848528125,32.61
2021-07-06 16:26:25.093750000,-32.0,3.0,56.0,58.815,-2.88,0.838285125,32.61
2021-07-06 16:26:25.101562500,-32.0,3.0,55.75,58.81375,-1.035,0.8380849687499999,32.61
2021-07-06 16:26:25.109375000,-32.0,3.0,55.5,58.8125,0.81,0.8378848125,32.61
2021-07-06 16:26:25.117187500,-32.0,3.0,55.25,58.81125,2.59,0.83768465625,32.61
2021-07-06 16:26:25.125000000,-32.0,3.0,55.0,58.81,4.37,0.8374845,32.61
2021-07-06 16:26:25.132812500,-32.0,2.75,55.0,58.808749999999996,6.015000000000001,0.8372843437499999,32.61
2021-07-06 16:26:25.140625000,-32.0,2.5,55.0,58.8075,7.66,0.8370841874999999,32.61
2021-07-06 16:26:25.148437500,-32.0,2.25,55.0,58.80625,9.11,0.83688403125,32.61
2021-07-06 16:26:25.156250000,-32.0,2.0,55.0,58.805,10.56,0.836683875,32.61
2021-07-06 16:26:25.164062500,-32.0,2.25,55.0,58.80375,11.760000000000002,0.8364837187499999,32.61
2021-07-06 16:26:25.171875000,-32.0,2.5,55.0,58.8025,12.96,0.8362835625,32.61
2021-07-06 16:26:25.179687500,-32.0,2.75,55.0,58.801249999999996,13.89,0.83608340625,32.61
2021-07-06 16:26:25.187500000,-32.0,3.0,55.0,58.8,14.82,0.83588325,32.61
2021-07-06 16:26:25.195312500,-32.0,3.0,55.0,58.79875,15.49,0.8356830937499999,32.61
2021-07-06 16:26:25.203125000,-32.0,3.0,55.0,58.7975,16.16,0.8354829374999999,32.61
2021-07-06 16:26:25.210937500,-32.0,3.0,55.0,58.79625,16.605,0.83528278125,32.61
2021-07-06 16:26:25.218750000,-32.0,3.0,55.0,58.795,17.05,0.835082625,32.61
2021-07-06 16:26:25.226562500,-32.0,3.0,55.0,58.793749999999996,17.325000000000003,0.8348824687499999,32.61
2021-07-06 16:26:25.234375000,-32.0,3.0,55.0,58.7925,17.6,0.8346823125,32.61
2021-07-06 16:26:25.242187500,-32.0,3.0,55.0,58.79125,17.755000000000003,0.83448215625,32.61
2021-07-06 16:26:25.250000000,-32.0,3.0,55.0,58.79,17.91,0.834282,32.61
2021-07-06 16:26:25.257812500,-32.0,3.0,55.0,58.78875,17.98,0.83448215625,32.61
2021-07-06 16:26:25.265625000,-32.0,3.0,55.0,58.7875,18.05,0.8346823125,32.61
2021-07-06 16:26:25.273437500,-32.0,3.0,55.0,58.78625,18.045,0.8348824687499999,32.61
2021-07-06 16:26:25.281250000,-32.0,3.0,55.0,58.785,18.04,0.835082625,32.61
2021-07-06 16:26:25.289062500,-32.0,3.0,55.0,58.78375,17.939999999999998,0.83528278125,32.61
2021-07-06 16:26:25.296875000,-32.0,3.0,55.0,58.7825,17.84,0.8354829374999999,32.61
2021-07-06 16:26:25.304687500,-32.0,3.0,55.0,58.78125,17.630000000000003,0.8356830937499999,32.61
2021-07-06 16:26:25.312500000,-32.0,3.0,55.0,58.78,17.42,0.83588325,32.61
2021-07-06 16:26:25.320312500,-32.0,3.0,55.0,58.77875,17.155,0.83608340625,32.61
2021-07-06 16:26:25.328125000,-32.0,3.0,55.0,58.777499999999996,16.89,0.8362835625,32.61
2021-07-06 16:26:25.335937500,-32.0,3.0,55.0,58.77625,16.65,0.8364837187499999,32.61
2021-07-06 16:26:25.343750000,-32.0,3.0,55.0,58.775,16.41,0.836683875,32.61
2021-07-06 16:26:25.351562500,-32.0,3.0,55.0,58.77375,16.28,0.83688403125,32.61
2021-07-06 16:26:25.359375000,-32.0,3.0,55.0,58.7725,16.15,0.8370841874999999,32.61
2021-07-06 16:26:25.367187500,-32.0,3.0,55.0,58.77125,16.174999999999997,0.8372843437499999,32.61
2021-07-06 16:26:25.375000000,-32.0,3.0,55.0,58.769999999999996,16.2,0.8374845,32.61
2021-07-06 16:26:25.382812500,-32.0,3.0,55.0,58.76875,16.33,0.83768465625,32.61
2021-07-06 16:26:25.390625000,-32.0,3.0,55.0,58.7675,16.46,0.8378848125,32.61
2021-07-06 16:26:25.398437500,-32.0,3.0,55.0,58.76625,16.565,0.8380849687499999,32.61
2021-07-06 16:26:25.406250000,-32.0,3.0,55.0,58.765,16.67,0.838285125,32.61
2021-07-06 16:26:25.414062500,-32.0,3.0,55.0,58.76375,16.615000000000002,0.83848528125,32.61
2021-07-06 16:26:25.421875000,-32.0,3.0,55.0,58.7625,16.56,0.8386854374999999,32.61
2021-07-06 16:26:25.429687500,-32.0,3.0,55.0,58.76125,16.265,0.8388855937499999,32.61
2021-07-06 16:26:25.437500000,-32.0,3.0,55.0,58.76,15.97,0.83908575,32.61
2021-07-06 16:26:25.445312500,-32.0,3.0,55.0,58.75875,15.455,0.83928590625,32.61
2021-07-06 16:26:25.453125000,-32.0,3.0,55.0,58.7575,14.94,0.8394860625,32.61
2021-07-06 16:26:25.460937500,-32.0,3.0,55.0,58.75625,14.32,0.8396862187499999,32.61
2021-07-06 16:26:25.468750000,-32.0,3.0,55.0,58.755,13.7,0.839886375,32.61
2021-07-06 16:26:25.476562500,-32.0,3.0,55.0,58.75375,13.11,0.84008653125,32.61
2021-07-06 16:26:25.484375000,-32.0,3.0,55.0,58.7525,12.52,0.8402866874999999,32.61
2021-07-06 16:26:25.492187500,-32.0,3.0,55.0,58.75125,12.055,0.8404868437499999,32.61
2021-07-06 16:26:25.500000000,-32.0,3.0,55.0,58.75,11.59,0.840687,32.61
2021-07-06 16:26:25.507812500,-32.0,2.75,55.0,58.74875,11.26,0.8404468125,32.61
2021-07-06 16:26:25.515625000,-32.0,2.5,55.0,58.7475,10.93,0.840206625,32.61
2021-07-06 16:26:25.523437500,-32.0,2.25,55.0,58.74625,10.655000000000001,0.8399664375,32.61
2021-07-06 16:26:25.531250000,-32.0,2.0,55.0,58.745,10.38,0.83972625,32.61
2021-07-06 16:26:25.539062500,-32.0,2.0,55.0,58.74375,10.045000000000002,0.8394860625,32.61
2021-07-06 16:26:25.546875000,-32.0,2.0,55.0,58.7425,9.71,0.8392458749999999,32.61
2021-07-06 16:26:25.554687500,-32.0,2.0,55.0,58.74125,9.25,0.8390056874999999,32.61
2021-07-06 16:26:25.562500000,-32.0,2.0,55.0,58.74,8.79,0.8387654999999999,32.61
2021-07-06 16:26:25.570312500,-32.0,2.25,55.0,58.73875,8.18,0.8385253125,32.61
2021-07-06 16:26:25.578125000,-32.0,2.5,55.0,58.7375,7.57,0.838285125,32.61
2021-07-06 16:26:25.585937500,-32.0,2.75,55.0,58.73625,6.87,0.8380449375,32.61
2021-07-06 16:26:25.593750000,-32.0,3.0,55.0,58.735,6.17,0.83780475,32.61
2021-07-06 16:26:25.601562500,-32.0,3.0,55.0,58.73375,5.445,0.8375645625,32.61
2021-07-06 16:26:25.609375000,-32.0,3.0,55.0,58.7325,4.72,0.837324375,32.61
2021-07-06 16:26:25.617187500,-32.0,3.0,55.0,58.73125,4.015,0.8370841875,32.61
2021-07-06 16:26:25.625000000,-32.0,3.0,55.0,58.730000000000004,3.31,0.8368439999999999,32.61
2021-07-06 16:26:25.632812500,-32.0,3.0,55.0,58.72875,2.625,0.8366038124999999,32.61
2021-07-06 16:26:25.640625000,-32.0,3.0,55.0,58.7275,1.94,0.8363636249999999,32.61
2021-07-06 16:26:25.648437500,-32.0,3.0,55.0,58.72625,1.265,0.8361234375,32.61
2021-07-06 16:26:25.656250000,-32.0,3.0,55.0,58.725,0.59,0.83588325,32.61
2021-07-06 16:26:25.664062500,-32.0,2.75,55.0,58.72375,-0.1050000000000001,0.8356430625,32.61
2021-07-06 16:26:25.671875000,-32.0,2.5,55.0,58.722500000000004,-0.8,0.835402875,32.61
2021-07-06 16:26:25.679687500,-32.0,2.25,55.0,58.72125,-1.5299999999999998,0.8351626875,32.61
2021-07-06 16:26:25.687500000,-32.0,2.0,55.0,58.72,-2.26,0.8349225,32.61
2021-07-06 16:26:25.695312500,-32.0,2.25,55.0,58.71875,-3.025,0.8346823125,32.61
2021-07-06 16:26:25.703125000,-32.0,2.5,55.0,58.7175,-3.79,0.834442125,32.61
2021-07-06 16:26:25.710937500,-32.0,2.75,55.0,58.71625,-4.5600000000000005,0.8342019374999999,32.61
2021-07-06 16:26:25.718750000,-32.0,3.0,55.0,58.715,-5.33,0.83396175,32.61
2021-07-06 16:26:25.726562500,-32.0,3.0,55.0,58.71375,-6.08,0.8337215625,32.61
2021-07-06 16:26:25.734375000,-32.0,3.0,55.0,58.7125,-6.83,0.833481375,32.61
2021-07-06 16:26:25.742187500,-32.0,3.0,55.0,58.71125,-7.545,0.8332411875,32.61
2021-07-06 16:26:25.750000000,-32.0,3.0,55.0,58.71,-8.26,0.833001,32.61
2021-07-06 16:26:25.757812500,-32.0,2.75,55.0,58.70875,-8.945,0.833161125,32.61
2021-07-06 16:26:25.765625000,-32.0,2.5,55.0,58.7075,-9.63,0.83332125,32.61
2021-07-06 16:26:25.773437500,-32.0,2.25,55.0,58.706250000000004,-10.285,0.833481375,32.61
2021-07-06 16:26:25.781250000,-32.0,2.0,55.0,58.705,-10.94,0.8336415,32.61
2021-07-06 16:26:25.789062500,-32.0,2.0,55.0,58.70375,-11.614999999999998,0.833801625,32.61
2021-07-06 16:26:25.796875000,-32.0,2.0,55.0,58.7025,-12.29,0.83396175,32.61
2021-07-06 16:26:25.804687500,-32.0,2.0,55.0,58.70125,-13.035,0.834121875,32.61
2021-07-06 16:26:25.812500000,-32.0,2.0,55.0,58.7,-13.78,0.834282,32.61
2021-07-06 16:26:25.820312500,-32.0,2.0,55.0,58.698750000000004,-14.665,0.834442125,32.61
2021-07-06 16:26:25.828125000,-32.0,2.0,55.0,58.6975,-15.55,0.83460225,32.61
2021-07-06 16:26:25.835937500,-32.0,2.0,55.0,58.69625,-16.59,0.834762375,32.61
2021-07-06 16:26:25.843750000,-32.0,2.0,55.0,58.695,-17.63,0.8349225,32.61
2021-07-06 16:26:25.851562500,-32.0,2.0,55.0,58.69375,-18.77,0.835082625,32.61
2021-07-06 16:26:25.859375000,-32.0,2.0,55.0,58.6925,-19.91,0.83524275,32.61
2021-07-06 16:26:25.867187500,-32.0,2.0,55.0,58.691250000000004,-21.035,0.835402875,32.61
2021-07-06 16:26:25.875000000,-32.0,2.0,55.0,58.69,-22.16,0.8355630000000001,32.61
2021-07-06 16:26:25.882812500,-32.0,2.25,55.0,58.68875,-23.095,0.835723125,32.61
2021-07-06 16:26:25.890625000,-32.0,2.5,55.0,58.6875,-24.03,0.83588325,32.61
2021-07-06 16:26:25.898437500,-32.0,2.75,55.0,58.68625,-24.615000000000002,0.836043375,32.61
2021-07-06 16:26:25.906250000,-32.0,3.0,55.0,58.685,-25.2,0.8362035,32.61
2021-07-06 16:26:25.914062500,-32.0,2.75,55.25,58.68375,-25.33,0.836363625,32.61
2021-07-06 16:26:25.921875000,-32.0,2.5,55.5,58.682500000000005,-25.46,0.83652375,32.61
2021-07-06 16:26:25.929687500,-32.0,2.25,55.75,58.68125,-25.11,0.836683875,32.61
2021-07-06 16:26:25.937500000,-32.0,2.0,56.0,58.68,-24.76,0.836844,32.61
2021-07-06 16:26:25.945312500,-32.0,2.25,55.75,58.67875,-23.975,0.837004125,32.61
2021-07-06 16:26:25.953125000,-32.0,2.5,55.5,58.6775,-23.19,0.83716425,32.61
2021-07-06 16:26:25.960937500,-32.0,2.75,55.25,58.67625,-22.020000000000003,0.837324375,32.61
2021-07-06 16:26:25.968750000,-32.0,3.0,55.0,58.675000000000004,-20.85,0.8374845,32.61
2021-07-06 16:26:25.976562500,-32.0,3.0,55.0,58.67375,-19.365000000000002,0.837644625,32.61
2021-07-06 16:26:25.984375000,-32.0,3.0,55.0,58.6725,-17.88,0.83780475,32.61
2021-07-06 16:26:25.992187500,-32.0,3.0,55.0,58.67125,-16.125,0.837964875,32.61
2021-07-06 16:26:26.000000000,-32.0,3.0,55.0,58.67,-14.37,0.838125,32.61
2021-07-06 16:26:26.007812500,-32.0,3.0,55.0,58.66890625,-12.399999999999999,0.837964875,32.609375
2021-07-06 16:26:26.015625000,-32.0,3.0,55.0,58.667812500000004,-10.43,0.83780475,32.60875
2021-07-06 16:26:26.023437500,-32.0,3.0,55.0,58.66671875,-8.335,0.837644625,32.608125
2021-07-06 16:26:26.031250000,-32.0,3.0,55.0,58.665625,-6.24,0.8374845,32.6075
2021-07-06 16:26:26.039062500,-32.0,3.0,55.0,58.66453125,-4.13,0.837324375,32.606875
2021-07-06 16:26:26.046875000,-32.0,3.0,55.0,58.6634375,-2.02,0.83716425,32.60625
2021-07-06 16:26:26.054687500,-32.0,3.0,55.0,58.662343750000005,-0.015000000000000124,0.837004125,32.605625
2021-07-06 16:26:26.062500000,-32.0,3.0,55.0,58.66125,1.99,0.836844,32.605000000000004
2021-07-06 16:26:26.070312500,-32.0,3.0,55.0,58.66015625,3.8200000000000003,0.836683875,32.604375
2021-07-06 16:26:26.078125000,-32.0,3.0,55.0,58.659062500000005,5.65,0.83652375,32.60375
2021-07-06 16:26:26.085937500,-32.0,3.0,55.0,58.65796875,7.3,0.836363625,32.603125
2021-07-06 16:26:26.093750000,-32.0,3.0,55.0,58.656875,8.95,0.8362035,32.6025
2021-07-06 16:26:26.101562500,-32.0,2.75,55.25,58.655781250000004,10.434999999999999,0.836043375,32.601875
2021-07-06 16:26:26.109375000,-32.0,2.5,55.5,58.6546875,11.92,0.83588325,32.60125
2021-07-06 16:26:26.117187500,-32.0,2.25,55.75,58.65359375,13.285,0.835723125,32.600625
2021-07-06 16:26:26.125000000,-32.0,2.0,56.0,58.6525,14.65,0.8355630000000001,32.6
2021-07-06 16:26:26.132812500,-32.25,2.25,55.75,58.65140625,15.870000000000001,0.835402875,32.599375
2021-07-06 16:26:26.140625000,-32.5,2.5,55.5,58.6503125,17.09,0.83524275,32.59875
2021-07-06 16:26:26.148437500,-32.75,2.75,55.25,58.64921875,18.11,0.835082625,32.598125
2021-07-06 16:26:26.156250000,-33.0,3.0,55.0,58.648125,19.13,0.8349225,32.597500000000004
2021-07-06 16:26:26.164062500,-32.75,3.0,55.0,58.647031250000005,19.875,0.834762375,32.596875000000004
2021-07-06 16:26:26.171875000,-32.5,3.0,55.0,58.6459375,20.62,0.83460225,32.596250000000005
2021-07-06 16:26:26.179687500,-32.25,3.0,55.0,58.64484375,21.04,0.834442125,32.595625000000005
2021-07-06 16:26:26.187500000,-32.0,3.0,55.0,58.643750000000004,21.46,0.834282,32.595
2021-07-06 16:26:26.195312500,-32.0,2.75,55.0,58.64265625,21.59,0.834121875,32.594375
2021-07-06 16:26:26.203125000,-32.0,2.5,55.0,58.6415625,21.72,0.83396175,32.59375
2021-07-06 16:26:26.210937500,-32.0,2.25,55.0,58.640468750000004,21.64,0.833801625,32.593125
2021-07-06 16:26:26.218750000,-32.0,2.0,55.0,58.639375,21.56,0.8336415,32.5925
2021-07-06 16:26:26.226562500,-32.0,2.25,55.0,58.63828125,21.354999999999997,0.833481375,32.591875
2021-07-06 16:26:26.234375000,-32.0,2.5,55.0,58.6371875,21.15,0.83332125,32.59125
2021-07-06 16:26:26.242187500,-32.0,2.75,55.0,58.63609375,20.9,0.833161125,32.590625
2021-07-06 16:26:26.250000000,-32.0,3.0,55.0,58.635000000000005,20.65,0.833001,32.59
2021-07-06 16:26:26.257812500,-32.0,3.0,55.0,58.63390625,20.35,0.8330810625,32.59
2021-07-06 16:26:26.265625000,-32.0,3.0,55.0,58.6328125,20.05,0.833161125,32.59
2021-07-06 16:26:26.273437500,-32.0,3.0,55.0,58.631718750000005,19.705,0.8332411875,32.59
2021-07-06 16:26:26.281250000,-32.0,3.0,55.0,58.630625,19.36,0.83332125,32.59
2021-07-06 16:26:26.289062500,-32.0,3.0,55.0,58.62953125,18.95,0.8334013124999999,32.59
2021-07-06 16:26:26.296875000,-32.0,3.0,55.0,58.628437500000004,18.54,0.833481375,32.59
2021-07-06 16:26:26.304687500,-32.0,3.0,55.0,58.62734375,18.095,0.8335614375,32.59
2021-07-06 16:26:26.312500000,-32.0,3.0,55.0,58.62625,17.65,0.8336414999999999,32.59
2021-07-06 16:26:26.320312500,-32.0,3.0,55.0,58.62515625,17.24,0.8337215625,32.59
2021-07-06 16:26:26.328125000,-32.0,3.0,55.0,58.6240625,16.83,0.833801625,32.59
2021-07-06 16:26:26.335937500,-32.0,3.0,55.0,58.62296875,16.5,0.8338816875,32.59
2021-07-06 16:26:26.343750000,-32.0,3.0,55.0,58.621875,16.17,0.83396175,32.59
2021-07-06 16:26:26.351562500,-32.0,2.75,55.0,58.62078125,15.950000000000001,0.8340418125,32.59
2021-07-06 16:26:26.359375000,-32.0,2.5,55.0,58.619687500000005,15.73,0.834121875,32.59
2021-07-06 16:26:26.367187500,-32.0,2.25,55.0,58.61859375,15.57,0.8342019374999999,32.59
2021-07-06 16:26:26.375000000,-32.0,2.0,55.0,58.6175,15.41,0.834282,32.59
2021-07-06 16:26:26.382812500,-32.0,2.25,55.0,58.616406250000004,15.219999999999999,0.8343620625,32.59
2021-07-06 16:26:26.390625000,-32.0,2.5,55.0,58.6153125,15.03,0.8344421249999999,32.59
2021-07-06 16:26:26.398437500,-32.0,2.75,55.0,58.61421875,14.715,0.8345221875,32.59
2021-07-06 16:26:26.406250000,-32.0,3.0,55.0,58.613125000000004,14.4,0.83460225,32.59
2021-07-06 16:26:26.414062500,-32.0,3.0,55.0,58.61203125,13.925,0.8346823124999999,32.59
2021-07-06 16:26:26.421875000,-32.0,3.0,55.0,58.6109375,13.45,0.834762375,32.59
2021-07-06 16:26:26.429687500,-32.0,3.0,55.0,58.60984375,12.855,0.8348424375,32.59
2021-07-06 16:26:26.437500000,-32.0,3.0,55.0,58.60875,12.26,0.8349225,32.59
2021-07-06 16:26:26.445312500,-32.0,3.0,55.0,58.60765625,11.629999999999999,0.8350025624999999,32.59
2021-07-06 16:26:26.453125000,-32.0,3.0,55.0,58.6065625,11.0,0.835082625,32.59
2021-07-06 16:26:26.460937500,-32.0,3.0,55.0,58.60546875,10.4,0.8351626875,32.59
2021-07-06 16:26:26.468750000,-32.0,3.0,55.0,58.604375000000005,9.8,0.8352427499999999,32.59
2021-07-06 16:26:26.476562500,-32.0,3.0,55.0,58.60328125,9.25,0.8353228125,32.59
2021-07-06 16:26:26.484375000,-32.0,3.0,55.0,58.6021875,8.7,0.835402875,32.59
2021-07-06 16:26:26.492187500,-32.0,3.0,55.0,58.601093750000004,8.165,0.8354829374999999,32.59
2021-07-06 16:26:26.500000000,-32.0,3.0,55.0,58.6,7.63,0.835563,32.59
2021-07-06 16:26:26.507812500,-32.0,3.0,55.0,58.59890625,7.04,0.8354829374999999,32.59
2021-07-06 16:26:26.515625000,-32.0,3.0,55.0,58.5978125,6.45,0.835402875,32.59
2021-07-06 16:26:26.523437500,-32.0,3.0,55.0,58.59671875,5.755,0.8353228125,32.59
2021-07-06 16:26:26.531250000,-32.0,3.0,55.0,58.595625,5.06,0.8352427499999999,32.59
2021-07-06 16:26:26.539062500,-32.25,3.0,55.0,58.59453125,4.29,0.8351626875,32.59
2021-07-06 16:26:26.546875000,-32.5,3.0,55.0,58.5934375,3.52,0.835082625,32.59
2021-07-06 16:26:26.554687500,-32.75,3.0,55.0,58.592343750000005,2.75,0.8350025624999999,32.59
2021-07-06 16:26:26.562500000,-33.0,3.0,55.0,58.59125,1.98,0.8349225,32.59
2021-07-06 16:26:26.570312500,-32.75,3.0,55.0,58.59015625,1.31,0.8348424375,32.59
2021-07-06 16:26:26.578125000,-32.5,3.0,55.0,58.589062500000004,0.64,0.834762375,32.59
2021-07-06 16:26:26.585937500,-32.25,3.0,55.0,58.58796875,0.12,0.8346823124999999,32.59
2021-07-06 16:26:26.593750000,-32.0,3.0,55.0,58.586875,-0.4,0.83460225,32.59
2021-07-06 16:26:26.601562500,-32.0,3.0,55.0,58.585781250000004,-0.7649999999999999,0.8345221875,32.59
2021-07-06 16:26:26.609375000,-32.0,3.0,55.0,58.5846875,-1.13,0.8344421249999999,32.59
2021-07-06 16:26:26.617187500,-32.0,3.0,55.0,58.58359375,-1.4049999999999998,0.8343620625,32.59
2021-07-06 16:26:26.625000000,-32.0,3.0,55.0,58.5825,-1.68,0.834282,32.59
2021-07-06 16:26:26.632812500,-32.0,3.0,55.0,58.58140625,-1.9699999999999998,0.8342019374999999,32.59
2021-07-06 16:26:26.640625000,-32.0,3.0,55.0,58.5803125,-2.26,0.834121875,32.59
2021-07-06 16:26:26.648437500,-32.0,3.0,55.0,58.57921875,-2.6449999999999996,0.8340418125,32.59
2021-07-06 16:26:26.656250000,-32.0,3.0,55.0,58.578125,-3.03,0.83396175,32.59
2021-07-06 16:26:26.664062500,-32.0,3.0,55.0,58.577031250000005,-3.575,0.8338816875,32.59
2021-07-06 16:26:26.671875000,-32.0,3.0,55.0,58.5759375,-4.12,0.833801625,32.59
2021-07-06 16:26:26.679687500,-32.0,3.0,55.0,58.57484375,-4.83,0.8337215625,32.59
2021-07-06 16:26:26.687500000,-32.0,3.0,55.0,58.573750000000004,-5.54,0.8336414999999999,32.59
2021-07-06 16:26:26.695312500,-32.0,3.0,55.0,58.57265625,-6.375,0.8335614375,32.59
2021-07-06 16:26:26.703125000,-32.0,3.0,55.0,58.5715625,-7.21,0.833481375,32.59
2021-07-06 16:26:26.710937500,-32.0,3.0,55.0,58.57046875,-8.105,0.8334013124999999,32.59
2021-07-06 16:26:26.718750000,-32.0,3.0,55.0,58.569375,-9.0,0.83332125,32.59
2021-07-06 16:26:26.726562500,-32.0,3.0,55.0,58.56828125,-9.875,0.8332411875,32.59
2021-07-06 16:26:26.734375000,-32.0,3.0,55.0,58.5671875,-10.75,0.833161125,32.59
2021-07-06 16:26:26.742187500,-32.0,3.0,55.0,58.56609375,-11.525,0.8330810625,32.59
2021-07-06 16:26:26.750000000,-32.0,3.0,55.0,58.565,-12.3,0.833001,32.59
2021-07-06 16:26:26.757812500,-32.0,2.75,55.0,58.56390625,-12.95,0.8330810625,32.59
2021-07-06 16:26:26.765625000,-32.0,2.5,55.0,58.5628125,-13.6,0.833161125,32.59
2021-07-06 16:26:26.773437500,-32.0,2.25,55.0,58.561718750000004,-14.135,0.8332411875,32.59
2021-07-06 16:26:26.781250000,-32.0,2.0,55.0,58.560625,-14.67,0.83332125,32.59
2021-07-06 16:26:26.789062500,-32.25,2.25,55.0,58.55953125,-15.145,0.8334013124999999,32.59
2021-07-06 16:26:26.796875000,-32.5,2.5,55.0,58.558437500000004,-15.62,0.833481375,32.59
2021-07-06 16:26:26.804687500,-32.75,2.75,55.0,58.55734375,-16.12,0.8335614375,32.59
2021-07-06 16:26:26.812500000,-33.0,3.0,55.0,58.55625,-16.62,0.8336414999999999,32.59
2021-07-06 16:26:26.820312500,-32.75,3.0,55.0,58.55515625,-17.215,0.8337215625,32.59
2021-07-06 16:26:26.828125000,-32.5,3.0,55.0,58.5540625,-17.81,0.833801625,32.59
2021-07-06 16:26:26.835937500,-32.25,3.0,55.0,58.55296875,-18.56,0.8338816875,32.59
2021-07-06 16:26:26.843750000,-32.0,3.0,55.0,58.551875,-19.31,0.83396175,32.59
2021-07-06 16:26:26.851562500,-32.0,2.75,55.0,58.55078125,-20.259999999999998,0.8340418125,32.59
2021-07-06 16:26:26.859375000,-32.0,2.5,55.0,58.549687500000005,-21.21,0.834121875,32.59
2021-07-06 16:26:26.867187500,-32.0,2.25,55.0,58.54859375,-22.380000000000003,0.8342019374999999,32.59
2021-07-06 16:26:26.875000000,-32.0,2.0,55.0,58.5475,-23.55,0.834282,32.59
2021-07-06 16:26:26.882812500,-32.0,2.25,55.0,58.546406250000004,-24.9,0.8343620625,32.59
2021-07-06 16:26:26.890625000,-32.0,2.5,55.0,58.5453125,-26.25,0.8344421249999999,32.59
2021-07-06 16:26:26.898437500,-32.0,2.75,55.0,58.54421875,-27.695,0.8345221875,32.59
2021-07-06 16:26:26.906250000,-32.0,3.0,55.0,58.543125,-29.14,0.83460225,32.59
2021-07-06 16:26:26.914062500,-32.0,3.0,55.0,58.54203125,-30.5,0.8346823124999999,32.59
2021-07-06 16:26:26.921875000,-32.0,3.0,55.0,58.5409375,-31.86,0.834762375,32.59
2021-07-06 16:26:26.929687500,-32.0,3.0,55.0,58.53984375,-32.894999999999996,0.8348424375,32.59
2021-07-06 16:26:26.937500000,-32.0,3.0,55.0,58.53875,-33.93,0.8349225,32.59
2021-07-06 16:26:26.945312500,-32.0,2.75,55.0,58.53765625,-34.405,0.8350025624999999,32.59
2021-07-06 16:26:26.953125000,-32.0,2.5,55.0,58.5365625,-34.88,0.835082625,32.59
2021-07-06 16:26:26.960937500,-32.0,2.25,55.0,58.53546875,-34.63,0.8351626875,32.59
2021-07-06 16:26:26.968750000,-32.0,2.0,55.0,58.534375000000004,-34.38,0.8352427499999999,32.59
2021-07-06 16:26:26.976562500,-32.0,2.0,55.0,58.53328125,-33.38,0.8353228125,32.59
2021-07-06 16:26:26.984375000,-32.0,2.0,55.0,58.5321875,-32.38,0.835402875,32.59
2021-07-06 16:26:26.992187500,-32.0,2.0,55.0,58.531093750000004,-30.745,0.8354829374999999,32.59
2021-07-06 16:26:27.000000000,-32.0,2.0,55.0,58.53,-29.11,0.835563,32.59
2021-07-06 16:26:27.007812500,-32.0,2.0,55.0,58.52953125,-27.064999999999998,0.835563,32.590625
2021-07-06 16:26:27.015625000,-32.0,2.0,55.0,58.5290625,-25.02,0.835563,32.59125
2021-07-06 16:26:27.023437500,-32.0,2.0,55.0,58.52859375,-22.805,0.835563,32.591875
2021-07-06 16:26:27.031250000,-32.0,2.0,55.0,58.528125,-20.59,0.835563,32.5925
2021-07-06 16:26:27.039062500,-32.25,2.0,55.0,58.52765625,-18.41,0.835563,32.593125
2021-07-06 16:26:27.046875000,-32.5,2.0,55.0,58.527187500000004,-16.23,0.835563,32.59375
2021-07-06 16:26:27.054687500,-32.75,2.0,55.0,58.52671875,-14.18,0.835563,32.594375
2021-07-06 16:26:27.062500000,-33.0,2.0,55.0,58.526250000000005,-12.13,0.835563,32.595
2021-07-06 16:26:27.070312500,-32.75,2.0,55.0,58.52578125,-10.225000000000001,0.835563,32.595625000000005
2021-07-06 16:26:27.078125000,-32.5,2.0,55.0,58.5253125,-8.32,0.835563,32.596250000000005
2021-07-06 16:26:27.085937500,-32.25,2.0,55.0,58.52484375,-6.5,0.835563,32.596875000000004
2021-07-06 16:26:27.093750000,-32.0,2.0,55.0,58.524375,-4.68,0.835563,32.597500000000004
2021-07-06 16:26:27.101562500,-32.0,2.0,55.0,58.52390625,-2.875,0.835563,32.598125
2021-07-06 16:26:27.109375000,-32.0,2.0,55.0,58.5234375,-1.07,0.835563,32.59875
2021-07-06 16:26:27.117187500,-32.0,2.0,55.0,58.522968750000004,0.7499999999999998,0.835563,32.599375
2021-07-06 16:26:27.125000000,-32.0,2.0,55.0,58.5225,2.57,0.835563,32.6
2021-07-06 16:26:27.132812500,-32.0,2.25,55.0,58.52203125,4.375,0.835563,32.600625
2021-07-06 16:26:27.140625000,-32.0,2.5,55.0,58.5215625,6.18,0.835563,32.60125
2021-07-06 16:26:27.148437500,-32.0,2.75,55.0,58.52109375,7.88,0.835563,32.601875
2021-07-06 16:26:27.156250000,-32.0,3.0,55.0,58.520625,9.58,0.835563,32.6025
2021-07-06 16:26:27.164062500,-32.0,2.75,55.0,58.52015625,11.075,0.835563,32.603125
2021-07-06 16:26:27.171875000,-32.0,2.5,55.0,58.5196875,12.57,0.835563,32.60375
2021-07-06 16:26:27.179687500,-32.0,2.25,55.0,58.51921875,13.795,0.835563,32.604375
2021-07-06 16:26:27.187500000,-32.0,2.0,55.0,58.51875,15.02,0.835563,32.605000000000004
2021-07-06 16:26:27.195312500,-32.0,2.0,55.0,58.51828125,15.95,0.835563,32.605625
2021-07-06 16:26:27.203125000,-32.0,2.0,55.0,58.5178125,16.88,0.835563,32.60625
2021-07-06 16:26:27.210937500,-32.0,2.0,55.0,58.51734375,17.525,0.835563,32.606875
2021-07-06 16:26:27.218750000,-32.0,2.0,55.0,58.516875,18.17,0.835563,32.6075
2021-07-06 16:26:27.226562500,-32.0,2.25,55.0,58.51640625,18.560000000000002,0.835563,32.608125
2021-07-06 16:26:27.234375000,-32.0,2.5,55.0,58.5159375,18.95,0.835563,32.60875
2021-07-06 16:26:27.242187500,-32.0,2.75,55.0,58.515468750000004,19.1,0.835563,32.609375
2021-07-06 16:26:27.250000000,-32.0,3.0,55.0,58.515,19.25,0.835563,32.61
2021-07-06 16:26:27.257812500,-32.0,2.75,55.0,58.51453125,19.18,0.8353628437499999,32.61
2021-07-06 16:26:27.265625000,-32.0,2.5,55.0,58.5140625,19.11,0.8351626875,32.61
2021-07-06 16:26:27.273437500,-32.0,2.25,55.0,58.51359375,18.855,0.83496253125,32.61
2021-07-06 16:26:27.281250000,-32.0,2.0,55.0,58.513125,18.6,0.834762375,32.61
2021-07-06 16:26:27.289062500,-32.25,2.25,55.0,58.51265625,18.225,0.8345622187499999,32.61
2021-07-06 16:26:27.296875000,-32.5,2.5,55.0,58.5121875,17.85,0.8343620624999999,32.61
2021-07-06 16:26:27.304687500,-32.75,2.75,55.0,58.51171875,17.445,0.83416190625,32.61
2021-07-06 16:26:27.312500000,-33.0,3.0,55.0,58.511250000000004,17.04,0.83396175,32.61
2021-07-06 16:26:27.320312500,-32.75,3.0,55.0,58.51078125,16.674999999999997,0.8337615937499999,32.61
2021-07-06 16:26:27.328125000,-32.5,3.0,55.0,58.5103125,16.31,0.8335614375,32.61
2021-07-06 16:26:27.335937500,-32.25,3.0,55.0,58.50984375,16.035,0.83336128125,32.61
2021-07-06 16:26:27.343750000,-32.0,3.0,55.0,58.509375,15.76,0.833161125,32.61
2021-07-06 16:26:27.351562500,-32.0,3.0,55.0,58.50890625,15.57,0.8329609687499999,32.61
2021-07-06 16:26:27.359375000,-32.0,3.0,55.0,58.5084375,15.38,0.8327608124999999,32.61
2021-07-06 16:26:27.367187500,-32.0,3.0,55.0,58.50796875,15.255,0.83256065625,32.61
2021-07-06 16:26:27.375000000,-32.0,3.0,55.0,58.5075,15.13,0.8323605,32.61
2021-07-06 16:26:27.382812500,-32.25,3.0,55.0,58.50703125,15.045000000000002,0.8321603437499999,32.61
2021-07-06 16:26:27.390625000,-32.5,3.0,55.0,58.5065625,14.96,0.8319601875,32.61
2021-07-06 16:26:27.398437500,-32.75,3.0,55.0,58.50609375,14.885000000000002,0.83176003125,32.61
2021-07-06 16:26:27.406250000,-33.0,3.0,55.0,58.505625,14.81,0.831559875,32.61
2021-07-06 16:26:27.414062500,-32.75,3.0,55.0,58.50515625,14.705,0.8313597187499999,32.61
2021-07-06 16:26:27.421875000,-32.5,3.0,55.0,58.5046875,14.6,0.8311595624999999,32.61
2021-07-06 16:26:27.429687500,-32.25,3.0,55.0,58.50421875,14.42,0.83095940625,32.61
2021-07-06 16:26:27.437500000,-32.0,3.0,55.0,58.50375,14.24,0.83075925,32.61
2021-07-06 16:26:27.445312500,-32.0,3.0,55.0,58.50328125,13.955,0.8305590937499999,32.61
2021-07-06 16:26:27.453125000,-32.0,3.0,55.0,58.5028125,13.67,0.8303589375,32.61
2021-07-06 16:26:27.460937500,-32.0,3.0,55.0,58.50234375,13.285,0.83015878125,32.61
2021-07-06 16:26:27.468750000,-32.0,3.0,55.0,58.501875,12.9,0.829958625,32.61
2021-07-06 16:26:27.476562500,-32.0,3.0,55.0,58.50140625,12.445,0.8297584687499999,32.61
2021-07-06 16:26:27.484375000,-32.0,3.0,55.0,58.5009375,11.99,0.8295583124999999,32.61
2021-07-06 16:26:27.492187500,-32.0,3.0,55.0,58.50046875,11.525,0.82935815625,32.61
2021-07-06 16:26:27.500000000,-32.0,3.0,55.0,58.5,11.06,0.829158,32.61
2021-07-06 16:26:27.507812500,-32.0,2.75,55.0,58.49953125,10.605,0.82927809375,32.61
2021-07-06 16:26:27.515625000,-32.0,2.5,55.0,58.4990625,10.15,0.8293981874999999,32.61
2021-07-06 16:26:27.523437500,-32.0,2.25,55.0,58.49859375,9.695,0.8295182812499999,32.61
2021-07-06 16:26:27.531250000,-32.0,2.0,55.0,58.498125,9.24,0.8296383749999999,32.61
2021-07-06 16:26:27.539062500,-32.0,2.0,55.0,58.49765625,8.74,0.8297584687499999,32.61
2021-07-06 16:26:27.546875000,-32.0,2.0,55.0,58.4971875,8.24,0.8298785624999999,32.61
2021-07-06 16:26:27.554687500,-32.0,2.0,55.0,58.49671875,7.65,0.8299986562499999,32.61
2021-07-06 16:26:27.562500000,-32.0,2.0,55.0,58.49625,7.06,0.83011875,32.61
2021-07-06 16:26:27.570312500,-32.0,2.0,55.0,58.49578125,6.375,0.83023884375,32.61
2021-07-06 16:26:27.578125000,-32.0,2.0,55.0,58.4953125,5.69,0.8303589375,32.61
2021-07-06 16:26:27.585937500,-32.0,2.0,55.0,58.49484375,4.9350000000000005,0.83047903125,32.61
2021-07-06 16:26:27.593750000,-32.0,2.0,55.0,58.494375,4.18,0.830599125,32.61
2021-07-06 16:26:27.601562500,-32.0,2.0,55.0,58.49390625,3.41,0.83071921875,32.61
2021-07-06 16:26:27.609375000,-32.0,2.0,55.0,58.4934375,2.64,0.8308393125,32.61
2021-07-06 16:26:27.617187500,-32.0,2.0,55.0,58.49296875,1.86,0.83095940625,32.61
2021-07-06 16:26:27.625000000,-32.0,2.0,55.0,58.4925,1.08,0.8310795,32.61
2021-07-06 16:26:27.632812500,-32.0,2.25,55.0,58.49203125,0.29500000000000004,0.83119959375,32.61
2021-07-06 16:26:27.640625000,-32.0,2.5,55.0,58.4915625,-0.49,0.8313196875,32.61
2021-07-06 16:26:27.648437500,-32.0,2.75,55.0,58.49109375,-1.2999999999999998,0.83143978125,32.61
2021-07-06 16:26:27.656250000,-32.0,3.0,55.0,58.490625,-2.11,0.831559875,32.61
2021-07-06 16:26:27.664062500,-32.0,2.75,55.0,58.49015625,-2.94,0.8316799687499999,32.61
2021-07-06 16:26:27.671875000,-32.0,2.5,55.0,58.4896875,-3.77,0.8318000624999999,32.61
2021-07-06 16:26:27.679687500,-32.0,2.25,55.0,58.48921875,-4.55,0.8319201562499999,32.61
2021-07-06 16:26:27.687500000,-32.0,2.0,55.0,58.488749999999996,-5.33,0.8320402499999999,32.61
2021-07-06 16:26:27.695312500,-32.0,2.25,55.0,58.48828125,-6.005,0.83216034375,32.61
2021-07-06 16:26:27.703125000,-32.0,2.5,55.0,58.4878125,-6.68,0.8322804375,32.61
2021-07-06 16:26:27.710937500,-32.0,2.75,55.0,58.48734375,-7.1899999999999995,0.83240053125,32.61
2021-07-06 16:26:27.718750000,-32.0,3.0,55.0,58.486875,-7.7,0.832520625,32.61
2021-07-06 16:26:27.726562500,-32.0,3.0,55.0,58.48640625,-8.075,0.83264071875,32.61
2021-07-06 16:26:27.734375000,-32.0,3.0,55.0,58.4859375,-8.45,0.8327608125,32.61
2021-07-06 16:26:27.742187500,-32.0,3.0,55.0,58.48546875,-8.76,0.83288090625,32.61
2021-07-06 16:26:27.750000000,-32.0,3.0,55.0,58.485,-9.07,0.833001,32.61
2021-07-06 16:26:27.757812500,-32.0,3.0,55.0,58.484531249999996,-9.440000000000001,0.83288090625,32.61
2021-07-06 16:26:27.765625000,-32.0,3.0,55.0,58.4840625,-9.81,0.8327608125,32.61
2021-07-06 16:26:27.773437500,-32.0,3.0,55.0,58.48359375,-10.335,0.83264071875,32.61
2021-07-06 16:26:27.781250000,-32.0,3.0,55.0,58.483125,-10.86,0.832520625,32.61
2021-07-06 16:26:27.789062500,-32.0,3.0,55.0,58.48265625,-11.61,0.83240053125,32.61
2021-07-06 16:26:27.796875000,-32.0,3.0,55.0,58.4821875,-12.36,0.8322804375,32.61
2021-07-06 16:26:27.804687500,-32.0,3.0,55.0,58.48171875,-13.325,0.83216034375,32.61
2021-07-06 16:26:27.812500000,-32.0,3.0,55.0,58.48125,-14.29,0.8320402499999999,32.61
2021-07-06 16:26:27.820312500,-32.0,2.75,55.0,58.48078125,-15.389999999999999,0.8319201562499999,32.61
2021-07-06 16:26:27.828125000,-32.0,2.5,55.0,58.4803125,-16.49,0.8318000624999999,32.61
2021-07-06 16:26:27.835937500,-32.0,2.25,55.0,58.47984375,-17.6,0.8316799687499999,32.61
2021-07-06 16:26:27.843750000,-32.0,2.0,55.0,58.479375,-18.71,0.831559875,32.61
2021-07-06 16:26:27.851562500,-32.0,2.0,55.0,58.47890625,-19.72,0.83143978125,32.61
2021-07-06 16:26:27.859375000,-32.0,2.0,55.0,58.4784375,-20.73,0.8313196875,32.61
2021-07-06 16:26:27.867187500,-32.0,2.0,55.0,58.47796875,-21.560000000000002,0.83119959375,32.61
2021-07-06 16:26:27.875000000,-32.0,2.0,55.0,58.4775,-22.39,0.8310795,32.61
2021-07-06 16:26:27.882812500,-32.0,2.25,55.0,58.477031249999996,-23.035,0.83095940625,32.61
2021-07-06 16:26:27.890625000,-32.0,2.5,55.0,58.4765625,-23.68,0.8308393125,32.61
2021-07-06 16:26:27.898437500,-32.0,2.75,55.0,58.47609375,-24.240000000000002,0.83071921875,32.61
2021-07-06 16:26:27.906250000,-32.0,3.0,55.0,58.475625,-24.8,0.830599125,32.61
2021-07-06 16:26:27.914062500,-32.0,3.0,55.0,58.47515625,-25.395,0.83047903125,32.61
2021-07-06 16:26:27.921875000,-32.0,3.0,55.0,58.4746875,-25.99,0.8303589375,32.61
2021-07-06 16:26:27.929687500,-32.0,3.0,55.0,58.47421875,-26.735,0.83023884375,32.61
2021-07-06 16:26:27.937500000,-32.0,3.0,55.0,58.473749999999995,-27.48,0.83011875,32.61
2021-07-06 16:26:27.945312500,-32.0,3.0,55.0,58.47328125,-28.435000000000002,0.8299986562499999,32.61
2021-07-06 16:26:27.953125000,-32.0,3.0,55.0,58.472812499999996,-29.39,0.8298785624999999,32.61
2021-07-06 16:26:27.960937500,-32.0,3.0,55.0,58.47234375,-30.509999999999998,0.8297584687499999,32.61
2021-07-06 16:26:27.968750000,-32.0,3.0,55.0,58.471875,-31.63,0.8296383749999999,32.61
2021-07-06 16:26:27.976562500,-32.0,3.0,55.0,58.47140625,-32.81,0.8295182812499999,32.61
2021-07-06 16:26:27.984375000,-32.0,3.0,55.0,58.4709375,-33.99,0.8293981874999999,32.61
2021-07-06 16:26:27.992187500,-32.0,3.0,55.0,58.47046875,-35.055,0.82927809375,32.61
2021-07-06 16:26:28.000000000,-32.0,3.0,55.0,58.47,-36.12,0.829158,32.61
2021-07-06 16:26:28.007812500,-32.0,3.0,55.0,58.4696875,-36.9,0.8293181249999999,32.609375
2021-07-06 16:26:28.015625000,-32.0,3.0,55.0,58.469375,-37.68,0.82947825,32.60875
2021-07-06 16:26:28.023437500,-32.0,3.0,55.0,58.4690625,-38.0,0.8296383749999999,32.608125
2021-07-06 16:26:28.031250000,-32.0,3.0,55.0,58.46875,-38.32,0.8297985,32.6075
2021-07-06 16:26:28.039062500,-32.0,3.0,55.0,58.4684375,-38.055,0.829958625,32.606875
2021-07-06 16:26:28.046875000,-32.0,3.0,55.0,58.468125,-37.79,0.8301187499999999,32.60625
2021-07-06 16:26:28.054687500,-32.0,3.0,55.0,58.4678125,-36.864999999999995,0.830278875,32.605625
2021-07-06 16:26:28.062500000,-32.0,3.0,55.0,58.4675,-35.94,0.8304389999999999,32.605000000000004
2021-07-06 16:26:28.070312500,-32.0,3.0,55.0,58.4671875,-34.385,0.830599125,32.604375
2021-07-06 16:26:28.078125000,-32.0,3.0,55.0,58.466875,-32.83,0.83075925,32.60375
2021-07-06 16:26:28.085937500,-32.0,3.0,55.0,58.4665625,-30.79,0.8309193749999999,32.603125
2021-07-06 16:26:28.093750000,-32.0,3.0,55.0,58.46625,-28.75,0.8310795,32.6025
2021-07-06 16:26:28.101562500,-32.0,3.0,55.0,58.465937499999995,-26.43,0.8312396249999999,32.601875
2021-07-06 16:26:28.109375000,-32.0,3.0,55.0,58.465624999999996,-24.11,0.83139975,32.60125
2021-07-06 16:26:28.117187500,-32.0,3.0,55.0,58.465312499999996,-21.740000000000002,0.831559875,32.600625
2021-07-06 16:26:28.125000000,-32.0,3.0,55.0,58.464999999999996,-19.37,0.83172,32.6
2021-07-06 16:26:28.132812500,-32.0,3.0,55.0,58.4646875,-17.085,0.831880125,32.599375
2021-07-06 16:26:28.140625000,-32.0,3.0,55.0,58.464375,-14.8,0.8320402499999999,32.59875
2021-07-06 16:26:28.148437500,-32.0,3.0,55.0,58.4640625,-12.655000000000001,0.832200375,32.598125
2021-07-06 16:26:28.156250000,-32.0,3.0,55.0,58.46375,-10.51,0.8323605,32.597500000000004
2021-07-06 16:26:28.164062500,-32.0,3.0,55.0,58.4634375,-8.445,0.832520625,32.596875000000004
2021-07-06 16:26:28.171875000,-32.0,3.0,55.0,58.463125,-6.38,0.83268075,32.596250000000005
2021-07-06 16:26:28.179687500,-32.0,3.0,55.0,58.4628125,-4.3,0.8328408749999999,32.595625000000005
2021-07-06 16:26:28.187500000,-32.0,3.0,55.0,58.4625,-2.22,0.833001,32.595
2021-07-06 16:26:28.195312500,-32.0,3.0,55.0,58.4621875,-0.06999999999999984,0.833161125,32.594375
2021-07-06 16:26:28.203125000,-32.0,3.0,55.0,58.461875,2.08,0.83332125,32.59375
2021-07-06 16:26:28.210937500,-32.0,3.0,55.0,58.4615625,4.26,0.833481375,32.593125
2021-07-06 16:26:28.218750000,-32.0,3.0,55.0,58.46125,6.44,0.8336414999999999,32.5925
2021-07-06 16:26:28.226562500,-32.0,3.0,55.0,58.4609375,8.53,0.833801625,32.591875
2021-07-06 16:26:28.234375000,-32.0,3.0,55.0,58.460625,10.62,0.83396175,32.59125
2021-07-06 16:26:28.242187500,-32.0,3.0,55.0,58.4603125,12.485,0.834121875,32.590625
2021-07-06 16:26:28.250000000,-32.0,3.0,55.0,58.46,14.35,0.834282,32.59
2021-07-06 16:26:28.257812500,-32.0,3.0,55.0,58.4596875,15.86,0.8340818437499999,32.59
2021-07-06 16:26:28.265625000,-32.0,3.0,55.0,58.459375,17.37,0.8338816874999999,32.59
2021-07-06 16:26:28.273437500,-32.0,3.0,55.0,58.4590625,18.490000000000002,0.83368153125,32.59
2021-07-06 16:26:28.281250000,-32.0,3.0,55.0,58.45875,19.61,0.833481375,32.59
2021-07-06 16:26:28.289062500,-32.0,3.0,55.0,58.4584375,20.365000000000002,0.8332812187499999,32.59
2021-07-06 16:26:28.296875000,-32.0,3.0,55.0,58.458125,21.12,0.8330810625,32.59
2021-07-06 16:26:28.304687500,-32.0,3.0,55.0,58.457812499999996,21.58,0.83288090625,32.59
2021-07-06 16:26:28.312500000,-32.0,3.0,55.0,58.457499999999996,22.04,0.83268075,32.59
2021-07-06 16:26:28.320312500,-32.0,3.0,55.0,58.457187499999996,22.285,0.8324805937499999,32.59
2021-07-06 16:26:28.328125000,-32.0,3.0,55.0,58.456875,22.53,0.8322804374999999,32.59
2021-07-06 16:26:28.335937500,-32.0,3.0,55.0,58.4565625,22.615000000000002,0.83208028125,32.59
2021-07-06 16:26:28.343750000,-32.0,3.0,55.0,58.45625,22.7,0.831880125,32.59
2021-07-06 16:26:28.351562500,-32.0,3.0,55.0,58.4559375,22.66,0.8316799687499999,32.59
2021-07-06 16:26:28.359375000,-32.0,3.0,55.0,58.455625,22.62,0.8314798125,32.59
2021-07-06 16:26:28.367187500,-32.0,3.0,55.0,58.4553125,22.490000000000002,0.83127965625,32.59
2021-07-06 16:26:28.375000000,-32.0,3.0,55.0,58.455,22.36,0.8310795,32.59
2021-07-06 16:26:28.382812500,-32.0,3.0,55.0,58.4546875,22.195,0.8308793437499999,32.59
2021-07-06 16:26:28.390625000,-32.0,3.0,55.0,58.454375,22.03,0.8306791874999999,32.59
2021-07-06 16:26:28.398437500,-32.0,3.0,55.0,58.4540625,21.9,0.83047903125,32.59
2021-07-06 16:26:28.406250000,-32.0,3.0,55.0,58.45375,21.77,0.830278875,32.59
2021-07-06 16:26:28.414062500,-32.0,3.0,55.0,58.4534375,21.740000000000002,0.8300787187499999,32.59
2021-07-06 16:26:28.421875000,-32.0,3.0,55.0,58.453125,21.71,0.8298785625,32.59
2021-07-06 16:26:28.429687500,-32.0,3.0,55.0,58.4528125,21.805,0.82967840625,32.59
2021-07-06 16:26:28.437500000,-32.0,3.0,55.0,58.4525,21.9,0.82947825,32.59
2021-07-06 16:26:28.445312500,-32.0,3.0,55.0,58.4521875,22.1,0.82927809375,32.59
2021-07-06 16:26:28.453125000,-32.0,3.0,55.0,58.451875,22.3,0.8290779374999999,32.59
2021-07-06 16:26:28.460937500,-32.0,3.0,55.0,58.4515625,22.525,0.82887778125,32.59
2021-07-06 16:26:28.468750000,-32.0,3.0,55.0,58.45125,22.75,0.828677625,32.59
2021-07-06 16:26:28.476562500,-32.0,2.75,55.0,58.4509375,22.915,0.82847746875,32.59
2021-07-06 16:26:28.484375000,-32.0,2.5,55.0,58.450625,23.08,0.8282773125,32.59
2021-07-06 16:26:28.492187500,-32.0,2.25,55.0,58.4503125,23.119999999999997,0.82807715625,32.59
2021-07-06 16:26:28.500000000,-32.0,2.0,55.0,58.45,23.16,0.827877,32.59
2021-07-06 16:26:28.507812500,-32.0,2.25,55.0,58.449687499999996,23.060000000000002,0.8279570625,32.59
2021-07-06 16:26:28.515625000,-32.0,2.5,55.0,58.449374999999996,22.96,0.8280371249999999,32.59
2021-07-06 16:26:28.523437500,-32.0,2.75,55.0,58.4490625,22.735,0.8281171875,32.59
2021-07-06 16:26:28.531250000,-32.0,3.0,55.0,58.44875,22.51,0.82819725,32.59
2021-07-06 16:26:28.539062500,-32.0,3.0,55.0,58.4484375,22.195,0.8282773125,32.59
2021-07-06 16:26:28.546875000,-32.0,3.0,55.0,58.448125,21.88,0.828357375,32.59
2021-07-06 16:26:28.554687500,-32.0,3.0,55.0,58.4478125,21.490000000000002,0.8284374375,32.59
2021-07-06 16:26:28.562500000,-32.0,3.0,55.0,58.4475,21.1,0.8285175,32.59
2021-07-06 16:26:28.570312500,-32.0,3.0,55.0,58.4471875,20.635,0.8285975624999999,32.59
2021-07-06 16:26:28.578125000,-32.0,3.0,55.0,58.446875,20.17,0.828677625,32.59
2021-07-06 16:26:28.585937500,-32.0,3.0,55.0,58.4465625,19.615000000000002,0.8287576875,32.59
2021-07-06 16:26:28.593750000,-32.0,3.0,55.0,58.44625,19.06,0.82883775,32.59
2021-07-06 16:26:28.601562500,-32.0,3.0,55.0,58.4459375,18.4,0.8289178125,32.59
2021-07-06 16:26:28.609375000,-32.0,3.0,55.0,58.445625,17.74,0.828997875,32.59
2021-07-06 16:26:28.617187500,-32.0,3.0,55.0,58.4453125,17.0,0.8290779375,32.59
2021-07-06 16:26:28.625000000,-32.0,3.0,55.0,58.445,16.26,0.8291580000000001,32.59
2021-07-06 16:26:28.632812500,-32.0,2.75,55.0,58.4446875,15.47,0.8292380625,32.59
2021-07-06 16:26:28.640625000,-32.0,2.5,55.0,58.444375,14.68,0.829318125,32.59
2021-07-06 16:26:28.648437500,-32.0,2.25,55.0,58.4440625,13.89,0.8293981875,32.59
2021-07-06 16:26:28.656250000,-32.0,2.0,55.0,58.44375,13.1,0.82947825,32.59
2021-07-06 16:26:28.664062500,-32.0,2.25,55.0,58.4434375,12.34,0.8295583125,32.59
2021-07-06 16:26:28.671875000,-32.0,2.5,55.0,58.443125,11.58,0.829638375,32.59
2021-07-06 16:26:28.679687500,-32.0,2.75,55.0,58.4428125,10.885,0.8297184375000001,32.59
2021-07-06 16:26:28.687500000,-32.0,3.0,55.0,58.4425,10.19,0.8297985,32.59
2021-07-06 16:26:28.695312500,-32.0,3.0,55.0,58.4421875,9.565,0.8298785625,32.59
2021-07-06 16:26:28.703125000,-32.0,3.0,55.0,58.441874999999996,8.94,0.8299586250000001,32.59
2021-07-06 16:26:28.710937500,-32.0,3.0,55.0,58.441562499999996,8.39,0.8300386875,32.59
2021-07-06 16:26:28.718750000,-32.0,3.0,55.0,58.44125,7.84,0.83011875,32.59
2021-07-06 16:26:28.726562500,-32.0,2.75,55.25,58.4409375,7.32,0.8301988125,32.59
2021-07-06 16:26:28.734375000,-32.0,2.5,55.5,58.440625,6.8,0.8302788750000001,32.59
2021-07-06 16:26:28.742187500,-32.0,2.25,55.75,58.4403125,6.265000000000001,0.8303589375,32.59
2021-07-06 16:26:28.750000000,-32.0,2.0,56.0,58.44,5.73,0.830439,32.59
2021-07-06 16:26:28.757812500,-32.0,2.25,55.75,58.4396875,5.095000000000001,0.83027884375,32.59
2021-07-06 16:26:28.765625000,-32.0,2.5,55.5,58.439375,4.46,0.8301186875000001,32.59
2021-07-06 16:26:28.773437500,-32.0,2.75,55.25,58.4390625,3.665,0.8299585312500001,32.59
2021-07-06 16:26:28.781250000,-32.0,3.0,55.0,58.43875,2.87,0.829798375,32.59
2021-07-06 16:26:28.789062500,-32.0,3.0,55.0,58.4384375,1.9000000000000001,0.82963821875,32.59
2021-07-06 16:26:28.796875000,-32.0,3.0,55.0,58.438125,0.93,0.8294780625,32.59
2021-07-06 16:26:28.804687500,-32.0,3.0,55.0,58.4378125,-0.17499999999999993,0.82931790625,32.59
2021-07-06 16:26:28.812500000,-32.0,3.0,55.0,58.4375,-1.28,0.82915775,32.59
2021-07-06 16:26:28.820312500,-32.0,2.75,55.0,58.4371875,-2.42,0.82899759375,32.59
2021-07-06 16:26:28.828125000,-32.0,2.5,55.0,58.436875,-3.56,0.8288374375,32.59
2021-07-06 16:26:28.835937500,-32.0,2.25,55.0,58.4365625,-4.625,0.8286772812500001,32.59
2021-07-06 16:26:28.843750000,-32.0,2.0,55.0,58.43625,-5.69,0.8285171250000001,32.59
2021-07-06 16:26:28.851562500,-32.0,2.0,55.0,58.4359375,-6.635,0.82835696875,32.59
2021-07-06 16:26:28.859375000,-32.0,2.0,55.0,58.435625,-7.58,0.8281968125,32.59
2021-07-06 16:26:28.867187500,-32.0,2.0,55.0,58.4353125,-8.415,0.82803665625,32.59
2021-07-06 16:26:28.875000000,-32.0,2.0,55.0,58.435,-9.25,0.8278765,32.59
2021-07-06 16:26:28.882812500,-32.0,2.25,55.0,58.4346875,-10.045,0.82771634375,32.59
2021-07-06 16:26:28.890625000,-32.0,2.5,55.0,58.434375,-10.84,0.8275561875,32.59
2021-07-06 16:26:28.898437500,-32.0,2.75,55.0,58.4340625,-11.695,0.82739603125,32.59
2021-07-06 16:26:28.906250000,-32.0,3.0,55.0,58.433749999999996,-12.55,0.827235875,32.59
2021-07-06 16:26:28.914062500,-32.0,2.75,55.0,58.4334375,-13.54,0.82707571875,32.59
2021-07-06 16:26:28.921875000,-32.0,2.5,55.0,58.433125,-14.53,0.8269155625,32.59
2021-07-06 16:26:28.929687500,-32.0,2.25,55.0,58.4328125,-15.715,0.82675540625,32.59
2021-07-06 16:26:28.937500000,-32.0,2.0,55.0,58.4325,-16.9,0.82659525,32.59
2021-07-06 16:26:28.945312500,-32.0,2.25,55.0,58.4321875,-18.285,0.82643509375,32.59
2021-07-06 16:26:28.953125000,-32.0,2.5,55.0,58.431875,-19.67,0.8262749375,32.59
2021-07-06 16:26:28.960937500,-32.0,2.75,55.0,58.4315625,-21.235,0.82611478125,32.59
2021-07-06 16:26:28.968750000,-32.0,3.0,55.0,58.43125,-22.8,0.825954625,32.59
2021-07-06 16:26:28.976562500,-32.0,3.0,55.0,58.4309375,-24.435000000000002,0.82579446875,32.59
2021-07-06 16:26:28.984375000,-32.0,3.0,55.0,58.430625,-26.07,0.8256343125,32.59
2021-07-06 16:26:28.992187500,-32.0,3.0,55.0,58.4303125,-27.58,0.82547415625,32.59
2021-07-06 16:26:29.000000000,-32.0,3.0,55.0,58.43,-29.09,0.825314,32.59
2021-07-06 16:26:29.007812500,-32.0,3.0,55.0,58.43,-30.22,0.82539409375,32.590625
2021-07-06 16:26:29.015625000,-32.0,3.0,55.0,58.43,-31.35,0.8254741875,32.59125
2021-07-06 16:26:29.023437500,-32.0,3.0,55.0,58.43,-31.865000000000002,0.82555428125,32.591875
2021-07-06 16:26:29.031250000,-32.0,3.0,55.0,58.43,-32.38,0.825634375,32.5925
2021-07-06 16:26:29.039062500,-32.0,2.75,55.0,58.43,-32.145,0.82571446875,32.593125
2021-07-06 16:26:29.046875000,-32.0,2.5,55.0,58.43,-31.91,0.8257945624999999,32.59375
2021-07-06 16:26:29.054687500,-32.0,2.25,55.0,58.43,-30.935000000000002,0.82587465625,32.594375
2021-07-06 16:26:29.062500000,-32.0,2.0,55.0,58.43,-29.96,0.82595475,32.595
2021-07-06 16:26:29.070312500,-32.0,2.25,55.0,58.43,-28.384999999999998,0.82603484375,32.595625000000005
2021-07-06 16:26:29.078125000,-32.0,2.5,55.0,58.43,-26.81,0.8261149375,32.596250000000005
2021-07-06 16:26:29.085937500,-32.0,2.75,55.0,58.43,-24.835,0.8261950312499999,32.596875000000004
2021-07-06 16:26:29.093750000,-32.0,3.0,55.0,58.43,-22.86,0.826275125,32.597500000000004
2021-07-06 16:26:29.101562500,-32.0,3.0,55.0,58.43,-20.66,0.82635521875,32.598125
2021-07-06 16:26:29.109375000,-32.0,3.0,55.0,58.43,-18.46,0.8264353125,32.59875
2021-07-06 16:26:29.117187500,-32.0,3.0,55.0,58.43,-16.125,0.82651540625,32.599375
2021-07-06 16:26:29.125000000,-32.0,3.0,55.0,58.43,-13.79,0.8265955,32.6
2021-07-06 16:26:29.132812500,-32.0,3.0,55.25,58.43,-11.35,0.82667559375,32.600625
2021-07-06 16:26:29.140625000,-32.0,3.0,55.5,58.43,-8.91,0.8267556875,32.60125
2021-07-06 16:26:29.148437500,-32.0,3.0,55.75,58.43,-6.38,0.82683578125,32.601875
2021-07-06 16:26:29.156250000,-32.0,3.0,56.0,58.43,-3.85,0.826915875,32.6025
2021-07-06 16:26:29.164062500,-32.0,3.0,55.75,58.43,-1.2600000000000002,0.82699596875,32.603125
2021-07-06 16:26:29.171875000,-32.0,3.0,55.5,58.43,1.33,0.8270760625,32.60375
2021-07-06 16:26:29.179687500,-32.0,3.0,55.25,58.43,3.895,0.8271561562499999,32.604375
2021-07-06 16:26:29.187500000,-32.0,3.0,55.0,58.43,6.46,0.82723625,32.605000000000004
2021-07-06 16:26:29.195312500,-32.0,3.0,55.0,58.43,8.905,0.82731634375,32.605625
2021-07-06 16:26:29.203125000,-32.0,3.0,55.0,58.43,11.35,0.8273964375,32.60625
2021-07-06 16:26:29.210937500,-32.0,3.0,55.0,58.43,13.6,0.82747653125,32.606875
2021-07-06 16:26:29.218750000,-32.0,3.0,55.0,58.43,15.85,0.8275566249999999,32.6075
2021-07-06 16:26:29.226562500,-32.0,3.0,55.0,58.43,17.845,0.82763671875,32.608125
2021-07-06 16:26:29.234375000,-32.0,3.0,55.0,58.43,19.84,0.8277168125,32.60875
2021-07-06 16:26:29.242187500,-32.0,3.0,55.0,58.43,21.545,0.82779690625,32.609375
2021-07-06 16:26:29.250000000,-32.0,3.0,55.0,58.43,23.25,0.827877,32.61
2021-07-06 16:26:29.257812500,-32.0,3.0,55.0,58.43,24.615000000000002,0.82779690625,32.61
2021-07-06 16:26:29.265625000,-32.0,3.0,55.0,58.43,25.98,0.8277168125,32.61
2021-07-06 16:26:29.273437500,-32.0,3.0,55.0,58.43,26.96,0.82763671875,32.61
2021-07-06 16:26:29.281250000,-32.0,3.0,55.0,58.43,27.94,0.8275566249999999,32.61
2021-07-06 16:26:29.289062500,-32.0,3.0,55.25,58.43,28.520000000000003,0.82747653125,32.61
2021-07-06 16:26:29.296875000,-32.0,3.0,55.5,58.43,29.1,0.8273964375,32.61
2021-07-06 16:26:29.304687500,-32.0,3.0,55.75,58.43,29.3,0.82731634375,32.61
2021-07-06 16:26:29.312500000,-32.0,3.0,56.0,58.43,29.5,0.82723625,32.61
2021-07-06 16:26:29.320312500,-32.0,2.75,55.75,58.43,29.415,0.8271561562499999,32.61
2021-07-06 16:26:29.328125000,-32.0,2.5,55.5,58.43,29.33,0.8270760625,32.61
2021-07-06 16:26:29.335937500,-32.0,2.25,55.25,58.43,29.075,0.82699596875,32.61
2021-07-06 16:26:29.343750000,-32.0,2.0,55.0,58.43,28.82,0.826915875,32.61
2021-07-06 16:26:29.351562500,-32.0,2.25,55.0,58.43,28.52,0.82683578125,32.61
2021-07-06 16:26:29.359375000,-32.0,2.5,55.0,58.43,28.22,0.8267556875,32.61
2021-07-06 16:26:29.367187500,-32.0,2.75,55.0,58.43,27.92,0.82667559375,32.61
2021-07-06 16:26:29.375000000,-32.0,3.0,55.0,58.43,27.62,0.8265955,32.61
2021-07-06 16:26:29.382812500,-32.0,2.75,55.0,58.43,27.305,0.82651540625,32.61
2021-07-06 16:26:29.390625000,-32.0,2.5,55.0,58.43,26.99,0.8264353125,32.61
2021-07-06 16:26:29.398437500,-32.0,2.25,55.0,58.43,26.615,0.82635521875,32.61
2021-07-06 16:26:29.406250000,-32.0,2.0,55.0,58.43,26.24,0.826275125,32.61
2021-07-06 16:26:29.414062500,-32.0,2.0,55.0,58.43,25.755,0.8261950312499999,32.61
2021-07-06 16:26:29.421875000,-32.0,2.0,55.0,58.43,25.27,0.8261149375,32.61
2021-07-06 16:26:29.429687500,-32.0,2.0,55.0,58.43,24.68,0.82603484375,32.61
2021-07-06 16:26:29.437500000,-32.0,2.0,55.0,58.43,24.09,0.82595475,32.61
2021-07-06 16:26:29.445312500,-32.0,2.25,55.0,58.43,23.455,0.82587465625,32.61
2021-07-06 16:26:29.453125000,-32.0,2.5,55.0,58.43,22.82,0.8257945624999999,32.61
2021-07-06 16:26:29.460937500,-32.0,2.75,55.0,58.43,22.23,0.82571446875,32.61
2021-07-06 16:26:29.468750000,-32.0,3.0,55.0,58.43,21.64,0.825634375,32.61
2021-07-06 16:26:29.476562500,-32.0,3.0,55.0,58.43,21.17,0.82555428125,32.61
2021-07-06 16:26:29.484375000,-32.0,3.0,55.0,58.43,20.7,0.8254741875,32.61
2021-07-06 16:26:29.492187500,-32.0,3.0,55.0,58.43,20.345,0.82539409375,32.61
2021-07-06 16:26:29.500000000,-32.0,3.0,55.0,58.43,19.99,0.825314,32.61
2021-07-06 16:26:29.507812500,-32.0,3.0,55.0,58.43,19.67,0.825434125,32.61
2021-07-06 16:26:29.515625000,-32.0,3.0,55.0,58.43,19.35,0.8255542499999999,32.61
2021-07-06 16:26:29.523437500,-32.0,3.0,55.0,58.43,18.945,0.825674375,32.61
2021-07-06 16:26:29.531250000,-32.0,3.0,55.0,58.43,18.54,0.8257945,32.61
2021-07-06 16:26:29.539062500,-32.0,3.0,55.0,58.43,17.97,0.825914625,32.61
2021-07-06 16:26:29.546875000,-32.0,3.0,55.0,58.43,17.4,0.82603475,32.61
2021-07-06 16:26:29.554687500,-32.0,3.0,55.0,58.43,16.655,0.826154875,32.61
2021-07-06 16:26:29.562500000,-32.0,3.0,55.0,58.43,15.91,0.826275,32.61
2021-07-06 16:26:29.570312500,-32.0,2.75,55.0,58.43,15.085,0.826395125,32.61
2021-07-06 16:26:29.578125000,-32.0,2.5,55.0,58.43,14.26,0.8265152499999999,32.61
2021-07-06 16:26:29.585937500,-32.0,2.25,55.0,58.43,13.485,0.826635375,32.61
2021-07-06 16:26:29.593750000,-32.0,2.0,55.0,58.43,12.71,0.8267555,32.61
2021-07-06 16:26:29.601562500,-32.0,2.0,55.0,58.43,12.08,0.826875625,32.61
2021-07-06 16:26:29.609375000,-32.0,2.0,55.0,58.43,11.45,0.82699575,32.61
2021-07-06 16:26:29.617187500,-32.0,2.0,55.0,58.43,10.955,0.827115875,32.61
2021-07-06 16:26:29.625000000,-32.0,2.0,55.0,58.43,10.46,0.827236,32.61
2021-07-06 16:26:29.632812500,-32.0,2.25,55.0,58.43,9.985,0.827356125,32.61
2021-07-06 16:26:29.640625000,-32.0,2.5,55.0,58.43,9.51,0.8274762499999999,32.61
2021-07-06 16:26:29.648437500,-32.0,2.75,55.0,58.43,8.899999999999999,0.8275963749999999,32.61
2021-07-06 16:26:29.656250000,-32.0,3.0,55.0,58.43,8.29,0.8277165,32.61
2021-07-06 16:26:29.664062500,-32.0,3.0,55.0,58.43,7.4399999999999995,0.827836625,32.61
2021-07-06 16:26:29.671875000,-32.0,3.0,55.0,58.43,6.59,0.82795675,32.61
2021-07-06 16:26:29.679687500,-32.0,3.0,55.0,58.43,5.515000000000001,0.8280768749999999,32.61
2021-07-06 16:26:29.687500000,-32.0,3.0,55.0,58.43,4.44,0.828197,32.61
2021-07-06 16:26:29.695312500,-32.0,3.0,55.0,58.43,3.265,0.828317125,32.61
2021-07-06 16:26:29.703125000,-32.0,3.0,55.0,58.43,2.09,0.8284372499999999,32.61
2021-07-06 16:26:29.710937500,-32.0,3.0,55.0,58.43,1.005,0.8285573749999999,32.61
2021-07-06 16:26:29.718750000,-32.0,3.0,55.0,58.43,-0.08,0.8286775,32.61
2021-07-06 16:26:29.726562500,-32.0,3.0,55.0,58.43,-0.945,0.828797625,32.61
2021-07-06 16:26:29.734375000,-32.0,3.0,55.0,58.43,-1.81,0.82891775,32.61
2021-07-06 16:26:29.742187500,-32.0,3.0,55.0,58.43,-2.41,0.8290378749999999,32.61
2021-07-06 16:26:29.750000000,-32.0,3.0,55.0,58.43,-3.01,0.829158,32.61
2021-07-06 16:26:29.757812500,-32.0,2.75,55.0,58.43,-3.44,0.8289578125,32.61
2021-07-06 16:26:29.765625000,-32.0,2.5,55.0,58.43,-3.87,0.8287576249999999,32.61
2021-07-06 16:26:29.773437500,-32.0,2.25,55.0,58.43,-4.27,0.8285574375,32.61
2021-07-06 16:26:29.781250000,-32.0,2.0,55.0,58.43,-4.67,0.8283572499999999,32.61
2021-07-06 16:26:29.789062500,-32.0,2.25,55.0,58.43,-5.17,0.8281570625,32.61
2021-07-06 16:26:29.796875000,-32.0,2.5,55.0,58.43,-5.67,0.8279568749999999,32.61
2021-07-06 16:26:29.804687500,-32.0,2.75,55.0,58.43,-6.3100000000000005,0.8277566875,32.61
2021-07-06 16:26:29.812500000,-32.0,3.0,55.0,58.43,-6.95,0.8275565,32.61
2021-07-06 16:26:29.820312500,-32.0,3.0,55.0,58.43,-7.6899999999999995,0.8273563125,32.61
2021-07-06 16:26:29.828125000,-32.0,3.0,55.0,58.43,-8.43,0.827156125,32.61
2021-07-06 16:26:29.835937500,-32.0,3.0,55.0,58.43,-9.18,0.8269559375,32.61
2021-07-06 16:26:29.843750000,-32.0,3.0,55.0,58.43,-9.93,0.82675575,32.61
2021-07-06 16:26:29.851562500,-32.0,3.0,55.0,58.43,-10.635,0.8265555625,32.61
2021-07-06 16:26:29.859375000,-32.0,3.0,55.0,58.43,-11.34,0.826355375,32.61
2021-07-06 16:26:29.867187500,-32.0,3.0,55.0,58.43,-12.02,0.8261551874999999,32.61
2021-07-06 16:26:29.875000000,-32.0,3.0,55.0,58.43,-12.7,0.825955,32.61
2021-07-06 16:26:29.882812500,-32.0,3.0,55.0,58.43,-13.415,0.8257548125,32.61
2021-07-06 16:26:29.890625000,-32.0,3.0,55.0,58.43,-14.13,0.825554625,32.61
2021-07-06 16:26:29.898437500,-32.0,3.0,55.0,58.43,-14.965,0.8253544375,32.61
2021-07-06 16:26:29.906250000,-32.0,3.0,55.0,58.43,-15.8,0.82515425,32.61
2021-07-06 16:26:29.914062500,-32.0,3.0,55.0,58.43,-16.795,0.8249540625,32.61
2021-07-06 16:26:29.921875000,-32.0,3.0,55.0,58.43,-17.79,0.824753875,32.61
2021-07-06 16:26:29.929687500,-32.0,3.0,55.0,58.43,-18.9,0.8245536875,32.61
2021-07-06 16:26:29.937500000,-32.0,3.0,55.0,58.43,-20.01,0.8243535,32.61
2021-07-06 16:26:29.945312500,-32.0,3.0,55.0,58.43,-21.18,0.8241533125,32.61
2021-07-06 16:26:29.953125000,-32.0,3.0,55.0,58.43,-22.35,0.8239531250000001,32.61
2021-07-06 16:26:29.960937500,-32.0,3.0,55.0,58.43,-23.520000000000003,0.8237529375,32.61
2021-07-06 16:26:29.968750000,-32.0,3.0,55.0,58.43,-24.69,0.8235527500000001,32.61
2021-07-06 16:26:29.976562500,-32.0,2.75,55.0,58.43,-25.87,0.8233525625,32.61
2021-07-06 16:26:29.984375000,-32.0,2.5,55.0,58.43,-27.05,0.823152375,32.61
2021-07-06 16:26:29.992187500,-32.0,2.25,55.0,58.43,-28.275,0.8229521875,32.61
2021-07-06 16:26:30.000000000,-32.0,2.0,55.0,58.43,-29.5,0.822752,32.61
2021-07-06 16:26:30.007812500,-32.0,2.25,55.0,58.429921875,-30.785,0.82291215625,32.609375
2021-07-06 16:26:30.015625000,-32.0,2.5,55.0,58.429843749999996,-32.07,0.8230723125,32.60875
2021-07-06 16:26:30.023437500,-32.0,2.75,55.0,58.429765625,-33.335,0.82323246875,32.608125
2021-07-06 16:26:30.031250000,-32.0,3.0,55.0,58.4296875,-34.6,0.823392625,32.6075
2021-07-06 16:26:30.039062500,-32.0,3.0,55.0,58.429609375,-35.66,0.82355278125,32.606875
2021-07-06 16:26:30.046875000,-32.0,3.0,55.0,58.42953125,-36.72,0.8237129375000001,32.60625
2021-07-06 16:26:30.054687500,-32.0,3.0,55.0,58.429453125,-37.335,0.8238730937500001,32.605625
2021-07-06 16:26:30.062500000,-32.0,3.0,55.0,58.429375,-37.95,0.82403325,32.605000000000004
2021-07-06 16:26:30.070312500,-32.0,2.75,55.0,58.429296875,-37.89,0.82419340625,32.604375
2021-07-06 16:26:30.078125000,-32.0,2.5,55.0,58.42921875,-37.83,0.8243535625,32.60375
2021-07-06 16:26:30.085937500,-32.0,2.25,55.0,58.429140625,-37.025,0.82451371875,32.603125
2021-07-06 16:26:30.093750000,-32.0,2.0,55.0,58.4290625,-36.22,0.824673875,32.6025
2021-07-06 16:26:30.101562500,-32.25,2.25,55.0,58.428984375,-34.724999999999994,0.82483403125,32.601875
2021-07-06 16:26:30.109375000,-32.5,2.5,55.0,58.42890625,-33.23,0.8249941875,32.60125
2021-07-06 16:26:30.117187500,-32.75,2.75,55.0,58.428828125,-31.224999999999998,0.82515434375,32.600625
2021-07-06 16:26:30.125000000,-33.0,3.0,55.0,58.42875,-29.22,0.8253145,32.6
2021-07-06 16:26:30.132812500,-32.75,3.0,55.0,58.428671875,-26.895,0.82547465625,32.599375
2021-07-06 16:26:30.140625000,-32.5,3.0,55.0,58.42859375,-24.57,0.8256348125,32.59875
2021-07-06 16:26:30.148437500,-32.25,3.0,55.0,58.428515625,-22.09,0.82579496875,32.598125
2021-07-06 16:26:30.156250000,-32.0,3.0,55.0,58.4284375,-19.61,0.825955125,32.597500000000004
2021-07-06 16:26:30.164062500,-32.0,2.75,55.0,58.428359375,-17.064999999999998,0.82611528125,32.596875000000004
2021-07-06 16:26:30.171875000,-32.0,2.5,55.0,58.42828125,-14.52,0.8262754375,32.596250000000005
2021-07-06 16:26:30.179687500,-32.0,2.25,55.0,58.428203125,-11.934999999999999,0.82643559375,32.595625000000005
2021-07-06 16:26:30.187500000,-32.0,2.0,55.0,58.428125,-9.35,0.82659575,32.595
2021-07-06 16:26:30.195312500,-32.0,2.0,55.0,58.428046875,-6.755,0.82675590625,32.594375
2021-07-06 16:26:30.203125000,-32.0,2.0,55.0,58.42796875,-4.16,0.8269160624999999,32.59375
2021-07-06 16:26:30.210937500,-32.0,2.0,55.0,58.427890625,-1.5899999999999999,0.82707621875,32.593125
2021-07-06 16:26:30.218750000,-32.0,2.0,55.0,58.4278125,0.98,0.827236375,32.5925
2021-07-06 16:26:30.226562500,-32.0,2.25,55.0,58.427734375,3.445,0.82739653125,32.591875
2021-07-06 16:26:30.234375000,-32.0,2.5,55.0,58.42765625,5.91,0.8275566875,32.59125
2021-07-06 16:26:30.242187500,-32.0,2.75,55.0,58.427578125000004,8.195,0.82771684375,32.590625
2021-07-06 16:26:30.250000000,-32.0,3.0,55.0,58.4275,10.48,0.827877,32.59
2021-07-06 16:26:30.257812500,-32.0,2.75,55.0,58.427421875,12.5,0.82771684375,32.59
2021-07-06 16:26:30.265625000,-32.0,2.5,55.0,58.42734375,14.52,0.8275566875,32.59
2021-07-06 16:26:30.273437500,-32.0,2.25,55.0,58.427265625,16.23,0.82739653125,32.59
2021-07-06 16:26:30.281250000,-32.0,2.0,55.0,58.4271875,17.94,0.827236375,32.59
2021-07-06 16:26:30.289062500,-32.25,2.25,55.0,58.427109375,19.315,0.82707621875,32.59
2021-07-06 16:26:30.296875000,-32.5,2.5,55.0,58.42703125,20.69,0.8269160624999999,32.59
2021-07-06 16:26:30.304687500,-32.75,2.75,55.0,58.426953125,21.705,0.82675590625,32.59
2021-07-06 16:26:30.312500000,-33.0,3.0,55.0,58.426875,22.72,0.82659575,32.59
2021-07-06 16:26:30.320312500,-32.75,3.0,55.0,58.426796875,23.38,0.82643559375,32.59
2021-07-06 16:26:30.328125000,-32.5,3.0,55.0,58.42671875,24.04,0.8262754375,32.59
2021-07-06 16:26:30.335937500,-32.25,3.0,55.0,58.426640625,24.369999999999997,0.82611528125,32.59
2021-07-06 16:26:30.343750000,-32.0,3.0,55.0,58.4265625,24.7,0.825955125,32.59
2021-07-06 16:26:30.351562500,-32.0,3.0,55.0,58.426484375,24.755,0.82579496875,32.59
2021-07-06 16:26:30.359375000,-32.0,3.0,55.0,58.42640625,24.81,0.8256348125,32.59
2021-07-06 16:26:30.367187500,-32.0,3.0,55.0,58.426328125,24.655,0.82547465625,32.59
2021-07-06 16:26:30.375000000,-32.0,3.0,55.0,58.42625,24.5,0.8253145,32.59
2021-07-06 16:26:30.382812500,-32.0,2.75,55.0,58.426171875,24.235,0.82515434375,32.59
2021-07-06 16:26:30.390625000,-32.0,2.5,55.0,58.42609375,23.97,0.8249941875,32.59
2021-07-06 16:26:30.398437500,-32.0,2.25,55.0,58.426015625,23.655,0.82483403125,32.59
2021-07-06 16:26:30.406250000,-32.0,2.0,55.0,58.4259375,23.34,0.824673875,32.59
2021-07-06 16:26:30.414062500,-32.25,2.25,55.0,58.425859375,23.025,0.82451371875,32.59
2021-07-06 16:26:30.421875000,-32.5,2.5,55.0,58.42578125,22.71,0.8243535625,32.59
2021-07-06 16:26:30.429687500,-32.75,2.75,55.0,58.425703125,22.375,0.82419340625,32.59
2021-07-06 16:26:30.437500000,-33.0,3.0,55.0,58.425625000000004,22.04,0.82403325,32.59
2021-07-06 16:26:30.445312500,-32.75,3.0,55.0,58.425546875,21.655,0.8238730937500001,32.59
2021-07-06 16:26:30.453125000,-32.5,3.0,55.0,58.42546875,21.27,0.8237129375000001,32.59
2021-07-06 16:26:30.460937500,-32.25,3.0,55.0,58.425390625,20.814999999999998,0.82355278125,32.59
2021-07-06 16:26:30.468750000,-32.0,3.0,55.0,58.425312500000004,20.36,0.823392625,32.59
2021-07-06 16:26:30.476562500,-32.0,2.75,55.0,58.425234375,19.84,0.82323246875,32.59
2021-07-06 16:26:30.484375000,-32.0,2.5,55.0,58.42515625,19.32,0.8230723125,32.59
2021-07-06 16:26:30.492187500,-32.0,2.25,55.0,58.425078125,18.785,0.82291215625,32.59
2021-07-06 16:26:30.500000000,-32.0,2.0,55.0,58.425,18.25,0.822752,32.59
2021-07-06 16:26:30.507812500,-32.0,2.25,55.0,58.424921875,17.744999999999997,0.8228320625000001,32.59
2021-07-06 16:26:30.515625000,-32.0,2.5,55.0,58.42484375,17.24,0.822912125,32.59
2021-07-06 16:26:30.523437500,-32.0,2.75,55.0,58.424765625,16.795,0.8229921875,32.59
2021-07-06 16:26:30.531250000,-32.0,3.0,55.0,58.4246875,16.35,0.8230722500000001,32.59
2021-07-06 16:26:30.539062500,-32.0,3.0,55.0,58.424609375,15.96,0.8231523125,32.59
2021-07-06 16:26:30.546875000,-32.0,3.0,55.0,58.42453125,15.57,0.823232375,32.59
2021-07-06 16:26:30.554687500,-32.0,3.0,55.0,58.424453125,15.2,0.8233124375,32.59
2021-07-06 16:26:30.562500000,-32.0,3.0,55.0,58.424375,14.83,0.8233925,32.59
2021-07-06 16:26:30.570312500,-32.0,3.0,55.0,58.424296875,14.440000000000001,0.8234725625,32.59
2021-07-06 16:26:30.578125000,-32.0,3.0,55.0,58.42421875,14.05,0.823552625,32.59
2021-07-06 16:26:30.585937500,-32.0,3.0,55.0,58.424140625,13.635000000000002,0.8236326875000001,32.59
2021-07-06 16:26:30.593750000,-32.0,3.0,55.0,58.4240625,13.22,0.82371275,32.59
2021-07-06 16:26:30.601562500,-32.0,3.0,55.0,58.423984375,12.775,0.8237928125,32.59
2021-07-06 16:26:30.609375000,-32.0,3.0,55.0,58.42390625,12.33,0.8238728750000001,32.59
2021-07-06 16:26:30.617187500,-32.0,3.0,55.0,58.423828125,11.879999999999999,0.8239529375,32.59
2021-07-06 16:26:30.625000000,-32.0,3.0,55.0,58.42375,11.43,0.824033,32.59
2021-07-06 16:26:30.632812500,-32.0,2.75,55.0,58.423671875000004,10.985,0.8241130625,32.59
2021-07-06 16:26:30.640625000,-32.0,2.5,55.0,58.42359375,10.54,0.824193125,32.59
2021-07-06 16:26:30.648437500,-32.0,2.25,55.0,58.423515625,10.075,0.8242731875,32.59
2021-07-06 16:26:30.656250000,-32.0,2.0,55.0,58.4234375,9.61,0.82435325,32.59
2021-07-06 16:26:30.664062500,-32.0,2.25,55.0,58.423359375000004,9.094999999999999,0.8244333125,32.59
2021-07-06 16:26:30.671875000,-32.0,2.5,55.0,58.42328125,8.58,0.824513375,32.59
2021-07-06 16:26:30.679687500,-32.0,2.75,55.0,58.423203125,8.0,0.8245934375,32.59
2021-07-06 16:26:30.687500000,-32.0,3.0,55.0,58.423125,7.42,0.8246735000000001,32.59
2021-07-06 16:26:30.695312500,-32.0,3.0,55.0,58.423046875000004,6.765000000000001,0.8247535625,32.59
2021-07-06 16:26:30.703125000,-32.0,3.0,55.0,58.42296875,6.11,0.824833625,32.59
2021-07-06 16:26:30.710937500,-32.0,3.0,55.0,58.422890625,5.415,0.8249136875,32.59
2021-07-06 16:26:30.718750000,-32.0,3.0,55.0,58.4228125,4.72,0.82499375,32.59
2021-07-06 16:26:30.726562500,-32.0,3.0,55.0,58.422734375000005,4.015,0.8250738125,32.59
2021-07-06 16:26:30.734375000,-32.0,3.0,55.0,58.42265625,3.31,0.825153875,32.59
2021-07-06 16:26:30.742187500,-32.0,3.0,55.0,58.422578125,2.615,0.8252339375,32.59
2021-07-06 16:26:30.750000000,-32.0,3.0,55.0,58.4225,1.92,0.825314,32.59
2021-07-06 16:26:30.757812500,-32.0,3.0,55.0,58.422421875,1.24,0.82511384375,32.59
2021-07-06 16:26:30.765625000,-32.0,3.0,55.0,58.42234375,0.56,0.8249136875,32.59
2021-07-06 16:26:30.773437500,-32.0,3.0,55.0,58.422265625,-0.12,0.82471353125,32.59
2021-07-06 16:26:30.781250000,-32.0,3.0,55.0,58.4221875,-0.8,0.824513375,32.59
2021-07-06 16:26:30.789062500,-32.0,2.75,55.0,58.422109375,-1.4849999999999999,0.82431321875,32.59
2021-07-06 16:26:30.796875000,-32.0,2.5,55.0,58.42203125,-2.17,0.8241130624999999,32.59
2021-07-06 16:26:30.804687500,-32.0,2.25,55.0,58.421953125,-2.87,0.82391290625,32.59
2021-07-06 16:26:30.812500000,-32.0,2.0,55.0,58.421875,-3.57,0.82371275,32.59
2021-07-06 16:26:30.820312500,-32.0,2.25,55.0,58.421796875,-4.27,0.82351259375,32.59
2021-07-06 16:26:30.828125000,-32.0,2.5,55.0,58.421718750000004,-4.97,0.8233124375,32.59
2021-07-06 16:26:30.835937500,-32.0,2.75,55.0,58.421640625,-5.645,0.82311228125,32.59
2021-07-06 16:26:30.843750000,-32.0,3.0,55.0,58.4215625,-6.32,0.822912125,32.59
2021-07-06 16:26:30.851562500,-32.0,3.0,55.0,58.421484375,-6.955,0.82271196875,32.59
2021-07-06 16:26:30.859375000,-32.0,3.0,55.0,58.421406250000004,-7.59,0.8225118124999999,32.59
2021-07-06 16:26:30.867187500,-32.0,3.0,55.0,58.421328125,-8.184999999999999,0.82231165625,32.59
2021-07-06 16:26:30.875000000,-32.0,3.0,55.0,58.42125,-8.78,0.8221115,32.59
2021-07-06 16:26:30.882812500,-32.0,3.0,55.0,58.421171875,-9.370000000000001,0.82191134375,32.59
2021-07-06 16:26:30.890625000,-32.0,3.0,55.0,58.421093750000004,-9.96,0.8217111875,32.59
2021-07-06 16:26:30.898437500,-32.0,3.0,55.0,58.421015625,-10.59,0.82151103125,32.59
2021-07-06 16:26:30.906250000,-32.0,3.0,55.0,58.4209375,-11.22,0.821310875,32.59
2021-07-06 16:26:30.914062500,-32.25,3.0,55.0,58.420859375,-11.955,0.82111071875,32.59
2021-07-06 16:26:30.921875000,-32.5,3.0,55.0,58.420781250000005,-12.69,0.8209105624999999,32.59
2021-07-06 16:26:30.929687500,-32.75,3.0,55.0,58.420703125,-13.55,0.82071040625,32.59
2021-07-06 16:26:30.937500000,-33.0,3.0,55.0,58.420625,-14.41,0.82051025,32.59
2021-07-06 16:26:30.945312500,-32.75,3.0,55.0,58.420546875,-15.365,0.82031009375,32.59
2021-07-06 16:26:30.953125000,-32.5,3.0,55.0,58.420468750000005,-16.32,0.8201099375,32.59
2021-07-06 16:26:30.960937500,-32.25,3.0,55.0,58.420390625,-17.3,0.81990978125,32.59
2021-07-06 16:26:30.968750000,-32.0,3.0,55.0,58.4203125,-18.28,0.819709625,32.59
2021-07-06 16:26:30.976562500,-32.0,2.75,55.0,58.420234375,-19.19,0.81950946875,32.59
2021-07-06 16:26:30.984375000,-32.0,2.5,55.0,58.420156250000005,-20.1,0.8193093124999999,32.59
2021-07-06 16:26:30.992187500,-32.0,2.25,55.0,58.420078125,-20.885,0.81910915625,32.59
2021-07-06 16:26:31.000000000,-32.0,2.0,55.0,58.42,-21.67,0.818909,32.59
2021-07-06 16:26:31.007812500,-32.0,2.25,55.0,58.419453125000004,-22.33,0.8189890625,32.59
2021-07-06 16:26:31.015625000,-32.0,2.5,55.0,58.41890625,-22.99,0.819069125,32.59
2021-07-06 16:26:31.023437500,-32.0,2.75,55.0,58.418359375,-23.6,0.8191491875,32.59
2021-07-06 16:26:31.031250000,-32.0,3.0,55.0,58.417812500000004,-24.21,0.81922925,32.59
2021-07-06 16:26:31.039062500,-32.0,3.0,55.0,58.417265625,-24.865000000000002,0.8193093124999999,32.59
2021-07-06 16:26:31.046875000,-32.0,3.0,55.0,58.41671875,-25.52,0.819389375,32.59
2021-07-06 16:26:31.054687500,-32.0,3.0,55.0,58.416171875,-26.314999999999998,0.8194694375,32.59
2021-07-06 16:26:31.062500000,-32.0,3.0,55.0,58.415625,-27.11,0.8195494999999999,32.59
2021-07-06 16:26:31.070312500,-32.0,3.0,55.0,58.415078125,-28.075,0.8196295625,32.59
2021-07-06 16:26:31.078125000,-32.0,3.0,55.0,58.41453125,-29.04,0.819709625,32.59
2021-07-06 16:26:31.085937500,-32.0,3.0,55.0,58.413984375,-30.119999999999997,0.8197896875,32.59
2021-07-06 16:26:31.093750000,-32.0,3.0,55.0,58.4134375,-31.2,0.81986975,32.59
2021-07-06 16:26:31.101562500,-32.0,3.0,55.25,58.412890625,-32.25,0.8199498125,32.59
2021-07-06 16:26:31.109375000,-32.0,3.0,55.5,58.412343750000005,-33.3,0.820029875,32.59
2021-07-06 16:26:31.117187500,-32.0,3.0,55.75,58.411796875,-34.125,0.8201099374999999,32.59
2021-07-06 16:26:31.125000000,-32.0,3.0,56.0,58.41125,-34.95,0.82019,32.59
2021-07-06 16:26:31.132812500,-32.0,3.0,55.75,58.410703125000005,-35.36,0.8202700625,32.59
2021-07-06 16:26:31.140625000,-32.0,3.0,55.5,58.41015625,-35.77,0.8203501249999999,32.59
2021-07-06 16:26:31.148437500,-32.0,3.0,55.25,58.409609375,-35.625,0.8204301875,32.59
2021-07-06 16:26:31.156250000,-32.0,3.0,55.0,58.409062500000005,-35.48,0.82051025,32.59
2021-07-06 16:26:31.164062500,-32.0,3.0,55.0,58.408515625,-34.73,0.8205903124999999,32.59
2021-07-06 16:26:31.171875000,-32.0,3.0,55.0,58.40796875,-33.98,0.820670375,32.59
2021-07-06 16:26:31.179687500,-32.0,3.0,55.0,58.407421875000004,-32.68,0.8207504375,32.59
2021-07-06 16:26:31.187500000,-32.0,3.0,55.0,58.406875,-31.38,0.8208305,32.59
2021-07-06 16:26:31.195312500,-32.0,3.0,55.0,58.406328125,-29.619999999999997,0.8209105624999999,32.59
2021-07-06 16:26:31.203125000,-32.0,3.0,55.0,58.405781250000004,-27.86,0.820990625,32.59
2021-07-06 16:26:31.210937500,-32.0,3.0,55.0,58.405234375,-25.755,0.8210706875,32.59
2021-07-06 16:26:31.218750000,-32.0,3.0,55.0,58.4046875,-23.65,0.8211507499999999,32.59
2021-07-06 16:26:31.226562500,-32.0,2.75,55.0,58.404140625000004,-21.27,0.8212308125,32.59
2021-07-06 16:26:31.234375000,-32.0,2.5,55.0,58.40359375,-18.89,0.821310875,32.59
2021-07-06 16:26:31.242187500,-32.0,2.25,55.0,58.403046875,-16.29,0.8213909374999999,32.59
2021-07-06 16:26:31.250000000,-32.0,2.0,55.0,58.4025,-13.69,0.821471,32.59
2021-07-06 16:26:31.257812500,-32.0,2.0,55.0,58.401953125,-10.94,0.82119078125,32.59
2021-07-06 16:26:31.265625000,-32.0,2.0,55.0,58.40140625,-8.19,0.8209105624999999,32.59
2021-07-06 16:26:31.273437500,-32.0,2.0,55.0,58.400859375,-5.39,0.82063034375,32.59
2021-07-06 16:26:31.281250000,-32.0,2.0,55.0,58.4003125,-2.59,0.8203501249999999,32.59
2021-07-06 16:26:31.289062500,-32.0,2.25,55.0,58.399765625,0.11500000000000021,0.82006990625,32.59
2021-07-06 16:26:31.296875000,-32.0,2.5,55.0,58.39921875,2.82,0.8197896874999999,32.59
2021-07-06 16:26:31.304687500,-32.0,2.75,55.0,58.398671875000005,5.285,0.81950946875,32.59
2021-07-06 16:26:31.312500000,-32.0,3.0,55.0,58.398125,7.75,0.81922925,32.59
2021-07-06 16:26:31.320312500,-32.0,2.75,55.0,58.397578125,9.875,0.81894903125,32.59
2021-07-06 16:26:31.328125000,-32.0,2.5,55.0,58.397031250000005,12.0,0.8186688125,32.59
2021-07-06 16:26:31.335937500,-32.0,2.25,55.0,58.396484375,13.75,0.81838859375,32.59
2021-07-06 16:26:31.343750000,-32.0,2.0,55.0,58.3959375,15.5,0.818108375,32.59
2021-07-06 16:26:31.351562500,-32.0,2.25,55.0,58.395390625000005,16.935000000000002,0.8178281562499999,32.59
2021-07-06 16:26:31.359375000,-32.0,2.5,55.0,58.39484375,18.37,0.8175479375,32.59
2021-07-06 16:26:31.367187500,-32.0,2.75,55.0,58.394296875,19.54,0.8172677187499999,32.59
2021-07-06 16:26:31.375000000,-32.0,3.0,55.0,58.393750000000004,20.71,0.8169875,32.59
2021-07-06 16:26:31.382812500,-32.0,3.0,55.0,58.393203125,21.66,0.81670728125,32.59
2021-07-06 16:26:31.390625000,-32.0,3.0,55.0,58.39265625,22.61,0.8164270625,32.59
2021-07-06 16:26:31.398437500,-32.0,3.0,55.0,58.392109375000004,23.34,0.81614684375,32.59
2021-07-06 16:26:31.406250000,-32.0,3.0,55.0,58.3915625,24.07,0.815866625,32.59
2021-07-06 16:26:31.414062500,-32.0,3.0,55.0,58.391015625,24.57,0.81558640625,32.59
2021-07-06 16:26:31.421875000,-32.0,3.0,55.0,58.390468750000004,25.07,0.8153061875,32.59
2021-07-06 16:26:31.429687500,-32.0,3.0,55.0,58.389921875,25.345,0.81502596875,32.59
2021-07-06 16:26:31.437500000,-32.0,3.0,55.0,58.389375,25.62,0.8147457499999999,32.59
2021-07-06 16:26:31.445312500,-32.0,3.0,55.0,58.388828125,25.715,0.81446553125,32.59
2021-07-06 16:26:31.453125000,-32.0,3.0,55.0,58.38828125,25.81,0.8141853125,32.59
2021-07-06 16:26:31.460937500,-32.0,3.0,55.0,58.387734375,25.785,0.81390509375,32.59
2021-07-06 16:26:31.468750000,-32.0,3.0,55.0,58.3871875,25.76,0.813624875,32.59
2021-07-06 16:26:31.476562500,-32.0,3.0,55.0,58.386640625,25.675,0.81334465625,32.59
2021-07-06 16:26:31.484375000,-32.0,3.0,55.0,58.38609375,25.59,0.8130644375,32.59
2021-07-06 16:26:31.492187500,-32.0,3.0,55.0,58.385546875,25.47,0.81278421875,32.59
2021-07-06 16:26:31.500000000,-32.0,3.0,55.0,58.385000000000005,25.35,0.812504,32.59
2021-07-06 16:26:31.507812500,-32.0,3.0,55.0,58.384453125,25.200000000000003,0.81262409375,32.59
2021-07-06 16:26:31.515625000,-32.0,3.0,55.0,58.38390625,25.05,0.8127441875,32.59
2021-07-06 16:26:31.523437500,-32.0,3.0,55.0,58.383359375000005,24.875,0.81286428125,32.59
2021-07-06 16:26:31.531250000,-32.0,3.0,55.0,58.3828125,24.7,0.812984375,32.59
2021-07-06 16:26:31.539062500,-32.0,2.75,55.0,58.382265625,24.505,0.81310446875,32.59
2021-07-06 16:26:31.546875000,-32.0,2.5,55.0,58.381718750000005,24.31,0.8132245625,32.59
2021-07-06 16:26:31.554687500,-32.0,2.25,55.0,58.381171875,24.134999999999998,0.81334465625,32.59
2021-07-06 16:26:31.562500000,-32.0,2.0,55.0,58.380625,23.96,0.8134647500000001,32.59
2021-07-06 16:26:31.570312500,-32.0,2.25,55.0,58.380078125000004,23.84,0.8135848437500001,32.59
2021-07-06 16:26:31.578125000,-32.0,2.5,55.0,58.37953125,23.72,0.8137049375000001,32.59
2021-07-06 16:26:31.585937500,-32.0,2.75,55.0,58.378984375,23.655,0.81382503125,32.59
2021-07-06 16:26:31.593750000,-32.0,3.0,55.0,58.378437500000004,23.59,0.813945125,32.59
2021-07-06 16:26:31.601562500,-32.0,3.0,55.0,58.377890625,23.564999999999998,0.81406521875,32.59
2021-07-06 16:26:31.609375000,-32.0,3.0,55.0,58.37734375,23.54,0.8141853125,32.59
2021-07-06 16:26:31.617187500,-32.0,3.0,55.0,58.376796875000004,23.505,0.81430540625,32.59
2021-07-06 16:26:31.625000000,-32.0,3.0,55.0,58.37625,23.47,0.8144255,32.59
2021-07-06 16:26:31.632812500,-32.0,2.75,55.0,58.375703125,23.36,0.81454559375,32.59
2021-07-06 16:26:31.640625000,-32.0,2.5,55.0,58.37515625,23.25,0.8146656875,32.59
2021-07-06 16:26:31.648437500,-32.0,2.25,55.0,58.374609375,23.015,0.81478578125,32.59
2021-07-06 16:26:31.656250000,-32.0,2.0,55.0,58.3740625,22.78,0.814905875,32.59
2021-07-06 16:26:31.664062500,-32.25,2.25,55.0,58.373515625,22.4,0.81502596875,32.59
2021-07-06 16:26:31.671875000,-32.5,2.5,55.0,58.37296875,22.02,0.8151460625,32.59
2021-07-06 16:26:31.679687500,-32.75,2.75,55.0,58.372421875,21.5,0.81526615625,32.59
2021-07-06 16:26:31.687500000,-33.0,3.0,55.0,58.371875,20.98,0.81538625,32.59
2021-07-06 16:26:31.695312500,-32.75,3.0,55.25,58.371328125,20.335,0.8155063437500001,32.59
2021-07-06 16:26:31.703125000,-32.5,3.0,55.5,58.37078125,19.69,0.8156264375000001,32.59
2021-07-06 16:26:31.710937500,-32.25,3.0,55.75,58.370234375,18.955,0.8157465312500001,32.59
2021-07-06 16:26:31.718750000,-32.0,3.0,56.0,58.369687500000005,18.22,0.8158666250000001,32.59
2021-07-06 16:26:31.726562500,-32.0,3.0,55.75,58.369140625,17.41,0.8159867187500001,32.59
2021-07-06 16:26:31.734375000,-32.0,3.0,55.5,58.36859375,16.6,0.8161068125000001,32.59
2021-07-06 16:26:31.742187500,-32.0,3.0,55.25,58.368046875000005,15.740000000000002,0.81622690625,32.59
2021-07-06 16:26:31.750000000,-32.0,3.0,55.0,58.3675,14.88,0.816347,32.59
2021-07-06 16:26:31.757812500,-32.0,3.0,55.0,58.366953125,13.98,0.8161868750000001,32.59
2021-07-06 16:26:31.765625000,-32.0,3.0,55.0,58.366406250000004,13.08,0.81602675,32.59
2021-07-06 16:26:31.773437500,-32.0,3.0,55.0,58.365859375,12.165,0.8158666250000001,32.59
2021-07-06 16:26:31.781250000,-32.0,3.0,55.0,58.3653125,11.25,0.8157065,32.59
2021-07-06 16:26:31.789062500,-32.0,3.0,55.0,58.364765625000004,10.335,0.815546375,32.59
2021-07-06 16:26:31.796875000,-32.0,3.0,55.0,58.36421875,9.42,0.8153862500000001,32.59
2021-07-06 16:26:31.804687500,-32.0,3.0,55.0,58.363671875,8.565,0.815226125,32.59
2021-07-06 16:26:31.812500000,-32.0,3.0,55.0,58.363125000000004,7.71,0.8150660000000001,32.59
2021-07-06 16:26:31.820312500,-32.0,3.0,55.0,58.362578125,6.96,0.814905875,32.59
2021-07-06 16:26:31.828125000,-32.0,3.0,55.0,58.36203125,6.21,0.81474575,32.59
2021-07-06 16:26:31.835937500,-32.0,3.0,55.0,58.361484375,5.57,0.8145856250000001,32.59
2021-07-06 16:26:31.843750000,-32.0,3.0,55.0,58.3609375,4.93,0.8144255,32.59
2021-07-06 16:26:31.851562500,-32.0,3.0,55.0,58.360390625,4.395,0.8142653750000001,32.59
2021-07-06 16:26:31.859375000,-32.0,3.0,55.0,58.35984375,3.86,0.81410525,32.59
2021-07-06 16:26:31.867187500,-32.0,3.0,55.0,58.359296875,3.36,0.813945125,32.59
2021-07-06 16:26:31.875000000,-32.0,3.0,55.0,58.35875,2.86,0.813785,32.59
2021-07-06 16:26:31.882812500,-32.0,3.0,55.0,58.358203125,2.3,0.813624875,32.59
2021-07-06 16:26:31.890625000,-32.0,3.0,55.0,58.35765625,1.74,0.8134647500000001,32.59
2021-07-06 16:26:31.898437500,-32.0,3.0,55.0,58.357109375,1.045,0.813304625,32.59
2021-07-06 16:26:31.906250000,-32.0,3.0,55.0,58.3565625,0.35,0.8131445,32.59
2021-07-06 16:26:31.914062500,-32.0,3.0,55.0,58.356015625000005,-0.5299999999999999,0.812984375,32.59
2021-07-06 16:26:31.921875000,-32.0,3.0,55.0,58.35546875,-1.41,0.81282425,32.59
2021-07-06 16:26:31.929687500,-32.0,3.0,55.0,58.354921875,-2.4749999999999996,0.8126641250000001,32.59
2021-07-06 16:26:31.937500000,-32.0,3.0,55.0,58.354375000000005,-3.54,0.812504,32.59
2021-07-06 16:26:31.945312500,-32.0,2.75,55.0,58.353828125,-4.74,0.812343875,32.59
2021-07-06 16:26:31.953125000,-32.0,2.5,55.0,58.35328125,-5.94,0.81218375,32.59
2021-07-06 16:26:31.960937500,-32.0,2.25,55.0,58.352734375000004,-7.205,0.812023625,32.59
2021-07-06 16:26:31.968750000,-32.0,2.0,55.0,58.3521875,-8.47,0.8118635000000001,32.59
2021-07-06 16:26:31.976562500,-32.0,2.25,55.0,58.351640625,-9.7,0.811703375,32.59
2021-07-06 16:26:31.984375000,-32.0,2.5,55.0,58.351093750000004,-10.93,0.81154325,32.59
2021-07-06 16:26:31.992187500,-32.0,2.75,55.0,58.350546875,-12.055,0.811383125,32.59
2021-07-06 16:26:32.000000000,-32.0,3.0,55.0,58.35,-13.18,0.811223,32.59
2021-07-06 16:26:32.007812500,-32.0,3.0,55.0,58.349453125000004,-14.175,0.811383125,32.590625
2021-07-06 16:26:32.015625000,-32.0,3.0,55.0,58.34890625,-15.17,0.81154325,32.59125
2021-07-06 16:26:32.023437500,-32.0,3.0,55.0,58.348359375,-16.045,0.811703375,32.591875
2021-07-06 16:26:32.031250000,-32.0,3.0,55.0,58.3478125,-16.92,0.8118635000000001,32.5925
2021-07-06 16:26:32.039062500,-32.0,2.75,55.0,58.347265625,-17.75,0.812023625,32.593125
2021-07-06 16:26:32.046875000,-32.0,2.5,55.0,58.34671875,-18.58,0.81218375,32.59375
2021-07-06 16:26:32.054687500,-32.0,2.25,55.0,58.346171875,-19.455,0.812343875,32.594375
2021-07-06 16:26:32.062500000,-32.0,2.0,55.0,58.345625,-20.33,0.812504,32.595
2021-07-06 16:26:32.070312500,-32.0,2.25,55.0,58.345078125,-21.33,0.8126641250000001,32.595625000000005
2021-07-06 16:26:32.078125000,-32.0,2.5,55.0,58.34453125,-22.33,0.81282425,32.596250000000005
2021-07-06 16:26:32.085937500,-32.0,2.75,55.0,58.343984375,-23.494999999999997,0.812984375,32.596875000000004
2021-07-06 16:26:32.093750000,-32.0,3.0,55.0,58.3434375,-24.66,0.8131445,32.597500000000004
2021-07-06 16:26:32.101562500,-32.0,3.0,55.0,58.342890625,-25.955,0.813304625,32.598125
2021-07-06 16:26:32.109375000,-32.0,3.0,55.0,58.342343750000005,-27.25,0.8134647500000001,32.59875
2021-07-06 16:26:32.117187500,-32.0,3.0,55.0,58.341796875,-28.59,0.813624875,32.599375
2021-07-06 16:26:32.125000000,-32.0,3.0,55.0,58.34125,-29.93,0.813785,32.6
2021-07-06 16:26:32.132812500,-32.0,2.75,55.0,58.340703125000005,-31.175,0.813945125,32.600625
2021-07-06 16:26:32.140625000,-32.0,2.5,55.0,58.34015625,-32.42,0.81410525,32.60125
2021-07-06 16:26:32.148437500,-32.0,2.25,55.0,58.339609375,-33.415,0.8142653750000001,32.601875
2021-07-06 16:26:32.156250000,-32.0,2.0,55.0,58.339062500000004,-34.41,0.8144255,32.6025
2021-07-06 16:26:32.164062500,-32.0,2.25,55.0,58.338515625,-34.97,0.8145856250000001,32.603125
2021-07-06 16:26:32.171875000,-32.0,2.5,55.0,58.33796875,-35.53,0.81474575,32.60375
2021-07-06 16:26:32.179687500,-32.0,2.75,55.0,58.337421875000004,-35.47,0.814905875,32.604375
2021-07-06 16:26:32.187500000,-32.0,3.0,55.0,58.336875,-35.41,0.8150660000000001,32.605000000000004
2021-07-06 16:26:32.195312500,-32.0,2.75,55.0,58.336328125,-34.62,0.815226125,32.605625
2021-07-06 16:26:32.203125000,-32.0,2.5,55.0,58.335781250000004,-33.83,0.8153862500000001,32.60625
2021-07-06 16:26:32.210937500,-32.0,2.25,55.0,58.335234375,-32.29,0.815546375,32.606875
2021-07-06 16:26:32.218750000,-32.0,2.0,55.0,58.3346875,-30.75,0.8157065,32.6075
2021-07-06 16:26:32.226562500,-32.0,2.25,55.0,58.334140625,-28.57,0.8158666250000001,32.608125
2021-07-06 16:26:32.234375000,-32.0,2.5,55.0,58.33359375,-26.39,0.81602675,32.60875
2021-07-06 16:26:32.242187500,-32.0,2.75,55.0,58.333046875,-23.8,0.8161868750000001,32.609375
2021-07-06 16:26:32.250000000,-32.0,3.0,55.0,58.3325,-21.21,0.816347,32.61
2021-07-06 16:26:32.257812500,-32.0,3.0,55.0,58.331953125,-18.47,0.8161868750000001,32.61
2021-07-06 16:26:32.265625000,-32.0,3.0,55.0,58.33140625,-15.73,0.81602675,32.61
2021-07-06 16:26:32.273437500,-32.0,3.0,55.0,58.330859375,-13.035,0.8158666250000001,32.61
2021-07-06 16:26:32.281250000,-32.0,3.0,55.0,58.3303125,-10.34,0.8157065,32.61
2021-07-06 16:26:32.289062500,-32.0,2.75,55.0,58.329765625,-7.775,0.815546375,32.61
2021-07-06 16:26:32.296875000,-32.0,2.5,55.0,58.32921875,-5.21,0.8153862500000001,32.61
2021-07-06 16:26:32.304687500,-32.0,2.25,55.0,58.328671875000005,-2.75,0.815226125,32.61
2021-07-06 16:26:32.312500000,-32.0,2.0,55.0,58.328125,-0.29,0.8150660000000001,32.61
2021-07-06 16:26:32.320312500,-32.0,2.25,55.0,58.327578125,2.11,0.814905875,32.61
2021-07-06 16:26:32.328125000,-32.0,2.5,55.0,58.327031250000005,4.51,0.81474575,32.61
2021-07-06 16:26:32.335937500,-32.0,2.75,55.0,58.326484375,6.845,0.8145856250000001,32.61
2021-07-06 16:26:32.343750000,-32.0,3.0,55.0,58.3259375,9.18,0.8144255,32.61
2021-07-06 16:26:32.351562500,-32.0,3.0,55.25,58.325390625000004,11.39,0.8142653750000001,32.61
2021-07-06 16:26:32.359375000,-32.0,3.0,55.5,58.32484375,13.6,0.81410525,32.61
2021-07-06 16:26:32.367187500,-32.0,3.0,55.75,58.324296875,15.57,0.813945125,32.61
2021-07-06 16:26:32.375000000,-32.0,3.0,56.0,58.323750000000004,17.54,0.813785,32.61
2021-07-06 16:26:32.382812500,-32.0,3.0,55.75,58.323203125,19.18,0.813624875,32.61
2021-07-06 16:26:32.390625000,-32.0,3.0,55.5,58.32265625,20.82,0.8134647500000001,32.61
2021-07-06 16:26:32.398437500,-32.0,3.0,55.25,58.322109375000004,22.134999999999998,0.813304625,32.61
2021-07-06 16:26:32.406250000,-32.0,3.0,55.0,58.3215625,23.45,0.8131445,32.61
2021-07-06 16:26:32.414062500,-32.0,3.0,55.0,58.321015625,24.48,0.812984375,32.61
2021-07-06 16:26:32.421875000,-32.0,3.0,55.0,58.32046875,25.51,0.81282425,32.61
2021-07-06 16:26:32.429687500,-32.0,3.0,55.0,58.319921875,26.325000000000003,0.8126641250000001,32.61
2021-07-06 16:26:32.437500000,-32.0,3.0,55.0,58.319375,27.14,0.812504,32.61
2021-07-06 16:26:32.445312500,-32.0,3.0,55.0,58.318828125,27.765,0.812343875,32.61
2021-07-06 16:26:32.453125000,-32.0,3.0,55.0,58.31828125,28.39,0.81218375,32.61
2021-07-06 16:26:32.460937500,-32.0,3.0,55.0,58.317734375,28.79,0.812023625,32.61
2021-07-06 16:26:32.468750000,-32.0,3.0,55.0,58.3171875,29.19,0.8118635000000001,32.61
2021-07-06 16:26:32.476562500,-32.0,2.75,55.0,58.316640625,29.305,0.811703375,32.61
2021-07-06 16:26:32.484375000,-32.0,2.5,55.0,58.31609375,29.42,0.81154325,32.61
2021-07-06 16:26:32.492187500,-32.0,2.25,55.0,58.315546875,29.22,0.811383125,32.61
2021-07-06 16:26:32.500000000,-32.0,2.0,55.0,58.315,29.02,0.811223,32.61
2021-07-06 16:26:32.507812500,-32.0,2.25,55.0,58.314453125,28.564999999999998,0.811383125,32.61
2021-07-06 16:26:32.515625000,-32.0,2.5,55.0,58.31390625,28.11,0.81154325,32.61
2021-07-06 16:26:32.523437500,-32.0,2.75,55.0,58.313359375000005,27.525,0.811703375,32.61
2021-07-06 16:26:32.531250000,-32.0,3.0,55.0,58.3128125,26.94,0.8118635000000001,32.61
2021-07-06 16:26:32.539062500,-32.0,3.0,55.0,58.312265625,26.39,0.812023625,32.61
2021-07-06 16:26:32.546875000,-32.0,3.0,55.0,58.311718750000004,25.84,0.81218375,32.61
2021-07-06 16:26:32.554687500,-32.0,3.0,55.0,58.311171875,25.46,0.812343875,32.61
2021-07-06 16:26:32.562500000,-32.0,3.0,55.0,58.310625,25.08,0.812504,32.61
2021-07-06 16:26:32.570312500,-32.0,3.0,55.0,58.310078125000004,24.905,0.8126641250000001,32.61
2021-07-06 16:26:32.578125000,-32.0,3.0,55.0,58.30953125,24.73,0.81282425,32.61
2021-07-06 16:26:32.585937500,-32.0,3.0,55.0,58.308984375,24.72,0.812984375,32.61
2021-07-06 16:26:32.593750000,-32.0,3.0,55.0,58.308437500000004,24.71,0.8131445,32.61
2021-07-06 16:26:32.601562500,-32.0,3.0,55.0,58.307890625,24.740000000000002,0.813304625,32.61
2021-07-06 16:26:32.609375000,-32.0,3.0,55.0,58.30734375,24.77,0.8134647500000001,32.61
2021-07-06 16:26:32.617187500,-32.0,3.0,55.0,58.306796875,24.705,0.813624875,32.61
2021-07-06 16:26:32.625000000,-32.0,3.0,55.0,58.30625,24.64,0.813785,32.61
2021-07-06 16:26:32.632812500,-32.0,3.0,55.0,58.305703125,24.395,0.813945125,32.61
2021-07-06 16:26:32.640625000,-32.0,3.0,55.0,58.30515625,24.15,0.81410525,32.61
2021-07-06 16:26:32.648437500,-32.0,3.0,55.0,58.304609375,23.695,0.8142653750000001,32.61
2021-07-06 16:26:32.656250000,-32.0,3.0,55.0,58.3040625,23.24,0.8144255,32.61
2021-07-06 16:26:32.664062500,-32.0,3.0,55.0,58.303515625,22.619999999999997,0.8145856250000001,32.61
2021-07-06 16:26:32.671875000,-32.0,3.0,55.0,58.30296875,22.0,0.81474575,32.61
2021-07-06 16:26:32.679687500,-32.0,3.0,55.0,58.302421875,21.3,0.814905875,32.61
2021-07-06 16:26:32.687500000,-32.0,3.0,55.0,58.301875,20.6,0.8150660000000001,32.61
2021-07-06 16:26:32.695312500,-32.0,3.0,55.25,58.301328125,19.905,0.815226125,32.61
2021-07-06 16:26:32.703125000,-32.0,3.0,55.5,58.30078125,19.21,0.8153862500000001,32.61
2021-07-06 16:26:32.710937500,-32.0,3.0,55.75,58.300234375,18.575000000000003,0.815546375,32.61
2021-07-06 16:26:32.718750000,-32.0,3.0,56.0,58.299687500000005,17.94,0.8157065,32.61
2021-07-06 16:26:32.726562500,-32.0,3.0,55.75,58.299140625,17.375,0.8158666250000001,32.61
2021-07-06 16:26:32.734375000,-32.0,3.0,55.5,58.29859375,16.81,0.81602675,32.61
2021-07-06 16:26:32.742187500,-32.0,3.0,55.25,58.298046875000004,16.28,0.8161868750000001,32.61
2021-07-06 16:26:32.750000000,-32.0,3.0,55.0,58.2975,15.75,0.816347,32.61
2021-07-06 16:26:32.757812500,-32.0,2.75,55.0,58.296953125,15.21,0.8161068125000001,32.61
2021-07-06 16:26:32.765625000,-32.0,2.5,55.0,58.296406250000004,14.67,0.8158666250000001,32.61
2021-07-06 16:26:32.773437500,-32.0,2.25,55.0,58.295859375,14.085,0.8156264375000001,32.61
2021-07-06 16:26:32.781250000,-32.0,2.0,55.0,58.2953125,13.5,0.81538625,32.61
2021-07-06 16:26:32.789062500,-32.0,2.25,55.0,58.294765625000004,12.865,0.8151460625,32.61
2021-07-06 16:26:32.796875000,-32.0,2.5,55.0,58.29421875,12.23,0.814905875,32.61
2021-07-06 16:26:32.804687500,-32.0,2.75,55.0,58.293671875,11.565000000000001,0.8146656875,32.61
2021-07-06 16:26:32.812500000,-32.0,3.0,55.0,58.293125,10.9,0.8144255,32.61
2021-07-06 16:26:32.820312500,-32.0,3.0,55.0,58.292578125,10.245000000000001,0.8141853125,32.61
2021-07-06 16:26:32.828125000,-32.0,3.0,55.0,58.29203125,9.59,0.813945125,32.61
2021-07-06 16:26:32.835937500,-32.0,3.0,55.0,58.291484375,8.975,0.8137049375000001,32.61
2021-07-06 16:26:32.843750000,-32.0,3.0,55.0,58.2909375,8.36,0.8134647500000001,32.61
2021-07-06 16:26:32.851562500,-32.0,2.75,55.0,58.290390625,7.779999999999999,0.8132245625,32.61
2021-07-06 16:26:32.859375000,-32.0,2.5,55.0,58.28984375,7.2,0.812984375,32.61
2021-07-06 16:26:32.867187500,-32.0,2.25,55.0,58.289296875,6.635,0.8127441875,32.61
2021-07-06 16:26:32.875000000,-32.0,2.0,55.0,58.28875,6.07,0.812504,32.61
2021-07-06 16:26:32.882812500,-32.0,2.25,55.0,58.288203125,5.470000000000001,0.8122638125,32.61
2021-07-06 16:26:32.890625000,-32.0,2.5,55.0,58.28765625,4.87,0.812023625,32.61
2021-07-06 16:26:32.898437500,-32.0,2.75,55.0,58.287109375,4.215,0.8117834375,32.61
2021-07-06 16:26:32.906250000,-32.0,3.0,55.0,58.2865625,3.56,0.8115432499999999,32.61
2021-07-06 16:26:32.914062500,-32.0,2.75,55.0,58.286015625000005,2.875,0.8113030625,32.61
2021-07-06 16:26:32.921875000,-32.0,2.5,55.0,58.28546875,2.19,0.811062875,32.61
2021-07-06 16:26:32.929687500,-32.0,2.25,55.0,58.284921875,1.52,0.8108226875,32.61
2021-07-06 16:26:32.937500000,-32.0,2.0,55.0,58.284375000000004,0.85,0.8105825,32.61
2021-07-06 16:26:32.945312500,-32.0,2.25,55.0,58.283828125,0.25,0.8103423125,32.61
2021-07-06 16:26:32.953125000,-32.0,2.5,55.0,58.28328125,-0.35,0.810102125,32.61
2021-07-06 16:26:32.960937500,-32.0,2.75,55.0,58.282734375000004,-0.86,0.8098619375,32.61
2021-07-06 16:26:32.968750000,-32.0,3.0,55.0,58.2821875,-1.37,0.80962175,32.61
2021-07-06 16:26:32.976562500,-32.0,3.0,55.0,58.281640625,-1.835,0.8093815624999999,32.61
2021-07-06 16:26:32.984375000,-32.0,3.0,55.0,58.281093750000004,-2.3,0.8091413749999999,32.61
2021-07-06 16:26:32.992187500,-32.0,3.0,55.0,58.280546875,-2.815,0.8089011875,32.61
2021-07-06 16:26:33.000000000,-32.0,3.0,55.0,58.28,-3.33,0.808661,32.61
2021-07-06 16:26:33.007812500,-32.0,3.0,55.0,58.279921875,-4.0,0.8089011875,32.61
2021-07-06 16:26:33.015625000,-32.0,3.0,55.0,58.27984375,-4.67,0.8091413749999999,32.61
2021-07-06 16:26:33.023437500,-32.0,3.0,55.0,58.279765625,-5.5649999999999995,0.8093815624999999,32.61
