TimeStamp,empatica.acc.x,empatica.acc.y,empatica.acc.z,empatica.hr,empatica.bvp,empatica.eda,empatica.temp
2021-07-06 16:13:17.828125000,-32.0,2.5,55.0,62.770625,-12.45,1.243027,34.53
2021-07-06 16:13:17.835937500,-32.0,2.75,55.0,62.769687499999996,-13.52,1.243027,34.53
2021-07-06 16:13:17.843750000,-32.0,3.0,55.0,62.76875,-14.59,1.243027,34.53
2021-07-06 16:13:17.851562500,-32.0,3.0,55.0,62.7678125,-15.815,1.243027,34.53
2021-07-06 16:13:17.859375000,-32.0,3.0,55.0,62.766875,-17.04,1.243027,34.53
2021-07-06 16:13:17.867187500,-32.0,3.0,55.0,62.7659375,-18.45,1.243027,34.53
2021-07-06 16:13:17.875000000,-32.0,3.0,55.0,62.765,-19.86,1.243027,34.53
2021-07-06 16:13:17.882812500,-32.0,3.0,55.0,62.7640625,-21.47,1.243027,34.53
2021-07-06 16:13:17.890625000,-32.0,3.0,55.0,62.763125,-23.08,1.243027,34.53
2021-07-06 16:13:17.898437500,-32.0,3.0,55.0,62.7621875,-24.825,1.243027,34.53
2021-07-06 16:13:17.906250000,-32.0,3.0,55.0,62.76125,-26.57,1.243027,34.53
2021-07-06 16:13:17.914062500,-32.0,3.0,55.0,62.7603125,-28.28,1.243027,34.53
2021-07-06 16:13:17.921875000,-32.0,3.0,55.0,62.759375,-29.99,1.243027,34.53
2021-07-06 16:13:17.929687500,-32.0,3.0,55.0,62.7584375,-31.415,1.243027,34.53
2021-07-06 16:13:17.937500000,-32.0,3.0,55.0,62.7575,-32.84,1.243027,34.53
2021-07-06 16:13:17.945312500,-32.0,3.0,55.0,62.7565625,-33.66,1.243027,34.53
2021-07-06 16:13:17.953125000,-32.0,3.0,55.0,62.755625,-34.48,1.243027,34.53
2021-07-06 16:13:17.960937500,-32.0,3.0,55.0,62.7546875,-34.435,1.243027,34.53
2021-07-06 16:13:17.968750000,-32.0,3.0,55.0,62.75375,-34.39,1.243027,34.53
2021-07-06 16:13:17.976562500,-32.0,2.75,55.0,62.7528125,-33.370000000000005,1.243027,34.53
2021-07-06 16:13:17.984375000,-32.0,2.5,55.0,62.751875,-32.35,1.243027,34.53
2021-07-06 16:13:17.992187500,-32.0,2.25,55.0,62.7509375,-30.46,1.243027,34.53
2021-07-06 16:13:18.000000000,-32.0,2.0,55.0,62.75,-28.57,1.243027,34.53
2021-07-06 16:13:18.007812500,-32.0,2.25,55.0,62.7490625,-26.09,1.2427467812500002,34.5290625
2021-07-06 16:13:18.015625000,-32.0,2.5,55.0,62.748125,-23.61,1.2424665625000002,34.528125
2021-07-06 16:13:18.023437500,-32.0,2.75,55.0,62.7471875,-20.88,1.24218634375,34.527187500000004
2021-07-06 16:13:18.031250000,-32.0,3.0,55.0,62.74625,-18.15,1.241906125,34.526250000000005
2021-07-06 16:13:18.039062500,-32.0,3.0,55.0,62.7453125,-15.48,1.2416259062500001,34.5253125
2021-07-06 16:13:18.046875000,-32.0,3.0,55.0,62.744375,-12.81,1.2413456875,34.524375
2021-07-06 16:13:18.054687500,-32.0,3.0,55.0,62.7434375,-10.355,1.24106546875,34.5234375
2021-07-06 16:13:18.062500000,-32.0,3.0,55.0,62.7425,-7.9,1.24078525,34.5225
2021-07-06 16:13:18.070312500,-32.0,3.0,55.0,62.7415625,-5.69,1.2405050312500001,34.5215625
2021-07-06 16:13:18.078125000,-32.0,3.0,55.0,62.740625,-3.48,1.2402248125000002,34.520625
2021-07-06 16:13:18.085937500,-32.0,3.0,55.0,62.7396875,-1.46,1.23994459375,34.5196875
2021-07-06 16:13:18.093750000,-32.0,3.0,55.0,62.73875,0.56,1.239664375,34.51875
2021-07-06 16:13:18.101562500,-32.0,3.0,55.0,62.7378125,2.425,1.23938415625,34.5178125
2021-07-06 16:13:18.109375000,-32.0,3.0,55.0,62.736875,4.29,1.2391039375,34.516875
2021-07-06 16:13:18.117187500,-32.0,3.0,55.0,62.7359375,6.01,1.23882371875,34.5159375
2021-07-06 16:13:18.125000000,-32.0,3.0,55.0,62.735,7.73,1.2385435,34.515
2021-07-06 16:13:18.132812500,-32.0,3.0,55.25,62.7340625,9.265,1.23826328125,34.5140625
2021-07-06 16:13:18.140625000,-32.0,3.0,55.5,62.733125,10.8,1.2379830625000001,34.513125
2021-07-06 16:13:18.148437500,-32.0,3.0,55.75,62.7321875,12.100000000000001,1.23770284375,34.5121875
2021-07-06 16:13:18.156250000,-32.0,3.0,56.0,62.73125,13.4,1.237422625,34.511250000000004
2021-07-06 16:13:18.164062500,-32.0,3.0,55.75,62.730312500000004,14.46,1.23714240625,34.5103125
2021-07-06 16:13:18.171875000,-32.0,3.0,55.5,62.729375,15.52,1.2368621874999999,34.509375
2021-07-06 16:13:18.179687500,-32.0,3.0,55.25,62.7284375,16.345,1.23658196875,34.5084375
2021-07-06 16:13:18.187500000,-32.0,3.0,55.0,62.7275,17.17,1.23630175,34.5075
2021-07-06 16:13:18.195312500,-32.0,3.0,55.0,62.7265625,17.78,1.23602153125,34.5065625
2021-07-06 16:13:18.203125000,-32.0,3.0,55.0,62.725625,18.39,1.2357413125,34.505625
2021-07-06 16:13:18.210937500,-32.0,3.0,55.0,62.7246875,18.810000000000002,1.23546109375,34.5046875
2021-07-06 16:13:18.218750000,-32.0,3.0,55.0,62.72375,19.23,1.235180875,34.50375
2021-07-06 16:13:18.226562500,-32.0,3.0,55.0,62.7228125,19.485,1.23490065625,34.5028125
2021-07-06 16:13:18.234375000,-32.0,3.0,55.0,62.721875,19.74,1.2346204374999998,34.501875
2021-07-06 16:13:18.242187500,-32.0,3.0,55.0,62.7209375,19.86,1.2343402187499999,34.5009375
2021-07-06 16:13:18.250000000,-32.0,3.0,55.0,62.72,19.98,1.23406,34.5
2021-07-06 16:13:18.257812500,-32.0,2.75,55.25,62.7190625,20.015,1.234220125,34.5
2021-07-06 16:13:18.265625000,-32.0,2.5,55.5,62.718125,20.05,1.2343802499999998,34.5
2021-07-06 16:13:18.273437500,-32.0,2.25,55.75,62.7171875,20.04,1.234540375,34.5
2021-07-06 16:13:18.281250000,-32.0,2.0,56.0,62.71625,20.03,1.2347005,34.5
2021-07-06 16:13:18.289062500,-32.0,2.25,55.75,62.7153125,20.005000000000003,1.234860625,34.5
2021-07-06 16:13:18.296875000,-32.0,2.5,55.5,62.714375000000004,19.98,1.23502075,34.5
2021-07-06 16:13:18.304687500,-32.0,2.75,55.25,62.7134375,19.939999999999998,1.235180875,34.5
2021-07-06 16:13:18.312500000,-32.0,3.0,55.0,62.7125,19.9,1.235341,34.5
2021-07-06 16:13:18.320312500,-32.0,3.0,55.0,62.7115625,19.835,1.2355011249999999,34.5
2021-07-06 16:13:18.328125000,-32.0,3.0,55.0,62.710625,19.77,1.23566125,34.5
2021-07-06 16:13:18.335937500,-32.0,3.0,55.0,62.7096875,19.689999999999998,1.235821375,34.5
2021-07-06 16:13:18.343750000,-32.0,3.0,55.0,62.70875,19.61,1.2359815,34.5
2021-07-06 16:13:18.351562500,-32.0,3.0,55.25,62.7078125,19.525,1.236141625,34.5
2021-07-06 16:13:18.359375000,-32.0,3.0,55.5,62.706875000000004,19.44,1.23630175,34.5
2021-07-06 16:13:18.367187500,-32.0,3.0,55.75,62.7059375,19.375,1.236461875,34.5
2021-07-06 16:13:18.375000000,-32.0,3.0,56.0,62.705,19.31,1.236622,34.5
2021-07-06 16:13:18.382812500,-32.0,3.0,55.75,62.7040625,19.28,1.236782125,34.5
2021-07-06 16:13:18.390625000,-32.0,3.0,55.5,62.703125,19.25,1.23694225,34.5
2021-07-06 16:13:18.398437500,-32.0,3.0,55.25,62.7021875,19.244999999999997,1.237102375,34.5
2021-07-06 16:13:18.406250000,-32.0,3.0,55.0,62.70125,19.24,1.2372625,34.5
2021-07-06 16:13:18.414062500,-32.0,3.0,55.0,62.7003125,19.215,1.237422625,34.5
2021-07-06 16:13:18.421875000,-32.0,3.0,55.0,62.699375,19.19,1.23758275,34.5
2021-07-06 16:13:18.429687500,-32.0,3.0,55.0,62.698437500000004,19.1,1.2377428750000001,34.5
2021-07-06 16:13:18.437500000,-32.0,3.0,55.0,62.6975,19.01,1.237903,34.5
2021-07-06 16:13:18.445312500,-32.0,3.0,55.0,62.6965625,18.83,1.238063125,34.5
2021-07-06 16:13:18.453125000,-32.0,3.0,55.0,62.695625,18.65,1.23822325,34.5
2021-07-06 16:13:18.460937500,-32.0,3.0,55.0,62.6946875,18.384999999999998,1.238383375,34.5
2021-07-06 16:13:18.468750000,-32.0,3.0,55.0,62.69375,18.12,1.2385435,34.5
2021-07-06 16:13:18.476562500,-32.0,2.75,55.25,62.6928125,17.8,1.238703625,34.5
2021-07-06 16:13:18.484375000,-32.0,2.5,55.5,62.691875,17.48,1.2388637500000002,34.5
2021-07-06 16:13:18.492187500,-32.0,2.25,55.75,62.690937500000004,17.125,1.239023875,34.5
2021-07-06 16:13:18.500000000,-32.0,2.0,56.0,62.69,16.77,1.239184,34.5
2021-07-06 16:13:18.507812500,-32.0,2.25,55.75,62.6890625,16.37,1.2391039375000001,34.5
2021-07-06 16:13:18.515625000,-32.0,2.5,55.5,62.688125,15.97,1.239023875,34.5
2021-07-06 16:13:18.523437500,-32.0,2.75,55.25,62.6871875,15.49,1.2389438125,34.5
2021-07-06 16:13:18.531250000,-32.0,3.0,55.0,62.68625,15.01,1.2388637500000002,34.5
2021-07-06 16:13:18.539062500,-32.0,3.0,55.0,62.6853125,14.42,1.2387836875,34.5
2021-07-06 16:13:18.546875000,-32.0,3.0,55.0,62.684375,13.83,1.238703625,34.5
2021-07-06 16:13:18.554687500,-32.0,3.0,55.0,62.683437500000004,13.105,1.2386235625000002,34.5
2021-07-06 16:13:18.562500000,-32.0,3.0,55.0,62.682500000000005,12.38,1.2385435,34.5
2021-07-06 16:13:18.570312500,-32.0,3.0,55.0,62.6815625,11.545000000000002,1.2384634375,34.5
2021-07-06 16:13:18.578125000,-32.0,3.0,55.0,62.680625,10.71,1.2383833750000002,34.5
2021-07-06 16:13:18.585937500,-32.0,3.0,55.0,62.6796875,9.82,1.2383033125,34.5
2021-07-06 16:13:18.593750000,-32.0,3.0,55.0,62.67875,8.93,1.23822325,34.5
2021-07-06 16:13:18.601562500,-32.0,3.0,55.25,62.6778125,8.06,1.2381431875000002,34.5
2021-07-06 16:13:18.609375000,-32.0,3.0,55.5,62.676875,7.19,1.238063125,34.5
2021-07-06 16:13:18.617187500,-32.0,3.0,55.75,62.6759375,6.390000000000001,1.2379830625000001,34.5
2021-07-06 16:13:18.625000000,-32.0,3.0,56.0,62.675000000000004,5.59,1.2379030000000002,34.5
2021-07-06 16:13:18.632812500,-32.0,3.0,55.75,62.674062500000005,4.895,1.2378229375,34.5
2021-07-06 16:13:18.640625000,-32.0,3.0,55.5,62.673125,4.2,1.2377428750000001,34.5
2021-07-06 16:13:18.648437500,-32.0,3.0,55.25,62.6721875,3.585,1.2376628125,34.5
2021-07-06 16:13:18.656250000,-32.0,3.0,55.0,62.67125,2.97,1.23758275,34.5
2021-07-06 16:13:18.664062500,-32.0,2.75,55.25,62.6703125,2.3850000000000002,1.2375026875000001,34.5
2021-07-06 16:13:18.671875000,-32.0,2.5,55.5,62.669375,1.8,1.237422625,34.5
2021-07-06 16:13:18.679687500,-32.0,2.25,55.75,62.6684375,1.1600000000000001,1.2373425625,34.5
2021-07-06 16:13:18.687500000,-32.0,2.0,56.0,62.667500000000004,0.52,1.2372625000000002,34.5
2021-07-06 16:13:18.695312500,-32.0,2.25,55.75,62.666562500000005,-0.235,1.2371824375,34.5
2021-07-06 16:13:18.703125000,-32.0,2.5,55.5,62.665625,-0.99,1.237102375,34.5
2021-07-06 16:13:18.710937500,-32.0,2.75,55.25,62.6646875,-1.915,1.2370223125000002,34.5
2021-07-06 16:13:18.718750000,-32.0,3.0,55.0,62.66375,-2.84,1.23694225,34.5
2021-07-06 16:13:18.726562500,-31.75,2.75,55.25,62.6628125,-3.92,1.2368621875,34.5
2021-07-06 16:13:18.734375000,-31.5,2.5,55.5,62.661875,-5.0,1.2367821250000002,34.5
2021-07-06 16:13:18.742187500,-31.25,2.25,55.75,62.6609375,-6.17,1.2367020625,34.5
2021-07-06 16:13:18.750000000,-31.0,2.0,56.0,62.660000000000004,-7.34,1.236622,34.5
2021-07-06 16:13:18.757812500,-31.25,2.0,55.75,62.659062500000005,-8.515,1.236622,34.5
2021-07-06 16:13:18.765625000,-31.5,2.0,55.5,62.658125000000005,-9.69,1.236622,34.5
2021-07-06 16:13:18.773437500,-31.75,2.0,55.25,62.6571875,-10.78,1.236622,34.5
2021-07-06 16:13:18.781250000,-32.0,2.0,55.0,62.65625,-11.87,1.236622,34.5
2021-07-06 16:13:18.789062500,-32.0,2.25,55.0,62.6553125,-12.829999999999998,1.236622,34.5
2021-07-06 16:13:18.796875000,-32.0,2.5,55.0,62.654375,-13.79,1.236622,34.5
2021-07-06 16:13:18.804687500,-32.0,2.75,55.0,62.6534375,-14.635,1.236622,34.5
2021-07-06 16:13:18.812500000,-32.0,3.0,55.0,62.6525,-15.48,1.236622,34.5
2021-07-06 16:13:18.820312500,-32.0,3.0,55.0,62.651562500000004,-16.27,1.236622,34.5
2021-07-06 16:13:18.828125000,-32.0,3.0,55.0,62.650625000000005,-17.06,1.236622,34.5
2021-07-06 16:13:18.835937500,-32.0,3.0,55.0,62.6496875,-17.88,1.236622,34.5
2021-07-06 16:13:18.843750000,-32.0,3.0,55.0,62.64875,-18.7,1.236622,34.5
2021-07-06 16:13:18.851562500,-32.0,2.75,55.0,62.6478125,-19.64,1.236622,34.5
2021-07-06 16:13:18.859375000,-32.0,2.5,55.0,62.646875,-20.58,1.236622,34.5
2021-07-06 16:13:18.867187500,-32.0,2.25,55.0,62.6459375,-21.685,1.236622,34.5
2021-07-06 16:13:18.875000000,-32.0,2.0,55.0,62.645,-22.79,1.236622,34.5
2021-07-06 16:13:18.882812500,-32.0,2.25,55.25,62.644062500000004,-24.075,1.236622,34.5
2021-07-06 16:13:18.890625000,-32.0,2.5,55.5,62.643125000000005,-25.36,1.236622,34.5
2021-07-06 16:13:18.898437500,-32.0,2.75,55.75,62.642187500000006,-26.78,1.236622,34.5
2021-07-06 16:13:18.906250000,-32.0,3.0,56.0,62.64125,-28.2,1.236622,34.5
2021-07-06 16:13:18.914062500,-32.0,3.0,55.75,62.6403125,-29.645,1.236622,34.5
2021-07-06 16:13:18.921875000,-32.0,3.0,55.5,62.639375,-31.09,1.236622,34.5
2021-07-06 16:13:18.929687500,-32.0,3.0,55.25,62.6384375,-32.435,1.236622,34.5
2021-07-06 16:13:18.937500000,-32.0,3.0,55.0,62.6375,-33.78,1.236622,34.5
2021-07-06 16:13:18.945312500,-32.0,2.75,55.0,62.636562500000004,-34.845,1.236622,34.5
2021-07-06 16:13:18.953125000,-32.0,2.5,55.0,62.635625000000005,-35.91,1.236622,34.5
2021-07-06 16:13:18.960937500,-32.0,2.25,55.0,62.634687500000005,-36.545,1.236622,34.5
2021-07-06 16:13:18.968750000,-32.0,2.0,55.0,62.63375,-37.18,1.236622,34.5
2021-07-06 16:13:18.976562500,-31.75,2.25,55.25,62.6328125,-37.245000000000005,1.236622,34.5
2021-07-06 16:13:18.984375000,-31.5,2.5,55.5,62.631875,-37.31,1.236622,34.5
2021-07-06 16:13:18.992187500,-31.25,2.75,55.75,62.6309375,-36.745000000000005,1.236622,34.5
2021-07-06 16:13:19.000000000,-31.0,3.0,56.0,62.63,-36.18,1.236622,34.5
2021-07-06 16:13:19.007812500,-31.25,3.0,55.75,62.629140625000005,-35.004999999999995,1.2363017500000002,34.5
2021-07-06 16:13:19.015625000,-31.5,3.0,55.5,62.62828125,-33.83,1.2359815,34.5
2021-07-06 16:13:19.023437500,-31.75,3.0,55.25,62.627421875,-32.144999999999996,1.2356612500000002,34.5
2021-07-06 16:13:19.031250000,-32.0,3.0,55.0,62.626562500000006,-30.46,1.235341,34.5
2021-07-06 16:13:19.039062500,-32.0,3.0,55.0,62.625703125,-28.415,1.2350207500000001,34.5
2021-07-06 16:13:19.046875000,-32.0,3.0,55.0,62.624843750000004,-26.37,1.2347005000000002,34.5
2021-07-06 16:13:19.054687500,-32.0,3.0,55.0,62.623984375,-24.130000000000003,1.23438025,34.5
2021-07-06 16:13:19.062500000,-32.0,3.0,55.0,62.623125,-21.89,1.2340600000000002,34.5
2021-07-06 16:13:19.070312500,-32.0,2.75,55.0,62.622265625000004,-19.575000000000003,1.23373975,34.5
2021-07-06 16:13:19.078125000,-32.0,2.5,55.0,62.62140625,-17.26,1.2334195000000001,34.5
2021-07-06 16:13:19.085937500,-32.0,2.25,55.0,62.620546875,-14.950000000000001,1.2330992500000002,34.5
2021-07-06 16:13:19.093750000,-32.0,2.0,55.0,62.619687500000005,-12.64,1.232779,34.5
2021-07-06 16:13:19.101562500,-32.0,2.25,55.0,62.618828125,-10.375,1.2324587500000002,34.5
2021-07-06 16:13:19.109375000,-32.0,2.5,55.0,62.61796875,-8.11,1.2321385,34.5
2021-07-06 16:13:19.117187500,-32.0,2.75,55.0,62.617109375000005,-5.8999999999999995,1.2318182500000001,34.5
2021-07-06 16:13:19.125000000,-32.0,3.0,55.0,62.61625,-3.69,1.2314980000000002,34.5
2021-07-06 16:13:19.132812500,-32.0,3.0,55.0,62.615390625,-1.58,1.23117775,34.5
2021-07-06 16:13:19.140625000,-32.0,3.0,55.0,62.614531250000006,0.53,1.2308575000000002,34.5
2021-07-06 16:13:19.148437500,-32.0,3.0,55.0,62.613671875,2.4850000000000003,1.23053725,34.5
2021-07-06 16:13:19.156250000,-32.0,3.0,55.0,62.612812500000004,4.44,1.2302170000000001,34.5
2021-07-06 16:13:19.164062500,-32.0,3.0,55.25,62.611953125,6.15,1.22989675,34.5
2021-07-06 16:13:19.171875000,-32.0,3.0,55.5,62.61109375,7.86,1.2295765,34.5
2021-07-06 16:13:19.179687500,-32.0,3.0,55.75,62.610234375000005,9.24,1.2292562500000002,34.5
2021-07-06 16:13:19.187500000,-32.0,3.0,56.0,62.609375,10.62,1.228936,34.5
2021-07-06 16:13:19.195312500,-32.0,3.0,55.75,62.608515625,11.62,1.2286157500000001,34.5
2021-07-06 16:13:19.203125000,-32.0,3.0,55.5,62.607656250000005,12.62,1.2282955,34.5
2021-07-06 16:13:19.210937500,-32.0,3.0,55.25,62.606796875,13.235,1.22797525,34.5
2021-07-06 16:13:19.218750000,-32.0,3.0,55.0,62.6059375,13.85,1.2276550000000002,34.5
2021-07-06 16:13:19.226562500,-32.0,3.0,55.0,62.605078125000006,14.129999999999999,1.22733475,34.5
2021-07-06 16:13:19.234375000,-32.0,3.0,55.0,62.60421875,14.41,1.2270145000000001,34.5
2021-07-06 16:13:19.242187500,-32.0,3.0,55.0,62.603359375000004,14.469999999999999,1.22669425,34.5
2021-07-06 16:13:19.250000000,-32.0,3.0,55.0,62.602500000000006,14.53,1.226374,34.5
2021-07-06 16:13:19.257812500,-32.0,3.0,55.25,62.601640625,14.475,1.22669425,34.5
2021-07-06 16:13:19.265625000,-32.0,3.0,55.5,62.600781250000004,14.42,1.2270145000000001,34.5
2021-07-06 16:13:19.273437500,-32.0,3.0,55.75,62.599921875,14.355,1.22733475,34.5
2021-07-06 16:13:19.281250000,-32.0,3.0,56.0,62.5990625,14.29,1.2276550000000002,34.5
2021-07-06 16:13:19.289062500,-32.0,3.0,55.75,62.598203125000005,14.3,1.22797525,34.5
2021-07-06 16:13:19.296875000,-32.0,3.0,55.5,62.59734375,14.31,1.2282955,34.5
2021-07-06 16:13:19.304687500,-32.0,3.0,55.25,62.596484375,14.43,1.2286157500000001,34.5
2021-07-06 16:13:19.312500000,-32.0,3.0,55.0,62.595625000000005,14.55,1.228936,34.5
2021-07-06 16:13:19.320312500,-32.0,3.0,55.25,62.594765625,14.82,1.2292562500000002,34.5
2021-07-06 16:13:19.328125000,-32.0,3.0,55.5,62.59390625,15.09,1.2295765,34.5
2021-07-06 16:13:19.335937500,-32.0,3.0,55.75,62.593046875000006,15.515,1.22989675,34.5
2021-07-06 16:13:19.343750000,-32.0,3.0,56.0,62.5921875,15.94,1.2302170000000001,34.5
2021-07-06 16:13:19.351562500,-32.0,3.0,55.75,62.591328125000004,16.505,1.23053725,34.5
2021-07-06 16:13:19.359375000,-32.0,3.0,55.5,62.59046875,17.07,1.2308575000000002,34.5
2021-07-06 16:13:19.367187500,-32.0,3.0,55.25,62.589609375,17.73,1.23117775,34.5
2021-07-06 16:13:19.375000000,-32.0,3.0,55.0,62.588750000000005,18.39,1.2314980000000002,34.5
2021-07-06 16:13:19.382812500,-32.0,3.0,55.0,62.587890625,19.064999999999998,1.2318182500000001,34.5
2021-07-06 16:13:19.390625000,-32.0,3.0,55.0,62.58703125,19.74,1.2321385,34.5
2021-07-06 16:13:19.398437500,-32.0,3.0,55.0,62.586171875000005,20.33,1.2324587500000002,34.5
2021-07-06 16:13:19.406250000,-32.0,3.0,55.0,62.5853125,20.92,1.232779,34.5
2021-07-06 16:13:19.414062500,-32.0,3.0,55.25,62.584453125,21.340000000000003,1.2330992500000002,34.5
2021-07-06 16:13:19.421875000,-32.0,3.0,55.5,62.583593750000006,21.76,1.2334195000000001,34.5
2021-07-06 16:13:19.429687500,-32.0,3.0,55.75,62.582734375,21.945,1.23373975,34.5
2021-07-06 16:13:19.437500000,-32.0,3.0,56.0,62.581875000000004,22.13,1.2340600000000002,34.5
2021-07-06 16:13:19.445312500,-32.0,3.0,55.75,62.581015625000006,22.075,1.23438025,34.5
2021-07-06 16:13:19.453125000,-32.0,3.0,55.5,62.58015625,22.02,1.2347005000000002,34.5
2021-07-06 16:13:19.460937500,-32.0,3.0,55.25,62.579296875000004,21.740000000000002,1.2350207500000001,34.5
2021-07-06 16:13:19.468750000,-32.0,3.0,55.0,62.5784375,21.46,1.235341,34.5
2021-07-06 16:13:19.476562500,-32.0,3.0,55.0,62.577578125,21.02,1.2356612500000002,34.5
2021-07-06 16:13:19.484375000,-32.0,3.0,55.0,62.576718750000005,20.58,1.2359815,34.5
2021-07-06 16:13:19.492187500,-32.0,3.0,55.0,62.575859375,20.055,1.2363017500000002,34.5
2021-07-06 16:13:19.500000000,-32.0,3.0,55.0,62.575,19.53,1.236622,34.5
2021-07-06 16:13:19.507812500,-32.0,2.75,55.0,62.574140625000005,18.985,1.2362216875,34.5
2021-07-06 16:13:19.515625000,-32.0,2.5,55.0,62.57328125,18.44,1.235821375,34.5
2021-07-06 16:13:19.523437500,-32.0,2.25,55.0,62.572421875,17.975,1.2354210625000002,34.5
2021-07-06 16:13:19.531250000,-32.0,2.0,55.0,62.571562500000006,17.51,1.2350207500000001,34.5
2021-07-06 16:13:19.539062500,-32.0,2.25,55.0,62.570703125,17.18,1.2346204375,34.5
2021-07-06 16:13:19.546875000,-32.0,2.5,55.0,62.569843750000004,16.85,1.234220125,34.5
2021-07-06 16:13:19.554687500,-32.0,2.75,55.0,62.568984375,16.67,1.2338198125000002,34.5
2021-07-06 16:13:19.562500000,-32.0,3.0,55.0,62.568125,16.49,1.2334195000000001,34.5
2021-07-06 16:13:19.570312500,-32.0,3.0,55.25,62.567265625000005,16.42,1.2330191875,34.5
2021-07-06 16:13:19.578125000,-32.0,3.0,55.5,62.56640625,16.35,1.232618875,34.5
2021-07-06 16:13:19.585937500,-32.0,3.0,55.75,62.565546875,16.285,1.2322185625,34.5
2021-07-06 16:13:19.593750000,-32.0,3.0,56.0,62.564687500000005,16.22,1.2318182500000001,34.5
2021-07-06 16:13:19.601562500,-32.0,3.0,55.75,62.563828125,16.055,1.2314179375,34.5
2021-07-06 16:13:19.609375000,-32.0,3.0,55.5,62.56296875,15.89,1.231017625,34.5
2021-07-06 16:13:19.617187500,-32.0,3.0,55.25,62.562109375000006,15.535,1.2306173125,34.5
2021-07-06 16:13:19.625000000,-32.0,3.0,55.0,62.56125,15.18,1.2302170000000001,34.5
2021-07-06 16:13:19.632812500,-32.0,3.0,55.0,62.560390625000004,14.635,1.2298166875,34.5
2021-07-06 16:13:19.640625000,-32.0,3.0,55.0,62.559531250000006,14.09,1.229416375,34.5
2021-07-06 16:13:19.648437500,-32.0,3.0,55.0,62.558671875,13.4,1.2290160625,34.5
2021-07-06 16:13:19.656250000,-32.0,3.0,55.0,62.557812500000004,12.71,1.22861575,34.5
2021-07-06 16:13:19.664062500,-32.0,2.75,55.0,62.556953125,11.965,1.2282154375,34.5
2021-07-06 16:13:19.671875000,-32.0,2.5,55.0,62.55609375,11.22,1.227815125,34.5
2021-07-06 16:13:19.679687500,-32.0,2.25,55.0,62.555234375000005,10.485,1.2274148125,34.5
2021-07-06 16:13:19.687500000,-32.0,2.0,55.0,62.554375,9.75,1.2270145,34.5
2021-07-06 16:13:19.695312500,-32.0,2.25,55.0,62.553515625,9.035,1.2266141874999998,34.5
2021-07-06 16:13:19.703125000,-32.0,2.5,55.0,62.552656250000005,8.32,1.226213875,34.5
2021-07-06 16:13:19.710937500,-32.0,2.75,55.0,62.551796875,7.595000000000001,1.2258135625,34.5
2021-07-06 16:13:19.718750000,-32.0,3.0,55.0,62.5509375,6.87,1.22541325,34.5
2021-07-06 16:13:19.726562500,-32.0,3.0,55.0,62.550078125000006,6.09,1.2250129374999998,34.5
2021-07-06 16:13:19.734375000,-32.0,3.0,55.0,62.54921875,5.31,1.224612625,34.5
2021-07-06 16:13:19.742187500,-32.0,3.0,55.0,62.548359375000004,4.445,1.2242123125,34.5
2021-07-06 16:13:19.750000000,-32.0,3.0,55.0,62.5475,3.58,1.223812,34.5
2021-07-06 16:13:19.757812500,-32.0,3.0,55.25,62.546640625,2.665,1.2237719374999998,34.5
2021-07-06 16:13:19.765625000,-32.0,3.0,55.5,62.545781250000005,1.75,1.223731875,34.5
2021-07-06 16:13:19.773437500,-32.0,3.0,55.75,62.544921875,0.835,1.2236918124999998,34.5
2021-07-06 16:13:19.781250000,-32.0,3.0,56.0,62.5440625,-0.08,1.22365175,34.5
2021-07-06 16:13:19.789062500,-32.0,3.0,55.75,62.543203125000005,-0.9149999999999999,1.2236116874999998,34.5
2021-07-06 16:13:19.796875000,-32.0,3.0,55.5,62.54234375,-1.75,1.223571625,34.5
2021-07-06 16:13:19.804687500,-32.0,3.0,55.25,62.541484375,-2.48,1.2235315624999998,34.5
2021-07-06 16:13:19.812500000,-32.0,3.0,55.0,62.540625000000006,-3.21,1.2234915,34.5
2021-07-06 16:13:19.820312500,-32.0,3.0,55.0,62.539765625,-3.87,1.2234514374999998,34.5
2021-07-06 16:13:19.828125000,-32.0,3.0,55.0,62.538906250000004,-4.53,1.223411375,34.5
2021-07-06 16:13:19.835937500,-32.0,3.0,55.0,62.538046875000006,-5.205,1.2233713124999999,34.5
2021-07-06 16:13:19.843750000,-32.0,3.0,55.0,62.5371875,-5.88,1.22333125,34.5
2021-07-06 16:13:19.851562500,-32.0,3.0,55.0,62.536328125000004,-6.654999999999999,1.2232911874999999,34.5
2021-07-06 16:13:19.859375000,-32.0,3.0,55.0,62.53546875,-7.43,1.223251125,34.5
2021-07-06 16:13:19.867187500,-32.0,3.0,55.0,62.534609375,-8.36,1.2232110625,34.5
2021-07-06 16:13:19.875000000,-32.0,3.0,55.0,62.533750000000005,-9.29,1.2231709999999998,34.5
2021-07-06 16:13:19.882812500,-32.0,3.0,55.0,62.532890625,-10.395,1.2231309375,34.5
2021-07-06 16:13:19.890625000,-32.0,3.0,55.0,62.53203125,-11.5,1.2230908749999998,34.5
2021-07-06 16:13:19.898437500,-32.0,3.0,55.0,62.531171875000005,-12.74,1.2230508125,34.5
2021-07-06 16:13:19.906250000,-32.0,3.0,55.0,62.5303125,-13.98,1.2230107499999998,34.5
2021-07-06 16:13:19.914062500,-32.0,3.0,55.0,62.529453125,-15.295,1.2229706875,34.5
2021-07-06 16:13:19.921875000,-32.0,3.0,55.0,62.528593750000006,-16.61,1.2229306249999998,34.5
2021-07-06 16:13:19.929687500,-32.0,3.0,55.0,62.527734375,-17.95,1.2228905625,34.5
2021-07-06 16:13:19.937500000,-32.0,3.0,55.0,62.526875000000004,-19.29,1.2228504999999998,34.5
2021-07-06 16:13:19.945312500,-32.0,2.75,55.0,62.52601562500001,-20.605,1.2228104375,34.5
2021-07-06 16:13:19.953125000,-32.0,2.5,55.0,62.52515625,-21.92,1.2227703749999999,34.5
2021-07-06 16:13:19.960937500,-32.0,2.25,55.0,62.524296875000005,-23.125,1.2227303125,34.5
2021-07-06 16:13:19.968750000,-32.0,2.0,55.0,62.5234375,-24.33,1.2226902499999999,34.5
2021-07-06 16:13:19.976562500,-32.0,2.25,55.0,62.522578125,-25.295,1.2226501875,34.5
2021-07-06 16:13:19.984375000,-32.0,2.5,55.0,62.521718750000005,-26.26,1.2226101249999999,34.5
2021-07-06 16:13:19.992187500,-32.0,2.75,55.0,62.520859375,-26.82,1.2225700625,34.5
2021-07-06 16:13:20.000000000,-32.0,3.0,55.0,62.52,-27.38,1.22253,34.5
2021-07-06 16:13:20.007812500,-32.0,3.0,55.0,62.518828125000006,-27.38,1.2223298437499999,34.4996875
2021-07-06 16:13:20.015625000,-32.0,3.0,55.0,62.51765625,-27.38,1.2221296874999998,34.499375
2021-07-06 16:13:20.023437500,-32.0,3.0,55.0,62.516484375000005,-26.765,1.2219295312499998,34.4990625
2021-07-06 16:13:20.031250000,-32.0,3.0,55.0,62.5153125,-26.15,1.2217293749999998,34.49875
2021-07-06 16:13:20.039062500,-32.0,2.75,55.0,62.514140625,-24.979999999999997,1.22152921875,34.4984375
2021-07-06 16:13:20.046875000,-32.0,2.5,55.0,62.512968750000006,-23.81,1.2213290625,34.498125
2021-07-06 16:13:20.054687500,-32.0,2.25,55.0,62.511796875,-22.255,1.22112890625,34.4978125
2021-07-06 16:13:20.062500000,-32.0,2.0,55.0,62.510625000000005,-20.7,1.22092875,34.4975
2021-07-06 16:13:20.070312500,-32.0,2.25,55.25,62.509453125,-18.95,1.2207285937499999,34.4971875
2021-07-06 16:13:20.078125000,-32.0,2.5,55.5,62.50828125,-17.2,1.2205284374999998,34.496875
2021-07-06 16:13:20.085937500,-32.0,2.75,55.75,62.507109375000006,-15.399999999999999,1.2203282812499998,34.4965625
2021-07-06 16:13:20.093750000,-32.0,3.0,56.0,62.5059375,-13.6,1.220128125,34.49625
2021-07-06 16:13:20.101562500,-32.0,3.0,55.75,62.504765625000005,-11.815,1.21992796875,34.495937500000004
2021-07-06 16:13:20.109375000,-32.0,3.0,55.5,62.50359375,-10.03,1.2197278125,34.495625000000004
2021-07-06 16:13:20.117187500,-32.0,3.0,55.25,62.502421875,-8.23,1.21952765625,34.495312500000004
2021-07-06 16:13:20.125000000,-32.0,3.0,55.0,62.50125,-6.43,1.2193275,34.495000000000005
2021-07-06 16:13:20.132812500,-32.0,3.0,55.25,62.500078125,-4.57,1.2191273437499999,34.4946875
2021-07-06 16:13:20.140625000,-32.0,3.0,55.5,62.498906250000005,-2.71,1.2189271874999998,34.494375
2021-07-06 16:13:20.148437500,-32.0,3.0,55.75,62.497734375,-0.7650000000000001,1.2187270312499998,34.4940625
2021-07-06 16:13:20.156250000,-32.0,3.0,56.0,62.4965625,1.18,1.2185268749999998,34.49375
2021-07-06 16:13:20.164062500,-32.0,3.0,55.75,62.495390625,3.175,1.21832671875,34.4934375
2021-07-06 16:13:20.171875000,-32.0,3.0,55.5,62.49421875,5.17,1.2181265625,34.493125
2021-07-06 16:13:20.179687500,-32.0,3.0,55.25,62.493046875000005,7.12,1.21792640625,34.4928125
2021-07-06 16:13:20.187500000,-32.0,3.0,55.0,62.491875,9.07,1.21772625,34.4925
2021-07-06 16:13:20.195312500,-32.0,3.0,55.0,62.490703125,10.86,1.2175260937499999,34.4921875
2021-07-06 16:13:20.203125000,-32.0,3.0,55.0,62.48953125,12.65,1.2173259374999998,34.491875
2021-07-06 16:13:20.210937500,-32.0,3.0,55.0,62.488359375,14.18,1.2171257812499998,34.4915625
2021-07-06 16:13:20.218750000,-32.0,3.0,55.0,62.487187500000005,15.71,1.216925625,34.49125
2021-07-06 16:13:20.226562500,-32.0,3.0,55.0,62.486015625,16.915,1.21672546875,34.4909375
2021-07-06 16:13:20.234375000,-32.0,3.0,55.0,62.48484375,18.12,1.2165253125,34.490625
2021-07-06 16:13:20.242187500,-32.0,3.0,55.0,62.483671875,18.995,1.21632515625,34.4903125
2021-07-06 16:13:20.250000000,-32.0,3.0,55.0,62.4825,19.87,1.216125,34.49
2021-07-06 16:13:20.257812500,-32.0,3.0,55.0,62.481328125000005,20.450000000000003,1.216285125,34.49
2021-07-06 16:13:20.265625000,-32.0,3.0,55.0,62.48015625,21.03,1.2164452499999998,34.49
2021-07-06 16:13:20.273437500,-32.0,3.0,55.0,62.478984375,21.39,1.2166053749999999,34.49
2021-07-06 16:13:20.281250000,-32.0,3.0,55.0,62.4778125,21.75,1.2167655,34.49
2021-07-06 16:13:20.289062500,-32.0,3.0,55.0,62.476640625,21.994999999999997,1.216925625,34.49
2021-07-06 16:13:20.296875000,-32.0,3.0,55.0,62.475468750000005,22.24,1.2170857499999999,34.49
2021-07-06 16:13:20.304687500,-32.0,3.0,55.0,62.474296875,22.445,1.217245875,34.49
2021-07-06 16:13:20.312500000,-32.0,3.0,55.0,62.473125,22.65,1.217406,34.49
2021-07-06 16:13:20.320312500,-32.0,3.0,55.0,62.471953125,22.89,1.2175661249999998,34.49
2021-07-06 16:13:20.328125000,-32.0,3.0,55.0,62.47078125,23.13,1.21772625,34.49
2021-07-06 16:13:20.335937500,-32.0,3.0,55.0,62.469609375000005,23.43,1.217886375,34.49
2021-07-06 16:13:20.343750000,-32.0,3.0,55.0,62.4684375,23.73,1.2180465,34.49
2021-07-06 16:13:20.351562500,-32.0,3.0,55.0,62.467265625,24.1,1.2182066249999999,34.49
2021-07-06 16:13:20.359375000,-32.0,3.0,55.0,62.46609375,24.47,1.21836675,34.49
2021-07-06 16:13:20.367187500,-32.0,3.0,55.0,62.464921875,24.865000000000002,1.218526875,34.49
2021-07-06 16:13:20.375000000,-32.0,3.0,55.0,62.463750000000005,25.26,1.218687,34.49
2021-07-06 16:13:20.382812500,-32.0,3.0,55.0,62.462578125,25.630000000000003,1.218847125,34.49
2021-07-06 16:13:20.390625000,-32.0,3.0,55.0,62.46140625,26.0,1.21900725,34.49
2021-07-06 16:13:20.398437500,-32.0,3.0,55.0,62.460234375,26.28,1.219167375,34.49
2021-07-06 16:13:20.406250000,-32.0,3.0,55.0,62.4590625,26.56,1.2193275,34.49
2021-07-06 16:13:20.414062500,-32.0,3.0,55.0,62.457890625,26.72,1.219487625,34.49
2021-07-06 16:13:20.421875000,-32.0,3.0,55.0,62.45671875,26.88,1.21964775,34.49
2021-07-06 16:13:20.429687500,-32.0,3.0,55.0,62.455546875,26.924999999999997,1.219807875,34.49
2021-07-06 16:13:20.437500000,-32.0,3.0,55.0,62.454375,26.97,1.219968,34.49
2021-07-06 16:13:20.445312500,-32.0,3.0,55.0,62.453203125,26.92,1.220128125,34.49
2021-07-06 16:13:20.453125000,-32.0,3.0,55.0,62.45203125,26.87,1.22028825,34.49
2021-07-06 16:13:20.460937500,-32.0,3.0,55.0,62.450859375,26.770000000000003,1.220448375,34.49
2021-07-06 16:13:20.468750000,-32.0,3.0,55.0,62.4496875,26.67,1.2206085,34.49
2021-07-06 16:13:20.476562500,-32.0,3.0,55.0,62.448515625,26.54,1.220768625,34.49
2021-07-06 16:13:20.484375000,-32.0,3.0,55.0,62.44734375,26.41,1.2209287500000001,34.49
2021-07-06 16:13:20.492187500,-32.0,3.0,55.0,62.446171875,26.244999999999997,1.221088875,34.49
2021-07-06 16:13:20.500000000,-32.0,3.0,55.0,62.445,26.08,1.221249,34.49
2021-07-06 16:13:20.507812500,-32.0,3.0,55.0,62.443828125,25.835,1.2210088125,34.49
2021-07-06 16:13:20.515625000,-32.0,3.0,55.0,62.44265625,25.59,1.220768625,34.49
2021-07-06 16:13:20.523437500,-32.0,3.0,55.0,62.441484375,25.23,1.2205284375,34.49
2021-07-06 16:13:20.531250000,-32.0,3.0,55.0,62.4403125,24.87,1.22028825,34.49
2021-07-06 16:13:20.539062500,-32.0,3.0,55.0,62.439140625,24.380000000000003,1.2200480625,34.49
2021-07-06 16:13:20.546875000,-32.0,3.0,55.0,62.43796875,23.89,1.219807875,34.49
2021-07-06 16:13:20.554687500,-32.0,3.0,55.0,62.436796875,23.305,1.2195676875,34.49
2021-07-06 16:13:20.562500000,-32.0,3.0,55.0,62.435625,22.72,1.2193275,34.49
2021-07-06 16:13:20.570312500,-32.0,3.0,55.0,62.434453125,22.1,1.2190873125,34.49
2021-07-06 16:13:20.578125000,-32.0,3.0,55.0,62.43328125,21.48,1.218847125,34.49
2021-07-06 16:13:20.585937500,-32.0,3.0,55.0,62.432109375,20.880000000000003,1.2186069375,34.49
2021-07-06 16:13:20.593750000,-32.0,3.0,55.0,62.4309375,20.28,1.21836675,34.49
2021-07-06 16:13:20.601562500,-32.0,3.0,55.0,62.429765625,19.71,1.2181265625,34.49
2021-07-06 16:13:20.609375000,-32.0,3.0,55.0,62.42859375,19.14,1.217886375,34.49
2021-07-06 16:13:20.617187500,-32.0,3.0,55.0,62.427421875,18.560000000000002,1.2176461875,34.49
2021-07-06 16:13:20.625000000,-32.0,3.0,55.0,62.426249999999996,17.98,1.217406,34.49
2021-07-06 16:13:20.632812500,-32.0,2.75,55.0,62.425078125,17.310000000000002,1.2171658125,34.49
2021-07-06 16:13:20.640625000,-32.0,2.5,55.0,62.42390625,16.64,1.216925625,34.49
2021-07-06 16:13:20.648437500,-32.0,2.25,55.0,62.422734375,15.82,1.2166854375,34.49
2021-07-06 16:13:20.656250000,-32.0,2.0,55.0,62.4215625,15.0,1.21644525,34.49
2021-07-06 16:13:20.664062500,-32.0,2.25,55.0,62.420390624999996,14.02,1.2162050625,34.49
2021-07-06 16:13:20.671875000,-32.0,2.5,55.0,62.41921875,13.04,1.215964875,34.49
2021-07-06 16:13:20.679687500,-32.0,2.75,55.0,62.418046875,11.945,1.2157246875,34.49
2021-07-06 16:13:20.687500000,-32.0,3.0,55.0,62.416875,10.85,1.2154845,34.49
2021-07-06 16:13:20.695312500,-32.0,3.0,55.0,62.415703125,9.719999999999999,1.2152443124999999,34.49
2021-07-06 16:13:20.703125000,-32.0,3.0,55.0,62.414531249999996,8.59,1.2150041249999999,34.49
2021-07-06 16:13:20.710937500,-32.0,3.0,55.0,62.413359375,7.5,1.2147639375,34.49
2021-07-06 16:13:20.718750000,-32.0,3.0,55.0,62.4121875,6.41,1.21452375,34.49
2021-07-06 16:13:20.726562500,-32.0,3.0,55.0,62.411015625,5.37,1.2142835625,34.49
2021-07-06 16:13:20.734375000,-32.0,3.0,55.0,62.40984375,4.33,1.214043375,34.49
2021-07-06 16:13:20.742187500,-32.0,3.0,55.0,62.408671874999996,3.3,1.2138031875,34.49
2021-07-06 16:13:20.750000000,-32.0,3.0,55.0,62.4075,2.27,1.213563,34.49
2021-07-06 16:13:20.757812500,-32.0,3.0,55.0,62.406328125,1.175,1.2138031875,34.49
2021-07-06 16:13:20.765625000,-32.0,3.0,55.0,62.40515625,0.08,1.214043375,34.49
2021-07-06 16:13:20.773437500,-32.0,3.0,55.0,62.403984375,-1.14,1.2142835625,34.49
2021-07-06 16:13:20.781250000,-32.0,3.0,55.0,62.402812499999996,-2.36,1.21452375,34.49
2021-07-06 16:13:20.789062500,-32.0,3.0,55.0,62.401640625,-3.71,1.2147639375,34.49
2021-07-06 16:13:20.796875000,-32.0,3.0,55.0,62.40046875,-5.06,1.2150041249999999,34.49
2021-07-06 16:13:20.804687500,-32.0,3.0,55.0,62.399296875,-6.5,1.2152443124999999,34.49
2021-07-06 16:13:20.812500000,-32.0,3.0,55.0,62.398125,-7.94,1.2154845,34.49
2021-07-06 16:13:20.820312500,-32.0,3.0,55.0,62.396953124999996,-9.385,1.2157246875,34.49
2021-07-06 16:13:20.828125000,-32.0,3.0,55.0,62.39578125,-10.83,1.215964875,34.49
2021-07-06 16:13:20.835937500,-32.0,3.0,55.0,62.394609375,-12.219999999999999,1.2162050625,34.49
2021-07-06 16:13:20.843750000,-32.0,3.0,55.0,62.3934375,-13.61,1.21644525,34.49
2021-07-06 16:13:20.851562500,-32.0,3.0,55.0,62.392265625,-14.895,1.2166854375,34.49
2021-07-06 16:13:20.859375000,-32.0,3.0,55.0,62.391093749999996,-16.18,1.216925625,34.49
2021-07-06 16:13:20.867187500,-32.0,3.0,55.0,62.389921875,-17.365000000000002,1.2171658125,34.49
2021-07-06 16:13:20.875000000,-32.0,3.0,55.0,62.38875,-18.55,1.217406,34.49
2021-07-06 16:13:20.882812500,-32.0,3.0,55.0,62.387578125,-19.645,1.2176461875,34.49
2021-07-06 16:13:20.890625000,-32.0,3.0,55.0,62.38640625,-20.74,1.217886375,34.49
2021-07-06 16:13:20.898437500,-32.0,3.0,55.0,62.385234374999996,-21.81,1.2181265625,34.49
2021-07-06 16:13:20.906250000,-32.0,3.0,55.0,62.3840625,-22.88,1.21836675,34.49
2021-07-06 16:13:20.914062500,-32.0,3.0,55.0,62.382890624999995,-23.985,1.2186069375,34.49
2021-07-06 16:13:20.921875000,-32.0,3.0,55.0,62.38171875,-25.09,1.218847125,34.49
2021-07-06 16:13:20.929687500,-32.0,3.0,55.0,62.380546875,-26.3,1.2190873125,34.49
2021-07-06 16:13:20.937500000,-32.0,3.0,55.0,62.379374999999996,-27.51,1.2193275,34.49
2021-07-06 16:13:20.945312500,-32.0,3.0,55.0,62.378203125,-28.895000000000003,1.2195676875,34.49
2021-07-06 16:13:20.953125000,-32.0,3.0,55.0,62.377031249999995,-30.28,1.219807875,34.49
2021-07-06 16:13:20.960937500,-32.0,3.0,55.0,62.375859375,-31.86,1.2200480625,34.49
2021-07-06 16:13:20.968750000,-32.0,3.0,55.0,62.3746875,-33.44,1.22028825,34.49
2021-07-06 16:13:20.976562500,-32.0,3.0,55.0,62.373515624999996,-35.165,1.2205284375,34.49
2021-07-06 16:13:20.984375000,-32.0,3.0,55.0,62.37234375,-36.89,1.220768625,34.49
2021-07-06 16:13:20.992187500,-32.0,3.0,55.0,62.371171874999995,-38.615,1.2210088125,34.49
2021-07-06 16:13:21.000000000,-32.0,3.0,55.0,62.37,-40.34,1.221249,34.49
2021-07-06 16:13:21.007812500,-32.25,3.0,55.0,62.368828125,-41.870000000000005,1.22112890625,34.49
2021-07-06 16:13:21.015625000,-32.5,3.0,55.0,62.367656249999996,-43.4,1.2210088125,34.49
2021-07-06 16:13:21.023437500,-32.75,3.0,55.0,62.366484375,-44.495000000000005,1.22088871875,34.49
2021-07-06 16:13:21.031250000,-33.0,3.0,55.0,62.365312499999995,-45.59,1.220768625,34.49
2021-07-06 16:13:21.039062500,-32.75,3.0,55.0,62.364140625,-46.045,1.22064853125,34.49
2021-07-06 16:13:21.046875000,-32.5,3.0,55.0,62.36296875,-46.5,1.2205284375,34.49
2021-07-06 16:13:21.054687500,-32.25,3.0,55.0,62.361796874999996,-46.205,1.22040834375,34.49
2021-07-06 16:13:21.062500000,-32.0,3.0,55.0,62.360625,-45.91,1.22028825,34.49
2021-07-06 16:13:21.070312500,-32.0,3.0,55.0,62.359453124999995,-44.879999999999995,1.22016815625,34.49
2021-07-06 16:13:21.078125000,-32.0,3.0,55.0,62.35828125,-43.85,1.2200480625,34.49
2021-07-06 16:13:21.085937500,-32.0,3.0,55.0,62.357109375,-42.22,1.21992796875,34.49
2021-07-06 16:13:21.093750000,-32.0,3.0,55.0,62.355937499999996,-40.59,1.219807875,34.49
2021-07-06 16:13:21.101562500,-32.0,3.0,55.0,62.354765625,-38.57,1.21968778125,34.49
2021-07-06 16:13:21.109375000,-32.0,3.0,55.0,62.353593749999995,-36.55,1.2195676875,34.49
2021-07-06 16:13:21.117187500,-32.0,3.0,55.0,62.352421875,-34.36,1.21944759375,34.49
2021-07-06 16:13:21.125000000,-32.0,3.0,55.0,62.35125,-32.17,1.2193275,34.49
2021-07-06 16:13:21.132812500,-32.0,3.0,55.0,62.350078124999996,-29.990000000000002,1.21920740625,34.49
2021-07-06 16:13:21.140625000,-32.0,3.0,55.0,62.34890625,-27.81,1.2190873125,34.49
2021-07-06 16:13:21.148437500,-32.0,3.0,55.0,62.347734374999995,-25.729999999999997,1.21896721875,34.49
2021-07-06 16:13:21.156250000,-32.0,3.0,55.0,62.3465625,-23.65,1.218847125,34.49
2021-07-06 16:13:21.164062500,-32.0,3.0,55.0,62.345390625,-21.674999999999997,1.21872703125,34.49
2021-07-06 16:13:21.171875000,-32.0,3.0,55.0,62.344218749999996,-19.7,1.2186069375,34.49
2021-07-06 16:13:21.179687500,-32.0,3.0,55.0,62.343046875,-17.785,1.21848684375,34.49
2021-07-06 16:13:21.187500000,-32.0,3.0,55.0,62.341874999999995,-15.87,1.21836675,34.49
2021-07-06 16:13:21.195312500,-32.0,3.0,55.0,62.340703125,-13.989999999999998,1.21824665625,34.49
2021-07-06 16:13:21.203125000,-32.0,3.0,55.0,62.33953125,-12.11,1.2181265625,34.49
2021-07-06 16:13:21.210937500,-32.0,3.0,55.0,62.338359374999996,-10.27,1.21800646875,34.49
2021-07-06 16:13:21.218750000,-32.0,3.0,55.0,62.3371875,-8.43,1.217886375,34.49
2021-07-06 16:13:21.226562500,-32.0,3.0,55.0,62.336015624999995,-6.6850000000000005,1.21776628125,34.49
2021-07-06 16:13:21.234375000,-32.0,3.0,55.0,62.33484375,-4.94,1.2176461875,34.49
2021-07-06 16:13:21.242187500,-32.0,3.0,55.0,62.333671875,-3.345,1.21752609375,34.49
2021-07-06 16:13:21.250000000,-32.0,3.0,55.0,62.332499999999996,-1.75,1.217406,34.49
2021-07-06 16:13:21.257812500,-32.0,3.0,55.0,62.331328125,-0.345,1.21744603125,34.49
2021-07-06 16:13:21.265625000,-32.0,3.0,55.0,62.330156249999995,1.06,1.2174860625,34.49
2021-07-06 16:13:21.273437500,-32.0,3.0,55.0,62.328984375,2.285,1.21752609375,34.49
2021-07-06 16:13:21.281250000,-32.0,3.0,55.0,62.3278125,3.51,1.217566125,34.49
2021-07-06 16:13:21.289062500,-32.0,3.0,55.0,62.326640624999996,4.58,1.21760615625,34.49
2021-07-06 16:13:21.296875000,-32.0,3.0,55.0,62.32546875,5.65,1.2176461875,34.49
2021-07-06 16:13:21.304687500,-32.0,3.0,55.0,62.324296874999995,6.6,1.21768621875,34.49
2021-07-06 16:13:21.312500000,-32.0,3.0,55.0,62.323125,7.55,1.2177262500000001,34.49
2021-07-06 16:13:21.320312500,-32.0,2.75,55.0,62.321953125,8.39,1.21776628125,34.49
2021-07-06 16:13:21.328125000,-32.0,2.5,55.0,62.320781249999996,9.23,1.2178063125,34.49
2021-07-06 16:13:21.335937500,-32.0,2.25,55.0,62.319609375,9.925,1.21784634375,34.49
2021-07-06 16:13:21.343750000,-32.0,2.0,55.0,62.318437499999995,10.62,1.217886375,34.49
2021-07-06 16:13:21.351562500,-32.0,2.25,55.0,62.317265625,11.149999999999999,1.21792640625,34.49
2021-07-06 16:13:21.359375000,-32.0,2.5,55.0,62.31609375,11.68,1.2179664375,34.49
2021-07-06 16:13:21.367187500,-32.0,2.75,55.0,62.314921874999996,12.024999999999999,1.21800646875,34.49
2021-07-06 16:13:21.375000000,-32.0,3.0,55.0,62.31375,12.37,1.2180465,34.49
2021-07-06 16:13:21.382812500,-32.0,3.0,55.0,62.312578124999995,12.57,1.21808653125,34.49
2021-07-06 16:13:21.390625000,-32.0,3.0,55.0,62.31140625,12.77,1.2181265625,34.49
2021-07-06 16:13:21.398437500,-32.0,3.0,55.0,62.310234375,12.895,1.2181665937500001,34.49
2021-07-06 16:13:21.406250000,-32.0,3.0,55.0,62.309062499999996,13.02,1.218206625,34.49
2021-07-06 16:13:21.414062500,-32.0,3.0,55.0,62.307890625,13.149999999999999,1.21824665625,34.49
2021-07-06 16:13:21.421875000,-32.0,3.0,55.0,62.306718749999995,13.28,1.2182866875,34.49
2021-07-06 16:13:21.429687500,-32.0,3.0,55.0,62.305546875,13.469999999999999,1.21832671875,34.49
2021-07-06 16:13:21.437500000,-32.0,3.0,55.0,62.304375,13.66,1.21836675,34.49
2021-07-06 16:13:21.445312500,-32.0,3.0,55.0,62.303203124999996,13.905000000000001,1.2184067812500001,34.49
2021-07-06 16:13:21.453125000,-32.0,3.0,55.0,62.30203125,14.15,1.2184468125,34.49
2021-07-06 16:13:21.460937500,-32.0,3.0,55.0,62.300859374999995,14.405000000000001,1.21848684375,34.49
2021-07-06 16:13:21.468750000,-32.0,3.0,55.0,62.2996875,14.66,1.218526875,34.49
2021-07-06 16:13:21.476562500,-32.0,3.0,55.0,62.298515625,14.84,1.21856690625,34.49
2021-07-06 16:13:21.484375000,-32.0,3.0,55.0,62.297343749999996,15.02,1.2186069375000002,34.49
2021-07-06 16:13:21.492187500,-32.0,3.0,55.0,62.296171875,15.059999999999999,1.2186469687500001,34.49
2021-07-06 16:13:21.500000000,-32.0,3.0,55.0,62.295,15.1,1.218687,34.49
2021-07-06 16:13:21.507812500,-32.0,3.0,55.0,62.293828125,14.945,1.21848684375,34.49
2021-07-06 16:13:21.515625000,-32.0,3.0,55.0,62.29265625,14.79,1.2182866875,34.49
2021-07-06 16:13:21.523437500,-32.0,3.0,55.0,62.291484374999996,14.469999999999999,1.21808653125,34.49
2021-07-06 16:13:21.531250000,-32.0,3.0,55.0,62.2903125,14.15,1.217886375,34.49
2021-07-06 16:13:21.539062500,-32.0,3.0,55.0,62.289140625,13.715,1.2176862187500002,34.49
2021-07-06 16:13:21.546875000,-32.0,3.0,55.0,62.28796875,13.28,1.2174860625000001,34.49
2021-07-06 16:13:21.554687500,-32.0,3.0,55.0,62.286796875,12.82,1.21728590625,34.49
2021-07-06 16:13:21.562500000,-32.0,3.0,55.0,62.285624999999996,12.36,1.21708575,34.49
2021-07-06 16:13:21.570312500,-32.0,3.0,55.0,62.284453125,11.955,1.21688559375,34.49
2021-07-06 16:13:21.578125000,-32.0,3.0,55.0,62.28328125,11.55,1.2166854375,34.49
2021-07-06 16:13:21.585937500,-32.0,3.0,55.0,62.282109375,11.255,1.21648528125,34.49
2021-07-06 16:13:21.593750000,-32.0,3.0,55.0,62.2809375,10.96,1.2162851250000002,34.49
2021-07-06 16:13:21.601562500,-32.0,3.0,55.0,62.279765624999996,10.745000000000001,1.2160849687500002,34.49
2021-07-06 16:13:21.609375000,-32.0,3.0,55.0,62.27859375,10.53,1.2158848125000001,34.49
2021-07-06 16:13:21.617187500,-32.0,3.0,55.0,62.277421875,10.34,1.21568465625,34.49
2021-07-06 16:13:21.625000000,-32.0,3.0,55.0,62.27625,10.15,1.2154845,34.49
2021-07-06 16:13:21.632812500,-32.0,3.0,55.0,62.275078125,9.9,1.21528434375,34.49
2021-07-06 16:13:21.640625000,-32.0,3.0,55.0,62.273906249999996,9.65,1.2150841875,34.49
2021-07-06 16:13:21.648437500,-32.0,3.0,55.0,62.272734375,9.275,1.21488403125,34.49
2021-07-06 16:13:21.656250000,-32.0,3.0,55.0,62.2715625,8.9,1.214683875,34.49
2021-07-06 16:13:21.664062500,-32.0,3.0,55.0,62.270390625,8.395,1.2144837187500002,34.49
2021-07-06 16:13:21.671875000,-32.0,3.0,55.0,62.26921875,7.89,1.2142835625000001,34.49
2021-07-06 16:13:21.679687500,-32.0,3.0,55.0,62.268046874999996,7.285,1.21408340625,34.49
2021-07-06 16:13:21.687500000,-32.0,3.0,55.0,62.266875,6.68,1.21388325,34.49
2021-07-06 16:13:21.695312500,-32.0,3.0,55.0,62.265703125,6.05,1.21368309375,34.49
2021-07-06 16:13:21.703125000,-32.0,3.0,55.0,62.26453125,5.42,1.2134829375,34.49
2021-07-06 16:13:21.710937500,-32.0,3.0,55.0,62.263359375,4.82,1.21328278125,34.49
2021-07-06 16:13:21.718750000,-32.0,3.0,55.0,62.262187499999996,4.22,1.2130826250000002,34.49
2021-07-06 16:13:21.726562500,-32.0,3.0,55.0,62.261015625,3.665,1.2128824687500002,34.49
2021-07-06 16:13:21.734375000,-32.0,3.0,55.0,62.25984375,3.11,1.2126823125000001,34.49
2021-07-06 16:13:21.742187500,-32.0,3.0,55.0,62.258671875,2.57,1.21248215625,34.49
2021-07-06 16:13:21.750000000,-32.0,3.0,55.0,62.2575,2.03,1.212282,34.49
2021-07-06 16:13:21.757812500,-32.0,3.0,55.0,62.256328124999996,1.45,1.2123620625,34.49
2021-07-06 16:13:21.765625000,-32.0,3.0,55.0,62.25515625,0.87,1.2124421250000001,34.49
2021-07-06 16:13:21.773437500,-32.0,3.0,55.0,62.253984375,0.20000000000000007,1.2125221875,34.49
2021-07-06 16:13:21.781250000,-32.0,3.0,55.0,62.2528125,-0.47,1.21260225,34.49
2021-07-06 16:13:21.789062500,-32.0,3.0,55.0,62.251640625,-1.27,1.2126823125000001,34.49
2021-07-06 16:13:21.796875000,-32.0,3.0,55.0,62.250468749999996,-2.07,1.212762375,34.49
2021-07-06 16:13:21.804687500,-32.0,3.0,55.0,62.249296875,-3.0,1.2128424375,34.49
2021-07-06 16:13:21.812500000,-32.0,3.0,55.0,62.248125,-3.93,1.2129225000000001,34.49
2021-07-06 16:13:21.820312500,-32.0,3.0,55.0,62.246953125,-4.965,1.2130025625,34.49
2021-07-06 16:13:21.828125000,-32.0,3.0,55.0,62.24578125,-6.0,1.213082625,34.49
2021-07-06 16:13:21.835937500,-32.0,3.0,55.0,62.244609374999996,-7.09,1.2131626875000001,34.49
2021-07-06 16:13:21.843750000,-32.0,3.0,55.0,62.2434375,-8.18,1.21324275,34.49
2021-07-06 16:13:21.851562500,-32.0,3.0,55.0,62.242265625,-9.285,1.2133228125,34.49
2021-07-06 16:13:21.859375000,-32.0,3.0,55.0,62.24109375,-10.39,1.213402875,34.49
2021-07-06 16:13:21.867187500,-32.0,3.0,55.0,62.239921875,-11.47,1.2134829375,34.49
2021-07-06 16:13:21.875000000,-32.0,3.0,55.0,62.238749999999996,-12.55,1.2135630000000002,34.49
2021-07-06 16:13:21.882812500,-32.0,3.0,55.0,62.237578125,-13.600000000000001,1.2136430625,34.49
2021-07-06 16:13:21.890625000,-32.0,3.0,55.0,62.23640625,-14.65,1.213723125,34.49
2021-07-06 16:13:21.898437500,-32.0,3.0,55.0,62.235234375,-15.684999999999999,1.2138031875000002,34.49
2021-07-06 16:13:21.906250000,-32.0,3.0,55.0,62.2340625,-16.72,1.21388325,34.49
2021-07-06 16:13:21.914062500,-32.0,3.0,55.0,62.232890624999996,-17.755,1.2139633125,34.49
2021-07-06 16:13:21.921875000,-32.0,3.0,55.0,62.23171875,-18.79,1.2140433750000001,34.49
2021-07-06 16:13:21.929687500,-32.0,3.0,55.0,62.230546875,-19.865000000000002,1.2141234375,34.49
2021-07-06 16:13:21.937500000,-32.0,3.0,55.0,62.229375,-20.94,1.2142035,34.49
2021-07-06 16:13:21.945312500,-32.0,3.0,55.0,62.228203125,-22.060000000000002,1.2142835625000001,34.49
2021-07-06 16:13:21.953125000,-32.0,3.0,55.0,62.227031249999996,-23.18,1.214363625,34.49
2021-07-06 16:13:21.960937500,-32.0,3.0,55.0,62.225859375,-24.34,1.2144436875,34.49
2021-07-06 16:13:21.968750000,-32.0,3.0,55.0,62.2246875,-25.5,1.2145237500000001,34.49
2021-07-06 16:13:21.976562500,-32.0,3.0,55.0,62.223515625,-26.685000000000002,1.2146038125,34.49
2021-07-06 16:13:21.984375000,-32.0,3.0,55.0,62.22234375,-27.87,1.214683875,34.49
2021-07-06 16:13:21.992187500,-32.0,3.0,55.0,62.221171874999996,-29.045,1.2147639375000001,34.49
2021-07-06 16:13:22.000000000,-32.0,3.0,55.0,62.22,-30.22,1.214844,34.49
2021-07-06 16:13:22.007812500,-32.0,3.0,55.0,62.218671875,-31.314999999999998,1.21456378125,34.49
2021-07-06 16:13:22.015625000,-32.0,3.0,55.0,62.21734375,-32.41,1.2142835625000001,34.49
2021-07-06 16:13:22.023437500,-32.0,3.0,55.0,62.216015625,-33.34,1.21400334375,34.49
2021-07-06 16:13:22.031250000,-32.0,3.0,55.0,62.2146875,-34.27,1.213723125,34.49
2021-07-06 16:13:22.039062500,-32.0,3.0,55.0,62.213359374999996,-34.92,1.21344290625,34.49
2021-07-06 16:13:22.046875000,-32.0,3.0,55.0,62.212031249999995,-35.57,1.2131626875000001,34.49
2021-07-06 16:13:22.054687500,-32.0,3.0,55.0,62.210703125,-35.795,1.21288246875,34.49
2021-07-06 16:13:22.062500000,-32.0,3.0,55.0,62.209375,-36.02,1.21260225,34.49
2021-07-06 16:13:22.070312500,-32.0,3.0,55.0,62.208046875,-35.735,1.21232203125,34.49
2021-07-06 16:13:22.078125000,-32.0,3.0,55.0,62.20671875,-35.45,1.2120418125,34.49
2021-07-06 16:13:22.085937500,-32.0,3.0,55.0,62.205390625,-34.620000000000005,1.2117615937500001,34.49
2021-07-06 16:13:22.093750000,-32.0,3.0,55.0,62.2040625,-33.79,1.211481375,34.49
2021-07-06 16:13:22.101562500,-32.0,3.0,55.0,62.202734375,-32.480000000000004,1.21120115625,34.49
2021-07-06 16:13:22.109375000,-32.0,3.0,55.0,62.20140625,-31.17,1.2109209375,34.49
2021-07-06 16:13:22.117187500,-32.0,3.0,55.0,62.200078125,-29.490000000000002,1.2106407187500001,34.49
2021-07-06 16:13:22.125000000,-32.0,3.0,55.0,62.19875,-27.81,1.2103605000000002,34.49
2021-07-06 16:13:22.132812500,-32.0,3.0,55.0,62.197421874999996,-25.91,1.21008028125,34.49
2021-07-06 16:13:22.140625000,-32.0,3.0,55.0,62.196093749999996,-24.01,1.2098000625,34.49
2021-07-06 16:13:22.148437500,-32.0,3.0,55.0,62.194765624999995,-21.995,1.20951984375,34.49
2021-07-06 16:13:22.156250000,-32.0,3.0,55.0,62.1934375,-19.98,1.2092396250000002,34.49
2021-07-06 16:13:22.164062500,-32.0,3.0,55.0,62.192109375,-17.895,1.20895940625,34.49
2021-07-06 16:13:22.171875000,-32.0,3.0,55.0,62.19078125,-15.81,1.2086791875,34.49
2021-07-06 16:13:22.179687500,-32.0,3.0,55.0,62.189453125,-13.7,1.20839896875,34.49
2021-07-06 16:13:22.187500000,-32.0,3.0,55.0,62.188125,-11.59,1.2081187500000001,34.49
2021-07-06 16:13:22.195312500,-32.0,3.0,55.0,62.186796875,-9.475,1.2078385312500002,34.49
2021-07-06 16:13:22.203125000,-32.0,3.0,55.0,62.18546875,-7.36,1.2075583125,34.49
2021-07-06 16:13:22.210937500,-32.0,3.0,55.0,62.184140625,-5.3100000000000005,1.20727809375,34.49
2021-07-06 16:13:22.218750000,-32.0,3.0,55.0,62.1828125,-3.26,1.206997875,34.49
2021-07-06 16:13:22.226562500,-32.0,3.0,55.0,62.181484375,-1.3699999999999999,1.2067176562500002,34.49
2021-07-06 16:13:22.234375000,-32.0,3.0,55.0,62.180156249999996,0.52,1.2064374375,34.49
2021-07-06 16:13:22.242187500,-32.0,3.0,55.0,62.178828124999995,2.115,1.20615721875,34.49
2021-07-06 16:13:22.250000000,-32.0,3.0,55.0,62.177499999999995,3.71,1.205877,34.49
2021-07-06 16:13:22.257812500,-32.0,3.0,55.0,62.176171875,4.925,1.2060371250000002,34.49
2021-07-06 16:13:22.265625000,-32.0,3.0,55.0,62.17484375,6.14,1.20619725,34.49
2021-07-06 16:13:22.273437500,-32.0,3.0,55.0,62.173515625,6.93,1.206357375,34.49
2021-07-06 16:13:22.281250000,-32.0,3.0,55.0,62.1721875,7.72,1.2065175000000001,34.49
2021-07-06 16:13:22.289062500,-32.0,3.0,55.0,62.170859375,8.12,1.206677625,34.49
2021-07-06 16:13:22.296875000,-32.0,3.0,55.0,62.16953125,8.52,1.20683775,34.49
2021-07-06 16:13:22.304687500,-32.0,3.0,55.0,62.168203125,8.635,1.206997875,34.49
2021-07-06 16:13:22.312500000,-32.0,3.0,55.0,62.166875,8.75,1.2071580000000002,34.49
2021-07-06 16:13:22.320312500,-32.0,3.0,55.0,62.165546875,8.715,1.207318125,34.49
2021-07-06 16:13:22.328125000,-32.0,3.0,55.0,62.164218749999996,8.68,1.20747825,34.49
2021-07-06 16:13:22.335937500,-32.0,3.0,55.0,62.162890624999996,8.629999999999999,1.2076383750000002,34.49
2021-07-06 16:13:22.343750000,-32.0,3.0,55.0,62.161562499999995,8.58,1.2077985,34.49
2021-07-06 16:13:22.351562500,-32.0,3.0,55.0,62.160234375,8.6,1.207958625,34.49
2021-07-06 16:13:22.359375000,-32.0,3.0,55.0,62.15890625,8.62,1.2081187500000001,34.49
2021-07-06 16:13:22.367187500,-32.0,3.0,55.0,62.157578125,8.745,1.208278875,34.49
2021-07-06 16:13:22.375000000,-32.0,3.0,55.0,62.15625,8.87,1.208439,34.49
2021-07-06 16:13:22.382812500,-32.0,3.0,55.0,62.154921875,9.094999999999999,1.208599125,34.49
2021-07-06 16:13:22.390625000,-32.0,3.0,55.0,62.15359375,9.32,1.20875925,34.49
2021-07-06 16:13:22.398437500,-32.0,3.0,55.0,62.152265625,9.600000000000001,1.208919375,34.49
2021-07-06 16:13:22.406250000,-32.0,3.0,55.0,62.1509375,9.88,1.2090795,34.49
2021-07-06 16:13:22.414062500,-32.0,3.0,55.0,62.149609375,10.18,1.209239625,34.49
2021-07-06 16:13:22.421875000,-32.0,3.0,55.0,62.14828125,10.48,1.20939975,34.49
2021-07-06 16:13:22.429687500,-32.0,3.0,55.0,62.146953124999996,10.77,1.209559875,34.49
2021-07-06 16:13:22.437500000,-32.0,3.0,55.0,62.145624999999995,11.06,1.20972,34.49
2021-07-06 16:13:22.445312500,-32.0,3.0,55.0,62.144296874999995,11.31,1.209880125,34.49
2021-07-06 16:13:22.453125000,-32.0,3.0,55.0,62.14296875,11.56,1.21004025,34.49
2021-07-06 16:13:22.460937500,-32.0,3.0,55.0,62.141640625,11.735,1.210200375,34.49
2021-07-06 16:13:22.468750000,-32.0,3.0,55.0,62.1403125,11.91,1.2103605,34.49
2021-07-06 16:13:22.476562500,-32.0,3.0,55.0,62.138984375,11.96,1.210520625,34.49
2021-07-06 16:13:22.484375000,-32.0,3.0,55.0,62.13765625,12.01,1.21068075,34.49
2021-07-06 16:13:22.492187500,-32.0,3.0,55.0,62.136328125,11.905000000000001,1.210840875,34.49
2021-07-06 16:13:22.500000000,-32.0,3.0,55.0,62.135,11.8,1.211001,34.49
2021-07-06 16:13:22.507812500,-32.0,3.0,55.0,62.133671875,11.54,1.21068075,34.49
2021-07-06 16:13:22.515625000,-32.0,3.0,55.0,62.13234375,11.28,1.2103605,34.49
2021-07-06 16:13:22.523437500,-32.0,3.0,55.0,62.131015624999996,10.925,1.21004025,34.49
2021-07-06 16:13:22.531250000,-32.0,3.0,55.0,62.129687499999996,10.57,1.20972,34.49
2021-07-06 16:13:22.539062500,-32.0,3.0,55.0,62.128359374999995,10.2,1.20939975,34.49
2021-07-06 16:13:22.546875000,-32.0,3.0,55.0,62.127031249999995,9.83,1.2090795,34.49
2021-07-06 16:13:22.554687500,-32.0,3.0,55.0,62.125703125,9.525,1.20875925,34.49
2021-07-06 16:13:22.562500000,-32.0,3.0,55.0,62.124375,9.22,1.208439,34.49
2021-07-06 16:13:22.570312500,-32.0,3.0,55.25,62.123046875,9.035,1.20811875,34.49
2021-07-06 16:13:22.578125000,-32.0,3.0,55.5,62.12171875,8.85,1.2077985,34.49
2021-07-06 16:13:22.585937500,-32.0,3.0,55.75,62.120390625,8.780000000000001,1.20747825,34.49
2021-07-06 16:13:22.593750000,-32.0,3.0,56.0,62.1190625,8.71,1.207158,34.49
2021-07-06 16:13:22.601562500,-32.0,3.0,56.0,62.117734375,8.695,1.20683775,34.49
2021-07-06 16:13:22.609375000,-32.0,3.0,56.0,62.11640625,8.68,1.2065175,34.49
2021-07-06 16:13:22.617187500,-32.0,3.0,56.0,62.115078125,8.64,1.20619725,34.49
2021-07-06 16:13:22.625000000,-32.0,3.0,56.0,62.113749999999996,8.6,1.205877,34.49
2021-07-06 16:13:22.632812500,-32.0,3.0,55.75,62.112421874999995,8.425,1.20555675,34.49
2021-07-06 16:13:22.640625000,-32.0,3.0,55.5,62.111093749999995,8.25,1.2052365,34.49
2021-07-06 16:13:22.648437500,-32.0,3.0,55.25,62.109765624999994,7.87,1.20491625,34.49
2021-07-06 16:13:22.656250000,-32.0,3.0,55.0,62.1084375,7.49,1.204596,34.49
2021-07-06 16:13:22.664062500,-32.0,3.0,55.0,62.107109375,6.890000000000001,1.2042757499999999,34.49
2021-07-06 16:13:22.671875000,-32.0,3.0,55.0,62.10578125,6.29,1.2039555,34.49
2021-07-06 16:13:22.679687500,-32.0,3.0,55.0,62.104453125,5.535,1.20363525,34.49
2021-07-06 16:13:22.687500000,-32.0,3.0,55.0,62.103125,4.78,1.203315,34.49
2021-07-06 16:13:22.695312500,-32.0,2.75,55.0,62.101796875,3.99,1.20299475,34.49
2021-07-06 16:13:22.703125000,-32.0,2.5,55.0,62.10046875,3.2,1.2026744999999999,34.49
2021-07-06 16:13:22.710937500,-32.0,2.25,55.0,62.099140625,2.505,1.20235425,34.49
2021-07-06 16:13:22.718750000,-32.0,2.0,55.0,62.097812499999996,1.81,1.202034,34.49
2021-07-06 16:13:22.726562500,-32.0,2.25,55.25,62.096484374999996,1.275,1.20171375,34.49
2021-07-06 16:13:22.734375000,-32.0,2.5,55.5,62.095156249999995,0.74,1.2013935,34.49
2021-07-06 16:13:22.742187500,-32.0,2.75,55.75,62.093828124999995,0.33,1.2010732499999999,34.49
2021-07-06 16:13:22.750000000,-32.0,3.0,56.0,62.0925,-0.08,1.200753,34.49
2021-07-06 16:13:22.757812500,-32.0,3.0,55.75,62.091171875,-0.45,1.2008330624999999,34.49
2021-07-06 16:13:22.765625000,-32.0,3.0,55.5,62.08984375,-0.82,1.200913125,34.49
2021-07-06 16:13:22.773437500,-32.0,3.0,55.25,62.088515625,-1.285,1.2009931875,34.49
2021-07-06 16:13:22.781250000,-32.0,3.0,55.0,62.0871875,-1.75,1.2010732499999999,34.49
2021-07-06 16:13:22.789062500,-32.0,3.0,55.0,62.085859375,-2.3899999999999997,1.2011533125,34.49
2021-07-06 16:13:22.796875000,-32.0,3.0,55.0,62.08453125,-3.03,1.201233375,34.49
2021-07-06 16:13:22.804687500,-32.0,3.0,55.0,62.083203125,-3.8600000000000003,1.2013134374999999,34.49
2021-07-06 16:13:22.812500000,-32.0,3.0,55.0,62.081875,-4.69,1.2013935,34.49
2021-07-06 16:13:22.820312500,-32.0,3.0,55.0,62.080546874999996,-5.645,1.2014735625,34.49
2021-07-06 16:13:22.828125000,-32.0,3.0,55.0,62.079218749999995,-6.6,1.2015536249999998,34.49
2021-07-06 16:13:22.835937500,-32.0,3.0,55.0,62.077890624999995,-7.6049999999999995,1.2016336875,34.49
2021-07-06 16:13:22.843750000,-32.0,3.0,55.0,62.076562499999994,-8.61,1.20171375,34.49
2021-07-06 16:13:22.851562500,-32.0,3.0,55.0,62.075234375,-9.61,1.2017938124999998,34.49
2021-07-06 16:13:22.859375000,-32.0,3.0,55.0,62.07390625,-10.61,1.201873875,34.49
2021-07-06 16:13:22.867187500,-32.0,3.0,55.0,62.072578125,-11.6,1.2019539375,34.49
2021-07-06 16:13:22.875000000,-32.0,3.0,55.0,62.07125,-12.59,1.2020339999999998,34.49
2021-07-06 16:13:22.882812500,-32.0,3.0,55.0,62.069921875,-13.6,1.2021140625,34.49
2021-07-06 16:13:22.890625000,-32.0,3.0,55.0,62.06859375,-14.61,1.202194125,34.49
2021-07-06 16:13:22.898437500,-32.0,3.0,55.0,62.067265625,-15.685,1.2022741875,34.49
2021-07-06 16:13:22.906250000,-32.0,3.0,55.0,62.0659375,-16.76,1.20235425,34.49
2021-07-06 16:13:22.914062500,-32.0,3.0,55.0,62.064609374999996,-17.94,1.2024343124999999,34.49
2021-07-06 16:13:22.921875000,-32.0,3.0,55.0,62.063281249999996,-19.12,1.202514375,34.49
2021-07-06 16:13:22.929687500,-32.0,3.0,55.0,62.061953124999995,-20.380000000000003,1.2025944375,34.49
2021-07-06 16:13:22.937500000,-32.0,3.0,55.0,62.060624999999995,-21.64,1.2026744999999999,34.49
2021-07-06 16:13:22.945312500,-32.0,3.0,55.0,62.059296874999994,-22.905,1.2027545625,34.49
2021-07-06 16:13:22.953125000,-32.0,3.0,55.0,62.05796875,-24.17,1.202834625,34.49
2021-07-06 16:13:22.960937500,-32.0,3.0,55.0,62.056640625,-25.285,1.2029146874999999,34.49
2021-07-06 16:13:22.968750000,-32.0,3.0,55.0,62.0553125,-26.4,1.20299475,34.49
2021-07-06 16:13:22.976562500,-32.0,2.75,55.0,62.053984375,-27.185,1.2030748125,34.49
2021-07-06 16:13:22.984375000,-32.0,2.5,55.0,62.05265625,-27.97,1.2031548749999998,34.49
2021-07-06 16:13:22.992187500,-32.0,2.25,55.0,62.051328125,-28.255,1.2032349375,34.49
2021-07-06 16:13:23.000000000,-32.0,2.0,55.0,62.05,-28.54,1.203315,34.49
2021-07-06 16:13:23.007812500,-32.0,2.25,55.0,62.048671875,-28.215,1.2031148437499999,34.49
2021-07-06 16:13:23.015625000,-32.0,2.5,55.0,62.047343749999996,-27.89,1.2029146874999999,34.49
2021-07-06 16:13:23.023437500,-32.0,2.75,55.0,62.046015624999995,-26.965,1.2027145312499998,34.49
2021-07-06 16:13:23.031250000,-32.0,3.0,55.0,62.044687499999995,-26.04,1.2025143749999998,34.49
2021-07-06 16:13:23.039062500,-32.0,3.0,55.0,62.043359374999994,-24.615000000000002,1.20231421875,34.49
2021-07-06 16:13:23.046875000,-32.0,3.0,55.0,62.04203125,-23.19,1.2021140625,34.49
2021-07-06 16:13:23.054687500,-32.0,3.0,55.0,62.040703125,-21.43,1.20191390625,34.49
2021-07-06 16:13:23.062500000,-32.0,3.0,55.0,62.039375,-19.67,1.20171375,34.49
2021-07-06 16:13:23.070312500,-32.0,3.0,55.0,62.038046875,-17.755000000000003,1.2015135937499999,34.49
2021-07-06 16:13:23.078125000,-32.0,3.0,55.0,62.03671875,-15.84,1.2013134374999999,34.49
2021-07-06 16:13:23.085937500,-32.0,3.0,55.0,62.035390625,-13.905000000000001,1.2011132812499998,34.49
2021-07-06 16:13:23.093750000,-32.0,3.0,55.0,62.0340625,-11.97,1.200913125,34.49
2021-07-06 16:13:23.101562500,-32.0,3.0,55.0,62.032734375,-10.105,1.20071296875,34.49
2021-07-06 16:13:23.109375000,-32.0,3.0,55.0,62.031406249999996,-8.24,1.2005128125,34.49
2021-07-06 16:13:23.117187500,-32.0,3.0,55.0,62.030078124999996,-6.465,1.20031265625,34.49
2021-07-06 16:13:23.125000000,-32.0,3.0,55.0,62.028749999999995,-4.69,1.2001125,34.49
2021-07-06 16:13:23.132812500,-32.0,3.0,55.0,62.027421874999995,-3.0200000000000005,1.1999123437499999,34.49
2021-07-06 16:13:23.140625000,-32.0,3.0,55.0,62.02609375,-1.35,1.1997121874999999,34.49
2021-07-06 16:13:23.148437500,-32.0,3.0,55.0,62.024765625,0.21499999999999986,1.1995120312499998,34.49
2021-07-06 16:13:23.156250000,-32.0,3.0,55.0,62.0234375,1.78,1.1993118749999998,34.49
2021-07-06 16:13:23.164062500,-32.0,3.0,55.0,62.022109375,3.2199999999999998,1.19911171875,34.49
2021-07-06 16:13:23.171875000,-32.0,3.0,55.0,62.02078125,4.66,1.1989115625,34.49
2021-07-06 16:13:23.179687500,-32.0,3.0,55.0,62.019453125,5.965,1.19871140625,34.49
2021-07-06 16:13:23.187500000,-32.0,3.0,55.0,62.018125,7.27,1.19851125,34.49
2021-07-06 16:13:23.195312500,-32.0,2.75,55.0,62.016796875,8.42,1.19831109375,34.49
2021-07-06 16:13:23.203125000,-32.0,2.5,55.0,62.01546875,9.57,1.1981109374999999,34.49
2021-07-06 16:13:23.210937500,-32.0,2.25,55.0,62.014140624999996,10.55,1.1979107812499998,34.49
2021-07-06 16:13:23.218750000,-32.0,2.0,55.0,62.012812499999995,11.53,1.197710625,34.49
2021-07-06 16:13:23.226562500,-32.0,2.25,55.0,62.011484374999995,12.309999999999999,1.19751046875,34.49
2021-07-06 16:13:23.234375000,-32.0,2.5,55.0,62.01015625,13.09,1.1973103125,34.49
2021-07-06 16:13:23.242187500,-32.0,2.75,55.0,62.008828125,13.665,1.19711015625,34.49
2021-07-06 16:13:23.250000000,-32.0,3.0,55.0,62.0075,14.24,1.19691,34.49
2021-07-06 16:13:23.257812500,-32.0,3.0,55.25,62.006171875,14.585,1.19703009375,34.49
2021-07-06 16:13:23.265625000,-32.0,3.0,55.5,62.00484375,14.93,1.1971501875,34.49
2021-07-06 16:13:23.273437500,-32.0,3.0,55.75,62.003515625,15.045,1.19727028125,34.49
2021-07-06 16:13:23.281250000,-32.0,3.0,56.0,62.0021875,15.16,1.197390375,34.49
2021-07-06 16:13:23.289062500,-32.0,3.0,56.0,62.000859375,15.065000000000001,1.19751046875,34.49
2021-07-06 16:13:23.296875000,-32.0,3.0,56.0,61.99953125,14.97,1.1976305624999999,34.49
2021-07-06 16:13:23.304687500,-32.0,3.0,56.0,61.998203124999996,14.73,1.19775065625,34.49
2021-07-06 16:13:23.312500000,-32.0,3.0,56.0,61.996874999999996,14.49,1.1978707499999999,34.49
2021-07-06 16:13:23.320312500,-32.0,3.0,55.75,61.995546875,14.185,1.19799084375,34.49
2021-07-06 16:13:23.328125000,-32.0,3.0,55.5,61.99421875,13.88,1.1981109374999999,34.49
2021-07-06 16:13:23.335937500,-32.0,3.0,55.25,61.992890625,13.63,1.19823103125,34.49
2021-07-06 16:13:23.343750000,-32.0,3.0,55.0,61.9915625,13.38,1.1983511249999999,34.49
2021-07-06 16:13:23.351562500,-32.0,3.0,55.0,61.990234375,13.255,1.19847121875,34.49
2021-07-06 16:13:23.359375000,-32.0,3.0,55.0,61.98890625,13.13,1.1985913124999998,34.49
2021-07-06 16:13:23.367187500,-32.0,3.0,55.0,61.987578125,13.155000000000001,1.19871140625,34.49
2021-07-06 16:13:23.375000000,-32.0,3.0,55.0,61.98625,13.18,1.1988314999999998,34.49
2021-07-06 16:13:23.382812500,-32.0,3.0,55.0,61.984921875,13.305,1.19895159375,34.49
2021-07-06 16:13:23.390625000,-32.0,3.0,55.0,61.98359375,13.43,1.1990716875,34.49
2021-07-06 16:13:23.398437500,-32.0,3.0,55.0,61.982265625,13.565,1.19919178125,34.49
2021-07-06 16:13:23.406250000,-32.0,3.0,55.0,61.980937499999996,13.7,1.199311875,34.49
2021-07-06 16:13:23.414062500,-32.0,3.0,55.0,61.979609375,13.77,1.19943196875,34.49
2021-07-06 16:13:23.421875000,-32.0,3.0,55.0,61.97828125,13.84,1.1995520625,34.49
2021-07-06 16:13:23.429687500,-32.0,3.0,55.0,61.976953125,13.815,1.19967215625,34.49
2021-07-06 16:13:23.437500000,-32.0,3.0,55.0,61.975625,13.79,1.19979225,34.49
2021-07-06 16:13:23.445312500,-32.0,3.0,55.25,61.974296875,13.704999999999998,1.1999123437499999,34.49
2021-07-06 16:13:23.453125000,-32.0,3.0,55.5,61.97296875,13.62,1.2000324375,34.49
2021-07-06 16:13:23.460937500,-32.0,3.0,55.75,61.971640625,13.55,1.2001525312499999,34.49
2021-07-06 16:13:23.468750000,-32.0,3.0,56.0,61.9703125,13.48,1.200272625,34.49
2021-07-06 16:13:23.476562500,-32.0,3.0,56.0,61.968984375,13.485,1.2003927187499999,34.49
2021-07-06 16:13:23.484375000,-32.0,3.0,56.0,61.96765625,13.49,1.2005128125,34.49
2021-07-06 16:13:23.492187500,-32.0,3.0,56.0,61.966328125,13.565000000000001,1.2006329062499999,34.49
2021-07-06 16:13:23.500000000,-32.0,3.0,56.0,61.965,13.64,1.200753,34.49
2021-07-06 16:13:23.507812500,-32.0,2.75,55.75,61.963671875,13.72,1.200592875,34.49
2021-07-06 16:13:23.515625000,-32.0,2.5,55.5,61.96234375,13.8,1.20043275,34.49
2021-07-06 16:13:23.523437500,-32.0,2.25,55.25,61.961015625,13.825,1.200272625,34.49
2021-07-06 16:13:23.531250000,-32.0,2.0,55.0,61.9596875,13.85,1.2001125,34.49
2021-07-06 16:13:23.539062500,-32.0,2.0,55.0,61.958359375,13.75,1.199952375,34.49
2021-07-06 16:13:23.546875000,-32.0,2.0,55.0,61.95703125,13.65,1.19979225,34.49
2021-07-06 16:13:23.554687500,-32.0,2.0,55.0,61.955703125,13.440000000000001,1.199632125,34.49
2021-07-06 16:13:23.562500000,-32.0,2.0,55.0,61.954375,13.23,1.199472,34.49
2021-07-06 16:13:23.570312500,-32.0,2.25,55.0,61.953046875,12.945,1.199311875,34.49
2021-07-06 16:13:23.578125000,-32.0,2.5,55.0,61.95171875,12.66,1.19915175,34.49
2021-07-06 16:13:23.585937500,-32.0,2.75,55.0,61.950390625,12.33,1.198991625,34.49
2021-07-06 16:13:23.593750000,-32.0,3.0,55.0,61.949062500000004,12.0,1.1988315,34.49
2021-07-06 16:13:23.601562500,-32.0,3.0,55.0,61.947734375,11.629999999999999,1.198671375,34.49
2021-07-06 16:13:23.609375000,-32.0,3.0,55.0,61.94640625,11.26,1.19851125,34.49
2021-07-06 16:13:23.617187500,-32.0,3.0,55.0,61.945078125,10.825,1.198351125,34.49
2021-07-06 16:13:23.625000000,-32.0,3.0,55.0,61.94375,10.39,1.198191,34.49
2021-07-06 16:13:23.632812500,-32.0,2.75,55.0,61.942421875,9.875,1.198030875,34.49
2021-07-06 16:13:23.640625000,-32.0,2.5,55.0,61.94109375,9.36,1.19787075,34.49
2021-07-06 16:13:23.648437500,-32.0,2.25,55.0,61.939765625,8.795,1.197710625,34.49
2021-07-06 16:13:23.656250000,-32.0,2.0,55.0,61.9384375,8.23,1.1975505,34.49
2021-07-06 16:13:23.664062500,-32.0,2.25,55.0,61.937109375,7.7,1.1973903750000001,34.49
2021-07-06 16:13:23.671875000,-32.0,2.5,55.0,61.93578125,7.17,1.19723025,34.49
2021-07-06 16:13:23.679687500,-32.0,2.75,55.0,61.934453125,6.76,1.197070125,34.49
2021-07-06 16:13:23.687500000,-32.0,3.0,55.0,61.933125000000004,6.35,1.19691,34.49
2021-07-06 16:13:23.695312500,-32.0,3.0,55.0,61.931796875,6.115,1.196749875,34.49
2021-07-06 16:13:23.703125000,-32.0,3.0,55.0,61.93046875,5.88,1.19658975,34.49
2021-07-06 16:13:23.710937500,-32.0,3.0,55.0,61.929140625,5.785,1.196429625,34.49
2021-07-06 16:13:23.718750000,-32.0,3.0,55.0,61.9278125,5.69,1.1962695,34.49
2021-07-06 16:13:23.726562500,-32.0,3.0,55.0,61.926484375,5.635,1.196109375,34.49
2021-07-06 16:13:23.734375000,-32.0,3.0,55.0,61.92515625,5.58,1.19594925,34.49
2021-07-06 16:13:23.742187500,-32.0,3.0,55.0,61.923828125,5.4350000000000005,1.1957891250000001,34.49
2021-07-06 16:13:23.750000000,-32.0,3.0,55.0,61.9225,5.29,1.195629,34.49
2021-07-06 16:13:23.757812500,-32.0,2.75,55.0,61.921171875,4.93,1.1957490937500002,34.49
2021-07-06 16:13:23.765625000,-32.0,2.5,55.0,61.91984375,4.57,1.1958691875,34.49
2021-07-06 16:13:23.773437500,-32.0,2.25,55.0,61.918515625000005,3.955,1.1959892812500001,34.49
2021-07-06 16:13:23.781250000,-32.0,2.0,55.0,61.917187500000004,3.34,1.196109375,34.49
2021-07-06 16:13:23.789062500,-32.0,2.25,55.0,61.915859375000004,2.505,1.1962294687500001,34.49
2021-07-06 16:13:23.796875000,-32.0,2.5,55.0,61.91453125,1.67,1.1963495625,34.49
2021-07-06 16:13:23.804687500,-32.0,2.75,55.0,61.913203125,0.705,1.1964696562500001,34.49
2021-07-06 16:13:23.812500000,-32.0,3.0,55.0,61.911875,-0.26,1.19658975,34.49
2021-07-06 16:13:23.820312500,-32.0,3.0,55.0,61.910546875,-1.255,1.1967098437500001,34.49
2021-07-06 16:13:23.828125000,-32.0,3.0,55.0,61.90921875,-2.25,1.1968299375,34.49
2021-07-06 16:13:23.835937500,-32.0,3.0,55.0,61.907890625,-3.2,1.19695003125,34.49
2021-07-06 16:13:23.843750000,-32.0,3.0,55.0,61.9065625,-4.15,1.197070125,34.49
2021-07-06 16:13:23.851562500,-32.0,3.0,55.0,61.905234375,-5.035,1.19719021875,34.49
2021-07-06 16:13:23.859375000,-32.0,3.0,55.0,61.90390625,-5.92,1.1973103125,34.49
2021-07-06 16:13:23.867187500,-32.0,3.0,55.0,61.902578125000005,-6.779999999999999,1.19743040625,34.49
2021-07-06 16:13:23.875000000,-32.0,3.0,55.0,61.901250000000005,-7.64,1.1975505000000002,34.49
2021-07-06 16:13:23.882812500,-32.0,3.0,55.0,61.899921875000004,-8.51,1.19767059375,34.49
2021-07-06 16:13:23.890625000,-32.0,3.0,55.0,61.89859375,-9.38,1.1977906875000002,34.49
2021-07-06 16:13:23.898437500,-32.0,3.0,55.0,61.897265625,-10.29,1.19791078125,34.49
2021-07-06 16:13:23.906250000,-32.0,3.0,55.0,61.8959375,-11.2,1.1980308750000002,34.49
2021-07-06 16:13:23.914062500,-32.0,3.0,55.0,61.894609375,-12.129999999999999,1.19815096875,34.49
2021-07-06 16:13:23.921875000,-32.0,3.0,55.0,61.89328125,-13.06,1.1982710625000002,34.49
2021-07-06 16:13:23.929687500,-32.0,3.0,55.0,61.891953125,-13.98,1.19839115625,34.49
2021-07-06 16:13:23.937500000,-32.0,3.0,55.0,61.890625,-14.9,1.1985112500000001,34.49
2021-07-06 16:13:23.945312500,-32.0,2.75,55.0,61.889296875,-15.785,1.19863134375,34.49
2021-07-06 16:13:23.953125000,-32.0,2.5,55.0,61.88796875,-16.67,1.1987514375000001,34.49
2021-07-06 16:13:23.960937500,-32.0,2.25,55.0,61.886640625000005,-17.535,1.19887153125,34.49
2021-07-06 16:13:23.968750000,-32.0,2.0,55.0,61.885312500000005,-18.4,1.1989916250000001,34.49
2021-07-06 16:13:23.976562500,-32.0,2.25,55.25,61.883984375000004,-19.275,1.19911171875,34.49
2021-07-06 16:13:23.984375000,-32.0,2.5,55.5,61.882656250000004,-20.15,1.1992318125,34.49
2021-07-06 16:13:23.992187500,-32.0,2.75,55.75,61.881328125,-21.06,1.19935190625,34.49
2021-07-06 16:13:24.000000000,-32.0,3.0,56.0,61.88,-21.97,1.199472,34.49
2021-07-06 16:13:24.007812500,-32.0,3.0,55.75,61.878750000000004,-22.88,1.1991517500000002,34.49
2021-07-06 16:13:24.015625000,-32.0,3.0,55.5,61.877500000000005,-23.79,1.1988315,34.49
2021-07-06 16:13:24.023437500,-32.0,3.0,55.25,61.876250000000006,-24.58,1.1985112500000001,34.49
2021-07-06 16:13:24.031250000,-32.0,3.0,55.0,61.875,-25.37,1.198191,34.49
2021-07-06 16:13:24.039062500,-32.0,3.0,55.0,61.87375,-25.880000000000003,1.19787075,34.49
2021-07-06 16:13:24.046875000,-32.0,3.0,55.0,61.8725,-26.39,1.1975505000000002,34.49
2021-07-06 16:13:24.054687500,-32.0,3.0,55.0,61.87125,-26.48,1.19723025,34.49
2021-07-06 16:13:24.062500000,-32.0,3.0,55.0,61.870000000000005,-26.57,1.1969100000000001,34.49
2021-07-06 16:13:24.070312500,-32.0,3.0,55.0,61.868750000000006,-26.17,1.19658975,34.49
2021-07-06 16:13:24.078125000,-32.0,3.0,55.0,61.8675,-25.77,1.1962695,34.49
2021-07-06 16:13:24.085937500,-32.0,3.0,55.0,61.86625,-24.91,1.1959492500000002,34.49
2021-07-06 16:13:24.093750000,-32.0,3.0,55.0,61.865,-24.05,1.195629,34.49
2021-07-06 16:13:24.101562500,-32.0,3.0,55.0,61.86375,-22.83,1.1953087500000001,34.49
2021-07-06 16:13:24.109375000,-32.0,3.0,55.0,61.862500000000004,-21.61,1.1949885,34.49
2021-07-06 16:13:24.117187500,-32.0,3.0,55.0,61.861250000000005,-20.155,1.19466825,34.49
2021-07-06 16:13:24.125000000,-32.0,3.0,55.0,61.86,-18.7,1.1943480000000002,34.49
2021-07-06 16:13:24.132812500,-32.0,3.0,55.0,61.85875,-17.13,1.19402775,34.49
2021-07-06 16:13:24.140625000,-32.0,3.0,55.0,61.8575,-15.56,1.1937075000000001,34.49
2021-07-06 16:13:24.148437500,-32.0,3.0,55.0,61.85625,-13.955,1.19338725,34.49
2021-07-06 16:13:24.156250000,-32.0,3.0,55.0,61.855000000000004,-12.35,1.193067,34.49
2021-07-06 16:13:24.164062500,-32.0,2.75,55.0,61.853750000000005,-10.754999999999999,1.19274675,34.49
2021-07-06 16:13:24.171875000,-32.0,2.5,55.0,61.8525,-9.16,1.1924265,34.49
2021-07-06 16:13:24.179687500,-32.0,2.25,55.0,61.85125,-7.615,1.1921062500000001,34.49
2021-07-06 16:13:24.187500000,-32.0,2.0,55.0,61.85,-6.07,1.191786,34.49
2021-07-06 16:13:24.195312500,-32.0,2.25,55.0,61.84875,-4.57,1.19146575,34.49
2021-07-06 16:13:24.203125000,-32.0,2.5,55.0,61.847500000000004,-3.07,1.1911455,34.49
2021-07-06 16:13:24.210937500,-32.0,2.75,55.0,61.846250000000005,-1.6099999999999999,1.19082525,34.49
2021-07-06 16:13:24.218750000,-32.0,3.0,55.0,61.845,-0.15,1.1905050000000001,34.49
2021-07-06 16:13:24.226562500,-32.0,3.0,55.25,61.84375,1.2750000000000001,1.19018475,34.49
2021-07-06 16:13:24.234375000,-32.0,3.0,55.5,61.8425,2.7,1.1898645,34.49
2021-07-06 16:13:24.242187500,-32.0,3.0,55.75,61.84125,4.04,1.18954425,34.49
2021-07-06 16:13:24.250000000,-32.0,3.0,56.0,61.84,5.38,1.189224,34.49
2021-07-06 16:13:24.257812500,-32.0,3.0,55.75,61.838750000000005,6.58,1.18942415625,34.49
2021-07-06 16:13:24.265625000,-32.0,3.0,55.5,61.8375,7.78,1.1896243125000001,34.49
2021-07-06 16:13:24.273437500,-32.0,3.0,55.25,61.83625,8.72,1.1898244687500001,34.49
2021-07-06 16:13:24.281250000,-32.0,3.0,55.0,61.835,9.66,1.190024625,34.49
2021-07-06 16:13:24.289062500,-32.0,3.0,55.0,61.83375,10.265,1.19022478125,34.49
2021-07-06 16:13:24.296875000,-32.0,3.0,55.0,61.8325,10.87,1.1904249375,34.49
2021-07-06 16:13:24.304687500,-32.0,3.0,55.0,61.831250000000004,11.129999999999999,1.19062509375,34.49
2021-07-06 16:13:24.312500000,-32.0,3.0,55.0,61.83,11.39,1.19082525,34.49
2021-07-06 16:13:24.320312500,-32.0,3.0,55.0,61.82875,11.36,1.19102540625,34.49
2021-07-06 16:13:24.328125000,-32.0,3.0,55.0,61.8275,11.33,1.1912255625000001,34.49
2021-07-06 16:13:24.335937500,-32.0,3.0,55.0,61.82625,11.125,1.1914257187500001,34.49
2021-07-06 16:13:24.343750000,-32.0,3.0,55.0,61.825,10.92,1.1916258750000002,34.49
2021-07-06 16:13:24.351562500,-32.0,3.0,55.0,61.823750000000004,10.66,1.19182603125,34.49
2021-07-06 16:13:24.359375000,-32.0,3.0,55.0,61.8225,10.4,1.1920261875,34.49
2021-07-06 16:13:24.367187500,-32.0,3.0,55.0,61.82125,10.165,1.19222634375,34.49
2021-07-06 16:13:24.375000000,-32.0,3.0,55.0,61.82,9.93,1.1924265,34.49
2021-07-06 16:13:24.382812500,-32.0,3.0,55.0,61.81875,9.765,1.19262665625,34.49
2021-07-06 16:13:24.390625000,-32.0,3.0,55.0,61.8175,9.6,1.1928268125,34.49
2021-07-06 16:13:24.398437500,-32.0,3.0,55.0,61.816250000000004,9.51,1.1930269687500001,34.49
2021-07-06 16:13:24.406250000,-32.0,3.0,55.0,61.815,9.42,1.193227125,34.49
2021-07-06 16:13:24.414062500,-32.0,3.0,55.0,61.81375,9.415,1.19342728125,34.49
2021-07-06 16:13:24.421875000,-32.0,3.0,55.0,61.8125,9.41,1.1936274375,34.49
2021-07-06 16:13:24.429687500,-32.0,3.0,55.0,61.81125,9.515,1.19382759375,34.49
2021-07-06 16:13:24.437500000,-32.0,3.0,55.0,61.81,9.62,1.19402775,34.49
2021-07-06 16:13:24.445312500,-32.0,2.75,55.0,61.80875,9.85,1.19422790625,34.49
2021-07-06 16:13:24.453125000,-32.0,2.5,55.0,61.8075,10.08,1.1944280625,34.49
2021-07-06 16:13:24.460937500,-32.0,2.25,55.0,61.80625,10.425,1.1946282187500001,34.49
2021-07-06 16:13:24.468750000,-32.0,2.0,55.0,61.805,10.77,1.1948283750000002,34.49
2021-07-06 16:13:24.476562500,-32.0,2.0,55.0,61.80375,11.18,1.19502853125,34.49
2021-07-06 16:13:24.484375000,-32.0,2.0,55.0,61.8025,11.59,1.1952286875,34.49
2021-07-06 16:13:24.492187500,-32.0,2.0,55.0,61.80125,11.98,1.19542884375,34.49
2021-07-06 16:13:24.500000000,-32.0,2.0,55.0,61.8,12.37,1.195629,34.49
2021-07-06 16:13:24.507812500,-32.0,2.25,55.0,61.79875,12.655,1.19550890625,34.49
2021-07-06 16:13:24.515625000,-32.0,2.5,55.0,61.7975,12.94,1.1953888125,34.49
2021-07-06 16:13:24.523437500,-32.0,2.75,55.0,61.79625,13.059999999999999,1.19526871875,34.49
2021-07-06 16:13:24.531250000,-32.0,3.0,55.0,61.795,13.18,1.195148625,34.49
2021-07-06 16:13:24.539062500,-32.0,3.0,55.0,61.79375,13.14,1.19502853125,34.49
2021-07-06 16:13:24.546875000,-32.0,3.0,55.0,61.792500000000004,13.1,1.1949084375,34.49
2021-07-06 16:13:24.554687500,-32.0,3.0,55.0,61.79125,12.934999999999999,1.19478834375,34.49
2021-07-06 16:13:24.562500000,-32.0,3.0,55.0,61.79,12.77,1.19466825,34.49
2021-07-06 16:13:24.570312500,-32.0,3.0,55.0,61.78875,12.54,1.19454815625,34.49
2021-07-06 16:13:24.578125000,-32.0,3.0,55.0,61.7875,12.31,1.1944280625,34.49
2021-07-06 16:13:24.585937500,-32.0,3.0,55.0,61.78625,12.085,1.19430796875,34.49
2021-07-06 16:13:24.593750000,-32.0,3.0,55.0,61.785000000000004,11.86,1.1941878750000001,34.49
2021-07-06 16:13:24.601562500,-32.0,3.0,55.0,61.78375,11.675,1.19406778125,34.49
2021-07-06 16:13:24.609375000,-32.0,3.0,55.0,61.7825,11.49,1.1939476875000001,34.49
2021-07-06 16:13:24.617187500,-32.0,3.0,55.0,61.78125,11.370000000000001,1.19382759375,34.49
2021-07-06 16:13:24.625000000,-32.0,3.0,55.0,61.78,11.25,1.1937075,34.49
2021-07-06 16:13:24.632812500,-32.0,3.0,55.0,61.77875,11.195,1.19358740625,34.49
2021-07-06 16:13:24.640625000,-32.0,3.0,55.0,61.7775,11.14,1.1934673125,34.49
2021-07-06 16:13:24.648437500,-32.0,3.0,55.0,61.77625,11.14,1.19334721875,34.49
2021-07-06 16:13:24.656250000,-32.0,3.0,55.0,61.775,11.14,1.193227125,34.49
2021-07-06 16:13:24.664062500,-32.0,3.0,55.0,61.77375,11.165,1.19310703125,34.49
2021-07-06 16:13:24.671875000,-32.0,3.0,55.0,61.7725,11.19,1.1929869375,34.49
2021-07-06 16:13:24.679687500,-32.0,3.0,55.0,61.77125,11.195,1.19286684375,34.49
2021-07-06 16:13:24.687500000,-32.0,3.0,55.0,61.77,11.2,1.19274675,34.49
2021-07-06 16:13:24.695312500,-32.0,3.0,55.0,61.76875,11.125,1.19262665625,34.49
2021-07-06 16:13:24.703125000,-32.0,3.0,55.0,61.7675,11.05,1.1925065625,34.49
2021-07-06 16:13:24.710937500,-32.0,3.0,55.0,61.76625,10.845,1.19238646875,34.49
2021-07-06 16:13:24.718750000,-32.0,3.0,55.0,61.765,10.64,1.192266375,34.49
2021-07-06 16:13:24.726562500,-32.0,3.0,55.25,61.76375,10.275,1.19214628125,34.49
2021-07-06 16:13:24.734375000,-32.0,3.0,55.5,61.7625,9.91,1.1920261875,34.49
2021-07-06 16:13:24.742187500,-32.0,3.0,55.75,61.76125,9.415,1.1919060937500001,34.49
2021-07-06 16:13:24.750000000,-32.0,3.0,56.0,61.76,8.92,1.191786,34.49
2021-07-06 16:13:24.757812500,-32.0,3.0,55.75,61.75875,8.365,1.191786,34.49
2021-07-06 16:13:24.765625000,-32.0,3.0,55.5,61.7575,7.81,1.191786,34.49
2021-07-06 16:13:24.773437500,-32.0,3.0,55.25,61.75625,7.289999999999999,1.191786,34.49
2021-07-06 16:13:24.781250000,-32.0,3.0,55.0,61.755,6.77,1.191786,34.49
2021-07-06 16:13:24.789062500,-32.0,3.0,55.0,61.75375,6.365,1.191786,34.49
2021-07-06 16:13:24.796875000,-32.0,3.0,55.0,61.7525,5.96,1.191786,34.49
2021-07-06 16:13:24.804687500,-32.0,3.0,55.0,61.75125,5.695,1.191786,34.49
2021-07-06 16:13:24.812500000,-32.0,3.0,55.0,61.75,5.43,1.191786,34.49
2021-07-06 16:13:24.820312500,-32.0,3.0,55.0,61.74875,5.279999999999999,1.191786,34.49
2021-07-06 16:13:24.828125000,-32.0,3.0,55.0,61.7475,5.13,1.191786,34.49
2021-07-06 16:13:24.835937500,-32.0,3.0,55.0,61.746249999999996,5.01,1.191786,34.49
2021-07-06 16:13:24.843750000,-32.0,3.0,55.0,61.745,4.89,1.191786,34.49
2021-07-06 16:13:24.851562500,-32.0,3.0,55.25,61.74375,4.71,1.191786,34.49
2021-07-06 16:13:24.859375000,-32.0,3.0,55.5,61.7425,4.53,1.191786,34.49
2021-07-06 16:13:24.867187500,-32.0,3.0,55.75,61.74125,4.2,1.191786,34.49
2021-07-06 16:13:24.875000000,-32.0,3.0,56.0,61.74,3.87,1.191786,34.49
2021-07-06 16:13:24.882812500,-32.0,3.0,55.75,61.738749999999996,3.3600000000000003,1.191786,34.49
2021-07-06 16:13:24.890625000,-32.0,3.0,55.5,61.7375,2.85,1.191786,34.49
2021-07-06 16:13:24.898437500,-32.0,3.0,55.25,61.73625,2.15,1.191786,34.49
2021-07-06 16:13:24.906250000,-32.0,3.0,55.0,61.735,1.45,1.191786,34.49
2021-07-06 16:13:24.914062500,-32.0,3.0,55.25,61.73375,0.595,1.191786,34.49
2021-07-06 16:13:24.921875000,-32.0,3.0,55.5,61.7325,-0.26,1.191786,34.49
2021-07-06 16:13:24.929687500,-32.0,3.0,55.75,61.731249999999996,-1.2200000000000002,1.191786,34.49
2021-07-06 16:13:24.937500000,-32.0,3.0,56.0,61.73,-2.18,1.191786,34.49
2021-07-06 16:13:24.945312500,-32.0,3.0,55.75,61.72875,-3.175,1.191786,34.49
2021-07-06 16:13:24.953125000,-32.0,3.0,55.5,61.7275,-4.17,1.191786,34.49
2021-07-06 16:13:24.960937500,-32.0,3.0,55.25,61.72625,-5.135,1.191786,34.49
2021-07-06 16:13:24.968750000,-32.0,3.0,55.0,61.725,-6.1,1.191786,34.49
2021-07-06 16:13:24.976562500,-32.0,3.0,55.0,61.723749999999995,-6.975,1.191786,34.49
2021-07-06 16:13:24.984375000,-32.0,3.0,55.0,61.7225,-7.85,1.191786,34.49
2021-07-06 16:13:24.992187500,-32.0,3.0,55.0,61.72125,-8.635,1.191786,34.49
2021-07-06 16:13:25.000000000,-32.0,3.0,55.0,61.72,-9.42,1.191786,34.49
2021-07-06 16:13:25.007812500,-32.0,2.75,55.0,61.718828125,-10.175,1.19182603125,34.49
2021-07-06 16:13:25.015625000,-32.0,2.5,55.0,61.71765625,-10.93,1.1918660625,34.49
2021-07-06 16:13:25.023437500,-32.0,2.25,55.0,61.716484375,-11.795,1.1919060937500001,34.49
2021-07-06 16:13:25.031250000,-32.0,2.0,55.0,61.715312499999996,-12.66,1.191946125,34.49
2021-07-06 16:13:25.039062500,-32.0,2.25,55.0,61.714140625,-13.775,1.19198615625,34.49
2021-07-06 16:13:25.046875000,-32.0,2.5,55.0,61.71296875,-14.89,1.1920261875,34.49
2021-07-06 16:13:25.054687500,-32.0,2.75,55.0,61.711796875,-16.32,1.19206621875,34.49
2021-07-06 16:13:25.062500000,-32.0,3.0,55.0,61.710625,-17.75,1.1921062500000001,34.49
2021-07-06 16:13:25.070312500,-32.0,3.0,55.0,61.709453124999996,-19.45,1.19214628125,34.49
2021-07-06 16:13:25.078125000,-32.0,3.0,55.0,61.70828125,-21.15,1.1921863125,34.49
2021-07-06 16:13:25.085937500,-32.0,3.0,55.0,61.707109375,-22.9,1.19222634375,34.49
2021-07-06 16:13:25.093750000,-32.0,3.0,55.0,61.7059375,-24.65,1.192266375,34.49
2021-07-06 16:13:25.101562500,-32.0,3.0,55.0,61.704765625,-26.15,1.19230640625,34.49
2021-07-06 16:13:25.109375000,-32.0,3.0,55.0,61.703593749999996,-27.65,1.1923464375000001,34.49
2021-07-06 16:13:25.117187500,-32.0,3.0,55.0,61.702421875,-28.619999999999997,1.19238646875,34.49
2021-07-06 16:13:25.125000000,-32.0,3.0,55.0,61.70125,-29.59,1.1924265,34.49
2021-07-06 16:13:25.132812500,-32.0,3.0,55.0,61.700078125,-29.86,1.19246653125,34.49
2021-07-06 16:13:25.140625000,-32.0,3.0,55.0,61.69890625,-30.13,1.1925065625,34.49
2021-07-06 16:13:25.148437500,-32.0,3.0,55.0,61.697734374999996,-29.715,1.1925465937500002,34.49
2021-07-06 16:13:25.156250000,-32.0,3.0,55.0,61.6965625,-29.3,1.1925866250000001,34.49
2021-07-06 16:13:25.164062500,-32.0,3.0,55.0,61.695390625,-28.325000000000003,1.19262665625,34.49
2021-07-06 16:13:25.171875000,-32.0,3.0,55.0,61.69421875,-27.35,1.1926666875,34.49
2021-07-06 16:13:25.179687500,-32.0,3.0,55.0,61.693046875,-26.005000000000003,1.19270671875,34.49
2021-07-06 16:13:25.187500000,-32.0,3.0,55.0,61.691874999999996,-24.66,1.19274675,34.49
2021-07-06 16:13:25.195312500,-32.0,3.0,55.0,61.690703125,-23.115000000000002,1.1927867812500001,34.49
2021-07-06 16:13:25.203125000,-32.0,3.0,55.0,61.68953125,-21.57,1.1928268125,34.49
2021-07-06 16:13:25.210937500,-32.0,3.0,55.0,61.688359375,-19.9,1.19286684375,34.49
2021-07-06 16:13:25.218750000,-32.0,3.0,55.0,61.6871875,-18.23,1.192906875,34.49
2021-07-06 16:13:25.226562500,-32.0,3.0,55.0,61.686015624999996,-16.48,1.19294690625,34.49
2021-07-06 16:13:25.234375000,-32.0,3.0,55.0,61.68484375,-14.73,1.1929869375000002,34.49
2021-07-06 16:13:25.242187500,-32.0,3.0,55.0,61.683671875,-12.935,1.1930269687500001,34.49
2021-07-06 16:13:25.250000000,-32.0,3.0,55.0,61.6825,-11.14,1.193067,34.49
2021-07-06 16:13:25.257812500,-32.0,3.0,55.0,61.681328125,-9.36,1.19294690625,34.49
2021-07-06 16:13:25.265625000,-32.0,3.0,55.0,61.680156249999996,-7.58,1.1928268125,34.49
2021-07-06 16:13:25.273437500,-32.0,3.0,55.0,61.678984375,-5.91,1.19270671875,34.49
2021-07-06 16:13:25.281250000,-32.0,3.0,55.0,61.6778125,-4.24,1.1925866250000001,34.49
2021-07-06 16:13:25.289062500,-32.0,3.0,55.0,61.676640625,-2.77,1.19246653125,34.49
2021-07-06 16:13:25.296875000,-32.0,3.0,55.0,61.67546875,-1.3,1.1923464375000001,34.49
2021-07-06 16:13:25.304687500,-32.0,3.0,55.0,61.674296874999996,-0.07000000000000006,1.19222634375,34.49
2021-07-06 16:13:25.312500000,-32.0,3.0,55.0,61.673125,1.16,1.1921062500000001,34.49
2021-07-06 16:13:25.320312500,-32.0,3.0,55.25,61.671953125,2.165,1.19198615625,34.49
2021-07-06 16:13:25.328125000,-32.0,3.0,55.5,61.67078125,3.17,1.1918660625000002,34.49
2021-07-06 16:13:25.335937500,-32.0,3.0,55.75,61.669609375,4.015000000000001,1.19174596875,34.49
2021-07-06 16:13:25.343750000,-32.0,3.0,56.0,61.668437499999996,4.86,1.1916258750000002,34.49
2021-07-06 16:13:25.351562500,-32.0,3.0,55.75,61.667265625,5.61,1.19150578125,34.49
2021-07-06 16:13:25.359375000,-32.0,3.0,55.5,61.66609375,6.36,1.1913856875000002,34.49
2021-07-06 16:13:25.367187500,-32.0,3.0,55.25,61.664921875,7.04,1.19126559375,34.49
2021-07-06 16:13:25.375000000,-32.0,3.0,55.0,61.66375,7.72,1.1911455000000002,34.49
2021-07-06 16:13:25.382812500,-32.0,3.0,55.0,61.662578124999996,8.32,1.19102540625,34.49
2021-07-06 16:13:25.390625000,-32.0,3.0,55.0,61.66140625,8.92,1.1909053125,34.49
2021-07-06 16:13:25.398437500,-32.0,3.0,55.0,61.660234375,9.375,1.19078521875,34.49
2021-07-06 16:13:25.406250000,-32.0,3.0,55.0,61.6590625,9.83,1.190665125,34.49
2021-07-06 16:13:25.414062500,-32.0,3.0,55.0,61.657890625,10.1,1.19054503125,34.49
2021-07-06 16:13:25.421875000,-32.0,3.0,55.0,61.656718749999996,10.37,1.1904249375,34.49
2021-07-06 16:13:25.429687500,-32.0,3.0,55.0,61.655546875,10.425,1.1903048437500001,34.49
2021-07-06 16:13:25.437500000,-32.0,3.0,55.0,61.654375,10.48,1.19018475,34.49
2021-07-06 16:13:25.445312500,-32.0,3.0,55.0,61.653203125,10.36,1.1900646562500001,34.49
2021-07-06 16:13:25.453125000,-32.0,3.0,55.0,61.65203125,10.24,1.1899445625,34.49
2021-07-06 16:13:25.460937500,-32.0,3.0,55.0,61.650859374999996,10.030000000000001,1.1898244687500001,34.49
2021-07-06 16:13:25.468750000,-32.0,3.0,55.0,61.6496875,9.82,1.189704375,34.49
2021-07-06 16:13:25.476562500,-32.0,3.0,55.0,61.648515625,9.629999999999999,1.1895842812500002,34.49
2021-07-06 16:13:25.484375000,-32.0,3.0,55.0,61.64734375,9.44,1.1894641875,34.49
2021-07-06 16:13:25.492187500,-32.0,3.0,55.0,61.646171875,9.395,1.1893440937500002,34.49
2021-07-06 16:13:25.500000000,-32.0,3.0,55.0,61.644999999999996,9.35,1.189224,34.49
2021-07-06 16:13:25.507812500,-32.0,3.0,55.0,61.643828125,9.5,1.18910390625,34.49
2021-07-06 16:13:25.515625000,-32.0,3.0,55.0,61.64265625,9.65,1.1889838125,34.49
2021-07-06 16:13:25.523437500,-32.0,3.0,55.0,61.641484375,10.0,1.18886371875,34.49
2021-07-06 16:13:25.531250000,-32.0,3.0,55.0,61.6403125,10.35,1.188743625,34.49
2021-07-06 16:13:25.539062500,-32.0,3.0,55.25,61.639140625,10.82,1.18862353125,34.49
2021-07-06 16:13:25.546875000,-32.0,3.0,55.5,61.63796875,11.29,1.1885034375,34.49
2021-07-06 16:13:25.554687500,-32.0,3.0,55.75,61.636796875,11.785,1.18838334375,34.49
2021-07-06 16:13:25.562500000,-32.0,3.0,56.0,61.635625,12.28,1.18826325,34.49
2021-07-06 16:13:25.570312500,-32.0,3.0,55.75,61.634453125,12.7,1.18814315625,34.49
2021-07-06 16:13:25.578125000,-32.0,3.0,55.5,61.63328125,13.12,1.1880230625000001,34.49
2021-07-06 16:13:25.585937500,-32.0,3.0,55.25,61.632109375,13.405,1.18790296875,34.49
2021-07-06 16:13:25.593750000,-32.0,3.0,55.0,61.6309375,13.69,1.1877828750000001,34.49
2021-07-06 16:13:25.601562500,-32.0,3.0,55.0,61.629765625,13.844999999999999,1.18766278125,34.49
2021-07-06 16:13:25.609375000,-32.0,3.0,55.0,61.62859375,14.0,1.1875426875000001,34.49
2021-07-06 16:13:25.617187500,-32.0,3.0,55.0,61.627421875,14.05,1.18742259375,34.49
2021-07-06 16:13:25.625000000,-32.0,3.0,55.0,61.62625,14.1,1.1873025,34.49
2021-07-06 16:13:25.632812500,-32.0,3.0,55.0,61.625078125,14.07,1.18718240625,34.49
2021-07-06 16:13:25.640625000,-32.0,3.0,55.0,61.62390625,14.04,1.1870623125,34.49
2021-07-06 16:13:25.648437500,-32.0,3.0,55.0,61.622734375,13.93,1.18694221875,34.49
2021-07-06 16:13:25.656250000,-32.0,3.0,55.0,61.6215625,13.82,1.186822125,34.49
2021-07-06 16:13:25.664062500,-32.0,3.0,55.0,61.620390625,13.600000000000001,1.18670203125,34.49
2021-07-06 16:13:25.671875000,-32.0,3.0,55.0,61.61921875,13.38,1.1865819375,34.49
2021-07-06 16:13:25.679687500,-32.0,3.0,55.0,61.618046875,13.07,1.18646184375,34.49
2021-07-06 16:13:25.687500000,-32.0,3.0,55.0,61.616875,12.76,1.18634175,34.49
2021-07-06 16:13:25.695312500,-32.0,3.0,55.0,61.615703125,12.375,1.18622165625,34.49
2021-07-06 16:13:25.703125000,-32.0,3.0,55.0,61.61453125,11.99,1.1861015625,34.49
2021-07-06 16:13:25.710937500,-32.0,3.0,55.0,61.613359375,11.615,1.18598146875,34.49
2021-07-06 16:13:25.718750000,-32.0,3.0,55.0,61.6121875,11.24,1.185861375,34.49
2021-07-06 16:13:25.726562500,-32.0,3.0,55.0,61.611015625,10.925,1.1857412812500001,34.49
2021-07-06 16:13:25.734375000,-32.0,3.0,55.0,61.60984375,10.61,1.1856211875,34.49
2021-07-06 16:13:25.742187500,-32.0,3.0,55.0,61.608671875,10.405,1.1855010937500001,34.49
2021-07-06 16:13:25.750000000,-32.0,3.0,55.0,61.6075,10.2,1.185381,34.49
2021-07-06 16:13:25.757812500,-32.0,3.0,55.0,61.606328125,10.07,1.18534096875,34.49
2021-07-06 16:13:25.765625000,-32.0,3.0,55.0,61.60515625,9.94,1.1853009375,34.49
2021-07-06 16:13:25.773437500,-32.0,3.0,55.0,61.603984375,9.844999999999999,1.18526090625,34.49
2021-07-06 16:13:25.781250000,-32.0,3.0,55.0,61.6028125,9.75,1.185220875,34.49
2021-07-06 16:13:25.789062500,-32.0,3.0,55.0,61.601640625,9.605,1.18518084375,34.49
2021-07-06 16:13:25.796875000,-32.0,3.0,55.0,61.60046875,9.46,1.1851408125,34.49
2021-07-06 16:13:25.804687500,-32.0,3.0,55.0,61.599296875,9.23,1.18510078125,34.49
2021-07-06 16:13:25.812500000,-32.0,3.0,55.0,61.598125,9.0,1.1850607499999999,34.49
2021-07-06 16:13:25.820312500,-32.0,3.0,55.0,61.596953125,8.66,1.18502071875,34.49
2021-07-06 16:13:25.828125000,-32.0,3.0,55.0,61.59578125,8.32,1.1849806875,34.49
2021-07-06 16:13:25.835937500,-32.0,3.0,55.0,61.594609375,7.875,1.18494065625,34.49
2021-07-06 16:13:25.843750000,-32.0,3.0,55.0,61.5934375,7.43,1.184900625,34.49
2021-07-06 16:13:25.851562500,-32.0,3.0,55.0,61.592265625,6.88,1.18486059375,34.49
2021-07-06 16:13:25.859375000,-32.0,3.0,55.0,61.59109375,6.33,1.1848205625,34.49
2021-07-06 16:13:25.867187500,-32.0,3.0,55.0,61.589921875,5.68,1.18478053125,34.49
2021-07-06 16:13:25.875000000,-32.0,3.0,55.0,61.58875,5.03,1.1847405,34.49
2021-07-06 16:13:25.882812500,-32.0,3.0,55.25,61.587578125,4.285,1.18470046875,34.49
2021-07-06 16:13:25.890625000,-32.0,3.0,55.5,61.58640625,3.54,1.1846604375,34.49
2021-07-06 16:13:25.898437500,-32.0,3.0,55.75,61.585234375,2.725,1.1846204062499999,34.49
2021-07-06 16:13:25.906250000,-32.0,3.0,56.0,61.5840625,1.91,1.184580375,34.49
2021-07-06 16:13:25.914062500,-32.0,3.0,55.75,61.582890625,1.06,1.18454034375,34.49
2021-07-06 16:13:25.921875000,-32.0,3.0,55.5,61.58171875,0.21,1.1845003125,34.49
2021-07-06 16:13:25.929687500,-32.0,3.0,55.25,61.580546875,-0.62,1.18446028125,34.49
2021-07-06 16:13:25.937500000,-32.0,3.0,55.0,61.579375,-1.45,1.18442025,34.49
2021-07-06 16:13:25.945312500,-32.0,3.0,55.25,61.578203125,-2.215,1.1843802187499999,34.49
2021-07-06 16:13:25.953125000,-32.0,3.0,55.5,61.57703125,-2.98,1.1843401875,34.49
2021-07-06 16:13:25.960937500,-32.0,3.0,55.75,61.575859375,-3.6500000000000004,1.18430015625,34.49
2021-07-06 16:13:25.968750000,-32.0,3.0,56.0,61.5746875,-4.32,1.184260125,34.49
2021-07-06 16:13:25.976562500,-32.0,3.0,55.75,61.573515625,-4.91,1.18422009375,34.49
2021-07-06 16:13:25.984375000,-32.0,3.0,55.5,61.57234375,-5.5,1.1841800624999999,34.49
2021-07-06 16:13:25.992187500,-32.0,3.0,55.25,61.571171875,-6.05,1.18414003125,34.49
2021-07-06 16:13:26.000000000,-32.0,3.0,55.0,61.57,-6.6,1.1841,34.49
2021-07-06 16:13:26.007812500,-32.0,3.0,55.0,61.568828125,-7.195,1.18414003125,34.489375
2021-07-06 16:13:26.015625000,-32.0,3.0,55.0,61.56765625,-7.79,1.1841800624999999,34.48875
2021-07-06 16:13:26.023437500,-32.0,3.0,55.0,61.566484375,-8.52,1.18422009375,34.488125000000004
2021-07-06 16:13:26.031250000,-32.0,3.0,55.0,61.5653125,-9.25,1.184260125,34.487500000000004
2021-07-06 16:13:26.039062500,-32.0,3.0,55.25,61.564140625,-10.2,1.18430015625,34.486875000000005
2021-07-06 16:13:26.046875000,-32.0,3.0,55.5,61.56296875,-11.15,1.1843401875,34.48625
2021-07-06 16:13:26.054687500,-32.0,3.0,55.75,61.561796875,-12.350000000000001,1.1843802187499999,34.485625
2021-07-06 16:13:26.062500000,-32.0,3.0,56.0,61.560625,-13.55,1.18442025,34.485
2021-07-06 16:13:26.070312500,-32.0,3.0,55.75,61.559453125,-14.98,1.18446028125,34.484375
2021-07-06 16:13:26.078125000,-32.0,3.0,55.5,61.55828125,-16.41,1.1845003125,34.48375
2021-07-06 16:13:26.085937500,-32.0,3.0,55.25,61.557109375,-17.98,1.18454034375,34.483125
2021-07-06 16:13:26.093750000,-32.0,3.0,55.0,61.5559375,-19.55,1.184580375,34.4825
2021-07-06 16:13:26.101562500,-32.0,3.0,55.0,61.554765625,-21.105,1.1846204062499999,34.481875
2021-07-06 16:13:26.109375000,-32.0,3.0,55.0,61.55359375,-22.66,1.1846604375,34.48125
2021-07-06 16:13:26.117187500,-32.0,3.0,55.0,61.552421875,-24.009999999999998,1.18470046875,34.480625
2021-07-06 16:13:26.125000000,-32.0,3.0,55.0,61.55125,-25.36,1.1847405,34.480000000000004
2021-07-06 16:13:26.132812500,-32.0,3.0,55.0,61.550078125,-26.310000000000002,1.18478053125,34.479375
2021-07-06 16:13:26.140625000,-32.0,3.0,55.0,61.54890625,-27.26,1.1848205625,34.47875
2021-07-06 16:13:26.148437500,-32.0,3.0,55.0,61.547734375,-27.665,1.18486059375,34.478125
2021-07-06 16:13:26.156250000,-32.0,3.0,55.0,61.5465625,-28.07,1.184900625,34.4775
2021-07-06 16:13:26.164062500,-32.0,3.0,55.0,61.545390625,-27.845,1.18494065625,34.476875
2021-07-06 16:13:26.171875000,-32.0,3.0,55.0,61.54421875,-27.62,1.1849806875,34.47625
2021-07-06 16:13:26.179687500,-32.0,3.0,55.0,61.543046875,-26.775,1.18502071875,34.475625
2021-07-06 16:13:26.187500000,-32.0,3.0,55.0,61.541875,-25.93,1.1850607499999999,34.475
2021-07-06 16:13:26.195312500,-32.0,3.0,55.0,61.540703125,-24.58,1.18510078125,34.474375
2021-07-06 16:13:26.203125000,-32.0,3.0,55.0,61.53953125,-23.23,1.1851408125,34.47375
2021-07-06 16:13:26.210937500,-32.0,3.0,55.0,61.538359375,-21.575000000000003,1.18518084375,34.473124999999996
2021-07-06 16:13:26.218750000,-32.0,3.0,55.0,61.5371875,-19.92,1.185220875,34.4725
2021-07-06 16:13:26.226562500,-32.0,2.75,55.0,61.536015625,-18.17,1.18526090625,34.471875
2021-07-06 16:13:26.234375000,-32.0,2.5,55.0,61.53484375,-16.42,1.1853009375,34.47125
2021-07-06 16:13:26.242187500,-32.0,2.25,55.0,61.533671875,-14.765,1.18534096875,34.470625
2021-07-06 16:13:26.250000000,-32.0,2.0,55.0,61.5325,-13.11,1.185381,34.47
2021-07-06 16:13:26.257812500,-32.0,2.25,55.0,61.531328125,-11.635,1.18506075,34.47
2021-07-06 16:13:26.265625000,-32.0,2.5,55.0,61.53015625,-10.16,1.1847405,34.47
2021-07-06 16:13:26.273437500,-32.0,2.75,55.0,61.528984375,-8.870000000000001,1.18442025,34.47
2021-07-06 16:13:26.281250000,-32.0,3.0,55.0,61.5278125,-7.58,1.1841,34.47
2021-07-06 16:13:26.289062500,-32.0,3.0,55.0,61.526640625,-6.395,1.18377975,34.47
2021-07-06 16:13:26.296875000,-32.0,3.0,55.0,61.52546875,-5.21,1.1834595,34.47
2021-07-06 16:13:26.304687500,-32.0,3.0,55.0,61.524296875,-4.0600000000000005,1.18313925,34.47
2021-07-06 16:13:26.312500000,-32.0,3.0,55.0,61.523125,-2.91,1.182819,34.47
2021-07-06 16:13:26.320312500,-32.0,3.0,55.0,61.521953125,-1.76,1.18249875,34.47
2021-07-06 16:13:26.328125000,-32.0,3.0,55.0,61.52078125,-0.61,1.1821785,34.47
2021-07-06 16:13:26.335937500,-32.0,3.0,55.0,61.519609375,0.495,1.18185825,34.47
2021-07-06 16:13:26.343750000,-32.0,3.0,55.0,61.5184375,1.6,1.181538,34.47
2021-07-06 16:13:26.351562500,-32.0,3.0,55.0,61.517265625,2.58,1.18121775,34.47
2021-07-06 16:13:26.359375000,-32.0,3.0,55.0,61.51609375,3.56,1.1808975,34.47
2021-07-06 16:13:26.367187500,-32.0,3.0,55.0,61.514921875,4.325,1.18057725,34.47
2021-07-06 16:13:26.375000000,-32.0,3.0,55.0,61.51375,5.09,1.1802570000000001,34.47
2021-07-06 16:13:26.382812500,-32.0,3.0,55.0,61.512578125,5.6,1.17993675,34.47
2021-07-06 16:13:26.390625000,-32.0,3.0,55.0,61.51140625,6.11,1.1796165,34.47
2021-07-06 16:13:26.398437500,-32.0,3.0,55.0,61.510234375,6.415,1.17929625,34.47
2021-07-06 16:13:26.406250000,-32.0,3.0,55.0,61.5090625,6.72,1.178976,34.47
2021-07-06 16:13:26.414062500,-32.0,3.0,55.0,61.507890625,6.885,1.17865575,34.47
2021-07-06 16:13:26.421875000,-32.0,3.0,55.0,61.50671875,7.05,1.1783355,34.47
2021-07-06 16:13:26.429687500,-32.0,3.0,55.0,61.505546875,7.16,1.17801525,34.47
2021-07-06 16:13:26.437500000,-32.0,3.0,55.0,61.504375,7.27,1.177695,34.47
2021-07-06 16:13:26.445312500,-32.0,3.0,55.0,61.503203125,7.375,1.17737475,34.47
2021-07-06 16:13:26.453125000,-32.0,3.0,55.0,61.50203125,7.48,1.1770545,34.47
2021-07-06 16:13:26.460937500,-32.0,3.0,55.0,61.500859375,7.57,1.17673425,34.47
2021-07-06 16:13:26.468750000,-32.0,3.0,55.0,61.4996875,7.66,1.176414,34.47
2021-07-06 16:13:26.476562500,-32.0,2.75,55.0,61.498515625,7.720000000000001,1.17609375,34.47
2021-07-06 16:13:26.484375000,-32.0,2.5,55.0,61.49734375,7.78,1.1757735,34.47
2021-07-06 16:13:26.492187500,-32.0,2.25,55.0,61.496171875,7.800000000000001,1.17545325,34.47
2021-07-06 16:13:26.500000000,-32.0,2.0,55.0,61.495000000000005,7.82,1.175133,34.47
2021-07-06 16:13:26.507812500,-32.0,2.25,55.0,61.493828125,7.845000000000001,1.175133,34.47
2021-07-06 16:13:26.515625000,-32.0,2.5,55.0,61.49265625,7.87,1.175133,34.47
2021-07-06 16:13:26.523437500,-32.0,2.75,55.0,61.491484375,7.9399999999999995,1.175133,34.47
2021-07-06 16:13:26.531250000,-32.0,3.0,55.0,61.4903125,8.01,1.175133,34.47
2021-07-06 16:13:26.539062500,-32.0,3.0,55.25,61.489140625000005,8.165,1.175133,34.47
2021-07-06 16:13:26.546875000,-32.0,3.0,55.5,61.48796875,8.32,1.175133,34.47
2021-07-06 16:13:26.554687500,-32.0,3.0,55.75,61.486796875,8.565000000000001,1.175133,34.47
2021-07-06 16:13:26.562500000,-32.0,3.0,56.0,61.485625,8.81,1.175133,34.47
2021-07-06 16:13:26.570312500,-32.0,3.0,55.75,61.484453125,9.09,1.175133,34.47
2021-07-06 16:13:26.578125000,-32.0,3.0,55.5,61.483281250000005,9.37,1.175133,34.47
2021-07-06 16:13:26.585937500,-32.0,3.0,55.25,61.482109375,9.6,1.175133,34.47
2021-07-06 16:13:26.593750000,-32.0,3.0,55.0,61.4809375,9.83,1.175133,34.47
2021-07-06 16:13:26.601562500,-32.0,3.0,55.25,61.479765625,9.955,1.175133,34.47
2021-07-06 16:13:26.609375000,-32.0,3.0,55.5,61.47859375,10.08,1.175133,34.47
2021-07-06 16:13:26.617187500,-32.0,3.0,55.75,61.477421875000005,10.085,1.175133,34.47
2021-07-06 16:13:26.625000000,-32.0,3.0,56.0,61.47625,10.09,1.175133,34.47
2021-07-06 16:13:26.632812500,-32.0,3.0,55.75,61.475078125,10.004999999999999,1.175133,34.47
2021-07-06 16:13:26.640625000,-32.0,3.0,55.5,61.47390625,9.92,1.175133,34.47
2021-07-06 16:13:26.648437500,-32.0,3.0,55.25,61.472734375,9.815000000000001,1.175133,34.47
2021-07-06 16:13:26.656250000,-32.0,3.0,55.0,61.471562500000005,9.71,1.175133,34.47
2021-07-06 16:13:26.664062500,-32.0,3.0,55.0,61.470390625,9.625,1.175133,34.47
2021-07-06 16:13:26.671875000,-32.0,3.0,55.0,61.46921875,9.54,1.175133,34.47
2021-07-06 16:13:26.679687500,-32.0,3.0,55.0,61.468046875,9.489999999999998,1.175133,34.47
2021-07-06 16:13:26.687500000,-32.0,3.0,55.0,61.466875,9.44,1.175133,34.47
2021-07-06 16:13:26.695312500,-32.0,3.0,55.0,61.465703125000005,9.395,1.175133,34.47
2021-07-06 16:13:26.703125000,-32.0,3.0,55.0,61.46453125,9.35,1.175133,34.47
2021-07-06 16:13:26.710937500,-32.0,3.0,55.0,61.463359375,9.27,1.175133,34.47
2021-07-06 16:13:26.718750000,-32.0,3.0,55.0,61.4621875,9.19,1.175133,34.47
2021-07-06 16:13:26.726562500,-32.0,2.75,55.25,61.461015625,9.055,1.175133,34.47
2021-07-06 16:13:26.734375000,-32.0,2.5,55.5,61.459843750000005,8.92,1.175133,34.47
2021-07-06 16:13:26.742187500,-32.0,2.25,55.75,61.458671875,8.715,1.175133,34.47
2021-07-06 16:13:26.750000000,-32.0,2.0,56.0,61.4575,8.51,1.175133,34.47
2021-07-06 16:13:26.757812500,-32.0,2.0,55.75,61.456328125,8.23,1.175133,34.47
2021-07-06 16:13:26.765625000,-32.0,2.0,55.5,61.45515625,7.95,1.175133,34.47
2021-07-06 16:13:26.773437500,-32.0,2.0,55.25,61.453984375000005,7.595000000000001,1.175133,34.47
2021-07-06 16:13:26.781250000,-32.0,2.0,55.0,61.4528125,7.24,1.175133,34.47
2021-07-06 16:13:26.789062500,-32.0,2.25,55.0,61.451640625,6.795,1.175133,34.47
2021-07-06 16:13:26.796875000,-32.0,2.5,55.0,61.45046875,6.35,1.175133,34.47
2021-07-06 16:13:26.804687500,-32.0,2.75,55.0,61.449296875,5.795,1.175133,34.47
2021-07-06 16:13:26.812500000,-32.0,3.0,55.0,61.448125000000005,5.24,1.175133,34.47
2021-07-06 16:13:26.820312500,-32.0,3.0,55.0,61.446953125,4.565,1.175133,34.47
2021-07-06 16:13:26.828125000,-32.0,3.0,55.0,61.44578125,3.89,1.175133,34.47
2021-07-06 16:13:26.835937500,-32.0,3.0,55.0,61.444609375,3.1100000000000003,1.175133,34.47
2021-07-06 16:13:26.843750000,-32.0,3.0,55.0,61.4434375,2.33,1.175133,34.47
2021-07-06 16:13:26.851562500,-32.0,3.0,55.0,61.442265625000005,1.475,1.175133,34.47
2021-07-06 16:13:26.859375000,-32.0,3.0,55.0,61.44109375,0.62,1.175133,34.47
2021-07-06 16:13:26.867187500,-32.0,3.0,55.0,61.439921875,-0.2799999999999999,1.175133,34.47
2021-07-06 16:13:26.875000000,-32.0,3.0,55.0,61.43875,-1.18,1.175133,34.47
2021-07-06 16:13:26.882812500,-32.0,3.0,55.25,61.437578125,-2.085,1.175133,34.47
2021-07-06 16:13:26.890625000,-32.0,3.0,55.5,61.436406250000005,-2.99,1.175133,34.47
2021-07-06 16:13:26.898437500,-32.0,3.0,55.75,61.435234375,-3.88,1.175133,34.47
2021-07-06 16:13:26.906250000,-32.0,3.0,56.0,61.4340625,-4.77,1.175133,34.47
2021-07-06 16:13:26.914062500,-32.0,3.0,55.75,61.432890625,-5.63,1.175133,34.47
2021-07-06 16:13:26.921875000,-32.0,3.0,55.5,61.43171875,-6.49,1.175133,34.47
2021-07-06 16:13:26.929687500,-32.0,3.0,55.25,61.430546875000005,-7.3100000000000005,1.175133,34.47
2021-07-06 16:13:26.937500000,-32.0,3.0,55.0,61.429375,-8.13,1.175133,34.47
2021-07-06 16:13:26.945312500,-31.75,3.0,55.0,61.428203125,-8.91,1.175133,34.47
2021-07-06 16:13:26.953125000,-31.5,3.0,55.0,61.42703125,-9.69,1.175133,34.47
2021-07-06 16:13:26.960937500,-31.25,3.0,55.0,61.425859375,-10.455,1.175133,34.47
2021-07-06 16:13:26.968750000,-31.0,3.0,55.0,61.424687500000005,-11.22,1.175133,34.47
2021-07-06 16:13:26.976562500,-31.25,3.0,55.25,61.423515625,-11.995000000000001,1.175133,34.47
2021-07-06 16:13:26.984375000,-31.5,3.0,55.5,61.42234375,-12.77,1.175133,34.47
2021-07-06 16:13:26.992187500,-31.75,3.0,55.75,61.421171875,-13.625,1.175133,34.47
2021-07-06 16:13:27.000000000,-32.0,3.0,56.0,61.42,-14.48,1.175133,34.47
2021-07-06 16:13:27.007812500,-32.0,3.0,55.75,61.418828125000005,-15.485,1.17525309375,34.47
2021-07-06 16:13:27.015625000,-32.0,3.0,55.5,61.41765625,-16.49,1.1753731875,34.47
2021-07-06 16:13:27.023437500,-32.0,3.0,55.25,61.416484375,-17.68,1.17549328125,34.47
2021-07-06 16:13:27.031250000,-32.0,3.0,55.0,61.4153125,-18.87,1.175613375,34.47
2021-07-06 16:13:27.039062500,-32.0,3.0,55.25,61.414140625,-20.225,1.17573346875,34.47
2021-07-06 16:13:27.046875000,-32.0,3.0,55.5,61.412968750000005,-21.58,1.1758535625,34.47
2021-07-06 16:13:27.054687500,-32.0,3.0,55.75,61.411796875,-23.005,1.17597365625,34.47
2021-07-06 16:13:27.062500000,-32.0,3.0,56.0,61.410625,-24.43,1.17609375,34.47
2021-07-06 16:13:27.070312500,-32.0,3.0,55.75,61.409453125,-25.759999999999998,1.17621384375,34.47
2021-07-06 16:13:27.078125000,-32.0,3.0,55.5,61.40828125,-27.09,1.1763339375,34.47
2021-07-06 16:13:27.085937500,-32.0,3.0,55.25,61.407109375000005,-28.145,1.17645403125,34.47
2021-07-06 16:13:27.093750000,-32.0,3.0,55.0,61.4059375,-29.2,1.176574125,34.47
2021-07-06 16:13:27.101562500,-32.0,3.0,55.0,61.404765625,-29.82,1.17669421875,34.47
2021-07-06 16:13:27.109375000,-32.0,3.0,55.0,61.40359375,-30.44,1.1768143125,34.47
2021-07-06 16:13:27.117187500,-32.0,3.0,55.0,61.402421875,-30.505000000000003,1.17693440625,34.47
2021-07-06 16:13:27.125000000,-32.0,3.0,55.0,61.401250000000005,-30.57,1.1770545000000001,34.47
2021-07-06 16:13:27.132812500,-32.0,3.0,55.25,61.400078125,-30.064999999999998,1.17717459375,34.47
2021-07-06 16:13:27.140625000,-32.0,3.0,55.5,61.39890625,-29.56,1.1772946875,34.47
2021-07-06 16:13:27.148437500,-32.0,3.0,55.75,61.397734375,-28.535,1.17741478125,34.47
2021-07-06 16:13:27.156250000,-32.0,3.0,56.0,61.3965625,-27.51,1.177534875,34.47
2021-07-06 16:13:27.164062500,-32.0,3.0,55.75,61.395390625000005,-26.085,1.17765496875,34.47
2021-07-06 16:13:27.171875000,-32.0,3.0,55.5,61.39421875,-24.66,1.1777750625,34.47
2021-07-06 16:13:27.179687500,-32.0,3.0,55.25,61.393046875,-22.975,1.17789515625,34.47
2021-07-06 16:13:27.187500000,-32.0,3.0,55.0,61.391875,-21.29,1.17801525,34.47
2021-07-06 16:13:27.195312500,-32.0,3.0,55.0,61.390703125,-19.485,1.17813534375,34.47
2021-07-06 16:13:27.203125000,-32.0,3.0,55.0,61.389531250000005,-17.68,1.1782554375,34.47
2021-07-06 16:13:27.210937500,-32.0,3.0,55.0,61.388359375,-15.82,1.17837553125,34.47
2021-07-06 16:13:27.218750000,-32.0,3.0,55.0,61.3871875,-13.96,1.178495625,34.47
2021-07-06 16:13:27.226562500,-32.0,3.0,55.0,61.386015625,-12.09,1.17861571875,34.47
2021-07-06 16:13:27.234375000,-32.0,3.0,55.0,61.38484375,-10.22,1.1787358125,34.47
2021-07-06 16:13:27.242187500,-32.0,3.0,55.0,61.383671875000005,-8.350000000000001,1.17885590625,34.47
2021-07-06 16:13:27.250000000,-32.0,3.0,55.0,61.3825,-6.48,1.178976,34.47
2021-07-06 16:13:27.257812500,-32.0,2.75,55.0,61.381328125,-4.63,1.17869578125,34.47
2021-07-06 16:13:27.265625000,-32.0,2.5,55.0,61.38015625,-2.78,1.1784155625000001,34.47
2021-07-06 16:13:27.273437500,-32.0,2.25,55.0,61.378984375,-0.9949999999999999,1.17813534375,34.47
2021-07-06 16:13:27.281250000,-32.0,2.0,55.0,61.377812500000005,0.79,1.177855125,34.47
2021-07-06 16:13:27.289062500,-32.0,2.25,55.0,61.376640625,2.43,1.17757490625,34.47
2021-07-06 16:13:27.296875000,-32.0,2.5,55.0,61.37546875,4.07,1.1772946875,34.47
2021-07-06 16:13:27.304687500,-32.0,2.75,55.0,61.374296875,5.46,1.17701446875,34.47
2021-07-06 16:13:27.312500000,-32.0,3.0,55.0,61.373125,6.85,1.17673425,34.47
2021-07-06 16:13:27.320312500,-32.0,3.0,55.0,61.371953125000005,7.91,1.17645403125,34.47
2021-07-06 16:13:27.328125000,-32.0,3.0,55.0,61.37078125,8.97,1.1761738125,34.47
2021-07-06 16:13:27.335937500,-32.0,3.0,55.0,61.369609375,9.66,1.1758935937500001,34.47
2021-07-06 16:13:27.343750000,-32.0,3.0,55.0,61.3684375,10.35,1.175613375,34.47
2021-07-06 16:13:27.351562500,-32.0,3.0,55.0,61.367265625,10.695,1.17533315625,34.47
2021-07-06 16:13:27.359375000,-32.0,3.0,55.0,61.366093750000005,11.04,1.1750529375,34.47
2021-07-06 16:13:27.367187500,-32.0,3.0,55.0,61.364921875,11.129999999999999,1.1747727187500001,34.47
2021-07-06 16:13:27.375000000,-32.0,3.0,55.0,61.36375,11.22,1.1744925,34.47
2021-07-06 16:13:27.382812500,-32.0,3.0,55.0,61.362578125,11.18,1.17421228125,34.47
2021-07-06 16:13:27.390625000,-32.0,3.0,55.0,61.36140625,11.14,1.1739320625,34.47
2021-07-06 16:13:27.398437500,-32.0,3.0,55.0,61.360234375000005,11.075,1.17365184375,34.47
2021-07-06 16:13:27.406250000,-32.0,3.0,55.0,61.3590625,11.01,1.1733716250000001,34.47
2021-07-06 16:13:27.414062500,-32.0,3.0,55.0,61.357890625,10.985,1.17309140625,34.47
2021-07-06 16:13:27.421875000,-32.0,3.0,55.0,61.35671875,10.96,1.1728111875,34.47
2021-07-06 16:13:27.429687500,-32.0,3.0,55.0,61.355546875,10.995000000000001,1.17253096875,34.47
2021-07-06 16:13:27.437500000,-32.0,3.0,55.0,61.354375000000005,11.03,1.1722507500000001,34.47
2021-07-06 16:13:27.445312500,-32.0,3.0,55.0,61.353203125,11.094999999999999,1.1719705312500002,34.47
2021-07-06 16:13:27.453125000,-32.0,3.0,55.0,61.35203125,11.16,1.1716903125,34.47
2021-07-06 16:13:27.460937500,-32.0,3.0,55.0,61.350859375,11.23,1.17141009375,34.47
2021-07-06 16:13:27.468750000,-32.0,3.0,55.0,61.3496875,11.3,1.171129875,34.47
2021-07-06 16:13:27.476562500,-32.0,3.0,55.25,61.348515625000005,11.355,1.1708496562500001,34.47
2021-07-06 16:13:27.484375000,-32.0,3.0,55.5,61.34734375,11.41,1.1705694375,34.47
2021-07-06 16:13:27.492187500,-32.0,3.0,55.75,61.346171875,11.465,1.17028921875,34.47
2021-07-06 16:13:27.500000000,-32.0,3.0,56.0,61.345,11.52,1.170009,34.47
2021-07-06 16:13:27.507812500,-32.0,2.75,55.75,61.343828125,11.6,1.1701691250000001,34.47
2021-07-06 16:13:27.515625000,-32.0,2.5,55.5,61.342656250000005,11.68,1.17032925,34.47
2021-07-06 16:13:27.523437500,-32.0,2.25,55.25,61.341484375,11.795,1.170489375,34.47
2021-07-06 16:13:27.531250000,-32.0,2.0,55.0,61.3403125,11.91,1.1706495000000001,34.47
2021-07-06 16:13:27.539062500,-32.0,2.25,55.0,61.339140625000006,12.035,1.170809625,34.47
2021-07-06 16:13:27.546875000,-32.0,2.5,55.0,61.33796875,12.16,1.17096975,34.47
2021-07-06 16:13:27.554687500,-32.0,2.75,55.0,61.336796875000005,12.26,1.171129875,34.47
2021-07-06 16:13:27.562500000,-32.0,3.0,55.0,61.335625,12.36,1.17129,34.47
2021-07-06 16:13:27.570312500,-32.0,3.0,55.25,61.334453125,12.405,1.171450125,34.47
2021-07-06 16:13:27.578125000,-32.0,3.0,55.5,61.333281250000006,12.45,1.17161025,34.47
2021-07-06 16:13:27.585937500,-32.0,3.0,55.75,61.332109375,12.43,1.1717703750000001,34.47
2021-07-06 16:13:27.593750000,-32.0,3.0,56.0,61.330937500000005,12.41,1.1719305,34.47
2021-07-06 16:13:27.601562500,-32.0,3.0,55.75,61.329765625,12.344999999999999,1.172090625,34.47
2021-07-06 16:13:27.609375000,-32.0,3.0,55.5,61.32859375,12.28,1.1722507500000001,34.47
2021-07-06 16:13:27.617187500,-32.0,3.0,55.25,61.327421875000006,12.219999999999999,1.172410875,34.47
2021-07-06 16:13:27.625000000,-32.0,3.0,55.0,61.32625,12.16,1.172571,34.47
2021-07-06 16:13:27.632812500,-32.0,3.0,55.0,61.325078125000005,12.135,1.172731125,34.47
2021-07-06 16:13:27.640625000,-32.0,3.0,55.0,61.32390625,12.11,1.17289125,34.47
2021-07-06 16:13:27.648437500,-32.0,3.0,55.0,61.322734375,12.145,1.173051375,34.47
2021-07-06 16:13:27.656250000,-32.0,3.0,55.0,61.321562500000006,12.18,1.1732115,34.47
2021-07-06 16:13:27.664062500,-32.0,3.0,55.0,61.320390625,12.254999999999999,1.173371625,34.47
2021-07-06 16:13:27.671875000,-32.0,3.0,55.0,61.319218750000005,12.33,1.17353175,34.47
2021-07-06 16:13:27.679687500,-32.0,3.0,55.0,61.318046875,12.41,1.173691875,34.47
2021-07-06 16:13:27.687500000,-32.0,3.0,55.0,61.316875,12.49,1.1738520000000001,34.47
2021-07-06 16:13:27.695312500,-32.0,3.0,55.25,61.315703125000006,12.530000000000001,1.174012125,34.47
2021-07-06 16:13:27.703125000,-32.0,3.0,55.5,61.31453125,12.57,1.17417225,34.47
2021-07-06 16:13:27.710937500,-32.0,3.0,55.75,61.313359375000005,12.515,1.174332375,34.47
2021-07-06 16:13:27.718750000,-32.0,3.0,56.0,61.3121875,12.46,1.1744925,34.47
2021-07-06 16:13:27.726562500,-32.0,3.0,55.75,61.311015625,12.295000000000002,1.174652625,34.47
2021-07-06 16:13:27.734375000,-32.0,3.0,55.5,61.309843750000006,12.13,1.17481275,34.47
2021-07-06 16:13:27.742187500,-32.0,3.0,55.25,61.308671875,11.855,1.174972875,34.47
2021-07-06 16:13:27.750000000,-32.0,3.0,55.0,61.307500000000005,11.58,1.175133,34.47
2021-07-06 16:13:27.757812500,-32.0,3.0,55.0,61.306328125,11.23,1.174972875,34.47
2021-07-06 16:13:27.765625000,-32.0,3.0,55.0,61.30515625,10.88,1.17481275,34.47
2021-07-06 16:13:27.773437500,-32.0,3.0,55.0,61.303984375000006,10.510000000000002,1.174652625,34.47
2021-07-06 16:13:27.781250000,-32.0,3.0,55.0,61.3028125,10.14,1.1744925,34.47
2021-07-06 16:13:27.789062500,-32.0,3.0,55.0,61.301640625000005,9.775,1.174332375,34.47
2021-07-06 16:13:27.796875000,-32.0,3.0,55.0,61.30046875,9.41,1.17417225,34.47
2021-07-06 16:13:27.804687500,-32.0,3.0,55.0,61.299296875,9.075,1.174012125,34.47
2021-07-06 16:13:27.812500000,-32.0,3.0,55.0,61.298125000000006,8.74,1.1738520000000001,34.47
2021-07-06 16:13:27.820312500,-32.0,3.0,55.0,61.296953125,8.4,1.173691875,34.47
2021-07-06 16:13:27.828125000,-32.0,3.0,55.0,61.295781250000005,8.06,1.17353175,34.47
2021-07-06 16:13:27.835937500,-32.0,3.0,55.0,61.294609375,7.66,1.173371625,34.47
2021-07-06 16:13:27.843750000,-32.0,3.0,55.0,61.2934375,7.26,1.1732115,34.47
2021-07-06 16:13:27.851562500,-32.0,3.0,55.0,61.292265625000006,6.76,1.173051375,34.47
2021-07-06 16:13:27.859375000,-32.0,3.0,55.0,61.29109375,6.26,1.17289125,34.47
2021-07-06 16:13:27.867187500,-32.0,3.0,55.0,61.289921875000005,5.635,1.172731125,34.47
2021-07-06 16:13:27.875000000,-32.0,3.0,55.0,61.28875,5.01,1.172571,34.47
2021-07-06 16:13:27.882812500,-32.0,3.0,55.0,61.287578125,4.265,1.172410875,34.47
2021-07-06 16:13:27.890625000,-32.0,3.0,55.0,61.286406250000006,3.52,1.1722507500000001,34.47
2021-07-06 16:13:27.898437500,-32.0,3.0,55.0,61.285234375,2.68,1.172090625,34.47
2021-07-06 16:13:27.906250000,-32.0,3.0,55.0,61.284062500000005,1.84,1.1719305,34.47
2021-07-06 16:13:27.914062500,-32.0,3.0,55.25,61.282890625,0.9450000000000001,1.1717703750000001,34.47
2021-07-06 16:13:27.921875000,-32.0,3.0,55.5,61.28171875,0.05,1.17161025,34.47
2021-07-06 16:13:27.929687500,-32.0,3.0,55.75,61.280546875000006,-0.9,1.171450125,34.47
2021-07-06 16:13:27.937500000,-32.0,3.0,56.0,61.279375,-1.85,1.17129,34.47
2021-07-06 16:13:27.945312500,-32.0,3.0,55.75,61.278203125000005,-2.8449999999999998,1.171129875,34.47
2021-07-06 16:13:27.953125000,-32.0,3.0,55.5,61.27703125,-3.84,1.17096975,34.47
2021-07-06 16:13:27.960937500,-32.0,3.0,55.25,61.275859375,-4.855,1.170809625,34.47
2021-07-06 16:13:27.968750000,-32.0,3.0,55.0,61.274687500000006,-5.87,1.1706495000000001,34.47
2021-07-06 16:13:27.976562500,-32.0,3.0,55.0,61.273515625,-6.875,1.170489375,34.47
2021-07-06 16:13:27.984375000,-32.0,3.0,55.0,61.272343750000005,-7.88,1.17032925,34.47
2021-07-06 16:13:27.992187500,-32.0,3.0,55.0,61.271171875,-8.82,1.1701691250000001,34.47
2021-07-06 16:13:28.000000000,-32.0,3.0,55.0,61.27,-9.76,1.170009,34.47
2021-07-06 16:13:28.007812500,-32.0,3.0,55.0,61.26890625,-10.615,1.169888875,34.47
2021-07-06 16:13:28.015625000,-32.0,3.0,55.0,61.267812500000005,-11.47,1.16976875,34.47
2021-07-06 16:13:28.023437500,-32.0,3.0,55.0,61.26671875,-12.275,1.169648625,34.47
2021-07-06 16:13:28.031250000,-32.0,3.0,55.0,61.265625,-13.08,1.1695285,34.47
2021-07-06 16:13:28.039062500,-32.0,3.0,55.0,61.264531250000005,-13.93,1.169408375,34.47
2021-07-06 16:13:28.046875000,-32.0,3.0,55.0,61.2634375,-14.78,1.1692882500000001,34.47
2021-07-06 16:13:28.054687500,-32.0,3.0,55.0,61.26234375000001,-15.780000000000001,1.1691681250000001,34.47
2021-07-06 16:13:28.062500000,-32.0,3.0,55.0,61.261250000000004,-16.78,1.169048,34.47
2021-07-06 16:13:28.070312500,-32.0,3.0,55.0,61.26015625,-18.025,1.168927875,34.47
2021-07-06 16:13:28.078125000,-32.0,3.0,55.0,61.259062500000006,-19.27,1.16880775,34.47
2021-07-06 16:13:28.085937500,-32.0,3.0,55.0,61.25796875,-20.775,1.168687625,34.47
2021-07-06 16:13:28.093750000,-32.0,3.0,55.0,61.256875,-22.28,1.1685675,34.47
2021-07-06 16:13:28.101562500,-32.0,3.0,55.0,61.255781250000005,-23.93,1.168447375,34.47
2021-07-06 16:13:28.109375000,-32.0,3.0,55.0,61.2546875,-25.58,1.16832725,34.47
2021-07-06 16:13:28.117187500,-32.0,3.0,55.0,61.25359375,-27.174999999999997,1.168207125,34.47
2021-07-06 16:13:28.125000000,-32.0,3.0,55.0,61.252500000000005,-28.77,1.1680869999999999,34.47
2021-07-06 16:13:28.132812500,-32.0,3.0,55.0,61.25140625,-30.055,1.167966875,34.47
2021-07-06 16:13:28.140625000,-32.0,3.0,55.0,61.2503125,-31.34,1.16784675,34.47
2021-07-06 16:13:28.148437500,-32.0,3.0,55.0,61.249218750000004,-32.105,1.167726625,34.47
2021-07-06 16:13:28.156250000,-32.0,3.0,55.0,61.248125,-32.87,1.1676065,34.47
2021-07-06 16:13:28.164062500,-32.0,3.0,55.0,61.247031250000006,-32.985,1.167486375,34.47
2021-07-06 16:13:28.171875000,-32.0,3.0,55.0,61.245937500000004,-33.1,1.16736625,34.47
2021-07-06 16:13:28.179687500,-32.0,3.0,55.0,61.24484375,-32.57,1.167246125,34.47
2021-07-06 16:13:28.187500000,-32.0,3.0,55.0,61.243750000000006,-32.04,1.1671259999999999,34.47
2021-07-06 16:13:28.195312500,-32.0,3.0,55.0,61.24265625,-30.945,1.1670058749999999,34.47
2021-07-06 16:13:28.203125000,-32.0,3.0,55.0,61.2415625,-29.85,1.1668857499999998,34.47
2021-07-06 16:13:28.210937500,-32.0,3.0,55.0,61.240468750000005,-28.325000000000003,1.166765625,34.47
2021-07-06 16:13:28.218750000,-32.0,3.0,55.0,61.239375,-26.8,1.1666455,34.47
2021-07-06 16:13:28.226562500,-32.0,3.0,55.0,61.23828125,-24.98,1.166525375,34.47
2021-07-06 16:13:28.234375000,-32.0,3.0,55.0,61.237187500000005,-23.16,1.16640525,34.47
2021-07-06 16:13:28.242187500,-32.0,3.0,55.0,61.23609375,-21.17,1.166285125,34.47
2021-07-06 16:13:28.250000000,-32.0,3.0,55.0,61.235,-19.18,1.166165,34.47
2021-07-06 16:13:28.257812500,-32.0,3.0,55.0,61.233906250000004,-17.12,1.1660048749999998,34.47
2021-07-06 16:13:28.265625000,-32.0,3.0,55.0,61.2328125,-15.06,1.16584475,34.47
2021-07-06 16:13:28.273437500,-32.0,3.0,55.0,61.231718750000006,-13.02,1.165684625,34.47
2021-07-06 16:13:28.281250000,-32.0,3.0,55.0,61.230625,-10.98,1.1655244999999999,34.47
2021-07-06 16:13:28.289062500,-32.0,3.0,55.0,61.22953125,-9.045,1.165364375,34.47
2021-07-06 16:13:28.296875000,-32.0,3.0,55.0,61.228437500000005,-7.11,1.16520425,34.47
2021-07-06 16:13:28.304687500,-32.0,3.0,55.0,61.22734375,-5.35,1.1650441249999999,34.47
2021-07-06 16:13:28.312500000,-32.0,3.0,55.0,61.22625,-3.59,1.1648839999999998,34.47
2021-07-06 16:13:28.320312500,-32.0,3.0,55.0,61.225156250000005,-2.02,1.164723875,34.47
2021-07-06 16:13:28.328125000,-32.0,3.0,55.0,61.2240625,-0.45,1.16456375,34.47
2021-07-06 16:13:28.335937500,-32.0,3.0,55.0,61.22296875,0.9300000000000002,1.1644036249999998,34.47
2021-07-06 16:13:28.343750000,-32.0,3.0,55.0,61.221875000000004,2.31,1.1642435,34.47
2021-07-06 16:13:28.351562500,-32.0,3.0,55.0,61.22078125,3.535,1.164083375,34.47
2021-07-06 16:13:28.359375000,-32.0,3.0,55.0,61.219687500000006,4.76,1.1639232499999999,34.47
2021-07-06 16:13:28.367187500,-32.0,3.0,55.0,61.218593750000004,5.87,1.163763125,34.47
2021-07-06 16:13:28.375000000,-32.0,3.0,55.0,61.2175,6.98,1.163603,34.47
2021-07-06 16:13:28.382812500,-32.0,3.0,55.0,61.216406250000006,7.99,1.1634428749999999,34.47
2021-07-06 16:13:28.390625000,-32.0,3.0,55.0,61.2153125,9.0,1.16328275,34.47
2021-07-06 16:13:28.398437500,-32.0,3.0,55.0,61.21421875,9.89,1.163122625,34.47
2021-07-06 16:13:28.406250000,-32.0,3.0,55.0,61.213125000000005,10.78,1.1629625,34.47
2021-07-06 16:13:28.414062500,-32.0,3.0,55.0,61.21203125,11.54,1.162802375,34.47
2021-07-06 16:13:28.421875000,-32.0,3.0,55.0,61.2109375,12.3,1.16264225,34.47
2021-07-06 16:13:28.429687500,-32.0,3.0,55.0,61.209843750000005,12.925,1.162482125,34.47
2021-07-06 16:13:28.437500000,-32.0,3.0,55.0,61.20875,13.55,1.162322,34.47
2021-07-06 16:13:28.445312500,-32.0,3.0,55.0,61.20765625,14.04,1.162161875,34.47
2021-07-06 16:13:28.453125000,-32.0,3.0,55.0,61.206562500000004,14.53,1.16200175,34.47
2021-07-06 16:13:28.460937500,-32.0,3.0,55.0,61.20546875,14.915,1.1618416249999999,34.47
2021-07-06 16:13:28.468750000,-32.0,3.0,55.0,61.204375000000006,15.3,1.1616815,34.47
2021-07-06 16:13:28.476562500,-32.0,3.0,55.0,61.20328125,15.605,1.161521375,34.47
2021-07-06 16:13:28.484375000,-32.0,3.0,55.0,61.2021875,15.91,1.16136125,34.47
2021-07-06 16:13:28.492187500,-32.0,3.0,55.0,61.201093750000005,16.165,1.161201125,34.47
2021-07-06 16:13:28.500000000,-32.0,3.0,55.0,61.2,16.42,1.161041,34.47
2021-07-06 16:13:28.507812500,-32.0,3.0,55.0,61.19890625,16.655,1.1611210625,34.47
2021-07-06 16:13:28.515625000,-32.0,3.0,55.0,61.197812500000005,16.89,1.161201125,34.47
2021-07-06 16:13:28.523437500,-32.0,3.0,55.0,61.19671875,17.12,1.1612811875,34.47
2021-07-06 16:13:28.531250000,-32.0,3.0,55.0,61.195625,17.35,1.16136125,34.47
2021-07-06 16:13:28.539062500,-32.25,3.0,55.0,61.194531250000004,17.59,1.1614413125,34.47
2021-07-06 16:13:28.546875000,-32.5,3.0,55.0,61.1934375,17.83,1.161521375,34.47
2021-07-06 16:13:28.554687500,-32.75,3.0,55.0,61.192343750000006,18.08,1.1616014375,34.47
2021-07-06 16:13:28.562500000,-33.0,3.0,55.0,61.191250000000004,18.33,1.1616815,34.47
2021-07-06 16:13:28.570312500,-32.75,3.0,55.0,61.19015625,18.6,1.1617615625,34.47
2021-07-06 16:13:28.578125000,-32.5,3.0,55.0,61.189062500000006,18.87,1.1618416249999999,34.47
2021-07-06 16:13:28.585937500,-32.25,3.0,55.0,61.18796875,19.130000000000003,1.1619216875,34.47
2021-07-06 16:13:28.593750000,-32.0,3.0,55.0,61.186875,19.39,1.16200175,34.47
2021-07-06 16:13:28.601562500,-32.0,3.0,55.0,61.185781250000005,19.615000000000002,1.1620818124999999,34.47
2021-07-06 16:13:28.609375000,-32.0,3.0,55.0,61.1846875,19.84,1.162161875,34.47
2021-07-06 16:13:28.617187500,-32.0,3.0,55.0,61.18359375,19.985,1.1622419375,34.47
2021-07-06 16:13:28.625000000,-32.0,3.0,55.0,61.182500000000005,20.13,1.162322,34.47
2021-07-06 16:13:28.632812500,-32.25,3.0,55.0,61.18140625,20.145,1.1624020625,34.47
2021-07-06 16:13:28.640625000,-32.5,3.0,55.0,61.1803125,20.16,1.162482125,34.47
2021-07-06 16:13:28.648437500,-32.75,3.0,55.0,61.179218750000004,20.025,1.1625621875,34.47
2021-07-06 16:13:28.656250000,-33.0,3.0,55.0,61.178125,19.89,1.16264225,34.47
2021-07-06 16:13:28.664062500,-32.75,3.0,55.0,61.177031250000006,19.595,1.1627223125,34.47
2021-07-06 16:13:28.671875000,-32.5,3.0,55.0,61.1759375,19.3,1.162802375,34.47
2021-07-06 16:13:28.679687500,-32.25,3.0,55.0,61.17484375,18.895,1.1628824375,34.47
2021-07-06 16:13:28.687500000,-32.0,3.0,55.0,61.173750000000005,18.49,1.1629625,34.47
2021-07-06 16:13:28.695312500,-32.0,3.0,55.0,61.17265625,18.055,1.1630425625,34.47
2021-07-06 16:13:28.703125000,-32.0,3.0,55.0,61.1715625,17.62,1.163122625,34.47
2021-07-06 16:13:28.710937500,-32.0,3.0,55.0,61.170468750000005,17.225,1.1632026874999999,34.47
2021-07-06 16:13:28.718750000,-32.0,3.0,55.0,61.169375,16.83,1.16328275,34.47
2021-07-06 16:13:28.726562500,-32.0,3.0,55.0,61.16828125,16.534999999999997,1.1633628125,34.47
2021-07-06 16:13:28.734375000,-32.0,3.0,55.0,61.167187500000004,16.24,1.1634428749999999,34.47
2021-07-06 16:13:28.742187500,-32.0,3.0,55.0,61.16609375,16.044999999999998,1.1635229375,34.47
2021-07-06 16:13:28.750000000,-32.0,3.0,55.0,61.165000000000006,15.85,1.163603,34.47
2021-07-06 16:13:28.757812500,-32.0,3.0,55.0,61.163906250000004,15.7,1.1634428749999999,34.47
2021-07-06 16:13:28.765625000,-32.0,3.0,55.0,61.1628125,15.55,1.16328275,34.47
2021-07-06 16:13:28.773437500,-32.0,3.0,55.0,61.161718750000006,15.39,1.163122625,34.47
2021-07-06 16:13:28.781250000,-32.0,3.0,55.0,61.160625,15.23,1.1629625,34.47
