TimeStamp,empatica.acc.x,empatica.acc.y,empatica.acc.z,empatica.hr,empatica.bvp,empatica.eda,empatica.temp
2021-07-06 16:20:15.039062500,-26.0,2.0,58.0,59.645312499999996,16.395,0.79598215625,33.1584375
2021-07-06 16:20:15.046875000,-26.0,2.0,58.0,59.644375,15.95,0.7960221875,33.158125
2021-07-06 16:20:15.054687500,-26.0,2.0,58.0,59.6434375,15.46,0.7960622187499999,33.1578125
2021-07-06 16:20:15.062500000,-26.0,2.0,58.0,59.6425,14.97,0.79610225,33.1575
2021-07-06 16:20:15.070312500,-26.0,2.0,58.0,59.6415625,14.45,0.79614228125,33.1571875
2021-07-06 16:20:15.078125000,-26.0,2.0,58.0,59.640625,13.93,0.7961823124999999,33.156875
2021-07-06 16:20:15.085937500,-26.0,2.0,58.0,59.6396875,13.395,0.79622234375,33.1565625
2021-07-06 16:20:15.093750000,-26.0,2.0,58.0,59.63875,12.86,0.796262375,33.15625
2021-07-06 16:20:15.101562500,-26.0,2.0,58.0,59.637812499999995,12.32,0.7963024062499999,33.1559375
2021-07-06 16:20:15.109375000,-26.0,2.0,58.0,59.636874999999996,11.78,0.7963424375,33.155625
2021-07-06 16:20:15.117187500,-26.0,2.0,58.0,59.6359375,11.285,0.79638246875,33.1553125
2021-07-06 16:20:15.125000000,-26.0,2.0,58.0,59.635,10.79,0.7964225,33.155
2021-07-06 16:20:15.132812500,-26.0,2.0,58.0,59.6340625,10.36,0.79646253125,33.154687499999994
2021-07-06 16:20:15.140625000,-26.0,2.0,58.0,59.633125,9.93,0.7965025625,33.154374999999995
2021-07-06 16:20:15.148437500,-26.0,2.0,58.0,59.6321875,9.585,0.79654259375,33.154062499999995
2021-07-06 16:20:15.156250000,-26.0,2.0,58.0,59.63125,9.24,0.796582625,33.153749999999995
2021-07-06 16:20:15.164062500,-26.0,2.0,58.0,59.6303125,8.93,0.79662265625,33.153437499999995
2021-07-06 16:20:15.171875000,-26.0,2.0,58.0,59.629374999999996,8.62,0.7966626875,33.153124999999996
2021-07-06 16:20:15.179687500,-26.0,2.0,58.0,59.6284375,8.274999999999999,0.79670271875,33.152812499999996
2021-07-06 16:20:15.187500000,-26.0,2.0,58.0,59.6275,7.93,0.7967427499999999,33.152499999999996
2021-07-06 16:20:15.195312500,-26.0,2.0,58.0,59.6265625,7.475,0.79678278125,33.1521875
2021-07-06 16:20:15.203125000,-26.0,2.0,58.0,59.625625,7.02,0.7968228125,33.151875
2021-07-06 16:20:15.210937500,-26.0,2.0,58.0,59.6246875,6.404999999999999,0.7968628437499999,33.1515625
2021-07-06 16:20:15.218750000,-26.0,2.0,58.0,59.62375,5.79,0.796902875,33.15125
2021-07-06 16:20:15.226562500,-26.0,2.0,58.0,59.6228125,5.029999999999999,0.79694290625,33.1509375
2021-07-06 16:20:15.234375000,-26.0,2.0,58.0,59.621874999999996,4.27,0.7969829374999999,33.150625
2021-07-06 16:20:15.242187500,-26.0,2.0,58.0,59.6209375,3.3949999999999996,0.79702296875,33.1503125
2021-07-06 16:20:15.250000000,-26.0,2.0,58.0,59.62,2.52,0.797063,33.15
2021-07-06 16:20:15.257812500,-26.5,3.25,58.25,59.6190625,1.595,0.79702296875,33.15
2021-07-06 16:20:15.265625000,-27.0,4.5,58.5,59.618125,0.67,0.7969829374999999,33.15
2021-07-06 16:20:15.273437500,-27.5,5.75,58.75,59.6171875,-0.245,0.79694290625,33.15
2021-07-06 16:20:15.281250000,-28.0,7.0,59.0,59.61625,-1.16,0.796902875,33.15
2021-07-06 16:20:15.289062500,-28.25,4.5,58.5,59.6153125,-2.035,0.7968628437499999,33.15
2021-07-06 16:20:15.296875000,-28.5,2.0,58.0,59.614375,-2.91,0.7968228125,33.15
2021-07-06 16:20:15.304687500,-28.75,-0.5,57.5,59.613437499999996,-3.735,0.79678278125,33.15
2021-07-06 16:20:15.312500000,-29.0,-3.0,57.0,59.6125,-4.56,0.7967427499999999,33.15
2021-07-06 16:20:15.320312500,-27.5,-1.75,57.5,59.6115625,-5.335,0.79670271875,33.15
2021-07-06 16:20:15.328125000,-26.0,-0.5,58.0,59.610625,-6.11,0.7966626875,33.15
2021-07-06 16:20:15.335937500,-24.5,0.75,58.5,59.6096875,-6.865,0.79662265625,33.15
2021-07-06 16:20:15.343750000,-23.0,2.0,59.0,59.60875,-7.62,0.796582625,33.15
2021-07-06 16:20:15.351562500,-23.25,1.75,59.25,59.6078125,-8.39,0.79654259375,33.15
2021-07-06 16:20:15.359375000,-23.5,1.5,59.5,59.606875,-9.16,0.7965025625,33.15
2021-07-06 16:20:15.367187500,-23.75,1.25,59.75,59.605937499999996,-9.985,0.79646253125,33.15
2021-07-06 16:20:15.375000000,-24.0,1.0,60.0,59.605,-10.81,0.7964225,33.15
2021-07-06 16:20:15.382812500,-23.0,1.0,60.0,59.6040625,-11.7,0.79638246875,33.15
2021-07-06 16:20:15.390625000,-22.0,1.0,60.0,59.603125,-12.59,0.7963424375,33.15
2021-07-06 16:20:15.398437500,-21.0,1.0,60.0,59.6021875,-13.535,0.7963024062499999,33.15
2021-07-06 16:20:15.406250000,-20.0,1.0,60.0,59.60125,-14.48,0.796262375,33.15
2021-07-06 16:20:15.414062500,-20.25,1.0,60.0,59.6003125,-15.44,0.79622234375,33.15
2021-07-06 16:20:15.421875000,-20.5,1.0,60.0,59.599375,-16.4,0.7961823124999999,33.15
2021-07-06 16:20:15.429687500,-20.75,1.0,60.0,59.5984375,-17.31,0.79614228125,33.15
2021-07-06 16:20:15.437500000,-21.0,1.0,60.0,59.5975,-18.22,0.79610225,33.15
2021-07-06 16:20:15.445312500,-20.75,1.0,60.0,59.5965625,-19.045,0.7960622187499999,33.15
2021-07-06 16:20:15.453125000,-20.5,1.0,60.0,59.595625,-19.87,0.7960221875,33.15
2021-07-06 16:20:15.460937500,-20.25,1.0,60.0,59.5946875,-20.59,0.79598215625,33.15
2021-07-06 16:20:15.468750000,-20.0,1.0,60.0,59.59375,-21.31,0.795942125,33.15
2021-07-06 16:20:15.476562500,-19.5,1.0,60.0,59.5928125,-21.975,0.79590209375,33.15
2021-07-06 16:20:15.484375000,-19.0,1.0,60.0,59.591875,-22.64,0.7958620625,33.15
2021-07-06 16:20:15.492187500,-18.5,1.0,60.0,59.5909375,-23.34,0.79582203125,33.15
2021-07-06 16:20:15.500000000,-18.0,1.0,60.0,59.59,-24.04,0.795782,33.15
2021-07-06 16:20:15.507812500,-17.5,1.0,60.5,59.5890625,-24.865000000000002,0.795782,33.15
2021-07-06 16:20:15.515625000,-17.0,1.0,61.0,59.588125,-25.69,0.795782,33.15
2021-07-06 16:20:15.523437500,-16.5,1.0,61.5,59.5871875,-26.71,0.795782,33.15
2021-07-06 16:20:15.531250000,-16.0,1.0,62.0,59.58625,-27.73,0.795782,33.15
2021-07-06 16:20:15.539062500,-15.75,1.0,62.0,59.5853125,-28.92,0.795782,33.15
2021-07-06 16:20:15.546875000,-15.5,1.0,62.0,59.584375,-30.11,0.795782,33.15
2021-07-06 16:20:15.554687500,-15.25,1.0,62.0,59.5834375,-31.37,0.795782,33.15
2021-07-06 16:20:15.562500000,-15.0,1.0,62.0,59.5825,-32.63,0.795782,33.15
2021-07-06 16:20:15.570312500,-15.5,1.0,61.75,59.5815625,-33.790000000000006,0.795782,33.15
2021-07-06 16:20:15.578125000,-16.0,1.0,61.5,59.580625,-34.95,0.795782,33.15
2021-07-06 16:20:15.585937500,-16.5,1.0,61.25,59.5796875,-35.825,0.795782,33.15
2021-07-06 16:20:15.593750000,-17.0,1.0,61.0,59.57875,-36.7,0.795782,33.15
2021-07-06 16:20:15.601562500,-17.0,1.25,61.25,59.5778125,-37.145,0.795782,33.15
2021-07-06 16:20:15.609375000,-17.0,1.5,61.5,59.576875,-37.59,0.795782,33.15
2021-07-06 16:20:15.617187500,-17.0,1.75,61.75,59.5759375,-37.525000000000006,0.795782,33.15
2021-07-06 16:20:15.625000000,-17.0,2.0,62.0,59.575,-37.46,0.795782,33.15
2021-07-06 16:20:15.632812500,-17.0,1.75,62.0,59.574062500000004,-36.870000000000005,0.795782,33.15
2021-07-06 16:20:15.640625000,-17.0,1.5,62.0,59.573125,-36.28,0.795782,33.15
2021-07-06 16:20:15.648437500,-17.0,1.25,62.0,59.5721875,-35.205,0.795782,33.15
2021-07-06 16:20:15.656250000,-17.0,1.0,62.0,59.57125,-34.13,0.795782,33.15
2021-07-06 16:20:15.664062500,-17.0,1.0,62.25,59.5703125,-32.63,0.795782,33.15
2021-07-06 16:20:15.671875000,-17.0,1.0,62.5,59.569375,-31.13,0.795782,33.15
2021-07-06 16:20:15.679687500,-17.0,1.0,62.75,59.5684375,-29.28,0.795782,33.15
2021-07-06 16:20:15.687500000,-17.0,1.0,63.0,59.5675,-27.43,0.795782,33.15
2021-07-06 16:20:15.695312500,-17.25,1.25,62.75,59.5665625,-25.335,0.795782,33.15
2021-07-06 16:20:15.703125000,-17.5,1.5,62.5,59.565625,-23.24,0.795782,33.15
2021-07-06 16:20:15.710937500,-17.75,1.75,62.25,59.5646875,-21.009999999999998,0.795782,33.15
2021-07-06 16:20:15.718750000,-18.0,2.0,62.0,59.56375,-18.78,0.795782,33.15
2021-07-06 16:20:15.726562500,-18.25,1.75,61.75,59.5628125,-16.515,0.795782,33.15
2021-07-06 16:20:15.734375000,-18.5,1.5,61.5,59.561875,-14.25,0.795782,33.15
2021-07-06 16:20:15.742187500,-18.75,1.25,61.25,59.5609375,-12.025,0.795782,33.15
2021-07-06 16:20:15.750000000,-19.0,1.0,61.0,59.56,-9.8,0.795782,33.15
2021-07-06 16:20:15.757812500,-19.5,1.25,60.5,59.5590625,-7.655,0.7958620625,33.15
2021-07-06 16:20:15.765625000,-20.0,1.5,60.0,59.558125000000004,-5.51,0.795942125,33.15
2021-07-06 16:20:15.773437500,-20.5,1.75,59.5,59.5571875,-3.4499999999999997,0.7960221875,33.15
2021-07-06 16:20:15.781250000,-21.0,2.0,59.0,59.55625,-1.39,0.79610225,33.15
2021-07-06 16:20:15.789062500,-19.5,1.75,60.0,59.5553125,0.5850000000000002,0.7961823125,33.15
2021-07-06 16:20:15.796875000,-18.0,1.5,61.0,59.554375,2.56,0.796262375,33.15
2021-07-06 16:20:15.804687500,-16.5,1.25,62.0,59.5534375,4.425,0.7963424375,33.15
2021-07-06 16:20:15.812500000,-15.0,1.0,63.0,59.5525,6.29,0.7964225,33.15
2021-07-06 16:20:15.820312500,-15.25,1.5,62.75,59.5515625,7.984999999999999,0.7965025625,33.15
2021-07-06 16:20:15.828125000,-15.5,2.0,62.5,59.550625000000004,9.68,0.796582625,33.15
2021-07-06 16:20:15.835937500,-15.75,2.5,62.25,59.5496875,11.155000000000001,0.7966626875,33.15
2021-07-06 16:20:15.843750000,-16.0,3.0,62.0,59.54875,12.63,0.79674275,33.15
2021-07-06 16:20:15.851562500,-17.0,2.0,62.25,59.5478125,13.870000000000001,0.7968228125,33.15
2021-07-06 16:20:15.859375000,-18.0,1.0,62.5,59.546875,15.11,0.796902875,33.15
2021-07-06 16:20:15.867187500,-19.0,0.0,62.75,59.5459375,16.15,0.7969829375,33.15
2021-07-06 16:20:15.875000000,-20.0,-1.0,63.0,59.545,17.19,0.7970630000000001,33.15
2021-07-06 16:20:15.882812500,-20.75,-0.75,62.25,59.5440625,18.085,0.7971430625,33.15
2021-07-06 16:20:15.890625000,-21.5,-0.5,61.5,59.543125,18.98,0.797223125,33.15
2021-07-06 16:20:15.898437500,-22.25,-0.25,60.75,59.542187500000004,19.755000000000003,0.7973031875000001,33.15
2021-07-06 16:20:15.906250000,-23.0,0.0,60.0,59.54125,20.53,0.79738325,33.15
2021-07-06 16:20:15.914062500,-20.25,-0.75,60.5,59.5403125,21.175,0.7974633125,33.15
2021-07-06 16:20:15.921875000,-17.5,-1.5,61.0,59.539375,21.82,0.797543375,33.15
2021-07-06 16:20:15.929687500,-14.75,-2.25,61.5,59.5384375,22.295,0.7976234375000001,33.15
2021-07-06 16:20:15.937500000,-12.0,-3.0,62.0,59.5375,22.77,0.7977035,33.15
2021-07-06 16:20:15.945312500,-12.25,-1.0,60.5,59.5365625,23.045,0.7977835625,33.15
2021-07-06 16:20:15.953125000,-12.5,1.0,59.0,59.535625,23.32,0.7978636250000001,33.15
2021-07-06 16:20:15.960937500,-12.75,3.0,57.5,59.534687500000004,23.42,0.7979436875,33.15
2021-07-06 16:20:15.968750000,-13.0,5.0,56.0,59.53375,23.52,0.79802375,33.15
2021-07-06 16:20:15.976562500,-13.25,3.5,55.5,59.5328125,23.52,0.7981038125000001,33.15
2021-07-06 16:20:15.984375000,-13.5,2.0,55.0,59.531875,23.52,0.7981838750000001,33.15
2021-07-06 16:20:15.992187500,-13.75,0.5,54.5,59.5309375,23.509999999999998,0.7982639375,33.15
2021-07-06 16:20:16.000000000,-14.0,-1.0,54.0,59.53,23.5,0.798344,33.15
2021-07-06 16:20:16.007812500,-14.0,-1.25,56.0,59.52921875,23.555,0.79846409375,33.1503125
2021-07-06 16:20:16.015625000,-14.0,-1.5,58.0,59.5284375,23.61,0.7985841875,33.150625
2021-07-06 16:20:16.023437500,-14.0,-1.75,60.0,59.52765625,23.740000000000002,0.79870428125,33.1509375
2021-07-06 16:20:16.031250000,-14.0,-2.0,62.0,59.526875000000004,23.87,0.798824375,33.15125
2021-07-06 16:20:16.039062500,-14.25,-2.25,61.75,59.52609375,24.015,0.79894446875,33.1515625
2021-07-06 16:20:16.046875000,-14.5,-2.5,61.5,59.5253125,24.16,0.7990645625,33.151875
2021-07-06 16:20:16.054687500,-14.75,-2.75,61.25,59.52453125,24.2,0.79918465625,33.1521875
2021-07-06 16:20:16.062500000,-15.0,-3.0,61.0,59.52375,24.24,0.79930475,33.152499999999996
2021-07-06 16:20:16.070312500,-15.5,-2.75,60.25,59.522968750000004,24.064999999999998,0.79942484375,33.152812499999996
2021-07-06 16:20:16.078125000,-16.0,-2.5,59.5,59.5221875,23.89,0.7995449375,33.153124999999996
2021-07-06 16:20:16.085937500,-16.5,-2.25,58.75,59.52140625,23.439999999999998,0.79966503125,33.153437499999995
2021-07-06 16:20:16.093750000,-17.0,-2.0,58.0,59.520625,22.99,0.799785125,33.153749999999995
2021-07-06 16:20:16.101562500,-16.25,-2.25,58.25,59.51984375,22.27,0.79990521875,33.154062499999995
2021-07-06 16:20:16.109375000,-15.5,-2.5,58.5,59.519062500000004,21.55,0.8000253125,33.154374999999995
2021-07-06 16:20:16.117187500,-14.75,-2.75,58.75,59.51828125,20.655,0.80014540625,33.154687499999994
2021-07-06 16:20:16.125000000,-14.0,-3.0,59.0,59.5175,19.76,0.8002655000000001,33.155
2021-07-06 16:20:16.132812500,-14.75,-4.0,59.25,59.51671875,18.835,0.8003855937500001,33.1553125
2021-07-06 16:20:16.140625000,-15.5,-5.0,59.5,59.5159375,17.91,0.8005056875000001,33.155625
2021-07-06 16:20:16.148437500,-16.25,-6.0,59.75,59.515156250000004,17.09,0.8006257812500001,33.1559375
2021-07-06 16:20:16.156250000,-17.0,-7.0,60.0,59.514375,16.27,0.800745875,33.15625
2021-07-06 16:20:16.164062500,-16.5,-7.25,60.0,59.51359375,15.615,0.80086596875,33.1565625
2021-07-06 16:20:16.171875000,-16.0,-7.5,60.0,59.5128125,14.96,0.8009860625,33.156875
2021-07-06 16:20:16.179687500,-15.5,-7.75,60.0,59.51203125,14.435,0.80110615625,33.1571875
2021-07-06 16:20:16.187500000,-15.0,-8.0,60.0,59.511250000000004,13.91,0.80122625,33.1575
2021-07-06 16:20:16.195312500,-15.25,-7.75,60.25,59.51046875,13.375,0.80134634375,33.1578125
2021-07-06 16:20:16.203125000,-15.5,-7.5,60.5,59.5096875,12.84,0.8014664375,33.158125
2021-07-06 16:20:16.210937500,-15.75,-7.25,60.75,59.50890625,12.145,0.80158653125,33.1584375
2021-07-06 16:20:16.218750000,-16.0,-7.0,61.0,59.508125,11.45,0.801706625,33.15875
2021-07-06 16:20:16.226562500,-15.75,-7.25,60.75,59.507343750000004,10.489999999999998,0.80182671875,33.1590625
2021-07-06 16:20:16.234375000,-15.5,-7.5,60.5,59.5065625,9.53,0.8019468125,33.159375
2021-07-06 16:20:16.242187500,-15.25,-7.75,60.25,59.50578125,8.295,0.80206690625,33.1596875
2021-07-06 16:20:16.250000000,-15.0,-8.0,60.0,59.505,7.06,0.802187,33.16
2021-07-06 16:20:16.257812500,-14.75,-7.5,59.75,59.50421875,5.664999999999999,0.80206690625,33.16
2021-07-06 16:20:16.265625000,-14.5,-7.0,59.5,59.503437500000004,4.27,0.8019468125,33.16
2021-07-06 16:20:16.273437500,-14.25,-6.5,59.25,59.50265625,2.8449999999999998,0.80182671875,33.16
2021-07-06 16:20:16.281250000,-14.0,-6.0,59.0,59.501875,1.42,0.801706625,33.16
2021-07-06 16:20:16.289062500,-14.5,-5.25,59.25,59.50109375,0.09499999999999997,0.80158653125,33.16
2021-07-06 16:20:16.296875000,-15.0,-4.5,59.5,59.5003125,-1.23,0.8014664375,33.16
2021-07-06 16:20:16.304687500,-15.5,-3.75,59.75,59.499531250000004,-2.415,0.80134634375,33.16
2021-07-06 16:20:16.312500000,-16.0,-3.0,60.0,59.49875,-3.6,0.80122625,33.16
2021-07-06 16:20:16.320312500,-16.75,-2.75,60.5,59.49796875,-4.685,0.80110615625,33.16
2021-07-06 16:20:16.328125000,-17.5,-2.5,61.0,59.4971875,-5.77,0.8009860625,33.16
2021-07-06 16:20:16.335937500,-18.25,-2.25,61.5,59.49640625,-6.845,0.80086596875,33.16
2021-07-06 16:20:16.343750000,-19.0,-2.0,62.0,59.495625000000004,-7.92,0.800745875,33.16
2021-07-06 16:20:16.351562500,-20.5,0.0,64.0,59.49484375,-9.09,0.8006257812500001,33.16
2021-07-06 16:20:16.359375000,-22.0,2.0,66.0,59.4940625,-10.26,0.8005056875000001,33.16
2021-07-06 16:20:16.367187500,-23.5,4.0,68.0,59.49328125,-11.605,0.8003855937500001,33.16
2021-07-06 16:20:16.375000000,-25.0,6.0,70.0,59.4925,-12.95,0.8002655000000001,33.16
2021-07-06 16:20:16.382812500,-26.75,4.0,68.0,59.491718750000004,-14.53,0.80014540625,33.16
2021-07-06 16:20:16.390625000,-28.5,2.0,66.0,59.4909375,-16.11,0.8000253125,33.16
2021-07-06 16:20:16.398437500,-30.25,0.0,64.0,59.49015625,-17.98,0.79990521875,33.16
2021-07-06 16:20:16.406250000,-32.0,-2.0,62.0,59.489375,-19.85,0.799785125,33.16
2021-07-06 16:20:16.414062500,-29.75,-0.5,60.75,59.48859375,-21.985,0.79966503125,33.16
2021-07-06 16:20:16.421875000,-27.5,1.0,59.5,59.487812500000004,-24.12,0.7995449375,33.16
2021-07-06 16:20:16.429687500,-25.25,2.5,58.25,59.48703125,-26.405,0.79942484375,33.16
2021-07-06 16:20:16.437500000,-23.0,4.0,57.0,59.48625,-28.69,0.79930475,33.16
2021-07-06 16:20:16.445312500,-22.5,4.0,57.25,59.48546875,-30.86,0.79918465625,33.16
2021-07-06 16:20:16.453125000,-22.0,4.0,57.5,59.4846875,-33.03,0.7990645625,33.16
2021-07-06 16:20:16.460937500,-21.5,4.0,57.75,59.483906250000004,-34.760000000000005,0.79894446875,33.16
2021-07-06 16:20:16.468750000,-21.0,4.0,58.0,59.483125,-36.49,0.798824375,33.16
2021-07-06 16:20:16.476562500,-21.5,4.0,57.5,59.48234375,-37.53,0.79870428125,33.16
2021-07-06 16:20:16.484375000,-22.0,4.0,57.0,59.4815625,-38.57,0.7985841875,33.16
2021-07-06 16:20:16.492187500,-22.5,4.0,56.5,59.48078125,-38.955,0.79846409375,33.16
2021-07-06 16:20:16.500000000,-23.0,4.0,56.0,59.480000000000004,-39.34,0.798344,33.16
2021-07-06 16:20:16.507812500,-22.75,4.0,57.25,59.47921875,-39.385000000000005,0.79838403125,33.16
2021-07-06 16:20:16.515625000,-22.5,4.0,58.5,59.4784375,-39.43,0.7984240625000001,33.16
2021-07-06 16:20:16.523437500,-22.25,4.0,59.75,59.47765625,-39.665,0.79846409375,33.16
2021-07-06 16:20:16.531250000,-22.0,4.0,61.0,59.476875,-39.9,0.798504125,33.16
2021-07-06 16:20:16.539062500,-22.5,3.25,61.0,59.47609375,-40.78,0.7985441562500001,33.16
2021-07-06 16:20:16.546875000,-23.0,2.5,61.0,59.4753125,-41.66,0.7985841875,33.16
2021-07-06 16:20:16.554687500,-23.5,1.75,61.0,59.47453125,-43.355,0.79862421875,33.16
2021-07-06 16:20:16.562500000,-24.0,1.0,61.0,59.47375,-45.05,0.7986642500000001,33.16
2021-07-06 16:20:16.570312500,-22.0,0.5,61.25,59.47296875,-47.31,0.79870428125,33.16
2021-07-06 16:20:16.578125000,-20.0,0.0,61.5,59.4721875,-49.57,0.7987443125,33.16
2021-07-06 16:20:16.585937500,-18.0,-0.5,61.75,59.47140625,-51.785,0.7987843437500001,33.16
2021-07-06 16:20:16.593750000,-16.0,-1.0,62.0,59.470625,-54.0,0.798824375,33.16
2021-07-06 16:20:16.601562500,-18.5,0.0,61.0,59.46984375,-55.47,0.79886440625,33.16
2021-07-06 16:20:16.609375000,-21.0,1.0,60.0,59.4690625,-56.94,0.7989044375000001,33.16
2021-07-06 16:20:16.617187500,-23.5,2.0,59.0,59.46828125,-57.075,0.79894446875,33.16
2021-07-06 16:20:16.625000000,-26.0,3.0,58.0,59.4675,-57.21,0.7989845,33.16
2021-07-06 16:20:16.632812500,-26.75,2.5,57.5,59.46671875,-55.735,0.7990245312500001,33.16
2021-07-06 16:20:16.640625000,-27.5,2.0,57.0,59.4659375,-54.26,0.7990645625,33.16
2021-07-06 16:20:16.648437500,-28.25,1.5,56.5,59.46515625,-51.224999999999994,0.7991045937500001,33.16
2021-07-06 16:20:16.656250000,-29.0,1.0,56.0,59.464375,-48.19,0.799144625,33.16
2021-07-06 16:20:16.664062500,-28.75,1.25,56.25,59.46359375,-43.84,0.79918465625,33.16
2021-07-06 16:20:16.671875000,-28.5,1.5,56.5,59.4628125,-39.49,0.7992246875000001,33.16
2021-07-06 16:20:16.679687500,-28.25,1.75,56.75,59.46203125,-34.19,0.79926471875,33.16
2021-07-06 16:20:16.687500000,-28.0,2.0,57.0,59.46125,-28.89,0.79930475,33.16
2021-07-06 16:20:16.695312500,-27.25,2.0,57.25,59.46046875,-22.955,0.7993447812500001,33.16
2021-07-06 16:20:16.703125000,-26.5,2.0,57.5,59.4596875,-17.02,0.7993848125,33.16
2021-07-06 16:20:16.710937500,-25.75,2.0,57.75,59.45890625,-10.68,0.79942484375,33.16
2021-07-06 16:20:16.718750000,-25.0,2.0,58.0,59.458125,-4.34,0.7994648750000001,33.16
2021-07-06 16:20:16.726562500,-25.75,1.75,58.5,59.45734375,2.3049999999999997,0.79950490625,33.16
2021-07-06 16:20:16.734375000,-26.5,1.5,59.0,59.4565625,8.95,0.7995449375,33.16
2021-07-06 16:20:16.742187500,-27.25,1.25,59.5,59.45578125,15.875,0.7995849687500001,33.16
2021-07-06 16:20:16.750000000,-28.0,1.0,60.0,59.455,22.8,0.799625,33.16
2021-07-06 16:20:16.757812500,-27.5,1.25,60.0,59.45421875,30.005000000000003,0.7993848125,33.16
2021-07-06 16:20:16.765625000,-27.0,1.5,60.0,59.4534375,37.21,0.799144625,33.16
2021-07-06 16:20:16.773437500,-26.5,1.75,60.0,59.45265625,44.6,0.7989044375000001,33.16
2021-07-06 16:20:16.781250000,-26.0,2.0,60.0,59.451875,51.99,0.7986642500000001,33.16
2021-07-06 16:20:16.789062500,-26.25,2.0,59.25,59.45109375,59.275000000000006,0.7984240625,33.16
2021-07-06 16:20:16.796875000,-26.5,2.0,58.5,59.4503125,66.56,0.798183875,33.16
2021-07-06 16:20:16.804687500,-26.75,2.0,57.75,59.44953125,73.24000000000001,0.7979436875,33.16
2021-07-06 16:20:16.812500000,-27.0,2.0,57.0,59.44875,79.92,0.7977035,33.16
2021-07-06 16:20:16.820312500,-26.75,2.0,57.25,59.44796875,85.445,0.7974633125,33.16
2021-07-06 16:20:16.828125000,-26.5,2.0,57.5,59.4471875,90.97,0.797223125,33.16
2021-07-06 16:20:16.835937500,-26.25,2.0,57.75,59.44640625,94.91,0.7969829375,33.16
2021-07-06 16:20:16.843750000,-26.0,2.0,58.0,59.445625,98.85,0.7967427499999999,33.16
2021-07-06 16:20:16.851562500,-25.75,2.0,58.25,59.44484375,101.07499999999999,0.7965025625,33.16
2021-07-06 16:20:16.859375000,-25.5,2.0,58.5,59.4440625,103.3,0.796262375,33.16
2021-07-06 16:20:16.867187500,-25.25,2.0,58.75,59.44328125,103.99000000000001,0.7960221875,33.16
2021-07-06 16:20:16.875000000,-25.0,2.0,59.0,59.4425,104.68,0.795782,33.16
2021-07-06 16:20:16.882812500,-25.25,2.0,58.75,59.44171875,104.225,0.7955418125,33.16
2021-07-06 16:20:16.890625000,-25.5,2.0,58.5,59.4409375,103.77,0.795301625,33.16
2021-07-06 16:20:16.898437500,-25.75,2.0,58.25,59.44015625,102.58500000000001,0.7950614375,33.16
2021-07-06 16:20:16.906250000,-26.0,2.0,58.0,59.439375,101.4,0.79482125,33.16
2021-07-06 16:20:16.914062500,-26.0,2.0,58.0,59.43859375,99.9,0.7945810624999999,33.16
2021-07-06 16:20:16.921875000,-26.0,2.0,58.0,59.4378125,98.4,0.794340875,33.16
2021-07-06 16:20:16.929687500,-26.0,2.0,58.0,59.43703125,96.93,0.7941006875,33.16
2021-07-06 16:20:16.937500000,-26.0,2.0,58.0,59.43625,95.46,0.7938605,33.16
2021-07-06 16:20:16.945312500,-25.75,2.0,58.0,59.43546875,94.36,0.7936203125,33.16
2021-07-06 16:20:16.953125000,-25.5,2.0,58.0,59.4346875,93.26,0.793380125,33.16
2021-07-06 16:20:16.960937500,-25.25,2.0,58.0,59.43390625,92.825,0.7931399375,33.16
2021-07-06 16:20:16.968750000,-25.0,2.0,58.0,59.433125,92.39,0.7928997499999999,33.16
2021-07-06 16:20:16.976562500,-25.25,2.0,58.0,59.43234375,92.68,0.7926595624999999,33.16
2021-07-06 16:20:16.984375000,-25.5,2.0,58.0,59.4315625,92.97,0.7924193749999999,33.16
2021-07-06 16:20:16.992187500,-25.75,2.0,58.0,59.43078125,93.64,0.7921791874999999,33.16
2021-07-06 16:20:17.000000000,-26.0,2.0,58.0,59.43,94.31,0.791939,33.16
2021-07-06 16:20:17.007812500,-26.25,2.0,58.0,59.429609375,94.625,0.7919790312499999,33.16
2021-07-06 16:20:17.015625000,-26.5,2.0,58.0,59.42921875,94.94,0.7920190625,33.16
2021-07-06 16:20:17.023437500,-26.75,2.0,58.0,59.428828125,94.02,0.7920590937499999,33.16
2021-07-06 16:20:17.031250000,-27.0,2.0,58.0,59.4284375,93.1,0.792099125,33.16
2021-07-06 16:20:17.039062500,-26.75,2.0,58.0,59.428046875,90.32,0.79213915625,33.16
2021-07-06 16:20:17.046875000,-26.5,2.0,58.0,59.42765625,87.54,0.7921791874999999,33.16
2021-07-06 16:20:17.054687500,-26.25,2.0,58.0,59.427265625,82.86500000000001,0.79221921875,33.16
2021-07-06 16:20:17.062500000,-26.0,2.0,58.0,59.426875,78.19,0.79225925,33.16
2021-07-06 16:20:17.070312500,-26.0,2.0,58.0,59.426484375,72.24000000000001,0.7922992812499999,33.16
2021-07-06 16:20:17.078125000,-26.0,2.0,58.0,59.42609375,66.29,0.7923393125,33.16
2021-07-06 16:20:17.085937500,-26.0,2.0,58.0,59.425703125,60.06,0.79237934375,33.16
2021-07-06 16:20:17.093750000,-26.0,2.0,58.0,59.4253125,53.83,0.7924193749999999,33.16
2021-07-06 16:20:17.101562500,-26.0,2.0,58.0,59.424921875,48.224999999999994,0.79245940625,33.16
2021-07-06 16:20:17.109375000,-26.0,2.0,58.0,59.42453125,42.62,0.7924994375,33.16
2021-07-06 16:20:17.117187500,-26.0,2.0,58.0,59.424140625,38.105000000000004,0.79253946875,33.16
2021-07-06 16:20:17.125000000,-26.0,2.0,58.0,59.42375,33.59,0.7925795,33.16
2021-07-06 16:20:17.132812500,-26.0,2.0,58.0,59.423359375,30.145000000000003,0.79261953125,33.16
2021-07-06 16:20:17.140625000,-26.0,2.0,58.0,59.42296875,26.7,0.7926595625,33.16
2021-07-06 16:20:17.148437500,-26.0,2.0,58.0,59.422578125,24.060000000000002,0.79269959375,33.16
2021-07-06 16:20:17.156250000,-26.0,2.0,58.0,59.4221875,21.42,0.7927396250000001,33.16
2021-07-06 16:20:17.164062500,-26.0,2.0,58.0,59.421796875,19.375,0.79277965625,33.16
2021-07-06 16:20:17.171875000,-26.0,2.0,58.0,59.42140625,17.33,0.7928196875,33.16
2021-07-06 16:20:17.179687500,-26.0,2.0,58.0,59.421015625,15.889999999999999,0.79285971875,33.16
2021-07-06 16:20:17.187500000,-26.0,2.0,58.0,59.420625,14.45,0.79289975,33.16
2021-07-06 16:20:17.195312500,-26.0,2.0,58.0,59.420234375,13.735,0.79293978125,33.16
2021-07-06 16:20:17.203125000,-26.0,2.0,58.0,59.41984375,13.02,0.7929798125,33.16
2021-07-06 16:20:17.210937500,-26.0,2.0,58.0,59.419453125,13.075,0.79301984375,33.16
2021-07-06 16:20:17.218750000,-26.0,2.0,58.0,59.4190625,13.13,0.793059875,33.16
2021-07-06 16:20:17.226562500,-26.0,2.0,58.0,59.418671875,13.805,0.79309990625,33.16
2021-07-06 16:20:17.234375000,-26.0,2.0,58.0,59.41828125,14.48,0.7931399375,33.16
2021-07-06 16:20:17.242187500,-26.0,2.0,58.0,59.417890625,15.42,0.7931799687500001,33.16
2021-07-06 16:20:17.250000000,-26.0,2.0,58.0,59.417500000000004,16.36,0.79322,33.16
2021-07-06 16:20:17.257812500,-26.0,2.0,58.0,59.417109375,17.08,0.79309990625,33.16
2021-07-06 16:20:17.265625000,-26.0,2.0,58.0,59.41671875,17.8,0.7929798125,33.16
2021-07-06 16:20:17.273437500,-26.0,2.0,58.0,59.416328125,17.82,0.79285971875,33.16
2021-07-06 16:20:17.281250000,-26.0,2.0,58.0,59.4159375,17.84,0.7927396250000001,33.16
2021-07-06 16:20:17.289062500,-26.0,2.0,58.0,59.415546875000004,16.755,0.7926195312500001,33.16
2021-07-06 16:20:17.296875000,-26.0,2.0,58.0,59.41515625,15.67,0.7924994375000001,33.16
2021-07-06 16:20:17.304687500,-26.0,2.0,58.0,59.414765625,13.25,0.7923793437500001,33.16
2021-07-06 16:20:17.312500000,-26.0,2.0,58.0,59.414375,10.83,0.7922592500000001,33.16
2021-07-06 16:20:17.320312500,-26.0,2.0,58.0,59.413984375,7.115,0.79213915625,33.16
2021-07-06 16:20:17.328125000,-26.0,2.0,58.0,59.413593750000004,3.4,0.7920190625,33.16
2021-07-06 16:20:17.335937500,-26.0,2.0,58.0,59.413203125,-1.1800000000000002,0.79189896875,33.16
2021-07-06 16:20:17.343750000,-26.0,2.0,58.0,59.4128125,-5.76,0.791778875,33.16
2021-07-06 16:20:17.351562500,-26.0,2.0,58.0,59.412421875,-10.445,0.79165878125,33.16
2021-07-06 16:20:17.359375000,-26.0,2.0,58.0,59.41203125,-15.13,0.7915386875,33.16
2021-07-06 16:20:17.367187500,-26.0,2.0,58.0,59.411640625000004,-19.03,0.79141859375,33.16
2021-07-06 16:20:17.375000000,-26.0,2.0,58.0,59.41125,-22.93,0.7912985,33.16
2021-07-06 16:20:17.382812500,-26.0,2.0,58.0,59.410859375,-25.445,0.79117840625,33.16
2021-07-06 16:20:17.390625000,-26.0,2.0,58.0,59.41046875,-27.96,0.7910583125,33.16
2021-07-06 16:20:17.398437500,-26.0,2.0,58.0,59.410078125,-29.055,0.79093821875,33.16
2021-07-06 16:20:17.406250000,-26.0,2.0,58.0,59.409687500000004,-30.15,0.790818125,33.16
2021-07-06 16:20:17.414062500,-26.0,2.0,58.0,59.409296875,-30.455,0.79069803125,33.16
2021-07-06 16:20:17.421875000,-26.0,2.0,58.0,59.40890625,-30.76,0.7905779375,33.16
2021-07-06 16:20:17.429687500,-26.0,2.0,58.0,59.408515625,-31.340000000000003,0.79045784375,33.16
2021-07-06 16:20:17.437500000,-26.0,2.0,58.0,59.408125,-31.92,0.79033775,33.16
2021-07-06 16:20:17.445312500,-26.0,2.0,58.0,59.407734375000004,-33.83,0.79021765625,33.16
2021-07-06 16:20:17.453125000,-26.0,2.0,58.0,59.40734375,-35.74,0.7900975625,33.16
2021-07-06 16:20:17.460937500,-26.0,2.0,58.0,59.406953125,-39.495000000000005,0.78997746875,33.16
2021-07-06 16:20:17.468750000,-26.0,2.0,58.0,59.4065625,-43.25,0.789857375,33.16
2021-07-06 16:20:17.476562500,-26.0,2.0,58.0,59.406171875,-48.71,0.78973728125,33.16
2021-07-06 16:20:17.484375000,-26.0,2.0,58.0,59.405781250000004,-54.17,0.7896171875,33.16
2021-07-06 16:20:17.492187500,-26.0,2.0,58.0,59.405390625,-60.63,0.78949709375,33.16
2021-07-06 16:20:17.500000000,-26.0,2.0,58.0,59.405,-67.09,0.789377,33.16
2021-07-06 16:20:17.507812500,-26.0,2.0,58.0,59.404609375,-73.52000000000001,0.78933696875,33.16
2021-07-06 16:20:17.515625000,-26.0,2.0,58.0,59.40421875,-79.95,0.7892969375,33.16
2021-07-06 16:20:17.523437500,-26.0,2.0,58.0,59.403828125000004,-85.305,0.78925690625,33.16
2021-07-06 16:20:17.531250000,-26.0,2.0,58.0,59.4034375,-90.66,0.789216875,33.16
2021-07-06 16:20:17.539062500,-26.0,2.0,58.0,59.403046875,-93.97999999999999,0.78917684375,33.16
2021-07-06 16:20:17.546875000,-26.0,2.0,58.0,59.40265625,-97.3,0.7891368125,33.16
2021-07-06 16:20:17.554687500,-26.0,2.0,58.0,59.402265625,-97.89,0.78909678125,33.16
2021-07-06 16:20:17.562500000,-26.0,2.0,58.0,59.401875000000004,-98.48,0.78905675,33.16
2021-07-06 16:20:17.570312500,-26.0,2.0,58.0,59.401484375,-96.065,0.78901671875,33.16
2021-07-06 16:20:17.578125000,-26.0,2.0,58.0,59.40109375,-93.65,0.7889766875,33.16
2021-07-06 16:20:17.585937500,-26.0,2.0,58.0,59.400703125,-88.58000000000001,0.78893665625,33.16
2021-07-06 16:20:17.593750000,-26.0,2.0,58.0,59.4003125,-83.51,0.788896625,33.16
2021-07-06 16:20:17.601562500,-26.0,2.0,58.0,59.399921875000004,-76.85,0.7888565937500001,33.16
2021-07-06 16:20:17.609375000,-26.0,2.0,58.0,59.39953125,-70.19,0.7888165625,33.16
2021-07-06 16:20:17.617187500,-26.0,2.0,58.0,59.399140625,-63.455,0.78877653125,33.16
2021-07-06 16:20:17.625000000,-26.0,2.0,58.0,59.39875,-56.72,0.7887365,33.16
2021-07-06 16:20:17.632812500,-26.0,2.0,58.0,59.398359375,-51.355000000000004,0.78869646875,33.16
2021-07-06 16:20:17.640625000,-26.0,2.0,58.0,59.397968750000004,-45.99,0.7886564375,33.16
2021-07-06 16:20:17.648437500,-26.0,2.0,58.0,59.397578125,-42.695,0.78861640625,33.16
2021-07-06 16:20:17.656250000,-26.0,2.0,58.0,59.3971875,-39.4,0.788576375,33.16
2021-07-06 16:20:17.664062500,-26.0,2.0,58.0,59.396796875,-37.805,0.78853634375,33.16
2021-07-06 16:20:17.671875000,-26.0,2.0,58.0,59.39640625,-36.21,0.7884963125,33.16
2021-07-06 16:20:17.679687500,-26.0,2.0,58.0,59.396015625000004,-34.995000000000005,0.78845628125,33.16
2021-07-06 16:20:17.687500000,-26.0,2.0,58.0,59.395625,-33.78,0.78841625,33.16
2021-07-06 16:20:17.695312500,-26.0,2.0,58.0,59.395234375,-31.35,0.78837621875,33.16
2021-07-06 16:20:17.703125000,-26.0,2.0,58.0,59.39484375,-28.92,0.7883361875,33.16
2021-07-06 16:20:17.710937500,-26.0,2.0,58.0,59.394453125,-24.3,0.78829615625,33.16
2021-07-06 16:20:17.718750000,-26.0,2.0,58.0,59.394062500000004,-19.68,0.788256125,33.16
2021-07-06 16:20:17.726562500,-26.0,2.0,58.0,59.393671875,-13.05,0.78821609375,33.16
2021-07-06 16:20:17.734375000,-26.0,2.0,58.0,59.39328125,-6.42,0.7881760625,33.16
2021-07-06 16:20:17.742187500,-26.0,2.0,58.0,59.392890625,0.9299999999999997,0.78813603125,33.16
2021-07-06 16:20:17.750000000,-26.0,2.0,58.0,59.3925,8.28,0.788096,33.16
2021-07-06 16:20:17.757812500,-26.0,2.0,58.0,59.392109375000004,14.565000000000001,0.7879358750000001,33.16
2021-07-06 16:20:17.765625000,-26.0,2.0,58.0,59.39171875,20.85,0.78777575,33.16
2021-07-06 16:20:17.773437500,-26.0,2.0,58.0,59.391328125,24.68,0.787615625,33.16
2021-07-06 16:20:17.781250000,-26.0,2.0,58.0,59.3909375,28.51,0.7874555,33.16
2021-07-06 16:20:17.789062500,-26.0,2.0,58.0,59.390546875000005,29.43,0.787295375,33.16
2021-07-06 16:20:17.796875000,-26.0,2.0,58.0,59.390156250000004,30.35,0.7871352500000001,33.16
2021-07-06 16:20:17.804687500,-26.0,2.0,58.0,59.389765625,28.87,0.786975125,33.16
2021-07-06 16:20:17.812500000,-26.0,2.0,58.0,59.389375,27.39,0.786815,33.16
2021-07-06 16:20:17.820312500,-26.0,2.0,58.0,59.388984375,24.535,0.786654875,33.16
2021-07-06 16:20:17.828125000,-26.0,2.0,58.0,59.388593750000005,21.68,0.78649475,33.16
2021-07-06 16:20:17.835937500,-26.0,2.0,58.0,59.388203125000004,18.4,0.7863346250000001,33.16
2021-07-06 16:20:17.843750000,-26.0,2.0,58.0,59.3878125,15.12,0.7861745,33.16
2021-07-06 16:20:17.851562500,-26.0,2.0,58.0,59.387421875,11.934999999999999,0.786014375,33.16
2021-07-06 16:20:17.859375000,-26.0,2.0,58.0,59.38703125,8.75,0.78585425,33.16
2021-07-06 16:20:17.867187500,-26.0,2.0,58.0,59.386640625000005,5.795,0.785694125,33.16
2021-07-06 16:20:17.875000000,-26.0,2.0,58.0,59.386250000000004,2.84,0.785534,33.16
2021-07-06 16:20:17.882812500,-26.0,2.0,58.0,59.385859375,0.09499999999999975,0.785373875,33.16
2021-07-06 16:20:17.890625000,-26.0,2.0,58.0,59.38546875,-2.65,0.78521375,33.16
2021-07-06 16:20:17.898437500,-26.0,2.0,58.0,59.385078125,-5.115,0.785053625,33.16
2021-07-06 16:20:17.906250000,-26.0,2.0,58.0,59.384687500000005,-7.58,0.7848935,33.16
2021-07-06 16:20:17.914062500,-26.0,2.0,58.0,59.384296875000004,-9.54,0.784733375,33.16
2021-07-06 16:20:17.921875000,-26.0,2.0,58.0,59.38390625,-11.5,0.78457325,33.16
2021-07-06 16:20:17.929687500,-26.0,2.0,58.0,59.383515625,-12.719999999999999,0.784413125,33.16
2021-07-06 16:20:17.937500000,-26.0,2.0,58.0,59.383125,-13.94,0.784253,33.16
2021-07-06 16:20:17.945312500,-26.0,2.0,58.0,59.382734375000005,-14.395,0.784092875,33.16
2021-07-06 16:20:17.953125000,-26.0,2.0,58.0,59.382343750000004,-14.85,0.78393275,33.16
2021-07-06 16:20:17.960937500,-26.0,2.0,58.0,59.381953125,-14.765,0.783772625,33.16
2021-07-06 16:20:17.968750000,-26.0,2.0,58.0,59.3815625,-14.68,0.7836125,33.16
2021-07-06 16:20:17.976562500,-26.0,2.0,58.0,59.381171875,-14.485,0.783452375,33.16
2021-07-06 16:20:17.984375000,-26.0,2.0,58.0,59.380781250000005,-14.29,0.78329225,33.16
2021-07-06 16:20:17.992187500,-26.0,2.0,58.0,59.380390625000004,-14.415,0.783132125,33.16
2021-07-06 16:20:18.000000000,-26.0,2.0,58.0,59.38,-14.54,0.782972,33.16
2021-07-06 16:20:18.007812500,-26.0,2.0,58.0,59.380156250000006,-15.215,0.78301203125,33.1596875
2021-07-06 16:20:18.015625000,-26.0,2.0,58.0,59.3803125,-15.89,0.7830520625,33.159375
2021-07-06 16:20:18.023437500,-26.0,2.0,58.0,59.380468750000006,-17.08,0.78309209375,33.1590625
2021-07-06 16:20:18.031250000,-26.0,2.0,58.0,59.380625,-18.27,0.783132125,33.15875
2021-07-06 16:20:18.039062500,-26.0,2.0,58.0,59.380781250000005,-19.735,0.78317215625,33.1584375
2021-07-06 16:20:18.046875000,-26.0,2.0,58.0,59.3809375,-21.2,0.7832121875,33.158125
2021-07-06 16:20:18.054687500,-26.0,2.0,58.0,59.381093750000005,-22.59,0.78325221875,33.1578125
2021-07-06 16:20:18.062500000,-26.0,2.0,58.0,59.38125,-23.98,0.78329225,33.1575
2021-07-06 16:20:18.070312500,-26.0,2.0,58.0,59.381406250000005,-24.985,0.78333228125,33.1571875
2021-07-06 16:20:18.078125000,-26.0,2.0,58.0,59.3815625,-25.99,0.7833723125,33.156875
2021-07-06 16:20:18.085937500,-26.0,2.0,58.0,59.381718750000005,-26.415,0.78341234375,33.1565625
2021-07-06 16:20:18.093750000,-26.0,2.0,58.0,59.381875,-26.84,0.783452375,33.15625
2021-07-06 16:20:18.101562500,-26.0,2.0,58.0,59.382031250000004,-26.64,0.7834924062499999,33.1559375
2021-07-06 16:20:18.109375000,-26.0,2.0,58.0,59.3821875,-26.44,0.7835324375,33.155625
2021-07-06 16:20:18.117187500,-26.0,2.0,58.0,59.382343750000004,-25.770000000000003,0.78357246875,33.1553125
2021-07-06 16:20:18.125000000,-26.0,2.0,58.0,59.3825,-25.1,0.7836125,33.155
2021-07-06 16:20:18.132812500,-26.0,2.0,58.0,59.382656250000004,-24.23,0.78365253125,33.154687499999994
2021-07-06 16:20:18.140625000,-26.0,2.0,58.0,59.3828125,-23.36,0.7836925625,33.154374999999995
2021-07-06 16:20:18.148437500,-26.0,2.0,58.0,59.38296875,-22.595,0.78373259375,33.154062499999995
2021-07-06 16:20:18.156250000,-26.0,2.0,58.0,59.383125,-21.83,0.783772625,33.153749999999995
2021-07-06 16:20:18.164062500,-26.0,2.0,58.0,59.38328125,-21.384999999999998,0.78381265625,33.153437499999995
2021-07-06 16:20:18.171875000,-26.0,2.0,58.0,59.3834375,-20.94,0.7838526875,33.153124999999996
2021-07-06 16:20:18.179687500,-26.0,2.0,58.0,59.38359375,-20.82,0.78389271875,33.152812499999996
2021-07-06 16:20:18.187500000,-26.0,2.0,58.0,59.38375,-20.7,0.78393275,33.152499999999996
2021-07-06 16:20:18.195312500,-26.0,2.0,58.0,59.38390625,-20.73,0.78397278125,33.1521875
2021-07-06 16:20:18.203125000,-26.0,2.0,58.0,59.3840625,-20.76,0.7840128125,33.151875
2021-07-06 16:20:18.210937500,-26.0,2.0,58.0,59.38421875,-20.665,0.78405284375,33.1515625
2021-07-06 16:20:18.218750000,-26.0,2.0,58.0,59.384375,-20.57,0.784092875,33.15125
2021-07-06 16:20:18.226562500,-26.0,2.0,58.0,59.38453125,-20.155,0.78413290625,33.1509375
2021-07-06 16:20:18.234375000,-26.0,2.0,58.0,59.3846875,-19.74,0.7841729375,33.150625
2021-07-06 16:20:18.242187500,-26.0,2.0,58.0,59.38484375,-18.979999999999997,0.78421296875,33.1503125
2021-07-06 16:20:18.250000000,-26.0,2.0,58.0,59.385000000000005,-18.22,0.784253,33.15
2021-07-06 16:20:18.257812500,-26.0,2.0,58.0,59.38515625,-17.28,0.78413290625,33.15
2021-07-06 16:20:18.265625000,-26.0,2.0,58.0,59.385312500000005,-16.34,0.7840128125,33.15
2021-07-06 16:20:18.273437500,-26.0,2.0,58.0,59.38546875,-15.51,0.78389271875,33.15
2021-07-06 16:20:18.281250000,-26.0,2.0,58.0,59.385625000000005,-14.68,0.783772625,33.15
2021-07-06 16:20:18.289062500,-26.0,2.0,58.0,59.38578125,-14.205,0.78365253125,33.15
2021-07-06 16:20:18.296875000,-26.0,2.0,58.0,59.385937500000004,-13.73,0.7835324375,33.15
2021-07-06 16:20:18.304687500,-26.0,2.0,58.0,59.38609375,-13.754999999999999,0.78341234375,33.15
2021-07-06 16:20:18.312500000,-26.0,2.0,58.0,59.386250000000004,-13.78,0.78329225,33.15
2021-07-06 16:20:18.320312500,-26.0,2.0,58.0,59.38640625,-14.265,0.78317215625,33.15
2021-07-06 16:20:18.328125000,-26.0,2.0,58.0,59.386562500000004,-14.75,0.7830520625,33.15
2021-07-06 16:20:18.335937500,-26.0,2.0,58.0,59.38671875,-15.53,0.78293196875,33.15
2021-07-06 16:20:18.343750000,-26.0,2.0,58.0,59.386875,-16.31,0.782811875,33.15
2021-07-06 16:20:18.351562500,-26.0,2.0,58.0,59.38703125,-17.174999999999997,0.78269178125,33.15
2021-07-06 16:20:18.359375000,-26.0,2.0,58.0,59.3871875,-18.04,0.7825716875000001,33.15
2021-07-06 16:20:18.367187500,-26.0,2.0,58.0,59.38734375,-18.799999999999997,0.7824515937500001,33.15
2021-07-06 16:20:18.375000000,-26.0,2.0,58.0,59.3875,-19.56,0.7823315,33.15
2021-07-06 16:20:18.382812500,-26.0,2.0,58.0,59.38765625,-20.14,0.78221140625,33.15
2021-07-06 16:20:18.390625000,-26.0,2.0,58.0,59.3878125,-20.72,0.7820913125,33.15
2021-07-06 16:20:18.398437500,-26.0,2.0,58.0,59.38796875,-21.13,0.78197121875,33.15
2021-07-06 16:20:18.406250000,-26.0,2.0,58.0,59.388125,-21.54,0.781851125,33.15
2021-07-06 16:20:18.414062500,-26.0,2.0,58.0,59.38828125,-21.884999999999998,0.78173103125,33.15
2021-07-06 16:20:18.421875000,-26.0,2.0,58.0,59.3884375,-22.23,0.7816109375,33.15
2021-07-06 16:20:18.429687500,-26.0,2.0,58.0,59.38859375,-22.64,0.78149084375,33.15
2021-07-06 16:20:18.437500000,-26.0,2.0,58.0,59.38875,-23.05,0.78137075,33.15
2021-07-06 16:20:18.445312500,-26.0,2.0,58.0,59.38890625,-23.625,0.78125065625,33.15
2021-07-06 16:20:18.453125000,-26.0,2.0,58.0,59.3890625,-24.2,0.7811305625,33.15
2021-07-06 16:20:18.460937500,-26.0,2.0,58.0,59.38921875,-25.005,0.78101046875,33.15
2021-07-06 16:20:18.468750000,-26.0,2.0,58.0,59.389375,-25.81,0.780890375,33.15
2021-07-06 16:20:18.476562500,-26.0,2.0,58.0,59.38953125,-26.835,0.78077028125,33.15
2021-07-06 16:20:18.484375000,-26.0,2.0,58.0,59.3896875,-27.86,0.7806501875,33.15
2021-07-06 16:20:18.492187500,-26.0,2.0,58.0,59.38984375,-29.08,0.78053009375,33.15
2021-07-06 16:20:18.500000000,-26.0,2.0,58.0,59.39,-30.3,0.78041,33.15
2021-07-06 16:20:18.507812500,-26.0,2.0,58.0,59.390156250000004,-31.634999999999998,0.7804900625000001,33.15
2021-07-06 16:20:18.515625000,-26.0,2.0,58.0,59.3903125,-32.97,0.780570125,33.15
2021-07-06 16:20:18.523437500,-26.0,2.0,58.0,59.390468750000004,-34.315,0.7806501875,33.15
2021-07-06 16:20:18.531250000,-26.0,2.0,58.0,59.390625,-35.66,0.7807302500000001,33.15
2021-07-06 16:20:18.539062500,-25.75,2.0,58.0,59.39078125,-36.864999999999995,0.7808103125,33.15
2021-07-06 16:20:18.546875000,-25.5,2.0,58.0,59.3909375,-38.07,0.780890375,33.15
2021-07-06 16:20:18.554687500,-25.25,2.0,58.0,59.39109375,-38.94,0.7809704375000001,33.15
2021-07-06 16:20:18.562500000,-25.0,2.0,58.0,59.39125,-39.81,0.7810505000000001,33.15
2021-07-06 16:20:18.570312500,-25.25,2.0,58.0,59.39140625,-40.115,0.7811305625,33.15
2021-07-06 16:20:18.578125000,-25.5,2.0,58.0,59.3915625,-40.42,0.781210625,33.15
2021-07-06 16:20:18.585937500,-25.75,2.0,58.0,59.39171875,-40.005,0.7812906875000001,33.15
2021-07-06 16:20:18.593750000,-26.0,2.0,58.0,59.391875,-39.59,0.78137075,33.15
2021-07-06 16:20:18.601562500,-26.0,2.0,58.0,59.39203125,-38.39,0.7814508125,33.15
2021-07-06 16:20:18.609375000,-26.0,2.0,58.0,59.3921875,-37.19,0.7815308750000001,33.15
2021-07-06 16:20:18.617187500,-26.0,2.0,58.0,59.39234375,-35.31,0.7816109375,33.15
2021-07-06 16:20:18.625000000,-26.0,2.0,58.0,59.3925,-33.43,0.781691,33.15
2021-07-06 16:20:18.632812500,-26.0,2.0,58.0,59.39265625,-31.085,0.7817710625000001,33.15
2021-07-06 16:20:18.640625000,-26.0,2.0,58.0,59.3928125,-28.74,0.781851125,33.15
2021-07-06 16:20:18.648437500,-26.0,2.0,58.0,59.39296875,-26.174999999999997,0.7819311875,33.15
2021-07-06 16:20:18.656250000,-26.0,2.0,58.0,59.393125,-23.61,0.78201125,33.15
2021-07-06 16:20:18.664062500,-26.0,2.0,58.0,59.39328125,-21.02,0.7820913125,33.15
2021-07-06 16:20:18.671875000,-26.0,2.0,58.0,59.3934375,-18.43,0.782171375,33.15
2021-07-06 16:20:18.679687500,-26.0,2.0,58.0,59.39359375,-15.915,0.7822514375,33.15
2021-07-06 16:20:18.687500000,-26.0,2.0,58.0,59.39375,-13.4,0.7823315,33.15
2021-07-06 16:20:18.695312500,-26.0,2.0,58.0,59.39390625,-10.969999999999999,0.7824115625,33.15
2021-07-06 16:20:18.703125000,-26.0,2.0,58.0,59.3940625,-8.54,0.782491625,33.15
2021-07-06 16:20:18.710937500,-26.0,2.0,58.0,59.39421875,-6.17,0.7825716875000001,33.15
2021-07-06 16:20:18.718750000,-26.0,2.0,58.0,59.394375,-3.8,0.78265175,33.15
2021-07-06 16:20:18.726562500,-26.0,2.0,58.0,59.39453125,-1.5,0.7827318125,33.15
2021-07-06 16:20:18.734375000,-26.0,2.0,58.0,59.394687499999996,0.8,0.782811875,33.15
2021-07-06 16:20:18.742187500,-26.0,2.0,58.0,59.39484375,3.0,0.7828919375,33.15
2021-07-06 16:20:18.750000000,-26.0,2.0,58.0,59.394999999999996,5.2,0.782972,33.15
2021-07-06 16:20:18.757812500,-26.0,2.0,58.0,59.39515625,7.25,0.78285190625,33.15
2021-07-06 16:20:18.765625000,-26.0,2.0,58.0,59.3953125,9.3,0.7827318125,33.15
2021-07-06 16:20:18.773437500,-26.0,2.0,58.0,59.39546875,11.16,0.78261171875,33.15
2021-07-06 16:20:18.781250000,-26.0,2.0,58.0,59.395625,13.02,0.782491625,33.15
2021-07-06 16:20:18.789062500,-26.0,2.0,58.0,59.39578125,14.695,0.78237153125,33.15
2021-07-06 16:20:18.796875000,-26.0,2.0,58.0,59.3959375,16.37,0.7822514375,33.15
2021-07-06 16:20:18.804687500,-26.0,2.0,58.0,59.39609375,17.87,0.78213134375,33.15
2021-07-06 16:20:18.812500000,-26.0,2.0,58.0,59.39625,19.37,0.78201125,33.15
2021-07-06 16:20:18.820312500,-26.0,2.0,58.0,59.39640625,20.71,0.7818911562499999,33.15
2021-07-06 16:20:18.828125000,-26.0,2.0,58.0,59.3965625,22.05,0.7817710625,33.15
2021-07-06 16:20:18.835937500,-26.0,2.0,58.0,59.39671875,23.22,0.78165096875,33.15
2021-07-06 16:20:18.843750000,-26.0,2.0,58.0,59.396875,24.39,0.781530875,33.15
2021-07-06 16:20:18.851562500,-26.0,2.0,58.0,59.39703125,25.380000000000003,0.78141078125,33.15
2021-07-06 16:20:18.859375000,-26.0,2.0,58.0,59.3971875,26.37,0.7812906875,33.15
2021-07-06 16:20:18.867187500,-26.0,2.0,58.0,59.39734375,27.155,0.78117059375,33.15
2021-07-06 16:20:18.875000000,-26.0,2.0,58.0,59.3975,27.94,0.7810505,33.15
2021-07-06 16:20:18.882812500,-26.0,2.0,58.0,59.39765625,28.515,0.78093040625,33.15
2021-07-06 16:20:18.890625000,-26.0,2.0,58.0,59.3978125,29.09,0.7808103125,33.15
2021-07-06 16:20:18.898437500,-26.0,2.0,58.0,59.39796875,29.455,0.78069021875,33.15
2021-07-06 16:20:18.906250000,-26.0,2.0,58.0,59.398125,29.82,0.780570125,33.15
2021-07-06 16:20:18.914062500,-26.0,2.0,58.0,59.39828125,30.009999999999998,0.78045003125,33.15
2021-07-06 16:20:18.921875000,-26.0,2.0,58.0,59.3984375,30.2,0.7803299375,33.15
2021-07-06 16:20:18.929687500,-26.0,2.0,58.0,59.398593749999996,30.265,0.78020984375,33.15
2021-07-06 16:20:18.937500000,-26.0,2.0,58.0,59.39875,30.33,0.7800897499999999,33.15
2021-07-06 16:20:18.945312500,-26.0,2.0,58.0,59.398906249999996,30.33,0.7799696562499999,33.15
2021-07-06 16:20:18.953125000,-26.0,2.0,58.0,59.3990625,30.33,0.7798495624999999,33.15
2021-07-06 16:20:18.960937500,-26.0,2.0,58.0,59.399218749999996,30.345,0.7797294687499999,33.15
2021-07-06 16:20:18.968750000,-26.0,2.0,58.0,59.399375,30.36,0.7796093749999999,33.15
2021-07-06 16:20:18.976562500,-26.0,2.0,58.0,59.399531249999995,30.445,0.7794892812499999,33.15
2021-07-06 16:20:18.984375000,-26.0,2.0,58.0,59.3996875,30.53,0.7793691875,33.15
2021-07-06 16:20:18.992187500,-26.0,2.0,58.0,59.399843749999995,30.685000000000002,0.77924909375,33.15
2021-07-06 16:20:19.000000000,-26.0,2.0,58.0,59.4,30.84,0.779129,33.15
2021-07-06 16:20:19.007812500,-26.0,2.0,58.0,59.400546874999996,31.035,0.7791690312499999,33.149375
2021-07-06 16:20:19.015625000,-26.0,2.0,58.0,59.40109375,31.23,0.7792090625,33.14875
2021-07-06 16:20:19.023437500,-26.0,2.0,58.0,59.401640625,31.380000000000003,0.77924909375,33.148125
2021-07-06 16:20:19.031250000,-26.0,2.0,58.0,59.4021875,31.53,0.779289125,33.1475
2021-07-06 16:20:19.039062500,-26.0,2.0,58.0,59.402734375,31.55,0.77932915625,33.146875
2021-07-06 16:20:19.046875000,-26.0,2.0,58.0,59.40328125,31.57,0.7793691875,33.14625
2021-07-06 16:20:19.054687500,-26.0,2.0,58.0,59.403828125,31.425,0.77940921875,33.145625
2021-07-06 16:20:19.062500000,-26.0,2.0,58.0,59.404375,31.28,0.77944925,33.144999999999996
2021-07-06 16:20:19.070312500,-26.0,2.0,58.0,59.404921875,30.950000000000003,0.7794892812499999,33.144375
2021-07-06 16:20:19.078125000,-26.0,2.0,58.0,59.40546875,30.62,0.7795293125,33.14375
2021-07-06 16:20:19.085937500,-26.0,2.0,58.0,59.406015625,30.14,0.77956934375,33.143125
2021-07-06 16:20:19.093750000,-26.0,2.0,58.0,59.4065625,29.66,0.7796093749999999,33.1425
2021-07-06 16:20:19.101562500,-26.0,2.0,58.0,59.407109375,29.064999999999998,0.77964940625,33.141875
2021-07-06 16:20:19.109375000,-26.0,2.0,58.0,59.407656249999995,28.47,0.7796894375,33.14125
2021-07-06 16:20:19.117187500,-26.0,2.0,58.0,59.408203125,27.78,0.77972946875,33.140625
2021-07-06 16:20:19.125000000,-26.0,2.0,58.0,59.40875,27.09,0.7797695,33.14
2021-07-06 16:20:19.132812500,-26.0,2.0,58.0,59.409296874999995,26.314999999999998,0.77980953125,33.139375
2021-07-06 16:20:19.140625000,-26.0,2.0,58.0,59.40984375,25.54,0.7798495625,33.13875
2021-07-06 16:20:19.148437500,-26.0,2.0,58.0,59.410390625,24.7,0.77988959375,33.138125
2021-07-06 16:20:19.156250000,-26.0,2.0,58.0,59.410937499999996,23.86,0.7799296250000001,33.1375
2021-07-06 16:20:19.164062500,-26.0,2.0,58.0,59.411484375,22.97,0.77996965625,33.136875
2021-07-06 16:20:19.171875000,-26.0,2.0,58.0,59.41203125,22.08,0.7800096875,33.136250000000004
2021-07-06 16:20:19.179687500,-26.0,2.0,58.0,59.412578124999996,21.174999999999997,0.7800497187500001,33.135625000000005
2021-07-06 16:20:19.187500000,-26.0,2.0,58.0,59.413125,20.27,0.78008975,33.135000000000005
2021-07-06 16:20:19.195312500,-26.0,2.0,58.0,59.413671875,19.375,0.78012978125,33.134375
2021-07-06 16:20:19.203125000,-26.0,2.0,58.0,59.414218749999996,18.48,0.7801698125000001,33.13375
2021-07-06 16:20:19.210937500,-26.0,2.0,58.0,59.414765625,17.595,0.78020984375,33.133125
2021-07-06 16:20:19.218750000,-26.0,2.0,58.0,59.4153125,16.71,0.780249875,33.1325
2021-07-06 16:20:19.226562500,-26.0,2.0,58.0,59.415859375,15.845,0.78028990625,33.131875
2021-07-06 16:20:19.234375000,-26.0,2.0,58.0,59.41640625,14.98,0.7803299375,33.13125
2021-07-06 16:20:19.242187500,-26.0,2.0,58.0,59.416953125,14.125,0.7803699687500001,33.130625
2021-07-06 16:20:19.250000000,-26.0,2.0,58.0,59.4175,13.27,0.78041,33.13
2021-07-06 16:20:19.257812500,-26.0,2.0,58.0,59.418046875,12.415,0.7803299375,33.13
2021-07-06 16:20:19.265625000,-26.0,2.0,58.0,59.41859375,11.56,0.7802498750000001,33.13
2021-07-06 16:20:19.273437500,-26.0,2.0,58.0,59.419140625,10.690000000000001,0.7801698125000001,33.13
2021-07-06 16:20:19.281250000,-26.0,2.0,58.0,59.4196875,9.82,0.78008975,33.13
2021-07-06 16:20:19.289062500,-26.0,2.0,58.0,59.420234375,8.89,0.7800096875,33.13
2021-07-06 16:20:19.296875000,-26.0,2.0,58.0,59.42078125,7.96,0.7799296250000001,33.13
2021-07-06 16:20:19.304687500,-26.0,2.0,58.0,59.421328124999995,6.91,0.7798495625,33.13
2021-07-06 16:20:19.312500000,-26.0,2.0,58.0,59.421875,5.86,0.7797695,33.13
2021-07-06 16:20:19.320312500,-26.0,2.0,58.0,59.422421875,4.6450000000000005,0.7796894375000001,33.13
2021-07-06 16:20:19.328125000,-26.0,2.0,58.0,59.422968749999995,3.43,0.779609375,33.13
2021-07-06 16:20:19.335937500,-26.0,2.0,58.0,59.423515625,2.06,0.7795293125,33.13
2021-07-06 16:20:19.343750000,-26.0,2.0,58.0,59.4240625,0.69,0.77944925,33.13
2021-07-06 16:20:19.351562500,-26.0,2.0,58.0,59.424609374999996,-0.78,0.7793691875000001,33.13
2021-07-06 16:20:19.359375000,-26.0,2.0,58.0,59.42515625,-2.25,0.779289125,33.13
2021-07-06 16:20:19.367187500,-26.0,2.0,58.0,59.425703125,-3.71,0.7792090625,33.13
2021-07-06 16:20:19.375000000,-26.0,2.0,58.0,59.426249999999996,-5.17,0.779129,33.13
2021-07-06 16:20:19.382812500,-26.0,2.0,58.0,59.426796875,-6.525,0.7790489375,33.13
2021-07-06 16:20:19.390625000,-26.0,2.0,58.0,59.42734375,-7.88,0.778968875,33.13
2021-07-06 16:20:19.398437500,-26.0,2.0,58.0,59.427890624999996,-9.084999999999999,0.7788888125,33.13
2021-07-06 16:20:19.406250000,-26.0,2.0,58.0,59.4284375,-10.29,0.77880875,33.13
2021-07-06 16:20:19.414062500,-26.0,2.0,58.0,59.428984375,-11.36,0.7787286875,33.13
2021-07-06 16:20:19.421875000,-26.0,2.0,58.0,59.42953125,-12.43,0.778648625,33.13
2021-07-06 16:20:19.429687500,-26.0,2.0,58.0,59.430078125,-13.45,0.7785685625,33.13
2021-07-06 16:20:19.437500000,-26.0,2.0,58.0,59.430625,-14.47,0.7784885,33.13
2021-07-06 16:20:19.445312500,-26.0,2.0,58.0,59.431171875,-15.545000000000002,0.7784084375,33.13
2021-07-06 16:20:19.453125000,-26.0,2.0,58.0,59.43171875,-16.62,0.778328375,33.13
2021-07-06 16:20:19.460937500,-26.0,2.0,58.0,59.432265625,-17.84,0.7782483125,33.13
2021-07-06 16:20:19.468750000,-26.0,2.0,58.0,59.4328125,-19.06,0.77816825,33.13
2021-07-06 16:20:19.476562500,-26.0,2.0,58.0,59.433359375,-20.475,0.7780881875,33.13
2021-07-06 16:20:19.484375000,-26.0,2.0,58.0,59.43390625,-21.89,0.7780081249999999,33.13
2021-07-06 16:20:19.492187500,-26.0,2.0,58.0,59.434453125,-23.48,0.7779280625,33.13
2021-07-06 16:20:19.500000000,-26.0,2.0,58.0,59.435,-25.07,0.777848,33.13
2021-07-06 16:20:19.507812500,-26.0,2.0,58.0,59.435546875,-26.755000000000003,0.777848,33.13
2021-07-06 16:20:19.515625000,-26.0,2.0,58.0,59.43609375,-28.44,0.777848,33.13
2021-07-06 16:20:19.523437500,-26.0,2.0,58.0,59.436640624999995,-30.045,0.777848,33.13
2021-07-06 16:20:19.531250000,-26.0,2.0,58.0,59.4371875,-31.65,0.777848,33.13
2021-07-06 16:20:19.539062500,-26.0,2.0,58.0,59.437734375,-32.95,0.777848,33.13
2021-07-06 16:20:19.546875000,-26.0,2.0,58.0,59.438281249999996,-34.25,0.777848,33.13
2021-07-06 16:20:19.554687500,-26.0,2.0,58.0,59.438828125,-35.010000000000005,0.777848,33.13
2021-07-06 16:20:19.562500000,-26.0,2.0,58.0,59.439375,-35.77,0.777848,33.13
2021-07-06 16:20:19.570312500,-26.0,2.0,58.0,59.439921874999996,-35.790000000000006,0.777848,33.13
2021-07-06 16:20:19.578125000,-26.0,2.0,58.0,59.44046875,-35.81,0.777848,33.13
2021-07-06 16:20:19.585937500,-26.0,2.0,58.0,59.441015625,-35.035,0.777848,33.13
2021-07-06 16:20:19.593750000,-26.0,2.0,58.0,59.441562499999996,-34.26,0.777848,33.13
2021-07-06 16:20:19.601562500,-26.0,2.0,58.0,59.442109375,-32.76,0.777848,33.13
2021-07-06 16:20:19.609375000,-26.0,2.0,58.0,59.44265625,-31.26,0.777848,33.13
2021-07-06 16:20:19.617187500,-26.0,2.0,58.0,59.443203125,-29.23,0.777848,33.13
2021-07-06 16:20:19.625000000,-26.0,2.0,58.0,59.44375,-27.2,0.777848,33.13
2021-07-06 16:20:19.632812500,-26.0,2.0,58.0,59.444296875,-24.85,0.777848,33.13
2021-07-06 16:20:19.640625000,-26.0,2.0,58.0,59.44484375,-22.5,0.777848,33.13
2021-07-06 16:20:19.648437500,-26.0,2.0,58.0,59.445390625,-20.005000000000003,0.777848,33.13
2021-07-06 16:20:19.656250000,-26.0,2.0,58.0,59.4459375,-17.51,0.777848,33.13
2021-07-06 16:20:19.664062500,-26.0,2.0,58.0,59.446484375,-14.985000000000001,0.777848,33.13
2021-07-06 16:20:19.671875000,-26.0,2.0,58.0,59.44703125,-12.46,0.777848,33.13
2021-07-06 16:20:19.679687500,-26.0,2.0,58.0,59.447578125,-9.945,0.777848,33.13
2021-07-06 16:20:19.687500000,-26.0,2.0,58.0,59.448125,-7.43,0.777848,33.13
2021-07-06 16:20:19.695312500,-26.0,2.0,58.0,59.448671875,-4.955,0.777848,33.13
2021-07-06 16:20:19.703125000,-26.0,2.0,58.0,59.44921875,-2.48,0.777848,33.13
2021-07-06 16:20:19.710937500,-26.0,2.0,58.0,59.449765625,-0.06999999999999984,0.777848,33.13
2021-07-06 16:20:19.718750000,-26.0,2.0,58.0,59.450312499999995,2.34,0.777848,33.13
2021-07-06 16:20:19.726562500,-26.0,2.0,58.0,59.450859375,4.625,0.777848,33.13
2021-07-06 16:20:19.734375000,-26.0,2.0,58.0,59.45140625,6.91,0.777848,33.13
2021-07-06 16:20:19.742187500,-26.0,2.0,58.0,59.451953124999996,9.030000000000001,0.777848,33.13
2021-07-06 16:20:19.750000000,-26.0,2.0,58.0,59.4525,11.15,0.777848,33.13
2021-07-06 16:20:19.757812500,-26.0,2.0,58.0,59.453046875,13.055,0.777727875,33.13
2021-07-06 16:20:19.765625000,-26.0,2.0,58.0,59.453593749999996,14.96,0.77760775,33.13
2021-07-06 16:20:19.773437500,-26.0,2.0,58.0,59.454140625,16.634999999999998,0.777487625,33.13
2021-07-06 16:20:19.781250000,-26.0,2.0,58.0,59.4546875,18.31,0.7773675,33.13
2021-07-06 16:20:19.789062500,-26.0,2.0,58.0,59.455234374999996,19.735,0.777247375,33.13
2021-07-06 16:20:19.796875000,-26.0,2.0,58.0,59.45578125,21.16,0.7771272499999999,33.13
2021-07-06 16:20:19.804687500,-26.0,2.0,58.0,59.456328125,22.314999999999998,0.777007125,33.13
2021-07-06 16:20:19.812500000,-26.0,2.0,58.0,59.456875,23.47,0.776887,33.13
2021-07-06 16:20:19.820312500,-26.0,2.0,58.0,59.457421875,24.345,0.776766875,33.13
2021-07-06 16:20:19.828125000,-26.0,2.0,58.0,59.45796875,25.22,0.77664675,33.13
2021-07-06 16:20:19.835937500,-26.0,2.0,58.0,59.458515625,25.82,0.776526625,33.13
2021-07-06 16:20:19.843750000,-26.0,2.0,58.0,59.4590625,26.42,0.7764065,33.13
2021-07-06 16:20:19.851562500,-26.0,2.0,58.0,59.459609375,26.770000000000003,0.776286375,33.13
2021-07-06 16:20:19.859375000,-26.0,2.0,58.0,59.46015625,27.12,0.77616625,33.13
2021-07-06 16:20:19.867187500,-26.0,2.0,58.0,59.460703125,27.275,0.776046125,33.13
2021-07-06 16:20:19.875000000,-26.0,2.0,58.0,59.46125,27.43,0.775926,33.13
2021-07-06 16:20:19.882812500,-26.0,2.0,58.0,59.461796875,27.46,0.775805875,33.13
2021-07-06 16:20:19.890625000,-26.0,2.0,58.0,59.46234375,27.49,0.7756857500000001,33.13
2021-07-06 16:20:19.898437500,-26.0,2.0,58.0,59.462890625,27.439999999999998,0.775565625,33.13
2021-07-06 16:20:19.906250000,-26.0,2.0,58.0,59.4634375,27.39,0.7754455,33.13
2021-07-06 16:20:19.914062500,-26.0,2.0,58.0,59.463984374999995,27.285,0.775325375,33.13
2021-07-06 16:20:19.921875000,-26.0,2.0,58.0,59.46453125,27.18,0.77520525,33.13
2021-07-06 16:20:19.929687500,-26.0,2.0,58.0,59.465078125,27.02,0.775085125,33.13
2021-07-06 16:20:19.937500000,-26.0,2.0,58.0,59.465624999999996,26.86,0.774965,33.13
2021-07-06 16:20:19.945312500,-26.0,2.0,58.0,59.466171875,26.64,0.774844875,33.13
2021-07-06 16:20:19.953125000,-26.0,2.0,58.0,59.46671875,26.42,0.7747247500000001,33.13
2021-07-06 16:20:19.960937500,-26.0,2.0,58.0,59.467265624999996,26.16,0.774604625,33.13
2021-07-06 16:20:19.968750000,-26.0,2.0,58.0,59.4678125,25.9,0.7744845,33.13
2021-07-06 16:20:19.976562500,-26.25,2.0,58.0,59.468359375,25.625,0.774364375,33.13
2021-07-06 16:20:19.984375000,-26.5,2.0,58.0,59.468906249999996,25.35,0.77424425,33.13
2021-07-06 16:20:19.992187500,-26.75,2.0,58.0,59.469453125,25.085,0.774124125,33.13
2021-07-06 16:20:20.000000000,-27.0,2.0,58.0,59.47,24.82,0.774004,33.13
2021-07-06 16:20:20.007812500,-26.75,2.0,58.0,59.470625,24.57,0.7739639687500001,33.13
2021-07-06 16:20:20.015625000,-26.5,2.0,58.0,59.47125,24.32,0.7739239375,33.13
2021-07-06 16:20:20.023437500,-26.25,2.0,58.0,59.471875,24.03,0.77388390625,33.13
2021-07-06 16:20:20.031250000,-26.0,2.0,58.0,59.4725,23.74,0.7738438750000001,33.13
2021-07-06 16:20:20.039062500,-26.0,2.0,58.0,59.473124999999996,23.305,0.77380384375,33.13
2021-07-06 16:20:20.046875000,-26.0,2.0,58.0,59.473749999999995,22.87,0.7737638125,33.13
2021-07-06 16:20:20.054687500,-26.0,2.0,58.0,59.474375,22.21,0.7737237812500001,33.13
2021-07-06 16:20:20.062500000,-26.0,2.0,58.0,59.475,21.55,0.77368375,33.13
2021-07-06 16:20:20.070312500,-26.0,2.0,58.0,59.475625,20.64,0.77364371875,33.13
2021-07-06 16:20:20.078125000,-26.0,2.0,58.0,59.47625,19.73,0.7736036875000001,33.13
2021-07-06 16:20:20.085937500,-26.0,2.0,58.0,59.476875,18.6,0.77356365625,33.13
2021-07-06 16:20:20.093750000,-26.0,2.0,58.0,59.4775,17.47,0.773523625,33.13
2021-07-06 16:20:20.101562500,-26.0,2.0,58.0,59.478125,16.244999999999997,0.7734835937500001,33.13
2021-07-06 16:20:20.109375000,-26.0,2.0,58.0,59.47875,15.02,0.7734435625,33.13
2021-07-06 16:20:20.117187500,-26.0,2.0,58.0,59.479375,13.815,0.77340353125,33.13
2021-07-06 16:20:20.125000000,-26.0,2.0,58.0,59.48,12.61,0.7733635000000001,33.13
2021-07-06 16:20:20.132812500,-26.0,2.0,58.0,59.480624999999996,11.495000000000001,0.77332346875,33.13
2021-07-06 16:20:20.140625000,-26.0,2.0,58.0,59.481249999999996,10.38,0.7732834375000001,33.13
2021-07-06 16:20:20.148437500,-26.0,2.0,58.0,59.481874999999995,9.395,0.77324340625,33.13
2021-07-06 16:20:20.156250000,-26.0,2.0,58.0,59.4825,8.41,0.773203375,33.13
2021-07-06 16:20:20.164062500,-26.0,2.0,58.0,59.483125,7.550000000000001,0.7731633437500001,33.13
2021-07-06 16:20:20.171875000,-26.0,2.0,58.0,59.48375,6.69,0.7731233125,33.13
2021-07-06 16:20:20.179687500,-26.0,2.0,58.0,59.484375,5.9350000000000005,0.77308328125,33.13
2021-07-06 16:20:20.187500000,-26.0,2.0,58.0,59.485,5.18,0.7730432500000001,33.13
2021-07-06 16:20:20.195312500,-26.0,2.0,58.0,59.485625,4.5,0.77300321875,33.13
2021-07-06 16:20:20.203125000,-26.0,2.0,58.0,59.48625,3.82,0.7729631875,33.13
2021-07-06 16:20:20.210937500,-26.0,2.0,58.0,59.486875,3.195,0.7729231562500001,33.13
2021-07-06 16:20:20.218750000,-26.0,2.0,58.0,59.4875,2.57,0.772883125,33.13
2021-07-06 16:20:20.226562500,-26.0,2.0,58.0,59.488125,1.95,0.77284309375,33.13
2021-07-06 16:20:20.234375000,-26.0,2.0,58.0,59.488749999999996,1.33,0.7728030625000001,33.13
2021-07-06 16:20:20.242187500,-26.0,2.0,58.0,59.489374999999995,0.645,0.77276303125,33.13
2021-07-06 16:20:20.250000000,-26.0,2.0,58.0,59.489999999999995,-0.04,0.772723,33.13
2021-07-06 16:20:20.257812500,-26.0,2.0,58.0,59.490625,-0.835,0.77276303125,33.13
2021-07-06 16:20:20.265625000,-26.0,2.0,58.0,59.49125,-1.63,0.7728030625000001,33.13
2021-07-06 16:20:20.273437500,-26.0,2.0,58.0,59.491875,-2.57,0.77284309375,33.13
2021-07-06 16:20:20.281250000,-26.0,2.0,58.0,59.4925,-3.51,0.772883125,33.13
2021-07-06 16:20:20.289062500,-26.0,2.0,58.0,59.493125,-4.57,0.7729231562500001,33.13
2021-07-06 16:20:20.296875000,-26.0,2.0,58.0,59.49375,-5.63,0.7729631875,33.13
2021-07-06 16:20:20.304687500,-26.0,2.0,58.0,59.494375,-6.765000000000001,0.77300321875,33.13
2021-07-06 16:20:20.312500000,-26.0,2.0,58.0,59.495,-7.9,0.7730432500000001,33.13
2021-07-06 16:20:20.320312500,-26.0,2.0,58.0,59.495625,-9.030000000000001,0.77308328125,33.13
2021-07-06 16:20:20.328125000,-26.0,2.0,58.0,59.496249999999996,-10.16,0.7731233125,33.13
2021-07-06 16:20:20.335937500,-26.0,2.0,58.0,59.496874999999996,-11.254999999999999,0.7731633437500001,33.13
2021-07-06 16:20:20.343750000,-26.0,2.0,58.0,59.497499999999995,-12.35,0.773203375,33.13
2021-07-06 16:20:20.351562500,-26.0,2.0,58.0,59.498125,-13.39,0.77324340625,33.13
2021-07-06 16:20:20.359375000,-26.0,2.0,58.0,59.49875,-14.43,0.7732834375000001,33.13
2021-07-06 16:20:20.367187500,-26.0,2.0,58.0,59.499375,-15.445,0.77332346875,33.13
2021-07-06 16:20:20.375000000,-26.0,2.0,58.0,59.5,-16.46,0.7733635000000001,33.13
2021-07-06 16:20:20.382812500,-26.0,2.0,58.0,59.500625,-17.5,0.77340353125,33.13
2021-07-06 16:20:20.390625000,-26.0,2.0,58.0,59.50125,-18.54,0.7734435625,33.13
2021-07-06 16:20:20.398437500,-26.0,2.0,58.0,59.501875,-19.65,0.7734835937500001,33.13
2021-07-06 16:20:20.406250000,-26.0,2.0,58.0,59.5025,-20.76,0.773523625,33.13
2021-07-06 16:20:20.414062500,-26.0,2.0,58.0,59.503125,-21.92,0.77356365625,33.13
2021-07-06 16:20:20.421875000,-26.0,2.0,58.0,59.50375,-23.08,0.7736036875000001,33.13
2021-07-06 16:20:20.429687500,-26.0,2.0,58.0,59.504374999999996,-24.185,0.77364371875,33.13
2021-07-06 16:20:20.437500000,-26.0,2.0,58.0,59.504999999999995,-25.29,0.77368375,33.13
2021-07-06 16:20:20.445312500,-26.0,2.0,58.0,59.505624999999995,-26.189999999999998,0.7737237812500001,33.13
2021-07-06 16:20:20.453125000,-26.0,2.0,58.0,59.50625,-27.09,0.7737638125,33.13
2021-07-06 16:20:20.460937500,-26.0,2.0,58.0,59.506875,-27.575,0.77380384375,33.13
2021-07-06 16:20:20.468750000,-26.0,2.0,58.0,59.5075,-28.06,0.7738438750000001,33.13
2021-07-06 16:20:20.476562500,-26.0,2.0,58.0,59.508125,-27.979999999999997,0.77388390625,33.13
2021-07-06 16:20:20.484375000,-26.0,2.0,58.0,59.50875,-27.9,0.7739239375,33.13
2021-07-06 16:20:20.492187500,-26.0,2.0,58.0,59.509375,-27.185,0.7739639687500001,33.13
2021-07-06 16:20:20.500000000,-26.0,2.0,58.0,59.51,-26.47,0.774004,33.13
2021-07-06 16:20:20.507812500,-26.0,2.0,58.0,59.510625,-25.16,0.7739639687500001,33.13
2021-07-06 16:20:20.515625000,-26.0,2.0,58.0,59.51125,-23.85,0.7739239375,33.13
2021-07-06 16:20:20.523437500,-26.0,2.0,58.0,59.511874999999996,-22.08,0.77388390625,33.13
2021-07-06 16:20:20.531250000,-26.0,2.0,58.0,59.512499999999996,-20.31,0.7738438750000001,33.13
2021-07-06 16:20:20.539062500,-26.0,2.0,58.0,59.513124999999995,-18.229999999999997,0.77380384375,33.13
2021-07-06 16:20:20.546875000,-26.0,2.0,58.0,59.513749999999995,-16.15,0.7737638125,33.13
2021-07-06 16:20:20.554687500,-26.0,2.0,58.0,59.514375,-13.899999999999999,0.7737237812500001,33.13
2021-07-06 16:20:20.562500000,-26.0,2.0,58.0,59.515,-11.65,0.77368375,33.13
2021-07-06 16:20:20.570312500,-26.0,2.0,58.0,59.515625,-9.33,0.77364371875,33.13
2021-07-06 16:20:20.578125000,-26.0,2.0,58.0,59.51625,-7.01,0.7736036875000001,33.13
2021-07-06 16:20:20.585937500,-26.0,2.0,58.0,59.516875,-4.705,0.77356365625,33.13
2021-07-06 16:20:20.593750000,-26.0,2.0,58.0,59.5175,-2.4,0.773523625,33.13
2021-07-06 16:20:20.601562500,-26.0,2.0,58.0,59.518125,-0.16500000000000004,0.7734835937500001,33.13
2021-07-06 16:20:20.609375000,-26.0,2.0,58.0,59.51875,2.07,0.7734435625,33.13
2021-07-06 16:20:20.617187500,-26.0,2.0,58.0,59.519375,4.15,0.77340353125,33.13
2021-07-06 16:20:20.625000000,-26.0,2.0,58.0,59.519999999999996,6.23,0.7733635000000001,33.13
2021-07-06 16:20:20.632812500,-26.25,2.0,58.0,59.520624999999995,8.095,0.77332346875,33.13
2021-07-06 16:20:20.640625000,-26.5,2.0,58.0,59.521249999999995,9.96,0.7732834375000001,33.13
2021-07-06 16:20:20.648437500,-26.75,2.0,58.0,59.521874999999994,11.585,0.77324340625,33.13
2021-07-06 16:20:20.656250000,-27.0,2.0,58.0,59.5225,13.21,0.773203375,33.13
2021-07-06 16:20:20.664062500,-26.75,2.0,58.0,59.523125,14.605,0.7731633437500001,33.13
2021-07-06 16:20:20.671875000,-26.5,2.0,58.0,59.52375,16.0,0.7731233125,33.13
2021-07-06 16:20:20.679687500,-26.25,2.0,58.0,59.524375,17.215,0.77308328125,33.13
2021-07-06 16:20:20.687500000,-26.0,2.0,58.0,59.525,18.43,0.7730432500000001,33.13
2021-07-06 16:20:20.695312500,-26.0,2.0,58.0,59.525625,19.515,0.77300321875,33.13
2021-07-06 16:20:20.703125000,-26.0,2.0,58.0,59.52625,20.6,0.7729631875,33.13
2021-07-06 16:20:20.710937500,-26.0,2.0,58.0,59.526875,21.59,0.7729231562500001,33.13
2021-07-06 16:20:20.718750000,-26.0,2.0,58.0,59.527499999999996,22.58,0.772883125,33.13
2021-07-06 16:20:20.726562500,-26.0,2.0,58.0,59.528124999999996,23.47,0.77284309375,33.13
2021-07-06 16:20:20.734375000,-26.0,2.0,58.0,59.528749999999995,24.36,0.7728030625000001,33.13
2021-07-06 16:20:20.742187500,-26.0,2.0,58.0,59.529374999999995,25.115000000000002,0.77276303125,33.13
2021-07-06 16:20:20.750000000,-26.0,2.0,58.0,59.53,25.87,0.772723,33.13
2021-07-06 16:20:20.757812500,-26.0,2.0,58.0,59.530625,26.42,0.772723,33.13
2021-07-06 16:20:20.765625000,-26.0,2.0,58.0,59.53125,26.97,0.772723,33.13
2021-07-06 16:20:20.773437500,-26.0,2.0,58.0,59.531875,27.275,0.772723,33.13
2021-07-06 16:20:20.781250000,-26.0,2.0,58.0,59.5325,27.58,0.772723,33.13
2021-07-06 16:20:20.789062500,-26.0,2.0,58.0,59.533125,27.595,0.772723,33.13
2021-07-06 16:20:20.796875000,-26.0,2.0,58.0,59.53375,27.61,0.772723,33.13
2021-07-06 16:20:20.804687500,-26.0,2.0,58.0,59.534375,27.35,0.772723,33.13
2021-07-06 16:20:20.812500000,-26.0,2.0,58.0,59.535,27.09,0.772723,33.13
2021-07-06 16:20:20.820312500,-26.25,2.0,58.0,59.535624999999996,26.61,0.772723,33.13
2021-07-06 16:20:20.828125000,-26.5,2.0,58.0,59.536249999999995,26.13,0.772723,33.13
2021-07-06 16:20:20.835937500,-26.75,2.0,58.0,59.536874999999995,25.53,0.772723,33.13
2021-07-06 16:20:20.843750000,-27.0,2.0,58.0,59.537499999999994,24.93,0.772723,33.13
2021-07-06 16:20:20.851562500,-26.75,2.0,58.0,59.538125,24.32,0.772723,33.13
2021-07-06 16:20:20.859375000,-26.5,2.0,58.0,59.53875,23.71,0.772723,33.13
2021-07-06 16:20:20.867187500,-26.25,2.0,58.0,59.539375,23.195,0.772723,33.13
2021-07-06 16:20:20.875000000,-26.0,2.0,58.0,59.54,22.68,0.772723,33.13
2021-07-06 16:20:20.882812500,-26.0,2.0,58.0,59.540625,22.32,0.772723,33.13
2021-07-06 16:20:20.890625000,-26.0,2.0,58.0,59.54125,21.96,0.772723,33.13
2021-07-06 16:20:20.898437500,-26.0,2.0,58.0,59.541875,21.735,0.772723,33.13
2021-07-06 16:20:20.906250000,-26.0,2.0,58.0,59.5425,21.51,0.772723,33.13
2021-07-06 16:20:20.914062500,-26.25,2.0,58.0,59.543124999999996,21.355,0.772723,33.13
2021-07-06 16:20:20.921875000,-26.5,2.0,58.0,59.543749999999996,21.2,0.772723,33.13
2021-07-06 16:20:20.929687500,-26.75,2.0,58.0,59.544374999999995,21.0,0.772723,33.13
2021-07-06 16:20:20.937500000,-27.0,2.0,58.0,59.544999999999995,20.8,0.772723,33.13
2021-07-06 16:20:20.945312500,-27.0,2.0,58.0,59.545624999999994,20.455,0.772723,33.13
2021-07-06 16:20:20.953125000,-27.0,2.0,58.0,59.54625,20.11,0.772723,33.13
2021-07-06 16:20:20.960937500,-27.0,2.0,58.0,59.546875,19.549999999999997,0.772723,33.13
2021-07-06 16:20:20.968750000,-27.0,2.0,58.0,59.5475,18.99,0.772723,33.13
2021-07-06 16:20:20.976562500,-26.75,2.0,58.0,59.548125,18.215,0.772723,33.13
2021-07-06 16:20:20.984375000,-26.5,2.0,58.0,59.54875,17.44,0.772723,33.13
2021-07-06 16:20:20.992187500,-26.25,2.0,58.0,59.549375,16.495,0.772723,33.13
2021-07-06 16:20:21.000000000,-26.0,2.0,58.0,59.55,15.55,0.772723,33.13
2021-07-06 16:20:21.007812500,-26.0,2.0,58.0,59.550546874999995,14.510000000000002,0.7726829687500001,33.130625
2021-07-06 16:20:21.015625000,-26.0,2.0,58.0,59.55109375,13.47,0.7726429375,33.13125
2021-07-06 16:20:21.023437500,-26.0,2.0,58.0,59.551640625,12.41,0.77260290625,33.131875
2021-07-06 16:20:21.031250000,-26.0,2.0,58.0,59.552187499999995,11.35,0.772562875,33.1325
2021-07-06 16:20:21.039062500,-26.25,2.0,58.0,59.552734375,10.32,0.77252284375,33.133125
2021-07-06 16:20:21.046875000,-26.5,2.0,58.0,59.55328125,9.29,0.7724828125000001,33.13375
2021-07-06 16:20:21.054687500,-26.75,2.0,58.0,59.553828124999995,8.315,0.77244278125,33.134375
2021-07-06 16:20:21.062500000,-27.0,2.0,58.0,59.554375,7.34,0.77240275,33.135000000000005
2021-07-06 16:20:21.070312500,-26.75,2.0,58.0,59.554921875,6.4350000000000005,0.7723627187500001,33.135625000000005
2021-07-06 16:20:21.078125000,-26.5,2.0,58.0,59.555468749999996,5.53,0.7723226875,33.136250000000004
2021-07-06 16:20:21.085937500,-26.25,2.0,58.0,59.556015625,4.67,0.77228265625,33.136875
2021-07-06 16:20:21.093750000,-26.0,2.0,58.0,59.5565625,3.81,0.7722426250000001,33.1375
2021-07-06 16:20:21.101562500,-26.0,2.0,58.0,59.557109374999996,2.975,0.77220259375,33.138125
2021-07-06 16:20:21.109375000,-26.0,2.0,58.0,59.557656249999994,2.14,0.7721625625,33.13875
2021-07-06 16:20:21.117187500,-26.0,2.0,58.0,59.558203125,1.2850000000000001,0.77212253125,33.139375
2021-07-06 16:20:21.125000000,-26.0,2.0,58.0,59.558749999999996,0.43,0.7720825,33.14
2021-07-06 16:20:21.132812500,-26.0,2.0,58.0,59.559296874999994,-0.465,0.77204246875,33.140625
2021-07-06 16:20:21.140625000,-26.0,2.0,58.0,59.55984375,-1.36,0.7720024375,33.14125
2021-07-06 16:20:21.148437500,-26.0,2.0,58.0,59.560390625,-2.295,0.77196240625,33.141875
2021-07-06 16:20:21.156250000,-26.0,2.0,58.0,59.560937499999994,-3.23,0.7719223749999999,33.1425
2021-07-06 16:20:21.164062500,-26.0,2.0,58.0,59.561484375,-4.195,0.77188234375,33.143125
2021-07-06 16:20:21.171875000,-26.0,2.0,58.0,59.56203125,-5.16,0.7718423125,33.14375
2021-07-06 16:20:21.179687500,-26.0,2.0,58.0,59.562578124999995,-6.105,0.7718022812499999,33.144375
2021-07-06 16:20:21.187500000,-26.0,2.0,58.0,59.563125,-7.05,0.77176225,33.144999999999996
2021-07-06 16:20:21.195312500,-26.0,2.0,58.0,59.563671875,-7.9399999999999995,0.77172221875,33.145625
2021-07-06 16:20:21.203125000,-26.0,2.0,58.0,59.564218749999995,-8.83,0.7716821875,33.14625
2021-07-06 16:20:21.210937500,-26.0,2.0,58.0,59.564765625,-9.625,0.77164215625,33.146875
2021-07-06 16:20:21.218750000,-26.0,2.0,58.0,59.5653125,-10.42,0.771602125,33.1475
2021-07-06 16:20:21.226562500,-26.0,2.0,58.0,59.565859374999995,-11.11,0.77156209375,33.148125
2021-07-06 16:20:21.234375000,-26.0,2.0,58.0,59.56640625,-11.8,0.7715220625,33.14875
2021-07-06 16:20:21.242187500,-26.0,2.0,58.0,59.566953125,-12.425,0.7714820312499999,33.149375
2021-07-06 16:20:21.250000000,-26.0,2.0,58.0,59.567499999999995,-13.05,0.771442,33.15
2021-07-06 16:20:21.257812500,-26.25,2.0,58.0,59.568046875,-13.685,0.77140196875,33.15
2021-07-06 16:20:21.265625000,-26.5,2.0,58.0,59.56859375,-14.32,0.7713619374999999,33.15
2021-07-06 16:20:21.273437500,-26.75,2.0,58.0,59.569140624999996,-15.06,0.77132190625,33.15
2021-07-06 16:20:21.281250000,-27.0,2.0,58.0,59.5696875,-15.8,0.771281875,33.15
2021-07-06 16:20:21.289062500,-26.75,2.0,58.0,59.570234375,-16.715,0.7712418437499999,33.15
2021-07-06 16:20:21.296875000,-26.5,2.0,58.0,59.570781249999996,-17.63,0.7712018125,33.15
2021-07-06 16:20:21.304687500,-26.25,2.0,58.0,59.571328124999994,-18.744999999999997,0.77116178125,33.15
2021-07-06 16:20:21.312500000,-26.0,2.0,58.0,59.571875,-19.86,0.7711217499999999,33.15
2021-07-06 16:20:21.320312500,-26.0,2.0,58.0,59.572421874999996,-21.119999999999997,0.77108171875,33.15
2021-07-06 16:20:21.328125000,-26.0,2.0,58.0,59.572968749999994,-22.38,0.7710416875,33.15
2021-07-06 16:20:21.335937500,-26.0,2.0,58.0,59.573515625,-23.655,0.77100165625,33.15
2021-07-06 16:20:21.343750000,-26.0,2.0,58.0,59.5740625,-24.93,0.770961625,33.15
2021-07-06 16:20:21.351562500,-26.0,2.0,58.0,59.574609374999994,-26.055,0.77092159375,33.15
2021-07-06 16:20:21.359375000,-26.0,2.0,58.0,59.57515625,-27.18,0.7708815625,33.15
2021-07-06 16:20:21.367187500,-26.0,2.0,58.0,59.575703125,-27.994999999999997,0.77084153125,33.15
2021-07-06 16:20:21.375000000,-26.0,2.0,58.0,59.576249999999995,-28.81,0.7708014999999999,33.15
2021-07-06 16:20:21.382812500,-26.0,2.0,58.0,59.576796875,-29.185,0.77076146875,33.15
2021-07-06 16:20:21.390625000,-26.0,2.0,58.0,59.57734375,-29.56,0.7707214375,33.15
2021-07-06 16:20:21.398437500,-26.0,2.0,58.0,59.577890624999995,-29.424999999999997,0.7706814062499999,33.15
2021-07-06 16:20:21.406250000,-26.0,2.0,58.0,59.5784375,-29.29,0.770641375,33.15
2021-07-06 16:20:21.414062500,-26.0,2.0,58.0,59.578984375,-28.65,0.77060134375,33.15
2021-07-06 16:20:21.421875000,-26.0,2.0,58.0,59.579531249999995,-28.01,0.7705613124999999,33.15
2021-07-06 16:20:21.429687500,-26.0,2.0,58.0,59.580078125,-26.91,0.77052128125,33.15
2021-07-06 16:20:21.437500000,-26.0,2.0,58.0,59.580625,-25.81,0.77048125,33.15
2021-07-06 16:20:21.445312500,-26.0,2.0,58.0,59.581171874999995,-24.33,0.7704412187499999,33.15
2021-07-06 16:20:21.453125000,-26.0,2.0,58.0,59.58171875,-22.85,0.7704011875,33.15
2021-07-06 16:20:21.460937500,-26.0,2.0,58.0,59.582265625,-21.1,0.77036115625,33.15
2021-07-06 16:20:21.468750000,-26.0,2.0,58.0,59.582812499999996,-19.35,0.7703211249999999,33.15
2021-07-06 16:20:21.476562500,-26.0,2.0,58.0,59.583359375,-17.425,0.77028109375,33.15
2021-07-06 16:20:21.484375000,-26.0,2.0,58.0,59.58390625,-15.5,0.7702410625,33.15
2021-07-06 16:20:21.492187500,-26.0,2.0,58.0,59.584453124999996,-13.495000000000001,0.77020103125,33.15
2021-07-06 16:20:21.500000000,-26.0,2.0,58.0,59.584999999999994,-11.49,0.770161,33.15
2021-07-06 16:20:21.507812500,-26.0,2.0,58.0,59.585546875,-9.465,0.7700809375,33.15
2021-07-06 16:20:21.515625000,-26.0,2.0,58.0,59.586093749999996,-7.44,0.770000875,33.15
2021-07-06 16:20:21.523437500,-26.0,2.0,58.0,59.586640624999994,-5.44,0.7699208125,33.15
2021-07-06 16:20:21.531250000,-26.0,2.0,58.0,59.5871875,-3.44,0.76984075,33.15
2021-07-06 16:20:21.539062500,-26.25,2.0,58.0,59.587734375,-1.5,0.7697606875,33.15
2021-07-06 16:20:21.546875000,-26.5,2.0,58.0,59.588281249999994,0.44,0.769680625,33.15
2021-07-06 16:20:21.554687500,-26.75,2.0,58.0,59.588828125,2.305,0.7696005625,33.15
2021-07-06 16:20:21.562500000,-27.0,2.0,58.0,59.589375,4.17,0.7695205,33.15
2021-07-06 16:20:21.570312500,-26.75,2.0,58.0,59.589921874999995,5.915,0.7694404375,33.15
2021-07-06 16:20:21.578125000,-26.5,2.0,58.0,59.59046875,7.66,0.769360375,33.15
2021-07-06 16:20:21.585937500,-26.25,2.0,58.0,59.591015625,9.215,0.7692803125,33.15
2021-07-06 16:20:21.593750000,-26.0,2.0,58.0,59.591562499999995,10.77,0.76920025,33.15
2021-07-06 16:20:21.601562500,-26.0,2.0,58.0,59.592109375,12.08,0.7691201875,33.15
2021-07-06 16:20:21.609375000,-26.0,2.0,58.0,59.59265625,13.39,0.769040125,33.15
2021-07-06 16:20:21.617187500,-26.0,2.0,58.0,59.593203124999995,14.39,0.7689600625,33.15
2021-07-06 16:20:21.625000000,-26.0,2.0,58.0,59.59375,15.39,0.76888,33.15
2021-07-06 16:20:21.632812500,-26.0,2.0,58.0,59.594296875,16.09,0.7687999375,33.15
2021-07-06 16:20:21.640625000,-26.0,2.0,58.0,59.594843749999995,16.79,0.768719875,33.15
2021-07-06 16:20:21.648437500,-26.0,2.0,58.0,59.595390625,17.225,0.7686398125,33.15
2021-07-06 16:20:21.656250000,-26.0,2.0,58.0,59.5959375,17.66,0.76855975,33.15
2021-07-06 16:20:21.664062500,-26.0,2.0,58.0,59.596484374999996,17.915,0.7684796875000001,33.15
2021-07-06 16:20:21.671875000,-26.0,2.0,58.0,59.59703125,18.17,0.768399625,33.15
2021-07-06 16:20:21.679687500,-26.0,2.0,58.0,59.597578125,18.340000000000003,0.7683195625,33.15
2021-07-06 16:20:21.687500000,-26.0,2.0,58.0,59.598124999999996,18.51,0.7682395,33.15
2021-07-06 16:20:21.695312500,-26.0,2.0,58.0,59.598671875,18.665,0.7681594375,33.15
2021-07-06 16:20:21.703125000,-26.0,2.0,58.0,59.59921875,18.82,0.768079375,33.15
2021-07-06 16:20:21.710937500,-26.0,2.0,58.0,59.599765624999996,18.990000000000002,0.7679993125,33.15
2021-07-06 16:20:21.718750000,-26.0,2.0,58.0,59.600312499999994,19.16,0.76791925,33.15
2021-07-06 16:20:21.726562500,-26.0,2.0,58.0,59.600859375,19.345,0.7678391875,33.15
2021-07-06 16:20:21.734375000,-26.0,2.0,58.0,59.60140625,19.53,0.767759125,33.15
2021-07-06 16:20:21.742187500,-26.0,2.0,58.0,59.601953124999994,19.68,0.7676790625000001,33.15
2021-07-06 16:20:21.750000000,-26.0,2.0,58.0,59.6025,19.83,0.767599,33.15
2021-07-06 16:20:21.757812500,-26.0,2.0,58.0,59.603046875,19.92,0.76771909375,33.15
2021-07-06 16:20:21.765625000,-26.0,2.0,58.0,59.603593749999995,20.01,0.7678391875,33.15
2021-07-06 16:20:21.773437500,-26.0,2.0,58.0,59.604140625,20.005000000000003,0.76795928125,33.15
2021-07-06 16:20:21.781250000,-26.0,2.0,58.0,59.6046875,20.0,0.768079375,33.15
2021-07-06 16:20:21.789062500,-26.0,2.0,58.0,59.605234374999995,19.884999999999998,0.76819946875,33.15
2021-07-06 16:20:21.796875000,-26.0,2.0,58.0,59.60578125,19.77,0.7683195625,33.15
2021-07-06 16:20:21.804687500,-26.0,2.0,58.0,59.606328125,19.535,0.76843965625,33.15
2021-07-06 16:20:21.812500000,-26.0,2.0,58.0,59.606874999999995,19.3,0.76855975,33.15
2021-07-06 16:20:21.820312500,-26.0,2.0,58.0,59.607421875,18.955,0.76867984375,33.15
2021-07-06 16:20:21.828125000,-26.0,2.0,58.0,59.60796875,18.61,0.7687999375,33.15
2021-07-06 16:20:21.835937500,-26.0,2.0,58.0,59.608515624999995,18.16,0.76892003125,33.15
2021-07-06 16:20:21.843750000,-26.0,2.0,58.0,59.6090625,17.71,0.769040125,33.15
2021-07-06 16:20:21.851562500,-26.0,2.0,58.0,59.609609375,17.205,0.76916021875,33.15
2021-07-06 16:20:21.859375000,-26.0,2.0,58.0,59.610156249999996,16.7,0.7692803125,33.15
2021-07-06 16:20:21.867187500,-26.0,2.0,58.0,59.610703125,16.189999999999998,0.76940040625,33.15
2021-07-06 16:20:21.875000000,-26.0,2.0,58.0,59.61125,15.68,0.7695205,33.15
2021-07-06 16:20:21.882812500,-26.0,2.0,58.0,59.611796874999996,15.19,0.76964059375,33.15
2021-07-06 16:20:21.890625000,-26.0,2.0,58.0,59.61234375,14.7,0.7697606875,33.15
2021-07-06 16:20:21.898437500,-26.0,2.0,58.0,59.612890625,14.26,0.76988078125,33.15
2021-07-06 16:20:21.906250000,-26.0,2.0,58.0,59.613437499999996,13.82,0.770000875,33.15
2021-07-06 16:20:21.914062500,-26.0,2.0,58.0,59.613984374999994,13.39,0.77012096875,33.15
2021-07-06 16:20:21.921875000,-26.0,2.0,58.0,59.61453125,12.96,0.7702410625,33.15
2021-07-06 16:20:21.929687500,-26.0,2.0,58.0,59.615078125,12.47,0.77036115625,33.15
2021-07-06 16:20:21.937500000,-26.0,2.0,58.0,59.615624999999994,11.98,0.77048125,33.15
2021-07-06 16:20:21.945312500,-26.0,2.0,58.0,59.616171875,11.375,0.77060134375,33.15
2021-07-06 16:20:21.953125000,-26.0,2.0,58.0,59.61671875,10.77,0.7707214375,33.15
2021-07-06 16:20:21.960937500,-26.0,2.0,58.0,59.617265624999995,10.004999999999999,0.77084153125,33.15
2021-07-06 16:20:21.968750000,-26.0,2.0,58.0,59.6178125,9.24,0.770961625,33.15
2021-07-06 16:20:21.976562500,-26.0,2.0,58.0,59.618359375,8.335,0.77108171875,33.15
2021-07-06 16:20:21.984375000,-26.0,2.0,58.0,59.618906249999995,7.43,0.7712018125,33.15
2021-07-06 16:20:21.992187500,-26.0,2.0,58.0,59.619453125,6.47,0.77132190625,33.15
2021-07-06 16:20:22.000000000,-26.0,2.0,58.0,59.62,5.51,0.771442,33.15
2021-07-06 16:20:22.007812500,-26.0,2.0,58.0,59.621015625,4.585,0.7712018125,33.149375
2021-07-06 16:20:22.015625000,-26.0,2.0,58.0,59.62203125,3.66,0.770961625,33.14875
2021-07-06 16:20:22.023437500,-26.0,2.0,58.0,59.623046875,2.875,0.7707214375,33.148125
2021-07-06 16:20:22.031250000,-26.0,2.0,58.0,59.6240625,2.09,0.77048125,33.1475
2021-07-06 16:20:22.039062500,-26.25,2.0,58.0,59.625078124999995,1.4949999999999999,0.7702410625,33.146875
2021-07-06 16:20:22.046875000,-26.5,2.0,58.0,59.626093749999995,0.9,0.7700008749999999,33.14625
2021-07-06 16:20:22.054687500,-26.75,2.0,58.0,59.627109374999996,0.495,0.7697606874999999,33.145625
2021-07-06 16:20:22.062500000,-27.0,2.0,58.0,59.628125,0.09,0.7695204999999999,33.144999999999996
2021-07-06 16:20:22.070312500,-26.75,2.0,58.0,59.629140625,-0.19999999999999998,0.7692803125,33.144375
2021-07-06 16:20:22.078125000,-26.5,2.0,58.0,59.63015625,-0.49,0.769040125,33.14375
2021-07-06 16:20:22.085937500,-26.25,2.0,58.0,59.631171875,-0.755,0.7687999375,33.143125
2021-07-06 16:20:22.093750000,-26.0,2.0,58.0,59.6321875,-1.02,0.76855975,33.1425
2021-07-06 16:20:22.101562500,-26.0,2.0,58.0,59.633203124999994,-1.375,0.7683195625,33.141875
2021-07-06 16:20:22.109375000,-26.0,2.0,58.0,59.634218749999995,-1.73,0.768079375,33.14125
2021-07-06 16:20:22.117187500,-26.0,2.0,58.0,59.635234374999996,-2.24,0.7678391875,33.140625
2021-07-06 16:20:22.125000000,-26.0,2.0,58.0,59.63625,-2.75,0.7675989999999999,33.14
2021-07-06 16:20:22.132812500,-26.0,2.0,58.0,59.637265625,-3.445,0.7673588124999999,33.139375
2021-07-06 16:20:22.140625000,-26.0,2.0,58.0,59.63828125,-4.14,0.7671186249999999,33.13875
2021-07-06 16:20:22.148437500,-26.0,2.0,58.0,59.639296875,-4.984999999999999,0.7668784375,33.138125
2021-07-06 16:20:22.156250000,-26.0,2.0,58.0,59.6403125,-5.83,0.76663825,33.1375
2021-07-06 16:20:22.164062500,-26.0,2.0,58.0,59.641328125,-6.775,0.7663980625,33.136875
2021-07-06 16:20:22.171875000,-26.0,2.0,58.0,59.642343749999995,-7.72,0.766157875,33.136250000000004
2021-07-06 16:20:22.179687500,-26.0,2.0,58.0,59.643359374999996,-8.69,0.7659176875,33.135625000000005
2021-07-06 16:20:22.187500000,-26.0,2.0,58.0,59.644375,-9.66,0.7656775,33.135000000000005
2021-07-06 16:20:22.195312500,-26.0,2.0,58.0,59.645390625,-10.605,0.7654373125,33.134375
2021-07-06 16:20:22.203125000,-26.0,2.0,58.0,59.64640625,-11.55,0.765197125,33.13375
2021-07-06 16:20:22.210937500,-26.0,2.0,58.0,59.647421875,-12.46,0.7649569374999999,33.133125
2021-07-06 16:20:22.218750000,-26.0,2.0,58.0,59.6484375,-13.37,0.76471675,33.1325
2021-07-06 16:20:22.226562500,-26.0,2.0,58.0,59.649453125,-14.23,0.7644765625,33.131875
2021-07-06 16:20:22.234375000,-26.0,2.0,58.0,59.650468749999995,-15.09,0.764236375,33.13125
2021-07-06 16:20:22.242187500,-26.0,2.0,58.0,59.651484374999995,-15.93,0.7639961875,33.130625
2021-07-06 16:20:22.250000000,-26.0,2.0,58.0,59.652499999999996,-16.77,0.763756,33.13
2021-07-06 16:20:22.257812500,-26.0,2.0,58.0,59.653515625,-17.6,0.76379603125,33.13
2021-07-06 16:20:22.265625000,-26.0,2.0,58.0,59.65453125,-18.43,0.7638360625,33.13
2021-07-06 16:20:22.273437500,-26.0,2.0,58.0,59.655546875,-19.29,0.76387609375,33.13
2021-07-06 16:20:22.281250000,-26.0,2.0,58.0,59.6565625,-20.15,0.763916125,33.13
2021-07-06 16:20:22.289062500,-26.0,2.0,58.0,59.657578125,-21.055,0.76395615625,33.13
2021-07-06 16:20:22.296875000,-26.0,2.0,58.0,59.65859375,-21.96,0.7639961875,33.13
2021-07-06 16:20:22.304687500,-26.0,2.0,58.0,59.659609374999995,-22.905,0.7640362187499999,33.13
2021-07-06 16:20:22.312500000,-26.0,2.0,58.0,59.660624999999996,-23.85,0.76407625,33.13
2021-07-06 16:20:22.320312500,-26.0,2.0,58.0,59.661640625,-24.765,0.76411628125,33.13
2021-07-06 16:20:22.328125000,-26.0,2.0,58.0,59.66265625,-25.68,0.7641563124999999,33.13
2021-07-06 16:20:22.335937500,-26.0,2.0,58.0,59.663671875,-26.455,0.76419634375,33.13
2021-07-06 16:20:22.343750000,-26.0,2.0,58.0,59.6646875,-27.23,0.764236375,33.13
2021-07-06 16:20:22.351562500,-26.0,2.0,58.0,59.665703125,-27.700000000000003,0.7642764062499999,33.13
2021-07-06 16:20:22.359375000,-26.0,2.0,58.0,59.66671875,-28.17,0.7643164375,33.13
2021-07-06 16:20:22.367187500,-26.0,2.0,58.0,59.667734374999995,-28.18,0.76435646875,33.13
2021-07-06 16:20:22.375000000,-26.0,2.0,58.0,59.668749999999996,-28.19,0.7643964999999999,33.13
2021-07-06 16:20:22.382812500,-26.0,2.0,58.0,59.669765625,-27.625,0.76443653125,33.13
2021-07-06 16:20:22.390625000,-26.0,2.0,58.0,59.67078125,-27.06,0.7644765625,33.13
2021-07-06 16:20:22.398437500,-26.0,2.0,58.0,59.671796875,-25.895,0.76451659375,33.13
2021-07-06 16:20:22.406250000,-26.0,2.0,58.0,59.6728125,-24.73,0.764556625,33.13
2021-07-06 16:20:22.414062500,-26.0,2.0,58.0,59.673828125,-23.045,0.76459665625,33.13
2021-07-06 16:20:22.421875000,-26.0,2.0,58.0,59.67484375,-21.36,0.7646366875,33.13
2021-07-06 16:20:22.429687500,-26.0,2.0,58.0,59.675859375,-19.32,0.76467671875,33.13
2021-07-06 16:20:22.437500000,-26.0,2.0,58.0,59.676874999999995,-17.28,0.76471675,33.13
2021-07-06 16:20:22.445312500,-26.0,2.0,58.0,59.677890624999996,-15.065000000000001,0.76475678125,33.13
2021-07-06 16:20:22.453125000,-26.0,2.0,58.0,59.67890625,-12.85,0.7647968125,33.13
2021-07-06 16:20:22.460937500,-26.0,2.0,58.0,59.679921875,-10.629999999999999,0.7648368437499999,33.13
2021-07-06 16:20:22.468750000,-26.0,2.0,58.0,59.6809375,-8.41,0.764876875,33.13
2021-07-06 16:20:22.476562500,-26.0,2.0,58.0,59.681953125,-6.29,0.76491690625,33.13
2021-07-06 16:20:22.484375000,-26.0,2.0,58.0,59.68296875,-4.17,0.7649569374999999,33.13
2021-07-06 16:20:22.492187500,-26.0,2.0,58.0,59.683984375,-2.19,0.76499696875,33.13
2021-07-06 16:20:22.500000000,-26.0,2.0,58.0,59.685,-0.21,0.765037,33.13
2021-07-06 16:20:22.507812500,-26.0,2.0,58.0,59.686015624999996,1.62,0.7649569374999999,33.13
2021-07-06 16:20:22.515625000,-26.0,2.0,58.0,59.68703125,3.45,0.764876875,33.13
2021-07-06 16:20:22.523437500,-26.0,2.0,58.0,59.688046875,5.12,0.7647968125,33.13
2021-07-06 16:20:22.531250000,-26.0,2.0,58.0,59.6890625,6.79,0.76471675,33.13
2021-07-06 16:20:22.539062500,-26.0,2.0,58.0,59.690078125,8.27,0.7646366875,33.13
2021-07-06 16:20:22.546875000,-26.0,2.0,58.0,59.69109375,9.75,0.764556625,33.13
2021-07-06 16:20:22.554687500,-26.0,2.0,58.0,59.692109375,10.99,0.7644765625,33.13
2021-07-06 16:20:22.562500000,-26.0,2.0,58.0,59.693125,12.23,0.7643964999999999,33.13
2021-07-06 16:20:22.570312500,-26.0,2.0,58.0,59.694140624999996,13.190000000000001,0.7643164375,33.13
2021-07-06 16:20:22.578125000,-26.0,2.0,58.0,59.69515625,14.15,0.764236375,33.13
2021-07-06 16:20:22.585937500,-26.0,2.0,58.0,59.696171875,14.82,0.7641563124999999,33.13
2021-07-06 16:20:22.593750000,-26.0,2.0,58.0,59.6971875,15.49,0.76407625,33.13
2021-07-06 16:20:22.601562500,-26.0,2.0,58.0,59.698203125,15.915,0.7639961875,33.13
2021-07-06 16:20:22.609375000,-26.0,2.0,58.0,59.69921875,16.34,0.763916125,33.13
2021-07-06 16:20:22.617187500,-26.0,2.0,58.0,59.700234375,16.605,0.7638360625,33.13
2021-07-06 16:20:22.625000000,-26.0,2.0,58.0,59.70125,16.87,0.763756,33.13
2021-07-06 16:20:22.632812500,-26.0,2.0,58.0,59.702265625,17.055,0.7636759375,33.13
2021-07-06 16:20:22.640625000,-26.0,2.0,58.0,59.703281249999996,17.24,0.763595875,33.13
2021-07-06 16:20:22.648437500,-26.0,2.0,58.0,59.704296875,17.405,0.7635158125,33.13
2021-07-06 16:20:22.656250000,-26.0,2.0,58.0,59.7053125,17.57,0.76343575,33.13
2021-07-06 16:20:22.664062500,-26.25,2.0,58.0,59.706328125,17.73,0.7633556875,33.13
2021-07-06 16:20:22.671875000,-26.5,2.0,58.0,59.70734375,17.89,0.763275625,33.13
2021-07-06 16:20:22.679687500,-26.75,2.0,58.0,59.708359375,18.025,0.7631955625,33.13
2021-07-06 16:20:22.687500000,-27.0,2.0,58.0,59.709375,18.16,0.7631155000000001,33.13
2021-07-06 16:20:22.695312500,-26.75,1.75,58.25,59.710390625,18.225,0.7630354375,33.13
2021-07-06 16:20:22.703125000,-26.5,1.5,58.5,59.711406249999996,18.29,0.762955375,33.13
2021-07-06 16:20:22.710937500,-26.25,1.25,58.75,59.712421875,18.235,0.7628753125,33.13
2021-07-06 16:20:22.718750000,-26.0,1.0,59.0,59.7134375,18.18,0.76279525,33.13
2021-07-06 16:20:22.726562500,-25.5,1.5,59.0,59.714453125,17.990000000000002,0.7627151875,33.13
2021-07-06 16:20:22.734375000,-25.0,2.0,59.0,59.71546875,17.8,0.762635125,33.13
2021-07-06 16:20:22.742187500,-24.5,2.5,59.0,59.716484375,17.490000000000002,0.7625550625,33.13
2021-07-06 16:20:22.750000000,-24.0,3.0,59.0,59.7175,17.18,0.762475,33.13
2021-07-06 16:20:22.757812500,-25.5,3.0,58.5,59.718515625,16.8,0.76251503125,33.13
2021-07-06 16:20:22.765625000,-27.0,3.0,58.0,59.71953125,16.42,0.7625550625,33.13
2021-07-06 16:20:22.773437500,-28.5,3.0,57.5,59.720546875,16.035,0.76259509375,33.13
2021-07-06 16:20:22.781250000,-30.0,3.0,57.0,59.7215625,15.65,0.762635125,33.13
2021-07-06 16:20:22.789062500,-28.5,2.5,57.25,59.722578125,15.344999999999999,0.76267515625,33.13
2021-07-06 16:20:22.796875000,-27.0,2.0,57.5,59.72359375,15.04,0.7627151875,33.13
2021-07-06 16:20:22.804687500,-25.5,1.5,57.75,59.724609375,14.85,0.76275521875,33.13
2021-07-06 16:20:22.812500000,-24.0,1.0,58.0,59.725625,14.66,0.76279525,33.13
2021-07-06 16:20:22.820312500,-24.5,1.25,58.0,59.726640625,14.59,0.76283528125,33.13
2021-07-06 16:20:22.828125000,-25.0,1.5,58.0,59.72765625,14.52,0.7628753125,33.13
2021-07-06 16:20:22.835937500,-25.5,1.75,58.0,59.728671874999996,14.515,0.76291534375,33.13
2021-07-06 16:20:22.843750000,-26.0,2.0,58.0,59.7296875,14.51,0.762955375,33.13
2021-07-06 16:20:22.851562500,-26.0,2.0,58.0,59.730703125,14.48,0.76299540625,33.13
2021-07-06 16:20:22.859375000,-26.0,2.0,58.0,59.73171875,14.45,0.7630354375,33.13
2021-07-06 16:20:22.867187500,-26.0,2.0,58.0,59.732734375,14.305,0.76307546875,33.13
2021-07-06 16:20:22.875000000,-26.0,2.0,58.0,59.73375,14.16,0.7631155000000001,33.13
2021-07-06 16:20:22.882812500,-25.75,2.0,58.25,59.734765625,13.82,0.76315553125,33.13
2021-07-06 16:20:22.890625000,-25.5,2.0,58.5,59.73578125,13.48,0.7631955625,33.13
2021-07-06 16:20:22.898437500,-25.25,2.0,58.75,59.736796875,12.925,0.76323559375,33.13
2021-07-06 16:20:22.906250000,-25.0,2.0,59.0,59.7378125,12.37,0.763275625,33.13
2021-07-06 16:20:22.914062500,-25.5,2.0,58.75,59.738828125,11.605,0.76331565625,33.13
2021-07-06 16:20:22.921875000,-26.0,2.0,58.5,59.73984375,10.84,0.7633556875,33.13
2021-07-06 16:20:22.929687500,-26.5,2.0,58.25,59.740859375,9.925,0.76339571875,33.13
2021-07-06 16:20:22.937500000,-27.0,2.0,58.0,59.741875,9.01,0.76343575,33.13
2021-07-06 16:20:22.945312500,-26.75,2.0,58.0,59.742890625,8.004999999999999,0.76347578125,33.13
2021-07-06 16:20:22.953125000,-26.5,2.0,58.0,59.74390625,7.0,0.7635158125,33.13
2021-07-06 16:20:22.960937500,-26.25,2.0,58.0,59.744921875,6.0,0.76355584375,33.13
2021-07-06 16:20:22.968750000,-26.0,2.0,58.0,59.7459375,5.0,0.763595875,33.13
2021-07-06 16:20:22.976562500,-26.0,2.0,58.0,59.746953125,4.075,0.76363590625,33.13
2021-07-06 16:20:22.984375000,-26.0,2.0,58.0,59.74796875,3.15,0.7636759375,33.13
2021-07-06 16:20:22.992187500,-26.0,2.0,58.0,59.748984375,2.36,0.76371596875,33.13
2021-07-06 16:20:23.000000000,-26.0,2.0,58.0,59.75,1.57,0.763756,33.13
2021-07-06 16:20:23.007812500,-26.0,2.0,58.0,59.751015625,0.935,0.76363590625,33.13
2021-07-06 16:20:23.015625000,-26.0,2.0,58.0,59.75203125,0.3,0.7635158125,33.13
2021-07-06 16:20:23.023437500,-26.0,2.0,58.0,59.753046875,-0.23000000000000004,0.76339571875,33.13
2021-07-06 16:20:23.031250000,-26.0,2.0,58.0,59.7540625,-0.76,0.763275625,33.13
2021-07-06 16:20:23.039062500,-26.0,2.0,58.0,59.755078125,-1.27,0.76315553125,33.13
2021-07-06 16:20:23.046875000,-26.0,2.0,58.0,59.75609375,-1.78,0.7630354375,33.13
2021-07-06 16:20:23.054687500,-26.0,2.0,58.0,59.757109375,-2.38,0.76291534375,33.13
2021-07-06 16:20:23.062500000,-26.0,2.0,58.0,59.758125,-2.98,0.7627952499999999,33.13
2021-07-06 16:20:23.070312500,-26.0,2.0,58.0,59.759140625,-3.74,0.7626751562499999,33.13
2021-07-06 16:20:23.078125000,-26.0,2.0,58.0,59.76015625,-4.5,0.7625550624999999,33.13
2021-07-06 16:20:23.085937500,-26.0,2.0,58.0,59.761171875,-5.45,0.7624349687499999,33.13
2021-07-06 16:20:23.093750000,-26.0,2.0,58.0,59.7621875,-6.4,0.762314875,33.13
2021-07-06 16:20:23.101562500,-26.0,2.0,58.0,59.763203125,-7.48,0.76219478125,33.13
2021-07-06 16:20:23.109375000,-26.0,2.0,58.0,59.76421875,-8.56,0.7620746875,33.13
2021-07-06 16:20:23.117187500,-26.0,2.0,58.0,59.765234375,-9.665,0.76195459375,33.13
2021-07-06 16:20:23.125000000,-26.0,2.0,58.0,59.76625,-10.77,0.7618345,33.13
2021-07-06 16:20:23.132812500,-26.0,2.0,58.0,59.767265625,-11.79,0.76171440625,33.13
2021-07-06 16:20:23.140625000,-26.0,2.0,58.0,59.76828125,-12.81,0.7615943125,33.13
2021-07-06 16:20:23.148437500,-26.0,2.0,58.0,59.769296875,-13.685,0.76147421875,33.13
2021-07-06 16:20:23.156250000,-26.0,2.0,58.0,59.7703125,-14.56,0.761354125,33.13
2021-07-06 16:20:23.164062500,-26.25,2.0,57.75,59.771328125000004,-15.29,0.76123403125,33.13
2021-07-06 16:20:23.171875000,-26.5,2.0,57.5,59.77234375,-16.02,0.7611139375,33.13
2021-07-06 16:20:23.179687500,-26.75,2.0,57.25,59.773359375,-16.67,0.76099384375,33.13
2021-07-06 16:20:23.187500000,-27.0,2.0,57.0,59.774375,-17.32,0.76087375,33.13
2021-07-06 16:20:23.195312500,-27.0,2.0,57.25,59.775390625,-17.975,0.7607536562499999,33.13
2021-07-06 16:20:23.203125000,-27.0,2.0,57.5,59.77640625,-18.63,0.7606335624999999,33.13
2021-07-06 16:20:23.210937500,-27.0,2.0,57.75,59.777421875,-19.345,0.7605134687499999,33.13
2021-07-06 16:20:23.218750000,-27.0,2.0,58.0,59.7784375,-20.06,0.7603933749999999,33.13
2021-07-06 16:20:23.226562500,-26.75,2.0,58.0,59.779453125,-20.86,0.7602732812499999,33.13
2021-07-06 16:20:23.234375000,-26.5,2.0,58.0,59.78046875,-21.66,0.7601531874999999,33.13
2021-07-06 16:20:23.242187500,-26.25,2.0,58.0,59.781484375,-22.545,0.7600330937499999,33.13
2021-07-06 16:20:23.250000000,-26.0,2.0,58.0,59.7825,-23.43,0.759913,33.13
2021-07-06 16:20:23.257812500,-26.0,2.0,58.0,59.783515625,-24.365000000000002,0.7599530312499999,33.13
2021-07-06 16:20:23.265625000,-26.0,2.0,58.0,59.78453125,-25.3,0.7599930625,33.13
2021-07-06 16:20:23.273437500,-26.0,2.0,58.0,59.785546875,-26.255000000000003,0.7600330937499999,33.13
2021-07-06 16:20:23.281250000,-26.0,2.0,58.0,59.7865625,-27.21,0.7600731249999999,33.13
2021-07-06 16:20:23.289062500,-26.0,2.0,58.0,59.787578125,-28.11,0.76011315625,33.13
2021-07-06 16:20:23.296875000,-26.0,2.0,58.0,59.788593750000004,-29.01,0.7601531874999999,33.13
2021-07-06 16:20:23.304687500,-26.0,2.0,58.0,59.789609375,-29.725,0.76019321875,33.13
2021-07-06 16:20:23.312500000,-26.0,2.0,58.0,59.790625,-30.44,0.76023325,33.13
2021-07-06 16:20:23.320312500,-26.0,2.0,58.0,59.791640625,-30.8,0.7602732812499999,33.13
2021-07-06 16:20:23.328125000,-26.0,2.0,58.0,59.79265625,-31.16,0.7603133125,33.13
2021-07-06 16:20:23.335937500,-26.0,2.0,58.0,59.793671875,-30.975,0.76035334375,33.13
2021-07-06 16:20:23.343750000,-26.0,2.0,58.0,59.7946875,-30.79,0.760393375,33.13
2021-07-06 16:20:23.351562500,-26.0,2.0,58.0,59.795703125,-29.945,0.76043340625,33.13
2021-07-06 16:20:23.359375000,-26.0,2.0,58.0,59.796718750000004,-29.1,0.7604734375,33.13
2021-07-06 16:20:23.367187500,-26.0,2.0,58.0,59.797734375,-27.6,0.76051346875,33.13
2021-07-06 16:20:23.375000000,-26.0,2.0,58.0,59.79875,-26.1,0.7605535,33.13
2021-07-06 16:20:23.382812500,-26.0,2.0,58.0,59.799765625,-24.105,0.76059353125,33.13
2021-07-06 16:20:23.390625000,-26.0,2.0,58.0,59.80078125,-22.11,0.7606335625,33.13
2021-07-06 16:20:23.398437500,-26.0,2.0,58.0,59.801796875,-19.845,0.76067359375,33.13
2021-07-06 16:20:23.406250000,-26.0,2.0,58.0,59.8028125,-17.58,0.760713625,33.13
2021-07-06 16:20:23.414062500,-26.0,2.0,58.0,59.803828125,-15.29,0.76075365625,33.13
2021-07-06 16:20:23.421875000,-26.0,2.0,58.0,59.80484375,-13.0,0.7607936875,33.13
2021-07-06 16:20:23.429687500,-26.0,2.0,58.0,59.805859375000004,-10.85,0.76083371875,33.13
2021-07-06 16:20:23.437500000,-26.0,2.0,58.0,59.806875,-8.7,0.76087375,33.13
2021-07-06 16:20:23.445312500,-26.0,2.0,58.0,59.807890625,-6.76,0.76091378125,33.13
2021-07-06 16:20:23.453125000,-26.0,2.0,58.0,59.80890625,-4.82,0.7609538125,33.13
2021-07-06 16:20:23.460937500,-26.0,2.0,58.0,59.809921875,-3.0900000000000003,0.76099384375,33.13
2021-07-06 16:20:23.468750000,-26.0,2.0,58.0,59.8109375,-1.36,0.7610338750000001,33.13
2021-07-06 16:20:23.476562500,-26.0,2.0,58.0,59.811953125,0.20999999999999996,0.76107390625,33.13
2021-07-06 16:20:23.484375000,-26.0,2.0,58.0,59.81296875,1.78,0.7611139375,33.13
2021-07-06 16:20:23.492187500,-26.0,2.0,58.0,59.813984375000004,3.2199999999999998,0.7611539687500001,33.13
2021-07-06 16:20:23.500000000,-26.0,2.0,58.0,59.815,4.66,0.761194,33.13
2021-07-06 16:20:23.507812500,-26.0,2.0,58.0,59.816015625,6.0,0.76107390625,33.13
2021-07-06 16:20:23.515625000,-26.0,2.0,58.0,59.81703125,7.34,0.7609538125,33.13
2021-07-06 16:20:23.523437500,-26.0,2.0,58.0,59.818046875,8.59,0.76083371875,33.13
2021-07-06 16:20:23.531250000,-26.0,2.0,58.0,59.8190625,9.84,0.7607136250000001,33.13
2021-07-06 16:20:23.539062500,-26.0,2.0,58.0,59.820078125,11.025,0.7605935312500001,33.13
2021-07-06 16:20:23.546875000,-26.0,2.0,58.0,59.82109375,12.21,0.7604734375000001,33.13
2021-07-06 16:20:23.554687500,-26.0,2.0,58.0,59.822109375000004,13.335,0.7603533437500001,33.13
2021-07-06 16:20:23.562500000,-26.0,2.0,58.0,59.823125000000005,14.46,0.76023325,33.13
2021-07-06 16:20:23.570312500,-26.0,2.0,58.0,59.824140625,15.505,0.76011315625,33.13
2021-07-06 16:20:23.578125000,-26.0,2.0,58.0,59.82515625,16.55,0.7599930625,33.13
2021-07-06 16:20:23.585937500,-26.0,2.0,58.0,59.826171875,17.475,0.75987296875,33.13
2021-07-06 16:20:23.593750000,-26.0,2.0,58.0,59.8271875,18.4,0.759752875,33.13
2021-07-06 16:20:23.601562500,-26.0,2.0,58.0,59.828203125,19.14,0.75963278125,33.13
2021-07-06 16:20:23.609375000,-26.0,2.0,58.0,59.82921875,19.88,0.7595126875,33.13
2021-07-06 16:20:23.617187500,-26.0,2.0,58.0,59.830234375,20.395,0.75939259375,33.13
2021-07-06 16:20:23.625000000,-26.0,2.0,58.0,59.831250000000004,20.91,0.7592725,33.13
2021-07-06 16:20:23.632812500,-26.0,2.0,58.0,59.832265625000005,21.189999999999998,0.75915240625,33.13
2021-07-06 16:20:23.640625000,-26.0,2.0,58.0,59.83328125,21.47,0.7590323125,33.13
2021-07-06 16:20:23.648437500,-26.0,2.0,58.0,59.834296875,21.56,0.75891221875,33.13
2021-07-06 16:20:23.656250000,-26.0,2.0,58.0,59.8353125,21.65,0.758792125,33.13
2021-07-06 16:20:23.664062500,-26.0,2.0,58.0,59.836328125,21.65,0.75867203125,33.13
2021-07-06 16:20:23.671875000,-26.0,2.0,58.0,59.83734375,21.65,0.7585519375,33.13
2021-07-06 16:20:23.679687500,-26.0,2.0,58.0,59.838359375,21.645,0.7584318437500001,33.13
2021-07-06 16:20:23.687500000,-26.0,2.0,58.0,59.839375000000004,21.64,0.7583117500000001,33.13
2021-07-06 16:20:23.695312500,-26.0,2.0,58.0,59.840390625000005,21.685000000000002,0.75819165625,33.13
2021-07-06 16:20:23.703125000,-26.0,2.0,58.0,59.84140625,21.73,0.7580715625,33.13
2021-07-06 16:20:23.710937500,-26.0,2.0,58.0,59.842421875,21.814999999999998,0.75795146875,33.13
2021-07-06 16:20:23.718750000,-26.0,2.0,58.0,59.8434375,21.9,0.757831375,33.13
2021-07-06 16:20:23.726562500,-26.0,2.0,58.0,59.844453125,21.97,0.75771128125,33.13
2021-07-06 16:20:23.734375000,-26.0,2.0,58.0,59.84546875,22.04,0.7575911875,33.13
2021-07-06 16:20:23.742187500,-26.0,2.0,58.0,59.846484375,22.0,0.75747109375,33.13
2021-07-06 16:20:23.750000000,-26.0,2.0,58.0,59.847500000000004,21.96,0.757351,33.13
2021-07-06 16:20:23.757812500,-26.0,2.0,58.0,59.848515625000005,21.715,0.7574310625,33.13
2021-07-06 16:20:23.765625000,-26.0,2.0,58.0,59.849531250000005,21.47,0.757511125,33.13
2021-07-06 16:20:23.773437500,-26.0,2.0,58.0,59.850546875,20.96,0.7575911875,33.13
2021-07-06 16:20:23.781250000,-26.0,2.0,58.0,59.8515625,20.45,0.75767125,33.13
2021-07-06 16:20:23.789062500,-26.0,2.0,58.0,59.852578125,19.65,0.7577513124999999,33.13
2021-07-06 16:20:23.796875000,-26.0,2.0,58.0,59.85359375,18.85,0.757831375,33.13
2021-07-06 16:20:23.804687500,-26.0,2.0,58.0,59.854609375,17.79,0.7579114375,33.13
2021-07-06 16:20:23.812500000,-26.0,2.0,58.0,59.855625,16.73,0.7579914999999999,33.13
2021-07-06 16:20:23.820312500,-26.0,2.0,58.0,59.856640625000004,15.46,0.7580715625,33.13
2021-07-06 16:20:23.828125000,-26.0,2.0,58.0,59.857656250000005,14.19,0.758151625,33.13
2021-07-06 16:20:23.835937500,-26.0,2.0,58.0,59.858671875,12.8,0.7582316875,33.13
2021-07-06 16:20:23.843750000,-26.0,2.0,58.0,59.8596875,11.41,0.75831175,33.13
2021-07-06 16:20:23.851562500,-26.0,2.0,58.0,59.860703125,10.015,0.7583918125,33.13
2021-07-06 16:20:23.859375000,-26.0,2.0,58.0,59.86171875,8.62,0.758471875,33.13
2021-07-06 16:20:23.867187500,-26.0,2.0,58.0,59.862734375,7.319999999999999,0.7585519374999999,33.13
2021-07-06 16:20:23.875000000,-26.0,2.0,58.0,59.86375,6.02,0.758632,33.13
2021-07-06 16:20:23.882812500,-26.0,2.0,58.0,59.864765625000004,4.865,0.7587120625,33.13
2021-07-06 16:20:23.890625000,-26.0,2.0,58.0,59.865781250000005,3.71,0.7587921249999999,33.13
2021-07-06 16:20:23.898437500,-26.0,2.0,58.0,59.866796875000006,2.67,0.7588721875,33.13
2021-07-06 16:20:23.906250000,-26.0,2.0,58.0,59.8678125,1.63,0.75895225,33.13
2021-07-06 16:20:23.914062500,-26.0,2.0,58.0,59.868828125,0.5999999999999999,0.7590323124999999,33.13
2021-07-06 16:20:23.921875000,-26.0,2.0,58.0,59.86984375,-0.43,0.759112375,33.13
2021-07-06 16:20:23.929687500,-26.0,2.0,58.0,59.870859375,-1.5599999999999998,0.7591924375,33.13
2021-07-06 16:20:23.937500000,-26.0,2.0,58.0,59.871875,-2.69,0.7592725,33.13
2021-07-06 16:20:23.945312500,-26.0,2.0,58.0,59.872890625000004,-4.025,0.7593525624999999,33.13
2021-07-06 16:20:23.953125000,-26.0,2.0,58.0,59.873906250000005,-5.36,0.759432625,33.13
2021-07-06 16:20:23.960937500,-26.0,2.0,58.0,59.874921875000005,-6.890000000000001,0.7595126875,33.13
2021-07-06 16:20:23.968750000,-26.0,2.0,58.0,59.8759375,-8.42,0.7595927499999999,33.13
2021-07-06 16:20:23.976562500,-26.0,2.0,58.0,59.876953125,-10.05,0.7596728125,33.13
2021-07-06 16:20:23.984375000,-26.0,2.0,58.0,59.87796875,-11.68,0.759752875,33.13
2021-07-06 16:20:23.992187500,-26.0,2.0,58.0,59.878984375,-13.25,0.7598329374999999,33.13
2021-07-06 16:20:24.000000000,-26.0,2.0,58.0,59.88,-14.82,0.759913,33.13
2021-07-06 16:20:24.007812500,-26.0,2.0,58.0,59.881484375,-16.15,0.7598329374999999,33.13
2021-07-06 16:20:24.015625000,-26.0,2.0,58.0,59.88296875,-17.48,0.759752875,33.13
2021-07-06 16:20:24.023437500,-26.0,2.0,58.0,59.884453125,-18.46,0.7596728125,33.13
2021-07-06 16:20:24.031250000,-26.0,2.0,58.0,59.885937500000004,-19.44,0.7595927499999999,33.13
2021-07-06 16:20:24.039062500,-26.0,2.0,58.0,59.887421875,-20.009999999999998,0.7595126875,33.13
2021-07-06 16:20:24.046875000,-26.0,2.0,58.0,59.888906250000005,-20.58,0.759432625,33.13
2021-07-06 16:20:24.054687500,-26.0,2.0,58.0,59.890390625,-20.775,0.7593525624999999,33.13
2021-07-06 16:20:24.062500000,-26.0,2.0,58.0,59.891875,-20.97,0.7592725,33.13
2021-07-06 16:20:24.070312500,-26.0,2.0,58.0,59.893359375,-20.85,0.7591924375,33.13
2021-07-06 16:20:24.078125000,-26.0,2.0,58.0,59.89484375,-20.73,0.759112375,33.13
2021-07-06 16:20:24.085937500,-26.0,2.0,58.0,59.896328125000004,-20.395,0.7590323124999999,33.13
2021-07-06 16:20:24.093750000,-26.0,2.0,58.0,59.8978125,-20.06,0.75895225,33.13
2021-07-06 16:20:24.101562500,-26.0,2.0,58.0,59.899296875000005,-19.59,0.7588721875,33.13
2021-07-06 16:20:24.109375000,-26.0,2.0,58.0,59.90078125,-19.12,0.7587921249999999,33.13
2021-07-06 16:20:24.117187500,-26.0,2.0,58.0,59.902265625000005,-18.595,0.7587120625,33.13
2021-07-06 16:20:24.125000000,-26.0,2.0,58.0,59.90375,-18.07,0.758632,33.13
2021-07-06 16:20:24.132812500,-26.0,2.0,58.0,59.905234375,-17.57,0.7585519374999999,33.13
2021-07-06 16:20:24.140625000,-26.0,2.0,58.0,59.90671875,-17.07,0.758471875,33.13
2021-07-06 16:20:24.148437500,-26.0,2.0,58.0,59.908203125,-16.675,0.7583918125,33.13
2021-07-06 16:20:24.156250000,-26.0,2.0,58.0,59.909687500000004,-16.28,0.75831175,33.13
2021-07-06 16:20:24.164062500,-26.0,2.0,58.0,59.911171875,-16.055,0.7582316875,33.13
2021-07-06 16:20:24.171875000,-26.0,2.0,58.0,59.912656250000005,-15.83,0.758151625,33.13
2021-07-06 16:20:24.179687500,-26.0,2.0,58.0,59.914140625,-15.844999999999999,0.7580715625,33.13
2021-07-06 16:20:24.187500000,-26.0,2.0,58.0,59.915625000000006,-15.86,0.7579914999999999,33.13
2021-07-06 16:20:24.195312500,-26.0,2.0,58.0,59.917109375,-16.119999999999997,0.7579114375,33.13
2021-07-06 16:20:24.203125000,-26.0,2.0,58.0,59.91859375,-16.38,0.757831375,33.13
2021-07-06 16:20:24.210937500,-26.0,2.0,58.0,59.920078125,-16.835,0.7577513124999999,33.13
2021-07-06 16:20:24.218750000,-26.0,2.0,58.0,59.9215625,-17.29,0.75767125,33.13
2021-07-06 16:20:24.226562500,-26.0,2.0,58.0,59.923046875000004,-17.855,0.7575911875,33.13
2021-07-06 16:20:24.234375000,-26.0,2.0,58.0,59.92453125,-18.42,0.757511125,33.13
2021-07-06 16:20:24.242187500,-26.0,2.0,58.0,59.926015625000005,-18.98,0.7574310625,33.13
2021-07-06 16:20:24.250000000,-26.0,2.0,58.0,59.9275,-19.54,0.757351,33.13
2021-07-06 16:20:24.257812500,-26.0,2.0,58.0,59.928984375,-20.025,0.75747109375,33.13
2021-07-06 16:20:24.265625000,-26.0,2.0,58.0,59.93046875,-20.51,0.7575911875,33.13
2021-07-06 16:20:24.273437500,-26.0,2.0,58.0,59.931953125,-20.905,0.75771128125,33.13
2021-07-06 16:20:24.281250000,-26.0,2.0,58.0,59.933437500000004,-21.3,0.757831375,33.13
2021-07-06 16:20:24.289062500,-26.25,2.0,58.0,59.934921875,-21.65,0.75795146875,33.13
2021-07-06 16:20:24.296875000,-26.5,2.0,58.0,59.936406250000005,-22.0,0.7580715625,33.13
2021-07-06 16:20:24.304687500,-26.75,2.0,58.0,59.937890625,-22.35,0.75819165625,33.13
2021-07-06 16:20:24.312500000,-27.0,2.0,58.0,59.939375,-22.7,0.7583117500000001,33.13
2021-07-06 16:20:24.320312500,-26.75,2.0,58.0,59.940859375,-23.07,0.7584318437500001,33.13
2021-07-06 16:20:24.328125000,-26.5,2.0,58.0,59.94234375,-23.44,0.7585519375,33.13
2021-07-06 16:20:24.335937500,-26.25,2.0,58.0,59.943828125,-23.775,0.75867203125,33.13
2021-07-06 16:20:24.343750000,-26.0,2.0,58.0,59.9453125,-24.11,0.758792125,33.13
2021-07-06 16:20:24.351562500,-26.0,2.0,58.0,59.946796875000004,-24.310000000000002,0.75891221875,33.13
2021-07-06 16:20:24.359375000,-26.0,2.0,58.0,59.94828125,-24.51,0.7590323125,33.13
2021-07-06 16:20:24.367187500,-26.0,2.0,58.0,59.949765625000005,-24.44,0.75915240625,33.13
2021-07-06 16:20:24.375000000,-26.0,2.0,58.0,59.95125,-24.37,0.7592725,33.13
2021-07-06 16:20:24.382812500,-26.25,2.0,58.0,59.952734375,-23.92,0.75939259375,33.13
2021-07-06 16:20:24.390625000,-26.5,2.0,58.0,59.95421875,-23.47,0.7595126875,33.13
2021-07-06 16:20:24.398437500,-26.75,2.0,58.0,59.955703125,-22.575,0.75963278125,33.13
2021-07-06 16:20:24.406250000,-27.0,2.0,58.0,59.9571875,-21.68,0.759752875,33.13
2021-07-06 16:20:24.414062500,-26.75,2.0,58.0,59.958671875,-20.36,0.75987296875,33.13
2021-07-06 16:20:24.421875000,-26.5,2.0,58.0,59.960156250000004,-19.04,0.7599930625,33.13
2021-07-06 16:20:24.429687500,-26.25,2.0,58.0,59.961640625,-17.38,0.76011315625,33.13
2021-07-06 16:20:24.437500000,-26.0,2.0,58.0,59.963125000000005,-15.72,0.76023325,33.13
2021-07-06 16:20:24.445312500,-26.0,2.0,58.0,59.964609375,-13.845,0.7603533437500001,33.13
2021-07-06 16:20:24.453125000,-26.0,2.0,58.0,59.96609375,-11.97,0.7604734375000001,33.13
2021-07-06 16:20:24.460937500,-26.0,2.0,58.0,59.967578125,-10.004999999999999,0.7605935312500001,33.13
2021-07-06 16:20:24.468750000,-26.0,2.0,58.0,59.9690625,-8.04,0.7607136250000001,33.13
2021-07-06 16:20:24.476562500,-26.25,2.0,58.0,59.970546875000004,-6.08,0.76083371875,33.13
2021-07-06 16:20:24.484375000,-26.5,2.0,58.0,59.97203125,-4.12,0.7609538125,33.13
2021-07-06 16:20:24.492187500,-26.75,2.0,58.0,59.973515625000005,-2.2350000000000003,0.76107390625,33.13
2021-07-06 16:20:24.500000000,-27.0,2.0,58.0,59.975,-0.35,0.761194,33.13
2021-07-06 16:20:24.507812500,-27.0,2.0,58.0,59.976484375,1.44,0.7610338750000001,33.13
2021-07-06 16:20:24.515625000,-27.0,2.0,58.0,59.97796875,3.23,0.76087375,33.13
2021-07-06 16:20:24.523437500,-27.0,2.0,58.0,59.979453125,4.89,0.7607136250000001,33.13
2021-07-06 16:20:24.531250000,-27.0,2.0,58.0,59.9809375,6.55,0.7605535,33.13
2021-07-06 16:20:24.539062500,-26.75,2.0,58.0,59.982421875,8.04,0.760393375,33.13
2021-07-06 16:20:24.546875000,-26.5,2.0,58.0,59.983906250000004,9.53,0.7602332500000001,33.13
2021-07-06 16:20:24.554687500,-26.25,2.0,58.0,59.985390625,10.805,0.760073125,33.13
2021-07-06 16:20:24.562500000,-26.0,2.0,58.0,59.986875,12.08,0.7599130000000001,33.13
2021-07-06 16:20:24.570312500,-26.0,2.0,58.0,59.988359375,13.115,0.759752875,33.13
2021-07-06 16:20:24.578125000,-26.0,2.0,58.0,59.98984375,14.15,0.75959275,33.13
2021-07-06 16:20:24.585937500,-26.0,2.0,58.0,59.991328125,14.965,0.7594326250000001,33.13
2021-07-06 16:20:24.593750000,-26.0,2.0,58.0,59.9928125,15.78,0.7592725,33.13
2021-07-06 16:20:24.601562500,-26.25,2.0,58.0,59.994296875,16.419999999999998,0.7591123750000001,33.13
2021-07-06 16:20:24.609375000,-26.5,2.0,58.0,59.99578125,17.06,0.75895225,33.13
2021-07-06 16:20:24.617187500,-26.75,2.0,58.0,59.997265625000004,17.575,0.758792125,33.13
2021-07-06 16:20:24.625000000,-27.0,2.0,58.0,59.99875,18.09,0.758632,33.13
2021-07-06 16:20:24.632812500,-26.75,2.0,58.0,60.000234375,18.485,0.758471875,33.13
2021-07-06 16:20:24.640625000,-26.5,2.0,58.0,60.00171875,18.88,0.7583117500000001,33.13
2021-07-06 16:20:24.648437500,-26.25,2.0,58.0,60.003203125,19.125,0.758151625,33.13
2021-07-06 16:20:24.656250000,-26.0,2.0,58.0,60.0046875,19.37,0.7579915,33.13
2021-07-06 16:20:24.664062500,-26.0,2.0,58.0,60.006171875,19.42,0.757831375,33.13
2021-07-06 16:20:24.671875000,-26.0,2.0,58.0,60.007656250000004,19.47,0.75767125,33.13
2021-07-06 16:20:24.679687500,-26.0,2.0,58.0,60.009140625,19.33,0.7575111250000001,33.13
2021-07-06 16:20:24.687500000,-26.0,2.0,58.0,60.010625000000005,19.19,0.757351,33.13
2021-07-06 16:20:24.695312500,-26.0,2.0,58.0,60.012109375,18.92,0.757190875,33.13
2021-07-06 16:20:24.703125000,-26.0,2.0,58.0,60.01359375,18.65,0.75703075,33.13
2021-07-06 16:20:24.710937500,-26.0,2.0,58.0,60.015078125,18.36,0.756870625,33.13
2021-07-06 16:20:24.718750000,-26.0,2.0,58.0,60.0165625,18.07,0.7567105000000001,33.13
2021-07-06 16:20:24.726562500,-26.25,2.0,58.0,60.018046875,17.865000000000002,0.756550375,33.13
2021-07-06 16:20:24.734375000,-26.5,2.0,58.0,60.01953125,17.66,0.75639025,33.13
2021-07-06 16:20:24.742187500,-26.75,2.0,58.0,60.021015625000004,17.57,0.756230125,33.13
2021-07-06 16:20:24.750000000,-27.0,2.0,58.0,60.0225,17.48,0.75607,33.13
2021-07-06 16:20:24.757812500,-26.75,2.0,58.0,60.023984375,17.46,0.75607,33.13
2021-07-06 16:20:24.765625000,-26.5,2.0,58.0,60.02546875,17.44,0.75607,33.13
2021-07-06 16:20:24.773437500,-26.25,2.0,58.0,60.026953125,17.39,0.75607,33.13
2021-07-06 16:20:24.781250000,-26.0,2.0,58.0,60.0284375,17.34,0.75607,33.13
2021-07-06 16:20:24.789062500,-26.25,2.0,58.0,60.029921875,17.15,0.75607,33.13
2021-07-06 16:20:24.796875000,-26.5,2.0,58.0,60.03140625,16.96,0.75607,33.13
2021-07-06 16:20:24.804687500,-26.75,2.0,58.0,60.032890625,16.585,0.75607,33.13
2021-07-06 16:20:24.812500000,-27.0,2.0,58.0,60.034375,16.21,0.75607,33.13
2021-07-06 16:20:24.820312500,-26.75,2.0,58.0,60.035859375,15.705,0.75607,33.13
2021-07-06 16:20:24.828125000,-26.5,2.0,58.0,60.03734375,15.2,0.75607,33.13
2021-07-06 16:20:24.835937500,-26.25,2.0,58.0,60.038828125,14.649999999999999,0.75607,33.13
2021-07-06 16:20:24.843750000,-26.0,2.0,58.0,60.0403125,14.1,0.75607,33.13
2021-07-06 16:20:24.851562500,-26.0,2.0,58.0,60.041796875,13.629999999999999,0.75607,33.13
2021-07-06 16:20:24.859375000,-26.0,2.0,58.0,60.04328125,13.16,0.75607,33.13
2021-07-06 16:20:24.867187500,-26.0,2.0,58.0,60.044765625000004,12.85,0.75607,33.13
2021-07-06 16:20:24.875000000,-26.0,2.0,58.0,60.04625,12.54,0.75607,33.13
2021-07-06 16:20:24.882812500,-26.25,2.0,58.0,60.047734375,12.405,0.75607,33.13
2021-07-06 16:20:24.890625000,-26.5,2.0,58.0,60.04921875,12.27,0.75607,33.13
2021-07-06 16:20:24.898437500,-26.75,2.0,58.0,60.050703125,12.225,0.75607,33.13
2021-07-06 16:20:24.906250000,-27.0,2.0,58.0,60.0521875,12.18,0.75607,33.13
2021-07-06 16:20:24.914062500,-26.75,2.0,58.0,60.053671875,12.129999999999999,0.75607,33.13
2021-07-06 16:20:24.921875000,-26.5,2.0,58.0,60.05515625,12.08,0.75607,33.13
2021-07-06 16:20:24.929687500,-26.25,2.0,58.0,60.056640625,11.905000000000001,0.75607,33.13
2021-07-06 16:20:24.937500000,-26.0,2.0,58.0,60.058125000000004,11.73,0.75607,33.13
2021-07-06 16:20:24.945312500,-26.0,2.0,58.0,60.059609375,11.370000000000001,0.75607,33.13
2021-07-06 16:20:24.953125000,-26.0,2.0,58.0,60.06109375,11.01,0.75607,33.13
2021-07-06 16:20:24.960937500,-26.0,2.0,58.0,60.062578125,10.495000000000001,0.75607,33.13
2021-07-06 16:20:24.968750000,-26.0,2.0,58.0,60.0640625,9.98,0.75607,33.13
2021-07-06 16:20:24.976562500,-26.0,2.0,58.0,60.065546875,9.385,0.75607,33.13
2021-07-06 16:20:24.984375000,-26.0,2.0,58.0,60.06703125,8.79,0.75607,33.13
2021-07-06 16:20:24.992187500,-26.0,2.0,58.0,60.068515625,8.215,0.75607,33.13
2021-07-06 16:20:25.000000000,-26.0,2.0,58.0,60.07,7.64,0.75607,33.13
2021-07-06 16:20:25.007812500,-26.0,2.0,58.0,60.0715625,7.165,0.75611003125,33.13
2021-07-06 16:20:25.015625000,-26.0,2.0,58.0,60.073125,6.69,0.7561500625,33.13
2021-07-06 16:20:25.023437500,-26.0,2.0,58.0,60.0746875,6.325,0.75619009375,33.13
2021-07-06 16:20:25.031250000,-26.0,2.0,58.0,60.07625,5.96,0.756230125,33.13
2021-07-06 16:20:25.039062500,-26.0,2.0,58.0,60.0778125,5.654999999999999,0.75627015625,33.13
2021-07-06 16:20:25.046875000,-26.0,2.0,58.0,60.079375,5.35,0.7563101875,33.13
2021-07-06 16:20:25.054687500,-26.0,2.0,58.0,60.0809375,5.045,0.75635021875,33.13
2021-07-06 16:20:25.062500000,-26.0,2.0,58.0,60.0825,4.74,0.75639025,33.13
2021-07-06 16:20:25.070312500,-26.0,2.0,58.0,60.0840625,4.36,0.75643028125,33.13
2021-07-06 16:20:25.078125000,-26.0,2.0,58.0,60.085625,3.98,0.7564703125,33.13
2021-07-06 16:20:25.085937500,-26.0,2.0,58.0,60.0871875,3.495,0.75651034375,33.13
2021-07-06 16:20:25.093750000,-26.0,2.0,58.0,60.08875,3.01,0.756550375,33.13
2021-07-06 16:20:25.101562500,-26.0,2.0,58.0,60.0903125,2.4299999999999997,0.75659040625,33.13
2021-07-06 16:20:25.109375000,-26.0,2.0,58.0,60.091875,1.85,0.7566304375,33.13
2021-07-06 16:20:25.117187500,-26.0,2.0,58.0,60.0934375,1.215,0.75667046875,33.13
2021-07-06 16:20:25.125000000,-26.0,2.0,58.0,60.095,0.58,0.7567105000000001,33.13
2021-07-06 16:20:25.132812500,-26.0,2.0,58.0,60.0965625,-0.08999999999999997,0.75675053125,33.13
2021-07-06 16:20:25.140625000,-26.0,2.0,58.0,60.098125,-0.76,0.7567905625,33.13
2021-07-06 16:20:25.148437500,-26.0,2.0,58.0,60.0996875,-1.44,0.7568305937500001,33.13
2021-07-06 16:20:25.156250000,-26.0,2.0,58.0,60.10125,-2.12,0.756870625,33.13
2021-07-06 16:20:25.164062500,-26.0,2.0,58.0,60.1028125,-2.8449999999999998,0.75691065625,33.13
2021-07-06 16:20:25.171875000,-26.0,2.0,58.0,60.104375,-3.57,0.7569506875,33.13
2021-07-06 16:20:25.179687500,-26.0,2.0,58.0,60.1059375,-4.345,0.75699071875,33.13
2021-07-06 16:20:25.187500000,-26.0,2.0,58.0,60.1075,-5.12,0.75703075,33.13
2021-07-06 16:20:25.195312500,-26.0,2.0,58.0,60.1090625,-5.95,0.75707078125,33.13
2021-07-06 16:20:25.203125000,-26.0,2.0,58.0,60.110625,-6.78,0.7571108125,33.13
2021-07-06 16:20:25.210937500,-26.0,2.0,58.0,60.1121875,-7.615,0.75715084375,33.13
2021-07-06 16:20:25.218750000,-26.0,2.0,58.0,60.11375,-8.45,0.757190875,33.13
2021-07-06 16:20:25.226562500,-26.0,2.0,58.0,60.1153125,-9.239999999999998,0.75723090625,33.13
2021-07-06 16:20:25.234375000,-26.0,2.0,58.0,60.116875,-10.03,0.7572709375,33.13
2021-07-06 16:20:25.242187500,-26.0,2.0,58.0,60.1184375,-10.73,0.75731096875,33.13
2021-07-06 16:20:25.250000000,-26.0,2.0,58.0,60.120000000000005,-11.43,0.757351,33.13
2021-07-06 16:20:25.257812500,-26.0,2.0,58.0,60.1215625,-12.02,0.75731096875,33.13
2021-07-06 16:20:25.265625000,-26.0,2.0,58.0,60.123125,-12.61,0.7572709375,33.13
2021-07-06 16:20:25.273437500,-26.0,2.0,58.0,60.1246875,-13.16,0.75723090625,33.13
2021-07-06 16:20:25.281250000,-26.0,2.0,58.0,60.12625,-13.71,0.757190875,33.13
2021-07-06 16:20:25.289062500,-26.0,2.0,58.0,60.127812500000005,-14.295000000000002,0.75715084375,33.13
2021-07-06 16:20:25.296875000,-26.0,2.0,58.0,60.129375,-14.88,0.7571108125,33.13
2021-07-06 16:20:25.304687500,-26.0,2.0,58.0,60.1309375,-15.594999999999999,0.75707078125,33.13
2021-07-06 16:20:25.312500000,-26.0,2.0,58.0,60.1325,-16.31,0.75703075,33.13
2021-07-06 16:20:25.320312500,-26.0,2.0,58.0,60.1340625,-17.225,0.75699071875,33.13
2021-07-06 16:20:25.328125000,-26.0,2.0,58.0,60.135625000000005,-18.14,0.7569506875,33.13
2021-07-06 16:20:25.335937500,-26.0,2.0,58.0,60.1371875,-19.25,0.75691065625,33.13
2021-07-06 16:20:25.343750000,-26.0,2.0,58.0,60.13875,-20.36,0.756870625,33.13
2021-07-06 16:20:25.351562500,-26.0,2.0,58.0,60.1403125,-21.61,0.7568305937500001,33.13
2021-07-06 16:20:25.359375000,-26.0,2.0,58.0,60.141875,-22.86,0.7567905625,33.13
2021-07-06 16:20:25.367187500,-26.0,2.0,58.0,60.143437500000005,-24.145,0.75675053125,33.13
2021-07-06 16:20:25.375000000,-26.0,2.0,58.0,60.145,-25.43,0.7567105000000001,33.13
2021-07-06 16:20:25.382812500,-26.0,2.0,58.0,60.1465625,-26.63,0.75667046875,33.13
2021-07-06 16:20:25.390625000,-26.0,2.0,58.0,60.148125,-27.83,0.7566304375,33.13
2021-07-06 16:20:25.398437500,-26.0,2.0,58.0,60.1496875,-28.799999999999997,0.75659040625,33.13
2021-07-06 16:20:25.406250000,-26.0,2.0,58.0,60.151250000000005,-29.77,0.756550375,33.13
2021-07-06 16:20:25.414062500,-26.0,2.0,58.0,60.1528125,-30.38,0.75651034375,33.13
2021-07-06 16:20:25.421875000,-26.0,2.0,58.0,60.154375,-30.99,0.7564703125,33.13
2021-07-06 16:20:25.429687500,-26.0,2.0,58.0,60.1559375,-31.15,0.75643028125,33.13
2021-07-06 16:20:25.437500000,-26.0,2.0,58.0,60.1575,-31.31,0.75639025,33.13
2021-07-06 16:20:25.445312500,-26.0,2.0,58.0,60.159062500000005,-30.975,0.75635021875,33.13
2021-07-06 16:20:25.453125000,-26.0,2.0,58.0,60.160625,-30.64,0.7563101875,33.13
2021-07-06 16:20:25.460937500,-26.0,2.0,58.0,60.1621875,-29.855,0.75627015625,33.13
2021-07-06 16:20:25.468750000,-26.0,2.0,58.0,60.16375,-29.07,0.756230125,33.13
2021-07-06 16:20:25.476562500,-26.0,2.0,58.0,60.1653125,-27.935000000000002,0.75619009375,33.13
2021-07-06 16:20:25.484375000,-26.0,2.0,58.0,60.166875000000005,-26.8,0.7561500625,33.13
2021-07-06 16:20:25.492187500,-26.0,2.0,58.0,60.1684375,-25.485,0.75611003125,33.13
2021-07-06 16:20:25.500000000,-26.0,2.0,58.0,60.17,-24.17,0.75607,33.13
2021-07-06 16:20:25.507812500,-26.0,2.0,58.0,60.1715625,-22.825000000000003,0.75607,33.13
2021-07-06 16:20:25.515625000,-26.0,2.0,58.0,60.173125,-21.48,0.75607,33.13
2021-07-06 16:20:25.523437500,-26.0,2.0,58.0,60.174687500000005,-20.189999999999998,0.75607,33.13
2021-07-06 16:20:25.531250000,-26.0,2.0,58.0,60.17625,-18.9,0.75607,33.13
2021-07-06 16:20:25.539062500,-26.0,2.0,58.0,60.1778125,-17.68,0.75607,33.13
2021-07-06 16:20:25.546875000,-26.0,2.0,58.0,60.179375,-16.46,0.75607,33.13
2021-07-06 16:20:25.554687500,-26.0,2.0,58.0,60.1809375,-15.260000000000002,0.75607,33.13
2021-07-06 16:20:25.562500000,-26.0,2.0,58.0,60.182500000000005,-14.06,0.75607,33.13
2021-07-06 16:20:25.570312500,-26.0,2.0,58.0,60.1840625,-12.815000000000001,0.75607,33.13
2021-07-06 16:20:25.578125000,-26.0,2.0,58.0,60.185625,-11.57,0.75607,33.13
2021-07-06 16:20:25.585937500,-26.0,2.0,58.0,60.1871875,-10.27,0.75607,33.13
2021-07-06 16:20:25.593750000,-26.0,2.0,58.0,60.18875,-8.97,0.75607,33.13
2021-07-06 16:20:25.601562500,-26.0,2.0,58.0,60.190312500000005,-7.67,0.75607,33.13
2021-07-06 16:20:25.609375000,-26.0,2.0,58.0,60.191875,-6.37,0.75607,33.13
2021-07-06 16:20:25.617187500,-26.0,2.0,58.0,60.1934375,-5.165,0.75607,33.13
2021-07-06 16:20:25.625000000,-26.0,2.0,58.0,60.195,-3.96,0.75607,33.13
2021-07-06 16:20:25.632812500,-26.0,2.0,58.0,60.1965625,-2.95,0.75607,33.13
2021-07-06 16:20:25.640625000,-26.0,2.0,58.0,60.198125000000005,-1.94,0.75607,33.13
2021-07-06 16:20:25.648437500,-26.0,2.0,58.0,60.1996875,-1.16,0.75607,33.13
2021-07-06 16:20:25.656250000,-26.0,2.0,58.0,60.20125,-0.38,0.75607,33.13
2021-07-06 16:20:25.664062500,-26.0,2.0,58.0,60.2028125,0.19000000000000006,0.75607,33.13
2021-07-06 16:20:25.671875000,-26.0,2.0,58.0,60.204375,0.76,0.75607,33.13
2021-07-06 16:20:25.679687500,-26.0,2.0,58.0,60.205937500000005,1.2149999999999999,0.75607,33.13
2021-07-06 16:20:25.687500000,-26.0,2.0,58.0,60.2075,1.67,0.75607,33.13
2021-07-06 16:20:25.695312500,-26.0,2.0,58.0,60.2090625,2.0999999999999996,0.75607,33.13
2021-07-06 16:20:25.703125000,-26.0,2.0,58.0,60.210625,2.53,0.75607,33.13
2021-07-06 16:20:25.710937500,-26.0,2.0,58.0,60.2121875,2.995,0.75607,33.13
2021-07-06 16:20:25.718750000,-26.0,2.0,58.0,60.213750000000005,3.46,0.75607,33.13
2021-07-06 16:20:25.726562500,-26.0,2.0,58.0,60.2153125,3.975,0.75607,33.13
2021-07-06 16:20:25.734375000,-26.0,2.0,58.0,60.216875,4.49,0.75607,33.13
2021-07-06 16:20:25.742187500,-26.0,2.0,58.0,60.2184375,5.050000000000001,0.75607,33.13
2021-07-06 16:20:25.750000000,-26.0,2.0,58.0,60.22,5.61,0.75607,33.13
2021-07-06 16:20:25.757812500,-26.0,2.0,58.0,60.221562500000005,6.195,0.7559899375,33.13
2021-07-06 16:20:25.765625000,-26.0,2.0,58.0,60.223125,6.78,0.7559098750000001,33.13
2021-07-06 16:20:25.773437500,-26.0,2.0,58.0,60.2246875,7.37,0.7558298125,33.13
2021-07-06 16:20:25.781250000,-26.0,2.0,58.0,60.22625,7.96,0.75574975,33.13
2021-07-06 16:20:25.789062500,-26.0,2.0,58.0,60.227812500000006,8.555,0.7556696875,33.13
2021-07-06 16:20:25.796875000,-26.0,2.0,58.0,60.229375000000005,9.15,0.755589625,33.13
2021-07-06 16:20:25.804687500,-26.0,2.0,58.0,60.2309375,9.745000000000001,0.7555095625,33.13
2021-07-06 16:20:25.812500000,-26.0,2.0,58.0,60.2325,10.34,0.7554295,33.13
2021-07-06 16:20:25.820312500,-26.0,2.0,58.0,60.2340625,10.934999999999999,0.7553494375,33.13
2021-07-06 16:20:25.828125000,-26.0,2.0,58.0,60.235625000000006,11.53,0.755269375,33.13
2021-07-06 16:20:25.835937500,-26.0,2.0,58.0,60.237187500000005,12.1,0.7551893125,33.13
2021-07-06 16:20:25.843750000,-26.0,2.0,58.0,60.23875,12.67,0.75510925,33.13
2021-07-06 16:20:25.851562500,-26.0,2.0,58.0,60.2403125,13.190000000000001,0.7550291875,33.13
2021-07-06 16:20:25.859375000,-26.0,2.0,58.0,60.241875,13.71,0.754949125,33.13
2021-07-06 16:20:25.867187500,-26.0,2.0,58.0,60.243437500000006,14.155000000000001,0.7548690625,33.13
2021-07-06 16:20:25.875000000,-26.0,2.0,58.0,60.245000000000005,14.6,0.7547889999999999,33.13
2021-07-06 16:20:25.882812500,-26.0,2.0,58.0,60.2465625,14.955,0.7547089375,33.13
2021-07-06 16:20:25.890625000,-26.0,2.0,58.0,60.248125,15.31,0.754628875,33.13
2021-07-06 16:20:25.898437500,-26.0,2.0,58.0,60.2496875,15.57,0.7545488124999999,33.13
2021-07-06 16:20:25.906250000,-26.0,2.0,58.0,60.251250000000006,15.83,0.75446875,33.13
2021-07-06 16:20:25.914062500,-26.0,2.0,58.0,60.252812500000005,16.005,0.7543886875,33.13
2021-07-06 16:20:25.921875000,-26.0,2.0,58.0,60.254375,16.18,0.754308625,33.13
2021-07-06 16:20:25.929687500,-26.0,2.0,58.0,60.2559375,16.28,0.7542285624999999,33.13
