TimeStamp,empatica.acc.x,empatica.acc.y,empatica.acc.z,empatica.hr,empatica.bvp,empatica.eda,empatica.temp
2021-06-30 13:19:39.078125000,-44.0,15.0,45.0,69.5778125,18.06,6.181435625,33.65
2021-06-30 13:19:39.085937500,-44.0,15.0,45.0,69.57859375,17.945,6.1815156875,33.65
2021-06-30 13:19:39.093750000,-44.0,15.0,45.0,69.579375,17.83,6.18159575,33.65
2021-06-30 13:19:39.101562500,-44.0,15.0,45.0,69.58015624999999,17.59,6.1816758125,33.65
2021-06-30 13:19:39.109375000,-44.0,15.0,45.0,69.58093749999999,17.35,6.1817558749999995,33.65
2021-06-30 13:19:39.117187500,-44.0,15.0,45.0,69.58171875,17.0,6.1818359375,33.65
2021-06-30 13:19:39.125000000,-44.0,15.0,45.0,69.5825,16.65,6.181915999999999,33.65
2021-06-30 13:19:39.132812500,-44.0,15.0,45.0,69.58328125,16.185,6.1819960625,33.65
2021-06-30 13:19:39.140625000,-44.0,15.0,45.0,69.58406249999999,15.72,6.182076125,33.65
2021-06-30 13:19:39.148437500,-44.0,15.0,45.0,69.58484374999999,15.145,6.1821561874999995,33.65
2021-06-30 13:19:39.156250000,-44.0,15.0,45.0,69.585625,14.57,6.18223625,33.65
2021-06-30 13:19:39.164062500,-44.0,15.0,45.0,69.58640625,13.9,6.182316312499999,33.65
2021-06-30 13:19:39.171875000,-44.0,15.0,45.0,69.5871875,13.23,6.182396375,33.65
2021-06-30 13:19:39.179687500,-44.0,15.0,45.0,69.58796875,12.515,6.1824764375,33.65
2021-06-30 13:19:39.187500000,-44.0,15.0,45.0,69.58874999999999,11.8,6.1825565,33.65
2021-06-30 13:19:39.195312500,-44.0,15.0,45.0,69.58953125,11.09,6.1826365625,33.65
2021-06-30 13:19:39.203125000,-44.0,15.0,45.0,69.5903125,10.38,6.182716624999999,33.65
2021-06-30 13:19:39.210937500,-44.0,15.0,45.0,69.59109375,9.71,6.1827966875,33.65
2021-06-30 13:19:39.218750000,-44.0,15.0,45.0,69.591875,9.04,6.18287675,33.65
2021-06-30 13:19:39.226562500,-44.25,15.0,45.25,69.59265624999999,8.42,6.1829568125,33.65
2021-06-30 13:19:39.234375000,-44.5,15.0,45.5,69.5934375,7.8,6.183036875,33.65
2021-06-30 13:19:39.242187500,-44.75,15.0,45.75,69.59421875,7.195,6.1831169374999995,33.65
2021-06-30 13:19:39.250000000,-45.0,15.0,46.0,69.595,6.59,6.183197,33.65
2021-06-30 13:19:39.257812500,-45.0,15.0,45.75,69.59578125,5.925,6.18263659375,33.65
2021-06-30 13:19:39.265625000,-45.0,15.0,45.5,69.59656249999999,5.26,6.1820761875,33.65
2021-06-30 13:19:39.273437500,-45.0,15.0,45.25,69.59734375,4.4399999999999995,6.18151578125,33.65
2021-06-30 13:19:39.281250000,-45.0,15.0,45.0,69.598125,3.62,6.180955375,33.65
2021-06-30 13:19:39.289062500,-45.0,15.25,45.0,69.59890625,2.58,6.18039496875,33.65
2021-06-30 13:19:39.296875000,-45.0,15.5,45.0,69.5996875,1.54,6.1798345625,33.65
2021-06-30 13:19:39.304687500,-45.0,15.75,45.0,69.60046874999999,0.2650000000000001,6.17927415625,33.65
2021-06-30 13:19:39.312500000,-45.0,16.0,45.0,69.60125,-1.01,6.17871375,33.65
2021-06-30 13:19:39.320312500,-45.0,16.0,45.25,69.60203125,-2.4400000000000004,6.17815334375,33.65
2021-06-30 13:19:39.328125000,-45.0,16.0,45.5,69.6028125,-3.87,6.1775929375,33.65
2021-06-30 13:19:39.335937500,-45.0,16.0,45.75,69.60359375,-5.325,6.17703253125,33.65
2021-06-30 13:19:39.343750000,-45.0,16.0,46.0,69.60437499999999,-6.78,6.176472125,33.65
2021-06-30 13:19:39.351562500,-44.75,16.0,45.75,69.60515625,-8.095,6.17591171875,33.65
2021-06-30 13:19:39.359375000,-44.5,16.0,45.5,69.6059375,-9.41,6.1753513125,33.65
2021-06-30 13:19:39.367187500,-44.25,16.0,45.25,69.60671875,-10.445,6.17479090625,33.65
2021-06-30 13:19:39.375000000,-44.0,16.0,45.0,69.6075,-11.48,6.1742305,33.65
2021-06-30 13:19:39.382812500,-44.0,15.75,45.0,69.60828124999999,-12.18,6.173670093749999,33.65
2021-06-30 13:19:39.390625000,-44.0,15.5,45.0,69.6090625,-12.88,6.173109687499999,33.65
2021-06-30 13:19:39.398437500,-44.0,15.25,45.0,69.60984375,-13.3,6.172549281249999,33.65
2021-06-30 13:19:39.406250000,-44.0,15.0,45.0,69.610625,-13.72,6.171988874999999,33.65
2021-06-30 13:19:39.414062500,-43.5,14.75,45.0,69.61140625,-13.995000000000001,6.171428468749999,33.65
2021-06-30 13:19:39.421875000,-43.0,14.5,45.0,69.61218749999999,-14.27,6.170868062499999,33.65
2021-06-30 13:19:39.429687500,-42.5,14.25,45.0,69.61296875,-14.6,6.170307656249999,33.65
2021-06-30 13:19:39.437500000,-42.0,14.0,45.0,69.61375,-14.93,6.1697472499999995,33.65
2021-06-30 13:19:39.445312500,-42.0,14.0,45.0,69.61453125,-15.535,6.1691868437499995,33.65
2021-06-30 13:19:39.453125000,-42.0,14.0,45.0,69.6153125,-16.14,6.1686264374999995,33.65
2021-06-30 13:19:39.460937500,-42.0,14.0,45.0,69.61609374999999,-17.18,6.1680660312499995,33.65
2021-06-30 13:19:39.468750000,-42.0,14.0,45.0,69.616875,-18.22,6.1675056249999995,33.65
2021-06-30 13:19:39.476562500,-42.25,14.0,44.75,69.61765625,-19.759999999999998,6.16694521875,33.65
2021-06-30 13:19:39.484375000,-42.5,14.0,44.5,69.6184375,-21.3,6.1663848125,33.65
2021-06-30 13:19:39.492187500,-42.75,14.0,44.25,69.61921875,-23.255000000000003,6.16582440625,33.65
2021-06-30 13:19:39.500000000,-43.0,14.0,44.0,69.62,-25.21,6.165264,33.65
2021-06-30 13:19:39.507812500,-43.25,14.0,44.25,69.62078125,-27.325000000000003,6.165264,33.65
2021-06-30 13:19:39.515625000,-43.5,14.0,44.5,69.6215625,-29.44,6.165264,33.65
2021-06-30 13:19:39.523437500,-43.75,14.0,44.75,69.62234375,-31.32,6.165264,33.65
2021-06-30 13:19:39.531250000,-44.0,14.0,45.0,69.623125,-33.2,6.165264,33.65
2021-06-30 13:19:39.539062500,-43.75,14.75,45.25,69.62390625,-34.400000000000006,6.165264,33.65
2021-06-30 13:19:39.546875000,-43.5,15.5,45.5,69.6246875,-35.6,6.165264,33.65
2021-06-30 13:19:39.554687500,-43.25,16.25,45.75,69.62546875,-35.775000000000006,6.165264,33.65
2021-06-30 13:19:39.562500000,-43.0,17.0,46.0,69.62625,-35.95,6.165264,33.65
2021-06-30 13:19:39.570312500,-43.0,16.75,46.0,69.62703125,-34.95,6.165264,33.65
2021-06-30 13:19:39.578125000,-43.0,16.5,46.0,69.6278125,-33.95,6.165264,33.65
2021-06-30 13:19:39.585937500,-43.0,16.25,46.0,69.62859375,-31.885,6.165264,33.65
2021-06-30 13:19:39.593750000,-43.0,16.0,46.0,69.629375,-29.82,6.165264,33.65
2021-06-30 13:19:39.601562500,-43.5,15.75,45.75,69.63015625,-27.009999999999998,6.165264,33.65
2021-06-30 13:19:39.609375000,-44.0,15.5,45.5,69.6309375,-24.2,6.165264,33.65
2021-06-30 13:19:39.617187500,-44.5,15.25,45.25,69.63171875,-21.049999999999997,6.165264,33.65
2021-06-30 13:19:39.625000000,-45.0,15.0,45.0,69.6325,-17.9,6.165264,33.65
2021-06-30 13:19:39.632812500,-44.75,15.0,45.0,69.63328125,-14.78,6.165264,33.65
2021-06-30 13:19:39.640625000,-44.5,15.0,45.0,69.6340625,-11.66,6.165264,33.65
2021-06-30 13:19:39.648437500,-44.25,15.0,45.0,69.63484375,-8.785,6.165264,33.65
2021-06-30 13:19:39.656250000,-44.0,15.0,45.0,69.635625,-5.91,6.165264,33.65
2021-06-30 13:19:39.664062500,-44.0,15.0,45.0,69.63640625,-3.375,6.165264,33.65
2021-06-30 13:19:39.671875000,-44.0,15.0,45.0,69.6371875,-0.84,6.165264,33.65
2021-06-30 13:19:39.679687500,-44.0,15.0,45.0,69.63796875,1.3650000000000002,6.165264,33.65
2021-06-30 13:19:39.687500000,-44.0,15.0,45.0,69.63875,3.57,6.165264,33.65
2021-06-30 13:19:39.695312500,-44.25,15.0,45.0,69.63953125,5.47,6.165264,33.65
2021-06-30 13:19:39.703125000,-44.5,15.0,45.0,69.6403125,7.37,6.165264,33.65
2021-06-30 13:19:39.710937500,-44.75,15.0,45.0,69.64109375,8.97,6.165264,33.65
2021-06-30 13:19:39.718750000,-45.0,15.0,45.0,69.641875,10.57,6.165264,33.65
2021-06-30 13:19:39.726562500,-45.0,15.25,44.75,69.64265625,11.844999999999999,6.165264,33.65
2021-06-30 13:19:39.734375000,-45.0,15.5,44.5,69.6434375,13.12,6.165264,33.65
2021-06-30 13:19:39.742187500,-45.0,15.75,44.25,69.64421875,14.04,6.165264,33.65
2021-06-30 13:19:39.750000000,-45.0,16.0,44.0,69.645,14.96,6.165264,33.65
2021-06-30 13:19:39.757812500,-45.25,16.0,43.75,69.64578125,15.525,6.1652239687499995,33.65
2021-06-30 13:19:39.765625000,-45.5,16.0,43.5,69.6465625,16.09,6.165183937499999,33.65
2021-06-30 13:19:39.773437500,-45.75,16.0,43.25,69.64734375,16.33,6.16514390625,33.65
2021-06-30 13:19:39.781250000,-46.0,16.0,43.0,69.648125,16.57,6.165103875,33.65
2021-06-30 13:19:39.789062500,-46.0,16.0,43.0,69.64890625,16.555,6.16506384375,33.65
2021-06-30 13:19:39.796875000,-46.0,16.0,43.0,69.6496875,16.54,6.165023812499999,33.65
2021-06-30 13:19:39.804687500,-46.0,16.0,43.0,69.65046875,16.36,6.16498378125,33.65
2021-06-30 13:19:39.812500000,-46.0,16.0,43.0,69.65125,16.18,6.16494375,33.65
2021-06-30 13:19:39.820312500,-46.0,15.75,43.25,69.65203125,15.93,6.16490371875,33.65
2021-06-30 13:19:39.828125000,-46.0,15.5,43.5,69.6528125,15.68,6.1648636875,33.65
2021-06-30 13:19:39.835937500,-46.0,15.25,43.75,69.65359375,15.43,6.164823656249999,33.65
2021-06-30 13:19:39.843750000,-46.0,15.0,44.0,69.654375,15.18,6.164783625,33.65
2021-06-30 13:19:39.851562500,-46.0,15.0,44.0,69.65515625,14.99,6.16474359375,33.65
2021-06-30 13:19:39.859375000,-46.0,15.0,44.0,69.65593750000001,14.8,6.1647035625,33.65
2021-06-30 13:19:39.867187500,-46.0,15.0,44.0,69.65671875,14.68,6.1646635312499996,33.65
2021-06-30 13:19:39.875000000,-46.0,15.0,44.0,69.6575,14.56,6.164623499999999,33.65
2021-06-30 13:19:39.882812500,-46.0,15.25,43.75,69.65828125,14.504999999999999,6.16458346875,33.65
2021-06-30 13:19:39.890625000,-46.0,15.5,43.5,69.6590625,14.45,6.1645434375,33.65
2021-06-30 13:19:39.898437500,-46.0,15.75,43.25,69.65984375000001,14.43,6.16450340625,33.65
2021-06-30 13:19:39.906250000,-46.0,16.0,43.0,69.660625,14.41,6.1644633749999995,33.65
2021-06-30 13:19:39.914062500,-46.0,16.0,43.0,69.66140625,14.395,6.16442334375,33.65
2021-06-30 13:19:39.921875000,-46.0,16.0,43.0,69.6621875,14.38,6.1643833125,33.65
2021-06-30 13:19:39.929687500,-46.0,16.0,43.0,69.66296875,14.365,6.16434328125,33.65
2021-06-30 13:19:39.937500000,-46.0,16.0,43.0,69.66375000000001,14.35,6.16430325,33.65
2021-06-30 13:19:39.945312500,-46.0,15.75,43.0,69.66453125,14.309999999999999,6.1642632187499995,33.65
2021-06-30 13:19:39.953125000,-46.0,15.5,43.0,69.6653125,14.27,6.1642231875,33.65
2021-06-30 13:19:39.960937500,-46.0,15.25,43.0,69.66609375,14.18,6.16418315625,33.65
2021-06-30 13:19:39.968750000,-46.0,15.0,43.0,69.666875,14.09,6.164143125,33.65
2021-06-30 13:19:39.976562500,-46.0,15.25,43.0,69.66765625000001,13.870000000000001,6.16410309375,33.65
2021-06-30 13:19:39.984375000,-46.0,15.5,43.0,69.6684375,13.65,6.1640630625,33.65
2021-06-30 13:19:39.992187500,-46.0,15.75,43.0,69.66921875,13.23,6.16402303125,33.65
2021-06-30 13:19:40.000000000,-46.0,16.0,43.0,69.67,12.81,6.163983,33.65
2021-06-30 13:19:40.007812500,-46.0,16.0,43.0,69.670859375,12.105,6.16414309375,33.6503125
2021-06-30 13:19:40.015625000,-46.0,16.0,43.0,69.67171875,11.4,6.1643031875,33.650625
2021-06-30 13:19:40.023437500,-46.0,16.0,43.0,69.672578125,10.415,6.16446328125,33.6509375
2021-06-30 13:19:40.031250000,-46.0,16.0,43.0,69.6734375,9.43,6.164623375,33.65125
2021-06-30 13:19:40.039062500,-46.0,16.0,43.0,69.674296875,8.27,6.16478346875,33.6515625
2021-06-30 13:19:40.046875000,-46.0,16.0,43.0,69.67515625,7.11,6.1649435625,33.651875
2021-06-30 13:19:40.054687500,-46.0,16.0,43.0,69.676015625,5.93,6.16510365625,33.6521875
2021-06-30 13:19:40.062500000,-46.0,16.0,43.0,69.676875,4.75,6.16526375,33.652499999999996
2021-06-30 13:19:40.070312500,-46.0,16.0,43.0,69.677734375,3.73,6.16542384375,33.652812499999996
2021-06-30 13:19:40.078125000,-46.0,16.0,43.0,69.67859375,2.71,6.1655839375,33.653124999999996
2021-06-30 13:19:40.085937500,-46.0,16.0,43.0,69.679453125,1.955,6.16574403125,33.653437499999995
2021-06-30 13:19:40.093750000,-46.0,16.0,43.0,69.6803125,1.2,6.165904125,33.653749999999995
2021-06-30 13:19:40.101562500,-46.25,16.0,43.0,69.681171875,0.71,6.16606421875,33.654062499999995
2021-06-30 13:19:40.109375000,-46.5,16.0,43.0,69.68203125000001,0.22,6.1662243125,33.654374999999995
2021-06-30 13:19:40.117187500,-46.75,16.0,43.0,69.682890625,-0.12999999999999998,6.16638440625,33.654687499999994
2021-06-30 13:19:40.125000000,-47.0,16.0,43.0,69.68375,-0.48,6.1665445000000005,33.655
2021-06-30 13:19:40.132812500,-47.0,16.0,42.75,69.68460937500001,-0.85,6.1667045937500005,33.6553125
2021-06-30 13:19:40.140625000,-47.0,16.0,42.5,69.68546875,-1.22,6.1668646875,33.655625
2021-06-30 13:19:40.148437500,-47.0,16.0,42.25,69.686328125,-1.77,6.16702478125,33.6559375
2021-06-30 13:19:40.156250000,-47.0,16.0,42.0,69.68718750000001,-2.32,6.167184875,33.65625
2021-06-30 13:19:40.164062500,-46.75,16.0,42.25,69.688046875,-3.115,6.16734496875,33.6565625
2021-06-30 13:19:40.171875000,-46.5,16.0,42.5,69.68890625,-3.91,6.1675050625,33.656875
2021-06-30 13:19:40.179687500,-46.25,16.0,42.75,69.689765625,-4.9350000000000005,6.16766515625,33.6571875
2021-06-30 13:19:40.187500000,-46.0,16.0,43.0,69.690625,-5.96,6.16782525,33.6575
2021-06-30 13:19:40.195312500,-46.0,16.0,43.0,69.691484375,-7.119999999999999,6.16798534375,33.6578125
2021-06-30 13:19:40.203125000,-46.0,16.0,43.0,69.69234375,-8.28,6.1681454375,33.658125
2021-06-30 13:19:40.210937500,-46.0,16.0,43.0,69.693203125,-9.46,6.168305531250001,33.6584375
2021-06-30 13:19:40.218750000,-46.0,16.0,43.0,69.6940625,-10.64,6.1684656250000005,33.65875
2021-06-30 13:19:40.226562500,-46.0,16.0,42.75,69.694921875,-11.75,6.16862571875,33.6590625
2021-06-30 13:19:40.234375000,-46.0,16.0,42.5,69.69578125,-12.86,6.1687858125,33.659375
2021-06-30 13:19:40.242187500,-46.0,16.0,42.25,69.696640625,-13.864999999999998,6.16894590625,33.6596875
2021-06-30 13:19:40.250000000,-46.0,16.0,42.0,69.6975,-14.87,6.169106,33.66
2021-06-30 13:19:40.257812500,-46.0,16.25,42.0,69.698359375,-15.809999999999999,6.16874575,33.66
2021-06-30 13:19:40.265625000,-46.0,16.5,42.0,69.69921875,-16.75,6.1683855,33.66
2021-06-30 13:19:40.273437500,-46.0,16.75,42.0,69.700078125,-17.72,6.16802525,33.66
2021-06-30 13:19:40.281250000,-46.0,17.0,42.0,69.7009375,-18.69,6.167665,33.66
2021-06-30 13:19:40.289062500,-46.0,17.0,42.0,69.701796875,-19.810000000000002,6.1673047500000004,33.66
2021-06-30 13:19:40.296875000,-46.0,17.0,42.0,69.70265625,-20.93,6.1669445000000005,33.66
2021-06-30 13:19:40.304687500,-46.0,17.0,42.0,69.70351562500001,-22.310000000000002,6.1665842500000005,33.66
2021-06-30 13:19:40.312500000,-46.0,17.0,42.0,69.704375,-23.69,6.166224,33.66
2021-06-30 13:19:40.320312500,-46.0,17.0,42.0,69.705234375,-25.380000000000003,6.16586375,33.66
2021-06-30 13:19:40.328125000,-46.0,17.0,42.0,69.70609375000001,-27.07,6.1655035,33.66
2021-06-30 13:19:40.335937500,-46.0,17.0,42.0,69.706953125,-29.045,6.16514325,33.66
2021-06-30 13:19:40.343750000,-46.0,17.0,42.0,69.7078125,-31.02,6.164783,33.66
2021-06-30 13:19:40.351562500,-46.0,17.0,42.0,69.70867187500001,-33.13,6.16442275,33.66
2021-06-30 13:19:40.359375000,-46.0,17.0,42.0,69.70953125,-35.24,6.1640625,33.66
2021-06-30 13:19:40.367187500,-46.0,17.0,42.0,69.710390625,-37.245000000000005,6.16370225,33.66
2021-06-30 13:19:40.375000000,-46.0,17.0,42.0,69.71125,-39.25,6.163342,33.66
2021-06-30 13:19:40.382812500,-46.0,17.0,42.0,69.712109375,-40.82,6.16298175,33.66
2021-06-30 13:19:40.390625000,-46.0,17.0,42.0,69.71296875,-42.39,6.1626215,33.66
2021-06-30 13:19:40.398437500,-46.0,17.0,42.0,69.713828125,-43.16,6.16226125,33.66
2021-06-30 13:19:40.406250000,-46.0,17.0,42.0,69.7146875,-43.93,6.161901,33.66
2021-06-30 13:19:40.414062500,-46.0,17.0,42.0,69.715546875,-43.6,6.16154075,33.66
2021-06-30 13:19:40.421875000,-46.0,17.0,42.0,69.71640625,-43.27,6.1611805,33.66
2021-06-30 13:19:40.429687500,-46.0,17.0,42.0,69.717265625,-41.71,6.16082025,33.66
2021-06-30 13:19:40.437500000,-46.0,17.0,42.0,69.718125,-40.15,6.1604600000000005,33.66
2021-06-30 13:19:40.445312500,-46.0,17.0,42.0,69.718984375,-37.43,6.16009975,33.66
2021-06-30 13:19:40.453125000,-46.0,17.0,42.0,69.71984375,-34.71,6.1597395,33.66
2021-06-30 13:19:40.460937500,-46.0,17.0,42.0,69.720703125,-31.14,6.15937925,33.66
2021-06-30 13:19:40.468750000,-46.0,17.0,42.0,69.7215625,-27.57,6.159019,33.66
2021-06-30 13:19:40.476562500,-46.0,17.0,42.0,69.722421875,-23.6,6.15865875,33.66
2021-06-30 13:19:40.484375000,-46.0,17.0,42.0,69.72328125,-19.63,6.1582985,33.66
2021-06-30 13:19:40.492187500,-46.0,17.0,42.0,69.724140625,-15.73,6.15793825,33.66
2021-06-30 13:19:40.500000000,-46.0,17.0,42.0,69.725,-11.83,6.157578,33.66
2021-06-30 13:19:40.507812500,-46.0,17.0,42.0,69.725859375,-8.36,6.1576580625,33.66
2021-06-30 13:19:40.515625000,-46.0,17.0,42.0,69.72671875,-4.89,6.157738125,33.66
2021-06-30 13:19:40.523437500,-46.0,17.0,42.0,69.72757812500001,-2.025,6.1578181875,33.66
2021-06-30 13:19:40.531250000,-46.0,17.0,42.0,69.7284375,0.84,6.15789825,33.66
2021-06-30 13:19:40.539062500,-46.25,17.0,42.0,69.729296875,3.09,6.1579783125,33.66
2021-06-30 13:19:40.546875000,-46.5,17.0,42.0,69.73015625000001,5.34,6.158058375,33.66
2021-06-30 13:19:40.554687500,-46.75,17.0,42.0,69.731015625,7.0649999999999995,6.1581384375,33.66
2021-06-30 13:19:40.562500000,-47.0,17.0,42.0,69.731875,8.79,6.1582185,33.66
2021-06-30 13:19:40.570312500,-47.0,17.0,42.0,69.732734375,10.094999999999999,6.1582985625,33.66
2021-06-30 13:19:40.578125000,-47.0,17.0,42.0,69.73359375,11.4,6.158378625,33.66
2021-06-30 13:19:40.585937500,-47.0,17.0,42.0,69.734453125,12.34,6.1584586875000005,33.66
2021-06-30 13:19:40.593750000,-47.0,17.0,42.0,69.7353125,13.28,6.15853875,33.66
2021-06-30 13:19:40.601562500,-46.75,17.0,42.0,69.736171875,13.879999999999999,6.1586188125,33.66
2021-06-30 13:19:40.609375000,-46.5,17.0,42.0,69.73703125,14.48,6.158698875,33.66
2021-06-30 13:19:40.617187500,-46.25,17.0,42.0,69.737890625,14.745000000000001,6.1587789375,33.66
2021-06-30 13:19:40.625000000,-46.0,17.0,42.0,69.73875,15.01,6.158859,33.66
2021-06-30 13:19:40.632812500,-46.0,17.0,42.0,69.739609375,14.98,6.1589390625,33.66
2021-06-30 13:19:40.640625000,-46.0,17.0,42.0,69.74046875,14.95,6.159019125,33.66
2021-06-30 13:19:40.648437500,-46.0,17.0,42.0,69.741328125,14.684999999999999,6.1590991875,33.66
2021-06-30 13:19:40.656250000,-46.0,17.0,42.0,69.7421875,14.42,6.15917925,33.66
2021-06-30 13:19:40.664062500,-46.25,17.0,42.0,69.743046875,14.004999999999999,6.1592593125,33.66
2021-06-30 13:19:40.671875000,-46.5,17.0,42.0,69.74390625,13.59,6.159339375,33.66
2021-06-30 13:19:40.679687500,-46.75,17.0,42.0,69.744765625,13.129999999999999,6.1594194375,33.66
2021-06-30 13:19:40.687500000,-47.0,17.0,42.0,69.745625,12.67,6.1594995,33.66
2021-06-30 13:19:40.695312500,-47.0,17.0,42.0,69.746484375,12.245000000000001,6.1595795625,33.66
2021-06-30 13:19:40.703125000,-47.0,17.0,42.0,69.74734375,11.82,6.159659625,33.66
2021-06-30 13:19:40.710937500,-47.0,17.0,42.0,69.748203125,11.52,6.1597396875,33.66
2021-06-30 13:19:40.718750000,-47.0,17.0,42.0,69.74906250000001,11.22,6.1598197500000005,33.66
2021-06-30 13:19:40.726562500,-47.0,17.0,42.0,69.749921875,11.085,6.1598998125,33.66
2021-06-30 13:19:40.734375000,-47.0,17.0,42.0,69.75078125,10.95,6.159979875,33.66
2021-06-30 13:19:40.742187500,-47.0,17.0,42.0,69.75164062500001,10.98,6.1600599375,33.66
2021-06-30 13:19:40.750000000,-47.0,17.0,42.0,69.7525,11.01,6.16014,33.66
2021-06-30 13:19:40.757812500,-47.0,17.0,42.0,69.753359375,11.149999999999999,6.1602200625000005,33.66
2021-06-30 13:19:40.765625000,-47.0,17.0,42.0,69.75421875,11.29,6.160300125,33.66
2021-06-30 13:19:40.773437500,-47.0,17.0,42.0,69.755078125,11.469999999999999,6.1603801875,33.66
2021-06-30 13:19:40.781250000,-47.0,17.0,42.0,69.7559375,11.65,6.16046025,33.66
2021-06-30 13:19:40.789062500,-47.0,17.0,42.25,69.756796875,11.785,6.1605403125,33.66
2021-06-30 13:19:40.796875000,-47.0,17.0,42.5,69.75765625,11.92,6.160620375000001,33.66
2021-06-30 13:19:40.804687500,-47.0,17.0,42.75,69.758515625,12.0,6.1607004375,33.66
2021-06-30 13:19:40.812500000,-47.0,17.0,43.0,69.759375,12.08,6.1607805,33.66
2021-06-30 13:19:40.820312500,-47.0,17.0,42.75,69.760234375,12.125,6.1608605625,33.66
2021-06-30 13:19:40.828125000,-47.0,17.0,42.5,69.76109375,12.17,6.160940625,33.66
2021-06-30 13:19:40.835937500,-47.0,17.0,42.25,69.761953125,12.23,6.161020687500001,33.66
2021-06-30 13:19:40.843750000,-47.0,17.0,42.0,69.7628125,12.29,6.16110075,33.66
2021-06-30 13:19:40.851562500,-47.0,17.0,42.0,69.763671875,12.41,6.1611808125000005,33.66
2021-06-30 13:19:40.859375000,-47.0,17.0,42.0,69.76453125,12.53,6.161260875,33.66
2021-06-30 13:19:40.867187500,-47.0,17.0,42.0,69.765390625,12.684999999999999,6.1613409375,33.66
2021-06-30 13:19:40.875000000,-47.0,17.0,42.0,69.76625,12.84,6.161421000000001,33.66
2021-06-30 13:19:40.882812500,-46.75,17.0,42.0,69.767109375,12.975,6.1615010625,33.66
2021-06-30 13:19:40.890625000,-46.5,17.0,42.0,69.76796875,13.11,6.1615811250000005,33.66
2021-06-30 13:19:40.898437500,-46.25,17.0,42.0,69.768828125,13.155,6.1616611875,33.66
2021-06-30 13:19:40.906250000,-46.0,17.0,42.0,69.7696875,13.2,6.16174125,33.66
2021-06-30 13:19:40.914062500,-46.0,17.0,42.0,69.77054687500001,13.094999999999999,6.1618213125,33.66
2021-06-30 13:19:40.921875000,-46.0,17.0,42.0,69.77140625,12.99,6.161901375,33.66
2021-06-30 13:19:40.929687500,-46.0,17.0,42.0,69.772265625,12.735,6.161981437500001,33.66
2021-06-30 13:19:40.937500000,-46.0,17.0,42.0,69.77312500000001,12.48,6.1620615,33.66
2021-06-30 13:19:40.945312500,-46.25,17.0,42.0,69.773984375,12.095,6.1621415625000004,33.66
2021-06-30 13:19:40.953125000,-46.5,17.0,42.0,69.77484375,11.71,6.162221625,33.66
2021-06-30 13:19:40.960937500,-46.75,17.0,42.0,69.775703125,11.22,6.1623016875,33.66
2021-06-30 13:19:40.968750000,-47.0,17.0,42.0,69.7765625,10.73,6.162381750000001,33.66
2021-06-30 13:19:40.976562500,-47.0,17.0,42.0,69.777421875,10.15,6.1624618125,33.66
2021-06-30 13:19:40.984375000,-47.0,17.0,42.0,69.77828125,9.57,6.1625418750000005,33.66
2021-06-30 13:19:40.992187500,-47.0,17.0,42.0,69.779140625,8.9,6.1626219375,33.66
2021-06-30 13:19:41.000000000,-47.0,17.0,42.0,69.78,8.23,6.162702,33.66
2021-06-30 13:19:41.007812500,-47.0,17.0,42.0,69.78093750000001,7.475,6.1626219375,33.66
2021-06-30 13:19:41.015625000,-47.0,17.0,42.0,69.781875,6.72,6.1625418750000005,33.66
2021-06-30 13:19:41.023437500,-47.0,17.0,42.0,69.7828125,5.88,6.1624618125,33.66
2021-06-30 13:19:41.031250000,-47.0,17.0,42.0,69.78375,5.04,6.162381750000001,33.66
2021-06-30 13:19:41.039062500,-47.0,17.0,42.0,69.7846875,4.13,6.1623016875,33.66
2021-06-30 13:19:41.046875000,-47.0,17.0,42.0,69.785625,3.22,6.162221625,33.66
2021-06-30 13:19:41.054687500,-47.0,17.0,42.0,69.7865625,2.25,6.1621415625000004,33.66
2021-06-30 13:19:41.062500000,-47.0,17.0,42.0,69.7875,1.28,6.1620615,33.66
2021-06-30 13:19:41.070312500,-47.0,17.0,42.0,69.7884375,0.2250000000000001,6.161981437500001,33.66
2021-06-30 13:19:41.078125000,-47.0,17.0,42.0,69.789375,-0.83,6.161901375,33.66
2021-06-30 13:19:41.085937500,-47.0,17.0,42.0,69.7903125,-1.9899999999999998,6.1618213125,33.66
2021-06-30 13:19:41.093750000,-47.0,17.0,42.0,69.79125,-3.15,6.16174125,33.66
2021-06-30 13:19:41.101562500,-47.0,17.0,42.0,69.7921875,-4.42,6.1616611875,33.66
2021-06-30 13:19:41.109375000,-47.0,17.0,42.0,69.793125,-5.69,6.1615811250000005,33.66
2021-06-30 13:19:41.117187500,-47.0,17.0,42.0,69.7940625,-7.050000000000001,6.1615010625,33.66
2021-06-30 13:19:41.125000000,-47.0,17.0,42.0,69.795,-8.41,6.161421000000001,33.66
2021-06-30 13:19:41.132812500,-47.0,17.0,42.0,69.79593750000001,-9.805,6.1613409375,33.66
2021-06-30 13:19:41.140625000,-47.0,17.0,42.0,69.796875,-11.2,6.161260875,33.66
2021-06-30 13:19:41.148437500,-47.0,17.0,42.0,69.7978125,-12.55,6.1611808125000005,33.66
2021-06-30 13:19:41.156250000,-47.0,17.0,42.0,69.79875,-13.9,6.16110075,33.66
2021-06-30 13:19:41.164062500,-47.0,17.0,42.0,69.7996875,-15.149999999999999,6.161020687500001,33.66
2021-06-30 13:19:41.171875000,-47.0,17.0,42.0,69.800625,-16.4,6.160940625,33.66
2021-06-30 13:19:41.179687500,-47.0,17.0,42.0,69.8015625,-17.535,6.1608605625,33.66
2021-06-30 13:19:41.187500000,-47.0,17.0,42.0,69.80250000000001,-18.67,6.1607805,33.66
2021-06-30 13:19:41.195312500,-47.0,17.0,42.0,69.8034375,-19.735,6.1607004375,33.66
2021-06-30 13:19:41.203125000,-47.0,17.0,42.0,69.80437500000001,-20.8,6.160620375000001,33.66
2021-06-30 13:19:41.210937500,-47.0,17.0,42.0,69.8053125,-21.91,6.1605403125,33.66
2021-06-30 13:19:41.218750000,-47.0,17.0,42.0,69.80625,-23.02,6.16046025,33.66
2021-06-30 13:19:41.226562500,-47.0,17.0,42.0,69.8071875,-24.314999999999998,6.1603801875,33.66
2021-06-30 13:19:41.234375000,-47.0,17.0,42.0,69.808125,-25.61,6.160300125,33.66
2021-06-30 13:19:41.242187500,-47.0,17.0,42.0,69.8090625,-27.23,6.1602200625000005,33.66
2021-06-30 13:19:41.250000000,-47.0,17.0,42.0,69.81,-28.85,6.16014,33.66
2021-06-30 13:19:41.257812500,-47.0,17.0,42.0,69.81093750000001,-30.865000000000002,6.16014,33.66
2021-06-30 13:19:41.265625000,-47.0,17.0,42.0,69.811875,-32.88,6.16014,33.66
2021-06-30 13:19:41.273437500,-47.0,17.0,42.0,69.8128125,-35.230000000000004,6.16014,33.66
2021-06-30 13:19:41.281250000,-47.0,17.0,42.0,69.81375,-37.58,6.16014,33.66
2021-06-30 13:19:41.289062500,-47.0,17.0,42.0,69.8146875,-40.015,6.16014,33.66
2021-06-30 13:19:41.296875000,-47.0,17.0,42.0,69.815625,-42.45,6.16014,33.66
2021-06-30 13:19:41.304687500,-47.0,17.0,42.0,69.8165625,-44.545,6.16014,33.66
2021-06-30 13:19:41.312500000,-47.0,17.0,42.0,69.8175,-46.64,6.16014,33.66
2021-06-30 13:19:41.320312500,-47.0,17.0,42.0,69.8184375,-47.92,6.16014,33.66
2021-06-30 13:19:41.328125000,-47.0,17.0,42.0,69.81937500000001,-49.2,6.16014,33.66
2021-06-30 13:19:41.335937500,-47.0,17.0,42.0,69.8203125,-49.265,6.16014,33.66
2021-06-30 13:19:41.343750000,-47.0,17.0,42.0,69.82125,-49.33,6.16014,33.66
2021-06-30 13:19:41.351562500,-46.75,17.0,42.0,69.8221875,-47.985,6.16014,33.66
2021-06-30 13:19:41.359375000,-46.5,17.0,42.0,69.823125,-46.64,6.16014,33.66
2021-06-30 13:19:41.367187500,-46.25,17.0,42.0,69.8240625,-43.99,6.16014,33.66
2021-06-30 13:19:41.375000000,-46.0,17.0,42.0,69.825,-41.34,6.16014,33.66
2021-06-30 13:19:41.382812500,-46.25,17.0,42.0,69.82593750000001,-37.735,6.16014,33.66
2021-06-30 13:19:41.390625000,-46.5,17.0,42.0,69.826875,-34.13,6.16014,33.66
2021-06-30 13:19:41.398437500,-46.75,17.0,42.0,69.82781250000001,-30.065,6.16014,33.66
2021-06-30 13:19:41.406250000,-47.0,17.0,42.0,69.82875,-26.0,6.16014,33.66
2021-06-30 13:19:41.414062500,-46.75,17.0,42.25,69.8296875,-21.955,6.16014,33.66
2021-06-30 13:19:41.421875000,-46.5,17.0,42.5,69.830625,-17.91,6.16014,33.66
2021-06-30 13:19:41.429687500,-46.25,17.0,42.75,69.8315625,-14.219999999999999,6.16014,33.66
2021-06-30 13:19:41.437500000,-46.0,17.0,43.0,69.83250000000001,-10.53,6.16014,33.66
2021-06-30 13:19:41.445312500,-46.25,17.0,43.0,69.8334375,-7.334999999999999,6.16014,33.66
2021-06-30 13:19:41.453125000,-46.5,17.0,43.0,69.83437500000001,-4.14,6.16014,33.66
2021-06-30 13:19:41.460937500,-46.75,17.0,43.0,69.8353125,-1.3899999999999997,6.16014,33.66
2021-06-30 13:19:41.468750000,-47.0,17.0,43.0,69.83625,1.36,6.16014,33.66
2021-06-30 13:19:41.476562500,-47.0,17.25,42.5,69.8371875,3.835,6.16014,33.66
2021-06-30 13:19:41.484375000,-47.0,17.5,42.0,69.838125,6.31,6.16014,33.66
2021-06-30 13:19:41.492187500,-47.0,17.75,41.5,69.8390625,8.695,6.16014,33.66
2021-06-30 13:19:41.500000000,-47.0,18.0,41.0,69.84,11.08,6.16014,33.66
2021-06-30 13:19:41.507812500,-47.0,18.0,40.75,69.84093750000001,13.469999999999999,6.16026009375,33.66
2021-06-30 13:19:41.515625000,-47.0,18.0,40.5,69.841875,15.86,6.1603801875,33.66
2021-06-30 13:19:41.523437500,-47.0,18.0,40.25,69.84281250000001,18.240000000000002,6.16050028125,33.66
2021-06-30 13:19:41.531250000,-47.0,18.0,40.0,69.84375,20.62,6.160620375000001,33.66
2021-06-30 13:19:41.539062500,-47.0,18.0,40.25,69.8446875,22.84,6.16074046875,33.66
2021-06-30 13:19:41.546875000,-47.0,18.0,40.5,69.845625,25.06,6.1608605625,33.66
2021-06-30 13:19:41.554687500,-47.0,18.0,40.75,69.8465625,26.924999999999997,6.1609806562500005,33.66
2021-06-30 13:19:41.562500000,-47.0,18.0,41.0,69.8475,28.79,6.16110075,33.66
2021-06-30 13:19:41.570312500,-47.0,18.0,41.0,69.8484375,30.14,6.16122084375,33.66
2021-06-30 13:19:41.578125000,-47.0,18.0,41.0,69.84937500000001,31.49,6.1613409375,33.66
2021-06-30 13:19:41.585937500,-47.0,18.0,41.0,69.8503125,32.28,6.16146103125,33.66
2021-06-30 13:19:41.593750000,-47.0,18.0,41.0,69.85125000000001,33.07,6.161581125,33.66
2021-06-30 13:19:41.601562500,-47.0,18.0,41.0,69.8521875,33.385000000000005,6.16170121875,33.66
2021-06-30 13:19:41.609375000,-47.0,18.0,41.0,69.853125,33.7,6.1618213125,33.66
2021-06-30 13:19:41.617187500,-47.0,18.0,41.0,69.8540625,33.695,6.16194140625,33.66
2021-06-30 13:19:41.625000000,-47.0,18.0,41.0,69.855,33.69,6.1620615,33.66
2021-06-30 13:19:41.632812500,-47.0,18.0,41.0,69.85593750000001,33.55,6.16218159375,33.66
2021-06-30 13:19:41.640625000,-47.0,18.0,41.0,69.856875,33.41,6.1623016875,33.66
2021-06-30 13:19:41.648437500,-47.0,18.0,41.0,69.85781250000001,33.239999999999995,6.16242178125,33.66
2021-06-30 13:19:41.656250000,-47.0,18.0,41.0,69.85875,33.07,6.1625418750000005,33.66
2021-06-30 13:19:41.664062500,-46.75,18.0,41.25,69.8596875,32.905,6.16266196875,33.66
2021-06-30 13:19:41.671875000,-46.5,18.0,41.5,69.860625,32.74,6.1627820625,33.66
2021-06-30 13:19:41.679687500,-46.25,18.0,41.75,69.8615625,32.56,6.16290215625,33.66
2021-06-30 13:19:41.687500000,-46.0,18.0,42.0,69.86250000000001,32.38,6.16302225,33.66
2021-06-30 13:19:41.695312500,-46.25,18.0,41.75,69.8634375,32.155,6.16314234375,33.66
2021-06-30 13:19:41.703125000,-46.5,18.0,41.5,69.86437500000001,31.93,6.1632624375,33.66
2021-06-30 13:19:41.710937500,-46.75,18.0,41.25,69.8653125,31.66,6.16338253125,33.66
2021-06-30 13:19:41.718750000,-47.0,18.0,41.0,69.86625000000001,31.39,6.163502625,33.66
2021-06-30 13:19:41.726562500,-47.0,18.0,41.0,69.8671875,31.105,6.16362271875,33.66
2021-06-30 13:19:41.734375000,-47.0,18.0,41.0,69.868125,30.82,6.1637428125,33.66
2021-06-30 13:19:41.742187500,-47.0,18.0,41.0,69.8690625,30.545,6.16386290625,33.66
2021-06-30 13:19:41.750000000,-47.0,18.0,41.0,69.87,30.27,6.163983,33.66
2021-06-30 13:19:41.757812500,-47.0,18.0,41.0,69.87093750000001,29.994999999999997,6.1652639375,33.66
2021-06-30 13:19:41.765625000,-47.0,18.0,41.0,69.871875,29.72,6.166544875,33.66
2021-06-30 13:19:41.773437500,-47.0,18.0,41.0,69.87281250000001,29.395,6.1678258125,33.66
2021-06-30 13:19:41.781250000,-47.0,18.0,41.0,69.87375,29.07,6.16910675,33.66
2021-06-30 13:19:41.789062500,-46.75,18.0,41.25,69.87468750000001,28.605,6.1703876875,33.66
2021-06-30 13:19:41.796875000,-46.5,18.0,41.5,69.875625,28.14,6.171668625,33.66
2021-06-30 13:19:41.804687500,-46.25,18.0,41.75,69.8765625,27.475,6.1729495625,33.66
2021-06-30 13:19:41.812500000,-46.0,18.0,42.0,69.8775,26.81,6.1742305,33.66
2021-06-30 13:19:41.820312500,-46.25,18.0,42.0,69.8784375,25.915,6.1755114375,33.66
2021-06-30 13:19:41.828125000,-46.5,18.0,42.0,69.87937500000001,25.02,6.176792375,33.66
2021-06-30 13:19:41.835937500,-46.75,18.0,42.0,69.8803125,23.95,6.1780733125,33.66
2021-06-30 13:19:41.843750000,-47.0,18.0,42.0,69.88125000000001,22.88,6.17935425,33.66
2021-06-30 13:19:41.851562500,-46.75,18.0,42.0,69.8821875,21.715,6.1806351875,33.66
2021-06-30 13:19:41.859375000,-46.5,18.0,42.0,69.883125,20.55,6.181916125,33.66
2021-06-30 13:19:41.867187500,-46.25,18.0,42.0,69.8840625,19.365000000000002,6.1831970625,33.66
2021-06-30 13:19:41.875000000,-46.0,18.0,42.0,69.885,18.18,6.184478,33.66
2021-06-30 13:19:41.882812500,-46.25,18.0,42.0,69.88593750000001,17.05,6.1857589375,33.66
2021-06-30 13:19:41.890625000,-46.5,18.0,42.0,69.886875,15.92,6.187039875,33.66
2021-06-30 13:19:41.898437500,-46.75,18.0,42.0,69.88781250000001,14.844999999999999,6.1883208125,33.66
2021-06-30 13:19:41.906250000,-47.0,18.0,42.0,69.88875,13.77,6.18960175,33.66
2021-06-30 13:19:41.914062500,-47.0,18.0,41.75,69.88968750000001,12.75,6.1908826875,33.66
2021-06-30 13:19:41.921875000,-47.0,18.0,41.5,69.890625,11.73,6.192163625,33.66
2021-06-30 13:19:41.929687500,-47.0,18.0,41.25,69.8915625,10.705,6.1934445625,33.66
2021-06-30 13:19:41.937500000,-47.0,18.0,41.0,69.89250000000001,9.68,6.1947255,33.66
2021-06-30 13:19:41.945312500,-47.0,18.0,41.25,69.8934375,8.61,6.1960064374999995,33.66
2021-06-30 13:19:41.953125000,-47.0,18.0,41.5,69.89437500000001,7.54,6.197287375,33.66
2021-06-30 13:19:41.960937500,-47.0,18.0,41.75,69.8953125,6.35,6.1985683125,33.66
2021-06-30 13:19:41.968750000,-47.0,18.0,42.0,69.89625000000001,5.16,6.19984925,33.66
2021-06-30 13:19:41.976562500,-47.0,18.0,41.75,69.8971875,3.81,6.2011301875,33.66
2021-06-30 13:19:41.984375000,-47.0,18.0,41.5,69.89812500000001,2.46,6.202411125,33.66
2021-06-30 13:19:41.992187500,-47.0,18.0,41.25,69.8990625,0.925,6.2036920625,33.66
2021-06-30 13:19:42.000000000,-47.0,18.0,41.0,69.9,-0.61,6.204973,33.66
2021-06-30 13:19:42.007812500,-47.0,18.0,41.0,69.90078125000001,-2.275,6.20805528125,33.66
2021-06-30 13:19:42.015625000,-47.0,18.0,41.0,69.90156250000001,-3.94,6.2111375625,33.66
2021-06-30 13:19:42.023437500,-47.0,18.0,41.0,69.90234375,-5.63,6.21421984375,33.66
2021-06-30 13:19:42.031250000,-47.0,18.0,41.0,69.903125,-7.32,6.217302125,33.66
2021-06-30 13:19:42.039062500,-47.0,18.0,41.25,69.90390625,-8.879999999999999,6.22038440625,33.66
2021-06-30 13:19:42.046875000,-47.0,18.0,41.5,69.90468750000001,-10.44,6.2234666875,33.66
2021-06-30 13:19:42.054687500,-47.0,18.0,41.75,69.90546875000001,-11.745000000000001,6.2265489687499995,33.66
2021-06-30 13:19:42.062500000,-47.0,18.0,42.0,69.90625,-13.05,6.22963125,33.66
2021-06-30 13:19:42.070312500,-46.75,18.0,42.0,69.90703125,-14.075,6.23271353125,33.66
2021-06-30 13:19:42.078125000,-46.5,18.0,42.0,69.9078125,-15.1,6.2357958125,33.66
2021-06-30 13:19:42.085937500,-46.25,18.0,42.0,69.90859375000001,-15.919999999999998,6.23887809375,33.66
2021-06-30 13:19:42.093750000,-46.0,18.0,42.0,69.90937500000001,-16.74,6.241960375,33.66
2021-06-30 13:19:42.101562500,-46.0,18.0,42.0,69.91015625,-17.525,6.24504265625,33.66
2021-06-30 13:19:42.109375000,-46.0,18.0,42.0,69.9109375,-18.31,6.2481249375,33.66
2021-06-30 13:19:42.117187500,-46.0,18.0,42.0,69.91171875,-19.255,6.25120721875,33.66
2021-06-30 13:19:42.125000000,-46.0,18.0,42.0,69.91250000000001,-20.2,6.2542895000000005,33.66
2021-06-30 13:19:42.132812500,-46.25,18.0,42.0,69.91328125000001,-21.45,6.25737178125,33.66
2021-06-30 13:19:42.140625000,-46.5,18.0,42.0,69.9140625,-22.7,6.2604540625,33.66
2021-06-30 13:19:42.148437500,-46.75,18.0,42.0,69.91484375,-24.310000000000002,6.26353634375,33.66
2021-06-30 13:19:42.156250000,-47.0,18.0,42.0,69.915625,-25.92,6.266618625,33.66
2021-06-30 13:19:42.164062500,-47.0,18.0,41.75,69.91640625000001,-27.86,6.26970090625,33.66
2021-06-30 13:19:42.171875000,-47.0,18.0,41.5,69.91718750000001,-29.8,6.2727831875,33.66
2021-06-30 13:19:42.179687500,-47.0,18.0,41.25,69.91796875,-31.945,6.27586546875,33.66
2021-06-30 13:19:42.187500000,-47.0,18.0,41.0,69.91875,-34.09,6.27894775,33.66
2021-06-30 13:19:42.195312500,-47.0,18.0,41.25,69.91953125,-36.225,6.282030031250001,33.66
2021-06-30 13:19:42.203125000,-47.0,18.0,41.5,69.92031250000001,-38.36,6.2851123125,33.66
2021-06-30 13:19:42.210937500,-47.0,18.0,41.75,69.92109375000001,-40.185,6.28819459375,33.66
2021-06-30 13:19:42.218750000,-47.0,18.0,42.0,69.921875,-42.01,6.291276875,33.66
2021-06-30 13:19:42.226562500,-46.75,18.0,41.75,69.92265625,-43.15,6.2943591562500005,33.66
2021-06-30 13:19:42.234375000,-46.5,18.0,41.5,69.9234375,-44.29,6.2974414375,33.66
2021-06-30 13:19:42.242187500,-46.25,18.0,41.25,69.92421875000001,-44.405,6.30052371875,33.66
2021-06-30 13:19:42.250000000,-46.0,18.0,41.0,69.92500000000001,-44.52,6.303606,33.66
2021-06-30 13:19:42.257812500,-46.25,18.0,41.25,69.92578125,-43.405,6.30732875,33.66
2021-06-30 13:19:42.265625000,-46.5,18.0,41.5,69.9265625,-42.29,6.3110515000000005,33.66
2021-06-30 13:19:42.273437500,-46.75,18.0,41.75,69.92734375,-39.97,6.31477425,33.66
2021-06-30 13:19:42.281250000,-47.0,18.0,42.0,69.92812500000001,-37.65,6.318497000000001,33.66
2021-06-30 13:19:42.289062500,-47.0,18.0,41.75,69.92890625,-34.43,6.32221975,33.66
2021-06-30 13:19:42.296875000,-47.0,18.0,41.5,69.9296875,-31.21,6.3259425,33.66
2021-06-30 13:19:42.304687500,-47.0,18.0,41.25,69.93046875,-27.555,6.329665250000001,33.66
2021-06-30 13:19:42.312500000,-47.0,18.0,41.0,69.93125,-23.9,6.333388,33.66
2021-06-30 13:19:42.320312500,-47.0,18.0,41.25,69.93203125000001,-20.28,6.33711075,33.66
2021-06-30 13:19:42.328125000,-47.0,18.0,41.5,69.9328125,-16.66,6.3408335000000005,33.66
2021-06-30 13:19:42.335937500,-47.0,18.0,41.75,69.93359375,-13.385,6.34455625,33.66
2021-06-30 13:19:42.343750000,-47.0,18.0,42.0,69.934375,-10.11,6.348279,33.66
2021-06-30 13:19:42.351562500,-47.0,18.0,42.0,69.93515625,-7.265,6.35200175,33.66
2021-06-30 13:19:42.359375000,-47.0,18.0,42.0,69.93593750000001,-4.42,6.3557245,33.66
2021-06-30 13:19:42.367187500,-47.0,18.0,42.0,69.93671875,-1.92,6.3594472500000006,33.66
2021-06-30 13:19:42.375000000,-47.0,18.0,42.0,69.9375,0.58,6.36317,33.66
2021-06-30 13:19:42.382812500,-46.75,18.0,42.0,69.93828125,2.875,6.36689275,33.66
2021-06-30 13:19:42.390625000,-46.5,18.0,42.0,69.9390625,5.17,6.3706155,33.66
2021-06-30 13:19:42.398437500,-46.25,18.0,42.0,69.93984375000001,7.315,6.37433825,33.66
2021-06-30 13:19:42.406250000,-46.0,18.0,42.0,69.940625,9.46,6.378061000000001,33.66
2021-06-30 13:19:42.414062500,-46.0,18.0,42.0,69.94140625,11.405000000000001,6.38178375,33.66
2021-06-30 13:19:42.421875000,-46.0,18.0,42.0,69.9421875,13.35,6.3855065,33.66
2021-06-30 13:19:42.429687500,-46.0,18.0,42.0,69.94296875,14.96,6.3892292500000005,33.66
2021-06-30 13:19:42.437500000,-46.0,18.0,42.0,69.94375000000001,16.57,6.392952,33.66
2021-06-30 13:19:42.445312500,-46.0,18.0,42.0,69.94453125,17.759999999999998,6.39667475,33.66
2021-06-30 13:19:42.453125000,-46.0,18.0,42.0,69.9453125,18.95,6.4003975,33.66
2021-06-30 13:19:42.460937500,-46.0,18.0,42.0,69.94609375,19.71,6.40412025,33.66
2021-06-30 13:19:42.468750000,-46.0,18.0,42.0,69.946875,20.47,6.407843,33.66
2021-06-30 13:19:42.476562500,-46.0,18.0,42.0,69.94765625000001,20.895,6.41156575,33.66
2021-06-30 13:19:42.484375000,-46.0,18.0,42.0,69.9484375,21.32,6.4152885,33.66
2021-06-30 13:19:42.492187500,-46.0,18.0,42.0,69.94921875,21.55,6.4190112500000005,33.66
2021-06-30 13:19:42.500000000,-46.0,18.0,42.0,69.95,21.78,6.422734,33.66
2021-06-30 13:19:42.507812500,-46.0,18.0,42.0,69.95078125,21.93,6.42585628125,33.66
2021-06-30 13:19:42.515625000,-46.0,18.0,42.0,69.95156250000001,22.08,6.4289785625,33.66
2021-06-30 13:19:42.523437500,-46.0,18.0,42.0,69.95234375,22.21,6.43210084375,33.66
2021-06-30 13:19:42.531250000,-46.0,18.0,42.0,69.953125,22.34,6.435223125,33.66
2021-06-30 13:19:42.539062500,-46.0,18.0,42.0,69.95390625,22.439999999999998,6.43834540625,33.66
2021-06-30 13:19:42.546875000,-46.0,18.0,42.0,69.9546875,22.54,6.4414676875,33.66
2021-06-30 13:19:42.554687500,-46.0,18.0,42.0,69.95546875000001,22.61,6.44458996875,33.66
2021-06-30 13:19:42.562500000,-46.0,18.0,42.0,69.95625,22.68,6.44771225,33.66
2021-06-30 13:19:42.570312500,-46.0,18.0,42.0,69.95703125,22.725,6.45083453125,33.66
2021-06-30 13:19:42.578125000,-46.0,18.0,42.0,69.9578125,22.77,6.4539568125,33.66
2021-06-30 13:19:42.585937500,-46.0,18.0,42.0,69.95859375,22.825,6.45707909375,33.66
2021-06-30 13:19:42.593750000,-46.0,18.0,42.0,69.95937500000001,22.88,6.4602013750000005,33.66
2021-06-30 13:19:42.601562500,-46.0,18.0,42.0,69.96015625,22.97,6.46332365625,33.66
2021-06-30 13:19:42.609375000,-46.0,18.0,42.0,69.9609375,23.06,6.4664459375000005,33.66
2021-06-30 13:19:42.617187500,-46.0,18.0,42.0,69.96171875,23.185,6.46956821875,33.66
2021-06-30 13:19:42.625000000,-46.0,18.0,42.0,69.9625,23.31,6.472690500000001,33.66
2021-06-30 13:19:42.632812500,-46.0,18.0,42.0,69.96328125000001,23.39,6.47581278125,33.66
2021-06-30 13:19:42.640625000,-46.0,18.0,42.0,69.9640625,23.47,6.4789350625,33.66
2021-06-30 13:19:42.648437500,-46.0,18.0,42.0,69.96484375,23.405,6.48205734375,33.66
2021-06-30 13:19:42.656250000,-46.0,18.0,42.0,69.965625,23.34,6.485179625,33.66
2021-06-30 13:19:42.664062500,-46.0,18.0,42.0,69.96640625,23.02,6.48830190625,33.66
2021-06-30 13:19:42.671875000,-46.0,18.0,42.0,69.96718750000001,22.7,6.4914241875,33.66
2021-06-30 13:19:42.679687500,-46.0,18.0,42.0,69.96796875,22.07,6.49454646875,33.66
2021-06-30 13:19:42.687500000,-46.0,18.0,42.0,69.96875,21.44,6.49766875,33.66
2021-06-30 13:19:42.695312500,-46.0,18.0,42.0,69.96953125,20.535,6.50079103125,33.66
2021-06-30 13:19:42.703125000,-46.0,18.0,42.0,69.9703125,19.63,6.5039133125,33.66
2021-06-30 13:19:42.710937500,-46.0,18.0,42.0,69.97109375000001,18.535,6.50703559375,33.66
2021-06-30 13:19:42.718750000,-46.0,18.0,42.0,69.971875,17.44,6.510157875,33.66
2021-06-30 13:19:42.726562500,-46.25,18.0,42.0,69.97265625,16.28,6.5132801562500005,33.66
2021-06-30 13:19:42.734375000,-46.5,18.0,42.0,69.9734375,15.12,6.5164024375,33.66
2021-06-30 13:19:42.742187500,-46.75,18.0,42.0,69.97421875,13.995,6.5195247187500005,33.66
2021-06-30 13:19:42.750000000,-47.0,18.0,42.0,69.975,12.87,6.522647,33.66
2021-06-30 13:19:42.757812500,-47.0,18.0,42.0,69.97578125,11.82,6.52428821875,33.66
2021-06-30 13:19:42.765625000,-47.0,18.0,42.0,69.9765625,10.77,6.5259294375,33.66
2021-06-30 13:19:42.773437500,-47.0,18.0,42.0,69.97734375,9.774999999999999,6.52757065625,33.66
2021-06-30 13:19:42.781250000,-47.0,18.0,42.0,69.978125,8.78,6.529211875,33.66
2021-06-30 13:19:42.789062500,-47.0,18.0,42.0,69.97890625,7.755,6.53085309375,33.66
2021-06-30 13:19:42.796875000,-47.0,18.0,42.0,69.9796875,6.73,6.5324943125,33.66
2021-06-30 13:19:42.804687500,-47.0,18.0,42.0,69.98046875,5.595000000000001,6.5341355312500005,33.66
2021-06-30 13:19:42.812500000,-47.0,18.0,42.0,69.98125,4.46,6.53577675,33.66
2021-06-30 13:19:42.820312500,-46.75,18.0,42.0,69.98203125,3.1550000000000002,6.53741796875,33.66
2021-06-30 13:19:42.828125000,-46.5,18.0,42.0,69.9828125,1.85,6.5390591875,33.66
2021-06-30 13:19:42.835937500,-46.25,18.0,42.0,69.98359375,0.395,6.54070040625,33.66
2021-06-30 13:19:42.843750000,-46.0,18.0,42.0,69.984375,-1.06,6.542341625000001,33.66
2021-06-30 13:19:42.851562500,-46.25,18.0,42.0,69.98515625,-2.5999999999999996,6.54398284375,33.66
2021-06-30 13:19:42.859375000,-46.5,18.0,42.0,69.9859375,-4.14,6.5456240625,33.66
2021-06-30 13:19:42.867187500,-46.75,18.0,42.0,69.98671875,-5.66,6.5472652812500005,33.66
2021-06-30 13:19:42.875000000,-47.0,18.0,42.0,69.9875,-7.18,6.5489065,33.66
2021-06-30 13:19:42.882812500,-46.75,18.0,42.0,69.98828125,-8.585,6.55054771875,33.66
2021-06-30 13:19:42.890625000,-46.5,18.0,42.0,69.9890625,-9.99,6.5521889375,33.66
2021-06-30 13:19:42.898437500,-46.25,18.0,42.0,69.98984375,-11.254999999999999,6.55383015625,33.66
2021-06-30 13:19:42.906250000,-46.0,18.0,42.0,69.990625,-12.52,6.555471375,33.66
2021-06-30 13:19:42.914062500,-46.0,18.0,42.0,69.99140625,-13.68,6.55711259375,33.66
2021-06-30 13:19:42.921875000,-46.0,18.0,42.0,69.9921875,-14.84,6.5587538125,33.66
2021-06-30 13:19:42.929687500,-46.0,18.0,42.0,69.99296875,-15.99,6.560395031250001,33.66
2021-06-30 13:19:42.937500000,-46.0,18.0,42.0,69.99375,-17.14,6.56203625,33.66
2021-06-30 13:19:42.945312500,-46.0,18.0,42.0,69.99453125,-18.395,6.56367746875,33.66
2021-06-30 13:19:42.953125000,-46.0,18.0,42.0,69.9953125,-19.65,6.5653186875000005,33.66
2021-06-30 13:19:42.960937500,-46.0,18.0,42.0,69.99609375,-21.14,6.56695990625,33.66
2021-06-30 13:19:42.968750000,-46.0,18.0,42.0,69.996875,-22.63,6.568601125000001,33.66
2021-06-30 13:19:42.976562500,-46.25,18.0,42.0,69.99765625,-24.38,6.57024234375,33.66
2021-06-30 13:19:42.984375000,-46.5,18.0,42.0,69.9984375,-26.13,6.5718835625,33.66
2021-06-30 13:19:42.992187500,-46.75,18.0,42.0,69.99921875,-28.075,6.573524781250001,33.66
2021-06-30 13:19:43.000000000,-47.0,18.0,42.0,70.0,-30.02,6.575166,33.66
2021-06-30 13:19:43.007812500,-47.0,18.0,42.0,70.000390625,-31.915,6.5754061875000005,33.6596875
2021-06-30 13:19:43.015625000,-47.0,18.0,42.0,70.00078125,-33.81,6.575646375,33.659375
2021-06-30 13:19:43.023437500,-47.0,18.0,42.0,70.001171875,-35.285,6.5758865625,33.6590625
2021-06-30 13:19:43.031250000,-47.0,18.0,42.0,70.0015625,-36.76,6.57612675,33.65875
2021-06-30 13:19:43.039062500,-46.75,18.0,42.0,70.001953125,-37.4,6.5763669375000005,33.6584375
2021-06-30 13:19:43.046875000,-46.5,18.0,42.0,70.00234375,-38.04,6.576607125000001,33.658125
2021-06-30 13:19:43.054687500,-46.25,18.0,42.0,70.002734375,-37.545,6.5768473125,33.6578125
2021-06-30 13:19:43.062500000,-46.0,18.0,42.0,70.003125,-37.05,6.5770875,33.6575
2021-06-30 13:19:43.070312500,-46.25,18.0,42.0,70.003515625,-35.315,6.5773276875,33.6571875
2021-06-30 13:19:43.078125000,-46.5,18.0,42.0,70.00390625,-33.58,6.577567875,33.656875
2021-06-30 13:19:43.085937500,-46.75,18.0,42.0,70.004296875,-30.784999999999997,6.5778080625,33.6565625
2021-06-30 13:19:43.093750000,-47.0,18.0,42.0,70.0046875,-27.99,6.57804825,33.65625
2021-06-30 13:19:43.101562500,-47.0,18.0,42.0,70.005078125,-24.515,6.5782884375,33.6559375
2021-06-30 13:19:43.109375000,-47.0,18.0,42.0,70.00546875,-21.04,6.578528625000001,33.655625
2021-06-30 13:19:43.117187500,-47.0,18.0,42.0,70.005859375,-17.345,6.5787688125,33.6553125
2021-06-30 13:19:43.125000000,-47.0,18.0,42.0,70.00625,-13.65,6.579009,33.655
2021-06-30 13:19:43.132812500,-47.0,18.0,42.0,70.006640625,-10.095,6.5792491875,33.654687499999994
2021-06-30 13:19:43.140625000,-47.0,18.0,42.0,70.00703125,-6.54,6.579489375,33.654374999999995
2021-06-30 13:19:43.148437500,-47.0,18.0,42.0,70.007421875,-3.33,6.5797295625,33.654062499999995
2021-06-30 13:19:43.156250000,-47.0,18.0,42.0,70.0078125,-0.12,6.57996975,33.653749999999995
2021-06-30 13:19:43.164062500,-47.0,18.0,41.75,70.008203125,2.715,6.5802099375,33.653437499999995
2021-06-30 13:19:43.171875000,-47.0,18.0,41.5,70.00859375,5.55,6.5804501250000005,33.653124999999996
2021-06-30 13:19:43.179687500,-47.0,18.0,41.25,70.008984375,8.045,6.5806903125,33.652812499999996
2021-06-30 13:19:43.187500000,-47.0,18.0,41.0,70.009375,10.54,6.5809305,33.652499999999996
2021-06-30 13:19:43.195312500,-46.75,18.0,41.0,70.009765625,12.719999999999999,6.5811706875,33.6521875
2021-06-30 13:19:43.203125000,-46.5,18.0,41.0,70.01015625,14.9,6.5814108749999995,33.651875
2021-06-30 13:19:43.210937500,-46.25,18.0,41.0,70.010546875,16.735,6.5816510625,33.6515625
2021-06-30 13:19:43.218750000,-46.0,18.0,41.0,70.0109375,18.57,6.58189125,33.65125
2021-06-30 13:19:43.226562500,-46.25,18.0,41.25,70.011328125,19.98,6.5821314375,33.6509375
2021-06-30 13:19:43.234375000,-46.5,18.0,41.5,70.01171875,21.39,6.582371625,33.650625
2021-06-30 13:19:43.242187500,-46.75,18.0,41.75,70.012109375,22.32,6.5826118125,33.6503125
2021-06-30 13:19:43.250000000,-47.0,18.0,42.0,70.0125,23.25,6.582852,33.65
2021-06-30 13:19:43.257812500,-47.0,18.0,41.75,70.012890625,23.705,6.5830921875,33.65
2021-06-30 13:19:43.265625000,-47.0,18.0,41.5,70.01328125,24.16,6.5833323749999995,33.65
2021-06-30 13:19:43.273437500,-47.0,18.0,41.25,70.013671875,24.23,6.5835725625,33.65
2021-06-30 13:19:43.281250000,-47.0,18.0,41.0,70.0140625,24.3,6.58381275,33.65
2021-06-30 13:19:43.289062500,-47.0,18.0,41.25,70.014453125,24.1,6.5840529375,33.65
2021-06-30 13:19:43.296875000,-47.0,18.0,41.5,70.01484375,23.9,6.584293125,33.65
2021-06-30 13:19:43.304687500,-47.0,18.0,41.75,70.015234375,23.555,6.5845333125,33.65
2021-06-30 13:19:43.312500000,-47.0,18.0,42.0,70.015625,23.21,6.5847735,33.65
2021-06-30 13:19:43.320312500,-47.0,18.0,41.75,70.016015625,22.810000000000002,6.5850136875,33.65
2021-06-30 13:19:43.328125000,-47.0,18.0,41.5,70.01640625,22.41,6.585253874999999,33.65
2021-06-30 13:19:43.335937500,-47.0,18.0,41.25,70.016796875,21.990000000000002,6.5854940625,33.65
2021-06-30 13:19:43.343750000,-47.0,18.0,41.0,70.0171875,21.57,6.58573425,33.65
2021-06-30 13:19:43.351562500,-47.0,18.0,41.0,70.017578125,21.17,6.5859744375,33.65
2021-06-30 13:19:43.359375000,-47.0,18.0,41.0,70.01796875,20.77,6.586214625,33.65
2021-06-30 13:19:43.367187500,-47.0,18.0,41.0,70.018359375,20.39,6.5864548124999995,33.65
2021-06-30 13:19:43.375000000,-47.0,18.0,41.0,70.01875,20.01,6.586695,33.65
2021-06-30 13:19:43.382812500,-47.0,18.0,41.0,70.019140625,19.67,6.5869351875,33.65
2021-06-30 13:19:43.390625000,-47.0,18.0,41.0,70.01953125,19.33,6.587175374999999,33.65
2021-06-30 13:19:43.398437500,-47.0,18.0,41.0,70.019921875,19.06,6.5874155624999995,33.65
2021-06-30 13:19:43.406250000,-47.0,18.0,41.0,70.0203125,18.79,6.58765575,33.65
2021-06-30 13:19:43.414062500,-47.0,18.0,41.25,70.020703125,18.595,6.5878959375,33.65
2021-06-30 13:19:43.421875000,-47.0,18.0,41.5,70.02109375,18.4,6.588136125,33.65
2021-06-30 13:19:43.429687500,-47.0,18.0,41.75,70.021484375,18.285,6.588376312499999,33.65
2021-06-30 13:19:43.437500000,-47.0,18.0,42.0,70.021875,18.17,6.5886165,33.65
2021-06-30 13:19:43.445312500,-47.0,18.0,42.0,70.022265625,18.095,6.5888566875,33.65
2021-06-30 13:19:43.453125000,-47.0,18.0,42.0,70.02265625,18.02,6.589096874999999,33.65
2021-06-30 13:19:43.460937500,-47.0,18.0,42.0,70.023046875,17.92,6.589337062499999,33.65
2021-06-30 13:19:43.468750000,-47.0,18.0,42.0,70.0234375,17.82,6.58957725,33.65
2021-06-30 13:19:43.476562500,-47.0,18.0,42.0,70.023828125,17.61,6.5898174375,33.65
2021-06-30 13:19:43.484375000,-47.0,18.0,42.0,70.02421875,17.4,6.590057625,33.65
2021-06-30 13:19:43.492187500,-47.0,18.0,42.0,70.024609375,16.99,6.590297812499999,33.65
2021-06-30 13:19:43.500000000,-47.0,18.0,42.0,70.025,16.58,6.590538,33.65
2021-06-30 13:19:43.507812500,-47.0,18.0,42.0,70.025390625,15.915,6.589897499999999,33.65
2021-06-30 13:19:43.515625000,-47.0,18.0,42.0,70.02578125,15.25,6.589257,33.65
2021-06-30 13:19:43.523437500,-47.0,18.0,42.0,70.026171875,14.32,6.5886165,33.65
2021-06-30 13:19:43.531250000,-47.0,18.0,42.0,70.0265625,13.39,6.587975999999999,33.65
2021-06-30 13:19:43.539062500,-47.0,18.0,42.0,70.02695312499999,12.25,6.5873355,33.65
2021-06-30 13:19:43.546875000,-47.0,18.0,42.0,70.02734375,11.11,6.586695,33.65
2021-06-30 13:19:43.554687500,-47.0,18.0,42.0,70.027734375,9.870000000000001,6.5860544999999995,33.65
2021-06-30 13:19:43.562500000,-47.0,18.0,42.0,70.028125,8.63,6.585414,33.65
2021-06-30 13:19:43.570312500,-47.0,18.0,42.0,70.028515625,7.3950000000000005,6.5847735,33.65
2021-06-30 13:19:43.578125000,-47.0,18.0,42.0,70.02890624999999,6.16,6.584133,33.65
2021-06-30 13:19:43.585937500,-47.0,18.0,42.0,70.029296875,5.03,6.583492499999999,33.65
2021-06-30 13:19:43.593750000,-47.0,18.0,42.0,70.0296875,3.9,6.582852,33.65
2021-06-30 13:19:43.601562500,-47.0,18.0,41.75,70.030078125,2.885,6.5822115,33.65
2021-06-30 13:19:43.609375000,-47.0,18.0,41.5,70.03046875,1.87,6.581570999999999,33.65
2021-06-30 13:19:43.617187500,-47.0,18.0,41.25,70.03085937499999,0.905,6.5809305,33.65
2021-06-30 13:19:43.625000000,-47.0,18.0,41.0,70.03125,-0.06,6.58029,33.65
2021-06-30 13:19:43.632812500,-47.0,18.0,41.0,70.031640625,-1.095,6.5796494999999995,33.65
2021-06-30 13:19:43.640625000,-47.0,18.0,41.0,70.03203125,-2.13,6.579009,33.65
2021-06-30 13:19:43.648437500,-47.0,18.0,41.0,70.032421875,-3.34,6.5783685,33.65
2021-06-30 13:19:43.656250000,-47.0,18.0,41.0,70.03281249999999,-4.55,6.577728,33.65
2021-06-30 13:19:43.664062500,-47.0,18.0,41.0,70.033203125,-5.99,6.5770875,33.65
2021-06-30 13:19:43.671875000,-47.0,18.0,41.0,70.03359375,-7.43,6.576447,33.65
2021-06-30 13:19:43.679687500,-47.0,18.0,41.0,70.033984375,-9.05,6.5758065,33.65
2021-06-30 13:19:43.687500000,-47.0,18.0,41.0,70.034375,-10.67,6.575165999999999,33.65
2021-06-30 13:19:43.695312500,-47.0,18.0,41.0,70.03476562499999,-12.335,6.5745255,33.65
2021-06-30 13:19:43.703125000,-47.0,18.0,41.0,70.03515625,-14.0,6.573885,33.65
2021-06-30 13:19:43.710937500,-47.0,18.0,41.0,70.035546875,-15.565,6.5732444999999995,33.65
2021-06-30 13:19:43.718750000,-47.0,18.0,41.0,70.0359375,-17.13,6.572604,33.65
2021-06-30 13:19:43.726562500,-47.0,18.0,41.25,70.036328125,-18.479999999999997,6.5719635,33.65
2021-06-30 13:19:43.734375000,-47.0,18.0,41.5,70.03671874999999,-19.83,6.571323,33.65
2021-06-30 13:19:43.742187500,-47.0,18.0,41.75,70.037109375,-20.975,6.5706825,33.65
2021-06-30 13:19:43.750000000,-47.0,18.0,42.0,70.0375,-22.12,6.570042,33.65
2021-06-30 13:19:43.757812500,-47.0,18.0,41.75,70.037890625,-23.165,6.5692814375,33.65
2021-06-30 13:19:43.765625000,-47.0,18.0,41.5,70.03828125,-24.21,6.568520875,33.65
2021-06-30 13:19:43.773437500,-47.0,18.0,41.25,70.03867187499999,-25.355,6.5677603125,33.65
2021-06-30 13:19:43.781250000,-47.0,18.0,41.0,70.0390625,-26.5,6.56699975,33.65
2021-06-30 13:19:43.789062500,-47.0,18.0,41.0,70.039453125,-27.965,6.5662391875,33.65
2021-06-30 13:19:43.796875000,-47.0,18.0,41.0,70.03984375,-29.43,6.565478625,33.65
2021-06-30 13:19:43.804687500,-47.0,18.0,41.0,70.040234375,-31.34,6.5647180625,33.65
2021-06-30 13:19:43.812500000,-47.0,18.0,41.0,70.04062499999999,-33.25,6.5639575,33.65
2021-06-30 13:19:43.820312500,-47.0,18.0,41.0,70.041015625,-35.61,6.5631969375,33.65
2021-06-30 13:19:43.828125000,-47.0,18.0,41.0,70.04140625,-37.97,6.562436375,33.65
2021-06-30 13:19:43.835937500,-47.0,18.0,41.0,70.041796875,-40.585,6.5616758125,33.65
2021-06-30 13:19:43.843750000,-47.0,18.0,41.0,70.0421875,-43.2,6.56091525,33.65
2021-06-30 13:19:43.851562500,-47.0,18.0,41.0,70.04257812499999,-45.69,6.5601546875,33.65
2021-06-30 13:19:43.859375000,-47.0,18.0,41.0,70.04296875,-48.18,6.559394125,33.65
2021-06-30 13:19:43.867187500,-47.0,18.0,41.0,70.043359375,-50.065,6.5586335625,33.65
2021-06-30 13:19:43.875000000,-47.0,18.0,41.0,70.04375,-51.95,6.557873,33.65
2021-06-30 13:19:43.882812500,-47.0,18.0,41.0,70.044140625,-52.755,6.5571124375,33.65
2021-06-30 13:19:43.890625000,-47.0,18.0,41.0,70.04453124999999,-53.56,6.556351875,33.65
2021-06-30 13:19:43.898437500,-47.0,18.0,41.0,70.044921875,-52.965,6.5555913125,33.65
2021-06-30 13:19:43.906250000,-47.0,18.0,41.0,70.0453125,-52.37,6.55483075,33.65
2021-06-30 13:19:43.914062500,-47.0,18.0,41.0,70.045703125,-50.33,6.5540701875,33.65
2021-06-30 13:19:43.921875000,-47.0,18.0,41.0,70.04609375,-48.29,6.553309625,33.65
2021-06-30 13:19:43.929687500,-47.0,18.0,41.0,70.04648437499999,-45.065,6.5525490625,33.65
2021-06-30 13:19:43.937500000,-47.0,18.0,41.0,70.046875,-41.84,6.5517885,33.65
2021-06-30 13:19:43.945312500,-47.0,18.0,41.25,70.047265625,-37.88,6.5510279375,33.65
2021-06-30 13:19:43.953125000,-47.0,18.0,41.5,70.04765625,-33.92,6.550267375,33.65
2021-06-30 13:19:43.960937500,-47.0,18.0,41.75,70.048046875,-29.765,6.5495068125,33.65
2021-06-30 13:19:43.968750000,-47.0,18.0,42.0,70.04843749999999,-25.61,6.54874625,33.65
2021-06-30 13:19:43.976562500,-47.0,18.0,41.75,70.048828125,-21.689999999999998,6.5479856875,33.65
2021-06-30 13:19:43.984375000,-47.0,18.0,41.5,70.04921875,-17.77,6.547225125,33.65
2021-06-30 13:19:43.992187500,-47.0,18.0,41.25,70.049609375,-14.315,6.5464645625,33.65
2021-06-30 13:19:44.000000000,-47.0,18.0,41.0,70.05,-10.86,6.545704,33.65
2021-06-30 13:19:44.007812500,-47.0,18.0,41.0,70.05039062499999,-7.895,6.5442629375,33.6503125
2021-06-30 13:19:44.015625000,-47.0,18.0,41.0,70.05078125,-4.93,6.542821875,33.650625
2021-06-30 13:19:44.023437500,-47.0,18.0,41.0,70.051171875,-2.335,6.5413808125,33.6509375
2021-06-30 13:19:44.031250000,-47.0,18.0,41.0,70.0515625,0.26,6.53993975,33.65125
2021-06-30 13:19:44.039062500,-47.0,18.0,41.0,70.051953125,2.6450000000000005,6.5384986875,33.6515625
2021-06-30 13:19:44.046875000,-47.0,18.0,41.0,70.05234374999999,5.03,6.537057625,33.651875
2021-06-30 13:19:44.054687500,-47.0,18.0,41.0,70.052734375,7.300000000000001,6.5356165625,33.6521875
2021-06-30 13:19:44.062500000,-47.0,18.0,41.0,70.053125,9.57,6.5341755,33.652499999999996
2021-06-30 13:19:44.070312500,-47.0,18.0,41.0,70.053515625,11.725000000000001,6.5327344375,33.652812499999996
2021-06-30 13:19:44.078125000,-47.0,18.0,41.0,70.05390625,13.88,6.531293375,33.653124999999996
2021-06-30 13:19:44.085937500,-47.0,18.0,41.0,70.05429687499999,15.844999999999999,6.5298523125,33.653437499999995
2021-06-30 13:19:44.093750000,-47.0,18.0,41.0,70.0546875,17.81,6.5284112499999996,33.653749999999995
2021-06-30 13:19:44.101562500,-47.0,18.0,41.25,70.055078125,19.47,6.5269701875,33.654062499999995
2021-06-30 13:19:44.109375000,-47.0,18.0,41.5,70.05546875,21.13,6.525529125,33.654374999999995
2021-06-30 13:19:44.117187500,-47.0,18.0,41.75,70.055859375,22.384999999999998,6.5240880625,33.654687499999994
2021-06-30 13:19:44.125000000,-47.0,18.0,42.0,70.05624999999999,23.64,6.522647,33.655
2021-06-30 13:19:44.132812500,-47.0,18.0,41.75,70.056640625,24.465,6.5212059375,33.6553125
2021-06-30 13:19:44.140625000,-47.0,18.0,41.5,70.05703125,25.29,6.519764875,33.655625
2021-06-30 13:19:44.148437500,-47.0,18.0,41.25,70.057421875,25.72,6.5183238125,33.6559375
2021-06-30 13:19:44.156250000,-47.0,18.0,41.0,70.0578125,26.15,6.516882750000001,33.65625
2021-06-30 13:19:44.164062500,-47.0,18.0,41.0,70.05820312499999,26.275,6.5154416875,33.6565625
2021-06-30 13:19:44.171875000,-47.0,18.0,41.0,70.05859375,26.4,6.514000625,33.656875
2021-06-30 13:19:44.179687500,-47.0,18.0,41.0,70.058984375,26.33,6.5125595625,33.6571875
2021-06-30 13:19:44.187500000,-47.0,18.0,41.0,70.059375,26.26,6.5111185,33.6575
2021-06-30 13:19:44.195312500,-47.0,18.0,41.0,70.059765625,26.105,6.509677437500001,33.6578125
2021-06-30 13:19:44.203125000,-47.0,18.0,41.0,70.06015624999999,25.95,6.508236375,33.658125
2021-06-30 13:19:44.210937500,-47.0,18.0,41.0,70.060546875,25.799999999999997,6.5067953125,33.6584375
2021-06-30 13:19:44.218750000,-47.0,18.0,41.0,70.0609375,25.65,6.50535425,33.65875
2021-06-30 13:19:44.226562500,-47.0,18.0,41.0,70.061328125,25.555,6.5039131875,33.6590625
2021-06-30 13:19:44.234375000,-47.0,18.0,41.0,70.06171875,25.46,6.502472125000001,33.659375
2021-06-30 13:19:44.242187500,-47.0,18.0,41.0,70.06210937499999,25.445,6.5010310625,33.6596875
2021-06-30 13:19:44.250000000,-47.0,18.0,41.0,70.0625,25.43,6.49959,33.66
2021-06-30 13:19:44.257812500,-47.0,18.0,41.0,70.062890625,25.48,6.498709343750001,33.66
2021-06-30 13:19:44.265625000,-47.0,18.0,41.0,70.06328125,25.53,6.4978286875,33.66
2021-06-30 13:19:44.273437500,-47.0,18.0,41.0,70.063671875,25.575000000000003,6.4969480312500005,33.66
2021-06-30 13:19:44.281250000,-47.0,18.0,41.0,70.06406249999999,25.62,6.496067375000001,33.66
2021-06-30 13:19:44.289062500,-47.0,18.0,41.25,70.064453125,25.57,6.49518671875,33.66
2021-06-30 13:19:44.296875000,-47.0,18.0,41.5,70.06484375,25.52,6.494306062500001,33.66
2021-06-30 13:19:44.304687500,-47.0,18.0,41.75,70.065234375,25.27,6.49342540625,33.66
2021-06-30 13:19:44.312500000,-47.0,18.0,42.0,70.065625,25.02,6.49254475,33.66
2021-06-30 13:19:44.320312500,-47.0,18.0,41.75,70.06601562499999,24.485,6.491664093750001,33.66
2021-06-30 13:19:44.328125000,-47.0,18.0,41.5,70.06640625,23.95,6.4907834375,33.66
2021-06-30 13:19:44.335937500,-47.0,18.0,41.25,70.066796875,23.119999999999997,6.4899027812500005,33.66
2021-06-30 13:19:44.343750000,-47.0,18.0,41.0,70.0671875,22.29,6.489022125,33.66
2021-06-30 13:19:44.351562500,-47.0,18.0,41.0,70.067578125,21.215,6.48814146875,33.66
2021-06-30 13:19:44.359375000,-47.0,18.0,41.0,70.06796874999999,20.14,6.487260812500001,33.66
2021-06-30 13:19:44.367187500,-47.0,18.0,41.0,70.068359375,18.935000000000002,6.48638015625,33.66
2021-06-30 13:19:44.375000000,-47.0,18.0,41.0,70.06875,17.73,6.4854995,33.66
2021-06-30 13:19:44.382812500,-47.0,18.0,41.0,70.069140625,16.495,6.484618843750001,33.66
2021-06-30 13:19:44.390625000,-47.0,18.0,41.0,70.06953125,15.26,6.4837381875,33.66
2021-06-30 13:19:44.398437500,-47.0,18.0,41.0,70.06992187499999,14.055,6.4828575312500005,33.66
2021-06-30 13:19:44.406250000,-47.0,18.0,41.0,70.0703125,12.85,6.481976875000001,33.66
2021-06-30 13:19:44.414062500,-47.0,18.0,41.0,70.070703125,11.645,6.48109621875,33.66
2021-06-30 13:19:44.421875000,-47.0,18.0,41.0,70.07109375,10.44,6.480215562500001,33.66
2021-06-30 13:19:44.429687500,-47.0,18.0,41.0,70.071484375,9.155,6.47933490625,33.66
2021-06-30 13:19:44.437500000,-47.0,18.0,41.0,70.07187499999999,7.87,6.47845425,33.66
2021-06-30 13:19:44.445312500,-47.0,18.0,41.0,70.072265625,6.415,6.477573593750001,33.66
2021-06-30 13:19:44.453125000,-47.0,18.0,41.0,70.07265625,4.96,6.4766929375,33.66
2021-06-30 13:19:44.460937500,-47.0,18.0,41.0,70.073046875,3.29,6.4758122812500005,33.66
2021-06-30 13:19:44.468750000,-47.0,18.0,41.0,70.0734375,1.62,6.474931625,33.66
2021-06-30 13:19:44.476562500,-47.0,18.0,41.0,70.07382812499999,-0.22499999999999987,6.47405096875,33.66
2021-06-30 13:19:44.484375000,-47.0,18.0,41.0,70.07421875,-2.07,6.473170312500001,33.66
2021-06-30 13:19:44.492187500,-47.0,18.0,41.0,70.074609375,-3.9749999999999996,6.47228965625,33.66
2021-06-30 13:19:44.500000000,-47.0,18.0,41.0,70.07499999999999,-5.88,6.471409,33.66
2021-06-30 13:19:44.507812500,-47.0,18.0,41.25,70.075390625,-7.699999999999999,6.4706084375,33.66
2021-06-30 13:19:44.515625000,-47.0,18.0,41.5,70.07578124999999,-9.52,6.469807875000001,33.66
2021-06-30 13:19:44.523437500,-47.0,18.0,41.75,70.076171875,-11.149999999999999,6.4690073125000005,33.66
2021-06-30 13:19:44.531250000,-47.0,18.0,42.0,70.0765625,-12.78,6.46820675,33.66
2021-06-30 13:19:44.539062500,-47.0,18.0,41.75,70.07695312499999,-14.219999999999999,6.4674061875,33.66
2021-06-30 13:19:44.546875000,-47.0,18.0,41.5,70.07734375,-15.66,6.466605625000001,33.66
2021-06-30 13:19:44.554687500,-47.0,18.0,41.25,70.07773437499999,-16.985,6.4658050625,33.66
2021-06-30 13:19:44.562500000,-47.0,18.0,41.0,70.078125,-18.31,6.4650045,33.66
2021-06-30 13:19:44.570312500,-47.0,18.0,41.0,70.078515625,-19.689999999999998,6.464203937500001,33.66
2021-06-30 13:19:44.578125000,-47.0,18.0,41.0,70.07890624999999,-21.07,6.463403375,33.66
2021-06-30 13:19:44.585937500,-47.0,18.0,41.0,70.079296875,-22.685000000000002,6.4626028125,33.66
2021-06-30 13:19:44.593750000,-47.0,18.0,41.0,70.07968749999999,-24.3,6.46180225,33.66
2021-06-30 13:19:44.601562500,-47.0,18.0,41.0,70.080078125,-26.285,6.4610016875000005,33.66
2021-06-30 13:19:44.609375000,-47.0,18.0,41.0,70.08046875,-28.27,6.460201125,33.66
2021-06-30 13:19:44.617187500,-47.0,18.0,41.0,70.08085937499999,-30.625,6.4594005625,33.66
2021-06-30 13:19:44.625000000,-47.0,18.0,41.0,70.08125,-32.98,6.458600000000001,33.66
2021-06-30 13:19:44.632812500,-47.0,18.0,41.0,70.08164062499999,-35.519999999999996,6.4577994375,33.66
2021-06-30 13:19:44.640625000,-47.0,18.0,41.0,70.08203125,-38.06,6.456998875,33.66
2021-06-30 13:19:44.648437500,-47.0,18.0,41.0,70.082421875,-40.41,6.4561983125,33.66
2021-06-30 13:19:44.656250000,-47.0,18.0,41.0,70.08281249999999,-42.76,6.45539775,33.66
2021-06-30 13:19:44.664062500,-47.0,18.0,41.25,70.083203125,-44.435,6.4545971875,33.66
2021-06-30 13:19:44.671875000,-47.0,18.0,41.5,70.08359374999999,-46.11,6.453796625,33.66
2021-06-30 13:19:44.679687500,-47.0,18.0,41.75,70.083984375,-46.655,6.4529960625,33.66
2021-06-30 13:19:44.687500000,-47.0,18.0,42.0,70.084375,-47.2,6.4521955,33.66
2021-06-30 13:19:44.695312500,-47.0,18.0,41.75,70.08476562499999,-46.355000000000004,6.4513949375,33.66
2021-06-30 13:19:44.703125000,-47.0,18.0,41.5,70.08515625,-45.51,6.450594375,33.66
2021-06-30 13:19:44.710937500,-47.0,18.0,41.25,70.08554687499999,-43.315,6.4497938125,33.66
2021-06-30 13:19:44.718750000,-47.0,18.0,41.0,70.0859375,-41.12,6.44899325,33.66
2021-06-30 13:19:44.726562500,-47.0,18.0,41.25,70.086328125,-37.885,6.4481926875,33.66
2021-06-30 13:19:44.734375000,-47.0,18.0,41.5,70.08671874999999,-34.65,6.4473921249999995,33.66
2021-06-30 13:19:44.742187500,-47.0,18.0,41.75,70.087109375,-30.854999999999997,6.4465915625,33.66
2021-06-30 13:19:44.750000000,-47.0,18.0,42.0,70.08749999999999,-27.06,6.445791,33.66
2021-06-30 13:19:44.757812500,-47.0,18.0,41.75,70.087890625,-23.16,6.446071187499999,33.66
2021-06-30 13:19:44.765625000,-47.0,18.0,41.5,70.08828125,-19.26,6.446351375,33.66
2021-06-30 13:19:44.773437500,-47.0,18.0,41.25,70.08867187499999,-15.575000000000001,6.4466315624999995,33.66
2021-06-30 13:19:44.781250000,-47.0,18.0,41.0,70.0890625,-11.89,6.44691175,33.66
2021-06-30 13:19:44.789062500,-47.0,18.0,41.0,70.08945312499999,-8.540000000000001,6.4471919374999995,33.66
2021-06-30 13:19:44.796875000,-47.0,18.0,41.0,70.08984375,-5.19,6.447472125,33.66
2021-06-30 13:19:44.804687500,-47.0,18.0,41.0,70.090234375,-2.165,6.4477523125,33.66
2021-06-30 13:19:44.812500000,-47.0,18.0,41.0,70.09062499999999,0.86,6.4480325,33.66
2021-06-30 13:19:44.820312500,-47.0,18.0,41.0,70.091015625,3.6049999999999995,6.4483126875,33.66
2021-06-30 13:19:44.828125000,-47.0,18.0,41.0,70.09140624999999,6.35,6.448592875,33.66
2021-06-30 13:19:44.835937500,-47.0,18.0,41.0,70.091796875,8.855,6.4488730625,33.66
2021-06-30 13:19:44.843750000,-47.0,18.0,41.0,70.0921875,11.36,6.44915325,33.66
2021-06-30 13:19:44.851562500,-47.0,18.0,41.0,70.09257812499999,13.605,6.4494334375,33.66
2021-06-30 13:19:44.859375000,-47.0,18.0,41.0,70.09296875,15.85,6.449713625,33.66
2021-06-30 13:19:44.867187500,-47.0,18.0,41.0,70.09335937499999,17.78,6.4499938125,33.66
2021-06-30 13:19:44.875000000,-47.0,18.0,41.0,70.09375,19.71,6.450274,33.66
2021-06-30 13:19:44.882812500,-47.0,18.0,41.0,70.094140625,21.28,6.4505541875,33.66
2021-06-30 13:19:44.890625000,-47.0,18.0,41.0,70.09453124999999,22.85,6.4508343749999995,33.66
2021-06-30 13:19:44.898437500,-47.0,18.0,41.0,70.094921875,24.04,6.4511145625,33.66
2021-06-30 13:19:44.906250000,-47.0,18.0,41.0,70.09531249999999,25.23,6.4513947499999995,33.66
2021-06-30 13:19:44.914062500,-47.0,18.0,41.25,70.095703125,26.05,6.4516749375,33.66
2021-06-30 13:19:44.921875000,-47.0,18.0,41.5,70.09609375,26.87,6.451955125,33.66
2021-06-30 13:19:44.929687500,-47.0,18.0,41.75,70.09648437499999,27.37,6.4522353125,33.66
2021-06-30 13:19:44.937500000,-47.0,18.0,42.0,70.096875,27.87,6.4525155,33.66
2021-06-30 13:19:44.945312500,-47.0,18.0,41.75,70.09726562499999,28.12,6.4527956875,33.66
2021-06-30 13:19:44.953125000,-47.0,18.0,41.5,70.09765625,28.37,6.453075875,33.66
2021-06-30 13:19:44.960937500,-47.0,18.0,41.25,70.098046875,28.450000000000003,6.4533560625,33.66
2021-06-30 13:19:44.968750000,-47.0,18.0,41.0,70.09843749999999,28.53,6.45363625,33.66
2021-06-30 13:19:44.976562500,-47.0,18.0,41.0,70.098828125,28.509999999999998,6.4539164375,33.66
2021-06-30 13:19:44.984375000,-47.0,18.0,41.0,70.09921874999999,28.49,6.454196625,33.66
2021-06-30 13:19:44.992187500,-47.0,18.0,41.0,70.099609375,28.415,6.4544768125,33.66
2021-06-30 13:19:45.000000000,-47.0,18.0,41.0,70.1,28.34,6.454757,33.66
2021-06-30 13:19:45.007812500,-47.0,18.0,41.0,70.100234375,28.22,6.4553975,33.6596875
2021-06-30 13:19:45.015625000,-47.0,18.0,41.0,70.10046874999999,28.1,6.4560379999999995,33.659375
2021-06-30 13:19:45.023437500,-47.0,18.0,41.0,70.100703125,27.915,6.4566785,33.6590625
2021-06-30 13:19:45.031250000,-47.0,18.0,41.0,70.1009375,27.73,6.457319,33.65875
2021-06-30 13:19:45.039062500,-47.0,18.0,41.0,70.10117187499999,27.455,6.4579595,33.6584375
2021-06-30 13:19:45.046875000,-47.0,18.0,41.0,70.10140625,27.18,6.4586,33.658125
2021-06-30 13:19:45.054687500,-47.0,18.0,41.0,70.10164062499999,26.805,6.4592405,33.6578125
2021-06-30 13:19:45.062500000,-47.0,18.0,41.0,70.10187499999999,26.43,6.459881,33.6575
2021-06-30 13:19:45.070312500,-47.0,18.0,41.0,70.102109375,25.95,6.4605215,33.6571875
2021-06-30 13:19:45.078125000,-47.0,18.0,41.0,70.10234374999999,25.47,6.461162,33.656875
2021-06-30 13:19:45.085937500,-47.0,18.0,41.0,70.102578125,24.895,6.4618025,33.6565625
2021-06-30 13:19:45.093750000,-47.0,18.0,41.0,70.1028125,24.32,6.462443,33.65625
2021-06-30 13:19:45.101562500,-47.0,18.0,41.0,70.10304687499999,23.64,6.4630835,33.6559375
2021-06-30 13:19:45.109375000,-47.0,18.0,41.0,70.10328125,22.96,6.463724,33.655625
2021-06-30 13:19:45.117187500,-47.0,18.0,41.0,70.103515625,22.175,6.4643645,33.6553125
2021-06-30 13:19:45.125000000,-47.0,18.0,41.0,70.10374999999999,21.39,6.465005,33.655
2021-06-30 13:19:45.132812500,-47.0,18.0,41.25,70.103984375,20.475,6.4656455,33.654687499999994
2021-06-30 13:19:45.140625000,-47.0,18.0,41.5,70.10421875,19.56,6.466286,33.654374999999995
2021-06-30 13:19:45.148437500,-47.0,18.0,41.75,70.10445312499999,18.515,6.4669265000000005,33.654062499999995
2021-06-30 13:19:45.156250000,-47.0,18.0,42.0,70.1046875,17.47,6.467567,33.653749999999995
2021-06-30 13:19:45.164062500,-47.0,18.0,41.75,70.10492187499999,16.294999999999998,6.4682075,33.653437499999995
2021-06-30 13:19:45.171875000,-47.0,18.0,41.5,70.10515625,15.12,6.468848,33.653124999999996
2021-06-30 13:19:45.179687500,-47.0,18.0,41.25,70.105390625,13.829999999999998,6.469488500000001,33.652812499999996
2021-06-30 13:19:45.187500000,-47.0,18.0,41.0,70.10562499999999,12.54,6.470129,33.652499999999996
2021-06-30 13:19:45.195312500,-47.0,18.0,41.0,70.105859375,11.16,6.4707695,33.6521875
2021-06-30 13:19:45.203125000,-47.0,18.0,41.0,70.10609375,9.78,6.4714100000000006,33.651875
2021-06-30 13:19:45.210937500,-47.0,18.0,41.0,70.10632812499999,8.344999999999999,6.4720505,33.6515625
2021-06-30 13:19:45.218750000,-47.0,18.0,41.0,70.1065625,6.91,6.472691,33.65125
2021-06-30 13:19:45.226562500,-47.0,18.0,41.0,70.106796875,5.46,6.4733315000000005,33.6509375
2021-06-30 13:19:45.234375000,-47.0,18.0,41.0,70.10703124999999,4.01,6.473972000000001,33.650625
2021-06-30 13:19:45.242187500,-47.0,18.0,41.0,70.107265625,2.57,6.4746125,33.6503125
2021-06-30 13:19:45.250000000,-47.0,18.0,41.0,70.10749999999999,1.13,6.475253,33.65
2021-06-30 13:19:45.257812500,-47.0,18.0,41.25,70.10773437499999,-0.29000000000000004,6.475693312500001,33.65
2021-06-30 13:19:45.265625000,-47.0,18.0,41.5,70.10796875,-1.71,6.476133625,33.65
2021-06-30 13:19:45.273437500,-47.0,18.0,41.75,70.10820312499999,-3.145,6.4765739375,33.65
2021-06-30 13:19:45.281250000,-47.0,18.0,42.0,70.1084375,-4.58,6.47701425,33.65
2021-06-30 13:19:45.289062500,-47.0,18.0,41.75,70.108671875,-6.0649999999999995,6.4774545625,33.65
2021-06-30 13:19:45.296875000,-47.0,18.0,41.5,70.10890624999999,-7.55,6.4778948750000005,33.65
2021-06-30 13:19:45.304687500,-47.0,18.0,41.25,70.109140625,-9.135,6.4783351875,33.65
2021-06-30 13:19:45.312500000,-47.0,18.0,41.0,70.109375,-10.72,6.4787755,33.65
2021-06-30 13:19:45.320312500,-47.0,18.0,41.0,70.10960937499999,-12.445,6.479215812500001,33.65
2021-06-30 13:19:45.328125000,-47.0,18.0,41.0,70.10984375,-14.17,6.479656125,33.65
2021-06-30 13:19:45.335937500,-47.0,18.0,41.0,70.110078125,-16.06,6.4800964375,33.65
2021-06-30 13:19:45.343750000,-47.0,18.0,41.0,70.11031249999999,-17.95,6.480536750000001,33.65
2021-06-30 13:19:45.351562500,-47.0,18.0,41.0,70.110546875,-20.02,6.4809770625,33.65
2021-06-30 13:19:45.359375000,-47.0,18.0,41.0,70.11078124999999,-22.09,6.481417375,33.65
2021-06-30 13:19:45.367187500,-47.0,18.0,41.0,70.111015625,-24.325,6.4818576875,33.65
2021-06-30 13:19:45.375000000,-47.0,18.0,41.0,70.11125,-26.56,6.482298,33.65
2021-06-30 13:19:45.382812500,-47.0,18.0,41.0,70.11148437499999,-28.9,6.4827383125,33.65
2021-06-30 13:19:45.390625000,-47.0,18.0,41.0,70.11171875,-31.24,6.483178625,33.65
2021-06-30 13:19:45.398437500,-47.0,18.0,41.0,70.111953125,-33.515,6.4836189375,33.65
2021-06-30 13:19:45.406250000,-47.0,18.0,41.0,70.11218749999999,-35.79,6.48405925,33.65
2021-06-30 13:19:45.414062500,-47.0,18.0,41.0,70.112421875,-37.71,6.4844995625,33.65
2021-06-30 13:19:45.421875000,-47.0,18.0,41.0,70.11265625,-39.63,6.484939875,33.65
2021-06-30 13:19:45.429687500,-47.0,18.0,41.0,70.11289062499999,-40.8,6.4853801875,33.65
2021-06-30 13:19:45.437500000,-47.0,18.0,41.0,70.113125,-41.97,6.4858205,33.65
2021-06-30 13:19:45.445312500,-47.0,18.0,41.0,70.113359375,-42.03,6.4862608125,33.65
2021-06-30 13:19:45.453125000,-47.0,18.0,41.0,70.11359374999999,-42.09,6.486701125,33.65
2021-06-30 13:19:45.460937500,-47.0,18.0,41.0,70.113828125,-40.825,6.4871414375,33.65
2021-06-30 13:19:45.468750000,-47.0,18.0,41.0,70.11406249999999,-39.56,6.48758175,33.65
2021-06-30 13:19:45.476562500,-47.0,18.0,41.0,70.114296875,-37.03,6.4880220625,33.65
2021-06-30 13:19:45.484375000,-47.0,18.0,41.0,70.11453125,-34.5,6.488462375,33.65
2021-06-30 13:19:45.492187500,-47.0,18.0,41.0,70.11476562499999,-31.009999999999998,6.4889026874999995,33.65
2021-06-30 13:19:45.500000000,-47.0,18.0,41.0,70.115,-27.52,6.489343,33.65
2021-06-30 13:19:45.507812500,-47.0,18.0,41.0,70.115234375,-23.54,6.489343,33.65
2021-06-30 13:19:45.515625000,-47.0,18.0,41.0,70.11546874999999,-19.56,6.489343,33.65
2021-06-30 13:19:45.523437500,-47.0,18.0,41.0,70.115703125,-15.544999999999998,6.489343,33.65
2021-06-30 13:19:45.531250000,-47.0,18.0,41.0,70.1159375,-11.53,6.489343,33.65
2021-06-30 13:19:45.539062500,-47.0,18.0,41.0,70.11617187499999,-7.795,6.489343,33.65
2021-06-30 13:19:45.546875000,-47.0,18.0,41.0,70.11640625,-4.06,6.489343,33.65
2021-06-30 13:19:45.554687500,-47.0,18.0,41.0,70.11664062499999,-0.7399999999999998,6.489343,33.65
2021-06-30 13:19:45.562500000,-47.0,18.0,41.0,70.116875,2.58,6.489343,33.65
2021-06-30 13:19:45.570312500,-47.0,18.0,41.0,70.117109375,5.5,6.489343,33.65
2021-06-30 13:19:45.578125000,-47.0,18.0,41.0,70.11734374999999,8.42,6.489343,33.65
2021-06-30 13:19:45.585937500,-47.0,18.0,41.0,70.117578125,11.0,6.489343,33.65
2021-06-30 13:19:45.593750000,-47.0,18.0,41.0,70.1178125,13.58,6.489343,33.65
2021-06-30 13:19:45.601562500,-47.0,18.0,41.0,70.11804687499999,15.855,6.489343,33.65
2021-06-30 13:19:45.609375000,-47.0,18.0,41.0,70.11828125,18.13,6.489343,33.65
2021-06-30 13:19:45.617187500,-47.0,18.0,41.0,70.118515625,20.08,6.489343,33.65
2021-06-30 13:19:45.625000000,-47.0,18.0,41.0,70.11874999999999,22.03,6.489343,33.65
2021-06-30 13:19:45.632812500,-47.0,18.0,41.0,70.118984375,23.59,6.489343,33.65
2021-06-30 13:19:45.640625000,-47.0,18.0,41.0,70.11921875,25.15,6.489343,33.65
2021-06-30 13:19:45.648437500,-47.0,18.0,41.0,70.11945312499999,26.265,6.489343,33.65
2021-06-30 13:19:45.656250000,-47.0,18.0,41.0,70.1196875,27.38,6.489343,33.65
2021-06-30 13:19:45.664062500,-47.0,18.0,41.0,70.11992187499999,28.045,6.489343,33.65
2021-06-30 13:19:45.671875000,-47.0,18.0,41.0,70.12015625,28.71,6.489343,33.65
2021-06-30 13:19:45.679687500,-47.0,18.0,41.0,70.120390625,28.975,6.489343,33.65
2021-06-30 13:19:45.687500000,-47.0,18.0,41.0,70.12062499999999,29.24,6.489343,33.65
2021-06-30 13:19:45.695312500,-47.0,18.0,41.0,70.120859375,29.235,6.489343,33.65
2021-06-30 13:19:45.703125000,-47.0,18.0,41.0,70.12109375,29.23,6.489343,33.65
2021-06-30 13:19:45.710937500,-47.0,18.0,41.0,70.12132812499999,29.115000000000002,6.489343,33.65
2021-06-30 13:19:45.718750000,-47.0,18.0,41.0,70.1215625,29.0,6.489343,33.65
2021-06-30 13:19:45.726562500,-47.0,18.0,41.0,70.121796875,28.925,6.489343,33.65
2021-06-30 13:19:45.734375000,-47.0,18.0,41.0,70.12203124999999,28.85,6.489343,33.65
2021-06-30 13:19:45.742187500,-47.0,18.0,41.0,70.122265625,28.9,6.489343,33.65
2021-06-30 13:19:45.750000000,-47.0,18.0,41.0,70.1225,28.95,6.489343,33.65
2021-06-30 13:19:45.757812500,-47.0,18.0,41.25,70.122734375,29.119999999999997,6.48902275,33.65
2021-06-30 13:19:45.765625000,-47.0,18.0,41.5,70.12296875,29.29,6.4887025,33.65
2021-06-30 13:19:45.773437500,-47.0,18.0,41.75,70.12320312499999,29.48,6.48838225,33.65
2021-06-30 13:19:45.781250000,-47.0,18.0,42.0,70.1234375,29.67,6.488062,33.65
2021-06-30 13:19:45.789062500,-47.0,18.0,42.0,70.123671875,29.785,6.48774175,33.65
2021-06-30 13:19:45.796875000,-47.0,18.0,42.0,70.12390624999999,29.9,6.4874215,33.65
2021-06-30 13:19:45.804687500,-47.0,18.0,42.0,70.124140625,29.854999999999997,6.48710125,33.65
2021-06-30 13:19:45.812500000,-47.0,18.0,42.0,70.124375,29.81,6.486781,33.65
2021-06-30 13:19:45.820312500,-47.0,18.0,41.75,70.12460937499999,29.625,6.48646075,33.65
2021-06-30 13:19:45.828125000,-47.0,18.0,41.5,70.12484375,29.44,6.4861405,33.65
2021-06-30 13:19:45.835937500,-47.0,18.0,41.25,70.125078125,29.185000000000002,6.48582025,33.65
2021-06-30 13:19:45.843750000,-47.0,18.0,41.0,70.12531249999999,28.93,6.4855,33.65
2021-06-30 13:19:45.851562500,-47.0,18.0,41.0,70.125546875,28.689999999999998,6.48517975,33.65
2021-06-30 13:19:45.859375000,-47.0,18.0,41.0,70.12578124999999,28.45,6.4848595,33.65
2021-06-30 13:19:45.867187500,-47.0,18.0,41.0,70.126015625,28.25,6.48453925,33.65
2021-06-30 13:19:45.875000000,-47.0,18.0,41.0,70.12625,28.05,6.4842189999999995,33.65
2021-06-30 13:19:45.882812500,-47.0,18.0,41.0,70.12648437499999,27.83,6.48389875,33.65
2021-06-30 13:19:45.890625000,-47.0,18.0,41.0,70.12671875,27.61,6.4835785,33.65
2021-06-30 13:19:45.898437500,-47.0,18.0,41.0,70.126953125,27.255,6.48325825,33.65
2021-06-30 13:19:45.906250000,-47.0,18.0,41.0,70.12718749999999,26.9,6.482938,33.65
2021-06-30 13:19:45.914062500,-47.0,18.0,41.25,70.127421875,26.29,6.48261775,33.65
2021-06-30 13:19:45.921875000,-47.0,18.0,41.5,70.12765625,25.68,6.4822975,33.65
2021-06-30 13:19:45.929687500,-47.0,18.0,41.75,70.12789062499999,24.744999999999997,6.48197725,33.65
2021-06-30 13:19:45.937500000,-47.0,18.0,42.0,70.128125,23.81,6.481657,33.65
2021-06-30 13:19:45.945312500,-47.0,18.0,41.75,70.128359375,22.56,6.48133675,33.65
2021-06-30 13:19:45.953125000,-47.0,18.0,41.5,70.12859375,21.31,6.4810165,33.65
2021-06-30 13:19:45.960937500,-47.0,18.0,41.25,70.128828125,19.869999999999997,6.48069625,33.65
2021-06-30 13:19:45.968750000,-47.0,18.0,41.0,70.12906249999999,18.43,6.480376,33.65
2021-06-30 13:19:45.976562500,-47.0,18.0,41.0,70.129296875,16.945,6.48005575,33.65
2021-06-30 13:19:45.984375000,-47.0,18.0,41.0,70.12953125,15.46,6.4797355,33.65
2021-06-30 13:19:45.992187500,-47.0,18.0,41.0,70.12976562499999,14.07,6.47941525,33.65
2021-06-30 13:19:46.000000000,-47.0,18.0,41.0,70.13,12.68,6.479095,33.65
2021-06-30 13:19:46.007812500,-47.0,18.0,41.0,70.13015625,11.475,6.4786546875,33.6503125
2021-06-30 13:19:46.015625000,-47.0,18.0,41.0,70.1303125,10.27,6.478214375,33.650625
2021-06-30 13:19:46.023437500,-47.0,18.0,41.0,70.13046874999999,9.225,6.4777740625,33.6509375
2021-06-30 13:19:46.031250000,-47.0,18.0,41.0,70.130625,8.18,6.47733375,33.65125
2021-06-30 13:19:46.039062500,-47.0,18.0,41.0,70.13078125,7.205,6.4768934375,33.6515625
2021-06-30 13:19:46.046875000,-47.0,18.0,41.0,70.1309375,6.23,6.476453125,33.651875
2021-06-30 13:19:46.054687500,-47.0,18.0,41.0,70.13109374999999,5.215,6.4760128125,33.6521875
2021-06-30 13:19:46.062500000,-47.0,18.0,41.0,70.13125,4.2,6.4755725,33.652499999999996
2021-06-30 13:19:46.070312500,-47.0,18.0,41.0,70.13140625,3.0300000000000002,6.4751321875,33.652812499999996
2021-06-30 13:19:46.078125000,-47.0,18.0,41.0,70.1315625,1.86,6.4746918749999995,33.653124999999996
2021-06-30 13:19:46.085937500,-47.0,18.0,41.0,70.13171874999999,0.5,6.4742515625,33.653437499999995
2021-06-30 13:19:46.093750000,-47.0,18.0,41.0,70.131875,-0.86,6.47381125,33.653749999999995
2021-06-30 13:19:46.101562500,-47.0,18.0,41.0,70.13203125,-2.38,6.4733709374999995,33.654062499999995
2021-06-30 13:19:46.109375000,-47.0,18.0,41.0,70.1321875,-3.9,6.472930625,33.654374999999995
2021-06-30 13:19:46.117187500,-47.0,18.0,41.0,70.13234374999999,-5.495,6.4724903125,33.654687499999994
2021-06-30 13:19:46.125000000,-47.0,18.0,41.0,70.1325,-7.09,6.472049999999999,33.655
2021-06-30 13:19:46.132812500,-47.0,18.0,41.0,70.13265625,-8.665,6.4716096875,33.6553125
2021-06-30 13:19:46.140625000,-47.0,18.0,41.0,70.1328125,-10.24,6.471169375,33.655625
2021-06-30 13:19:46.148437500,-47.0,18.0,41.0,70.13296875,-11.705,6.4707290625,33.6559375
2021-06-30 13:19:46.156250000,-47.0,18.0,41.0,70.13312499999999,-13.17,6.47028875,33.65625
2021-06-30 13:19:46.164062500,-47.0,18.0,41.0,70.13328125,-14.5,6.4698484375,33.6565625
2021-06-30 13:19:46.171875000,-47.0,18.0,41.0,70.1334375,-15.83,6.469408125,33.656875
2021-06-30 13:19:46.179687500,-47.0,18.0,41.0,70.13359375,-17.035,6.4689678125,33.6571875
2021-06-30 13:19:46.187500000,-47.0,18.0,41.0,70.13374999999999,-18.24,6.4685274999999995,33.6575
2021-06-30 13:19:46.195312500,-47.0,18.0,41.0,70.13390625,-19.395,6.4680871875,33.6578125
2021-06-30 13:19:46.203125000,-47.0,18.0,41.0,70.1340625,-20.55,6.467646875,33.658125
2021-06-30 13:19:46.210937500,-47.0,18.0,41.0,70.13421875,-21.765,6.4672065624999995,33.6584375
2021-06-30 13:19:46.218750000,-47.0,18.0,41.0,70.13437499999999,-22.98,6.46676625,33.65875
2021-06-30 13:19:46.226562500,-47.0,18.0,41.0,70.13453125,-24.4,6.4663259375,33.6590625
2021-06-30 13:19:46.234375000,-47.0,18.0,41.0,70.1346875,-25.82,6.465885624999999,33.659375
2021-06-30 13:19:46.242187500,-47.0,18.0,41.0,70.13484375,-27.6,6.4654453125,33.6596875
2021-06-30 13:19:46.250000000,-47.0,18.0,41.0,70.13499999999999,-29.38,6.465005,33.66
2021-06-30 13:19:46.257812500,-47.0,18.0,41.0,70.13515625,-31.6,6.46464471875,33.66
2021-06-30 13:19:46.265625000,-47.0,18.0,41.0,70.1353125,-33.82,6.4642844375,33.66
2021-06-30 13:19:46.273437500,-47.0,18.0,41.0,70.13546875,-36.4,6.46392415625,33.66
2021-06-30 13:19:46.281250000,-47.0,18.0,41.0,70.135625,-38.98,6.463563875,33.66
2021-06-30 13:19:46.289062500,-47.0,18.0,41.25,70.13578125,-41.629999999999995,6.463203593749999,33.66
2021-06-30 13:19:46.296875000,-47.0,18.0,41.5,70.1359375,-44.28,6.4628433124999995,33.66
2021-06-30 13:19:46.304687500,-47.0,18.0,41.75,70.13609375,-46.519999999999996,6.46248303125,33.66
2021-06-30 13:19:46.312500000,-47.0,18.0,42.0,70.13625,-48.76,6.46212275,33.66
2021-06-30 13:19:46.320312500,-47.0,18.0,42.0,70.13640625,-50.025,6.46176246875,33.66
2021-06-30 13:19:46.328125000,-47.0,18.0,42.0,70.1365625,-51.29,6.4614021875,33.66
2021-06-30 13:19:46.335937500,-47.0,18.0,42.0,70.13671875,-51.125,6.46104190625,33.66
2021-06-30 13:19:46.343750000,-47.0,18.0,42.0,70.136875,-50.96,6.460681624999999,33.66
2021-06-30 13:19:46.351562500,-47.0,18.0,42.0,70.13703124999999,-49.150000000000006,6.46032134375,33.66
2021-06-30 13:19:46.359375000,-47.0,18.0,42.0,70.1371875,-47.34,6.4599610625,33.66
2021-06-30 13:19:46.367187500,-47.0,18.0,42.0,70.13734375,-44.065,6.45960078125,33.66
2021-06-30 13:19:46.375000000,-47.0,18.0,42.0,70.1375,-40.79,6.4592405,33.66
2021-06-30 13:19:46.382812500,-47.0,18.0,41.75,70.13765625,-36.519999999999996,6.45888021875,33.66
2021-06-30 13:19:46.390625000,-47.0,18.0,41.5,70.1378125,-32.25,6.4585199375,33.66
2021-06-30 13:19:46.398437500,-47.0,18.0,41.25,70.13796875,-27.619999999999997,6.45815965625,33.66
2021-06-30 13:19:46.406250000,-47.0,18.0,41.0,70.138125,-22.99,6.4577993750000005,33.66
2021-06-30 13:19:46.414062500,-47.0,18.0,41.25,70.13828125,-18.585,6.45743909375,33.66
2021-06-30 13:19:46.421875000,-47.0,18.0,41.5,70.1384375,-14.18,6.4570788125,33.66
2021-06-30 13:19:46.429687500,-47.0,18.0,41.75,70.13859375,-10.365,6.45671853125,33.66
2021-06-30 13:19:46.437500000,-47.0,18.0,42.0,70.13875,-6.55,6.45635825,33.66
2021-06-30 13:19:46.445312500,-47.0,18.0,41.75,70.13890625,-3.42,6.45599796875,33.66
2021-06-30 13:19:46.453125000,-47.0,18.0,41.5,70.1390625,-0.29,6.4556376875,33.66
2021-06-30 13:19:46.460937500,-47.0,18.0,41.25,70.13921875,2.275,6.4552774062500005,33.66
2021-06-30 13:19:46.468750000,-47.0,18.0,41.0,70.139375,4.84,6.454917125,33.66
2021-06-30 13:19:46.476562500,-47.0,18.0,41.0,70.13953125,7.005,6.45455684375,33.66
2021-06-30 13:19:46.484375000,-47.0,18.0,41.0,70.1396875,9.17,6.4541965625,33.66
2021-06-30 13:19:46.492187500,-47.0,18.0,41.0,70.13984375,11.04,6.45383628125,33.66
2021-06-30 13:19:46.500000000,-47.0,18.0,41.0,70.14,12.91,6.453476,33.66
2021-06-30 13:19:46.507812500,-47.0,18.0,41.0,70.14015625,14.48,6.4528755625,33.66
2021-06-30 13:19:46.515625000,-47.0,18.0,41.0,70.14031250000001,16.05,6.452275125,33.66
2021-06-30 13:19:46.523437500,-47.0,18.0,41.0,70.14046875,17.23,6.451674687500001,33.66
2021-06-30 13:19:46.531250000,-47.0,18.0,41.0,70.140625,18.41,6.4510742500000005,33.66
2021-06-30 13:19:46.539062500,-46.75,18.0,41.25,70.14078125,19.134999999999998,6.4504738125,33.66
2021-06-30 13:19:46.546875000,-46.5,18.0,41.5,70.1409375,19.86,6.449873375,33.66
2021-06-30 13:19:46.554687500,-46.25,18.0,41.75,70.14109375,20.155,6.4492729375,33.66
2021-06-30 13:19:46.562500000,-46.0,18.0,42.0,70.14125,20.45,6.448672500000001,33.66
2021-06-30 13:19:46.570312500,-46.25,18.0,41.75,70.14140625,20.46,6.4480720625000005,33.66
2021-06-30 13:19:46.578125000,-46.5,18.0,41.5,70.1415625,20.47,6.447471625,33.66
2021-06-30 13:19:46.585937500,-46.75,18.0,41.25,70.14171875,20.384999999999998,6.4468711875,33.66
2021-06-30 13:19:46.593750000,-47.0,18.0,41.0,70.141875,20.3,6.44627075,33.66
2021-06-30 13:19:46.601562500,-47.0,18.0,41.0,70.14203125,20.29,6.4456703125,33.66
2021-06-30 13:19:46.609375000,-47.0,18.0,41.0,70.1421875,20.28,6.445069875000001,33.66
2021-06-30 13:19:46.617187500,-47.0,18.0,41.0,70.14234375,20.44,6.4444694375000005,33.66
2021-06-30 13:19:46.625000000,-47.0,18.0,41.0,70.1425,20.6,6.443869,33.66
2021-06-30 13:19:46.632812500,-47.0,18.0,41.0,70.14265625,20.9,6.4432685625,33.66
2021-06-30 13:19:46.640625000,-47.0,18.0,41.0,70.1428125,21.2,6.442668125,33.66
2021-06-30 13:19:46.648437500,-47.0,18.0,41.0,70.14296875000001,21.58,6.442067687500001,33.66
2021-06-30 13:19:46.656250000,-47.0,18.0,41.0,70.143125,21.96,6.4414672500000005,33.66
2021-06-30 13:19:46.664062500,-47.0,18.0,41.0,70.14328125,22.33,6.4408668125,33.66
2021-06-30 13:19:46.671875000,-47.0,18.0,41.0,70.1434375,22.7,6.440266375,33.66
2021-06-30 13:19:46.679687500,-47.0,18.0,41.0,70.14359375000001,23.02,6.4396659375,33.66
2021-06-30 13:19:46.687500000,-47.0,18.0,41.0,70.14375,23.34,6.4390655,33.66
2021-06-30 13:19:46.695312500,-47.0,18.0,41.25,70.14390625,23.615000000000002,6.438465062500001,33.66
2021-06-30 13:19:46.703125000,-47.0,18.0,41.5,70.1440625,23.89,6.4378646250000005,33.66
2021-06-30 13:19:46.710937500,-47.0,18.0,41.75,70.14421875000001,24.130000000000003,6.4372641875,33.66
2021-06-30 13:19:46.718750000,-47.0,18.0,42.0,70.144375,24.37,6.43666375,33.66
2021-06-30 13:19:46.726562500,-46.75,18.0,42.0,70.14453125,24.57,6.4360633125,33.66
2021-06-30 13:19:46.734375000,-46.5,18.0,42.0,70.1446875,24.77,6.435462875000001,33.66
2021-06-30 13:19:46.742187500,-46.25,18.0,42.0,70.14484375,24.865000000000002,6.4348624375000005,33.66
2021-06-30 13:19:46.750000000,-46.0,18.0,42.0,70.14500000000001,24.96,6.434262,33.66
2021-06-30 13:19:46.757812500,-46.25,18.0,41.75,70.14515625,24.855,6.43386171875,33.66
2021-06-30 13:19:46.765625000,-46.5,18.0,41.5,70.1453125,24.75,6.4334614375,33.66
2021-06-30 13:19:46.773437500,-46.75,18.0,41.25,70.14546875,24.335,6.43306115625,33.66
2021-06-30 13:19:46.781250000,-47.0,18.0,41.0,70.14562500000001,23.92,6.432660875,33.66
2021-06-30 13:19:46.789062500,-47.0,18.0,41.25,70.14578125,23.165,6.432260593750001,33.66
2021-06-30 13:19:46.796875000,-47.0,18.0,41.5,70.1459375,22.41,6.4318603125000005,33.66
2021-06-30 13:19:46.804687500,-47.0,18.0,41.75,70.14609375,21.34,6.43146003125,33.66
2021-06-30 13:19:46.812500000,-47.0,18.0,42.0,70.14625000000001,20.27,6.43105975,33.66
2021-06-30 13:19:46.820312500,-47.0,18.0,42.0,70.14640625,19.015,6.43065946875,33.66
2021-06-30 13:19:46.828125000,-47.0,18.0,42.0,70.1465625,17.76,6.4302591875,33.66
2021-06-30 13:19:46.835937500,-47.0,18.0,42.0,70.14671875,16.48,6.42985890625,33.66
2021-06-30 13:19:46.843750000,-47.0,18.0,42.0,70.14687500000001,15.2,6.4294586250000005,33.66
2021-06-30 13:19:46.851562500,-47.0,18.0,41.75,70.14703125,14.02,6.42905834375,33.66
2021-06-30 13:19:46.859375000,-47.0,18.0,41.5,70.1471875,12.84,6.4286580625,33.66
2021-06-30 13:19:46.867187500,-47.0,18.0,41.25,70.14734375,11.809999999999999,6.42825778125,33.66
2021-06-30 13:19:46.875000000,-47.0,18.0,41.0,70.14750000000001,10.78,6.4278575,33.66
2021-06-30 13:19:46.882812500,-47.0,18.0,41.25,70.14765625000001,9.844999999999999,6.42745721875,33.66
2021-06-30 13:19:46.890625000,-47.0,18.0,41.5,70.1478125,8.91,6.4270569375,33.66
2021-06-30 13:19:46.898437500,-47.0,18.0,41.75,70.14796875,7.93,6.42665665625,33.66
2021-06-30 13:19:46.906250000,-47.0,18.0,42.0,70.14812500000001,6.95,6.4262563749999995,33.66
2021-06-30 13:19:46.914062500,-47.0,18.0,41.75,70.14828125000001,5.795,6.42585609375,33.66
2021-06-30 13:19:46.921875000,-47.0,18.0,41.5,70.1484375,4.64,6.4254558125,33.66
2021-06-30 13:19:46.929687500,-47.0,18.0,41.25,70.14859375,3.23,6.42505553125,33.66
2021-06-30 13:19:46.937500000,-47.0,18.0,41.0,70.14875,1.82,6.42465525,33.66
2021-06-30 13:19:46.945312500,-47.0,18.0,41.25,70.14890625000001,0.19500000000000006,6.42425496875,33.66
2021-06-30 13:19:46.953125000,-47.0,18.0,41.5,70.1490625,-1.43,6.4238546874999995,33.66
2021-06-30 13:19:46.960937500,-47.0,18.0,41.75,70.14921875,-3.13,6.423454406249999,33.66
2021-06-30 13:19:46.968750000,-47.0,18.0,42.0,70.149375,-4.83,6.423054125,33.66
2021-06-30 13:19:46.976562500,-46.75,18.0,41.75,70.14953125000001,-6.42,6.42265384375,33.66
2021-06-30 13:19:46.984375000,-46.5,18.0,41.5,70.1496875,-8.01,6.4222535625,33.66
2021-06-30 13:19:46.992187500,-46.25,18.0,41.25,70.14984375,-9.344999999999999,6.42185328125,33.66
2021-06-30 13:19:47.000000000,-46.0,18.0,41.0,70.15,-10.68,6.421453,33.66
2021-06-30 13:19:47.007812500,-46.25,18.0,41.0,70.15023437500001,-11.71,6.4207725,33.6596875
2021-06-30 13:19:47.015625000,-46.5,18.0,41.0,70.15046875,-12.74,6.4200919999999995,33.659375
2021-06-30 13:19:47.023437500,-46.75,18.0,41.0,70.150703125,-13.535,6.4194115,33.6590625
2021-06-30 13:19:47.031250000,-47.0,18.0,41.0,70.15093750000001,-14.33,6.418730999999999,33.65875
2021-06-30 13:19:47.039062500,-47.0,18.0,41.0,70.151171875,-15.035,6.4180505,33.6584375
2021-06-30 13:19:47.046875000,-47.0,18.0,41.0,70.15140625000001,-15.74,6.41737,33.658125
2021-06-30 13:19:47.054687500,-47.0,18.0,41.0,70.151640625,-16.585,6.4166894999999995,33.6578125
2021-06-30 13:19:47.062500000,-47.0,18.0,41.0,70.151875,-17.43,6.416009,33.6575
2021-06-30 13:19:47.070312500,-47.0,18.0,41.0,70.15210937500001,-18.619999999999997,6.415328499999999,33.6571875
2021-06-30 13:19:47.078125000,-47.0,18.0,41.0,70.15234375,-19.81,6.414648,33.656875
2021-06-30 13:19:47.085937500,-47.0,18.0,41.0,70.152578125,-21.509999999999998,6.4139675,33.6565625
2021-06-30 13:19:47.093750000,-47.0,18.0,41.0,70.15281250000001,-23.21,6.4132869999999995,33.65625
2021-06-30 13:19:47.101562500,-47.0,18.0,41.0,70.153046875,-25.44,6.4126065,33.6559375
2021-06-30 13:19:47.109375000,-47.0,18.0,41.0,70.15328125,-27.67,6.411925999999999,33.655625
2021-06-30 13:19:47.117187500,-47.0,18.0,41.0,70.15351562500001,-30.275000000000002,6.4112455,33.6553125
2021-06-30 13:19:47.125000000,-47.0,18.0,41.0,70.15375,-32.88,6.410565,33.655
2021-06-30 13:19:47.132812500,-47.0,18.0,41.0,70.15398437500001,-35.47,6.4098844999999995,33.654687499999994
2021-06-30 13:19:47.140625000,-47.0,18.0,41.0,70.15421875000001,-38.06,6.409204,33.654374999999995
2021-06-30 13:19:47.148437500,-47.0,18.0,41.0,70.154453125,-40.11,6.408523499999999,33.654062499999995
2021-06-30 13:19:47.156250000,-47.0,18.0,41.0,70.15468750000001,-42.16,6.407843,33.653749999999995
2021-06-30 13:19:47.164062500,-47.0,18.0,41.0,70.154921875,-43.114999999999995,6.407162499999999,33.653437499999995
2021-06-30 13:19:47.171875000,-47.0,18.0,41.0,70.15515625,-44.07,6.406482,33.653124999999996
2021-06-30 13:19:47.179687500,-47.0,18.0,41.0,70.15539062500001,-43.535,6.4058015,33.652812499999996
2021-06-30 13:19:47.187500000,-47.0,18.0,41.0,70.155625,-43.0,6.405120999999999,33.652499999999996
2021-06-30 13:19:47.195312500,-47.0,18.0,41.25,70.155859375,-40.9,6.4044405,33.6521875
2021-06-30 13:19:47.203125000,-47.0,18.0,41.5,70.15609375000001,-38.8,6.403759999999999,33.651875
2021-06-30 13:19:47.210937500,-47.0,18.0,41.75,70.156328125,-35.425,6.4030795,33.6515625
2021-06-30 13:19:47.218750000,-47.0,18.0,42.0,70.1565625,-32.05,6.402399,33.65125
2021-06-30 13:19:47.226562500,-47.0,18.0,42.0,70.15679687500001,-27.93,6.401718499999999,33.6509375
2021-06-30 13:19:47.234375000,-47.0,18.0,42.0,70.15703125,-23.81,6.401038,33.650625
2021-06-30 13:19:47.242187500,-47.0,18.0,42.0,70.15726562500001,-19.544999999999998,6.400357499999999,33.6503125
2021-06-30 13:19:47.250000000,-47.0,18.0,42.0,70.1575,-15.28,6.399677,33.65
2021-06-30 13:19:47.257812500,-47.0,18.0,41.75,70.157734375,-11.334999999999999,6.39935675,33.65
2021-06-30 13:19:47.265625000,-47.0,18.0,41.5,70.15796875000001,-7.39,6.399036499999999,33.65
2021-06-30 13:19:47.273437500,-47.0,18.0,41.25,70.158203125,-3.98,6.39871625,33.65
2021-06-30 13:19:47.281250000,-47.0,18.0,41.0,70.1584375,-0.57,6.398396,33.65
2021-06-30 13:19:47.289062500,-47.0,18.0,41.25,70.15867187500001,2.3200000000000003,6.398075749999999,33.65
2021-06-30 13:19:47.296875000,-47.0,18.0,41.5,70.15890625,5.21,6.3977555,33.65
2021-06-30 13:19:47.304687500,-47.0,18.0,41.75,70.159140625,7.6850000000000005,6.39743525,33.65
2021-06-30 13:19:47.312500000,-47.0,18.0,42.0,70.15937500000001,10.16,6.397114999999999,33.65
2021-06-30 13:19:47.320312500,-47.0,18.0,42.0,70.159609375,12.32,6.39679475,33.65
2021-06-30 13:19:47.328125000,-47.0,18.0,42.0,70.15984375000001,14.48,6.3964745,33.65
2021-06-30 13:19:47.335937500,-47.0,18.0,42.0,70.16007812500001,16.32,6.3961542499999995,33.65
2021-06-30 13:19:47.343750000,-47.0,18.0,42.0,70.1603125,18.16,6.395834,33.65
2021-06-30 13:19:47.351562500,-47.0,18.0,41.75,70.16054687500001,19.595,6.39551375,33.65
2021-06-30 13:19:47.359375000,-47.0,18.0,41.5,70.16078125,21.03,6.3951934999999995,33.65
2021-06-30 13:19:47.367187500,-47.0,18.0,41.25,70.161015625,21.96,6.39487325,33.65
2021-06-30 13:19:47.375000000,-47.0,18.0,41.0,70.16125000000001,22.89,6.394553,33.65
2021-06-30 13:19:47.382812500,-47.0,18.0,41.0,70.161484375,23.295,6.39423275,33.65
2021-06-30 13:19:47.390625000,-47.0,18.0,41.0,70.16171875,23.7,6.3939125,33.65
2021-06-30 13:19:47.398437500,-47.0,18.0,41.0,70.16195312500001,23.68,6.393592249999999,33.65
2021-06-30 13:19:47.406250000,-47.0,18.0,41.0,70.1621875,23.66,6.393272,33.65
2021-06-30 13:19:47.414062500,-47.0,18.0,41.0,70.162421875,23.415,6.39295175,33.65
2021-06-30 13:19:47.421875000,-47.0,18.0,41.0,70.16265625000001,23.17,6.392631499999999,33.65
2021-06-30 13:19:47.429687500,-47.0,18.0,41.0,70.162890625,22.905,6.39231125,33.65
2021-06-30 13:19:47.437500000,-47.0,18.0,41.0,70.16312500000001,22.64,6.391991,33.65
2021-06-30 13:19:47.445312500,-47.0,18.0,41.0,70.16335937500001,22.509999999999998,6.391670749999999,33.65
2021-06-30 13:19:47.453125000,-47.0,18.0,41.0,70.16359375,22.38,6.3913505,33.65
2021-06-30 13:19:47.460937500,-47.0,18.0,41.0,70.16382812500001,22.41,6.39103025,33.65
2021-06-30 13:19:47.468750000,-47.0,18.0,41.0,70.1640625,22.44,6.3907099999999994,33.65
2021-06-30 13:19:47.476562500,-47.0,18.0,41.0,70.164296875,22.560000000000002,6.39038975,33.65
2021-06-30 13:19:47.484375000,-47.0,18.0,41.0,70.16453125000001,22.68,6.3900695,33.65
2021-06-30 13:19:47.492187500,-47.0,18.0,41.0,70.164765625,22.795,6.3897492499999995,33.65
2021-06-30 13:19:47.500000000,-47.0,18.0,41.0,70.165,22.91,6.389429,33.65
2021-06-30 13:19:47.507812500,-47.0,18.0,41.0,70.16523437500001,22.93,6.3891488125,33.65
2021-06-30 13:19:47.515625000,-47.0,18.0,41.0,70.16546875,22.95,6.388868625,33.65
2021-06-30 13:19:47.523437500,-47.0,18.0,41.0,70.16570312500001,22.88,6.3885884375,33.65
2021-06-30 13:19:47.531250000,-47.0,18.0,41.0,70.16593750000001,22.81,6.38830825,33.65
2021-06-30 13:19:47.539062500,-47.0,18.0,41.25,70.166171875,22.72,6.3880280625,33.65
2021-06-30 13:19:47.546875000,-47.0,18.0,41.5,70.16640625000001,22.63,6.387747875,33.65
2021-06-30 13:19:47.554687500,-47.0,18.0,41.75,70.166640625,22.604999999999997,6.3874676875,33.65
2021-06-30 13:19:47.562500000,-47.0,18.0,42.0,70.166875,22.58,6.3871875,33.65
2021-06-30 13:19:47.570312500,-47.0,18.0,41.75,70.16710937500001,22.625,6.3869073125,33.65
2021-06-30 13:19:47.578125000,-47.0,18.0,41.5,70.16734375,22.67,6.3866271249999995,33.65
2021-06-30 13:19:47.585937500,-47.0,18.0,41.25,70.167578125,22.705,6.3863469375,33.65
2021-06-30 13:19:47.593750000,-47.0,18.0,41.0,70.16781250000001,22.74,6.3860667499999995,33.65
2021-06-30 13:19:47.601562500,-47.0,18.0,41.0,70.168046875,22.59,6.3857865625,33.65
2021-06-30 13:19:47.609375000,-47.0,18.0,41.0,70.16828125,22.44,6.385506374999999,33.65
2021-06-30 13:19:47.617187500,-47.0,18.0,41.0,70.16851562500001,21.925,6.3852261875,33.65
2021-06-30 13:19:47.625000000,-47.0,18.0,41.0,70.16875,21.41,6.384945999999999,33.65
2021-06-30 13:19:47.632812500,-47.0,18.0,41.0,70.16898437500001,20.445,6.3846658125,33.65
2021-06-30 13:19:47.640625000,-47.0,18.0,41.0,70.16921875000001,19.48,6.384385625,33.65
2021-06-30 13:19:47.648437500,-47.0,18.0,41.0,70.169453125,18.11,6.3841054375,33.65
2021-06-30 13:19:47.656250000,-47.0,18.0,41.0,70.16968750000001,16.74,6.38382525,33.65
2021-06-30 13:19:47.664062500,-47.0,18.0,41.0,70.169921875,15.149999999999999,6.3835450625,33.65
2021-06-30 13:19:47.671875000,-47.0,18.0,41.0,70.17015625,13.56,6.383264875,33.65
2021-06-30 13:19:47.679687500,-47.0,18.0,41.0,70.17039062500001,11.96,6.3829846875,33.65
2021-06-30 13:19:47.687500000,-47.0,18.0,41.0,70.170625,10.36,6.3827045,33.65
2021-06-30 13:19:47.695312500,-47.0,18.0,41.0,70.170859375,8.93,6.3824243124999995,33.65
2021-06-30 13:19:47.703125000,-47.0,18.0,41.0,70.17109375000001,7.5,6.382144125,33.65
2021-06-30 13:19:47.710937500,-47.0,18.0,41.0,70.171328125,6.3100000000000005,6.3818639374999995,33.65
2021-06-30 13:19:47.718750000,-47.0,18.0,41.0,70.17156250000001,5.12,6.38158375,33.65
2021-06-30 13:19:47.726562500,-47.0,18.0,41.0,70.17179687500001,4.11,6.381303562499999,33.65
2021-06-30 13:19:47.734375000,-47.0,18.0,41.0,70.17203125,3.1,6.381023375,33.65
2021-06-30 13:19:47.742187500,-47.0,18.0,41.0,70.17226562500001,2.12,6.380743187499999,33.65
2021-06-30 13:19:47.750000000,-47.0,18.0,41.0,70.17250000000001,1.14,6.380463,33.65
2021-06-30 13:19:47.757812500,-47.0,18.0,41.0,70.172734375,0.039999999999999813,6.38026284375,33.65
2021-06-30 13:19:47.765625000,-47.0,18.0,41.0,70.17296875000001,-1.06,6.3800626875,33.65
2021-06-30 13:19:47.773437500,-47.0,18.0,41.0,70.173203125,-2.39,6.37986253125,33.65
2021-06-30 13:19:47.781250000,-47.0,18.0,41.0,70.1734375,-3.72,6.379662375,33.65
2021-06-30 13:19:47.789062500,-47.0,18.0,41.0,70.17367187500001,-5.28,6.37946221875,33.65
2021-06-30 13:19:47.796875000,-47.0,18.0,41.0,70.17390625,-6.84,6.3792620625,33.65
2021-06-30 13:19:47.804687500,-47.0,18.0,41.0,70.174140625,-8.559999999999999,6.37906190625,33.65
2021-06-30 13:19:47.812500000,-47.0,18.0,41.0,70.17437500000001,-10.28,6.3788617499999996,33.65
2021-06-30 13:19:47.820312500,-47.0,18.0,41.0,70.174609375,-12.035,6.3786615937499995,33.65
2021-06-30 13:19:47.828125000,-47.0,18.0,41.0,70.17484375000001,-13.79,6.3784614374999995,33.65
2021-06-30 13:19:47.835937500,-47.0,18.0,41.0,70.17507812500001,-15.455,6.3782612812499995,33.65
2021-06-30 13:19:47.843750000,-47.0,18.0,41.0,70.1753125,-17.12,6.378061124999999,33.65
2021-06-30 13:19:47.851562500,-47.0,18.0,41.0,70.17554687500001,-18.61,6.377860968749999,33.65
2021-06-30 13:19:47.859375000,-47.0,18.0,41.0,70.17578125,-20.1,6.377660812499999,33.65
2021-06-30 13:19:47.867187500,-47.0,18.0,41.0,70.176015625,-21.425,6.377460656249999,33.65
2021-06-30 13:19:47.875000000,-47.0,18.0,41.0,70.17625000000001,-22.75,6.3772605,33.65
2021-06-30 13:19:47.882812500,-47.0,18.0,41.0,70.176484375,-23.97,6.37706034375,33.65
2021-06-30 13:19:47.890625000,-47.0,18.0,41.0,70.17671875,-25.19,6.3768601875,33.65
2021-06-30 13:19:47.898437500,-47.0,18.0,41.0,70.17695312500001,-26.450000000000003,6.37666003125,33.65
2021-06-30 13:19:47.906250000,-47.0,18.0,41.0,70.1771875,-27.71,6.376459875,33.65
2021-06-30 13:19:47.914062500,-47.0,18.0,41.0,70.17742187500001,-29.175,6.37625971875,33.65
2021-06-30 13:19:47.921875000,-47.0,18.0,41.0,70.17765625000001,-30.64,6.3760595625,33.65
2021-06-30 13:19:47.929687500,-47.0,18.0,41.0,70.177890625,-32.45,6.37585940625,33.65
2021-06-30 13:19:47.937500000,-47.0,18.0,41.0,70.17812500000001,-34.26,6.37565925,33.65
2021-06-30 13:19:47.945312500,-47.0,18.0,41.0,70.17835937500001,-36.5,6.37545909375,33.65
2021-06-30 13:19:47.953125000,-47.0,18.0,41.0,70.17859375,-38.74,6.3752589375,33.65
2021-06-30 13:19:47.960937500,-47.0,18.0,41.0,70.17882812500001,-41.35,6.37505878125,33.65
2021-06-30 13:19:47.968750000,-47.0,18.0,41.0,70.1790625,-43.96,6.374858625,33.65
2021-06-30 13:19:47.976562500,-47.0,18.0,41.0,70.179296875,-46.705,6.37465846875,33.65
2021-06-30 13:19:47.984375000,-47.0,18.0,41.0,70.17953125000001,-49.45,6.3744583125,33.65
2021-06-30 13:19:47.992187500,-47.0,18.0,41.0,70.179765625,-51.905,6.37425815625,33.65
2021-06-30 13:19:48.000000000,-47.0,18.0,41.0,70.18,-54.36,6.374058,33.65
2021-06-30 13:19:48.007812500,-47.0,18.0,41.0,70.18031250000001,-56.004999999999995,6.373777781249999,33.6503125
2021-06-30 13:19:48.015625000,-47.0,18.0,41.0,70.180625,-57.65,6.3734975625,33.650625
2021-06-30 13:19:48.023437500,-47.0,18.0,41.0,70.18093750000001,-57.97,6.3732173437499995,33.6509375
2021-06-30 13:19:48.031250000,-47.0,18.0,41.0,70.18125,-58.29,6.372937125,33.65125
2021-06-30 13:19:48.039062500,-47.0,18.0,41.0,70.18156250000001,-56.985,6.37265690625,33.6515625
2021-06-30 13:19:48.046875000,-47.0,18.0,41.0,70.181875,-55.68,6.3723766875,33.651875
2021-06-30 13:19:48.054687500,-47.0,18.0,41.0,70.18218750000001,-52.765,6.37209646875,33.6521875
2021-06-30 13:19:48.062500000,-47.0,18.0,41.0,70.1825,-49.85,6.37181625,33.652499999999996
2021-06-30 13:19:48.070312500,-47.0,18.0,41.0,70.18281250000001,-45.69,6.37153603125,33.652812499999996
2021-06-30 13:19:48.078125000,-47.0,18.0,41.0,70.183125,-41.53,6.371255812499999,33.653124999999996
2021-06-30 13:19:48.085937500,-47.0,18.0,41.0,70.18343750000001,-36.715,6.37097559375,33.653437499999995
2021-06-30 13:19:48.093750000,-47.0,18.0,41.0,70.18375,-31.9,6.3706953749999995,33.653749999999995
2021-06-30 13:19:48.101562500,-47.0,18.0,41.0,70.18406250000001,-27.075,6.37041515625,33.654062499999995
2021-06-30 13:19:48.109375000,-47.0,18.0,41.0,70.184375,-22.25,6.3701349375,33.654374999999995
2021-06-30 13:19:48.117187500,-47.0,18.0,41.0,70.18468750000001,-17.89,6.36985471875,33.654687499999994
2021-06-30 13:19:48.125000000,-47.0,18.0,41.0,70.185,-13.53,6.3695745,33.655
2021-06-30 13:19:48.132812500,-47.0,18.0,41.0,70.18531250000001,-9.825,6.369294281249999,33.6553125
2021-06-30 13:19:48.140625000,-47.0,18.0,41.0,70.185625,-6.12,6.3690140625,33.655625
2021-06-30 13:19:48.148437500,-47.0,18.0,41.0,70.18593750000001,-3.015,6.368733843749999,33.6559375
2021-06-30 13:19:48.156250000,-47.0,18.0,41.0,70.18625,0.09,6.368453625,33.65625
2021-06-30 13:19:48.164062500,-47.0,18.0,41.0,70.18656250000001,2.8049999999999997,6.3681734062499995,33.6565625
2021-06-30 13:19:48.171875000,-47.0,18.0,41.0,70.186875,5.52,6.3678931875,33.656875
2021-06-30 13:19:48.179687500,-47.0,18.0,41.0,70.18718750000001,8.04,6.36761296875,33.6571875
2021-06-30 13:19:48.187500000,-47.0,18.0,41.0,70.1875,10.56,6.367332749999999,33.6575
2021-06-30 13:19:48.195312500,-47.0,18.0,41.0,70.1878125,12.97,6.36705253125,33.6578125
2021-06-30 13:19:48.203125000,-47.0,18.0,41.0,70.188125,15.38,6.366772312499999,33.658125
2021-06-30 13:19:48.210937500,-47.0,18.0,41.0,70.1884375,17.625,6.36649209375,33.6584375
2021-06-30 13:19:48.218750000,-47.0,18.0,41.0,70.18875,19.87,6.366211874999999,33.65875
2021-06-30 13:19:48.226562500,-47.0,18.0,41.0,70.1890625,21.82,6.36593165625,33.6590625
2021-06-30 13:19:48.234375000,-47.0,18.0,41.0,70.189375,23.77,6.3656514374999995,33.659375
2021-06-30 13:19:48.242187500,-47.0,18.0,41.0,70.1896875,25.29,6.36537121875,33.6596875
2021-06-30 13:19:48.250000000,-47.0,18.0,41.0,70.19,26.81,6.365091,33.66
2021-06-30 13:19:48.257812500,-47.0,18.0,41.0,70.1903125,27.85,6.365211093749999,33.66
2021-06-30 13:19:48.265625000,-47.0,18.0,41.0,70.19062500000001,28.89,6.3653311875,33.66
2021-06-30 13:19:48.273437500,-47.0,18.0,41.0,70.1909375,29.490000000000002,6.3654512812499995,33.66
2021-06-30 13:19:48.281250000,-47.0,18.0,41.0,70.19125000000001,30.09,6.365571375,33.66
2021-06-30 13:19:48.289062500,-47.0,18.0,41.0,70.1915625,30.380000000000003,6.36569146875,33.66
2021-06-30 13:19:48.296875000,-47.0,18.0,41.0,70.19187500000001,30.67,6.365811562499999,33.66
2021-06-30 13:19:48.304687500,-47.0,18.0,41.0,70.1921875,30.79,6.36593165625,33.66
2021-06-30 13:19:48.312500000,-47.0,18.0,41.0,70.19250000000001,30.91,6.36605175,33.66
2021-06-30 13:19:48.320312500,-47.0,18.0,41.0,70.1928125,30.985,6.36617184375,33.66
2021-06-30 13:19:48.328125000,-47.0,18.0,41.0,70.19312500000001,31.06,6.3662919375,33.66
2021-06-30 13:19:48.335937500,-47.0,18.0,41.0,70.1934375,31.14,6.366412031249999,33.66
2021-06-30 13:19:48.343750000,-47.0,18.0,41.0,70.19375000000001,31.22,6.366532125,33.66
2021-06-30 13:19:48.351562500,-47.0,18.0,41.0,70.1940625,31.299999999999997,6.36665221875,33.66
2021-06-30 13:19:48.359375000,-47.0,18.0,41.0,70.19437500000001,31.38,6.3667723125,33.66
2021-06-30 13:19:48.367187500,-47.0,18.0,41.0,70.1946875,31.439999999999998,6.36689240625,33.66
2021-06-30 13:19:48.375000000,-47.0,18.0,41.0,70.19500000000001,31.5,6.3670124999999995,33.66
2021-06-30 13:19:48.382812500,-47.25,18.0,41.0,70.1953125,31.509999999999998,6.36713259375,33.66
2021-06-30 13:19:48.390625000,-47.5,18.0,41.0,70.195625,31.52,6.3672526875,33.66
2021-06-30 13:19:48.398437500,-47.75,18.0,41.0,70.1959375,31.46,6.36737278125,33.66
2021-06-30 13:19:48.406250000,-48.0,18.0,41.0,70.19625,31.4,6.367492875,33.66
2021-06-30 13:19:48.414062500,-48.0,18.0,41.0,70.1965625,31.265,6.3676129687500005,33.66
2021-06-30 13:19:48.421875000,-48.0,18.0,41.0,70.196875,31.13,6.3677330625,33.66
2021-06-30 13:19:48.429687500,-48.0,18.0,41.0,70.1971875,30.905,6.36785315625,33.66
2021-06-30 13:19:48.437500000,-48.0,18.0,41.0,70.1975,30.68,6.36797325,33.66
2021-06-30 13:19:48.445312500,-48.0,18.0,40.75,70.1978125,30.345,6.36809334375,33.66
2021-06-30 13:19:48.453125000,-48.0,18.0,40.5,70.198125,30.01,6.368213437500001,33.66
2021-06-30 13:19:48.460937500,-48.0,18.0,40.25,70.1984375,29.54,6.36833353125,33.66
2021-06-30 13:19:48.468750000,-48.0,18.0,40.0,70.19875,29.07,6.368453625,33.66
2021-06-30 13:19:48.476562500,-48.0,18.0,40.0,70.1990625,28.445,6.3685737187500004,33.66
2021-06-30 13:19:48.484375000,-48.0,18.0,40.0,70.199375,27.82,6.3686938125,33.66
2021-06-30 13:19:48.492187500,-48.0,18.0,40.0,70.1996875,27.05,6.368813906250001,33.66
2021-06-30 13:19:48.500000000,-48.0,18.0,40.0,70.2,26.28,6.368934,33.66
2021-06-30 13:19:48.507812500,-48.0,17.75,40.25,70.20031250000001,25.405,6.369454375,33.66
2021-06-30 13:19:48.515625000,-48.0,17.5,40.5,70.200625,24.53,6.36997475,33.66
2021-06-30 13:19:48.523437500,-48.0,17.25,40.75,70.20093750000001,23.58,6.370495125000001,33.66
2021-06-30 13:19:48.531250000,-48.0,17.0,41.0,70.20125,22.63,6.3710155,33.66
2021-06-30 13:19:48.539062500,-47.75,17.0,41.0,70.20156250000001,21.63,6.371535875,33.66
2021-06-30 13:19:48.546875000,-47.5,17.0,41.0,70.201875,20.63,6.37205625,33.66
2021-06-30 13:19:48.554687500,-47.25,17.0,41.0,70.20218750000001,19.604999999999997,6.372576625000001,33.66
2021-06-30 13:19:48.562500000,-47.0,17.0,41.0,70.2025,18.58,6.3730970000000005,33.66
2021-06-30 13:19:48.570312500,-47.5,17.0,40.5,70.20281250000001,17.54,6.373617375,33.66
2021-06-30 13:19:48.578125000,-48.0,17.0,40.0,70.203125,16.5,6.37413775,33.66
2021-06-30 13:19:48.585937500,-48.5,17.0,39.5,70.2034375,15.469999999999999,6.374658125,33.66
2021-06-30 13:19:48.593750000,-49.0,17.0,39.0,70.20375,14.44,6.3751785000000005,33.66
2021-06-30 13:19:48.601562500,-48.5,16.25,40.0,70.2040625,13.42,6.375698875,33.66
2021-06-30 13:19:48.609375000,-48.0,15.5,41.0,70.204375,12.4,6.37621925,33.66
2021-06-30 13:19:48.617187500,-47.5,14.75,42.0,70.2046875,11.395,6.376739625,33.66
2021-06-30 13:19:48.625000000,-47.0,14.0,43.0,70.205,10.39,6.37726,33.66
2021-06-30 13:19:48.632812500,-47.25,14.0,43.25,70.2053125,9.355,6.377780375,33.66
2021-06-30 13:19:48.640625000,-47.5,14.0,43.5,70.205625,8.32,6.37830075,33.66
2021-06-30 13:19:48.648437500,-47.75,14.0,43.75,70.2059375,7.1899999999999995,6.378821125,33.66
2021-06-30 13:19:48.656250000,-48.0,14.0,44.0,70.20625,6.06,6.3793415,33.66
2021-06-30 13:19:48.664062500,-48.25,14.25,43.25,70.2065625,4.79,6.3798618750000005,33.66
2021-06-30 13:19:48.671875000,-48.5,14.5,42.5,70.206875,3.52,6.38038225,33.66
2021-06-30 13:19:48.679687500,-48.75,14.75,41.75,70.2071875,2.085,6.380902625,33.66
2021-06-30 13:19:48.687500000,-49.0,15.0,41.0,70.2075,0.65,6.381423,33.66
2021-06-30 13:19:48.695312500,-48.75,14.75,41.0,70.2078125,-0.9049999999999999,6.381943375,33.66
2021-06-30 13:19:48.703125000,-48.5,14.5,41.0,70.208125,-2.46,6.38246375,33.66
2021-06-30 13:19:48.710937500,-48.25,14.25,41.0,70.2084375,-4.045,6.382984125,33.66
2021-06-30 13:19:48.718750000,-48.0,14.0,41.0,70.20875,-5.63,6.3835045,33.66
2021-06-30 13:19:48.726562500,-47.75,13.75,41.75,70.2090625,-7.140000000000001,6.384024875,33.66
2021-06-30 13:19:48.734375000,-47.5,13.5,42.5,70.209375,-8.65,6.38454525,33.66
2021-06-30 13:19:48.742187500,-47.25,13.25,43.25,70.2096875,-10.02,6.385065625,33.66
2021-06-30 13:19:48.750000000,-47.0,13.0,44.0,70.21000000000001,-11.39,6.385586,33.66
2021-06-30 13:19:48.757812500,-46.75,12.75,44.25,70.2103125,-12.61,6.38658675,33.66
2021-06-30 13:19:48.765625000,-46.5,12.5,44.5,70.21062500000001,-13.83,6.3875875,33.66
2021-06-30 13:19:48.773437500,-46.25,12.25,44.75,70.2109375,-14.965,6.38858825,33.66
2021-06-30 13:19:48.781250000,-46.0,12.0,45.0,70.21125,-16.1,6.389589,33.66
2021-06-30 13:19:48.789062500,-46.75,12.25,45.0,70.2115625,-17.26,6.39058975,33.66
2021-06-30 13:19:48.796875000,-47.5,12.5,45.0,70.211875,-18.42,6.3915904999999995,33.66
2021-06-30 13:19:48.804687500,-48.25,12.75,45.0,70.2121875,-19.740000000000002,6.39259125,33.66
2021-06-30 13:19:48.812500000,-49.0,13.0,45.0,70.2125,-21.06,6.393592,33.66
2021-06-30 13:19:48.820312500,-48.25,12.75,45.5,70.2128125,-22.685,6.39459275,33.66
2021-06-30 13:19:48.828125000,-47.5,12.5,46.0,70.213125,-24.31,6.3955935,33.66
2021-06-30 13:19:48.835937500,-46.75,12.25,46.5,70.2134375,-26.36,6.39659425,33.66
2021-06-30 13:19:48.843750000,-46.0,12.0,47.0,70.21375,-28.41,6.397595,33.66
2021-06-30 13:19:48.851562500,-44.75,11.5,47.75,70.2140625,-30.924999999999997,6.39859575,33.66
2021-06-30 13:19:48.859375000,-43.5,11.0,48.5,70.214375,-33.44,6.3995964999999995,33.66
2021-06-30 13:19:48.867187500,-42.25,10.5,49.25,70.2146875,-36.325,6.40059725,33.66
2021-06-30 13:19:48.875000000,-41.0,10.0,50.0,70.215,-39.21,6.401598,33.66
2021-06-30 13:19:48.882812500,-41.25,10.0,49.75,70.2153125,-42.195,6.40259875,33.66
2021-06-30 13:19:48.890625000,-41.5,10.0,49.5,70.215625,-45.18,6.4035995,33.66
2021-06-30 13:19:48.898437500,-41.75,10.0,49.25,70.2159375,-47.815,6.40460025,33.66
2021-06-30 13:19:48.906250000,-42.0,10.0,49.0,70.21625,-50.45,6.405601,33.66
2021-06-30 13:19:48.914062500,-42.25,9.0,47.75,70.2165625,-52.215,6.40660175,33.66
2021-06-30 13:19:48.921875000,-42.5,8.0,46.5,70.216875,-53.98,6.407602499999999,33.66
2021-06-30 13:19:48.929687500,-42.75,7.0,45.25,70.2171875,-54.4,6.40860325,33.66
2021-06-30 13:19:48.937500000,-43.0,6.0,44.0,70.2175,-54.82,6.409604,33.66
2021-06-30 13:19:48.945312500,-42.5,5.0,44.0,70.2178125,-53.635000000000005,6.41060475,33.66
2021-06-30 13:19:48.953125000,-42.0,4.0,44.0,70.218125,-52.45,6.4116055,33.66
2021-06-30 13:19:48.960937500,-41.5,3.0,44.0,70.2184375,-49.705,6.41260625,33.66
2021-06-30 13:19:48.968750000,-41.0,2.0,44.0,70.21875,-46.96,6.413607,33.66
2021-06-30 13:19:48.976562500,-41.0,1.75,43.75,70.21906249999999,-43.0,6.41460775,33.66
2021-06-30 13:19:48.984375000,-41.0,1.5,43.5,70.219375,-39.04,6.415608499999999,33.66
2021-06-30 13:19:48.992187500,-41.0,1.25,43.25,70.21968749999999,-34.394999999999996,6.41660925,33.66
2021-06-30 13:19:49.000000000,-41.0,1.0,43.0,70.22,-29.75,6.41761,33.66
2021-06-30 13:19:49.007812500,-41.25,2.75,42.75,70.220078125,-24.994999999999997,6.4190510624999995,33.66
2021-06-30 13:19:49.015625000,-41.5,4.5,42.5,70.22015625,-20.24,6.420492125,33.66
2021-06-30 13:19:49.023437500,-41.75,6.25,42.25,70.220234375,-15.799999999999999,6.4219331875,33.66
2021-06-30 13:19:49.031250000,-42.0,8.0,42.0,70.2203125,-11.36,6.42337425,33.66
2021-06-30 13:19:49.039062500,-43.0,6.75,43.0,70.220390625,-7.4799999999999995,6.4248153125,33.66
2021-06-30 13:19:49.046875000,-44.0,5.5,44.0,70.22046875,-3.6,6.4262563749999995,33.66
2021-06-30 13:19:49.054687500,-45.0,4.25,45.0,70.220546875,-0.30500000000000016,6.4276974375,33.66
2021-06-30 13:19:49.062500000,-46.0,3.0,46.0,70.220625,2.99,6.4291385,33.66
2021-06-30 13:19:49.070312500,-46.25,3.0,46.75,70.220703125,5.795,6.4305795625,33.66
2021-06-30 13:19:49.078125000,-46.5,3.0,47.5,70.22078125,8.6,6.432020625,33.66
2021-06-30 13:19:49.085937500,-46.75,3.0,48.25,70.220859375,11.05,6.4334616874999995,33.66
2021-06-30 13:19:49.093750000,-47.0,3.0,49.0,70.2209375,13.5,6.43490275,33.66
2021-06-30 13:19:49.101562500,-46.25,2.5,49.5,70.22101562499999,15.69,6.4363438125,33.66
2021-06-30 13:19:49.109375000,-45.5,2.0,50.0,70.22109375,17.88,6.437784875,33.66
2021-06-30 13:19:49.117187500,-44.75,1.5,50.5,70.221171875,19.84,6.4392259375,33.66
2021-06-30 13:19:49.125000000,-44.0,1.0,51.0,70.22125,21.8,6.4406669999999995,33.66
2021-06-30 13:19:49.132812500,-43.25,0.5,49.75,70.221328125,23.505000000000003,6.4421080625,33.66
2021-06-30 13:19:49.140625000,-42.5,0.0,48.5,70.22140625,25.21,6.443549125,33.66
2021-06-30 13:19:49.148437500,-41.75,-0.5,47.25,70.221484375,26.62,6.4449901875,33.66
2021-06-30 13:19:49.156250000,-41.0,-1.0,46.0,70.2215625,28.03,6.44643125,33.66
2021-06-30 13:19:49.164062500,-40.75,-0.5,45.5,70.221640625,29.105,6.4478723125,33.66
2021-06-30 13:19:49.171875000,-40.5,0.0,45.0,70.22171875,30.18,6.449313375,33.66
2021-06-30 13:19:49.179687500,-40.25,0.5,44.5,70.221796875,30.925,6.4507544375,33.66
2021-06-30 13:19:49.187500000,-40.0,1.0,44.0,70.221875,31.67,6.4521955,33.66
2021-06-30 13:19:49.195312500,-41.25,1.25,46.25,70.221953125,32.144999999999996,6.4536365625,33.66
2021-06-30 13:19:49.203125000,-42.5,1.5,48.5,70.22203125,32.62,6.455077625,33.66
2021-06-30 13:19:49.210937500,-43.75,1.75,50.75,70.222109375,32.9,6.4565186875,33.66
2021-06-30 13:19:49.218750000,-45.0,2.0,53.0,70.2221875,33.18,6.45795975,33.66
2021-06-30 13:19:49.226562500,-44.5,2.5,53.0,70.222265625,33.36,6.4594008125,33.66
2021-06-30 13:19:49.234375000,-44.0,3.0,53.0,70.22234375,33.54,6.460841875,33.66
2021-06-30 13:19:49.242187500,-43.5,3.5,53.0,70.222421875,33.685,6.4622829375,33.66
2021-06-30 13:19:49.250000000,-43.0,4.0,53.0,70.2225,33.83,6.463724,33.66
2021-06-30 13:19:49.257812500,-42.75,4.25,53.25,70.222578125,33.980000000000004,6.46336371875,33.66
2021-06-30 13:19:49.265625000,-42.5,4.5,53.5,70.22265625,34.13,6.4630034375,33.66
2021-06-30 13:19:49.273437500,-42.25,4.75,53.75,70.222734375,34.305,6.46264315625,33.66
2021-06-30 13:19:49.281250000,-42.0,5.0,54.0,70.2228125,34.48,6.462282875,33.66
2021-06-30 13:19:49.289062500,-40.5,4.75,54.0,70.222890625,34.685,6.46192259375,33.66
2021-06-30 13:19:49.296875000,-39.0,4.5,54.0,70.22296875,34.89,6.4615623125,33.66
2021-06-30 13:19:49.304687500,-37.5,4.25,54.0,70.223046875,35.120000000000005,6.46120203125,33.66
2021-06-30 13:19:49.312500000,-36.0,4.0,54.0,70.223125,35.35,6.46084175,33.66
2021-06-30 13:19:49.320312500,-35.5,3.5,53.75,70.223203125,35.605000000000004,6.46048146875,33.66
2021-06-30 13:19:49.328125000,-35.0,3.0,53.5,70.22328125,35.86,6.4601211874999995,33.66
2021-06-30 13:19:49.335937500,-34.5,2.5,53.25,70.223359375,36.1,6.45976090625,33.66
2021-06-30 13:19:49.343750000,-34.0,2.0,53.0,70.2234375,36.34,6.459400625,33.66
2021-06-30 13:19:49.351562500,-34.0,2.75,53.0,70.223515625,36.505,6.45904034375,33.66
2021-06-30 13:19:49.359375000,-34.0,3.5,53.0,70.22359375,36.67,6.4586800625,33.66
2021-06-30 13:19:49.367187500,-34.0,4.25,53.0,70.223671875,36.644999999999996,6.45831978125,33.66
2021-06-30 13:19:49.375000000,-34.0,5.0,53.0,70.22375,36.62,6.457959499999999,33.66
2021-06-30 13:19:49.382812500,-35.0,5.0,52.75,70.223828125,36.305,6.4575992187499995,33.66
2021-06-30 13:19:49.390625000,-36.0,5.0,52.5,70.22390625,35.99,6.4572389375,33.66
2021-06-30 13:19:49.398437500,-37.0,5.0,52.25,70.223984375,35.32,6.45687865625,33.66
2021-06-30 13:19:49.406250000,-38.0,5.0,52.0,70.2240625,34.65,6.456518375,33.66
2021-06-30 13:19:49.414062500,-37.5,5.0,52.5,70.224140625,33.644999999999996,6.45615809375,33.66
2021-06-30 13:19:49.421875000,-37.0,5.0,53.0,70.22421875,32.64,6.4557978125,33.66
2021-06-30 13:19:49.429687500,-36.5,5.0,53.5,70.22429687500001,31.41,6.455437531249999,33.66
2021-06-30 13:19:49.437500000,-36.0,5.0,54.0,70.224375,30.18,6.4550772499999995,33.66
2021-06-30 13:19:49.445312500,-36.75,5.25,53.25,70.224453125,28.88,6.45471696875,33.66
2021-06-30 13:19:49.453125000,-37.5,5.5,52.5,70.22453125,27.58,6.4543566875,33.66
2021-06-30 13:19:49.460937500,-38.25,5.75,51.75,70.224609375,26.35,6.45399640625,33.66
2021-06-30 13:19:49.468750000,-39.0,6.0,51.0,70.2246875,25.12,6.453636125,33.66
2021-06-30 13:19:49.476562500,-38.5,6.0,51.5,70.224765625,24.025,6.453275843749999,33.66
2021-06-30 13:19:49.484375000,-38.0,6.0,52.0,70.22484375,22.93,6.452915562499999,33.66
2021-06-30 13:19:49.492187500,-37.5,6.0,52.5,70.224921875,21.925,6.4525552812499996,33.66
2021-06-30 13:19:49.500000000,-37.0,6.0,53.0,70.225,20.92,6.452195,33.66
2021-06-30 13:19:49.507812500,-37.0,5.75,53.0,70.225078125,19.89,6.4506338437499995,33.66
2021-06-30 13:19:49.515625000,-37.0,5.5,53.0,70.22515625,18.86,6.449072687499999,33.66
2021-06-30 13:19:49.523437500,-37.0,5.25,53.0,70.225234375,17.674999999999997,6.44751153125,33.66
2021-06-30 13:19:49.531250000,-37.0,5.0,53.0,70.2253125,16.49,6.445950375,33.66
2021-06-30 13:19:49.539062500,-38.0,4.5,51.75,70.225390625,15.105,6.44438921875,33.66
2021-06-30 13:19:49.546875000,-39.0,4.0,50.5,70.22546875,13.72,6.442828062499999,33.66
2021-06-30 13:19:49.554687500,-40.0,3.5,49.25,70.225546875,12.18,6.44126690625,33.66
2021-06-30 13:19:49.562500000,-41.0,3.0,48.0,70.22562500000001,10.64,6.43970575,33.66
2021-06-30 13:19:49.570312500,-40.5,3.75,49.0,70.225703125,9.095,6.43814459375,33.66
2021-06-30 13:19:49.578125000,-40.0,4.5,50.0,70.22578125,7.55,6.4365834374999995,33.66
2021-06-30 13:19:49.585937500,-39.5,5.25,51.0,70.225859375,6.135,6.435022281249999,33.66
2021-06-30 13:19:49.593750000,-39.0,6.0,52.0,70.2259375,4.72,6.433461125,33.66
2021-06-30 13:19:49.601562500,-38.0,5.75,52.25,70.226015625,3.505,6.43189996875,33.66
2021-06-30 13:19:49.609375000,-37.0,5.5,52.5,70.22609375,2.29,6.4303388125,33.66
2021-06-30 13:19:49.617187500,-36.0,5.25,52.75,70.226171875,1.23,6.428777656249999,33.66
2021-06-30 13:19:49.625000000,-35.0,5.0,53.0,70.22625000000001,0.17,6.4272165,33.66
2021-06-30 13:19:49.632812500,-35.75,5.0,53.25,70.22632812500001,-0.87,6.42565534375,33.66
2021-06-30 13:19:49.640625000,-36.5,5.0,53.5,70.22640625,-1.91,6.4240941875,33.66
2021-06-30 13:19:49.648437500,-37.25,5.0,53.75,70.226484375,-3.1049999999999995,6.4225330312499995,33.66
2021-06-30 13:19:49.656250000,-38.0,5.0,54.0,70.2265625,-4.3,6.420971874999999,33.66
2021-06-30 13:19:49.664062500,-37.75,5.0,54.25,70.226640625,-5.765000000000001,6.41941071875,33.66
2021-06-30 13:19:49.671875000,-37.5,5.0,54.5,70.22671875,-7.23,6.4178495625,33.66
2021-06-30 13:19:49.679687500,-37.25,5.0,54.75,70.226796875,-9.004999999999999,6.41628840625,33.66
2021-06-30 13:19:49.687500000,-37.0,5.0,55.0,70.226875,-10.78,6.414727249999999,33.66
2021-06-30 13:19:49.695312500,-38.0,5.25,55.5,70.22695312500001,-12.76,6.413166093749999,33.66
2021-06-30 13:19:49.703125000,-39.0,5.5,56.0,70.22703125,-14.74,6.4116049375,33.66
2021-06-30 13:19:49.710937500,-40.0,5.75,56.5,70.227109375,-16.765,6.41004378125,33.66
2021-06-30 13:19:49.718750000,-41.0,6.0,57.0,70.2271875,-18.79,6.4084826249999995,33.66
2021-06-30 13:19:49.726562500,-41.5,6.0,55.75,70.227265625,-20.605,6.406921468749999,33.66
2021-06-30 13:19:49.734375000,-42.0,6.0,54.5,70.22734375,-22.42,6.4053603125,33.66
2021-06-30 13:19:49.742187500,-42.5,6.0,53.25,70.227421875,-23.775,6.40379915625,33.66
2021-06-30 13:19:49.750000000,-43.0,6.0,52.0,70.2275,-25.13,6.402238,33.66
2021-06-30 13:19:49.757812500,-43.75,5.5,51.0,70.22757812500001,-25.79,6.40207790625,33.66
2021-06-30 13:19:49.765625000,-44.5,5.0,50.0,70.22765625000001,-26.45,6.4019178125,33.66
2021-06-30 13:19:49.773437500,-45.25,4.5,49.0,70.227734375,-26.28,6.40175771875,33.66
2021-06-30 13:19:49.781250000,-46.0,4.0,48.0,70.2278125,-26.11,6.401597625,33.66
2021-06-30 13:19:49.789062500,-44.0,4.0,48.0,70.227890625,-25.085,6.40143753125,33.66
2021-06-30 13:19:49.796875000,-42.0,4.0,48.0,70.22796875,-24.06,6.4012774375,33.66
2021-06-30 13:19:49.804687500,-40.0,4.0,48.0,70.228046875,-22.295,6.40111734375,33.66
2021-06-30 13:19:49.812500000,-38.0,4.0,48.0,70.228125,-20.53,6.400957249999999,33.66
2021-06-30 13:19:49.820312500,-41.25,3.75,45.25,70.22820312500001,-18.240000000000002,6.4007971562499995,33.66
