TimeStamp,empatica.acc.x,empatica.acc.y,empatica.acc.z,empatica.hr,empatica.bvp,empatica.eda,empatica.temp
2021-06-25 11:12:46.367187500,-39.0,-7.0,51.0,75.08953125000001,19.985,2.0935848125,238.65
2021-06-25 11:12:46.375000000,-39.0,-7.0,51.0,75.0925,22.21,2.093825,238.65
2021-06-25 11:12:46.382812500,-39.0,-7.0,51.0,75.09546875,23.62,2.0940651875,238.65
2021-06-25 11:12:46.390625000,-39.0,-7.0,51.0,75.0984375,25.03,2.0943053750000002,238.65
2021-06-25 11:12:46.398437500,-39.0,-7.0,51.0,75.10140625,25.665,2.0945455625,238.65
2021-06-25 11:12:46.406250000,-39.0,-7.0,51.0,75.104375,26.3,2.0947857500000002,238.65
2021-06-25 11:12:46.414062500,-39.0,-7.0,51.0,75.10734375,26.25,2.0950259375,238.65
2021-06-25 11:12:46.421875000,-39.0,-7.0,51.0,75.1103125,26.2,2.095266125,238.65
2021-06-25 11:12:46.429687500,-39.0,-7.0,51.0,75.11328125,25.625,2.0955063125,238.65
2021-06-25 11:12:46.437500000,-39.0,-7.0,51.0,75.11625000000001,25.05,2.0957465,238.65
2021-06-25 11:12:46.445312500,-39.0,-7.0,51.0,75.11921875,24.189999999999998,2.0959866875,238.65
2021-06-25 11:12:46.453125000,-39.0,-7.0,51.0,75.1221875,23.33,2.096226875,238.65
2021-06-25 11:12:46.460937500,-39.0,-7.0,51.0,75.12515625,22.46,2.0964670625,238.65
2021-06-25 11:12:46.468750000,-39.0,-7.0,51.0,75.128125,21.59,2.09670725,238.65
2021-06-25 11:12:46.476562500,-39.0,-7.0,51.0,75.13109375,20.92,2.0969474375,238.65
2021-06-25 11:12:46.484375000,-39.0,-7.0,51.0,75.1340625,20.25,2.097187625,238.65
2021-06-25 11:12:46.492187500,-39.0,-7.0,51.0,75.13703125,19.91,2.0974278125,238.65
2021-06-25 11:12:46.500000000,-39.0,-7.0,51.0,75.14,19.57,2.097668,238.65
2021-06-25 11:12:46.507812500,-39.0,-7.0,50.75,75.14296875,19.545,2.098148375,238.65
2021-06-25 11:12:46.515625000,-39.0,-7.0,50.5,75.1459375,19.52,2.09862875,238.65
2021-06-25 11:12:46.523437500,-39.0,-7.0,50.25,75.14890625,19.715,2.099109125,238.65
2021-06-25 11:12:46.531250000,-39.0,-7.0,50.0,75.151875,19.91,2.0995895,238.65
2021-06-25 11:12:46.539062500,-38.75,-7.0,50.5,75.15484375,20.16,2.100069875,238.65
2021-06-25 11:12:46.546875000,-38.5,-7.0,51.0,75.1578125,20.41,2.10055025,238.65
2021-06-25 11:12:46.554687500,-38.25,-7.0,51.5,75.16078125,20.525,2.101030625,238.65
2021-06-25 11:12:46.562500000,-38.0,-7.0,52.0,75.16375,20.64,2.101511,238.65
2021-06-25 11:12:46.570312500,-38.25,-7.0,51.75,75.16671875,20.43,2.101991375,238.65
2021-06-25 11:12:46.578125000,-38.5,-7.0,51.5,75.1696875,20.22,2.10247175,238.65
2021-06-25 11:12:46.585937500,-38.75,-7.0,51.25,75.17265625,19.575,2.102952125,238.65
2021-06-25 11:12:46.593750000,-39.0,-7.0,51.0,75.175625,18.93,2.1034325,238.65
2021-06-25 11:12:46.601562500,-39.0,-7.0,51.0,75.17859375,17.865000000000002,2.103912875,238.65
2021-06-25 11:12:46.609375000,-39.0,-7.0,51.0,75.1815625,16.8,2.1043932499999998,238.65
2021-06-25 11:12:46.617187500,-39.0,-7.0,51.0,75.18453125,15.455,2.1048736249999997,238.65
2021-06-25 11:12:46.625000000,-39.0,-7.0,51.0,75.1875,14.11,2.105354,238.65
2021-06-25 11:12:46.632812500,-39.0,-7.0,51.0,75.19046875,12.73,2.105834375,238.65
2021-06-25 11:12:46.640625000,-39.0,-7.0,51.0,75.1934375,11.35,2.10631475,238.65
2021-06-25 11:12:46.648437500,-39.0,-7.0,51.0,75.19640625,10.17,2.106795125,238.65
2021-06-25 11:12:46.656250000,-39.0,-7.0,51.0,75.199375,8.99,2.1072755,238.65
2021-06-25 11:12:46.664062500,-39.0,-7.0,51.0,75.20234375,8.120000000000001,2.107755875,238.65
2021-06-25 11:12:46.671875000,-39.0,-7.0,51.0,75.2053125,7.25,2.10823625,238.65
2021-06-25 11:12:46.679687500,-39.0,-7.0,51.0,75.20828125,6.625,2.108716625,238.65
2021-06-25 11:12:46.687500000,-39.0,-7.0,51.0,75.21125,6.0,2.109197,238.65
2021-06-25 11:12:46.695312500,-39.0,-7.0,51.0,75.21421875,5.404999999999999,2.109677375,238.65
2021-06-25 11:12:46.703125000,-39.0,-7.0,51.0,75.2171875,4.81,2.11015775,238.65
2021-06-25 11:12:46.710937500,-39.0,-7.0,51.0,75.22015625,4.005,2.110638125,238.65
2021-06-25 11:12:46.718750000,-39.0,-7.0,51.0,75.223125,3.2,2.1111185,238.65
2021-06-25 11:12:46.726562500,-38.75,-7.0,51.0,75.22609375,2.02,2.111598875,238.65
2021-06-25 11:12:46.734375000,-38.5,-7.0,51.0,75.2290625,0.84,2.11207925,238.65
2021-06-25 11:12:46.742187500,-38.25,-7.0,51.0,75.23203125,-0.7399999999999999,2.112559625,238.65
2021-06-25 11:12:46.750000000,-38.0,-7.0,51.0,75.235,-2.32,2.11304,238.65
2021-06-25 11:12:46.757812500,-38.25,-7.0,51.0,75.23796875,-4.26,2.1129199062499997,238.65
2021-06-25 11:12:46.765625000,-38.5,-7.0,51.0,75.2409375,-6.2,2.1127998124999996,238.65
2021-06-25 11:12:46.773437500,-38.75,-7.0,51.0,75.24390625,-8.47,2.11267971875,238.65
2021-06-25 11:12:46.781250000,-39.0,-7.0,51.0,75.246875,-10.74,2.112559625,238.65
2021-06-25 11:12:46.789062500,-39.0,-7.0,51.0,75.24984375,-13.355,2.1124395312499997,238.65
2021-06-25 11:12:46.796875000,-39.0,-7.0,51.0,75.2528125,-15.97,2.1123194375,238.65
2021-06-25 11:12:46.804687500,-39.0,-7.0,51.0,75.25578125,-18.895,2.11219934375,238.65
2021-06-25 11:12:46.812500000,-39.0,-7.0,51.0,75.25874999999999,-21.82,2.11207925,238.65
2021-06-25 11:12:46.820312500,-38.75,-7.0,51.0,75.26171875,-24.835,2.1119591562499997,238.65
2021-06-25 11:12:46.828125000,-38.5,-7.0,51.0,75.2646875,-27.85,2.1118390624999996,238.65
2021-06-25 11:12:46.835937500,-38.25,-7.0,51.0,75.26765625,-30.435000000000002,2.11171896875,238.65
2021-06-25 11:12:46.843750000,-38.0,-7.0,51.0,75.270625,-33.02,2.111598875,238.65
2021-06-25 11:12:46.851562500,-38.25,-7.0,51.0,75.27359375,-34.425,2.1114787812499998,238.65
2021-06-25 11:12:46.859375000,-38.5,-7.0,51.0,75.2765625,-35.83,2.1113586875,238.65
2021-06-25 11:12:46.867187500,-38.75,-7.0,51.0,75.27953125,-35.349999999999994,2.11123859375,238.65
2021-06-25 11:12:46.875000000,-39.0,-7.0,51.0,75.2825,-34.87,2.1111185,238.65
2021-06-25 11:12:46.882812500,-39.0,-6.75,51.0,75.28546874999999,-32.205,2.11099840625,238.65
2021-06-25 11:12:46.890625000,-39.0,-6.5,51.0,75.2884375,-29.54,2.1108783124999997,238.65
2021-06-25 11:12:46.898437500,-39.0,-6.25,51.0,75.29140625,-24.975,2.11075821875,238.65
2021-06-25 11:12:46.906250000,-39.0,-6.0,51.0,75.294375,-20.41,2.110638125,238.65
2021-06-25 11:12:46.914062500,-39.0,-6.25,51.0,75.29734375,-14.8,2.11051803125,238.65
2021-06-25 11:12:46.921875000,-39.0,-6.5,51.0,75.3003125,-9.19,2.1103979375,238.65
2021-06-25 11:12:46.929687500,-39.0,-6.75,51.0,75.30328125,-3.62,2.11027784375,238.65
2021-06-25 11:12:46.937500000,-39.0,-7.0,51.0,75.30625,1.95,2.11015775,238.65
2021-06-25 11:12:46.945312500,-39.0,-7.0,51.0,75.30921875,6.5600000000000005,2.11003765625,238.65
2021-06-25 11:12:46.953125000,-39.0,-7.0,51.0,75.3121875,11.17,2.1099175624999997,238.65
2021-06-25 11:12:46.960937500,-39.0,-7.0,51.0,75.31515625,14.395,2.10979746875,238.65
2021-06-25 11:12:46.968750000,-39.0,-7.0,51.0,75.318125,17.62,2.109677375,238.65
2021-06-25 11:12:46.976562500,-39.0,-7.0,51.0,75.32109375,19.509999999999998,2.10955728125,238.65
2021-06-25 11:12:46.984375000,-39.0,-7.0,51.0,75.3240625,21.4,2.1094371875,238.65
2021-06-25 11:12:46.992187500,-39.0,-7.0,51.0,75.32703125,22.325,2.10931709375,238.65
2021-06-25 11:12:47.000000000,-39.0,-7.0,51.0,75.33,23.25,2.109197,238.65
2021-06-25 11:12:47.007812500,-39.0,-7.0,51.0,75.332890625,23.59,2.10967740625,238.65
2021-06-25 11:12:47.015625000,-39.0,-7.0,51.0,75.33578125,23.93,2.1101578125,238.65
2021-06-25 11:12:47.023437500,-39.0,-7.0,51.0,75.338671875,23.9,2.11063821875,238.65
2021-06-25 11:12:47.031250000,-39.0,-7.0,51.0,75.3415625,23.87,2.111118625,238.65
2021-06-25 11:12:47.039062500,-39.0,-7.0,51.0,75.344453125,23.47,2.11159903125,238.65
2021-06-25 11:12:47.046875000,-39.0,-7.0,51.0,75.34734375,23.07,2.1120794375,238.65
2021-06-25 11:12:47.054687500,-39.0,-7.0,51.0,75.350234375,22.2,2.11255984375,238.65
2021-06-25 11:12:47.062500000,-39.0,-7.0,51.0,75.353125,21.33,2.11304025,238.65
2021-06-25 11:12:47.070312500,-39.0,-7.0,51.0,75.356015625,19.945,2.11352065625,238.65
2021-06-25 11:12:47.078125000,-39.0,-7.0,51.0,75.35890625,18.56,2.1140010625,238.65
2021-06-25 11:12:47.085937500,-39.0,-7.0,51.0,75.361796875,16.794999999999998,2.1144814687499998,238.65
2021-06-25 11:12:47.093750000,-39.0,-7.0,51.0,75.3646875,15.03,2.114961875,238.65
2021-06-25 11:12:47.101562500,-39.0,-7.0,51.0,75.367578125,13.165,2.11544228125,238.65
2021-06-25 11:12:47.109375000,-39.0,-7.0,51.0,75.37046875,11.3,2.1159226875,238.65
2021-06-25 11:12:47.117187500,-39.0,-7.0,51.0,75.37335937499999,9.675,2.11640309375,238.65
2021-06-25 11:12:47.125000000,-39.0,-7.0,51.0,75.37625,8.05,2.1168835,238.65
2021-06-25 11:12:47.132812500,-39.0,-7.0,51.0,75.379140625,6.955,2.11736390625,238.65
2021-06-25 11:12:47.140625000,-39.0,-7.0,51.0,75.38203125,5.86,2.1178443125,238.65
2021-06-25 11:12:47.148437500,-39.0,-7.0,51.0,75.384921875,5.405,2.11832471875,238.65
2021-06-25 11:12:47.156250000,-39.0,-7.0,51.0,75.3878125,4.95,2.1188051249999997,238.65
2021-06-25 11:12:47.164062500,-39.0,-7.0,51.0,75.390703125,5.050000000000001,2.11928553125,238.65
2021-06-25 11:12:47.171875000,-39.0,-7.0,51.0,75.39359375,5.15,2.1197659375,238.65
2021-06-25 11:12:47.179687500,-39.0,-7.0,51.0,75.396484375,5.5600000000000005,2.12024634375,238.65
2021-06-25 11:12:47.187500000,-39.0,-7.0,51.0,75.39937499999999,5.97,2.1207267499999998,238.65
2021-06-25 11:12:47.195312500,-39.0,-7.0,51.0,75.402265625,6.355,2.1212071562499997,238.65
2021-06-25 11:12:47.203125000,-39.0,-7.0,51.0,75.40515625,6.74,2.1216875625,238.65
2021-06-25 11:12:47.210937500,-39.0,-7.0,51.0,75.408046875,6.86,2.12216796875,238.65
2021-06-25 11:12:47.218750000,-39.0,-7.0,51.0,75.4109375,6.98,2.122648375,238.65
2021-06-25 11:12:47.226562500,-38.75,-7.0,51.0,75.413828125,6.7,2.1231287812499997,238.65
2021-06-25 11:12:47.234375000,-38.5,-7.0,51.0,75.41671875,6.42,2.1236091875,238.65
2021-06-25 11:12:47.242187500,-38.25,-7.0,51.0,75.419609375,5.755,2.12408959375,238.65
2021-06-25 11:12:47.250000000,-38.0,-7.0,51.0,75.4225,5.09,2.12457,238.65
2021-06-25 11:12:47.257812500,-38.25,-7.0,51.0,75.425390625,4.15,2.1242096875,238.65
2021-06-25 11:12:47.265625000,-38.5,-7.0,51.0,75.42828125,3.21,2.123849375,238.65
2021-06-25 11:12:47.273437500,-38.75,-7.0,51.0,75.431171875,2.085,2.1234890625,238.65
2021-06-25 11:12:47.281250000,-39.0,-7.0,51.0,75.4340625,0.96,2.12312875,238.65
2021-06-25 11:12:47.289062500,-39.0,-7.0,51.0,75.436953125,-0.31499999999999995,2.1227684375,238.65
2021-06-25 11:12:47.296875000,-39.0,-7.0,51.0,75.43984375,-1.59,2.1224081249999998,238.65
2021-06-25 11:12:47.304687500,-39.0,-7.0,51.0,75.442734375,-3.05,2.1220478125,238.65
2021-06-25 11:12:47.312500000,-39.0,-7.0,51.0,75.445625,-4.51,2.1216874999999997,238.65
2021-06-25 11:12:47.320312500,-39.0,-7.0,51.0,75.448515625,-6.205,2.1213271875,238.65
2021-06-25 11:12:47.328125000,-39.0,-7.0,51.0,75.45140625,-7.9,2.1209668749999997,238.65
2021-06-25 11:12:47.335937500,-39.0,-7.0,51.0,75.454296875,-9.879999999999999,2.1206065625,238.65
2021-06-25 11:12:47.343750000,-39.0,-7.0,51.0,75.4571875,-11.86,2.1202462499999997,238.65
2021-06-25 11:12:47.351562500,-39.0,-7.0,51.0,75.460078125,-14.155,2.1198859375,238.65
2021-06-25 11:12:47.359375000,-39.0,-7.0,51.0,75.46296875,-16.45,2.1195256249999996,238.65
2021-06-25 11:12:47.367187500,-39.0,-7.0,51.0,75.465859375,-19.08,2.1191653125,238.65
2021-06-25 11:12:47.375000000,-39.0,-7.0,51.0,75.46875,-21.71,2.118805,238.65
2021-06-25 11:12:47.382812500,-39.0,-7.0,51.0,75.471640625,-24.685000000000002,2.1184446875,238.65
2021-06-25 11:12:47.390625000,-39.0,-7.0,51.0,75.47453125,-27.66,2.118084375,238.65
2021-06-25 11:12:47.398437500,-39.0,-7.0,51.0,75.477421875,-30.86,2.1177240625,238.65
2021-06-25 11:12:47.406250000,-39.0,-7.0,51.0,75.4803125,-34.06,2.11736375,238.65
2021-06-25 11:12:47.414062500,-39.0,-7.0,51.0,75.483203125,-37.16,2.1170034374999998,238.65
2021-06-25 11:12:47.421875000,-39.0,-7.0,51.0,75.48609375,-40.26,2.116643125,238.65
2021-06-25 11:12:47.429687500,-39.0,-7.0,51.0,75.488984375,-42.675,2.1162828124999997,238.65
2021-06-25 11:12:47.437500000,-39.0,-7.0,51.0,75.491875,-45.09,2.1159225,238.65
2021-06-25 11:12:47.445312500,-39.0,-7.0,51.0,75.494765625,-46.11,2.1155621874999997,238.65
2021-06-25 11:12:47.453125000,-39.0,-7.0,51.0,75.49765625,-47.13,2.115201875,238.65
2021-06-25 11:12:47.460937500,-39.0,-7.0,51.0,75.500546875,-46.155,2.1148415624999997,238.65
2021-06-25 11:12:47.468750000,-39.0,-7.0,51.0,75.5034375,-45.18,2.11448125,238.65
2021-06-25 11:12:47.476562500,-38.75,-7.0,51.0,75.506328125,-42.04,2.1141209374999996,238.65
2021-06-25 11:12:47.484375000,-38.5,-7.0,51.0,75.50921875,-38.9,2.113760625,238.65
2021-06-25 11:12:47.492187500,-38.25,-7.0,51.0,75.512109375,-33.98,2.1134003124999996,238.65
2021-06-25 11:12:47.500000000,-38.0,-7.0,51.0,75.515,-29.06,2.11304,238.65
2021-06-25 11:12:47.507812500,-38.25,-7.0,51.0,75.517890625,-23.229999999999997,2.1127197499999997,238.65
2021-06-25 11:12:47.515625000,-38.5,-7.0,51.0,75.52078125,-17.4,2.1123995,238.65
2021-06-25 11:12:47.523437500,-38.75,-7.0,51.0,75.523671875,-11.704999999999998,2.11207925,238.65
2021-06-25 11:12:47.531250000,-39.0,-7.0,51.0,75.5265625,-6.01,2.1117589999999997,238.65
2021-06-25 11:12:47.539062500,-39.0,-7.0,50.75,75.529453125,-1.2850000000000001,2.11143875,238.65
2021-06-25 11:12:47.546875000,-39.0,-7.0,50.5,75.53234375,3.44,2.1111185,238.65
2021-06-25 11:12:47.554687500,-39.0,-7.0,50.25,75.535234375,6.8149999999999995,2.1107982499999998,238.65
2021-06-25 11:12:47.562500000,-39.0,-7.0,50.0,75.53812500000001,10.19,2.1104779999999996,238.65
2021-06-25 11:12:47.570312500,-39.0,-7.0,50.25,75.541015625,12.355,2.11015775,238.65
2021-06-25 11:12:47.578125000,-39.0,-7.0,50.5,75.54390625,14.52,2.1098375,238.65
2021-06-25 11:12:47.585937500,-39.0,-7.0,50.75,75.546796875,15.895,2.1095172499999997,238.65
2021-06-25 11:12:47.593750000,-39.0,-7.0,51.0,75.5496875,17.27,2.109197,238.65
2021-06-25 11:12:47.601562500,-38.75,-7.0,51.0,75.552578125,18.305,2.10887675,238.65
2021-06-25 11:12:47.609375000,-38.5,-7.0,51.0,75.55546875,19.34,2.1085564999999997,238.65
2021-06-25 11:12:47.617187500,-38.25,-7.0,51.0,75.558359375,20.255000000000003,2.10823625,238.65
2021-06-25 11:12:47.625000000,-38.0,-7.0,51.0,75.56125,21.17,2.107916,238.65
2021-06-25 11:12:47.632812500,-38.25,-7.0,51.0,75.56414062500001,21.925,2.1075957499999998,238.65
2021-06-25 11:12:47.640625000,-38.5,-7.0,51.0,75.56703125,22.68,2.1072755,238.65
2021-06-25 11:12:47.648437500,-38.75,-7.0,51.0,75.569921875,23.1,2.10695525,238.65
2021-06-25 11:12:47.656250000,-39.0,-7.0,51.0,75.5728125,23.52,2.106635,238.65
2021-06-25 11:12:47.664062500,-39.0,-7.0,51.0,75.575703125,23.424999999999997,2.10631475,238.65
2021-06-25 11:12:47.671875000,-39.0,-7.0,51.0,75.57859375,23.33,2.1059945,238.65
2021-06-25 11:12:47.679687500,-39.0,-7.0,51.0,75.581484375,22.72,2.10567425,238.65
2021-06-25 11:12:47.687500000,-39.0,-7.0,51.0,75.584375,22.11,2.105354,238.65
2021-06-25 11:12:47.695312500,-39.0,-7.0,51.0,75.587265625,21.13,2.10503375,238.65
2021-06-25 11:12:47.703125000,-39.0,-7.0,51.0,75.59015625,20.15,2.1047135,238.65
2021-06-25 11:12:47.710937500,-39.0,-7.0,51.0,75.593046875,19.02,2.1043932499999998,238.65
2021-06-25 11:12:47.718750000,-39.0,-7.0,51.0,75.5959375,17.89,2.104073,238.65
2021-06-25 11:12:47.726562500,-39.0,-7.0,51.0,75.598828125,16.765,2.10375275,238.65
2021-06-25 11:12:47.734375000,-39.0,-7.0,51.0,75.60171875,15.64,2.1034325,238.65
2021-06-25 11:12:47.742187500,-39.0,-7.0,51.0,75.604609375,14.59,2.10311225,238.65
2021-06-25 11:12:47.750000000,-39.0,-7.0,51.0,75.6075,13.54,2.102792,238.65
2021-06-25 11:12:47.757812500,-39.0,-7.0,51.0,75.61039062500001,12.515,2.10259184375,238.65
2021-06-25 11:12:47.765625000,-39.0,-7.0,51.0,75.61328125,11.49,2.1023916875,238.65
2021-06-25 11:12:47.773437500,-39.0,-7.0,51.0,75.616171875,10.45,2.10219153125,238.65
2021-06-25 11:12:47.781250000,-39.0,-7.0,51.0,75.6190625,9.41,2.101991375,238.65
2021-06-25 11:12:47.789062500,-39.0,-7.0,51.0,75.621953125,8.35,2.10179121875,238.65
2021-06-25 11:12:47.796875000,-39.0,-7.0,51.0,75.62484375,7.29,2.1015910625,238.65
2021-06-25 11:12:47.804687500,-39.0,-7.0,51.0,75.627734375,6.255,2.10139090625,238.65
2021-06-25 11:12:47.812500000,-39.0,-7.0,51.0,75.63062500000001,5.22,2.1011907499999998,238.65
2021-06-25 11:12:47.820312500,-39.0,-7.0,51.0,75.633515625,4.279999999999999,2.10099059375,238.65
2021-06-25 11:12:47.828125000,-39.0,-7.0,51.0,75.63640625000001,3.34,2.1007904375,238.65
2021-06-25 11:12:47.835937500,-39.0,-7.0,51.0,75.639296875,2.525,2.10059028125,238.65
2021-06-25 11:12:47.843750000,-39.0,-7.0,51.0,75.6421875,1.71,2.100390125,238.65
2021-06-25 11:12:47.851562500,-39.0,-6.75,51.0,75.645078125,1.005,2.10018996875,238.65
2021-06-25 11:12:47.859375000,-39.0,-6.5,51.0,75.64796875,0.3,2.0999898125,238.65
2021-06-25 11:12:47.867187500,-39.0,-6.25,51.0,75.650859375,-0.36500000000000005,2.09978965625,238.65
2021-06-25 11:12:47.875000000,-39.0,-6.0,51.0,75.65375,-1.03,2.0995895,238.65
2021-06-25 11:12:47.882812500,-39.0,-6.25,51.0,75.65664062500001,-1.705,2.09938934375,238.65
2021-06-25 11:12:47.890625000,-39.0,-6.5,51.0,75.65953125,-2.38,2.0991891875,238.65
2021-06-25 11:12:47.898437500,-39.0,-6.75,51.0,75.662421875,-3.0999999999999996,2.09898903125,238.65
2021-06-25 11:12:47.906250000,-39.0,-7.0,51.0,75.6653125,-3.82,2.098788875,238.65
2021-06-25 11:12:47.914062500,-39.0,-7.0,51.0,75.668203125,-4.6,2.09858871875,238.65
2021-06-25 11:12:47.921875000,-39.0,-7.0,51.0,75.67109375,-5.38,2.0983885625,238.65
2021-06-25 11:12:47.929687500,-39.0,-7.0,51.0,75.673984375,-6.234999999999999,2.09818840625,238.65
2021-06-25 11:12:47.937500000,-39.0,-7.0,51.0,75.676875,-7.09,2.09798825,238.65
2021-06-25 11:12:47.945312500,-39.0,-7.0,51.0,75.679765625,-8.115,2.09778809375,238.65
2021-06-25 11:12:47.953125000,-39.0,-7.0,51.0,75.68265625000001,-9.14,2.0975879375,238.65
2021-06-25 11:12:47.960937500,-39.0,-7.0,51.0,75.685546875,-10.485,2.09738778125,238.65
2021-06-25 11:12:47.968750000,-39.0,-7.0,51.0,75.6884375,-11.83,2.097187625,238.65
2021-06-25 11:12:47.976562500,-39.0,-7.0,51.0,75.691328125,-13.690000000000001,2.09698746875,238.65
2021-06-25 11:12:47.984375000,-39.0,-7.0,51.0,75.69421875,-15.55,2.0967873125,238.65
2021-06-25 11:12:47.992187500,-39.0,-7.0,51.0,75.697109375,-18.08,2.09658715625,238.65
2021-06-25 11:12:48.000000000,-39.0,-7.0,51.0,75.7,-20.61,2.096387,238.65
2021-06-25 11:12:48.007812500,-38.75,-7.0,51.0,75.703125,-23.78,2.09586659375,238.65
2021-06-25 11:12:48.015625000,-38.5,-7.0,51.0,75.70625,-26.95,2.0953461875,238.65
2021-06-25 11:12:48.023437500,-38.25,-7.0,51.0,75.70937500000001,-30.46,2.09482578125,238.65
2021-06-25 11:12:48.031250000,-38.0,-7.0,51.0,75.7125,-33.97,2.0943053750000002,238.65
2021-06-25 11:12:48.039062500,-38.25,-7.0,51.0,75.715625,-37.224999999999994,2.09378496875,238.65
2021-06-25 11:12:48.046875000,-38.5,-7.0,51.0,75.71875,-40.48,2.0932645625,238.65
2021-06-25 11:12:48.054687500,-38.75,-7.0,51.0,75.721875,-42.705,2.09274415625,238.65
2021-06-25 11:12:48.062500000,-39.0,-7.0,51.0,75.72500000000001,-44.93,2.09222375,238.65
2021-06-25 11:12:48.070312500,-39.0,-7.0,51.0,75.728125,-45.394999999999996,2.09170334375,238.65
2021-06-25 11:12:48.078125000,-39.0,-7.0,51.0,75.73125,-45.86,2.0911829375,238.65
2021-06-25 11:12:48.085937500,-39.0,-7.0,51.0,75.734375,-44.129999999999995,2.09066253125,238.65
2021-06-25 11:12:48.093750000,-39.0,-7.0,51.0,75.7375,-42.4,2.090142125,238.65
2021-06-25 11:12:48.101562500,-39.0,-7.0,51.0,75.74062500000001,-38.53,2.08962171875,238.65
2021-06-25 11:12:48.109375000,-39.0,-7.0,51.0,75.74375,-34.66,2.0891013125,238.65
2021-06-25 11:12:48.117187500,-39.0,-7.0,51.0,75.746875,-29.205,2.0885809062500003,238.65
2021-06-25 11:12:48.125000000,-39.0,-7.0,51.0,75.75,-23.75,2.0880605,238.65
2021-06-25 11:12:48.132812500,-39.0,-7.0,51.0,75.753125,-17.565,2.08754009375,238.65
2021-06-25 11:12:48.140625000,-39.0,-7.0,51.0,75.75625000000001,-11.38,2.0870196875,238.65
2021-06-25 11:12:48.148437500,-39.0,-7.0,51.0,75.759375,-5.355,2.08649928125,238.65
2021-06-25 11:12:48.156250000,-39.0,-7.0,51.0,75.7625,0.67,2.0859788750000003,238.65
2021-06-25 11:12:48.164062500,-39.0,-7.0,51.0,75.765625,5.845,2.08545846875,238.65
2021-06-25 11:12:48.171875000,-39.0,-7.0,51.0,75.76875,11.02,2.0849380625,238.65
2021-06-25 11:12:48.179687500,-39.0,-7.0,51.0,75.771875,15.01,2.0844176562500003,238.65
2021-06-25 11:12:48.187500000,-39.0,-7.0,51.0,75.775,19.0,2.08389725,238.65
2021-06-25 11:12:48.195312500,-39.0,-7.0,51.0,75.778125,21.78,2.08337684375,238.65
2021-06-25 11:12:48.203125000,-39.0,-7.0,51.0,75.78125,24.56,2.0828564375000003,238.65
2021-06-25 11:12:48.210937500,-39.0,-7.0,51.0,75.784375,26.32,2.08233603125,238.65
2021-06-25 11:12:48.218750000,-39.0,-7.0,51.0,75.7875,28.08,2.081815625,238.65
2021-06-25 11:12:48.226562500,-39.0,-7.0,51.0,75.790625,29.06,2.0812952187500002,238.65
2021-06-25 11:12:48.234375000,-39.0,-7.0,51.0,75.79375,30.04,2.0807748125,238.65
2021-06-25 11:12:48.242187500,-39.0,-7.0,51.0,75.796875,30.455,2.0802544062500004,238.65
2021-06-25 11:12:48.250000000,-39.0,-7.0,51.0,75.8,30.87,2.079734,238.65
2021-06-25 11:12:48.257812500,-39.0,-7.0,51.0,75.803125,30.880000000000003,2.079734,238.65
2021-06-25 11:12:48.265625000,-39.0,-7.0,51.0,75.80625,30.89,2.079734,238.65
2021-06-25 11:12:48.273437500,-39.0,-7.0,51.0,75.809375,30.58,2.079734,238.65
2021-06-25 11:12:48.281250000,-39.0,-7.0,51.0,75.8125,30.27,2.079734,238.65
2021-06-25 11:12:48.289062500,-39.0,-7.0,51.0,75.815625,29.685000000000002,2.079734,238.65
2021-06-25 11:12:48.296875000,-39.0,-7.0,51.0,75.81875,29.1,2.079734,238.65
2021-06-25 11:12:48.304687500,-39.0,-7.0,51.0,75.821875,28.29,2.079734,238.65
2021-06-25 11:12:48.312500000,-39.0,-7.0,51.0,75.825,27.48,2.079734,238.65
2021-06-25 11:12:48.320312500,-39.0,-7.0,51.0,75.828125,26.5,2.079734,238.65
2021-06-25 11:12:48.328125000,-39.0,-7.0,51.0,75.83125,25.52,2.079734,238.65
2021-06-25 11:12:48.335937500,-39.0,-7.0,51.0,75.834375,24.45,2.079734,238.65
2021-06-25 11:12:48.343750000,-39.0,-7.0,51.0,75.8375,23.38,2.079734,238.65
2021-06-25 11:12:48.351562500,-39.0,-7.0,51.0,75.840625,22.295,2.079734,238.65
2021-06-25 11:12:48.359375000,-39.0,-7.0,51.0,75.84375,21.21,2.079734,238.65
2021-06-25 11:12:48.367187500,-39.0,-7.0,51.0,75.846875,20.134999999999998,2.079734,238.65
2021-06-25 11:12:48.375000000,-39.0,-7.0,51.0,75.85,19.06,2.079734,238.65
2021-06-25 11:12:48.382812500,-38.75,-7.0,51.0,75.853125,17.975,2.079734,238.65
2021-06-25 11:12:48.390625000,-38.5,-7.0,51.0,75.85625,16.89,2.079734,238.65
2021-06-25 11:12:48.398437500,-38.25,-7.0,51.0,75.859375,15.77,2.079734,238.65
2021-06-25 11:12:48.406250000,-38.0,-7.0,51.0,75.8625,14.65,2.079734,238.65
2021-06-25 11:12:48.414062500,-38.25,-7.0,51.0,75.865625,13.49,2.079734,238.65
2021-06-25 11:12:48.421875000,-38.5,-7.0,51.0,75.86875,12.33,2.079734,238.65
2021-06-25 11:12:48.429687500,-38.75,-7.0,51.0,75.871875,11.18,2.079734,238.65
2021-06-25 11:12:48.437500000,-39.0,-7.0,51.0,75.875,10.03,2.079734,238.65
2021-06-25 11:12:48.445312500,-39.0,-7.0,51.0,75.878125,8.985,2.079734,238.65
2021-06-25 11:12:48.453125000,-39.0,-7.0,51.0,75.88125,7.94,2.079734,238.65
2021-06-25 11:12:48.460937500,-39.0,-7.0,51.0,75.884375,7.035,2.079734,238.65
2021-06-25 11:12:48.468750000,-39.0,-7.0,51.0,75.8875,6.13,2.079734,238.65
2021-06-25 11:12:48.476562500,-39.0,-7.0,51.0,75.890625,5.324999999999999,2.079734,238.65
2021-06-25 11:12:48.484375000,-39.0,-7.0,51.0,75.89375,4.52,2.079734,238.65
2021-06-25 11:12:48.492187500,-39.0,-7.0,51.0,75.896875,3.6149999999999998,2.079734,238.65
2021-06-25 11:12:48.500000000,-39.0,-7.0,51.0,75.9,2.71,2.079734,238.65
2021-06-25 11:12:48.507812500,-39.0,-7.0,51.0,75.903125,1.495,2.07921359375,238.65
2021-06-25 11:12:48.515625000,-39.0,-7.0,51.0,75.90625,0.28,2.0786931875000003,238.65
2021-06-25 11:12:48.523437500,-39.0,-7.0,51.0,75.909375,-1.3699999999999999,2.07817278125,238.65
2021-06-25 11:12:48.531250000,-39.0,-7.0,51.0,75.9125,-3.02,2.077652375,238.65
2021-06-25 11:12:48.539062500,-39.0,-7.0,51.0,75.91562499999999,-5.045,2.0771319687500003,238.65
2021-06-25 11:12:48.546875000,-39.0,-7.0,51.0,75.91875,-7.07,2.0766115625,238.65
2021-06-25 11:12:48.554687500,-39.0,-7.0,51.0,75.921875,-9.25,2.07609115625,238.65
2021-06-25 11:12:48.562500000,-39.0,-7.0,51.0,75.925,-11.43,2.0755707500000002,238.65
2021-06-25 11:12:48.570312500,-39.0,-7.0,51.0,75.928125,-13.5,2.07505034375,238.65
2021-06-25 11:12:48.578125000,-39.0,-7.0,51.0,75.93124999999999,-15.57,2.0745299375,238.65
2021-06-25 11:12:48.585937500,-39.0,-7.0,51.0,75.934375,-17.355,2.07400953125,238.65
2021-06-25 11:12:48.593750000,-39.0,-7.0,51.0,75.9375,-19.14,2.073489125,238.65
2021-06-25 11:12:48.601562500,-39.0,-7.0,51.0,75.940625,-20.66,2.07296871875,238.65
2021-06-25 11:12:48.609375000,-39.0,-7.0,51.0,75.94375,-22.18,2.0724483125,238.65
2021-06-25 11:12:48.617187500,-39.0,-7.0,51.0,75.94687499999999,-23.655,2.07192790625,238.65
2021-06-25 11:12:48.625000000,-39.0,-7.0,51.0,75.95,-25.13,2.0714075000000003,238.65
2021-06-25 11:12:48.632812500,-39.0,-7.0,51.0,75.953125,-26.869999999999997,2.07088709375,238.65
2021-06-25 11:12:48.640625000,-39.0,-7.0,51.0,75.95625,-28.61,2.0703666875,238.65
2021-06-25 11:12:48.648437500,-39.0,-7.0,51.0,75.959375,-30.89,2.0698462812500003,238.65
2021-06-25 11:12:48.656250000,-39.0,-7.0,51.0,75.96249999999999,-33.17,2.069325875,238.65
2021-06-25 11:12:48.664062500,-39.0,-7.0,51.0,75.965625,-36.05,2.06880546875,238.65
2021-06-25 11:12:48.671875000,-39.0,-7.0,51.0,75.96875,-38.93,2.0682850625,238.65
2021-06-25 11:12:48.679687500,-39.0,-7.0,51.0,75.971875,-42.18,2.06776465625,238.65
2021-06-25 11:12:48.687500000,-39.0,-7.0,51.0,75.975,-45.43,2.06724425,238.65
2021-06-25 11:12:48.695312500,-39.0,-7.0,51.0,75.97812499999999,-48.510000000000005,2.06672384375,238.65
2021-06-25 11:12:48.703125000,-39.0,-7.0,51.0,75.98125,-51.59,2.0662034375,238.65
2021-06-25 11:12:48.710937500,-39.0,-7.0,51.0,75.984375,-53.71,2.06568303125,238.65
2021-06-25 11:12:48.718750000,-39.0,-7.0,51.0,75.9875,-55.83,2.065162625,238.65
2021-06-25 11:12:48.726562500,-39.0,-7.0,51.0,75.990625,-56.215,2.06464221875,238.65
2021-06-25 11:12:48.734375000,-39.0,-7.0,51.0,75.99374999999999,-56.6,2.0641218125,238.65
2021-06-25 11:12:48.742187500,-39.0,-7.0,51.0,75.996875,-54.74,2.06360140625,238.65
2021-06-25 11:12:48.750000000,-39.0,-7.0,51.0,76.0,-52.88,2.063081,238.65
2021-06-25 11:12:48.757812500,-38.75,-7.0,51.0,76.003125,-48.760000000000005,2.0630009375,238.65
2021-06-25 11:12:48.765625000,-38.5,-7.0,51.0,76.00625,-44.64,2.062920875,238.65
2021-06-25 11:12:48.773437500,-38.25,-7.0,51.0,76.00937499999999,-38.815,2.0628408125,238.65
2021-06-25 11:12:48.781250000,-38.0,-7.0,51.0,76.0125,-32.99,2.06276075,238.65
2021-06-25 11:12:48.789062500,-38.25,-7.0,51.0,76.015625,-26.44,2.0626806875,238.65
2021-06-25 11:12:48.796875000,-38.5,-7.0,51.0,76.01875,-19.89,2.062600625,238.65
2021-06-25 11:12:48.804687500,-38.75,-7.0,51.0,76.021875,-13.67,2.0625205625,238.65
2021-06-25 11:12:48.812500000,-39.0,-7.0,51.0,76.02499999999999,-7.45,2.0624405,238.65
2021-06-25 11:12:48.820312500,-39.0,-7.0,51.0,76.028125,-2.3600000000000003,2.0623604375,238.65
2021-06-25 11:12:48.828125000,-39.0,-7.0,51.0,76.03125,2.73,2.062280375,238.65
2021-06-25 11:12:48.835937500,-39.0,-7.0,51.0,76.034375,6.369999999999999,2.0622003125,238.65
2021-06-25 11:12:48.843750000,-39.0,-7.0,51.0,76.0375,10.01,2.06212025,238.65
2021-06-25 11:12:48.851562500,-38.75,-7.0,51.0,76.04062499999999,12.355,2.0620401875,238.65
2021-06-25 11:12:48.859375000,-38.5,-7.0,51.0,76.04374999999999,14.7,2.061960125,238.65
2021-06-25 11:12:48.867187500,-38.25,-7.0,51.0,76.046875,16.185000000000002,2.0618800625,238.65
2021-06-25 11:12:48.875000000,-38.0,-7.0,51.0,76.05,17.67,2.0618,238.65
2021-06-25 11:12:48.882812500,-38.25,-7.0,51.0,76.053125,18.735,2.0617199375,238.65
2021-06-25 11:12:48.890625000,-38.5,-7.0,51.0,76.05624999999999,19.8,2.061639875,238.65
2021-06-25 11:12:48.898437500,-38.75,-7.0,51.0,76.05937499999999,20.740000000000002,2.0615598125,238.65
2021-06-25 11:12:48.906250000,-39.0,-7.0,51.0,76.0625,21.68,2.06147975,238.65
2021-06-25 11:12:48.914062500,-39.0,-7.0,51.0,76.065625,22.555,2.0613996875000002,238.65
2021-06-25 11:12:48.921875000,-39.0,-7.0,51.0,76.06875,23.43,2.0613196250000003,238.65
2021-06-25 11:12:48.929687500,-39.0,-7.0,51.0,76.07187499999999,24.13,2.0612395625,238.65
2021-06-25 11:12:48.937500000,-39.0,-7.0,51.0,76.07499999999999,24.83,2.0611595,238.65
2021-06-25 11:12:48.945312500,-38.75,-7.0,51.0,76.078125,25.174999999999997,2.0610794375,238.65
2021-06-25 11:12:48.953125000,-38.5,-7.0,51.0,76.08125,25.52,2.060999375,238.65
2021-06-25 11:12:48.960937500,-38.25,-7.0,51.0,76.084375,25.369999999999997,2.0609193125000003,238.65
2021-06-25 11:12:48.968750000,-38.0,-7.0,51.0,76.08749999999999,25.22,2.0608392500000003,238.65
2021-06-25 11:12:48.976562500,-38.25,-7.0,51.0,76.09062499999999,24.525,2.0607591875,238.65
2021-06-25 11:12:48.984375000,-38.5,-7.0,51.0,76.09375,23.83,2.060679125,238.65
2021-06-25 11:12:48.992187500,-38.75,-7.0,51.0,76.096875,22.655,2.0605990625,238.65
2021-06-25 11:12:49.000000000,-39.0,-7.0,51.0,76.1,21.48,2.060519,238.65
2021-06-25 11:12:49.007812500,-39.0,-7.0,51.0,76.10328125,20.005000000000003,2.0601586875000004,238.65
2021-06-25 11:12:49.015625000,-39.0,-7.0,51.0,76.1065625,18.53,2.059798375,238.65
2021-06-25 11:12:49.023437500,-39.0,-7.0,51.0,76.10984375,16.965,2.0594380625000004,238.65
2021-06-25 11:12:49.031250000,-39.0,-7.0,51.0,76.113125,15.4,2.05907775,238.65
2021-06-25 11:12:49.039062500,-39.0,-7.0,51.0,76.11640625,13.975000000000001,2.0587174375000004,238.65
2021-06-25 11:12:49.046875000,-39.0,-7.0,51.0,76.1196875,12.55,2.058357125,238.65
2021-06-25 11:12:49.054687500,-39.0,-7.0,51.0,76.12296875,11.43,2.0579968125000003,238.65
2021-06-25 11:12:49.062500000,-39.0,-7.0,51.0,76.12625,10.31,2.0576365,238.65
2021-06-25 11:12:49.070312500,-39.0,-7.0,51.0,76.12953125,9.530000000000001,2.0572761875000003,238.65
2021-06-25 11:12:49.078125000,-39.0,-7.0,51.0,76.1328125,8.75,2.056915875,238.65
2021-06-25 11:12:49.085937500,-39.0,-7.0,51.0,76.13609375,8.27,2.0565555625000003,238.65
2021-06-25 11:12:49.093750000,-39.0,-7.0,51.0,76.139375,7.79,2.05619525,238.65
2021-06-25 11:12:49.101562500,-39.0,-7.0,51.0,76.14265624999999,7.470000000000001,2.0558349375000002,238.65
2021-06-25 11:12:49.109375000,-39.0,-7.0,51.0,76.14593749999999,7.15,2.055474625,238.65
2021-06-25 11:12:49.117187500,-39.0,-7.0,51.0,76.14921874999999,6.85,2.0551143125,238.65
2021-06-25 11:12:49.125000000,-39.0,-7.0,51.0,76.15249999999999,6.55,2.054754,238.65
2021-06-25 11:12:49.132812500,-39.0,-7.0,51.0,76.15578124999999,6.1,2.0543936875,238.65
2021-06-25 11:12:49.140625000,-39.0,-7.0,51.0,76.15906249999999,5.65,2.0540333750000004,238.65
2021-06-25 11:12:49.148437500,-39.0,-7.0,51.0,76.16234374999999,4.96,2.0536730625,238.65
2021-06-25 11:12:49.156250000,-39.0,-7.0,51.0,76.16562499999999,4.27,2.0533127500000004,238.65
2021-06-25 11:12:49.164062500,-39.0,-7.0,51.0,76.16890624999999,3.295,2.0529524375,238.65
2021-06-25 11:12:49.171875000,-39.0,-7.0,51.0,76.17218749999999,2.32,2.0525921250000003,238.65
2021-06-25 11:12:49.179687500,-39.0,-7.0,51.0,76.17546875,1.125,2.0522318125,238.65
2021-06-25 11:12:49.187500000,-39.0,-7.0,51.0,76.17875,-0.07,2.0518715000000003,238.65
2021-06-25 11:12:49.195312500,-39.0,-7.0,51.0,76.18203125,-1.3650000000000002,2.0515111875,238.65
2021-06-25 11:12:49.203125000,-39.0,-7.0,51.0,76.1853125,-2.66,2.0511508750000003,238.65
2021-06-25 11:12:49.210937500,-39.0,-7.0,51.0,76.18859375,-3.89,2.0507905625,238.65
2021-06-25 11:12:49.218750000,-39.0,-7.0,51.0,76.191875,-5.12,2.0504302500000002,238.65
2021-06-25 11:12:49.226562500,-39.0,-7.0,51.0,76.19515625,-6.195,2.0500699375,238.65
2021-06-25 11:12:49.234375000,-39.0,-7.0,51.0,76.1984375,-7.27,2.049709625,238.65
2021-06-25 11:12:49.242187500,-39.0,-7.0,51.0,76.20171875,-8.245000000000001,2.0493493125,238.65
2021-06-25 11:12:49.250000000,-39.0,-7.0,51.0,76.205,-9.22,2.048989,238.65
2021-06-25 11:12:49.257812500,-39.0,-7.0,51.0,76.20828125,-10.265,2.0488288750000003,238.65
2021-06-25 11:12:49.265625000,-39.0,-7.0,51.0,76.2115625,-11.31,2.04866875,238.65
2021-06-25 11:12:49.273437500,-39.0,-7.0,51.0,76.21484375,-12.690000000000001,2.048508625,238.65
2021-06-25 11:12:49.281250000,-39.0,-7.0,51.0,76.218125,-14.07,2.0483485000000003,238.65
2021-06-25 11:12:49.289062500,-38.75,-7.0,51.0,76.22140625,-15.94,2.048188375,238.65
2021-06-25 11:12:49.296875000,-38.5,-7.0,51.0,76.2246875,-17.81,2.04802825,238.65
2021-06-25 11:12:49.304687500,-38.25,-7.0,51.0,76.22796874999999,-20.16,2.047868125,238.65
2021-06-25 11:12:49.312500000,-38.0,-7.0,51.0,76.23124999999999,-22.51,2.047708,238.65
2021-06-25 11:12:49.320312500,-38.25,-7.0,51.0,76.23453124999999,-25.025,2.0475478750000002,238.65
2021-06-25 11:12:49.328125000,-38.5,-7.0,51.0,76.23781249999999,-27.54,2.04738775,238.65
2021-06-25 11:12:49.335937500,-38.75,-7.0,51.0,76.24109374999999,-29.685,2.047227625,238.65
2021-06-25 11:12:49.343750000,-39.0,-7.0,51.0,76.24437499999999,-31.83,2.0470675,238.65
2021-06-25 11:12:49.351562500,-39.0,-7.0,51.0,76.24765624999999,-32.980000000000004,2.046907375,238.65
2021-06-25 11:12:49.359375000,-39.0,-7.0,51.0,76.25093749999999,-34.13,2.04674725,238.65
2021-06-25 11:12:49.367187500,-39.0,-7.0,51.0,76.25421874999999,-33.8,2.046587125,238.65
2021-06-25 11:12:49.375000000,-39.0,-7.0,51.0,76.2575,-33.47,2.046427,238.65
2021-06-25 11:12:49.382812500,-39.0,-7.0,51.0,76.26078125,-31.455,2.046266875,238.65
2021-06-25 11:12:49.390625000,-39.0,-7.0,51.0,76.2640625,-29.44,2.04610675,238.65
2021-06-25 11:12:49.398437500,-39.0,-7.0,51.0,76.26734375,-25.915,2.045946625,238.65
2021-06-25 11:12:49.406250000,-39.0,-7.0,51.0,76.270625,-22.39,2.0457865,238.65
2021-06-25 11:12:49.414062500,-38.75,-7.0,51.0,76.27390625,-17.89,2.045626375,238.65
2021-06-25 11:12:49.421875000,-38.5,-7.0,51.0,76.2771875,-13.39,2.04546625,238.65
2021-06-25 11:12:49.429687500,-38.25,-7.0,51.0,76.28046875,-8.615,2.0453061249999998,238.65
2021-06-25 11:12:49.437500000,-38.0,-7.0,51.0,76.28375,-3.84,2.045146,238.65
2021-06-25 11:12:49.445312500,-38.25,-7.0,51.0,76.28703125,0.5150000000000006,2.044985875,238.65
2021-06-25 11:12:49.453125000,-38.5,-7.0,51.0,76.2903125,4.87,2.0448257499999998,238.65
2021-06-25 11:12:49.460937500,-38.75,-7.0,51.0,76.29359375,8.335,2.044665625,238.65
2021-06-25 11:12:49.468750000,-39.0,-7.0,51.0,76.296875,11.8,2.0445054999999996,238.65
2021-06-25 11:12:49.476562500,-39.0,-7.0,51.0,76.30015625,14.22,2.044345375,238.65
2021-06-25 11:12:49.484375000,-39.0,-7.0,51.0,76.3034375,16.64,2.04418525,238.65
2021-06-25 11:12:49.492187500,-39.0,-7.0,51.0,76.30671875,18.130000000000003,2.0440251249999997,238.65
2021-06-25 11:12:49.500000000,-39.0,-7.0,51.0,76.31,19.62,2.043865,238.65
2021-06-25 11:12:49.507812500,-39.0,-7.0,51.0,76.31328124999999,20.41,2.0437849375,238.65
2021-06-25 11:12:49.515625000,-39.0,-7.0,51.0,76.31656249999999,21.2,2.043704875,238.65
2021-06-25 11:12:49.523437500,-39.0,-7.0,51.0,76.31984374999999,21.515,2.0436248125,238.65
2021-06-25 11:12:49.531250000,-39.0,-7.0,51.0,76.32312499999999,21.83,2.0435447499999997,238.65
2021-06-25 11:12:49.539062500,-39.0,-7.0,51.0,76.32640624999999,21.759999999999998,2.0434646874999998,238.65
2021-06-25 11:12:49.546875000,-39.0,-7.0,51.0,76.32968749999999,21.69,2.043384625,238.65
2021-06-25 11:12:49.554687500,-39.0,-7.0,51.0,76.33296874999999,21.245,2.0433045625,238.65
2021-06-25 11:12:49.562500000,-39.0,-7.0,51.0,76.33624999999999,20.8,2.0432245,238.65
2021-06-25 11:12:49.570312500,-39.0,-7.0,51.0,76.33953125,20.009999999999998,2.0431444375,238.65
2021-06-25 11:12:49.578125000,-39.0,-7.0,51.0,76.3428125,19.22,2.0430643749999997,238.65
2021-06-25 11:12:49.585937500,-39.0,-7.0,51.0,76.34609375,18.2,2.0429843125,238.65
2021-06-25 11:12:49.593750000,-39.0,-7.0,51.0,76.349375,17.18,2.04290425,238.65
2021-06-25 11:12:49.601562500,-39.0,-7.0,51.0,76.35265625,16.14,2.0428241875,238.65
2021-06-25 11:12:49.609375000,-39.0,-7.0,51.0,76.3559375,15.1,2.042744125,238.65
2021-06-25 11:12:49.617187500,-39.0,-7.0,51.0,76.35921875,14.280000000000001,2.0426640625,238.65
2021-06-25 11:12:49.625000000,-39.0,-7.0,51.0,76.3625,13.46,2.0425839999999997,238.65
2021-06-25 11:12:49.632812500,-39.0,-7.0,51.0,76.36578125,12.995000000000001,2.0425039375,238.65
2021-06-25 11:12:49.640625000,-39.0,-7.0,51.0,76.3690625,12.53,2.042423875,238.65
2021-06-25 11:12:49.648437500,-39.0,-7.0,51.0,76.37234375,12.41,2.0423438125,238.65
2021-06-25 11:12:49.656250000,-39.0,-7.0,51.0,76.375625,12.29,2.04226375,238.65
2021-06-25 11:12:49.664062500,-39.0,-7.0,51.0,76.37890625,12.379999999999999,2.0421836875,238.65
2021-06-25 11:12:49.671875000,-39.0,-7.0,51.0,76.3821875,12.47,2.042103625,238.65
2021-06-25 11:12:49.679687500,-39.0,-7.0,51.0,76.38546875,12.555,2.0420235625,238.65
2021-06-25 11:12:49.687500000,-39.0,-7.0,51.0,76.38875,12.64,2.0419435,238.65
2021-06-25 11:12:49.695312500,-38.75,-7.0,51.0,76.39203125,12.535,2.0418634375,238.65
2021-06-25 11:12:49.703125000,-38.5,-7.0,51.0,76.39531249999999,12.43,2.041783375,238.65
2021-06-25 11:12:49.710937500,-38.25,-7.0,51.0,76.39859374999999,12.030000000000001,2.0417033125,238.65
2021-06-25 11:12:49.718750000,-38.0,-7.0,51.0,76.40187499999999,11.63,2.0416232500000002,238.65
2021-06-25 11:12:49.726562500,-38.0,-7.0,51.0,76.40515624999999,10.925,2.0415431875,238.65
2021-06-25 11:12:49.734375000,-38.0,-7.0,51.0,76.40843749999999,10.22,2.041463125,238.65
2021-06-25 11:12:49.742187500,-38.0,-7.0,51.0,76.41171874999999,9.25,2.0413830625,238.65
2021-06-25 11:12:49.750000000,-38.0,-7.0,51.0,76.41499999999999,8.28,2.041303,238.65
2021-06-25 11:12:49.757812500,-38.25,-7.0,51.0,76.41828124999999,7.13,2.04070253125,238.65
2021-06-25 11:12:49.765625000,-38.5,-7.0,51.0,76.4215625,5.98,2.0401020625,238.65
2021-06-25 11:12:49.773437500,-38.75,-7.0,51.0,76.42484375,4.73,2.0395015937500003,238.65
2021-06-25 11:12:49.781250000,-39.0,-7.0,51.0,76.428125,3.48,2.038901125,238.65
2021-06-25 11:12:49.789062500,-39.0,-7.0,51.0,76.43140625,2.19,2.03830065625,238.65
2021-06-25 11:12:49.796875000,-39.0,-7.0,51.0,76.4346875,0.9,2.0377001875,238.65
2021-06-25 11:12:49.804687500,-39.0,-7.0,51.0,76.43796875,-0.4049999999999999,2.03709971875,238.65
2021-06-25 11:12:49.812500000,-39.0,-7.0,51.0,76.44125,-1.71,2.0364992500000003,238.65
2021-06-25 11:12:49.820312500,-38.75,-7.0,51.0,76.44453125,-3.055,2.0358987812500002,238.65
2021-06-25 11:12:49.828125000,-38.5,-7.0,51.0,76.4478125,-4.4,2.0352983125,238.65
2021-06-25 11:12:49.835937500,-38.25,-7.0,51.0,76.45109375,-5.815,2.03469784375,238.65
2021-06-25 11:12:49.843750000,-38.0,-7.0,51.0,76.454375,-7.23,2.034097375,238.65
2021-06-25 11:12:49.851562500,-38.25,-7.0,51.0,76.45765625,-8.715,2.03349690625,238.65
2021-06-25 11:12:49.859375000,-38.5,-7.0,51.0,76.4609375,-10.2,2.0328964375000003,238.65
2021-06-25 11:12:49.867187500,-38.75,-7.0,51.0,76.46421875,-11.75,2.03229596875,238.65
2021-06-25 11:12:49.875000000,-39.0,-7.0,51.0,76.4675,-13.3,2.0316955,238.65
2021-06-25 11:12:49.882812500,-39.0,-7.0,51.0,76.47078125,-14.88,2.03109503125,238.65
2021-06-25 11:12:49.890625000,-39.0,-7.0,51.0,76.4740625,-16.46,2.0304945625,238.65
2021-06-25 11:12:49.898437500,-39.0,-7.0,51.0,76.47734375,-18.045,2.0298940937500003,238.65
2021-06-25 11:12:49.906250000,-39.0,-7.0,51.0,76.48062499999999,-19.63,2.029293625,238.65
2021-06-25 11:12:49.914062500,-39.0,-7.0,51.0,76.48390624999999,-21.29,2.02869315625,238.65
2021-06-25 11:12:49.921875000,-39.0,-7.0,51.0,76.48718749999999,-22.95,2.0280926875,238.65
2021-06-25 11:12:49.929687500,-39.0,-7.0,51.0,76.49046874999999,-24.799999999999997,2.02749221875,238.65
2021-06-25 11:12:49.937500000,-39.0,-7.0,51.0,76.49374999999999,-26.65,2.02689175,238.65
2021-06-25 11:12:49.945312500,-39.0,-7.0,51.0,76.49703124999999,-28.81,2.0262912812500002,238.65
2021-06-25 11:12:49.953125000,-39.0,-7.0,51.0,76.50031249999999,-30.97,2.0256908125,238.65
2021-06-25 11:12:49.960937500,-39.0,-7.0,51.0,76.50359375,-33.375,2.02509034375,238.65
2021-06-25 11:12:49.968750000,-39.0,-7.0,51.0,76.506875,-35.78,2.024489875,238.65
2021-06-25 11:12:49.976562500,-39.0,-7.0,51.0,76.51015625,-38.09,2.02388940625,238.65
2021-06-25 11:12:49.984375000,-39.0,-7.0,51.0,76.5134375,-40.4,2.0232889375000003,238.65
2021-06-25 11:12:49.992187500,-39.0,-7.0,51.0,76.51671875,-42.0,2.02268846875,238.65
2021-06-25 11:12:50.000000000,-39.0,-7.0,51.0,76.52,-43.6,2.022088,238.65
2021-06-25 11:12:50.007812500,-39.0,-7.0,51.0,76.523359375,-43.78,2.0221280312500003,238.65
2021-06-25 11:12:50.015625000,-39.0,-7.0,51.0,76.52671875,-43.96,2.0221680625,238.65
2021-06-25 11:12:50.023437500,-39.0,-7.0,51.0,76.530078125,-42.175,2.02220809375,238.65
2021-06-25 11:12:50.031250000,-39.0,-7.0,51.0,76.53343749999999,-40.39,2.022248125,238.65
2021-06-25 11:12:50.039062500,-39.0,-7.0,51.0,76.536796875,-36.54,2.02228815625,238.65
2021-06-25 11:12:50.046875000,-39.0,-7.0,51.0,76.54015625,-32.69,2.0223281875000003,238.65
2021-06-25 11:12:50.054687500,-39.0,-7.0,51.0,76.543515625,-27.229999999999997,2.02236821875,238.65
2021-06-25 11:12:50.062500000,-39.0,-7.0,51.0,76.546875,-21.77,2.0224082500000002,238.65
2021-06-25 11:12:50.070312500,-39.0,-7.0,51.0,76.550234375,-15.57,2.02244828125,238.65
2021-06-25 11:12:50.078125000,-39.0,-7.0,51.0,76.55359374999999,-9.37,2.0224883125,238.65
2021-06-25 11:12:50.085937500,-39.0,-7.0,51.0,76.55695312499999,-3.41,2.0225283437500003,238.65
2021-06-25 11:12:50.093750000,-39.0,-7.0,51.0,76.5603125,2.55,2.022568375,238.65
2021-06-25 11:12:50.101562500,-39.0,-7.0,51.0,76.563671875,7.515,2.0226084062500003,238.65
2021-06-25 11:12:50.109375000,-39.0,-7.0,51.0,76.56703125,12.48,2.0226484375,238.65
2021-06-25 11:12:50.117187500,-39.0,-7.0,51.0,76.570390625,16.125,2.02268846875,238.65
2021-06-25 11:12:50.125000000,-39.0,-7.0,51.0,76.57374999999999,19.77,2.0227285000000004,238.65
2021-06-25 11:12:50.132812500,-39.0,-7.0,51.0,76.57710937499999,22.18,2.02276853125,238.65
2021-06-25 11:12:50.140625000,-39.0,-7.0,51.0,76.58046875,24.59,2.0228085625000003,238.65
2021-06-25 11:12:50.148437500,-39.0,-7.0,51.0,76.583828125,26.064999999999998,2.02284859375,238.65
2021-06-25 11:12:50.156250000,-39.0,-7.0,51.0,76.5871875,27.54,2.022888625,238.65
2021-06-25 11:12:50.164062500,-38.75,-7.0,51.0,76.590546875,28.39,2.02292865625,238.65
2021-06-25 11:12:50.171875000,-38.5,-7.0,51.0,76.59390625,29.24,2.0229686875,238.65
2021-06-25 11:12:50.179687500,-38.25,-7.0,51.0,76.59726562499999,29.655,2.0230087187500003,238.65
2021-06-25 11:12:50.187500000,-38.0,-7.0,51.0,76.600625,30.07,2.02304875,238.65
2021-06-25 11:12:50.195312500,-38.25,-7.0,51.0,76.603984375,30.105,2.0230887812500002,238.65
2021-06-25 11:12:50.203125000,-38.5,-7.0,51.0,76.60734375,30.14,2.0231288125,238.65
2021-06-25 11:12:50.210937500,-38.75,-7.0,51.0,76.610703125,29.845,2.02316884375,238.65
2021-06-25 11:12:50.218750000,-39.0,-7.0,51.0,76.6140625,29.55,2.0232088750000004,238.65
2021-06-25 11:12:50.226562500,-39.0,-7.0,51.0,76.61742187499999,29.04,2.02324890625,238.65
2021-06-25 11:12:50.234375000,-39.0,-7.0,51.0,76.62078125,28.53,2.0232889375000003,238.65
2021-06-25 11:12:50.242187500,-39.0,-7.0,51.0,76.624140625,27.955,2.02332896875,238.65
2021-06-25 11:12:50.250000000,-39.0,-7.0,51.0,76.6275,27.38,2.023369,238.65
2021-06-25 11:12:50.257812500,-39.0,-7.0,51.0,76.630859375,26.869999999999997,2.022888625,238.65
2021-06-25 11:12:50.265625000,-39.0,-7.0,51.0,76.63421875,26.36,2.0224082500000002,238.65
2021-06-25 11:12:50.273437500,-39.0,-7.0,51.0,76.637578125,25.939999999999998,2.0219278750000003,238.65
2021-06-25 11:12:50.281250000,-39.0,-7.0,51.0,76.64093749999999,25.52,2.0214475000000003,238.65
2021-06-25 11:12:50.289062500,-39.0,-7.0,51.0,76.644296875,25.095,2.0209671250000003,238.65
2021-06-25 11:12:50.296875000,-39.0,-7.0,51.0,76.64765625,24.67,2.0204867500000003,238.65
2021-06-25 11:12:50.304687500,-39.0,-7.0,51.0,76.651015625,24.105,2.0200063750000004,238.65
2021-06-25 11:12:50.312500000,-39.0,-7.0,51.0,76.654375,23.54,2.019526,238.65
2021-06-25 11:12:50.320312500,-39.0,-7.0,51.0,76.657734375,22.715,2.019045625,238.65
2021-06-25 11:12:50.328125000,-39.0,-7.0,51.0,76.66109374999999,21.89,2.01856525,238.65
2021-06-25 11:12:50.335937500,-39.0,-7.0,51.0,76.664453125,20.814999999999998,2.018084875,238.65
2021-06-25 11:12:50.343750000,-39.0,-7.0,51.0,76.6678125,19.74,2.0176045,238.65
2021-06-25 11:12:50.351562500,-39.0,-7.0,51.0,76.671171875,18.534999999999997,2.017124125,238.65
2021-06-25 11:12:50.359375000,-39.0,-7.0,51.0,76.67453125,17.33,2.01664375,238.65
2021-06-25 11:12:50.367187500,-39.0,-7.0,51.0,76.677890625,16.215,2.016163375,238.65
2021-06-25 11:12:50.375000000,-39.0,-7.0,51.0,76.68125,15.1,2.015683,238.65
2021-06-25 11:12:50.382812500,-39.0,-7.0,51.0,76.684609375,14.254999999999999,2.015202625,238.65
2021-06-25 11:12:50.390625000,-39.0,-7.0,51.0,76.68796875,13.41,2.01472225,238.65
2021-06-25 11:12:50.398437500,-39.0,-7.0,51.0,76.691328125,12.965,2.014241875,238.65
2021-06-25 11:12:50.406250000,-39.0,-7.0,51.0,76.6946875,12.52,2.0137615,238.65
2021-06-25 11:12:50.414062500,-39.0,-7.0,51.0,76.698046875,12.49,2.0132811250000002,238.65
2021-06-25 11:12:50.421875000,-39.0,-7.0,51.0,76.70140625,12.46,2.0128007500000002,238.65
2021-06-25 11:12:50.429687500,-39.0,-7.0,51.0,76.704765625,12.715,2.0123203750000003,238.65
2021-06-25 11:12:50.437500000,-39.0,-7.0,51.0,76.708125,12.97,2.0118400000000003,238.65
2021-06-25 11:12:50.445312500,-38.75,-7.0,51.0,76.711484375,13.285,2.011359625,238.65
2021-06-25 11:12:50.453125000,-38.5,-7.0,51.0,76.71484375,13.6,2.01087925,238.65
2021-06-25 11:12:50.460937500,-38.25,-7.0,51.0,76.718203125,13.705,2.010398875,238.65
2021-06-25 11:12:50.468750000,-38.0,-7.0,51.0,76.7215625,13.81,2.0099185,238.65
2021-06-25 11:12:50.476562500,-38.25,-7.0,51.0,76.72492187499999,13.455,2.009438125,238.65
2021-06-25 11:12:50.484375000,-38.5,-7.0,51.0,76.72828125,13.1,2.00895775,238.65
2021-06-25 11:12:50.492187500,-38.75,-7.0,51.0,76.731640625,12.155000000000001,2.008477375,238.65
2021-06-25 11:12:50.500000000,-39.0,-7.0,51.0,76.735,11.21,2.007997,238.65
2021-06-25 11:12:50.507812500,-39.0,-7.0,51.0,76.738359375,9.7,2.008157125,238.65
2021-06-25 11:12:50.515625000,-39.0,-7.0,51.0,76.74171875,8.19,2.00831725,238.65
2021-06-25 11:12:50.523437500,-39.0,-7.0,51.0,76.745078125,6.275,2.008477375,238.65
2021-06-25 11:12:50.531250000,-39.0,-7.0,51.0,76.7484375,4.36,2.0086375,238.65
2021-06-25 11:12:50.539062500,-39.0,-7.0,51.0,76.751796875,2.2750000000000004,2.008797625,238.65
2021-06-25 11:12:50.546875000,-39.0,-7.0,51.0,76.75515625,0.19,2.00895775,238.65
2021-06-25 11:12:50.554687500,-39.0,-7.0,51.0,76.758515625,-1.8900000000000001,2.009117875,238.65
2021-06-25 11:12:50.562500000,-39.0,-7.0,51.0,76.761875,-3.97,2.009278,238.65
2021-06-25 11:12:50.570312500,-39.0,-7.0,51.0,76.765234375,-5.984999999999999,2.009438125,238.65
2021-06-25 11:12:50.578125000,-39.0,-7.0,51.0,76.76859375,-8.0,2.00959825,238.65
2021-06-25 11:12:50.585937500,-39.0,-7.0,51.0,76.771953125,-10.02,2.009758375,238.65
2021-06-25 11:12:50.593750000,-39.0,-7.0,51.0,76.7753125,-12.04,2.0099185,238.65
2021-06-25 11:12:50.601562500,-39.0,-7.0,51.0,76.778671875,-14.17,2.010078625,238.65
2021-06-25 11:12:50.609375000,-39.0,-7.0,51.0,76.78203125,-16.3,2.01023875,238.65
2021-06-25 11:12:50.617187500,-39.0,-7.0,51.0,76.785390625,-18.61,2.010398875,238.65
2021-06-25 11:12:50.625000000,-39.0,-7.0,51.0,76.78875,-20.92,2.0105589999999998,238.65
2021-06-25 11:12:50.632812500,-39.0,-7.0,51.0,76.792109375,-23.39,2.010719125,238.65
2021-06-25 11:12:50.640625000,-39.0,-7.0,51.0,76.79546875,-25.86,2.01087925,238.65
2021-06-25 11:12:50.648437500,-39.0,-7.0,51.0,76.798828125,-28.41,2.011039375,238.65
2021-06-25 11:12:50.656250000,-39.0,-7.0,51.0,76.8021875,-30.96,2.0111995,238.65
2021-06-25 11:12:50.664062500,-39.0,-7.0,51.0,76.805546875,-33.495000000000005,2.011359625,238.65
2021-06-25 11:12:50.671875000,-39.0,-7.0,51.0,76.80890625,-36.03,2.01151975,238.65
2021-06-25 11:12:50.679687500,-39.0,-7.0,51.0,76.812265625,-38.475,2.011679875,238.65
2021-06-25 11:12:50.687500000,-39.0,-7.0,51.0,76.815625,-40.92,2.01184,238.65
2021-06-25 11:12:50.695312500,-38.75,-7.0,51.0,76.818984375,-43.125,2.012000125,238.65
2021-06-25 11:12:50.703125000,-38.5,-7.0,51.0,76.82234375,-45.33,2.01216025,238.65
2021-06-25 11:12:50.710937500,-38.25,-7.0,51.0,76.825703125,-47.04,2.012320375,238.65
2021-06-25 11:12:50.718750000,-38.0,-7.0,51.0,76.8290625,-48.75,2.0124805,238.65
2021-06-25 11:12:50.726562500,-38.0,-7.0,51.0,76.832421875,-49.55,2.012640625,238.65
2021-06-25 11:12:50.734375000,-38.0,-7.0,51.0,76.83578125,-50.35,2.01280075,238.65
2021-06-25 11:12:50.742187500,-38.0,-7.0,51.0,76.839140625,-49.765,2.012960875,238.65
2021-06-25 11:12:50.750000000,-38.0,-7.0,51.0,76.8425,-49.18,2.013121,238.65
2021-06-25 11:12:50.757812500,-38.25,-7.0,51.0,76.845859375,-46.894999999999996,2.01292084375,238.65
2021-06-25 11:12:50.765625000,-38.5,-7.0,51.0,76.84921875,-44.61,2.0127206875,238.65
2021-06-25 11:12:50.773437500,-38.75,-7.0,51.0,76.85257812500001,-40.620000000000005,2.01252053125,238.65
2021-06-25 11:12:50.781250000,-39.0,-7.0,51.0,76.8559375,-36.63,2.012320375,238.65
2021-06-25 11:12:50.789062500,-38.75,-7.0,51.0,76.859296875,-31.36,2.01212021875,238.65
2021-06-25 11:12:50.796875000,-38.5,-7.0,51.0,76.86265625,-26.09,2.0119200624999998,238.65
2021-06-25 11:12:50.804687500,-38.25,-7.0,51.0,76.866015625,-20.275,2.0117199062499997,238.65
2021-06-25 11:12:50.812500000,-38.0,-7.0,51.0,76.869375,-14.46,2.0115197499999997,238.65
2021-06-25 11:12:50.820312500,-38.25,-7.0,51.0,76.87273437500001,-8.940000000000001,2.01131959375,238.65
2021-06-25 11:12:50.828125000,-38.5,-7.0,51.0,76.87609375,-3.42,2.0111194375,238.65
2021-06-25 11:12:50.835937500,-38.75,-7.0,51.0,76.879453125,1.17,2.01091928125,238.65
2021-06-25 11:12:50.843750000,-39.0,-7.0,51.0,76.8828125,5.76,2.010719125,238.65
2021-06-25 11:12:50.851562500,-39.0,-7.0,51.0,76.886171875,9.125,2.01051896875,238.65
2021-06-25 11:12:50.859375000,-39.0,-7.0,51.0,76.88953125,12.49,2.0103188125,238.65
2021-06-25 11:12:50.867187500,-39.0,-7.0,51.0,76.892890625,14.684999999999999,2.01011865625,238.65
2021-06-25 11:12:50.875000000,-39.0,-7.0,51.0,76.89625000000001,16.88,2.0099185,238.65
2021-06-25 11:12:50.882812500,-39.0,-7.0,51.0,76.899609375,18.17,2.00971834375,238.65
2021-06-25 11:12:50.890625000,-39.0,-7.0,51.0,76.90296875,19.46,2.0095181875,238.65
2021-06-25 11:12:50.898437500,-39.0,-7.0,51.0,76.906328125,20.134999999999998,2.00931803125,238.65
2021-06-25 11:12:50.906250000,-39.0,-7.0,51.0,76.9096875,20.81,2.009117875,238.65
2021-06-25 11:12:50.914062500,-39.0,-7.0,51.0,76.913046875,21.095,2.00891771875,238.65
2021-06-25 11:12:50.921875000,-39.0,-7.0,51.0,76.91640625000001,21.38,2.0087175624999998,238.65
2021-06-25 11:12:50.929687500,-39.0,-7.0,51.0,76.919765625,21.395,2.0085174062499997,238.65
2021-06-25 11:12:50.937500000,-39.0,-7.0,51.0,76.923125,21.41,2.00831725,238.65
2021-06-25 11:12:50.945312500,-39.0,-7.0,51.0,76.926484375,21.225,2.00811709375,238.65
2021-06-25 11:12:50.953125000,-39.0,-7.0,51.0,76.92984375,21.04,2.0079169375,238.65
2021-06-25 11:12:50.960937500,-39.0,-7.0,51.0,76.933203125,20.72,2.00771678125,238.65
2021-06-25 11:12:50.968750000,-39.0,-7.0,51.0,76.93656250000001,20.4,2.007516625,238.65
2021-06-25 11:12:50.976562500,-39.0,-7.0,51.0,76.939921875,19.994999999999997,2.00731646875,238.65
2021-06-25 11:12:50.984375000,-39.0,-7.0,51.0,76.94328125,19.59,2.0071163125,238.65
2021-06-25 11:12:50.992187500,-39.0,-7.0,51.0,76.946640625,19.105,2.00691615625,238.65
2021-06-25 11:12:51.000000000,-39.0,-7.0,51.0,76.95,18.62,2.006716,238.65
2021-06-25 11:12:51.007812500,-39.0,-7.0,51.0,76.953203125,17.98,2.00675603125,238.65
2021-06-25 11:12:51.015625000,-39.0,-7.0,51.0,76.95640625,17.34,2.0067960625,238.65
2021-06-25 11:12:51.023437500,-39.0,-7.0,51.0,76.959609375,16.439999999999998,2.00683609375,238.65
2021-06-25 11:12:51.031250000,-39.0,-7.0,51.0,76.9628125,15.54,2.006876125,238.65
2021-06-25 11:12:51.039062500,-39.0,-7.0,51.0,76.966015625,14.295,2.00691615625,238.65
2021-06-25 11:12:51.046875000,-39.0,-7.0,51.0,76.96921875,13.05,2.0069561875,238.65
2021-06-25 11:12:51.054687500,-39.0,-7.0,51.0,76.97242187500001,11.5,2.00699621875,238.65
2021-06-25 11:12:51.062500000,-39.0,-7.0,51.0,76.97562500000001,9.95,2.00703625,238.65
2021-06-25 11:12:51.070312500,-39.0,-7.0,51.0,76.978828125,8.305,2.00707628125,238.65
2021-06-25 11:12:51.078125000,-39.0,-7.0,51.0,76.98203125,6.66,2.0071163125,238.65
2021-06-25 11:12:51.085937500,-39.0,-7.0,51.0,76.985234375,5.235,2.00715634375,238.65
2021-06-25 11:12:51.093750000,-39.0,-7.0,51.0,76.9884375,3.81,2.007196375,238.65
2021-06-25 11:12:51.101562500,-39.0,-7.0,51.0,76.991640625,2.925,2.00723640625,238.65
2021-06-25 11:12:51.109375000,-39.0,-7.0,51.0,76.99484375,2.04,2.0072764375,238.65
2021-06-25 11:12:51.117187500,-39.0,-7.0,51.0,76.998046875,1.865,2.00731646875,238.65
2021-06-25 11:12:51.125000000,-39.0,-7.0,51.0,77.00125,1.69,2.0073565,238.65
2021-06-25 11:12:51.132812500,-39.0,-7.0,50.75,77.004453125,2.16,2.00739653125,238.65
2021-06-25 11:12:51.140625000,-39.0,-7.0,50.5,77.00765625,2.63,2.0074365625,238.65
2021-06-25 11:12:51.148437500,-39.0,-7.0,50.25,77.010859375,3.455,2.00747659375,238.65
2021-06-25 11:12:51.156250000,-39.0,-7.0,50.0,77.01406250000001,4.28,2.007516625,238.65
2021-06-25 11:12:51.164062500,-39.0,-7.0,50.25,77.01726562500001,5.035,2.00755665625,238.65
2021-06-25 11:12:51.171875000,-39.0,-7.0,50.5,77.02046875,5.79,2.0075966875,238.65
2021-06-25 11:12:51.179687500,-39.0,-7.0,50.75,77.023671875,6.055,2.00763671875,238.65
2021-06-25 11:12:51.187500000,-39.0,-7.0,51.0,77.026875,6.32,2.00767675,238.65
2021-06-25 11:12:51.195312500,-39.0,-7.0,51.0,77.030078125,5.85,2.00771678125,238.65
2021-06-25 11:12:51.203125000,-39.0,-7.0,51.0,77.03328125,5.38,2.0077568125,238.65
2021-06-25 11:12:51.210937500,-39.0,-7.0,51.0,77.036484375,4.14,2.00779684375,238.65
2021-06-25 11:12:51.218750000,-39.0,-7.0,51.0,77.0396875,2.9,2.007836875,238.65
2021-06-25 11:12:51.226562500,-39.0,-7.0,51.0,77.042890625,1.115,2.00787690625,238.65
2021-06-25 11:12:51.234375000,-39.0,-7.0,51.0,77.04609375,-0.67,2.0079169375,238.65
2021-06-25 11:12:51.242187500,-39.0,-7.0,51.0,77.049296875,-2.61,2.00795696875,238.65
2021-06-25 11:12:51.250000000,-39.0,-7.0,51.0,77.05250000000001,-4.55,2.007997,238.65
2021-06-25 11:12:51.257812500,-39.0,-7.0,51.0,77.05570312500001,-6.279999999999999,2.00771675,238.65
2021-06-25 11:12:51.265625000,-39.0,-7.0,51.0,77.05890625,-8.01,2.0074365,238.65
2021-06-25 11:12:51.273437500,-39.0,-7.0,51.0,77.062109375,-9.280000000000001,2.00715625,238.65
2021-06-25 11:12:51.281250000,-39.0,-7.0,51.0,77.0653125,-10.55,2.006876,238.65
2021-06-25 11:12:51.289062500,-39.0,-7.0,51.0,77.068515625,-11.370000000000001,2.0065957500000002,238.65
2021-06-25 11:12:51.296875000,-39.0,-7.0,51.0,77.07171875,-12.19,2.0063155,238.65
2021-06-25 11:12:51.304687500,-39.0,-7.0,51.0,77.074921875,-12.745000000000001,2.00603525,238.65
2021-06-25 11:12:51.312500000,-39.0,-7.0,51.0,77.078125,-13.3,2.005755,238.65
2021-06-25 11:12:51.320312500,-39.0,-7.0,51.0,77.081328125,-13.92,2.00547475,238.65
2021-06-25 11:12:51.328125000,-39.0,-7.0,51.0,77.08453125,-14.54,2.0051945,238.65
2021-06-25 11:12:51.335937500,-39.0,-7.0,51.0,77.087734375,-15.51,2.00491425,238.65
2021-06-25 11:12:51.343750000,-39.0,-7.0,51.0,77.0909375,-16.48,2.004634,238.65
2021-06-25 11:12:51.351562500,-39.0,-7.0,51.0,77.09414062500001,-17.985,2.00435375,238.65
2021-06-25 11:12:51.359375000,-39.0,-7.0,51.0,77.09734375000001,-19.49,2.0040735,238.65
2021-06-25 11:12:51.367187500,-39.0,-7.0,51.0,77.100546875,-21.494999999999997,2.00379325,238.65
2021-06-25 11:12:51.375000000,-39.0,-7.0,51.0,77.10375,-23.5,2.003513,238.65
2021-06-25 11:12:51.382812500,-39.0,-7.0,51.0,77.106953125,-25.8,2.00323275,238.65
2021-06-25 11:12:51.390625000,-39.0,-7.0,51.0,77.11015625,-28.1,2.0029525,238.65
2021-06-25 11:12:51.398437500,-39.0,-7.0,51.0,77.113359375,-30.285,2.00267225,238.65
2021-06-25 11:12:51.406250000,-39.0,-7.0,51.0,77.1165625,-32.47,2.002392,238.65
2021-06-25 11:12:51.414062500,-39.0,-7.0,51.0,77.119765625,-34.01,2.00211175,238.65
2021-06-25 11:12:51.421875000,-39.0,-7.0,51.0,77.12296875,-35.55,2.0018314999999998,238.65
2021-06-25 11:12:51.429687500,-39.0,-7.0,51.0,77.126171875,-35.9,2.00155125,238.65
2021-06-25 11:12:51.437500000,-39.0,-7.0,51.0,77.129375,-36.25,2.001271,238.65
2021-06-25 11:12:51.445312500,-39.0,-7.0,51.0,77.132578125,-35.03,2.00099075,238.65
2021-06-25 11:12:51.453125000,-39.0,-7.0,51.0,77.13578125000001,-33.81,2.0007105,238.65
2021-06-25 11:12:51.460937500,-39.0,-7.0,51.0,77.138984375,-30.94,2.00043025,238.65
2021-06-25 11:12:51.468750000,-39.0,-7.0,51.0,77.1421875,-28.07,2.00015,238.65
2021-06-25 11:12:51.476562500,-39.0,-7.0,51.0,77.145390625,-23.84,1.99986975,238.65
2021-06-25 11:12:51.484375000,-39.0,-7.0,51.0,77.14859375,-19.61,1.9995895,238.65
2021-06-25 11:12:51.492187500,-39.0,-7.0,51.0,77.151796875,-14.625,1.99930925,238.65
2021-06-25 11:12:51.500000000,-39.0,-7.0,51.0,77.155,-9.64,1.999029,238.65
2021-06-25 11:12:51.507812500,-39.0,-7.0,50.75,77.158203125,-4.67,1.9986286875,238.65
2021-06-25 11:12:51.515625000,-39.0,-7.0,50.5,77.16140625,0.3,1.998228375,238.65
2021-06-25 11:12:51.523437500,-39.0,-7.0,50.25,77.164609375,4.6,1.9978280625,238.65
2021-06-25 11:12:51.531250000,-39.0,-7.0,50.0,77.1678125,8.9,1.99742775,238.65
2021-06-25 11:12:51.539062500,-39.0,-7.25,50.25,77.171015625,12.115,1.9970274375,238.65
2021-06-25 11:12:51.546875000,-39.0,-7.5,50.5,77.17421875,15.33,1.9966271249999998,238.65
2021-06-25 11:12:51.554687500,-39.0,-7.75,50.75,77.17742187500001,17.375,1.9962268125,238.65
2021-06-25 11:12:51.562500000,-39.0,-8.0,51.0,77.180625,19.42,1.9958265,238.65
2021-06-25 11:12:51.570312500,-39.0,-7.75,51.0,77.183828125,20.44,1.9954261875,238.65
2021-06-25 11:12:51.578125000,-39.0,-7.5,51.0,77.18703125,21.46,1.995025875,238.65
2021-06-25 11:12:51.585937500,-39.0,-7.25,51.0,77.190234375,21.71,1.9946255625,238.65
2021-06-25 11:12:51.593750000,-39.0,-7.0,51.0,77.1934375,21.96,1.99422525,238.65
2021-06-25 11:12:51.601562500,-39.0,-7.0,50.75,77.196640625,21.66,1.9938249375,238.65
2021-06-25 11:12:51.609375000,-39.0,-7.0,50.5,77.19984375,21.36,1.9934246249999998,238.65
2021-06-25 11:12:51.617187500,-39.0,-7.0,50.25,77.203046875,20.67,1.9930243125,238.65
2021-06-25 11:12:51.625000000,-39.0,-7.0,50.0,77.20625,19.98,1.992624,238.65
2021-06-25 11:12:51.632812500,-39.0,-7.0,50.25,77.209453125,19.005000000000003,1.9922236875,238.65
2021-06-25 11:12:51.640625000,-39.0,-7.0,50.5,77.21265625,18.03,1.991823375,238.65
2021-06-25 11:12:51.648437500,-39.0,-7.0,50.75,77.215859375,16.865000000000002,1.9914230625,238.65
2021-06-25 11:12:51.656250000,-39.0,-7.0,51.0,77.2190625,15.7,1.99102275,238.65
2021-06-25 11:12:51.664062500,-39.0,-7.0,51.0,77.222265625,14.45,1.9906224375,238.65
2021-06-25 11:12:51.671875000,-39.0,-7.0,51.0,77.22546875,13.2,1.9902221249999998,238.65
2021-06-25 11:12:51.679687500,-39.0,-7.0,51.0,77.228671875,11.96,1.9898218125,238.65
2021-06-25 11:12:51.687500000,-39.0,-7.0,51.0,77.231875,10.72,1.9894215,238.65
2021-06-25 11:12:51.695312500,-38.75,-7.0,51.25,77.235078125,9.59,1.9890211875,238.65
2021-06-25 11:12:51.703125000,-38.5,-7.0,51.5,77.23828125,8.46,1.988620875,238.65
2021-06-25 11:12:51.710937500,-38.25,-7.0,51.75,77.241484375,7.5200000000000005,1.9882205625,238.65
2021-06-25 11:12:51.718750000,-38.0,-7.0,52.0,77.2446875,6.58,1.98782025,238.65
2021-06-25 11:12:51.726562500,-38.25,-7.0,51.75,77.247890625,5.890000000000001,1.9874199375,238.65
2021-06-25 11:12:51.734375000,-38.5,-7.0,51.5,77.25109375,5.2,1.9870196249999998,238.65
2021-06-25 11:12:51.742187500,-38.75,-7.0,51.25,77.254296875,4.79,1.9866193125,238.65
2021-06-25 11:12:51.750000000,-39.0,-7.0,51.0,77.2575,4.38,1.986219,238.65
2021-06-25 11:12:51.757812500,-38.75,-7.0,51.0,77.260703125,4.1899999999999995,1.9862990624999999,238.65
2021-06-25 11:12:51.765625000,-38.5,-7.0,51.0,77.26390625,4.0,1.986379125,238.65
2021-06-25 11:12:51.773437500,-38.25,-7.0,51.0,77.267109375,3.925,1.9864591875,238.65
2021-06-25 11:12:51.781250000,-38.0,-7.0,51.0,77.2703125,3.85,1.9865392499999999,238.65
2021-06-25 11:12:51.789062500,-38.0,-7.0,51.0,77.273515625,3.74,1.9866193125,238.65
2021-06-25 11:12:51.796875000,-38.0,-7.0,51.0,77.27671875,3.63,1.986699375,238.65
2021-06-25 11:12:51.804687500,-38.0,-7.0,51.0,77.279921875,3.37,1.9867794374999999,238.65
2021-06-25 11:12:51.812500000,-38.0,-7.0,51.0,77.283125,3.11,1.9868595,238.65
2021-06-25 11:12:51.820312500,-38.25,-7.0,51.0,77.286328125,2.645,1.9869395625,238.65
2021-06-25 11:12:51.828125000,-38.5,-7.0,51.0,77.28953125,2.18,1.9870196249999998,238.65
2021-06-25 11:12:51.835937500,-38.75,-7.0,51.0,77.292734375,1.5350000000000001,1.9870996875,238.65
2021-06-25 11:12:51.843750000,-39.0,-7.0,51.0,77.2959375,0.89,1.98717975,238.65
2021-06-25 11:12:51.851562500,-38.75,-7.0,51.0,77.299140625,0.08999999999999997,1.9872598124999998,238.65
2021-06-25 11:12:51.859375000,-38.5,-7.0,51.0,77.30234375,-0.71,1.987339875,238.65
2021-06-25 11:12:51.867187500,-38.25,-7.0,51.0,77.305546875,-1.67,1.9874199375,238.65
2021-06-25 11:12:51.875000000,-38.0,-7.0,51.0,77.30875,-2.63,1.9874999999999998,238.65
2021-06-25 11:12:51.882812500,-38.25,-7.0,51.0,77.311953125,-3.815,1.9875800625,238.65
2021-06-25 11:12:51.890625000,-38.5,-7.0,51.0,77.31515625,-5.0,1.9876601249999999,238.65
2021-06-25 11:12:51.898437500,-38.75,-7.0,51.0,77.318359375,-6.505,1.9877401875,238.65
2021-06-25 11:12:51.906250000,-39.0,-7.0,51.0,77.3215625,-8.01,1.98782025,238.65
2021-06-25 11:12:51.914062500,-39.0,-7.0,51.0,77.324765625,-9.835,1.9879003124999999,238.65
2021-06-25 11:12:51.921875000,-39.0,-7.0,51.0,77.32796875,-11.66,1.987980375,238.65
2021-06-25 11:12:51.929687500,-39.0,-7.0,51.0,77.331171875,-13.715,1.9880604375,238.65
2021-06-25 11:12:51.937500000,-39.0,-7.0,51.0,77.334375,-15.77,1.9881404999999999,238.65
2021-06-25 11:12:51.945312500,-39.0,-7.25,51.0,77.337578125,-17.855,1.9882205625,238.65
2021-06-25 11:12:51.953125000,-39.0,-7.5,51.0,77.34078125,-19.94,1.988300625,238.65
2021-06-25 11:12:51.960937500,-39.0,-7.75,51.0,77.343984375,-21.9,1.9883806874999999,238.65
2021-06-25 11:12:51.968750000,-39.0,-8.0,51.0,77.3471875,-23.86,1.98846075,238.65
2021-06-25 11:12:51.976562500,-38.75,-7.75,51.0,77.350390625,-25.64,1.9885408125,238.65
2021-06-25 11:12:51.984375000,-38.5,-7.5,51.0,77.35359375,-27.42,1.9886208749999998,238.65
2021-06-25 11:12:51.992187500,-38.25,-7.25,51.0,77.356796875,-29.095,1.9887009375,238.65
2021-06-25 11:12:52.000000000,-38.0,-7.0,51.0,77.36,-30.77,1.988781,238.65
2021-06-25 11:12:52.007812500,-38.25,-7.0,51.0,77.363125,-32.4,1.9887009375,238.65
2021-06-25 11:12:52.015625000,-38.5,-7.0,51.0,77.36625,-34.03,1.9886208749999998,238.65
2021-06-25 11:12:52.023437500,-38.75,-7.0,51.0,77.369375,-35.545,1.9885408125,238.65
2021-06-25 11:12:52.031250000,-39.0,-7.0,51.0,77.3725,-37.06,1.98846075,238.65
2021-06-25 11:12:52.039062500,-39.0,-7.0,51.0,77.375625,-38.13,1.9883806874999999,238.65
2021-06-25 11:12:52.046875000,-39.0,-7.0,51.0,77.37875,-39.2,1.988300625,238.65
2021-06-25 11:12:52.054687500,-39.0,-7.0,51.0,77.381875,-39.345,1.9882205625,238.65
2021-06-25 11:12:52.062500000,-39.0,-7.0,51.0,77.385,-39.49,1.9881404999999999,238.65
2021-06-25 11:12:52.070312500,-39.0,-7.0,51.0,77.388125,-38.255,1.9880604375,238.65
2021-06-25 11:12:52.078125000,-39.0,-7.0,51.0,77.39125,-37.02,1.987980375,238.65
2021-06-25 11:12:52.085937500,-39.0,-7.0,51.0,77.394375,-34.215,1.9879003124999999,238.65
2021-06-25 11:12:52.093750000,-39.0,-7.0,51.0,77.3975,-31.41,1.98782025,238.65
2021-06-25 11:12:52.101562500,-39.0,-7.0,51.0,77.400625,-27.240000000000002,1.9877401875,238.65
2021-06-25 11:12:52.109375000,-39.0,-7.0,51.0,77.40375,-23.07,1.9876601249999999,238.65
2021-06-25 11:12:52.117187500,-39.0,-7.0,51.0,77.406875,-18.09,1.9875800625,238.65
2021-06-25 11:12:52.125000000,-39.0,-7.0,51.0,77.41,-13.11,1.9874999999999998,238.65
2021-06-25 11:12:52.132812500,-38.75,-7.0,51.0,77.413125,-8.045,1.9874199375,238.65
2021-06-25 11:12:52.140625000,-38.5,-7.0,51.0,77.41625,-2.98,1.987339875,238.65
2021-06-25 11:12:52.148437500,-38.25,-7.0,51.0,77.419375,1.525,1.9872598124999998,238.65
2021-06-25 11:12:52.156250000,-38.0,-7.0,51.0,77.4225,6.03,1.98717975,238.65
2021-06-25 11:12:52.164062500,-38.25,-7.0,51.0,77.425625,9.59,1.9870996875,238.65
2021-06-25 11:12:52.171875000,-38.5,-7.0,51.0,77.42875,13.15,1.9870196249999998,238.65
2021-06-25 11:12:52.179687500,-38.75,-7.0,51.0,77.431875,15.68,1.9869395625,238.65
2021-06-25 11:12:52.187500000,-39.0,-7.0,51.0,77.435,18.21,1.9868595,238.65
2021-06-25 11:12:52.195312500,-38.75,-7.0,51.0,77.438125,19.884999999999998,1.9867794374999999,238.65
2021-06-25 11:12:52.203125000,-38.5,-7.0,51.0,77.44125,21.56,1.986699375,238.65
2021-06-25 11:12:52.210937500,-38.25,-7.0,51.0,77.444375,22.64,1.9866193125,238.65
2021-06-25 11:12:52.218750000,-38.0,-7.0,51.0,77.4475,23.72,1.9865392499999999,238.65
2021-06-25 11:12:52.226562500,-38.25,-7.0,51.0,77.450625,24.41,1.9864591875,238.65
2021-06-25 11:12:52.234375000,-38.5,-7.0,51.0,77.45375,25.1,1.986379125,238.65
2021-06-25 11:12:52.242187500,-38.75,-7.0,51.0,77.456875,25.495,1.9862990624999999,238.65
2021-06-25 11:12:52.250000000,-39.0,-7.0,51.0,77.46000000000001,25.89,1.986219,238.65
2021-06-25 11:12:52.257812500,-39.0,-7.0,51.0,77.463125,25.96,1.98617896875,238.65
2021-06-25 11:12:52.265625000,-39.0,-7.0,51.0,77.46625,26.03,1.9861389375,238.65
2021-06-25 11:12:52.273437500,-39.0,-7.0,51.0,77.469375,25.675,1.98609890625,238.65
2021-06-25 11:12:52.281250000,-39.0,-7.0,51.0,77.4725,25.32,1.986058875,238.65
2021-06-25 11:12:52.289062500,-39.0,-7.0,51.0,77.47562500000001,24.52,1.98601884375,238.65
2021-06-25 11:12:52.296875000,-39.0,-7.0,51.0,77.47875,23.72,1.9859788125,238.65
2021-06-25 11:12:52.304687500,-39.0,-7.0,51.0,77.481875,22.52,1.98593878125,238.65
2021-06-25 11:12:52.312500000,-39.0,-7.0,51.0,77.485,21.32,1.98589875,238.65
2021-06-25 11:12:52.320312500,-39.0,-7.0,51.0,77.488125,19.87,1.98585871875,238.65
2021-06-25 11:12:52.328125000,-39.0,-7.0,51.0,77.49125000000001,18.42,1.9858186875,238.65
2021-06-25 11:12:52.335937500,-39.0,-7.0,51.0,77.494375,16.935000000000002,1.98577865625,238.65
2021-06-25 11:12:52.343750000,-39.0,-7.0,51.0,77.4975,15.45,1.985738625,238.65
2021-06-25 11:12:52.351562500,-39.0,-7.0,51.0,77.500625,14.114999999999998,1.98569859375,238.65
2021-06-25 11:12:52.359375000,-39.0,-7.0,51.0,77.50375,12.78,1.9856585625,238.65
2021-06-25 11:12:52.367187500,-39.0,-7.0,51.0,77.50687500000001,11.719999999999999,1.98561853125,238.65
2021-06-25 11:12:52.375000000,-39.0,-7.0,51.0,77.51,10.66,1.9855785,238.65
2021-06-25 11:12:52.382812500,-39.0,-7.0,51.0,77.513125,9.91,1.98553846875,238.65
2021-06-25 11:12:52.390625000,-39.0,-7.0,51.0,77.51625,9.16,1.9854984375,238.65
2021-06-25 11:12:52.398437500,-39.0,-7.0,51.0,77.519375,8.665,1.98545840625,238.65
2021-06-25 11:12:52.406250000,-39.0,-7.0,51.0,77.52250000000001,8.17,1.985418375,238.65
2021-06-25 11:12:52.414062500,-39.0,-7.0,51.0,77.525625,7.84,1.98537834375,238.65
2021-06-25 11:12:52.421875000,-39.0,-7.0,51.0,77.52875,7.51,1.9853383125000001,238.65
2021-06-25 11:12:52.429687500,-39.0,-7.0,51.0,77.531875,7.199999999999999,1.98529828125,238.65
2021-06-25 11:12:52.437500000,-39.0,-7.0,51.0,77.535,6.89,1.98525825,238.65
2021-06-25 11:12:52.445312500,-39.0,-7.0,51.0,77.53812500000001,6.449999999999999,1.98521821875,238.65
2021-06-25 11:12:52.453125000,-39.0,-7.0,51.0,77.54125,6.01,1.9851781875,238.65
2021-06-25 11:12:52.460937500,-39.0,-7.0,51.0,77.544375,5.305,1.9851381562500001,238.65
2021-06-25 11:12:52.468750000,-39.0,-7.0,51.0,77.5475,4.6,1.9850981250000002,238.65
2021-06-25 11:12:52.476562500,-39.0,-7.0,51.0,77.550625,3.57,1.98505809375,238.65
2021-06-25 11:12:52.484375000,-39.0,-7.0,51.0,77.55375000000001,2.54,1.9850180625,238.65
2021-06-25 11:12:52.492187500,-39.0,-7.0,51.0,77.556875,1.2,1.98497803125,238.65
2021-06-25 11:12:52.500000000,-39.0,-7.0,51.0,77.56,-0.14,1.984938,238.65
2021-06-25 11:12:52.507812500,-39.0,-7.0,51.0,77.563125,-1.71,1.98521821875,238.65
2021-06-25 11:12:52.515625000,-39.0,-7.0,51.0,77.56625,-3.28,1.9854984375,238.65
2021-06-25 11:12:52.523437500,-39.0,-7.0,51.0,77.56937500000001,-4.955,1.9857786562500002,238.65
2021-06-25 11:12:52.531250000,-39.0,-7.0,51.0,77.5725,-6.63,1.9860588750000001,238.65
2021-06-25 11:12:52.539062500,-39.0,-7.0,51.0,77.575625,-8.31,1.98633909375,238.65
2021-06-25 11:12:52.546875000,-39.0,-7.0,51.0,77.57875,-9.99,1.9866193125,238.65
2021-06-25 11:12:52.554687500,-39.0,-7.0,51.0,77.581875,-11.605,1.9868995312500002,238.65
2021-06-25 11:12:52.562500000,-39.0,-7.0,51.0,77.58500000000001,-13.22,1.9871797500000001,238.65
2021-06-25 11:12:52.570312500,-39.0,-7.0,51.0,77.588125,-14.77,1.98745996875,238.65
2021-06-25 11:12:52.578125000,-39.0,-7.0,51.0,77.59125,-16.32,1.9877401875,238.65
2021-06-25 11:12:52.585937500,-39.0,-7.0,51.0,77.594375,-17.825,1.98802040625,238.65
2021-06-25 11:12:52.593750000,-39.0,-7.0,51.0,77.5975,-19.33,1.9883006250000002,238.65
2021-06-25 11:12:52.601562500,-39.0,-7.0,51.0,77.60062500000001,-20.89,1.98858084375,238.65
2021-06-25 11:12:52.609375000,-39.0,-7.0,51.0,77.60375,-22.45,1.9888610625,238.65
2021-06-25 11:12:52.617187500,-39.0,-7.0,51.0,77.606875,-24.15,1.98914128125,238.65
2021-06-25 11:12:52.625000000,-39.0,-7.0,51.0,77.61,-25.85,1.9894215000000002,238.65
2021-06-25 11:12:52.632812500,-38.75,-7.0,51.0,77.613125,-27.805,1.9897017187500001,238.65
2021-06-25 11:12:52.640625000,-38.5,-7.0,51.0,77.61625000000001,-29.76,1.9899819375,238.65
2021-06-25 11:12:52.648437500,-38.25,-7.0,51.0,77.619375,-31.97,1.99026215625,238.65
2021-06-25 11:12:52.656250000,-38.0,-7.0,51.0,77.6225,-34.18,1.990542375,238.65
2021-06-25 11:12:52.664062500,-38.25,-7.0,51.0,77.625625,-36.5,1.9908225937500001,238.65
2021-06-25 11:12:52.671875000,-38.5,-7.0,51.0,77.62875,-38.82,1.9911028125,238.65
2021-06-25 11:12:52.679687500,-38.75,-7.0,51.0,77.63187500000001,-40.885000000000005,1.99138303125,238.65
2021-06-25 11:12:52.687500000,-39.0,-7.0,51.0,77.635,-42.95,1.99166325,238.65
2021-06-25 11:12:52.695312500,-38.75,-7.0,51.0,77.638125,-44.230000000000004,1.99194346875,238.65
2021-06-25 11:12:52.703125000,-38.5,-7.0,51.0,77.64125,-45.51,1.9922236875000001,238.65
2021-06-25 11:12:52.710937500,-38.25,-7.0,51.0,77.644375,-45.455,1.99250390625,238.65
2021-06-25 11:12:52.718750000,-38.0,-7.0,51.0,77.64750000000001,-45.4,1.992784125,238.65
2021-06-25 11:12:52.726562500,-38.25,-7.0,51.0,77.650625,-43.635,1.99306434375,238.65
2021-06-25 11:12:52.734375000,-38.5,-7.0,51.0,77.65375,-41.87,1.9933445625000001,238.65
2021-06-25 11:12:52.742187500,-38.75,-7.0,51.0,77.656875,-38.39,1.99362478125,238.65
2021-06-25 11:12:52.750000000,-39.0,-7.0,51.0,77.66,-34.91,1.993905,238.65
2021-06-25 11:12:52.757812500,-38.75,-7.0,51.0,77.66312500000001,-30.099999999999998,1.9944254375000001,238.65
2021-06-25 11:12:52.765625000,-38.5,-7.0,51.0,77.66625,-25.29,1.994945875,238.65
2021-06-25 11:12:52.773437500,-38.25,-7.0,51.0,77.669375,-19.845,1.9954663125,238.65
2021-06-25 11:12:52.781250000,-38.0,-7.0,51.0,77.6725,-14.4,1.9959867500000001,238.65
2021-06-25 11:12:52.789062500,-38.25,-7.0,51.0,77.67562500000001,-9.085,1.9965071875,238.65
2021-06-25 11:12:52.796875000,-38.5,-7.0,51.0,77.67875000000001,-3.77,1.997027625,238.65
2021-06-25 11:12:52.804687500,-38.75,-7.0,51.0,77.681875,0.81,1.9975480625000002,238.65
2021-06-25 11:12:52.812500000,-39.0,-7.0,51.0,77.685,5.39,1.9980685,238.65
2021-06-25 11:12:52.820312500,-39.0,-7.0,51.0,77.688125,8.95,1.9985889375,238.65
2021-06-25 11:12:52.828125000,-39.0,-7.0,51.0,77.69125000000001,12.51,1.9991093750000002,238.65
2021-06-25 11:12:52.835937500,-39.0,-7.0,51.0,77.69437500000001,15.075,1.9996298125,238.65
2021-06-25 11:12:52.843750000,-39.0,-7.0,51.0,77.6975,17.64,2.00015025,238.65
2021-06-25 11:12:52.851562500,-38.75,-7.0,51.0,77.700625,19.445,2.0006706875,238.65
2021-06-25 11:12:52.859375000,-38.5,-7.0,51.0,77.70375,21.25,2.001191125,238.65
2021-06-25 11:12:52.867187500,-38.25,-7.0,51.0,77.70687500000001,22.560000000000002,2.0017115625,238.65
2021-06-25 11:12:52.875000000,-38.0,-7.0,51.0,77.71000000000001,23.87,2.0022320000000002,238.65
2021-06-25 11:12:52.882812500,-38.25,-7.0,51.0,77.713125,24.825000000000003,2.0027524375000003,238.65
2021-06-25 11:12:52.890625000,-38.5,-7.0,51.0,77.71625,25.78,2.003272875,238.65
2021-06-25 11:12:52.898437500,-38.75,-7.0,51.0,77.719375,26.41,2.0037933125,238.65
2021-06-25 11:12:52.906250000,-39.0,-7.0,51.0,77.72250000000001,27.04,2.00431375,238.65
2021-06-25 11:12:52.914062500,-39.0,-7.0,51.0,77.72562500000001,27.255,2.0048341875,238.65
2021-06-25 11:12:52.921875000,-39.0,-7.0,51.0,77.72875,27.47,2.0053546250000003,238.65
2021-06-25 11:12:52.929687500,-39.0,-7.0,51.0,77.731875,27.225,2.0058750625000004,238.65
2021-06-25 11:12:52.937500000,-39.0,-7.0,51.0,77.735,26.98,2.0063955,238.65
2021-06-25 11:12:52.945312500,-39.0,-7.0,51.0,77.73812500000001,26.314999999999998,2.0069159375,238.65
2021-06-25 11:12:52.953125000,-39.0,-7.0,51.0,77.74125000000001,25.65,2.007436375,238.65
2021-06-25 11:12:52.960937500,-39.0,-7.0,51.0,77.744375,24.68,2.0079568125000002,238.65
2021-06-25 11:12:52.968750000,-39.0,-7.0,51.0,77.7475,23.71,2.0084772500000003,238.65
2021-06-25 11:12:52.976562500,-39.0,-7.0,51.0,77.750625,22.6,2.0089976875000004,238.65
2021-06-25 11:12:52.984375000,-39.0,-7.0,51.0,77.75375000000001,21.49,2.009518125,238.65
2021-06-25 11:12:52.992187500,-39.0,-7.0,51.0,77.75687500000001,20.369999999999997,2.0100385625,238.65
2021-06-25 11:12:53.000000000,-39.0,-7.0,51.0,77.76,19.25,2.010559,238.65
2021-06-25 11:12:53.007812500,-39.0,-7.0,51.0,77.76273437500001,18.175,2.0107591562500002,238.65
2021-06-25 11:12:53.015625000,-39.0,-7.0,51.0,77.76546875000001,17.1,2.0109593125000003,238.65
2021-06-25 11:12:53.023437500,-39.0,-7.0,51.0,77.768203125,16.11,2.0111594687500003,238.65
2021-06-25 11:12:53.031250000,-39.0,-7.0,51.0,77.7709375,15.12,2.0113596250000003,238.65
2021-06-25 11:12:53.039062500,-38.75,-7.25,51.0,77.773671875,14.254999999999999,2.0115597812500003,238.65
2021-06-25 11:12:53.046875000,-38.5,-7.5,51.0,77.77640625000001,13.39,2.0117599375000004,238.65
2021-06-25 11:12:53.054687500,-38.25,-7.75,51.0,77.77914062500001,12.735,2.0119600937500004,238.65
2021-06-25 11:12:53.062500000,-38.0,-8.0,51.0,77.781875,12.08,2.01216025,238.65
2021-06-25 11:12:53.070312500,-38.25,-7.75,51.0,77.784609375,11.715,2.01236040625,238.65
2021-06-25 11:12:53.078125000,-38.5,-7.5,51.0,77.78734375,11.35,2.0125605625,238.65
2021-06-25 11:12:53.085937500,-38.75,-7.25,51.0,77.79007812500001,11.26,2.01276071875,238.65
2021-06-25 11:12:53.093750000,-39.0,-7.0,51.0,77.79281250000001,11.17,2.012960875,238.65
2021-06-25 11:12:53.101562500,-39.0,-7.0,51.0,77.795546875,11.215,2.01316103125,238.65
2021-06-25 11:12:53.109375000,-39.0,-7.0,51.0,77.79828125,11.26,2.0133611875,238.65
2021-06-25 11:12:53.117187500,-39.0,-7.0,51.0,77.801015625,11.2,2.01356134375,238.65
2021-06-25 11:12:53.125000000,-39.0,-7.0,51.0,77.80375000000001,11.14,2.0137615,238.65
2021-06-25 11:12:53.132812500,-39.0,-7.0,51.0,77.80648437500001,10.690000000000001,2.0139616562500002,238.65
2021-06-25 11:12:53.140625000,-39.0,-7.0,51.0,77.80921875,10.24,2.0141618125000003,238.65
2021-06-25 11:12:53.148437500,-39.0,-7.0,51.0,77.811953125,9.21,2.0143619687500003,238.65
2021-06-25 11:12:53.156250000,-39.0,-7.0,51.0,77.8146875,8.18,2.0145621250000003,238.65
2021-06-25 11:12:53.164062500,-39.0,-7.0,51.0,77.81742187500001,6.529999999999999,2.0147622812500003,238.65
2021-06-25 11:12:53.171875000,-39.0,-7.0,51.0,77.82015625000001,4.88,2.0149624375000004,238.65
2021-06-25 11:12:53.179687500,-39.0,-7.0,51.0,77.822890625,2.755,2.0151625937500004,238.65
2021-06-25 11:12:53.187500000,-39.0,-7.0,51.0,77.825625,0.63,2.0153627500000004,238.65
2021-06-25 11:12:53.195312500,-39.0,-7.25,51.0,77.828359375,-1.73,2.01556290625,238.65
2021-06-25 11:12:53.203125000,-39.0,-7.5,51.0,77.83109375000001,-4.09,2.0157630625,238.65
2021-06-25 11:12:53.210937500,-39.0,-7.75,51.0,77.83382812500001,-6.445,2.01596321875,238.65
2021-06-25 11:12:53.218750000,-39.0,-8.0,51.0,77.8365625,-8.8,2.016163375,238.65
2021-06-25 11:12:53.226562500,-39.0,-7.75,51.0,77.839296875,-10.965,2.01636353125,238.65
2021-06-25 11:12:53.234375000,-39.0,-7.5,51.0,77.84203125,-13.13,2.0165636875,238.65
2021-06-25 11:12:53.242187500,-39.0,-7.25,51.0,77.84476562500001,-15.045000000000002,2.01676384375,238.65
2021-06-25 11:12:53.250000000,-39.0,-7.0,51.0,77.8475,-16.96,2.016964,238.65
2021-06-25 11:12:53.257812500,-38.75,-7.0,51.0,77.850234375,-18.695,2.01664375,238.65
2021-06-25 11:12:53.265625000,-38.5,-7.0,51.0,77.85296875,-20.43,2.0163235000000004,238.65
2021-06-25 11:12:53.273437500,-38.25,-7.0,51.0,77.855703125,-22.145,2.0160032500000002,238.65
2021-06-25 11:12:53.281250000,-38.0,-7.0,51.0,77.85843750000001,-23.86,2.015683,238.65
2021-06-25 11:12:53.289062500,-38.0,-7.0,51.0,77.861171875,-25.77,2.01536275,238.65
2021-06-25 11:12:53.296875000,-38.0,-7.0,51.0,77.86390625,-27.68,2.0150425000000003,238.65
2021-06-25 11:12:53.304687500,-38.0,-7.0,51.0,77.866640625,-29.975,2.01472225,238.65
2021-06-25 11:12:53.312500000,-38.0,-7.0,51.0,77.869375,-32.27,2.014402,238.65
2021-06-25 11:12:53.320312500,-38.25,-7.0,51.0,77.87210937500001,-34.980000000000004,2.0140817500000003,238.65
2021-06-25 11:12:53.328125000,-38.5,-7.0,51.0,77.87484375,-37.69,2.0137615,238.65
2021-06-25 11:12:53.335937500,-38.75,-7.0,51.0,77.877578125,-40.58,2.01344125,238.65
2021-06-25 11:12:53.343750000,-39.0,-7.0,51.0,77.8803125,-43.47,2.013121,238.65
2021-06-25 11:12:53.351562500,-38.75,-7.0,51.0,77.883046875,-46.004999999999995,2.0128007500000002,238.65
2021-06-25 11:12:53.359375000,-38.5,-7.0,51.0,77.88578125000001,-48.54,2.0124805,238.65
2021-06-25 11:12:53.367187500,-38.25,-7.0,51.0,77.888515625,-50.004999999999995,2.01216025,238.65
2021-06-25 11:12:53.375000000,-38.0,-7.0,51.0,77.89125,-51.47,2.0118400000000003,238.65
2021-06-25 11:12:53.382812500,-38.25,-7.0,51.0,77.893984375,-51.224999999999994,2.01151975,238.65
2021-06-25 11:12:53.390625000,-38.5,-7.0,51.0,77.89671875,-50.98,2.0111995,238.65
2021-06-25 11:12:53.398437500,-38.75,-7.0,51.0,77.89945312500001,-48.69,2.01087925,238.65
2021-06-25 11:12:53.406250000,-39.0,-7.0,51.0,77.9021875,-46.4,2.010559,238.65
2021-06-25 11:12:53.414062500,-39.0,-7.0,51.0,77.904921875,-42.215,2.01023875,238.65
2021-06-25 11:12:53.421875000,-39.0,-7.0,51.0,77.90765625,-38.03,2.0099185,238.65
2021-06-25 11:12:53.429687500,-39.0,-7.0,51.0,77.910390625,-32.565,2.00959825,238.65
2021-06-25 11:12:53.437500000,-39.0,-7.0,51.0,77.91312500000001,-27.1,2.009278,238.65
2021-06-25 11:12:53.445312500,-39.0,-7.0,51.0,77.915859375,-21.245,2.00895775,238.65
2021-06-25 11:12:53.453125000,-39.0,-7.0,51.0,77.91859375,-15.39,2.0086375,238.65
2021-06-25 11:12:53.460937500,-39.0,-7.0,51.0,77.921328125,-9.985,2.00831725,238.65
2021-06-25 11:12:53.468750000,-39.0,-7.0,51.0,77.9240625,-4.58,2.007997,238.65
2021-06-25 11:12:53.476562500,-39.0,-7.0,51.0,77.92679687500001,-0.20500000000000007,2.00767675,238.65
2021-06-25 11:12:53.484375000,-39.0,-7.0,51.0,77.92953125,4.17,2.0073564999999998,238.65
2021-06-25 11:12:53.492187500,-39.0,-7.0,51.0,77.932265625,7.315,2.00703625,238.65
2021-06-25 11:12:53.500000000,-39.0,-7.0,51.0,77.935,10.46,2.006716,238.65
2021-06-25 11:12:53.507812500,-39.0,-7.0,51.0,77.937734375,12.515,2.006876125,238.65
2021-06-25 11:12:53.515625000,-39.0,-7.0,51.0,77.94046875000001,14.57,2.00703625,238.65
2021-06-25 11:12:53.523437500,-39.0,-7.0,51.0,77.943203125,15.83,2.007196375,238.65
2021-06-25 11:12:53.531250000,-39.0,-7.0,51.0,77.9459375,17.09,2.0073564999999998,238.65
2021-06-25 11:12:53.539062500,-39.0,-7.0,51.0,77.948671875,17.865000000000002,2.007516625,238.65
2021-06-25 11:12:53.546875000,-39.0,-7.0,51.0,77.95140625,18.64,2.00767675,238.65
2021-06-25 11:12:53.554687500,-39.0,-7.0,51.0,77.95414062500001,19.155,2.0078368749999997,238.65
2021-06-25 11:12:53.562500000,-39.0,-7.0,51.0,77.956875,19.67,2.007997,238.65
2021-06-25 11:12:53.570312500,-39.0,-7.0,51.0,77.959609375,20.015,2.008157125,238.65
2021-06-25 11:12:53.578125000,-39.0,-7.0,51.0,77.96234375,20.36,2.0083172499999997,238.65
2021-06-25 11:12:53.585937500,-39.0,-7.0,51.0,77.965078125,20.509999999999998,2.008477375,238.65
2021-06-25 11:12:53.593750000,-39.0,-7.0,51.0,77.96781250000001,20.66,2.0086375,238.65
2021-06-25 11:12:53.601562500,-39.0,-7.0,51.0,77.970546875,20.525,2.0087976249999997,238.65
2021-06-25 11:12:53.609375000,-39.0,-7.0,51.0,77.97328125,20.39,2.00895775,238.65
2021-06-25 11:12:53.617187500,-39.0,-7.0,51.0,77.976015625,19.89,2.009117875,238.65
2021-06-25 11:12:53.625000000,-39.0,-7.0,51.0,77.97875,19.39,2.009278,238.65
2021-06-25 11:12:53.632812500,-39.0,-7.25,51.0,77.98148437500001,18.509999999999998,2.009438125,238.65
2021-06-25 11:12:53.640625000,-39.0,-7.5,51.0,77.98421875,17.63,2.00959825,238.65
2021-06-25 11:12:53.648437500,-39.0,-7.75,51.0,77.986953125,16.455,2.009758375,238.65
2021-06-25 11:12:53.656250000,-39.0,-8.0,51.0,77.9896875,15.28,2.0099185,238.65
2021-06-25 11:12:53.664062500,-38.75,-7.75,51.0,77.992421875,14.024999999999999,2.010078625,238.65
2021-06-25 11:12:53.671875000,-38.5,-7.5,51.0,77.99515625000001,12.77,2.01023875,238.65
2021-06-25 11:12:53.679687500,-38.25,-7.25,51.0,77.997890625,11.665,2.010398875,238.65
2021-06-25 11:12:53.687500000,-38.0,-7.0,51.0,78.000625,10.56,2.0105589999999998,238.65
2021-06-25 11:12:53.695312500,-38.25,-7.0,51.0,78.003359375,9.815000000000001,2.010719125,238.65
2021-06-25 11:12:53.703125000,-38.5,-7.0,51.0,78.00609375,9.07,2.01087925,238.65
2021-06-25 11:12:53.710937500,-38.75,-7.0,51.0,78.00882812500001,8.75,2.0110393749999997,238.65
2021-06-25 11:12:53.718750000,-39.0,-7.0,51.0,78.0115625,8.43,2.0111995,238.65
2021-06-25 11:12:53.726562500,-39.0,-7.0,51.0,78.014296875,8.465,2.011359625,238.65
2021-06-25 11:12:53.734375000,-39.0,-7.0,51.0,78.01703125,8.5,2.0115197499999997,238.65
2021-06-25 11:12:53.742187500,-39.0,-7.0,51.0,78.019765625,8.71,2.011679875,238.65
2021-06-25 11:12:53.750000000,-39.0,-7.0,51.0,78.02250000000001,8.92,2.01184,238.65
2021-06-25 11:12:53.757812500,-39.0,-7.0,51.0,78.025234375,9.11,2.0117199062499997,238.65
2021-06-25 11:12:53.765625000,-39.0,-7.0,51.0,78.02796875,9.3,2.0115998125,238.65
2021-06-25 11:12:53.773437500,-39.0,-7.0,51.0,78.030703125,9.335,2.01147971875,238.65
2021-06-25 11:12:53.781250000,-39.0,-7.0,51.0,78.0334375,9.37,2.011359625,238.65
2021-06-25 11:12:53.789062500,-39.0,-7.0,51.0,78.036171875,9.165,2.0112395312499998,238.65
2021-06-25 11:12:53.796875000,-39.0,-7.0,51.0,78.03890625,8.96,2.0111194374999997,238.65
2021-06-25 11:12:53.804687500,-39.0,-7.0,51.0,78.041640625,8.465,2.01099934375,238.65
2021-06-25 11:12:53.812500000,-39.0,-7.0,51.0,78.044375,7.97,2.01087925,238.65
2021-06-25 11:12:53.820312500,-39.0,-7.0,51.0,78.047109375,7.125,2.01075915625,238.65
2021-06-25 11:12:53.828125000,-39.0,-7.0,51.0,78.04984375,6.28,2.0106390625,238.65
2021-06-25 11:12:53.835937500,-39.0,-7.0,51.0,78.052578125,5.03,2.01051896875,238.65
2021-06-25 11:12:53.843750000,-39.0,-7.0,51.0,78.0553125,3.78,2.010398875,238.65
2021-06-25 11:12:53.851562500,-39.0,-7.25,51.0,78.058046875,2.11,2.01027878125,238.65
2021-06-25 11:12:53.859375000,-39.0,-7.5,51.0,78.06078125,0.44,2.0101586874999997,238.65
2021-06-25 11:12:53.867187500,-39.0,-7.75,51.0,78.063515625,-1.58,2.01003859375,238.65
2021-06-25 11:12:53.875000000,-39.0,-8.0,51.0,78.06625,-3.6,2.0099185,238.65
2021-06-25 11:12:53.882812500,-39.0,-7.75,51.0,78.068984375,-5.825000000000001,2.00979840625,238.65
2021-06-25 11:12:53.890625000,-39.0,-7.5,51.0,78.07171875,-8.05,2.0096783125,238.65
2021-06-25 11:12:53.898437500,-39.0,-7.25,51.0,78.074453125,-10.325,2.00955821875,238.65
2021-06-25 11:12:53.906250000,-39.0,-7.0,51.0,78.0771875,-12.6,2.009438125,238.65
2021-06-25 11:12:53.914062500,-38.75,-7.0,51.0,78.079921875,-14.850000000000001,2.00931803125,238.65
2021-06-25 11:12:53.921875000,-38.5,-7.0,51.0,78.08265625,-17.1,2.0091979374999998,238.65
2021-06-25 11:12:53.929687500,-38.25,-7.0,51.0,78.085390625,-19.375,2.00907784375,238.65
2021-06-25 11:12:53.937500000,-38.0,-7.0,51.0,78.088125,-21.65,2.00895775,238.65
2021-06-25 11:12:53.945312500,-38.25,-7.0,51.0,78.090859375,-24.055,2.00883765625,238.65
2021-06-25 11:12:53.953125000,-38.5,-7.0,51.0,78.09359375,-26.46,2.0087175625,238.65
2021-06-25 11:12:53.960937500,-38.75,-7.0,51.0,78.096328125,-28.97,2.00859746875,238.65
2021-06-25 11:12:53.968750000,-39.0,-7.0,51.0,78.0990625,-31.48,2.008477375,238.65
2021-06-25 11:12:53.976562500,-38.75,-7.0,51.0,78.101796875,-33.85,2.00835728125,238.65
2021-06-25 11:12:53.984375000,-38.5,-7.0,51.0,78.10453125,-36.22,2.0082371875,238.65
2021-06-25 11:12:53.992187500,-38.25,-7.0,51.0,78.107265625,-37.92,2.00811709375,238.65
2021-06-25 11:12:54.000000000,-38.0,-7.0,51.0,78.11,-39.62,2.007997,238.65
2021-06-25 11:12:54.007812500,-38.0,-7.25,51.0,78.1125,-40.025,2.0077968125,238.65
2021-06-25 11:12:54.015625000,-38.0,-7.5,51.0,78.115,-40.43,2.007596625,238.65
2021-06-25 11:12:54.023437500,-38.0,-7.75,51.0,78.11749999999999,-39.075,2.0073964375,238.65
2021-06-25 11:12:54.031250000,-38.0,-8.0,51.0,78.12,-37.72,2.00719625,238.65
2021-06-25 11:12:54.039062500,-38.25,-7.75,51.0,78.1225,-34.515,2.0069960625,238.65
2021-06-25 11:12:54.046875000,-38.5,-7.5,51.0,78.125,-31.31,2.006795875,238.65
2021-06-25 11:12:54.054687500,-38.75,-7.25,51.0,78.1275,-26.645,2.0065956875,238.65
2021-06-25 11:12:54.062500000,-39.0,-7.0,51.0,78.13,-21.98,2.0063955,238.65
2021-06-25 11:12:54.070312500,-39.0,-7.0,51.0,78.1325,-16.560000000000002,2.0061953125,238.65
2021-06-25 11:12:54.078125000,-39.0,-7.0,51.0,78.135,-11.14,2.005995125,238.65
2021-06-25 11:12:54.085937500,-39.0,-7.0,51.0,78.1375,-5.78,2.0057949375,238.65
2021-06-25 11:12:54.093750000,-39.0,-7.0,51.0,78.14,-0.42,2.00559475,238.65
2021-06-25 11:12:54.101562500,-39.0,-7.0,51.0,78.1425,4.25,2.0053945625,238.65
2021-06-25 11:12:54.109375000,-39.0,-7.0,51.0,78.145,8.92,2.005194375,238.65
2021-06-25 11:12:54.117187500,-39.0,-7.0,51.0,78.1475,12.575,2.0049941875,238.65
2021-06-25 11:12:54.125000000,-39.0,-7.0,51.0,78.15,16.23,2.004794,238.65
2021-06-25 11:12:54.132812500,-39.0,-7.25,51.0,78.1525,18.85,2.0045938125,238.65
2021-06-25 11:12:54.140625000,-39.0,-7.5,51.0,78.155,21.47,2.004393625,238.65
2021-06-25 11:12:54.148437500,-39.0,-7.75,51.0,78.1575,23.21,2.0041934375,238.65
2021-06-25 11:12:54.156250000,-39.0,-8.0,51.0,78.16,24.95,2.0039932499999997,238.65
2021-06-25 11:12:54.164062500,-39.0,-7.75,51.0,78.1625,26.009999999999998,2.0037930624999998,238.65
2021-06-25 11:12:54.171875000,-39.0,-7.5,51.0,78.165,27.07,2.003592875,238.65
2021-06-25 11:12:54.179687500,-39.0,-7.25,51.0,78.1675,27.59,2.0033926875,238.65
2021-06-25 11:12:54.187500000,-39.0,-7.0,51.0,78.17,28.11,2.0031925,238.65
2021-06-25 11:12:54.195312500,-39.0,-7.0,51.0,78.1725,28.16,2.0029923125,238.65
2021-06-25 11:12:54.203125000,-39.0,-7.0,51.0,78.175,28.21,2.002792125,238.65
2021-06-25 11:12:54.210937500,-39.0,-7.0,51.0,78.1775,27.825000000000003,2.0025919375,238.65
2021-06-25 11:12:54.218750000,-39.0,-7.0,51.0,78.18,27.44,2.00239175,238.65
2021-06-25 11:12:54.226562500,-39.0,-7.25,51.0,78.1825,26.675,2.0021915624999997,238.65
2021-06-25 11:12:54.234375000,-39.0,-7.5,51.0,78.185,25.91,2.001991375,238.65
2021-06-25 11:12:54.242187500,-39.0,-7.75,51.0,78.1875,24.869999999999997,2.0017911875,238.65
2021-06-25 11:12:54.250000000,-39.0,-8.0,51.0,78.19,23.83,2.001591,238.65
2021-06-25 11:12:54.257812500,-39.0,-7.75,51.0,78.1925,22.64,2.00139084375,238.65
2021-06-25 11:12:54.265625000,-39.0,-7.5,51.0,78.19500000000001,21.45,2.0011906875,238.65
2021-06-25 11:12:54.273437500,-39.0,-7.25,51.0,78.1975,20.235,2.00099053125,238.65
2021-06-25 11:12:54.281250000,-39.0,-7.0,51.0,78.2,19.02,2.000790375,238.65
2021-06-25 11:12:54.289062500,-38.75,-7.0,51.0,78.2025,17.89,2.0005902187499998,238.65
2021-06-25 11:12:54.296875000,-38.5,-7.0,51.0,78.205,16.76,2.0003900624999997,238.65
2021-06-25 11:12:54.304687500,-38.25,-7.0,51.0,78.2075,15.825000000000001,2.0001899062499997,238.65
2021-06-25 11:12:54.312500000,-38.0,-7.0,51.0,78.21000000000001,14.89,1.99998975,238.65
2021-06-25 11:12:54.320312500,-38.25,-7.0,51.0,78.2125,14.260000000000002,1.9997895937499999,238.65
2021-06-25 11:12:54.328125000,-38.5,-7.0,51.0,78.215,13.63,1.9995894374999998,238.65
2021-06-25 11:12:54.335937500,-38.75,-7.0,51.0,78.2175,13.41,1.9993892812499998,238.65
2021-06-25 11:12:54.343750000,-39.0,-7.0,51.0,78.22,13.19,1.999189125,238.65
2021-06-25 11:12:54.351562500,-38.75,-7.0,51.0,78.2225,13.399999999999999,1.99898896875,238.65
2021-06-25 11:12:54.359375000,-38.5,-7.0,51.0,78.22500000000001,13.61,1.9987888125,238.65
2021-06-25 11:12:54.367187500,-38.25,-7.0,51.0,78.2275,14.14,1.99858865625,238.65
2021-06-25 11:12:54.375000000,-38.0,-7.0,51.0,78.23,14.67,1.9983885,238.65
2021-06-25 11:12:54.382812500,-38.25,-7.0,51.0,78.2325,15.219999999999999,1.9981883437499999,238.65
2021-06-25 11:12:54.390625000,-38.5,-7.0,51.0,78.235,15.77,1.9979881874999998,238.65
2021-06-25 11:12:54.398437500,-38.75,-7.0,51.0,78.2375,15.92,1.9977880312499998,238.65
2021-06-25 11:12:54.406250000,-39.0,-7.0,51.0,78.24000000000001,16.07,1.9975878749999998,238.65
2021-06-25 11:12:54.414062500,-39.0,-7.25,51.0,78.2425,15.475000000000001,1.99738771875,238.65
2021-06-25 11:12:54.421875000,-39.0,-7.5,51.0,78.245,14.88,1.9971875625,238.65
2021-06-25 11:12:54.429687500,-39.0,-7.75,51.0,78.2475,13.420000000000002,1.99698740625,238.65
2021-06-25 11:12:54.437500000,-39.0,-8.0,51.0,78.25,11.96,1.99678725,238.65
2021-06-25 11:12:54.445312500,-39.0,-7.75,51.0,78.2525,9.790000000000001,1.9965870937499999,238.65
2021-06-25 11:12:54.453125000,-39.0,-7.5,51.0,78.25500000000001,7.62,1.9963869374999998,238.65
2021-06-25 11:12:54.460937500,-39.0,-7.25,51.0,78.25750000000001,5.12,1.9961867812499998,238.65
2021-06-25 11:12:54.468750000,-39.0,-7.0,51.0,78.26,2.62,1.995986625,238.65
2021-06-25 11:12:54.476562500,-39.0,-7.0,51.0,78.2625,0.21499999999999986,1.99578646875,238.65
2021-06-25 11:12:54.484375000,-39.0,-7.0,51.0,78.265,-2.19,1.9955863125,238.65
2021-06-25 11:12:54.492187500,-39.0,-7.0,51.0,78.2675,-4.255000000000001,1.99538615625,238.65
2021-06-25 11:12:54.500000000,-39.0,-7.0,51.0,78.27000000000001,-6.32,1.995186,238.65
2021-06-25 11:12:54.507812500,-39.0,-7.0,51.0,78.27250000000001,-8.030000000000001,1.9954261875,238.65
2021-06-25 11:12:54.515625000,-39.0,-7.0,51.0,78.275,-9.74,1.9956663749999999,238.65
2021-06-25 11:12:54.523437500,-39.0,-7.0,51.0,78.2775,-11.254999999999999,1.9959065624999999,238.65
2021-06-25 11:12:54.531250000,-39.0,-7.0,51.0,78.28,-12.77,1.9961467499999999,238.65
2021-06-25 11:12:54.539062500,-38.75,-7.0,51.0,78.2825,-14.344999999999999,1.9963869374999998,238.65
2021-06-25 11:12:54.546875000,-38.5,-7.0,51.0,78.285,-15.92,1.9966271249999998,238.65
2021-06-25 11:12:54.554687500,-38.25,-7.0,51.0,78.28750000000001,-17.765,1.9968673124999998,238.65
2021-06-25 11:12:54.562500000,-38.0,-7.0,51.0,78.29,-19.61,1.9971074999999998,238.65
2021-06-25 11:12:54.570312500,-38.25,-7.0,51.0,78.2925,-21.83,1.9973476875,238.65
2021-06-25 11:12:54.578125000,-38.5,-7.0,51.0,78.295,-24.05,1.997587875,238.65
2021-06-25 11:12:54.585937500,-38.75,-7.0,51.0,78.2975,-26.634999999999998,1.9978280625,238.65
2021-06-25 11:12:54.593750000,-39.0,-7.0,51.0,78.3,-29.22,1.99806825,238.65
2021-06-25 11:12:54.601562500,-39.0,-7.0,51.0,78.30250000000001,-32.015,1.9983084375,238.65
2021-06-25 11:12:54.609375000,-39.0,-7.0,51.0,78.305,-34.81,1.998548625,238.65
2021-06-25 11:12:54.617187500,-39.0,-7.0,51.0,78.3075,-37.485,1.9987888125,238.65
2021-06-25 11:12:54.625000000,-39.0,-7.0,51.0,78.31,-40.16,1.999029,238.65
2021-06-25 11:12:54.632812500,-38.75,-7.0,51.0,78.3125,-42.2,1.9992691875,238.65
2021-06-25 11:12:54.640625000,-38.5,-7.0,51.0,78.315,-44.24,1.999509375,238.65
2021-06-25 11:12:54.648437500,-38.25,-7.0,51.0,78.31750000000001,-45.045,1.9997495625,238.65
2021-06-25 11:12:54.656250000,-38.0,-7.0,51.0,78.32000000000001,-45.85,1.99998975,238.65
2021-06-25 11:12:54.664062500,-38.25,-7.0,51.0,78.3225,-44.91,2.0002299375,238.65
2021-06-25 11:12:54.671875000,-38.5,-7.0,51.0,78.325,-43.97,2.000470125,238.65
2021-06-25 11:12:54.679687500,-38.75,-7.0,51.0,78.3275,-41.08,2.0007103125,238.65
2021-06-25 11:12:54.687500000,-39.0,-7.0,51.0,78.33,-38.19,2.0009505,238.65
2021-06-25 11:12:54.695312500,-39.0,-7.0,51.0,78.33250000000001,-33.589999999999996,2.0011906875,238.65
2021-06-25 11:12:54.703125000,-39.0,-7.0,51.0,78.33500000000001,-28.99,2.001430875,238.65
2021-06-25 11:12:54.710937500,-39.0,-7.0,51.0,78.3375,-23.28,2.0016710625,238.65
2021-06-25 11:12:54.718750000,-39.0,-7.0,51.0,78.34,-17.57,2.00191125,238.65
2021-06-25 11:12:54.726562500,-38.75,-7.0,51.0,78.3425,-11.595,2.0021514375,238.65
2021-06-25 11:12:54.734375000,-38.5,-7.0,51.0,78.345,-5.62,2.002391625,238.65
2021-06-25 11:12:54.742187500,-38.25,-7.0,51.0,78.34750000000001,-0.125,2.0026318124999998,238.65
2021-06-25 11:12:54.750000000,-38.0,-7.0,51.0,78.35000000000001,5.37,2.002872,238.65
2021-06-25 11:12:54.757812500,-38.0,-7.0,51.0,78.3525,9.885000000000002,2.002391625,238.65
2021-06-25 11:12:54.765625000,-38.0,-7.0,51.0,78.355,14.4,2.00191125,238.65
2021-06-25 11:12:54.773437500,-38.0,-7.0,51.0,78.3575,17.795,2.001430875,238.65
2021-06-25 11:12:54.781250000,-38.0,-7.0,51.0,78.36,21.19,2.0009505,238.65
2021-06-25 11:12:54.789062500,-38.25,-7.0,51.0,78.36250000000001,23.58,2.000470125,238.65
2021-06-25 11:12:54.796875000,-38.5,-7.0,51.0,78.36500000000001,25.97,1.99998975,238.65
2021-06-25 11:12:54.804687500,-38.75,-7.0,51.0,78.3675,27.59,1.999509375,238.65
2021-06-25 11:12:54.812500000,-39.0,-7.0,51.0,78.37,29.21,1.999029,238.65
2021-06-25 11:12:54.820312500,-39.0,-7.0,51.0,78.3725,30.28,1.998548625,238.65
2021-06-25 11:12:54.828125000,-39.0,-7.0,51.0,78.375,31.35,1.99806825,238.65
2021-06-25 11:12:54.835937500,-39.0,-7.0,51.0,78.37750000000001,32.035,1.997587875,238.65
2021-06-25 11:12:54.843750000,-39.0,-7.0,51.0,78.38000000000001,32.72,1.9971075,238.65
2021-06-25 11:12:54.851562500,-38.75,-7.0,51.0,78.38250000000001,33.099999999999994,1.996627125,238.65
2021-06-25 11:12:54.859375000,-38.5,-7.0,51.0,78.385,33.48,1.99614675,238.65
2021-06-25 11:12:54.867187500,-38.25,-7.0,51.0,78.3875,33.61,1.995666375,238.65
2021-06-25 11:12:54.875000000,-38.0,-7.0,51.0,78.39,33.74,1.995186,238.65
2021-06-25 11:12:54.882812500,-38.25,-7.0,50.75,78.39250000000001,33.67,1.994705625,238.65
2021-06-25 11:12:54.890625000,-38.5,-7.0,50.5,78.39500000000001,33.6,1.99422525,238.65
2021-06-25 11:12:54.898437500,-38.75,-7.0,50.25,78.39750000000001,33.39,1.993744875,238.65
2021-06-25 11:12:54.906250000,-39.0,-7.0,50.0,78.4,33.18,1.9932645,238.65
2021-06-25 11:12:54.914062500,-39.0,-7.0,50.25,78.4025,32.855000000000004,1.992784125,238.65
2021-06-25 11:12:54.921875000,-39.0,-7.0,50.5,78.405,32.53,1.99230375,238.65
2021-06-25 11:12:54.929687500,-39.0,-7.0,50.75,78.40750000000001,32.08,1.991823375,238.65
2021-06-25 11:12:54.937500000,-39.0,-7.0,51.0,78.41000000000001,31.63,1.991343,238.65
2021-06-25 11:12:54.945312500,-38.75,-7.0,51.0,78.41250000000001,31.0,1.990862625,238.65
2021-06-25 11:12:54.953125000,-38.5,-7.0,51.0,78.415,30.37,1.9903822500000001,238.65
2021-06-25 11:12:54.960937500,-38.25,-7.0,51.0,78.4175,29.54,1.989901875,238.65
2021-06-25 11:12:54.968750000,-38.0,-7.0,51.0,78.42,28.71,1.9894215,238.65
2021-06-25 11:12:54.976562500,-38.25,-7.0,51.0,78.42250000000001,27.71,1.988941125,238.65
2021-06-25 11:12:54.984375000,-38.5,-7.0,51.0,78.42500000000001,26.71,1.98846075,238.65
2021-06-25 11:12:54.992187500,-38.75,-7.0,51.0,78.42750000000001,25.64,1.987980375,238.65
2021-06-25 11:12:55.000000000,-39.0,-7.0,51.0,78.43,24.57,1.9875,238.65
2021-06-25 11:12:55.007812500,-39.0,-7.0,51.0,78.43218750000001,23.564999999999998,1.98697959375,238.65
2021-06-25 11:12:55.015625000,-39.0,-7.0,51.0,78.434375,22.56,1.9864591875,238.65
2021-06-25 11:12:55.023437500,-39.0,-7.0,51.0,78.43656250000001,21.725,1.98593878125,238.65
2021-06-25 11:12:55.031250000,-39.0,-7.0,51.0,78.43875000000001,20.89,1.985418375,238.65
2021-06-25 11:12:55.039062500,-38.75,-7.0,51.0,78.4409375,20.225,1.9848979687500001,238.65
2021-06-25 11:12:55.046875000,-38.5,-7.0,51.0,78.44312500000001,19.56,1.9843775625,238.65
2021-06-25 11:12:55.054687500,-38.25,-7.0,51.0,78.4453125,18.95,1.98385715625,238.65
2021-06-25 11:12:55.062500000,-38.0,-7.0,51.0,78.4475,18.34,1.98333675,238.65
2021-06-25 11:12:55.070312500,-38.25,-7.0,51.0,78.44968750000001,17.6,1.98281634375,238.65
2021-06-25 11:12:55.078125000,-38.5,-7.0,51.0,78.451875,16.86,1.9822959375,238.65
2021-06-25 11:12:55.085937500,-38.75,-7.0,51.0,78.4540625,15.809999999999999,1.98177553125,238.65
2021-06-25 11:12:55.093750000,-39.0,-7.0,51.0,78.45625000000001,14.76,1.9812551250000001,238.65
2021-06-25 11:12:55.101562500,-38.75,-7.0,51.0,78.4584375,13.335,1.98073471875,238.65
2021-06-25 11:12:55.109375000,-38.5,-7.0,51.0,78.46062500000001,11.91,1.9802143125,238.65
2021-06-25 11:12:55.117187500,-38.25,-7.0,51.0,78.4628125,10.15,1.97969390625,238.65
2021-06-25 11:12:55.125000000,-38.0,-7.0,51.0,78.465,8.39,1.9791735,238.65
2021-06-25 11:12:55.132812500,-38.25,-7.0,51.0,78.46718750000001,6.43,1.97865309375,238.65
2021-06-25 11:12:55.140625000,-38.5,-7.0,51.0,78.469375,4.47,1.9781326875,238.65
2021-06-25 11:12:55.148437500,-38.75,-7.0,51.0,78.4715625,2.455,1.97761228125,238.65
2021-06-25 11:12:55.156250000,-39.0,-7.0,51.0,78.47375000000001,0.44,1.977091875,238.65
2021-06-25 11:12:55.164062500,-39.0,-7.0,51.0,78.4759375,-1.54,1.97657146875,238.65
2021-06-25 11:12:55.171875000,-39.0,-7.0,51.0,78.478125,-3.52,1.9760510625,238.65
2021-06-25 11:12:55.179687500,-39.0,-7.0,51.0,78.48031250000001,-5.465,1.9755306562500001,238.65
2021-06-25 11:12:55.187500000,-39.0,-7.0,51.0,78.4825,-7.41,1.97501025,238.65
2021-06-25 11:12:55.195312500,-38.75,-7.0,51.0,78.4846875,-9.379999999999999,1.97448984375,238.65
2021-06-25 11:12:55.203125000,-38.5,-7.0,51.0,78.486875,-11.35,1.9739694375,238.65
2021-06-25 11:12:55.210937500,-38.25,-7.0,51.0,78.4890625,-13.425,1.97344903125,238.65
2021-06-25 11:12:55.218750000,-38.0,-7.0,51.0,78.49125000000001,-15.5,1.972928625,238.65
2021-06-25 11:12:55.226562500,-38.25,-7.25,51.0,78.4934375,-17.759999999999998,1.97240821875,238.65
2021-06-25 11:12:55.234375000,-38.5,-7.5,51.0,78.495625,-20.02,1.9718878125000001,238.65
2021-06-25 11:12:55.242187500,-38.75,-7.75,51.0,78.49781250000001,-22.52,1.97136740625,238.65
2021-06-25 11:12:55.250000000,-39.0,-8.0,51.0,78.5,-25.02,1.970847,238.65
2021-06-25 11:12:55.257812500,-39.0,-7.75,51.0,78.5021875,-27.759999999999998,1.971007125,238.65
2021-06-25 11:12:55.265625000,-39.0,-7.5,51.0,78.50437500000001,-30.5,1.97116725,238.65
2021-06-25 11:12:55.273437500,-39.0,-7.25,51.0,78.5065625,-33.335,1.971327375,238.65
2021-06-25 11:12:55.281250000,-39.0,-7.0,51.0,78.50875,-36.17,1.9714875,238.65
2021-06-25 11:12:55.289062500,-38.75,-7.0,51.0,78.5109375,-38.775000000000006,1.971647625,238.65
2021-06-25 11:12:55.296875000,-38.5,-7.0,51.0,78.513125,-41.38,1.97180775,238.65
2021-06-25 11:12:55.304687500,-38.25,-7.0,51.0,78.51531250000001,-43.225,1.971967875,238.65
2021-06-25 11:12:55.312500000,-38.0,-7.0,51.0,78.5175,-45.07,1.972128,238.65
2021-06-25 11:12:55.320312500,-38.25,-7.25,51.0,78.5196875,-45.57,1.972288125,238.65
2021-06-25 11:12:55.328125000,-38.5,-7.5,51.0,78.52187500000001,-46.07,1.97244825,238.65
2021-06-25 11:12:55.335937500,-38.75,-7.75,51.0,78.5240625,-44.775,1.972608375,238.65
2021-06-25 11:12:55.343750000,-39.0,-8.0,51.0,78.52625,-43.48,1.9727685,238.65
2021-06-25 11:12:55.351562500,-38.75,-7.75,51.0,78.5284375,-40.3,1.972928625,238.65
2021-06-25 11:12:55.359375000,-38.5,-7.5,51.0,78.530625,-37.12,1.97308875,238.65
2021-06-25 11:12:55.367187500,-38.25,-7.25,51.0,78.5328125,-32.405,1.973248875,238.65
2021-06-25 11:12:55.375000000,-38.0,-7.0,51.0,78.535,-27.69,1.973409,238.65
2021-06-25 11:12:55.382812500,-38.25,-7.0,51.0,78.5371875,-22.15,1.973569125,238.65
2021-06-25 11:12:55.390625000,-38.5,-7.0,51.0,78.539375,-16.61,1.9737292499999999,238.65
2021-06-25 11:12:55.398437500,-38.75,-7.0,51.0,78.5415625,-11.075,1.973889375,238.65
2021-06-25 11:12:55.406250000,-39.0,-7.0,51.0,78.54375,-5.54,1.9740495,238.65
2021-06-25 11:12:55.414062500,-39.0,-7.25,51.0,78.54593750000001,-0.665,1.9742096249999999,238.65
2021-06-25 11:12:55.421875000,-39.0,-7.5,51.0,78.548125,4.21,1.97436975,238.65
2021-06-25 11:12:55.429687500,-39.0,-7.75,51.0,78.5503125,8.095,1.974529875,238.65
2021-06-25 11:12:55.437500000,-39.0,-8.0,51.0,78.5525,11.98,1.9746899999999998,238.65
2021-06-25 11:12:55.445312500,-38.75,-8.0,51.0,78.5546875,14.905,1.974850125,238.65
2021-06-25 11:12:55.453125000,-38.5,-8.0,51.0,78.556875,17.83,1.97501025,238.65
2021-06-25 11:12:55.460937500,-38.25,-8.0,51.0,78.5590625,20.025,1.975170375,238.65
2021-06-25 11:12:55.468750000,-38.0,-8.0,51.0,78.56125,22.22,1.9753304999999999,238.65
2021-06-25 11:12:55.476562500,-38.25,-7.75,51.0,78.5634375,23.895,1.975490625,238.65
2021-06-25 11:12:55.484375000,-38.5,-7.5,51.0,78.565625,25.57,1.97565075,238.65
2021-06-25 11:12:55.492187500,-38.75,-7.25,51.0,78.5678125,26.814999999999998,1.9758108749999999,238.65
2021-06-25 11:12:55.500000000,-39.0,-7.0,51.0,78.57,28.06,1.975971,238.65
2021-06-25 11:12:55.507812500,-39.0,-7.0,51.0,78.5721875,28.869999999999997,1.97553065625,238.65
2021-06-25 11:12:55.515625000,-39.0,-7.0,51.0,78.574375,29.68,1.9750903125,238.65
2021-06-25 11:12:55.523437500,-39.0,-7.0,51.0,78.5765625,30.009999999999998,1.9746499687499999,238.65
2021-06-25 11:12:55.531250000,-39.0,-7.0,51.0,78.57875,30.34,1.9742096249999999,238.65
2021-06-25 11:12:55.539062500,-39.0,-7.0,51.0,78.5809375,30.225,1.9737692812499998,238.65
2021-06-25 11:12:55.546875000,-39.0,-7.0,51.0,78.583125,30.11,1.9733289375,238.65
2021-06-25 11:12:55.554687500,-39.0,-7.0,51.0,78.5853125,29.655,1.97288859375,238.65
2021-06-25 11:12:55.562500000,-39.0,-7.0,51.0,78.5875,29.2,1.97244825,238.65
2021-06-25 11:12:55.570312500,-39.0,-7.0,51.0,78.5896875,28.549999999999997,1.97200790625,238.65
2021-06-25 11:12:55.578125000,-39.0,-7.0,51.0,78.591875,27.9,1.9715675625,238.65
2021-06-25 11:12:55.585937500,-39.0,-7.0,51.0,78.59406249999999,27.16,1.97112721875,238.65
2021-06-25 11:12:55.593750000,-39.0,-7.0,51.0,78.59625,26.42,1.970686875,238.65
2021-06-25 11:12:55.601562500,-38.75,-7.0,51.0,78.5984375,25.645000000000003,1.97024653125,238.65
2021-06-25 11:12:55.609375000,-38.5,-7.0,51.0,78.600625,24.87,1.9698061875,238.65
2021-06-25 11:12:55.617187500,-38.25,-7.0,51.0,78.6028125,24.045,1.96936584375,238.65
2021-06-25 11:12:55.625000000,-38.0,-7.0,51.0,78.605,23.22,1.9689255,238.65
2021-06-25 11:12:55.632812500,-38.25,-7.0,51.0,78.6071875,22.345,1.96848515625,238.65
2021-06-25 11:12:55.640625000,-38.5,-7.0,51.0,78.609375,21.47,1.9680448125,238.65
2021-06-25 11:12:55.648437500,-38.75,-7.0,51.0,78.6115625,20.575,1.96760446875,238.65
2021-06-25 11:12:55.656250000,-39.0,-7.0,51.0,78.61375,19.68,1.967164125,238.65
2021-06-25 11:12:55.664062500,-38.75,-7.25,51.0,78.6159375,18.845,1.96672378125,238.65
2021-06-25 11:12:55.671875000,-38.5,-7.5,51.0,78.61812499999999,18.01,1.9662834375,238.65
2021-06-25 11:12:55.679687500,-38.25,-7.75,51.0,78.6203125,17.33,1.96584309375,238.65
2021-06-25 11:12:55.687500000,-38.0,-8.0,51.0,78.6225,16.65,1.96540275,238.65
2021-06-25 11:12:55.695312500,-38.25,-7.75,51.0,78.6246875,16.185,1.96496240625,238.65
2021-06-25 11:12:55.703125000,-38.5,-7.5,51.0,78.626875,15.72,1.9645220625,238.65
2021-06-25 11:12:55.710937500,-38.75,-7.25,51.0,78.6290625,15.465,1.9640817187500001,238.65
2021-06-25 11:12:55.718750000,-39.0,-7.0,51.0,78.63125,15.21,1.9636413750000001,238.65
2021-06-25 11:12:55.726562500,-39.0,-7.0,51.0,78.6334375,15.07,1.9632010312500001,238.65
2021-06-25 11:12:55.734375000,-39.0,-7.0,51.0,78.63562499999999,14.93,1.9627606875,238.65
2021-06-25 11:12:55.742187500,-39.0,-7.0,51.0,78.6378125,14.780000000000001,1.96232034375,238.65
2021-06-25 11:12:55.750000000,-39.0,-7.0,51.0,78.64,14.63,1.96188,238.65
2021-06-25 11:12:55.757812500,-39.0,-7.0,51.0,78.64218749999999,14.285,1.96192003125,238.65
2021-06-25 11:12:55.765625000,-39.0,-7.0,51.0,78.644375,13.94,1.9619600625,238.65
2021-06-25 11:12:55.773437500,-39.0,-7.0,51.0,78.6465625,13.254999999999999,1.96200009375,238.65
2021-06-25 11:12:55.781250000,-39.0,-7.0,51.0,78.64874999999999,12.57,1.9620401250000001,238.65
2021-06-25 11:12:55.789062500,-39.0,-7.0,51.0,78.6509375,11.440000000000001,1.96208015625,238.65
2021-06-25 11:12:55.796875000,-39.0,-7.0,51.0,78.653125,10.31,1.9621201875,238.65
2021-06-25 11:12:55.804687500,-39.0,-7.0,51.0,78.6553125,8.72,1.96216021875,238.65
2021-06-25 11:12:55.812500000,-39.0,-7.0,51.0,78.6575,7.13,1.96220025,238.65
2021-06-25 11:12:55.820312500,-39.0,-7.0,51.0,78.65968749999999,5.16,1.96224028125,238.65
2021-06-25 11:12:55.828125000,-39.0,-7.0,51.0,78.661875,3.19,1.9622803125000001,238.65
2021-06-25 11:12:55.835937500,-39.0,-7.0,51.0,78.6640625,1.0100000000000002,1.96232034375,238.65
2021-06-25 11:12:55.843750000,-39.0,-7.0,51.0,78.66624999999999,-1.17,1.962360375,238.65
2021-06-25 11:12:55.851562500,-38.75,-7.0,51.0,78.6684375,-3.35,1.96240040625,238.65
2021-06-25 11:12:55.859375000,-38.5,-7.0,51.0,78.670625,-5.53,1.9624404375,238.65
2021-06-25 11:12:55.867187500,-38.25,-7.0,51.0,78.67281249999999,-7.57,1.96248046875,238.65
2021-06-25 11:12:55.875000000,-38.0,-7.0,51.0,78.675,-9.61,1.9625205000000001,238.65
2021-06-25 11:12:55.882812500,-38.25,-7.0,51.0,78.6771875,-11.475,1.96256053125,238.65
2021-06-25 11:12:55.890625000,-38.5,-7.0,51.0,78.679375,-13.34,1.9626005625,238.65
2021-06-25 11:12:55.898437500,-38.75,-7.0,51.0,78.6815625,-15.175,1.96264059375,238.65
2021-06-25 11:12:55.906250000,-39.0,-7.0,51.0,78.68374999999999,-17.01,1.962680625,238.65
2021-06-25 11:12:55.914062500,-38.75,-7.0,51.0,78.6859375,-19.035,1.96272065625,238.65
2021-06-25 11:12:55.921875000,-38.5,-7.0,51.0,78.688125,-21.06,1.9627606874999999,238.65
2021-06-25 11:12:55.929687500,-38.25,-7.0,51.0,78.69031249999999,-23.455,1.96280071875,238.65
2021-06-25 11:12:55.937500000,-38.0,-7.0,51.0,78.6925,-25.85,1.96284075,238.65
2021-06-25 11:12:55.945312500,-38.0,-7.0,51.0,78.6946875,-28.575000000000003,1.96288078125,238.65
2021-06-25 11:12:55.953125000,-38.0,-7.0,51.0,78.69687499999999,-31.3,1.9629208125,238.65
2021-06-25 11:12:55.960937500,-38.0,-7.0,51.0,78.6990625,-34.0,1.96296084375,238.65
2021-06-25 11:12:55.968750000,-38.0,-7.0,51.0,78.70124999999999,-36.7,1.9630008749999999,238.65
2021-06-25 11:12:55.976562500,-38.25,-7.25,51.0,78.70343749999999,-38.745000000000005,1.96304090625,238.65
2021-06-25 11:12:55.984375000,-38.5,-7.5,51.0,78.705625,-40.79,1.9630809375,238.65
2021-06-25 11:12:55.992187500,-38.75,-7.75,51.0,78.70781249999999,-41.495000000000005,1.96312096875,238.65
2021-06-25 11:12:56.000000000,-39.0,-8.0,51.0,78.71,-42.2,1.963161,238.65
2021-06-25 11:12:56.007812500,-39.0,-7.75,51.0,78.711953125,-41.085,1.9630008749999999,238.65
2021-06-25 11:12:56.015625000,-39.0,-7.5,51.0,78.71390625,-39.97,1.96284075,238.65
2021-06-25 11:12:56.023437500,-39.0,-7.25,51.0,78.715859375,-36.96,1.962680625,238.65
2021-06-25 11:12:56.031250000,-39.0,-7.0,51.0,78.7178125,-33.95,1.9625205,238.65
2021-06-25 11:12:56.039062500,-39.0,-7.0,51.0,78.719765625,-29.44,1.962360375,238.65
2021-06-25 11:12:56.046875000,-39.0,-7.0,51.0,78.72171875,-24.93,1.96220025,238.65
2021-06-25 11:12:56.054687500,-39.0,-7.0,51.0,78.723671875,-19.63,1.962040125,238.65
2021-06-25 11:12:56.062500000,-39.0,-7.0,51.0,78.725625,-14.33,1.9618799999999998,238.65
2021-06-25 11:12:56.070312500,-39.0,-7.0,51.0,78.727578125,-9.07,1.961719875,238.65
2021-06-25 11:12:56.078125000,-39.0,-7.0,51.0,78.72953125,-3.81,1.96155975,238.65
2021-06-25 11:12:56.085937500,-39.0,-7.0,51.0,78.731484375,0.7749999999999999,1.9613996249999999,238.65
2021-06-25 11:12:56.093750000,-39.0,-7.0,51.0,78.7334375,5.36,1.9612395,238.65
2021-06-25 11:12:56.101562500,-38.75,-7.0,51.0,78.735390625,8.92,1.961079375,238.65
2021-06-25 11:12:56.109375000,-38.5,-7.0,51.0,78.73734375,12.48,1.96091925,238.65
2021-06-25 11:12:56.117187500,-38.25,-7.0,51.0,78.739296875,15.005,1.960759125,238.65
2021-06-25 11:12:56.125000000,-38.0,-7.0,51.0,78.74125,17.53,1.960599,238.65
2021-06-25 11:12:56.132812500,-38.0,-7.0,51.0,78.743203125,19.215,1.960438875,238.65
2021-06-25 11:12:56.140625000,-38.0,-7.0,51.0,78.74515625,20.9,1.96027875,238.65
2021-06-25 11:12:56.148437500,-38.0,-7.0,51.0,78.747109375,22.015,1.960118625,238.65
2021-06-25 11:12:56.156250000,-38.0,-7.0,51.0,78.7490625,23.13,1.9599585,238.65
2021-06-25 11:12:56.164062500,-38.25,-7.0,51.0,78.751015625,23.875,1.959798375,238.65
2021-06-25 11:12:56.171875000,-38.5,-7.0,51.0,78.75296875,24.62,1.95963825,238.65
2021-06-25 11:12:56.179687500,-38.75,-7.0,51.0,78.754921875,25.07,1.959478125,238.65
2021-06-25 11:12:56.187500000,-39.0,-7.0,51.0,78.756875,25.52,1.9593180000000001,238.65
2021-06-25 11:12:56.195312500,-38.75,-7.0,51.0,78.758828125,25.665,1.959157875,238.65
2021-06-25 11:12:56.203125000,-38.5,-7.0,51.0,78.76078125,25.81,1.95899775,238.65
2021-06-25 11:12:56.210937500,-38.25,-7.0,51.0,78.762734375,25.63,1.958837625,238.65
2021-06-25 11:12:56.218750000,-38.0,-7.0,51.0,78.7646875,25.45,1.9586775,238.65
2021-06-25 11:12:56.226562500,-38.25,-7.0,51.0,78.766640625,24.96,1.958517375,238.65
2021-06-25 11:12:56.234375000,-38.5,-7.0,51.0,78.76859375,24.47,1.95835725,238.65
2021-06-25 11:12:56.242187500,-38.75,-7.0,51.0,78.770546875,23.755,1.958197125,238.65
2021-06-25 11:12:56.250000000,-39.0,-7.0,51.0,78.7725,23.04,1.958037,238.65
2021-06-25 11:12:56.257812500,-38.75,-7.0,51.0,78.774453125,22.265,1.9581170625,238.65
2021-06-25 11:12:56.265625000,-38.5,-7.0,51.0,78.77640625,21.49,1.958197125,238.65
2021-06-25 11:12:56.273437500,-38.25,-7.0,51.0,78.778359375,20.77,1.9582771875,238.65
2021-06-25 11:12:56.281250000,-38.0,-7.0,51.0,78.7803125,20.05,1.95835725,238.65
2021-06-25 11:12:56.289062500,-38.0,-7.0,51.0,78.782265625,19.450000000000003,1.9584373125,238.65
2021-06-25 11:12:56.296875000,-38.0,-7.0,51.0,78.78421875,18.85,1.958517375,238.65
2021-06-25 11:12:56.304687500,-38.0,-7.0,51.0,78.786171875,18.33,1.9585974375,238.65
2021-06-25 11:12:56.312500000,-38.0,-7.0,51.0,78.788125,17.81,1.9586775,238.65
2021-06-25 11:12:56.320312500,-38.25,-7.0,51.0,78.790078125,17.285,1.9587575625,238.65
2021-06-25 11:12:56.328125000,-38.5,-7.0,51.0,78.79203125,16.76,1.958837625,238.65
2021-06-25 11:12:56.335937500,-38.75,-7.0,51.0,78.793984375,16.14,1.9589176875,238.65
2021-06-25 11:12:56.343750000,-39.0,-7.0,51.0,78.7959375,15.52,1.95899775,238.65
2021-06-25 11:12:56.351562500,-38.75,-7.25,51.0,78.797890625,14.78,1.9590778125,238.65
2021-06-25 11:12:56.359375000,-38.5,-7.5,51.0,78.79984375,14.04,1.959157875,238.65
2021-06-25 11:12:56.367187500,-38.25,-7.75,51.0,78.801796875,13.23,1.9592379375,238.65
2021-06-25 11:12:56.375000000,-38.0,-8.0,51.0,78.80375,12.42,1.9593180000000001,238.65
2021-06-25 11:12:56.382812500,-38.25,-7.75,51.0,78.805703125,11.61,1.9593980625,238.65
2021-06-25 11:12:56.390625000,-38.5,-7.5,51.0,78.80765625,10.8,1.959478125,238.65
2021-06-25 11:12:56.398437500,-38.75,-7.25,51.0,78.809609375,10.075,1.9595581875,238.65
2021-06-25 11:12:56.406250000,-39.0,-7.0,51.0,78.8115625,9.35,1.95963825,238.65
2021-06-25 11:12:56.414062500,-39.0,-7.0,51.0,78.813515625,8.735,1.9597183125,238.65
2021-06-25 11:12:56.421875000,-39.0,-7.0,51.0,78.81546875,8.12,1.959798375,238.65
2021-06-25 11:12:56.429687500,-39.0,-7.0,51.0,78.817421875,7.59,1.9598784375,238.65
2021-06-25 11:12:56.437500000,-39.0,-7.0,51.0,78.819375,7.06,1.9599585,238.65
2021-06-25 11:12:56.445312500,-39.0,-7.0,51.0,78.821328125,6.5,1.9600385625,238.65
2021-06-25 11:12:56.453125000,-39.0,-7.0,51.0,78.82328125,5.94,1.960118625,238.65
2021-06-25 11:12:56.460937500,-39.0,-7.0,51.0,78.825234375,5.1850000000000005,1.9601986875,238.65
2021-06-25 11:12:56.468750000,-39.0,-7.0,51.0,78.8271875,4.43,1.96027875,238.65
2021-06-25 11:12:56.476562500,-39.0,-7.25,51.0,78.829140625,3.3099999999999996,1.9603588125,238.65
2021-06-25 11:12:56.484375000,-39.0,-7.5,51.0,78.83109375,2.19,1.960438875,238.65
2021-06-25 11:12:56.492187500,-39.0,-7.75,51.0,78.833046875,0.5899999999999999,1.9605189375,238.65
2021-06-25 11:12:56.500000000,-39.0,-8.0,51.0,78.835,-1.01,1.960599,238.65
2021-06-25 11:12:56.507812500,-39.0,-7.75,51.0,78.836953125,-3.135,1.96055896875,238.65
2021-06-25 11:12:56.515625000,-39.0,-7.5,51.0,78.83890625,-5.26,1.9605189375,238.65
2021-06-25 11:12:56.523437500,-39.0,-7.25,51.0,78.840859375,-7.845,1.9604789062499999,238.65
2021-06-25 11:12:56.531250000,-39.0,-7.0,51.0,78.8428125,-10.43,1.960438875,238.65
2021-06-25 11:12:56.539062500,-39.0,-7.0,51.0,78.844765625,-13.33,1.96039884375,238.65
2021-06-25 11:12:56.546875000,-39.0,-7.0,51.0,78.84671875,-16.23,1.9603588125,238.65
2021-06-25 11:12:56.554687500,-39.0,-7.0,51.0,78.848671875,-19.225,1.96031878125,238.65
2021-06-25 11:12:56.562500000,-39.0,-7.0,51.0,78.850625,-22.22,1.96027875,238.65
2021-06-25 11:12:56.570312500,-38.75,-7.0,51.0,78.852578125,-25.035,1.9602387187499999,238.65
2021-06-25 11:12:56.578125000,-38.5,-7.0,51.0,78.85453125,-27.85,1.9601986875,238.65
2021-06-25 11:12:56.585937500,-38.25,-7.0,51.0,78.856484375,-30.095000000000002,1.96015865625,238.65
2021-06-25 11:12:56.593750000,-38.0,-7.0,51.0,78.8584375,-32.34,1.960118625,238.65
2021-06-25 11:12:56.601562500,-38.0,-7.0,51.0,78.860390625,-33.59,1.96007859375,238.65
2021-06-25 11:12:56.609375000,-38.0,-7.0,51.0,78.86234375,-34.84,1.9600385624999999,238.65
2021-06-25 11:12:56.617187500,-38.0,-7.0,51.0,78.864296875,-34.7,1.95999853125,238.65
2021-06-25 11:12:56.625000000,-38.0,-7.0,51.0,78.86625,-34.56,1.9599585,238.65
2021-06-25 11:12:56.632812500,-38.25,-7.0,51.0,78.868203125,-32.82,1.95991846875,238.65
2021-06-25 11:12:56.640625000,-38.5,-7.0,51.0,78.87015625,-31.08,1.9598784375,238.65
2021-06-25 11:12:56.648437500,-38.75,-7.0,51.0,78.872109375,-27.814999999999998,1.9598384062499998,238.65
2021-06-25 11:12:56.656250000,-39.0,-7.0,51.0,78.8740625,-24.55,1.9597983749999999,238.65
2021-06-25 11:12:56.664062500,-39.0,-7.0,51.0,78.876015625,-20.22,1.95975834375,238.65
2021-06-25 11:12:56.671875000,-39.0,-7.0,51.0,78.87796875,-15.89,1.9597183125,238.65
2021-06-25 11:12:56.679687500,-39.0,-7.0,51.0,78.879921875,-11.15,1.95967828125,238.65
2021-06-25 11:12:56.687500000,-39.0,-7.0,51.0,78.881875,-6.41,1.9596382499999998,238.65
2021-06-25 11:12:56.695312500,-39.0,-7.0,51.0,78.883828125,-1.955,1.9595982187499998,238.65
2021-06-25 11:12:56.703125000,-39.0,-7.0,51.0,78.88578125,2.5,1.9595581874999999,238.65
2021-06-25 11:12:56.710937500,-39.0,-7.0,51.0,78.887734375,6.185,1.95951815625,238.65
2021-06-25 11:12:56.718750000,-39.0,-7.0,51.0,78.8896875,9.87,1.959478125,238.65
2021-06-25 11:12:56.726562500,-39.0,-7.0,51.0,78.891640625,12.605,1.95943809375,238.65
2021-06-25 11:12:56.734375000,-39.0,-7.0,51.0,78.89359375,15.34,1.9593980624999998,238.65
2021-06-25 11:12:56.742187500,-39.0,-7.0,51.0,78.895546875,17.21,1.9593580312499999,238.65
2021-06-25 11:12:56.750000000,-39.0,-7.0,51.0,78.8975,19.08,1.959318,238.65
2021-06-25 11:12:56.757812500,-39.0,-7.0,51.0,78.899453125,20.29,1.95903778125,238.65
2021-06-25 11:12:56.765625000,-39.0,-7.0,51.0,78.90140625,21.5,1.9587575625,238.65
2021-06-25 11:12:56.773437500,-39.0,-7.0,51.0,78.903359375,22.25,1.9584773437499998,238.65
2021-06-25 11:12:56.781250000,-39.0,-7.0,51.0,78.9053125,23.0,1.9581971249999999,238.65
2021-06-25 11:12:56.789062500,-39.0,-7.0,51.0,78.907265625,23.4,1.95791690625,238.65
2021-06-25 11:12:56.796875000,-39.0,-7.0,51.0,78.90921875,23.8,1.9576366875,238.65
2021-06-25 11:12:56.804687500,-39.0,-7.0,51.0,78.911171875,23.875,1.9573564687499998,238.65
2021-06-25 11:12:56.812500000,-39.0,-7.0,51.0,78.913125,23.95,1.9570762499999999,238.65
2021-06-25 11:12:56.820312500,-39.0,-7.0,51.0,78.915078125,23.715,1.95679603125,238.65
2021-06-25 11:12:56.828125000,-39.0,-7.0,51.0,78.91703125,23.48,1.9565158125,238.65
2021-06-25 11:12:56.835937500,-39.0,-7.0,51.0,78.918984375,22.965,1.95623559375,238.65
2021-06-25 11:12:56.843750000,-39.0,-7.0,51.0,78.9209375,22.45,1.9559553749999998,238.65
2021-06-25 11:12:56.851562500,-39.0,-7.0,51.0,78.922890625,21.71,1.9556751562499999,238.65
2021-06-25 11:12:56.859375000,-39.0,-7.0,51.0,78.92484375,20.97,1.9553949375,238.65
2021-06-25 11:12:56.867187500,-39.0,-7.0,51.0,78.926796875,20.08,1.95511471875,238.65
2021-06-25 11:12:56.875000000,-39.0,-7.0,51.0,78.92875,19.19,1.9548345,238.65
2021-06-25 11:12:56.882812500,-39.0,-7.0,50.75,78.930703125,18.185000000000002,1.9545542812499999,238.65
2021-06-25 11:12:56.890625000,-39.0,-7.0,50.5,78.93265625,17.18,1.9542740625,238.65
2021-06-25 11:12:56.898437500,-39.0,-7.0,50.25,78.934609375,16.11,1.95399384375,238.65
2021-06-25 11:12:56.906250000,-39.0,-7.0,50.0,78.9365625,15.04,1.953713625,238.65
2021-06-25 11:12:56.914062500,-39.0,-7.0,50.25,78.938515625,13.954999999999998,1.9534334062499998,238.65
2021-06-25 11:12:56.921875000,-39.0,-7.0,50.5,78.94046875,12.87,1.9531531874999999,238.65
2021-06-25 11:12:56.929687500,-39.0,-7.0,50.75,78.942421875,11.879999999999999,1.95287296875,238.65
2021-06-25 11:12:56.937500000,-39.0,-7.0,51.0,78.944375,10.89,1.95259275,238.65
2021-06-25 11:12:56.945312500,-39.0,-7.0,51.0,78.946328125,10.105,1.95231253125,238.65
2021-06-25 11:12:56.953125000,-39.0,-7.0,51.0,78.94828125,9.32,1.9520323124999999,238.65
2021-06-25 11:12:56.960937500,-39.0,-7.0,51.0,78.950234375,8.89,1.95175209375,238.65
2021-06-25 11:12:56.968750000,-39.0,-7.0,51.0,78.9521875,8.46,1.951471875,238.65
2021-06-25 11:12:56.976562500,-39.0,-7.0,51.0,78.954140625,8.41,1.95119165625,238.65
2021-06-25 11:12:56.984375000,-39.0,-7.0,51.0,78.95609375,8.36,1.9509114374999998,238.65
2021-06-25 11:12:56.992187500,-39.0,-7.0,51.0,78.958046875,8.585,1.95063121875,238.65
2021-06-25 11:12:57.000000000,-39.0,-7.0,51.0,78.96,8.81,1.950351,238.65
2021-06-25 11:12:57.007812500,-38.75,-7.0,51.0,78.96171874999999,9.05,1.950511125,238.65
2021-06-25 11:12:57.015625000,-38.5,-7.0,51.0,78.9634375,9.29,1.9506712499999999,238.65
2021-06-25 11:12:57.023437500,-38.25,-7.0,51.0,78.96515624999999,9.235,1.950831375,238.65
2021-06-25 11:12:57.031250000,-38.0,-7.0,51.0,78.96687499999999,9.18,1.9509915,238.65
2021-06-25 11:12:57.039062500,-38.25,-7.0,51.0,78.96859375,8.56,1.951151625,238.65
2021-06-25 11:12:57.046875000,-38.5,-7.0,51.0,78.97031249999999,7.94,1.95131175,238.65
2021-06-25 11:12:57.054687500,-38.75,-7.0,51.0,78.97203125,6.665,1.951471875,238.65
2021-06-25 11:12:57.062500000,-39.0,-7.0,51.0,78.97375,5.39,1.951632,238.65
2021-06-25 11:12:57.070312500,-38.75,-7.0,51.0,78.97546874999999,3.5949999999999998,1.9517921249999999,238.65
2021-06-25 11:12:57.078125000,-38.5,-7.0,51.0,78.9771875,1.8,1.95195225,238.65
2021-06-25 11:12:57.085937500,-38.25,-7.0,51.0,78.97890625,-0.24999999999999978,1.952112375,238.65
2021-06-25 11:12:57.093750000,-38.0,-7.0,51.0,78.98062499999999,-2.3,1.9522725,238.65
2021-06-25 11:12:57.101562500,-38.25,-7.0,51.0,78.98234375,-4.3100000000000005,1.952432625,238.65
2021-06-25 11:12:57.109375000,-38.5,-7.0,51.0,78.9840625,-6.32,1.95259275,238.65
2021-06-25 11:12:57.117187500,-38.75,-7.0,51.0,78.98578125,-8.135,1.952752875,238.65
2021-06-25 11:12:57.125000000,-39.0,-7.0,51.0,78.9875,-9.95,1.9529130000000001,238.65
2021-06-25 11:12:57.132812500,-38.75,-7.0,51.0,78.98921874999999,-11.585,1.953073125,238.65
2021-06-25 11:12:57.140625000,-38.5,-7.0,51.0,78.9909375,-13.22,1.95323325,238.65
2021-06-25 11:12:57.148437500,-38.25,-7.0,51.0,78.99265625,-14.809999999999999,1.953393375,238.65
2021-06-25 11:12:57.156250000,-38.0,-7.0,51.0,78.99437499999999,-16.4,1.9535535,238.65
2021-06-25 11:12:57.164062500,-38.25,-7.0,51.0,78.99609375,-18.15,1.953713625,238.65
2021-06-25 11:12:57.171875000,-38.5,-7.0,51.0,78.9978125,-19.9,1.95387375,238.65
2021-06-25 11:12:57.179687500,-38.75,-7.0,51.0,78.99953124999999,-21.945,1.9540338750000001,238.65
2021-06-25 11:12:57.187500000,-39.0,-7.0,51.0,79.00125,-23.99,1.954194,238.65
