TimeStamp,empatica.acc.x,empatica.acc.y,empatica.acc.z,empatica.hr,empatica.bvp,empatica.eda,empatica.temp
2021-06-24 17:20:17.093750000,-40.0,-15.0,48.0,79.02562499999999,-14.77,25.098428875,32.7225
2021-06-24 17:20:17.101562500,-40.0,-15.0,48.0,79.02609375,-6.52,25.09862903125,32.721875
2021-06-24 17:20:17.109375000,-40.0,-15.0,48.0,79.0265625,1.73,25.0988291875,32.72125
2021-06-24 17:20:17.117187500,-40.0,-15.0,48.0,79.02703125,8.805,25.09902934375,32.720625
2021-06-24 17:20:17.125000000,-40.0,-15.0,48.0,79.0275,15.88,25.0992295,32.72
2021-06-24 17:20:17.132812500,-40.0,-15.0,48.25,79.02796875,21.835,25.09942965625,32.719375
2021-06-24 17:20:17.140625000,-40.0,-15.0,48.5,79.0284375,27.79,25.099629812499998,32.71875
2021-06-24 17:20:17.148437500,-40.0,-15.0,48.75,79.02890624999999,32.715,25.09982996875,32.718125
2021-06-24 17:20:17.156250000,-40.0,-15.0,49.0,79.029375,37.64,25.100030125,32.7175
2021-06-24 17:20:17.164062500,-40.0,-15.0,48.75,79.02984375,41.56,25.10023028125,32.716875
2021-06-24 17:20:17.171875000,-40.0,-15.0,48.5,79.0303125,45.48,25.100430437500002,32.71625
2021-06-24 17:20:17.179687500,-40.0,-15.0,48.25,79.03078124999999,48.34,25.10063059375,32.715625
2021-06-24 17:20:17.187500000,-40.0,-15.0,48.0,79.03125,51.2,25.10083075,32.715
2021-06-24 17:20:17.195312500,-40.0,-15.0,48.0,79.03171875,52.965,25.10103090625,32.714375
2021-06-24 17:20:17.203125000,-40.0,-15.0,48.0,79.03218749999999,54.73,25.1012310625,32.71375
2021-06-24 17:20:17.210937500,-40.0,-15.0,48.0,79.03265625,55.465,25.10143121875,32.713125
2021-06-24 17:20:17.218750000,-40.0,-15.0,48.0,79.033125,56.2,25.101631375,32.7125
2021-06-24 17:20:17.226562500,-40.0,-15.0,48.25,79.03359375,56.120000000000005,25.10183153125,32.711875
2021-06-24 17:20:17.234375000,-40.0,-15.0,48.5,79.03406249999999,56.04,25.102031687500002,32.71125
2021-06-24 17:20:17.242187500,-40.0,-15.0,48.75,79.03453125,55.485,25.10223184375,32.710625
2021-06-24 17:20:17.250000000,-40.0,-15.0,49.0,79.035,54.93,25.102432,32.71
2021-06-24 17:20:17.257812500,-40.0,-15.0,48.75,79.03546874999999,54.275,25.10199165625,32.71
2021-06-24 17:20:17.265625000,-40.0,-15.0,48.5,79.0359375,53.62,25.1015513125,32.71
2021-06-24 17:20:17.273437500,-40.0,-15.0,48.25,79.03640625,53.12,25.10111096875,32.71
2021-06-24 17:20:17.281250000,-40.0,-15.0,48.0,79.036875,52.62,25.100670625,32.71
2021-06-24 17:20:17.289062500,-40.0,-15.0,48.0,79.03734374999999,52.355000000000004,25.10023028125,32.71
2021-06-24 17:20:17.296875000,-40.0,-15.0,48.0,79.0378125,52.09,25.0997899375,32.71
2021-06-24 17:20:17.304687500,-40.0,-15.0,48.0,79.03828125,52.040000000000006,25.09934959375,32.71
2021-06-24 17:20:17.312500000,-40.0,-15.0,48.0,79.03875,51.99,25.09890925,32.71
2021-06-24 17:20:17.320312500,-40.0,-15.0,48.0,79.03921875,52.06,25.09846890625,32.71
2021-06-24 17:20:17.328125000,-40.0,-15.0,48.0,79.0396875,52.13,25.0980285625,32.71
2021-06-24 17:20:17.335937500,-40.0,-15.0,48.0,79.04015625,52.269999999999996,25.09758821875,32.71
2021-06-24 17:20:17.343750000,-40.0,-15.0,48.0,79.04062499999999,52.41,25.097147875,32.71
2021-06-24 17:20:17.351562500,-40.0,-15.0,48.0,79.04109375,52.61,25.09670753125,32.71
2021-06-24 17:20:17.359375000,-40.0,-15.0,48.0,79.0415625,52.81,25.0962671875,32.71
2021-06-24 17:20:17.367187500,-40.0,-15.0,48.0,79.04203125,53.085,25.09582684375,32.71
2021-06-24 17:20:17.375000000,-40.0,-15.0,48.0,79.04249999999999,53.36,25.0953865,32.71
2021-06-24 17:20:17.382812500,-40.0,-15.0,48.0,79.04296875,53.65,25.09494615625,32.71
2021-06-24 17:20:17.390625000,-40.0,-15.0,48.0,79.0434375,53.94,25.0945058125,32.71
2021-06-24 17:20:17.398437500,-40.0,-15.0,48.0,79.04390624999999,54.125,25.09406546875,32.71
2021-06-24 17:20:17.406250000,-40.0,-15.0,48.0,79.044375,54.31,25.093625125,32.71
2021-06-24 17:20:17.414062500,-40.0,-15.0,48.0,79.04484375,54.19,25.09318478125,32.71
2021-06-24 17:20:17.421875000,-40.0,-15.0,48.0,79.0453125,54.07,25.0927444375,32.71
2021-06-24 17:20:17.429687500,-40.0,-15.0,48.0,79.04578124999999,53.465,25.09230409375,32.71
2021-06-24 17:20:17.437500000,-40.0,-15.0,48.0,79.04625,52.86,25.09186375,32.71
2021-06-24 17:20:17.445312500,-40.0,-15.0,48.0,79.04671875,51.644999999999996,25.09142340625,32.71
2021-06-24 17:20:17.453125000,-40.0,-15.0,48.0,79.04718749999999,50.43,25.0909830625,32.71
2021-06-24 17:20:17.460937500,-40.0,-15.0,48.0,79.04765625,48.58,25.09054271875,32.71
2021-06-24 17:20:17.468750000,-40.0,-15.0,48.0,79.048125,46.73,25.090102375,32.71
2021-06-24 17:20:17.476562500,-40.0,-15.0,48.0,79.04859375,44.334999999999994,25.08966203125,32.71
2021-06-24 17:20:17.484375000,-40.0,-15.0,48.0,79.04906249999999,41.94,25.0892216875,32.71
2021-06-24 17:20:17.492187500,-40.0,-15.0,48.0,79.04953125,39.175,25.08878134375,32.71
2021-06-24 17:20:17.500000000,-40.0,-15.0,48.0,79.05,36.41,25.088341,32.71
2021-06-24 17:20:17.507812500,-40.0,-15.0,48.0,79.05046875,33.504999999999995,25.08850115625,32.71
2021-06-24 17:20:17.515625000,-40.0,-15.0,48.0,79.0509375,30.6,25.0886613125,32.71
2021-06-24 17:20:17.523437500,-40.0,-15.0,48.0,79.05140625,27.775,25.088821468749998,32.71
2021-06-24 17:20:17.531250000,-40.0,-15.0,48.0,79.051875,24.95,25.088981625,32.71
2021-06-24 17:20:17.539062500,-40.0,-15.0,48.0,79.05234374999999,22.325,25.08914178125,32.71
2021-06-24 17:20:17.546875000,-40.0,-15.0,48.0,79.0528125,19.7,25.0893019375,32.71
2021-06-24 17:20:17.554687500,-40.0,-15.0,48.0,79.05328125,17.285,25.08946209375,32.71
2021-06-24 17:20:17.562500000,-40.0,-15.0,48.0,79.05375,14.87,25.089622249999998,32.71
2021-06-24 17:20:17.570312500,-40.0,-15.0,48.0,79.05421875,12.5,25.08978240625,32.71
2021-06-24 17:20:17.578125000,-40.0,-15.0,48.0,79.0546875,10.13,25.0899425625,32.71
2021-06-24 17:20:17.585937500,-40.0,-15.0,48.0,79.05515625,7.57,25.09010271875,32.71
2021-06-24 17:20:17.593750000,-40.0,-15.0,48.0,79.05562499999999,5.01,25.090262875,32.71
2021-06-24 17:20:17.601562500,-40.0,-15.0,48.0,79.05609375,2.065,25.09042303125,32.71
2021-06-24 17:20:17.609375000,-40.0,-15.0,48.0,79.0565625,-0.88,25.0905831875,32.71
2021-06-24 17:20:17.617187500,-40.0,-15.0,48.0,79.05703125,-4.2700000000000005,25.09074334375,32.71
2021-06-24 17:20:17.625000000,-40.0,-15.0,48.0,79.0575,-7.66,25.0909035,32.71
2021-06-24 17:20:17.632812500,-40.0,-15.0,48.0,79.05796875,-11.4,25.09106365625,32.71
2021-06-24 17:20:17.640625000,-40.0,-15.0,48.0,79.0584375,-15.14,25.0912238125,32.71
2021-06-24 17:20:17.648437500,-40.0,-15.0,48.0,79.05890624999999,-19.005000000000003,25.091383968749998,32.71
2021-06-24 17:20:17.656250000,-40.0,-15.0,48.0,79.059375,-22.87,25.091544125,32.71
2021-06-24 17:20:17.664062500,-40.0,-15.0,48.0,79.05984375,-26.625,25.09170428125,32.71
2021-06-24 17:20:17.671875000,-40.0,-15.0,48.0,79.0603125,-30.38,25.0918644375,32.71
2021-06-24 17:20:17.679687500,-40.0,-15.0,48.0,79.06078124999999,-33.865,25.09202459375,32.71
2021-06-24 17:20:17.687500000,-40.0,-15.0,48.0,79.06125,-37.35,25.09218475,32.71
2021-06-24 17:20:17.695312500,-40.0,-15.0,48.0,79.06171875,-40.545,25.09234490625,32.71
2021-06-24 17:20:17.703125000,-40.0,-15.0,48.0,79.0621875,-43.74,25.0925050625,32.71
2021-06-24 17:20:17.710937500,-40.0,-15.0,48.0,79.06265625,-46.75,25.09266521875,32.71
2021-06-24 17:20:17.718750000,-40.0,-15.0,48.0,79.063125,-49.76,25.092825375,32.71
2021-06-24 17:20:17.726562500,-40.0,-15.0,48.0,79.06359375,-52.79,25.09298553125,32.71
2021-06-24 17:20:17.734375000,-40.0,-15.0,48.0,79.06406249999999,-55.82,25.093145687499998,32.71
2021-06-24 17:20:17.742187500,-40.0,-15.0,48.0,79.06453125,-59.144999999999996,25.09330584375,32.71
2021-06-24 17:20:17.750000000,-40.0,-15.0,48.0,79.065,-62.47,25.093466,32.71
2021-06-24 17:20:17.757812500,-40.0,-15.0,48.0,79.06546875,-66.375,25.09498728125,32.71
2021-06-24 17:20:17.765625000,-40.0,-15.0,48.0,79.0659375,-70.28,25.0965085625,32.71
2021-06-24 17:20:17.773437500,-40.0,-15.0,48.0,79.06640625,-74.97,25.09802984375,32.71
2021-06-24 17:20:17.781250000,-40.0,-15.0,48.0,79.066875,-79.66,25.099551124999998,32.71
2021-06-24 17:20:17.789062500,-40.0,-15.0,48.0,79.06734374999999,-85.115,25.10107240625,32.71
2021-06-24 17:20:17.796875000,-40.0,-15.0,48.0,79.0678125,-90.57,25.1025936875,32.71
2021-06-24 17:20:17.804687500,-40.0,-15.0,48.0,79.06828125,-96.41,25.10411496875,32.71
2021-06-24 17:20:17.812500000,-40.0,-15.0,48.0,79.06875,-102.25,25.10563625,32.71
2021-06-24 17:20:17.820312500,-40.0,-15.0,48.0,79.06921875,-107.7,25.10715753125,32.71
2021-06-24 17:20:17.828125000,-40.0,-15.0,48.0,79.0696875,-113.15,25.1086788125,32.71
2021-06-24 17:20:17.835937500,-40.0,-15.0,48.0,79.07015625,-117.16,25.11020009375,32.71
2021-06-24 17:20:17.843750000,-40.0,-15.0,48.0,79.07062499999999,-121.17,25.111721375000002,32.71
2021-06-24 17:20:17.851562500,-40.0,-15.0,48.25,79.07109375,-122.67500000000001,25.11324265625,32.71
2021-06-24 17:20:17.859375000,-40.0,-15.0,48.5,79.0715625,-124.18,25.1147639375,32.71
2021-06-24 17:20:17.867187500,-40.0,-15.0,48.75,79.07203125,-122.43,25.11628521875,32.71
2021-06-24 17:20:17.875000000,-40.0,-15.0,49.0,79.07249999999999,-120.68,25.1178065,32.71
2021-06-24 17:20:17.882812500,-40.0,-15.0,48.75,79.07296875,-115.48500000000001,25.11932778125,32.71
2021-06-24 17:20:17.890625000,-40.0,-15.0,48.5,79.0734375,-110.29,25.1208490625,32.71
2021-06-24 17:20:17.898437500,-40.0,-15.0,48.25,79.07390625,-102.09,25.12237034375,32.71
2021-06-24 17:20:17.906250000,-40.0,-15.0,48.0,79.074375,-93.89,25.123891625,32.71
2021-06-24 17:20:17.914062500,-40.0,-15.0,48.0,79.07484375,-83.63499999999999,25.125412906250002,32.71
2021-06-24 17:20:17.921875000,-40.0,-15.0,48.0,79.0753125,-73.38,25.1269341875,32.71
2021-06-24 17:20:17.929687500,-40.0,-15.0,48.0,79.07578124999999,-62.22,25.12845546875,32.71
2021-06-24 17:20:17.937500000,-40.0,-15.0,48.0,79.07625,-51.06,25.12997675,32.71
2021-06-24 17:20:17.945312500,-40.0,-15.0,48.25,79.07671875,-40.08,25.13149803125,32.71
2021-06-24 17:20:17.953125000,-40.0,-15.0,48.5,79.0771875,-29.1,25.1330193125,32.71
2021-06-24 17:20:17.960937500,-40.0,-15.0,48.75,79.07765625,-19.07,25.13454059375,32.71
2021-06-24 17:20:17.968750000,-40.0,-15.0,49.0,79.078125,-9.04,25.136061875000003,32.71
2021-06-24 17:20:17.976562500,-40.0,-15.0,48.75,79.07859375,-0.3699999999999992,25.137583156250003,32.71
2021-06-24 17:20:17.984375000,-40.0,-15.0,48.5,79.07906249999999,8.3,25.139104437500002,32.71
2021-06-24 17:20:17.992187500,-40.0,-15.0,48.25,79.07953125,15.540000000000001,25.14062571875,32.71
2021-06-24 17:20:18.000000000,-40.0,-15.0,48.0,79.08,22.78,25.142147,32.71
2021-06-24 17:20:18.007812500,-40.0,-15.0,48.0,79.08039062499999,28.665,25.141746625,32.71
2021-06-24 17:20:18.015625000,-40.0,-15.0,48.0,79.08078125,34.55,25.14134625,32.71
2021-06-24 17:20:18.023437500,-40.0,-15.0,48.0,79.081171875,39.22,25.140945875,32.71
2021-06-24 17:20:18.031250000,-40.0,-15.0,48.0,79.0815625,43.89,25.1405455,32.71
2021-06-24 17:20:18.039062500,-40.0,-15.0,48.0,79.081953125,47.43,25.140145125,32.71
2021-06-24 17:20:18.046875000,-40.0,-15.0,48.0,79.08234374999999,50.97,25.139744750000002,32.71
2021-06-24 17:20:18.054687500,-40.0,-15.0,48.0,79.082734375,53.45,25.139344375,32.71
2021-06-24 17:20:18.062500000,-40.0,-15.0,48.0,79.083125,55.93,25.138944000000002,32.71
2021-06-24 17:20:18.070312500,-40.0,-15.0,48.0,79.083515625,57.44,25.138543625,32.71
2021-06-24 17:20:18.078125000,-40.0,-15.0,48.0,79.08390625,58.95,25.138143250000002,32.71
2021-06-24 17:20:18.085937500,-40.0,-15.0,48.0,79.08429687499999,59.66,25.137742875,32.71
2021-06-24 17:20:18.093750000,-40.0,-15.0,48.0,79.0846875,60.37,25.137342500000003,32.71
2021-06-24 17:20:18.101562500,-40.0,-15.0,48.0,79.085078125,60.545,25.136942125,32.71
2021-06-24 17:20:18.109375000,-40.0,-15.0,48.0,79.08546875,60.72,25.136541750000003,32.71
2021-06-24 17:20:18.117187500,-40.0,-15.0,48.0,79.085859375,60.67,25.136141375,32.71
2021-06-24 17:20:18.125000000,-40.0,-15.0,48.0,79.08624999999999,60.62,25.135741000000003,32.71
2021-06-24 17:20:18.132812500,-40.0,-15.0,48.0,79.086640625,60.584999999999994,25.135340625,32.71
2021-06-24 17:20:18.140625000,-40.0,-15.0,48.0,79.08703125,60.55,25.13494025,32.71
2021-06-24 17:20:18.148437500,-40.0,-15.0,48.0,79.087421875,60.665,25.134539875,32.71
2021-06-24 17:20:18.156250000,-40.0,-15.0,48.0,79.0878125,60.78,25.1341395,32.71
2021-06-24 17:20:18.164062500,-40.0,-15.0,48.0,79.08820312499999,61.045,25.133739125,32.71
2021-06-24 17:20:18.171875000,-40.0,-15.0,48.0,79.08859375,61.31,25.13333875,32.71
2021-06-24 17:20:18.179687500,-40.0,-15.0,48.0,79.088984375,61.655,25.132938375000002,32.71
2021-06-24 17:20:18.187500000,-40.0,-15.0,48.0,79.089375,62.0,25.132538,32.71
2021-06-24 17:20:18.195312500,-40.0,-15.0,48.0,79.089765625,62.385000000000005,25.132137625000002,32.71
2021-06-24 17:20:18.203125000,-40.0,-15.0,48.0,79.09015624999999,62.77,25.13173725,32.71
2021-06-24 17:20:18.210937500,-40.0,-15.0,48.0,79.090546875,63.22,25.131336875000002,32.71
2021-06-24 17:20:18.218750000,-40.0,-15.0,48.0,79.0909375,63.67,25.1309365,32.71
2021-06-24 17:20:18.226562500,-40.0,-15.0,48.0,79.091328125,64.225,25.130536125000003,32.71
2021-06-24 17:20:18.234375000,-40.0,-15.0,48.0,79.09171875,64.78,25.13013575,32.71
2021-06-24 17:20:18.242187500,-40.0,-15.0,48.0,79.09210937499999,65.43,25.129735375000003,32.71
2021-06-24 17:20:18.250000000,-40.0,-15.0,48.0,79.0925,66.08,25.129335,32.71
2021-06-24 17:20:18.257812500,-40.0,-15.0,48.0,79.092890625,66.71000000000001,25.12757353125,32.71
2021-06-24 17:20:18.265625000,-40.0,-15.0,48.0,79.09328125,67.34,25.1258120625,32.71
2021-06-24 17:20:18.273437500,-40.0,-15.0,48.0,79.093671875,67.71000000000001,25.124050593750002,32.71
2021-06-24 17:20:18.281250000,-40.0,-15.0,48.0,79.09406249999999,68.08,25.122289125,32.71
2021-06-24 17:20:18.289062500,-40.0,-15.0,48.0,79.094453125,67.9,25.12052765625,32.71
2021-06-24 17:20:18.296875000,-40.0,-15.0,48.0,79.09484375,67.72,25.1187661875,32.71
2021-06-24 17:20:18.304687500,-40.0,-15.0,48.0,79.095234375,66.795,25.11700471875,32.71
2021-06-24 17:20:18.312500000,-40.0,-15.0,48.0,79.095625,65.87,25.11524325,32.71
2021-06-24 17:20:18.320312500,-40.0,-15.0,48.0,79.09601562499999,64.135,25.11348178125,32.71
2021-06-24 17:20:18.328125000,-40.0,-15.0,48.0,79.09640625,62.4,25.1117203125,32.71
2021-06-24 17:20:18.335937500,-40.0,-15.0,48.0,79.096796875,60.0,25.10995884375,32.71
2021-06-24 17:20:18.343750000,-40.0,-15.0,48.0,79.0971875,57.6,25.108197375,32.71
2021-06-24 17:20:18.351562500,-39.75,-15.0,48.0,79.097578125,54.785,25.10643590625,32.71
2021-06-24 17:20:18.359375000,-39.5,-15.0,48.0,79.09796874999999,51.97,25.1046744375,32.71
2021-06-24 17:20:18.367187500,-39.25,-15.0,48.0,79.098359375,48.980000000000004,25.10291296875,32.71
2021-06-24 17:20:18.375000000,-39.0,-15.0,48.0,79.09875,45.99,25.1011515,32.71
2021-06-24 17:20:18.382812500,-39.0,-15.0,48.25,79.099140625,42.945,25.09939003125,32.71
2021-06-24 17:20:18.390625000,-39.0,-15.0,48.5,79.09953125,39.9,25.0976285625,32.71
2021-06-24 17:20:18.398437500,-39.0,-15.0,48.75,79.09992187499999,36.805,25.09586709375,32.71
2021-06-24 17:20:18.406250000,-39.0,-15.0,49.0,79.1003125,33.71,25.094105625,32.71
2021-06-24 17:20:18.414062500,-39.25,-15.0,48.75,79.100703125,30.465,25.09234415625,32.71
2021-06-24 17:20:18.421875000,-39.5,-15.0,48.5,79.10109375,27.22,25.0905826875,32.71
2021-06-24 17:20:18.429687500,-39.75,-15.0,48.25,79.101484375,23.759999999999998,25.08882121875,32.71
2021-06-24 17:20:18.437500000,-40.0,-15.0,48.0,79.10187499999999,20.3,25.08705975,32.71
2021-06-24 17:20:18.445312500,-40.0,-15.0,48.0,79.102265625,16.645,25.08529828125,32.71
2021-06-24 17:20:18.453125000,-40.0,-15.0,48.0,79.10265625,12.99,25.0835368125,32.71
2021-06-24 17:20:18.460937500,-40.0,-15.0,48.0,79.103046875,9.225,25.08177534375,32.71
2021-06-24 17:20:18.468750000,-40.0,-15.0,48.0,79.1034375,5.46,25.080013875,32.71
2021-06-24 17:20:18.476562500,-40.0,-15.0,48.0,79.10382812499999,1.7400000000000002,25.078252406249998,32.71
2021-06-24 17:20:18.484375000,-40.0,-15.0,48.0,79.10421875,-1.98,25.0764909375,32.71
2021-06-24 17:20:18.492187500,-40.0,-15.0,48.0,79.104609375,-5.539999999999999,25.07472946875,32.71
2021-06-24 17:20:18.500000000,-40.0,-15.0,48.0,79.10499999999999,-9.1,25.072968,32.71
2021-06-24 17:20:18.507812500,-40.0,-15.0,48.0,79.105390625,-12.465,25.073008031249998,32.71
2021-06-24 17:20:18.515625000,-40.0,-15.0,48.0,79.10578124999999,-15.83,25.0730480625,32.71
2021-06-24 17:20:18.523437500,-40.0,-15.0,48.0,79.106171875,-19.045,25.07308809375,32.71
2021-06-24 17:20:18.531250000,-40.0,-15.0,48.0,79.1065625,-22.26,25.073128125,32.71
2021-06-24 17:20:18.539062500,-40.0,-15.0,48.0,79.10695312499999,-25.46,25.07316815625,32.71
2021-06-24 17:20:18.546875000,-40.0,-15.0,48.0,79.10734375,-28.66,25.0732081875,32.71
2021-06-24 17:20:18.554687500,-40.0,-15.0,48.0,79.10773437499999,-32.01,25.07324821875,32.71
2021-06-24 17:20:18.562500000,-40.0,-15.0,48.0,79.108125,-35.36,25.073288249999997,32.71
2021-06-24 17:20:18.570312500,-40.0,-15.0,48.0,79.108515625,-39.08,25.07332828125,32.71
2021-06-24 17:20:18.578125000,-40.0,-15.0,48.0,79.10890624999999,-42.8,25.073368312499998,32.71
2021-06-24 17:20:18.585937500,-40.0,-15.0,48.0,79.109296875,-47.099999999999994,25.07340834375,32.71
2021-06-24 17:20:18.593750000,-40.0,-15.0,48.0,79.10968749999999,-51.4,25.073448374999998,32.71
2021-06-24 17:20:18.601562500,-40.0,-15.0,48.0,79.110078125,-56.375,25.07348840625,32.71
2021-06-24 17:20:18.609375000,-40.0,-15.0,48.0,79.11046875,-61.35,25.0735284375,32.71
2021-06-24 17:20:18.617187500,-40.0,-15.0,48.0,79.11085937499999,-66.845,25.07356846875,32.71
2021-06-24 17:20:18.625000000,-40.0,-15.0,48.0,79.11125,-72.34,25.0736085,32.71
2021-06-24 17:20:18.632812500,-40.0,-15.0,48.0,79.11164062499999,-77.83,25.073648531249997,32.71
2021-06-24 17:20:18.640625000,-40.0,-15.0,48.0,79.11203125,-83.32,25.0736885625,32.71
2021-06-24 17:20:18.648437500,-40.0,-15.0,48.0,79.112421875,-87.97,25.073728593749998,32.71
2021-06-24 17:20:18.656250000,-40.0,-15.0,48.0,79.11281249999999,-92.62,25.073768625,32.71
2021-06-24 17:20:18.664062500,-40.0,-15.0,48.0,79.113203125,-95.435,25.073808656249998,32.71
2021-06-24 17:20:18.671875000,-40.0,-15.0,48.0,79.11359374999999,-98.25,25.0738486875,32.71
2021-06-24 17:20:18.679687500,-40.0,-15.0,48.0,79.113984375,-98.41499999999999,25.07388871875,32.71
2021-06-24 17:20:18.687500000,-40.0,-15.0,48.0,79.114375,-98.58,25.07392875,32.71
2021-06-24 17:20:18.695312500,-40.0,-15.0,48.0,79.11476562499999,-95.69,25.07396878125,32.71
2021-06-24 17:20:18.703125000,-40.0,-15.0,48.0,79.11515625,-92.8,25.074008812499997,32.71
2021-06-24 17:20:18.710937500,-40.0,-15.0,48.0,79.11554687499999,-87.00999999999999,25.07404884375,32.71
2021-06-24 17:20:18.718750000,-40.0,-15.0,48.0,79.1159375,-81.22,25.074088874999998,32.71
2021-06-24 17:20:18.726562500,-39.75,-15.0,48.25,79.116328125,-73.18,25.07412890625,32.71
2021-06-24 17:20:18.734375000,-39.5,-15.0,48.5,79.11671874999999,-65.14,25.074168937499998,32.71
2021-06-24 17:20:18.742187500,-39.25,-15.0,48.75,79.117109375,-55.760000000000005,25.07420896875,32.71
2021-06-24 17:20:18.750000000,-39.0,-15.0,49.0,79.11749999999999,-46.38,25.074249,32.71
2021-06-24 17:20:18.757812500,-39.25,-15.0,48.75,79.117890625,-36.6,25.0733281875,32.71
2021-06-24 17:20:18.765625000,-39.5,-15.0,48.5,79.11828125,-26.82,25.072407374999997,32.71
2021-06-24 17:20:18.773437500,-39.75,-15.0,48.25,79.11867187499999,-17.384999999999998,25.0714865625,32.71
2021-06-24 17:20:18.781250000,-40.0,-15.0,48.0,79.1190625,-7.95,25.07056575,32.71
2021-06-24 17:20:18.789062500,-40.0,-15.0,48.0,79.11945312499999,0.6049999999999995,25.069644937499998,32.71
2021-06-24 17:20:18.796875000,-40.0,-15.0,48.0,79.11984375,9.16,25.068724125,32.71
2021-06-24 17:20:18.804687500,-40.0,-15.0,48.0,79.120234375,16.494999999999997,25.067803312499997,32.71
2021-06-24 17:20:18.812500000,-40.0,-15.0,48.0,79.12062499999999,23.83,25.0668825,32.71
2021-06-24 17:20:18.820312500,-40.0,-15.0,48.0,79.121015625,29.7,25.0659616875,32.71
2021-06-24 17:20:18.828125000,-40.0,-15.0,48.0,79.12140624999999,35.57,25.065040874999998,32.71
2021-06-24 17:20:18.835937500,-40.0,-15.0,48.0,79.121796875,39.785,25.0641200625,32.71
2021-06-24 17:20:18.843750000,-40.0,-15.0,48.0,79.1221875,44.0,25.063199249999997,32.71
2021-06-24 17:20:18.851562500,-40.0,-15.25,48.0,79.12257812499999,46.445,25.062278437499998,32.71
2021-06-24 17:20:18.859375000,-40.0,-15.5,48.0,79.12296875,48.89,25.061357625,32.71
2021-06-24 17:20:18.867187500,-40.0,-15.75,48.0,79.12335937499999,49.620000000000005,25.060436812499997,32.71
2021-06-24 17:20:18.875000000,-40.0,-16.0,48.0,79.12375,50.35,25.059516,32.71
2021-06-24 17:20:18.882812500,-40.0,-16.0,48.25,79.124140625,49.605000000000004,25.0585951875,32.71
2021-06-24 17:20:18.890625000,-40.0,-16.0,48.5,79.12453124999999,48.86,25.057674374999998,32.71
2021-06-24 17:20:18.898437500,-40.0,-16.0,48.75,79.124921875,47.11,25.0567535625,32.71
2021-06-24 17:20:18.906250000,-40.0,-16.0,49.0,79.12531249999999,45.36,25.05583275,32.71
2021-06-24 17:20:18.914062500,-40.0,-15.75,48.75,79.125703125,43.185,25.0549119375,32.71
2021-06-24 17:20:18.921875000,-40.0,-15.5,48.5,79.12609375,41.01,25.053991125,32.71
2021-06-24 17:20:18.929687500,-40.0,-15.25,48.25,79.12648437499999,38.94,25.053070312499997,32.71
2021-06-24 17:20:18.937500000,-40.0,-15.0,48.0,79.126875,36.87,25.0521495,32.71
2021-06-24 17:20:18.945312500,-40.0,-15.0,48.0,79.12726562499999,35.28,25.0512286875,32.71
2021-06-24 17:20:18.953125000,-40.0,-15.0,48.0,79.12765625,33.69,25.050307874999998,32.71
2021-06-24 17:20:18.960937500,-40.0,-15.0,48.0,79.128046875,32.714999999999996,25.0493870625,32.71
2021-06-24 17:20:18.968750000,-40.0,-15.0,48.0,79.12843749999999,31.74,25.048466249999997,32.71
2021-06-24 17:20:18.976562500,-40.0,-15.0,48.0,79.128828125,31.29,25.0475454375,32.71
2021-06-24 17:20:18.984375000,-40.0,-15.0,48.0,79.12921874999999,30.84,25.046624625,32.71
2021-06-24 17:20:18.992187500,-40.0,-15.0,48.0,79.129609375,30.744999999999997,25.045703812499998,32.71
2021-06-24 17:20:19.000000000,-40.0,-15.0,48.0,79.13,30.65,25.044783,32.71
2021-06-24 17:20:19.007812500,-40.0,-15.0,48.0,79.130546875,30.755,25.04758540625,32.71
2021-06-24 17:20:19.015625000,-40.0,-15.0,48.0,79.13109374999999,30.86,25.0503878125,32.71
2021-06-24 17:20:19.023437500,-40.0,-15.0,48.0,79.13164062499999,31.1,25.05319021875,32.71
2021-06-24 17:20:19.031250000,-40.0,-15.0,48.0,79.1321875,31.34,25.055992625,32.71
2021-06-24 17:20:19.039062500,-40.0,-15.0,48.0,79.132734375,31.68,25.05879503125,32.71
2021-06-24 17:20:19.046875000,-40.0,-15.0,48.0,79.13328125,32.02,25.061597437499998,32.71
2021-06-24 17:20:19.054687500,-40.0,-15.0,48.0,79.133828125,32.395,25.06439984375,32.71
2021-06-24 17:20:19.062500000,-40.0,-15.0,48.0,79.13437499999999,32.77,25.06720225,32.71
2021-06-24 17:20:19.070312500,-40.0,-15.25,48.0,79.13492187499999,33.02,25.07000465625,32.71
2021-06-24 17:20:19.078125000,-40.0,-15.5,48.0,79.13546875,33.27,25.0728070625,32.71
2021-06-24 17:20:19.085937500,-40.0,-15.75,48.0,79.136015625,33.135000000000005,25.07560946875,32.71
2021-06-24 17:20:19.093750000,-40.0,-16.0,48.0,79.1365625,33.0,25.078411875,32.71
2021-06-24 17:20:19.101562500,-39.75,-15.75,48.25,79.137109375,32.185,25.08121428125,32.71
2021-06-24 17:20:19.109375000,-39.5,-15.5,48.5,79.13765624999999,31.37,25.0840166875,32.71
2021-06-24 17:20:19.117187500,-39.25,-15.25,48.75,79.13820312499999,29.655,25.086819093749998,32.71
2021-06-24 17:20:19.125000000,-39.0,-15.0,49.0,79.13875,27.94,25.0896215,32.71
2021-06-24 17:20:19.132812500,-39.0,-15.0,48.75,79.139296875,25.270000000000003,25.09242390625,32.71
2021-06-24 17:20:19.140625000,-39.0,-15.0,48.5,79.13984375,22.6,25.0952263125,32.71
2021-06-24 17:20:19.148437500,-39.0,-15.0,48.25,79.140390625,19.125,25.09802871875,32.71
2021-06-24 17:20:19.156250000,-39.0,-15.0,48.0,79.14093749999999,15.65,25.100831125,32.71
2021-06-24 17:20:19.164062500,-39.25,-15.25,48.25,79.14148437499999,11.67,25.10363353125,32.71
2021-06-24 17:20:19.171875000,-39.5,-15.5,48.5,79.14203125,7.69,25.1064359375,32.71
2021-06-24 17:20:19.179687500,-39.75,-15.75,48.75,79.142578125,3.58,25.10923834375,32.71
2021-06-24 17:20:19.187500000,-40.0,-16.0,49.0,79.143125,-0.53,25.11204075,32.71
2021-06-24 17:20:19.195312500,-40.0,-15.75,49.0,79.143671875,-4.465,25.11484315625,32.71
2021-06-24 17:20:19.203125000,-40.0,-15.5,49.0,79.14421875,-8.4,25.1176455625,32.71
2021-06-24 17:20:19.210937500,-40.0,-15.25,49.0,79.14476562499999,-11.985,25.12044796875,32.71
2021-06-24 17:20:19.218750000,-40.0,-15.0,49.0,79.1453125,-15.57,25.123250375,32.71
2021-06-24 17:20:19.226562500,-40.0,-15.25,49.0,79.145859375,-18.84,25.12605278125,32.71
2021-06-24 17:20:19.234375000,-40.0,-15.5,49.0,79.14640625,-22.11,25.1288551875,32.71
2021-06-24 17:20:19.242187500,-40.0,-15.75,49.0,79.146953125,-25.244999999999997,25.13165759375,32.71
2021-06-24 17:20:19.250000000,-40.0,-16.0,49.0,79.1475,-28.38,25.13446,32.71
2021-06-24 17:20:19.257812500,-40.0,-15.75,49.0,79.14804687499999,-31.685000000000002,25.135500875,32.71
2021-06-24 17:20:19.265625000,-40.0,-15.5,49.0,79.14859375,-34.99,25.13654175,32.71
2021-06-24 17:20:19.273437500,-40.0,-15.25,49.0,79.149140625,-38.795,25.137582625,32.71
2021-06-24 17:20:19.281250000,-40.0,-15.0,49.0,79.1496875,-42.6,25.1386235,32.71
2021-06-24 17:20:19.289062500,-40.0,-15.0,48.75,79.150234375,-47.150000000000006,25.139664375,32.71
2021-06-24 17:20:19.296875000,-40.0,-15.0,48.5,79.15078125,-51.7,25.14070525,32.71
2021-06-24 17:20:19.304687500,-40.0,-15.0,48.25,79.15132812499999,-57.095,25.141746125,32.71
2021-06-24 17:20:19.312500000,-40.0,-15.0,48.0,79.151875,-62.49,25.142787,32.71
2021-06-24 17:20:19.320312500,-39.75,-15.0,48.0,79.152421875,-68.535,25.143827875,32.71
2021-06-24 17:20:19.328125000,-39.5,-15.0,48.0,79.15296875,-74.58,25.14486875,32.71
2021-06-24 17:20:19.335937500,-39.25,-15.0,48.0,79.153515625,-80.735,25.145909625,32.71
2021-06-24 17:20:19.343750000,-39.0,-15.0,48.0,79.1540625,-86.89,25.1469505,32.71
2021-06-24 17:20:19.351562500,-39.25,-15.0,48.0,79.15460937499999,-92.28,25.147991375,32.71
2021-06-24 17:20:19.359375000,-39.5,-15.0,48.0,79.15515625,-97.67,25.14903225,32.71
2021-06-24 17:20:19.367187500,-39.75,-15.0,48.0,79.155703125,-101.225,25.150073125,32.71
2021-06-24 17:20:19.375000000,-40.0,-15.0,48.0,79.15625,-104.78,25.151114,32.71
2021-06-24 17:20:19.382812500,-40.0,-15.0,48.0,79.156796875,-105.50999999999999,25.152154875,32.71
2021-06-24 17:20:19.390625000,-40.0,-15.0,48.0,79.15734375,-106.24,25.15319575,32.71
2021-06-24 17:20:19.398437500,-40.0,-15.0,48.0,79.157890625,-103.53,25.154236625,32.71
2021-06-24 17:20:19.406250000,-40.0,-15.0,48.0,79.1584375,-100.82,25.1552775,32.71
2021-06-24 17:20:19.414062500,-39.75,-15.0,48.25,79.158984375,-94.66499999999999,25.156318374999998,32.71
2021-06-24 17:20:19.421875000,-39.5,-15.0,48.5,79.15953125,-88.51,25.15735925,32.71
2021-06-24 17:20:19.429687500,-39.25,-15.0,48.75,79.160078125,-79.5,25.158400125,32.71
2021-06-24 17:20:19.437500000,-39.0,-15.0,49.0,79.160625,-70.49,25.159441,32.71
2021-06-24 17:20:19.445312500,-39.25,-15.0,48.75,79.161171875,-59.675,25.160481875,32.71
2021-06-24 17:20:19.453125000,-39.5,-15.0,48.5,79.16171875,-48.86,25.16152275,32.71
2021-06-24 17:20:19.460937500,-39.75,-15.0,48.25,79.162265625,-37.39,25.162563625,32.71
2021-06-24 17:20:19.468750000,-40.0,-15.0,48.0,79.1628125,-25.92,25.163604499999998,32.71
2021-06-24 17:20:19.476562500,-40.0,-15.0,48.25,79.163359375,-14.815000000000001,25.164645375,32.71
2021-06-24 17:20:19.484375000,-40.0,-15.0,48.5,79.16390625,-3.71,25.16568625,32.71
2021-06-24 17:20:19.492187500,-40.0,-15.0,48.75,79.164453125,6.325,25.166727124999998,32.71
2021-06-24 17:20:19.500000000,-40.0,-15.0,49.0,79.16499999999999,16.36,25.167768,32.71
2021-06-24 17:20:19.507812500,-40.0,-15.0,48.75,79.165546875,24.895,25.16968965625,32.71
2021-06-24 17:20:19.515625000,-40.0,-15.0,48.5,79.16609375,33.43,25.171611312499998,32.71
2021-06-24 17:20:19.523437500,-40.0,-15.0,48.25,79.166640625,40.215,25.17353296875,32.71
2021-06-24 17:20:19.531250000,-40.0,-15.0,48.0,79.1671875,47.0,25.175454625,32.71
2021-06-24 17:20:19.539062500,-40.0,-15.0,48.0,79.167734375,51.875,25.177376281249998,32.71
2021-06-24 17:20:19.546875000,-40.0,-15.0,48.0,79.16828124999999,56.75,25.1792979375,32.71
2021-06-24 17:20:19.554687500,-40.0,-15.0,48.0,79.168828125,59.64,25.18121959375,32.71
2021-06-24 17:20:19.562500000,-40.0,-15.0,48.0,79.169375,62.53,25.18314125,32.71
2021-06-24 17:20:19.570312500,-40.0,-15.0,48.25,79.169921875,63.515,25.18506290625,32.71
2021-06-24 17:20:19.578125000,-40.0,-15.0,48.5,79.17046875,64.5,25.1869845625,32.71
2021-06-24 17:20:19.585937500,-40.0,-15.0,48.75,79.171015625,63.879999999999995,25.18890621875,32.71
2021-06-24 17:20:19.593750000,-40.0,-15.0,49.0,79.1715625,63.26,25.190827875,32.71
2021-06-24 17:20:19.601562500,-40.0,-15.0,48.75,79.172109375,61.545,25.19274953125,32.71
2021-06-24 17:20:19.609375000,-40.0,-15.0,48.5,79.17265625,59.83,25.1946711875,32.71
2021-06-24 17:20:19.617187500,-40.0,-15.0,48.25,79.173203125,57.614999999999995,25.19659284375,32.71
2021-06-24 17:20:19.625000000,-40.0,-15.0,48.0,79.17375,55.4,25.1985145,32.71
2021-06-24 17:20:19.632812500,-40.0,-15.0,48.0,79.174296875,53.239999999999995,25.20043615625,32.71
2021-06-24 17:20:19.640625000,-40.0,-15.0,48.0,79.17484375,51.08,25.2023578125,32.71
2021-06-24 17:20:19.648437500,-40.0,-15.0,48.0,79.175390625,49.36,25.20427946875,32.71
2021-06-24 17:20:19.656250000,-40.0,-15.0,48.0,79.1759375,47.64,25.206201125,32.71
2021-06-24 17:20:19.664062500,-40.0,-15.0,48.0,79.176484375,46.49,25.20812278125,32.71
2021-06-24 17:20:19.671875000,-40.0,-15.0,48.0,79.17703125,45.34,25.2100444375,32.71
2021-06-24 17:20:19.679687500,-40.0,-15.0,48.0,79.177578125,44.69,25.21196609375,32.71
2021-06-24 17:20:19.687500000,-40.0,-15.0,48.0,79.178125,44.04,25.21388775,32.71
2021-06-24 17:20:19.695312500,-39.75,-15.0,48.0,79.178671875,43.71,25.21580940625,32.71
2021-06-24 17:20:19.703125000,-39.5,-15.0,48.0,79.17921875,43.38,25.2177310625,32.71
2021-06-24 17:20:19.710937500,-39.25,-15.0,48.0,79.179765625,43.17,25.21965271875,32.71
2021-06-24 17:20:19.718750000,-39.0,-15.0,48.0,79.1803125,42.96,25.221574375,32.71
2021-06-24 17:20:19.726562500,-39.0,-15.0,48.25,79.180859375,42.715,25.22349603125,32.71
2021-06-24 17:20:19.734375000,-39.0,-15.0,48.5,79.18140625,42.47,25.225417687500002,32.71
2021-06-24 17:20:19.742187500,-39.0,-15.0,48.75,79.181953125,42.155,25.22733934375,32.71
2021-06-24 17:20:19.750000000,-39.0,-15.0,49.0,79.1825,41.84,25.229261,32.71
2021-06-24 17:20:19.757812500,-39.25,-15.0,49.0,79.183046875,41.45,25.2276596875,32.71
2021-06-24 17:20:19.765625000,-39.5,-15.0,49.0,79.18359375,41.06,25.226058375,32.71
2021-06-24 17:20:19.773437500,-39.75,-15.0,49.0,79.184140625,40.58,25.2244570625,32.71
2021-06-24 17:20:19.781250000,-40.0,-15.0,49.0,79.1846875,40.1,25.22285575,32.71
2021-06-24 17:20:19.789062500,-40.0,-15.0,48.75,79.18523437500001,39.43,25.2212544375,32.71
2021-06-24 17:20:19.796875000,-40.0,-15.0,48.5,79.18578125,38.76,25.219653125,32.71
2021-06-24 17:20:19.804687500,-40.0,-15.0,48.25,79.186328125,37.709999999999994,25.2180518125,32.71
2021-06-24 17:20:19.812500000,-40.0,-15.0,48.0,79.186875,36.66,25.2164505,32.71
2021-06-24 17:20:19.820312500,-39.75,-15.0,48.0,79.187421875,34.974999999999994,25.2148491875,32.71
2021-06-24 17:20:19.828125000,-39.5,-15.0,48.0,79.18796875,33.29,25.213247875,32.71
2021-06-24 17:20:19.835937500,-39.25,-15.0,48.0,79.18851562500001,30.77,25.2116465625,32.71
2021-06-24 17:20:19.843750000,-39.0,-15.0,48.0,79.1890625,28.25,25.21004525,32.71
2021-06-24 17:20:19.851562500,-39.25,-15.0,48.0,79.189609375,24.85,25.2084439375,32.71
2021-06-24 17:20:19.859375000,-39.5,-15.0,48.0,79.19015625,21.45,25.206842625,32.71
2021-06-24 17:20:19.867187500,-39.75,-15.0,48.0,79.190703125,17.335,25.2052413125,32.71
2021-06-24 17:20:19.875000000,-40.0,-15.0,48.0,79.19125,13.22,25.20364,32.71
2021-06-24 17:20:19.882812500,-40.0,-15.0,48.0,79.19179687500001,8.71,25.2020386875,32.71
2021-06-24 17:20:19.890625000,-40.0,-15.0,48.0,79.19234375,4.2,25.200437375,32.71
2021-06-24 17:20:19.898437500,-40.0,-15.0,48.0,79.192890625,-0.33999999999999986,25.1988360625,32.71
2021-06-24 17:20:19.906250000,-40.0,-15.0,48.0,79.1934375,-4.88,25.19723475,32.71
2021-06-24 17:20:19.914062500,-40.0,-15.0,48.25,79.193984375,-9.204999999999998,25.1956334375,32.71
2021-06-24 17:20:19.921875000,-40.0,-15.0,48.5,79.19453125,-13.53,25.194032125,32.71
2021-06-24 17:20:19.929687500,-40.0,-15.0,48.75,79.19507812500001,-17.585,25.1924308125,32.71
2021-06-24 17:20:19.937500000,-40.0,-15.0,49.0,79.195625,-21.64,25.1908295,32.71
2021-06-24 17:20:19.945312500,-40.0,-15.0,48.75,79.196171875,-25.57,25.1892281875,32.71
2021-06-24 17:20:19.953125000,-40.0,-15.0,48.5,79.19671875,-29.5,25.187626875,32.71
2021-06-24 17:20:19.960937500,-40.0,-15.0,48.25,79.197265625,-33.56,25.1860255625,32.71
2021-06-24 17:20:19.968750000,-40.0,-15.0,48.0,79.1978125,-37.62,25.18442425,32.71
2021-06-24 17:20:19.976562500,-40.0,-15.0,48.0,79.19835937500001,-42.135,25.1828229375,32.71
2021-06-24 17:20:19.984375000,-40.0,-15.0,48.0,79.19890625000001,-46.65,25.181221625,32.71
2021-06-24 17:20:19.992187500,-40.0,-15.0,48.0,79.199453125,-51.894999999999996,25.1796203125,32.71
2021-06-24 17:20:20.000000000,-40.0,-15.0,48.0,79.2,-57.14,25.178019,32.71
2021-06-24 17:20:20.007812500,-40.0,-15.0,48.0,79.200546875,-63.255,25.17853940625,32.710625
2021-06-24 17:20:20.015625000,-40.0,-15.0,48.0,79.20109375,-69.37,25.1790598125,32.71125
2021-06-24 17:20:20.023437500,-40.0,-15.0,48.0,79.201640625,-76.235,25.17958021875,32.711875
2021-06-24 17:20:20.031250000,-40.0,-15.0,48.0,79.20218750000001,-83.1,25.180100624999998,32.7125
2021-06-24 17:20:20.039062500,-40.0,-15.0,48.0,79.202734375,-90.235,25.18062103125,32.713125
2021-06-24 17:20:20.046875000,-40.0,-15.0,48.0,79.20328125,-97.37,25.1811414375,32.71375
2021-06-24 17:20:20.054687500,-40.0,-15.0,48.0,79.203828125,-103.855,25.18166184375,32.714375
2021-06-24 17:20:20.062500000,-40.0,-15.0,48.0,79.204375,-110.34,25.18218225,32.715
2021-06-24 17:20:20.070312500,-40.0,-15.0,48.0,79.204921875,-114.985,25.18270265625,32.715625
2021-06-24 17:20:20.078125000,-40.0,-15.0,48.0,79.20546875000001,-119.63,25.183223062499998,32.71625
2021-06-24 17:20:20.085937500,-40.0,-15.0,48.0,79.206015625,-121.22999999999999,25.18374346875,32.716875
2021-06-24 17:20:20.093750000,-40.0,-15.0,48.0,79.2065625,-122.83,25.184263875,32.7175
2021-06-24 17:20:20.101562500,-40.0,-15.0,48.0,79.207109375,-120.565,25.18478428125,32.718125
2021-06-24 17:20:20.109375000,-40.0,-15.0,48.0,79.20765625,-118.3,25.1853046875,32.71875
2021-06-24 17:20:20.117187500,-40.0,-15.0,48.0,79.208203125,-112.015,25.18582509375,32.719375
2021-06-24 17:20:20.125000000,-40.0,-15.0,48.0,79.20875000000001,-105.73,25.1863455,32.72
2021-06-24 17:20:20.132812500,-40.0,-15.0,48.0,79.209296875,-96.005,25.18686590625,32.720625
2021-06-24 17:20:20.140625000,-40.0,-15.0,48.0,79.20984375,-86.28,25.1873863125,32.72125
2021-06-24 17:20:20.148437500,-40.0,-15.0,48.0,79.210390625,-74.26,25.18790671875,32.721875
2021-06-24 17:20:20.156250000,-40.0,-15.0,48.0,79.2109375,-62.24,25.188427125,32.7225
2021-06-24 17:20:20.164062500,-40.0,-15.0,48.0,79.211484375,-49.28,25.18894753125,32.723124999999996
2021-06-24 17:20:20.171875000,-40.0,-15.0,48.0,79.21203125,-36.32,25.1894679375,32.723749999999995
2021-06-24 17:20:20.179687500,-40.0,-15.0,48.0,79.21257812500001,-23.615000000000002,25.18998834375,32.724374999999995
2021-06-24 17:20:20.187500000,-40.0,-15.0,48.0,79.213125,-10.91,25.19050875,32.724999999999994
2021-06-24 17:20:20.195312500,-40.0,-15.0,48.0,79.213671875,0.7249999999999996,25.19102915625,32.725625
2021-06-24 17:20:20.203125000,-40.0,-15.0,48.0,79.21421875,12.36,25.1915495625,32.72625
2021-06-24 17:20:20.210937500,-40.0,-15.0,48.0,79.214765625,22.515,25.19206996875,32.726875
2021-06-24 17:20:20.218750000,-40.0,-15.0,48.0,79.2153125,32.67,25.192590375,32.7275
2021-06-24 17:20:20.226562500,-40.0,-15.0,48.0,79.21585937500001,41.18,25.19311078125,32.728125
2021-06-24 17:20:20.234375000,-40.0,-15.0,48.0,79.21640625,49.69,25.1936311875,32.72875
2021-06-24 17:20:20.242187500,-40.0,-15.0,48.0,79.216953125,56.465,25.19415159375,32.729375
2021-06-24 17:20:20.250000000,-40.0,-15.0,48.0,79.2175,63.24,25.194672,32.73
2021-06-24 17:20:20.257812500,-40.0,-15.0,48.25,79.218046875,68.18,25.193751218750002,32.73
2021-06-24 17:20:20.265625000,-40.0,-15.0,48.5,79.21859375,73.12,25.1928304375,32.73
2021-06-24 17:20:20.273437500,-40.0,-15.0,48.75,79.219140625,76.105,25.19190965625,32.73
2021-06-24 17:20:20.281250000,-40.0,-15.0,49.0,79.2196875,79.09,25.190988875000002,32.73
2021-06-24 17:20:20.289062500,-40.0,-15.0,48.75,79.220234375,80.15,25.19006809375,32.73
2021-06-24 17:20:20.296875000,-40.0,-15.0,48.5,79.22078125,81.21,25.1891473125,32.73
2021-06-24 17:20:20.304687500,-40.0,-15.0,48.25,79.221328125,80.63499999999999,25.18822653125,32.73
2021-06-24 17:20:20.312500000,-40.0,-15.0,48.0,79.221875,80.06,25.18730575,32.73
2021-06-24 17:20:20.320312500,-40.0,-15.0,48.0,79.222421875,78.41499999999999,25.18638496875,32.73
2021-06-24 17:20:20.328125000,-40.0,-15.0,48.0,79.22296875,76.77,25.1854641875,32.73
2021-06-24 17:20:20.335937500,-40.0,-15.0,48.0,79.223515625,74.785,25.18454340625,32.73
2021-06-24 17:20:20.343750000,-40.0,-15.0,48.0,79.2240625,72.8,25.183622624999998,32.73
2021-06-24 17:20:20.351562500,-40.0,-15.0,48.0,79.224609375,71.12,25.18270184375,32.73
2021-06-24 17:20:20.359375000,-40.0,-15.0,48.0,79.22515625,69.44,25.1817810625,32.73
2021-06-24 17:20:20.367187500,-40.0,-15.0,48.0,79.225703125,68.42,25.18086028125,32.73
2021-06-24 17:20:20.375000000,-40.0,-15.0,48.0,79.22625,67.4,25.1799395,32.73
2021-06-24 17:20:20.382812500,-40.0,-15.0,48.0,79.226796875,67.005,25.17901871875,32.73
2021-06-24 17:20:20.390625000,-40.0,-15.0,48.0,79.22734375,66.61,25.1780979375,32.73
2021-06-24 17:20:20.398437500,-40.0,-15.0,48.0,79.227890625,66.525,25.17717715625,32.73
2021-06-24 17:20:20.406250000,-40.0,-15.0,48.0,79.2284375,66.44,25.176256375,32.73
2021-06-24 17:20:20.414062500,-39.75,-15.0,48.25,79.228984375,66.255,25.17533559375,32.73
2021-06-24 17:20:20.421875000,-39.5,-15.0,48.5,79.22953125,66.07,25.1744148125,32.73
2021-06-24 17:20:20.429687500,-39.25,-15.0,48.75,79.230078125,65.535,25.173494031249998,32.73
2021-06-24 17:20:20.437500000,-39.0,-15.0,49.0,79.230625,65.0,25.17257325,32.73
2021-06-24 17:20:20.445312500,-39.0,-15.0,48.75,79.231171875,64.125,25.17165246875,32.73
2021-06-24 17:20:20.453125000,-39.0,-15.0,48.5,79.23171875,63.25,25.1707316875,32.73
2021-06-24 17:20:20.460937500,-39.0,-15.0,48.25,79.232265625,62.230000000000004,25.16981090625,32.73
2021-06-24 17:20:20.468750000,-39.0,-15.0,48.0,79.2328125,61.21,25.168890124999997,32.73
2021-06-24 17:20:20.476562500,-39.25,-15.0,48.0,79.233359375,60.269999999999996,25.16796934375,32.73
2021-06-24 17:20:20.484375000,-39.5,-15.0,48.0,79.23390625,59.33,25.1670485625,32.73
2021-06-24 17:20:20.492187500,-39.75,-15.0,48.0,79.234453125,58.55,25.166127781249997,32.73
2021-06-24 17:20:20.500000000,-40.0,-15.0,48.0,79.235,57.77,25.165207,32.73
2021-06-24 17:20:20.507812500,-40.0,-15.0,48.25,79.235546875,57.025000000000006,25.165407156249998,32.73
2021-06-24 17:20:20.515625000,-40.0,-15.0,48.5,79.23609375,56.28,25.1656073125,32.73
2021-06-24 17:20:20.523437500,-40.0,-15.0,48.75,79.23664062499999,55.28,25.16580746875,32.73
2021-06-24 17:20:20.531250000,-40.0,-15.0,49.0,79.2371875,54.28,25.166007625,32.73
2021-06-24 17:20:20.539062500,-40.0,-15.0,48.75,79.237734375,52.665,25.166207781249998,32.73
2021-06-24 17:20:20.546875000,-40.0,-15.0,48.5,79.23828125,51.05,25.166407937499997,32.73
2021-06-24 17:20:20.554687500,-40.0,-15.0,48.25,79.238828125,48.535,25.16660809375,32.73
2021-06-24 17:20:20.562500000,-40.0,-15.0,48.0,79.239375,46.02,25.16680825,32.73
2021-06-24 17:20:20.570312500,-40.0,-15.0,48.0,79.239921875,42.5,25.167008406249998,32.73
2021-06-24 17:20:20.578125000,-40.0,-15.0,48.0,79.24046875,38.98,25.1672085625,32.73
2021-06-24 17:20:20.585937500,-40.0,-15.0,48.0,79.241015625,34.58,25.16740871875,32.73
2021-06-24 17:20:20.593750000,-40.0,-15.0,48.0,79.2415625,30.18,25.167608875,32.73
2021-06-24 17:20:20.601562500,-40.0,-15.0,48.0,79.242109375,25.22,25.16780903125,32.73
2021-06-24 17:20:20.609375000,-40.0,-15.0,48.0,79.24265625,20.26,25.168009187499997,32.73
2021-06-24 17:20:20.617187500,-40.0,-15.0,48.0,79.243203125,15.135000000000002,25.16820934375,32.73
2021-06-24 17:20:20.625000000,-40.0,-15.0,48.0,79.24375,10.01,25.1684095,32.73
2021-06-24 17:20:20.632812500,-40.0,-15.0,48.0,79.244296875,5.08,25.16860965625,32.73
2021-06-24 17:20:20.640625000,-40.0,-15.0,48.0,79.24484375,0.15,25.1688098125,32.73
2021-06-24 17:20:20.648437500,-40.0,-15.0,48.0,79.245390625,-4.38,25.16900996875,32.73
2021-06-24 17:20:20.656250000,-40.0,-15.0,48.0,79.2459375,-8.91,25.169210125,32.73
2021-06-24 17:20:20.664062500,-40.0,-15.0,48.0,79.246484375,-13.035,25.16941028125,32.73
2021-06-24 17:20:20.671875000,-40.0,-15.0,48.0,79.24703124999999,-17.16,25.169610437499998,32.73
2021-06-24 17:20:20.679687500,-40.0,-15.0,48.0,79.247578125,-21.064999999999998,25.16981059375,32.73
2021-06-24 17:20:20.687500000,-40.0,-15.0,48.0,79.248125,-24.97,25.17001075,32.73
2021-06-24 17:20:20.695312500,-40.0,-15.0,48.0,79.248671875,-28.925,25.17021090625,32.73
2021-06-24 17:20:20.703125000,-40.0,-15.0,48.0,79.24921875,-32.88,25.1704110625,32.73
2021-06-24 17:20:20.710937500,-40.0,-15.0,48.0,79.249765625,-37.22,25.17061121875,32.73
2021-06-24 17:20:20.718750000,-40.0,-15.0,48.0,79.25031249999999,-41.56,25.170811375,32.73
2021-06-24 17:20:20.726562500,-40.0,-15.0,48.0,79.250859375,-46.555,25.17101153125,32.73
2021-06-24 17:20:20.734375000,-40.0,-15.0,48.0,79.25140625,-51.55,25.171211687499998,32.73
2021-06-24 17:20:20.742187500,-40.0,-15.0,48.0,79.251953125,-57.364999999999995,25.17141184375,32.73
2021-06-24 17:20:20.750000000,-40.0,-15.0,48.0,79.2525,-63.18,25.171612,32.73
2021-06-24 17:20:20.757812500,-40.0,-15.0,48.0,79.253046875,-69.715,25.17181221875,32.73
2021-06-24 17:20:20.765625000,-40.0,-15.0,48.0,79.25359375,-76.25,25.1720124375,32.73
2021-06-24 17:20:20.773437500,-40.0,-15.0,48.0,79.25414062499999,-83.035,25.17221265625,32.73
2021-06-24 17:20:20.781250000,-40.0,-15.0,48.0,79.2546875,-89.82,25.172412875,32.73
2021-06-24 17:20:20.789062500,-40.0,-15.0,48.0,79.255234375,-95.975,25.172613093749998,32.73
2021-06-24 17:20:20.796875000,-40.0,-15.0,48.0,79.25578125,-102.13,25.1728133125,32.73
2021-06-24 17:20:20.804687500,-40.0,-15.0,48.0,79.256328125,-106.49,25.17301353125,32.73
2021-06-24 17:20:20.812500000,-40.0,-15.0,48.0,79.256875,-110.85,25.17321375,32.73
2021-06-24 17:20:20.820312500,-40.0,-15.0,48.0,79.25742187499999,-112.245,25.17341396875,32.73
2021-06-24 17:20:20.828125000,-40.0,-15.0,48.0,79.25796875,-113.64,25.1736141875,32.73
2021-06-24 17:20:20.835937500,-40.0,-15.0,48.0,79.258515625,-111.285,25.17381440625,32.73
2021-06-24 17:20:20.843750000,-40.0,-15.0,48.0,79.2590625,-108.93,25.174014624999998,32.73
2021-06-24 17:20:20.851562500,-40.0,-15.0,48.0,79.259609375,-102.69,25.17421484375,32.73
2021-06-24 17:20:20.859375000,-40.0,-15.0,48.0,79.26015625,-96.45,25.1744150625,32.73
2021-06-24 17:20:20.867187500,-40.0,-15.0,48.0,79.26070312499999,-86.94,25.17461528125,32.73
2021-06-24 17:20:20.875000000,-40.0,-15.0,48.0,79.26124999999999,-77.43,25.1748155,32.73
2021-06-24 17:20:20.882812500,-40.0,-15.0,48.0,79.261796875,-65.775,25.17501571875,32.73
2021-06-24 17:20:20.890625000,-40.0,-15.0,48.0,79.26234375,-54.12,25.1752159375,32.73
2021-06-24 17:20:20.898437500,-40.0,-15.0,48.0,79.262890625,-41.61,25.175416156249998,32.73
2021-06-24 17:20:20.906250000,-40.0,-15.0,48.0,79.2634375,-29.1,25.175616375,32.73
2021-06-24 17:20:20.914062500,-40.0,-15.0,48.0,79.26398437499999,-16.86,25.17581659375,32.73
2021-06-24 17:20:20.921875000,-40.0,-15.0,48.0,79.26453124999999,-4.62,25.1760168125,32.73
2021-06-24 17:20:20.929687500,-40.0,-15.0,48.0,79.265078125,6.56,25.176217031249998,32.73
2021-06-24 17:20:20.937500000,-40.0,-15.0,48.0,79.265625,17.74,25.17641725,32.73
2021-06-24 17:20:20.945312500,-40.0,-15.0,48.25,79.266171875,27.4,25.17661746875,32.73
2021-06-24 17:20:20.953125000,-40.0,-15.0,48.5,79.26671875,37.06,25.176817687499998,32.73
2021-06-24 17:20:20.960937500,-40.0,-15.0,48.75,79.267265625,44.925,25.17701790625,32.73
2021-06-24 17:20:20.968750000,-40.0,-15.0,49.0,79.26781249999999,52.79,25.177218125,32.73
2021-06-24 17:20:20.976562500,-40.0,-15.0,48.75,79.268359375,58.665000000000006,25.17741834375,32.73
2021-06-24 17:20:20.984375000,-40.0,-15.0,48.5,79.26890625,64.54,25.177618562499998,32.73
2021-06-24 17:20:20.992187500,-40.0,-15.0,48.25,79.269453125,68.30000000000001,25.17781878125,32.73
2021-06-24 17:20:21.000000000,-40.0,-15.0,48.0,79.27,72.06,25.178019,32.73
2021-06-24 17:20:21.007812500,-40.0,-15.0,48.0,79.27039062499999,73.755,25.17785884375,32.73
2021-06-24 17:20:21.015625000,-40.0,-15.0,48.0,79.27078125,75.45,25.177698687499998,32.73
2021-06-24 17:20:21.023437500,-40.0,-15.0,48.0,79.271171875,75.355,25.17753853125,32.73
2021-06-24 17:20:21.031250000,-40.0,-15.0,48.0,79.2715625,75.26,25.177378375,32.73
2021-06-24 17:20:21.039062500,-40.0,-15.0,48.25,79.271953125,73.89,25.17721821875,32.73
2021-06-24 17:20:21.046875000,-40.0,-15.0,48.5,79.27234374999999,72.52,25.1770580625,32.73
2021-06-24 17:20:21.054687500,-40.0,-15.0,48.75,79.272734375,70.52,25.176897906249998,32.73
2021-06-24 17:20:21.062500000,-40.0,-15.0,49.0,79.273125,68.52,25.17673775,32.73
2021-06-24 17:20:21.070312500,-40.0,-15.0,48.75,79.273515625,66.495,25.17657759375,32.73
2021-06-24 17:20:21.078125000,-40.0,-15.0,48.5,79.27390625,64.47,25.1764174375,32.73
2021-06-24 17:20:21.085937500,-40.0,-15.0,48.25,79.27429687499999,62.81,25.17625728125,32.73
2021-06-24 17:20:21.093750000,-40.0,-15.0,48.0,79.2746875,61.15,25.176097125,32.73
2021-06-24 17:20:21.101562500,-40.0,-15.0,48.0,79.275078125,59.995000000000005,25.175936968749998,32.73
2021-06-24 17:20:21.109375000,-40.0,-15.0,48.0,79.27546875,58.84,25.1757768125,32.73
2021-06-24 17:20:21.117187500,-40.0,-15.0,48.0,79.275859375,58.09,25.17561665625,32.73
2021-06-24 17:20:21.125000000,-40.0,-15.0,48.0,79.27624999999999,57.34,25.1754565,32.73
2021-06-24 17:20:21.132812500,-40.0,-15.0,48.25,79.276640625,56.775000000000006,25.17529634375,32.73
2021-06-24 17:20:21.140625000,-40.0,-15.0,48.5,79.27703125,56.21,25.175136187499998,32.73
2021-06-24 17:20:21.148437500,-40.0,-15.0,48.75,79.277421875,55.635000000000005,25.17497603125,32.73
2021-06-24 17:20:21.156250000,-40.0,-15.0,49.0,79.2778125,55.06,25.174815875,32.73
2021-06-24 17:20:21.164062500,-40.0,-15.25,48.75,79.27820312499999,54.38,25.17465571875,32.73
2021-06-24 17:20:21.171875000,-40.0,-15.5,48.5,79.27859375,53.7,25.1744955625,32.73
2021-06-24 17:20:21.179687500,-40.0,-15.75,48.25,79.278984375,52.95,25.174335406249998,32.73
2021-06-24 17:20:21.187500000,-40.0,-16.0,48.0,79.279375,52.2,25.174175249999998,32.73
2021-06-24 17:20:21.195312500,-40.0,-15.75,48.0,79.279765625,51.47,25.17401509375,32.73
2021-06-24 17:20:21.203125000,-40.0,-15.5,48.0,79.28015624999999,50.74,25.1738549375,32.73
2021-06-24 17:20:21.210937500,-40.0,-15.25,48.0,79.280546875,50.085,25.17369478125,32.73
2021-06-24 17:20:21.218750000,-40.0,-15.0,48.0,79.2809375,49.43,25.173534625,32.73
2021-06-24 17:20:21.226562500,-40.0,-15.0,48.0,79.281328125,48.8,25.173374468749998,32.73
2021-06-24 17:20:21.234375000,-40.0,-15.0,48.0,79.28171875,48.17,25.1732143125,32.73
2021-06-24 17:20:21.242187500,-40.0,-15.0,48.0,79.28210937499999,47.34,25.17305415625,32.73
2021-06-24 17:20:21.250000000,-40.0,-15.0,48.0,79.2825,46.51,25.172894,32.73
2021-06-24 17:20:21.257812500,-40.0,-15.0,48.25,79.282890625,45.165,25.172493624999998,32.73
2021-06-24 17:20:21.265625000,-40.0,-15.0,48.5,79.28328125,43.82,25.17209325,32.73
2021-06-24 17:20:21.273437500,-40.0,-15.0,48.75,79.283671875,41.665,25.171692874999998,32.73
2021-06-24 17:20:21.281250000,-40.0,-15.0,49.0,79.28406249999999,39.51,25.1712925,32.73
2021-06-24 17:20:21.289062500,-40.0,-15.0,48.75,79.284453125,36.394999999999996,25.170892124999998,32.73
2021-06-24 17:20:21.296875000,-40.0,-15.0,48.5,79.28484375,33.28,25.17049175,32.73
2021-06-24 17:20:21.304687500,-40.0,-15.0,48.25,79.285234375,29.325000000000003,25.170091375,32.73
2021-06-24 17:20:21.312500000,-40.0,-15.0,48.0,79.285625,25.37,25.169691,32.73
2021-06-24 17:20:21.320312500,-40.0,-15.0,48.0,79.28601562499999,20.92,25.169290625,32.73
2021-06-24 17:20:21.328125000,-40.0,-15.0,48.0,79.28640625,16.47,25.16889025,32.73
2021-06-24 17:20:21.335937500,-40.0,-15.0,48.0,79.286796875,11.98,25.168489875,32.73
2021-06-24 17:20:21.343750000,-40.0,-15.0,48.0,79.2871875,7.49,25.1680895,32.73
2021-06-24 17:20:21.351562500,-40.0,-15.0,48.25,79.287578125,3.335,25.167689125,32.73
2021-06-24 17:20:21.359375000,-40.0,-15.0,48.5,79.28796874999999,-0.82,25.16728875,32.73
2021-06-24 17:20:21.367187500,-40.0,-15.0,48.75,79.288359375,-4.495,25.166888375,32.73
2021-06-24 17:20:21.375000000,-40.0,-15.0,49.0,79.28875,-8.17,25.166488,32.73
2021-06-24 17:20:21.382812500,-40.0,-15.0,48.75,79.289140625,-11.495000000000001,25.166087625,32.73
2021-06-24 17:20:21.390625000,-40.0,-15.0,48.5,79.28953125,-14.82,25.165687249999998,32.73
2021-06-24 17:20:21.398437500,-40.0,-15.0,48.25,79.28992187499999,-18.134999999999998,25.165286875,32.73
2021-06-24 17:20:21.406250000,-40.0,-15.0,48.0,79.2903125,-21.45,25.164886499999998,32.73
2021-06-24 17:20:21.414062500,-40.0,-15.0,48.0,79.290703125,-25.18,25.164486125,32.73
2021-06-24 17:20:21.421875000,-40.0,-15.0,48.0,79.29109375,-28.91,25.164085749999998,32.73
2021-06-24 17:20:21.429687500,-40.0,-15.0,48.0,79.291484375,-33.43,25.163685375,32.73
2021-06-24 17:20:21.437500000,-40.0,-15.0,48.0,79.29187499999999,-37.95,25.163285,32.73
2021-06-24 17:20:21.445312500,-40.0,-15.0,48.25,79.292265625,-43.44,25.162884625,32.73
2021-06-24 17:20:21.453125000,-40.0,-15.0,48.5,79.29265625,-48.93,25.16248425,32.73
2021-06-24 17:20:21.460937500,-40.0,-15.0,48.75,79.293046875,-55.285,25.162083875,32.73
2021-06-24 17:20:21.468750000,-40.0,-15.0,49.0,79.2934375,-61.64,25.1616835,32.73
2021-06-24 17:20:21.476562500,-40.0,-15.0,48.75,79.29382812499999,-68.405,25.161283125,32.73
2021-06-24 17:20:21.484375000,-40.0,-15.0,48.5,79.29421875,-75.17,25.16088275,32.73
2021-06-24 17:20:21.492187500,-40.0,-15.0,48.25,79.294609375,-81.55000000000001,25.160482375,32.73
2021-06-24 17:20:21.500000000,-40.0,-15.0,48.0,79.29499999999999,-87.93,25.160082,32.73
2021-06-24 17:20:21.507812500,-40.0,-15.0,48.0,79.295390625,-92.86000000000001,25.160042,32.73
2021-06-24 17:20:21.515625000,-40.0,-15.0,48.0,79.29578124999999,-97.79,25.160002,32.73
2021-06-24 17:20:21.523437500,-40.0,-15.0,48.0,79.296171875,-100.22,25.159962,32.73
2021-06-24 17:20:21.531250000,-40.0,-15.0,48.0,79.2965625,-102.65,25.159921999999998,32.73
2021-06-24 17:20:21.539062500,-40.0,-15.0,48.0,79.29695312499999,-101.82,25.159882,32.73
2021-06-24 17:20:21.546875000,-40.0,-15.0,48.0,79.29734375,-100.99,25.159842,32.73
2021-06-24 17:20:21.554687500,-40.0,-15.0,48.0,79.29773437499999,-96.66499999999999,25.159802,32.73
2021-06-24 17:20:21.562500000,-40.0,-15.0,48.0,79.298125,-92.34,25.159762,32.73
2021-06-24 17:20:21.570312500,-40.0,-15.25,48.0,79.298515625,-84.92,25.159722,32.73
2021-06-24 17:20:21.578125000,-40.0,-15.5,48.0,79.29890624999999,-77.5,25.159682,32.73
2021-06-24 17:20:21.585937500,-40.0,-15.75,48.0,79.299296875,-67.895,25.159642,32.73
2021-06-24 17:20:21.593750000,-40.0,-16.0,48.0,79.29968749999999,-58.29,25.159602,32.73
2021-06-24 17:20:21.601562500,-40.0,-15.75,48.0,79.300078125,-47.66,25.159562,32.73
2021-06-24 17:20:21.609375000,-40.0,-15.5,48.0,79.30046875,-37.03,25.159522,32.73
2021-06-24 17:20:21.617187500,-40.0,-15.25,48.0,79.30085937499999,-26.47,25.159482,32.73
2021-06-24 17:20:21.625000000,-40.0,-15.0,48.0,79.30125,-15.91,25.159442,32.73
2021-06-24 17:20:21.632812500,-40.0,-15.0,48.25,79.30164062499999,-6.245000000000001,25.159402,32.73
2021-06-24 17:20:21.640625000,-40.0,-15.0,48.5,79.30203125,3.42,25.159362,32.73
2021-06-24 17:20:21.648437500,-40.0,-15.0,48.75,79.302421875,11.665000000000001,25.159322,32.73
2021-06-24 17:20:21.656250000,-40.0,-15.0,49.0,79.30281249999999,19.91,25.159282,32.73
2021-06-24 17:20:21.664062500,-40.0,-15.0,48.75,79.303203125,26.450000000000003,25.159242,32.73
2021-06-24 17:20:21.671875000,-40.0,-15.0,48.5,79.30359374999999,32.99,25.159202,32.73
2021-06-24 17:20:21.679687500,-40.0,-15.0,48.25,79.303984375,37.665000000000006,25.159162000000002,32.73
2021-06-24 17:20:21.687500000,-40.0,-15.0,48.0,79.304375,42.34,25.159122,32.73
2021-06-24 17:20:21.695312500,-40.0,-15.25,48.0,79.30476562499999,45.09,25.159082,32.73
2021-06-24 17:20:21.703125000,-40.0,-15.5,48.0,79.30515625,47.84,25.159042,32.73
2021-06-24 17:20:21.710937500,-40.0,-15.75,48.0,79.30554687499999,48.72,25.159002,32.73
2021-06-24 17:20:21.718750000,-40.0,-16.0,48.0,79.3059375,49.6,25.158962000000002,32.73
2021-06-24 17:20:21.726562500,-39.75,-15.75,48.0,79.306328125,48.86,25.158922,32.73
2021-06-24 17:20:21.734375000,-39.5,-15.5,48.0,79.30671874999999,48.12,25.158882000000002,32.73
2021-06-24 17:20:21.742187500,-39.25,-15.25,48.0,79.307109375,46.215,25.158842,32.73
2021-06-24 17:20:21.750000000,-39.0,-15.0,48.0,79.30749999999999,44.31,25.158802,32.73
2021-06-24 17:20:21.757812500,-39.25,-15.0,48.0,79.307890625,41.84,25.158321593750003,32.73
2021-06-24 17:20:21.765625000,-39.5,-15.0,48.0,79.30828125,39.37,25.1578411875,32.73
2021-06-24 17:20:21.773437500,-39.75,-15.0,48.0,79.30867187499999,36.915,25.157360781250002,32.73
2021-06-24 17:20:21.781250000,-40.0,-15.0,48.0,79.3090625,34.46,25.156880375,32.73
2021-06-24 17:20:21.789062500,-40.0,-15.0,48.0,79.30945312499999,32.47,25.15639996875,32.73
2021-06-24 17:20:21.796875000,-40.0,-15.0,48.0,79.30984375,30.48,25.155919562500003,32.73
2021-06-24 17:20:21.804687500,-40.0,-15.0,48.0,79.310234375,29.145,25.15543915625,32.73
2021-06-24 17:20:21.812500000,-40.0,-15.0,48.0,79.31062499999999,27.81,25.154958750000002,32.73
2021-06-24 17:20:21.820312500,-40.0,-15.0,48.0,79.311015625,27.104999999999997,25.15447834375,32.73
2021-06-24 17:20:21.828125000,-40.0,-15.0,48.0,79.31140624999999,26.4,25.1539979375,32.73
2021-06-24 17:20:21.835937500,-40.0,-15.0,48.0,79.311796875,26.155,25.153517531250003,32.73
2021-06-24 17:20:21.843750000,-40.0,-15.0,48.0,79.3121875,25.91,25.153037125,32.73
2021-06-24 17:20:21.851562500,-40.0,-15.25,48.0,79.31257812499999,25.939999999999998,25.152556718750002,32.73
2021-06-24 17:20:21.859375000,-40.0,-15.5,48.0,79.31296875,25.97,25.1520763125,32.73
2021-06-24 17:20:21.867187500,-40.0,-15.75,48.0,79.31335937499999,26.13,25.15159590625,32.73
2021-06-24 17:20:21.875000000,-40.0,-16.0,48.0,79.31375,26.29,25.151115500000003,32.73
2021-06-24 17:20:21.882812500,-40.0,-15.75,48.0,79.314140625,26.47,25.15063509375,32.73
2021-06-24 17:20:21.890625000,-40.0,-15.5,48.0,79.31453124999999,26.65,25.150154687500002,32.73
2021-06-24 17:20:21.898437500,-40.0,-15.25,48.0,79.314921875,26.715,25.14967428125,32.73
2021-06-24 17:20:21.906250000,-40.0,-15.0,48.0,79.31531249999999,26.78,25.149193875,32.73
2021-06-24 17:20:21.914062500,-39.75,-15.0,48.0,79.315703125,26.55,25.14871346875,32.73
2021-06-24 17:20:21.921875000,-39.5,-15.0,48.0,79.31609375,26.32,25.1482330625,32.73
2021-06-24 17:20:21.929687500,-39.25,-15.0,48.0,79.31648437499999,25.575,25.147752656250002,32.73
2021-06-24 17:20:21.937500000,-39.0,-15.0,48.0,79.316875,24.83,25.14727225,32.73
2021-06-24 17:20:21.945312500,-39.0,-15.0,48.25,79.31726562499999,23.365,25.14679184375,32.73
2021-06-24 17:20:21.953125000,-39.0,-15.0,48.5,79.31765625,21.9,25.1463114375,32.73
2021-06-24 17:20:21.960937500,-39.0,-15.0,48.75,79.318046875,19.634999999999998,25.14583103125,32.73
2021-06-24 17:20:21.968750000,-39.0,-15.0,49.0,79.31843749999999,17.37,25.145350625000003,32.73
2021-06-24 17:20:21.976562500,-39.0,-15.0,48.75,79.318828125,14.395,25.14487021875,32.73
2021-06-24 17:20:21.984375000,-39.0,-15.0,48.5,79.31921874999999,11.42,25.144389812500002,32.73
2021-06-24 17:20:21.992187500,-39.0,-15.0,48.25,79.319609375,7.98,25.14390940625,32.73
2021-06-24 17:20:22.000000000,-39.0,-15.0,48.0,79.32,4.54,25.143429,32.73
2021-06-24 17:20:22.007812500,-39.25,-15.0,48.0,79.32062499999999,0.935,25.143228781250002,32.73
2021-06-24 17:20:22.015625000,-39.5,-15.0,48.0,79.32124999999999,-2.67,25.1430285625,32.73
2021-06-24 17:20:22.023437500,-39.75,-15.0,48.0,79.32187499999999,-6.175,25.14282834375,32.73
2021-06-24 17:20:22.031250000,-40.0,-15.0,48.0,79.32249999999999,-9.68,25.142628125,32.73
2021-06-24 17:20:22.039062500,-40.0,-15.0,48.0,79.32312499999999,-12.975,25.142427906250003,32.73
2021-06-24 17:20:22.046875000,-40.0,-15.0,48.0,79.32374999999999,-16.27,25.1422276875,32.73
2021-06-24 17:20:22.054687500,-40.0,-15.0,48.0,79.32437499999999,-19.43,25.14202746875,32.73
2021-06-24 17:20:22.062500000,-40.0,-15.0,48.0,79.32499999999999,-22.59,25.141827250000002,32.73
2021-06-24 17:20:22.070312500,-40.0,-15.0,48.25,79.32562499999999,-25.855,25.14162703125,32.73
2021-06-24 17:20:22.078125000,-40.0,-15.0,48.5,79.32624999999999,-29.12,25.1414268125,32.73
2021-06-24 17:20:22.085937500,-40.0,-15.0,48.75,79.326875,-32.815,25.14122659375,32.73
2021-06-24 17:20:22.093750000,-40.0,-15.0,49.0,79.3275,-36.51,25.141026375000003,32.73
2021-06-24 17:20:22.101562500,-40.0,-15.0,48.75,79.328125,-40.985,25.14082615625,32.73
2021-06-24 17:20:22.109375000,-40.0,-15.0,48.5,79.32875,-45.46,25.1406259375,32.73
2021-06-24 17:20:22.117187500,-40.0,-15.0,48.25,79.329375,-50.91,25.140425718750002,32.73
2021-06-24 17:20:22.125000000,-40.0,-15.0,48.0,79.33,-56.36,25.1402255,32.73
2021-06-24 17:20:22.132812500,-40.0,-15.25,48.0,79.330625,-62.725,25.14002528125,32.73
2021-06-24 17:20:22.140625000,-40.0,-15.5,48.0,79.33125,-69.09,25.1398250625,32.73
2021-06-24 17:20:22.148437500,-40.0,-15.75,48.0,79.331875,-75.89500000000001,25.139624843750003,32.73
2021-06-24 17:20:22.156250000,-40.0,-16.0,48.0,79.3325,-82.7,25.139424625,32.73
2021-06-24 17:20:22.164062500,-40.0,-15.75,48.25,79.333125,-89.075,25.13922440625,32.73
2021-06-24 17:20:22.171875000,-40.0,-15.5,48.5,79.33375,-95.45,25.139024187500002,32.73
2021-06-24 17:20:22.179687500,-40.0,-15.25,48.75,79.334375,-100.23,25.138823968750003,32.73
2021-06-24 17:20:22.187500000,-40.0,-15.0,49.0,79.335,-105.01,25.13862375,32.73
2021-06-24 17:20:22.195312500,-40.0,-15.25,48.75,79.335625,-107.025,25.13842353125,32.73
2021-06-24 17:20:22.203125000,-40.0,-15.5,48.5,79.33624999999999,-109.04,25.138223312500003,32.73
2021-06-24 17:20:22.210937500,-40.0,-15.75,48.25,79.33687499999999,-107.49000000000001,25.13802309375,32.73
2021-06-24 17:20:22.218750000,-40.0,-16.0,48.0,79.33749999999999,-105.94,25.137822875,32.73
2021-06-24 17:20:22.226562500,-40.0,-15.75,48.0,79.33812499999999,-100.63,25.137622656250002,32.73
2021-06-24 17:20:22.234375000,-40.0,-15.5,48.0,79.33874999999999,-95.32,25.137422437500003,32.73
2021-06-24 17:20:22.242187500,-40.0,-15.25,48.0,79.33937499999999,-86.775,25.13722221875,32.73
2021-06-24 17:20:22.250000000,-40.0,-15.0,48.0,79.34,-78.23,25.137022,32.73
2021-06-24 17:20:22.257812500,-40.0,-15.0,48.25,79.340625,-67.515,25.1376625625,32.73
2021-06-24 17:20:22.265625000,-40.0,-15.0,48.5,79.34125,-56.8,25.138303125,32.73
2021-06-24 17:20:22.273437500,-40.0,-15.0,48.75,79.341875,-45.224999999999994,25.138943687500003,32.73
2021-06-24 17:20:22.281250000,-40.0,-15.0,49.0,79.3425,-33.65,25.139584250000002,32.73
2021-06-24 17:20:22.289062500,-40.0,-15.0,48.75,79.343125,-22.41,25.1402248125,32.73
2021-06-24 17:20:22.296875000,-40.0,-15.0,48.5,79.34375,-11.17,25.140865375,32.73
2021-06-24 17:20:22.304687500,-40.0,-15.0,48.25,79.344375,-1.1049999999999986,25.141505937500003,32.73
2021-06-24 17:20:22.312500000,-40.0,-15.0,48.0,79.345,8.96,25.142146500000003,32.73
2021-06-24 17:20:22.320312500,-40.0,-15.0,48.0,79.345625,17.39,25.142787062500002,32.73
2021-06-24 17:20:22.328125000,-40.0,-15.0,48.0,79.34625,25.82,25.143427625,32.73
2021-06-24 17:20:22.335937500,-40.0,-15.0,48.0,79.346875,32.46,25.1440681875,32.73
2021-06-24 17:20:22.343750000,-40.0,-15.0,48.0,79.3475,39.1,25.144708750000003,32.73
2021-06-24 17:20:22.351562500,-40.0,-15.0,48.25,79.348125,43.92,25.145349312500002,32.73
2021-06-24 17:20:22.359375000,-40.0,-15.0,48.5,79.34875,48.74,25.145989875,32.73
2021-06-24 17:20:22.367187500,-40.0,-15.0,48.75,79.349375,51.769999999999996,25.1466304375,32.73
2021-06-24 17:20:22.375000000,-40.0,-15.0,49.0,79.35,54.8,25.147271000000003,32.73
2021-06-24 17:20:22.382812500,-39.75,-15.0,49.0,79.350625,56.14,25.147911562500003,32.73
2021-06-24 17:20:22.390625000,-39.5,-15.0,49.0,79.35125,57.48,25.148552125000002,32.73
2021-06-24 17:20:22.398437500,-39.25,-15.0,49.0,79.35187499999999,57.325,25.1491926875,32.73
2021-06-24 17:20:22.406250000,-39.0,-15.0,49.0,79.35249999999999,57.17,25.14983325,32.73
2021-06-24 17:20:22.414062500,-39.25,-15.0,48.75,79.35312499999999,55.91,25.150473812500003,32.73
2021-06-24 17:20:22.421875000,-39.5,-15.0,48.5,79.35375,54.65,25.151114375000002,32.73
2021-06-24 17:20:22.429687500,-39.75,-15.0,48.25,79.354375,52.81,25.1517549375,32.73
2021-06-24 17:20:22.437500000,-40.0,-15.0,48.0,79.355,50.97,25.1523955,32.73
2021-06-24 17:20:22.445312500,-40.0,-15.0,48.25,79.355625,49.120000000000005,25.1530360625,32.73
2021-06-24 17:20:22.453125000,-40.0,-15.0,48.5,79.35625,47.27,25.153676625000003,32.73
2021-06-24 17:20:22.460937500,-40.0,-15.0,48.75,79.356875,45.835,25.154317187500002,32.73
2021-06-24 17:20:22.468750000,-40.0,-15.0,49.0,79.3575,44.4,25.15495775,32.73
2021-06-24 17:20:22.476562500,-39.75,-15.0,49.0,79.358125,43.585,25.1555983125,32.73
2021-06-24 17:20:22.484375000,-39.5,-15.0,49.0,79.35875,42.77,25.156238875000003,32.73
2021-06-24 17:20:22.492187500,-39.25,-15.0,49.0,79.359375,42.47,25.156879437500002,32.73
2021-06-24 17:20:22.500000000,-39.0,-15.0,49.0,79.36,42.17,25.15752,32.73
2021-06-24 17:20:22.507812500,-39.25,-15.25,49.0,79.360625,42.120000000000005,25.157239750000002,32.73
2021-06-24 17:20:22.515625000,-39.5,-15.5,49.0,79.36125,42.07,25.156959500000003,32.73
2021-06-24 17:20:22.523437500,-39.75,-15.75,49.0,79.361875,41.980000000000004,25.15667925,32.73
2021-06-24 17:20:22.531250000,-40.0,-16.0,49.0,79.3625,41.89,25.156399,32.73
2021-06-24 17:20:22.539062500,-40.0,-15.75,48.75,79.363125,41.6,25.15611875,32.73
2021-06-24 17:20:22.546875000,-40.0,-15.5,48.5,79.36375,41.31,25.1558385,32.73
2021-06-24 17:20:22.554687500,-40.0,-15.25,48.25,79.364375,40.845,25.155558250000002,32.73
2021-06-24 17:20:22.562500000,-40.0,-15.0,48.0,79.365,40.38,25.155278000000003,32.73
2021-06-24 17:20:22.570312500,-40.0,-15.0,48.25,79.365625,39.855000000000004,25.15499775,32.73
2021-06-24 17:20:22.578125000,-40.0,-15.0,48.5,79.36625,39.33,25.1547175,32.73
2021-06-24 17:20:22.585937500,-40.0,-15.0,48.75,79.36687500000001,38.825,25.15443725,32.73
2021-06-24 17:20:22.593750000,-40.0,-15.0,49.0,79.3675,38.32,25.154157,32.73
2021-06-24 17:20:22.601562500,-40.0,-15.0,48.75,79.368125,37.725,25.153876750000002,32.73
2021-06-24 17:20:22.609375000,-40.0,-15.0,48.5,79.36875,37.13,25.1535965,32.73
2021-06-24 17:20:22.617187500,-40.0,-15.0,48.25,79.369375,36.16,25.15331625,32.73
2021-06-24 17:20:22.625000000,-40.0,-15.0,48.0,79.37,35.19,25.153036,32.73
2021-06-24 17:20:22.632812500,-40.0,-15.0,48.0,79.370625,33.489999999999995,25.15275575,32.73
2021-06-24 17:20:22.640625000,-40.0,-15.0,48.0,79.37125,31.79,25.1524755,32.73
2021-06-24 17:20:22.648437500,-40.0,-15.0,48.0,79.371875,29.125,25.15219525,32.73
2021-06-24 17:20:22.656250000,-40.0,-15.0,48.0,79.3725,26.46,25.151915,32.73
2021-06-24 17:20:22.664062500,-40.0,-15.0,48.0,79.373125,22.845,25.15163475,32.73
2021-06-24 17:20:22.671875000,-40.0,-15.0,48.0,79.37375,19.23,25.1513545,32.73
2021-06-24 17:20:22.679687500,-40.0,-15.0,48.0,79.374375,14.945,25.15107425,32.73
2021-06-24 17:20:22.687500000,-40.0,-15.0,48.0,79.375,10.66,25.150793999999998,32.73
2021-06-24 17:20:22.695312500,-40.0,-15.0,48.25,79.375625,6.16,25.15051375,32.73
2021-06-24 17:20:22.703125000,-40.0,-15.0,48.5,79.37625,1.66,25.1502335,32.73
2021-06-24 17:20:22.710937500,-40.0,-15.0,48.75,79.376875,-2.6499999999999995,25.14995325,32.73
2021-06-24 17:20:22.718750000,-40.0,-15.0,49.0,79.3775,-6.96,25.149673,32.73
2021-06-24 17:20:22.726562500,-40.0,-15.0,48.75,79.378125,-10.845,25.14939275,32.73
2021-06-24 17:20:22.734375000,-40.0,-15.0,48.5,79.37875,-14.73,25.149112499999998,32.73
2021-06-24 17:20:22.742187500,-40.0,-15.0,48.25,79.379375,-18.215,25.148832249999998,32.73
2021-06-24 17:20:22.750000000,-40.0,-15.0,48.0,79.38,-21.7,25.148552,32.73
2021-06-24 17:20:22.757812500,-40.0,-15.0,48.0,79.38062500000001,-25.025,25.1495929375,32.73
2021-06-24 17:20:22.765625000,-40.0,-15.0,48.0,79.38125000000001,-28.35,25.150633874999997,32.73
2021-06-24 17:20:22.773437500,-40.0,-15.0,48.0,79.38187500000001,-31.905,25.151674812499998,32.73
2021-06-24 17:20:22.781250000,-40.0,-15.0,48.0,79.38250000000001,-35.46,25.15271575,32.73
2021-06-24 17:20:22.789062500,-40.0,-15.0,48.25,79.383125,-39.69,25.1537566875,32.73
2021-06-24 17:20:22.796875000,-40.0,-15.0,48.5,79.38375,-43.92,25.154797625,32.73
2021-06-24 17:20:22.804687500,-40.0,-15.0,48.75,79.384375,-49.125,25.155838562499998,32.73
2021-06-24 17:20:22.812500000,-40.0,-15.0,49.0,79.385,-54.33,25.1568795,32.73
2021-06-24 17:20:22.820312500,-40.0,-15.0,48.75,79.385625,-60.56,25.1579204375,32.73
2021-06-24 17:20:22.828125000,-40.0,-15.0,48.5,79.38625,-66.79,25.158961374999997,32.73
2021-06-24 17:20:22.835937500,-40.0,-15.0,48.25,79.386875,-73.64,25.160002312499998,32.73
2021-06-24 17:20:22.843750000,-40.0,-15.0,48.0,79.3875,-80.49,25.16104325,32.73
2021-06-24 17:20:22.851562500,-40.0,-15.0,48.0,79.388125,-87.08500000000001,25.1620841875,32.73
2021-06-24 17:20:22.859375000,-40.0,-15.0,48.0,79.38875,-93.68,25.163125125,32.73
2021-06-24 17:20:22.867187500,-40.0,-15.0,48.0,79.389375,-98.805,25.164166062499998,32.73
2021-06-24 17:20:22.875000000,-40.0,-15.0,48.0,79.39,-103.93,25.165207,32.73
2021-06-24 17:20:22.882812500,-40.0,-15.0,48.0,79.390625,-106.33500000000001,25.1662479375,32.73
2021-06-24 17:20:22.890625000,-40.0,-15.0,48.0,79.39125,-108.74,25.167288874999997,32.73
2021-06-24 17:20:22.898437500,-40.0,-15.0,48.0,79.391875,-107.515,25.168329812499998,32.73
2021-06-24 17:20:22.906250000,-40.0,-15.0,48.0,79.3925,-106.29,25.16937075,32.73
2021-06-24 17:20:22.914062500,-40.0,-15.0,48.25,79.393125,-101.22,25.1704116875,32.73
2021-06-24 17:20:22.921875000,-40.0,-15.0,48.5,79.39375000000001,-96.15,25.171452625,32.73
2021-06-24 17:20:22.929687500,-40.0,-15.0,48.75,79.39437500000001,-87.745,25.172493562499998,32.73
2021-06-24 17:20:22.937500000,-40.0,-15.0,49.0,79.39500000000001,-79.34,25.1735345,32.73
2021-06-24 17:20:22.945312500,-40.0,-15.0,48.75,79.39562500000001,-68.715,25.1745754375,32.73
2021-06-24 17:20:22.953125000,-40.0,-15.0,48.5,79.39625000000001,-58.09,25.175616374999997,32.73
2021-06-24 17:20:22.960937500,-40.0,-15.0,48.25,79.39687500000001,-46.57,25.176657312499998,32.73
2021-06-24 17:20:22.968750000,-40.0,-15.0,48.0,79.39750000000001,-35.05,25.17769825,32.73
2021-06-24 17:20:22.976562500,-40.0,-15.0,48.0,79.39812500000001,-23.79,25.1787391875,32.73
2021-06-24 17:20:22.984375000,-40.0,-15.0,48.0,79.39875,-12.53,25.179780125,32.73
2021-06-24 17:20:22.992187500,-40.0,-15.0,48.0,79.399375,-2.3049999999999997,25.180821062499998,32.73
2021-06-24 17:20:23.000000000,-40.0,-15.0,48.0,79.4,7.92,25.181862,32.73
2021-06-24 17:20:23.007812500,-40.0,-15.0,48.0,79.400625,16.755000000000003,25.184264,32.73
2021-06-24 17:20:23.015625000,-40.0,-15.0,48.0,79.40125,25.59,25.186666,32.73
2021-06-24 17:20:23.023437500,-40.0,-15.0,48.0,79.401875,32.965,25.189068,32.73
2021-06-24 17:20:23.031250000,-40.0,-15.0,48.0,79.4025,40.34,25.19147,32.73
2021-06-24 17:20:23.039062500,-40.0,-15.0,48.0,79.403125,46.290000000000006,25.193872,32.73
2021-06-24 17:20:23.046875000,-40.0,-15.0,48.0,79.40375,52.24,25.196274,32.73
2021-06-24 17:20:23.054687500,-40.0,-15.0,48.0,79.404375,56.8,25.198676,32.73
2021-06-24 17:20:23.062500000,-40.0,-15.0,48.0,79.405,61.36,25.201078,32.73
2021-06-24 17:20:23.070312500,-40.0,-15.0,48.0,79.405625,64.50999999999999,25.20348,32.73
2021-06-24 17:20:23.078125000,-40.0,-15.0,48.0,79.40625,67.66,25.205882,32.73
2021-06-24 17:20:23.085937500,-40.0,-15.0,48.0,79.406875,69.405,25.208284,32.73
2021-06-24 17:20:23.093750000,-40.0,-15.0,48.0,79.4075,71.15,25.210686,32.73
2021-06-24 17:20:23.101562500,-40.0,-15.0,48.0,79.40812500000001,71.6,25.213088,32.73
2021-06-24 17:20:23.109375000,-40.0,-15.0,48.0,79.40875000000001,72.05,25.21549,32.73
2021-06-24 17:20:23.117187500,-40.0,-15.0,48.0,79.40937500000001,71.495,25.217892,32.73
2021-06-24 17:20:23.125000000,-40.0,-15.0,48.0,79.41000000000001,70.94,25.220294,32.73
2021-06-24 17:20:23.132812500,-40.0,-15.0,48.25,79.41062500000001,69.795,25.222696,32.73
2021-06-24 17:20:23.140625000,-40.0,-15.0,48.5,79.41125000000001,68.65,25.225098,32.73
2021-06-24 17:20:23.148437500,-40.0,-15.0,48.75,79.41187500000001,67.43,25.2275,32.73
2021-06-24 17:20:23.156250000,-40.0,-15.0,49.0,79.41250000000001,66.21,25.229902,32.73
2021-06-24 17:20:23.164062500,-40.0,-15.0,48.75,79.41312500000001,65.335,25.232304,32.73
2021-06-24 17:20:23.171875000,-40.0,-15.0,48.5,79.41375000000001,64.46,25.234706,32.73
2021-06-24 17:20:23.179687500,-40.0,-15.0,48.25,79.414375,64.16,25.237108,32.73
2021-06-24 17:20:23.187500000,-40.0,-15.0,48.0,79.415,63.86,25.23951,32.73
2021-06-24 17:20:23.195312500,-40.0,-15.0,48.0,79.415625,64.10499999999999,25.241912,32.73
2021-06-24 17:20:23.203125000,-40.0,-15.0,48.0,79.41625,64.35,25.244314,32.73
2021-06-24 17:20:23.210937500,-40.0,-15.0,48.0,79.416875,64.91,25.246716,32.73
2021-06-24 17:20:23.218750000,-40.0,-15.0,48.0,79.4175,65.47,25.249118,32.73
2021-06-24 17:20:23.226562500,-39.75,-15.0,48.25,79.418125,66.0,25.25152,32.73
2021-06-24 17:20:23.234375000,-39.5,-15.0,48.5,79.41875,66.53,25.253922,32.73
2021-06-24 17:20:23.242187500,-39.25,-15.0,48.75,79.419375,66.735,25.256324,32.73
2021-06-24 17:20:23.250000000,-39.0,-15.0,49.0,79.42,66.94,25.258726,32.73
2021-06-24 17:20:23.257812500,-39.0,-15.0,48.75,79.420625,66.675,25.26064765625,32.73
2021-06-24 17:20:23.265625000,-39.0,-15.0,48.5,79.42125,66.41,25.2625693125,32.73
2021-06-24 17:20:23.273437500,-39.0,-15.0,48.25,79.421875,65.68,25.26449096875,32.73
2021-06-24 17:20:23.281250000,-39.0,-15.0,48.0,79.4225,64.95,25.266412625,32.73
2021-06-24 17:20:23.289062500,-39.25,-15.0,48.0,79.423125,63.84,25.26833428125,32.73
2021-06-24 17:20:23.296875000,-39.5,-15.0,48.0,79.42375,62.73,25.2702559375,32.73
2021-06-24 17:20:23.304687500,-39.75,-15.0,48.0,79.42437500000001,61.295,25.27217759375,32.73
2021-06-24 17:20:23.312500000,-40.0,-15.0,48.0,79.42500000000001,59.86,25.27409925,32.73
2021-06-24 17:20:23.320312500,-40.0,-15.0,48.0,79.42562500000001,58.07,25.27602090625,32.73
2021-06-24 17:20:23.328125000,-40.0,-15.0,48.0,79.42625000000001,56.28,25.2779425625,32.73
2021-06-24 17:20:23.335937500,-40.0,-15.0,48.0,79.42687500000001,53.980000000000004,25.27986421875,32.73
2021-06-24 17:20:23.343750000,-40.0,-15.0,48.0,79.42750000000001,51.68,25.281785875,32.73
2021-06-24 17:20:23.351562500,-39.75,-15.0,48.0,79.42812500000001,48.7,25.283707531250002,32.73
2021-06-24 17:20:23.359375000,-39.5,-15.0,48.0,79.42875000000001,45.72,25.2856291875,32.73
2021-06-24 17:20:23.367187500,-39.25,-15.0,48.0,79.42937500000001,41.94,25.28755084375,32.73
2021-06-24 17:20:23.375000000,-39.0,-15.0,48.0,79.43,38.16,25.289472500000002,32.73
2021-06-24 17:20:23.382812500,-39.25,-15.0,48.25,79.430625,33.665,25.29139415625,32.73
2021-06-24 17:20:23.390625000,-39.5,-15.0,48.5,79.43125,29.17,25.2933158125,32.73
2021-06-24 17:20:23.398437500,-39.75,-15.0,48.75,79.431875,24.185000000000002,25.29523746875,32.73
2021-06-24 17:20:23.406250000,-40.0,-15.0,49.0,79.4325,19.2,25.297159125,32.73
2021-06-24 17:20:23.414062500,-40.0,-15.0,48.75,79.433125,14.094999999999999,25.29908078125,32.73
2021-06-24 17:20:23.421875000,-40.0,-15.0,48.5,79.43375,8.99,25.3010024375,32.73
2021-06-24 17:20:23.429687500,-40.0,-15.0,48.25,79.434375,4.135,25.30292409375,32.73
2021-06-24 17:20:23.437500000,-40.0,-15.0,48.0,79.435,-0.72,25.304845750000002,32.73
2021-06-24 17:20:23.445312500,-40.0,-15.0,48.25,79.435625,-5.074999999999999,25.30676740625,32.73
2021-06-24 17:20:23.453125000,-40.0,-15.0,48.5,79.43625,-9.43,25.3086890625,32.73
2021-06-24 17:20:23.460937500,-40.0,-15.0,48.75,79.436875,-13.23,25.310610718750002,32.73
2021-06-24 17:20:23.468750000,-40.0,-15.0,49.0,79.4375,-17.03,25.312532375,32.73
2021-06-24 17:20:23.476562500,-40.0,-15.0,48.75,79.438125,-20.46,25.31445403125,32.73
2021-06-24 17:20:23.484375000,-40.0,-15.0,48.5,79.43875,-23.89,25.316375687500003,32.73
2021-06-24 17:20:23.492187500,-40.0,-15.0,48.25,79.439375,-27.265,25.31829734375,32.73
2021-06-24 17:20:23.500000000,-40.0,-15.0,48.0,79.44,-30.64,25.320219,32.73
2021-06-24 17:20:23.507812500,-40.0,-15.0,48.0,79.44062500000001,-34.375,25.320619375,32.73
2021-06-24 17:20:23.515625000,-40.0,-15.0,48.0,79.44125000000001,-38.11,25.32101975,32.73
2021-06-24 17:20:23.523437500,-40.0,-15.0,48.0,79.44187500000001,-42.519999999999996,25.321420125000003,32.73
2021-06-24 17:20:23.531250000,-40.0,-15.0,48.0,79.44250000000001,-46.93,25.3218205,32.73
2021-06-24 17:20:23.539062500,-39.75,-15.0,48.25,79.44312500000001,-52.19,25.322220875,32.73
2021-06-24 17:20:23.546875000,-39.5,-15.0,48.5,79.44375000000001,-57.45,25.32262125,32.73
2021-06-24 17:20:23.554687500,-39.25,-15.0,48.75,79.44437500000001,-63.45,25.323021625000003,32.73
2021-06-24 17:20:23.562500000,-39.0,-15.0,49.0,79.44500000000001,-69.45,25.323422,32.73
2021-06-24 17:20:23.570312500,-39.25,-15.0,48.75,79.445625,-75.775,25.323822375,32.73
2021-06-24 17:20:23.578125000,-39.5,-15.0,48.5,79.44625,-82.1,25.32422275,32.73
2021-06-24 17:20:23.585937500,-39.75,-15.0,48.25,79.446875,-88.00999999999999,25.324623125000002,32.73
2021-06-24 17:20:23.593750000,-40.0,-15.0,48.0,79.4475,-93.92,25.3250235,32.73
2021-06-24 17:20:23.601562500,-40.0,-15.0,48.0,79.448125,-98.46000000000001,25.325423875,32.73
2021-06-24 17:20:23.609375000,-40.0,-15.0,48.0,79.44875,-103.0,25.32582425,32.73
2021-06-24 17:20:23.617187500,-40.0,-15.0,48.0,79.449375,-105.21000000000001,25.326224625000002,32.73
2021-06-24 17:20:23.625000000,-40.0,-15.0,48.0,79.45,-107.42,25.326625,32.73
2021-06-24 17:20:23.632812500,-40.0,-15.0,48.0,79.450625,-106.53999999999999,25.327025374999998,32.73
2021-06-24 17:20:23.640625000,-40.0,-15.0,48.0,79.45125,-105.66,25.32742575,32.73
2021-06-24 17:20:23.648437500,-40.0,-15.0,48.0,79.451875,-101.39,25.327826125,32.73
2021-06-24 17:20:23.656250000,-40.0,-15.0,48.0,79.4525,-97.12,25.3282265,32.73
2021-06-24 17:20:23.664062500,-40.0,-15.0,48.0,79.453125,-89.695,25.328626874999998,32.73
2021-06-24 17:20:23.671875000,-40.0,-15.0,48.0,79.45375,-82.27,25.32902725,32.73
2021-06-24 17:20:23.679687500,-40.0,-15.0,48.0,79.454375,-72.425,25.329427625,32.73
2021-06-24 17:20:23.687500000,-40.0,-15.0,48.0,79.455,-62.58,25.329828,32.73
2021-06-24 17:20:23.695312500,-40.0,-15.0,48.0,79.455625,-51.36,25.330228374999997,32.73
2021-06-24 17:20:23.703125000,-40.0,-15.0,48.0,79.45625000000001,-40.14,25.33062875,32.73
2021-06-24 17:20:23.710937500,-40.0,-15.0,48.0,79.45687500000001,-28.6,25.331029125,32.73
2021-06-24 17:20:23.718750000,-40.0,-15.0,48.0,79.45750000000001,-17.06,25.3314295,32.73
2021-06-24 17:20:23.726562500,-40.0,-15.0,48.25,79.45812500000001,-6.0649999999999995,25.331829874999997,32.73
2021-06-24 17:20:23.734375000,-40.0,-15.0,48.5,79.45875000000001,4.93,25.33223025,32.73
2021-06-24 17:20:23.742187500,-40.0,-15.0,48.75,79.45937500000001,14.82,25.332630625,32.73
2021-06-24 17:20:23.750000000,-40.0,-15.0,49.0,79.46000000000001,24.71,25.333031,32.73
2021-06-24 17:20:23.757812500,-40.0,-15.0,48.75,79.46062500000001,33.24,25.334992687499998,32.73
2021-06-24 17:20:23.765625000,-40.0,-15.0,48.5,79.46125,41.77,25.336954374999998,32.73
2021-06-24 17:20:23.773437500,-40.0,-15.0,48.25,79.461875,48.81,25.338916062499997,32.73
2021-06-24 17:20:23.781250000,-40.0,-15.0,48.0,79.4625,55.85,25.340877749999997,32.73
2021-06-24 17:20:23.789062500,-40.0,-15.0,48.0,79.463125,61.334999999999994,25.342839437499997,32.73
2021-06-24 17:20:23.796875000,-40.0,-15.0,48.0,79.46375,66.82,25.344801125,32.73
2021-06-24 17:20:23.804687500,-40.0,-15.0,48.0,79.464375,70.65,25.3467628125,32.73
2021-06-24 17:20:23.812500000,-40.0,-15.0,48.0,79.465,74.48,25.3487245,32.73
2021-06-24 17:20:23.820312500,-40.0,-15.0,48.0,79.465625,76.605,25.3506861875,32.73
2021-06-24 17:20:23.828125000,-40.0,-15.0,48.0,79.46625,78.73,25.352647875,32.73
2021-06-24 17:20:23.835937500,-40.0,-15.0,48.0,79.466875,79.235,25.3546095625,32.73
2021-06-24 17:20:23.843750000,-40.0,-15.0,48.0,79.4675,79.74,25.35657125,32.73
2021-06-24 17:20:23.851562500,-40.0,-15.0,48.0,79.468125,78.94,25.358532937499998,32.73
2021-06-24 17:20:23.859375000,-40.0,-15.0,48.0,79.46875,78.14,25.360494624999998,32.73
2021-06-24 17:20:23.867187500,-40.0,-15.0,48.0,79.469375,76.53999999999999,25.362456312499997,32.73
2021-06-24 17:20:23.875000000,-40.0,-15.0,48.0,79.47,74.94,25.364418,32.73
2021-06-24 17:20:23.882812500,-40.0,-15.0,48.0,79.470625,73.175,25.3663796875,32.73
2021-06-24 17:20:23.890625000,-40.0,-15.0,48.0,79.47125,71.41,25.368341375,32.73
2021-06-24 17:20:23.898437500,-40.0,-15.0,48.0,79.471875,70.00999999999999,25.3703030625,32.73
2021-06-24 17:20:23.906250000,-40.0,-15.0,48.0,79.47250000000001,68.61,25.37226475,32.73
2021-06-24 17:20:23.914062500,-40.0,-15.0,48.25,79.47312500000001,67.88499999999999,25.3742264375,32.73
2021-06-24 17:20:23.921875000,-40.0,-15.0,48.5,79.47375000000001,67.16,25.376188125,32.73
2021-06-24 17:20:23.929687500,-40.0,-15.0,48.75,79.47437500000001,67.11,25.3781498125,32.73
2021-06-24 17:20:23.937500000,-40.0,-15.0,49.0,79.47500000000001,67.06,25.380111499999998,32.73
2021-06-24 17:20:23.945312500,-40.0,-15.0,48.75,79.47562500000001,67.445,25.382073187499998,32.73
2021-06-24 17:20:23.953125000,-40.0,-15.0,48.5,79.47625000000001,67.83,25.384034874999998,32.73
2021-06-24 17:20:23.960937500,-40.0,-15.0,48.25,79.476875,68.3,25.3859965625,32.73
2021-06-24 17:20:23.968750000,-40.0,-15.0,48.0,79.4775,68.77,25.38795825,32.73
2021-06-24 17:20:23.976562500,-40.0,-15.0,48.0,79.478125,69.025,25.3899199375,32.73
2021-06-24 17:20:23.984375000,-40.0,-15.0,48.0,79.47875,69.28,25.391881625,32.73
2021-06-24 17:20:23.992187500,-40.0,-15.0,48.0,79.479375,69.14500000000001,25.3938433125,32.73
2021-06-24 17:20:24.000000000,-40.0,-15.0,48.0,79.48,69.01,25.395805,32.73
2021-06-24 17:20:24.007812500,-40.0,-15.0,48.0,79.48078125,68.435,25.39536459375,32.73
2021-06-24 17:20:24.015625000,-40.0,-15.0,48.0,79.48156250000001,67.86,25.3949241875,32.73
2021-06-24 17:20:24.023437500,-40.0,-15.0,48.0,79.48234375,66.87,25.39448378125,32.73
2021-06-24 17:20:24.031250000,-40.0,-15.0,48.0,79.483125,65.88,25.394043375,32.73
2021-06-24 17:20:24.039062500,-40.0,-15.0,48.0,79.48390625,64.49,25.39360296875,32.73
2021-06-24 17:20:24.046875000,-40.0,-15.0,48.0,79.4846875,63.1,25.3931625625,32.73
2021-06-24 17:20:24.054687500,-40.0,-15.0,48.0,79.48546875000001,61.3,25.39272215625,32.73
2021-06-24 17:20:24.062500000,-40.0,-15.0,48.0,79.48625,59.5,25.39228175,32.73
2021-06-24 17:20:24.070312500,-39.75,-15.0,48.25,79.48703125,57.245000000000005,25.39184134375,32.73
2021-06-24 17:20:24.078125000,-39.5,-15.0,48.5,79.4878125,54.99,25.3914009375,32.73
2021-06-24 17:20:24.085937500,-39.25,-15.0,48.75,79.48859375,52.269999999999996,25.39096053125,32.73
2021-06-24 17:20:24.093750000,-39.0,-15.0,49.0,79.48937500000001,49.55,25.390520125,32.73
2021-06-24 17:20:24.101562500,-39.25,-15.0,48.75,79.49015625,46.375,25.39007971875,32.73
2021-06-24 17:20:24.109375000,-39.5,-15.0,48.5,79.4909375,43.2,25.389639312499998,32.73
2021-06-24 17:20:24.117187500,-39.75,-15.0,48.25,79.49171875,39.655,25.389198906249998,32.73
2021-06-24 17:20:24.125000000,-40.0,-15.0,48.0,79.4925,36.11,25.3887585,32.73
2021-06-24 17:20:24.132812500,-40.0,-15.0,48.0,79.49328125000001,32.3,25.38831809375,32.73
2021-06-24 17:20:24.140625000,-40.0,-15.0,48.0,79.4940625,28.49,25.3878776875,32.73
2021-06-24 17:20:24.148437500,-40.0,-15.0,48.0,79.49484375,24.555,25.38743728125,32.73
2021-06-24 17:20:24.156250000,-40.0,-15.0,48.0,79.495625,20.62,25.386996875,32.73
2021-06-24 17:20:24.164062500,-40.0,-15.0,48.25,79.49640625,16.67,25.38655646875,32.73
2021-06-24 17:20:24.171875000,-40.0,-15.0,48.5,79.49718750000001,12.72,25.3861160625,32.73
2021-06-24 17:20:24.179687500,-40.0,-15.0,48.75,79.49796875,8.865,25.38567565625,32.73
2021-06-24 17:20:24.187500000,-40.0,-15.0,49.0,79.49875,5.01,25.38523525,32.73
2021-06-24 17:20:24.195312500,-40.0,-15.0,48.75,79.49953125,1.3199999999999998,25.38479484375,32.73
2021-06-24 17:20:24.203125000,-40.0,-15.0,48.5,79.5003125,-2.37,25.3843544375,32.73
2021-06-24 17:20:24.210937500,-40.0,-15.0,48.25,79.50109375000001,-5.84,25.38391403125,32.73
2021-06-24 17:20:24.218750000,-40.0,-15.0,48.0,79.501875,-9.31,25.383473625,32.73
2021-06-24 17:20:24.226562500,-40.0,-15.0,48.0,79.50265625,-12.545,25.38303321875,32.73
2021-06-24 17:20:24.234375000,-40.0,-15.0,48.0,79.5034375,-15.78,25.3825928125,32.73
2021-06-24 17:20:24.242187500,-40.0,-15.0,48.0,79.50421875,-18.815,25.38215240625,32.73
2021-06-24 17:20:24.250000000,-40.0,-15.0,48.0,79.505,-21.85,25.381712,32.73
2021-06-24 17:20:24.257812500,-39.75,-15.0,48.25,79.50578125,-24.78,25.3816319375,32.73
2021-06-24 17:20:24.265625000,-39.5,-15.0,48.5,79.5065625,-27.71,25.381551875,32.73
2021-06-24 17:20:24.273437500,-39.25,-15.0,48.75,79.50734375,-30.740000000000002,25.3814718125,32.73
2021-06-24 17:20:24.281250000,-39.0,-15.0,49.0,79.508125,-33.77,25.38139175,32.73
2021-06-24 17:20:24.289062500,-39.25,-15.0,48.75,79.50890625,-37.185,25.3813116875,32.73
2021-06-24 17:20:24.296875000,-39.5,-15.0,48.5,79.5096875,-40.6,25.381231625,32.73
2021-06-24 17:20:24.304687500,-39.75,-15.0,48.25,79.51046875,-44.72,25.3811515625,32.73
2021-06-24 17:20:24.312500000,-40.0,-15.0,48.0,79.51125,-48.84,25.3810715,32.73
2021-06-24 17:20:24.320312500,-40.0,-15.0,48.0,79.51203125,-53.845,25.3809914375,32.73
2021-06-24 17:20:24.328125000,-40.0,-15.0,48.0,79.5128125,-58.85,25.380911375,32.73
2021-06-24 17:20:24.335937500,-40.0,-15.0,48.0,79.51359375,-64.63,25.3808313125,32.73
2021-06-24 17:20:24.343750000,-40.0,-15.0,48.0,79.514375,-70.41,25.38075125,32.73
2021-06-24 17:20:24.351562500,-40.0,-15.0,48.0,79.51515625,-76.43,25.3806711875,32.73
2021-06-24 17:20:24.359375000,-40.0,-15.0,48.0,79.5159375,-82.45,25.380591125,32.73
2021-06-24 17:20:24.367187500,-40.0,-15.0,48.0,79.51671875,-87.775,25.3805110625,32.73
2021-06-24 17:20:24.375000000,-40.0,-15.0,48.0,79.5175,-93.1,25.380431,32.73
2021-06-24 17:20:24.382812500,-40.0,-15.0,48.0,79.51828125,-96.615,25.3803509375,32.73
2021-06-24 17:20:24.390625000,-40.0,-15.0,48.0,79.5190625,-100.13,25.380270875,32.73
2021-06-24 17:20:24.398437500,-40.0,-15.0,48.0,79.51984375,-100.85,25.3801908125,32.73
2021-06-24 17:20:24.406250000,-40.0,-15.0,48.0,79.520625,-101.57,25.38011075,32.73
2021-06-24 17:20:24.414062500,-39.75,-15.0,48.0,79.52140625,-98.975,25.3800306875,32.73
2021-06-24 17:20:24.421875000,-39.5,-15.0,48.0,79.5221875,-96.38,25.379950625,32.73
2021-06-24 17:20:24.429687500,-39.25,-15.0,48.0,79.52296875,-90.58,25.3798705625,32.73
2021-06-24 17:20:24.437500000,-39.0,-15.0,48.0,79.52375,-84.78,25.3797905,32.73
2021-06-24 17:20:24.445312500,-39.25,-15.0,48.25,79.52453125,-76.47,25.379710437499998,32.73
2021-06-24 17:20:24.453125000,-39.5,-15.0,48.5,79.5253125,-68.16,25.379630374999998,32.73
2021-06-24 17:20:24.460937500,-39.75,-15.0,48.75,79.52609375,-58.394999999999996,25.3795503125,32.73
2021-06-24 17:20:24.468750000,-40.0,-15.0,49.0,79.526875,-48.63,25.37947025,32.73
2021-06-24 17:20:24.476562500,-39.75,-15.0,49.0,79.52765625,-38.510000000000005,25.3793901875,32.73
2021-06-24 17:20:24.484375000,-39.5,-15.0,49.0,79.5284375,-28.39,25.379310125,32.73
2021-06-24 17:20:24.492187500,-39.25,-15.0,49.0,79.52921875,-18.82,25.3792300625,32.73
2021-06-24 17:20:24.500000000,-39.0,-15.0,49.0,79.53,-9.25,25.37915,32.73
2021-06-24 17:20:24.507812500,-39.25,-15.0,48.75,79.53078125,-0.8599999999999994,25.3787896875,32.73
2021-06-24 17:20:24.515625000,-39.5,-15.0,48.5,79.5315625,7.53,25.378429375,32.73
2021-06-24 17:20:24.523437500,-39.75,-15.0,48.25,79.53234375,14.405000000000001,25.3780690625,32.73
2021-06-24 17:20:24.531250000,-40.0,-15.0,48.0,79.533125,21.28,25.37770875,32.73
2021-06-24 17:20:24.539062500,-40.0,-15.0,48.0,79.53390625,26.46,25.3773484375,32.73
2021-06-24 17:20:24.546875000,-40.0,-15.0,48.0,79.5346875,31.64,25.376988125,32.73
2021-06-24 17:20:24.554687500,-40.0,-15.0,48.0,79.53546875,35.05,25.3766278125,32.73
2021-06-24 17:20:24.562500000,-40.0,-15.0,48.0,79.53625,38.46,25.376267499999997,32.73
2021-06-24 17:20:24.570312500,-40.0,-15.25,48.0,79.53703125,40.120000000000005,25.375907187499998,32.73
2021-06-24 17:20:24.578125000,-40.0,-15.5,48.0,79.5378125,41.78,25.375546874999998,32.73
2021-06-24 17:20:24.585937500,-40.0,-15.75,48.0,79.53859375,41.845,25.375186562499998,32.73
2021-06-24 17:20:24.593750000,-40.0,-16.0,48.0,79.539375,41.91,25.374826249999998,32.73
2021-06-24 17:20:24.601562500,-40.0,-15.75,48.0,79.54015625,40.715,25.3744659375,32.73
2021-06-24 17:20:24.609375000,-40.0,-15.5,48.0,79.5409375,39.52,25.374105625,32.73
2021-06-24 17:20:24.617187500,-40.0,-15.25,48.0,79.54171875,37.595,25.3737453125,32.73
2021-06-24 17:20:24.625000000,-40.0,-15.0,48.0,79.5425,35.67,25.373385,32.73
2021-06-24 17:20:24.632812500,-40.0,-15.0,48.0,79.54328125,33.615,25.3730246875,32.73
2021-06-24 17:20:24.640625000,-40.0,-15.0,48.0,79.5440625,31.56,25.372664375,32.73
2021-06-24 17:20:24.648437500,-40.0,-15.0,48.0,79.54484375,29.905,25.3723040625,32.73
2021-06-24 17:20:24.656250000,-40.0,-15.0,48.0,79.545625,28.25,25.37194375,32.73
2021-06-24 17:20:24.664062500,-40.0,-15.0,48.0,79.54640625,27.295,25.3715834375,32.73
2021-06-24 17:20:24.671875000,-40.0,-15.0,48.0,79.5471875,26.34,25.371223125,32.73
2021-06-24 17:20:24.679687500,-40.0,-15.0,48.0,79.54796875,26.11,25.3708628125,32.73
2021-06-24 17:20:24.687500000,-40.0,-15.0,48.0,79.54875,25.88,25.3705025,32.73
2021-06-24 17:20:24.695312500,-40.0,-15.0,48.0,79.54953125,26.145,25.370142187499997,32.73
2021-06-24 17:20:24.703125000,-40.0,-15.0,48.0,79.5503125,26.41,25.369781874999997,32.73
2021-06-24 17:20:24.710937500,-40.0,-15.0,48.0,79.55109375,26.85,25.369421562499998,32.73
2021-06-24 17:20:24.718750000,-40.0,-15.0,48.0,79.551875,27.29,25.369061249999998,32.73
2021-06-24 17:20:24.726562500,-40.0,-15.0,48.25,79.55265625,27.634999999999998,25.368700937499998,32.73
2021-06-24 17:20:24.734375000,-40.0,-15.0,48.5,79.5534375,27.98,25.368340625,32.73
2021-06-24 17:20:24.742187500,-40.0,-15.0,48.75,79.55421875,28.12,25.3679803125,32.73
2021-06-24 17:20:24.750000000,-40.0,-15.0,49.0,79.555,28.26,25.36762,32.73
2021-06-24 17:20:24.757812500,-40.0,-15.25,48.75,79.55578125,28.255000000000003,25.366579124999998,32.73
2021-06-24 17:20:24.765625000,-40.0,-15.5,48.5,79.5565625,28.25,25.36553825,32.73
2021-06-24 17:20:24.773437500,-40.0,-15.75,48.25,79.55734375,28.175,25.364497375,32.73
2021-06-24 17:20:24.781250000,-40.0,-16.0,48.0,79.558125,28.1,25.363456499999998,32.73
2021-06-24 17:20:24.789062500,-39.75,-15.75,48.25,79.55890624999999,27.96,25.362415625,32.73
2021-06-24 17:20:24.796875000,-39.5,-15.5,48.5,79.5596875,27.82,25.36137475,32.73
2021-06-24 17:20:24.804687500,-39.25,-15.25,48.75,79.56046875,27.505000000000003,25.360333875,32.73
2021-06-24 17:20:24.812500000,-39.0,-15.0,49.0,79.56125,27.19,25.359293,32.73
2021-06-24 17:20:24.820312500,-39.0,-15.25,48.75,79.56203125,26.47,25.358252125,32.73
2021-06-24 17:20:24.828125000,-39.0,-15.5,48.5,79.56281249999999,25.75,25.35721125,32.73
2021-06-24 17:20:24.835937500,-39.0,-15.75,48.25,79.56359375,24.39,25.356170374999998,32.73
2021-06-24 17:20:24.843750000,-39.0,-16.0,48.0,79.564375,23.03,25.3551295,32.73
2021-06-24 17:20:24.851562500,-39.25,-16.0,48.0,79.56515625,20.92,25.354088625,32.73
2021-06-24 17:20:24.859375000,-39.5,-16.0,48.0,79.5659375,18.81,25.353047749999998,32.73
2021-06-24 17:20:24.867187500,-39.75,-16.0,48.0,79.56671874999999,16.009999999999998,25.352006875,32.73
2021-06-24 17:20:24.875000000,-40.0,-16.0,48.0,79.5675,13.21,25.350966,32.73
2021-06-24 17:20:24.882812500,-40.0,-15.75,48.25,79.56828125,9.935,25.349925125,32.73
2021-06-24 17:20:24.890625000,-40.0,-15.5,48.5,79.5690625,6.66,25.34888425,32.73
2021-06-24 17:20:24.898437500,-40.0,-15.25,48.75,79.56984375,3.21,25.347843375,32.73
2021-06-24 17:20:24.906250000,-40.0,-15.0,49.0,79.57062499999999,-0.24,25.3468025,32.73
2021-06-24 17:20:24.914062500,-40.0,-15.25,48.75,79.57140625,-3.6100000000000003,25.345761625,32.73
2021-06-24 17:20:24.921875000,-40.0,-15.5,48.5,79.5721875,-6.98,25.34472075,32.73
2021-06-24 17:20:24.929687500,-40.0,-15.75,48.25,79.57296875,-10.129999999999999,25.343679875,32.73
2021-06-24 17:20:24.937500000,-40.0,-16.0,48.0,79.57375,-13.28,25.342639,32.73
2021-06-24 17:20:24.945312500,-39.75,-15.75,48.25,79.57453124999999,-16.245,25.341598125,32.73
2021-06-24 17:20:24.953125000,-39.5,-15.5,48.5,79.5753125,-19.21,25.34055725,32.73
2021-06-24 17:20:24.960937500,-39.25,-15.25,48.75,79.57609375,-22.185000000000002,25.339516375,32.73
2021-06-24 17:20:24.968750000,-39.0,-15.0,49.0,79.576875,-25.16,25.3384755,32.73
2021-06-24 17:20:24.976562500,-39.0,-15.25,48.75,79.57765625,-28.46,25.337434625,32.73
2021-06-24 17:20:24.984375000,-39.0,-15.5,48.5,79.57843749999999,-31.76,25.33639375,32.73
2021-06-24 17:20:24.992187500,-39.0,-15.75,48.25,79.57921875,-35.69,25.335352875,32.73
2021-06-24 17:20:25.000000000,-39.0,-16.0,48.0,79.58,-39.62,25.334312,32.73
2021-06-24 17:20:25.007812500,-39.0,-15.75,48.25,79.5809375,-44.364999999999995,25.3323503125,32.730624999999996
2021-06-24 17:20:25.015625000,-39.0,-15.5,48.5,79.581875,-49.11,25.330388625,32.731249999999996
2021-06-24 17:20:25.023437500,-39.0,-15.25,48.75,79.5828125,-54.6,25.3284269375,32.731874999999995
2021-06-24 17:20:25.031250000,-39.0,-15.0,49.0,79.58375,-60.09,25.326465250000002,32.732499999999995
2021-06-24 17:20:25.039062500,-39.0,-15.0,48.75,79.5846875,-65.89500000000001,25.324503562500002,32.733124999999994
2021-06-24 17:20:25.046875000,-39.0,-15.0,48.5,79.585625,-71.7,25.322541875,32.73375
2021-06-24 17:20:25.054687500,-39.0,-15.0,48.25,79.5865625,-77.055,25.3205801875,32.734375
2021-06-24 17:20:25.062500000,-39.0,-15.0,48.0,79.5875,-82.41,25.3186185,32.735
2021-06-24 17:20:25.070312500,-39.0,-15.25,48.0,79.5884375,-86.35499999999999,25.3166568125,32.735625
2021-06-24 17:20:25.078125000,-39.0,-15.5,48.0,79.589375,-90.3,25.314695125,32.73625
2021-06-24 17:20:25.085937500,-39.0,-15.75,48.0,79.5903125,-91.925,25.3127334375,32.736875
2021-06-24 17:20:25.093750000,-39.0,-16.0,48.0,79.59125,-93.55,25.31077175,32.7375
2021-06-24 17:20:25.101562500,-39.25,-15.75,48.0,79.5921875,-92.25999999999999,25.3088100625,32.738125
2021-06-24 17:20:25.109375000,-39.5,-15.5,48.0,79.593125,-90.97,25.306848375,32.738749999999996
2021-06-24 17:20:25.117187500,-39.75,-15.25,48.0,79.59406249999999,-86.69,25.3048866875,32.739374999999995
2021-06-24 17:20:25.125000000,-40.0,-15.0,48.0,79.595,-82.41,25.302925000000002,32.739999999999995
2021-06-24 17:20:25.132812500,-40.0,-15.25,48.0,79.5959375,-75.58500000000001,25.3009633125,32.740625
2021-06-24 17:20:25.140625000,-40.0,-15.5,48.0,79.596875,-68.76,25.299001625,32.74125
2021-06-24 17:20:25.148437500,-40.0,-15.75,48.0,79.5978125,-60.21,25.2970399375,32.741875
2021-06-24 17:20:25.156250000,-40.0,-16.0,48.0,79.59875,-51.66,25.29507825,32.7425
2021-06-24 17:20:25.164062500,-39.75,-16.0,48.0,79.5996875,-42.355,25.2931165625,32.743125
2021-06-24 17:20:25.171875000,-39.5,-16.0,48.0,79.600625,-33.05,25.291154875,32.74375
2021-06-24 17:20:25.179687500,-39.25,-16.0,48.0,79.6015625,-23.845,25.2891931875,32.744375
2021-06-24 17:20:25.187500000,-39.0,-16.0,48.0,79.60249999999999,-14.64,25.2872315,32.745
2021-06-24 17:20:25.195312500,-39.25,-16.0,48.25,79.6034375,-6.1850000000000005,25.2852698125,32.745625
2021-06-24 17:20:25.203125000,-39.5,-16.0,48.5,79.604375,2.27,25.283308125,32.746249999999996
2021-06-24 17:20:25.210937500,-39.75,-16.0,48.75,79.6053125,9.549999999999999,25.281346437499998,32.746875
2021-06-24 17:20:25.218750000,-40.0,-16.0,49.0,79.60625,16.83,25.27938475,32.7475
2021-06-24 17:20:25.226562500,-39.75,-15.75,48.75,79.6071875,22.64,25.2774230625,32.748125
2021-06-24 17:20:25.234375000,-39.5,-15.5,48.5,79.608125,28.45,25.275461375,32.74875
2021-06-24 17:20:25.242187500,-39.25,-15.25,48.25,79.6090625,32.605,25.2734996875,32.749375
2021-06-24 17:20:25.250000000,-39.0,-15.0,48.0,79.61,36.76,25.271538,32.75
2021-06-24 17:20:25.257812500,-39.0,-15.0,48.0,79.6109375,39.18,25.27101753125,32.75
2021-06-24 17:20:25.265625000,-39.0,-15.0,48.0,79.611875,41.6,25.2704970625,32.75
2021-06-24 17:20:25.273437500,-39.0,-15.0,48.0,79.6128125,42.345,25.26997659375,32.75
2021-06-24 17:20:25.281250000,-39.0,-15.0,48.0,79.61375,43.09,25.269456124999998,32.75
2021-06-24 17:20:25.289062500,-39.0,-15.25,48.0,79.6146875,42.45,25.26893565625,32.75
2021-06-24 17:20:25.296875000,-39.0,-15.5,48.0,79.615625,41.81,25.2684151875,32.75
2021-06-24 17:20:25.304687500,-39.0,-15.75,48.0,79.6165625,40.260000000000005,25.26789471875,32.75
2021-06-24 17:20:25.312500000,-39.0,-16.0,48.0,79.6175,38.71,25.26737425,32.75
2021-06-24 17:20:25.320312500,-39.25,-16.0,48.25,79.6184375,36.84,25.26685378125,32.75
2021-06-24 17:20:25.328125000,-39.5,-16.0,48.5,79.619375,34.97,25.2663333125,32.75
2021-06-24 17:20:25.335937500,-39.75,-16.0,48.75,79.6203125,33.32,25.26581284375,32.75
2021-06-24 17:20:25.343750000,-40.0,-16.0,49.0,79.62125,31.67,25.265292375,32.75
2021-06-24 17:20:25.351562500,-40.0,-15.75,49.0,79.6221875,30.575000000000003,25.26477190625,32.75
2021-06-24 17:20:25.359375000,-40.0,-15.5,49.0,79.623125,29.48,25.2642514375,32.75
2021-06-24 17:20:25.367187500,-40.0,-15.25,49.0,79.6240625,29.02,25.26373096875,32.75
2021-06-24 17:20:25.375000000,-40.0,-15.0,49.0,79.625,28.56,25.2632105,32.75
2021-06-24 17:20:25.382812500,-39.75,-15.25,48.75,79.6259375,28.575,25.26269003125,32.75
2021-06-24 17:20:25.390625000,-39.5,-15.5,48.5,79.626875,28.59,25.2621695625,32.75
2021-06-24 17:20:25.398437500,-39.25,-15.75,48.25,79.6278125,28.79,25.26164909375,32.75
2021-06-24 17:20:25.406250000,-39.0,-16.0,48.0,79.62875,28.99,25.261128624999998,32.75
2021-06-24 17:20:25.414062500,-39.25,-16.0,48.0,79.6296875,29.115,25.26060815625,32.75
2021-06-24 17:20:25.421875000,-39.5,-16.0,48.0,79.630625,29.24,25.2600876875,32.75
2021-06-24 17:20:25.429687500,-39.75,-16.0,48.0,79.6315625,29.145,25.25956721875,32.75
2021-06-24 17:20:25.437500000,-40.0,-16.0,48.0,79.6325,29.05,25.25904675,32.75
2021-06-24 17:20:25.445312500,-39.75,-16.0,48.0,79.6334375,28.735,25.25852628125,32.75
2021-06-24 17:20:25.453125000,-39.5,-16.0,48.0,79.634375,28.42,25.2580058125,32.75
2021-06-24 17:20:25.460937500,-39.25,-16.0,48.0,79.6353125,27.975,25.257485343749998,32.75
2021-06-24 17:20:25.468750000,-39.0,-16.0,48.0,79.63625,27.53,25.256964875,32.75
2021-06-24 17:20:25.476562500,-39.25,-15.75,48.0,79.6371875,27.005000000000003,25.25644440625,32.75
2021-06-24 17:20:25.484375000,-39.5,-15.5,48.0,79.638125,26.48,25.2559239375,32.75
2021-06-24 17:20:25.492187500,-39.75,-15.25,48.0,79.6390625,25.814999999999998,25.25540346875,32.75
2021-06-24 17:20:25.500000000,-40.0,-15.0,48.0,79.64,25.15,25.254883,32.75
2021-06-24 17:20:25.507812500,-39.75,-15.25,48.0,79.6409375,24.145,25.25460278125,32.75
2021-06-24 17:20:25.515625000,-39.5,-15.5,48.0,79.641875,23.14,25.2543225625,32.75
2021-06-24 17:20:25.523437500,-39.25,-15.75,48.0,79.6428125,21.54,25.25404234375,32.75
2021-06-24 17:20:25.531250000,-39.0,-16.0,48.0,79.64375,19.94,25.253762125,32.75
2021-06-24 17:20:25.539062500,-39.0,-15.75,48.0,79.6446875,17.52,25.25348190625,32.75
2021-06-24 17:20:25.546875000,-39.0,-15.5,48.0,79.645625,15.1,25.2532016875,32.75
2021-06-24 17:20:25.554687500,-39.0,-15.25,48.0,79.6465625,11.835,25.25292146875,32.75
2021-06-24 17:20:25.562500000,-39.0,-15.0,48.0,79.64750000000001,8.57,25.25264125,32.75
2021-06-24 17:20:25.570312500,-39.0,-15.25,48.0,79.6484375,4.61,25.25236103125,32.75
2021-06-24 17:20:25.578125000,-39.0,-15.5,48.0,79.649375,0.65,25.2520808125,32.75
2021-06-24 17:20:25.585937500,-39.0,-15.75,48.0,79.6503125,-3.68,25.25180059375,32.75
2021-06-24 17:20:25.593750000,-39.0,-16.0,48.0,79.65125,-8.01,25.251520375,32.75
2021-06-24 17:20:25.601562500,-39.0,-16.0,48.25,79.6521875,-12.370000000000001,25.25124015625,32.75
2021-06-24 17:20:25.609375000,-39.0,-16.0,48.5,79.653125,-16.73,25.2509599375,32.75
2021-06-24 17:20:25.617187500,-39.0,-16.0,48.75,79.6540625,-20.845,25.25067971875,32.75
2021-06-24 17:20:25.625000000,-39.0,-16.0,49.0,79.655,-24.96,25.2503995,32.75
2021-06-24 17:20:25.632812500,-39.25,-16.0,48.75,79.65593750000001,-28.740000000000002,25.25011928125,32.75
2021-06-24 17:20:25.640625000,-39.5,-16.0,48.5,79.656875,-32.52,25.2498390625,32.75
2021-06-24 17:20:25.648437500,-39.75,-16.0,48.25,79.6578125,-36.07,25.249558843750002,32.75
2021-06-24 17:20:25.656250000,-40.0,-16.0,48.0,79.65875,-39.62,25.249278625000002,32.75
2021-06-24 17:20:25.664062500,-39.75,-16.0,48.25,79.6596875,-43.209999999999994,25.24899840625,32.75
2021-06-24 17:20:25.671875000,-39.5,-16.0,48.5,79.660625,-46.8,25.2487181875,32.75
2021-06-24 17:20:25.679687500,-39.25,-16.0,48.75,79.6615625,-50.795,25.24843796875,32.75
2021-06-24 17:20:25.687500000,-39.0,-16.0,49.0,79.6625,-54.79,25.24815775,32.75
2021-06-24 17:20:25.695312500,-39.25,-16.0,48.75,79.6634375,-59.504999999999995,25.24787753125,32.75
2021-06-24 17:20:25.703125000,-39.5,-16.0,48.5,79.664375,-64.22,25.2475973125,32.75
2021-06-24 17:20:25.710937500,-39.75,-16.0,48.25,79.6653125,-69.78,25.247317093750002,32.75
2021-06-24 17:20:25.718750000,-40.0,-16.0,48.0,79.66625,-75.34,25.247036875,32.75
2021-06-24 17:20:25.726562500,-39.75,-16.0,48.0,79.6671875,-81.5,25.24675665625,32.75
2021-06-24 17:20:25.734375000,-39.5,-16.0,48.0,79.668125,-87.66,25.2464764375,32.75
2021-06-24 17:20:25.742187500,-39.25,-16.0,48.0,79.6690625,-93.735,25.24619621875,32.75
2021-06-24 17:20:25.750000000,-39.0,-16.0,48.0,79.67,-99.81,25.245916,32.75
2021-06-24 17:20:25.757812500,-39.0,-15.75,48.25,79.67093750000001,-104.745,25.24547559375,32.75
2021-06-24 17:20:25.765625000,-39.0,-15.5,48.5,79.671875,-109.68,25.2450351875,32.75
2021-06-24 17:20:25.773437500,-39.0,-15.25,48.75,79.6728125,-112.32,25.24459478125,32.75
2021-06-24 17:20:25.781250000,-39.0,-15.0,49.0,79.67375,-114.96,25.244154375,32.75
2021-06-24 17:20:25.789062500,-39.25,-15.0,49.0,79.6746875,-114.38999999999999,25.24371396875,32.75
2021-06-24 17:20:25.796875000,-39.5,-15.0,49.0,79.675625,-113.82,25.2432735625,32.75
2021-06-24 17:20:25.804687500,-39.75,-15.0,49.0,79.6765625,-109.69,25.24283315625,32.75
2021-06-24 17:20:25.812500000,-40.0,-15.0,49.0,79.67750000000001,-105.56,25.24239275,32.75
2021-06-24 17:20:25.820312500,-40.0,-15.0,49.0,79.6784375,-98.24000000000001,25.24195234375,32.75
2021-06-24 17:20:25.828125000,-40.0,-15.0,49.0,79.67937500000001,-90.92,25.2415119375,32.75
2021-06-24 17:20:25.835937500,-40.0,-15.0,49.0,79.6803125,-81.33,25.24107153125,32.75
2021-06-24 17:20:25.843750000,-40.0,-15.0,49.0,79.68125,-71.74,25.240631125,32.75
2021-06-24 17:20:25.851562500,-39.75,-15.0,49.0,79.6821875,-61.084999999999994,25.24019071875,32.75
2021-06-24 17:20:25.859375000,-39.5,-15.0,49.0,79.683125,-50.43,25.2397503125,32.75
2021-06-24 17:20:25.867187500,-39.25,-15.0,49.0,79.6840625,-39.795,25.23930990625,32.75
2021-06-24 17:20:25.875000000,-39.0,-15.0,49.0,79.685,-29.16,25.2388695,32.75
2021-06-24 17:20:25.882812500,-39.25,-15.25,48.75,79.68593750000001,-19.3,25.23842909375,32.75
2021-06-24 17:20:25.890625000,-39.5,-15.5,48.5,79.686875,-9.44,25.2379886875,32.75
2021-06-24 17:20:25.898437500,-39.75,-15.75,48.25,79.6878125,-0.7149999999999999,25.23754828125,32.75
2021-06-24 17:20:25.906250000,-40.0,-16.0,48.0,79.68875,8.01,25.237107875,32.75
2021-06-24 17:20:25.914062500,-40.0,-15.75,48.0,79.6896875,15.48,25.23666746875,32.75
2021-06-24 17:20:25.921875000,-40.0,-15.5,48.0,79.690625,22.95,25.2362270625,32.75
2021-06-24 17:20:25.929687500,-40.0,-15.25,48.0,79.6915625,29.119999999999997,25.23578665625,32.75
2021-06-24 17:20:25.937500000,-40.0,-15.0,48.0,79.6925,35.29,25.23534625,32.75
2021-06-24 17:20:25.945312500,-39.75,-15.0,48.25,79.6934375,40.095,25.23490584375,32.75
2021-06-24 17:20:25.953125000,-39.5,-15.0,48.5,79.69437500000001,44.9,25.2344654375,32.75
2021-06-24 17:20:25.960937500,-39.25,-15.0,48.75,79.6953125,48.245000000000005,25.23402503125,32.75
2021-06-24 17:20:25.968750000,-39.0,-15.0,49.0,79.69625,51.59,25.233584625,32.75
2021-06-24 17:20:25.976562500,-39.25,-15.0,48.75,79.6971875,53.46,25.23314421875,32.75
2021-06-24 17:20:25.984375000,-39.5,-15.0,48.5,79.698125,55.33,25.2327038125,32.75
2021-06-24 17:20:25.992187500,-39.75,-15.0,48.25,79.6990625,55.89,25.23226340625,32.75
2021-06-24 17:20:26.000000000,-40.0,-15.0,48.0,79.7,56.45,25.231823,32.75
2021-06-24 17:20:26.007812500,-39.75,-15.0,48.0,79.701015625,56.055,25.23198315625,32.749375
2021-06-24 17:20:26.015625000,-39.5,-15.0,48.0,79.70203125,55.66,25.2321433125,32.74875
2021-06-24 17:20:26.023437500,-39.25,-15.0,48.0,79.703046875,54.795,25.23230346875,32.748125
2021-06-24 17:20:26.031250000,-39.0,-15.0,48.0,79.7040625,53.93,25.232463624999998,32.7475
2021-06-24 17:20:26.039062500,-39.25,-15.0,48.0,79.705078125,53.055,25.23262378125,32.746875
2021-06-24 17:20:26.046875000,-39.5,-15.0,48.0,79.70609375000001,52.18,25.2327839375,32.746249999999996
2021-06-24 17:20:26.054687500,-39.75,-15.0,48.0,79.707109375,51.595,25.23294409375,32.745625
2021-06-24 17:20:26.062500000,-40.0,-15.0,48.0,79.708125,51.01,25.23310425,32.745
2021-06-24 17:20:26.070312500,-40.0,-15.25,48.0,79.709140625,50.8,25.23326440625,32.744375
2021-06-24 17:20:26.078125000,-40.0,-15.5,48.0,79.71015625,50.59,25.233424562499998,32.74375
2021-06-24 17:20:26.085937500,-40.0,-15.75,48.0,79.711171875,50.665000000000006,25.23358471875,32.743125
2021-06-24 17:20:26.093750000,-40.0,-16.0,48.0,79.7121875,50.74,25.233744875,32.7425
2021-06-24 17:20:26.101562500,-40.0,-15.75,48.0,79.713203125,50.89,25.23390503125,32.741875
2021-06-24 17:20:26.109375000,-40.0,-15.5,48.0,79.71421875,51.04,25.2340651875,32.74125
2021-06-24 17:20:26.117187500,-40.0,-15.25,48.0,79.71523437500001,51.099999999999994,25.23422534375,32.740625
2021-06-24 17:20:26.125000000,-40.0,-15.0,48.0,79.71625,51.16,25.234385500000002,32.739999999999995
2021-06-24 17:20:26.132812500,-40.0,-15.0,48.0,79.717265625,51.05,25.23454565625,32.739374999999995
2021-06-24 17:20:26.140625000,-40.0,-15.0,48.0,79.71828125,50.94,25.2347058125,32.738749999999996
2021-06-24 17:20:26.148437500,-40.0,-15.0,48.0,79.719296875,50.675,25.23486596875,32.738125
2021-06-24 17:20:26.156250000,-40.0,-15.0,48.0,79.7203125,50.41,25.235026125,32.7375
2021-06-24 17:20:26.164062500,-40.0,-15.0,48.0,79.721328125,50.045,25.23518628125,32.736875
2021-06-24 17:20:26.171875000,-40.0,-15.0,48.0,79.72234375000001,49.68,25.235346437500002,32.73625
2021-06-24 17:20:26.179687500,-40.0,-15.0,48.0,79.723359375,49.195,25.23550659375,32.735625
2021-06-24 17:20:26.187500000,-40.0,-15.0,48.0,79.72437500000001,48.71,25.23566675,32.735
2021-06-24 17:20:26.195312500,-39.75,-15.0,48.0,79.725390625,48.0,25.23582690625,32.734375
2021-06-24 17:20:26.203125000,-39.5,-15.0,48.0,79.72640625,47.29,25.2359870625,32.73375
2021-06-24 17:20:26.210937500,-39.25,-15.0,48.0,79.727421875,46.15,25.236147218750002,32.733124999999994
2021-06-24 17:20:26.218750000,-39.0,-15.0,48.0,79.7284375,45.01,25.236307375000003,32.732499999999995
2021-06-24 17:20:26.226562500,-39.5,-15.25,48.25,79.729453125,43.22,25.23646753125,32.731874999999995
2021-06-24 17:20:26.234375000,-40.0,-15.5,48.5,79.73046875,41.43,25.2366276875,32.731249999999996
2021-06-24 17:20:26.242187500,-40.5,-15.75,48.75,79.73148437500001,38.83,25.23678784375,32.730624999999996
2021-06-24 17:20:26.250000000,-41.0,-16.0,49.0,79.7325,36.23,25.236948,32.73
2021-06-24 17:20:26.257812500,-40.75,-16.0,49.0,79.733515625,32.795,25.23670778125,32.73
2021-06-24 17:20:26.265625000,-40.5,-16.0,49.0,79.73453125,29.36,25.236467562500003,32.73
2021-06-24 17:20:26.273437500,-40.25,-16.0,49.0,79.735546875,25.23,25.236227343750002,32.73
2021-06-24 17:20:26.281250000,-40.0,-16.0,49.0,79.7365625,21.1,25.235987125,32.73
2021-06-24 17:20:26.289062500,-40.0,-15.75,49.0,79.737578125,16.54,25.23574690625,32.73
2021-06-24 17:20:26.296875000,-40.0,-15.5,49.0,79.73859375,11.98,25.235506687500003,32.73
2021-06-24 17:20:26.304687500,-40.0,-15.25,49.0,79.739609375,7.315,25.23526646875,32.73
2021-06-24 17:20:26.312500000,-40.0,-15.0,49.0,79.740625,2.65,25.23502625,32.73
2021-06-24 17:20:26.320312500,-39.75,-15.0,48.75,79.741640625,-1.8299999999999996,25.234786031250003,32.73
2021-06-24 17:20:26.328125000,-39.5,-15.0,48.5,79.74265625,-6.31,25.234545812500002,32.73
2021-06-24 17:20:26.335937500,-39.25,-15.0,48.25,79.743671875,-10.415,25.23430559375,32.73
2021-06-24 17:20:26.343750000,-39.0,-15.0,48.0,79.7446875,-14.52,25.234065375,32.73
2021-06-24 17:20:26.351562500,-39.25,-15.0,48.0,79.745703125,-18.215,25.233825156250003,32.73
2021-06-24 17:20:26.359375000,-39.5,-15.0,48.0,79.74671875,-21.91,25.2335849375,32.73
2021-06-24 17:20:26.367187500,-39.75,-15.0,48.0,79.74773437500001,-25.295,25.23334471875,32.73
2021-06-24 17:20:26.375000000,-40.0,-15.0,48.0,79.74875,-28.68,25.233104500000003,32.73
2021-06-24 17:20:26.382812500,-40.0,-15.0,48.25,79.749765625,-32.0,25.232864281250002,32.73
2021-06-24 17:20:26.390625000,-40.0,-15.0,48.5,79.75078125,-35.32,25.2326240625,32.73
2021-06-24 17:20:26.398437500,-40.0,-15.0,48.75,79.751796875,-38.885000000000005,25.23238384375,32.73
2021-06-24 17:20:26.406250000,-40.0,-15.0,49.0,79.7528125,-42.45,25.232143625000003,32.73
2021-06-24 17:20:26.414062500,-40.0,-15.0,48.75,79.753828125,-46.63,25.23190340625,32.73
2021-06-24 17:20:26.421875000,-40.0,-15.0,48.5,79.75484375,-50.81,25.2316631875,32.73
2021-06-24 17:20:26.429687500,-40.0,-15.0,48.25,79.755859375,-55.894999999999996,25.23142296875,32.73
2021-06-24 17:20:26.437500000,-40.0,-15.0,48.0,79.75687500000001,-60.98,25.231182750000002,32.73
2021-06-24 17:20:26.445312500,-40.0,-15.0,48.25,79.757890625,-67.035,25.23094253125,32.73
2021-06-24 17:20:26.453125000,-40.0,-15.0,48.5,79.75890625,-73.09,25.2307023125,32.73
2021-06-24 17:20:26.460937500,-40.0,-15.0,48.75,79.759921875,-79.845,25.230462093750003,32.73
2021-06-24 17:20:26.468750000,-40.0,-15.0,49.0,79.7609375,-86.6,25.230221875,32.73
2021-06-24 17:20:26.476562500,-40.0,-15.0,49.0,79.761953125,-93.35,25.22998165625,32.73
2021-06-24 17:20:26.484375000,-40.0,-15.0,49.0,79.76296875,-100.1,25.2297414375,32.73
2021-06-24 17:20:26.492187500,-40.0,-15.0,49.0,79.763984375,-105.81,25.229501218750002,32.73
2021-06-24 17:20:26.500000000,-40.0,-15.0,49.0,79.765,-111.52,25.229261,32.73
2021-06-24 17:20:26.507812500,-40.0,-15.0,49.0,79.766015625,-115.05,25.22978146875,32.73
2021-06-24 17:20:26.515625000,-40.0,-15.0,49.0,79.76703125,-118.58,25.230301937500002,32.73
2021-06-24 17:20:26.523437500,-40.0,-15.0,49.0,79.768046875,-119.0,25.230822406250002,32.73
2021-06-24 17:20:26.531250000,-40.0,-15.0,49.0,79.7690625,-119.42,25.231342875000003,32.73
2021-06-24 17:20:26.539062500,-40.0,-15.0,48.75,79.770078125,-116.28,25.23186334375,32.73
2021-06-24 17:20:26.546875000,-40.0,-15.0,48.5,79.77109375,-113.14,25.2323838125,32.73
2021-06-24 17:20:26.554687500,-40.0,-15.0,48.25,79.772109375,-106.61500000000001,25.23290428125,32.73
2021-06-24 17:20:26.562500000,-40.0,-15.0,48.0,79.773125,-100.09,25.23342475,32.73
2021-06-24 17:20:26.570312500,-40.0,-15.0,48.0,79.774140625,-90.88,25.23394521875,32.73
2021-06-24 17:20:26.578125000,-40.0,-15.0,48.0,79.77515625,-81.67,25.234465687500002,32.73
2021-06-24 17:20:26.585937500,-40.0,-15.0,48.0,79.776171875,-70.78,25.234986156250002,32.73
2021-06-24 17:20:26.593750000,-40.0,-15.0,48.0,79.7771875,-59.89,25.235506625,32.73
2021-06-24 17:20:26.601562500,-40.0,-15.0,48.0,79.778203125,-48.385000000000005,25.23602709375,32.73
2021-06-24 17:20:26.609375000,-40.0,-15.0,48.0,79.77921875,-36.88,25.2365475625,32.73
2021-06-24 17:20:26.617187500,-40.0,-15.0,48.0,79.780234375,-25.645000000000003,25.23706803125,32.73
2021-06-24 17:20:26.625000000,-40.0,-15.0,48.0,79.78125,-14.41,25.2375885,32.73
2021-06-24 17:20:26.632812500,-39.75,-15.0,48.0,79.782265625,-4.085000000000001,25.23810896875,32.73
2021-06-24 17:20:26.640625000,-39.5,-15.0,48.0,79.78328125,6.24,25.238629437500002,32.73
2021-06-24 17:20:26.648437500,-39.25,-15.0,48.0,79.784296875,15.245,25.239149906250002,32.73
2021-06-24 17:20:26.656250000,-39.0,-15.0,48.0,79.7853125,24.25,25.239670375000003,32.73
2021-06-24 17:20:26.664062500,-39.25,-15.0,48.25,79.786328125,31.695,25.24019084375,32.73
2021-06-24 17:20:26.671875000,-39.5,-15.0,48.5,79.78734375,39.14,25.2407113125,32.73
2021-06-24 17:20:26.679687500,-39.75,-15.0,48.75,79.788359375,44.935,25.24123178125,32.73
2021-06-24 17:20:26.687500000,-40.0,-15.0,49.0,79.789375,50.73,25.24175225,32.73
2021-06-24 17:20:26.695312500,-40.0,-15.0,48.75,79.790390625,54.894999999999996,25.24227271875,32.73
2021-06-24 17:20:26.703125000,-40.0,-15.0,48.5,79.79140625,59.06,25.242793187500002,32.73
2021-06-24 17:20:26.710937500,-40.0,-15.0,48.25,79.792421875,61.71,25.243313656250002,32.73
2021-06-24 17:20:26.718750000,-40.0,-15.0,48.0,79.7934375,64.36,25.243834125,32.73
2021-06-24 17:20:26.726562500,-39.75,-15.0,48.0,79.794453125,65.71000000000001,25.24435459375,32.73
2021-06-24 17:20:26.734375000,-39.5,-15.0,48.0,79.79546875,67.06,25.2448750625,32.73
2021-06-24 17:20:26.742187500,-39.25,-15.0,48.0,79.796484375,67.375,25.24539553125,32.73
2021-06-24 17:20:26.750000000,-39.0,-15.0,48.0,79.7975,67.69,25.245916,32.73
2021-06-24 17:20:26.757812500,-39.25,-15.0,48.0,79.798515625,67.275,25.24751734375,32.73
2021-06-24 17:20:26.765625000,-39.5,-15.0,48.0,79.79953125,66.86,25.2491186875,32.73
2021-06-24 17:20:26.773437500,-39.75,-15.0,48.0,79.800546875,66.045,25.25072003125,32.73
2021-06-24 17:20:26.781250000,-40.0,-15.0,48.0,79.8015625,65.23,25.252321375,32.73
2021-06-24 17:20:26.789062500,-40.0,-15.25,48.0,79.802578125,64.355,25.25392271875,32.73
2021-06-24 17:20:26.796875000,-40.0,-15.5,48.0,79.80359375,63.48,25.2555240625,32.73
2021-06-24 17:20:26.804687500,-40.0,-15.75,48.0,79.804609375,62.825,25.25712540625,32.73
2021-06-24 17:20:26.812500000,-40.0,-16.0,48.0,79.80562499999999,62.17,25.25872675,32.73
2021-06-24 17:20:26.820312500,-40.0,-15.75,48.25,79.806640625,61.945,25.26032809375,32.73
2021-06-24 17:20:26.828125000,-40.0,-15.5,48.5,79.80765625,61.72,25.2619294375,32.73
2021-06-24 17:20:26.835937500,-40.0,-15.25,48.75,79.808671875,61.995000000000005,25.26353078125,32.73
2021-06-24 17:20:26.843750000,-40.0,-15.0,49.0,79.8096875,62.27,25.265132125,32.73
2021-06-24 17:20:26.851562500,-40.0,-15.0,49.0,79.810703125,62.935,25.26673346875,32.73
2021-06-24 17:20:26.859375000,-40.0,-15.0,49.0,79.81171875,63.6,25.2683348125,32.73
2021-06-24 17:20:26.867187500,-40.0,-15.0,49.0,79.812734375,64.435,25.26993615625,32.73
2021-06-24 17:20:26.875000000,-40.0,-15.0,49.0,79.81375,65.27,25.2715375,32.73
2021-06-24 17:20:26.882812500,-40.0,-15.0,48.75,79.81476562499999,65.97999999999999,25.27313884375,32.73
2021-06-24 17:20:26.890625000,-40.0,-15.0,48.5,79.81578125,66.69,25.2747401875,32.73
2021-06-24 17:20:26.898437500,-40.0,-15.0,48.25,79.816796875,66.99000000000001,25.27634153125,32.73
2021-06-24 17:20:26.906250000,-40.0,-15.0,48.0,79.8178125,67.29,25.277942875,32.73
2021-06-24 17:20:26.914062500,-40.0,-15.25,48.0,79.818828125,66.965,25.27954421875,32.73
2021-06-24 17:20:26.921875000,-40.0,-15.5,48.0,79.81984375,66.64,25.2811455625,32.73
2021-06-24 17:20:26.929687500,-40.0,-15.75,48.0,79.820859375,65.59,25.28274690625,32.73
2021-06-24 17:20:26.937500000,-40.0,-16.0,48.0,79.821875,64.54,25.28434825,32.73
2021-06-24 17:20:26.945312500,-40.0,-15.75,48.0,79.822890625,62.775000000000006,25.28594959375,32.73
2021-06-24 17:20:26.953125000,-40.0,-15.5,48.0,79.82390625,61.01,25.2875509375,32.73
2021-06-24 17:20:26.960937500,-40.0,-15.25,48.0,79.824921875,58.69,25.28915228125,32.73
2021-06-24 17:20:26.968750000,-40.0,-15.0,48.0,79.8259375,56.37,25.290753625,32.73
2021-06-24 17:20:26.976562500,-39.75,-15.0,48.0,79.826953125,53.7,25.29235496875,32.73
2021-06-24 17:20:26.984375000,-39.5,-15.0,48.0,79.82796875,51.03,25.2939563125,32.73
2021-06-24 17:20:26.992187500,-39.25,-15.0,48.0,79.828984375,48.21,25.29555765625,32.73
2021-06-24 17:20:27.000000000,-39.0,-15.0,48.0,79.83,45.39,25.297159,32.73
2021-06-24 17:20:27.007812500,-39.0,-15.0,48.25,79.831171875,42.55,25.30012159375,32.73
2021-06-24 17:20:27.015625000,-39.0,-15.0,48.5,79.83234374999999,39.71,25.3030841875,32.73
2021-06-24 17:20:27.023437500,-39.0,-15.0,48.75,79.833515625,36.815,25.30604678125,32.73
2021-06-24 17:20:27.031250000,-39.0,-15.0,49.0,79.8346875,33.92,25.309009375000002,32.73
2021-06-24 17:20:27.039062500,-39.25,-15.25,48.75,79.835859375,30.835,25.31197196875,32.73
2021-06-24 17:20:27.046875000,-39.5,-15.5,48.5,79.83703125,27.75,25.3149345625,32.73
2021-06-24 17:20:27.054687500,-39.75,-15.75,48.25,79.83820312499999,24.335,25.31789715625,32.73
2021-06-24 17:20:27.062500000,-40.0,-16.0,48.0,79.839375,20.92,25.32085975,32.73
2021-06-24 17:20:27.070312500,-40.0,-15.75,48.25,79.840546875,17.115000000000002,25.32382234375,32.73
2021-06-24 17:20:27.078125000,-40.0,-15.5,48.5,79.84171875,13.31,25.3267849375,32.73
2021-06-24 17:20:27.085937500,-40.0,-15.25,48.75,79.842890625,9.2,25.32974753125,32.73
2021-06-24 17:20:27.093750000,-40.0,-15.0,49.0,79.84406249999999,5.09,25.332710125,32.73
2021-06-24 17:20:27.101562500,-39.75,-15.0,48.75,79.845234375,0.8799999999999999,25.33567271875,32.73
2021-06-24 17:20:27.109375000,-39.5,-15.0,48.5,79.84640625,-3.33,25.3386353125,32.73
2021-06-24 17:20:27.117187500,-39.25,-15.0,48.25,79.847578125,-7.445,25.34159790625,32.73
2021-06-24 17:20:27.125000000,-39.0,-15.0,48.0,79.84875,-11.56,25.3445605,32.73
2021-06-24 17:20:27.132812500,-39.25,-15.0,48.0,79.84992187499999,-15.445,25.34752309375,32.73
2021-06-24 17:20:27.140625000,-39.5,-15.0,48.0,79.85109375,-19.33,25.3504856875,32.73
2021-06-24 17:20:27.148437500,-39.75,-15.0,48.0,79.852265625,-22.975,25.35344828125,32.73
2021-06-24 17:20:27.156250000,-40.0,-15.0,48.0,79.8534375,-26.62,25.356410875,32.73
2021-06-24 17:20:27.164062500,-40.0,-15.0,48.0,79.854609375,-30.160000000000004,25.35937346875,32.73
2021-06-24 17:20:27.171875000,-40.0,-15.0,48.0,79.85578124999999,-33.7,25.3623360625,32.73
2021-06-24 17:20:27.179687500,-40.0,-15.0,48.0,79.856953125,-37.32,25.36529865625,32.73
2021-06-24 17:20:27.187500000,-40.0,-15.0,48.0,79.858125,-40.94,25.36826125,32.73
2021-06-24 17:20:27.195312500,-39.75,-15.25,48.0,79.859296875,-44.864999999999995,25.37122384375,32.73
2021-06-24 17:20:27.203125000,-39.5,-15.5,48.0,79.86046875,-48.79,25.3741864375,32.73
2021-06-24 17:20:27.210937500,-39.25,-15.75,48.0,79.86164062499999,-53.235,25.37714903125,32.73
2021-06-24 17:20:27.218750000,-39.0,-16.0,48.0,79.8628125,-57.68,25.380111624999998,32.73
2021-06-24 17:20:27.226562500,-39.25,-16.0,48.0,79.863984375,-62.760000000000005,25.38307421875,32.73
2021-06-24 17:20:27.234375000,-39.5,-16.0,48.0,79.86515625,-67.84,25.3860368125,32.73
2021-06-24 17:20:27.242187500,-39.75,-16.0,48.0,79.866328125,-73.485,25.38899940625,32.73
2021-06-24 17:20:27.250000000,-40.0,-16.0,48.0,79.8675,-79.13,25.391962,32.73
2021-06-24 17:20:27.257812500,-39.75,-16.0,48.0,79.868671875,-84.96000000000001,25.394043749999998,32.73
2021-06-24 17:20:27.265625000,-39.5,-16.0,48.0,79.86984375,-90.79,25.3961255,32.73
2021-06-24 17:20:27.273437500,-39.25,-16.0,48.0,79.871015625,-96.08500000000001,25.39820725,32.73
2021-06-24 17:20:27.281250000,-39.0,-16.0,48.0,79.8721875,-101.38,25.400289,32.73
2021-06-24 17:20:27.289062500,-39.25,-16.0,48.0,79.873359375,-105.15,25.40237075,32.73
2021-06-24 17:20:27.296875000,-39.5,-16.0,48.0,79.87453125,-108.92,25.404452499999998,32.73
2021-06-24 17:20:27.304687500,-39.75,-16.0,48.0,79.875703125,-110.185,25.40653425,32.73
2021-06-24 17:20:27.312500000,-40.0,-16.0,48.0,79.876875,-111.45,25.408616,32.73
2021-06-24 17:20:27.320312500,-40.0,-16.0,48.0,79.878046875,-109.535,25.41069775,32.73
2021-06-24 17:20:27.328125000,-40.0,-16.0,48.0,79.87921875,-107.62,25.4127795,32.73
2021-06-24 17:20:27.335937500,-40.0,-16.0,48.0,79.880390625,-102.4,25.414861249999998,32.73
2021-06-24 17:20:27.343750000,-40.0,-16.0,48.0,79.8815625,-97.18,25.416943,32.73
2021-06-24 17:20:27.351562500,-39.75,-15.75,48.0,79.882734375,-89.095,25.41902475,32.73
2021-06-24 17:20:27.359375000,-39.5,-15.5,48.0,79.88390625,-81.01,25.4211065,32.73
2021-06-24 17:20:27.367187500,-39.25,-15.25,48.0,79.885078125,-70.98,25.42318825,32.73
2021-06-24 17:20:27.375000000,-39.0,-15.0,48.0,79.88625,-60.95,25.425269999999998,32.73
2021-06-24 17:20:27.382812500,-39.0,-15.25,48.0,79.887421875,-50.055,25.42735175,32.73
2021-06-24 17:20:27.390625000,-39.0,-15.5,48.0,79.88859375,-39.16,25.4294335,32.73
2021-06-24 17:20:27.398437500,-39.0,-15.75,48.0,79.889765625,-28.409999999999997,25.43151525,32.73
2021-06-24 17:20:27.406250000,-39.0,-16.0,48.0,79.8909375,-17.66,25.433597,32.73
2021-06-24 17:20:27.414062500,-39.0,-16.0,48.0,79.892109375,-7.82,25.43567875,32.73
2021-06-24 17:20:27.421875000,-39.0,-16.0,48.0,79.89328125,2.02,25.4377605,32.73
2021-06-24 17:20:27.429687500,-39.0,-16.0,48.0,79.894453125,10.459999999999999,25.439842249999998,32.73
2021-06-24 17:20:27.437500000,-39.0,-16.0,48.0,79.895625,18.9,25.441924,32.73
2021-06-24 17:20:27.445312500,-39.25,-15.75,48.0,79.896796875,25.68,25.44400575,32.73
2021-06-24 17:20:27.453125000,-39.5,-15.5,48.0,79.89796875,32.46,25.4460875,32.73
2021-06-24 17:20:27.460937500,-39.75,-15.25,48.0,79.899140625,37.455,25.44816925,32.73
2021-06-24 17:20:27.468750000,-40.0,-15.0,48.0,79.9003125,42.45,25.450250999999998,32.73
2021-06-24 17:20:27.476562500,-40.0,-15.25,48.0,79.901484375,45.66,25.45233275,32.73
2021-06-24 17:20:27.484375000,-40.0,-15.5,48.0,79.90265625,48.87,25.4544145,32.73
2021-06-24 17:20:27.492187500,-40.0,-15.75,48.0,79.903828125,50.379999999999995,25.45649625,32.73
2021-06-24 17:20:27.500000000,-40.0,-16.0,48.0,79.905,51.89,25.458578,32.73
2021-06-24 17:20:27.507812500,-40.0,-15.75,48.25,79.906171875,51.955,25.46017940625,32.73
2021-06-24 17:20:27.515625000,-40.0,-15.5,48.5,79.90734375,52.02,25.4617808125,32.73
2021-06-24 17:20:27.523437500,-40.0,-15.25,48.75,79.908515625,51.05500000000001,25.46338221875,32.73
2021-06-24 17:20:27.531250000,-40.0,-15.0,49.0,79.9096875,50.09,25.464983625,32.73
2021-06-24 17:20:27.539062500,-40.0,-15.0,48.75,79.910859375,48.620000000000005,25.46658503125,32.73
2021-06-24 17:20:27.546875000,-40.0,-15.0,48.5,79.91203125,47.15,25.468186437499998,32.73
2021-06-24 17:20:27.554687500,-40.0,-15.0,48.25,79.913203125,45.69,25.469787843749998,32.73
2021-06-24 17:20:27.562500000,-40.0,-15.0,48.0,79.914375,44.23,25.47138925,32.73
2021-06-24 17:20:27.570312500,-40.0,-15.0,48.0,79.915546875,43.165,25.47299065625,32.73
2021-06-24 17:20:27.578125000,-40.0,-15.0,48.0,79.91671875,42.1,25.4745920625,32.73
2021-06-24 17:20:27.585937500,-40.0,-15.0,48.0,79.917890625,41.585,25.47619346875,32.73
2021-06-24 17:20:27.593750000,-40.0,-15.0,48.0,79.9190625,41.07,25.477794875,32.73
2021-06-24 17:20:27.601562500,-39.75,-15.0,48.0,79.920234375,41.019999999999996,25.47939628125,32.73
2021-06-24 17:20:27.609375000,-39.5,-15.0,48.0,79.92140625,40.97,25.4809976875,32.73
2021-06-24 17:20:27.617187500,-39.25,-15.0,48.0,79.922578125,41.15,25.48259909375,32.73
2021-06-24 17:20:27.625000000,-39.0,-15.0,48.0,79.92375,41.33,25.4842005,32.73
2021-06-24 17:20:27.632812500,-39.25,-15.0,48.0,79.924921875,41.51,25.48580190625,32.73
2021-06-24 17:20:27.640625000,-39.5,-15.0,48.0,79.92609375,41.69,25.4874033125,32.73
