TimeStamp,empatica.acc.x,empatica.acc.y,empatica.acc.z,empatica.hr,empatica.bvp,empatica.eda,empatica.temp
2021-06-24 17:28:55.445312500,-38.0,-16.0,49.75,78.32203125000001,83.595,26.0017588125,33.43
2021-06-24 17:28:55.453125000,-38.0,-16.0,49.5,78.3203125,84.32,26.004481124999998,33.43
2021-06-24 17:28:55.460937500,-38.0,-16.0,49.25,78.31859375,84.91999999999999,26.0072034375,33.43
2021-06-24 17:28:55.468750000,-38.0,-16.0,49.0,78.316875,85.52,26.00992575,33.43
2021-06-24 17:28:55.476562500,-38.25,-16.0,49.0,78.31515625,86.05,26.0126480625,33.43
2021-06-24 17:28:55.484375000,-38.5,-16.0,49.0,78.3134375,86.58,26.015370375,33.43
2021-06-24 17:28:55.492187500,-38.75,-16.0,49.0,78.31171875,87.07,26.018092687499998,33.43
2021-06-24 17:28:55.500000000,-39.0,-16.0,49.0,78.31,87.56,26.020815,33.43
2021-06-24 17:28:55.507812500,-38.75,-16.0,49.0,78.30828125000001,87.905,26.028821875,33.43
2021-06-24 17:28:55.515625000,-38.5,-16.0,49.0,78.3065625,88.25,26.036828749999998,33.43
2021-06-24 17:28:55.523437500,-38.25,-16.0,49.0,78.30484375,88.245,26.044835624999997,33.43
2021-06-24 17:28:55.531250000,-38.0,-16.0,49.0,78.30312500000001,88.24,26.0528425,33.43
2021-06-24 17:28:55.539062500,-38.0,-16.0,49.0,78.30140625,87.66999999999999,26.060849375,33.43
2021-06-24 17:28:55.546875000,-38.0,-16.0,49.0,78.2996875,87.1,26.06885625,33.43
2021-06-24 17:28:55.554687500,-38.0,-16.0,49.0,78.29796875,85.83,26.076863125,33.43
2021-06-24 17:28:55.562500000,-38.0,-16.0,49.0,78.29625,84.56,26.08487,33.43
2021-06-24 17:28:55.570312500,-38.0,-16.0,49.0,78.29453125,82.62,26.092876874999998,33.43
2021-06-24 17:28:55.578125000,-38.0,-16.0,49.0,78.2928125,80.68,26.10088375,33.43
2021-06-24 17:28:55.585937500,-38.0,-16.0,49.0,78.29109375,78.26,26.108890625,33.43
2021-06-24 17:28:55.593750000,-38.0,-16.0,49.0,78.289375,75.84,26.1168975,33.43
2021-06-24 17:28:55.601562500,-38.0,-16.0,49.0,78.28765625,73.195,26.124904375,33.43
2021-06-24 17:28:55.609375000,-38.0,-16.0,49.0,78.2859375,70.55,26.13291125,33.43
2021-06-24 17:28:55.617187500,-38.0,-16.0,49.0,78.28421875000001,67.925,26.140918125,33.43
2021-06-24 17:28:55.625000000,-38.0,-16.0,49.0,78.2825,65.3,26.148925,33.43
2021-06-24 17:28:55.632812500,-38.0,-16.0,49.0,78.28078125,62.815,26.156931875,33.43
2021-06-24 17:28:55.640625000,-38.0,-16.0,49.0,78.27906250000001,60.33,26.16493875,33.43
2021-06-24 17:28:55.648437500,-38.0,-16.0,49.0,78.27734375,58.025,26.172945625,33.43
2021-06-24 17:28:55.656250000,-38.0,-16.0,49.0,78.275625,55.72,26.1809525,33.43
2021-06-24 17:28:55.664062500,-38.0,-16.0,49.0,78.27390625,53.51,26.188959375,33.43
2021-06-24 17:28:55.671875000,-38.0,-16.0,49.0,78.2721875,51.3,26.19696625,33.43
2021-06-24 17:28:55.679687500,-38.0,-16.0,49.0,78.27046875,49.05,26.204973125000002,33.43
2021-06-24 17:28:55.687500000,-38.0,-16.0,49.0,78.26875,46.8,26.21298,33.43
2021-06-24 17:28:55.695312500,-38.0,-16.0,49.0,78.26703125,44.36,26.220986875,33.43
2021-06-24 17:28:55.703125000,-38.0,-16.0,49.0,78.26531250000001,41.92,26.22899375,33.43
2021-06-24 17:28:55.710937500,-38.0,-16.0,49.0,78.26359375,39.16,26.237000625,33.43
2021-06-24 17:28:55.718750000,-38.0,-16.0,49.0,78.261875,36.4,26.2450075,33.43
2021-06-24 17:28:55.726562500,-38.0,-16.0,49.0,78.26015625000001,33.295,26.253014375000003,33.43
2021-06-24 17:28:55.734375000,-38.0,-16.0,49.0,78.2584375,30.19,26.261021250000002,33.43
2021-06-24 17:28:55.742187500,-38.0,-16.0,49.0,78.25671875,26.815,26.269028125000002,33.43
2021-06-24 17:28:55.750000000,-38.0,-16.0,49.0,78.255,23.44,26.277035,33.43
2021-06-24 17:28:55.757812500,-38.0,-16.0,49.0,78.25328125,19.965,26.28432125,33.43
2021-06-24 17:28:55.765625000,-38.0,-16.0,49.0,78.2515625,16.49,26.2916075,33.43
2021-06-24 17:28:55.773437500,-38.0,-16.0,49.0,78.24984375,13.134999999999998,26.29889375,33.43
2021-06-24 17:28:55.781250000,-38.0,-16.0,49.0,78.248125,9.78,26.30618,33.43
2021-06-24 17:28:55.789062500,-38.0,-16.0,49.0,78.24640625,6.715,26.31346625,33.43
2021-06-24 17:28:55.796875000,-38.0,-16.0,49.0,78.2446875,3.65,26.3207525,33.43
2021-06-24 17:28:55.804687500,-38.0,-16.0,49.0,78.24296875,0.9300000000000002,26.32803875,33.43
2021-06-24 17:28:55.812500000,-38.0,-16.0,49.0,78.24125000000001,-1.79,26.335325,33.43
2021-06-24 17:28:55.820312500,-38.0,-16.0,49.0,78.23953125,-4.255,26.34261125,33.43
2021-06-24 17:28:55.828125000,-38.0,-16.0,49.0,78.2378125,-6.72,26.3498975,33.43
2021-06-24 17:28:55.835937500,-38.0,-16.0,49.0,78.23609375000001,-9.125,26.35718375,33.43
2021-06-24 17:28:55.843750000,-38.0,-16.0,49.0,78.234375,-11.53,26.36447,33.43
2021-06-24 17:28:55.851562500,-38.0,-16.0,49.0,78.23265625,-14.120000000000001,26.37175625,33.43
2021-06-24 17:28:55.859375000,-38.0,-16.0,49.0,78.2309375,-16.71,26.3790425,33.43
2021-06-24 17:28:55.867187500,-38.0,-16.0,49.0,78.22921875,-19.655,26.38632875,33.43
2021-06-24 17:28:55.875000000,-38.0,-16.0,49.0,78.2275,-22.6,26.393615,33.43
2021-06-24 17:28:55.882812500,-38.0,-16.0,49.25,78.22578125,-25.965,26.40090125,33.43
2021-06-24 17:28:55.890625000,-38.0,-16.0,49.5,78.2240625,-29.33,26.4081875,33.43
2021-06-24 17:28:55.898437500,-38.0,-16.0,49.75,78.22234375000001,-33.015,26.41547375,33.43
2021-06-24 17:28:55.906250000,-38.0,-16.0,50.0,78.220625,-36.7,26.42276,33.43
2021-06-24 17:28:55.914062500,-38.0,-16.0,49.75,78.21890625,-40.510000000000005,26.43004625,33.43
2021-06-24 17:28:55.921875000,-38.0,-16.0,49.5,78.21718750000001,-44.32,26.4373325,33.43
2021-06-24 17:28:55.929687500,-38.0,-16.0,49.25,78.21546875,-48.019999999999996,26.44461875,33.43
2021-06-24 17:28:55.937500000,-38.0,-16.0,49.0,78.21375,-51.72,26.451905,33.43
2021-06-24 17:28:55.945312500,-38.0,-16.0,49.0,78.21203125000001,-55.144999999999996,26.45919125,33.43
2021-06-24 17:28:55.953125000,-38.0,-16.0,49.0,78.2103125,-58.57,26.4664775,33.43
2021-06-24 17:28:55.960937500,-38.0,-16.0,49.0,78.20859375,-61.68000000000001,26.47376375,33.43
2021-06-24 17:28:55.968750000,-38.0,-16.0,49.0,78.206875,-64.79,26.48105,33.43
2021-06-24 17:28:55.976562500,-38.0,-16.0,49.0,78.20515625,-67.725,26.48833625,33.43
2021-06-24 17:28:55.984375000,-38.0,-16.0,49.0,78.2034375,-70.66,26.4956225,33.43
2021-06-24 17:28:55.992187500,-38.0,-16.0,49.0,78.20171875,-73.705,26.50290875,33.43
2021-06-24 17:28:56.000000000,-38.0,-16.0,49.0,78.2,-76.75,26.510195,33.43
2021-06-24 17:28:56.007812500,-38.0,-16.0,49.25,78.198046875,-80.245,26.512637124999998,33.43
2021-06-24 17:28:56.015625000,-38.0,-16.0,49.5,78.19609375,-83.74,26.51507925,33.43
2021-06-24 17:28:56.023437500,-38.0,-16.0,49.75,78.194140625,-88.015,26.517521375,33.43
2021-06-24 17:28:56.031250000,-38.0,-16.0,50.0,78.1921875,-92.29,26.5199635,33.43
2021-06-24 17:28:56.039062500,-38.0,-16.0,49.75,78.190234375,-97.46000000000001,26.522405624999998,33.43
2021-06-24 17:28:56.046875000,-38.0,-16.0,49.5,78.18828125,-102.63,26.52484775,33.43
2021-06-24 17:28:56.054687500,-38.0,-16.0,49.25,78.186328125,-108.5,26.527289875,33.43
2021-06-24 17:28:56.062500000,-38.0,-16.0,49.0,78.184375,-114.37,26.529732,33.43
2021-06-24 17:28:56.070312500,-38.0,-16.0,49.0,78.182421875,-120.345,26.532174124999997,33.43
2021-06-24 17:28:56.078125000,-38.0,-16.0,49.0,78.18046875,-126.32,26.53461625,33.43
2021-06-24 17:28:56.085937500,-38.0,-16.0,49.0,78.178515625,-131.44,26.537058375,33.43
2021-06-24 17:28:56.093750000,-38.0,-16.0,49.0,78.1765625,-136.56,26.5395005,33.43
2021-06-24 17:28:56.101562500,-38.0,-16.0,49.0,78.174609375,-139.73000000000002,26.541942624999997,33.43
2021-06-24 17:28:56.109375000,-38.0,-16.0,49.0,78.17265625,-142.9,26.54438475,33.43
2021-06-24 17:28:56.117187500,-38.0,-16.0,49.0,78.170703125,-143.15,26.546826875,33.43
2021-06-24 17:28:56.125000000,-38.0,-16.0,49.0,78.16875,-143.4,26.549269,33.43
2021-06-24 17:28:56.132812500,-38.0,-16.0,49.25,78.166796875,-140.235,26.551711124999997,33.43
2021-06-24 17:28:56.140625000,-38.0,-16.0,49.5,78.16484375,-137.07,26.55415325,33.43
2021-06-24 17:28:56.148437500,-38.0,-16.0,49.75,78.162890625,-130.6,26.556595375,33.43
2021-06-24 17:28:56.156250000,-38.0,-16.0,50.0,78.1609375,-124.13,26.5590375,33.43
2021-06-24 17:28:56.164062500,-38.0,-16.0,49.75,78.158984375,-115.05,26.561479624999997,33.43
2021-06-24 17:28:56.171875000,-38.0,-16.0,49.5,78.15703125,-105.97,26.56392175,33.43
2021-06-24 17:28:56.179687500,-38.0,-16.0,49.25,78.155078125,-95.33500000000001,26.566363875,33.43
2021-06-24 17:28:56.187500000,-38.0,-16.0,49.0,78.153125,-84.7,26.568806,33.43
2021-06-24 17:28:56.195312500,-38.0,-16.0,49.0,78.151171875,-73.59,26.571248124999997,33.43
2021-06-24 17:28:56.203125000,-38.0,-16.0,49.0,78.14921875,-62.48,26.57369025,33.43
2021-06-24 17:28:56.210937500,-38.0,-16.0,49.0,78.147265625,-51.775,26.576132375,33.43
2021-06-24 17:28:56.218750000,-38.0,-16.0,49.0,78.1453125,-41.07,26.5785745,33.43
2021-06-24 17:28:56.226562500,-38.0,-16.0,49.0,78.143359375,-31.310000000000002,26.581016624999997,33.43
2021-06-24 17:28:56.234375000,-38.0,-16.0,49.0,78.14140625,-21.55,26.58345875,33.43
2021-06-24 17:28:56.242187500,-38.0,-16.0,49.0,78.139453125,-13.01,26.585900875,33.43
2021-06-24 17:28:56.250000000,-38.0,-16.0,49.0,78.1375,-4.47,26.588343,33.43
2021-06-24 17:28:56.257812500,-38.0,-16.0,49.25,78.135546875,2.745,26.598017531249997,33.43
2021-06-24 17:28:56.265625000,-38.0,-16.0,49.5,78.13359375,9.96,26.6076920625,33.43
2021-06-24 17:28:56.273437500,-38.0,-16.0,49.75,78.131640625,15.775,26.61736659375,33.43
2021-06-24 17:28:56.281250000,-38.0,-16.0,50.0,78.1296875,21.59,26.627041124999998,33.43
2021-06-24 17:28:56.289062500,-38.0,-16.0,49.75,78.127734375,25.98,26.636715656249997,33.43
2021-06-24 17:28:56.296875000,-38.0,-16.0,49.5,78.12578125,30.37,26.6463901875,33.43
2021-06-24 17:28:56.304687500,-38.0,-16.0,49.25,78.123828125,33.375,26.65606471875,33.43
2021-06-24 17:28:56.312500000,-38.0,-16.0,49.0,78.121875,36.38,26.665739249999998,33.43
2021-06-24 17:28:56.320312500,-38.0,-16.0,49.0,78.119921875,38.175,26.67541378125,33.43
2021-06-24 17:28:56.328125000,-38.0,-16.0,49.0,78.11796875,39.97,26.6850883125,33.43
2021-06-24 17:28:56.335937500,-38.0,-16.0,49.0,78.116015625,40.870000000000005,26.69476284375,33.43
2021-06-24 17:28:56.343750000,-38.0,-16.0,49.0,78.1140625,41.77,26.704437374999998,33.43
2021-06-24 17:28:56.351562500,-38.0,-16.0,49.0,78.112109375,42.18000000000001,26.71411190625,33.43
2021-06-24 17:28:56.359375000,-38.0,-16.0,49.0,78.11015625,42.59,26.7237864375,33.43
2021-06-24 17:28:56.367187500,-38.0,-16.0,49.0,78.108203125,42.875,26.73346096875,33.43
2021-06-24 17:28:56.375000000,-38.0,-16.0,49.0,78.10625,43.16,26.7431355,33.43
2021-06-24 17:28:56.382812500,-38.0,-16.0,49.0,78.104296875,43.555,26.75281003125,33.43
2021-06-24 17:28:56.390625000,-38.0,-16.0,49.0,78.10234375,43.95,26.7624845625,33.43
2021-06-24 17:28:56.398437500,-38.0,-16.0,49.0,78.100390625,44.53,26.77215909375,33.43
2021-06-24 17:28:56.406250000,-38.0,-16.0,49.0,78.0984375,45.11,26.781833625,33.43
2021-06-24 17:28:56.414062500,-38.0,-16.0,49.0,78.096484375,45.825,26.79150815625,33.43
2021-06-24 17:28:56.421875000,-38.0,-16.0,49.0,78.09453125,46.54,26.8011826875,33.43
2021-06-24 17:28:56.429687500,-38.0,-16.0,49.0,78.092578125,47.31,26.810857218749998,33.43
2021-06-24 17:28:56.437500000,-38.0,-16.0,49.0,78.090625,48.08,26.82053175,33.43
2021-06-24 17:28:56.445312500,-38.0,-16.0,49.0,78.088671875,48.84,26.83020628125,33.43
2021-06-24 17:28:56.453125000,-38.0,-16.0,49.0,78.08671875,49.6,26.8398808125,33.43
2021-06-24 17:28:56.460937500,-38.0,-16.0,49.0,78.084765625,50.31,26.84955534375,33.43
2021-06-24 17:28:56.468750000,-38.0,-16.0,49.0,78.0828125,51.02,26.859229875,33.43
2021-06-24 17:28:56.476562500,-38.0,-16.0,49.0,78.080859375,51.650000000000006,26.86890440625,33.43
2021-06-24 17:28:56.484375000,-38.0,-16.0,49.0,78.07890625,52.28,26.8785789375,33.43
2021-06-24 17:28:56.492187500,-38.0,-16.0,49.0,78.076953125,52.745000000000005,26.88825346875,33.43
2021-06-24 17:28:56.500000000,-38.0,-16.0,49.0,78.075,53.21,26.897928,33.43
2021-06-24 17:28:56.507812500,-38.0,-16.0,49.0,78.073046875,53.375,26.897087281250002,33.43
2021-06-24 17:28:56.515625000,-38.0,-16.0,49.0,78.07109375,53.54,26.8962465625,33.43
2021-06-24 17:28:56.523437500,-38.0,-16.0,49.0,78.069140625,53.26,26.89540584375,33.43
2021-06-24 17:28:56.531250000,-38.0,-16.0,49.0,78.0671875,52.98,26.894565125,33.43
2021-06-24 17:28:56.539062500,-38.0,-16.0,49.0,78.065234375,52.144999999999996,26.89372440625,33.43
2021-06-24 17:28:56.546875000,-38.0,-16.0,49.0,78.06328125,51.31,26.8928836875,33.43
2021-06-24 17:28:56.554687500,-38.0,-16.0,49.0,78.061328125,49.92,26.89204296875,33.43
2021-06-24 17:28:56.562500000,-38.0,-16.0,49.0,78.059375,48.53,26.89120225,33.43
2021-06-24 17:28:56.570312500,-38.0,-16.0,49.0,78.057421875,46.635000000000005,26.89036153125,33.43
2021-06-24 17:28:56.578125000,-38.0,-16.0,49.0,78.05546875,44.74,26.8895208125,33.43
2021-06-24 17:28:56.585937500,-38.0,-16.0,49.0,78.053515625,42.455,26.88868009375,33.43
2021-06-24 17:28:56.593750000,-38.0,-16.0,49.0,78.0515625,40.17,26.887839375,33.43
2021-06-24 17:28:56.601562500,-38.0,-16.0,49.0,78.049609375,37.58,26.88699865625,33.43
2021-06-24 17:28:56.609375000,-38.0,-16.0,49.0,78.04765625,34.99,26.8861579375,33.43
2021-06-24 17:28:56.617187500,-38.0,-16.0,49.0,78.045703125,32.195,26.88531721875,33.43
2021-06-24 17:28:56.625000000,-38.0,-16.0,49.0,78.04375,29.4,26.884476499999998,33.43
2021-06-24 17:28:56.632812500,-38.0,-16.0,49.0,78.041796875,26.439999999999998,26.88363578125,33.43
2021-06-24 17:28:56.640625000,-38.0,-16.0,49.0,78.03984375,23.48,26.8827950625,33.43
2021-06-24 17:28:56.648437500,-38.0,-16.0,49.0,78.037890625,20.395,26.88195434375,33.43
2021-06-24 17:28:56.656250000,-38.0,-16.0,49.0,78.0359375,17.31,26.881113625,33.43
2021-06-24 17:28:56.664062500,-38.0,-16.0,49.0,78.033984375,14.125,26.88027290625,33.43
2021-06-24 17:28:56.671875000,-38.0,-16.0,49.0,78.03203125,10.94,26.8794321875,33.43
2021-06-24 17:28:56.679687500,-38.0,-16.0,49.0,78.030078125,7.67,26.87859146875,33.43
2021-06-24 17:28:56.687500000,-38.0,-16.0,49.0,78.028125,4.4,26.87775075,33.43
2021-06-24 17:28:56.695312500,-38.0,-16.0,49.0,78.026171875,1.0350000000000001,26.87691003125,33.43
2021-06-24 17:28:56.703125000,-38.0,-16.0,49.0,78.02421875,-2.33,26.8760693125,33.43
2021-06-24 17:28:56.710937500,-38.0,-16.0,49.0,78.022265625,-5.785,26.87522859375,33.43
2021-06-24 17:28:56.718750000,-38.0,-16.0,49.0,78.0203125,-9.24,26.874387875,33.43
2021-06-24 17:28:56.726562500,-38.0,-16.0,49.0,78.018359375,-12.745000000000001,26.873547156249998,33.43
2021-06-24 17:28:56.734375000,-38.0,-16.0,49.0,78.01640625,-16.25,26.8727064375,33.43
2021-06-24 17:28:56.742187500,-38.0,-16.0,49.0,78.014453125,-19.75,26.871865718749998,33.43
2021-06-24 17:28:56.750000000,-38.0,-16.0,49.0,78.0125,-23.25,26.871025,33.43
2021-06-24 17:28:56.757812500,-38.0,-16.0,49.0,78.010546875,-26.665,26.867982375,33.43
2021-06-24 17:28:56.765625000,-38.0,-16.0,49.0,78.00859375,-30.08,26.864939749999998,33.43
2021-06-24 17:28:56.773437500,-38.0,-16.0,49.0,78.006640625,-33.41,26.861897125,33.43
2021-06-24 17:28:56.781250000,-38.0,-16.0,49.0,78.0046875,-36.74,26.8588545,33.43
2021-06-24 17:28:56.789062500,-38.0,-16.0,49.0,78.002734375,-40.085,26.855811875,33.43
2021-06-24 17:28:56.796875000,-38.0,-16.0,49.0,78.00078125,-43.43,26.85276925,33.43
2021-06-24 17:28:56.804687500,-38.0,-16.0,49.0,77.998828125,-47.025,26.849726625,33.43
2021-06-24 17:28:56.812500000,-38.0,-16.0,49.0,77.996875,-50.62,26.846684,33.43
2021-06-24 17:28:56.820312500,-38.25,-16.0,49.0,77.994921875,-54.75,26.843641375,33.43
2021-06-24 17:28:56.828125000,-38.5,-16.0,49.0,77.99296875,-58.88,26.840598749999998,33.43
2021-06-24 17:28:56.835937500,-38.75,-16.0,49.0,77.991015625,-63.71000000000001,26.837556125,33.43
2021-06-24 17:28:56.843750000,-39.0,-16.0,49.0,77.9890625,-68.54,26.8345135,33.43
2021-06-24 17:28:56.851562500,-38.75,-16.0,49.0,77.987109375,-73.98,26.831470875,33.43
2021-06-24 17:28:56.859375000,-38.5,-16.0,49.0,77.98515625,-79.42,26.82842825,33.43
2021-06-24 17:28:56.867187500,-38.25,-16.0,49.0,77.983203125,-85.00999999999999,26.825385625,33.43
2021-06-24 17:28:56.875000000,-38.0,-16.0,49.0,77.98125,-90.6,26.822343,33.43
2021-06-24 17:28:56.882812500,-38.0,-16.0,49.0,77.979296875,-95.54499999999999,26.819300375,33.43
2021-06-24 17:28:56.890625000,-38.0,-16.0,49.0,77.97734375,-100.49,26.81625775,33.43
2021-06-24 17:28:56.898437500,-38.0,-16.0,49.0,77.975390625,-103.86,26.813215125,33.43
2021-06-24 17:28:56.906250000,-38.0,-16.0,49.0,77.9734375,-107.23,26.8101725,33.43
2021-06-24 17:28:56.914062500,-38.0,-16.0,49.0,77.971484375,-108.20500000000001,26.807129875,33.43
2021-06-24 17:28:56.921875000,-38.0,-16.0,49.0,77.96953125,-109.18,26.804087250000002,33.43
2021-06-24 17:28:56.929687500,-38.0,-16.0,49.0,77.967578125,-107.31,26.801044625,33.43
2021-06-24 17:28:56.937500000,-38.0,-16.0,49.0,77.965625,-105.44,26.798002,33.43
2021-06-24 17:28:56.945312500,-38.0,-16.0,49.0,77.963671875,-100.745,26.794959375,33.43
2021-06-24 17:28:56.953125000,-38.0,-16.0,49.0,77.96171875,-96.05,26.79191675,33.43
2021-06-24 17:28:56.960937500,-38.0,-16.0,49.0,77.959765625,-88.995,26.788874125,33.43
2021-06-24 17:28:56.968750000,-38.0,-16.0,49.0,77.9578125,-81.94,26.7858315,33.43
2021-06-24 17:28:56.976562500,-38.0,-16.0,49.0,77.955859375,-73.3,26.782788875,33.43
2021-06-24 17:28:56.984375000,-38.0,-16.0,49.0,77.95390625,-64.66,26.779746250000002,33.43
2021-06-24 17:28:56.992187500,-38.0,-16.0,49.0,77.951953125,-55.275,26.776703625,33.43
2021-06-24 17:28:57.000000000,-38.0,-16.0,49.0,77.95,-45.89,26.773661,33.43
2021-06-24 17:28:57.007812500,-38.0,-15.75,49.25,77.948203125,-36.519999999999996,26.77001784375,33.43
2021-06-24 17:28:57.015625000,-38.0,-15.5,49.5,77.94640625000001,-27.15,26.7663746875,33.43
2021-06-24 17:28:57.023437500,-38.0,-15.25,49.75,77.944609375,-18.35,26.76273153125,33.43
2021-06-24 17:28:57.031250000,-38.0,-15.0,50.0,77.9428125,-9.55,26.759088375,33.43
2021-06-24 17:28:57.039062500,-38.0,-15.25,49.75,77.941015625,-1.6500000000000004,26.75544521875,33.43
2021-06-24 17:28:57.046875000,-38.0,-15.5,49.5,77.93921875000001,6.25,26.7518020625,33.43
2021-06-24 17:28:57.054687500,-38.0,-15.75,49.25,77.937421875,13.06,26.74815890625,33.43
2021-06-24 17:28:57.062500000,-38.0,-16.0,49.0,77.935625,19.87,26.74451575,33.43
2021-06-24 17:28:57.070312500,-38.0,-16.0,49.0,77.933828125,25.515,26.74087259375,33.43
2021-06-24 17:28:57.078125000,-38.0,-16.0,49.0,77.93203125000001,31.16,26.7372294375,33.43
2021-06-24 17:28:57.085937500,-38.0,-16.0,49.0,77.930234375,35.6,26.733586281250002,33.43
2021-06-24 17:28:57.093750000,-38.0,-16.0,49.0,77.9284375,40.04,26.729943125000002,33.43
2021-06-24 17:28:57.101562500,-38.0,-16.0,49.0,77.926640625,43.269999999999996,26.726299968750002,33.43
2021-06-24 17:28:57.109375000,-38.0,-16.0,49.0,77.92484375000001,46.5,26.722656812500002,33.43
2021-06-24 17:28:57.117187500,-38.0,-16.0,49.0,77.923046875,48.575,26.719013656250002,33.43
2021-06-24 17:28:57.125000000,-38.0,-16.0,49.0,77.92125,50.65,26.7153705,33.43
2021-06-24 17:28:57.132812500,-38.25,-16.0,49.0,77.919453125,51.730000000000004,26.71172734375,33.43
2021-06-24 17:28:57.140625000,-38.5,-16.0,49.0,77.91765625000001,52.81,26.7080841875,33.43
2021-06-24 17:28:57.148437500,-38.75,-16.0,49.0,77.915859375,53.155,26.70444103125,33.43
2021-06-24 17:28:57.156250000,-39.0,-16.0,49.0,77.9140625,53.5,26.700797875,33.43
2021-06-24 17:28:57.164062500,-38.75,-16.0,49.0,77.912265625,53.445,26.69715471875,33.43
2021-06-24 17:28:57.171875000,-38.5,-16.0,49.0,77.91046875,53.39,26.6935115625,33.43
2021-06-24 17:28:57.179687500,-38.25,-16.0,49.0,77.908671875,53.254999999999995,26.68986840625,33.43
2021-06-24 17:28:57.187500000,-38.0,-16.0,49.0,77.906875,53.12,26.68622525,33.43
2021-06-24 17:28:57.195312500,-38.25,-16.0,49.0,77.905078125,53.099999999999994,26.68258209375,33.43
2021-06-24 17:28:57.203125000,-38.5,-16.0,49.0,77.90328125,53.08,26.6789389375,33.43
2021-06-24 17:28:57.210937500,-38.75,-16.0,49.0,77.901484375,53.22,26.67529578125,33.43
2021-06-24 17:28:57.218750000,-39.0,-16.0,49.0,77.8996875,53.36,26.671652625,33.43
2021-06-24 17:28:57.226562500,-39.0,-15.75,49.0,77.897890625,53.585,26.66800946875,33.43
2021-06-24 17:28:57.234375000,-39.0,-15.5,49.0,77.89609375,53.81,26.6643663125,33.43
2021-06-24 17:28:57.242187500,-39.0,-15.25,49.0,77.894296875,53.995000000000005,26.66072315625,33.43
2021-06-24 17:28:57.250000000,-39.0,-15.0,49.0,77.8925,54.18,26.65708,33.43
2021-06-24 17:28:57.257812500,-38.75,-15.0,49.25,77.890703125,54.25,26.652516125000002,33.43
2021-06-24 17:28:57.265625000,-38.5,-15.0,49.5,77.88890625,54.32,26.64795225,33.43
2021-06-24 17:28:57.273437500,-38.25,-15.0,49.75,77.88710937500001,54.295,26.643388375,33.43
2021-06-24 17:28:57.281250000,-38.0,-15.0,50.0,77.8853125,54.27,26.638824500000002,33.43
2021-06-24 17:28:57.289062500,-38.0,-15.25,49.75,77.883515625,54.195,26.634260625,33.43
2021-06-24 17:28:57.296875000,-38.0,-15.5,49.5,77.88171875,54.12,26.62969675,33.43
2021-06-24 17:28:57.304687500,-38.0,-15.75,49.25,77.87992187500001,53.995,26.625132875000002,33.43
2021-06-24 17:28:57.312500000,-38.0,-16.0,49.0,77.878125,53.87,26.620569,33.43
2021-06-24 17:28:57.320312500,-38.0,-16.0,49.0,77.876328125,53.599999999999994,26.616005125,33.43
2021-06-24 17:28:57.328125000,-38.0,-16.0,49.0,77.87453125,53.33,26.611441250000002,33.43
2021-06-24 17:28:57.335937500,-38.0,-16.0,49.0,77.87273437500001,52.72,26.606877375,33.43
2021-06-24 17:28:57.343750000,-38.0,-16.0,49.0,77.8709375,52.11,26.6023135,33.43
2021-06-24 17:28:57.351562500,-38.0,-15.75,49.0,77.869140625,50.955,26.597749625000002,33.43
2021-06-24 17:28:57.359375000,-38.0,-15.5,49.0,77.86734375,49.8,26.59318575,33.43
2021-06-24 17:28:57.367187500,-38.0,-15.25,49.0,77.865546875,47.98,26.588621875,33.43
2021-06-24 17:28:57.375000000,-38.0,-15.0,49.0,77.86375,46.16,26.584058,33.43
2021-06-24 17:28:57.382812500,-38.0,-15.0,49.0,77.861953125,43.724999999999994,26.579494125,33.43
2021-06-24 17:28:57.390625000,-38.0,-15.0,49.0,77.86015625,41.29,26.57493025,33.43
2021-06-24 17:28:57.398437500,-38.0,-15.0,49.0,77.858359375,38.4,26.570366375,33.43
2021-06-24 17:28:57.406250000,-38.0,-15.0,49.0,77.8565625,35.51,26.5658025,33.43
2021-06-24 17:28:57.414062500,-38.0,-15.25,49.0,77.854765625,32.394999999999996,26.561238625,33.43
2021-06-24 17:28:57.421875000,-38.0,-15.5,49.0,77.85296875,29.28,26.55667475,33.43
2021-06-24 17:28:57.429687500,-38.0,-15.75,49.0,77.851171875,26.09,26.552110875,33.43
2021-06-24 17:28:57.437500000,-38.0,-16.0,49.0,77.849375,22.9,26.547547,33.43
2021-06-24 17:28:57.445312500,-38.0,-16.0,49.0,77.847578125,19.67,26.542983125,33.43
2021-06-24 17:28:57.453125000,-38.0,-16.0,49.0,77.84578125,16.44,26.53841925,33.43
2021-06-24 17:28:57.460937500,-38.0,-16.0,49.0,77.843984375,13.085,26.533855375,33.43
2021-06-24 17:28:57.468750000,-38.0,-16.0,49.0,77.8421875,9.73,26.5292915,33.43
2021-06-24 17:28:57.476562500,-38.0,-16.0,49.0,77.840390625,6.13,26.524727625,33.43
2021-06-24 17:28:57.484375000,-38.0,-16.0,49.0,77.83859375,2.53,26.520163750000002,33.43
2021-06-24 17:28:57.492187500,-38.0,-16.0,49.0,77.836796875,-1.3850000000000002,26.515599875,33.43
2021-06-24 17:28:57.500000000,-38.0,-16.0,49.0,77.83500000000001,-5.3,26.511036,33.43
2021-06-24 17:28:57.507812500,-38.0,-15.75,49.0,77.833203125,-9.465,26.508954187500002,33.43
2021-06-24 17:28:57.515625000,-38.0,-15.5,49.0,77.83140625,-13.63,26.506872375,33.43
2021-06-24 17:28:57.523437500,-38.0,-15.25,49.0,77.829609375,-17.875,26.504790562500002,33.43
2021-06-24 17:28:57.531250000,-38.0,-15.0,49.0,77.82781250000001,-22.12,26.50270875,33.43
2021-06-24 17:28:57.539062500,-38.0,-15.0,49.0,77.826015625,-26.235,26.5006269375,33.43
2021-06-24 17:28:57.546875000,-38.0,-15.0,49.0,77.82421875,-30.35,26.498545125,33.43
2021-06-24 17:28:57.554687500,-38.0,-15.0,49.0,77.822421875,-34.24,26.4964633125,33.43
2021-06-24 17:28:57.562500000,-38.0,-15.0,49.0,77.820625,-38.13,26.4943815,33.43
2021-06-24 17:28:57.570312500,-38.25,-15.25,49.0,77.818828125,-41.83,26.4922996875,33.43
2021-06-24 17:28:57.578125000,-38.5,-15.5,49.0,77.81703125,-45.53,26.490217875,33.43
2021-06-24 17:28:57.585937500,-38.75,-15.75,49.0,77.815234375,-49.265,26.4881360625,33.43
2021-06-24 17:28:57.593750000,-39.0,-16.0,49.0,77.8134375,-53.0,26.48605425,33.43
2021-06-24 17:28:57.601562500,-38.75,-16.0,49.0,77.811640625,-57.045,26.4839724375,33.43
2021-06-24 17:28:57.609375000,-38.5,-16.0,49.0,77.80984375,-61.09,26.481890625,33.43
2021-06-24 17:28:57.617187500,-38.25,-16.0,49.0,77.808046875,-65.725,26.4798088125,33.43
2021-06-24 17:28:57.625000000,-38.0,-16.0,49.0,77.80625,-70.36,26.477727,33.43
2021-06-24 17:28:57.632812500,-38.0,-16.0,49.25,77.804453125,-75.72,26.4756451875,33.43
2021-06-24 17:28:57.640625000,-38.0,-16.0,49.5,77.80265625,-81.08,26.473563375,33.43
2021-06-24 17:28:57.648437500,-38.0,-16.0,49.75,77.800859375,-87.095,26.4714815625,33.43
2021-06-24 17:28:57.656250000,-38.0,-16.0,50.0,77.7990625,-93.11,26.46939975,33.43
2021-06-24 17:28:57.664062500,-38.0,-16.0,49.75,77.797265625,-99.42,26.4673179375,33.43
2021-06-24 17:28:57.671875000,-38.0,-16.0,49.5,77.79546875,-105.73,26.465236125,33.43
2021-06-24 17:28:57.679687500,-38.0,-16.0,49.25,77.793671875,-111.71000000000001,26.4631543125,33.43
2021-06-24 17:28:57.687500000,-38.0,-16.0,49.0,77.791875,-117.69,26.4610725,33.43
2021-06-24 17:28:57.695312500,-38.0,-15.75,49.25,77.790078125,-122.47999999999999,26.4589906875,33.43
2021-06-24 17:28:57.703125000,-38.0,-15.5,49.5,77.78828125,-127.27,26.456908875,33.43
2021-06-24 17:28:57.710937500,-38.0,-15.25,49.75,77.786484375,-129.98,26.454827062499998,33.43
2021-06-24 17:28:57.718750000,-38.0,-15.0,50.0,77.7846875,-132.69,26.45274525,33.43
2021-06-24 17:28:57.726562500,-38.0,-15.25,49.75,77.782890625,-132.615,26.450663437499998,33.43
2021-06-24 17:28:57.734375000,-38.0,-15.5,49.5,77.78109375,-132.54,26.448581625,33.43
2021-06-24 17:28:57.742187500,-38.0,-15.75,49.25,77.779296875,-129.375,26.446499812499997,33.43
2021-06-24 17:28:57.750000000,-38.0,-16.0,49.0,77.7775,-126.21,26.444418,33.43
2021-06-24 17:28:57.757812500,-38.0,-16.0,49.0,77.775703125,-120.16,26.44109515625,33.43
2021-06-24 17:28:57.765625000,-38.0,-16.0,49.0,77.77390625,-114.11,26.437772312499998,33.43
2021-06-24 17:28:57.773437500,-38.0,-16.0,49.0,77.772109375,-105.795,26.43444946875,33.43
2021-06-24 17:28:57.781250000,-38.0,-16.0,49.0,77.7703125,-97.48,26.431126624999997,33.43
2021-06-24 17:28:57.789062500,-38.0,-16.0,49.0,77.768515625,-87.77000000000001,26.42780378125,33.43
2021-06-24 17:28:57.796875000,-38.0,-16.0,49.0,77.76671875,-78.06,26.4244809375,33.43
2021-06-24 17:28:57.804687500,-38.0,-16.0,49.0,77.764921875,-67.825,26.421158093749998,33.43
2021-06-24 17:28:57.812500000,-38.0,-16.0,49.0,77.763125,-57.59,26.41783525,33.43
2021-06-24 17:28:57.820312500,-38.0,-16.0,49.0,77.761328125,-47.52,26.41451240625,33.43
2021-06-24 17:28:57.828125000,-38.0,-16.0,49.0,77.75953125,-37.45,26.4111895625,33.43
2021-06-24 17:28:57.835937500,-38.0,-16.0,49.0,77.757734375,-27.985,26.40786671875,33.43
2021-06-24 17:28:57.843750000,-38.0,-16.0,49.0,77.7559375,-18.52,26.404543875,33.43
2021-06-24 17:28:57.851562500,-38.0,-15.75,49.0,77.754140625,-9.915,26.40122103125,33.43
2021-06-24 17:28:57.859375000,-38.0,-15.5,49.0,77.75234375,-1.31,26.3978981875,33.43
2021-06-24 17:28:57.867187500,-38.0,-15.25,49.0,77.750546875,6.279999999999999,26.39457534375,33.43
2021-06-24 17:28:57.875000000,-38.0,-15.0,49.0,77.74875,13.87,26.3912525,33.43
2021-06-24 17:28:57.882812500,-38.0,-15.25,49.0,77.746953125,20.32,26.38792965625,33.43
2021-06-24 17:28:57.890625000,-38.0,-15.5,49.0,77.74515625,26.77,26.3846068125,33.43
2021-06-24 17:28:57.898437500,-38.0,-15.75,49.0,77.743359375,31.97,26.38128396875,33.43
2021-06-24 17:28:57.906250000,-38.0,-16.0,49.0,77.7415625,37.17,26.377961125,33.43
2021-06-24 17:28:57.914062500,-38.0,-16.0,49.0,77.739765625,41.085,26.37463828125,33.43
2021-06-24 17:28:57.921875000,-38.0,-16.0,49.0,77.73796875,45.0,26.3713154375,33.43
2021-06-24 17:28:57.929687500,-38.0,-16.0,49.0,77.736171875,47.67,26.36799259375,33.43
2021-06-24 17:28:57.937500000,-38.0,-16.0,49.0,77.734375,50.34,26.36466975,33.43
2021-06-24 17:28:57.945312500,-38.0,-16.0,49.0,77.732578125,51.94,26.361346906250002,33.43
2021-06-24 17:28:57.953125000,-38.0,-16.0,49.0,77.73078124999999,53.54,26.3580240625,33.43
2021-06-24 17:28:57.960937500,-38.0,-16.0,49.0,77.728984375,54.32,26.35470121875,33.43
2021-06-24 17:28:57.968750000,-38.0,-16.0,49.0,77.7271875,55.1,26.351378375000003,33.43
2021-06-24 17:28:57.976562500,-38.0,-15.75,49.0,77.725390625,55.394999999999996,26.34805553125,33.43
2021-06-24 17:28:57.984375000,-38.0,-15.5,49.0,77.72359374999999,55.69,26.344732687500002,33.43
2021-06-24 17:28:57.992187500,-38.0,-15.25,49.0,77.721796875,55.8,26.34140984375,33.43
2021-06-24 17:28:58.000000000,-38.0,-15.0,49.0,77.72,55.91,26.338087,33.43
2021-06-24 17:28:58.007812500,-38.0,-15.25,49.0,77.717890625,56.095,26.335725,33.430625
2021-06-24 17:28:58.015625000,-38.0,-15.5,49.0,77.71578124999999,56.28,26.333363000000002,33.43125
2021-06-24 17:28:58.023437500,-38.0,-15.75,49.0,77.713671875,56.69,26.331001,33.431875
2021-06-24 17:28:58.031250000,-38.0,-16.0,49.0,77.7115625,57.1,26.328639000000003,33.4325
2021-06-24 17:28:58.039062500,-38.0,-16.0,49.0,77.709453125,57.79,26.326277,33.433125
2021-06-24 17:28:58.046875000,-38.0,-16.0,49.0,77.70734374999999,58.48,26.323915,33.43375
2021-06-24 17:28:58.054687500,-38.0,-16.0,49.0,77.705234375,59.4,26.321553,33.434375
2021-06-24 17:28:58.062500000,-38.0,-16.0,49.0,77.703125,60.32,26.319191,33.435
2021-06-24 17:28:58.070312500,-38.0,-16.0,49.0,77.701015625,61.364999999999995,26.316829000000002,33.435625
2021-06-24 17:28:58.078125000,-38.0,-16.0,49.0,77.69890625,62.41,26.314467,33.43625
2021-06-24 17:28:58.085937500,-38.0,-16.0,49.0,77.696796875,63.42,26.312105,33.436875
2021-06-24 17:28:58.093750000,-38.0,-16.0,49.0,77.6946875,64.43,26.309743,33.4375
2021-06-24 17:28:58.101562500,-38.0,-16.0,49.0,77.692578125,65.22,26.307381,33.438125
2021-06-24 17:28:58.109375000,-38.0,-16.0,49.0,77.69046875,66.01,26.305019,33.43875
2021-06-24 17:28:58.117187500,-38.0,-16.0,49.0,77.688359375,66.39,26.302657,33.439375
2021-06-24 17:28:58.125000000,-38.0,-16.0,49.0,77.68625,66.77,26.300295,33.44
2021-06-24 17:28:58.132812500,-38.0,-16.0,49.0,77.684140625,66.54499999999999,26.297933,33.440625000000004
2021-06-24 17:28:58.140625000,-38.0,-16.0,49.0,77.68203125,66.32,26.295571,33.441250000000004
2021-06-24 17:28:58.148437500,-38.0,-16.0,49.0,77.679921875,65.37,26.293209,33.441875
2021-06-24 17:28:58.156250000,-38.0,-16.0,49.0,77.6778125,64.42,26.290847,33.4425
2021-06-24 17:28:58.164062500,-38.0,-16.0,49.0,77.675703125,62.71,26.288485,33.443125
2021-06-24 17:28:58.171875000,-38.0,-16.0,49.0,77.67359375,61.0,26.286123,33.44375
2021-06-24 17:28:58.179687500,-38.0,-16.0,49.0,77.671484375,58.635000000000005,26.283761,33.444375
2021-06-24 17:28:58.187500000,-38.0,-16.0,49.0,77.669375,56.27,26.281399,33.445
2021-06-24 17:28:58.195312500,-38.0,-16.0,49.0,77.667265625,53.41,26.279037,33.445625
2021-06-24 17:28:58.203125000,-38.0,-16.0,49.0,77.66515625,50.55,26.276675,33.44625
2021-06-24 17:28:58.210937500,-38.0,-16.0,49.0,77.663046875,47.42,26.274313,33.446875000000006
2021-06-24 17:28:58.218750000,-38.0,-16.0,49.0,77.6609375,44.29,26.271950999999998,33.447500000000005
2021-06-24 17:28:58.226562500,-38.0,-16.0,49.25,77.658828125,41.055,26.269589,33.448125000000005
2021-06-24 17:28:58.234375000,-38.0,-16.0,49.5,77.65671875,37.82,26.267227,33.448750000000004
2021-06-24 17:28:58.242187500,-38.0,-16.0,49.75,77.654609375,34.555,26.264865,33.449375
2021-06-24 17:28:58.250000000,-38.0,-16.0,50.0,77.6525,31.29,26.262503,33.45
2021-06-24 17:28:58.257812500,-38.0,-16.0,49.75,77.650390625,27.955,26.2614220625,33.45
2021-06-24 17:28:58.265625000,-38.0,-16.0,49.5,77.64828125,24.62,26.260341125,33.45
2021-06-24 17:28:58.273437500,-38.0,-16.0,49.25,77.646171875,21.115000000000002,26.2592601875,33.45
2021-06-24 17:28:58.281250000,-38.0,-16.0,49.0,77.6440625,17.61,26.258179249999998,33.45
2021-06-24 17:28:58.289062500,-38.0,-16.0,49.0,77.641953125,13.83,26.2570983125,33.45
2021-06-24 17:28:58.296875000,-38.0,-16.0,49.0,77.63984375,10.05,26.256017375,33.45
2021-06-24 17:28:58.304687500,-38.0,-16.0,49.0,77.637734375,5.965,26.2549364375,33.45
2021-06-24 17:28:58.312500000,-38.0,-16.0,49.0,77.635625,1.88,26.2538555,33.45
2021-06-24 17:28:58.320312500,-38.0,-16.0,49.0,77.633515625,-2.4349999999999996,26.2527745625,33.45
2021-06-24 17:28:58.328125000,-38.0,-16.0,49.0,77.63140625,-6.75,26.251693624999998,33.45
2021-06-24 17:28:58.335937500,-38.0,-16.0,49.0,77.629296875,-11.135,26.2506126875,33.45
2021-06-24 17:28:58.343750000,-38.0,-16.0,49.0,77.6271875,-15.52,26.24953175,33.45
2021-06-24 17:28:58.351562500,-38.0,-16.0,49.0,77.625078125,-19.799999999999997,26.2484508125,33.45
2021-06-24 17:28:58.359375000,-38.0,-16.0,49.0,77.62296875,-24.08,26.247369875,33.45
2021-06-24 17:28:58.367187500,-38.0,-16.0,49.0,77.620859375,-28.145,26.2462889375,33.45
2021-06-24 17:28:58.375000000,-38.0,-16.0,49.0,77.61875,-32.21,26.245207999999998,33.45
2021-06-24 17:28:58.382812500,-38.0,-16.0,49.0,77.616640625,-36.06,26.2441270625,33.45
2021-06-24 17:28:58.390625000,-38.0,-16.0,49.0,77.61453125,-39.91,26.243046125,33.45
2021-06-24 17:28:58.398437500,-38.0,-16.0,49.0,77.612421875,-43.745,26.2419651875,33.45
2021-06-24 17:28:58.406250000,-38.0,-16.0,49.0,77.6103125,-47.58,26.24088425,33.45
2021-06-24 17:28:58.414062500,-38.0,-16.0,49.0,77.608203125,-51.71,26.2398033125,33.45
2021-06-24 17:28:58.421875000,-38.0,-16.0,49.0,77.60609375,-55.84,26.238722375000002,33.45
2021-06-24 17:28:58.429687500,-38.0,-16.0,49.0,77.603984375,-60.63,26.2376414375,33.45
2021-06-24 17:28:58.437500000,-38.0,-16.0,49.0,77.601875,-65.42,26.2365605,33.45
2021-06-24 17:28:58.445312500,-38.0,-16.0,49.0,77.599765625,-71.095,26.2354795625,33.45
2021-06-24 17:28:58.453125000,-38.0,-16.0,49.0,77.59765625,-76.77,26.234398625,33.45
2021-06-24 17:28:58.460937500,-38.0,-16.0,49.0,77.595546875,-83.28999999999999,26.2333176875,33.45
2021-06-24 17:28:58.468750000,-38.0,-16.0,49.0,77.59343750000001,-89.81,26.232236750000002,33.45
2021-06-24 17:28:58.476562500,-38.0,-16.0,49.0,77.591328125,-96.725,26.2311558125,33.45
2021-06-24 17:28:58.484375000,-38.0,-16.0,49.0,77.58921875,-103.64,26.230074875,33.45
2021-06-24 17:28:58.492187500,-38.0,-16.0,49.0,77.587109375,-110.13499999999999,26.2289939375,33.45
2021-06-24 17:28:58.500000000,-38.0,-16.0,49.0,77.58500000000001,-116.63,26.227913,33.45
2021-06-24 17:28:58.507812500,-38.0,-16.0,49.0,77.582890625,-121.66999999999999,26.2268720625,33.45
2021-06-24 17:28:58.515625000,-38.0,-16.0,49.0,77.58078125,-126.71,26.225831125,33.45
2021-06-24 17:28:58.523437500,-38.0,-16.0,49.0,77.578671875,-129.31,26.224790187500002,33.45
2021-06-24 17:28:58.531250000,-38.0,-16.0,49.0,77.5765625,-131.91,26.22374925,33.45
2021-06-24 17:28:58.539062500,-38.0,-16.0,49.25,77.574453125,-131.41,26.2227083125,33.45
2021-06-24 17:28:58.546875000,-38.0,-16.0,49.5,77.57234375,-130.91,26.221667375000003,33.45
2021-06-24 17:28:58.554687500,-38.0,-16.0,49.75,77.570234375,-127.15,26.2206264375,33.45
2021-06-24 17:28:58.562500000,-38.0,-16.0,50.0,77.568125,-123.39,26.2195855,33.45
2021-06-24 17:28:58.570312500,-38.0,-16.0,49.75,77.566015625,-116.7,26.2185445625,33.45
2021-06-24 17:28:58.578125000,-38.0,-16.0,49.5,77.56390625,-110.01,26.217503625,33.45
2021-06-24 17:28:58.585937500,-38.0,-16.0,49.25,77.561796875,-101.09,26.2164626875,33.45
2021-06-24 17:28:58.593750000,-38.0,-16.0,49.0,77.5596875,-92.17,26.21542175,33.45
2021-06-24 17:28:58.601562500,-38.0,-16.0,49.0,77.557578125,-81.86,26.2143808125,33.45
2021-06-24 17:28:58.609375000,-38.0,-16.0,49.0,77.55546875,-71.55,26.213339875000003,33.45
2021-06-24 17:28:58.617187500,-38.0,-16.0,49.0,77.553359375,-60.665,26.2122989375,33.45
2021-06-24 17:28:58.625000000,-38.0,-16.0,49.0,77.55125,-49.78,26.211258,33.45
2021-06-24 17:28:58.632812500,-38.0,-16.0,49.0,77.549140625,-39.02,26.2102170625,33.45
2021-06-24 17:28:58.640625000,-38.0,-16.0,49.0,77.54703125,-28.26,26.209176125,33.45
2021-06-24 17:28:58.648437500,-38.0,-16.0,49.0,77.544921875,-18.21,26.2081351875,33.45
2021-06-24 17:28:58.656250000,-38.0,-16.0,49.0,77.5428125,-8.16,26.20709425,33.45
2021-06-24 17:28:58.664062500,-38.0,-16.0,49.0,77.54070312500001,0.7149999999999999,26.2060533125,33.45
2021-06-24 17:28:58.671875000,-38.0,-16.0,49.0,77.53859375,9.59,26.205012375000003,33.45
2021-06-24 17:28:58.679687500,-38.0,-16.0,49.0,77.536484375,16.935000000000002,26.2039714375,33.45
2021-06-24 17:28:58.687500000,-38.0,-16.0,49.0,77.534375,24.28,26.2029305,33.45
2021-06-24 17:28:58.695312500,-38.0,-16.0,49.0,77.53226562500001,29.86,26.2018895625,33.45
2021-06-24 17:28:58.703125000,-38.0,-16.0,49.0,77.53015625,35.44,26.200848625,33.45
2021-06-24 17:28:58.710937500,-38.0,-16.0,49.0,77.528046875,39.224999999999994,26.1998076875,33.45
2021-06-24 17:28:58.718750000,-38.0,-16.0,49.0,77.5259375,43.01,26.19876675,33.45
2021-06-24 17:28:58.726562500,-38.0,-16.0,49.25,77.52382812500001,45.17,26.1977258125,33.45
2021-06-24 17:28:58.734375000,-38.0,-16.0,49.5,77.52171875,47.33,26.196684875000003,33.45
2021-06-24 17:28:58.742187500,-38.0,-16.0,49.75,77.519609375,48.215,26.1956439375,33.45
2021-06-24 17:28:58.750000000,-38.0,-16.0,50.0,77.5175,49.1,26.194603,33.45
2021-06-24 17:28:58.757812500,-38.0,-16.0,49.75,77.515390625,49.195,26.194202687500002,33.45
2021-06-24 17:28:58.765625000,-38.0,-16.0,49.5,77.51328125,49.29,26.193802375,33.45
2021-06-24 17:28:58.773437500,-38.0,-16.0,49.25,77.511171875,49.07,26.1934020625,33.45
2021-06-24 17:28:58.781250000,-38.0,-16.0,49.0,77.5090625,48.85,26.19300175,33.45
2021-06-24 17:28:58.789062500,-38.0,-16.0,49.0,77.506953125,48.695,26.192601437500002,33.45
2021-06-24 17:28:58.796875000,-38.0,-16.0,49.0,77.50484375,48.54,26.192201125,33.45
2021-06-24 17:28:58.804687500,-38.0,-16.0,49.0,77.502734375,48.68,26.1918008125,33.45
2021-06-24 17:28:58.812500000,-38.0,-16.0,49.0,77.500625,48.82,26.1914005,33.45
2021-06-24 17:28:58.820312500,-38.0,-16.0,49.25,77.498515625,49.28,26.191000187500002,33.45
2021-06-24 17:28:58.828125000,-38.0,-16.0,49.5,77.49640625,49.74,26.190599875,33.45
2021-06-24 17:28:58.835937500,-38.0,-16.0,49.75,77.494296875,50.415000000000006,26.1901995625,33.45
2021-06-24 17:28:58.843750000,-38.0,-16.0,50.0,77.4921875,51.09,26.18979925,33.45
2021-06-24 17:28:58.851562500,-38.0,-16.0,49.75,77.490078125,51.795,26.189398937500002,33.45
2021-06-24 17:28:58.859375000,-38.0,-16.0,49.5,77.48796875000001,52.5,26.188998625,33.45
2021-06-24 17:28:58.867187500,-38.0,-16.0,49.25,77.485859375,53.09,26.188598312499998,33.45
2021-06-24 17:28:58.875000000,-38.0,-16.0,49.0,77.48375,53.68,26.188198,33.45
2021-06-24 17:28:58.882812500,-38.0,-16.0,49.0,77.481640625,54.09,26.1877976875,33.45
2021-06-24 17:28:58.890625000,-38.0,-16.0,49.0,77.47953125000001,54.5,26.187397375,33.45
2021-06-24 17:28:58.898437500,-38.0,-16.0,49.0,77.477421875,54.739999999999995,26.186997062499998,33.45
2021-06-24 17:28:58.906250000,-38.0,-16.0,49.0,77.4753125,54.98,26.18659675,33.45
2021-06-24 17:28:58.914062500,-38.0,-16.0,49.0,77.473203125,55.075,26.1861964375,33.45
2021-06-24 17:28:58.921875000,-38.0,-16.0,49.0,77.47109375000001,55.17,26.185796125,33.45
2021-06-24 17:28:58.929687500,-38.0,-16.0,49.0,77.468984375,55.035,26.185395812499998,33.45
2021-06-24 17:28:58.937500000,-38.0,-16.0,49.0,77.466875,54.9,26.1849955,33.45
2021-06-24 17:28:58.945312500,-38.0,-16.0,49.0,77.464765625,54.364999999999995,26.1845951875,33.45
2021-06-24 17:28:58.953125000,-38.0,-16.0,49.0,77.46265625000001,53.83,26.184194875,33.45
2021-06-24 17:28:58.960937500,-38.0,-16.0,49.0,77.460546875,52.614999999999995,26.183794562499997,33.45
2021-06-24 17:28:58.968750000,-38.0,-16.0,49.0,77.4584375,51.4,26.18339425,33.45
2021-06-24 17:28:58.976562500,-38.0,-16.0,49.0,77.456328125,49.28,26.1829939375,33.45
2021-06-24 17:28:58.984375000,-38.0,-16.0,49.0,77.45421875000001,47.16,26.182593625,33.45
2021-06-24 17:28:58.992187500,-38.0,-16.0,49.0,77.452109375,44.04,26.182193312499997,33.45
2021-06-24 17:28:59.000000000,-38.0,-16.0,49.0,77.45,40.92,26.181793,33.45
2021-06-24 17:28:59.007812500,-38.0,-16.0,49.0,77.448046875,36.93,26.181112374999998,33.45
2021-06-24 17:28:59.015625000,-38.0,-16.0,49.0,77.44609375,32.94,26.18043175,33.45
2021-06-24 17:28:59.023437500,-38.0,-16.0,49.0,77.444140625,28.39,26.179751125,33.45
2021-06-24 17:28:59.031250000,-38.0,-16.0,49.0,77.4421875,23.84,26.179070499999998,33.45
2021-06-24 17:28:59.039062500,-38.0,-16.0,49.25,77.440234375,19.105,26.178389875,33.45
2021-06-24 17:28:59.046875000,-38.0,-16.0,49.5,77.43828125,14.37,26.17770925,33.45
2021-06-24 17:28:59.054687500,-38.0,-16.0,49.75,77.436328125,9.765,26.177028625,33.45
2021-06-24 17:28:59.062500000,-38.0,-16.0,50.0,77.434375,5.16,26.176347999999997,33.45
2021-06-24 17:28:59.070312500,-38.0,-16.0,49.75,77.432421875,0.8399999999999999,26.175667375,33.45
2021-06-24 17:28:59.078125000,-38.0,-16.0,49.5,77.43046875,-3.48,26.17498675,33.45
2021-06-24 17:28:59.085937500,-38.0,-16.0,49.25,77.428515625,-7.574999999999999,26.174306124999998,33.45
2021-06-24 17:28:59.093750000,-38.0,-16.0,49.0,77.4265625,-11.67,26.1736255,33.45
2021-06-24 17:28:59.101562500,-38.0,-16.0,49.0,77.424609375,-15.765,26.172944875,33.45
2021-06-24 17:28:59.109375000,-38.0,-16.0,49.0,77.42265625,-19.86,26.172264249999998,33.45
2021-06-24 17:28:59.117187500,-38.0,-16.0,49.0,77.420703125,-24.299999999999997,26.171583625,33.45
2021-06-24 17:28:59.125000000,-38.0,-16.0,49.0,77.41875,-28.74,26.170903,33.45
2021-06-24 17:28:59.132812500,-38.0,-16.0,49.0,77.416796875,-33.87,26.170222374999998,33.45
2021-06-24 17:28:59.140625000,-38.0,-16.0,49.0,77.41484375,-39.0,26.16954175,33.45
2021-06-24 17:28:59.148437500,-38.0,-16.0,49.0,77.412890625,-45.055,26.168861125,33.45
2021-06-24 17:28:59.156250000,-38.0,-16.0,49.0,77.4109375,-51.11,26.1681805,33.45
2021-06-24 17:28:59.164062500,-38.0,-16.0,49.0,77.408984375,-58.06,26.167499875,33.45
2021-06-24 17:28:59.171875000,-38.0,-16.0,49.0,77.40703125,-65.01,26.16681925,33.45
2021-06-24 17:28:59.179687500,-38.0,-16.0,49.0,77.405078125,-72.43,26.166138625,33.45
2021-06-24 17:28:59.187500000,-38.0,-16.0,49.0,77.403125,-79.85,26.165458,33.45
2021-06-24 17:28:59.195312500,-38.0,-16.0,49.0,77.401171875,-86.9,26.164777375,33.45
2021-06-24 17:28:59.203125000,-38.0,-16.0,49.0,77.39921875,-93.95,26.16409675,33.45
2021-06-24 17:28:59.210937500,-38.0,-16.0,49.0,77.397265625,-99.495,26.163416124999998,33.45
2021-06-24 17:28:59.218750000,-38.0,-16.0,49.0,77.3953125,-105.04,26.1627355,33.45
2021-06-24 17:28:59.226562500,-38.0,-16.0,49.0,77.393359375,-107.92,26.162054875,33.45
2021-06-24 17:28:59.234375000,-38.0,-16.0,49.0,77.39140625,-110.8,26.161374249999998,33.45
2021-06-24 17:28:59.242187500,-38.0,-16.0,49.0,77.389453125,-110.17,26.160693625,33.45
2021-06-24 17:28:59.250000000,-38.0,-16.0,49.0,77.3875,-109.54,26.160013,33.45
2021-06-24 17:28:59.257812500,-38.0,-16.0,49.0,77.385546875,-105.135,26.159973,33.45
2021-06-24 17:28:59.265625000,-38.0,-16.0,49.0,77.38359375,-100.73,26.159933,33.45
2021-06-24 17:28:59.273437500,-38.0,-16.0,49.0,77.381640625,-92.93,26.159893,33.45
2021-06-24 17:28:59.281250000,-38.0,-16.0,49.0,77.3796875,-85.13,26.159853,33.45
2021-06-24 17:28:59.289062500,-38.0,-16.0,49.0,77.377734375,-74.83500000000001,26.159813,33.45
2021-06-24 17:28:59.296875000,-38.0,-16.0,49.0,77.37578125,-64.54,26.159773,33.45
2021-06-24 17:28:59.304687500,-38.0,-16.0,49.0,77.373828125,-52.86,26.159733,33.45
2021-06-24 17:28:59.312500000,-38.0,-16.0,49.0,77.371875,-41.18,26.159693,33.45
2021-06-24 17:28:59.320312500,-38.0,-16.0,49.0,77.369921875,-29.17,26.159653,33.45
2021-06-24 17:28:59.328125000,-38.0,-16.0,49.0,77.36796875,-17.16,26.159613,33.45
2021-06-24 17:28:59.335937500,-38.0,-16.0,49.0,77.366015625,-5.605,26.159573,33.45
2021-06-24 17:28:59.343750000,-38.0,-16.0,49.0,77.3640625,5.95,26.159533,33.45
2021-06-24 17:28:59.351562500,-38.0,-16.0,49.0,77.362109375,16.53,26.159493,33.45
2021-06-24 17:28:59.359375000,-38.0,-16.0,49.0,77.36015625,27.11,26.159453,33.45
2021-06-24 17:28:59.367187500,-38.0,-16.0,49.0,77.358203125,36.385,26.159413,33.45
2021-06-24 17:28:59.375000000,-38.0,-16.0,49.0,77.35625,45.66,26.159373000000002,33.45
2021-06-24 17:28:59.382812500,-38.25,-16.0,49.0,77.354296875,53.39,26.159333,33.45
2021-06-24 17:28:59.390625000,-38.5,-16.0,49.0,77.35234375,61.12,26.159293,33.45
2021-06-24 17:28:59.398437500,-38.75,-16.0,49.0,77.350390625,67.095,26.159253,33.45
2021-06-24 17:28:59.406250000,-39.0,-16.0,49.0,77.3484375,73.07,26.159213,33.45
2021-06-24 17:28:59.414062500,-38.75,-16.0,49.25,77.346484375,77.145,26.159173,33.45
2021-06-24 17:28:59.421875000,-38.5,-16.0,49.5,77.34453125,81.22,26.159133,33.45
2021-06-24 17:28:59.429687500,-38.25,-16.0,49.75,77.342578125,83.41,26.159093000000002,33.45
2021-06-24 17:28:59.437500000,-38.0,-16.0,50.0,77.340625,85.6,26.159053,33.45
2021-06-24 17:28:59.445312500,-38.0,-16.0,49.75,77.338671875,86.13499999999999,26.159013,33.45
2021-06-24 17:28:59.453125000,-38.0,-16.0,49.5,77.33671875,86.67,26.158973,33.45
2021-06-24 17:28:59.460937500,-38.0,-16.0,49.25,77.334765625,85.98,26.158933,33.45
2021-06-24 17:28:59.468750000,-38.0,-16.0,49.0,77.3328125,85.29,26.158893000000003,33.45
2021-06-24 17:28:59.476562500,-38.0,-16.0,49.0,77.330859375,83.975,26.158853,33.45
2021-06-24 17:28:59.484375000,-38.0,-16.0,49.0,77.32890625,82.66,26.158813000000002,33.45
2021-06-24 17:28:59.492187500,-38.0,-16.0,49.0,77.326953125,81.28,26.158773,33.45
2021-06-24 17:28:59.500000000,-38.0,-16.0,49.0,77.325,79.9,26.158733,33.45
2021-06-24 17:28:59.507812500,-38.25,-16.0,49.0,77.323046875,78.89500000000001,26.158172500000003,33.45
2021-06-24 17:28:59.515625000,-38.5,-16.0,49.0,77.32109375,77.89,26.157612,33.45
2021-06-24 17:28:59.523437500,-38.75,-16.0,49.0,77.319140625,77.44,26.1570515,33.45
2021-06-24 17:28:59.531250000,-39.0,-16.0,49.0,77.3171875,76.99,26.156491000000003,33.45
2021-06-24 17:28:59.539062500,-38.75,-16.0,49.0,77.315234375,77.025,26.1559305,33.45
2021-06-24 17:28:59.546875000,-38.5,-16.0,49.0,77.31328125,77.06,26.15537,33.45
2021-06-24 17:28:59.554687500,-38.25,-16.0,49.0,77.311328125,77.315,26.154809500000002,33.45
2021-06-24 17:28:59.562500000,-38.0,-16.0,49.0,77.309375,77.57,26.154249,33.45
2021-06-24 17:28:59.570312500,-38.25,-16.0,49.0,77.307421875,77.735,26.1536885,33.45
2021-06-24 17:28:59.578125000,-38.5,-16.0,49.0,77.30546875,77.9,26.153128000000002,33.45
2021-06-24 17:28:59.585937500,-38.75,-16.0,49.0,77.303515625,77.725,26.1525675,33.45
2021-06-24 17:28:59.593750000,-39.0,-16.0,49.0,77.3015625,77.55,26.152007,33.45
2021-06-24 17:28:59.601562500,-38.75,-15.75,49.0,77.299609375,76.91,26.151446500000002,33.45
2021-06-24 17:28:59.609375000,-38.5,-15.5,49.0,77.29765625,76.27,26.150886,33.45
2021-06-24 17:28:59.617187500,-38.25,-15.25,49.0,77.295703125,75.16,26.1503255,33.45
2021-06-24 17:28:59.625000000,-38.0,-15.0,49.0,77.29375,74.05,26.149765000000002,33.45
2021-06-24 17:28:59.632812500,-38.0,-15.0,49.0,77.291796875,72.535,26.1492045,33.45
2021-06-24 17:28:59.640625000,-38.0,-15.0,49.0,77.28984375,71.02,26.148644,33.45
2021-06-24 17:28:59.648437500,-38.0,-15.0,49.0,77.287890625,69.16499999999999,26.1480835,33.45
2021-06-24 17:28:59.656250000,-38.0,-15.0,49.0,77.2859375,67.31,26.147523,33.45
2021-06-24 17:28:59.664062500,-38.0,-15.25,49.0,77.283984375,65.105,26.1469625,33.45
2021-06-24 17:28:59.671875000,-38.0,-15.5,49.0,77.28203125,62.9,26.146402,33.45
2021-06-24 17:28:59.679687500,-38.0,-15.75,49.0,77.280078125,60.26,26.1458415,33.45
2021-06-24 17:28:59.687500000,-38.0,-16.0,49.0,77.278125,57.62,26.145281,33.45
2021-06-24 17:28:59.695312500,-38.25,-16.0,49.0,77.276171875,54.4,26.1447205,33.45
2021-06-24 17:28:59.703125000,-38.5,-16.0,49.0,77.27421875,51.18,26.14416,33.45
2021-06-24 17:28:59.710937500,-38.75,-16.0,49.0,77.272265625,47.275,26.1435995,33.45
2021-06-24 17:28:59.718750000,-39.0,-16.0,49.0,77.2703125,43.37,26.143038999999998,33.45
2021-06-24 17:28:59.726562500,-38.75,-16.0,49.25,77.268359375,38.76,26.1424785,33.45
2021-06-24 17:28:59.734375000,-38.5,-16.0,49.5,77.26640625,34.15,26.141918,33.45
2021-06-24 17:28:59.742187500,-38.25,-16.0,49.75,77.264453125,28.945,26.141357499999998,33.45
2021-06-24 17:28:59.750000000,-38.0,-16.0,50.0,77.2625,23.74,26.140797,33.45
2021-06-24 17:28:59.757812500,-38.0,-16.0,49.75,77.260546875,18.174999999999997,26.140556781249998,33.45
2021-06-24 17:28:59.765625000,-38.0,-16.0,49.5,77.25859375,12.61,26.1403165625,33.45
2021-06-24 17:28:59.773437500,-38.0,-16.0,49.25,77.256640625,6.975,26.14007634375,33.45
2021-06-24 17:28:59.781250000,-38.0,-16.0,49.0,77.2546875,1.34,26.139836125,33.45
2021-06-24 17:28:59.789062500,-38.0,-15.75,49.0,77.252734375,-4.1450000000000005,26.139595906249998,33.45
2021-06-24 17:28:59.796875000,-38.0,-15.5,49.0,77.25078125,-9.63,26.1393556875,33.45
2021-06-24 17:28:59.804687500,-38.0,-15.25,49.0,77.248828125,-14.865000000000002,26.13911546875,33.45
2021-06-24 17:28:59.812500000,-38.0,-15.0,49.0,77.246875,-20.1,26.138875249999998,33.45
2021-06-24 17:28:59.820312500,-38.0,-15.0,49.0,77.244921875,-25.15,26.13863503125,33.45
2021-06-24 17:28:59.828125000,-38.0,-15.0,49.0,77.24296875,-30.2,26.1383948125,33.45
2021-06-24 17:28:59.835937500,-38.0,-15.0,49.0,77.241015625,-35.245,26.13815459375,33.45
2021-06-24 17:28:59.843750000,-38.0,-15.0,49.0,77.2390625,-40.29,26.137914374999998,33.45
2021-06-24 17:28:59.851562500,-38.0,-15.25,49.0,77.237109375,-45.55,26.13767415625,33.45
2021-06-24 17:28:59.859375000,-38.0,-15.5,49.0,77.23515625,-50.81,26.1374339375,33.45
2021-06-24 17:28:59.867187500,-38.0,-15.75,49.0,77.233203125,-56.519999999999996,26.137193718749998,33.45
2021-06-24 17:28:59.875000000,-38.0,-16.0,49.0,77.23125,-62.23,26.136953499999997,33.45
2021-06-24 17:28:59.882812500,-38.25,-16.0,49.0,77.229296875,-68.6,26.13671328125,33.45
2021-06-24 17:28:59.890625000,-38.5,-16.0,49.0,77.22734375,-74.97,26.1364730625,33.45
2021-06-24 17:28:59.898437500,-38.75,-16.0,49.0,77.225390625,-82.10499999999999,26.136232843749998,33.45
2021-06-24 17:28:59.906250000,-39.0,-16.0,49.0,77.2234375,-89.24,26.135992625,33.45
2021-06-24 17:28:59.914062500,-39.0,-15.75,49.0,77.221484375,-97.05,26.13575240625,33.45
2021-06-24 17:28:59.921875000,-39.0,-15.5,49.0,77.21953125,-104.86,26.135512187499998,33.45
2021-06-24 17:28:59.929687500,-39.0,-15.25,49.0,77.217578125,-112.88,26.135271968749997,33.45
2021-06-24 17:28:59.937500000,-39.0,-15.0,49.0,77.215625,-120.9,26.13503175,33.45
2021-06-24 17:28:59.945312500,-38.75,-15.0,49.0,77.213671875,-128.24,26.13479153125,33.45
2021-06-24 17:28:59.953125000,-38.5,-15.0,49.0,77.21171875,-135.58,26.134551312499998,33.45
2021-06-24 17:28:59.960937500,-38.25,-15.0,49.0,77.209765625,-141.01,26.13431109375,33.45
2021-06-24 17:28:59.968750000,-38.0,-15.0,49.0,77.2078125,-146.44,26.134070875,33.45
2021-06-24 17:28:59.976562500,-38.25,-15.0,49.0,77.205859375,-148.675,26.133830656249998,33.45
2021-06-24 17:28:59.984375000,-38.5,-15.0,49.0,77.20390625,-150.91,26.133590437499997,33.45
2021-06-24 17:28:59.992187500,-38.75,-15.0,49.0,77.201953125,-149.02499999999998,26.13335021875,33.45
2021-06-24 17:29:00.000000000,-39.0,-15.0,49.0,77.2,-147.14,26.13311,33.45
2021-06-24 17:29:00.007812500,-38.75,-15.25,49.0,77.198203125,-140.88,26.13671309375,33.449375
2021-06-24 17:29:00.015625000,-38.5,-15.5,49.0,77.19640625000001,-134.62,26.140316187499998,33.448750000000004
2021-06-24 17:29:00.023437500,-38.25,-15.75,49.0,77.194609375,-124.53999999999999,26.14391928125,33.448125000000005
2021-06-24 17:29:00.031250000,-38.0,-16.0,49.0,77.1928125,-114.46,26.147522374999998,33.447500000000005
2021-06-24 17:29:00.039062500,-38.0,-16.0,49.0,77.191015625,-101.695,26.15112546875,33.446875000000006
2021-06-24 17:29:00.046875000,-38.0,-16.0,49.0,77.18921875000001,-88.93,26.154728562499997,33.44625
2021-06-24 17:29:00.054687500,-38.0,-16.0,49.0,77.187421875,-74.875,26.15833165625,33.445625
2021-06-24 17:29:00.062500000,-38.0,-16.0,49.0,77.185625,-60.82,26.16193475,33.445
2021-06-24 17:29:00.070312500,-38.0,-16.0,49.0,77.183828125,-46.7,26.16553784375,33.444375
2021-06-24 17:29:00.078125000,-38.0,-16.0,49.0,77.18203125000001,-32.58,26.1691409375,33.44375
2021-06-24 17:29:00.085937500,-38.0,-16.0,49.0,77.180234375,-19.235,26.172744031249998,33.443125
2021-06-24 17:29:00.093750000,-38.0,-16.0,49.0,77.1784375,-5.89,26.176347125,33.4425
2021-06-24 17:29:00.101562500,-38.0,-15.75,49.0,77.176640625,6.2250000000000005,26.179950218749998,33.441875
2021-06-24 17:29:00.109375000,-38.0,-15.5,49.0,77.17484375000001,18.34,26.1835533125,33.441250000000004
2021-06-24 17:29:00.117187500,-38.0,-15.25,49.0,77.173046875,29.020000000000003,26.187156406249997,33.440625000000004
2021-06-24 17:29:00.125000000,-38.0,-15.0,49.0,77.17125,39.7,26.1907595,33.44
2021-06-24 17:29:00.132812500,-38.25,-15.25,49.0,77.169453125,48.84,26.19436259375,33.439375
2021-06-24 17:29:00.140625000,-38.5,-15.5,49.0,77.16765625000001,57.98,26.197965687499998,33.43875
2021-06-24 17:29:00.148437500,-38.75,-15.75,49.0,77.165859375,65.46,26.20156878125,33.438125
2021-06-24 17:29:00.156250000,-39.0,-16.0,49.0,77.1640625,72.94,26.205171874999998,33.4375
2021-06-24 17:29:00.164062500,-38.75,-15.75,49.0,77.162265625,78.67,26.20877496875,33.436875
2021-06-24 17:29:00.171875000,-38.5,-15.5,49.0,77.16046875,84.4,26.212378062499997,33.43625
2021-06-24 17:29:00.179687500,-38.25,-15.25,49.0,77.158671875,88.38,26.21598115625,33.435625
2021-06-24 17:29:00.187500000,-38.0,-15.0,49.0,77.156875,92.36,26.219584249999997,33.435
2021-06-24 17:29:00.195312500,-38.0,-15.25,49.0,77.155078125,94.75,26.22318734375,33.434375
2021-06-24 17:29:00.203125000,-38.0,-15.5,49.0,77.15328125,97.14,26.2267904375,33.43375
2021-06-24 17:29:00.210937500,-38.0,-15.75,49.0,77.151484375,98.245,26.230393531249998,33.433125
2021-06-24 17:29:00.218750000,-38.0,-16.0,49.0,77.1496875,99.35,26.233996625,33.4325
2021-06-24 17:29:00.226562500,-38.0,-16.0,49.0,77.147890625,99.57499999999999,26.237599718749998,33.431875
2021-06-24 17:29:00.234375000,-38.0,-16.0,49.0,77.14609375,99.8,26.2412028125,33.43125
2021-06-24 17:29:00.242187500,-38.0,-16.0,49.0,77.144296875,99.535,26.244805906249997,33.430625
2021-06-24 17:29:00.250000000,-38.0,-16.0,49.0,77.1425,99.27,26.248409,33.43
2021-06-24 17:29:00.257812500,-38.0,-16.0,49.0,77.140703125,98.815,26.2602191875,33.43
2021-06-24 17:29:00.265625000,-38.0,-16.0,49.0,77.13890625,98.36,26.272029375,33.43
2021-06-24 17:29:00.273437500,-38.0,-16.0,49.0,77.13710937500001,97.9,26.2838395625,33.43
2021-06-24 17:29:00.281250000,-38.0,-16.0,49.0,77.1353125,97.44,26.29564975,33.43
2021-06-24 17:29:00.289062500,-38.0,-15.75,49.0,77.133515625,97.05,26.3074599375,33.43
2021-06-24 17:29:00.296875000,-38.0,-15.5,49.0,77.13171875,96.66,26.319270125,33.43
2021-06-24 17:29:00.304687500,-38.0,-15.25,49.0,77.12992187500001,96.34,26.3310803125,33.43
2021-06-24 17:29:00.312500000,-38.0,-15.0,49.0,77.128125,96.02,26.3428905,33.43
2021-06-24 17:29:00.320312500,-38.0,-15.0,49.0,77.126328125,95.77,26.3547006875,33.43
2021-06-24 17:29:00.328125000,-38.0,-15.0,49.0,77.12453125,95.52,26.366510875,33.43
2021-06-24 17:29:00.335937500,-38.0,-15.0,49.0,77.12273437500001,95.28999999999999,26.3783210625,33.43
2021-06-24 17:29:00.343750000,-38.0,-15.0,49.0,77.1209375,95.06,26.39013125,33.43
2021-06-24 17:29:00.351562500,-38.25,-15.25,49.0,77.119140625,94.775,26.4019414375,33.43
2021-06-24 17:29:00.359375000,-38.5,-15.5,49.0,77.11734375,94.49,26.413751625,33.43
2021-06-24 17:29:00.367187500,-38.75,-15.75,49.0,77.115546875,94.00999999999999,26.4255618125,33.43
2021-06-24 17:29:00.375000000,-39.0,-16.0,49.0,77.11375,93.53,26.437372,33.43
2021-06-24 17:29:00.382812500,-38.75,-15.75,49.0,77.111953125,92.675,26.4491821875,33.43
2021-06-24 17:29:00.390625000,-38.5,-15.5,49.0,77.11015625,91.82,26.460992375,33.43
2021-06-24 17:29:00.398437500,-38.25,-15.25,49.0,77.108359375,90.41499999999999,26.4728025625,33.43
2021-06-24 17:29:00.406250000,-38.0,-15.0,49.0,77.1065625,89.01,26.48461275,33.43
2021-06-24 17:29:00.414062500,-38.0,-15.0,49.0,77.104765625,86.935,26.4964229375,33.43
2021-06-24 17:29:00.421875000,-38.0,-15.0,49.0,77.10296875,84.86,26.508233125,33.43
2021-06-24 17:29:00.429687500,-38.0,-15.0,49.0,77.101171875,82.10499999999999,26.5200433125,33.43
2021-06-24 17:29:00.437500000,-38.0,-15.0,49.0,77.099375,79.35,26.5318535,33.43
2021-06-24 17:29:00.445312500,-38.0,-15.25,49.0,77.097578125,75.995,26.5436636875,33.43
2021-06-24 17:29:00.453125000,-38.0,-15.5,49.0,77.09578125,72.64,26.555473875,33.43
2021-06-24 17:29:00.460937500,-38.0,-15.75,49.0,77.093984375,68.845,26.5672840625,33.43
2021-06-24 17:29:00.468750000,-38.0,-16.0,49.0,77.0921875,65.05,26.57909425,33.43
2021-06-24 17:29:00.476562500,-38.0,-15.75,49.0,77.090390625,60.974999999999994,26.5909044375,33.43
2021-06-24 17:29:00.484375000,-38.0,-15.5,49.0,77.08859375,56.9,26.602714625,33.43
2021-06-24 17:29:00.492187500,-38.0,-15.25,49.0,77.086796875,52.625,26.6145248125,33.43
2021-06-24 17:29:00.500000000,-38.0,-15.0,49.0,77.08500000000001,48.35,26.626335,33.43
2021-06-24 17:29:00.507812500,-38.0,-15.25,49.0,77.083203125,43.89,26.633581187500003,33.43
2021-06-24 17:29:00.515625000,-38.0,-15.5,49.0,77.08140625,39.43,26.640827375,33.43
2021-06-24 17:29:00.523437500,-38.0,-15.75,49.0,77.079609375,34.735,26.648073562500002,33.43
2021-06-24 17:29:00.531250000,-38.0,-16.0,49.0,77.07781250000001,30.04,26.65531975,33.43
2021-06-24 17:29:00.539062500,-38.0,-15.75,49.0,77.076015625,25.064999999999998,26.662565937500002,33.43
2021-06-24 17:29:00.546875000,-38.0,-15.5,49.0,77.07421875,20.09,26.669812125,33.43
2021-06-24 17:29:00.554687500,-38.0,-15.25,49.0,77.072421875,14.844999999999999,26.6770583125,33.43
2021-06-24 17:29:00.562500000,-38.0,-15.0,49.0,77.070625,9.6,26.6843045,33.43
2021-06-24 17:29:00.570312500,-38.0,-15.0,49.0,77.068828125,4.2,26.6915506875,33.43
2021-06-24 17:29:00.578125000,-38.0,-15.0,49.0,77.06703125,-1.2,26.698796875,33.43
2021-06-24 17:29:00.585937500,-38.0,-15.0,49.0,77.065234375,-6.585000000000001,26.7060430625,33.43
2021-06-24 17:29:00.593750000,-38.0,-15.0,49.0,77.0634375,-11.97,26.71328925,33.43
2021-06-24 17:29:00.601562500,-38.25,-15.0,49.0,77.061640625,-17.15,26.7205354375,33.43
2021-06-24 17:29:00.609375000,-38.5,-15.0,49.0,77.05984375,-22.33,26.727781625,33.43
2021-06-24 17:29:00.617187500,-38.75,-15.0,49.0,77.058046875,-27.23,26.7350278125,33.43
2021-06-24 17:29:00.625000000,-39.0,-15.0,49.0,77.05625,-32.13,26.742274000000002,33.43
2021-06-24 17:29:00.632812500,-38.75,-15.25,49.0,77.054453125,-36.805,26.7495201875,33.43
2021-06-24 17:29:00.640625000,-38.5,-15.5,49.0,77.05265625,-41.48,26.756766375,33.43
2021-06-24 17:29:00.648437500,-38.25,-15.75,49.0,77.050859375,-46.185,26.7640125625,33.43
2021-06-24 17:29:00.656250000,-38.0,-16.0,49.0,77.0490625,-50.89,26.77125875,33.43
2021-06-24 17:29:00.664062500,-38.0,-16.0,49.0,77.047265625,-56.0,26.7785049375,33.43
2021-06-24 17:29:00.671875000,-38.0,-16.0,49.0,77.04546875,-61.11,26.785751125,33.43
2021-06-24 17:29:00.679687500,-38.0,-16.0,49.0,77.043671875,-66.995,26.7929973125,33.43
2021-06-24 17:29:00.687500000,-38.0,-16.0,49.0,77.041875,-72.88,26.8002435,33.43
2021-06-24 17:29:00.695312500,-38.25,-16.0,49.0,77.040078125,-79.695,26.8074896875,33.43
2021-06-24 17:29:00.703125000,-38.5,-16.0,49.0,77.03828125,-86.51,26.814735875,33.43
2021-06-24 17:29:00.710937500,-38.75,-16.0,49.0,77.036484375,-94.005,26.8219820625,33.43
2021-06-24 17:29:00.718750000,-39.0,-16.0,49.0,77.0346875,-101.5,26.82922825,33.43
2021-06-24 17:29:00.726562500,-38.75,-16.0,49.0,77.032890625,-108.97,26.836474437499998,33.43
2021-06-24 17:29:00.734375000,-38.5,-16.0,49.0,77.03109375,-116.44,26.843720625,33.43
2021-06-24 17:29:00.742187500,-38.25,-16.0,49.0,77.029296875,-122.77,26.850966812499998,33.43
2021-06-24 17:29:00.750000000,-38.0,-16.0,49.0,77.0275,-129.1,26.858213,33.43
2021-06-24 17:29:00.757812500,-38.25,-15.75,49.0,77.025703125,-133.04500000000002,26.861696,33.43
2021-06-24 17:29:00.765625000,-38.5,-15.5,49.0,77.02390625,-136.99,26.865178999999998,33.43
2021-06-24 17:29:00.773437500,-38.75,-15.25,49.0,77.022109375,-137.5,26.868662,33.43
2021-06-24 17:29:00.781250000,-39.0,-15.0,49.0,77.0203125,-138.01,26.872145,33.43
2021-06-24 17:29:00.789062500,-38.75,-15.25,49.0,77.018515625,-134.54500000000002,26.875628,33.43
2021-06-24 17:29:00.796875000,-38.5,-15.5,49.0,77.01671875,-131.08,26.879110999999998,33.43
2021-06-24 17:29:00.804687500,-38.25,-15.75,49.0,77.014921875,-123.76,26.882594,33.43
2021-06-24 17:29:00.812500000,-38.0,-16.0,49.0,77.013125,-116.44,26.886077,33.43
2021-06-24 17:29:00.820312500,-38.0,-16.0,49.0,77.011328125,-106.0,26.88956,33.43
2021-06-24 17:29:00.828125000,-38.0,-16.0,49.0,77.00953125,-95.56,26.893043,33.43
2021-06-24 17:29:00.835937500,-38.0,-16.0,49.0,77.007734375,-83.14,26.896525999999998,33.43
2021-06-24 17:29:00.843750000,-38.0,-16.0,49.0,77.0059375,-70.72,26.900009,33.43
2021-06-24 17:29:00.851562500,-38.25,-16.0,49.0,77.004140625,-57.55,26.903492,33.43
2021-06-24 17:29:00.859375000,-38.5,-16.0,49.0,77.00234375,-44.38,26.906975,33.43
2021-06-24 17:29:00.867187500,-38.75,-16.0,49.0,77.000546875,-31.545,26.910458,33.43
2021-06-24 17:29:00.875000000,-39.0,-16.0,49.0,76.99875,-18.71,26.913941,33.43
2021-06-24 17:29:00.882812500,-38.75,-16.0,49.0,76.996953125,-6.965,26.917424,33.43
2021-06-24 17:29:00.890625000,-38.5,-16.0,49.0,76.99515625,4.78,26.920907,33.43
2021-06-24 17:29:00.898437500,-38.25,-16.0,49.0,76.993359375,15.035,26.92439,33.43
2021-06-24 17:29:00.906250000,-38.0,-16.0,49.0,76.9915625,25.29,26.927872999999998,33.43
2021-06-24 17:29:00.914062500,-38.25,-15.75,49.0,76.989765625,33.915,26.931356,33.43
2021-06-24 17:29:00.921875000,-38.5,-15.5,49.0,76.98796875,42.54,26.934839,33.43
2021-06-24 17:29:00.929687500,-38.75,-15.25,49.0,76.986171875,49.535,26.938322,33.43
2021-06-24 17:29:00.937500000,-39.0,-15.0,49.0,76.984375,56.53,26.941805,33.43
2021-06-24 17:29:00.945312500,-38.75,-15.25,49.0,76.982578125,61.94,26.945287999999998,33.43
2021-06-24 17:29:00.953125000,-38.5,-15.5,49.0,76.98078124999999,67.35,26.948771,33.43
2021-06-24 17:29:00.960937500,-38.25,-15.75,49.0,76.978984375,71.22,26.952254,33.43
2021-06-24 17:29:00.968750000,-38.0,-16.0,49.0,76.9771875,75.09,26.955737,33.43
2021-06-24 17:29:00.976562500,-38.0,-16.0,49.0,76.975390625,77.49000000000001,26.95922,33.43
2021-06-24 17:29:00.984375000,-38.0,-16.0,49.0,76.97359374999999,79.89,26.962703,33.43
2021-06-24 17:29:00.992187500,-38.0,-16.0,49.0,76.971796875,80.99000000000001,26.966186,33.43
2021-06-24 17:29:01.000000000,-38.0,-16.0,49.0,76.97,82.09,26.969669,33.43
2021-06-24 17:29:01.007812500,-38.0,-16.0,49.0,76.96828125,82.185,26.97127034375,33.43
2021-06-24 17:29:01.015625000,-38.0,-16.0,49.0,76.9665625,82.28,26.9728716875,33.43
2021-06-24 17:29:01.023437500,-38.0,-16.0,49.0,76.96484375,81.78,26.97447303125,33.43
2021-06-24 17:29:01.031250000,-38.0,-16.0,49.0,76.963125,81.28,26.976074375,33.43
2021-06-24 17:29:01.039062500,-38.0,-15.75,49.0,76.96140625,80.595,26.97767571875,33.43
2021-06-24 17:29:01.046875000,-38.0,-15.5,49.0,76.9596875,79.91,26.9792770625,33.43
2021-06-24 17:29:01.054687500,-38.0,-15.25,49.0,76.95796874999999,79.37,26.98087840625,33.43
2021-06-24 17:29:01.062500000,-38.0,-15.0,49.0,76.95625,78.83,26.98247975,33.43
2021-06-24 17:29:01.070312500,-38.25,-15.25,49.0,76.95453125,78.57,26.98408109375,33.43
2021-06-24 17:29:01.078125000,-38.5,-15.5,49.0,76.9528125,78.31,26.9856824375,33.43
2021-06-24 17:29:01.085937500,-38.75,-15.75,49.0,76.95109375,78.295,26.98728378125,33.43
2021-06-24 17:29:01.093750000,-39.0,-16.0,49.0,76.949375,78.28,26.988885125,33.43
2021-06-24 17:29:01.101562500,-38.75,-16.0,49.0,76.94765625,78.38499999999999,26.99048646875,33.43
2021-06-24 17:29:01.109375000,-38.5,-16.0,49.0,76.9459375,78.49,26.9920878125,33.43
2021-06-24 17:29:01.117187500,-38.25,-16.0,49.0,76.94421875,78.555,26.99368915625,33.43
2021-06-24 17:29:01.125000000,-38.0,-16.0,49.0,76.9425,78.62,26.9952905,33.43
2021-06-24 17:29:01.132812500,-38.0,-16.0,49.0,76.94078125,78.535,26.99689184375,33.43
2021-06-24 17:29:01.140625000,-38.0,-16.0,49.0,76.9390625,78.45,26.9984931875,33.43
2021-06-24 17:29:01.148437500,-38.0,-16.0,49.0,76.93734375,78.125,27.00009453125,33.43
2021-06-24 17:29:01.156250000,-38.0,-16.0,49.0,76.935625,77.8,27.001695875,33.43
2021-06-24 17:29:01.164062500,-38.0,-16.0,49.0,76.93390624999999,77.16499999999999,27.00329721875,33.43
2021-06-24 17:29:01.171875000,-38.0,-16.0,49.0,76.9321875,76.53,27.0048985625,33.43
2021-06-24 17:29:01.179687500,-38.0,-16.0,49.0,76.93046875,75.48,27.00649990625,33.43
2021-06-24 17:29:01.187500000,-38.0,-16.0,49.0,76.92875,74.43,27.00810125,33.43
2021-06-24 17:29:01.195312500,-38.0,-16.0,49.0,76.92703125,72.88,27.00970259375,33.43
2021-06-24 17:29:01.203125000,-38.0,-16.0,49.0,76.9253125,71.33,27.0113039375,33.43
2021-06-24 17:29:01.210937500,-38.0,-16.0,49.0,76.92359375,69.24000000000001,27.01290528125,33.43
2021-06-24 17:29:01.218750000,-38.0,-16.0,49.0,76.921875,67.15,27.014506625,33.43
2021-06-24 17:29:01.226562500,-38.0,-16.0,49.0,76.92015625,64.53,27.01610796875,33.43
2021-06-24 17:29:01.234375000,-38.0,-16.0,49.0,76.9184375,61.91,27.0177093125,33.43
2021-06-24 17:29:01.242187500,-38.0,-16.0,49.0,76.91671875,58.825,27.01931065625,33.43
2021-06-24 17:29:01.250000000,-38.0,-16.0,49.0,76.91499999999999,55.74,27.020912,33.43
2021-06-24 17:29:01.257812500,-38.0,-16.0,49.0,76.91328125,52.25,27.01911046875,33.43
2021-06-24 17:29:01.265625000,-38.0,-16.0,49.0,76.9115625,48.76,27.017308937499998,33.43
2021-06-24 17:29:01.273437500,-38.0,-16.0,49.0,76.90984375,44.92,27.01550740625,33.43
2021-06-24 17:29:01.281250000,-38.0,-16.0,49.0,76.908125,41.08,27.013705875,33.43
2021-06-24 17:29:01.289062500,-38.0,-16.0,49.0,76.90640625,36.915,27.01190434375,33.43
2021-06-24 17:29:01.296875000,-38.0,-16.0,49.0,76.9046875,32.75,27.0101028125,33.43
2021-06-24 17:29:01.304687500,-38.0,-16.0,49.0,76.90296875,28.28,27.00830128125,33.43
2021-06-24 17:29:01.312500000,-38.0,-16.0,49.0,76.90125,23.81,27.00649975,33.43
2021-06-24 17:29:01.320312500,-38.0,-16.0,49.25,76.89953125,19.085,27.00469821875,33.43
2021-06-24 17:29:01.328125000,-38.0,-16.0,49.5,76.8978125,14.36,27.002896687499998,33.43
2021-06-24 17:29:01.335937500,-38.0,-16.0,49.75,76.89609375,9.475,27.00109515625,33.43
2021-06-24 17:29:01.343750000,-38.0,-16.0,50.0,76.894375,4.59,26.999293625,33.43
2021-06-24 17:29:01.351562500,-38.25,-16.0,49.75,76.89265625,-0.3250000000000002,26.99749209375,33.43
2021-06-24 17:29:01.359375000,-38.5,-16.0,49.5,76.89093749999999,-5.24,26.995690562500002,33.43
2021-06-24 17:29:01.367187500,-38.75,-16.0,49.25,76.88921875,-10.055,26.99388903125,33.43
2021-06-24 17:29:01.375000000,-39.0,-16.0,49.0,76.8875,-14.87,26.9920875,33.43
2021-06-24 17:29:01.382812500,-38.75,-16.0,49.0,76.88578125,-19.474999999999998,26.99028596875,33.43
2021-06-24 17:29:01.390625000,-38.5,-16.0,49.0,76.8840625,-24.08,26.9884844375,33.43
2021-06-24 17:29:01.398437500,-38.25,-16.0,49.0,76.88234375,-28.43,26.98668290625,33.43
2021-06-24 17:29:01.406250000,-38.0,-16.0,49.0,76.880625,-32.78,26.984881375,33.43
2021-06-24 17:29:01.414062500,-38.0,-16.0,49.0,76.87890625,-36.91,26.98307984375,33.43
2021-06-24 17:29:01.421875000,-38.0,-16.0,49.0,76.8771875,-41.04,26.981278312500002,33.43
2021-06-24 17:29:01.429687500,-38.0,-16.0,49.0,76.87546875,-45.09,26.97947678125,33.43
2021-06-24 17:29:01.437500000,-38.0,-16.0,49.0,76.87375,-49.14,26.97767525,33.43
2021-06-24 17:29:01.445312500,-38.0,-16.0,49.0,76.87203125,-53.36,26.97587371875,33.43
2021-06-24 17:29:01.453125000,-38.0,-16.0,49.0,76.8703125,-57.58,26.9740721875,33.43
2021-06-24 17:29:01.460937500,-38.0,-16.0,49.0,76.86859375,-62.265,26.97227065625,33.43
2021-06-24 17:29:01.468750000,-38.0,-16.0,49.0,76.866875,-66.95,26.970469125,33.43
2021-06-24 17:29:01.476562500,-38.0,-16.0,49.25,76.86515625,-72.32,26.968667593750002,33.43
2021-06-24 17:29:01.484375000,-38.0,-16.0,49.5,76.8634375,-77.69,26.966866062500003,33.43
2021-06-24 17:29:01.492187500,-38.0,-16.0,49.75,76.86171875,-83.695,26.96506453125,33.43
2021-06-24 17:29:01.500000000,-38.0,-16.0,50.0,76.86,-89.7,26.963263,33.43
2021-06-24 17:29:01.507812500,-38.0,-16.0,49.75,76.85828125,-95.89500000000001,26.961381375000002,33.43
2021-06-24 17:29:01.515625000,-38.0,-16.0,49.5,76.8565625,-102.09,26.959499750000003,33.43
2021-06-24 17:29:01.523437500,-38.0,-16.0,49.25,76.85484375,-107.625,26.957618125,33.43
2021-06-24 17:29:01.531250000,-38.0,-16.0,49.0,76.853125,-113.16,26.9557365,33.43
2021-06-24 17:29:01.539062500,-38.0,-16.0,49.25,76.85140625,-116.94,26.953854875,33.43
2021-06-24 17:29:01.546875000,-38.0,-16.0,49.5,76.8496875,-120.72,26.95197325,33.43
2021-06-24 17:29:01.554687500,-38.0,-16.0,49.75,76.84796874999999,-121.7,26.950091625000002,33.43
2021-06-24 17:29:01.562500000,-38.0,-16.0,50.0,76.84625,-122.68,26.948210000000003,33.43
2021-06-24 17:29:01.570312500,-38.0,-16.0,49.75,76.84453125,-120.225,26.946328375,33.43
2021-06-24 17:29:01.578125000,-38.0,-16.0,49.5,76.8428125,-117.77,26.94444675,33.43
2021-06-24 17:29:01.585937500,-38.0,-16.0,49.25,76.84109375,-111.845,26.942565125,33.43
2021-06-24 17:29:01.593750000,-38.0,-16.0,49.0,76.839375,-105.92,26.940683500000002,33.43
2021-06-24 17:29:01.601562500,-38.0,-16.0,49.0,76.83765625,-97.125,26.938801875000003,33.43
2021-06-24 17:29:01.609375000,-38.0,-16.0,49.0,76.8359375,-88.33,26.93692025,33.43
2021-06-24 17:29:01.617187500,-38.0,-16.0,49.0,76.83421875,-77.695,26.935038625,33.43
2021-06-24 17:29:01.625000000,-38.0,-16.0,49.0,76.8325,-67.06,26.933157,33.43
2021-06-24 17:29:01.632812500,-38.0,-16.0,49.0,76.83078125,-55.705,26.931275375000002,33.43
2021-06-24 17:29:01.640625000,-38.0,-16.0,49.0,76.8290625,-44.35,26.929393750000003,33.43
2021-06-24 17:29:01.648437500,-38.0,-16.0,49.0,76.82734375,-33.255,26.927512125,33.43
2021-06-24 17:29:01.656250000,-38.0,-16.0,49.0,76.825625,-22.16,26.9256305,33.43
2021-06-24 17:29:01.664062500,-38.0,-16.0,49.0,76.82390625,-11.97,26.923748875,33.43
2021-06-24 17:29:01.671875000,-38.0,-16.0,49.0,76.8221875,-1.78,26.921867250000002,33.43
2021-06-24 17:29:01.679687500,-38.0,-16.0,49.0,76.82046875,7.14,26.919985625000002,33.43
2021-06-24 17:29:01.687500000,-38.0,-16.0,49.0,76.81875,16.06,26.918104,33.43
2021-06-24 17:29:01.695312500,-38.0,-16.0,49.0,76.81703125,23.515,26.916222375,33.43
2021-06-24 17:29:01.703125000,-38.0,-16.0,49.0,76.8153125,30.97,26.91434075,33.43
2021-06-24 17:29:01.710937500,-38.0,-16.0,49.0,76.81359375,36.84,26.912459125,33.43
2021-06-24 17:29:01.718750000,-38.0,-16.0,49.0,76.811875,42.71,26.910577500000002,33.43
2021-06-24 17:29:01.726562500,-38.0,-16.0,49.0,76.81015625,46.885000000000005,26.908695875000003,33.43
2021-06-24 17:29:01.734375000,-38.0,-16.0,49.0,76.8084375,51.06,26.90681425,33.43
2021-06-24 17:29:01.742187500,-38.0,-16.0,49.0,76.80671875,53.53,26.904932625,33.43
2021-06-24 17:29:01.750000000,-38.0,-16.0,49.0,76.805,56.0,26.903051,33.43
2021-06-24 17:29:01.757812500,-38.0,-16.0,49.0,76.80328125,56.92,26.89916771875,33.43
2021-06-24 17:29:01.765625000,-38.0,-16.0,49.0,76.8015625,57.84,26.895284437500003,33.43
2021-06-24 17:29:01.773437500,-38.0,-16.0,49.0,76.79984375,57.565,26.89140115625,33.43
2021-06-24 17:29:01.781250000,-38.0,-16.0,49.0,76.798125,57.29,26.887517875,33.43
2021-06-24 17:29:01.789062500,-38.0,-16.0,49.0,76.79640625,56.32,26.883634593750003,33.43
2021-06-24 17:29:01.796875000,-38.0,-16.0,49.0,76.7946875,55.35,26.8797513125,33.43
2021-06-24 17:29:01.804687500,-38.0,-16.0,49.0,76.79296875,54.225,26.87586803125,33.43
2021-06-24 17:29:01.812500000,-38.0,-16.0,49.0,76.79125,53.1,26.871984750000003,33.43
2021-06-24 17:29:01.820312500,-38.0,-16.0,49.0,76.78953125,52.230000000000004,26.86810146875,33.43
2021-06-24 17:29:01.828125000,-38.0,-16.0,49.0,76.7878125,51.36,26.8642181875,33.43
2021-06-24 17:29:01.835937500,-38.0,-16.0,49.0,76.78609375,50.955,26.86033490625,33.43
2021-06-24 17:29:01.843750000,-38.0,-16.0,49.0,76.784375,50.55,26.856451625000002,33.43
2021-06-24 17:29:01.851562500,-38.0,-16.0,49.0,76.78265625,50.59,26.85256834375,33.43
2021-06-24 17:29:01.859375000,-38.0,-16.0,49.0,76.7809375,50.63,26.8486850625,33.43
2021-06-24 17:29:01.867187500,-38.0,-16.0,49.0,76.77921875,50.935,26.844801781250002,33.43
2021-06-24 17:29:01.875000000,-38.0,-16.0,49.0,76.7775,51.24,26.8409185,33.43
2021-06-24 17:29:01.882812500,-38.0,-16.0,49.0,76.77578125,51.585,26.83703521875,33.43
2021-06-24 17:29:01.890625000,-38.0,-16.0,49.0,76.7740625,51.93,26.833151937500002,33.43
2021-06-24 17:29:01.898437500,-38.0,-16.0,49.0,76.77234375,52.105000000000004,26.82926865625,33.43
2021-06-24 17:29:01.906250000,-38.0,-16.0,49.0,76.770625,52.28,26.825385375,33.43
2021-06-24 17:29:01.914062500,-38.25,-16.0,49.0,76.76890625,52.18,26.821502093750002,33.43
2021-06-24 17:29:01.921875000,-38.5,-16.0,49.0,76.7671875,52.08,26.8176188125,33.43
2021-06-24 17:29:01.929687500,-38.75,-16.0,49.0,76.76546875,51.66,26.81373553125,33.43
2021-06-24 17:29:01.937500000,-39.0,-16.0,49.0,76.76375,51.24,26.80985225,33.43
2021-06-24 17:29:01.945312500,-38.75,-16.0,49.0,76.76203125,50.540000000000006,26.80596896875,33.43
2021-06-24 17:29:01.953125000,-38.5,-16.0,49.0,76.7603125,49.84,26.8020856875,33.43
2021-06-24 17:29:01.960937500,-38.25,-16.0,49.0,76.75859375,48.88,26.79820240625,33.43
2021-06-24 17:29:01.968750000,-38.0,-16.0,49.0,76.756875,47.92,26.794319125,33.43
2021-06-24 17:29:01.976562500,-38.0,-16.0,49.0,76.75515625,46.69,26.79043584375,33.43
2021-06-24 17:29:01.984375000,-38.0,-16.0,49.0,76.7534375,45.46,26.7865525625,33.43
2021-06-24 17:29:01.992187500,-38.0,-16.0,49.0,76.75171875,43.879999999999995,26.78266928125,33.43
2021-06-24 17:29:02.000000000,-38.0,-16.0,49.0,76.75,42.3,26.778786,33.43
2021-06-24 17:29:02.007812500,-38.0,-16.0,49.0,76.74859375,40.25,26.77302103125,33.430625
2021-06-24 17:29:02.015625000,-38.0,-16.0,49.0,76.7471875,38.2,26.7672560625,33.43125
2021-06-24 17:29:02.023437500,-38.0,-16.0,49.0,76.74578125,35.56,26.76149109375,33.431875
2021-06-24 17:29:02.031250000,-38.0,-16.0,49.0,76.744375,32.92,26.755726125,33.4325
2021-06-24 17:29:02.039062500,-38.0,-16.0,49.0,76.74296875,29.64,26.74996115625,33.433125
2021-06-24 17:29:02.046875000,-38.0,-16.0,49.0,76.7415625,26.36,26.744196187500002,33.43375
2021-06-24 17:29:02.054687500,-38.0,-16.0,49.0,76.74015625,22.475,26.73843121875,33.434375
2021-06-24 17:29:02.062500000,-38.0,-16.0,49.0,76.73875,18.59,26.73266625,33.435
2021-06-24 17:29:02.070312500,-38.25,-16.0,49.25,76.73734375,14.254999999999999,26.72690128125,33.435625
2021-06-24 17:29:02.078125000,-38.5,-16.0,49.5,76.7359375,9.92,26.7211363125,33.43625
2021-06-24 17:29:02.085937500,-38.75,-16.0,49.75,76.73453125,5.335,26.71537134375,33.436875
2021-06-24 17:29:02.093750000,-39.0,-16.0,50.0,76.733125,0.75,26.709606375,33.4375
2021-06-24 17:29:02.101562500,-38.75,-16.0,50.0,76.73171875,-3.835,26.70384140625,33.438125
2021-06-24 17:29:02.109375000,-38.5,-16.0,50.0,76.7303125,-8.42,26.6980764375,33.43875
2021-06-24 17:29:02.117187500,-38.25,-16.0,50.0,76.72890625,-12.844999999999999,26.69231146875,33.439375
2021-06-24 17:29:02.125000000,-38.0,-16.0,50.0,76.72749999999999,-17.27,26.6865465,33.44
2021-06-24 17:29:02.132812500,-38.0,-16.0,49.75,76.72609375,-21.439999999999998,26.680781531250002,33.440625000000004
2021-06-24 17:29:02.140625000,-38.0,-16.0,49.5,76.7246875,-25.61,26.6750165625,33.441250000000004
2021-06-24 17:29:02.148437500,-38.0,-16.0,49.25,76.72328125,-29.555,26.66925159375,33.441875
2021-06-24 17:29:02.156250000,-38.0,-16.0,49.0,76.721875,-33.5,26.663486625,33.4425
2021-06-24 17:29:02.164062500,-38.0,-16.0,49.0,76.72046875,-37.39,26.65772165625,33.443125
2021-06-24 17:29:02.171875000,-38.0,-16.0,49.0,76.71906249999999,-41.28,26.6519566875,33.44375
2021-06-24 17:29:02.179687500,-38.0,-16.0,49.0,76.71765625,-45.379999999999995,26.64619171875,33.444375
2021-06-24 17:29:02.187500000,-38.0,-16.0,49.0,76.71625,-49.48,26.64042675,33.445
2021-06-24 17:29:02.195312500,-38.0,-16.0,49.25,76.71484375,-54.114999999999995,26.63466178125,33.445625
2021-06-24 17:29:02.203125000,-38.0,-16.0,49.5,76.7134375,-58.75,26.6288968125,33.44625
2021-06-24 17:29:02.210937500,-38.0,-16.0,49.75,76.71203125,-64.17,26.623131843750002,33.446875000000006
2021-06-24 17:29:02.218750000,-38.0,-16.0,50.0,76.710625,-69.59,26.617366875000002,33.447500000000005
2021-06-24 17:29:02.226562500,-38.25,-16.0,49.75,76.70921875,-75.845,26.61160190625,33.448125000000005
2021-06-24 17:29:02.234375000,-38.5,-16.0,49.5,76.7078125,-82.1,26.6058369375,33.448750000000004
2021-06-24 17:29:02.242187500,-38.75,-16.0,49.25,76.70640625,-88.91999999999999,26.60007196875,33.449375
2021-06-24 17:29:02.250000000,-39.0,-16.0,49.0,76.705,-95.74,26.594307,33.45
2021-06-24 17:29:02.257812500,-38.75,-16.0,49.0,76.70359375,-102.49,26.588662125,33.45
2021-06-24 17:29:02.265625000,-38.5,-16.0,49.0,76.7021875,-109.24,26.58301725,33.45
2021-06-24 17:29:02.273437500,-38.25,-16.0,49.0,76.70078124999999,-114.99,26.577372375,33.45
2021-06-24 17:29:02.281250000,-38.0,-16.0,49.0,76.699375,-120.74,26.5717275,33.45
2021-06-24 17:29:02.289062500,-38.0,-16.0,49.0,76.69796875,-124.445,26.566082625,33.45
2021-06-24 17:29:02.296875000,-38.0,-16.0,49.0,76.6965625,-128.15,26.560437750000002,33.45
2021-06-24 17:29:02.304687500,-38.0,-16.0,49.0,76.69515625,-128.94,26.554792875,33.45
2021-06-24 17:29:02.312500000,-38.0,-16.0,49.0,76.69375,-129.73,26.549148000000002,33.45
2021-06-24 17:29:02.320312500,-38.0,-16.0,49.0,76.69234374999999,-127.125,26.543503125,33.45
2021-06-24 17:29:02.328125000,-38.0,-16.0,49.0,76.6909375,-124.52,26.53785825,33.45
2021-06-24 17:29:02.335937500,-38.0,-16.0,49.0,76.68953125,-118.56,26.532213375,33.45
2021-06-24 17:29:02.343750000,-38.0,-16.0,49.0,76.688125,-112.6,26.5265685,33.45
2021-06-24 17:29:02.351562500,-38.0,-16.0,49.0,76.68671875,-103.845,26.520923625000002,33.45
2021-06-24 17:29:02.359375000,-38.0,-16.0,49.0,76.6853125,-95.09,26.51527875,33.45
2021-06-24 17:29:02.367187500,-38.0,-16.0,49.0,76.68390624999999,-84.48,26.509633875000002,33.45
2021-06-24 17:29:02.375000000,-38.0,-16.0,49.0,76.6825,-73.87,26.503989,33.45
2021-06-24 17:29:02.382812500,-38.0,-16.0,49.0,76.68109375,-62.44500000000001,26.498344125,33.45
2021-06-24 17:29:02.390625000,-38.0,-16.0,49.0,76.6796875,-51.02,26.49269925,33.45
2021-06-24 17:29:02.398437500,-38.0,-16.0,49.0,76.67828125,-39.72,26.487054375,33.45
2021-06-24 17:29:02.406250000,-38.0,-16.0,49.0,76.676875,-28.42,26.4814095,33.45
2021-06-24 17:29:02.414062500,-38.0,-16.0,49.0,76.67546875,-17.91,26.475764625,33.45
2021-06-24 17:29:02.421875000,-38.0,-16.0,49.0,76.67406249999999,-7.4,26.470119750000002,33.45
2021-06-24 17:29:02.429687500,-38.0,-16.0,49.0,76.67265625,1.955,26.464474875,33.45
2021-06-24 17:29:02.437500000,-38.0,-16.0,49.0,76.67125,11.31,26.45883,33.45
2021-06-24 17:29:02.445312500,-38.0,-16.0,49.0,76.66984375,19.375,26.453185125,33.45
2021-06-24 17:29:02.453125000,-38.0,-16.0,49.0,76.6684375,27.44,26.44754025,33.45
2021-06-24 17:29:02.460937500,-38.0,-16.0,49.0,76.66703125,34.175,26.441895375,33.45
2021-06-24 17:29:02.468750000,-38.0,-16.0,49.0,76.66562499999999,40.91,26.4362505,33.45
2021-06-24 17:29:02.476562500,-38.0,-16.0,49.0,76.66421875,46.305,26.430605625000002,33.45
2021-06-24 17:29:02.484375000,-38.0,-16.0,49.0,76.6628125,51.7,26.42496075,33.45
2021-06-24 17:29:02.492187500,-38.0,-16.0,49.0,76.66140625,55.730000000000004,26.419315875000002,33.45
2021-06-24 17:29:02.500000000,-38.0,-16.0,49.0,76.66,59.76,26.413671,33.45
2021-06-24 17:29:02.507812500,-38.0,-16.0,49.25,76.65859375,62.44499999999999,26.40974765625,33.45
2021-06-24 17:29:02.515625000,-38.0,-16.0,49.5,76.65718749999999,65.13,26.405824312500002,33.45
2021-06-24 17:29:02.523437500,-38.0,-16.0,49.75,76.65578124999999,66.62,26.401900968750002,33.45
2021-06-24 17:29:02.531250000,-38.0,-16.0,50.0,76.654375,68.11,26.397977625,33.45
2021-06-24 17:29:02.539062500,-38.0,-16.0,49.75,76.65296875,68.675,26.39405428125,33.45
2021-06-24 17:29:02.546875000,-38.0,-16.0,49.5,76.6515625,69.24,26.3901309375,33.45
2021-06-24 17:29:02.554687500,-38.0,-16.0,49.25,76.65015625,69.22999999999999,26.38620759375,33.45
2021-06-24 17:29:02.562500000,-38.0,-16.0,49.0,76.64874999999999,69.22,26.38228425,33.45
2021-06-24 17:29:02.570312500,-38.25,-16.0,49.0,76.64734374999999,68.97,26.378360906250002,33.45
2021-06-24 17:29:02.578125000,-38.5,-16.0,49.0,76.6459375,68.72,26.3744375625,33.45
2021-06-24 17:29:02.585937500,-38.75,-16.0,49.0,76.64453125,68.445,26.37051421875,33.45
2021-06-24 17:29:02.593750000,-39.0,-16.0,49.0,76.643125,68.17,26.366590875,33.45
2021-06-24 17:29:02.601562500,-38.75,-16.0,49.0,76.64171875,67.94,26.36266753125,33.45
2021-06-24 17:29:02.609375000,-38.5,-16.0,49.0,76.6403125,67.71,26.3587441875,33.45
2021-06-24 17:29:02.617187500,-38.25,-16.0,49.0,76.63890624999999,67.50999999999999,26.35482084375,33.45
2021-06-24 17:29:02.625000000,-38.0,-16.0,49.0,76.63749999999999,67.31,26.350897500000002,33.45
2021-06-24 17:29:02.632812500,-38.0,-16.0,49.0,76.63609375,67.105,26.34697415625,33.45
2021-06-24 17:29:02.640625000,-38.0,-16.0,49.0,76.6346875,66.9,26.3430508125,33.45
2021-06-24 17:29:02.648437500,-38.0,-16.0,49.0,76.63328125,66.71000000000001,26.33912746875,33.45
2021-06-24 17:29:02.656250000,-38.0,-16.0,49.0,76.631875,66.52,26.335204125,33.45
2021-06-24 17:29:02.664062500,-38.0,-16.0,49.0,76.63046874999999,66.37,26.33128078125,33.45
2021-06-24 17:29:02.671875000,-38.0,-16.0,49.0,76.62906249999999,66.22,26.3273574375,33.45
2021-06-24 17:29:02.679687500,-38.0,-16.0,49.0,76.62765625,66.11,26.32343409375,33.45
2021-06-24 17:29:02.687500000,-38.0,-16.0,49.0,76.62625,66.0,26.31951075,33.45
2021-06-24 17:29:02.695312500,-38.0,-16.0,49.0,76.62484375,65.84,26.31558740625,33.45
2021-06-24 17:29:02.703125000,-38.0,-16.0,49.0,76.6234375,65.68,26.3116640625,33.45
2021-06-24 17:29:02.710937500,-38.0,-16.0,49.0,76.62203124999999,65.285,26.30774071875,33.45
2021-06-24 17:29:02.718750000,-38.0,-16.0,49.0,76.62062499999999,64.89,26.303817375,33.45
2021-06-24 17:29:02.726562500,-38.0,-16.0,49.0,76.61921875,64.005,26.29989403125,33.45
2021-06-24 17:29:02.734375000,-38.0,-16.0,49.0,76.6178125,63.12,26.2959706875,33.45
2021-06-24 17:29:02.742187500,-38.0,-16.0,49.0,76.61640625,61.545,26.29204734375,33.45
2021-06-24 17:29:02.750000000,-38.0,-16.0,49.0,76.615,59.97,26.288124,33.45
2021-06-24 17:29:02.757812500,-38.0,-16.0,49.0,76.61359374999999,57.61,26.287723624999998,33.45
2021-06-24 17:29:02.765625000,-38.0,-16.0,49.0,76.61218749999999,55.25,26.28732325,33.45
2021-06-24 17:29:02.773437500,-38.0,-16.0,49.0,76.61078124999999,52.17,26.286922875,33.45
2021-06-24 17:29:02.781250000,-38.0,-16.0,49.0,76.609375,49.09,26.2865225,33.45
2021-06-24 17:29:02.789062500,-38.0,-16.0,49.0,76.60796875,45.495000000000005,26.286122125,33.45
2021-06-24 17:29:02.796875000,-38.0,-16.0,49.0,76.6065625,41.9,26.28572175,33.45
2021-06-24 17:29:02.804687500,-38.0,-16.0,49.0,76.60515625,38.04,26.285321375,33.45
2021-06-24 17:29:02.812500000,-38.0,-16.0,49.0,76.60374999999999,34.18,26.284921,33.45
2021-06-24 17:29:02.820312500,-38.0,-16.0,49.0,76.60234374999999,30.265,26.284520625,33.45
2021-06-24 17:29:02.828125000,-38.0,-16.0,49.0,76.6009375,26.35,26.28412025,33.45
2021-06-24 17:29:02.835937500,-38.0,-16.0,49.0,76.59953125,22.450000000000003,26.283719875,33.45
2021-06-24 17:29:02.843750000,-38.0,-16.0,49.0,76.598125,18.55,26.2833195,33.45
2021-06-24 17:29:02.851562500,-38.0,-16.0,49.0,76.59671875,14.595,26.282919125,33.45
2021-06-24 17:29:02.859375000,-38.0,-16.0,49.0,76.59531249999999,10.64,26.28251875,33.45
2021-06-24 17:29:02.867187500,-38.0,-16.0,49.0,76.59390624999999,6.4750000000000005,26.282118375,33.45
2021-06-24 17:29:02.875000000,-38.0,-16.0,49.0,76.5925,2.31,26.281717999999998,33.45
2021-06-24 17:29:02.882812500,-38.0,-16.0,49.0,76.59109375,-2.195,26.281317625,33.45
2021-06-24 17:29:02.890625000,-38.0,-16.0,49.0,76.5896875,-6.7,26.280917249999998,33.45
2021-06-24 17:29:02.898437500,-38.0,-16.0,49.0,76.58828125,-11.560000000000002,26.280516875,33.45
2021-06-24 17:29:02.906250000,-38.0,-16.0,49.0,76.58687499999999,-16.42,26.2801165,33.45
2021-06-24 17:29:02.914062500,-38.0,-16.0,49.25,76.58546874999999,-21.495,26.279716125,33.45
2021-06-24 17:29:02.921875000,-38.0,-16.0,49.5,76.58406249999999,-26.57,26.27931575,33.45
2021-06-24 17:29:02.929687500,-38.0,-16.0,49.75,76.58265625,-31.615,26.278915375,33.45
2021-06-24 17:29:02.937500000,-38.0,-16.0,50.0,76.58125,-36.66,26.278515,33.45
2021-06-24 17:29:02.945312500,-38.0,-16.0,49.75,76.57984375,-41.425,26.278114625,33.45
2021-06-24 17:29:02.953125000,-38.0,-16.0,49.5,76.57843749999999,-46.19,26.27771425,33.45
2021-06-24 17:29:02.960937500,-38.0,-16.0,49.25,76.57703124999999,-50.555,26.277313875,33.45
2021-06-24 17:29:02.968750000,-38.0,-16.0,49.0,76.57562499999999,-54.92,26.2769135,33.45
2021-06-24 17:29:02.976562500,-38.0,-16.0,49.0,76.57421875,-58.925,26.276513125,33.45
2021-06-24 17:29:02.984375000,-38.0,-16.0,49.0,76.5728125,-62.93,26.27611275,33.45
2021-06-24 17:29:02.992187500,-38.0,-16.0,49.0,76.57140625,-66.805,26.275712375,33.45
2021-06-24 17:29:03.000000000,-38.0,-16.0,49.0,76.57,-70.68,26.275312,33.45
2021-06-24 17:29:03.007812500,-38.0,-16.0,49.0,76.56843749999999,-74.795,26.27691340625,33.45
2021-06-24 17:29:03.015625000,-38.0,-16.0,49.0,76.566875,-78.91,26.2785148125,33.45
2021-06-24 17:29:03.023437500,-38.0,-16.0,49.0,76.56531249999999,-83.645,26.28011621875,33.45
2021-06-24 17:29:03.031250000,-38.0,-16.0,49.0,76.56375,-88.38,26.281717625,33.45
2021-06-24 17:29:03.039062500,-38.25,-16.0,49.0,76.5621875,-94.0,26.28331903125,33.45
2021-06-24 17:29:03.046875000,-38.5,-16.0,49.0,76.56062499999999,-99.62,26.2849204375,33.45
2021-06-24 17:29:03.054687500,-38.75,-16.0,49.0,76.5590625,-106.125,26.28652184375,33.45
2021-06-24 17:29:03.062500000,-39.0,-16.0,49.0,76.55749999999999,-112.63,26.288123249999998,33.45
2021-06-24 17:29:03.070312500,-38.75,-16.0,49.0,76.5559375,-119.62,26.28972465625,33.45
2021-06-24 17:29:03.078125000,-38.5,-16.0,49.0,76.554375,-126.61,26.2913260625,33.45
2021-06-24 17:29:03.085937500,-38.25,-16.0,49.0,76.55281249999999,-133.26,26.29292746875,33.45
2021-06-24 17:29:03.093750000,-38.0,-16.0,49.0,76.55125,-139.91,26.294528875,33.45
2021-06-24 17:29:03.101562500,-38.0,-15.75,49.0,76.54968749999999,-145.1,26.29613028125,33.45
2021-06-24 17:29:03.109375000,-38.0,-15.5,49.0,76.548125,-150.29,26.2977316875,33.45
2021-06-24 17:29:03.117187500,-38.0,-15.25,49.0,76.5465625,-152.875,26.29933309375,33.45
2021-06-24 17:29:03.125000000,-38.0,-15.0,49.0,76.54499999999999,-155.46,26.3009345,33.45
2021-06-24 17:29:03.132812500,-38.0,-15.25,49.0,76.5434375,-154.61,26.30253590625,33.45
2021-06-24 17:29:03.140625000,-38.0,-15.5,49.0,76.54187499999999,-153.76,26.3041373125,33.45
2021-06-24 17:29:03.148437500,-38.0,-15.75,49.0,76.5403125,-149.2,26.30573871875,33.45
2021-06-24 17:29:03.156250000,-38.0,-16.0,49.0,76.53875,-144.64,26.307340125,33.45
2021-06-24 17:29:03.164062500,-38.0,-16.0,49.0,76.5371875,-136.72,26.30894153125,33.45
2021-06-24 17:29:03.171875000,-38.0,-16.0,49.0,76.535625,-128.8,26.3105429375,33.45
2021-06-24 17:29:03.179687500,-38.0,-16.0,49.0,76.53406249999999,-118.34,26.31214434375,33.45
2021-06-24 17:29:03.187500000,-38.0,-16.0,49.0,76.5325,-107.88,26.313745750000002,33.45
2021-06-24 17:29:03.195312500,-38.0,-16.0,49.0,76.5309375,-95.91999999999999,26.315347156250002,33.45
2021-06-24 17:29:03.203125000,-38.0,-16.0,49.0,76.529375,-83.96,26.316948562500002,33.45
2021-06-24 17:29:03.210937500,-38.0,-16.0,49.0,76.5278125,-71.47,26.318549968750002,33.45
2021-06-24 17:29:03.218750000,-38.0,-16.0,49.0,76.52624999999999,-58.98,26.320151375000002,33.45
2021-06-24 17:29:03.226562500,-38.0,-15.75,49.0,76.5246875,-46.709999999999994,26.32175278125,33.45
2021-06-24 17:29:03.234375000,-38.0,-15.5,49.0,76.523125,-34.44,26.3233541875,33.45
2021-06-24 17:29:03.242187500,-38.0,-15.25,49.0,76.5215625,-22.884999999999998,26.32495559375,33.45
2021-06-24 17:29:03.250000000,-38.0,-15.0,49.0,76.52,-11.33,26.326557,33.45
2021-06-24 17:29:03.257812500,-38.0,-15.25,49.25,76.51843749999999,-0.8250000000000011,26.330960781250003,33.45
2021-06-24 17:29:03.265625000,-38.0,-15.5,49.5,76.516875,9.68,26.3353645625,33.45
2021-06-24 17:29:03.273437500,-38.0,-15.75,49.75,76.5153125,18.884999999999998,26.339768343750002,33.45
2021-06-24 17:29:03.281250000,-38.0,-16.0,50.0,76.51375,28.09,26.344172125,33.45
2021-06-24 17:29:03.289062500,-38.25,-16.0,49.75,76.5121875,35.81,26.34857590625,33.45
2021-06-24 17:29:03.296875000,-38.5,-16.0,49.5,76.51062499999999,43.53,26.3529796875,33.45
2021-06-24 17:29:03.304687500,-38.75,-16.0,49.25,76.5090625,49.644999999999996,26.35738346875,33.45
2021-06-24 17:29:03.312500000,-39.0,-16.0,49.0,76.5075,55.76,26.36178725,33.45
2021-06-24 17:29:03.320312500,-38.75,-15.75,49.0,76.5059375,60.28999999999999,26.36619103125,33.45
2021-06-24 17:29:03.328125000,-38.5,-15.5,49.0,76.504375,64.82,26.370594812500002,33.45
2021-06-24 17:29:03.335937500,-38.25,-15.25,49.0,76.50281249999999,67.935,26.37499859375,33.45
2021-06-24 17:29:03.343750000,-38.0,-15.0,49.0,76.50125,71.05,26.379402375,33.45
2021-06-24 17:29:03.351562500,-38.0,-15.25,49.0,76.4996875,73.03,26.38380615625,33.45
2021-06-24 17:29:03.359375000,-38.0,-15.5,49.0,76.498125,75.01,26.3882099375,33.45
2021-06-24 17:29:03.367187500,-38.0,-15.75,49.0,76.4965625,76.16499999999999,26.39261371875,33.45
2021-06-24 17:29:03.375000000,-38.0,-16.0,49.0,76.495,77.32,26.3970175,33.45
2021-06-24 17:29:03.382812500,-38.0,-16.0,49.0,76.4934375,77.94999999999999,26.401421281250002,33.45
2021-06-24 17:29:03.390625000,-38.0,-16.0,49.0,76.491875,78.58,26.4058250625,33.45
2021-06-24 17:29:03.398437500,-38.0,-16.0,49.0,76.4903125,78.875,26.41022884375,33.45
2021-06-24 17:29:03.406250000,-38.0,-16.0,49.0,76.48875,79.17,26.414632625,33.45
2021-06-24 17:29:03.414062500,-38.0,-16.0,49.0,76.4871875,79.265,26.41903640625,33.45
2021-06-24 17:29:03.421875000,-38.0,-16.0,49.0,76.485625,79.36,26.4234401875,33.45
2021-06-24 17:29:03.429687500,-38.0,-16.0,49.0,76.4840625,79.32,26.42784396875,33.45
2021-06-24 17:29:03.437500000,-38.0,-16.0,49.0,76.4825,79.28,26.432247750000002,33.45
2021-06-24 17:29:03.445312500,-38.0,-16.0,49.0,76.4809375,79.195,26.43665153125,33.45
2021-06-24 17:29:03.453125000,-38.0,-16.0,49.0,76.479375,79.11,26.4410553125,33.45
2021-06-24 17:29:03.460937500,-38.0,-16.0,49.0,76.4778125,79.075,26.44545909375,33.45
2021-06-24 17:29:03.468750000,-38.0,-16.0,49.0,76.47625,79.04,26.449862875,33.45
2021-06-24 17:29:03.476562500,-38.0,-16.0,49.0,76.4746875,79.14500000000001,26.45426665625,33.45
2021-06-24 17:29:03.484375000,-38.0,-16.0,49.0,76.473125,79.25,26.4586704375,33.45
2021-06-24 17:29:03.492187500,-38.0,-16.0,49.0,76.4715625,79.535,26.46307421875,33.45
2021-06-24 17:29:03.500000000,-38.0,-16.0,49.0,76.47,79.82,26.467478,33.45
2021-06-24 17:29:03.507812500,-38.0,-16.0,49.0,76.4684375,80.235,26.46775825,33.45
2021-06-24 17:29:03.515625000,-38.0,-16.0,49.0,76.466875,80.65,26.4680385,33.45
2021-06-24 17:29:03.523437500,-38.0,-16.0,49.0,76.4653125,81.02000000000001,26.468318749999998,33.45
2021-06-24 17:29:03.531250000,-38.0,-16.0,49.0,76.46375,81.39,26.468599,33.45
2021-06-24 17:29:03.539062500,-38.25,-16.0,49.0,76.4621875,81.425,26.46887925,33.45
2021-06-24 17:29:03.546875000,-38.5,-16.0,49.0,76.460625,81.46,26.4691595,33.45
2021-06-24 17:29:03.554687500,-38.75,-16.0,49.0,76.4590625,80.845,26.46943975,33.45
2021-06-24 17:29:03.562500000,-39.0,-16.0,49.0,76.4575,80.23,26.46972,33.45
2021-06-24 17:29:03.570312500,-39.0,-16.0,49.0,76.4559375,78.67500000000001,26.47000025,33.45
2021-06-24 17:29:03.578125000,-39.0,-16.0,49.0,76.454375,77.12,26.4702805,33.45
2021-06-24 17:29:03.585937500,-39.0,-16.0,49.0,76.4528125,74.495,26.47056075,33.45
2021-06-24 17:29:03.593750000,-39.0,-16.0,49.0,76.45125,71.87,26.470841,33.45
2021-06-24 17:29:03.601562500,-38.75,-16.0,49.25,76.4496875,68.225,26.47112125,33.45
2021-06-24 17:29:03.609375000,-38.5,-16.0,49.5,76.448125,64.58,26.4714015,33.45
2021-06-24 17:29:03.617187500,-38.25,-16.0,49.75,76.4465625,60.19,26.47168175,33.45
2021-06-24 17:29:03.625000000,-38.0,-16.0,50.0,76.445,55.8,26.471961999999998,33.45
2021-06-24 17:29:03.632812500,-38.0,-16.0,49.75,76.4434375,51.095,26.47224225,33.45
2021-06-24 17:29:03.640625000,-38.0,-16.0,49.5,76.441875,46.39,26.4725225,33.45
2021-06-24 17:29:03.648437500,-38.0,-16.0,49.25,76.4403125,41.805,26.47280275,33.45
2021-06-24 17:29:03.656250000,-38.0,-16.0,49.0,76.43875,37.22,26.473083,33.45
2021-06-24 17:29:03.664062500,-38.0,-15.75,49.0,76.43718750000001,33.075,26.47336325,33.45
2021-06-24 17:29:03.671875000,-38.0,-15.5,49.0,76.435625,28.93,26.473643499999998,33.45
2021-06-24 17:29:03.679687500,-38.0,-15.25,49.0,76.4340625,25.3,26.47392375,33.45
2021-06-24 17:29:03.687500000,-38.0,-15.0,49.0,76.4325,21.67,26.474204,33.45
2021-06-24 17:29:03.695312500,-38.25,-15.25,48.75,76.4309375,18.385,26.47448425,33.45
2021-06-24 17:29:03.703125000,-38.5,-15.5,48.5,76.42937500000001,15.1,26.4747645,33.45
2021-06-24 17:29:03.710937500,-38.75,-15.75,48.25,76.4278125,11.83,26.47504475,33.45
2021-06-24 17:29:03.718750000,-39.0,-16.0,48.0,76.42625,8.56,26.475324999999998,33.45
2021-06-24 17:29:03.726562500,-38.75,-15.75,48.5,76.4246875,4.965,26.47560525,33.45
2021-06-24 17:29:03.734375000,-38.5,-15.5,49.0,76.423125,1.37,26.4758855,33.45
2021-06-24 17:29:03.742187500,-38.25,-15.25,49.5,76.42156250000001,-2.745,26.47616575,33.45
2021-06-24 17:29:03.750000000,-38.0,-15.0,50.0,76.42,-6.86,26.476446,33.45
2021-06-24 17:29:03.757812500,-38.0,-15.0,50.0,76.4184375,-11.48,26.477807124999998,33.45
2021-06-24 17:29:03.765625000,-38.0,-15.0,50.0,76.416875,-16.1,26.47916825,33.45
2021-06-24 17:29:03.773437500,-38.0,-15.0,50.0,76.4153125,-21.015,26.480529375,33.45
2021-06-24 17:29:03.781250000,-38.0,-15.0,50.0,76.41375000000001,-25.93,26.4818905,33.45
2021-06-24 17:29:03.789062500,-38.0,-15.25,49.75,76.4121875,-30.835,26.483251625,33.45
2021-06-24 17:29:03.796875000,-38.0,-15.5,49.5,76.410625,-35.74,26.48461275,33.45
2021-06-24 17:29:03.804687500,-38.0,-15.75,49.25,76.4090625,-40.365,26.485973875,33.45
2021-06-24 17:29:03.812500000,-38.0,-16.0,49.0,76.4075,-44.99,26.487335,33.45
2021-06-24 17:29:03.820312500,-38.0,-16.0,49.0,76.40593750000001,-49.205,26.488696125,33.45
2021-06-24 17:29:03.828125000,-38.0,-16.0,49.0,76.404375,-53.42,26.49005725,33.45
2021-06-24 17:29:03.835937500,-38.0,-16.0,49.0,76.4028125,-57.28,26.491418375,33.45
2021-06-24 17:29:03.843750000,-38.0,-16.0,49.0,76.40125,-61.14,26.4927795,33.45
2021-06-24 17:29:03.851562500,-38.0,-16.0,49.0,76.3996875,-64.88499999999999,26.494140625,33.45
2021-06-24 17:29:03.859375000,-38.0,-16.0,49.0,76.39812500000001,-68.63,26.49550175,33.45
2021-06-24 17:29:03.867187500,-38.0,-16.0,49.0,76.3965625,-72.615,26.496862875,33.45
2021-06-24 17:29:03.875000000,-38.0,-16.0,49.0,76.39500000000001,-76.6,26.498224,33.45
2021-06-24 17:29:03.882812500,-38.0,-16.0,49.0,76.3934375,-81.19999999999999,26.499585125,33.45
2021-06-24 17:29:03.890625000,-38.0,-16.0,49.0,76.391875,-85.8,26.500946250000002,33.45
2021-06-24 17:29:03.898437500,-38.0,-16.0,49.0,76.39031250000001,-91.285,26.502307375,33.45
2021-06-24 17:29:03.906250000,-38.0,-16.0,49.0,76.38875,-96.77,26.5036685,33.45
2021-06-24 17:29:03.914062500,-38.0,-16.0,49.0,76.38718750000001,-103.16,26.505029625000002,33.45
2021-06-24 17:29:03.921875000,-38.0,-16.0,49.0,76.385625,-109.55,26.50639075,33.45
2021-06-24 17:29:03.929687500,-38.0,-16.0,49.0,76.3840625,-116.49000000000001,26.507751875,33.45
2021-06-24 17:29:03.937500000,-38.0,-16.0,49.0,76.38250000000001,-123.43,26.509113,33.45
2021-06-24 17:29:03.945312500,-38.0,-16.0,49.25,76.3809375,-130.14,26.510474125000002,33.45
2021-06-24 17:29:03.953125000,-38.0,-16.0,49.5,76.37937500000001,-136.85,26.51183525,33.45
2021-06-24 17:29:03.960937500,-38.0,-16.0,49.75,76.3778125,-142.245,26.513196375,33.45
2021-06-24 17:29:03.968750000,-38.0,-16.0,50.0,76.37625,-147.64,26.514557500000002,33.45
2021-06-24 17:29:03.976562500,-38.0,-16.0,49.75,76.37468750000001,-150.55,26.515918625,33.45
2021-06-24 17:29:03.984375000,-38.0,-16.0,49.5,76.373125,-153.46,26.51727975,33.45
2021-06-24 17:29:03.992187500,-38.0,-16.0,49.25,76.37156250000001,-152.97,26.518640875000003,33.45
2021-06-24 17:29:04.000000000,-38.0,-16.0,49.0,76.37,-152.48,26.520002,33.45
2021-06-24 17:29:04.007812500,-38.25,-16.0,49.0,76.368671875,-148.195,26.5180003125,33.45
2021-06-24 17:29:04.015625000,-38.5,-16.0,49.0,76.36734375,-143.91,26.515998625,33.45
2021-06-24 17:29:04.023437500,-38.75,-16.0,49.0,76.366015625,-136.015,26.5139969375,33.45
2021-06-24 17:29:04.031250000,-39.0,-16.0,49.0,76.3646875,-128.12,26.511995250000002,33.45
2021-06-24 17:29:04.039062500,-38.75,-16.0,49.0,76.363359375,-117.36500000000001,26.5099935625,33.45
2021-06-24 17:29:04.046875000,-38.5,-16.0,49.0,76.36203125,-106.61,26.507991875000002,33.45
2021-06-24 17:29:04.054687500,-38.25,-16.0,49.0,76.360703125,-94.065,26.5059901875,33.45
2021-06-24 17:29:04.062500000,-38.0,-16.0,49.0,76.359375,-81.52,26.503988500000002,33.45
2021-06-24 17:29:04.070312500,-38.0,-16.0,49.0,76.358046875,-68.315,26.5019868125,33.45
2021-06-24 17:29:04.078125000,-38.0,-16.0,49.0,76.35671875,-55.11,26.499985125000002,33.45
2021-06-24 17:29:04.085937500,-38.0,-16.0,49.0,76.355390625,-42.245,26.4979834375,33.45
2021-06-24 17:29:04.093750000,-38.0,-16.0,49.0,76.3540625,-29.38,26.495981750000002,33.45
2021-06-24 17:29:04.101562500,-38.0,-16.0,49.0,76.35273437500001,-17.58,26.4939800625,33.45
2021-06-24 17:29:04.109375000,-38.0,-16.0,49.0,76.35140625000001,-5.78,26.491978375000002,33.45
2021-06-24 17:29:04.117187500,-38.0,-16.0,49.0,76.35007812500001,4.510000000000001,26.4899766875,33.45
2021-06-24 17:29:04.125000000,-38.0,-16.0,49.0,76.34875000000001,14.8,26.487975,33.45
2021-06-24 17:29:04.132812500,-38.0,-16.0,49.0,76.34742187500001,23.375,26.4859733125,33.45
2021-06-24 17:29:04.140625000,-38.0,-16.0,49.0,76.34609375000001,31.95,26.483971625,33.45
2021-06-24 17:29:04.148437500,-38.0,-16.0,49.0,76.34476562500001,38.79,26.4819699375,33.45
2021-06-24 17:29:04.156250000,-38.0,-16.0,49.0,76.34343750000001,45.63,26.47996825,33.45
2021-06-24 17:29:04.164062500,-38.0,-16.0,49.0,76.342109375,50.84,26.4779665625,33.45
2021-06-24 17:29:04.171875000,-38.0,-16.0,49.0,76.34078125,56.05,26.475964875,33.45
2021-06-24 17:29:04.179687500,-38.0,-16.0,49.0,76.339453125,59.795,26.4739631875,33.45
2021-06-24 17:29:04.187500000,-38.0,-16.0,49.0,76.338125,63.54,26.4719615,33.45
2021-06-24 17:29:04.195312500,-38.0,-16.0,49.0,76.336796875,66.065,26.4699598125,33.45
2021-06-24 17:29:04.203125000,-38.0,-16.0,49.0,76.33546875,68.59,26.467958125,33.45
2021-06-24 17:29:04.210937500,-38.0,-16.0,49.0,76.334140625,70.15,26.4659564375,33.45
2021-06-24 17:29:04.218750000,-38.0,-16.0,49.0,76.3328125,71.71,26.46395475,33.45
2021-06-24 17:29:04.226562500,-38.0,-16.0,49.25,76.331484375,72.59,26.4619530625,33.45
2021-06-24 17:29:04.234375000,-38.0,-16.0,49.5,76.33015625,73.47,26.459951375,33.45
2021-06-24 17:29:04.242187500,-38.0,-16.0,49.75,76.328828125,73.935,26.4579496875,33.45
2021-06-24 17:29:04.250000000,-38.0,-16.0,50.0,76.3275,74.4,26.455948,33.45
2021-06-24 17:29:04.257812500,-38.0,-16.0,49.75,76.326171875,74.67,26.45470690625,33.45
2021-06-24 17:29:04.265625000,-38.0,-16.0,49.5,76.32484375,74.94,26.4534658125,33.45
2021-06-24 17:29:04.273437500,-38.0,-16.0,49.25,76.323515625,75.15,26.45222471875,33.45
2021-06-24 17:29:04.281250000,-38.0,-16.0,49.0,76.3221875,75.36,26.450983625,33.45
2021-06-24 17:29:04.289062500,-38.0,-16.0,49.0,76.320859375,75.565,26.44974253125,33.45
2021-06-24 17:29:04.296875000,-38.0,-16.0,49.0,76.31953125,75.77,26.4485014375,33.45
2021-06-24 17:29:04.304687500,-38.0,-16.0,49.0,76.31820312500001,75.965,26.44726034375,33.45
2021-06-24 17:29:04.312500000,-38.0,-16.0,49.0,76.31687500000001,76.16,26.44601925,33.45
2021-06-24 17:29:04.320312500,-38.25,-16.0,49.0,76.31554687500001,76.34,26.44477815625,33.45
2021-06-24 17:29:04.328125000,-38.5,-16.0,49.0,76.31421875000001,76.52,26.4435370625,33.45
2021-06-24 17:29:04.335937500,-38.75,-16.0,49.0,76.31289062500001,76.66499999999999,26.44229596875,33.45
2021-06-24 17:29:04.343750000,-39.0,-16.0,49.0,76.31156250000001,76.81,26.441054875,33.45
2021-06-24 17:29:04.351562500,-38.75,-16.0,49.0,76.31023437500001,76.93,26.43981378125,33.45
2021-06-24 17:29:04.359375000,-38.5,-16.0,49.0,76.30890625,77.05,26.4385726875,33.45
2021-06-24 17:29:04.367187500,-38.25,-16.0,49.0,76.307578125,77.10499999999999,26.43733159375,33.45
2021-06-24 17:29:04.375000000,-38.0,-16.0,49.0,76.30625,77.16,26.4360905,33.45
2021-06-24 17:29:04.382812500,-38.0,-16.0,49.0,76.304921875,77.055,26.43484940625,33.45
2021-06-24 17:29:04.390625000,-38.0,-16.0,49.0,76.30359375,76.95,26.4336083125,33.45
2021-06-24 17:29:04.398437500,-38.0,-16.0,49.0,76.302265625,76.5,26.43236721875,33.45
2021-06-24 17:29:04.406250000,-38.0,-16.0,49.0,76.3009375,76.05,26.431126125,33.45
2021-06-24 17:29:04.414062500,-38.0,-16.0,49.0,76.299609375,75.05,26.42988503125,33.45
2021-06-24 17:29:04.421875000,-38.0,-16.0,49.0,76.29828125,74.05,26.4286439375,33.45
2021-06-24 17:29:04.429687500,-38.0,-16.0,49.0,76.296953125,72.345,26.42740284375,33.45
2021-06-24 17:29:04.437500000,-38.0,-16.0,49.0,76.295625,70.64,26.42616175,33.45
2021-06-24 17:29:04.445312500,-38.0,-16.0,49.0,76.294296875,68.19,26.42492065625,33.45
2021-06-24 17:29:04.453125000,-38.0,-16.0,49.0,76.29296875,65.74,26.4236795625,33.45
2021-06-24 17:29:04.460937500,-38.0,-16.0,49.0,76.291640625,62.64,26.42243846875,33.45
2021-06-24 17:29:04.468750000,-38.0,-16.0,49.0,76.2903125,59.54,26.421197375,33.45
2021-06-24 17:29:04.476562500,-38.0,-16.0,49.0,76.288984375,55.97,26.41995628125,33.45
2021-06-24 17:29:04.484375000,-38.0,-16.0,49.0,76.28765625,52.4,26.4187151875,33.45
2021-06-24 17:29:04.492187500,-38.0,-16.0,49.0,76.286328125,48.555,26.41747409375,33.45
2021-06-24 17:29:04.500000000,-38.0,-16.0,49.0,76.285,44.71,26.416233,33.45
2021-06-24 17:29:04.507812500,-38.0,-16.0,49.0,76.28367187500001,40.695,26.41222959375,33.45
2021-06-24 17:29:04.515625000,-38.0,-16.0,49.0,76.28234375000001,36.68,26.4082261875,33.45
2021-06-24 17:29:04.523437500,-38.0,-16.0,49.0,76.28101562500001,32.515,26.40422278125,33.45
2021-06-24 17:29:04.531250000,-38.0,-16.0,49.0,76.27968750000001,28.35,26.400219375,33.45
2021-06-24 17:29:04.539062500,-38.0,-16.0,49.0,76.27835937500001,23.96,26.39621596875,33.45
2021-06-24 17:29:04.546875000,-38.0,-16.0,49.0,76.27703125000001,19.57,26.3922125625,33.45
2021-06-24 17:29:04.554687500,-38.0,-16.0,49.0,76.275703125,14.875,26.38820915625,33.45
2021-06-24 17:29:04.562500000,-38.0,-16.0,49.0,76.274375,10.18,26.38420575,33.45
2021-06-24 17:29:04.570312500,-38.0,-16.0,49.0,76.273046875,5.21,26.38020234375,33.45
2021-06-24 17:29:04.578125000,-38.0,-16.0,49.0,76.27171875,0.24,26.3761989375,33.45
2021-06-24 17:29:04.585937500,-38.0,-16.0,49.0,76.270390625,-4.87,26.37219553125,33.45
2021-06-24 17:29:04.593750000,-38.0,-16.0,49.0,76.2690625,-9.98,26.368192125,33.45
2021-06-24 17:29:04.601562500,-38.0,-16.0,49.0,76.267734375,-15.0,26.36418871875,33.45
2021-06-24 17:29:04.609375000,-38.0,-16.0,49.0,76.26640625,-20.02,26.3601853125,33.45
2021-06-24 17:29:04.617187500,-38.0,-16.0,49.0,76.265078125,-24.77,26.35618190625,33.45
2021-06-24 17:29:04.625000000,-38.0,-16.0,49.0,76.26375,-29.52,26.3521785,33.45
2021-06-24 17:29:04.632812500,-38.0,-16.0,49.0,76.262421875,-33.905,26.348175093749997,33.45
2021-06-24 17:29:04.640625000,-38.0,-16.0,49.0,76.26109375,-38.29,26.344171687499998,33.45
2021-06-24 17:29:04.648437500,-38.0,-16.0,49.0,76.259765625,-42.42,26.340168281249998,33.45
2021-06-24 17:29:04.656250000,-38.0,-16.0,49.0,76.2584375,-46.55,26.336164874999998,33.45
2021-06-24 17:29:04.664062500,-38.0,-16.0,49.0,76.257109375,-50.675,26.332161468749998,33.45
2021-06-24 17:29:04.671875000,-38.0,-16.0,49.0,76.25578125,-54.8,26.3281580625,33.45
2021-06-24 17:29:04.679687500,-38.0,-16.0,49.0,76.254453125,-59.26,26.32415465625,33.45
2021-06-24 17:29:04.687500000,-38.0,-16.0,49.0,76.253125,-63.72,26.32015125,33.45
2021-06-24 17:29:04.695312500,-38.0,-16.0,49.25,76.251796875,-68.82,26.31614784375,33.45
2021-06-24 17:29:04.703125000,-38.0,-16.0,49.5,76.25046875000001,-73.92,26.3121444375,33.45
2021-06-24 17:29:04.710937500,-38.0,-16.0,49.75,76.24914062500001,-79.795,26.30814103125,33.45
2021-06-24 17:29:04.718750000,-38.0,-16.0,50.0,76.24781250000001,-85.67,26.304137625,33.45
2021-06-24 17:29:04.726562500,-38.25,-16.0,49.75,76.24648437500001,-92.2,26.30013421875,33.45
2021-06-24 17:29:04.734375000,-38.5,-16.0,49.5,76.24515625000001,-98.73,26.2961308125,33.45
2021-06-24 17:29:04.742187500,-38.75,-16.0,49.25,76.24382812500001,-105.43,26.29212740625,33.45
2021-06-24 17:29:04.750000000,-39.0,-16.0,49.0,76.2425,-112.13,26.288124,33.45
2021-06-24 17:29:04.757812500,-38.75,-16.0,49.0,76.241171875,-118.15,26.2864425625,33.45
2021-06-24 17:29:04.765625000,-38.5,-16.0,49.0,76.23984375,-124.17,26.284761125,33.45
2021-06-24 17:29:04.773437500,-38.25,-16.0,49.0,76.238515625,-128.455,26.2830796875,33.45
2021-06-24 17:29:04.781250000,-38.0,-16.0,49.0,76.2371875,-132.74,26.28139825,33.45
2021-06-24 17:29:04.789062500,-38.0,-16.0,49.0,76.235859375,-134.255,26.2797168125,33.45
2021-06-24 17:29:04.796875000,-38.0,-16.0,49.0,76.23453125,-135.77,26.278035374999998,33.45
2021-06-24 17:29:04.804687500,-38.0,-16.0,49.0,76.233203125,-133.82,26.276353937499998,33.45
2021-06-24 17:29:04.812500000,-38.0,-16.0,49.0,76.231875,-131.87,26.2746725,33.45
2021-06-24 17:29:04.820312500,-38.25,-16.0,49.0,76.230546875,-126.315,26.2729910625,33.45
2021-06-24 17:29:04.828125000,-38.5,-16.0,49.0,76.22921875,-120.76,26.271309625,33.45
2021-06-24 17:29:04.835937500,-38.75,-16.0,49.0,76.227890625,-112.075,26.2696281875,33.45
2021-06-24 17:29:04.843750000,-39.0,-16.0,49.0,76.2265625,-103.39,26.26794675,33.45
2021-06-24 17:29:04.851562500,-38.75,-16.0,49.0,76.225234375,-92.505,26.2662653125,33.45
2021-06-24 17:29:04.859375000,-38.5,-16.0,49.0,76.22390625,-81.62,26.264583875,33.45
2021-06-24 17:29:04.867187500,-38.25,-16.0,49.0,76.222578125,-69.64500000000001,26.2629024375,33.45
2021-06-24 17:29:04.875000000,-38.0,-16.0,49.0,76.22125,-57.67,26.261221,33.45
2021-06-24 17:29:04.882812500,-38.0,-16.0,49.25,76.219921875,-45.605000000000004,26.2595395625,33.45
2021-06-24 17:29:04.890625000,-38.0,-16.0,49.5,76.21859375,-33.54,26.257858125,33.45
2021-06-24 17:29:04.898437500,-38.0,-16.0,49.75,76.217265625,-22.115,26.256176687499998,33.45
2021-06-24 17:29:04.906250000,-38.0,-16.0,50.0,76.21593750000001,-10.69,26.254495249999998,33.45
2021-06-24 17:29:04.914062500,-38.0,-16.0,49.75,76.21460937500001,-0.375,26.252813812499998,33.45
2021-06-24 17:29:04.921875000,-38.0,-16.0,49.5,76.21328125000001,9.94,26.251132374999997,33.45
2021-06-24 17:29:04.929687500,-38.0,-16.0,49.25,76.21195312500001,18.839999999999996,26.249450937499997,33.45
2021-06-24 17:29:04.937500000,-38.0,-16.0,49.0,76.21062500000001,27.74,26.247769499999997,33.45
2021-06-24 17:29:04.945312500,-38.25,-16.0,49.0,76.209296875,34.964999999999996,26.2460880625,33.45
2021-06-24 17:29:04.953125000,-38.5,-16.0,49.0,76.20796875,42.19,26.244406625,33.45
2021-06-24 17:29:04.960937500,-38.75,-16.0,49.0,76.206640625,47.489999999999995,26.2427251875,33.45
2021-06-24 17:29:04.968750000,-39.0,-16.0,49.0,76.2053125,52.79,26.24104375,33.45
2021-06-24 17:29:04.976562500,-38.75,-16.0,49.0,76.203984375,56.025,26.2393623125,33.45
2021-06-24 17:29:04.984375000,-38.5,-16.0,49.0,76.20265625,59.26,26.237680875,33.45
2021-06-24 17:29:04.992187500,-38.25,-16.0,49.0,76.201328125,60.485,26.2359994375,33.45
2021-06-24 17:29:05.000000000,-38.0,-16.0,49.0,76.2,61.71,26.234318,33.45
2021-06-24 17:29:05.007812500,-38.0,-16.0,49.0,76.198671875,61.269999999999996,26.231515562499997,33.450625
2021-06-24 17:29:05.015625000,-38.0,-16.0,49.0,76.19734375,60.83,26.228713125,33.45125
2021-06-24 17:29:05.023437500,-38.0,-16.0,49.0,76.196015625,59.32,26.225910687499997,33.451875
2021-06-24 17:29:05.031250000,-38.0,-16.0,49.0,76.1946875,57.81,26.22310825,33.4525
2021-06-24 17:29:05.039062500,-38.0,-16.0,49.0,76.193359375,55.915000000000006,26.220305812499998,33.453125
2021-06-24 17:29:05.046875000,-38.0,-16.0,49.0,76.19203125,54.02,26.217503375,33.45375
2021-06-24 17:29:05.054687500,-38.0,-16.0,49.0,76.190703125,52.335,26.214700937499998,33.454375
2021-06-24 17:29:05.062500000,-38.0,-16.0,49.0,76.189375,50.65,26.211898499999997,33.455
2021-06-24 17:29:05.070312500,-38.0,-16.0,49.0,76.188046875,49.53,26.2090960625,33.455625000000005
2021-06-24 17:29:05.078125000,-38.0,-16.0,49.0,76.18671875,48.41,26.206293624999997,33.456250000000004
2021-06-24 17:29:05.085937500,-38.0,-16.0,49.0,76.185390625,47.905,26.2034911875,33.456875000000004
2021-06-24 17:29:05.093750000,-38.0,-16.0,49.0,76.1840625,47.4,26.200688749999998,33.4575
2021-06-24 17:29:05.101562500,-38.0,-16.0,49.0,76.18273437500001,47.33,26.1978863125,33.458125
2021-06-24 17:29:05.109375000,-38.0,-16.0,49.0,76.18140625000001,47.26,26.195083874999998,33.45875
2021-06-24 17:29:05.117187500,-38.0,-16.0,49.0,76.18007812500001,47.34,26.1922814375,33.459375
2021-06-24 17:29:05.125000000,-38.0,-16.0,49.0,76.17875000000001,47.42,26.189479,33.46
2021-06-24 17:29:05.132812500,-38.0,-16.0,49.0,76.17742187500001,47.45,26.186676562499997,33.460625
2021-06-24 17:29:05.140625000,-38.0,-16.0,49.0,76.17609375,47.48,26.183874125,33.46125
2021-06-24 17:29:05.148437500,-38.0,-16.0,49.0,76.174765625,47.37,26.181071687499998,33.461875
2021-06-24 17:29:05.156250000,-38.0,-16.0,49.0,76.1734375,47.26,26.17826925,33.4625
2021-06-24 17:29:05.164062500,-38.0,-16.0,49.0,76.172109375,47.015,26.175466812499998,33.463125
2021-06-24 17:29:05.171875000,-38.0,-16.0,49.0,76.17078125,46.77,26.172664375,33.46375
2021-06-24 17:29:05.179687500,-38.0,-16.0,49.0,76.169453125,46.425,26.1698619375,33.464375
2021-06-24 17:29:05.187500000,-38.0,-16.0,49.0,76.168125,46.08,26.1670595,33.465
2021-06-24 17:29:05.195312500,-38.0,-16.0,49.0,76.166796875,45.59,26.1642570625,33.465625
2021-06-24 17:29:05.203125000,-38.0,-16.0,49.0,76.16546875,45.1,26.161454624999998,33.46625
2021-06-24 17:29:05.210937500,-38.0,-16.0,49.0,76.164140625,44.3,26.1586521875,33.466875
2021-06-24 17:29:05.218750000,-38.0,-16.0,49.0,76.1628125,43.5,26.155849749999998,33.4675
2021-06-24 17:29:05.226562500,-38.0,-16.0,49.0,76.161484375,42.144999999999996,26.1530473125,33.468125
2021-06-24 17:29:05.234375000,-38.0,-16.0,49.0,76.16015625,40.79,26.150244875,33.46875
2021-06-24 17:29:05.242187500,-38.0,-16.0,49.0,76.158828125,38.64,26.1474424375,33.469375
2021-06-24 17:29:05.250000000,-38.0,-16.0,49.0,76.1575,36.49,26.14464,33.47
2021-06-24 17:29:05.257812500,-38.0,-16.0,49.0,76.156171875,33.415,26.143919375,33.47
2021-06-24 17:29:05.265625000,-38.0,-16.0,49.0,76.15484375,30.34,26.14319875,33.47
2021-06-24 17:29:05.273437500,-38.0,-16.0,49.0,76.153515625,26.369999999999997,26.142478125,33.47
2021-06-24 17:29:05.281250000,-38.0,-16.0,49.0,76.1521875,22.4,26.1417575,33.47
2021-06-24 17:29:05.289062500,-38.0,-16.0,49.0,76.150859375,17.75,26.141036875,33.47
2021-06-24 17:29:05.296875000,-38.0,-16.0,49.0,76.14953125,13.1,26.140316249999998,33.47
2021-06-24 17:29:05.304687500,-38.0,-16.0,49.0,76.14820312500001,8.05,26.139595625,33.47
2021-06-24 17:29:05.312500000,-38.0,-16.0,49.0,76.14687500000001,3.0,26.138875,33.47
2021-06-24 17:29:05.320312500,-38.0,-16.0,49.0,76.14554687500001,-2.1549999999999994,26.138154375,33.47
2021-06-24 17:29:05.328125000,-38.0,-16.0,49.0,76.14421875000001,-7.31,26.13743375,33.47
2021-06-24 17:29:05.335937500,-38.0,-16.0,49.0,76.142890625,-12.370000000000001,26.136713125,33.47
2021-06-24 17:29:05.343750000,-38.0,-16.0,49.0,76.1415625,-17.43,26.1359925,33.47
2021-06-24 17:29:05.351562500,-38.0,-16.0,49.0,76.140234375,-22.3,26.135271875,33.47
2021-06-24 17:29:05.359375000,-38.0,-16.0,49.0,76.13890625,-27.17,26.13455125,33.47
2021-06-24 17:29:05.367187500,-38.0,-16.0,49.0,76.137578125,-31.92,26.133830625,33.47
2021-06-24 17:29:05.375000000,-38.0,-16.0,49.0,76.13625,-36.67,26.133110000000002,33.47
2021-06-24 17:29:05.382812500,-38.0,-16.0,49.0,76.134921875,-41.455,26.132389375,33.47
2021-06-24 17:29:05.390625000,-38.0,-16.0,49.0,76.13359375,-46.24,26.13166875,33.47
2021-06-24 17:29:05.398437500,-38.0,-16.0,49.0,76.132265625,-51.315,26.130948125,33.47
2021-06-24 17:29:05.406250000,-38.0,-16.0,49.0,76.1309375,-56.39,26.1302275,33.47
2021-06-24 17:29:05.414062500,-38.0,-16.0,49.0,76.129609375,-62.035000000000004,26.129506875,33.47
2021-06-24 17:29:05.421875000,-38.0,-16.0,49.0,76.12828125,-67.68,26.12878625,33.47
2021-06-24 17:29:05.429687500,-38.0,-16.0,49.0,76.126953125,-74.14,26.128065625,33.47
2021-06-24 17:29:05.437500000,-38.0,-16.0,49.0,76.125625,-80.6,26.127345000000002,33.47
2021-06-24 17:29:05.445312500,-38.0,-16.0,49.0,76.124296875,-87.89,26.126624375000002,33.47
2021-06-24 17:29:05.453125000,-38.0,-16.0,49.0,76.12296875,-95.18,26.125903750000003,33.47
2021-06-24 17:29:05.460937500,-38.0,-16.0,49.0,76.121640625,-102.945,26.125183125,33.47
2021-06-24 17:29:05.468750000,-38.0,-16.0,49.0,76.1203125,-110.71,26.1244625,33.47
2021-06-24 17:29:05.476562500,-38.0,-16.0,49.0,76.118984375,-118.15,26.123741875,33.47
2021-06-24 17:29:05.484375000,-38.0,-16.0,49.0,76.11765625,-125.59,26.12302125,33.47
2021-06-24 17:29:05.492187500,-38.0,-16.0,49.0,76.116328125,-131.54000000000002,26.122300625,33.47
2021-06-24 17:29:05.500000000,-38.0,-16.0,49.0,76.11500000000001,-137.49,26.12158,33.47
2021-06-24 17:29:05.507812500,-38.0,-16.0,49.0,76.11367187500001,-140.7,26.12149996875,33.47
2021-06-24 17:29:05.515625000,-38.0,-16.0,49.0,76.11234375000001,-143.91,26.1214199375,33.47
2021-06-24 17:29:05.523437500,-38.0,-16.0,49.0,76.11101562500001,-143.42000000000002,26.12133990625,33.47
2021-06-24 17:29:05.531250000,-38.0,-16.0,49.0,76.1096875,-142.93,26.121259875,33.47
2021-06-24 17:29:05.539062500,-38.0,-16.0,49.0,76.108359375,-138.35500000000002,26.121179843750003,33.47
2021-06-24 17:29:05.546875000,-38.0,-16.0,49.0,76.10703125,-133.78,26.121099812500002,33.47
2021-06-24 17:29:05.554687500,-38.0,-16.0,49.0,76.105703125,-125.445,26.121019781250002,33.47
2021-06-24 17:29:05.562500000,-38.0,-16.0,49.0,76.104375,-117.11,26.12093975,33.47
2021-06-24 17:29:05.570312500,-38.0,-16.0,49.0,76.103046875,-105.91,26.12085971875,33.47
2021-06-24 17:29:05.578125000,-38.0,-16.0,49.0,76.10171875,-94.71,26.1207796875,33.47
2021-06-24 17:29:05.585937500,-38.0,-16.0,49.0,76.100390625,-81.82,26.12069965625,33.47
2021-06-24 17:29:05.593750000,-38.0,-16.0,49.0,76.0990625,-68.93,26.120619625000003,33.47
2021-06-24 17:29:05.601562500,-38.0,-16.0,49.0,76.097734375,-55.505,26.120539593750003,33.47
2021-06-24 17:29:05.609375000,-38.0,-16.0,49.0,76.09640625,-42.08,26.120459562500002,33.47
2021-06-24 17:29:05.617187500,-38.0,-16.0,49.0,76.095078125,-29.049999999999997,26.120379531250002,33.47
2021-06-24 17:29:05.625000000,-38.0,-16.0,49.0,76.09375,-16.02,26.1202995,33.47
2021-06-24 17:29:05.632812500,-38.0,-16.0,49.0,76.092421875,-3.995000000000001,26.12021946875,33.47
2021-06-24 17:29:05.640625000,-38.0,-16.0,49.0,76.09109375,8.03,26.1201394375,33.47
2021-06-24 17:29:05.648437500,-38.0,-16.0,49.0,76.089765625,18.625,26.12005940625,33.47
2021-06-24 17:29:05.656250000,-38.0,-16.0,49.0,76.0884375,29.22,26.119979375,33.47
2021-06-24 17:29:05.664062500,-38.0,-16.0,49.25,76.087109375,38.09,26.119899343750003,33.47
2021-06-24 17:29:05.671875000,-38.0,-16.0,49.5,76.08578125,46.96,26.119819312500002,33.47
2021-06-24 17:29:05.679687500,-38.0,-16.0,49.75,76.084453125,53.91,26.119739281250002,33.47
2021-06-24 17:29:05.687500000,-38.0,-16.0,50.0,76.083125,60.86,26.11965925,33.47
2021-06-24 17:29:05.695312500,-38.25,-16.0,49.75,76.081796875,65.765,26.11957921875,33.47
2021-06-24 17:29:05.703125000,-38.5,-16.0,49.5,76.08046875000001,70.67,26.1194991875,33.47
2021-06-24 17:29:05.710937500,-38.75,-16.0,49.25,76.07914062500001,73.58500000000001,26.11941915625,33.47
2021-06-24 17:29:05.718750000,-39.0,-16.0,49.0,76.07781250000001,76.5,26.119339125000003,33.47
2021-06-24 17:29:05.726562500,-38.75,-16.0,49.0,76.076484375,77.63,26.119259093750003,33.47
2021-06-24 17:29:05.734375000,-38.5,-16.0,49.0,76.07515625,78.76,26.119179062500002,33.47
2021-06-24 17:29:05.742187500,-38.25,-16.0,49.0,76.073828125,78.525,26.119099031250002,33.47
2021-06-24 17:29:05.750000000,-38.0,-16.0,49.0,76.0725,78.29,26.119019,33.47
2021-06-24 17:29:05.757812500,-38.0,-16.0,49.0,76.071171875,77.215,26.11849853125,33.47
2021-06-24 17:29:05.765625000,-38.0,-16.0,49.0,76.06984375,76.14,26.1179780625,33.47
2021-06-24 17:29:05.773437500,-38.0,-16.0,49.0,76.068515625,74.77000000000001,26.11745759375,33.47
2021-06-24 17:29:05.781250000,-38.0,-16.0,49.0,76.0671875,73.4,26.116937125,33.47
2021-06-24 17:29:05.789062500,-38.0,-16.0,49.0,76.065859375,72.18,26.116416656250003,33.47
2021-06-24 17:29:05.796875000,-38.0,-16.0,49.0,76.06453125,70.96,26.115896187500002,33.47
2021-06-24 17:29:05.804687500,-38.0,-16.0,49.0,76.063203125,70.16,26.115375718750002,33.47
2021-06-24 17:29:05.812500000,-38.0,-16.0,49.0,76.061875,69.36,26.11485525,33.47
2021-06-24 17:29:05.820312500,-38.0,-16.0,49.0,76.060546875,69.015,26.11433478125,33.47
2021-06-24 17:29:05.828125000,-38.0,-16.0,49.0,76.05921875,68.67,26.1138143125,33.47
2021-06-24 17:29:05.835937500,-38.0,-16.0,49.0,76.057890625,68.63,26.11329384375,33.47
2021-06-24 17:29:05.843750000,-38.0,-16.0,49.0,76.0565625,68.59,26.112773375000003,33.47
2021-06-24 17:29:05.851562500,-38.0,-15.75,49.0,76.055234375,68.61500000000001,26.112252906250003,33.47
2021-06-24 17:29:05.859375000,-38.0,-15.5,49.0,76.05390625,68.64,26.111732437500002,33.47
2021-06-24 17:29:05.867187500,-38.0,-15.25,49.0,76.052578125,68.495,26.111211968750002,33.47
2021-06-24 17:29:05.875000000,-38.0,-15.0,49.0,76.05125,68.35,26.1106915,33.47
2021-06-24 17:29:05.882812500,-38.0,-15.25,49.0,76.049921875,67.905,26.11017103125,33.47
2021-06-24 17:29:05.890625000,-38.0,-15.5,49.0,76.04859375,67.46,26.1096505625,33.47
2021-06-24 17:29:05.898437500,-38.0,-15.75,49.0,76.047265625,66.695,26.10913009375,33.47
2021-06-24 17:29:05.906250000,-38.0,-16.0,49.0,76.04593750000001,65.93,26.108609625,33.47
2021-06-24 17:29:05.914062500,-38.0,-16.0,49.0,76.04460937500001,64.9,26.108089156250003,33.47
2021-06-24 17:29:05.921875000,-38.0,-16.0,49.0,76.04328125,63.87,26.107568687500002,33.47
2021-06-24 17:29:05.929687500,-38.0,-16.0,49.0,76.041953125,62.614999999999995,26.107048218750002,33.47
2021-06-24 17:29:05.937500000,-38.0,-16.0,49.0,76.040625,61.36,26.10652775,33.47
2021-06-24 17:29:05.945312500,-38.0,-16.0,49.0,76.039296875,59.815,26.10600728125,33.47
2021-06-24 17:29:05.953125000,-38.0,-16.0,49.0,76.03796875,58.27,26.1054868125,33.47
2021-06-24 17:29:05.960937500,-38.0,-16.0,49.0,76.036640625,56.245000000000005,26.10496634375,33.47
2021-06-24 17:29:05.968750000,-38.0,-16.0,49.0,76.0353125,54.22,26.104445875000003,33.47
2021-06-24 17:29:05.976562500,-38.0,-16.0,49.0,76.033984375,51.474999999999994,26.103925406250003,33.47
2021-06-24 17:29:05.984375000,-38.0,-16.0,49.0,76.03265625,48.73,26.103404937500002,33.47
2021-06-24 17:29:05.992187500,-38.0,-16.0,49.0,76.031328125,45.08,26.102884468750002,33.47
2021-06-24 17:29:06.000000000,-38.0,-16.0,49.0,76.03,41.43,26.102364,33.47
2021-06-24 17:29:06.007812500,-38.0,-16.0,49.0,76.028828125,36.84,26.102243875000003,33.47
2021-06-24 17:29:06.015625000,-38.0,-16.0,49.0,76.02765625,32.25,26.10212375,33.47
2021-06-24 17:29:06.023437500,-38.0,-16.0,49.0,76.026484375,26.92,26.102003625000002,33.47
2021-06-24 17:29:06.031250000,-38.0,-16.0,49.0,76.0253125,21.59,26.1018835,33.47
2021-06-24 17:29:06.039062500,-38.0,-16.0,49.0,76.024140625,15.865,26.101763375,33.47
2021-06-24 17:29:06.046875000,-38.0,-16.0,49.0,76.02296875,10.14,26.101643250000002,33.47
2021-06-24 17:29:06.054687500,-38.0,-16.0,49.0,76.021796875,4.375,26.101523125,33.47
2021-06-24 17:29:06.062500000,-38.0,-16.0,49.0,76.020625,-1.39,26.101403,33.47
