TimeStamp,empatica.acc.x,empatica.acc.y,empatica.acc.z,empatica.hr,empatica.bvp,empatica.eda,empatica.temp
2021-06-21 15:26:25.523437500,-53.0,-20.0,31.75,71.51531250000001,47.71,0.15744590625000002,31.35
2021-06-21 15:26:25.531250000,-53.0,-20.0,32.0,71.51375,47.72,0.157405875,31.35
2021-06-21 15:26:25.539062500,-53.0,-20.0,31.75,71.5121875,46.92,0.15736584375,31.35
2021-06-21 15:26:25.546875000,-53.0,-20.0,31.5,71.510625,46.12,0.15732581250000002,31.35
2021-06-21 15:26:25.554687500,-53.0,-20.0,31.25,71.5090625,44.745,0.15728578125,31.35
2021-06-21 15:26:25.562500000,-53.0,-20.0,31.0,71.50750000000001,43.37,0.15724575000000002,31.35
2021-06-21 15:26:25.570312500,-53.0,-20.0,31.0,71.5059375,41.68,0.15720571875,31.35
2021-06-21 15:26:25.578125000,-53.0,-20.0,31.0,71.504375,39.99,0.1571656875,31.35
2021-06-21 15:26:25.585937500,-53.0,-20.0,31.0,71.5028125,38.3,0.15712565625000002,31.35
2021-06-21 15:26:25.593750000,-53.0,-20.0,31.0,71.50125,36.61,0.157085625,31.35
2021-06-21 15:26:25.601562500,-53.0,-20.0,31.0,71.49968750000001,35.225,0.15704559375000002,31.35
2021-06-21 15:26:25.609375000,-53.0,-20.0,31.0,71.498125,33.84,0.1570055625,31.35
2021-06-21 15:26:25.617187500,-53.0,-20.0,31.0,71.4965625,32.95,0.15696553125,31.35
2021-06-21 15:26:25.625000000,-53.0,-20.0,31.0,71.495,32.06,0.1569255,31.35
2021-06-21 15:26:25.632812500,-53.25,-20.0,31.0,71.4934375,31.73,0.15688546875,31.35
2021-06-21 15:26:25.640625000,-53.5,-20.0,31.0,71.49187500000001,31.4,0.15684543750000002,31.35
2021-06-21 15:26:25.648437500,-53.75,-20.0,31.0,71.4903125,31.555,0.15680540625,31.35
2021-06-21 15:26:25.656250000,-54.0,-20.0,31.0,71.48875,31.71,0.156765375,31.35
2021-06-21 15:26:25.664062500,-53.75,-20.0,31.0,71.4871875,32.185,0.15672534375,31.35
2021-06-21 15:26:25.671875000,-53.5,-20.0,31.0,71.485625,32.66,0.1566853125,31.35
2021-06-21 15:26:25.679687500,-53.25,-20.0,31.0,71.48406250000001,33.285,0.15664528125000002,31.35
2021-06-21 15:26:25.687500000,-53.0,-20.0,31.0,71.4825,33.91,0.15660525,31.35
2021-06-21 15:26:25.695312500,-53.0,-20.0,31.0,71.4809375,34.53,0.15656521875,31.35
2021-06-21 15:26:25.703125000,-53.0,-20.0,31.0,71.479375,35.15,0.1565251875,31.35
2021-06-21 15:26:25.710937500,-53.0,-20.0,31.0,71.4778125,35.665,0.15648515625,31.35
2021-06-21 15:26:25.718750000,-53.0,-20.0,31.0,71.47625000000001,36.18,0.15644512500000002,31.35
2021-06-21 15:26:25.726562500,-53.0,-20.0,31.25,71.4746875,36.5,0.15640509375,31.35
2021-06-21 15:26:25.734375000,-53.0,-20.0,31.5,71.473125,36.82,0.1563650625,31.35
2021-06-21 15:26:25.742187500,-53.0,-20.0,31.75,71.4715625,36.86,0.15632503125,31.35
2021-06-21 15:26:25.750000000,-53.0,-20.0,32.0,71.47,36.9,0.156285,31.35
2021-06-21 15:26:25.757812500,-53.0,-20.0,31.75,71.46843750000001,36.57,0.1563650625,31.35
2021-06-21 15:26:25.765625000,-53.0,-20.0,31.5,71.466875,36.24,0.15644512500000002,31.35
2021-06-21 15:26:25.773437500,-53.0,-20.0,31.25,71.4653125,35.455,0.1565251875,31.35
2021-06-21 15:26:25.781250000,-53.0,-20.0,31.0,71.46375,34.67,0.15660525,31.35
2021-06-21 15:26:25.789062500,-53.0,-19.75,31.0,71.4621875,33.355000000000004,0.1566853125,31.35
2021-06-21 15:26:25.796875000,-53.0,-19.5,31.0,71.46062500000001,32.04,0.156765375,31.35
2021-06-21 15:26:25.804687500,-53.0,-19.25,31.0,71.4590625,30.174999999999997,0.1568454375,31.35
2021-06-21 15:26:25.812500000,-53.0,-19.0,31.0,71.4575,28.31,0.1569255,31.35
2021-06-21 15:26:25.820312500,-53.25,-19.25,31.0,71.4559375,25.96,0.1570055625,31.35
2021-06-21 15:26:25.828125000,-53.5,-19.5,31.0,71.454375,23.61,0.157085625,31.35
2021-06-21 15:26:25.835937500,-53.75,-19.75,31.0,71.45281250000001,20.915,0.1571656875,31.35
2021-06-21 15:26:25.843750000,-54.0,-20.0,31.0,71.45125,18.22,0.15724575,31.35
2021-06-21 15:26:25.851562500,-53.75,-20.0,31.25,71.4496875,15.364999999999998,0.1573258125,31.35
2021-06-21 15:26:25.859375000,-53.5,-20.0,31.5,71.448125,12.51,0.157405875,31.35
2021-06-21 15:26:25.867187500,-53.25,-20.0,31.75,71.4465625,9.645,0.1574859375,31.35
2021-06-21 15:26:25.875000000,-53.0,-20.0,32.0,71.44500000000001,6.78,0.15756599999999998,31.35
2021-06-21 15:26:25.882812500,-53.0,-20.0,32.0,71.4434375,3.98,0.1576460625,31.35
2021-06-21 15:26:25.890625000,-53.0,-20.0,32.0,71.441875,1.18,0.157726125,31.35
2021-06-21 15:26:25.898437500,-53.0,-20.0,32.0,71.4403125,-1.5649999999999997,0.1578061875,31.35
2021-06-21 15:26:25.906250000,-53.0,-20.0,32.0,71.43875,-4.31,0.15788625,31.35
2021-06-21 15:26:25.914062500,-53.0,-20.0,31.75,71.43718750000001,-7.074999999999999,0.15796631249999998,31.35
2021-06-21 15:26:25.921875000,-53.0,-20.0,31.5,71.435625,-9.84,0.158046375,31.35
2021-06-21 15:26:25.929687500,-53.0,-20.0,31.25,71.4340625,-12.68,0.1581264375,31.35
2021-06-21 15:26:25.937500000,-53.0,-20.0,31.0,71.4325,-15.52,0.1582065,31.35
2021-06-21 15:26:25.945312500,-53.0,-20.0,31.0,71.4309375,-18.415,0.1582865625,31.35
2021-06-21 15:26:25.953125000,-53.0,-20.0,31.0,71.42937500000001,-21.31,0.15836662499999998,31.35
2021-06-21 15:26:25.960937500,-53.0,-20.0,31.0,71.4278125,-24.119999999999997,0.1584466875,31.35
2021-06-21 15:26:25.968750000,-53.0,-20.0,31.0,71.42625,-26.93,0.15852675,31.35
2021-06-21 15:26:25.976562500,-53.0,-20.0,31.0,71.4246875,-29.465,0.1586068125,31.35
2021-06-21 15:26:25.984375000,-53.0,-20.0,31.0,71.423125,-32.0,0.15868687499999998,31.35
2021-06-21 15:26:25.992187500,-53.0,-20.0,31.0,71.42156250000001,-34.085,0.15876693749999998,31.35
2021-06-21 15:26:26.000000000,-53.0,-20.0,31.0,71.42,-36.17,0.158847,31.35
2021-06-21 15:26:26.007812500,-53.0,-20.0,31.0,71.418671875,-37.75,0.15876693749999998,31.350625
2021-06-21 15:26:26.015625000,-53.0,-20.0,31.0,71.41734375,-39.33,0.15868687499999998,31.35125
2021-06-21 15:26:26.023437500,-53.0,-20.0,31.0,71.416015625,-40.55,0.1586068125,31.351875
2021-06-21 15:26:26.031250000,-53.0,-20.0,31.0,71.4146875,-41.77,0.15852675,31.352500000000003
2021-06-21 15:26:26.039062500,-53.0,-20.0,31.0,71.413359375,-42.96,0.1584466875,31.353125000000002
2021-06-21 15:26:26.046875000,-53.0,-20.0,31.0,71.41203125,-44.15,0.15836662499999998,31.35375
2021-06-21 15:26:26.054687500,-53.0,-20.0,31.0,71.410703125,-45.75,0.1582865625,31.354375
2021-06-21 15:26:26.062500000,-53.0,-20.0,31.0,71.409375,-47.35,0.1582065,31.355
2021-06-21 15:26:26.070312500,-53.0,-20.0,31.0,71.408046875,-49.754999999999995,0.1581264375,31.355625
2021-06-21 15:26:26.078125000,-53.0,-20.0,31.0,71.40671875,-52.16,0.158046375,31.356250000000003
2021-06-21 15:26:26.085937500,-53.0,-20.0,31.0,71.405390625,-55.519999999999996,0.15796631249999998,31.356875000000002
2021-06-21 15:26:26.093750000,-53.0,-20.0,31.0,71.4040625,-58.88,0.15788625,31.3575
2021-06-21 15:26:26.101562500,-53.0,-20.0,31.0,71.40273437500001,-62.905,0.1578061875,31.358125
2021-06-21 15:26:26.109375000,-53.0,-20.0,31.0,71.40140625000001,-66.93,0.157726125,31.35875
2021-06-21 15:26:26.117187500,-53.0,-20.0,31.0,71.40007812500001,-70.89500000000001,0.1576460625,31.359375
2021-06-21 15:26:26.125000000,-53.0,-20.0,31.0,71.39875,-74.86,0.15756599999999998,31.36
2021-06-21 15:26:26.132812500,-53.0,-20.0,31.0,71.397421875,-77.68,0.1574859375,31.360625000000002
2021-06-21 15:26:26.140625000,-53.0,-20.0,31.0,71.39609375,-80.5,0.157405875,31.361250000000002
2021-06-21 15:26:26.148437500,-53.0,-20.0,31.0,71.394765625,-81.08500000000001,0.1573258125,31.361875
2021-06-21 15:26:26.156250000,-53.0,-20.0,31.0,71.3934375,-81.67,0.15724575,31.3625
2021-06-21 15:26:26.164062500,-53.0,-20.0,31.0,71.392109375,-79.255,0.1571656875,31.363125
2021-06-21 15:26:26.171875000,-53.0,-20.0,31.0,71.39078125,-76.84,0.157085625,31.36375
2021-06-21 15:26:26.179687500,-53.0,-20.0,31.0,71.389453125,-71.30000000000001,0.1570055625,31.364375000000003
2021-06-21 15:26:26.187500000,-53.0,-20.0,31.0,71.388125,-65.76,0.1569255,31.365000000000002
2021-06-21 15:26:26.195312500,-53.0,-20.0,31.0,71.386796875,-57.685,0.1568454375,31.365625
2021-06-21 15:26:26.203125000,-53.0,-20.0,31.0,71.38546875,-49.61,0.156765375,31.36625
2021-06-21 15:26:26.210937500,-53.0,-20.0,31.0,71.384140625,-40.135,0.1566853125,31.366875
2021-06-21 15:26:26.218750000,-53.0,-20.0,31.0,71.3828125,-30.66,0.15660525,31.3675
2021-06-21 15:26:26.226562500,-53.0,-20.0,31.0,71.381484375,-21.14,0.1565251875,31.368125000000003
2021-06-21 15:26:26.234375000,-53.0,-20.0,31.0,71.38015625,-11.62,0.15644512500000002,31.368750000000002
2021-06-21 15:26:26.242187500,-53.0,-20.0,31.0,71.378828125,-3.2200000000000006,0.1563650625,31.369375
2021-06-21 15:26:26.250000000,-53.0,-20.0,31.0,71.3775,5.18,0.156285,31.37
2021-06-21 15:26:26.257812500,-53.0,-20.0,31.0,71.376171875,11.725,0.15632503125,31.37
2021-06-21 15:26:26.265625000,-53.0,-20.0,31.0,71.37484375,18.27,0.1563650625,31.37
2021-06-21 15:26:26.273437500,-53.0,-20.0,31.0,71.373515625,22.765,0.15640509375,31.37
2021-06-21 15:26:26.281250000,-53.0,-20.0,31.0,71.3721875,27.26,0.15644512500000002,31.37
2021-06-21 15:26:26.289062500,-53.0,-20.0,31.25,71.370859375,29.980000000000004,0.15648515625,31.37
2021-06-21 15:26:26.296875000,-53.0,-20.0,31.5,71.36953125,32.7,0.1565251875,31.37
2021-06-21 15:26:26.304687500,-53.0,-20.0,31.75,71.36820312500001,34.150000000000006,0.15656521875,31.37
2021-06-21 15:26:26.312500000,-53.0,-20.0,32.0,71.36687500000001,35.6,0.15660525,31.37
2021-06-21 15:26:26.320312500,-53.0,-20.0,31.75,71.365546875,36.365,0.15664528125000002,31.37
2021-06-21 15:26:26.328125000,-53.0,-20.0,31.5,71.36421875,37.13,0.1566853125,31.37
2021-06-21 15:26:26.335937500,-53.0,-20.0,31.25,71.362890625,37.685,0.15672534375,31.37
2021-06-21 15:26:26.343750000,-53.0,-20.0,31.0,71.3615625,38.24,0.156765375,31.37
2021-06-21 15:26:26.351562500,-53.0,-20.0,31.0,71.360234375,38.88,0.15680540625,31.37
2021-06-21 15:26:26.359375000,-53.0,-20.0,31.0,71.35890625,39.52,0.15684543750000002,31.37
2021-06-21 15:26:26.367187500,-53.0,-20.0,31.0,71.357578125,40.35,0.15688546875,31.37
2021-06-21 15:26:26.375000000,-53.0,-20.0,31.0,71.35625,41.18,0.1569255,31.37
2021-06-21 15:26:26.382812500,-53.0,-19.75,31.0,71.354921875,42.155,0.15696553125,31.37
2021-06-21 15:26:26.390625000,-53.0,-19.5,31.0,71.35359375,43.13,0.1570055625,31.37
2021-06-21 15:26:26.398437500,-53.0,-19.25,31.0,71.352265625,44.125,0.15704559375000002,31.37
2021-06-21 15:26:26.406250000,-53.0,-19.0,31.0,71.3509375,45.12,0.157085625,31.37
2021-06-21 15:26:26.414062500,-53.0,-19.25,31.0,71.349609375,45.97,0.15712565625000002,31.37
2021-06-21 15:26:26.421875000,-53.0,-19.5,31.0,71.34828125,46.82,0.1571656875,31.37
2021-06-21 15:26:26.429687500,-53.0,-19.75,31.0,71.346953125,47.375,0.15720571875,31.37
2021-06-21 15:26:26.437500000,-53.0,-20.0,31.0,71.345625,47.93,0.15724575000000002,31.37
2021-06-21 15:26:26.445312500,-53.25,-20.0,31.0,71.344296875,48.07,0.15728578125,31.37
2021-06-21 15:26:26.453125000,-53.5,-20.0,31.0,71.34296875,48.21,0.15732581250000002,31.37
2021-06-21 15:26:26.460937500,-53.75,-20.0,31.0,71.341640625,47.885000000000005,0.15736584375,31.37
2021-06-21 15:26:26.468750000,-54.0,-20.0,31.0,71.3403125,47.56,0.157405875,31.37
2021-06-21 15:26:26.476562500,-53.75,-19.75,31.0,71.338984375,46.825,0.15744590625000002,31.37
2021-06-21 15:26:26.484375000,-53.5,-19.5,31.0,71.33765625,46.09,0.1574859375,31.37
2021-06-21 15:26:26.492187500,-53.25,-19.25,31.0,71.336328125,45.085,0.15752596875000002,31.37
2021-06-21 15:26:26.500000000,-53.0,-19.0,31.0,71.33500000000001,44.08,0.157566,31.37
2021-06-21 15:26:26.507812500,-53.0,-19.25,31.0,71.33367187500001,43.004999999999995,0.15752596875000002,31.37
2021-06-21 15:26:26.515625000,-53.0,-19.5,31.0,71.33234375,41.93,0.1574859375,31.37
2021-06-21 15:26:26.523437500,-53.0,-19.75,31.0,71.331015625,40.995000000000005,0.15744590625000002,31.37
2021-06-21 15:26:26.531250000,-53.0,-20.0,31.0,71.3296875,40.06,0.157405875,31.37
2021-06-21 15:26:26.539062500,-53.0,-20.0,31.0,71.328359375,39.42,0.15736584375,31.37
2021-06-21 15:26:26.546875000,-53.0,-20.0,31.0,71.32703125,38.78,0.15732581250000002,31.37
2021-06-21 15:26:26.554687500,-53.0,-20.0,31.0,71.325703125,38.455,0.15728578125,31.37
2021-06-21 15:26:26.562500000,-53.0,-20.0,31.0,71.324375,38.13,0.15724575000000002,31.37
2021-06-21 15:26:26.570312500,-53.0,-20.0,31.0,71.323046875,38.005,0.15720571875,31.37
2021-06-21 15:26:26.578125000,-53.0,-20.0,31.0,71.32171875,37.88,0.1571656875,31.37
2021-06-21 15:26:26.585937500,-53.0,-20.0,31.0,71.320390625,37.735,0.15712565625000002,31.37
2021-06-21 15:26:26.593750000,-53.0,-20.0,31.0,71.3190625,37.59,0.157085625,31.37
2021-06-21 15:26:26.601562500,-53.0,-20.0,31.0,71.317734375,37.145,0.15704559375000002,31.37
2021-06-21 15:26:26.609375000,-53.0,-20.0,31.0,71.31640625,36.7,0.1570055625,31.37
2021-06-21 15:26:26.617187500,-53.0,-20.0,31.0,71.315078125,35.705,0.15696553125,31.37
2021-06-21 15:26:26.625000000,-53.0,-20.0,31.0,71.31375,34.71,0.1569255,31.37
2021-06-21 15:26:26.632812500,-53.0,-20.0,31.0,71.312421875,33.005,0.15688546875,31.37
2021-06-21 15:26:26.640625000,-53.0,-20.0,31.0,71.31109375,31.3,0.15684543750000002,31.37
2021-06-21 15:26:26.648437500,-53.0,-20.0,31.0,71.309765625,28.880000000000003,0.15680540625,31.37
2021-06-21 15:26:26.656250000,-53.0,-20.0,31.0,71.3084375,26.46,0.156765375,31.37
2021-06-21 15:26:26.664062500,-53.0,-19.75,31.0,71.307109375,23.505000000000003,0.15672534375,31.37
2021-06-21 15:26:26.671875000,-53.0,-19.5,31.0,71.30578125,20.55,0.1566853125,31.37
2021-06-21 15:26:26.679687500,-53.0,-19.25,31.0,71.304453125,17.385,0.15664528125000002,31.37
2021-06-21 15:26:26.687500000,-53.0,-19.0,31.0,71.303125,14.22,0.15660525,31.37
2021-06-21 15:26:26.695312500,-53.0,-19.0,31.0,71.301796875,11.24,0.15656521875,31.37
2021-06-21 15:26:26.703125000,-53.0,-19.0,31.0,71.30046875000001,8.26,0.1565251875,31.37
2021-06-21 15:26:26.710937500,-53.0,-19.0,31.0,71.299140625,5.785,0.15648515625,31.37
2021-06-21 15:26:26.718750000,-53.0,-19.0,31.0,71.2978125,3.31,0.15644512500000002,31.37
2021-06-21 15:26:26.726562500,-53.0,-19.25,31.0,71.296484375,1.45,0.15640509375,31.37
2021-06-21 15:26:26.734375000,-53.0,-19.5,31.0,71.29515625,-0.41,0.1563650625,31.37
2021-06-21 15:26:26.742187500,-53.0,-19.75,31.0,71.293828125,-1.7999999999999998,0.15632503125,31.37
2021-06-21 15:26:26.750000000,-53.0,-20.0,31.0,71.2925,-3.19,0.156285,31.37
2021-06-21 15:26:26.757812500,-53.25,-19.75,31.0,71.291171875,-4.45,0.1563650625,31.37
2021-06-21 15:26:26.765625000,-53.5,-19.5,31.0,71.28984375,-5.71,0.15644512500000002,31.37
2021-06-21 15:26:26.773437500,-53.75,-19.25,31.0,71.288515625,-7.220000000000001,0.1565251875,31.37
2021-06-21 15:26:26.781250000,-54.0,-19.0,31.0,71.2871875,-8.73,0.15660525,31.37
2021-06-21 15:26:26.789062500,-53.75,-19.25,31.0,71.285859375,-10.74,0.1566853125,31.37
2021-06-21 15:26:26.796875000,-53.5,-19.5,31.0,71.28453125,-12.75,0.156765375,31.37
2021-06-21 15:26:26.804687500,-53.25,-19.75,31.0,71.283203125,-15.255,0.1568454375,31.37
2021-06-21 15:26:26.812500000,-53.0,-20.0,31.0,71.281875,-17.76,0.1569255,31.37
2021-06-21 15:26:26.820312500,-53.0,-20.0,31.0,71.280546875,-20.51,0.1570055625,31.37
2021-06-21 15:26:26.828125000,-53.0,-20.0,31.0,71.27921875,-23.26,0.157085625,31.37
2021-06-21 15:26:26.835937500,-53.0,-20.0,31.0,71.277890625,-25.885,0.1571656875,31.37
2021-06-21 15:26:26.843750000,-53.0,-20.0,31.0,71.2765625,-28.51,0.15724575,31.37
2021-06-21 15:26:26.851562500,-53.0,-20.0,31.0,71.275234375,-30.685000000000002,0.1573258125,31.37
2021-06-21 15:26:26.859375000,-53.0,-20.0,31.0,71.27390625,-32.86,0.157405875,31.37
2021-06-21 15:26:26.867187500,-53.0,-20.0,31.0,71.272578125,-34.47,0.1574859375,31.37
2021-06-21 15:26:26.875000000,-53.0,-20.0,31.0,71.27125,-36.08,0.15756599999999998,31.37
2021-06-21 15:26:26.882812500,-53.0,-19.75,31.0,71.269921875,-37.239999999999995,0.1576460625,31.37
2021-06-21 15:26:26.890625000,-53.0,-19.5,31.0,71.26859375,-38.4,0.157726125,31.37
2021-06-21 15:26:26.898437500,-53.0,-19.25,31.0,71.267265625,-39.455,0.1578061875,31.37
2021-06-21 15:26:26.906250000,-53.0,-19.0,31.0,71.2659375,-40.51,0.15788625,31.37
2021-06-21 15:26:26.914062500,-53.0,-19.25,31.0,71.264609375,-41.89,0.15796631249999998,31.37
2021-06-21 15:26:26.921875000,-53.0,-19.5,31.0,71.26328125,-43.27,0.158046375,31.37
2021-06-21 15:26:26.929687500,-53.0,-19.75,31.0,71.261953125,-45.36,0.1581264375,31.37
2021-06-21 15:26:26.937500000,-53.0,-20.0,31.0,71.260625,-47.45,0.1582065,31.37
2021-06-21 15:26:26.945312500,-53.0,-20.0,31.0,71.259296875,-50.455,0.1582865625,31.37
2021-06-21 15:26:26.953125000,-53.0,-20.0,31.0,71.25796875,-53.46,0.15836662499999998,31.37
2021-06-21 15:26:26.960937500,-53.0,-20.0,31.0,71.256640625,-57.254999999999995,0.1584466875,31.37
2021-06-21 15:26:26.968750000,-53.0,-20.0,31.0,71.2553125,-61.05,0.15852675,31.37
2021-06-21 15:26:26.976562500,-53.25,-19.75,31.0,71.253984375,-65.15,0.1586068125,31.37
2021-06-21 15:26:26.984375000,-53.5,-19.5,31.0,71.25265625,-69.25,0.15868687499999998,31.37
2021-06-21 15:26:26.992187500,-53.75,-19.25,31.0,71.251328125,-72.85499999999999,0.15876693749999998,31.37
2021-06-21 15:26:27.000000000,-54.0,-19.0,31.0,71.25,-76.46,0.158847,31.37
2021-06-21 15:26:27.007812500,-53.75,-19.0,31.0,71.24859375,-78.57,0.15868687499999998,31.370625
2021-06-21 15:26:27.015625000,-53.5,-19.0,31.0,71.2471875,-80.68,0.15852675,31.37125
2021-06-21 15:26:27.023437500,-53.25,-19.0,31.0,71.24578125,-80.41,0.15836662499999998,31.371875
2021-06-21 15:26:27.031250000,-53.0,-19.0,31.0,71.244375,-80.14,0.1582065,31.372500000000002
2021-06-21 15:26:27.039062500,-53.25,-19.25,31.0,71.24296875,-76.965,0.158046375,31.373125
2021-06-21 15:26:27.046875000,-53.5,-19.5,31.0,71.2415625,-73.79,0.15788624999999998,31.37375
2021-06-21 15:26:27.054687500,-53.75,-19.75,31.0,71.24015625,-67.78,0.157726125,31.374375
2021-06-21 15:26:27.062500000,-54.0,-20.0,31.0,71.23875,-61.77,0.15756599999999998,31.375
2021-06-21 15:26:27.070312500,-53.75,-19.75,31.0,71.23734375,-53.6,0.157405875,31.375625
2021-06-21 15:26:27.078125000,-53.5,-19.5,31.0,71.2359375,-45.43,0.15724575,31.376250000000002
2021-06-21 15:26:27.085937500,-53.25,-19.25,31.0,71.23453125,-36.254999999999995,0.15708562499999998,31.376875000000002
2021-06-21 15:26:27.093750000,-53.0,-19.0,31.0,71.233125,-27.08,0.1569255,31.3775
2021-06-21 15:26:27.101562500,-53.0,-19.25,31.0,71.23171875,-18.14,0.15676537499999998,31.378125
2021-06-21 15:26:27.109375000,-53.0,-19.5,31.0,71.2303125,-9.2,0.15660525,31.37875
2021-06-21 15:26:27.117187500,-53.0,-19.75,31.0,71.22890625,-1.5350000000000001,0.156445125,31.379375
2021-06-21 15:26:27.125000000,-53.0,-20.0,31.0,71.22749999999999,6.13,0.156285,31.380000000000003
2021-06-21 15:26:27.132812500,-53.0,-20.0,31.0,71.22609375,11.96,0.156124875,31.380625000000002
2021-06-21 15:26:27.140625000,-53.0,-20.0,31.0,71.2246875,17.79,0.15596474999999999,31.38125
2021-06-21 15:26:27.148437500,-53.0,-20.0,31.0,71.22328125,21.735,0.155804625,31.381875
2021-06-21 15:26:27.156250000,-53.0,-20.0,31.0,71.221875,25.68,0.1556445,31.3825
2021-06-21 15:26:27.164062500,-53.0,-20.0,31.0,71.22046875,28.075,0.155484375,31.383125
2021-06-21 15:26:27.171875000,-53.0,-20.0,31.0,71.21906249999999,30.47,0.15532425,31.38375
2021-06-21 15:26:27.179687500,-53.0,-20.0,31.0,71.21765625,31.83,0.15516412499999999,31.384375000000002
2021-06-21 15:26:27.187500000,-53.0,-20.0,31.0,71.21625,33.19,0.155004,31.385
2021-06-21 15:26:27.195312500,-53.0,-20.0,31.0,71.21484375,34.025,0.154843875,31.385625
2021-06-21 15:26:27.203125000,-53.0,-20.0,31.0,71.2134375,34.86,0.15468375,31.38625
2021-06-21 15:26:27.210937500,-53.0,-20.0,31.0,71.21203125,35.535,0.154523625,31.386875
2021-06-21 15:26:27.218750000,-53.0,-20.0,31.0,71.210625,36.21,0.1543635,31.3875
2021-06-21 15:26:27.226562500,-53.0,-20.0,31.0,71.20921875,36.925,0.154203375,31.388125000000002
2021-06-21 15:26:27.234375000,-53.0,-20.0,31.0,71.2078125,37.64,0.15404325,31.38875
2021-06-21 15:26:27.242187500,-53.0,-20.0,31.0,71.20640625,38.44,0.153883125,31.389375
2021-06-21 15:26:27.250000000,-53.0,-20.0,31.0,71.205,39.24,0.153723,31.39
2021-06-21 15:26:27.257812500,-53.0,-20.0,31.0,71.20359375,40.095,0.15384309375,31.39
2021-06-21 15:26:27.265625000,-53.0,-20.0,31.0,71.2021875,40.95,0.1539631875,31.39
2021-06-21 15:26:27.273437500,-53.0,-20.0,31.0,71.20078124999999,41.77,0.15408328125,31.39
2021-06-21 15:26:27.281250000,-53.0,-20.0,31.0,71.199375,42.59,0.154203375,31.39
2021-06-21 15:26:27.289062500,-53.0,-20.0,31.0,71.19796875,43.27,0.15432346875,31.39
2021-06-21 15:26:27.296875000,-53.0,-20.0,31.0,71.1965625,43.95,0.1544435625,31.39
2021-06-21 15:26:27.304687500,-53.0,-20.0,31.0,71.19515625,44.39,0.15456365625000001,31.39
2021-06-21 15:26:27.312500000,-53.0,-20.0,31.0,71.19375,44.83,0.15468375,31.39
2021-06-21 15:26:27.320312500,-53.0,-20.0,31.0,71.19234374999999,44.97,0.15480384375,31.39
2021-06-21 15:26:27.328125000,-53.0,-20.0,31.0,71.1909375,45.11,0.1549239375,31.39
2021-06-21 15:26:27.335937500,-53.0,-20.0,31.0,71.18953125,44.935,0.15504403125,31.39
2021-06-21 15:26:27.343750000,-53.0,-20.0,31.0,71.188125,44.76,0.155164125,31.39
2021-06-21 15:26:27.351562500,-53.0,-20.0,31.0,71.18671875,44.32,0.15528421875,31.39
2021-06-21 15:26:27.359375000,-53.0,-20.0,31.0,71.1853125,43.88,0.1554043125,31.39
2021-06-21 15:26:27.367187500,-53.0,-20.0,31.0,71.18390624999999,43.269999999999996,0.15552440625,31.39
2021-06-21 15:26:27.375000000,-53.0,-20.0,31.0,71.1825,42.66,0.15564450000000002,31.39
2021-06-21 15:26:27.382812500,-53.0,-20.0,31.0,71.18109375,42.035,0.15576459375,31.39
2021-06-21 15:26:27.390625000,-53.0,-20.0,31.0,71.1796875,41.41,0.1558846875,31.39
2021-06-21 15:26:27.398437500,-53.0,-20.0,31.0,71.17828125,40.915,0.15600478125,31.39
2021-06-21 15:26:27.406250000,-53.0,-20.0,31.0,71.176875,40.42,0.156124875,31.39
2021-06-21 15:26:27.414062500,-53.0,-20.0,31.0,71.17546875,40.155,0.15624496875000002,31.39
2021-06-21 15:26:27.421875000,-53.0,-20.0,31.0,71.17406249999999,39.89,0.1563650625,31.39
2021-06-21 15:26:27.429687500,-53.0,-20.0,31.0,71.17265625,39.84,0.15648515625,31.39
2021-06-21 15:26:27.437500000,-53.0,-20.0,31.0,71.17125,39.79,0.15660525,31.39
2021-06-21 15:26:27.445312500,-53.0,-20.0,31.0,71.16984375,39.82,0.15672534375,31.39
2021-06-21 15:26:27.453125000,-53.0,-20.0,31.0,71.1684375,39.85,0.15684543750000002,31.39
2021-06-21 15:26:27.460937500,-53.0,-20.0,31.0,71.16703125,39.735,0.15696553125,31.39
2021-06-21 15:26:27.468750000,-53.0,-20.0,31.0,71.16562499999999,39.62,0.157085625,31.39
2021-06-21 15:26:27.476562500,-53.0,-20.0,31.0,71.16421875,39.14,0.15720571875,31.39
2021-06-21 15:26:27.484375000,-53.0,-20.0,31.0,71.1628125,38.66,0.15732581250000002,31.39
2021-06-21 15:26:27.492187500,-53.0,-20.0,31.0,71.16140625,37.675,0.15744590625000002,31.39
2021-06-21 15:26:27.500000000,-53.0,-20.0,31.0,71.16,36.69,0.157566,31.39
2021-06-21 15:26:27.507812500,-53.0,-20.0,31.0,71.15859375,35.195,0.1574859375,31.39
2021-06-21 15:26:27.515625000,-53.0,-20.0,31.0,71.15718749999999,33.7,0.157405875,31.39
2021-06-21 15:26:27.523437500,-53.0,-20.0,31.0,71.15578124999999,31.855000000000004,0.15732581250000002,31.39
2021-06-21 15:26:27.531250000,-53.0,-20.0,31.0,71.154375,30.01,0.15724575000000002,31.39
2021-06-21 15:26:27.539062500,-53.0,-20.0,31.0,71.15296875,28.045,0.1571656875,31.39
2021-06-21 15:26:27.546875000,-53.0,-20.0,31.0,71.1515625,26.08,0.157085625,31.39
2021-06-21 15:26:27.554687500,-53.0,-20.0,31.0,71.15015625,24.21,0.1570055625,31.39
2021-06-21 15:26:27.562500000,-53.0,-20.0,31.0,71.14874999999999,22.34,0.1569255,31.39
2021-06-21 15:26:27.570312500,-53.0,-20.0,31.0,71.14734374999999,20.685000000000002,0.15684543750000002,31.39
2021-06-21 15:26:27.578125000,-53.0,-20.0,31.0,71.1459375,19.03,0.156765375,31.39
2021-06-21 15:26:27.585937500,-53.0,-20.0,31.0,71.14453125,17.58,0.1566853125,31.39
2021-06-21 15:26:27.593750000,-53.0,-20.0,31.0,71.143125,16.13,0.15660525,31.39
2021-06-21 15:26:27.601562500,-53.0,-20.0,31.0,71.14171875,14.765,0.1565251875,31.39
2021-06-21 15:26:27.609375000,-53.0,-20.0,31.0,71.1403125,13.4,0.15644512500000002,31.39
2021-06-21 15:26:27.617187500,-53.0,-20.0,31.0,71.13890624999999,11.98,0.1563650625,31.39
2021-06-21 15:26:27.625000000,-53.0,-20.0,31.0,71.13749999999999,10.56,0.156285,31.39
2021-06-21 15:26:27.632812500,-53.0,-20.0,31.0,71.13609375,8.985,0.1562049375,31.39
2021-06-21 15:26:27.640625000,-53.0,-20.0,31.0,71.1346875,7.41,0.156124875,31.39
2021-06-21 15:26:27.648437500,-53.0,-20.0,31.0,71.13328125,5.69,0.15604481250000002,31.39
2021-06-21 15:26:27.656250000,-53.0,-20.0,31.0,71.131875,3.97,0.15596475,31.39
2021-06-21 15:26:27.664062500,-53.25,-20.0,31.0,71.13046874999999,2.1950000000000003,0.1558846875,31.39
2021-06-21 15:26:27.671875000,-53.5,-20.0,31.0,71.12906249999999,0.42,0.155804625,31.39
2021-06-21 15:26:27.679687500,-53.75,-20.0,31.0,71.12765625,-1.2750000000000001,0.1557245625,31.39
2021-06-21 15:26:27.687500000,-54.0,-20.0,31.0,71.12625,-2.97,0.15564450000000002,31.39
2021-06-21 15:26:27.695312500,-53.75,-20.0,31.0,71.12484375,-4.48,0.1555644375,31.39
2021-06-21 15:26:27.703125000,-53.5,-20.0,31.0,71.1234375,-5.99,0.155484375,31.39
2021-06-21 15:26:27.710937500,-53.25,-20.0,31.0,71.12203124999999,-7.3,0.1554043125,31.39
2021-06-21 15:26:27.718750000,-53.0,-20.0,31.0,71.12062499999999,-8.61,0.15532425,31.39
2021-06-21 15:26:27.726562500,-53.0,-20.0,31.0,71.11921875,-9.809999999999999,0.1552441875,31.39
2021-06-21 15:26:27.734375000,-53.0,-20.0,31.0,71.1178125,-11.01,0.155164125,31.39
2021-06-21 15:26:27.742187500,-53.0,-20.0,31.0,71.11640625,-12.280000000000001,0.1550840625,31.39
2021-06-21 15:26:27.750000000,-53.0,-20.0,31.0,71.115,-13.55,0.155004,31.39
2021-06-21 15:26:27.757812500,-53.0,-20.0,31.0,71.11359374999999,-15.045,0.15512409375,31.39
2021-06-21 15:26:27.765625000,-53.0,-20.0,31.0,71.11218749999999,-16.54,0.1552441875,31.39
2021-06-21 15:26:27.773437500,-53.0,-20.0,31.0,71.11078124999999,-18.335,0.15536428125,31.39
2021-06-21 15:26:27.781250000,-53.0,-20.0,31.0,71.109375,-20.13,0.155484375,31.39
2021-06-21 15:26:27.789062500,-53.0,-20.0,31.0,71.10796875,-22.155,0.15560446875,31.39
2021-06-21 15:26:27.796875000,-53.0,-20.0,31.0,71.1065625,-24.18,0.1557245625,31.39
2021-06-21 15:26:27.804687500,-53.0,-20.0,31.0,71.10515625,-26.265,0.15584465625,31.39
2021-06-21 15:26:27.812500000,-53.0,-20.0,31.0,71.10374999999999,-28.35,0.15596474999999999,31.39
2021-06-21 15:26:27.820312500,-53.0,-20.0,31.0,71.10234374999999,-30.255,0.15608484375,31.39
2021-06-21 15:26:27.828125000,-53.0,-20.0,31.0,71.1009375,-32.16,0.1562049375,31.39
2021-06-21 15:26:27.835937500,-53.0,-20.0,31.0,71.09953125,-33.724999999999994,0.15632503125,31.39
2021-06-21 15:26:27.843750000,-53.0,-20.0,31.0,71.098125,-35.29,0.156445125,31.39
2021-06-21 15:26:27.851562500,-53.0,-20.0,31.0,71.09671875,-36.5,0.15656521874999998,31.39
2021-06-21 15:26:27.859375000,-53.0,-20.0,31.0,71.09531249999999,-37.71,0.1566853125,31.39
2021-06-21 15:26:27.867187500,-53.0,-20.0,31.0,71.09390624999999,-38.715,0.15680540625,31.39
2021-06-21 15:26:27.875000000,-53.0,-20.0,31.0,71.0925,-39.72,0.1569255,31.39
2021-06-21 15:26:27.882812500,-53.0,-20.0,31.0,71.09109375,-40.8,0.15704559375,31.39
2021-06-21 15:26:27.890625000,-53.0,-20.0,31.0,71.0896875,-41.88,0.15716568749999998,31.39
2021-06-21 15:26:27.898437500,-53.0,-20.0,31.0,71.08828125,-43.370000000000005,0.15728578125,31.39
2021-06-21 15:26:27.906250000,-53.0,-20.0,31.0,71.08687499999999,-44.86,0.157405875,31.39
2021-06-21 15:26:27.914062500,-53.0,-20.0,31.0,71.08546874999999,-47.045,0.15752596875,31.39
2021-06-21 15:26:27.921875000,-53.0,-20.0,31.0,71.08406249999999,-49.23,0.1576460625,31.39
2021-06-21 15:26:27.929687500,-53.0,-20.0,31.0,71.08265625,-52.22,0.15776615624999998,31.39
2021-06-21 15:26:27.937500000,-53.0,-20.0,31.0,71.08125,-55.21,0.15788625,31.39
2021-06-21 15:26:27.945312500,-53.0,-20.0,31.0,71.07984375,-58.855000000000004,0.15800634375,31.39
2021-06-21 15:26:27.953125000,-53.0,-20.0,31.0,71.07843749999999,-62.5,0.1581264375,31.39
2021-06-21 15:26:27.960937500,-53.0,-20.0,31.0,71.07703124999999,-66.32,0.15824653125,31.39
2021-06-21 15:26:27.968750000,-53.0,-20.0,31.0,71.07562499999999,-70.14,0.15836662499999998,31.39
2021-06-21 15:26:27.976562500,-53.0,-20.0,31.0,71.07421875,-73.315,0.15848671874999998,31.39
2021-06-21 15:26:27.984375000,-53.0,-20.0,31.0,71.0728125,-76.49,0.1586068125,31.39
2021-06-21 15:26:27.992187500,-53.0,-20.0,31.0,71.07140625,-78.055,0.15872690625,31.39
2021-06-21 15:26:28.000000000,-53.0,-20.0,31.0,71.07,-79.62,0.158847,31.39
2021-06-21 15:26:28.007812500,-53.0,-20.0,31.0,71.06851562499999,-78.735,0.15872690625,31.389375
2021-06-21 15:26:28.015625000,-53.0,-20.0,31.0,71.06703125,-77.85,0.1586068125,31.38875
2021-06-21 15:26:28.023437500,-53.0,-20.0,31.0,71.065546875,-74.10499999999999,0.15848671874999998,31.388125000000002
2021-06-21 15:26:28.031250000,-53.0,-20.0,31.0,71.06406249999999,-70.36,0.15836662499999998,31.3875
2021-06-21 15:26:28.039062500,-53.0,-20.0,31.0,71.06257812499999,-64.00999999999999,0.15824653125,31.386875
2021-06-21 15:26:28.046875000,-53.0,-20.0,31.0,71.06109375,-57.66,0.1581264375,31.38625
2021-06-21 15:26:28.054687500,-53.0,-20.0,31.0,71.059609375,-49.575,0.15800634375,31.385625
2021-06-21 15:26:28.062500000,-53.0,-20.0,31.0,71.05812499999999,-41.49,0.15788625,31.385
2021-06-21 15:26:28.070312500,-53.0,-20.0,31.0,71.056640625,-32.92,0.15776615624999998,31.384375000000002
2021-06-21 15:26:28.078125000,-53.0,-20.0,31.0,71.05515625,-24.35,0.1576460625,31.38375
2021-06-21 15:26:28.085937500,-53.0,-20.0,31.0,71.05367187499999,-16.535,0.15752596875,31.383125
2021-06-21 15:26:28.093750000,-53.0,-20.0,31.0,71.05218749999999,-8.72,0.157405875,31.3825
2021-06-21 15:26:28.101562500,-53.0,-20.0,31.0,71.050703125,-2.49,0.15728578125,31.381875
2021-06-21 15:26:28.109375000,-53.0,-20.0,31.0,71.04921875,3.74,0.15716568749999998,31.38125
2021-06-21 15:26:28.117187500,-53.0,-20.0,31.0,71.04773437499999,8.094999999999999,0.15704559375,31.380625000000002
2021-06-21 15:26:28.125000000,-53.0,-20.0,31.0,71.04624999999999,12.45,0.1569255,31.380000000000003
2021-06-21 15:26:28.132812500,-53.0,-20.0,31.0,71.044765625,15.125,0.15680540625,31.379375
2021-06-21 15:26:28.140625000,-53.0,-20.0,31.0,71.04328124999999,17.8,0.1566853125,31.37875
2021-06-21 15:26:28.148437500,-53.0,-20.0,31.0,71.04179687499999,19.285,0.15656521874999998,31.378125
2021-06-21 15:26:28.156250000,-53.0,-20.0,31.0,71.0403125,20.77,0.156445125,31.3775
2021-06-21 15:26:28.164062500,-53.0,-20.0,31.0,71.038828125,21.58,0.15632503125,31.376875000000002
2021-06-21 15:26:28.171875000,-53.0,-20.0,31.0,71.03734374999999,22.39,0.1562049375,31.376250000000002
2021-06-21 15:26:28.179687500,-53.0,-20.0,31.0,71.03585937499999,22.93,0.15608484375,31.375625
2021-06-21 15:26:28.187500000,-53.0,-20.0,31.0,71.034375,23.47,0.15596474999999999,31.375
2021-06-21 15:26:28.195312500,-53.0,-20.0,31.25,71.032890625,23.985,0.15584465625,31.374375
2021-06-21 15:26:28.203125000,-53.0,-20.0,31.5,71.03140624999999,24.5,0.1557245625,31.37375
2021-06-21 15:26:28.210937500,-53.0,-20.0,31.75,71.029921875,25.095,0.15560446875,31.373125
2021-06-21 15:26:28.218750000,-53.0,-20.0,32.0,71.0284375,25.69,0.155484375,31.372500000000002
2021-06-21 15:26:28.226562500,-53.0,-20.0,31.75,71.02695312499999,26.380000000000003,0.15536428125,31.371875
2021-06-21 15:26:28.234375000,-53.0,-20.0,31.5,71.02546874999999,27.07,0.1552441875,31.37125
2021-06-21 15:26:28.242187500,-53.0,-20.0,31.25,71.023984375,27.814999999999998,0.15512409375,31.370625
2021-06-21 15:26:28.250000000,-53.0,-20.0,31.0,71.0225,28.56,0.155004,31.37
2021-06-21 15:26:28.257812500,-53.0,-20.0,31.0,71.02101562499999,29.29,0.1550840625,31.37
2021-06-21 15:26:28.265625000,-53.0,-20.0,31.0,71.01953125,30.02,0.155164125,31.37
2021-06-21 15:26:28.273437500,-53.0,-20.0,31.0,71.018046875,30.634999999999998,0.1552441875,31.37
2021-06-21 15:26:28.281250000,-53.0,-20.0,31.0,71.01656249999999,31.25,0.15532425,31.37
2021-06-21 15:26:28.289062500,-53.0,-19.75,31.25,71.01507812499999,31.69,0.1554043125,31.37
2021-06-21 15:26:28.296875000,-53.0,-19.5,31.5,71.01359375,32.13,0.155484375,31.37
2021-06-21 15:26:28.304687500,-53.0,-19.25,31.75,71.012109375,32.370000000000005,0.1555644375,31.37
2021-06-21 15:26:28.312500000,-53.0,-19.0,32.0,71.01062499999999,32.61,0.15564450000000002,31.37
2021-06-21 15:26:28.320312500,-53.0,-19.0,31.75,71.009140625,32.665,0.1557245625,31.37
2021-06-21 15:26:28.328125000,-53.0,-19.0,31.5,71.00765625,32.72,0.155804625,31.37
2021-06-21 15:26:28.335937500,-53.0,-19.0,31.25,71.00617187499999,32.67,0.1558846875,31.37
2021-06-21 15:26:28.343750000,-53.0,-19.0,31.0,71.00468749999999,32.62,0.15596475,31.37
2021-06-21 15:26:28.351562500,-53.0,-19.25,31.0,71.003203125,32.56,0.15604481250000002,31.37
2021-06-21 15:26:28.359375000,-53.0,-19.5,31.0,71.00171875,32.5,0.156124875,31.37
2021-06-21 15:26:28.367187500,-53.0,-19.75,31.0,71.00023437499999,32.515,0.1562049375,31.37
2021-06-21 15:26:28.375000000,-53.0,-20.0,31.0,70.99875,32.53,0.156285,31.37
2021-06-21 15:26:28.382812500,-53.0,-20.0,31.0,70.997265625,32.67,0.1563650625,31.37
2021-06-21 15:26:28.390625000,-53.0,-20.0,31.0,70.99578125,32.81,0.15644512500000002,31.37
2021-06-21 15:26:28.398437500,-53.0,-20.0,31.0,70.99429687499999,33.040000000000006,0.1565251875,31.37
2021-06-21 15:26:28.406250000,-53.0,-20.0,31.0,70.9928125,33.27,0.15660525,31.37
2021-06-21 15:26:28.414062500,-53.0,-20.0,31.0,70.991328125,33.485,0.1566853125,31.37
2021-06-21 15:26:28.421875000,-53.0,-20.0,31.0,70.98984374999999,33.7,0.156765375,31.37
2021-06-21 15:26:28.429687500,-53.0,-20.0,31.0,70.98835937499999,33.725,0.15684543750000002,31.37
2021-06-21 15:26:28.437500000,-53.0,-20.0,31.0,70.986875,33.75,0.1569255,31.37
2021-06-21 15:26:28.445312500,-53.0,-20.0,31.0,70.985390625,33.43,0.1570055625,31.37
2021-06-21 15:26:28.453125000,-53.0,-20.0,31.0,70.98390624999999,33.11,0.157085625,31.37
2021-06-21 15:26:28.460937500,-53.0,-20.0,31.0,70.982421875,32.335,0.1571656875,31.37
2021-06-21 15:26:28.468750000,-53.0,-20.0,31.0,70.9809375,31.56,0.15724575000000002,31.37
2021-06-21 15:26:28.476562500,-53.0,-20.0,31.25,70.97945312499999,30.36,0.15732581250000002,31.37
2021-06-21 15:26:28.484375000,-53.0,-20.0,31.5,70.97796874999999,29.16,0.157405875,31.37
2021-06-21 15:26:28.492187500,-53.0,-20.0,31.75,70.976484375,27.645,0.1574859375,31.37
2021-06-21 15:26:28.500000000,-53.0,-20.0,32.0,70.975,26.13,0.157566,31.37
2021-06-21 15:26:28.507812500,-53.0,-19.75,32.0,70.97351562499999,24.479999999999997,0.1574859375,31.37
2021-06-21 15:26:28.515625000,-53.0,-19.5,32.0,70.97203125,22.83,0.157405875,31.37
2021-06-21 15:26:28.523437500,-53.0,-19.25,32.0,70.970546875,21.205,0.15732581250000002,31.37
2021-06-21 15:26:28.531250000,-53.0,-19.0,32.0,70.96906249999999,19.58,0.15724575000000002,31.37
2021-06-21 15:26:28.539062500,-53.25,-18.75,31.75,70.96757812499999,18.07,0.1571656875,31.37
2021-06-21 15:26:28.546875000,-53.5,-18.5,31.5,70.96609375,16.56,0.157085625,31.37
2021-06-21 15:26:28.554687500,-53.75,-18.25,31.25,70.964609375,15.184999999999999,0.1570055625,31.37
2021-06-21 15:26:28.562500000,-54.0,-18.0,31.0,70.96312499999999,13.81,0.1569255,31.37
2021-06-21 15:26:28.570312500,-54.0,-18.0,30.75,70.961640625,12.515,0.15684543750000002,31.37
2021-06-21 15:26:28.578125000,-54.0,-18.0,30.5,70.96015625,11.22,0.156765375,31.37
2021-06-21 15:26:28.585937500,-54.0,-18.0,30.25,70.958671875,9.95,0.1566853125,31.37
2021-06-21 15:26:28.593750000,-54.0,-18.0,30.0,70.95718749999999,8.68,0.15660525,31.37
2021-06-21 15:26:28.601562500,-54.0,-18.0,30.0,70.955703125,7.385,0.1565251875,31.37
2021-06-21 15:26:28.609375000,-54.0,-18.0,30.0,70.95421875,6.09,0.15644512500000002,31.37
2021-06-21 15:26:28.617187500,-54.0,-18.0,30.0,70.95273437499999,4.78,0.1563650625,31.37
2021-06-21 15:26:28.625000000,-54.0,-18.0,30.0,70.95124999999999,3.47,0.156285,31.37
2021-06-21 15:26:28.632812500,-54.0,-18.25,30.25,70.949765625,2.1900000000000004,0.1562049375,31.37
2021-06-21 15:26:28.640625000,-54.0,-18.5,30.5,70.94828125,0.91,0.156124875,31.37
2021-06-21 15:26:28.648437500,-54.0,-18.75,30.75,70.94679687499999,-0.29999999999999993,0.15604481250000002,31.37
2021-06-21 15:26:28.656250000,-54.0,-19.0,31.0,70.9453125,-1.51,0.15596475,31.37
2021-06-21 15:26:28.664062500,-53.75,-19.25,31.0,70.943828125,-2.635,0.1558846875,31.37
2021-06-21 15:26:28.671875000,-53.5,-19.5,31.0,70.94234374999999,-3.76,0.155804625,31.37
2021-06-21 15:26:28.679687500,-53.25,-19.75,31.0,70.94085937499999,-4.855,0.1557245625,31.37
2021-06-21 15:26:28.687500000,-53.0,-20.0,31.0,70.939375,-5.95,0.15564450000000002,31.37
2021-06-21 15:26:28.695312500,-53.0,-20.0,31.0,70.937890625,-7.119999999999999,0.1555644375,31.37
2021-06-21 15:26:28.703125000,-53.0,-20.0,31.0,70.93640624999999,-8.29,0.155484375,31.37
2021-06-21 15:26:28.710937500,-53.0,-20.0,31.0,70.934921875,-9.655,0.1554043125,31.37
2021-06-21 15:26:28.718750000,-53.0,-20.0,31.0,70.9334375,-11.02,0.15532425,31.37
2021-06-21 15:26:28.726562500,-53.0,-19.75,31.0,70.93195312499999,-12.615,0.1552441875,31.37
2021-06-21 15:26:28.734375000,-53.0,-19.5,31.0,70.93046874999999,-14.21,0.155164125,31.37
2021-06-21 15:26:28.742187500,-53.0,-19.25,31.0,70.928984375,-15.975,0.1550840625,31.37
2021-06-21 15:26:28.750000000,-53.0,-19.0,31.0,70.9275,-17.74,0.155004,31.37
2021-06-21 15:26:28.757812500,-53.25,-19.0,31.0,70.92601562499999,-19.505,0.15504403125,31.37
2021-06-21 15:26:28.765625000,-53.5,-19.0,31.0,70.92453125,-21.27,0.1550840625,31.37
2021-06-21 15:26:28.773437500,-53.75,-19.0,31.0,70.923046875,-22.855,0.15512409375,31.37
2021-06-21 15:26:28.781250000,-54.0,-19.0,31.0,70.9215625,-24.44,0.155164125,31.37
2021-06-21 15:26:28.789062500,-54.0,-18.75,31.0,70.92007812499999,-25.75,0.15520415625,31.37
2021-06-21 15:26:28.796875000,-54.0,-18.5,31.0,70.91859375,-27.06,0.1552441875,31.37
2021-06-21 15:26:28.804687500,-54.0,-18.25,31.0,70.917109375,-28.104999999999997,0.15528421875,31.37
2021-06-21 15:26:28.812500000,-54.0,-18.0,31.0,70.91562499999999,-29.15,0.15532425,31.37
2021-06-21 15:26:28.820312500,-53.75,-18.0,31.0,70.914140625,-30.09,0.15536428125,31.37
2021-06-21 15:26:28.828125000,-53.5,-18.0,31.0,70.91265625,-31.03,0.1554043125,31.37
2021-06-21 15:26:28.835937500,-53.25,-18.0,31.0,70.911171875,-32.1,0.15544434375,31.37
2021-06-21 15:26:28.843750000,-53.0,-18.0,31.0,70.90968749999999,-33.17,0.155484375,31.37
2021-06-21 15:26:28.851562500,-53.0,-18.25,31.0,70.908203125,-34.605000000000004,0.15552440625,31.37
2021-06-21 15:26:28.859375000,-53.0,-18.5,31.0,70.90671875,-36.04,0.1555644375,31.37
2021-06-21 15:26:28.867187500,-53.0,-18.75,31.0,70.90523437499999,-37.985,0.15560446875,31.37
2021-06-21 15:26:28.875000000,-53.0,-19.0,31.0,70.90375,-39.93,0.15564450000000002,31.37
2021-06-21 15:26:28.882812500,-53.0,-19.25,31.25,70.902265625,-42.379999999999995,0.15568453125,31.37
2021-06-21 15:26:28.890625000,-53.0,-19.5,31.5,70.90078125,-44.83,0.1557245625,31.37
2021-06-21 15:26:28.898437500,-53.0,-19.75,31.75,70.89929687499999,-47.555,0.15576459375,31.37
2021-06-21 15:26:28.906250000,-53.0,-20.0,32.0,70.8978125,-50.28,0.155804625,31.37
2021-06-21 15:26:28.914062500,-53.0,-20.0,32.0,70.896328125,-52.81,0.15584465625000002,31.37
2021-06-21 15:26:28.921875000,-53.0,-20.0,32.0,70.89484374999999,-55.34,0.1558846875,31.37
2021-06-21 15:26:28.929687500,-53.0,-20.0,32.0,70.89335937499999,-57.010000000000005,0.15592471875,31.37
2021-06-21 15:26:28.937500000,-53.0,-20.0,32.0,70.891875,-58.68,0.15596475,31.37
2021-06-21 15:26:28.945312500,-53.0,-19.75,32.0,70.890390625,-58.769999999999996,0.15600478125,31.37
2021-06-21 15:26:28.953125000,-53.0,-19.5,32.0,70.88890624999999,-58.86,0.15604481250000002,31.37
2021-06-21 15:26:28.960937500,-53.0,-19.25,32.0,70.887421875,-56.855000000000004,0.15608484375,31.37
2021-06-21 15:26:28.968750000,-53.0,-19.0,32.0,70.8859375,-54.85,0.156124875,31.37
2021-06-21 15:26:28.976562500,-53.0,-19.0,32.0,70.884453125,-50.64,0.15616490625,31.37
2021-06-21 15:26:28.984375000,-53.0,-19.0,32.0,70.88296874999999,-46.43,0.1562049375,31.37
2021-06-21 15:26:28.992187500,-53.0,-19.0,32.0,70.881484375,-40.415,0.15624496875000002,31.37
2021-06-21 15:26:29.000000000,-53.0,-19.0,32.0,70.88,-34.4,0.156285,31.37
2021-06-21 15:26:29.007812500,-53.5,-18.75,31.75,70.87875,-27.424999999999997,0.156285,31.369375
2021-06-21 15:26:29.015625000,-54.0,-18.5,31.5,70.8775,-20.45,0.156285,31.368750000000002
2021-06-21 15:26:29.023437500,-54.5,-18.25,31.25,70.87625,-13.495,0.156285,31.368125000000003
2021-06-21 15:26:29.031250000,-55.0,-18.0,31.0,70.875,-6.54,0.156285,31.3675
2021-06-21 15:26:29.039062500,-54.75,-18.0,31.0,70.87375,-0.45999999999999996,0.156285,31.366875
2021-06-21 15:26:29.046875000,-54.5,-18.0,31.0,70.8725,5.62,0.156285,31.36625
2021-06-21 15:26:29.054687500,-54.25,-18.0,31.0,70.87124999999999,10.329999999999998,0.156285,31.365625
2021-06-21 15:26:29.062500000,-54.0,-18.0,31.0,70.86999999999999,15.04,0.156285,31.365000000000002
2021-06-21 15:26:29.070312500,-53.75,-18.25,31.0,70.86874999999999,18.265,0.156285,31.364375000000003
2021-06-21 15:26:29.078125000,-53.5,-18.5,31.0,70.86749999999999,21.49,0.156285,31.36375
2021-06-21 15:26:29.085937500,-53.25,-18.75,31.0,70.86625,23.42,0.156285,31.363125
2021-06-21 15:26:29.093750000,-53.0,-19.0,31.0,70.865,25.35,0.156285,31.3625
2021-06-21 15:26:29.101562500,-53.25,-19.0,31.0,70.86375,26.270000000000003,0.156285,31.361875
2021-06-21 15:26:29.109375000,-53.5,-19.0,31.0,70.8625,27.19,0.156285,31.361250000000002
2021-06-21 15:26:29.117187500,-53.75,-19.0,31.0,70.86125,27.355,0.156285,31.360625000000002
2021-06-21 15:26:29.125000000,-54.0,-19.0,31.0,70.86,27.52,0.156285,31.36
2021-06-21 15:26:29.132812500,-54.0,-19.25,31.0,70.85875,27.14,0.156285,31.359375
2021-06-21 15:26:29.140625000,-54.0,-19.5,31.0,70.8575,26.76,0.156285,31.35875
2021-06-21 15:26:29.148437500,-54.0,-19.75,31.0,70.85625,25.995,0.156285,31.358125
2021-06-21 15:26:29.156250000,-54.0,-20.0,31.0,70.85499999999999,25.23,0.156285,31.3575
2021-06-21 15:26:29.164062500,-53.75,-20.0,31.25,70.85374999999999,24.265,0.156285,31.356875000000002
2021-06-21 15:26:29.171875000,-53.5,-20.0,31.5,70.85249999999999,23.3,0.156285,31.356250000000003
2021-06-21 15:26:29.179687500,-53.25,-20.0,31.75,70.85125,22.325000000000003,0.156285,31.355625
2021-06-21 15:26:29.187500000,-53.0,-20.0,32.0,70.85,21.35,0.156285,31.355
2021-06-21 15:26:29.195312500,-53.0,-20.0,31.75,70.84875,20.555,0.156285,31.354375
2021-06-21 15:26:29.203125000,-53.0,-20.0,31.5,70.8475,19.76,0.156285,31.35375
2021-06-21 15:26:29.210937500,-53.0,-20.0,31.25,70.84625,19.26,0.156285,31.353125000000002
2021-06-21 15:26:29.218750000,-53.0,-20.0,31.0,70.845,18.76,0.156285,31.352500000000003
2021-06-21 15:26:29.226562500,-53.25,-19.75,31.0,70.84375,18.585,0.156285,31.351875
2021-06-21 15:26:29.234375000,-53.5,-19.5,31.0,70.8425,18.41,0.156285,31.35125
2021-06-21 15:26:29.242187500,-53.75,-19.25,31.0,70.84125,18.505000000000003,0.156285,31.350625
2021-06-21 15:26:29.250000000,-54.0,-19.0,31.0,70.84,18.6,0.156285,31.35
2021-06-21 15:26:29.257812500,-54.0,-19.0,31.0,70.83874999999999,18.875,0.1563650625,31.35
2021-06-21 15:26:29.265625000,-54.0,-19.0,31.0,70.83749999999999,19.15,0.15644512500000002,31.35
2021-06-21 15:26:29.273437500,-54.0,-19.0,31.0,70.83624999999999,19.485,0.1565251875,31.35
2021-06-21 15:26:29.281250000,-54.0,-19.0,31.0,70.835,19.82,0.15660525,31.35
2021-06-21 15:26:29.289062500,-54.0,-19.0,31.0,70.83375,20.15,0.1566853125,31.35
2021-06-21 15:26:29.296875000,-54.0,-19.0,31.0,70.8325,20.48,0.156765375,31.35
2021-06-21 15:26:29.304687500,-54.0,-19.0,31.0,70.83125,20.755000000000003,0.1568454375,31.35
2021-06-21 15:26:29.312500000,-54.0,-19.0,31.0,70.83,21.03,0.1569255,31.35
2021-06-21 15:26:29.320312500,-53.75,-19.0,31.0,70.82875,21.255000000000003,0.1570055625,31.35
2021-06-21 15:26:29.328125000,-53.5,-19.0,31.0,70.8275,21.48,0.157085625,31.35
2021-06-21 15:26:29.335937500,-53.25,-19.0,31.0,70.82625,21.665,0.1571656875,31.35
2021-06-21 15:26:29.343750000,-53.0,-19.0,31.0,70.825,21.85,0.15724575,31.35
2021-06-21 15:26:29.351562500,-53.0,-19.25,31.25,70.82374999999999,21.985,0.1573258125,31.35
2021-06-21 15:26:29.359375000,-53.0,-19.5,31.5,70.82249999999999,22.12,0.157405875,31.35
2021-06-21 15:26:29.367187500,-53.0,-19.75,31.75,70.82124999999999,22.14,0.1574859375,31.35
2021-06-21 15:26:29.375000000,-53.0,-20.0,32.0,70.82,22.16,0.15756599999999998,31.35
2021-06-21 15:26:29.382812500,-52.75,-19.75,32.0,70.81875,21.92,0.1576460625,31.35
2021-06-21 15:26:29.390625000,-52.5,-19.5,32.0,70.8175,21.68,0.157726125,31.35
2021-06-21 15:26:29.398437500,-52.25,-19.25,32.0,70.81625,21.03,0.1578061875,31.35
2021-06-21 15:26:29.406250000,-52.0,-19.0,32.0,70.815,20.38,0.15788625,31.35
2021-06-21 15:26:29.414062500,-52.5,-19.0,31.75,70.81375,19.205,0.15796631249999998,31.35
2021-06-21 15:26:29.421875000,-53.0,-19.0,31.5,70.8125,18.03,0.158046375,31.35
2021-06-21 15:26:29.429687500,-53.5,-19.0,31.25,70.81125,16.355,0.1581264375,31.35
2021-06-21 15:26:29.437500000,-54.0,-19.0,31.0,70.81,14.68,0.1582065,31.35
2021-06-21 15:26:29.445312500,-54.0,-19.0,31.0,70.80875,12.675,0.1582865625,31.35
2021-06-21 15:26:29.453125000,-54.0,-19.0,31.0,70.80749999999999,10.67,0.15836662499999998,31.35
2021-06-21 15:26:29.460937500,-54.0,-19.0,31.0,70.80624999999999,8.615,0.1584466875,31.35
2021-06-21 15:26:29.468750000,-54.0,-19.0,31.0,70.80499999999999,6.56,0.15852675,31.35
2021-06-21 15:26:29.476562500,-54.0,-19.0,31.0,70.80375,4.745,0.1586068125,31.35
2021-06-21 15:26:29.484375000,-54.0,-19.0,31.0,70.8025,2.93,0.15868687499999998,31.35
2021-06-21 15:26:29.492187500,-54.0,-19.0,31.0,70.80125,1.5350000000000001,0.15876693749999998,31.35
2021-06-21 15:26:29.500000000,-54.0,-19.0,31.0,70.8,0.14,0.158847,31.35
2021-06-21 15:26:29.507812500,-53.75,-19.0,31.25,70.79875,-0.8450000000000001,0.15872690625,31.35
2021-06-21 15:26:29.515625000,-53.5,-19.0,31.5,70.7975,-1.83,0.1586068125,31.35
2021-06-21 15:26:29.523437500,-53.25,-19.0,31.75,70.79625,-2.56,0.15848671874999998,31.35
2021-06-21 15:26:29.531250000,-53.0,-19.0,32.0,70.795,-3.29,0.15836662499999998,31.35
2021-06-21 15:26:29.539062500,-53.0,-19.0,32.0,70.79375,-4.029999999999999,0.15824653125,31.35
2021-06-21 15:26:29.546875000,-53.0,-19.0,32.0,70.7925,-4.77,0.1581264375,31.35
2021-06-21 15:26:29.554687500,-53.0,-19.0,32.0,70.79124999999999,-5.71,0.15800634375,31.35
2021-06-21 15:26:29.562500000,-53.0,-19.0,32.0,70.78999999999999,-6.65,0.15788625,31.35
2021-06-21 15:26:29.570312500,-53.25,-19.0,31.75,70.78875,-7.845,0.15776615624999998,31.35
2021-06-21 15:26:29.578125000,-53.5,-19.0,31.5,70.7875,-9.04,0.1576460625,31.35
2021-06-21 15:26:29.585937500,-53.75,-19.0,31.25,70.78625,-10.405,0.15752596875,31.35
2021-06-21 15:26:29.593750000,-54.0,-19.0,31.0,70.785,-11.77,0.157405875,31.35
2021-06-21 15:26:29.601562500,-54.0,-19.0,31.0,70.78375,-13.129999999999999,0.15728578125,31.35
2021-06-21 15:26:29.609375000,-54.0,-19.0,31.0,70.7825,-14.49,0.15716568749999998,31.35
2021-06-21 15:26:29.617187500,-54.0,-19.0,31.0,70.78125,-15.705000000000002,0.15704559375,31.35
2021-06-21 15:26:29.625000000,-54.0,-19.0,31.0,70.78,-16.92,0.1569255,31.35
2021-06-21 15:26:29.632812500,-53.75,-18.75,31.0,70.77875,-17.955,0.15680540625,31.35
2021-06-21 15:26:29.640625000,-53.5,-18.5,31.0,70.7775,-18.99,0.1566853125,31.35
2021-06-21 15:26:29.648437500,-53.25,-18.25,31.0,70.77625,-19.975,0.15656521874999998,31.35
2021-06-21 15:26:29.656250000,-53.0,-18.0,31.0,70.77499999999999,-20.96,0.156445125,31.35
2021-06-21 15:26:29.664062500,-53.25,-18.25,31.0,70.77374999999999,-22.16,0.15632503125,31.35
2021-06-21 15:26:29.671875000,-53.5,-18.5,31.0,70.7725,-23.36,0.1562049375,31.35
2021-06-21 15:26:29.679687500,-53.75,-18.75,31.0,70.77125,-25.085,0.15608484375,31.35
2021-06-21 15:26:29.687500000,-54.0,-19.0,31.0,70.77,-26.81,0.15596474999999999,31.35
2021-06-21 15:26:29.695312500,-54.0,-19.0,31.0,70.76875,-29.299999999999997,0.15584465625,31.35
2021-06-21 15:26:29.703125000,-54.0,-19.0,31.0,70.7675,-31.79,0.1557245625,31.35
2021-06-21 15:26:29.710937500,-54.0,-19.0,31.0,70.76625,-35.11,0.15560446875,31.35
2021-06-21 15:26:29.718750000,-54.0,-19.0,31.0,70.765,-38.43,0.155484375,31.35
2021-06-21 15:26:29.726562500,-54.0,-19.0,31.0,70.76375,-42.385000000000005,0.15536428125,31.35
2021-06-21 15:26:29.734375000,-54.0,-19.0,31.0,70.7625,-46.34,0.1552441875,31.35
2021-06-21 15:26:29.742187500,-54.0,-19.0,31.0,70.76125,-50.435,0.15512409375,31.35
2021-06-21 15:26:29.750000000,-54.0,-19.0,31.0,70.75999999999999,-54.53,0.155004,31.35
2021-06-21 15:26:29.757812500,-54.0,-19.0,31.0,70.75874999999999,-58.05,0.15512409375,31.35
2021-06-21 15:26:29.765625000,-54.0,-19.0,31.0,70.7575,-61.57,0.1552441875,31.35
2021-06-21 15:26:29.773437500,-54.0,-19.0,31.0,70.75625,-63.75,0.15536428125,31.35
2021-06-21 15:26:29.781250000,-54.0,-19.0,31.0,70.755,-65.93,0.155484375,31.35
2021-06-21 15:26:29.789062500,-54.0,-19.0,31.0,70.75375,-66.195,0.15560446875,31.35
2021-06-21 15:26:29.796875000,-54.0,-19.0,31.0,70.7525,-66.46,0.1557245625,31.35
2021-06-21 15:26:29.804687500,-54.0,-19.0,31.0,70.75125,-64.62,0.15584465625,31.35
2021-06-21 15:26:29.812500000,-54.0,-19.0,31.0,70.75,-62.78,0.15596474999999999,31.35
2021-06-21 15:26:29.820312500,-54.0,-19.0,31.0,70.74875,-59.150000000000006,0.15608484375,31.35
2021-06-21 15:26:29.828125000,-54.0,-19.0,31.0,70.7475,-55.52,0.1562049375,31.35
2021-06-21 15:26:29.835937500,-54.0,-19.0,31.0,70.74625,-50.815,0.15632503125,31.35
2021-06-21 15:26:29.843750000,-54.0,-19.0,31.0,70.745,-46.11,0.156445125,31.35
2021-06-21 15:26:29.851562500,-54.25,-18.75,31.0,70.74374999999999,-41.230000000000004,0.15656521874999998,31.35
2021-06-21 15:26:29.859375000,-54.5,-18.5,31.0,70.74249999999999,-36.35,0.1566853125,31.35
2021-06-21 15:26:29.867187500,-54.75,-18.25,31.0,70.74125,-32.085,0.15680540625,31.35
2021-06-21 15:26:29.875000000,-55.0,-18.0,31.0,70.74,-27.82,0.1569255,31.35
2021-06-21 15:26:29.882812500,-54.75,-18.25,31.0,70.73875,-24.62,0.15704559375,31.35
2021-06-21 15:26:29.890625000,-54.5,-18.5,31.0,70.7375,-21.42,0.15716568749999998,31.35
2021-06-21 15:26:29.898437500,-54.25,-18.75,31.0,70.73625,-19.36,0.15728578125,31.35
2021-06-21 15:26:29.906250000,-54.0,-19.0,31.0,70.735,-17.3,0.157405875,31.35
2021-06-21 15:26:29.914062500,-53.75,-19.0,31.25,70.73375,-16.18,0.15752596875,31.35
2021-06-21 15:26:29.921875000,-53.5,-19.0,31.5,70.7325,-15.06,0.1576460625,31.35
2021-06-21 15:26:29.929687500,-53.25,-19.0,31.75,70.73125,-14.545,0.15776615624999998,31.35
2021-06-21 15:26:29.937500000,-53.0,-19.0,32.0,70.73,-14.03,0.15788625,31.35
2021-06-21 15:26:29.945312500,-53.0,-19.0,31.75,70.72875,-13.82,0.15800634375,31.35
2021-06-21 15:26:29.953125000,-53.0,-19.0,31.5,70.72749999999999,-13.61,0.1581264375,31.35
2021-06-21 15:26:29.960937500,-53.0,-19.0,31.25,70.72625,-13.52,0.15824653125,31.35
2021-06-21 15:26:29.968750000,-53.0,-19.0,31.0,70.725,-13.43,0.15836662499999998,31.35
2021-06-21 15:26:29.976562500,-53.0,-19.0,31.25,70.72375,-13.309999999999999,0.15848671874999998,31.35
2021-06-21 15:26:29.984375000,-53.0,-19.0,31.5,70.7225,-13.19,0.1586068125,31.35
2021-06-21 15:26:29.992187500,-53.0,-19.0,31.75,70.72125,-12.96,0.15872690625,31.35
2021-06-21 15:26:30.000000000,-53.0,-19.0,32.0,70.72,-12.73,0.158847,31.35
2021-06-21 15:26:30.007812500,-53.25,-19.0,31.75,70.71890625,-12.280000000000001,0.15876693749999998,31.35
2021-06-21 15:26:30.015625000,-53.5,-19.0,31.5,70.7178125,-11.83,0.15868687499999998,31.35
2021-06-21 15:26:30.023437500,-53.75,-19.0,31.25,70.71671875,-11.07,0.1586068125,31.35
2021-06-21 15:26:30.031250000,-54.0,-19.0,31.0,70.715625,-10.31,0.15852675,31.35
2021-06-21 15:26:30.039062500,-53.75,-19.0,31.0,70.71453125,-9.15,0.1584466875,31.35
2021-06-21 15:26:30.046875000,-53.5,-19.0,31.0,70.7134375,-7.99,0.15836662499999998,31.35
2021-06-21 15:26:30.054687500,-53.25,-19.0,31.0,70.71234375,-6.385,0.1582865625,31.35
2021-06-21 15:26:30.062500000,-53.0,-19.0,31.0,70.71124999999999,-4.78,0.1582065,31.35
2021-06-21 15:26:30.070312500,-53.0,-19.0,31.25,70.71015625,-2.725,0.1581264375,31.35
2021-06-21 15:26:30.078125000,-53.0,-19.0,31.5,70.7090625,-0.67,0.158046375,31.35
2021-06-21 15:26:30.085937500,-53.0,-19.0,31.75,70.70796874999999,1.79,0.15796631249999998,31.35
2021-06-21 15:26:30.093750000,-53.0,-19.0,32.0,70.706875,4.25,0.15788625,31.35
2021-06-21 15:26:30.101562500,-53.25,-19.0,31.75,70.70578125,7.04,0.1578061875,31.35
2021-06-21 15:26:30.109375000,-53.5,-19.0,31.5,70.7046875,9.83,0.157726125,31.35
2021-06-21 15:26:30.117187500,-53.75,-19.0,31.25,70.70359375,12.844999999999999,0.1576460625,31.35
2021-06-21 15:26:30.125000000,-54.0,-19.0,31.0,70.7025,15.86,0.15756599999999998,31.35
2021-06-21 15:26:30.132812500,-54.25,-19.0,31.0,70.70140625,18.97,0.1574859375,31.35
2021-06-21 15:26:30.140625000,-54.5,-19.0,31.0,70.7003125,22.08,0.157405875,31.35
2021-06-21 15:26:30.148437500,-54.75,-19.0,31.0,70.69921875,25.17,0.1573258125,31.35
2021-06-21 15:26:30.156250000,-55.0,-19.0,31.0,70.698125,28.26,0.15724575,31.35
2021-06-21 15:26:30.164062500,-54.75,-19.0,31.0,70.69703125,31.22,0.1571656875,31.35
2021-06-21 15:26:30.171875000,-54.5,-19.0,31.0,70.6959375,34.18,0.157085625,31.35
2021-06-21 15:26:30.179687500,-54.25,-19.0,31.0,70.69484375,36.91,0.1570055625,31.35
2021-06-21 15:26:30.187500000,-54.0,-19.0,31.0,70.69375,39.64,0.1569255,31.35
2021-06-21 15:26:30.195312500,-53.75,-19.0,31.25,70.69265625,42.055,0.1568454375,31.35
2021-06-21 15:26:30.203125000,-53.5,-19.0,31.5,70.6915625,44.47,0.156765375,31.35
2021-06-21 15:26:30.210937500,-53.25,-19.0,31.75,70.69046875,46.46,0.1566853125,31.35
2021-06-21 15:26:30.218750000,-53.0,-19.0,32.0,70.689375,48.45,0.15660525,31.35
2021-06-21 15:26:30.226562500,-53.0,-19.0,32.0,70.68828125,49.875,0.1565251875,31.35
2021-06-21 15:26:30.234375000,-53.0,-19.0,32.0,70.6871875,51.3,0.15644512500000002,31.35
2021-06-21 15:26:30.242187500,-53.0,-19.0,32.0,70.68609375,52.019999999999996,0.1563650625,31.35
2021-06-21 15:26:30.250000000,-53.0,-19.0,32.0,70.685,52.74,0.156285,31.35
2021-06-21 15:26:30.257812500,-53.0,-19.0,32.0,70.68390624999999,52.61,0.156285,31.35
2021-06-21 15:26:30.265625000,-53.0,-19.0,32.0,70.6828125,52.48,0.156285,31.35
2021-06-21 15:26:30.273437500,-53.0,-19.0,32.0,70.68171875,51.41,0.156285,31.35
2021-06-21 15:26:30.281250000,-53.0,-19.0,32.0,70.68062499999999,50.34,0.156285,31.35
2021-06-21 15:26:30.289062500,-53.0,-19.25,32.0,70.67953125,48.345,0.156285,31.35
2021-06-21 15:26:30.296875000,-53.0,-19.5,32.0,70.6784375,46.35,0.156285,31.35
2021-06-21 15:26:30.304687500,-53.0,-19.75,32.0,70.67734375,43.575,0.156285,31.35
2021-06-21 15:26:30.312500000,-53.0,-20.0,32.0,70.67625,40.8,0.156285,31.35
2021-06-21 15:26:30.320312500,-53.0,-20.0,31.75,70.67515625,37.489999999999995,0.156285,31.35
2021-06-21 15:26:30.328125000,-53.0,-20.0,31.5,70.6740625,34.18,0.156285,31.35
2021-06-21 15:26:30.335937500,-53.0,-20.0,31.25,70.67296875,30.645,0.156285,31.35
2021-06-21 15:26:30.343750000,-53.0,-20.0,31.0,70.671875,27.11,0.156285,31.35
2021-06-21 15:26:30.351562500,-53.0,-20.0,31.0,70.67078125,23.625,0.156285,31.35
2021-06-21 15:26:30.359375000,-53.0,-20.0,31.0,70.6696875,20.14,0.156285,31.35
2021-06-21 15:26:30.367187500,-53.0,-20.0,31.0,70.66859375,16.885,0.156285,31.35
2021-06-21 15:26:30.375000000,-53.0,-20.0,31.0,70.6675,13.63,0.156285,31.35
2021-06-21 15:26:30.382812500,-53.0,-19.75,31.25,70.66640625,10.635,0.156285,31.35
2021-06-21 15:26:30.390625000,-53.0,-19.5,31.5,70.6653125,7.64,0.156285,31.35
2021-06-21 15:26:30.398437500,-53.0,-19.25,31.75,70.66421875,4.83,0.156285,31.35
2021-06-21 15:26:30.406250000,-53.0,-19.0,32.0,70.663125,2.02,0.156285,31.35
2021-06-21 15:26:30.414062500,-53.0,-19.0,32.0,70.66203125,-0.7549999999999999,0.156285,31.35
2021-06-21 15:26:30.421875000,-53.0,-19.0,32.0,70.6609375,-3.53,0.156285,31.35
2021-06-21 15:26:30.429687500,-53.0,-19.0,32.0,70.65984375,-6.365,0.156285,31.35
2021-06-21 15:26:30.437500000,-53.0,-19.0,32.0,70.65875,-9.2,0.156285,31.35
2021-06-21 15:26:30.445312500,-53.0,-19.25,31.75,70.65765625,-12.094999999999999,0.156285,31.35
2021-06-21 15:26:30.453125000,-53.0,-19.5,31.5,70.65656249999999,-14.99,0.156285,31.35
2021-06-21 15:26:30.460937500,-53.0,-19.75,31.25,70.65546875,-17.82,0.156285,31.35
2021-06-21 15:26:30.468750000,-53.0,-20.0,31.0,70.654375,-20.65,0.156285,31.35
2021-06-21 15:26:30.476562500,-53.0,-20.0,31.0,70.65328124999999,-23.229999999999997,0.156285,31.35
2021-06-21 15:26:30.484375000,-53.0,-20.0,31.0,70.6521875,-25.81,0.156285,31.35
2021-06-21 15:26:30.492187500,-53.0,-20.0,31.0,70.65109375,-27.97,0.156285,31.35
2021-06-21 15:26:30.500000000,-53.0,-20.0,31.0,70.65,-30.13,0.156285,31.35
2021-06-21 15:26:30.507812500,-53.0,-20.0,31.25,70.64890625,-31.795,0.15624496875000002,31.35
2021-06-21 15:26:30.515625000,-53.0,-20.0,31.5,70.6478125,-33.46,0.1562049375,31.35
2021-06-21 15:26:30.523437500,-53.0,-20.0,31.75,70.64671875,-34.665,0.15616490625,31.35
2021-06-21 15:26:30.531250000,-53.0,-20.0,32.0,70.645625,-35.87,0.156124875,31.35
2021-06-21 15:26:30.539062500,-53.0,-20.0,31.75,70.64453125,-36.75,0.15608484375,31.35
2021-06-21 15:26:30.546875000,-53.0,-20.0,31.5,70.6434375,-37.63,0.15604481250000002,31.35
2021-06-21 15:26:30.554687500,-53.0,-20.0,31.25,70.64234375,-38.39,0.15600478125,31.35
2021-06-21 15:26:30.562500000,-53.0,-20.0,31.0,70.64125,-39.15,0.15596475,31.35
2021-06-21 15:26:30.570312500,-53.25,-19.75,31.0,70.64015625,-40.019999999999996,0.15592471875,31.35
2021-06-21 15:26:30.578125000,-53.5,-19.5,31.0,70.6390625,-40.89,0.1558846875,31.35
2021-06-21 15:26:30.585937500,-53.75,-19.25,31.0,70.63796875,-42.08,0.15584465625000002,31.35
2021-06-21 15:26:30.593750000,-54.0,-19.0,31.0,70.636875,-43.27,0.155804625,31.35
2021-06-21 15:26:30.601562500,-53.75,-19.25,31.0,70.63578125,-44.885000000000005,0.15576459375,31.35
2021-06-21 15:26:30.609375000,-53.5,-19.5,31.0,70.6346875,-46.5,0.1557245625,31.35
2021-06-21 15:26:30.617187500,-53.25,-19.75,31.0,70.63359375,-48.405,0.15568453125,31.35
2021-06-21 15:26:30.625000000,-53.0,-20.0,31.0,70.6325,-50.31,0.15564450000000002,31.35
2021-06-21 15:26:30.632812500,-53.0,-20.0,31.0,70.63140625,-52.105000000000004,0.15560446875,31.35
2021-06-21 15:26:30.640625000,-53.0,-20.0,31.0,70.6303125,-53.9,0.1555644375,31.35
2021-06-21 15:26:30.648437500,-53.0,-20.0,31.0,70.62921874999999,-54.915,0.15552440625,31.35
2021-06-21 15:26:30.656250000,-53.0,-20.0,31.0,70.628125,-55.93,0.155484375,31.35
2021-06-21 15:26:30.664062500,-53.0,-20.0,31.0,70.62703125,-55.415,0.15544434375,31.35
2021-06-21 15:26:30.671875000,-53.0,-20.0,31.0,70.62593749999999,-54.9,0.1554043125,31.35
2021-06-21 15:26:30.679687500,-53.0,-20.0,31.0,70.62484375,-52.31,0.15536428125,31.35
2021-06-21 15:26:30.687500000,-53.0,-20.0,31.0,70.62375,-49.72,0.15532425,31.35
2021-06-21 15:26:30.695312500,-53.0,-19.75,31.0,70.62265624999999,-44.97,0.15528421875,31.35
2021-06-21 15:26:30.703125000,-53.0,-19.5,31.0,70.6215625,-40.22,0.1552441875,31.35
2021-06-21 15:26:30.710937500,-53.0,-19.25,31.0,70.62046875,-33.765,0.15520415625,31.35
2021-06-21 15:26:30.718750000,-53.0,-19.0,31.0,70.619375,-27.31,0.155164125,31.35
2021-06-21 15:26:30.726562500,-53.0,-19.25,31.0,70.61828125,-20.044999999999998,0.15512409375,31.35
2021-06-21 15:26:30.734375000,-53.0,-19.5,31.0,70.6171875,-12.78,0.1550840625,31.35
2021-06-21 15:26:30.742187500,-53.0,-19.75,31.0,70.61609375,-5.755,0.15504403125,31.35
2021-06-21 15:26:30.750000000,-53.0,-20.0,31.0,70.615,1.27,0.155004,31.35
2021-06-21 15:26:30.757812500,-53.0,-20.0,31.0,70.61390625,7.18,0.1550840625,31.35
2021-06-21 15:26:30.765625000,-53.0,-20.0,31.0,70.6128125,13.09,0.155164125,31.35
2021-06-21 15:26:30.773437500,-53.0,-20.0,31.0,70.61171875,17.41,0.1552441875,31.35
2021-06-21 15:26:30.781250000,-53.0,-20.0,31.0,70.610625,21.73,0.15532425,31.35
2021-06-21 15:26:30.789062500,-53.0,-20.0,31.0,70.60953125,24.43,0.1554043125,31.35
2021-06-21 15:26:30.796875000,-53.0,-20.0,31.0,70.6084375,27.13,0.155484375,31.35
2021-06-21 15:26:30.804687500,-53.0,-20.0,31.0,70.60734375,28.494999999999997,0.1555644375,31.35
2021-06-21 15:26:30.812500000,-53.0,-20.0,31.0,70.60625,29.86,0.15564450000000002,31.35
2021-06-21 15:26:30.820312500,-53.0,-20.0,31.0,70.60515625,30.32,0.1557245625,31.35
2021-06-21 15:26:30.828125000,-53.0,-20.0,31.0,70.6040625,30.78,0.155804625,31.35
2021-06-21 15:26:30.835937500,-53.0,-20.0,31.0,70.60296875,30.740000000000002,0.1558846875,31.35
2021-06-21 15:26:30.843750000,-53.0,-20.0,31.0,70.60187499999999,30.7,0.15596475,31.35
2021-06-21 15:26:30.851562500,-53.0,-20.0,31.25,70.60078125,30.455,0.15604481250000002,31.35
2021-06-21 15:26:30.859375000,-53.0,-20.0,31.5,70.5996875,30.21,0.156124875,31.35
2021-06-21 15:26:30.867187500,-53.0,-20.0,31.75,70.59859374999999,29.905,0.1562049375,31.35
2021-06-21 15:26:30.875000000,-53.0,-20.0,32.0,70.5975,29.6,0.156285,31.35
2021-06-21 15:26:30.882812500,-53.0,-19.75,31.75,70.59640625,29.315,0.1563650625,31.35
2021-06-21 15:26:30.890625000,-53.0,-19.5,31.5,70.59531249999999,29.03,0.15644512500000002,31.35
2021-06-21 15:26:30.898437500,-53.0,-19.25,31.25,70.59421875,28.775,0.1565251875,31.35
2021-06-21 15:26:30.906250000,-53.0,-19.0,31.0,70.593125,28.52,0.15660525,31.35
2021-06-21 15:26:30.914062500,-53.0,-19.0,31.0,70.59203125,28.29,0.1566853125,31.35
2021-06-21 15:26:30.921875000,-53.0,-19.0,31.0,70.5909375,28.06,0.156765375,31.35
2021-06-21 15:26:30.929687500,-53.0,-19.0,31.0,70.58984375,27.854999999999997,0.15684543750000002,31.35
2021-06-21 15:26:30.937500000,-53.0,-19.0,31.0,70.58875,27.65,0.1569255,31.35
2021-06-21 15:26:30.945312500,-53.0,-19.25,31.0,70.58765625,27.445,0.1570055625,31.35
2021-06-21 15:26:30.953125000,-53.0,-19.5,31.0,70.5865625,27.24,0.157085625,31.35
2021-06-21 15:26:30.960937500,-53.0,-19.75,31.0,70.58546875,26.99,0.1571656875,31.35
2021-06-21 15:26:30.968750000,-53.0,-20.0,31.0,70.584375,26.74,0.15724575000000002,31.35
2021-06-21 15:26:30.976562500,-53.0,-20.0,31.0,70.58328125,26.354999999999997,0.15732581250000002,31.35
2021-06-21 15:26:30.984375000,-53.0,-20.0,31.0,70.5821875,25.97,0.157405875,31.35
2021-06-21 15:26:30.992187500,-53.0,-20.0,31.0,70.58109375,25.365000000000002,0.1574859375,31.35
2021-06-21 15:26:31.000000000,-53.0,-20.0,31.0,70.58,24.76,0.157566,31.35
2021-06-21 15:26:31.007812500,-53.0,-20.0,31.0,70.579609375,23.880000000000003,0.15752596875000002,31.35
2021-06-21 15:26:31.015625000,-53.0,-20.0,31.0,70.57921875,23.0,0.1574859375,31.35
2021-06-21 15:26:31.023437500,-53.0,-20.0,31.0,70.578828125,21.835,0.15744590625000002,31.35
2021-06-21 15:26:31.031250000,-53.0,-20.0,31.0,70.57843749999999,20.67,0.157405875,31.35
2021-06-21 15:26:31.039062500,-53.0,-20.0,31.0,70.578046875,19.285,0.15736584375,31.35
2021-06-21 15:26:31.046875000,-53.0,-20.0,31.0,70.57765625,17.9,0.15732581250000002,31.35
2021-06-21 15:26:31.054687500,-53.0,-20.0,31.0,70.577265625,16.384999999999998,0.15728578125,31.35
2021-06-21 15:26:31.062500000,-53.0,-20.0,31.0,70.576875,14.87,0.15724575000000002,31.35
2021-06-21 15:26:31.070312500,-53.0,-20.0,31.0,70.57648437499999,13.315,0.15720571875,31.35
2021-06-21 15:26:31.078125000,-53.0,-20.0,31.0,70.57609375,11.76,0.1571656875,31.35
2021-06-21 15:26:31.085937500,-53.0,-20.0,31.0,70.575703125,10.23,0.15712565625000002,31.35
2021-06-21 15:26:31.093750000,-53.0,-20.0,31.0,70.5753125,8.7,0.157085625,31.35
2021-06-21 15:26:31.101562500,-53.0,-20.0,31.0,70.574921875,7.2299999999999995,0.15704559375000002,31.35
2021-06-21 15:26:31.109375000,-53.0,-20.0,31.0,70.57453124999999,5.76,0.1570055625,31.35
2021-06-21 15:26:31.117187500,-53.0,-20.0,31.0,70.574140625,4.37,0.15696553125,31.35
2021-06-21 15:26:31.125000000,-53.0,-20.0,31.0,70.57375,2.98,0.1569255,31.35
2021-06-21 15:26:31.132812500,-53.0,-20.0,31.0,70.573359375,1.675,0.15688546875,31.35
2021-06-21 15:26:31.140625000,-53.0,-20.0,31.0,70.57296875,0.37,0.15684543750000002,31.35
2021-06-21 15:26:31.148437500,-53.0,-20.0,31.0,70.57257812499999,-0.8550000000000001,0.15680540625,31.35
2021-06-21 15:26:31.156250000,-53.0,-20.0,31.0,70.5721875,-2.08,0.156765375,31.35
2021-06-21 15:26:31.164062500,-53.0,-20.0,31.0,70.571796875,-3.255,0.15672534375,31.35
2021-06-21 15:26:31.171875000,-53.0,-20.0,31.0,70.57140625,-4.43,0.1566853125,31.35
2021-06-21 15:26:31.179687500,-53.0,-20.0,31.0,70.571015625,-5.585,0.15664528125000002,31.35
2021-06-21 15:26:31.187500000,-53.0,-20.0,31.0,70.57062499999999,-6.74,0.15660525,31.35
2021-06-21 15:26:31.195312500,-53.0,-20.0,31.0,70.570234375,-7.9,0.15656521875,31.35
2021-06-21 15:26:31.203125000,-53.0,-20.0,31.0,70.56984375,-9.06,0.1565251875,31.35
2021-06-21 15:26:31.210937500,-53.0,-20.0,31.0,70.569453125,-10.18,0.15648515625,31.35
2021-06-21 15:26:31.218750000,-53.0,-20.0,31.0,70.5690625,-11.3,0.15644512500000002,31.35
2021-06-21 15:26:31.226562500,-53.0,-20.0,31.0,70.56867187499999,-12.325,0.15640509375,31.35
2021-06-21 15:26:31.234375000,-53.0,-20.0,31.0,70.56828125,-13.35,0.1563650625,31.35
2021-06-21 15:26:31.242187500,-53.0,-20.0,31.0,70.567890625,-14.21,0.15632503125,31.35
2021-06-21 15:26:31.250000000,-53.0,-20.0,31.0,70.5675,-15.07,0.156285,31.35
2021-06-21 15:26:31.257812500,-53.0,-20.0,31.0,70.567109375,-15.75,0.1563650625,31.35
2021-06-21 15:26:31.265625000,-53.0,-20.0,31.0,70.56671874999999,-16.43,0.15644512500000002,31.35
2021-06-21 15:26:31.273437500,-53.0,-20.0,31.0,70.566328125,-17.02,0.1565251875,31.35
2021-06-21 15:26:31.281250000,-53.0,-20.0,31.0,70.5659375,-17.61,0.15660525,31.35
2021-06-21 15:26:31.289062500,-53.0,-20.0,31.25,70.565546875,-18.265,0.1566853125,31.35
2021-06-21 15:26:31.296875000,-53.0,-20.0,31.5,70.56515625,-18.92,0.156765375,31.35
2021-06-21 15:26:31.304687500,-53.0,-20.0,31.75,70.56476562499999,-19.795,0.1568454375,31.35
2021-06-21 15:26:31.312500000,-53.0,-20.0,32.0,70.564375,-20.67,0.1569255,31.35
2021-06-21 15:26:31.320312500,-53.0,-20.0,32.0,70.563984375,-21.855,0.1570055625,31.35
2021-06-21 15:26:31.328125000,-53.0,-20.0,32.0,70.56359375,-23.04,0.157085625,31.35
2021-06-21 15:26:31.335937500,-53.0,-20.0,32.0,70.563203125,-24.490000000000002,0.1571656875,31.35
2021-06-21 15:26:31.343750000,-53.0,-20.0,32.0,70.56281249999999,-25.94,0.15724575,31.35
2021-06-21 15:26:31.351562500,-53.0,-20.0,32.0,70.562421875,-27.48,0.1573258125,31.35
2021-06-21 15:26:31.359375000,-53.0,-20.0,32.0,70.56203125,-29.02,0.157405875,31.35
2021-06-21 15:26:31.367187500,-53.0,-20.0,32.0,70.561640625,-30.435000000000002,0.1574859375,31.35
2021-06-21 15:26:31.375000000,-53.0,-20.0,32.0,70.56125,-31.85,0.15756599999999998,31.35
2021-06-21 15:26:31.382812500,-53.0,-20.0,32.0,70.56085937499999,-32.92,0.1576460625,31.35
2021-06-21 15:26:31.390625000,-53.0,-20.0,32.0,70.56046875,-33.99,0.157726125,31.35
2021-06-21 15:26:31.398437500,-53.0,-20.0,32.0,70.560078125,-34.585,0.1578061875,31.35
2021-06-21 15:26:31.406250000,-53.0,-20.0,32.0,70.5596875,-35.18,0.15788625,31.35
2021-06-21 15:26:31.414062500,-53.0,-20.0,31.75,70.559296875,-35.3,0.15796631249999998,31.35
2021-06-21 15:26:31.421875000,-53.0,-20.0,31.5,70.55890624999999,-35.42,0.158046375,31.35
2021-06-21 15:26:31.429687500,-53.0,-20.0,31.25,70.558515625,-35.18,0.1581264375,31.35
2021-06-21 15:26:31.437500000,-53.0,-20.0,31.0,70.558125,-34.94,0.1582065,31.35
2021-06-21 15:26:31.445312500,-53.0,-20.0,31.0,70.557734375,-34.525,0.1582865625,31.35
2021-06-21 15:26:31.453125000,-53.0,-20.0,31.0,70.55734375,-34.11,0.15836662499999998,31.35
2021-06-21 15:26:31.460937500,-53.0,-20.0,31.0,70.55695312499999,-33.75,0.1584466875,31.35
2021-06-21 15:26:31.468750000,-53.0,-20.0,31.0,70.5565625,-33.39,0.15852675,31.35
2021-06-21 15:26:31.476562500,-53.0,-20.0,31.0,70.556171875,-33.3,0.1586068125,31.35
2021-06-21 15:26:31.484375000,-53.0,-20.0,31.0,70.55578125,-33.21,0.15868687499999998,31.35
2021-06-21 15:26:31.492187500,-53.0,-20.0,31.0,70.555390625,-33.525000000000006,0.15876693749999998,31.35
2021-06-21 15:26:31.500000000,-53.0,-20.0,31.0,70.555,-33.84,0.158847,31.35
2021-06-21 15:26:31.507812500,-53.0,-20.0,31.0,70.554609375,-34.53,0.15872690625,31.35
2021-06-21 15:26:31.515625000,-53.0,-20.0,31.0,70.55421875,-35.22,0.1586068125,31.35
2021-06-21 15:26:31.523437500,-53.0,-20.0,31.0,70.553828125,-36.01,0.15848671874999998,31.35
2021-06-21 15:26:31.531250000,-53.0,-20.0,31.0,70.5534375,-36.8,0.15836662499999998,31.35
2021-06-21 15:26:31.539062500,-53.0,-20.0,31.0,70.553046875,-37.18,0.15824653125,31.35
2021-06-21 15:26:31.546875000,-53.0,-20.0,31.0,70.55265625,-37.56,0.1581264375,31.35
2021-06-21 15:26:31.554687500,-53.0,-20.0,31.0,70.552265625,-36.905,0.15800634375,31.35
2021-06-21 15:26:31.562500000,-53.0,-20.0,31.0,70.551875,-36.25,0.15788625,31.35
2021-06-21 15:26:31.570312500,-53.0,-20.0,31.0,70.551484375,-33.995,0.15776615624999998,31.35
2021-06-21 15:26:31.578125000,-53.0,-20.0,31.0,70.55109375,-31.74,0.1576460625,31.35
2021-06-21 15:26:31.585937500,-53.0,-20.0,31.0,70.550703125,-27.61,0.15752596875,31.35
2021-06-21 15:26:31.593750000,-53.0,-20.0,31.0,70.5503125,-23.48,0.157405875,31.35
2021-06-21 15:26:31.601562500,-53.0,-20.0,31.25,70.549921875,-17.645,0.15728578125,31.35
2021-06-21 15:26:31.609375000,-53.0,-20.0,31.5,70.54953125,-11.81,0.15716568749999998,31.35
2021-06-21 15:26:31.617187500,-53.0,-20.0,31.75,70.549140625,-4.880000000000001,0.15704559375,31.35
2021-06-21 15:26:31.625000000,-53.0,-20.0,32.0,70.54875,2.05,0.1569255,31.35
2021-06-21 15:26:31.632812500,-53.0,-20.0,32.0,70.548359375,9.215,0.15680540625,31.35
2021-06-21 15:26:31.640625000,-53.0,-20.0,32.0,70.54796875,16.38,0.1566853125,31.35
2021-06-21 15:26:31.648437500,-53.0,-20.0,32.0,70.547578125,22.924999999999997,0.15656521874999998,31.35
2021-06-21 15:26:31.656250000,-53.0,-20.0,32.0,70.5471875,29.47,0.156445125,31.35
2021-06-21 15:26:31.664062500,-53.0,-20.0,32.0,70.546796875,34.765,0.15632503125,31.35
2021-06-21 15:26:31.671875000,-53.0,-20.0,32.0,70.54640625,40.06,0.1562049375,31.35
2021-06-21 15:26:31.679687500,-53.0,-20.0,32.0,70.546015625,43.84,0.15608484375,31.35
2021-06-21 15:26:31.687500000,-53.0,-20.0,32.0,70.545625,47.62,0.15596474999999999,31.35
2021-06-21 15:26:31.695312500,-53.0,-20.0,32.0,70.545234375,49.89,0.15584465625,31.35
2021-06-21 15:26:31.703125000,-53.0,-20.0,32.0,70.54484375,52.16,0.1557245625,31.35
2021-06-21 15:26:31.710937500,-53.0,-20.0,32.0,70.544453125,53.14,0.15560446875,31.35
2021-06-21 15:26:31.718750000,-53.0,-20.0,32.0,70.5440625,54.12,0.155484375,31.35
2021-06-21 15:26:31.726562500,-53.0,-20.0,32.0,70.543671875,54.04,0.15536428125,31.35
2021-06-21 15:26:31.734375000,-53.0,-20.0,32.0,70.54328125,53.96,0.1552441875,31.35
2021-06-21 15:26:31.742187500,-53.0,-20.0,32.0,70.542890625,53.06,0.15512409375,31.35
2021-06-21 15:26:31.750000000,-53.0,-20.0,32.0,70.5425,52.16,0.155004,31.35
2021-06-21 15:26:31.757812500,-53.0,-20.0,32.0,70.542109375,50.65,0.15512409375,31.35
2021-06-21 15:26:31.765625000,-53.0,-20.0,32.0,70.54171875,49.14,0.1552441875,31.35
2021-06-21 15:26:31.773437500,-53.0,-20.0,32.0,70.541328125,47.275,0.15536428125,31.35
2021-06-21 15:26:31.781250000,-53.0,-20.0,32.0,70.5409375,45.41,0.155484375,31.35
2021-06-21 15:26:31.789062500,-53.0,-20.0,32.0,70.540546875,43.459999999999994,0.15560446875,31.35
2021-06-21 15:26:31.796875000,-53.0,-20.0,32.0,70.54015625,41.51,0.1557245625,31.35
2021-06-21 15:26:31.804687500,-53.0,-20.0,32.0,70.539765625,39.730000000000004,0.15584465625,31.35
2021-06-21 15:26:31.812500000,-53.0,-20.0,32.0,70.539375,37.95,0.15596474999999999,31.35
2021-06-21 15:26:31.820312500,-53.0,-20.0,32.0,70.538984375,36.510000000000005,0.15608484375,31.35
2021-06-21 15:26:31.828125000,-53.0,-20.0,32.0,70.53859375,35.07,0.1562049375,31.35
2021-06-21 15:26:31.835937500,-53.0,-20.0,32.0,70.538203125,34.010000000000005,0.15632503125,31.35
2021-06-21 15:26:31.843750000,-53.0,-20.0,32.0,70.5378125,32.95,0.156445125,31.35
2021-06-21 15:26:31.851562500,-53.0,-20.0,32.0,70.537421875,32.21,0.15656521874999998,31.35
2021-06-21 15:26:31.859375000,-53.0,-20.0,32.0,70.53703125,31.47,0.1566853125,31.35
2021-06-21 15:26:31.867187500,-53.0,-20.0,32.0,70.536640625,30.924999999999997,0.15680540625,31.35
2021-06-21 15:26:31.875000000,-53.0,-20.0,32.0,70.53625,30.38,0.1569255,31.35
2021-06-21 15:26:31.882812500,-53.0,-20.0,31.75,70.535859375,29.924999999999997,0.15704559375,31.35
2021-06-21 15:26:31.890625000,-53.0,-20.0,31.5,70.53546875,29.47,0.15716568749999998,31.35
2021-06-21 15:26:31.898437500,-53.0,-20.0,31.25,70.535078125,29.07,0.15728578125,31.35
2021-06-21 15:26:31.906250000,-53.0,-20.0,31.0,70.5346875,28.67,0.157405875,31.35
2021-06-21 15:26:31.914062500,-53.0,-20.0,31.0,70.534296875,28.345,0.15752596875,31.35
2021-06-21 15:26:31.921875000,-53.0,-20.0,31.0,70.53390625,28.02,0.1576460625,31.35
2021-06-21 15:26:31.929687500,-53.0,-20.0,31.0,70.533515625,27.82,0.15776615624999998,31.35
2021-06-21 15:26:31.937500000,-53.0,-20.0,31.0,70.533125,27.62,0.15788625,31.35
2021-06-21 15:26:31.945312500,-53.0,-20.0,31.0,70.532734375,27.575000000000003,0.15800634375,31.35
2021-06-21 15:26:31.953125000,-53.0,-20.0,31.0,70.53234375,27.53,0.1581264375,31.35
2021-06-21 15:26:31.960937500,-53.0,-20.0,31.0,70.531953125,27.6,0.15824653125,31.35
2021-06-21 15:26:31.968750000,-53.0,-20.0,31.0,70.5315625,27.67,0.15836662499999998,31.35
2021-06-21 15:26:31.976562500,-53.0,-20.0,31.25,70.531171875,27.76,0.15848671874999998,31.35
2021-06-21 15:26:31.984375000,-53.0,-20.0,31.5,70.53078125,27.85,0.1586068125,31.35
2021-06-21 15:26:31.992187500,-53.0,-20.0,31.75,70.530390625,27.79,0.15872690625,31.35
2021-06-21 15:26:32.000000000,-53.0,-20.0,32.0,70.53,27.73,0.158847,31.35
2021-06-21 15:26:32.007812500,-53.0,-20.0,32.0,70.529609375,27.345,0.15876693749999998,31.350625
2021-06-21 15:26:32.015625000,-53.0,-20.0,32.0,70.52921875,26.96,0.15868687499999998,31.35125
2021-06-21 15:26:32.023437500,-53.0,-20.0,32.0,70.528828125,26.095,0.1586068125,31.351875
2021-06-21 15:26:32.031250000,-53.0,-20.0,32.0,70.5284375,25.23,0.15852675,31.352500000000003
2021-06-21 15:26:32.039062500,-53.0,-20.0,32.0,70.528046875,23.835,0.1584466875,31.353125000000002
2021-06-21 15:26:32.046875000,-53.0,-20.0,32.0,70.52765625,22.44,0.15836662499999998,31.35375
2021-06-21 15:26:32.054687500,-53.0,-20.0,32.0,70.527265625,20.6,0.1582865625,31.354375
2021-06-21 15:26:32.062500000,-53.0,-20.0,32.0,70.526875,18.76,0.1582065,31.355
2021-06-21 15:26:32.070312500,-53.0,-20.0,32.0,70.526484375,16.655,0.1581264375,31.355625
2021-06-21 15:26:32.078125000,-53.0,-20.0,32.0,70.52609375,14.55,0.158046375,31.356250000000003
2021-06-21 15:26:32.085937500,-53.0,-20.0,32.0,70.525703125,12.43,0.15796631249999998,31.356875000000002
2021-06-21 15:26:32.093750000,-53.0,-20.0,32.0,70.5253125,10.31,0.15788625,31.3575
2021-06-21 15:26:32.101562500,-53.0,-20.0,32.0,70.524921875,8.395,0.1578061875,31.358125
2021-06-21 15:26:32.109375000,-53.0,-20.0,32.0,70.52453125,6.48,0.157726125,31.35875
2021-06-21 15:26:32.117187500,-53.0,-20.0,32.0,70.524140625,4.87,0.1576460625,31.359375
2021-06-21 15:26:32.125000000,-53.0,-20.0,32.0,70.52375,3.26,0.15756599999999998,31.36
2021-06-21 15:26:32.132812500,-53.0,-20.0,32.0,70.523359375,1.92,0.1574859375,31.360625000000002
2021-06-21 15:26:32.140625000,-53.0,-20.0,32.0,70.52296875,0.58,0.157405875,31.361250000000002
2021-06-21 15:26:32.148437500,-53.0,-20.0,32.0,70.522578125,-0.6050000000000001,0.1573258125,31.361875
2021-06-21 15:26:32.156250000,-53.0,-20.0,32.0,70.5221875,-1.79,0.15724575,31.3625
2021-06-21 15:26:32.164062500,-53.0,-20.0,32.0,70.521796875,-2.985,0.1571656875,31.363125
2021-06-21 15:26:32.171875000,-53.0,-20.0,32.0,70.52140625,-4.18,0.157085625,31.36375
2021-06-21 15:26:32.179687500,-53.0,-20.0,32.0,70.521015625,-5.475,0.1570055625,31.364375000000003
2021-06-21 15:26:32.187500000,-53.0,-20.0,32.0,70.520625,-6.77,0.1569255,31.365000000000002
2021-06-21 15:26:32.195312500,-53.0,-20.0,32.0,70.520234375,-8.155,0.1568454375,31.365625
2021-06-21 15:26:32.203125000,-53.0,-20.0,32.0,70.51984375,-9.54,0.156765375,31.36625
2021-06-21 15:26:32.210937500,-53.0,-20.0,32.0,70.519453125,-10.91,0.1566853125,31.366875
2021-06-21 15:26:32.218750000,-53.0,-20.0,32.0,70.5190625,-12.28,0.15660525,31.3675
2021-06-21 15:26:32.226562500,-53.0,-20.0,32.0,70.518671875,-13.495000000000001,0.1565251875,31.368125000000003
2021-06-21 15:26:32.234375000,-53.0,-20.0,32.0,70.51828125,-14.71,0.15644512500000002,31.368750000000002
2021-06-21 15:26:32.242187500,-53.0,-20.0,32.0,70.517890625,-15.705,0.1563650625,31.369375
2021-06-21 15:26:32.250000000,-53.0,-20.0,32.0,70.5175,-16.7,0.156285,31.37
2021-06-21 15:26:32.257812500,-53.0,-20.0,32.0,70.517109375,-17.494999999999997,0.1563650625,31.37
2021-06-21 15:26:32.265625000,-53.0,-20.0,32.0,70.51671875,-18.29,0.15644512500000002,31.37
2021-06-21 15:26:32.273437500,-53.0,-20.0,32.0,70.516328125,-19.049999999999997,0.1565251875,31.37
2021-06-21 15:26:32.281250000,-53.0,-20.0,32.0,70.5159375,-19.81,0.15660525,31.37
2021-06-21 15:26:32.289062500,-53.0,-20.0,32.0,70.515546875,-20.77,0.1566853125,31.37
2021-06-21 15:26:32.296875000,-53.0,-20.0,32.0,70.51515625,-21.73,0.156765375,31.37
2021-06-21 15:26:32.304687500,-53.0,-20.0,32.0,70.514765625,-23.12,0.1568454375,31.37
2021-06-21 15:26:32.312500000,-53.0,-20.0,32.0,70.514375,-24.51,0.1569255,31.37
2021-06-21 15:26:32.320312500,-53.0,-20.0,31.75,70.513984375,-26.450000000000003,0.1570055625,31.37
2021-06-21 15:26:32.328125000,-53.0,-20.0,31.5,70.51359375,-28.39,0.157085625,31.37
2021-06-21 15:26:32.335937500,-53.0,-20.0,31.25,70.513203125,-30.830000000000002,0.1571656875,31.37
2021-06-21 15:26:32.343750000,-53.0,-20.0,31.0,70.5128125,-33.27,0.15724575,31.37
2021-06-21 15:26:32.351562500,-53.0,-20.0,31.0,70.512421875,-35.955,0.1573258125,31.37
2021-06-21 15:26:32.359375000,-53.0,-20.0,31.0,70.51203125,-38.64,0.157405875,31.37
2021-06-21 15:26:32.367187500,-53.0,-20.0,31.0,70.511640625,-41.11,0.1574859375,31.37
2021-06-21 15:26:32.375000000,-53.0,-20.0,31.0,70.51125,-43.58,0.15756599999999998,31.37
2021-06-21 15:26:32.382812500,-53.0,-20.0,31.25,70.510859375,-45.269999999999996,0.1576460625,31.37
2021-06-21 15:26:32.390625000,-53.0,-20.0,31.5,70.51046875,-46.96,0.157726125,31.37
2021-06-21 15:26:32.398437500,-53.0,-20.0,31.75,70.510078125,-47.32,0.1578061875,31.37
2021-06-21 15:26:32.406250000,-53.0,-20.0,32.0,70.5096875,-47.68,0.15788625,31.37
2021-06-21 15:26:32.414062500,-53.0,-20.0,32.0,70.509296875,-46.335,0.15796631249999998,31.37
2021-06-21 15:26:32.421875000,-53.0,-20.0,32.0,70.50890625,-44.99,0.158046375,31.37
2021-06-21 15:26:32.429687500,-53.0,-20.0,32.0,70.508515625,-41.885000000000005,0.1581264375,31.37
2021-06-21 15:26:32.437500000,-53.0,-20.0,32.0,70.508125,-38.78,0.1582065,31.37
2021-06-21 15:26:32.445312500,-53.0,-20.0,32.0,70.507734375,-34.215,0.1582865625,31.37
2021-06-21 15:26:32.453125000,-53.0,-20.0,32.0,70.50734375,-29.65,0.15836662499999998,31.37
2021-06-21 15:26:32.460937500,-53.0,-20.0,32.0,70.506953125,-24.22,0.1584466875,31.37
2021-06-21 15:26:32.468750000,-53.0,-20.0,32.0,70.5065625,-18.79,0.15852675,31.37
2021-06-21 15:26:32.476562500,-53.0,-20.0,32.0,70.506171875,-13.225,0.1586068125,31.37
2021-06-21 15:26:32.484375000,-53.0,-20.0,32.0,70.50578125,-7.66,0.15868687499999998,31.37
2021-06-21 15:26:32.492187500,-53.0,-20.0,32.0,70.505390625,-2.62,0.15876693749999998,31.37
2021-06-21 15:26:32.500000000,-53.0,-20.0,32.0,70.505,2.42,0.158847,31.37
2021-06-21 15:26:32.507812500,-53.0,-19.75,32.0,70.504609375,6.49,0.15872690625,31.37
2021-06-21 15:26:32.515625000,-53.0,-19.5,32.0,70.50421875,10.56,0.1586068125,31.37
2021-06-21 15:26:32.523437500,-53.0,-19.25,32.0,70.503828125,13.490000000000002,0.15848671874999998,31.37
2021-06-21 15:26:32.531250000,-53.0,-19.0,32.0,70.5034375,16.42,0.15836662499999998,31.37
2021-06-21 15:26:32.539062500,-53.0,-19.25,32.0,70.50304687500001,18.265,0.15824653125,31.37
2021-06-21 15:26:32.546875000,-53.0,-19.5,32.0,70.50265625,20.11,0.1581264375,31.37
2021-06-21 15:26:32.554687500,-53.0,-19.75,32.0,70.502265625,21.049999999999997,0.15800634375,31.37
2021-06-21 15:26:32.562500000,-53.0,-20.0,32.0,70.501875,21.99,0.15788625,31.37
2021-06-21 15:26:32.570312500,-53.0,-20.0,32.0,70.501484375,22.215,0.15776615624999998,31.37
2021-06-21 15:26:32.578125000,-53.0,-20.0,32.0,70.50109375000001,22.44,0.1576460625,31.37
2021-06-21 15:26:32.585937500,-53.0,-20.0,32.0,70.500703125,22.130000000000003,0.15752596875,31.37
2021-06-21 15:26:32.593750000,-53.0,-20.0,32.0,70.5003125,21.82,0.157405875,31.37
2021-06-21 15:26:32.601562500,-53.0,-20.0,31.75,70.499921875,21.115000000000002,0.15728578125,31.37
2021-06-21 15:26:32.609375000,-53.0,-20.0,31.5,70.49953125,20.41,0.15716568749999998,31.37
2021-06-21 15:26:32.617187500,-53.0,-20.0,31.25,70.49914062500001,19.48,0.15704559375,31.37
2021-06-21 15:26:32.625000000,-53.0,-20.0,31.0,70.49875,18.55,0.1569255,31.37
2021-06-21 15:26:32.632812500,-53.0,-20.0,31.25,70.498359375,17.564999999999998,0.15680540625,31.37
2021-06-21 15:26:32.640625000,-53.0,-20.0,31.5,70.49796875,16.58,0.1566853125,31.37
2021-06-21 15:26:32.648437500,-53.0,-20.0,31.75,70.497578125,15.73,0.15656521874999998,31.37
2021-06-21 15:26:32.656250000,-53.0,-20.0,32.0,70.49718750000001,14.88,0.156445125,31.37
2021-06-21 15:26:32.664062500,-53.0,-20.0,32.0,70.496796875,14.315000000000001,0.15632503125,31.37
2021-06-21 15:26:32.671875000,-53.0,-20.0,32.0,70.49640625,13.75,0.1562049375,31.37
2021-06-21 15:26:32.679687500,-53.0,-20.0,32.0,70.496015625,13.55,0.15608484375,31.37
2021-06-21 15:26:32.687500000,-53.0,-20.0,32.0,70.495625,13.35,0.15596474999999999,31.37
2021-06-21 15:26:32.695312500,-53.0,-20.0,31.75,70.49523437500001,13.515,0.15584465625,31.37
2021-06-21 15:26:32.703125000,-53.0,-20.0,31.5,70.49484375,13.68,0.1557245625,31.37
2021-06-21 15:26:32.710937500,-53.0,-20.0,31.25,70.494453125,14.120000000000001,0.15560446875,31.37
2021-06-21 15:26:32.718750000,-53.0,-20.0,31.0,70.4940625,14.56,0.155484375,31.37
2021-06-21 15:26:32.726562500,-53.0,-20.0,31.25,70.493671875,15.14,0.15536428125,31.37
2021-06-21 15:26:32.734375000,-53.0,-20.0,31.5,70.49328125000001,15.72,0.1552441875,31.37
2021-06-21 15:26:32.742187500,-53.0,-20.0,31.75,70.492890625,16.32,0.15512409375,31.37
2021-06-21 15:26:32.750000000,-53.0,-20.0,32.0,70.4925,16.92,0.155004,31.37
2021-06-21 15:26:32.757812500,-53.0,-20.0,32.0,70.492109375,17.465000000000003,0.15512409375,31.37
2021-06-21 15:26:32.765625000,-53.0,-20.0,32.0,70.49171875,18.01,0.1552441875,31.37
2021-06-21 15:26:32.773437500,-53.0,-20.0,32.0,70.49132812500001,18.455,0.15536428125,31.37
2021-06-21 15:26:32.781250000,-53.0,-20.0,32.0,70.4909375,18.9,0.155484375,31.37
2021-06-21 15:26:32.789062500,-53.0,-20.0,31.75,70.490546875,19.244999999999997,0.15560446875,31.37
2021-06-21 15:26:32.796875000,-53.0,-20.0,31.5,70.49015625,19.59,0.1557245625,31.37
2021-06-21 15:26:32.804687500,-53.0,-20.0,31.25,70.489765625,19.810000000000002,0.15584465625,31.37
2021-06-21 15:26:32.812500000,-53.0,-20.0,31.0,70.48937500000001,20.03,0.15596474999999999,31.37
2021-06-21 15:26:32.820312500,-53.0,-20.0,31.25,70.488984375,20.065,0.15608484375,31.37
2021-06-21 15:26:32.828125000,-53.0,-20.0,31.5,70.48859375,20.1,0.1562049375,31.37
2021-06-21 15:26:32.835937500,-53.0,-20.0,31.75,70.488203125,19.86,0.15632503125,31.37
2021-06-21 15:26:32.843750000,-53.0,-20.0,32.0,70.4878125,19.62,0.156445125,31.37
2021-06-21 15:26:32.851562500,-53.0,-20.0,32.0,70.48742187500001,19.005000000000003,0.15656521874999998,31.37
2021-06-21 15:26:32.859375000,-53.0,-20.0,32.0,70.48703125,18.39,0.1566853125,31.37
2021-06-21 15:26:32.867187500,-53.0,-20.0,32.0,70.486640625,17.355,0.15680540625,31.37
2021-06-21 15:26:32.875000000,-53.0,-20.0,32.0,70.48625,16.32,0.1569255,31.37
2021-06-21 15:26:32.882812500,-53.0,-20.0,32.0,70.485859375,14.879999999999999,0.15704559375,31.37
2021-06-21 15:26:32.890625000,-53.0,-20.0,32.0,70.48546875000001,13.44,0.15716568749999998,31.37
2021-06-21 15:26:32.898437500,-53.0,-20.0,32.0,70.485078125,11.71,0.15728578125,31.37
2021-06-21 15:26:32.906250000,-53.0,-20.0,32.0,70.4846875,9.98,0.157405875,31.37
2021-06-21 15:26:32.914062500,-53.0,-20.0,32.0,70.484296875,8.125,0.15752596875,31.37
2021-06-21 15:26:32.921875000,-53.0,-20.0,32.0,70.48390625,6.27,0.1576460625,31.37
2021-06-21 15:26:32.929687500,-53.0,-20.0,32.0,70.48351562500001,4.435,0.15776615624999998,31.37
2021-06-21 15:26:32.937500000,-53.0,-20.0,32.0,70.483125,2.6,0.15788625,31.37
2021-06-21 15:26:32.945312500,-53.0,-20.0,32.0,70.482734375,0.8500000000000001,0.15800634375,31.37
2021-06-21 15:26:32.953125000,-53.0,-20.0,32.0,70.48234375,-0.9,0.1581264375,31.37
2021-06-21 15:26:32.960937500,-53.0,-20.0,32.0,70.481953125,-2.5700000000000003,0.15824653125,31.37
2021-06-21 15:26:32.968750000,-53.0,-20.0,32.0,70.48156250000001,-4.24,0.15836662499999998,31.37
2021-06-21 15:26:32.976562500,-53.0,-20.0,32.0,70.481171875,-5.91,0.15848671874999998,31.37
2021-06-21 15:26:32.984375000,-53.0,-20.0,32.0,70.48078125,-7.58,0.1586068125,31.37
2021-06-21 15:26:32.992187500,-53.0,-20.0,32.0,70.480390625,-9.33,0.15872690625,31.37
2021-06-21 15:26:33.000000000,-53.0,-20.0,32.0,70.48,-11.08,0.158847,31.37
2021-06-21 15:26:33.007812500,-53.0,-20.0,32.0,70.479921875,-12.965,0.15872690625,31.369375
2021-06-21 15:26:33.015625000,-53.0,-20.0,32.0,70.47984375,-14.85,0.1586068125,31.368750000000002
2021-06-21 15:26:33.023437500,-53.0,-20.0,32.0,70.479765625,-16.87,0.15848671874999998,31.368125000000003
2021-06-21 15:26:33.031250000,-53.0,-20.0,32.0,70.4796875,-18.89,0.15836662499999998,31.3675
2021-06-21 15:26:33.039062500,-53.0,-19.75,32.0,70.47960937500001,-20.955,0.15824653125,31.366875
2021-06-21 15:26:33.046875000,-53.0,-19.5,32.0,70.47953125000001,-23.02,0.1581264375,31.36625
2021-06-21 15:26:33.054687500,-53.0,-19.25,32.0,70.479453125,-25.03,0.15800634375,31.365625
2021-06-21 15:26:33.062500000,-53.0,-19.0,32.0,70.479375,-27.04,0.15788625,31.365000000000002
2021-06-21 15:26:33.070312500,-53.0,-19.25,32.0,70.479296875,-28.865000000000002,0.15776615624999998,31.364375000000003
2021-06-21 15:26:33.078125000,-53.0,-19.5,32.0,70.47921875,-30.69,0.1576460625,31.36375
2021-06-21 15:26:33.085937500,-53.0,-19.75,32.0,70.479140625,-32.255,0.15752596875,31.363125
2021-06-21 15:26:33.093750000,-53.0,-20.0,32.0,70.4790625,-33.82,0.157405875,31.3625
2021-06-21 15:26:33.101562500,-53.0,-20.0,32.0,70.47898437500001,-35.17,0.15728578125,31.361875
2021-06-21 15:26:33.109375000,-53.0,-20.0,32.0,70.47890625000001,-36.52,0.15716568749999998,31.361250000000002
2021-06-21 15:26:33.117187500,-53.0,-20.0,32.0,70.478828125,-37.790000000000006,0.15704559375,31.360625000000002
2021-06-21 15:26:33.125000000,-53.0,-20.0,32.0,70.47875,-39.06,0.1569255,31.36
2021-06-21 15:26:33.132812500,-53.0,-20.0,32.0,70.478671875,-40.480000000000004,0.15680540625,31.359375
2021-06-21 15:26:33.140625000,-53.0,-20.0,32.0,70.47859375,-41.9,0.1566853125,31.35875
2021-06-21 15:26:33.148437500,-53.0,-20.0,32.0,70.478515625,-43.655,0.15656521874999998,31.358125
2021-06-21 15:26:33.156250000,-53.0,-20.0,32.0,70.4784375,-45.41,0.156445125,31.3575
2021-06-21 15:26:33.164062500,-53.0,-20.0,32.0,70.478359375,-47.5,0.15632503125,31.356875000000002
2021-06-21 15:26:33.171875000,-53.0,-20.0,32.0,70.47828125000001,-49.59,0.1562049375,31.356250000000003
2021-06-21 15:26:33.179687500,-53.0,-20.0,32.0,70.47820312500001,-51.715,0.15608484375,31.355625
2021-06-21 15:26:33.187500000,-53.0,-20.0,32.0,70.478125,-53.84,0.15596474999999999,31.355
2021-06-21 15:26:33.195312500,-53.0,-20.0,32.0,70.478046875,-55.41,0.15584465625,31.354375
2021-06-21 15:26:33.203125000,-53.0,-20.0,32.0,70.47796875,-56.98,0.1557245625,31.35375
2021-06-21 15:26:33.210937500,-53.0,-20.0,32.0,70.477890625,-57.26,0.15560446875,31.353125000000002
2021-06-21 15:26:33.218750000,-53.0,-20.0,32.0,70.4778125,-57.54,0.155484375,31.352500000000003
2021-06-21 15:26:33.226562500,-53.0,-20.0,32.0,70.477734375,-55.93,0.15536428125,31.351875
2021-06-21 15:26:33.234375000,-53.0,-20.0,32.0,70.47765625000001,-54.32,0.1552441875,31.35125
2021-06-21 15:26:33.242187500,-53.0,-20.0,32.0,70.47757812500001,-50.620000000000005,0.15512409375,31.350625
2021-06-21 15:26:33.250000000,-53.0,-20.0,32.0,70.4775,-46.92,0.155004,31.35
2021-06-21 15:26:33.257812500,-53.0,-20.0,32.0,70.477421875,-41.45,0.15512409375,31.35
2021-06-21 15:26:33.265625000,-53.0,-20.0,32.0,70.47734375,-35.98,0.1552441875,31.35
2021-06-21 15:26:33.273437500,-53.0,-20.0,32.0,70.477265625,-29.5,0.15536428125,31.35
2021-06-21 15:26:33.281250000,-53.0,-20.0,32.0,70.4771875,-23.02,0.155484375,31.35
2021-06-21 15:26:33.289062500,-53.0,-20.0,32.0,70.477109375,-16.490000000000002,0.15560446875,31.35
2021-06-21 15:26:33.296875000,-53.0,-20.0,32.0,70.47703125,-9.96,0.1557245625,31.35
2021-06-21 15:26:33.304687500,-53.0,-20.0,32.0,70.47695312500001,-4.220000000000001,0.15584465625,31.35
2021-06-21 15:26:33.312500000,-53.0,-20.0,32.0,70.476875,1.52,0.15596474999999999,31.35
2021-06-21 15:26:33.320312500,-53.0,-20.0,32.0,70.476796875,5.960000000000001,0.15608484375,31.35
2021-06-21 15:26:33.328125000,-53.0,-20.0,32.0,70.47671875,10.4,0.1562049375,31.35
2021-06-21 15:26:33.335937500,-53.0,-20.0,32.0,70.476640625,13.434999999999999,0.15632503125,31.35
2021-06-21 15:26:33.343750000,-53.0,-20.0,32.0,70.4765625,16.47,0.156445125,31.35
2021-06-21 15:26:33.351562500,-53.0,-20.0,32.0,70.476484375,18.285,0.15656521874999998,31.35
2021-06-21 15:26:33.359375000,-53.0,-20.0,32.0,70.47640625,20.1,0.1566853125,31.35
2021-06-21 15:26:33.367187500,-53.0,-20.0,32.0,70.47632812500001,21.045,0.15680540625,31.35
2021-06-21 15:26:33.375000000,-53.0,-20.0,32.0,70.47625000000001,21.99,0.1569255,31.35
2021-06-21 15:26:33.382812500,-53.0,-20.0,32.0,70.476171875,22.405,0.15704559375,31.35
2021-06-21 15:26:33.390625000,-53.0,-20.0,32.0,70.47609375,22.82,0.15716568749999998,31.35
2021-06-21 15:26:33.398437500,-53.0,-20.0,32.0,70.476015625,22.975,0.15728578125,31.35
2021-06-21 15:26:33.406250000,-53.0,-20.0,32.0,70.4759375,23.13,0.157405875,31.35
2021-06-21 15:26:33.414062500,-53.0,-20.0,32.0,70.475859375,23.205,0.15752596875,31.35
2021-06-21 15:26:33.421875000,-53.0,-20.0,32.0,70.47578125,23.28,0.1576460625,31.35
2021-06-21 15:26:33.429687500,-53.0,-20.0,32.0,70.475703125,23.380000000000003,0.15776615624999998,31.35
2021-06-21 15:26:33.437500000,-53.0,-20.0,32.0,70.47562500000001,23.48,0.15788625,31.35
2021-06-21 15:26:33.445312500,-53.0,-20.0,32.0,70.475546875,23.66,0.15800634375,31.35
2021-06-21 15:26:33.453125000,-53.0,-20.0,32.0,70.47546875,23.84,0.1581264375,31.35
2021-06-21 15:26:33.460937500,-53.0,-20.0,32.0,70.475390625,24.115000000000002,0.15824653125,31.35
2021-06-21 15:26:33.468750000,-53.0,-20.0,32.0,70.4753125,24.39,0.15836662499999998,31.35
2021-06-21 15:26:33.476562500,-53.0,-20.0,32.0,70.475234375,24.72,0.15848671874999998,31.35
2021-06-21 15:26:33.484375000,-53.0,-20.0,32.0,70.47515625,25.05,0.1586068125,31.35
2021-06-21 15:26:33.492187500,-53.0,-20.0,32.0,70.475078125,25.36,0.15872690625,31.35
2021-06-21 15:26:33.500000000,-53.0,-20.0,32.0,70.475,25.67,0.158847,31.35
2021-06-21 15:26:33.507812500,-53.0,-20.0,32.0,70.474921875,25.895000000000003,0.15876693749999998,31.35
2021-06-21 15:26:33.515625000,-53.0,-20.0,32.0,70.47484375,26.12,0.15868687499999998,31.35
2021-06-21 15:26:33.523437500,-53.0,-20.0,32.0,70.474765625,26.195,0.1586068125,31.35
2021-06-21 15:26:33.531250000,-53.0,-20.0,32.0,70.4746875,26.27,0.15852675,31.35
2021-06-21 15:26:33.539062500,-53.0,-20.0,31.75,70.474609375,26.174999999999997,0.1584466875,31.35
2021-06-21 15:26:33.546875000,-53.0,-20.0,31.5,70.47453125,26.08,0.15836662499999998,31.35
2021-06-21 15:26:33.554687500,-53.0,-20.0,31.25,70.474453125,25.845,0.1582865625,31.35
2021-06-21 15:26:33.562500000,-53.0,-20.0,31.0,70.474375,25.61,0.1582065,31.35
2021-06-21 15:26:33.570312500,-53.0,-20.0,31.25,70.47429687500001,25.27,0.1581264375,31.35
2021-06-21 15:26:33.578125000,-53.0,-20.0,31.5,70.47421875,24.93,0.158046375,31.35
2021-06-21 15:26:33.585937500,-53.0,-20.0,31.75,70.474140625,24.55,0.15796631249999998,31.35
2021-06-21 15:26:33.593750000,-53.0,-20.0,32.0,70.4740625,24.17,0.15788625,31.35
2021-06-21 15:26:33.601562500,-53.0,-20.0,32.0,70.473984375,23.795,0.1578061875,31.35
2021-06-21 15:26:33.609375000,-53.0,-20.0,32.0,70.47390625,23.42,0.157726125,31.35
2021-06-21 15:26:33.617187500,-53.0,-20.0,32.0,70.473828125,23.07,0.1576460625,31.35
2021-06-21 15:26:33.625000000,-53.0,-20.0,32.0,70.47375,22.72,0.15756599999999998,31.35
2021-06-21 15:26:33.632812500,-53.0,-20.0,32.0,70.473671875,22.375,0.1574859375,31.35
2021-06-21 15:26:33.640625000,-53.0,-20.0,32.0,70.47359375,22.03,0.157405875,31.35
2021-06-21 15:26:33.648437500,-53.0,-20.0,32.0,70.473515625,21.630000000000003,0.1573258125,31.35
2021-06-21 15:26:33.656250000,-53.0,-20.0,32.0,70.4734375,21.23,0.15724575,31.35
2021-06-21 15:26:33.664062500,-53.25,-20.0,32.0,70.473359375,20.695,0.1571656875,31.35
2021-06-21 15:26:33.671875000,-53.5,-20.0,32.0,70.47328125,20.16,0.157085625,31.35
2021-06-21 15:26:33.679687500,-53.75,-20.0,32.0,70.473203125,19.39,0.1570055625,31.35
2021-06-21 15:26:33.687500000,-54.0,-20.0,32.0,70.473125,18.62,0.1569255,31.35
2021-06-21 15:26:33.695312500,-53.75,-20.0,32.0,70.473046875,17.565,0.1568454375,31.35
2021-06-21 15:26:33.703125000,-53.5,-20.0,32.0,70.47296875,16.51,0.156765375,31.35
2021-06-21 15:26:33.710937500,-53.25,-20.0,32.0,70.472890625,15.18,0.1566853125,31.35
2021-06-21 15:26:33.718750000,-53.0,-20.0,32.0,70.4728125,13.85,0.15660525,31.35
2021-06-21 15:26:33.726562500,-53.0,-20.0,32.0,70.472734375,12.32,0.1565251875,31.35
2021-06-21 15:26:33.734375000,-53.0,-20.0,32.0,70.47265625,10.79,0.15644512500000002,31.35
2021-06-21 15:26:33.742187500,-53.0,-20.0,32.0,70.472578125,9.165,0.1563650625,31.35
2021-06-21 15:26:33.750000000,-53.0,-20.0,32.0,70.4725,7.54,0.156285,31.35
2021-06-21 15:26:33.757812500,-53.0,-20.0,31.75,70.472421875,5.88,0.1563650625,31.35
2021-06-21 15:26:33.765625000,-53.0,-20.0,31.5,70.47234375,4.22,0.15644512500000002,31.35
2021-06-21 15:26:33.773437500,-53.0,-20.0,31.25,70.472265625,2.55,0.1565251875,31.35
2021-06-21 15:26:33.781250000,-53.0,-20.0,31.0,70.4721875,0.88,0.15660525,31.35
2021-06-21 15:26:33.789062500,-53.0,-20.0,31.25,70.472109375,-0.84,0.1566853125,31.35
2021-06-21 15:26:33.796875000,-53.0,-20.0,31.5,70.47203125,-2.56,0.156765375,31.35
2021-06-21 15:26:33.804687500,-53.0,-20.0,31.75,70.471953125,-4.4,0.1568454375,31.35
2021-06-21 15:26:33.812500000,-53.0,-20.0,32.0,70.471875,-6.24,0.1569255,31.35
2021-06-21 15:26:33.820312500,-53.0,-20.0,32.0,70.471796875,-8.23,0.1570055625,31.35
2021-06-21 15:26:33.828125000,-53.0,-20.0,32.0,70.47171875,-10.22,0.157085625,31.35
2021-06-21 15:26:33.835937500,-53.0,-20.0,32.0,70.471640625,-12.325,0.1571656875,31.35
2021-06-21 15:26:33.843750000,-53.0,-20.0,32.0,70.4715625,-14.43,0.15724575,31.35
2021-06-21 15:26:33.851562500,-53.0,-20.0,31.75,70.471484375,-16.525,0.1573258125,31.35
2021-06-21 15:26:33.859375000,-53.0,-20.0,31.5,70.47140625,-18.62,0.157405875,31.35
2021-06-21 15:26:33.867187500,-53.0,-20.0,31.25,70.471328125,-20.545,0.1574859375,31.35
2021-06-21 15:26:33.875000000,-53.0,-20.0,31.0,70.47125,-22.47,0.15756599999999998,31.35
2021-06-21 15:26:33.882812500,-53.0,-20.0,31.25,70.471171875,-24.08,0.1576460625,31.35
2021-06-21 15:26:33.890625000,-53.0,-20.0,31.5,70.47109375,-25.69,0.157726125,31.35
2021-06-21 15:26:33.898437500,-53.0,-20.0,31.75,70.47101562499999,-26.915,0.1578061875,31.35
2021-06-21 15:26:33.906250000,-53.0,-20.0,32.0,70.4709375,-28.14,0.15788625,31.35
2021-06-21 15:26:33.914062500,-53.0,-20.0,31.75,70.470859375,-29.009999999999998,0.15796631249999998,31.35
2021-06-21 15:26:33.921875000,-53.0,-20.0,31.5,70.47078125,-29.88,0.158046375,31.35
2021-06-21 15:26:33.929687500,-53.0,-20.0,31.25,70.470703125,-30.56,0.1581264375,31.35
2021-06-21 15:26:33.937500000,-53.0,-20.0,31.0,70.470625,-31.24,0.1582065,31.35
2021-06-21 15:26:33.945312500,-53.0,-20.0,31.0,70.470546875,-31.994999999999997,0.1582865625,31.35
2021-06-21 15:26:33.953125000,-53.0,-20.0,31.0,70.47046875,-32.75,0.15836662499999998,31.35
2021-06-21 15:26:33.960937500,-53.0,-20.0,31.0,70.470390625,-33.864999999999995,0.1584466875,31.35
2021-06-21 15:26:33.968750000,-53.0,-20.0,31.0,70.4703125,-34.98,0.15852675,31.35
2021-06-21 15:26:33.976562500,-53.0,-20.0,31.0,70.470234375,-36.665,0.1586068125,31.35
2021-06-21 15:26:33.984375000,-53.0,-20.0,31.0,70.47015625,-38.35,0.15868687499999998,31.35
2021-06-21 15:26:33.992187500,-53.0,-20.0,31.0,70.470078125,-40.625,0.15876693749999998,31.35
2021-06-21 15:26:34.000000000,-53.0,-20.0,31.0,70.47,-42.9,0.158847,31.35
2021-06-21 15:26:34.007812500,-53.0,-20.0,31.25,70.46984375,-45.480000000000004,0.15876693749999998,31.350625
2021-06-21 15:26:34.015625000,-53.0,-20.0,31.5,70.46968749999999,-48.06,0.15868687499999998,31.35125
2021-06-21 15:26:34.023437500,-53.0,-20.0,31.75,70.46953125,-50.365,0.1586068125,31.351875
2021-06-21 15:26:34.031250000,-53.0,-20.0,32.0,70.469375,-52.67,0.15852675,31.352500000000003
2021-06-21 15:26:34.039062500,-53.0,-20.0,31.75,70.46921875,-53.97,0.1584466875,31.353125000000002
2021-06-21 15:26:34.046875000,-53.0,-20.0,31.5,70.46906249999999,-55.27,0.15836662499999998,31.35375
2021-06-21 15:26:34.054687500,-53.0,-20.0,31.25,70.46890625,-54.895,0.1582865625,31.354375
2021-06-21 15:26:34.062500000,-53.0,-20.0,31.0,70.46875,-54.52,0.1582065,31.355
2021-06-21 15:26:34.070312500,-53.0,-20.0,31.0,70.46859375,-52.11,0.1581264375,31.355625
2021-06-21 15:26:34.078125000,-53.0,-20.0,31.0,70.4684375,-49.7,0.158046375,31.356250000000003
2021-06-21 15:26:34.085937500,-53.0,-20.0,31.0,70.46828125,-45.370000000000005,0.15796631249999998,31.356875000000002
2021-06-21 15:26:34.093750000,-53.0,-20.0,31.0,70.468125,-41.04,0.15788625,31.3575
2021-06-21 15:26:34.101562500,-53.0,-20.0,31.0,70.46796875,-35.35,0.1578061875,31.358125
2021-06-21 15:26:34.109375000,-53.0,-20.0,31.0,70.4678125,-29.66,0.157726125,31.35875
2021-06-21 15:26:34.117187500,-53.0,-20.0,31.0,70.46765625,-23.439999999999998,0.1576460625,31.359375
2021-06-21 15:26:34.125000000,-53.0,-20.0,31.0,70.4675,-17.22,0.15756599999999998,31.36
2021-06-21 15:26:34.132812500,-53.0,-20.0,31.0,70.46734375,-11.309999999999999,0.1574859375,31.360625000000002
2021-06-21 15:26:34.140625000,-53.0,-20.0,31.0,70.4671875,-5.4,0.157405875,31.361250000000002
2021-06-21 15:26:34.148437500,-53.0,-20.0,31.0,70.46703125,-0.40000000000000036,0.1573258125,31.361875
2021-06-21 15:26:34.156250000,-53.0,-20.0,31.0,70.466875,4.6,0.15724575,31.3625
2021-06-21 15:26:34.164062500,-53.0,-20.0,31.25,70.46671875,8.41,0.1571656875,31.363125
2021-06-21 15:26:34.171875000,-53.0,-20.0,31.5,70.4665625,12.22,0.157085625,31.36375
2021-06-21 15:26:34.179687500,-53.0,-20.0,31.75,70.46640625,14.89,0.1570055625,31.364375000000003
2021-06-21 15:26:34.187500000,-53.0,-20.0,32.0,70.46625,17.56,0.1569255,31.365000000000002
2021-06-21 15:26:34.195312500,-53.0,-20.0,32.0,70.46609375,19.34,0.1568454375,31.365625
2021-06-21 15:26:34.203125000,-53.0,-20.0,32.0,70.4659375,21.12,0.156765375,31.36625
2021-06-21 15:26:34.210937500,-53.0,-20.0,32.0,70.46578125,22.270000000000003,0.1566853125,31.366875
2021-06-21 15:26:34.218750000,-53.0,-20.0,32.0,70.465625,23.42,0.15660525,31.3675
2021-06-21 15:26:34.226562500,-53.0,-20.0,32.0,70.46546875,24.17,0.1565251875,31.368125000000003
2021-06-21 15:26:34.234375000,-53.0,-20.0,32.0,70.4653125,24.92,0.15644512500000002,31.368750000000002
2021-06-21 15:26:34.242187500,-53.0,-20.0,32.0,70.46515625,25.405,0.1563650625,31.369375
2021-06-21 15:26:34.250000000,-53.0,-20.0,32.0,70.465,25.89,0.156285,31.37
2021-06-21 15:26:34.257812500,-53.0,-20.0,32.0,70.46484375,26.17,0.15632503125,31.37
2021-06-21 15:26:34.265625000,-53.0,-20.0,32.0,70.4646875,26.45,0.1563650625,31.37
2021-06-21 15:26:34.273437500,-53.0,-20.0,32.0,70.46453125,26.535,0.15640509375,31.37
2021-06-21 15:26:34.281250000,-53.0,-20.0,32.0,70.464375,26.62,0.15644512500000002,31.37
2021-06-21 15:26:34.289062500,-53.0,-20.0,32.0,70.46421875,26.535,0.15648515625,31.37
2021-06-21 15:26:34.296875000,-53.0,-20.0,32.0,70.4640625,26.45,0.1565251875,31.37
2021-06-21 15:26:34.304687500,-53.0,-20.0,32.0,70.46390625,26.235,0.15656521875,31.37
2021-06-21 15:26:34.312500000,-53.0,-20.0,32.0,70.46375,26.02,0.15660525,31.37
2021-06-21 15:26:34.320312500,-53.0,-20.0,32.0,70.46359375,25.73,0.15664528125000002,31.37
2021-06-21 15:26:34.328125000,-53.0,-20.0,32.0,70.4634375,25.44,0.1566853125,31.37
2021-06-21 15:26:34.335937500,-53.0,-20.0,32.0,70.46328125,25.15,0.15672534375,31.37
2021-06-21 15:26:34.343750000,-53.0,-20.0,32.0,70.463125,24.86,0.156765375,31.37
2021-06-21 15:26:34.351562500,-53.0,-20.0,31.75,70.46296875,24.605,0.15680540625,31.37
2021-06-21 15:26:34.359375000,-53.0,-20.0,31.5,70.4628125,24.35,0.15684543750000002,31.37
2021-06-21 15:26:34.367187500,-53.0,-20.0,31.25,70.46265625,24.145000000000003,0.15688546875,31.37
2021-06-21 15:26:34.375000000,-53.0,-20.0,31.0,70.4625,23.94,0.1569255,31.37
2021-06-21 15:26:34.382812500,-53.0,-20.0,31.25,70.46234375,23.755000000000003,0.15696553125,31.37
2021-06-21 15:26:34.390625000,-53.0,-20.0,31.5,70.4621875,23.57,0.1570055625,31.37
2021-06-21 15:26:34.398437500,-53.0,-20.0,31.75,70.46203125,23.36,0.15704559375000002,31.37
2021-06-21 15:26:34.406250000,-53.0,-20.0,32.0,70.461875,23.15,0.157085625,31.37
2021-06-21 15:26:34.414062500,-53.0,-20.0,32.0,70.46171875,22.9,0.15712565625000002,31.37
2021-06-21 15:26:34.421875000,-53.0,-20.0,32.0,70.4615625,22.65,0.1571656875,31.37
2021-06-21 15:26:34.429687500,-53.0,-20.0,32.0,70.46140625,22.369999999999997,0.15720571875,31.37
2021-06-21 15:26:34.437500000,-53.0,-20.0,32.0,70.46125,22.09,0.15724575000000002,31.37
2021-06-21 15:26:34.445312500,-53.0,-20.0,32.0,70.46109375,21.814999999999998,0.15728578125,31.37
2021-06-21 15:26:34.453125000,-53.0,-20.0,32.0,70.4609375,21.54,0.15732581250000002,31.37
2021-06-21 15:26:34.460937500,-53.0,-20.0,32.0,70.46078125,21.32,0.15736584375,31.37
2021-06-21 15:26:34.468750000,-53.0,-20.0,32.0,70.46062500000001,21.1,0.157405875,31.37
2021-06-21 15:26:34.476562500,-53.0,-20.0,32.0,70.46046875,20.925,0.15744590625000002,31.37
2021-06-21 15:26:34.484375000,-53.0,-20.0,32.0,70.4603125,20.75,0.1574859375,31.37
2021-06-21 15:26:34.492187500,-53.0,-20.0,32.0,70.46015625,20.535,0.15752596875000002,31.37
2021-06-21 15:26:34.500000000,-53.0,-20.0,32.0,70.46000000000001,20.32,0.157566,31.37
2021-06-21 15:26:34.507812500,-53.0,-20.0,32.0,70.45984375,19.925,0.157566,31.37
2021-06-21 15:26:34.515625000,-53.0,-20.0,32.0,70.4596875,19.53,0.157566,31.37
2021-06-21 15:26:34.523437500,-53.0,-20.0,32.0,70.45953125,18.805,0.157566,31.37
2021-06-21 15:26:34.531250000,-53.0,-20.0,32.0,70.459375,18.08,0.157566,31.37
2021-06-21 15:26:34.539062500,-53.0,-20.0,32.0,70.45921875,16.93,0.157566,31.37
2021-06-21 15:26:34.546875000,-53.0,-20.0,32.0,70.4590625,15.78,0.157566,31.37
2021-06-21 15:26:34.554687500,-53.0,-20.0,32.0,70.45890625,14.239999999999998,0.157566,31.37
2021-06-21 15:26:34.562500000,-53.0,-20.0,32.0,70.45875,12.7,0.157566,31.37
2021-06-21 15:26:34.570312500,-53.0,-20.0,32.0,70.45859375,10.925,0.157566,31.37
2021-06-21 15:26:34.578125000,-53.0,-20.0,32.0,70.4584375,9.15,0.157566,31.37
2021-06-21 15:26:34.585937500,-53.0,-20.0,32.0,70.45828125,7.355,0.157566,31.37
2021-06-21 15:26:34.593750000,-53.0,-20.0,32.0,70.458125,5.56,0.157566,31.37
2021-06-21 15:26:34.601562500,-53.0,-20.0,32.0,70.45796875,3.9349999999999996,0.157566,31.37
2021-06-21 15:26:34.609375000,-53.0,-20.0,32.0,70.4578125,2.31,0.157566,31.37
2021-06-21 15:26:34.617187500,-53.0,-20.0,32.0,70.45765625,0.9450000000000001,0.157566,31.37
2021-06-21 15:26:34.625000000,-53.0,-20.0,32.0,70.4575,-0.42,0.157566,31.37
2021-06-21 15:26:34.632812500,-53.0,-20.0,32.0,70.45734375,-1.56,0.157566,31.37
2021-06-21 15:26:34.640625000,-53.0,-20.0,32.0,70.4571875,-2.7,0.157566,31.37
2021-06-21 15:26:34.648437500,-53.0,-20.0,32.0,70.45703125,-3.745,0.157566,31.37
2021-06-21 15:26:34.656250000,-53.0,-20.0,32.0,70.456875,-4.79,0.157566,31.37
2021-06-21 15:26:34.664062500,-53.0,-20.0,32.0,70.45671875000001,-5.91,0.157566,31.37
2021-06-21 15:26:34.671875000,-53.0,-20.0,32.0,70.4565625,-7.03,0.157566,31.37
2021-06-21 15:26:34.679687500,-53.0,-20.0,32.0,70.45640625,-8.34,0.157566,31.37
2021-06-21 15:26:34.687500000,-53.0,-20.0,32.0,70.45625,-9.65,0.157566,31.37
2021-06-21 15:26:34.695312500,-53.0,-20.0,32.0,70.45609375000001,-11.165,0.157566,31.37
2021-06-21 15:26:34.703125000,-53.0,-20.0,32.0,70.4559375,-12.68,0.157566,31.37
2021-06-21 15:26:34.710937500,-53.0,-20.0,32.0,70.45578125,-14.325,0.157566,31.37
2021-06-21 15:26:34.718750000,-53.0,-20.0,32.0,70.455625,-15.97,0.157566,31.37
2021-06-21 15:26:34.726562500,-53.0,-20.0,32.0,70.45546875000001,-17.605,0.157566,31.37
2021-06-21 15:26:34.734375000,-53.0,-20.0,32.0,70.4553125,-19.24,0.157566,31.37
2021-06-21 15:26:34.742187500,-53.0,-20.0,32.0,70.45515625,-20.72,0.157566,31.37
2021-06-21 15:26:34.750000000,-53.0,-20.0,32.0,70.455,-22.2,0.157566,31.37
2021-06-21 15:26:34.757812500,-53.0,-20.0,32.0,70.45484375,-23.445,0.15764606250000002,31.37
2021-06-21 15:26:34.765625000,-53.0,-20.0,32.0,70.4546875,-24.69,0.15772612500000002,31.37
2021-06-21 15:26:34.773437500,-53.0,-20.0,32.0,70.45453125,-25.700000000000003,0.1578061875,31.37
2021-06-21 15:26:34.781250000,-53.0,-20.0,32.0,70.454375,-26.71,0.15788625,31.37
2021-06-21 15:26:34.789062500,-53.0,-20.0,32.0,70.45421875,-27.560000000000002,0.1579663125,31.37
2021-06-21 15:26:34.796875000,-53.0,-20.0,32.0,70.4540625,-28.41,0.15804637500000002,31.37
2021-06-21 15:26:34.804687500,-53.0,-20.0,32.0,70.45390625,-29.25,0.1581264375,31.37
2021-06-21 15:26:34.812500000,-53.0,-20.0,32.0,70.45375,-30.09,0.1582065,31.37
2021-06-21 15:26:34.820312500,-52.75,-20.0,32.0,70.45359375,-31.11,0.1582865625,31.37
2021-06-21 15:26:34.828125000,-52.5,-20.0,32.0,70.4534375,-32.13,0.158366625,31.37
2021-06-21 15:26:34.835937500,-52.25,-20.0,32.0,70.45328125,-33.5,0.15844668750000002,31.37
2021-06-21 15:26:34.843750000,-52.0,-20.0,32.0,70.453125,-34.87,0.15852675,31.37
2021-06-21 15:26:34.851562500,-52.25,-20.0,32.0,70.45296875,-36.709999999999994,0.1586068125,31.37
2021-06-21 15:26:34.859375000,-52.5,-20.0,32.0,70.45281250000001,-38.55,0.158686875,31.37
2021-06-21 15:26:34.867187500,-52.75,-20.0,32.0,70.45265625,-40.82,0.1587669375,31.37
2021-06-21 15:26:34.875000000,-53.0,-20.0,32.0,70.4525,-43.09,0.15884700000000002,31.37
2021-06-21 15:26:34.882812500,-53.0,-20.0,32.0,70.45234375,-45.535,0.1589270625,31.37
2021-06-21 15:26:34.890625000,-53.0,-20.0,32.0,70.45218750000001,-47.98,0.159007125,31.37
2021-06-21 15:26:34.898437500,-53.0,-20.0,32.0,70.45203125,-50.135,0.1590871875,31.37
2021-06-21 15:26:34.906250000,-53.0,-20.0,32.0,70.451875,-52.29,0.15916725,31.37
2021-06-21 15:26:34.914062500,-53.0,-20.0,32.0,70.45171875,-53.53,0.1592473125,31.37
2021-06-21 15:26:34.921875000,-53.0,-20.0,32.0,70.45156250000001,-54.77,0.159327375,31.37
2021-06-21 15:26:34.929687500,-53.0,-20.0,32.0,70.45140625,-54.525000000000006,0.1594074375,31.37
2021-06-21 15:26:34.937500000,-53.0,-20.0,32.0,70.45125,-54.28,0.1594875,31.37
2021-06-21 15:26:34.945312500,-52.75,-20.0,32.0,70.45109375,-52.165,0.1595675625,31.37
2021-06-21 15:26:34.953125000,-52.5,-20.0,32.0,70.45093750000001,-50.05,0.159647625,31.37
2021-06-21 15:26:34.960937500,-52.25,-20.0,32.0,70.45078125,-46.07,0.1597276875,31.37
2021-06-21 15:26:34.968750000,-52.0,-20.0,32.0,70.450625,-42.09,0.15980775,31.37
2021-06-21 15:26:34.976562500,-52.25,-20.0,32.0,70.45046875,-36.650000000000006,0.1598878125,31.37
2021-06-21 15:26:34.984375000,-52.5,-20.0,32.0,70.45031250000001,-31.21,0.15996787499999998,31.37
2021-06-21 15:26:34.992187500,-52.75,-20.0,32.0,70.45015625,-25.009999999999998,0.1600479375,31.37
2021-06-21 15:26:35.000000000,-53.0,-20.0,32.0,70.45,-18.81,0.160128,31.37
2021-06-21 15:26:35.007812500,-53.0,-20.0,32.0,70.44984375,-12.649999999999999,0.1600479375,31.368750000000002
2021-06-21 15:26:35.015625000,-53.0,-20.0,32.0,70.4496875,-6.49,0.15996787499999998,31.3675
2021-06-21 15:26:35.023437500,-53.0,-20.0,32.0,70.44953125,-1.04,0.1598878125,31.36625
2021-06-21 15:26:35.031250000,-53.0,-20.0,32.0,70.449375,4.41,0.15980775,31.365000000000002
2021-06-21 15:26:35.039062500,-52.75,-20.0,32.0,70.44921875,8.725,0.1597276875,31.36375
2021-06-21 15:26:35.046875000,-52.5,-20.0,32.0,70.4490625,13.04,0.159647625,31.3625
2021-06-21 15:26:35.054687500,-52.25,-20.0,32.0,70.44890625000001,16.075,0.1595675625,31.361250000000002
2021-06-21 15:26:35.062500000,-52.0,-20.0,32.0,70.44875,19.11,0.1594875,31.36
2021-06-21 15:26:35.070312500,-52.25,-20.0,32.0,70.44859375,20.955,0.1594074375,31.35875
2021-06-21 15:26:35.078125000,-52.5,-20.0,32.0,70.4484375,22.8,0.159327375,31.3575
2021-06-21 15:26:35.085937500,-52.75,-20.0,32.0,70.44828125000001,23.685000000000002,0.1592473125,31.35625
2021-06-21 15:26:35.093750000,-53.0,-20.0,32.0,70.448125,24.57,0.15916725,31.355
2021-06-21 15:26:35.101562500,-53.0,-20.0,32.0,70.44796875,24.765,0.1590871875,31.35375
2021-06-21 15:26:35.109375000,-53.0,-20.0,32.0,70.4478125,24.96,0.159007125,31.3525
2021-06-21 15:26:35.117187500,-53.0,-20.0,32.0,70.44765625000001,24.725,0.1589270625,31.35125
2021-06-21 15:26:35.125000000,-53.0,-20.0,32.0,70.4475,24.49,0.15884700000000002,31.35
2021-06-21 15:26:35.132812500,-53.0,-20.0,32.0,70.44734375,24.03,0.1587669375,31.34875
2021-06-21 15:26:35.140625000,-53.0,-20.0,32.0,70.4471875,23.57,0.158686875,31.3475
2021-06-21 15:26:35.148437500,-53.0,-20.0,32.0,70.44703125000001,23.009999999999998,0.1586068125,31.346249999999998
2021-06-21 15:26:35.156250000,-53.0,-20.0,32.0,70.446875,22.45,0.15852675,31.345
2021-06-21 15:26:35.164062500,-53.0,-20.0,32.0,70.44671875,21.85,0.15844668750000002,31.34375
2021-06-21 15:26:35.171875000,-53.0,-20.0,32.0,70.4465625,21.25,0.158366625,31.342499999999998
2021-06-21 15:26:35.179687500,-53.0,-20.0,32.0,70.44640625000001,20.619999999999997,0.1582865625,31.34125
2021-06-21 15:26:35.187500000,-53.0,-20.0,32.0,70.44625,19.99,0.1582065,31.34
2021-06-21 15:26:35.195312500,-53.0,-20.0,32.0,70.44609375,19.365,0.1581264375,31.338749999999997
2021-06-21 15:26:35.203125000,-53.0,-20.0,32.0,70.4459375,18.74,0.15804637500000002,31.3375
2021-06-21 15:26:35.210937500,-53.0,-20.0,32.0,70.44578125000001,18.189999999999998,0.1579663125,31.33625
2021-06-21 15:26:35.218750000,-53.0,-20.0,32.0,70.445625,17.64,0.15788625,31.334999999999997
2021-06-21 15:26:35.226562500,-53.0,-20.0,32.0,70.44546875,17.27,0.1578061875,31.33375
2021-06-21 15:26:35.234375000,-53.0,-20.0,32.0,70.4453125,16.9,0.15772612500000002,31.3325
2021-06-21 15:26:35.242187500,-53.0,-20.0,32.0,70.44515625000001,16.82,0.15764606250000002,31.331249999999997
2021-06-21 15:26:35.250000000,-53.0,-20.0,32.0,70.44500000000001,16.74,0.157566,31.33
2021-06-21 15:26:35.257812500,-53.0,-20.0,32.0,70.44484375,17.005,0.15760603125,31.33
2021-06-21 15:26:35.265625000,-53.0,-20.0,32.0,70.4446875,17.27,0.15764606250000002,31.33
2021-06-21 15:26:35.273437500,-53.0,-20.0,32.0,70.44453125,17.845,0.15768609375,31.33
2021-06-21 15:26:35.281250000,-53.0,-20.0,32.0,70.44437500000001,18.42,0.157726125,31.33
2021-06-21 15:26:35.289062500,-53.0,-20.0,32.0,70.44421875,19.200000000000003,0.15776615625,31.33
2021-06-21 15:26:35.296875000,-53.0,-20.0,32.0,70.4440625,19.98,0.1578061875,31.33
2021-06-21 15:26:35.304687500,-53.0,-20.0,32.0,70.44390625,20.84,0.15784621875000002,31.33
2021-06-21 15:26:35.312500000,-53.0,-20.0,32.0,70.44375000000001,21.7,0.15788625,31.33
2021-06-21 15:26:35.320312500,-53.0,-20.0,32.0,70.44359375,22.490000000000002,0.15792628125,31.33
2021-06-21 15:26:35.328125000,-53.0,-20.0,32.0,70.4434375,23.28,0.1579663125,31.33
2021-06-21 15:26:35.335937500,-53.0,-20.0,32.0,70.44328125,23.905,0.15800634375,31.33
2021-06-21 15:26:35.343750000,-53.0,-20.0,32.0,70.44312500000001,24.53,0.15804637500000002,31.33
2021-06-21 15:26:35.351562500,-53.0,-20.0,32.0,70.44296875,24.895000000000003,0.15808640625,31.33
2021-06-21 15:26:35.359375000,-53.0,-20.0,32.0,70.4428125,25.26,0.1581264375,31.33
2021-06-21 15:26:35.367187500,-53.0,-20.0,32.0,70.44265625,25.3,0.15816646875,31.33
2021-06-21 15:26:35.375000000,-53.0,-20.0,32.0,70.44250000000001,25.34,0.1582065,31.33
2021-06-21 15:26:35.382812500,-53.0,-20.0,32.0,70.44234375,25.0,0.15824653125,31.33
2021-06-21 15:26:35.390625000,-53.0,-20.0,32.0,70.4421875,24.66,0.1582865625,31.33
2021-06-21 15:26:35.398437500,-53.0,-20.0,32.0,70.44203125,23.925,0.15832659375,31.33
2021-06-21 15:26:35.406250000,-53.0,-20.0,32.0,70.44187500000001,23.19,0.15836662499999998,31.33
2021-06-21 15:26:35.414062500,-53.0,-20.0,32.0,70.44171875,22.105,0.15840665625,31.33
2021-06-21 15:26:35.421875000,-53.0,-20.0,32.0,70.4415625,21.02,0.1584466875,31.33
2021-06-21 15:26:35.429687500,-53.0,-20.0,32.0,70.44140625,19.665,0.15848671875,31.33
2021-06-21 15:26:35.437500000,-53.0,-20.0,32.0,70.44125000000001,18.31,0.15852675,31.33
2021-06-21 15:26:35.445312500,-53.0,-20.0,32.0,70.44109375000001,16.794999999999998,0.15856678124999998,31.33
2021-06-21 15:26:35.453125000,-53.0,-20.0,32.0,70.4409375,15.28,0.1586068125,31.33
2021-06-21 15:26:35.460937500,-53.0,-20.0,32.0,70.44078125,13.68,0.15864684375,31.33
2021-06-21 15:26:35.468750000,-53.0,-20.0,32.0,70.44062500000001,12.08,0.158686875,31.33
2021-06-21 15:26:35.476562500,-53.0,-20.0,32.0,70.44046875000001,10.415,0.15872690625,31.33
2021-06-21 15:26:35.484375000,-53.0,-20.0,32.0,70.4403125,8.75,0.15876693749999998,31.33
2021-06-21 15:26:35.492187500,-53.0,-20.0,32.0,70.44015625,7.005,0.15880696875,31.33
2021-06-21 15:26:35.500000000,-53.0,-20.0,32.0,70.44,5.26,0.158847,31.33
2021-06-21 15:26:35.507812500,-53.0,-20.0,32.0,70.43984375000001,3.445,0.158847,31.33
2021-06-21 15:26:35.515625000,-53.0,-20.0,32.0,70.4396875,1.63,0.158847,31.33
2021-06-21 15:26:35.523437500,-53.0,-20.0,32.0,70.43953125,-0.18999999999999995,0.158847,31.33
2021-06-21 15:26:35.531250000,-53.0,-20.0,32.0,70.439375,-2.01,0.158847,31.33
2021-06-21 15:26:35.539062500,-53.0,-20.0,32.0,70.43921875000001,-3.73,0.158847,31.33
2021-06-21 15:26:35.546875000,-53.0,-20.0,32.0,70.4390625,-5.45,0.158847,31.33
2021-06-21 15:26:35.554687500,-53.0,-20.0,32.0,70.43890625,-6.960000000000001,0.158847,31.33
2021-06-21 15:26:35.562500000,-53.0,-20.0,32.0,70.43875,-8.47,0.158847,31.33
2021-06-21 15:26:35.570312500,-53.0,-20.0,32.0,70.43859375000001,-9.77,0.158847,31.33
2021-06-21 15:26:35.578125000,-53.0,-20.0,32.0,70.4384375,-11.07,0.158847,31.33
2021-06-21 15:26:35.585937500,-53.0,-20.0,32.0,70.43828125,-12.25,0.158847,31.33
2021-06-21 15:26:35.593750000,-53.0,-20.0,32.0,70.438125,-13.43,0.158847,31.33
2021-06-21 15:26:35.601562500,-53.0,-20.0,32.0,70.43796875000001,-14.695,0.158847,31.33
2021-06-21 15:26:35.609375000,-53.0,-20.0,32.0,70.4378125,-15.96,0.158847,31.33
2021-06-21 15:26:35.617187500,-53.0,-20.0,32.0,70.43765625,-17.515,0.158847,31.33
2021-06-21 15:26:35.625000000,-53.0,-20.0,32.0,70.4375,-19.07,0.158847,31.33
2021-06-21 15:26:35.632812500,-53.0,-20.0,32.0,70.43734375000001,-21.045,0.158847,31.33
2021-06-21 15:26:35.640625000,-53.0,-20.0,32.0,70.43718750000001,-23.02,0.158847,31.33
2021-06-21 15:26:35.648437500,-53.0,-20.0,32.0,70.43703125,-25.395,0.158847,31.33
2021-06-21 15:26:35.656250000,-53.0,-20.0,32.0,70.436875,-27.77,0.158847,31.33
2021-06-21 15:26:35.664062500,-53.0,-20.0,32.0,70.43671875000001,-30.35,0.158847,31.33
2021-06-21 15:26:35.671875000,-53.0,-20.0,32.0,70.43656250000001,-32.93,0.158847,31.33
2021-06-21 15:26:35.679687500,-53.0,-20.0,32.0,70.43640625,-35.364999999999995,0.158847,31.33
2021-06-21 15:26:35.687500000,-53.0,-20.0,32.0,70.43625,-37.8,0.158847,31.33
2021-06-21 15:26:35.695312500,-53.0,-20.0,32.0,70.43609375000001,-39.595,0.158847,31.33
2021-06-21 15:26:35.703125000,-53.0,-20.0,32.0,70.43593750000001,-41.39,0.158847,31.33
2021-06-21 15:26:35.710937500,-53.0,-20.0,32.0,70.43578125,-42.025,0.158847,31.33
2021-06-21 15:26:35.718750000,-53.0,-20.0,32.0,70.435625,-42.66,0.158847,31.33
2021-06-21 15:26:35.726562500,-53.0,-20.0,32.0,70.43546875000001,-41.709999999999994,0.158847,31.33
2021-06-21 15:26:35.734375000,-53.0,-20.0,32.0,70.43531250000001,-40.76,0.158847,31.33
2021-06-21 15:26:35.742187500,-53.0,-20.0,32.0,70.43515625,-38.015,0.158847,31.33
2021-06-21 15:26:35.750000000,-53.0,-20.0,32.0,70.435,-35.27,0.158847,31.33
2021-06-21 15:26:35.757812500,-53.0,-20.0,32.0,70.43484375,-30.86,0.15872690625,31.33
2021-06-21 15:26:35.765625000,-53.0,-20.0,32.0,70.43468750000001,-26.45,0.1586068125,31.33
2021-06-21 15:26:35.773437500,-53.0,-20.0,32.0,70.43453125,-20.865,0.15848671874999998,31.33
2021-06-21 15:26:35.781250000,-53.0,-20.0,32.0,70.434375,-15.28,0.15836662499999998,31.33
2021-06-21 15:26:35.789062500,-53.0,-20.0,32.0,70.43421875,-9.24,0.15824653125,31.33
2021-06-21 15:26:35.796875000,-53.0,-20.0,32.0,70.43406250000001,-3.2,0.1581264375,31.33
2021-06-21 15:26:35.804687500,-53.0,-20.0,32.0,70.43390625,2.5149999999999997,0.15800634375,31.33
2021-06-21 15:26:35.812500000,-53.0,-20.0,32.0,70.43375,8.23,0.15788625,31.33
2021-06-21 15:26:35.820312500,-53.0,-20.0,32.0,70.43359375,13.02,0.15776615624999998,31.33
2021-06-21 15:26:35.828125000,-53.0,-20.0,32.0,70.43343750000001,17.81,0.1576460625,31.33
2021-06-21 15:26:35.835937500,-53.0,-20.0,32.0,70.43328125000001,21.369999999999997,0.15752596875,31.33
2021-06-21 15:26:35.843750000,-53.0,-20.0,32.0,70.433125,24.93,0.157405875,31.33
2021-06-21 15:26:35.851562500,-53.0,-20.0,32.0,70.43296875,27.244999999999997,0.15728578125,31.33
2021-06-21 15:26:35.859375000,-53.0,-20.0,32.0,70.43281250000001,29.56,0.15716568749999998,31.33
2021-06-21 15:26:35.867187500,-53.0,-20.0,32.0,70.43265625000001,30.835,0.15704559375,31.33
2021-06-21 15:26:35.875000000,-53.0,-20.0,32.0,70.4325,32.11,0.1569255,31.33
2021-06-21 15:26:35.882812500,-53.0,-20.0,32.0,70.43234375,32.605000000000004,0.15680540625,31.33
2021-06-21 15:26:35.890625000,-53.0,-20.0,32.0,70.43218750000001,33.1,0.1566853125,31.33
2021-06-21 15:26:35.898437500,-53.0,-20.0,32.0,70.43203125000001,33.05,0.15656521874999998,31.33
2021-06-21 15:26:35.906250000,-53.0,-20.0,32.0,70.431875,33.0,0.156445125,31.33
2021-06-21 15:26:35.914062500,-53.0,-20.0,32.0,70.43171875,32.575,0.15632503125,31.33
2021-06-21 15:26:35.921875000,-53.0,-20.0,32.0,70.43156250000001,32.15,0.1562049375,31.33
2021-06-21 15:26:35.929687500,-53.0,-20.0,32.0,70.43140625000001,31.455,0.15608484375,31.33
2021-06-21 15:26:35.937500000,-53.0,-20.0,32.0,70.43125,30.76,0.15596474999999999,31.33
2021-06-21 15:26:35.945312500,-53.0,-20.0,32.0,70.43109375,29.89,0.15584465625,31.33
2021-06-21 15:26:35.953125000,-53.0,-20.0,32.0,70.43093750000001,29.02,0.1557245625,31.33
2021-06-21 15:26:35.960937500,-53.0,-20.0,32.0,70.43078125000001,28.064999999999998,0.15560446875,31.33
2021-06-21 15:26:35.968750000,-53.0,-20.0,32.0,70.430625,27.11,0.155484375,31.33
2021-06-21 15:26:35.976562500,-53.0,-20.0,32.0,70.43046875,26.155,0.15536428125,31.33
2021-06-21 15:26:35.984375000,-53.0,-20.0,32.0,70.43031250000001,25.2,0.1552441875,31.33
2021-06-21 15:26:35.992187500,-53.0,-20.0,32.0,70.43015625000001,24.34,0.15512409375,31.33
2021-06-21 15:26:36.000000000,-53.0,-20.0,32.0,70.43,23.48,0.155004,31.33
2021-06-21 15:26:36.007812500,-53.0,-20.0,32.0,70.429921875,22.810000000000002,0.1550840625,31.330624999999998
2021-06-21 15:26:36.015625000,-53.0,-20.0,32.0,70.42984375,22.14,0.155164125,31.331249999999997
2021-06-21 15:26:36.023437500,-53.0,-20.0,32.0,70.429765625,21.735,0.1552441875,31.331875
2021-06-21 15:26:36.031250000,-53.0,-20.0,32.0,70.4296875,21.33,0.15532425,31.3325
2021-06-21 15:26:36.039062500,-53.0,-20.0,32.0,70.42960937500001,21.225,0.1554043125,31.333125
2021-06-21 15:26:36.046875000,-53.0,-20.0,32.0,70.42953125000001,21.12,0.155484375,31.33375
2021-06-21 15:26:36.054687500,-53.0,-20.0,32.0,70.42945312500001,21.285,0.1555644375,31.334374999999998
2021-06-21 15:26:36.062500000,-53.0,-20.0,32.0,70.42937500000001,21.45,0.15564450000000002,31.335
2021-06-21 15:26:36.070312500,-53.0,-20.0,32.0,70.429296875,21.79,0.1557245625,31.335625
2021-06-21 15:26:36.078125000,-53.0,-20.0,32.0,70.42921875,22.13,0.155804625,31.33625
2021-06-21 15:26:36.085937500,-53.0,-20.0,32.0,70.429140625,22.54,0.1558846875,31.336875
2021-06-21 15:26:36.093750000,-53.0,-20.0,32.0,70.4290625,22.95,0.15596475,31.3375
