TimeStamp,empatica.acc.x,empatica.acc.y,empatica.acc.z,empatica.hr,empatica.bvp,empatica.eda,empatica.temp
2021-07-07 11:04:34.960937500,-61.0,-19.0,-8.25,90.84296875,29.68,13.568698,34.5
2021-07-07 11:04:34.968750000,-61.0,-19.0,-8.0,90.844375,30.66,13.569899,34.5
2021-07-07 11:04:34.976562500,-61.25,-19.0,-8.25,90.84578124999999,31.2,13.5711,34.5
2021-07-07 11:04:34.984375000,-61.5,-19.0,-8.5,90.84718749999999,31.74,13.572301,34.5
2021-07-07 11:04:34.992187500,-61.75,-19.0,-8.75,90.84859374999999,31.949999999999996,13.573502,34.5
2021-07-07 11:04:35.000000000,-62.0,-19.0,-9.0,90.85,32.16,13.574703,34.5
2021-07-07 11:04:35.007812500,-61.75,-19.25,-9.0,90.85,32.144999999999996,13.573381906249999,34.4996875
2021-07-07 11:04:35.015625000,-61.5,-19.5,-9.0,90.85,32.13,13.5720608125,34.499375
2021-07-07 11:04:35.023437500,-61.25,-19.75,-9.0,90.85,31.965000000000003,13.57073971875,34.4990625
2021-07-07 11:04:35.031250000,-61.0,-20.0,-9.0,90.85,31.8,13.569418624999999,34.49875
2021-07-07 11:04:35.039062500,-61.0,-20.0,-8.5,90.85,31.6,13.56809753125,34.4984375
2021-07-07 11:04:35.046875000,-61.0,-20.0,-8.0,90.85,31.4,13.5667764375,34.498125
2021-07-07 11:04:35.054687500,-61.0,-20.0,-7.5,90.85,31.299999999999997,13.56545534375,34.4978125
2021-07-07 11:04:35.062500000,-61.0,-20.0,-7.0,90.85,31.2,13.564134249999999,34.4975
2021-07-07 11:04:35.070312500,-61.25,-20.0,-7.5,90.85,31.295,13.56281315625,34.4971875
2021-07-07 11:04:35.078125000,-61.5,-20.0,-8.0,90.85,31.39,13.5614920625,34.496875
2021-07-07 11:04:35.085937500,-61.75,-20.0,-8.5,90.85,31.745,13.560170968749999,34.4965625
2021-07-07 11:04:35.093750000,-62.0,-20.0,-9.0,90.85,32.1,13.558849875,34.49625
2021-07-07 11:04:35.101562500,-61.75,-20.0,-8.75,90.85,32.69,13.55752878125,34.495937500000004
2021-07-07 11:04:35.109375000,-61.5,-20.0,-8.5,90.85,33.28,13.556207687499999,34.495625000000004
2021-07-07 11:04:35.117187500,-61.25,-20.0,-8.25,90.85,34.03,13.55488659375,34.495312500000004
2021-07-07 11:04:35.125000000,-61.0,-20.0,-8.0,90.85,34.78,13.5535655,34.495000000000005
2021-07-07 11:04:35.132812500,-61.0,-20.0,-8.25,90.85,35.61,13.552244406249999,34.4946875
2021-07-07 11:04:35.140625000,-61.0,-20.0,-8.5,90.85,36.44,13.5509233125,34.494375
2021-07-07 11:04:35.148437500,-61.0,-20.0,-8.75,90.85,37.29,13.54960221875,34.4940625
2021-07-07 11:04:35.156250000,-61.0,-20.0,-9.0,90.85,38.14,13.548281124999999,34.49375
2021-07-07 11:04:35.164062500,-61.0,-20.0,-8.75,90.85,38.97,13.54696003125,34.4934375
2021-07-07 11:04:35.171875000,-61.0,-20.0,-8.5,90.85,39.8,13.5456389375,34.493125
2021-07-07 11:04:35.179687500,-61.0,-20.0,-8.25,90.85,40.599999999999994,13.54431784375,34.4928125
2021-07-07 11:04:35.187500000,-61.0,-20.0,-8.0,90.85,41.4,13.54299675,34.4925
2021-07-07 11:04:35.195312500,-61.25,-20.0,-8.5,90.85,42.11,13.54167565625,34.4921875
2021-07-07 11:04:35.203125000,-61.5,-20.0,-9.0,90.85,42.82,13.5403545625,34.491875
2021-07-07 11:04:35.210937500,-61.75,-20.0,-9.5,90.85,43.35,13.539033468749999,34.4915625
2021-07-07 11:04:35.218750000,-62.0,-20.0,-10.0,90.85,43.88,13.537712375,34.49125
2021-07-07 11:04:35.226562500,-61.75,-19.75,-9.25,90.85,44.14,13.53639128125,34.4909375
2021-07-07 11:04:35.234375000,-61.5,-19.5,-8.5,90.85,44.4,13.535070187499999,34.490625
2021-07-07 11:04:35.242187500,-61.25,-19.25,-7.75,90.85,44.349999999999994,13.53374909375,34.4903125
2021-07-07 11:04:35.250000000,-61.0,-19.0,-7.0,90.85,44.3,13.532428,34.49
2021-07-07 11:04:35.257812500,-61.25,-19.0,-7.25,90.85,43.959999999999994,13.5327883125,34.49
2021-07-07 11:04:35.265625000,-61.5,-19.0,-7.5,90.85,43.62,13.533148624999999,34.49
2021-07-07 11:04:35.273437500,-61.75,-19.0,-7.75,90.85,43.09,13.533508937499999,34.49
2021-07-07 11:04:35.281250000,-62.0,-19.0,-8.0,90.85,42.56,13.533869249999999,34.49
2021-07-07 11:04:35.289062500,-62.0,-19.0,-8.0,90.85,41.975,13.5342295625,34.49
2021-07-07 11:04:35.296875000,-62.0,-19.0,-8.0,90.85,41.39,13.534589875,34.49
2021-07-07 11:04:35.304687500,-62.0,-19.0,-8.0,90.85,40.865,13.5349501875,34.49
2021-07-07 11:04:35.312500000,-62.0,-19.0,-8.0,90.85,40.34,13.5353105,34.49
2021-07-07 11:04:35.320312500,-61.75,-19.0,-7.5,90.85,39.97,13.5356708125,34.49
2021-07-07 11:04:35.328125000,-61.5,-19.0,-7.0,90.85,39.6,13.536031125,34.49
2021-07-07 11:04:35.335937500,-61.25,-19.0,-6.5,90.85,39.425,13.536391437499999,34.49
2021-07-07 11:04:35.343750000,-61.0,-19.0,-6.0,90.85,39.25,13.53675175,34.49
2021-07-07 11:04:35.351562500,-61.0,-19.25,-6.0,90.85,39.269999999999996,13.5371120625,34.49
2021-07-07 11:04:35.359375000,-61.0,-19.5,-6.0,90.85,39.29,13.537472375,34.49
2021-07-07 11:04:35.367187500,-61.0,-19.75,-6.0,90.85,39.36,13.5378326875,34.49
2021-07-07 11:04:35.375000000,-61.0,-20.0,-6.0,90.85,39.43,13.538193,34.49
2021-07-07 11:04:35.382812500,-61.25,-19.75,-6.75,90.85,39.415,13.5385533125,34.49
2021-07-07 11:04:35.390625000,-61.5,-19.5,-7.5,90.85,39.4,13.538913625,34.49
2021-07-07 11:04:35.398437500,-61.75,-19.25,-8.25,90.85,39.224999999999994,13.539273937499999,34.49
2021-07-07 11:04:35.406250000,-62.0,-19.0,-9.0,90.85,39.05,13.539634249999999,34.49
2021-07-07 11:04:35.414062500,-61.75,-19.25,-8.5,90.85,38.765,13.5399945625,34.49
2021-07-07 11:04:35.421875000,-61.5,-19.5,-8.0,90.85,38.48,13.540354875,34.49
2021-07-07 11:04:35.429687500,-61.25,-19.75,-7.5,90.85,38.175,13.5407151875,34.49
2021-07-07 11:04:35.437500000,-61.0,-20.0,-7.0,90.85,37.87,13.5410755,34.49
2021-07-07 11:04:35.445312500,-61.0,-20.0,-6.75,90.85,37.67,13.5414358125,34.49
2021-07-07 11:04:35.453125000,-61.0,-20.0,-6.5,90.85,37.47,13.541796125,34.49
2021-07-07 11:04:35.460937500,-61.0,-20.0,-6.25,90.85,37.474999999999994,13.5421564375,34.49
2021-07-07 11:04:35.468750000,-61.0,-20.0,-6.0,90.85,37.48,13.54251675,34.49
2021-07-07 11:04:35.476562500,-61.0,-20.0,-6.0,90.85,37.73,13.5428770625,34.49
2021-07-07 11:04:35.484375000,-61.0,-20.0,-6.0,90.85,37.98,13.543237375,34.49
2021-07-07 11:04:35.492187500,-61.0,-20.0,-6.0,90.85,38.42,13.5435976875,34.49
2021-07-07 11:04:35.500000000,-61.0,-20.0,-6.0,90.85,38.86,13.543958,34.49
2021-07-07 11:04:35.507812500,-61.0,-20.25,-6.5,90.85,39.28,13.5445585,34.49
2021-07-07 11:04:35.515625000,-61.0,-20.5,-7.0,90.85,39.7,13.545159,34.49
2021-07-07 11:04:35.523437500,-61.0,-20.75,-7.5,90.85,39.92,13.545759499999999,34.49
2021-07-07 11:04:35.531250000,-61.0,-21.0,-8.0,90.85,40.14,13.54636,34.49
2021-07-07 11:04:35.539062500,-61.0,-21.0,-8.25,90.85,40.165,13.5469605,34.49
2021-07-07 11:04:35.546875000,-61.0,-21.0,-8.5,90.85,40.19,13.547561,34.49
2021-07-07 11:04:35.554687500,-61.0,-21.0,-8.75,90.85,40.185,13.548161499999999,34.49
2021-07-07 11:04:35.562500000,-61.0,-21.0,-9.0,90.85,40.18,13.548762,34.49
2021-07-07 11:04:35.570312500,-61.0,-20.75,-9.5,90.85,40.375,13.5493625,34.49
2021-07-07 11:04:35.578125000,-61.0,-20.5,-10.0,90.85,40.57,13.549963,34.49
2021-07-07 11:04:35.585937500,-61.0,-20.25,-10.5,90.85,41.120000000000005,13.550563499999999,34.49
2021-07-07 11:04:35.593750000,-61.0,-20.0,-11.0,90.85,41.67,13.551164,34.49
2021-07-07 11:04:35.601562500,-61.25,-20.0,-10.75,90.85,42.615,13.5517645,34.49
2021-07-07 11:04:35.609375000,-61.5,-20.0,-10.5,90.85,43.56,13.552365,34.49
2021-07-07 11:04:35.617187500,-61.75,-20.0,-10.25,90.85,44.78,13.552965499999999,34.49
2021-07-07 11:04:35.625000000,-62.0,-20.0,-10.0,90.85,46.0,13.553566,34.49
2021-07-07 11:04:35.632812500,-61.5,-19.5,-9.5,90.85,47.239999999999995,13.554166500000001,34.49
2021-07-07 11:04:35.640625000,-61.0,-19.0,-9.0,90.85,48.48,13.554767,34.49
2021-07-07 11:04:35.648437500,-60.5,-18.5,-8.5,90.85,49.26,13.5553675,34.49
2021-07-07 11:04:35.656250000,-60.0,-18.0,-8.0,90.85,50.04,13.555968,34.49
2021-07-07 11:04:35.664062500,-60.25,-18.25,-8.0,90.85,49.974999999999994,13.556568500000001,34.49
2021-07-07 11:04:35.671875000,-60.5,-18.5,-8.0,90.85,49.91,13.557169,34.49
2021-07-07 11:04:35.679687500,-60.75,-18.75,-8.0,90.85,48.9,13.5577695,34.49
2021-07-07 11:04:35.687500000,-61.0,-19.0,-8.0,90.85,47.89,13.55837,34.49
2021-07-07 11:04:35.695312500,-61.0,-19.0,-8.0,90.85,46.019999999999996,13.558970500000001,34.49
2021-07-07 11:04:35.703125000,-61.0,-19.0,-8.0,90.85,44.15,13.559571,34.49
2021-07-07 11:04:35.710937500,-61.0,-19.0,-8.0,90.85,41.51,13.5601715,34.49
2021-07-07 11:04:35.718750000,-61.0,-19.0,-8.0,90.85,38.87,13.560772,34.49
2021-07-07 11:04:35.726562500,-61.25,-19.25,-7.75,90.85,35.485,13.561372500000001,34.49
2021-07-07 11:04:35.734375000,-61.5,-19.5,-7.5,90.85,32.1,13.561973,34.49
2021-07-07 11:04:35.742187500,-61.75,-19.75,-7.25,90.85,28.045,13.5625735,34.49
2021-07-07 11:04:35.750000000,-62.0,-20.0,-7.0,90.85,23.99,13.563174,34.49
2021-07-07 11:04:35.757812500,-61.75,-20.0,-7.0,90.85,19.47,13.5625334375,34.49
2021-07-07 11:04:35.765625000,-61.5,-20.0,-7.0,90.85,14.95,13.561892875,34.49
2021-07-07 11:04:35.773437500,-61.25,-20.0,-7.0,90.85,10.315,13.5612523125,34.49
2021-07-07 11:04:35.781250000,-61.0,-20.0,-7.0,90.85,5.68,13.56061175,34.49
2021-07-07 11:04:35.789062500,-61.25,-20.25,-7.0,90.85,0.7750000000000004,13.5599711875,34.49
2021-07-07 11:04:35.796875000,-61.5,-20.5,-7.0,90.85,-4.13,13.559330625,34.49
2021-07-07 11:04:35.804687500,-61.75,-20.75,-7.0,90.85,-9.3,13.5586900625,34.49
2021-07-07 11:04:35.812500000,-62.0,-21.0,-7.0,90.85,-14.47,13.5580495,34.49
2021-07-07 11:04:35.820312500,-61.5,-21.0,-6.5,90.85,-19.56,13.5574089375,34.49
2021-07-07 11:04:35.828125000,-61.0,-21.0,-6.0,90.85,-24.65,13.556768375,34.49
2021-07-07 11:04:35.835937500,-60.5,-21.0,-5.5,90.85,-29.255,13.5561278125,34.49
2021-07-07 11:04:35.843750000,-60.0,-21.0,-5.0,90.85,-33.86,13.55548725,34.49
2021-07-07 11:04:35.851562500,-60.25,-21.0,-5.25,90.85,-37.894999999999996,13.5548466875,34.49
2021-07-07 11:04:35.859375000,-60.5,-21.0,-5.5,90.85,-41.93,13.554206125,34.49
2021-07-07 11:04:35.867187500,-60.75,-21.0,-5.75,90.85,-45.605000000000004,13.5535655625,34.49
2021-07-07 11:04:35.875000000,-61.0,-21.0,-6.0,90.85,-49.28,13.552925,34.49
2021-07-07 11:04:35.882812500,-60.75,-21.0,-6.5,90.85,-52.835,13.552284437500001,34.49
2021-07-07 11:04:35.890625000,-60.5,-21.0,-7.0,90.85,-56.39,13.551643875,34.49
2021-07-07 11:04:35.898437500,-60.25,-21.0,-7.5,90.85,-59.89,13.5510033125,34.49
2021-07-07 11:04:35.906250000,-60.0,-21.0,-8.0,90.85,-63.39,13.55036275,34.49
2021-07-07 11:04:35.914062500,-60.0,-20.75,-8.0,90.85,-66.74000000000001,13.5497221875,34.49
2021-07-07 11:04:35.921875000,-60.0,-20.5,-8.0,90.85,-70.09,13.549081625,34.49
2021-07-07 11:04:35.929687500,-60.0,-20.25,-8.0,90.85,-74.39,13.5484410625,34.49
2021-07-07 11:04:35.937500000,-60.0,-20.0,-8.0,90.85,-78.69,13.547800500000001,34.49
2021-07-07 11:04:35.945312500,-60.25,-20.0,-7.75,90.85,-84.62,13.5471599375,34.49
2021-07-07 11:04:35.953125000,-60.5,-20.0,-7.5,90.85,-90.55,13.546519375,34.49
2021-07-07 11:04:35.960937500,-60.75,-20.0,-7.25,90.85,-97.775,13.5458788125,34.49
2021-07-07 11:04:35.968750000,-61.0,-20.0,-7.0,90.85,-105.0,13.54523825,34.49
2021-07-07 11:04:35.976562500,-61.25,-19.75,-7.5,90.85,-112.495,13.5445976875,34.49
2021-07-07 11:04:35.984375000,-61.5,-19.5,-8.0,90.85,-119.99,13.543957125,34.49
2021-07-07 11:04:35.992187500,-61.75,-19.25,-8.5,90.85,-126.92500000000001,13.5433165625,34.49
2021-07-07 11:04:36.000000000,-62.0,-19.0,-9.0,90.85,-133.86,13.542676,34.49
2021-07-07 11:04:36.007812500,-61.75,-19.0,-8.75,90.85015625,-139.85500000000002,13.5427160625,34.49125
2021-07-07 11:04:36.015625000,-61.5,-19.0,-8.5,90.8503125,-145.85,13.542756125,34.4925
2021-07-07 11:04:36.023437500,-61.25,-19.0,-8.25,90.85046874999999,-150.735,13.5427961875,34.49375
2021-07-07 11:04:36.031250000,-61.0,-19.0,-8.0,90.850625,-155.62,13.54283625,34.495000000000005
2021-07-07 11:04:36.039062500,-61.25,-19.0,-8.25,90.85078125,-159.22,13.5428763125,34.49625
2021-07-07 11:04:36.046875000,-61.5,-19.0,-8.5,90.8509375,-162.82,13.542916375,34.4975
2021-07-07 11:04:36.054687500,-61.75,-19.0,-8.75,90.85109374999999,-164.95,13.5429564375,34.49875
2021-07-07 11:04:36.062500000,-62.0,-19.0,-9.0,90.85125,-167.08,13.542996500000001,34.5
2021-07-07 11:04:36.070312500,-62.0,-19.0,-9.0,90.85140625,-169.53,13.5430365625,34.50125
2021-07-07 11:04:36.078125000,-62.0,-19.0,-9.0,90.8515625,-171.98,13.543076625,34.502500000000005
2021-07-07 11:04:36.085937500,-62.0,-19.0,-9.0,90.85171874999999,-175.86,13.5431166875,34.503750000000004
2021-07-07 11:04:36.093750000,-62.0,-19.0,-9.0,90.85187499999999,-179.74,13.54315675,34.505
2021-07-07 11:04:36.101562500,-61.5,-19.25,-8.5,90.85203125,-184.515,13.5431968125,34.50625
2021-07-07 11:04:36.109375000,-61.0,-19.5,-8.0,90.8521875,-189.29,13.543236875,34.5075
2021-07-07 11:04:36.117187500,-60.5,-19.75,-7.5,90.85234374999999,-193.44,13.5432769375,34.50875
2021-07-07 11:04:36.125000000,-60.0,-20.0,-7.0,90.85249999999999,-197.59,13.543317,34.510000000000005
2021-07-07 11:04:36.132812500,-60.0,-20.25,-6.5,90.85265625,-200.14499999999998,13.5433570625,34.511250000000004
2021-07-07 11:04:36.140625000,-60.0,-20.5,-6.0,90.8528125,-202.7,13.543397125,34.5125
2021-07-07 11:04:36.148437500,-60.0,-20.75,-5.5,90.85296875,-203.695,13.5434371875,34.51375
2021-07-07 11:04:36.156250000,-60.0,-21.0,-5.0,90.85312499999999,-204.69,13.54347725,34.515
2021-07-07 11:04:36.164062500,-60.25,-21.0,-5.25,90.85328125,-204.68,13.5435173125,34.51625
2021-07-07 11:04:36.171875000,-60.5,-21.0,-5.5,90.8534375,-204.67,13.543557375,34.5175
2021-07-07 11:04:36.179687500,-60.75,-21.0,-5.75,90.85359375,-204.20499999999998,13.5435974375,34.518750000000004
2021-07-07 11:04:36.187500000,-61.0,-21.0,-6.0,90.85374999999999,-203.74,13.543637499999999,34.52
2021-07-07 11:04:36.195312500,-61.0,-21.0,-6.5,90.85390625,-203.13,13.5436775625,34.52125
2021-07-07 11:04:36.203125000,-61.0,-21.0,-7.0,90.8540625,-202.52,13.543717625,34.5225
2021-07-07 11:04:36.210937500,-61.0,-21.0,-7.5,90.85421875,-204.275,13.5437576875,34.52375
2021-07-07 11:04:36.218750000,-61.0,-21.0,-8.0,90.85437499999999,-206.03,13.54379775,34.525
2021-07-07 11:04:36.226562500,-61.25,-20.75,-8.75,90.85453125,-211.41,13.5438378125,34.526250000000005
2021-07-07 11:04:36.234375000,-61.5,-20.5,-9.5,90.8546875,-216.79,13.543877875,34.5275
2021-07-07 11:04:36.242187500,-61.75,-20.25,-10.25,90.85484375,-224.605,13.5439179375,34.52875
2021-07-07 11:04:36.250000000,-62.0,-20.0,-11.0,90.85499999999999,-232.42,13.543958,34.53
2021-07-07 11:04:36.257812500,-61.75,-20.0,-10.5,90.85515625,-240.065,13.5428770625,34.53
2021-07-07 11:04:36.265625000,-61.5,-20.0,-10.0,90.8553125,-247.71,13.541796125,34.53
2021-07-07 11:04:36.273437500,-61.25,-20.0,-9.5,90.85546875,-253.39499999999998,13.5407151875,34.53
2021-07-07 11:04:36.281250000,-61.0,-20.0,-9.0,90.855625,-259.08,13.53963425,34.53
2021-07-07 11:04:36.289062500,-61.0,-19.75,-8.5,90.85578124999999,-262.54999999999995,13.5385533125,34.53
2021-07-07 11:04:36.296875000,-61.0,-19.5,-8.0,90.8559375,-266.02,13.537472375,34.53
2021-07-07 11:04:36.304687500,-61.0,-19.25,-7.5,90.85609375,-267.96500000000003,13.5363914375,34.53
2021-07-07 11:04:36.312500000,-61.0,-19.0,-7.0,90.85625,-269.91,13.5353105,34.53
2021-07-07 11:04:36.320312500,-61.0,-19.0,-7.25,90.85640624999999,-271.235,13.5342295625,34.53
2021-07-07 11:04:36.328125000,-61.0,-19.0,-7.5,90.8565625,-272.56,13.533148625,34.53
2021-07-07 11:04:36.335937500,-61.0,-19.0,-7.75,90.85671875,-258.28499999999997,13.5320676875,34.53
2021-07-07 11:04:36.343750000,-61.0,-19.0,-8.0,90.856875,-244.01,13.53098675,34.53
2021-07-07 11:04:36.351562500,-61.0,-19.25,-8.0,90.85703124999999,-208.72,13.529905812500001,34.53
2021-07-07 11:04:36.359375000,-61.0,-19.5,-8.0,90.8571875,-173.43,13.528824875,34.53
2021-07-07 11:04:36.367187500,-61.0,-19.75,-8.0,90.85734375,-125.14500000000001,13.5277439375,34.53
2021-07-07 11:04:36.375000000,-61.0,-20.0,-8.0,90.8575,-76.86,13.526663,34.53
2021-07-07 11:04:36.382812500,-61.0,-20.0,-7.75,90.85765625,-29.945,13.5255820625,34.53
2021-07-07 11:04:36.390625000,-61.0,-20.0,-7.5,90.8578125,16.97,13.524501125,34.53
2021-07-07 11:04:36.398437500,-61.0,-20.0,-7.25,90.85796875,53.769999999999996,13.5234201875,34.53
2021-07-07 11:04:36.406250000,-61.0,-20.0,-7.0,90.858125,90.57,13.52233925,34.53
2021-07-07 11:04:36.414062500,-61.25,-20.0,-7.25,90.85828125,116.235,13.5212583125,34.53
2021-07-07 11:04:36.421875000,-61.5,-20.0,-7.5,90.8584375,141.9,13.520177375,34.53
2021-07-07 11:04:36.429687500,-61.75,-20.0,-7.75,90.85859375,158.97500000000002,13.5190964375,34.53
2021-07-07 11:04:36.437500000,-62.0,-20.0,-8.0,90.85875,176.05,13.5180155,34.53
2021-07-07 11:04:36.445312500,-61.75,-20.0,-7.75,90.85890625,187.51,13.5169345625,34.53
2021-07-07 11:04:36.453125000,-61.5,-20.0,-7.5,90.8590625,198.97,13.515853625,34.53
2021-07-07 11:04:36.460937500,-61.25,-20.0,-7.25,90.85921875,206.995,13.5147726875,34.53
2021-07-07 11:04:36.468750000,-61.0,-20.0,-7.0,90.859375,215.02,13.51369175,34.53
2021-07-07 11:04:36.476562500,-61.0,-20.25,-6.5,90.85953125,220.55,13.5126108125,34.53
2021-07-07 11:04:36.484375000,-61.0,-20.5,-6.0,90.85968749999999,226.08,13.511529875,34.53
2021-07-07 11:04:36.492187500,-61.0,-20.75,-5.5,90.85984375,227.69,13.5104489375,34.53
2021-07-07 11:04:36.500000000,-61.0,-21.0,-5.0,90.86,229.3,13.509368,34.53
2021-07-07 11:04:36.507812500,-61.0,-20.75,-5.25,90.86015625,225.925,13.509528125000001,34.53
2021-07-07 11:04:36.515625000,-61.0,-20.5,-5.5,90.8603125,222.55,13.50968825,34.53
2021-07-07 11:04:36.523437500,-61.0,-20.25,-5.75,90.86046875,215.315,13.509848375,34.53
2021-07-07 11:04:36.531250000,-61.0,-20.0,-6.0,90.860625,208.08,13.5100085,34.53
2021-07-07 11:04:36.539062500,-60.75,-20.0,-6.0,90.86078125,199.64,13.510168625,34.53
2021-07-07 11:04:36.546875000,-60.5,-20.0,-6.0,90.8609375,191.2,13.510328750000001,34.53
2021-07-07 11:04:36.554687500,-60.25,-20.0,-6.0,90.86109375,183.695,13.510488875,34.53
2021-07-07 11:04:36.562500000,-60.0,-20.0,-6.0,90.86125,176.19,13.510649,34.53
2021-07-07 11:04:36.570312500,-60.5,-20.0,-6.75,90.86140625,170.445,13.510809125,34.53
2021-07-07 11:04:36.578125000,-61.0,-20.0,-7.5,90.8615625,164.7,13.51096925,34.53
2021-07-07 11:04:36.585937500,-61.5,-20.0,-8.25,90.86171875,160.6,13.511129375000001,34.53
2021-07-07 11:04:36.593750000,-62.0,-20.0,-9.0,90.861875,156.5,13.5112895,34.53
2021-07-07 11:04:36.601562500,-62.0,-19.75,-9.25,90.86203125,153.51999999999998,13.511449625000001,34.53
2021-07-07 11:04:36.609375000,-62.0,-19.5,-9.5,90.8621875,150.54,13.51160975,34.53
2021-07-07 11:04:36.617187500,-62.0,-19.25,-9.75,90.86234375,148.255,13.511769875,34.53
2021-07-07 11:04:36.625000000,-62.0,-19.0,-10.0,90.8625,145.97,13.51193,34.53
2021-07-07 11:04:36.632812500,-61.75,-18.75,-10.0,90.86265625,142.14,13.512090125,34.53
2021-07-07 11:04:36.640625000,-61.5,-18.5,-10.0,90.8628125,138.31,13.512250250000001,34.53
2021-07-07 11:04:36.648437500,-61.25,-18.25,-10.0,90.86296875000001,131.57999999999998,13.512410375,34.53
2021-07-07 11:04:36.656250000,-61.0,-18.0,-10.0,90.863125,124.85,13.5125705,34.53
2021-07-07 11:04:36.664062500,-61.0,-18.0,-9.75,90.86328125,115.85,13.512730625,34.53
2021-07-07 11:04:36.671875000,-61.0,-18.0,-9.5,90.8634375,106.85,13.51289075,34.53
2021-07-07 11:04:36.679687500,-61.0,-18.0,-9.25,90.86359375,97.505,13.513050875000001,34.53
2021-07-07 11:04:36.687500000,-61.0,-18.0,-9.0,90.86375,88.16,13.513211,34.53
2021-07-07 11:04:36.695312500,-61.0,-18.25,-9.25,90.86390625,79.965,13.513371125,34.53
2021-07-07 11:04:36.703125000,-61.0,-18.5,-9.5,90.8640625,71.77,13.51353125,34.53
2021-07-07 11:04:36.710937500,-61.0,-18.75,-9.75,90.86421875,65.13499999999999,13.513691375,34.53
2021-07-07 11:04:36.718750000,-61.0,-19.0,-10.0,90.864375,58.5,13.513851500000001,34.53
2021-07-07 11:04:36.726562500,-61.0,-19.25,-8.75,90.86453125,53.09,13.514011625,34.53
2021-07-07 11:04:36.734375000,-61.0,-19.5,-7.5,90.8646875,47.68,13.514171750000001,34.53
2021-07-07 11:04:36.742187500,-61.0,-19.75,-6.25,90.86484375,42.89,13.514331875,34.53
2021-07-07 11:04:36.750000000,-61.0,-20.0,-5.0,90.86500000000001,38.1,13.514492,34.53
2021-07-07 11:04:36.757812500,-61.0,-20.25,-5.0,90.86515625,33.36,13.513451093750001,34.53
2021-07-07 11:04:36.765625000,-61.0,-20.5,-5.0,90.8653125,28.62,13.5124101875,34.53
2021-07-07 11:04:36.773437500,-61.0,-20.75,-5.0,90.86546875,22.35,13.511369281250001,34.53
2021-07-07 11:04:36.781250000,-61.0,-21.0,-5.0,90.86562500000001,16.08,13.510328375,34.53
2021-07-07 11:04:36.789062500,-60.75,-21.0,-5.0,90.86578125,7.524999999999999,13.509287468750001,34.53
2021-07-07 11:04:36.796875000,-60.5,-21.0,-5.0,90.8659375,-1.03,13.5082465625,34.53
2021-07-07 11:04:36.804687500,-60.25,-21.0,-5.0,90.86609375,-11.014999999999999,13.507205656250001,34.53
2021-07-07 11:04:36.812500000,-60.0,-21.0,-5.0,90.86625000000001,-21.0,13.50616475,34.53
2021-07-07 11:04:36.820312500,-60.5,-20.75,-6.0,90.86640625,-30.435,13.50512384375,34.53
2021-07-07 11:04:36.828125000,-61.0,-20.5,-7.0,90.8665625,-39.87,13.5040829375,34.53
2021-07-07 11:04:36.835937500,-61.5,-20.25,-8.0,90.86671875,-46.915,13.50304203125,34.53
2021-07-07 11:04:36.843750000,-62.0,-20.0,-9.0,90.86687500000001,-53.96,13.502001125,34.53
2021-07-07 11:04:36.851562500,-62.0,-20.0,-9.25,90.86703125,-57.49,13.50096021875,34.53
2021-07-07 11:04:36.859375000,-62.0,-20.0,-9.5,90.8671875,-61.02,13.4999193125,34.53
2021-07-07 11:04:36.867187500,-62.0,-20.0,-9.75,90.86734375,-60.69,13.49887840625,34.53
2021-07-07 11:04:36.875000000,-62.0,-20.0,-10.0,90.8675,-60.36,13.4978375,34.53
2021-07-07 11:04:36.882812500,-61.75,-19.75,-9.75,90.86765625000001,-56.53,13.49679659375,34.53
2021-07-07 11:04:36.890625000,-61.5,-19.5,-9.5,90.8678125,-52.7,13.4957556875,34.53
2021-07-07 11:04:36.898437500,-61.25,-19.25,-9.25,90.86796875,-46.285,13.49471478125,34.53
2021-07-07 11:04:36.906250000,-61.0,-19.0,-9.0,90.868125,-39.87,13.493673875,34.53
2021-07-07 11:04:36.914062500,-61.25,-19.0,-9.25,90.86828125000001,-32.714999999999996,13.49263296875,34.53
2021-07-07 11:04:36.921875000,-61.5,-19.0,-9.5,90.8684375,-25.56,13.4915920625,34.53
2021-07-07 11:04:36.929687500,-61.75,-19.0,-9.75,90.86859375,-19.25,13.49055115625,34.53
2021-07-07 11:04:36.937500000,-62.0,-19.0,-10.0,90.86875,-12.94,13.48951025,34.53
2021-07-07 11:04:36.945312500,-61.75,-19.25,-9.5,90.86890625000001,-8.09,13.48846934375,34.53
2021-07-07 11:04:36.953125000,-61.5,-19.5,-9.0,90.8690625,-3.24,13.4874284375,34.53
2021-07-07 11:04:36.960937500,-61.25,-19.75,-8.5,90.86921875,0.3849999999999998,13.48638753125,34.53
2021-07-07 11:04:36.968750000,-61.0,-20.0,-8.0,90.869375,4.01,13.485346625,34.53
2021-07-07 11:04:36.976562500,-61.0,-20.0,-7.5,90.86953125000001,6.86,13.484305718749999,34.53
2021-07-07 11:04:36.984375000,-61.0,-20.0,-7.0,90.8696875,9.71,13.4832648125,34.53
2021-07-07 11:04:36.992187500,-61.0,-20.0,-6.5,90.86984375,12.100000000000001,13.482223906249999,34.53
2021-07-07 11:04:37.000000000,-61.0,-20.0,-6.0,90.87,14.49,13.481183,34.53
2021-07-07 11:04:37.007812500,-61.0,-20.0,-6.0,90.8696875,16.54,13.48054246875,34.52875
2021-07-07 11:04:37.015625000,-61.0,-20.0,-6.0,90.869375,18.59,13.4799019375,34.5275
2021-07-07 11:04:37.023437500,-61.0,-20.0,-6.0,90.8690625,20.32,13.47926140625,34.526250000000005
2021-07-07 11:04:37.031250000,-61.0,-20.0,-6.0,90.86875,22.05,13.478620875,34.525
2021-07-07 11:04:37.039062500,-61.0,-20.0,-6.25,90.8684375,23.505000000000003,13.47798034375,34.52375
2021-07-07 11:04:37.046875000,-61.0,-20.0,-6.5,90.868125,24.96,13.4773398125,34.5225
2021-07-07 11:04:37.054687500,-61.0,-20.0,-6.75,90.8678125,26.060000000000002,13.47669928125,34.52125
2021-07-07 11:04:37.062500000,-61.0,-20.0,-7.0,90.8675,27.16,13.47605875,34.52
2021-07-07 11:04:37.070312500,-61.0,-20.0,-7.0,90.8671875,28.075,13.47541821875,34.518750000000004
2021-07-07 11:04:37.078125000,-61.0,-20.0,-7.0,90.86687500000001,28.99,13.4747776875,34.5175
2021-07-07 11:04:37.085937500,-61.0,-20.0,-7.0,90.8665625,30.205,13.47413715625,34.51625
2021-07-07 11:04:37.093750000,-61.0,-20.0,-7.0,90.86625000000001,31.42,13.473496625,34.515
2021-07-07 11:04:37.101562500,-61.0,-20.0,-7.0,90.8659375,33.485,13.47285609375,34.51375
2021-07-07 11:04:37.109375000,-61.0,-20.0,-7.0,90.86562500000001,35.55,13.4722155625,34.5125
2021-07-07 11:04:37.117187500,-61.0,-20.0,-7.0,90.8653125,38.575,13.47157503125,34.511250000000004
2021-07-07 11:04:37.125000000,-61.0,-20.0,-7.0,90.86500000000001,41.6,13.4709345,34.510000000000005
2021-07-07 11:04:37.132812500,-61.0,-19.75,-7.5,90.8646875,45.28,13.470293968750001,34.50875
2021-07-07 11:04:37.140625000,-61.0,-19.5,-8.0,90.86437500000001,48.96,13.4696534375,34.5075
2021-07-07 11:04:37.148437500,-61.0,-19.25,-8.5,90.8640625,52.795,13.46901290625,34.50625
2021-07-07 11:04:37.156250000,-61.0,-19.0,-9.0,90.86375000000001,56.63,13.468372375000001,34.505
2021-07-07 11:04:37.164062500,-61.0,-19.0,-9.0,90.8634375,60.225,13.46773184375,34.503750000000004
2021-07-07 11:04:37.171875000,-61.0,-19.0,-9.0,90.863125,63.82,13.467091312500001,34.502500000000005
2021-07-07 11:04:37.179687500,-61.0,-19.0,-9.0,90.8628125,67.03,13.46645078125,34.50125
2021-07-07 11:04:37.187500000,-61.0,-19.0,-9.0,90.8625,70.24,13.46581025,34.5
2021-07-07 11:04:37.195312500,-61.0,-19.25,-8.75,90.8621875,73.015,13.465169718750001,34.49875
2021-07-07 11:04:37.203125000,-61.0,-19.5,-8.5,90.861875,75.79,13.4645291875,34.4975
2021-07-07 11:04:37.210937500,-61.0,-19.75,-8.25,90.8615625,78.32,13.46388865625,34.49625
2021-07-07 11:04:37.218750000,-61.0,-20.0,-8.0,90.86125,80.85,13.463248125,34.495000000000005
2021-07-07 11:04:37.226562500,-61.25,-19.75,-7.75,90.8609375,83.44999999999999,13.46260759375,34.49375
2021-07-07 11:04:37.234375000,-61.5,-19.5,-7.5,90.860625,86.05,13.461967062500001,34.4925
2021-07-07 11:04:37.242187500,-61.75,-19.25,-7.25,90.8603125,89.0,13.46132653125,34.49125
2021-07-07 11:04:37.250000000,-62.0,-19.0,-7.0,90.86,91.95,13.460686,34.49
2021-07-07 11:04:37.257812500,-61.75,-19.0,-7.25,90.8596875,94.965,13.4597651875,34.49
2021-07-07 11:04:37.265625000,-61.5,-19.0,-7.5,90.859375,97.98,13.458844375,34.49
2021-07-07 11:04:37.273437500,-61.25,-19.0,-7.75,90.85906250000001,100.49000000000001,13.457923562500001,34.49
2021-07-07 11:04:37.281250000,-61.0,-19.0,-8.0,90.85875,103.0,13.457002750000001,34.49
2021-07-07 11:04:37.289062500,-61.0,-19.25,-7.75,90.85843750000001,104.38499999999999,13.4560819375,34.49
2021-07-07 11:04:37.296875000,-61.0,-19.5,-7.5,90.858125,105.77,13.455161125,34.49
2021-07-07 11:04:37.304687500,-61.0,-19.75,-7.25,90.85781250000001,105.675,13.454240312500001,34.49
2021-07-07 11:04:37.312500000,-61.0,-20.0,-7.0,90.8575,105.58,13.453319500000001,34.49
2021-07-07 11:04:37.320312500,-61.0,-20.0,-6.75,90.85718750000001,104.045,13.4523986875,34.49
2021-07-07 11:04:37.328125000,-61.0,-20.0,-6.5,90.856875,102.51,13.451477875,34.49
2021-07-07 11:04:37.335937500,-61.0,-20.0,-6.25,90.8565625,99.61,13.4505570625,34.49
2021-07-07 11:04:37.343750000,-61.0,-20.0,-6.0,90.85625,96.71,13.449636250000001,34.49
2021-07-07 11:04:37.351562500,-61.0,-20.0,-6.5,90.8559375,93.03999999999999,13.4487154375,34.49
2021-07-07 11:04:37.359375000,-61.0,-20.0,-7.0,90.855625,89.37,13.447794625,34.49
2021-07-07 11:04:37.367187500,-61.0,-20.0,-7.5,90.8553125,85.93,13.4468738125,34.49
2021-07-07 11:04:37.375000000,-61.0,-20.0,-8.0,90.855,82.49,13.445953,34.49
2021-07-07 11:04:37.382812500,-61.0,-20.0,-8.25,90.8546875,80.435,13.4450321875,34.49
2021-07-07 11:04:37.390625000,-61.0,-20.0,-8.5,90.854375,78.38,13.444111375,34.49
2021-07-07 11:04:37.398437500,-61.0,-20.0,-8.75,90.8540625,77.78,13.4431905625,34.49
2021-07-07 11:04:37.406250000,-61.0,-20.0,-9.0,90.85375,77.18,13.44226975,34.49
2021-07-07 11:04:37.414062500,-61.25,-20.0,-9.25,90.8534375,77.34,13.4413489375,34.49
2021-07-07 11:04:37.421875000,-61.5,-20.0,-9.5,90.853125,77.5,13.440428125,34.49
2021-07-07 11:04:37.429687500,-61.75,-20.0,-9.75,90.8528125,77.21000000000001,13.4395073125,34.49
2021-07-07 11:04:37.437500000,-62.0,-20.0,-10.0,90.8525,76.92,13.4385865,34.49
2021-07-07 11:04:37.445312500,-61.5,-20.0,-9.5,90.8521875,74.935,13.4376656875,34.49
2021-07-07 11:04:37.453125000,-61.0,-20.0,-9.0,90.851875,72.95,13.436744875,34.49
2021-07-07 11:04:37.460937500,-60.5,-20.0,-8.5,90.8515625,68.33500000000001,13.4358240625,34.49
2021-07-07 11:04:37.468750000,-60.0,-20.0,-8.0,90.85125000000001,63.72,13.43490325,34.49
2021-07-07 11:04:37.476562500,-60.25,-19.75,-8.25,90.8509375,55.495000000000005,13.4339824375,34.49
2021-07-07 11:04:37.484375000,-60.5,-19.5,-8.5,90.85062500000001,47.27,13.433061625,34.49
2021-07-07 11:04:37.492187500,-60.75,-19.25,-8.75,90.8503125,35.46,13.4321408125,34.49
2021-07-07 11:04:37.500000000,-61.0,-19.0,-9.0,90.85,23.65,13.43122,34.49
2021-07-07 11:04:37.507812500,-61.25,-19.0,-8.75,90.8496875,9.459999999999999,13.431059874999999,34.49
2021-07-07 11:04:37.515625000,-61.5,-19.0,-8.5,90.849375,-4.73,13.43089975,34.49
2021-07-07 11:04:37.523437500,-61.75,-19.0,-8.25,90.8490625,-19.075000000000003,13.430739625,34.49
2021-07-07 11:04:37.531250000,-62.0,-19.0,-8.0,90.84875,-33.42,13.4305795,34.49
2021-07-07 11:04:37.539062500,-62.0,-19.0,-7.75,90.8484375,-46.56,13.430419375,34.49
2021-07-07 11:04:37.546875000,-62.0,-19.0,-7.5,90.848125,-59.7,13.430259249999999,34.49
2021-07-07 11:04:37.554687500,-62.0,-19.0,-7.25,90.8478125,-70.78999999999999,13.430099125,34.49
2021-07-07 11:04:37.562500000,-62.0,-19.0,-7.0,90.8475,-81.88,13.429939,34.49
2021-07-07 11:04:37.570312500,-61.5,-19.25,-6.5,90.8471875,-90.60499999999999,13.429778875,34.49
2021-07-07 11:04:37.578125000,-61.0,-19.5,-6.0,90.846875,-99.33,13.42961875,34.49
2021-07-07 11:04:37.585937500,-60.5,-19.75,-5.5,90.8465625,-105.685,13.429458624999999,34.49
2021-07-07 11:04:37.593750000,-60.0,-20.0,-5.0,90.84625,-112.04,13.4292985,34.49
2021-07-07 11:04:37.601562500,-60.5,-20.0,-5.5,90.8459375,-116.36000000000001,13.429138374999999,34.49
2021-07-07 11:04:37.609375000,-61.0,-20.0,-6.0,90.845625,-120.68,13.42897825,34.49
2021-07-07 11:04:37.617187500,-61.5,-20.0,-6.5,90.8453125,-124.32,13.428818125,34.49
2021-07-07 11:04:37.625000000,-62.0,-20.0,-7.0,90.845,-127.96,13.428657999999999,34.49
2021-07-07 11:04:37.632812500,-61.75,-20.0,-7.5,90.8446875,-131.865,13.428497875,34.49
2021-07-07 11:04:37.640625000,-61.5,-20.0,-8.0,90.844375,-135.77,13.428337749999999,34.49
2021-07-07 11:04:37.648437500,-61.25,-20.0,-8.5,90.8440625,-140.02,13.428177625,34.49
2021-07-07 11:04:37.656250000,-61.0,-20.0,-9.0,90.84375,-144.27,13.4280175,34.49
2021-07-07 11:04:37.664062500,-61.0,-20.0,-8.75,90.84343750000001,-147.84,13.427857375,34.49
2021-07-07 11:04:37.671875000,-61.0,-20.0,-8.5,90.843125,-151.41,13.42769725,34.49
2021-07-07 11:04:37.679687500,-61.0,-20.0,-8.25,90.8428125,-154.14999999999998,13.427537124999999,34.49
2021-07-07 11:04:37.687500000,-61.0,-20.0,-8.0,90.8425,-156.89,13.427377,34.49
2021-07-07 11:04:37.695312500,-61.0,-20.0,-8.0,90.8421875,-158.79,13.427216875,34.49
2021-07-07 11:04:37.703125000,-61.0,-20.0,-8.0,90.841875,-160.69,13.42705675,34.49
2021-07-07 11:04:37.710937500,-61.0,-20.0,-8.0,90.8415625,-161.76999999999998,13.426896625,34.49
2021-07-07 11:04:37.718750000,-61.0,-20.0,-8.0,90.84125,-162.85,13.426736499999999,34.49
2021-07-07 11:04:37.726562500,-61.0,-20.0,-8.0,90.8409375,-163.0,13.426576375,34.49
2021-07-07 11:04:37.734375000,-61.0,-20.0,-8.0,90.840625,-163.15,13.426416249999999,34.49
2021-07-07 11:04:37.742187500,-61.0,-20.0,-8.0,90.8403125,-157.315,13.426256125,34.49
2021-07-07 11:04:37.750000000,-61.0,-20.0,-8.0,90.84,-151.48,13.426096,34.49
2021-07-07 11:04:37.757812500,-61.25,-20.0,-8.25,90.8396875,-138.44,13.425935874999999,34.49
2021-07-07 11:04:37.765625000,-61.5,-20.0,-8.5,90.839375,-125.4,13.42577575,34.49
2021-07-07 11:04:37.773437500,-61.75,-20.0,-8.75,90.8390625,-108.67500000000001,13.425615624999999,34.49
2021-07-07 11:04:37.781250000,-62.0,-20.0,-9.0,90.83875,-91.95,13.4254555,34.49
2021-07-07 11:04:37.789062500,-62.0,-20.0,-8.5,90.8384375,-79.95,13.425295375,34.49
2021-07-07 11:04:37.796875000,-62.0,-20.0,-8.0,90.838125,-67.95,13.42513525,34.49
2021-07-07 11:04:37.804687500,-62.0,-20.0,-7.5,90.8378125,-60.85,13.424975125,34.49
2021-07-07 11:04:37.812500000,-62.0,-20.0,-7.0,90.8375,-53.75,13.424814999999999,34.49
2021-07-07 11:04:37.820312500,-61.75,-20.0,-6.75,90.8371875,-50.44,13.424654875,34.49
2021-07-07 11:04:37.828125000,-61.5,-20.0,-6.5,90.836875,-47.13,13.42449475,34.49
2021-07-07 11:04:37.835937500,-61.25,-20.0,-6.25,90.8365625,-45.485,13.424334625,34.49
2021-07-07 11:04:37.843750000,-61.0,-20.0,-6.0,90.83624999999999,-43.84,13.4241745,34.49
2021-07-07 11:04:37.851562500,-61.0,-20.0,-6.5,90.8359375,-42.71,13.424014375,34.49
2021-07-07 11:04:37.859375000,-61.0,-20.0,-7.0,90.835625,-41.58,13.42385425,34.49
2021-07-07 11:04:37.867187500,-61.0,-20.0,-7.5,90.8353125,-39.92,13.423694125,34.49
2021-07-07 11:04:37.875000000,-61.0,-20.0,-8.0,90.835,-38.26,13.423534,34.49
2021-07-07 11:04:37.882812500,-61.0,-20.0,-8.0,90.8346875,-35.305,13.423373875,34.49
2021-07-07 11:04:37.890625000,-61.0,-20.0,-8.0,90.834375,-32.35,13.42321375,34.49
2021-07-07 11:04:37.898437500,-61.0,-20.0,-8.0,90.8340625,-28.57,13.423053625,34.49
2021-07-07 11:04:37.906250000,-61.0,-20.0,-8.0,90.83375,-24.79,13.4228935,34.49
2021-07-07 11:04:37.914062500,-61.0,-20.0,-8.0,90.8334375,-20.755,13.422733375,34.49
2021-07-07 11:04:37.921875000,-61.0,-20.0,-8.0,90.833125,-16.72,13.422573250000001,34.49
2021-07-07 11:04:37.929687500,-61.0,-20.0,-8.0,90.8328125,-12.625,13.422413125,34.49
2021-07-07 11:04:37.937500000,-61.0,-20.0,-8.0,90.8325,-8.53,13.422253000000001,34.49
2021-07-07 11:04:37.945312500,-61.0,-20.0,-8.0,90.8321875,-3.885,13.422092875,34.49
2021-07-07 11:04:37.953125000,-61.0,-20.0,-8.0,90.831875,0.76,13.42193275,34.49
2021-07-07 11:04:37.960937500,-61.0,-20.0,-8.0,90.8315625,5.38,13.421772625000001,34.49
2021-07-07 11:04:37.968750000,-61.0,-20.0,-8.0,90.83125,10.0,13.4216125,34.49
2021-07-07 11:04:37.976562500,-61.0,-20.0,-8.25,90.8309375,13.95,13.421452375000001,34.49
2021-07-07 11:04:37.984375000,-61.0,-20.0,-8.5,90.830625,17.9,13.42129225,34.49
2021-07-07 11:04:37.992187500,-61.0,-20.0,-8.75,90.8303125,20.785,13.421132125000002,34.49
2021-07-07 11:04:38.000000000,-61.0,-20.0,-9.0,90.83,23.67,13.420972,34.49
2021-07-07 11:04:38.007812500,-61.0,-20.0,-8.75,90.82953125,25.635,13.4200511875,34.49
2021-07-07 11:04:38.015625000,-61.0,-20.0,-8.5,90.82906249999999,27.6,13.419130375,34.49
2021-07-07 11:04:38.023437500,-61.0,-20.0,-8.25,90.82859375,29.125,13.418209562500001,34.49
2021-07-07 11:04:38.031250000,-61.0,-20.0,-8.0,90.828125,30.65,13.41728875,34.49
2021-07-07 11:04:38.039062500,-61.0,-19.75,-8.0,90.82765625,31.669999999999998,13.4163679375,34.49
2021-07-07 11:04:38.046875000,-61.0,-19.5,-8.0,90.8271875,32.69,13.415447125,34.49
2021-07-07 11:04:38.054687500,-61.0,-19.25,-8.0,90.82671875,33.349999999999994,13.414526312500001,34.49
2021-07-07 11:04:38.062500000,-61.0,-19.0,-8.0,90.82625,34.01,13.413605500000001,34.49
2021-07-07 11:04:38.070312500,-60.75,-19.0,-8.25,90.82578124999999,34.79,13.4126846875,34.49
2021-07-07 11:04:38.078125000,-60.5,-19.0,-8.5,90.8253125,35.57,13.411763875,34.49
2021-07-07 11:04:38.085937500,-60.25,-19.0,-8.75,90.82484375,37.31,13.4108430625,34.49
2021-07-07 11:04:38.093750000,-60.0,-19.0,-9.0,90.824375,39.05,13.409922250000001,34.49
2021-07-07 11:04:38.101562500,-60.5,-19.25,-9.0,90.82390625,41.405,13.4090014375,34.49
2021-07-07 11:04:38.109375000,-61.0,-19.5,-9.0,90.8234375,43.76,13.408080625,34.49
2021-07-07 11:04:38.117187500,-61.5,-19.75,-9.0,90.82296875,45.92,13.4071598125,34.49
2021-07-07 11:04:38.125000000,-62.0,-20.0,-9.0,90.82249999999999,48.08,13.406239,34.49
2021-07-07 11:04:38.132812500,-61.75,-20.0,-8.5,90.82203125,49.17,13.4053181875,34.49
2021-07-07 11:04:38.140625000,-61.5,-20.0,-8.0,90.8215625,50.26,13.404397375,34.49
2021-07-07 11:04:38.148437500,-61.25,-20.0,-7.5,90.82109375,49.785,13.4034765625,34.49
2021-07-07 11:04:38.156250000,-61.0,-20.0,-7.0,90.82062499999999,49.31,13.40255575,34.49
2021-07-07 11:04:38.164062500,-60.75,-20.0,-7.0,90.82015625,47.3,13.4016349375,34.49
2021-07-07 11:04:38.171875000,-60.5,-20.0,-7.0,90.8196875,45.29,13.400714125,34.49
2021-07-07 11:04:38.179687500,-60.25,-20.0,-7.0,90.81921875,41.89,13.3997933125,34.49
2021-07-07 11:04:38.187500000,-60.0,-20.0,-7.0,90.81875,38.49,13.3988725,34.49
2021-07-07 11:04:38.195312500,-60.25,-20.0,-7.25,90.81828125,34.435,13.397951687499999,34.49
2021-07-07 11:04:38.203125000,-60.5,-20.0,-7.5,90.8178125,30.38,13.397030875,34.49
2021-07-07 11:04:38.210937500,-60.75,-20.0,-7.75,90.81734374999999,26.869999999999997,13.3961100625,34.49
2021-07-07 11:04:38.218750000,-61.0,-20.0,-8.0,90.816875,23.36,13.39518925,34.49
2021-07-07 11:04:38.226562500,-61.0,-20.0,-8.0,90.81640625,21.755,13.3942684375,34.49
2021-07-07 11:04:38.234375000,-61.0,-20.0,-8.0,90.8159375,20.15,13.393347625,34.49
2021-07-07 11:04:38.242187500,-61.0,-20.0,-8.0,90.81546875,20.74,13.3924268125,34.49
2021-07-07 11:04:38.250000000,-61.0,-20.0,-8.0,90.815,21.33,13.391506,34.49
2021-07-07 11:04:38.257812500,-61.0,-20.0,-8.0,90.81453125,23.58,13.39210653125,34.49
2021-07-07 11:04:38.265625000,-61.0,-20.0,-8.0,90.81406249999999,25.83,13.3927070625,34.49
2021-07-07 11:04:38.273437500,-61.0,-20.0,-8.0,90.81359375,28.735,13.39330759375,34.49
2021-07-07 11:04:38.281250000,-61.0,-20.0,-8.0,90.813125,31.64,13.393908125,34.49
2021-07-07 11:04:38.289062500,-61.25,-20.0,-8.25,90.81265625,34.19,13.39450865625,34.49
2021-07-07 11:04:38.296875000,-61.5,-20.0,-8.5,90.8121875,36.74,13.3951091875,34.49
2021-07-07 11:04:38.304687500,-61.75,-20.0,-8.75,90.81171875,38.269999999999996,13.39570971875,34.49
2021-07-07 11:04:38.312500000,-62.0,-20.0,-9.0,90.81125,39.8,13.396310249999999,34.49
2021-07-07 11:04:38.320312500,-61.75,-20.0,-8.75,90.81078124999999,39.935,13.39691078125,34.49
2021-07-07 11:04:38.328125000,-61.5,-20.0,-8.5,90.8103125,40.07,13.3975113125,34.49
2021-07-07 11:04:38.335937500,-61.25,-20.0,-8.25,90.80984375,38.989999999999995,13.39811184375,34.49
2021-07-07 11:04:38.343750000,-61.0,-20.0,-8.0,90.809375,37.91,13.398712375,34.49
2021-07-07 11:04:38.351562500,-61.0,-20.0,-7.5,90.80890624999999,36.155,13.39931290625,34.49
2021-07-07 11:04:38.359375000,-61.0,-20.0,-7.0,90.8084375,34.4,13.3999134375,34.49
2021-07-07 11:04:38.367187500,-61.0,-20.0,-6.5,90.80796875,32.67,13.40051396875,34.49
2021-07-07 11:04:38.375000000,-61.0,-20.0,-6.0,90.8075,30.94,13.4011145,34.49
2021-07-07 11:04:38.382812500,-61.0,-20.0,-6.25,90.80703125,29.485,13.401715031250001,34.49
2021-07-07 11:04:38.390625000,-61.0,-20.0,-6.5,90.8065625,28.03,13.4023155625,34.49
2021-07-07 11:04:38.398437500,-61.0,-20.0,-6.75,90.80609375,26.845,13.402916093750001,34.49
2021-07-07 11:04:38.406250000,-61.0,-20.0,-7.0,90.80562499999999,25.66,13.403516625,34.49
2021-07-07 11:04:38.414062500,-61.0,-20.0,-7.25,90.80515625,24.615000000000002,13.40411715625,34.49
2021-07-07 11:04:38.421875000,-61.0,-20.0,-7.5,90.8046875,23.57,13.4047176875,34.49
2021-07-07 11:04:38.429687500,-61.0,-20.0,-7.75,90.80421875,22.560000000000002,13.40531821875,34.49
2021-07-07 11:04:38.437500000,-61.0,-20.0,-8.0,90.80375,21.55,13.405918750000001,34.49
2021-07-07 11:04:38.445312500,-60.75,-20.25,-7.75,90.80328125,20.47,13.40651928125,34.49
2021-07-07 11:04:38.453125000,-60.5,-20.5,-7.5,90.8028125,19.39,13.407119812500001,34.49
2021-07-07 11:04:38.460937500,-60.25,-20.75,-7.25,90.80234374999999,18.055,13.40772034375,34.49
2021-07-07 11:04:38.468750000,-60.0,-21.0,-7.0,90.801875,16.72,13.408320875000001,34.49
2021-07-07 11:04:38.476562500,-60.25,-20.75,-7.25,90.80140625,15.004999999999999,13.40892140625,34.49
2021-07-07 11:04:38.484375000,-60.5,-20.5,-7.5,90.8009375,13.29,13.409521937500001,34.49
2021-07-07 11:04:38.492187500,-60.75,-20.25,-7.75,90.80046875,11.19,13.41012246875,34.49
2021-07-07 11:04:38.500000000,-61.0,-20.0,-8.0,90.8,9.09,13.410723,34.49
2021-07-07 11:04:38.507812500,-61.0,-20.0,-7.75,90.79953125,6.85,13.412444468750001,34.49
2021-07-07 11:04:38.515625000,-61.0,-20.0,-7.5,90.79906249999999,4.61,13.4141659375,34.49
2021-07-07 11:04:38.523437500,-61.0,-20.0,-7.25,90.79859375,2.5650000000000004,13.41588740625,34.49
2021-07-07 11:04:38.531250000,-61.0,-20.0,-7.0,90.798125,0.52,13.417608875,34.49
2021-07-07 11:04:38.539062500,-61.0,-20.0,-7.25,90.79765625,-0.895,13.419330343750001,34.49
2021-07-07 11:04:38.546875000,-61.0,-20.0,-7.5,90.79718749999999,-2.31,13.4210518125,34.49
2021-07-07 11:04:38.554687500,-61.0,-20.0,-7.75,90.79671875,-2.795,13.42277328125,34.49
2021-07-07 11:04:38.562500000,-61.0,-20.0,-8.0,90.79625,-3.28,13.424494750000001,34.49
2021-07-07 11:04:38.570312500,-61.0,-20.0,-7.75,90.79578124999999,-2.8499999999999996,13.42621621875,34.49
2021-07-07 11:04:38.578125000,-61.0,-20.0,-7.5,90.7953125,-2.42,13.4279376875,34.49
2021-07-07 11:04:38.585937500,-61.0,-20.0,-7.25,90.79484375,-1.48,13.42965915625,34.49
2021-07-07 11:04:38.593750000,-61.0,-20.0,-7.0,90.794375,-0.54,13.431380625000001,34.49
2021-07-07 11:04:38.601562500,-61.25,-20.0,-7.5,90.79390624999999,0.255,13.43310209375,34.49
2021-07-07 11:04:38.609375000,-61.5,-20.0,-8.0,90.7934375,1.05,13.4348235625,34.49
2021-07-07 11:04:38.617187500,-61.75,-20.0,-8.5,90.79296875,1.06,13.43654503125,34.49
2021-07-07 11:04:38.625000000,-62.0,-20.0,-9.0,90.79249999999999,1.07,13.438266500000001,34.49
2021-07-07 11:04:38.632812500,-61.75,-20.0,-8.5,90.79203125,-0.07499999999999996,13.43998796875,34.49
2021-07-07 11:04:38.640625000,-61.5,-20.0,-8.0,90.7915625,-1.22,13.4417094375,34.49
2021-07-07 11:04:38.648437500,-61.25,-20.0,-7.5,90.79109375,-3.4850000000000003,13.44343090625,34.49
2021-07-07 11:04:38.656250000,-61.0,-20.0,-7.0,90.79062499999999,-5.75,13.445152375,34.49
2021-07-07 11:04:38.664062500,-61.0,-20.0,-6.75,90.79015625,-8.76,13.44687384375,34.49
2021-07-07 11:04:38.671875000,-61.0,-20.0,-6.5,90.7896875,-11.77,13.4485953125,34.49
2021-07-07 11:04:38.679687500,-61.0,-20.0,-6.25,90.78921875,-14.92,13.45031678125,34.49
2021-07-07 11:04:38.687500000,-61.0,-20.0,-6.0,90.78875,-18.07,13.45203825,34.49
2021-07-07 11:04:38.695312500,-61.25,-20.0,-6.25,90.78828125,-20.805,13.45375971875,34.49
2021-07-07 11:04:38.703125000,-61.5,-20.0,-6.5,90.7878125,-23.54,13.4554811875,34.49
2021-07-07 11:04:38.710937500,-61.75,-20.0,-6.75,90.78734374999999,-25.535,13.457202656249999,34.49
2021-07-07 11:04:38.718750000,-62.0,-20.0,-7.0,90.786875,-27.53,13.458924125,34.49
2021-07-07 11:04:38.726562500,-61.75,-20.0,-7.25,90.78640625,-28.725,13.46064559375,34.49
2021-07-07 11:04:38.734375000,-61.5,-20.0,-7.5,90.7859375,-29.92,13.4623670625,34.49
2021-07-07 11:04:38.742187500,-61.25,-20.0,-7.75,90.78546874999999,-30.42,13.464088531249999,34.49
2021-07-07 11:04:38.750000000,-61.0,-20.0,-8.0,90.785,-30.92,13.46581,34.49
2021-07-07 11:04:38.757812500,-61.0,-20.0,-7.75,90.78453125,-30.950000000000003,13.4658500625,34.49
2021-07-07 11:04:38.765625000,-61.0,-20.0,-7.5,90.78406249999999,-30.98,13.465890125,34.49
2021-07-07 11:04:38.773437500,-61.0,-20.0,-7.25,90.78359375,-30.810000000000002,13.4659301875,34.49
2021-07-07 11:04:38.781250000,-61.0,-20.0,-7.0,90.783125,-30.64,13.46597025,34.49
2021-07-07 11:04:38.789062500,-61.0,-20.0,-7.25,90.78265625,-30.58,13.4660103125,34.49
2021-07-07 11:04:38.796875000,-61.0,-20.0,-7.5,90.78218749999999,-30.52,13.466050375,34.49
2021-07-07 11:04:38.804687500,-61.0,-20.0,-7.75,90.78171875,-30.755,13.4660904375,34.49
2021-07-07 11:04:38.812500000,-61.0,-20.0,-8.0,90.78125,-30.99,13.466130499999998,34.49
2021-07-07 11:04:38.820312500,-61.0,-20.0,-8.0,90.78078124999999,-31.325,13.466170562499999,34.49
2021-07-07 11:04:38.828125000,-61.0,-20.0,-8.0,90.7803125,-31.66,13.466210624999999,34.49
2021-07-07 11:04:38.835937500,-61.0,-20.0,-8.0,90.77984375,-31.689999999999998,13.466250687499999,34.49
2021-07-07 11:04:38.843750000,-61.0,-20.0,-8.0,90.779375,-31.72,13.466290749999999,34.49
2021-07-07 11:04:38.851562500,-61.0,-20.0,-8.0,90.77890624999999,-31.005,13.466330812499999,34.49
2021-07-07 11:04:38.859375000,-61.0,-20.0,-8.0,90.7784375,-30.29,13.466370874999999,34.49
2021-07-07 11:04:38.867187500,-61.0,-20.0,-8.0,90.77796875,-28.45,13.4664109375,34.49
2021-07-07 11:04:38.875000000,-61.0,-20.0,-8.0,90.7775,-26.61,13.466451,34.49
2021-07-07 11:04:38.882812500,-61.0,-20.0,-7.75,90.77703125,-23.4,13.4664910625,34.49
2021-07-07 11:04:38.890625000,-61.0,-20.0,-7.5,90.7765625,-20.19,13.466531125,34.49
2021-07-07 11:04:38.898437500,-61.0,-20.0,-7.25,90.77609375,-15.580000000000002,13.4665711875,34.49
2021-07-07 11:04:38.906250000,-61.0,-20.0,-7.0,90.77562499999999,-10.97,13.46661125,34.49
2021-07-07 11:04:38.914062500,-61.0,-20.0,-7.25,90.77515625,-5.2,13.4666513125,34.49
2021-07-07 11:04:38.921875000,-61.0,-20.0,-7.5,90.7746875,0.57,13.466691375,34.49
2021-07-07 11:04:38.929687500,-61.0,-20.0,-7.75,90.77421875,7.03,13.4667314375,34.49
2021-07-07 11:04:38.937500000,-61.0,-20.0,-8.0,90.77374999999999,13.49,13.4667715,34.49
2021-07-07 11:04:38.945312500,-61.25,-20.0,-8.0,90.77328125,20.04,13.466811562499998,34.49
2021-07-07 11:04:38.953125000,-61.5,-20.0,-8.0,90.7728125,26.59,13.466851624999999,34.49
2021-07-07 11:04:38.960937500,-61.75,-20.0,-8.0,90.77234374999999,33.05,13.466891687499999,34.49
2021-07-07 11:04:38.968750000,-62.0,-20.0,-8.0,90.771875,39.51,13.466931749999999,34.49
2021-07-07 11:04:38.976562500,-61.75,-20.0,-7.75,90.77140625,45.64,13.466971812499999,34.49
2021-07-07 11:04:38.984375000,-61.5,-20.0,-7.5,90.7709375,51.77,13.467011874999999,34.49
2021-07-07 11:04:38.992187500,-61.25,-20.0,-7.25,90.77046874999999,57.14,13.467051937499999,34.49
2021-07-07 11:04:39.000000000,-61.0,-20.0,-7.0,90.77,62.51,13.467092,34.49
2021-07-07 11:04:39.007812500,-61.0,-19.75,-7.25,90.76890625,66.575,13.466571531249999,34.49
2021-07-07 11:04:39.015625000,-61.0,-19.5,-7.5,90.76781249999999,70.64,13.4660510625,34.49
2021-07-07 11:04:39.023437500,-61.0,-19.25,-7.75,90.76671875,73.095,13.46553059375,34.49
2021-07-07 11:04:39.031250000,-61.0,-19.0,-8.0,90.765625,75.55,13.465010125,34.49
2021-07-07 11:04:39.039062500,-61.0,-19.0,-8.0,90.76453124999999,76.43,13.464489656249999,34.49
2021-07-07 11:04:39.046875000,-61.0,-19.0,-8.0,90.7634375,77.31,13.4639691875,34.49
2021-07-07 11:04:39.054687500,-61.0,-19.0,-8.0,90.76234375,76.94,13.46344871875,34.49
2021-07-07 11:04:39.062500000,-61.0,-19.0,-8.0,90.76124999999999,76.57,13.46292825,34.49
2021-07-07 11:04:39.070312500,-61.0,-19.25,-7.75,90.76015625,75.36,13.46240778125,34.49
2021-07-07 11:04:39.078125000,-61.0,-19.5,-7.5,90.7590625,74.15,13.4618873125,34.49
2021-07-07 11:04:39.085937500,-61.0,-19.75,-7.25,90.75796874999999,72.485,13.46136684375,34.49
2021-07-07 11:04:39.093750000,-61.0,-20.0,-7.0,90.756875,70.82,13.460846375,34.49
2021-07-07 11:04:39.101562500,-61.0,-20.0,-7.0,90.75578125,69.66999999999999,13.46032590625,34.49
2021-07-07 11:04:39.109375000,-61.0,-20.0,-7.0,90.7546875,68.52,13.4598054375,34.49
2021-07-07 11:04:39.117187500,-61.0,-20.0,-7.0,90.75359375,68.535,13.45928496875,34.49
2021-07-07 11:04:39.125000000,-61.0,-20.0,-7.0,90.7525,68.55,13.458764500000001,34.49
2021-07-07 11:04:39.132812500,-61.0,-20.0,-7.25,90.75140625,69.715,13.45824403125,34.49
2021-07-07 11:04:39.140625000,-61.0,-20.0,-7.5,90.75031249999999,70.88,13.4577235625,34.49
2021-07-07 11:04:39.148437500,-61.0,-20.0,-7.75,90.74921875,72.64,13.45720309375,34.49
2021-07-07 11:04:39.156250000,-61.0,-20.0,-8.0,90.748125,74.4,13.456682625000001,34.49
2021-07-07 11:04:39.164062500,-61.0,-20.0,-7.75,90.74703124999999,76.14,13.45616215625,34.49
2021-07-07 11:04:39.171875000,-61.0,-20.0,-7.5,90.7459375,77.88,13.4556416875,34.49
2021-07-07 11:04:39.179687500,-61.0,-20.0,-7.25,90.74484375,79.19999999999999,13.45512121875,34.49
2021-07-07 11:04:39.187500000,-61.0,-20.0,-7.0,90.74374999999999,80.52,13.45460075,34.49
2021-07-07 11:04:39.195312500,-61.0,-20.0,-7.0,90.74265625,81.25999999999999,13.45408028125,34.49
2021-07-07 11:04:39.203125000,-61.0,-20.0,-7.0,90.7415625,82.0,13.4535598125,34.49
2021-07-07 11:04:39.210937500,-61.0,-20.0,-7.0,90.74046874999999,82.12,13.453039343750001,34.49
2021-07-07 11:04:39.218750000,-61.0,-20.0,-7.0,90.739375,82.24,13.452518875,34.49
2021-07-07 11:04:39.226562500,-61.0,-20.0,-7.25,90.73828125,81.75,13.45199840625,34.49
2021-07-07 11:04:39.234375000,-61.0,-20.0,-7.5,90.73718749999999,81.26,13.4514779375,34.49
2021-07-07 11:04:39.242187500,-61.0,-20.0,-7.75,90.73609375,81.07,13.450957468750001,34.49
2021-07-07 11:04:39.250000000,-61.0,-20.0,-8.0,90.735,80.88,13.450437,34.49
2021-07-07 11:04:39.257812500,-61.0,-20.0,-8.0,90.73390624999999,81.555,13.45039696875,34.49
2021-07-07 11:04:39.265625000,-61.0,-20.0,-8.0,90.7328125,82.23,13.4503569375,34.49
2021-07-07 11:04:39.273437500,-61.0,-20.0,-8.0,90.73171875,83.635,13.45031690625,34.49
2021-07-07 11:04:39.281250000,-61.0,-20.0,-8.0,90.73062499999999,85.04,13.450276875,34.49
2021-07-07 11:04:39.289062500,-61.25,-20.0,-7.75,90.72953125,86.56,13.45023684375,34.49
2021-07-07 11:04:39.296875000,-61.5,-20.0,-7.5,90.7284375,88.08,13.450196812500002,34.49
2021-07-07 11:04:39.304687500,-61.75,-20.0,-7.25,90.72734375,89.36,13.450156781250001,34.49
2021-07-07 11:04:39.312500000,-62.0,-20.0,-7.0,90.72625,90.64,13.450116750000001,34.49
2021-07-07 11:04:39.320312500,-61.75,-20.0,-7.0,90.72515625,91.89500000000001,13.450076718750001,34.49
2021-07-07 11:04:39.328125000,-61.5,-20.0,-7.0,90.7240625,93.15,13.4500366875,34.49
2021-07-07 11:04:39.335937500,-61.25,-20.0,-7.0,90.72296874999999,94.93,13.44999665625,34.49
2021-07-07 11:04:39.343750000,-61.0,-20.0,-7.0,90.721875,96.71,13.449956625,34.49
2021-07-07 11:04:39.351562500,-61.0,-20.0,-7.25,90.72078125,99.375,13.44991659375,34.49
2021-07-07 11:04:39.359375000,-61.0,-20.0,-7.5,90.71968749999999,102.04,13.4498765625,34.49
2021-07-07 11:04:39.367187500,-61.0,-20.0,-7.75,90.71859375,100.565,13.44983653125,34.49
2021-07-07 11:04:39.375000000,-61.0,-20.0,-8.0,90.7175,99.09,13.449796500000001,34.49
2021-07-07 11:04:39.382812500,-61.0,-20.0,-7.75,90.71640624999999,90.91,13.449756468750001,34.49
2021-07-07 11:04:39.390625000,-61.0,-20.0,-7.5,90.7153125,82.73,13.449716437500001,34.49
2021-07-07 11:04:39.398437500,-61.0,-20.0,-7.25,90.71421875,69.23,13.449676406250001,34.49
2021-07-07 11:04:39.406250000,-61.0,-20.0,-7.0,90.71312499999999,55.73,13.449636375,34.49
2021-07-07 11:04:39.414062500,-61.0,-20.0,-7.25,90.71203125,41.089999999999996,13.44959634375,34.49
2021-07-07 11:04:39.421875000,-61.0,-20.0,-7.5,90.7109375,26.45,13.4495563125,34.49
2021-07-07 11:04:39.429687500,-61.0,-20.0,-7.75,90.70984374999999,13.934999999999999,13.44951628125,34.49
2021-07-07 11:04:39.437500000,-61.0,-20.0,-8.0,90.70875,1.42,13.44947625,34.49
2021-07-07 11:04:39.445312500,-61.0,-20.0,-8.0,90.70765625,-8.014999999999999,13.44943621875,34.49
2021-07-07 11:04:39.453125000,-61.0,-20.0,-8.0,90.70656249999999,-17.45,13.4493961875,34.49
2021-07-07 11:04:39.460937500,-61.0,-20.0,-8.0,90.70546875,-24.375,13.449356156250001,34.49
2021-07-07 11:04:39.468750000,-61.0,-20.0,-8.0,90.704375,-31.3,13.449316125000001,34.49
2021-07-07 11:04:39.476562500,-61.0,-20.0,-8.0,90.70328124999999,-36.69,13.44927609375,34.49
2021-07-07 11:04:39.484375000,-61.0,-20.0,-8.0,90.7021875,-42.08,13.4492360625,34.49
2021-07-07 11:04:39.492187500,-61.0,-20.0,-8.0,90.70109375,-46.455,13.44919603125,34.49
2021-07-07 11:04:39.500000000,-61.0,-20.0,-8.0,90.69999999999999,-50.83,13.449156,34.49
2021-07-07 11:04:39.507812500,-61.0,-20.0,-8.0,90.69890625,-54.925,13.44943621875,34.49
2021-07-07 11:04:39.515625000,-61.0,-20.0,-8.0,90.6978125,-59.02,13.449716437500001,34.49
2021-07-07 11:04:39.523437500,-61.0,-20.0,-8.0,90.69671875,-62.0,13.44999665625,34.49
2021-07-07 11:04:39.531250000,-61.0,-20.0,-8.0,90.69562499999999,-64.98,13.450276875,34.49
2021-07-07 11:04:39.539062500,-61.0,-20.0,-8.0,90.69453125,-66.035,13.45055709375,34.49
2021-07-07 11:04:39.546875000,-61.0,-20.0,-8.0,90.6934375,-67.09,13.450837312500001,34.49
2021-07-07 11:04:39.554687500,-61.0,-20.0,-8.0,90.69234374999999,-66.205,13.45111753125,34.49
2021-07-07 11:04:39.562500000,-61.0,-20.0,-8.0,90.69125,-65.32,13.45139775,34.49
2021-07-07 11:04:39.570312500,-61.0,-20.0,-8.0,90.69015625,-63.41,13.451677968750001,34.49
2021-07-07 11:04:39.578125000,-61.0,-20.0,-8.0,90.68906249999999,-61.5,13.4519581875,34.49
2021-07-07 11:04:39.585937500,-61.0,-20.0,-8.0,90.68796875,-59.730000000000004,13.45223840625,34.49
2021-07-07 11:04:39.593750000,-61.0,-20.0,-8.0,90.686875,-57.96,13.452518625,34.49
2021-07-07 11:04:39.601562500,-61.0,-19.75,-7.75,90.68578124999999,-57.269999999999996,13.452798843750001,34.49
2021-07-07 11:04:39.609375000,-61.0,-19.5,-7.5,90.6846875,-56.58,13.4530790625,34.49
2021-07-07 11:04:39.617187500,-61.0,-19.25,-7.25,90.68359375,-56.93,13.45335928125,34.49
2021-07-07 11:04:39.625000000,-61.0,-19.0,-7.0,90.68249999999999,-57.28,13.453639500000001,34.49
2021-07-07 11:04:39.632812500,-61.0,-19.0,-7.25,90.68140625,-58.5,13.45391971875,34.49
2021-07-07 11:04:39.640625000,-61.0,-19.0,-7.5,90.6803125,-59.72,13.4541999375,34.49
2021-07-07 11:04:39.648437500,-61.0,-19.0,-7.75,90.67921874999999,-61.474999999999994,13.45448015625,34.49
2021-07-07 11:04:39.656250000,-61.0,-19.0,-8.0,90.678125,-63.23,13.454760375000001,34.49
2021-07-07 11:04:39.664062500,-61.0,-19.25,-8.0,90.67703125,-64.445,13.45504059375,34.49
2021-07-07 11:04:39.671875000,-61.0,-19.5,-8.0,90.67593749999999,-65.66,13.4553208125,34.49
2021-07-07 11:04:39.679687500,-61.0,-19.75,-8.0,90.67484375,-65.675,13.45560103125,34.49
2021-07-07 11:04:39.687500000,-61.0,-20.0,-8.0,90.67375,-65.69,13.455881250000001,34.49
2021-07-07 11:04:39.695312500,-61.0,-20.0,-7.75,90.67265624999999,-64.7,13.45616146875,34.49
2021-07-07 11:04:39.703125000,-61.0,-20.0,-7.5,90.6715625,-63.71,13.4564416875,34.49
2021-07-07 11:04:39.710937500,-61.0,-20.0,-7.25,90.67046875,-62.585,13.456721906250001,34.49
2021-07-07 11:04:39.718750000,-61.0,-20.0,-7.0,90.669375,-61.46,13.457002125,34.49
2021-07-07 11:04:39.726562500,-61.0,-20.0,-7.25,90.66828124999999,-61.085,13.45728234375,34.49
2021-07-07 11:04:39.734375000,-61.0,-20.0,-7.5,90.6671875,-60.71,13.4575625625,34.49
2021-07-07 11:04:39.742187500,-61.0,-20.0,-7.75,90.66609375,-61.515,13.457842781250001,34.49
2021-07-07 11:04:39.750000000,-61.0,-20.0,-8.0,90.66499999999999,-62.32,13.458123,34.49
2021-07-07 11:04:39.757812500,-61.0,-20.0,-7.75,90.66390625,-64.26,13.456681781250001,34.49
2021-07-07 11:04:39.765625000,-61.0,-20.0,-7.5,90.6628125,-66.2,13.4552405625,34.49
2021-07-07 11:04:39.773437500,-61.0,-20.0,-7.25,90.66171874999999,-68.91499999999999,13.453799343750001,34.49
2021-07-07 11:04:39.781250000,-61.0,-20.0,-7.0,90.660625,-71.63,13.452358125,34.49
2021-07-07 11:04:39.789062500,-61.0,-20.0,-7.25,90.65953125,-74.57,13.45091690625,34.49
2021-07-07 11:04:39.796875000,-61.0,-20.0,-7.5,90.65843749999999,-77.51,13.4494756875,34.49
2021-07-07 11:04:39.804687500,-61.0,-20.0,-7.75,90.65734375,-79.61,13.44803446875,34.49
2021-07-07 11:04:39.812500000,-61.0,-20.0,-8.0,90.65625,-81.71,13.44659325,34.49
2021-07-07 11:04:39.820312500,-61.0,-20.0,-8.0,90.65515624999999,-82.18,13.44515203125,34.49
2021-07-07 11:04:39.828125000,-61.0,-20.0,-8.0,90.6540625,-82.65,13.4437108125,34.49
2021-07-07 11:04:39.835937500,-61.0,-20.0,-8.0,90.65296875,-81.235,13.44226959375,34.49
2021-07-07 11:04:39.843750000,-61.0,-20.0,-8.0,90.65187499999999,-79.82,13.440828375,34.49
2021-07-07 11:04:39.851562500,-61.0,-20.0,-8.0,90.65078125,-76.75,13.43938715625,34.49
2021-07-07 11:04:39.859375000,-61.0,-20.0,-8.0,90.6496875,-73.68,13.4379459375,34.49
2021-07-07 11:04:39.867187500,-61.0,-20.0,-8.0,90.64859374999999,-69.31,13.43650471875,34.49
2021-07-07 11:04:39.875000000,-61.0,-20.0,-8.0,90.6475,-64.94,13.4350635,34.49
2021-07-07 11:04:39.882812500,-61.0,-20.0,-8.0,90.64640625,-59.62,13.43362228125,34.49
2021-07-07 11:04:39.890625000,-61.0,-20.0,-8.0,90.64531249999999,-54.3,13.4321810625,34.49
2021-07-07 11:04:39.898437500,-61.0,-20.0,-8.0,90.64421875,-48.39,13.43073984375,34.49
2021-07-07 11:04:39.906250000,-61.0,-20.0,-8.0,90.643125,-42.48,13.429298625,34.49
2021-07-07 11:04:39.914062500,-61.0,-20.0,-7.75,90.64203125,-36.455,13.42785740625,34.49
2021-07-07 11:04:39.921875000,-61.0,-20.0,-7.5,90.64093749999999,-30.43,13.4264161875,34.49
2021-07-07 11:04:39.929687500,-61.0,-20.0,-7.25,90.63984375,-24.79,13.42497496875,34.49
2021-07-07 11:04:39.937500000,-61.0,-20.0,-7.0,90.63875,-19.15,13.42353375,34.49
2021-07-07 11:04:39.945312500,-61.0,-20.0,-7.0,90.63765624999999,-14.055,13.42209253125,34.49
2021-07-07 11:04:39.953125000,-61.0,-20.0,-7.0,90.6365625,-8.96,13.4206513125,34.49
2021-07-07 11:04:39.960937500,-61.0,-20.0,-7.0,90.63546875,-4.4750000000000005,13.41921009375,34.49
2021-07-07 11:04:39.968750000,-61.0,-20.0,-7.0,90.63437499999999,0.01,13.417768875,34.49
2021-07-07 11:04:39.976562500,-61.0,-20.0,-7.25,90.63328125,3.84,13.41632765625,34.49
2021-07-07 11:04:39.984375000,-61.0,-20.0,-7.5,90.6321875,7.67,13.4148864375,34.49
2021-07-07 11:04:39.992187500,-61.0,-20.0,-7.75,90.63109374999999,10.765,13.413445218749999,34.49
2021-07-07 11:04:40.000000000,-61.0,-20.0,-8.0,90.63,13.86,13.412004,34.49
2021-07-07 11:04:40.007812500,-61.0,-20.0,-8.0,90.629375,16.145,13.41240434375,34.4903125
2021-07-07 11:04:40.015625000,-61.0,-20.0,-8.0,90.62875,18.43,13.4128046875,34.490625
2021-07-07 11:04:40.023437500,-61.0,-20.0,-8.0,90.628125,19.8,13.41320503125,34.4909375
2021-07-07 11:04:40.031250000,-61.0,-20.0,-8.0,90.6275,21.17,13.413605375,34.49125
2021-07-07 11:04:40.039062500,-61.25,-20.0,-8.0,90.626875,21.535,13.41400571875,34.4915625
2021-07-07 11:04:40.046875000,-61.5,-20.0,-8.0,90.62625,21.9,13.4144060625,34.491875
2021-07-07 11:04:40.054687500,-61.75,-20.0,-8.0,90.625625,21.21,13.41480640625,34.4921875
2021-07-07 11:04:40.062500000,-62.0,-20.0,-8.0,90.625,20.52,13.41520675,34.4925
2021-07-07 11:04:40.070312500,-61.75,-20.0,-8.25,90.624375,18.924999999999997,13.41560709375,34.4928125
2021-07-07 11:04:40.078125000,-61.5,-20.0,-8.5,90.62375,17.33,13.4160074375,34.493125
2021-07-07 11:04:40.085937500,-61.25,-20.0,-8.75,90.623125,15.325,13.41640778125,34.4934375
2021-07-07 11:04:40.093750000,-61.0,-20.0,-9.0,90.6225,13.32,13.416808125,34.49375
2021-07-07 11:04:40.101562500,-61.0,-19.75,-8.75,90.62187499999999,11.51,13.41720846875,34.4940625
2021-07-07 11:04:40.109375000,-61.0,-19.5,-8.5,90.62124999999999,9.7,13.4176088125,34.494375
2021-07-07 11:04:40.117187500,-61.0,-19.25,-8.25,90.62062499999999,8.575,13.41800915625,34.4946875
2021-07-07 11:04:40.125000000,-61.0,-19.0,-8.0,90.61999999999999,7.45,13.4184095,34.495000000000005
2021-07-07 11:04:40.132812500,-61.0,-19.25,-8.0,90.61937499999999,7.2,13.418809843750001,34.495312500000004
2021-07-07 11:04:40.140625000,-61.0,-19.5,-8.0,90.61874999999999,6.95,13.419210187500001,34.495625000000004
2021-07-07 11:04:40.148437500,-61.0,-19.75,-8.0,90.61812499999999,7.484999999999999,13.419610531250001,34.495937500000004
2021-07-07 11:04:40.156250000,-61.0,-20.0,-8.0,90.61749999999999,8.02,13.420010875000001,34.49625
2021-07-07 11:04:40.164062500,-61.0,-20.0,-7.75,90.616875,9.085,13.42041121875,34.4965625
2021-07-07 11:04:40.171875000,-61.0,-20.0,-7.5,90.61625,10.15,13.4208115625,34.496875
2021-07-07 11:04:40.179687500,-61.0,-20.0,-7.25,90.615625,11.485,13.42121190625,34.4971875
2021-07-07 11:04:40.187500000,-61.0,-20.0,-7.0,90.615,12.82,13.42161225,34.4975
2021-07-07 11:04:40.195312500,-61.0,-20.0,-7.0,90.614375,14.265,13.42201259375,34.4978125
2021-07-07 11:04:40.203125000,-61.0,-20.0,-7.0,90.61375,15.71,13.4224129375,34.498125
2021-07-07 11:04:40.210937500,-61.0,-20.0,-7.0,90.613125,17.240000000000002,13.42281328125,34.4984375
2021-07-07 11:04:40.218750000,-61.0,-20.0,-7.0,90.6125,18.77,13.423213625,34.49875
2021-07-07 11:04:40.226562500,-61.0,-20.0,-7.0,90.611875,20.38,13.42361396875,34.4990625
2021-07-07 11:04:40.234375000,-61.0,-20.0,-7.0,90.61125,21.99,13.4240143125,34.499375
2021-07-07 11:04:40.242187500,-61.0,-20.0,-7.0,90.610625,23.58,13.42441465625,34.4996875
2021-07-07 11:04:40.250000000,-61.0,-20.0,-7.0,90.61,25.17,13.424815,34.5
2021-07-07 11:04:40.257812500,-61.25,-20.0,-7.25,90.609375,26.51,13.42477496875,34.5
2021-07-07 11:04:40.265625000,-61.5,-20.0,-7.5,90.60875,27.85,13.4247349375,34.5
2021-07-07 11:04:40.273437500,-61.75,-20.0,-7.75,90.608125,28.645000000000003,13.42469490625,34.5
2021-07-07 11:04:40.281250000,-62.0,-20.0,-8.0,90.6075,29.44,13.424654875,34.5
2021-07-07 11:04:40.289062500,-61.75,-20.0,-8.0,90.606875,29.485,13.42461484375,34.5
2021-07-07 11:04:40.296875000,-61.5,-20.0,-8.0,90.60625,29.53,13.424574812500001,34.5
2021-07-07 11:04:40.304687500,-61.25,-20.0,-8.0,90.60562499999999,28.835,13.424534781250001,34.5
2021-07-07 11:04:40.312500000,-61.0,-20.0,-8.0,90.60499999999999,28.14,13.424494750000001,34.5
2021-07-07 11:04:40.320312500,-61.0,-20.0,-8.0,90.60437499999999,26.91,13.42445471875,34.5
2021-07-07 11:04:40.328125000,-61.0,-20.0,-8.0,90.60374999999999,25.68,13.4244146875,34.5
2021-07-07 11:04:40.335937500,-61.0,-20.0,-8.0,90.60312499999999,24.240000000000002,13.42437465625,34.5
2021-07-07 11:04:40.343750000,-61.0,-20.0,-8.0,90.60249999999999,22.8,13.424334625,34.5
2021-07-07 11:04:40.351562500,-61.25,-20.0,-8.0,90.60187499999999,21.439999999999998,13.42429459375,34.5
2021-07-07 11:04:40.359375000,-61.5,-20.0,-8.0,90.60125,20.08,13.4242545625,34.5
2021-07-07 11:04:40.367187500,-61.75,-20.0,-8.0,90.600625,18.95,13.42421453125,34.5
2021-07-07 11:04:40.375000000,-62.0,-20.0,-8.0,90.6,17.82,13.4241745,34.5
2021-07-07 11:04:40.382812500,-62.0,-20.0,-8.0,90.599375,16.9,13.424134468750001,34.5
2021-07-07 11:04:40.390625000,-62.0,-20.0,-8.0,90.59875,15.98,13.4240944375,34.5
2021-07-07 11:04:40.398437500,-62.0,-20.0,-8.0,90.598125,15.145,13.42405440625,34.5
2021-07-07 11:04:40.406250000,-62.0,-20.0,-8.0,90.5975,14.31,13.424014375,34.5
2021-07-07 11:04:40.414062500,-61.75,-20.0,-7.75,90.596875,13.425,13.42397434375,34.5
2021-07-07 11:04:40.421875000,-61.5,-20.0,-7.5,90.59625,12.54,13.4239343125,34.5
2021-07-07 11:04:40.429687500,-61.25,-20.0,-7.25,90.595625,11.489999999999998,13.42389428125,34.5
2021-07-07 11:04:40.437500000,-61.0,-20.0,-7.0,90.595,10.44,13.42385425,34.5
2021-07-07 11:04:40.445312500,-61.0,-20.0,-7.0,90.594375,9.19,13.42381421875,34.5
2021-07-07 11:04:40.453125000,-61.0,-20.0,-7.0,90.59375,7.94,13.4237741875,34.5
2021-07-07 11:04:40.460937500,-61.0,-20.0,-7.0,90.593125,6.495,13.423734156250001,34.5
2021-07-07 11:04:40.468750000,-61.0,-20.0,-7.0,90.5925,5.05,13.423694125,34.5
2021-07-07 11:04:40.476562500,-61.0,-20.25,-7.0,90.591875,3.4749999999999996,13.42365409375,34.5
2021-07-07 11:04:40.484375000,-61.0,-20.5,-7.0,90.59125,1.9,13.4236140625,34.5
2021-07-07 11:04:40.492187500,-61.0,-20.75,-7.0,90.590625,0.29000000000000004,13.42357403125,34.5
2021-07-07 11:04:40.500000000,-61.0,-21.0,-7.0,90.59,-1.32,13.423534,34.5
2021-07-07 11:04:40.507812500,-61.0,-20.75,-7.0,90.58937499999999,-2.865,13.423694125,34.5
2021-07-07 11:04:40.515625000,-61.0,-20.5,-7.0,90.58874999999999,-4.41,13.42385425,34.5
2021-07-07 11:04:40.523437500,-61.0,-20.25,-7.0,90.58812499999999,-5.785,13.424014375,34.5
2021-07-07 11:04:40.531250000,-61.0,-20.0,-7.0,90.58749999999999,-7.16,13.4241745,34.5
2021-07-07 11:04:40.539062500,-61.0,-20.0,-7.25,90.58687499999999,-8.34,13.424334625,34.5
2021-07-07 11:04:40.546875000,-61.0,-20.0,-7.5,90.58624999999999,-9.52,13.424494750000001,34.5
2021-07-07 11:04:40.554687500,-61.0,-20.0,-7.75,90.585625,-10.565,13.424654875,34.5
2021-07-07 11:04:40.562500000,-61.0,-20.0,-8.0,90.585,-11.61,13.424815,34.5
2021-07-07 11:04:40.570312500,-61.0,-20.0,-8.0,90.584375,-12.625,13.424975125,34.5
2021-07-07 11:04:40.578125000,-61.0,-20.0,-8.0,90.58375,-13.64,13.42513525,34.5
2021-07-07 11:04:40.585937500,-61.0,-20.0,-8.0,90.583125,-14.74,13.425295375000001,34.5
2021-07-07 11:04:40.593750000,-61.0,-20.0,-8.0,90.5825,-15.84,13.4254555,34.5
2021-07-07 11:04:40.601562500,-61.25,-20.0,-8.25,90.581875,-17.060000000000002,13.425615625,34.5
2021-07-07 11:04:40.609375000,-61.5,-20.0,-8.5,90.58125,-18.28,13.42577575,34.5
2021-07-07 11:04:40.617187500,-61.75,-20.0,-8.75,90.580625,-19.555,13.425935875,34.5
2021-07-07 11:04:40.625000000,-62.0,-20.0,-9.0,90.58,-20.83,13.426096000000001,34.5
2021-07-07 11:04:40.632812500,-62.0,-20.0,-9.0,90.579375,-22.03,13.426256125,34.5
2021-07-07 11:04:40.640625000,-62.0,-20.0,-9.0,90.57875,-23.23,13.42641625,34.5
2021-07-07 11:04:40.648437500,-62.0,-20.0,-9.0,90.578125,-24.255000000000003,13.426576375,34.5
2021-07-07 11:04:40.656250000,-62.0,-20.0,-9.0,90.5775,-25.28,13.4267365,34.5
2021-07-07 11:04:40.664062500,-61.75,-20.0,-8.75,90.576875,-26.12,13.426896625,34.5
2021-07-07 11:04:40.671875000,-61.5,-20.0,-8.5,90.57625,-26.96,13.42705675,34.5
2021-07-07 11:04:40.679687500,-61.25,-20.0,-8.25,90.575625,-27.745,13.427216875000001,34.5
2021-07-07 11:04:40.687500000,-61.0,-20.0,-8.0,90.575,-28.53,13.427377,34.5
2021-07-07 11:04:40.695312500,-61.0,-20.0,-7.75,90.574375,-29.47,13.427537125,34.5
2021-07-07 11:04:40.703125000,-61.0,-20.0,-7.5,90.57374999999999,-30.41,13.42769725,34.5
2021-07-07 11:04:40.710937500,-61.0,-20.0,-7.25,90.57312499999999,-31.715000000000003,13.427857375,34.5
2021-07-07 11:04:40.718750000,-61.0,-20.0,-7.0,90.57249999999999,-33.02,13.428017500000001,34.5
2021-07-07 11:04:40.726562500,-61.0,-20.0,-7.25,90.57187499999999,-34.815,13.428177625,34.5
2021-07-07 11:04:40.734375000,-61.0,-20.0,-7.5,90.57124999999999,-36.61,13.42833775,34.5
2021-07-07 11:04:40.742187500,-61.0,-20.0,-7.75,90.57062499999999,-38.83,13.428497875,34.5
2021-07-07 11:04:40.750000000,-61.0,-20.0,-8.0,90.57,-41.05,13.428658,34.5
2021-07-07 11:04:40.757812500,-60.5,-20.0,-7.75,90.569375,-43.465,13.428017468750001,34.5
2021-07-07 11:04:40.765625000,-60.0,-20.0,-7.5,90.56875,-45.88,13.4273769375,34.5
2021-07-07 11:04:40.773437500,-59.5,-20.0,-7.25,90.568125,-48.07,13.42673640625,34.5
2021-07-07 11:04:40.781250000,-59.0,-20.0,-7.0,90.5675,-50.26,13.426095875,34.5
2021-07-07 11:04:40.789062500,-59.5,-20.25,-7.0,90.566875,-51.724999999999994,13.42545534375,34.5
2021-07-07 11:04:40.796875000,-60.0,-20.5,-7.0,90.56625,-53.19,13.424814812500001,34.5
2021-07-07 11:04:40.804687500,-60.5,-20.75,-7.0,90.565625,-53.42,13.42417428125,34.5
2021-07-07 11:04:40.812500000,-61.0,-21.0,-7.0,90.565,-53.65,13.42353375,34.5
2021-07-07 11:04:40.820312500,-61.25,-20.75,-7.5,90.564375,-52.29,13.42289321875,34.5
2021-07-07 11:04:40.828125000,-61.5,-20.5,-8.0,90.56375,-50.93,13.4222526875,34.5
2021-07-07 11:04:40.835937500,-61.75,-20.25,-8.5,90.563125,-47.879999999999995,13.421612156250001,34.5
2021-07-07 11:04:40.843750000,-62.0,-20.0,-9.0,90.5625,-44.83,13.420971625,34.5
2021-07-07 11:04:40.851562500,-61.75,-20.0,-9.0,90.561875,-40.32,13.42033109375,34.5
2021-07-07 11:04:40.859375000,-61.5,-20.0,-9.0,90.56125,-35.81,13.4196905625,34.5
2021-07-07 11:04:40.867187500,-61.25,-20.0,-9.0,90.560625,-30.345,13.41905003125,34.5
2021-07-07 11:04:40.875000000,-61.0,-20.0,-9.0,90.56,-24.88,13.4184095,34.5
2021-07-07 11:04:40.882812500,-61.0,-20.0,-9.0,90.559375,-19.145,13.41776896875,34.5
2021-07-07 11:04:40.890625000,-61.0,-20.0,-9.0,90.55875,-13.41,13.4171284375,34.5
2021-07-07 11:04:40.898437500,-61.0,-20.0,-9.0,90.558125,-8.035,13.41648790625,34.5
2021-07-07 11:04:40.906250000,-61.0,-20.0,-9.0,90.55749999999999,-2.66,13.415847375,34.5
2021-07-07 11:04:40.914062500,-61.0,-19.75,-9.25,90.55687499999999,1.9249999999999998,13.41520684375,34.5
2021-07-07 11:04:40.921875000,-61.0,-19.5,-9.5,90.55624999999999,6.51,13.4145663125,34.5
2021-07-07 11:04:40.929687500,-61.0,-19.25,-9.75,90.55562499999999,10.149999999999999,13.41392578125,34.5
2021-07-07 11:04:40.937500000,-61.0,-19.0,-10.0,90.55499999999999,13.79,13.41328525,34.5
2021-07-07 11:04:40.945312500,-61.0,-19.25,-9.75,90.554375,16.564999999999998,13.41264471875,34.5
2021-07-07 11:04:40.953125000,-61.0,-19.5,-9.5,90.55375,19.34,13.4120041875,34.5
2021-07-07 11:04:40.960937500,-61.0,-19.75,-9.25,90.553125,21.455,13.41136365625,34.5
2021-07-07 11:04:40.968750000,-61.0,-20.0,-9.0,90.5525,23.57,13.410723125,34.5
2021-07-07 11:04:40.976562500,-61.0,-20.0,-9.0,90.551875,25.205,13.41008259375,34.5
2021-07-07 11:04:40.984375000,-61.0,-20.0,-9.0,90.55125,26.84,13.4094420625,34.5
2021-07-07 11:04:40.992187500,-61.0,-20.0,-9.0,90.550625,28.1,13.408801531249999,34.5
2021-07-07 11:04:41.000000000,-61.0,-20.0,-9.0,90.55,29.36,13.408161,34.5
2021-07-07 11:04:41.007812500,-61.25,-20.0,-9.0,90.54984375,30.259999999999998,13.405158406249999,34.5
2021-07-07 11:04:41.015625000,-61.5,-20.0,-9.0,90.54968749999999,31.16,13.4021558125,34.5
2021-07-07 11:04:41.023437500,-61.75,-20.0,-9.0,90.54953125,31.674999999999997,13.39915321875,34.5
2021-07-07 11:04:41.031250000,-62.0,-20.0,-9.0,90.549375,32.19,13.396150625,34.5
2021-07-07 11:04:41.039062500,-61.5,-20.25,-8.5,90.54921875,32.32,13.39314803125,34.5
2021-07-07 11:04:41.046875000,-61.0,-20.5,-8.0,90.54906249999999,32.45,13.3901454375,34.5
2021-07-07 11:04:41.054687500,-60.5,-20.75,-7.5,90.54890625,32.235,13.38714284375,34.5
2021-07-07 11:04:41.062500000,-60.0,-21.0,-7.0,90.54875,32.02,13.38414025,34.5
2021-07-07 11:04:41.070312500,-60.0,-21.0,-7.0,90.54859375,31.57,13.381137656249999,34.5
2021-07-07 11:04:41.078125000,-60.0,-21.0,-7.0,90.54843749999999,31.12,13.3781350625,34.5
2021-07-07 11:04:41.085937500,-60.0,-21.0,-7.0,90.54828125,30.57,13.37513246875,34.5
2021-07-07 11:04:41.093750000,-60.0,-21.0,-7.0,90.548125,30.02,13.372129874999999,34.5
2021-07-07 11:04:41.101562500,-60.25,-21.0,-7.25,90.54796875,29.52,13.36912728125,34.5
2021-07-07 11:04:41.109375000,-60.5,-21.0,-7.5,90.54781249999999,29.02,13.3661246875,34.5
2021-07-07 11:04:41.117187500,-60.75,-21.0,-7.75,90.54765625,28.695,13.36312209375,34.5
2021-07-07 11:04:41.125000000,-61.0,-21.0,-8.0,90.5475,28.37,13.3601195,34.5
2021-07-07 11:04:41.132812500,-61.0,-21.0,-8.25,90.54734375,28.3,13.357116906249999,34.5
2021-07-07 11:04:41.140625000,-61.0,-21.0,-8.5,90.54718749999999,28.23,13.3541143125,34.5
2021-07-07 11:04:41.148437500,-61.0,-21.0,-8.75,90.54703125,28.43,13.35111171875,34.5
2021-07-07 11:04:41.156250000,-61.0,-21.0,-9.0,90.546875,28.63,13.348109125,34.5
2021-07-07 11:04:41.164062500,-61.0,-21.0,-9.5,90.54671875,29.055,13.34510653125,34.5
2021-07-07 11:04:41.171875000,-61.0,-21.0,-10.0,90.5465625,29.48,13.3421039375,34.5
2021-07-07 11:04:41.179687500,-61.0,-21.0,-10.5,90.54640625,30.009999999999998,13.33910134375,34.5
2021-07-07 11:04:41.187500000,-61.0,-21.0,-11.0,90.54625,30.54,13.33609875,34.5
2021-07-07 11:04:41.195312500,-60.75,-20.75,-10.5,90.54609375,31.03,13.333096156249999,34.5
2021-07-07 11:04:41.203125000,-60.5,-20.5,-10.0,90.5459375,31.52,13.3300935625,34.5
2021-07-07 11:04:41.210937500,-60.25,-20.25,-9.5,90.54578125,31.835,13.32709096875,34.5
2021-07-07 11:04:41.218750000,-60.0,-20.0,-9.0,90.545625,32.15,13.324088374999999,34.5
2021-07-07 11:04:41.226562500,-60.5,-20.0,-9.0,90.54546875,32.195,13.32108578125,34.5
2021-07-07 11:04:41.234375000,-61.0,-20.0,-9.0,90.5453125,32.24,13.3180831875,34.5
2021-07-07 11:04:41.242187500,-61.5,-20.0,-9.0,90.54515625,32.010000000000005,13.31508059375,34.5
2021-07-07 11:04:41.250000000,-62.0,-20.0,-9.0,90.545,31.78,13.312078,34.5
2021-07-07 11:04:41.257812500,-62.0,-19.75,-9.25,90.54484375,31.325000000000003,13.310196375,34.5
2021-07-07 11:04:41.265625000,-62.0,-19.5,-9.5,90.5446875,30.87,13.30831475,34.5
2021-07-07 11:04:41.273437500,-62.0,-19.25,-9.75,90.54453124999999,30.275,13.306433125,34.5
2021-07-07 11:04:41.281250000,-62.0,-19.0,-10.0,90.544375,29.68,13.304551499999999,34.5
2021-07-07 11:04:41.289062500,-61.25,-19.25,-9.75,90.54421875,29.005,13.302669875,34.5
2021-07-07 11:04:41.296875000,-60.5,-19.5,-9.5,90.5440625,28.33,13.30078825,34.5
2021-07-07 11:04:41.304687500,-59.75,-19.75,-9.25,90.54390624999999,27.57,13.298906624999999,34.5
2021-07-07 11:04:41.312500000,-59.0,-20.0,-9.0,90.54375,26.81,13.297025,34.5
2021-07-07 11:04:41.320312500,-59.5,-20.0,-8.75,90.54359375,25.915,13.295143375,34.5
2021-07-07 11:04:41.328125000,-60.0,-20.0,-8.5,90.5434375,25.02,13.29326175,34.5
2021-07-07 11:04:41.335937500,-60.5,-20.0,-8.25,90.54328124999999,23.869999999999997,13.291380125,34.5
2021-07-07 11:04:41.343750000,-61.0,-20.0,-8.0,90.543125,22.72,13.2894985,34.5
2021-07-07 11:04:41.351562500,-61.25,-19.75,-9.0,90.54296875,21.189999999999998,13.287616875,34.5
2021-07-07 11:04:41.359375000,-61.5,-19.5,-10.0,90.5428125,19.66,13.28573525,34.5
2021-07-07 11:04:41.367187500,-61.75,-19.25,-11.0,90.54265625,17.66,13.283853624999999,34.5
2021-07-07 11:04:41.375000000,-62.0,-19.0,-12.0,90.5425,15.66,13.281972,34.5
2021-07-07 11:04:41.382812500,-60.75,-19.25,-11.0,90.54234375,13.185,13.280090375,34.5
2021-07-07 11:04:41.390625000,-59.5,-19.5,-10.0,90.5421875,10.71,13.27820875,34.5
2021-07-07 11:04:41.398437500,-58.25,-19.75,-9.0,90.54203125,7.9,13.276327125,34.5
2021-07-07 11:04:41.406250000,-57.0,-20.0,-8.0,90.541875,5.09,13.274445499999999,34.5
2021-07-07 11:04:41.414062500,-57.75,-20.25,-8.0,90.54171875,2.205,13.272563875,34.5
2021-07-07 11:04:41.421875000,-58.5,-20.5,-8.0,90.5415625,-0.68,13.27068225,34.5
2021-07-07 11:04:41.429687500,-59.25,-20.75,-8.0,90.54140625,-3.325,13.268800624999999,34.5
2021-07-07 11:04:41.437500000,-60.0,-21.0,-8.0,90.54125,-5.97,13.266919,34.5
2021-07-07 11:04:41.445312500,-61.25,-20.75,-9.5,90.54109375,-8.16,13.265037375,34.5
2021-07-07 11:04:41.453125000,-62.5,-20.5,-11.0,90.5409375,-10.35,13.26315575,34.5
2021-07-07 11:04:41.460937500,-63.75,-20.25,-12.5,90.54078125,-12.055,13.261274125,34.5
2021-07-07 11:04:41.468750000,-65.0,-20.0,-14.0,90.540625,-13.76,13.2593925,34.5
2021-07-07 11:04:41.476562500,-64.25,-20.0,-13.5,90.54046875,-15.215,13.257510875,34.5
2021-07-07 11:04:41.484375000,-63.5,-20.0,-13.0,90.5403125,-16.67,13.25562925,34.5
2021-07-07 11:04:41.492187500,-62.75,-20.0,-12.5,90.54015625,-18.265,13.253747624999999,34.5
2021-07-07 11:04:41.500000000,-62.0,-20.0,-12.0,90.53999999999999,-19.86,13.251866,34.5
2021-07-07 11:04:41.507812500,-61.75,-20.25,-10.75,90.53984375,-21.990000000000002,13.25086515625,34.5
2021-07-07 11:04:41.515625000,-61.5,-20.5,-9.5,90.5396875,-24.12,13.2498643125,34.5
2021-07-07 11:04:41.523437500,-61.25,-20.75,-8.25,90.53953125,-26.965,13.248863468749999,34.5
2021-07-07 11:04:41.531250000,-61.0,-21.0,-7.0,90.53937499999999,-29.81,13.247862625,34.5
2021-07-07 11:04:41.539062500,-61.0,-20.75,-7.5,90.53921875,-33.265,13.24686178125,34.5
2021-07-07 11:04:41.546875000,-61.0,-20.5,-8.0,90.5390625,-36.72,13.2458609375,34.5
2021-07-07 11:04:41.554687500,-61.0,-20.25,-8.5,90.53890625,-40.43,13.244860093749999,34.5
2021-07-07 11:04:41.562500000,-61.0,-20.0,-9.0,90.53875,-44.14,13.24385925,34.5
2021-07-07 11:04:41.570312500,-61.25,-20.0,-9.0,90.53859375,-47.730000000000004,13.24285840625,34.5
2021-07-07 11:04:41.578125000,-61.5,-20.0,-9.0,90.5384375,-51.32,13.2418575625,34.5
2021-07-07 11:04:41.585937500,-61.75,-20.0,-9.0,90.53828125,-54.605000000000004,13.240856718749999,34.5
2021-07-07 11:04:41.593750000,-62.0,-20.0,-9.0,90.538125,-57.89,13.239855875,34.5
2021-07-07 11:04:41.601562500,-62.0,-20.0,-9.0,90.53796875,-60.95,13.23885503125,34.5
2021-07-07 11:04:41.609375000,-62.0,-20.0,-9.0,90.5378125,-64.01,13.2378541875,34.5
2021-07-07 11:04:41.617187500,-62.0,-20.0,-9.0,90.53765625,-67.135,13.23685334375,34.5
2021-07-07 11:04:41.625000000,-62.0,-20.0,-9.0,90.5375,-70.26,13.2358525,34.5
2021-07-07 11:04:41.632812500,-61.5,-20.0,-8.75,90.53734375,-73.725,13.234851656250001,34.5
2021-07-07 11:04:41.640625000,-61.0,-20.0,-8.5,90.5371875,-77.19,13.2338508125,34.5
2021-07-07 11:04:41.648437500,-60.5,-20.0,-8.25,90.53703125,-81.125,13.23284996875,34.5
2021-07-07 11:04:41.656250000,-60.0,-20.0,-8.0,90.536875,-85.06,13.231849125,34.5
2021-07-07 11:04:41.664062500,-60.5,-20.0,-8.25,90.53671875,-89.37,13.230848281250001,34.5
2021-07-07 11:04:41.671875000,-61.0,-20.0,-8.5,90.5365625,-93.68,13.2298474375,34.5
2021-07-07 11:04:41.679687500,-61.5,-20.0,-8.75,90.53640625,-98.165,13.22884659375,34.5
2021-07-07 11:04:41.687500000,-62.0,-20.0,-9.0,90.53625,-102.65,13.22784575,34.5
2021-07-07 11:04:41.695312500,-61.5,-20.25,-8.5,90.53609375,-107.18,13.226844906250001,34.5
2021-07-07 11:04:41.703125000,-61.0,-20.5,-8.0,90.5359375,-111.71,13.2258440625,34.5
2021-07-07 11:04:41.710937500,-60.5,-20.75,-7.5,90.53578125,-116.26499999999999,13.22484321875,34.5
2021-07-07 11:04:41.718750000,-60.0,-21.0,-7.0,90.535625,-120.82,13.223842375,34.5
2021-07-07 11:04:41.726562500,-60.25,-20.75,-8.0,90.53546875,-125.41499999999999,13.222841531250001,34.5
2021-07-07 11:04:41.734375000,-60.5,-20.5,-9.0,90.5353125,-130.01,13.2218406875,34.5
2021-07-07 11:04:41.742187500,-60.75,-20.25,-10.0,90.53515625,-134.48,13.22083984375,34.5
2021-07-07 11:04:41.750000000,-61.0,-20.0,-11.0,90.535,-138.95,13.219839,34.5
2021-07-07 11:04:41.757812500,-60.75,-20.25,-10.5,90.53484375,-142.87,13.217997437500001,34.5
2021-07-07 11:04:41.765625000,-60.5,-20.5,-10.0,90.5346875,-146.79,13.216155875,34.5
2021-07-07 11:04:41.773437500,-60.25,-20.75,-9.5,90.53453125,-149.54,13.2143143125,34.5
2021-07-07 11:04:41.781250000,-60.0,-21.0,-9.0,90.534375,-152.29,13.21247275,34.5
2021-07-07 11:04:41.789062500,-60.5,-20.75,-8.75,90.53421875,-153.36,13.2106311875,34.5
2021-07-07 11:04:41.796875000,-61.0,-20.5,-8.5,90.5340625,-154.43,13.208789625,34.5
2021-07-07 11:04:41.804687500,-61.5,-20.25,-8.25,90.53390625,-153.71,13.2069480625,34.5
2021-07-07 11:04:41.812500000,-62.0,-20.0,-8.0,90.53375,-152.99,13.2051065,34.5
2021-07-07 11:04:41.820312500,-61.75,-20.0,-8.0,90.53359375,-150.805,13.2032649375,34.5
2021-07-07 11:04:41.828125000,-61.5,-20.0,-8.0,90.5334375,-148.62,13.201423375000001,34.5
2021-07-07 11:04:41.835937500,-61.25,-20.0,-8.0,90.53328125,-145.46,13.1995818125,34.5
2021-07-07 11:04:41.843750000,-61.0,-20.0,-8.0,90.533125,-142.3,13.19774025,34.5
2021-07-07 11:04:41.851562500,-61.0,-20.0,-8.5,90.53296875,-138.39,13.1958986875,34.5
2021-07-07 11:04:41.859375000,-61.0,-20.0,-9.0,90.5328125,-134.48,13.194057125,34.5
2021-07-07 11:04:41.867187500,-61.0,-20.0,-9.5,90.53265625,-129.57,13.1922155625,34.5
2021-07-07 11:04:41.875000000,-61.0,-20.0,-10.0,90.5325,-124.66,13.190374,34.5
2021-07-07 11:04:41.882812500,-61.25,-20.0,-9.5,90.53234375,-118.215,13.188532437500001,34.5
2021-07-07 11:04:41.890625000,-61.5,-20.0,-9.0,90.5321875,-111.77,13.186690875,34.5
2021-07-07 11:04:41.898437500,-61.75,-20.0,-8.5,90.53203125,-103.535,13.1848493125,34.5
2021-07-07 11:04:41.906250000,-62.0,-20.0,-8.0,90.531875,-95.3,13.18300775,34.5
2021-07-07 11:04:41.914062500,-61.75,-20.0,-8.0,90.53171875,-85.75999999999999,13.1811661875,34.5
2021-07-07 11:04:41.921875000,-61.5,-20.0,-8.0,90.5315625,-76.22,13.179324625,34.5
2021-07-07 11:04:41.929687500,-61.25,-20.0,-8.0,90.53140625,-66.685,13.1774830625,34.5
2021-07-07 11:04:41.937500000,-61.0,-20.0,-8.0,90.53125,-57.15,13.175641500000001,34.5
2021-07-07 11:04:41.945312500,-60.75,-20.0,-8.5,90.53109375,-49.185,13.1737999375,34.5
2021-07-07 11:04:41.953125000,-60.5,-20.0,-9.0,90.53093750000001,-41.22,13.171958375,34.5
2021-07-07 11:04:41.960937500,-60.25,-20.0,-9.5,90.53078125,-35.785,13.1701168125,34.5
2021-07-07 11:04:41.968750000,-60.0,-20.0,-10.0,90.530625,-30.35,13.16827525,34.5
2021-07-07 11:04:41.976562500,-60.25,-20.0,-10.25,90.53046875,-27.23,13.1664336875,34.5
2021-07-07 11:04:41.984375000,-60.5,-20.0,-10.5,90.53031250000001,-24.11,13.164592125,34.5
2021-07-07 11:04:41.992187500,-60.75,-20.0,-10.75,90.53015625,-22.015,13.1627505625,34.5
2021-07-07 11:04:42.000000000,-61.0,-20.0,-11.0,90.53,-19.92,13.160909,34.5
2021-07-07 11:04:42.007812500,-60.75,-20.0,-10.25,90.52953125,-17.240000000000002,13.1596679375,34.4996875
2021-07-07 11:04:42.015625000,-60.5,-20.0,-9.5,90.5290625,-14.56,13.158426875,34.499375
2021-07-07 11:04:42.023437500,-60.25,-20.0,-8.75,90.52859375,-10.365,13.1571858125,34.4990625
2021-07-07 11:04:42.031250000,-60.0,-20.0,-8.0,90.528125,-6.17,13.15594475,34.49875
2021-07-07 11:04:42.039062500,-60.25,-20.0,-8.0,90.52765625,-0.7850000000000001,13.1547036875,34.4984375
2021-07-07 11:04:42.046875000,-60.5,-20.0,-8.0,90.5271875,4.6,13.153462625,34.498125
2021-07-07 11:04:42.054687500,-60.75,-20.0,-8.0,90.52671875,9.79,13.1522215625,34.4978125
2021-07-07 11:04:42.062500000,-61.0,-20.0,-8.0,90.52625,14.98,13.1509805,34.4975
2021-07-07 11:04:42.070312500,-60.75,-20.0,-8.5,90.52578125,18.4,13.149739437500001,34.4971875
2021-07-07 11:04:42.078125000,-60.5,-20.0,-9.0,90.5253125,21.82,13.148498375,34.496875
2021-07-07 11:04:42.085937500,-60.25,-20.0,-9.5,90.52484375,22.665,13.1472573125,34.4965625
2021-07-07 11:04:42.093750000,-60.0,-20.0,-10.0,90.524375,23.51,13.14601625,34.49625
2021-07-07 11:04:42.101562500,-60.5,-20.0,-10.25,90.52390625,22.22,13.1447751875,34.495937500000004
2021-07-07 11:04:42.109375000,-61.0,-20.0,-10.5,90.5234375,20.93,13.143534125,34.495625000000004
2021-07-07 11:04:42.117187500,-61.5,-20.0,-10.75,90.52296875,19.04,13.1422930625,34.495312500000004
2021-07-07 11:04:42.125000000,-62.0,-20.0,-11.0,90.52250000000001,17.15,13.141052,34.495000000000005
2021-07-07 11:04:42.132812500,-61.75,-20.0,-10.5,90.52203125,16.52,13.1398109375,34.4946875
2021-07-07 11:04:42.140625000,-61.5,-20.0,-10.0,90.5215625,15.89,13.138569875,34.494375
2021-07-07 11:04:42.148437500,-61.25,-20.0,-9.5,90.52109375,17.92,13.1373288125,34.4940625
2021-07-07 11:04:42.156250000,-61.0,-20.0,-9.0,90.520625,19.95,13.13608775,34.49375
2021-07-07 11:04:42.164062500,-60.75,-20.0,-8.75,90.52015625,25.0,13.1348466875,34.4934375
2021-07-07 11:04:42.171875000,-60.5,-20.0,-8.5,90.5196875,30.05,13.133605625,34.493125
2021-07-07 11:04:42.179687500,-60.25,-20.0,-8.25,90.51921875000001,37.435,13.1323645625,34.4928125
2021-07-07 11:04:42.187500000,-60.0,-20.0,-8.0,90.51875,44.82,13.131123500000001,34.4925
2021-07-07 11:04:42.195312500,-60.5,-20.0,-9.25,90.51828125,53.125,13.129882437500001,34.4921875
2021-07-07 11:04:42.203125000,-61.0,-20.0,-10.5,90.5178125,61.43,13.128641375,34.491875
2021-07-07 11:04:42.210937500,-61.5,-20.0,-11.75,90.51734375,69.135,13.1274003125,34.4915625
2021-07-07 11:04:42.218750000,-62.0,-20.0,-13.0,90.516875,76.84,13.12615925,34.49125
2021-07-07 11:04:42.226562500,-61.75,-20.0,-12.5,90.51640625,82.78999999999999,13.1249181875,34.4909375
2021-07-07 11:04:42.234375000,-61.5,-20.0,-12.0,90.5159375,88.74,13.123677125,34.490625
2021-07-07 11:04:42.242187500,-61.25,-20.0,-11.5,90.51546875,92.46000000000001,13.1224360625,34.4903125
2021-07-07 11:04:42.250000000,-61.0,-20.0,-11.0,90.515,96.18,13.121195,34.49
2021-07-07 11:04:42.257812500,-60.75,-20.0,-10.25,90.51453125,97.84,13.1206345,34.49
2021-07-07 11:04:42.265625000,-60.5,-20.0,-9.5,90.5140625,99.5,13.120074,34.49
2021-07-07 11:04:42.273437500,-60.25,-20.0,-8.75,90.51359375,99.64500000000001,13.1195135,34.49
2021-07-07 11:04:42.281250000,-60.0,-20.0,-8.0,90.513125,99.79,13.118953,34.49
2021-07-07 11:04:42.289062500,-60.25,-20.0,-8.5,90.51265625,99.025,13.1183925,34.49
2021-07-07 11:04:42.296875000,-60.5,-20.0,-9.0,90.5121875,98.26,13.117832,34.49
2021-07-07 11:04:42.304687500,-60.75,-20.0,-9.5,90.51171875,96.94,13.1172715,34.49
2021-07-07 11:04:42.312500000,-61.0,-20.0,-10.0,90.51125,95.62,13.116711,34.49
2021-07-07 11:04:42.320312500,-61.0,-20.0,-10.25,90.51078125,93.805,13.1161505,34.49
2021-07-07 11:04:42.328125000,-61.0,-20.0,-10.5,90.5103125,91.99,13.11559,34.49
2021-07-07 11:04:42.335937500,-61.0,-20.0,-10.75,90.50984375,89.615,13.1150295,34.49
2021-07-07 11:04:42.343750000,-61.0,-20.0,-11.0,90.509375,87.24,13.114469,34.49
2021-07-07 11:04:42.351562500,-60.75,-20.0,-10.5,90.50890625,84.3,13.113908499999999,34.49
2021-07-07 11:04:42.359375000,-60.5,-20.0,-10.0,90.5084375,81.36,13.113348,34.49
2021-07-07 11:04:42.367187500,-60.25,-20.0,-9.5,90.50796875,78.11500000000001,13.1127875,34.49
2021-07-07 11:04:42.375000000,-60.0,-20.0,-9.0,90.5075,74.87,13.112227,34.49
2021-07-07 11:04:42.382812500,-60.25,-20.0,-9.5,90.50703125,71.815,13.1116665,34.49
2021-07-07 11:04:42.390625000,-60.5,-20.0,-10.0,90.5065625,68.76,13.111106,34.49
2021-07-07 11:04:42.398437500,-60.75,-20.0,-10.5,90.50609375,66.45,13.1105455,34.49
2021-07-07 11:04:42.406250000,-61.0,-20.0,-11.0,90.505625,64.14,13.109985,34.49
2021-07-07 11:04:42.414062500,-61.25,-20.0,-11.0,90.50515625,62.894999999999996,13.1094245,34.49
2021-07-07 11:04:42.421875000,-61.5,-20.0,-11.0,90.5046875,61.65,13.108864,34.49
2021-07-07 11:04:42.429687500,-61.75,-20.0,-11.0,90.50421875,61.375,13.1083035,34.49
2021-07-07 11:04:42.437500000,-62.0,-20.0,-11.0,90.50375,61.1,13.107743,34.49
2021-07-07 11:04:42.445312500,-61.5,-20.0,-10.5,90.50328125,61.24,13.1071825,34.49
2021-07-07 11:04:42.453125000,-61.0,-20.0,-10.0,90.5028125,61.38,13.106622,34.49
2021-07-07 11:04:42.460937500,-60.5,-20.0,-9.5,90.50234375,61.105000000000004,13.1060615,34.49
2021-07-07 11:04:42.468750000,-60.0,-20.0,-9.0,90.501875,60.83,13.105501,34.49
2021-07-07 11:04:42.476562500,-60.25,-20.0,-9.0,90.50140625,59.41,13.1049405,34.49
2021-07-07 11:04:42.484375000,-60.5,-20.0,-9.0,90.5009375,57.99,13.104379999999999,34.49
2021-07-07 11:04:42.492187500,-60.75,-20.0,-9.0,90.50046875,55.1,13.1038195,34.49
2021-07-07 11:04:42.500000000,-61.0,-20.0,-9.0,90.5,52.21,13.103259,34.49
2021-07-07 11:04:42.507812500,-60.75,-20.0,-9.25,90.49953125,48.129999999999995,13.10301878125,34.49
2021-07-07 11:04:42.515625000,-60.5,-20.0,-9.5,90.4990625,44.05,13.1027785625,34.49
2021-07-07 11:04:42.523437500,-60.25,-20.0,-9.75,90.49859375,39.55,13.10253834375,34.49
2021-07-07 11:04:42.531250000,-60.0,-20.0,-10.0,90.498125,35.05,13.102298124999999,34.49
2021-07-07 11:04:42.539062500,-60.25,-20.0,-9.75,90.49765625,31.0,13.10205790625,34.49
2021-07-07 11:04:42.546875000,-60.5,-20.0,-9.5,90.4971875,26.95,13.1018176875,34.49
2021-07-07 11:04:42.554687500,-60.75,-20.0,-9.25,90.49671875,23.905,13.10157746875,34.49
2021-07-07 11:04:42.562500000,-61.0,-20.0,-9.0,90.49625,20.86,13.10133725,34.49
2021-07-07 11:04:42.570312500,-60.75,-20.0,-8.5,90.49578125,18.835,13.10109703125,34.49
2021-07-07 11:04:42.578125000,-60.5,-20.0,-8.0,90.4953125,16.81,13.1008568125,34.49
2021-07-07 11:04:42.585937500,-60.25,-20.0,-7.5,90.49484375,15.344999999999999,13.10061659375,34.49
2021-07-07 11:04:42.593750000,-60.0,-20.0,-7.0,90.494375,13.88,13.100376375,34.49
2021-07-07 11:04:42.601562500,-60.25,-20.0,-8.0,90.49390625,12.38,13.10013615625,34.49
2021-07-07 11:04:42.609375000,-60.5,-20.0,-9.0,90.4934375,10.88,13.0998959375,34.49
2021-07-07 11:04:42.617187500,-60.75,-20.0,-10.0,90.49296875,8.995000000000001,13.09965571875,34.49
2021-07-07 11:04:42.625000000,-61.0,-20.0,-11.0,90.4925,7.11,13.0994155,34.49
2021-07-07 11:04:42.632812500,-61.25,-20.0,-11.0,90.49203125,4.875,13.09917528125,34.49
2021-07-07 11:04:42.640625000,-61.5,-20.0,-11.0,90.4915625,2.64,13.0989350625,34.49
2021-07-07 11:04:42.648437500,-61.75,-20.0,-11.0,90.49109375,0.41000000000000014,13.09869484375,34.49
2021-07-07 11:04:42.656250000,-62.0,-20.0,-11.0,90.490625,-1.82,13.098454625,34.49
2021-07-07 11:04:42.664062500,-61.5,-20.0,-10.5,90.49015625,-3.6849999999999996,13.09821440625,34.49
2021-07-07 11:04:42.671875000,-61.0,-20.0,-10.0,90.4896875,-5.55,13.0979741875,34.49
2021-07-07 11:04:42.679687500,-60.5,-20.0,-9.5,90.48921875,-6.93,13.097733968750001,34.49
2021-07-07 11:04:42.687500000,-60.0,-20.0,-9.0,90.48875,-8.31,13.09749375,34.49
2021-07-07 11:04:42.695312500,-60.25,-20.0,-9.25,90.48828125,-9.42,13.09725353125,34.49
2021-07-07 11:04:42.703125000,-60.5,-20.0,-9.5,90.4878125,-10.53,13.0970133125,34.49
2021-07-07 11:04:42.710937500,-60.75,-20.0,-9.75,90.48734375,-11.809999999999999,13.09677309375,34.49
2021-07-07 11:04:42.718750000,-61.0,-20.0,-10.0,90.486875,-13.09,13.096532875000001,34.49
2021-07-07 11:04:42.726562500,-61.0,-20.0,-10.0,90.48640625,-14.945,13.09629265625,34.49
2021-07-07 11:04:42.734375000,-61.0,-20.0,-10.0,90.4859375,-16.8,13.096052437500001,34.49
2021-07-07 11:04:42.742187500,-61.0,-20.0,-10.0,90.48546875,-19.36,13.09581221875,34.49
2021-07-07 11:04:42.750000000,-61.0,-20.0,-10.0,90.485,-21.92,13.095572,34.49
2021-07-07 11:04:42.757812500,-60.75,-20.25,-9.75,90.48453125,-24.955,13.0946111875,34.49
2021-07-07 11:04:42.765625000,-60.5,-20.5,-9.5,90.4840625,-27.99,13.093650375000001,34.49
2021-07-07 11:04:42.773437500,-60.25,-20.75,-9.25,90.48359375,-30.96,13.0926895625,34.49
2021-07-07 11:04:42.781250000,-60.0,-21.0,-9.0,90.483125,-33.93,13.091728750000001,34.49
2021-07-07 11:04:42.789062500,-60.25,-21.0,-9.25,90.48265625,-36.17,13.0907679375,34.49
2021-07-07 11:04:42.796875000,-60.5,-21.0,-9.5,90.4821875,-38.41,13.089807125,34.49
2021-07-07 11:04:42.804687500,-60.75,-21.0,-9.75,90.48171875,-39.334999999999994,13.088846312500001,34.49
2021-07-07 11:04:42.812500000,-61.0,-21.0,-10.0,90.48125,-40.26,13.0878855,34.49
2021-07-07 11:04:42.820312500,-61.0,-21.0,-10.0,90.48078124999999,-39.57,13.0869246875,34.49
2021-07-07 11:04:42.828125000,-61.0,-21.0,-10.0,90.4803125,-38.88,13.085963875000001,34.49
2021-07-07 11:04:42.835937500,-61.0,-21.0,-10.0,90.47984375,-36.625,13.0850030625,34.49
2021-07-07 11:04:42.843750000,-61.0,-21.0,-10.0,90.479375,-34.37,13.08404225,34.49
2021-07-07 11:04:42.851562500,-60.75,-20.75,-10.0,90.47890625,-30.884999999999998,13.0830814375,34.49
2021-07-07 11:04:42.859375000,-60.5,-20.5,-10.0,90.4784375,-27.4,13.082120625,34.49
2021-07-07 11:04:42.867187500,-60.25,-20.25,-10.0,90.47796875,-23.115,13.081159812500001,34.49
2021-07-07 11:04:42.875000000,-60.0,-20.0,-10.0,90.47749999999999,-18.83,13.080199,34.49
2021-07-07 11:04:42.882812500,-60.25,-20.0,-9.75,90.47703125,-14.129999999999999,13.0792381875,34.49
2021-07-07 11:04:42.890625000,-60.5,-20.0,-9.5,90.4765625,-9.43,13.078277375,34.49
2021-07-07 11:04:42.898437500,-60.75,-20.0,-9.25,90.47609375,-4.6049999999999995,13.0773165625,34.49
2021-07-07 11:04:42.906250000,-61.0,-20.0,-9.0,90.475625,0.22,13.076355750000001,34.49
2021-07-07 11:04:42.914062500,-61.0,-20.0,-9.0,90.47515625,4.909999999999999,13.0753949375,34.49
2021-07-07 11:04:42.921875000,-61.0,-20.0,-9.0,90.4746875,9.6,13.074434125,34.49
2021-07-07 11:04:42.929687500,-61.0,-20.0,-9.0,90.47421875,13.805,13.0734733125,34.49
2021-07-07 11:04:42.937500000,-61.0,-20.0,-9.0,90.47375,18.01,13.0725125,34.49
2021-07-07 11:04:42.945312500,-60.75,-20.0,-9.25,90.47328125,21.36,13.0715516875,34.49
2021-07-07 11:04:42.953125000,-60.5,-20.0,-9.5,90.4728125,24.71,13.070590875,34.49
2021-07-07 11:04:42.960937500,-60.25,-20.0,-9.75,90.47234375,27.005000000000003,13.0696300625,34.49
2021-07-07 11:04:42.968750000,-60.0,-20.0,-10.0,90.471875,29.3,13.06866925,34.49
2021-07-07 11:04:42.976562500,-60.0,-20.0,-10.0,90.47140625,30.735,13.0677084375,34.49
2021-07-07 11:04:42.984375000,-60.0,-20.0,-10.0,90.4709375,32.17,13.066747625,34.49
2021-07-07 11:04:42.992187500,-60.0,-20.0,-10.0,90.47046875,33.39,13.0657868125,34.49
2021-07-07 11:04:43.000000000,-60.0,-20.0,-10.0,90.47,34.61,13.064826,34.49
2021-07-07 11:04:43.007812500,-60.25,-20.0,-10.0,90.46921875,36.465,13.06486603125,34.49
2021-07-07 11:04:43.015625000,-60.5,-20.0,-10.0,90.4684375,38.32,13.0649060625,34.49
2021-07-07 11:04:43.023437500,-60.75,-20.0,-10.0,90.46765625,41.370000000000005,13.06494609375,34.49
2021-07-07 11:04:43.031250000,-61.0,-20.0,-10.0,90.466875,44.42,13.064986125,34.49
2021-07-07 11:04:43.039062500,-61.0,-20.0,-10.25,90.46609375,48.595,13.065026156250001,34.49
2021-07-07 11:04:43.046875000,-61.0,-20.0,-10.5,90.4653125,52.77,13.0650661875,34.49
2021-07-07 11:04:43.054687500,-61.0,-20.0,-10.75,90.46453125,57.30500000000001,13.06510621875,34.49
2021-07-07 11:04:43.062500000,-61.0,-20.0,-11.0,90.46375,61.84,13.06514625,34.49
2021-07-07 11:04:43.070312500,-61.0,-20.0,-10.75,90.46296875,65.61500000000001,13.06518628125,34.49
2021-07-07 11:04:43.078125000,-61.0,-20.0,-10.5,90.4621875,69.39,13.0652263125,34.49
2021-07-07 11:04:43.085937500,-61.0,-20.0,-10.25,90.46140625,71.47999999999999,13.06526634375,34.49
2021-07-07 11:04:43.093750000,-61.0,-20.0,-10.0,90.460625,73.57,13.065306375,34.49
2021-07-07 11:04:43.101562500,-60.75,-20.0,-9.75,90.45984375,73.685,13.06534640625,34.49
2021-07-07 11:04:43.109375000,-60.5,-20.0,-9.5,90.4590625,73.8,13.0653864375,34.49
2021-07-07 11:04:43.117187500,-60.25,-20.0,-9.25,90.45828125,72.32499999999999,13.065426468750001,34.49
2021-07-07 11:04:43.125000000,-60.0,-20.0,-9.0,90.4575,70.85,13.0654665,34.49
2021-07-07 11:04:43.132812500,-60.0,-20.0,-9.0,90.45671875,68.585,13.06550653125,34.49
2021-07-07 11:04:43.140625000,-60.0,-20.0,-9.0,90.4559375,66.32,13.0655465625,34.49
2021-07-07 11:04:43.148437500,-60.0,-20.0,-9.0,90.45515625,64.00999999999999,13.06558659375,34.49
2021-07-07 11:04:43.156250000,-60.0,-20.0,-9.0,90.454375,61.7,13.065626625,34.49
2021-07-07 11:04:43.164062500,-60.25,-20.0,-9.75,90.45359375,59.67,13.06566665625,34.49
2021-07-07 11:04:43.171875000,-60.5,-20.0,-10.5,90.4528125,57.64,13.0657066875,34.49
2021-07-07 11:04:43.179687500,-60.75,-20.0,-11.25,90.45203125,55.79,13.06574671875,34.49
2021-07-07 11:04:43.187500000,-61.0,-20.0,-12.0,90.45125,53.94,13.065786750000001,34.49
2021-07-07 11:04:43.195312500,-61.25,-20.25,-12.0,90.45046875,52.019999999999996,13.065826781250001,34.49
2021-07-07 11:04:43.203125000,-61.5,-20.5,-12.0,90.4496875,50.1,13.065866812500001,34.49
2021-07-07 11:04:43.210937500,-61.75,-20.75,-12.0,90.44890625,48.075,13.06590684375,34.49
2021-07-07 11:04:43.218750000,-62.0,-21.0,-12.0,90.448125,46.05,13.065946875,34.49
2021-07-07 11:04:43.226562500,-61.5,-20.75,-11.0,90.44734375,44.28,13.06598690625,34.49
2021-07-07 11:04:43.234375000,-61.0,-20.5,-10.0,90.4465625,42.51,13.0660269375,34.49
2021-07-07 11:04:43.242187500,-60.5,-20.25,-9.0,90.44578125,41.595,13.06606696875,34.49
2021-07-07 11:04:43.250000000,-60.0,-20.0,-8.0,90.445,40.68,13.066107,34.49
2021-07-07 11:04:43.257812500,-59.75,-20.0,-8.0,90.44421875,41.06,13.065426437500001,34.49
2021-07-07 11:04:43.265625000,-59.5,-20.0,-8.0,90.4434375,41.44,13.064745875,34.49
2021-07-07 11:04:43.273437500,-59.25,-20.0,-8.0,90.44265625,42.95,13.0640653125,34.49
2021-07-07 11:04:43.281250000,-59.0,-20.0,-8.0,90.441875,44.46,13.06338475,34.49
2021-07-07 11:04:43.289062500,-59.5,-20.25,-8.5,90.44109375000001,46.245000000000005,13.0627041875,34.49
2021-07-07 11:04:43.296875000,-60.0,-20.5,-9.0,90.4403125,48.03,13.062023625,34.49
2021-07-07 11:04:43.304687500,-60.5,-20.75,-9.5,90.43953125,48.865,13.0613430625,34.49
2021-07-07 11:04:43.312500000,-61.0,-21.0,-10.0,90.43875,49.7,13.0606625,34.49
2021-07-07 11:04:43.320312500,-61.25,-20.75,-10.25,90.43796875,48.635000000000005,13.0599819375,34.49
2021-07-07 11:04:43.328125000,-61.5,-20.5,-10.5,90.43718750000001,47.57,13.059301375,34.49
2021-07-07 11:04:43.335937500,-61.75,-20.25,-10.75,90.43640625,44.485,13.058620812500001,34.49
2021-07-07 11:04:43.343750000,-62.0,-20.0,-11.0,90.435625,41.4,13.05794025,34.49
2021-07-07 11:04:43.351562500,-61.5,-20.0,-10.5,90.43484375,37.125,13.0572596875,34.49
2021-07-07 11:04:43.359375000,-61.0,-20.0,-10.0,90.4340625,32.85,13.056579125,34.49
2021-07-07 11:04:43.367187500,-60.5,-20.0,-9.5,90.43328125000001,28.72,13.0558985625,34.49
2021-07-07 11:04:43.375000000,-60.0,-20.0,-9.0,90.4325,24.59,13.055218,34.49
2021-07-07 11:04:43.382812500,-60.0,-20.0,-9.0,90.43171875,21.66,13.0545374375,34.49
2021-07-07 11:04:43.390625000,-60.0,-20.0,-9.0,90.4309375,18.73,13.053856875,34.49
2021-07-07 11:04:43.398437500,-60.0,-20.0,-9.0,90.43015625,17.165,13.0531763125,34.49
2021-07-07 11:04:43.406250000,-60.0,-20.0,-9.0,90.42937500000001,15.6,13.05249575,34.49
2021-07-07 11:04:43.414062500,-60.25,-20.0,-9.0,90.42859375,14.61,13.051815187499999,34.49
2021-07-07 11:04:43.421875000,-60.5,-20.0,-9.0,90.4278125,13.62,13.051134625,34.49
2021-07-07 11:04:43.429687500,-60.75,-20.0,-9.0,90.42703125,12.01,13.0504540625,34.49
2021-07-07 11:04:43.437500000,-61.0,-20.0,-9.0,90.42625,10.4,13.0497735,34.49
2021-07-07 11:04:43.445312500,-61.0,-20.0,-9.25,90.42546875000001,7.315,13.0490929375,34.49
2021-07-07 11:04:43.453125000,-61.0,-20.0,-9.5,90.4246875,4.23,13.048412375,34.49
2021-07-07 11:04:43.460937500,-61.0,-20.0,-9.75,90.42390625,-0.27500000000000036,13.0477318125,34.49
2021-07-07 11:04:43.468750000,-61.0,-20.0,-10.0,90.423125,-4.78,13.047051249999999,34.49
2021-07-07 11:04:43.476562500,-61.0,-20.0,-10.25,90.42234375,-9.79,13.0463706875,34.49
2021-07-07 11:04:43.484375000,-61.0,-20.0,-10.5,90.42156250000001,-14.8,13.045690125,34.49
2021-07-07 11:04:43.492187500,-61.0,-20.0,-10.75,90.42078125,-19.04,13.045009562499999,34.49
2021-07-07 11:04:43.500000000,-61.0,-20.0,-11.0,90.42,-23.28,13.044329,34.49
2021-07-07 11:04:43.507812500,-61.0,-20.0,-10.5,90.41921875,-25.705,13.043928625,34.49
2021-07-07 11:04:43.515625000,-61.0,-20.0,-10.0,90.4184375,-28.13,13.04352825,34.49
2021-07-07 11:04:43.523437500,-61.0,-20.0,-9.5,90.41765625000001,-28.29,13.043127875,34.49
2021-07-07 11:04:43.531250000,-61.0,-20.0,-9.0,90.416875,-28.45,13.0427275,34.49
2021-07-07 11:04:43.539062500,-61.0,-20.0,-9.25,90.41609375,-26.45,13.042327125,34.49
2021-07-07 11:04:43.546875000,-61.0,-20.0,-9.5,90.4153125,-24.45,13.04192675,34.49
2021-07-07 11:04:43.554687500,-61.0,-20.0,-9.75,90.41453125,-20.759999999999998,13.041526375,34.49
2021-07-07 11:04:43.562500000,-61.0,-20.0,-10.0,90.41375000000001,-17.07,13.041125999999998,34.49
2021-07-07 11:04:43.570312500,-61.0,-20.0,-10.0,90.41296875,-12.315,13.040725624999999,34.49
2021-07-07 11:04:43.578125000,-61.0,-20.0,-10.0,90.4121875,-7.56,13.040325249999999,34.49
2021-07-07 11:04:43.585937500,-61.0,-20.0,-10.0,90.41140625,-2.5,13.039924874999999,34.49
2021-07-07 11:04:43.593750000,-61.0,-20.0,-10.0,90.410625,2.56,13.039524499999999,34.49
2021-07-07 11:04:43.601562500,-60.75,-19.75,-10.0,90.40984375000001,7.025,13.039124124999999,34.49
2021-07-07 11:04:43.609375000,-60.5,-19.5,-10.0,90.4090625,11.49,13.038723749999999,34.49
2021-07-07 11:04:43.617187500,-60.25,-19.25,-10.0,90.40828125,14.405000000000001,13.038323375,34.49
2021-07-07 11:04:43.625000000,-60.0,-19.0,-10.0,90.4075,17.32,13.037923,34.49
2021-07-07 11:04:43.632812500,-60.0,-19.0,-9.75,90.40671875,17.925,13.037522625,34.49
2021-07-07 11:04:43.640625000,-60.0,-19.0,-9.5,90.40593750000001,18.53,13.03712225,34.49
2021-07-07 11:04:43.648437500,-60.0,-19.0,-9.25,90.40515625,16.625,13.036721875,34.49
2021-07-07 11:04:43.656250000,-60.0,-19.0,-9.0,90.404375,14.72,13.0363215,34.49
2021-07-07 11:04:43.664062500,-60.0,-19.0,-9.0,90.40359375,10.83,13.035921125,34.49
2021-07-07 11:04:43.671875000,-60.0,-19.0,-9.0,90.4028125,6.94,13.03552075,34.49
2021-07-07 11:04:43.679687500,-60.0,-19.0,-9.0,90.40203125000001,2.1000000000000005,13.035120375,34.49
2021-07-07 11:04:43.687500000,-60.0,-19.0,-9.0,90.40125,-2.74,13.03472,34.49
2021-07-07 11:04:43.695312500,-60.25,-19.25,-9.25,90.40046875,-7.39,13.034319624999998,34.49
2021-07-07 11:04:43.703125000,-60.5,-19.5,-9.5,90.3996875,-12.04,13.033919249999999,34.49
2021-07-07 11:04:43.710937500,-60.75,-19.75,-9.75,90.39890625,-15.75,13.033518874999999,34.49
2021-07-07 11:04:43.718750000,-61.0,-20.0,-10.0,90.39812500000001,-19.46,13.033118499999999,34.49
2021-07-07 11:04:43.726562500,-61.0,-20.25,-10.0,90.39734375,-22.060000000000002,13.032718124999999,34.49
2021-07-07 11:04:43.734375000,-61.0,-20.5,-10.0,90.3965625,-24.66,13.032317749999999,34.49
2021-07-07 11:04:43.742187500,-61.0,-20.75,-10.0,90.39578125,-26.47,13.031917374999999,34.49
2021-07-07 11:04:43.750000000,-61.0,-21.0,-10.0,90.39500000000001,-28.28,13.031517,34.49
2021-07-07 11:04:43.757812500,-60.75,-20.75,-10.0,90.39421875000001,-29.78,13.031476968749999,34.49
2021-07-07 11:04:43.765625000,-60.5,-20.5,-10.0,90.3934375,-31.28,13.031436937499999,34.49
2021-07-07 11:04:43.773437500,-60.25,-20.25,-10.0,90.39265625,-32.79,13.031396906249999,34.49
2021-07-07 11:04:43.781250000,-60.0,-20.0,-10.0,90.391875,-34.3,13.031356875,34.49
2021-07-07 11:04:43.789062500,-60.0,-20.0,-10.25,90.39109375000001,-35.87,13.03131684375,34.49
2021-07-07 11:04:43.796875000,-60.0,-20.0,-10.5,90.39031250000001,-37.44,13.0312768125,34.49
2021-07-07 11:04:43.804687500,-60.0,-20.0,-10.75,90.38953125,-38.9,13.03123678125,34.49
2021-07-07 11:04:43.812500000,-60.0,-20.0,-11.0,90.38875,-40.36,13.03119675,34.49
2021-07-07 11:04:43.820312500,-60.25,-20.0,-11.25,90.38796875,-41.495000000000005,13.03115671875,34.49
2021-07-07 11:04:43.828125000,-60.5,-20.0,-11.5,90.38718750000001,-42.63,13.031116687499999,34.49
2021-07-07 11:04:43.835937500,-60.75,-20.0,-11.75,90.38640625000001,-43.230000000000004,13.031076656249999,34.49
2021-07-07 11:04:43.843750000,-61.0,-20.0,-12.0,90.385625,-43.83,13.031036624999999,34.49
2021-07-07 11:04:43.851562500,-61.0,-20.0,-11.5,90.38484375,-43.68,13.03099659375,34.49
2021-07-07 11:04:43.859375000,-61.0,-20.0,-11.0,90.3840625,-43.53,13.0309565625,34.49
2021-07-07 11:04:43.867187500,-61.0,-20.0,-10.5,90.38328125000001,-42.355000000000004,13.03091653125,34.49
2021-07-07 11:04:43.875000000,-61.0,-20.0,-10.0,90.38250000000001,-41.18,13.0308765,34.49
2021-07-07 11:04:43.882812500,-61.0,-20.0,-9.75,90.38171875,-38.68,13.03083646875,34.49
2021-07-07 11:04:43.890625000,-61.0,-20.0,-9.5,90.3809375,-36.18,13.0307964375,34.49
2021-07-07 11:04:43.898437500,-61.0,-20.0,-9.25,90.38015625,-32.165,13.03075640625,34.49
2021-07-07 11:04:43.906250000,-61.0,-20.0,-9.0,90.37937500000001,-28.15,13.030716375,34.49
2021-07-07 11:04:43.914062500,-61.0,-20.0,-9.25,90.37859375000001,-22.7,13.03067634375,34.49
2021-07-07 11:04:43.921875000,-61.0,-20.0,-9.5,90.3778125,-17.25,13.0306363125,34.49
2021-07-07 11:04:43.929687500,-61.0,-20.0,-9.75,90.37703125,-10.77,13.03059628125,34.49
2021-07-07 11:04:43.937500000,-61.0,-20.0,-10.0,90.37625,-4.29,13.03055625,34.49
2021-07-07 11:04:43.945312500,-61.0,-20.0,-10.0,90.37546875000001,2.55,13.03051621875,34.49
2021-07-07 11:04:43.953125000,-61.0,-20.0,-10.0,90.37468750000001,9.39,13.0304761875,34.49
2021-07-07 11:04:43.960937500,-61.0,-20.0,-10.0,90.37390625,15.89,13.03043615625,34.49
2021-07-07 11:04:43.968750000,-61.0,-20.0,-10.0,90.373125,22.39,13.030396125,34.49
2021-07-07 11:04:43.976562500,-61.0,-20.0,-10.25,90.37234375,28.035,13.030356093750001,34.49
2021-07-07 11:04:43.984375000,-61.0,-20.0,-10.5,90.37156250000001,33.68,13.0303160625,34.49
2021-07-07 11:04:43.992187500,-61.0,-20.0,-10.75,90.37078125000001,38.19,13.03027603125,34.49
2021-07-07 11:04:44.000000000,-61.0,-20.0,-11.0,90.37,42.7,13.030236,34.49
2021-07-07 11:04:44.007812500,-61.0,-20.0,-10.75,90.36882812500001,45.94,13.0291150625,34.49
2021-07-07 11:04:44.015625000,-61.0,-20.0,-10.5,90.36765625000001,49.18,13.027994125000001,34.49
2021-07-07 11:04:44.023437500,-61.0,-20.0,-10.25,90.366484375,51.04,13.0268731875,34.49
2021-07-07 11:04:44.031250000,-61.0,-20.0,-10.0,90.3653125,52.9,13.02575225,34.49
2021-07-07 11:04:44.039062500,-61.0,-20.0,-10.0,90.364140625,53.235,13.0246313125,34.49
2021-07-07 11:04:44.046875000,-61.0,-20.0,-10.0,90.36296875000001,53.57,13.023510375,34.49
2021-07-07 11:04:44.054687500,-61.0,-20.0,-10.0,90.36179687500001,52.325,13.0223894375,34.49
2021-07-07 11:04:44.062500000,-61.0,-20.0,-10.0,90.360625,51.08,13.0212685,34.49
2021-07-07 11:04:44.070312500,-61.0,-20.0,-10.0,90.359453125,48.435,13.0201475625,34.49
2021-07-07 11:04:44.078125000,-61.0,-20.0,-10.0,90.35828125,45.79,13.019026625,34.49
2021-07-07 11:04:44.085937500,-61.0,-20.0,-10.0,90.35710937500001,42.235,13.0179056875,34.49
2021-07-07 11:04:44.093750000,-61.0,-20.0,-10.0,90.35593750000001,38.68,13.01678475,34.49
2021-07-07 11:04:44.101562500,-61.0,-20.0,-10.0,90.354765625,34.915,13.0156638125,34.49
2021-07-07 11:04:44.109375000,-61.0,-20.0,-10.0,90.35359375,31.15,13.014542875,34.49
2021-07-07 11:04:44.117187500,-61.0,-20.0,-10.0,90.352421875,27.82,13.0134219375,34.49
2021-07-07 11:04:44.125000000,-61.0,-20.0,-10.0,90.35125000000001,24.49,13.012301,34.49
2021-07-07 11:04:44.132812500,-61.0,-20.0,-10.25,90.35007812500001,21.96,13.0111800625,34.49
2021-07-07 11:04:44.140625000,-61.0,-20.0,-10.5,90.34890625,19.43,13.010059125,34.49
2021-07-07 11:04:44.148437500,-61.0,-20.0,-10.75,90.347734375,17.685,13.0089381875,34.49
2021-07-07 11:04:44.156250000,-61.0,-20.0,-11.0,90.3465625,15.94,13.00781725,34.49
2021-07-07 11:04:44.164062500,-60.75,-20.0,-10.75,90.34539062500001,14.719999999999999,13.006696312499999,34.49
2021-07-07 11:04:44.171875000,-60.5,-20.0,-10.5,90.34421875000001,13.5,13.005575375,34.49
2021-07-07 11:04:44.179687500,-60.25,-20.0,-10.25,90.343046875,12.55,13.0044544375,34.49
2021-07-07 11:04:44.187500000,-60.0,-20.0,-10.0,90.341875,11.6,13.0033335,34.49
2021-07-07 11:04:44.195312500,-60.25,-20.0,-10.25,90.340703125,10.870000000000001,13.0022125625,34.49
2021-07-07 11:04:44.203125000,-60.5,-20.0,-10.5,90.33953125000001,10.14,13.001091624999999,34.49
2021-07-07 11:04:44.210937500,-60.75,-20.0,-10.75,90.33835937500001,9.785,12.9999706875,34.49
2021-07-07 11:04:44.218750000,-61.0,-20.0,-11.0,90.3371875,9.43,12.99884975,34.49
2021-07-07 11:04:44.226562500,-61.0,-20.0,-11.0,90.336015625,9.655000000000001,12.9977288125,34.49
2021-07-07 11:04:44.234375000,-61.0,-20.0,-11.0,90.33484375,9.88,12.996607874999999,34.49
2021-07-07 11:04:44.242187500,-61.0,-20.0,-11.0,90.33367187500001,10.735,12.995486937499999,34.49
2021-07-07 11:04:44.250000000,-61.0,-20.0,-11.0,90.33250000000001,11.59,12.994366,34.49
2021-07-07 11:04:44.257812500,-60.75,-20.0,-11.0,90.331328125,12.825,12.994646218749999,34.49
2021-07-07 11:04:44.265625000,-60.5,-20.0,-11.0,90.33015625,14.06,12.9949264375,34.49
2021-07-07 11:04:44.273437500,-60.25,-20.0,-11.0,90.328984375,15.219999999999999,12.99520665625,34.49
2021-07-07 11:04:44.281250000,-60.0,-20.0,-11.0,90.32781250000001,16.38,12.995486875,34.49
2021-07-07 11:04:44.289062500,-60.25,-20.0,-10.75,90.326640625,17.03,12.995767093749999,34.49
2021-07-07 11:04:44.296875000,-60.5,-20.0,-10.5,90.32546875,17.68,12.9960473125,34.49
2021-07-07 11:04:44.304687500,-60.75,-20.0,-10.25,90.324296875,17.66,12.99632753125,34.49
2021-07-07 11:04:44.312500000,-61.0,-20.0,-10.0,90.323125,17.64,12.996607749999999,34.49
2021-07-07 11:04:44.320312500,-61.0,-20.0,-10.0,90.32195312500001,17.18,12.99688796875,34.49
2021-07-07 11:04:44.328125000,-61.0,-20.0,-10.0,90.32078125,16.72,12.9971681875,34.49
2021-07-07 11:04:44.335937500,-61.0,-20.0,-10.0,90.319609375,16.345,12.99744840625,34.49
2021-07-07 11:04:44.343750000,-61.0,-20.0,-10.0,90.3184375,15.97,12.997728624999999,34.49
2021-07-07 11:04:44.351562500,-61.0,-20.0,-10.25,90.317265625,16.245,12.99800884375,34.49
2021-07-07 11:04:44.359375000,-61.0,-20.0,-10.5,90.31609375000001,16.52,12.9982890625,34.49
2021-07-07 11:04:44.367187500,-61.0,-20.0,-10.75,90.314921875,17.77,12.998569281249999,34.49
2021-07-07 11:04:44.375000000,-61.0,-20.0,-11.0,90.31375,19.02,12.998849499999999,34.49
2021-07-07 11:04:44.382812500,-61.0,-20.0,-10.75,90.312578125,21.155,12.99912971875,34.49
2021-07-07 11:04:44.390625000,-61.0,-20.0,-10.5,90.31140625,23.29,12.9994099375,34.49
2021-07-07 11:04:44.398437500,-61.0,-20.0,-10.25,90.31023437500001,25.825,12.999690156249999,34.49
2021-07-07 11:04:44.406250000,-61.0,-20.0,-10.0,90.3090625,28.36,12.999970375,34.49
2021-07-07 11:04:44.414062500,-61.0,-20.0,-10.25,90.307890625,30.63,13.00025059375,34.49
2021-07-07 11:04:44.421875000,-61.0,-20.0,-10.5,90.30671875,32.9,13.0005308125,34.49
2021-07-07 11:04:44.429687500,-61.0,-20.0,-10.75,90.305546875,34.345,13.000811031249999,34.49
2021-07-07 11:04:44.437500000,-61.0,-20.0,-11.0,90.30437500000001,35.79,13.00109125,34.49
2021-07-07 11:04:44.445312500,-61.0,-20.0,-11.0,90.303203125,36.155,13.00137146875,34.49
2021-07-07 11:04:44.453125000,-61.0,-20.0,-11.0,90.30203125,36.52,13.001651687499999,34.49
2021-07-07 11:04:44.460937500,-61.0,-20.0,-11.0,90.300859375,35.91,13.00193190625,34.49
2021-07-07 11:04:44.468750000,-61.0,-20.0,-11.0,90.2996875,35.3,13.002212125,34.49
2021-07-07 11:04:44.476562500,-61.0,-20.0,-10.5,90.29851562500001,34.035,13.00249234375,34.49
2021-07-07 11:04:44.484375000,-61.0,-20.0,-10.0,90.29734375,32.77,13.002772562499999,34.49
2021-07-07 11:04:44.492187500,-61.0,-20.0,-9.5,90.296171875,31.21,13.00305278125,34.49
2021-07-07 11:04:44.500000000,-61.0,-20.0,-9.0,90.295,29.65,13.003333,34.49
2021-07-07 11:04:44.507812500,-61.0,-20.0,-9.0,90.293828125,27.994999999999997,13.003212906249999,34.49
2021-07-07 11:04:44.515625000,-61.0,-20.0,-9.0,90.29265625000001,26.34,13.0030928125,34.49
2021-07-07 11:04:44.523437500,-61.0,-20.0,-9.0,90.291484375,24.655,13.00297271875,34.49
2021-07-07 11:04:44.531250000,-61.0,-20.0,-9.0,90.2903125,22.97,13.002852625,34.49
2021-07-07 11:04:44.539062500,-61.0,-20.0,-9.25,90.289140625,21.185,13.00273253125,34.49
2021-07-07 11:04:44.546875000,-61.0,-20.0,-9.5,90.28796875,19.4,13.0026124375,34.49
2021-07-07 11:04:44.554687500,-61.0,-20.0,-9.75,90.28679687500001,17.49,13.00249234375,34.49
2021-07-07 11:04:44.562500000,-61.0,-20.0,-10.0,90.285625,15.58,13.00237225,34.49
2021-07-07 11:04:44.570312500,-61.0,-20.0,-10.0,90.284453125,13.575,13.00225215625,34.49
2021-07-07 11:04:44.578125000,-61.0,-20.0,-10.0,90.28328125,11.57,13.0021320625,34.49
2021-07-07 11:04:44.585937500,-61.0,-20.0,-10.0,90.282109375,9.6,13.002011968749999,34.49
2021-07-07 11:04:44.593750000,-61.0,-20.0,-10.0,90.28093750000001,7.63,13.001891875,34.49
2021-07-07 11:04:44.601562500,-60.75,-20.0,-10.0,90.279765625,5.795,13.00177178125,34.49
2021-07-07 11:04:44.609375000,-60.5,-20.0,-10.0,90.27859375,3.96,13.001651687499999,34.49
2021-07-07 11:04:44.617187500,-60.25,-20.0,-10.0,90.277421875,2.315,13.00153159375,34.49
2021-07-07 11:04:44.625000000,-60.0,-20.0,-10.0,90.27625,0.67,13.0014115,34.49
2021-07-07 11:04:44.632812500,-60.0,-20.0,-10.0,90.27507812500001,-0.85,13.00129140625,34.49
2021-07-07 11:04:44.640625000,-60.0,-20.0,-10.0,90.27390625,-2.37,13.0011713125,34.49
2021-07-07 11:04:44.648437500,-60.0,-20.0,-10.0,90.272734375,-3.855,13.00105121875,34.49
2021-07-07 11:04:44.656250000,-60.0,-20.0,-10.0,90.2715625,-5.34,13.000931125,34.49
2021-07-07 11:04:44.664062500,-60.25,-20.0,-10.25,90.270390625,-6.825,13.00081103125,34.49
2021-07-07 11:04:44.671875000,-60.5,-20.0,-10.5,90.26921875000001,-8.31,13.0006909375,34.49
2021-07-07 11:04:44.679687500,-60.75,-20.0,-10.75,90.268046875,-9.735,13.00057084375,34.49
2021-07-07 11:04:44.687500000,-61.0,-20.0,-11.0,90.266875,-11.16,13.000450749999999,34.49
2021-07-07 11:04:44.695312500,-61.0,-20.0,-10.75,90.265703125,-12.385,13.00033065625,34.49
2021-07-07 11:04:44.703125000,-61.0,-20.0,-10.5,90.26453125,-13.61,13.0002105625,34.49
2021-07-07 11:04:44.710937500,-61.0,-20.0,-10.25,90.26335937500001,-14.52,13.000090468749999,34.49
2021-07-07 11:04:44.718750000,-61.0,-20.0,-10.0,90.2621875,-15.43,12.999970375,34.49
2021-07-07 11:04:44.726562500,-61.0,-20.0,-10.0,90.261015625,-16.04,12.99985028125,34.49
2021-07-07 11:04:44.734375000,-61.0,-20.0,-10.0,90.25984375,-16.65,12.999730187499999,34.49
2021-07-07 11:04:44.742187500,-61.0,-20.0,-10.0,90.258671875,-17.21,12.99961009375,34.49
2021-07-07 11:04:44.750000000,-61.0,-20.0,-10.0,90.2575,-17.77,12.99949,34.49
2021-07-07 11:04:44.757812500,-61.0,-20.0,-9.75,90.256328125,-18.725,12.9991296875,34.49
2021-07-07 11:04:44.765625000,-61.0,-20.0,-9.5,90.25515625,-19.68,12.998769375,34.49
2021-07-07 11:04:44.773437500,-61.0,-20.0,-9.25,90.253984375,-21.57,12.9984090625,34.49
2021-07-07 11:04:44.781250000,-61.0,-20.0,-9.0,90.2528125,-23.46,12.998048749999999,34.49
2021-07-07 11:04:44.789062500,-60.75,-20.0,-9.25,90.251640625,-26.695,12.997688437499999,34.49
2021-07-07 11:04:44.796875000,-60.5,-20.0,-9.5,90.25046875,-29.93,12.997328125,34.49
2021-07-07 11:04:44.804687500,-60.25,-20.0,-9.75,90.249296875,-34.58,12.9969678125,34.49
2021-07-07 11:04:44.812500000,-60.0,-20.0,-10.0,90.248125,-39.23,12.9966075,34.49
2021-07-07 11:04:44.820312500,-60.25,-20.0,-10.25,90.246953125,-44.885,12.9962471875,34.49
2021-07-07 11:04:44.828125000,-60.5,-20.0,-10.5,90.24578125,-50.54,12.995886875,34.49
2021-07-07 11:04:44.835937500,-60.75,-20.0,-10.75,90.244609375,-56.34,12.9955265625,34.49
2021-07-07 11:04:44.843750000,-61.0,-20.0,-11.0,90.2434375,-62.14,12.99516625,34.49
2021-07-07 11:04:44.851562500,-60.75,-20.0,-10.75,90.242265625,-67.0,12.994805937499999,34.49
2021-07-07 11:04:44.859375000,-60.5,-20.0,-10.5,90.24109375,-71.86,12.994445624999999,34.49
2021-07-07 11:04:44.867187500,-60.25,-20.0,-10.25,90.239921875,-74.775,12.9940853125,34.49
2021-07-07 11:04:44.875000000,-60.0,-20.0,-10.0,90.23875,-77.69,12.993725,34.49
2021-07-07 11:04:44.882812500,-60.25,-20.0,-9.75,90.237578125,-78.06,12.9933646875,34.49
2021-07-07 11:04:44.890625000,-60.5,-20.0,-9.5,90.23640625,-78.43,12.993004375,34.49
2021-07-07 11:04:44.898437500,-60.75,-20.0,-9.25,90.235234375,-76.19,12.9926440625,34.49
2021-07-07 11:04:44.906250000,-61.0,-20.0,-9.0,90.2340625,-73.95,12.992283749999999,34.49
2021-07-07 11:04:44.914062500,-61.0,-19.75,-9.5,90.232890625,-69.58500000000001,12.991923437499999,34.49
2021-07-07 11:04:44.921875000,-61.0,-19.5,-10.0,90.23171875,-65.22,12.991563124999999,34.49
2021-07-07 11:04:44.929687500,-61.0,-19.25,-10.5,90.230546875,-59.555,12.9912028125,34.49
2021-07-07 11:04:44.937500000,-61.0,-19.0,-11.0,90.229375,-53.89,12.9908425,34.49
2021-07-07 11:04:44.945312500,-61.0,-19.25,-11.0,90.228203125,-47.870000000000005,12.9904821875,34.49
2021-07-07 11:04:44.953125000,-61.0,-19.5,-11.0,90.22703125,-41.85,12.990121875,34.49
2021-07-07 11:04:44.960937500,-61.0,-19.75,-11.0,90.225859375,-36.35,12.9897615625,34.49
2021-07-07 11:04:44.968750000,-61.0,-20.0,-11.0,90.2246875,-30.85,12.98940125,34.49
2021-07-07 11:04:44.976562500,-61.0,-20.0,-10.75,90.223515625,-26.48,12.989040937499999,34.49
2021-07-07 11:04:44.984375000,-61.0,-20.0,-10.5,90.22234375,-22.11,12.988680624999999,34.49
2021-07-07 11:04:44.992187500,-61.0,-20.0,-10.25,90.221171875,-19.105,12.988320312499999,34.49
2021-07-07 11:04:45.000000000,-61.0,-20.0,-10.0,90.22,-16.1,12.98796,34.49
2021-07-07 11:04:45.007812500,-61.0,-20.0,-10.0,90.219296875,-14.280000000000001,12.98775984375,34.49
2021-07-07 11:04:45.015625000,-61.0,-20.0,-10.0,90.21859375,-12.46,12.9875596875,34.49
2021-07-07 11:04:45.023437500,-61.0,-20.0,-10.0,90.217890625,-11.33,12.98735953125,34.49
2021-07-07 11:04:45.031250000,-61.0,-20.0,-10.0,90.2171875,-10.2,12.987159375,34.49
2021-07-07 11:04:45.039062500,-61.0,-20.0,-10.0,90.216484375,-9.155,12.98695921875,34.49
2021-07-07 11:04:45.046875000,-61.0,-20.0,-10.0,90.21578124999999,-8.11,12.9867590625,34.49
2021-07-07 11:04:45.054687500,-61.0,-20.0,-10.0,90.215078125,-6.734999999999999,12.98655890625,34.49
2021-07-07 11:04:45.062500000,-61.0,-20.0,-10.0,90.214375,-5.36,12.986358749999999,34.49
2021-07-07 11:04:45.070312500,-61.0,-20.0,-9.75,90.213671875,-3.615,12.98615859375,34.49
2021-07-07 11:04:45.078125000,-61.0,-20.0,-9.5,90.21296875,-1.87,12.985958437499999,34.49
2021-07-07 11:04:45.085937500,-61.0,-20.0,-9.25,90.212265625,-0.14000000000000012,12.98575828125,34.49
2021-07-07 11:04:45.093750000,-61.0,-20.0,-9.0,90.2115625,1.59,12.985558124999999,34.49
2021-07-07 11:04:45.101562500,-60.75,-20.0,-9.5,90.210859375,2.7199999999999998,12.98535796875,34.49
2021-07-07 11:04:45.109375000,-60.5,-20.0,-10.0,90.21015625,3.85,12.985157812499999,34.49
2021-07-07 11:04:45.117187500,-60.25,-20.0,-10.5,90.209453125,3.955,12.98495765625,34.49
2021-07-07 11:04:45.125000000,-60.0,-20.0,-11.0,90.20875,4.06,12.9847575,34.49
2021-07-07 11:04:45.132812500,-60.0,-20.0,-10.75,90.208046875,3.1449999999999996,12.98455734375,34.49
2021-07-07 11:04:45.140625000,-60.0,-20.0,-10.5,90.20734374999999,2.23,12.9843571875,34.49
2021-07-07 11:04:45.148437500,-60.0,-20.0,-10.25,90.20664062499999,0.7749999999999999,12.98415703125,34.49
2021-07-07 11:04:45.156250000,-60.0,-20.0,-10.0,90.2059375,-0.68,12.983956875,34.49
2021-07-07 11:04:45.164062500,-60.25,-20.0,-10.25,90.205234375,-1.955,12.98375671875,34.49
2021-07-07 11:04:45.171875000,-60.5,-20.0,-10.5,90.20453125,-3.23,12.9835565625,34.49
2021-07-07 11:04:45.179687500,-60.75,-20.0,-10.75,90.203828125,-3.74,12.98335640625,34.49
2021-07-07 11:04:45.187500000,-61.0,-20.0,-11.0,90.203125,-4.25,12.98315625,34.49
2021-07-07 11:04:45.195312500,-61.0,-20.0,-11.25,90.202421875,-3.815,12.98295609375,34.49
2021-07-07 11:04:45.203125000,-61.0,-20.0,-11.5,90.20171875,-3.38,12.9827559375,34.49
2021-07-07 11:04:45.210937500,-61.0,-20.0,-11.75,90.201015625,-2.275,12.98255578125,34.49
2021-07-07 11:04:45.218750000,-61.0,-20.0,-12.0,90.2003125,-1.17,12.982355625,34.49
2021-07-07 11:04:45.226562500,-60.75,-20.0,-11.75,90.199609375,0.08499999999999996,12.98215546875,34.49
2021-07-07 11:04:45.234375000,-60.5,-20.0,-11.5,90.19890625,1.34,12.9819553125,34.49
2021-07-07 11:04:45.242187500,-60.25,-20.0,-11.25,90.19820312499999,2.31,12.98175515625,34.49
2021-07-07 11:04:45.250000000,-60.0,-20.0,-11.0,90.19749999999999,3.28,12.981555,34.49
2021-07-07 11:04:45.257812500,-60.0,-20.0,-10.75,90.196796875,3.8149999999999995,12.98103453125,34.49
2021-07-07 11:04:45.265625000,-60.0,-20.0,-10.5,90.19609375,4.35,12.9805140625,34.49
2021-07-07 11:04:45.273437500,-60.0,-20.0,-10.25,90.195390625,4.63,12.97999359375,34.49
2021-07-07 11:04:45.281250000,-60.0,-20.0,-10.0,90.1946875,4.91,12.979473125,34.49
2021-07-07 11:04:45.289062500,-60.0,-20.0,-10.25,90.193984375,5.234999999999999,12.97895265625,34.49
2021-07-07 11:04:45.296875000,-60.0,-20.0,-10.5,90.19328125,5.56,12.978432187500001,34.49
2021-07-07 11:04:45.304687500,-60.0,-20.0,-10.75,90.192578125,6.145,12.97791171875,34.49
2021-07-07 11:04:45.312500000,-60.0,-20.0,-11.0,90.191875,6.73,12.97739125,34.49
2021-07-07 11:04:45.320312500,-60.25,-20.0,-11.25,90.191171875,7.575,12.97687078125,34.49
2021-07-07 11:04:45.328125000,-60.5,-20.0,-11.5,90.19046875,8.42,12.9763503125,34.49
2021-07-07 11:04:45.335937500,-60.75,-20.0,-11.75,90.18976562499999,9.344999999999999,12.97582984375,34.49
2021-07-07 11:04:45.343750000,-61.0,-20.0,-12.0,90.18906249999999,10.27,12.975309375,34.49
2021-07-07 11:04:45.351562500,-60.75,-20.0,-11.75,90.188359375,11.075,12.97478890625,34.49
2021-07-07 11:04:45.359375000,-60.5,-20.0,-11.5,90.18765625,11.88,12.974268437500001,34.49
2021-07-07 11:04:45.367187500,-60.25,-20.0,-11.25,90.186953125,12.5,12.97374796875,34.49
2021-07-07 11:04:45.375000000,-60.0,-20.0,-11.0,90.18625,13.12,12.9732275,34.49
2021-07-07 11:04:45.382812500,-60.25,-20.0,-11.0,90.185546875,13.59,12.97270703125,34.49
2021-07-07 11:04:45.390625000,-60.5,-20.0,-11.0,90.18484375,14.06,12.9721865625,34.49
2021-07-07 11:04:45.398437500,-60.75,-20.0,-11.0,90.184140625,14.415,12.97166609375,34.49
2021-07-07 11:04:45.406250000,-61.0,-20.0,-11.0,90.1834375,14.77,12.971145625,34.49
2021-07-07 11:04:45.414062500,-60.75,-20.0,-11.0,90.182734375,14.844999999999999,12.97062515625,34.49
2021-07-07 11:04:45.421875000,-60.5,-20.0,-11.0,90.18203125,14.92,12.970104687500001,34.49
2021-07-07 11:04:45.429687500,-60.25,-20.0,-11.0,90.181328125,14.344999999999999,12.96958421875,34.49
2021-07-07 11:04:45.437500000,-60.0,-20.0,-11.0,90.18062499999999,13.77,12.96906375,34.49
2021-07-07 11:04:45.445312500,-60.0,-20.0,-11.25,90.17992187499999,12.1,12.96854328125,34.49
2021-07-07 11:04:45.453125000,-60.0,-20.0,-11.5,90.17921875,10.43,12.9680228125,34.49
2021-07-07 11:04:45.460937500,-60.0,-20.0,-11.75,90.178515625,7.404999999999999,12.96750234375,34.49
2021-07-07 11:04:45.468750000,-60.0,-20.0,-12.0,90.1778125,4.38,12.966981875,34.49
2021-07-07 11:04:45.476562500,-60.0,-20.0,-11.75,90.177109375,0.14500000000000046,12.96646140625,34.49
2021-07-07 11:04:45.484375000,-60.0,-20.0,-11.5,90.17640625,-4.09,12.965940937500001,34.49
2021-07-07 11:04:45.492187500,-60.0,-20.0,-11.25,90.175703125,-8.955,12.96542046875,34.49
2021-07-07 11:04:45.500000000,-60.0,-20.0,-11.0,90.175,-13.82,12.9649,34.49
2021-07-07 11:04:45.507812500,-60.25,-20.0,-11.0,90.174296875,-18.48,12.9649198125,34.49
2021-07-07 11:04:45.515625000,-60.5,-20.0,-11.0,90.17359375,-23.14,12.964939625,34.49
2021-07-07 11:04:45.523437500,-60.75,-20.0,-11.0,90.172890625,-26.84,12.9649594375,34.49
2021-07-07 11:04:45.531250000,-61.0,-20.0,-11.0,90.17218749999999,-30.54,12.96497925,34.49
2021-07-07 11:04:45.539062500,-61.0,-20.0,-11.0,90.17148437499999,-32.805,12.9649990625,34.49
2021-07-07 11:04:45.546875000,-61.0,-20.0,-11.0,90.17078124999999,-35.07,12.965018875,34.49
2021-07-07 11:04:45.554687500,-61.0,-20.0,-11.0,90.170078125,-35.83,12.9650386875,34.49
2021-07-07 11:04:45.562500000,-61.0,-20.0,-11.0,90.169375,-36.59,12.9650585,34.49
