TimeStamp,empatica.acc.x,empatica.acc.y,empatica.acc.z,empatica.hr,empatica.bvp,empatica.eda,empatica.temp
2021-07-07 11:00:05.515625000,-57.0,-25.0,-17.0,63.18,10.39,15.926378875,34.53
2021-07-07 11:00:05.523437500,-57.0,-25.0,-17.0,63.18,8.915000000000001,15.9262988125,34.53
2021-07-07 11:00:05.531250000,-57.0,-25.0,-17.0,63.18,7.44,15.92621875,34.53
2021-07-07 11:00:05.539062500,-57.0,-25.0,-17.0,63.18,5.975,15.9261386875,34.53
2021-07-07 11:00:05.546875000,-57.0,-25.0,-17.0,63.18,4.51,15.926058625,34.53
2021-07-07 11:00:05.554687500,-57.0,-25.0,-17.0,63.18,3.085,15.925978562500001,34.53
2021-07-07 11:00:05.562500000,-57.0,-25.0,-17.0,63.18,1.66,15.9258985,34.53
2021-07-07 11:00:05.570312500,-57.0,-25.0,-17.0,63.18,0.30000000000000004,15.9258184375,34.53
2021-07-07 11:00:05.578125000,-57.0,-25.0,-17.0,63.18,-1.06,15.925738375,34.53
2021-07-07 11:00:05.585937500,-57.0,-25.0,-17.0,63.18,-2.325,15.9256583125,34.53
2021-07-07 11:00:05.593750000,-57.0,-25.0,-17.0,63.18,-3.59,15.925578250000001,34.53
2021-07-07 11:00:05.601562500,-57.0,-25.0,-17.0,63.18,-4.74,15.9254981875,34.53
2021-07-07 11:00:05.609375000,-57.0,-25.0,-17.0,63.18,-5.89,15.925418125,34.53
2021-07-07 11:00:05.617187500,-57.0,-25.0,-17.0,63.18,-6.9,15.9253380625,34.53
2021-07-07 11:00:05.625000000,-57.0,-25.0,-17.0,63.18,-7.91,15.925258,34.53
2021-07-07 11:00:05.632812500,-57.0,-25.0,-17.0,63.18,-8.765,15.9251779375,34.53
2021-07-07 11:00:05.640625000,-57.0,-25.0,-17.0,63.18,-9.62,15.925097875,34.53
2021-07-07 11:00:05.648437500,-57.0,-25.0,-17.0,63.18,-10.35,15.9250178125,34.53
2021-07-07 11:00:05.656250000,-57.0,-25.0,-17.0,63.18,-11.08,15.92493775,34.53
2021-07-07 11:00:05.664062500,-57.0,-25.0,-17.0,63.18,-11.754999999999999,15.924857687500001,34.53
2021-07-07 11:00:05.671875000,-57.0,-25.0,-17.0,63.18,-12.43,15.924777625,34.53
2021-07-07 11:00:05.679687500,-57.0,-25.0,-17.0,63.18,-13.135,15.9246975625,34.53
2021-07-07 11:00:05.687500000,-57.0,-25.0,-17.0,63.18,-13.84,15.9246175,34.53
2021-07-07 11:00:05.695312500,-57.25,-25.0,-17.0,63.18,-14.66,15.9245374375,34.53
2021-07-07 11:00:05.703125000,-57.5,-25.0,-17.0,63.18,-15.48,15.924457375000001,34.53
2021-07-07 11:00:05.710937500,-57.75,-25.0,-17.0,63.18,-16.439999999999998,15.9243773125,34.53
2021-07-07 11:00:05.718750000,-58.0,-25.0,-17.0,63.18,-17.4,15.92429725,34.53
2021-07-07 11:00:05.726562500,-57.75,-25.0,-17.0,63.18,-18.445,15.9242171875,34.53
2021-07-07 11:00:05.734375000,-57.5,-25.0,-17.0,63.18,-19.49,15.924137125000001,34.53
2021-07-07 11:00:05.742187500,-57.25,-25.0,-17.0,63.18,-20.509999999999998,15.924057062500001,34.53
2021-07-07 11:00:05.750000000,-57.0,-25.0,-17.0,63.18,-21.53,15.923977,34.53
2021-07-07 11:00:05.757812500,-57.0,-25.0,-17.0,63.18,-22.435000000000002,15.923336468750001,34.53
2021-07-07 11:00:05.765625000,-57.0,-25.0,-17.0,63.18,-23.34,15.9226959375,34.53
2021-07-07 11:00:05.773437500,-57.0,-25.0,-17.0,63.18,-24.064999999999998,15.922055406250001,34.53
2021-07-07 11:00:05.781250000,-57.0,-25.0,-17.0,63.18,-24.79,15.921414875,34.53
2021-07-07 11:00:05.789062500,-57.0,-25.0,-16.75,63.18,-25.375,15.92077434375,34.53
2021-07-07 11:00:05.796875000,-57.0,-25.0,-16.5,63.18,-25.96,15.920133812500001,34.53
2021-07-07 11:00:05.804687500,-57.0,-25.0,-16.25,63.18,-26.475,15.91949328125,34.53
2021-07-07 11:00:05.812500000,-57.0,-25.0,-16.0,63.18,-26.99,15.918852750000001,34.53
2021-07-07 11:00:05.820312500,-57.0,-24.75,-16.25,63.18,-27.549999999999997,15.91821221875,34.53
2021-07-07 11:00:05.828125000,-57.0,-24.5,-16.5,63.18,-28.11,15.9175716875,34.53
2021-07-07 11:00:05.835937500,-57.0,-24.25,-16.75,63.18,-28.805,15.916931156250001,34.53
2021-07-07 11:00:05.843750000,-57.0,-24.0,-17.0,63.18,-29.5,15.916290625,34.53
2021-07-07 11:00:05.851562500,-57.0,-24.25,-17.0,63.18,-30.42,15.915650093750001,34.53
2021-07-07 11:00:05.859375000,-57.0,-24.5,-17.0,63.18,-31.34,15.9150095625,34.53
2021-07-07 11:00:05.867187500,-57.0,-24.75,-17.0,63.18,-32.54,15.91436903125,34.53
2021-07-07 11:00:05.875000000,-57.0,-25.0,-17.0,63.18,-33.74,15.913728500000001,34.53
2021-07-07 11:00:05.882812500,-57.0,-25.0,-17.0,63.18,-35.24,15.91308796875,34.53
2021-07-07 11:00:05.890625000,-57.0,-25.0,-17.0,63.18,-36.74,15.912447437500001,34.53
2021-07-07 11:00:05.898437500,-57.0,-25.0,-17.0,63.18,-38.45,15.91180690625,34.53
2021-07-07 11:00:05.906250000,-57.0,-25.0,-17.0,63.18,-40.16,15.911166375,34.53
2021-07-07 11:00:05.914062500,-57.0,-25.0,-17.0,63.18,-41.864999999999995,15.91052584375,34.53
2021-07-07 11:00:05.921875000,-57.0,-25.0,-17.0,63.18,-43.57,15.9098853125,34.53
2021-07-07 11:00:05.929687500,-57.0,-25.0,-17.0,63.18,-44.9,15.90924478125,34.53
2021-07-07 11:00:05.937500000,-57.0,-25.0,-17.0,63.18,-46.23,15.90860425,34.53
2021-07-07 11:00:05.945312500,-57.0,-25.0,-17.0,63.18,-46.76,15.90796371875,34.53
2021-07-07 11:00:05.953125000,-57.0,-25.0,-17.0,63.18,-47.29,15.9073231875,34.53
2021-07-07 11:00:05.960937500,-57.0,-25.0,-17.0,63.18,-46.625,15.90668265625,34.53
2021-07-07 11:00:05.968750000,-57.0,-25.0,-17.0,63.18,-45.96,15.906042125,34.53
2021-07-07 11:00:05.976562500,-57.0,-25.0,-17.0,63.18,-43.92,15.90540159375,34.53
2021-07-07 11:00:05.984375000,-57.0,-25.0,-17.0,63.18,-41.88,15.9047610625,34.53
2021-07-07 11:00:05.992187500,-57.0,-25.0,-17.0,63.18,-38.545,15.90412053125,34.53
2021-07-07 11:00:06.000000000,-57.0,-25.0,-17.0,63.18,-35.21,15.90348,34.53
2021-07-07 11:00:06.007812500,-57.0,-24.75,-17.0,63.18015625,-30.9,15.902038750000001,34.5290625
2021-07-07 11:00:06.015625000,-57.0,-24.5,-17.0,63.1803125,-26.59,15.9005975,34.528125
2021-07-07 11:00:06.023437500,-57.0,-24.25,-17.0,63.18046875,-21.805,15.89915625,34.527187500000004
2021-07-07 11:00:06.031250000,-57.0,-24.0,-17.0,63.180625,-17.02,15.897715,34.526250000000005
2021-07-07 11:00:06.039062500,-57.0,-24.0,-17.0,63.18078125,-12.24,15.89627375,34.5253125
2021-07-07 11:00:06.046875000,-57.0,-24.0,-17.0,63.1809375,-7.46,15.8948325,34.524375
2021-07-07 11:00:06.054687500,-57.0,-24.0,-17.0,63.18109375,-3.075,15.89339125,34.5234375
2021-07-07 11:00:06.062500000,-57.0,-24.0,-17.0,63.18125,1.31,15.89195,34.5225
2021-07-07 11:00:06.070312500,-57.25,-24.25,-17.0,63.18140625,5.0600000000000005,15.89050875,34.5215625
2021-07-07 11:00:06.078125000,-57.5,-24.5,-17.0,63.1815625,8.81,15.8890675,34.520625
2021-07-07 11:00:06.085937500,-57.75,-24.75,-17.0,63.18171875,11.855,15.88762625,34.5196875
2021-07-07 11:00:06.093750000,-58.0,-25.0,-17.0,63.181875,14.9,15.886185,34.51875
2021-07-07 11:00:06.101562500,-57.75,-25.0,-17.0,63.18203125,17.24,15.88474375,34.5178125
2021-07-07 11:00:06.109375000,-57.5,-25.0,-17.0,63.1821875,19.58,15.8833025,34.516875
2021-07-07 11:00:06.117187500,-57.25,-25.0,-17.0,63.18234375,21.28,15.88186125,34.5159375
2021-07-07 11:00:06.125000000,-57.0,-25.0,-17.0,63.1825,22.98,15.88042,34.515
2021-07-07 11:00:06.132812500,-57.0,-25.0,-17.0,63.18265625,24.105,15.87897875,34.5140625
2021-07-07 11:00:06.140625000,-57.0,-25.0,-17.0,63.1828125,25.23,15.8775375,34.513125
2021-07-07 11:00:06.148437500,-57.0,-25.0,-17.0,63.18296875,25.825000000000003,15.87609625,34.5121875
2021-07-07 11:00:06.156250000,-57.0,-25.0,-17.0,63.183125,26.42,15.874655,34.511250000000004
2021-07-07 11:00:06.164062500,-57.0,-25.0,-17.0,63.18328125,26.57,15.87321375,34.5103125
2021-07-07 11:00:06.171875000,-57.0,-25.0,-17.0,63.183437500000004,26.72,15.8717725,34.509375
2021-07-07 11:00:06.179687500,-57.0,-25.0,-17.0,63.18359375,26.509999999999998,15.87033125,34.5084375
2021-07-07 11:00:06.187500000,-57.0,-25.0,-17.0,63.18375,26.3,15.86889,34.5075
2021-07-07 11:00:06.195312500,-57.25,-25.0,-17.0,63.18390625,25.865000000000002,15.86744875,34.5065625
2021-07-07 11:00:06.203125000,-57.5,-25.0,-17.0,63.1840625,25.43,15.8660075,34.505625
2021-07-07 11:00:06.210937500,-57.75,-25.0,-17.0,63.18421875,24.895,15.86456625,34.5046875
2021-07-07 11:00:06.218750000,-58.0,-25.0,-17.0,63.184375,24.36,15.863125,34.50375
2021-07-07 11:00:06.226562500,-57.75,-25.0,-17.0,63.18453125,23.845,15.86168375,34.5028125
2021-07-07 11:00:06.234375000,-57.5,-25.0,-17.0,63.1846875,23.33,15.8602425,34.501875
2021-07-07 11:00:06.242187500,-57.25,-25.0,-17.0,63.18484375,22.909999999999997,15.858801249999999,34.5009375
2021-07-07 11:00:06.250000000,-57.0,-25.0,-17.0,63.185,22.49,15.85736,34.5
2021-07-07 11:00:06.257812500,-57.0,-25.0,-17.0,63.18515625,22.225,15.85764021875,34.5
2021-07-07 11:00:06.265625000,-57.0,-25.0,-17.0,63.1853125,21.96,15.8579204375,34.5
2021-07-07 11:00:06.273437500,-57.0,-25.0,-17.0,63.18546875,21.865000000000002,15.85820065625,34.5
2021-07-07 11:00:06.281250000,-57.0,-25.0,-17.0,63.185625,21.77,15.858480875,34.5
2021-07-07 11:00:06.289062500,-57.0,-25.0,-17.0,63.18578125,21.865000000000002,15.85876109375,34.5
2021-07-07 11:00:06.296875000,-57.0,-25.0,-17.0,63.1859375,21.96,15.8590413125,34.5
2021-07-07 11:00:06.304687500,-57.0,-25.0,-17.0,63.18609375,22.240000000000002,15.85932153125,34.5
2021-07-07 11:00:06.312500000,-57.0,-25.0,-17.0,63.18625,22.52,15.85960175,34.5
2021-07-07 11:00:06.320312500,-57.0,-24.75,-17.0,63.18640625,22.97,15.85988196875,34.5
2021-07-07 11:00:06.328125000,-57.0,-24.5,-17.0,63.1865625,23.42,15.8601621875,34.5
2021-07-07 11:00:06.335937500,-57.0,-24.25,-17.0,63.186718750000004,23.965000000000003,15.86044240625,34.5
2021-07-07 11:00:06.343750000,-57.0,-24.0,-17.0,63.186875,24.51,15.860722625,34.5
2021-07-07 11:00:06.351562500,-57.0,-24.0,-17.0,63.187031250000004,25.045,15.86100284375,34.5
2021-07-07 11:00:06.359375000,-57.0,-24.0,-17.0,63.1871875,25.58,15.8612830625,34.5
2021-07-07 11:00:06.367187500,-57.0,-24.0,-17.0,63.187343750000004,25.975,15.86156328125,34.5
2021-07-07 11:00:06.375000000,-57.0,-24.0,-17.0,63.1875,26.37,15.861843499999999,34.5
2021-07-07 11:00:06.382812500,-57.0,-24.25,-17.0,63.18765625,26.5,15.86212371875,34.5
2021-07-07 11:00:06.390625000,-57.0,-24.5,-17.0,63.1878125,26.63,15.8624039375,34.5
2021-07-07 11:00:06.398437500,-57.0,-24.75,-17.0,63.18796875,26.43,15.86268415625,34.5
2021-07-07 11:00:06.406250000,-57.0,-25.0,-17.0,63.188125,26.23,15.862964375,34.5
2021-07-07 11:00:06.414062500,-57.0,-25.0,-17.0,63.18828125,25.685000000000002,15.86324459375,34.5
2021-07-07 11:00:06.421875000,-57.0,-25.0,-17.0,63.1884375,25.14,15.8635248125,34.5
2021-07-07 11:00:06.429687500,-57.0,-25.0,-17.0,63.18859375,24.314999999999998,15.86380503125,34.5
2021-07-07 11:00:06.437500000,-57.0,-25.0,-17.0,63.18875,23.49,15.86408525,34.5
2021-07-07 11:00:06.445312500,-57.0,-25.0,-17.0,63.18890625,22.479999999999997,15.86436546875,34.5
2021-07-07 11:00:06.453125000,-57.0,-25.0,-17.0,63.1890625,21.47,15.8646456875,34.5
2021-07-07 11:00:06.460937500,-57.0,-25.0,-17.0,63.18921875,20.365000000000002,15.86492590625,34.5
2021-07-07 11:00:06.468750000,-57.0,-25.0,-17.0,63.189375,19.26,15.865206125,34.5
2021-07-07 11:00:06.476562500,-57.0,-25.0,-17.0,63.18953125,18.15,15.86548634375,34.5
2021-07-07 11:00:06.484375000,-57.0,-25.0,-17.0,63.1896875,17.04,15.8657665625,34.5
2021-07-07 11:00:06.492187500,-57.0,-25.0,-17.0,63.18984375,15.96,15.86604678125,34.5
2021-07-07 11:00:06.500000000,-57.0,-25.0,-17.0,63.19,14.88,15.866327,34.5
2021-07-07 11:00:06.507812500,-57.0,-25.0,-17.0,63.19015625,13.835,15.86540625,34.5
2021-07-07 11:00:06.515625000,-57.0,-25.0,-17.0,63.190312500000005,12.79,15.8644855,34.5
2021-07-07 11:00:06.523437500,-57.0,-25.0,-17.0,63.19046875,11.76,15.86356475,34.5
2021-07-07 11:00:06.531250000,-57.0,-25.0,-17.0,63.190625000000004,10.73,15.862644,34.5
2021-07-07 11:00:06.539062500,-57.0,-25.0,-17.0,63.19078125,9.705,15.86172325,34.5
2021-07-07 11:00:06.546875000,-57.0,-25.0,-17.0,63.190937500000004,8.68,15.8608025,34.5
2021-07-07 11:00:06.554687500,-57.0,-25.0,-17.0,63.19109375,7.675,15.85988175,34.5
2021-07-07 11:00:06.562500000,-57.0,-25.0,-17.0,63.191250000000004,6.67,15.858961,34.5
2021-07-07 11:00:06.570312500,-57.0,-25.0,-17.0,63.19140625,5.715,15.85804025,34.5
2021-07-07 11:00:06.578125000,-57.0,-25.0,-17.0,63.1915625,4.76,15.8571195,34.5
2021-07-07 11:00:06.585937500,-57.0,-25.0,-17.0,63.19171875,3.885,15.856198749999999,34.5
2021-07-07 11:00:06.593750000,-57.0,-25.0,-17.0,63.191875,3.01,15.855278,34.5
2021-07-07 11:00:06.601562500,-57.0,-25.0,-17.0,63.19203125,2.21,15.85435725,34.5
2021-07-07 11:00:06.609375000,-57.0,-25.0,-17.0,63.1921875,1.41,15.853436499999999,34.5
2021-07-07 11:00:06.617187500,-57.0,-25.0,-17.0,63.19234375,0.6699999999999999,15.85251575,34.5
2021-07-07 11:00:06.625000000,-57.0,-25.0,-17.0,63.1925,-0.07,15.851595,34.5
2021-07-07 11:00:06.632812500,-57.0,-25.0,-16.75,63.19265625,-0.79,15.850674249999999,34.5
2021-07-07 11:00:06.640625000,-57.0,-25.0,-16.5,63.1928125,-1.51,15.8497535,34.5
2021-07-07 11:00:06.648437500,-57.0,-25.0,-16.25,63.19296875,-2.22,15.84883275,34.5
2021-07-07 11:00:06.656250000,-57.0,-25.0,-16.0,63.193125,-2.93,15.847911999999999,34.5
2021-07-07 11:00:06.664062500,-57.0,-25.0,-16.25,63.19328125,-3.62,15.84699125,34.5
2021-07-07 11:00:06.671875000,-57.0,-25.0,-16.5,63.1934375,-4.31,15.8460705,34.5
2021-07-07 11:00:06.679687500,-57.0,-25.0,-16.75,63.193593750000005,-4.949999999999999,15.84514975,34.5
2021-07-07 11:00:06.687500000,-57.0,-25.0,-17.0,63.19375,-5.59,15.844228999999999,34.5
2021-07-07 11:00:06.695312500,-57.0,-25.0,-17.0,63.193906250000005,-6.165,15.84330825,34.5
2021-07-07 11:00:06.703125000,-57.0,-25.0,-17.0,63.1940625,-6.74,15.8423875,34.5
2021-07-07 11:00:06.710937500,-57.0,-25.0,-17.0,63.194218750000005,-7.295,15.841466749999999,34.5
2021-07-07 11:00:06.718750000,-57.0,-25.0,-17.0,63.194375,-7.85,15.840546,34.5
2021-07-07 11:00:06.726562500,-57.0,-25.0,-16.75,63.194531250000004,-8.455,15.83962525,34.5
2021-07-07 11:00:06.734375000,-57.0,-25.0,-16.5,63.1946875,-9.06,15.838704499999999,34.5
2021-07-07 11:00:06.742187500,-57.0,-25.0,-16.25,63.194843750000004,-9.8,15.83778375,34.5
2021-07-07 11:00:06.750000000,-57.0,-25.0,-16.0,63.195,-10.54,15.836863,34.5
2021-07-07 11:00:06.757812500,-57.0,-25.0,-16.0,63.195156250000004,-11.475,15.83698309375,34.5
2021-07-07 11:00:06.765625000,-57.0,-25.0,-16.0,63.1953125,-12.41,15.837103187499999,34.5
2021-07-07 11:00:06.773437500,-57.0,-25.0,-16.0,63.19546875,-13.525,15.83722328125,34.5
2021-07-07 11:00:06.781250000,-57.0,-25.0,-16.0,63.195625,-14.64,15.837343375,34.5
2021-07-07 11:00:06.789062500,-57.0,-25.0,-16.25,63.19578125,-15.870000000000001,15.83746346875,34.5
2021-07-07 11:00:06.796875000,-57.0,-25.0,-16.5,63.1959375,-17.1,15.837583562499999,34.5
2021-07-07 11:00:06.804687500,-57.0,-25.0,-16.75,63.19609375,-18.36,15.83770365625,34.5
2021-07-07 11:00:06.812500000,-57.0,-25.0,-17.0,63.19625,-19.62,15.83782375,34.5
2021-07-07 11:00:06.820312500,-57.0,-25.0,-17.25,63.19640625,-20.84,15.837943843749999,34.5
2021-07-07 11:00:06.828125000,-57.0,-25.0,-17.5,63.1965625,-22.06,15.8380639375,34.5
2021-07-07 11:00:06.835937500,-57.0,-25.0,-17.75,63.19671875,-23.2,15.83818403125,34.5
2021-07-07 11:00:06.843750000,-57.0,-25.0,-18.0,63.196875000000006,-24.34,15.838304125,34.5
2021-07-07 11:00:06.851562500,-57.0,-25.0,-17.75,63.19703125,-25.380000000000003,15.83842421875,34.5
2021-07-07 11:00:06.859375000,-57.0,-25.0,-17.5,63.197187500000005,-26.42,15.8385443125,34.5
2021-07-07 11:00:06.867187500,-57.0,-25.0,-17.25,63.19734375,-27.345,15.83866440625,34.5
2021-07-07 11:00:06.875000000,-57.0,-25.0,-17.0,63.197500000000005,-28.27,15.8387845,34.5
2021-07-07 11:00:06.882812500,-57.0,-25.0,-16.75,63.19765625,-29.08,15.83890459375,34.5
2021-07-07 11:00:06.890625000,-57.0,-25.0,-16.5,63.197812500000005,-29.89,15.8390246875,34.5
2021-07-07 11:00:06.898437500,-57.0,-25.0,-16.25,63.19796875,-30.62,15.83914478125,34.5
2021-07-07 11:00:06.906250000,-57.0,-25.0,-16.0,63.198125000000005,-31.35,15.839264875,34.5
2021-07-07 11:00:06.914062500,-57.0,-25.0,-16.25,63.19828125,-32.09,15.83938496875,34.5
2021-07-07 11:00:06.921875000,-57.0,-25.0,-16.5,63.198437500000004,-32.83,15.8395050625,34.5
2021-07-07 11:00:06.929687500,-57.0,-25.0,-16.75,63.19859375,-33.739999999999995,15.839625156250001,34.5
2021-07-07 11:00:06.937500000,-57.0,-25.0,-17.0,63.198750000000004,-34.65,15.83974525,34.5
2021-07-07 11:00:06.945312500,-57.0,-24.75,-16.75,63.19890625,-35.89,15.83986534375,34.5
2021-07-07 11:00:06.953125000,-57.0,-24.5,-16.5,63.199062500000004,-37.13,15.839985437500001,34.5
2021-07-07 11:00:06.960937500,-57.0,-24.25,-16.25,63.19921875,-38.760000000000005,15.84010553125,34.5
2021-07-07 11:00:06.968750000,-57.0,-24.0,-16.0,63.199375,-40.39,15.840225625,34.5
2021-07-07 11:00:06.976562500,-57.0,-24.25,-16.25,63.19953125,-42.29,15.840345718750001,34.5
2021-07-07 11:00:06.984375000,-57.0,-24.5,-16.5,63.1996875,-44.19,15.840465812500002,34.5
2021-07-07 11:00:06.992187500,-57.0,-24.75,-16.75,63.19984375,-46.015,15.84058590625,34.5
2021-07-07 11:00:07.000000000,-57.0,-25.0,-17.0,63.2,-47.84,15.840706,34.5
2021-07-07 11:00:07.007812500,-57.0,-25.0,-17.0,63.200156250000006,-49.075,15.841186406250001,34.5
2021-07-07 11:00:07.015625000,-57.0,-25.0,-17.0,63.2003125,-50.31,15.841666812500002,34.5
2021-07-07 11:00:07.023437500,-57.0,-25.0,-17.0,63.200468750000006,-50.43,15.84214721875,34.5
2021-07-07 11:00:07.031250000,-57.0,-25.0,-17.0,63.200625,-50.55,15.842627625,34.5
2021-07-07 11:00:07.039062500,-57.0,-25.0,-16.75,63.200781250000006,-49.17,15.84310803125,34.5
2021-07-07 11:00:07.046875000,-57.0,-25.0,-16.5,63.2009375,-47.79,15.843588437500001,34.5
2021-07-07 11:00:07.054687500,-57.0,-25.0,-16.25,63.201093750000005,-44.845,15.84406884375,34.5
2021-07-07 11:00:07.062500000,-57.0,-25.0,-16.0,63.20125,-41.9,15.84454925,34.5
2021-07-07 11:00:07.070312500,-57.25,-25.0,-15.75,63.201406250000005,-37.644999999999996,15.84502965625,34.5
2021-07-07 11:00:07.078125000,-57.5,-25.0,-15.5,63.2015625,-33.39,15.8455100625,34.5
2021-07-07 11:00:07.085937500,-57.75,-25.0,-15.25,63.201718750000005,-28.33,15.845990468750001,34.5
2021-07-07 11:00:07.093750000,-58.0,-25.0,-15.0,63.201875,-23.27,15.846470875,34.5
2021-07-07 11:00:07.101562500,-57.75,-25.25,-14.75,63.202031250000005,-18.015,15.84695128125,34.5
2021-07-07 11:00:07.109375000,-57.5,-25.5,-14.5,63.2021875,-12.76,15.8474316875,34.5
2021-07-07 11:00:07.117187500,-57.25,-25.75,-14.25,63.202343750000004,-7.84,15.84791209375,34.5
2021-07-07 11:00:07.125000000,-57.0,-26.0,-14.0,63.2025,-2.92,15.8483925,34.5
2021-07-07 11:00:07.132812500,-57.25,-25.5,-14.5,63.202656250000004,1.3049999999999997,15.84887290625,34.5
2021-07-07 11:00:07.140625000,-57.5,-25.0,-15.0,63.2028125,5.53,15.8493533125,34.5
2021-07-07 11:00:07.148437500,-57.75,-24.5,-15.5,63.202968750000004,8.895,15.84983371875,34.5
2021-07-07 11:00:07.156250000,-58.0,-24.0,-16.0,63.203125,12.26,15.850314125,34.5
2021-07-07 11:00:07.164062500,-58.0,-24.25,-16.25,63.20328125,14.765,15.85079453125,34.5
2021-07-07 11:00:07.171875000,-58.0,-24.5,-16.5,63.2034375,17.27,15.8512749375,34.5
2021-07-07 11:00:07.179687500,-58.0,-24.75,-16.75,63.20359375,19.03,15.85175534375,34.5
2021-07-07 11:00:07.187500000,-58.0,-25.0,-17.0,63.20375,20.79,15.85223575,34.5
2021-07-07 11:00:07.195312500,-58.0,-25.0,-16.75,63.20390625,21.98,15.85271615625,34.5
2021-07-07 11:00:07.203125000,-58.0,-25.0,-16.5,63.2040625,23.17,15.853196562499999,34.5
2021-07-07 11:00:07.210937500,-58.0,-25.0,-16.25,63.20421875,23.96,15.85367696875,34.5
2021-07-07 11:00:07.218750000,-58.0,-25.0,-16.0,63.204375,24.75,15.854157375,34.5
2021-07-07 11:00:07.226562500,-58.0,-25.0,-16.0,63.20453125,25.305,15.85463778125,34.5
2021-07-07 11:00:07.234375000,-58.0,-25.0,-16.0,63.2046875,25.86,15.855118187499999,34.5
2021-07-07 11:00:07.242187500,-58.0,-25.0,-16.0,63.20484375,26.295,15.855598593749999,34.5
2021-07-07 11:00:07.250000000,-58.0,-25.0,-16.0,63.205,26.73,15.856079,34.5
2021-07-07 11:00:07.257812500,-57.75,-25.0,-15.75,63.20515625,27.08,15.856239125,34.5
2021-07-07 11:00:07.265625000,-57.5,-25.0,-15.5,63.205312500000005,27.43,15.856399249999999,34.5
2021-07-07 11:00:07.273437500,-57.25,-25.0,-15.25,63.20546875,27.689999999999998,15.856559375,34.5
2021-07-07 11:00:07.281250000,-57.0,-25.0,-15.0,63.205625000000005,27.95,15.856719499999999,34.5
2021-07-07 11:00:07.289062500,-57.25,-25.0,-15.0,63.20578125,28.09,15.856879625,34.5
2021-07-07 11:00:07.296875000,-57.5,-25.0,-15.0,63.205937500000005,28.23,15.85703975,34.5
2021-07-07 11:00:07.304687500,-57.75,-25.0,-15.0,63.20609375,28.22,15.857199875,34.5
2021-07-07 11:00:07.312500000,-58.0,-25.0,-15.0,63.206250000000004,28.21,15.85736,34.5
2021-07-07 11:00:07.320312500,-58.0,-25.0,-15.25,63.20640625,28.065,15.857520124999999,34.5
2021-07-07 11:00:07.328125000,-58.0,-25.0,-15.5,63.206562500000004,27.92,15.85768025,34.5
2021-07-07 11:00:07.335937500,-58.0,-25.0,-15.75,63.20671875,27.695,15.857840375,34.5
2021-07-07 11:00:07.343750000,-58.0,-25.0,-16.0,63.206875000000004,27.47,15.8580005,34.5
2021-07-07 11:00:07.351562500,-58.0,-25.0,-15.75,63.20703125,27.235,15.858160625,34.5
2021-07-07 11:00:07.359375000,-58.0,-25.0,-15.5,63.2071875,27.0,15.858320749999999,34.5
2021-07-07 11:00:07.367187500,-58.0,-25.0,-15.25,63.20734375,26.84,15.858480875,34.5
2021-07-07 11:00:07.375000000,-58.0,-25.0,-15.0,63.2075,26.68,15.858640999999999,34.5
2021-07-07 11:00:07.382812500,-57.75,-25.0,-15.0,63.20765625,26.66,15.858801125,34.5
2021-07-07 11:00:07.390625000,-57.5,-25.0,-15.0,63.2078125,26.64,15.85896125,34.5
2021-07-07 11:00:07.398437500,-57.25,-25.0,-15.0,63.20796875,26.795,15.859121374999999,34.5
2021-07-07 11:00:07.406250000,-57.0,-25.0,-15.0,63.208125,26.95,15.8592815,34.5
2021-07-07 11:00:07.414062500,-57.25,-25.0,-15.25,63.20828125,27.29,15.859441624999999,34.5
2021-07-07 11:00:07.421875000,-57.5,-25.0,-15.5,63.2084375,27.63,15.85960175,34.5
2021-07-07 11:00:07.429687500,-57.75,-25.0,-15.75,63.20859375,28.104999999999997,15.859761875,34.5
2021-07-07 11:00:07.437500000,-58.0,-25.0,-16.0,63.20875,28.58,15.859922,34.5
2021-07-07 11:00:07.445312500,-57.75,-25.0,-16.0,63.20890625,29.09,15.860082125,34.5
2021-07-07 11:00:07.453125000,-57.5,-25.0,-16.0,63.2090625,29.6,15.860242249999999,34.5
2021-07-07 11:00:07.460937500,-57.25,-25.0,-16.0,63.20921875,30.0,15.860402375,34.5
2021-07-07 11:00:07.468750000,-57.0,-25.0,-16.0,63.209375,30.4,15.8605625,34.5
2021-07-07 11:00:07.476562500,-57.0,-25.0,-15.75,63.20953125,30.56,15.860722625,34.5
2021-07-07 11:00:07.484375000,-57.0,-25.0,-15.5,63.2096875,30.72,15.86088275,34.5
2021-07-07 11:00:07.492187500,-57.0,-25.0,-15.25,63.20984375,30.56,15.861042874999999,34.5
2021-07-07 11:00:07.500000000,-57.0,-25.0,-15.0,63.21,30.4,15.861203,34.5
2021-07-07 11:00:07.507812500,-57.25,-25.0,-15.0,63.210156250000004,29.92,15.8609628125,34.5
2021-07-07 11:00:07.515625000,-57.5,-25.0,-15.0,63.2103125,29.44,15.860722625,34.5
2021-07-07 11:00:07.523437500,-57.75,-25.0,-15.0,63.210468750000004,28.71,15.8604824375,34.5
2021-07-07 11:00:07.531250000,-58.0,-25.0,-15.0,63.210625,27.98,15.860242249999999,34.5
2021-07-07 11:00:07.539062500,-57.75,-25.0,-15.0,63.210781250000004,27.085,15.8600020625,34.5
2021-07-07 11:00:07.546875000,-57.5,-25.0,-15.0,63.2109375,26.19,15.859761875,34.5
2021-07-07 11:00:07.554687500,-57.25,-25.0,-15.0,63.21109375,25.185000000000002,15.8595216875,34.5
2021-07-07 11:00:07.562500000,-57.0,-25.0,-15.0,63.21125,24.18,15.8592815,34.5
2021-07-07 11:00:07.570312500,-57.0,-24.75,-15.25,63.21140625,23.115000000000002,15.8590413125,34.5
2021-07-07 11:00:07.578125000,-57.0,-24.5,-15.5,63.2115625,22.05,15.858801125,34.5
2021-07-07 11:00:07.585937500,-57.0,-24.25,-15.75,63.21171875,20.939999999999998,15.8585609375,34.5
2021-07-07 11:00:07.593750000,-57.0,-24.0,-16.0,63.211875,19.83,15.85832075,34.5
2021-07-07 11:00:07.601562500,-57.25,-24.25,-15.75,63.21203125,18.715,15.8580805625,34.5
2021-07-07 11:00:07.609375000,-57.5,-24.5,-15.5,63.2121875,17.6,15.857840375,34.5
2021-07-07 11:00:07.617187500,-57.75,-24.75,-15.25,63.21234375,16.53,15.8576001875,34.5
2021-07-07 11:00:07.625000000,-58.0,-25.0,-15.0,63.2125,15.46,15.85736,34.5
2021-07-07 11:00:07.632812500,-58.0,-25.0,-15.0,63.21265625,14.475000000000001,15.8571198125,34.5
2021-07-07 11:00:07.640625000,-58.0,-25.0,-15.0,63.2128125,13.49,15.856879625,34.5
2021-07-07 11:00:07.648437500,-58.0,-25.0,-15.0,63.21296875,12.594999999999999,15.8566394375,34.5
2021-07-07 11:00:07.656250000,-58.0,-25.0,-15.0,63.213125,11.7,15.856399249999999,34.5
2021-07-07 11:00:07.664062500,-57.75,-25.0,-15.25,63.21328125,10.86,15.8561590625,34.5
2021-07-07 11:00:07.671875000,-57.5,-25.0,-15.5,63.2134375,10.02,15.855918875,34.5
2021-07-07 11:00:07.679687500,-57.25,-25.0,-15.75,63.21359375,9.165,15.8556786875,34.5
2021-07-07 11:00:07.687500000,-57.0,-25.0,-16.0,63.21375,8.31,15.8554385,34.5
2021-07-07 11:00:07.695312500,-57.25,-25.0,-16.0,63.21390625,7.405,15.8551983125,34.5
2021-07-07 11:00:07.703125000,-57.5,-25.0,-16.0,63.2140625,6.5,15.854958125,34.5
2021-07-07 11:00:07.710937500,-57.75,-25.0,-16.0,63.21421875,5.52,15.8547179375,34.5
2021-07-07 11:00:07.718750000,-58.0,-25.0,-16.0,63.214375,4.54,15.854477750000001,34.5
2021-07-07 11:00:07.726562500,-58.0,-25.0,-15.75,63.21453125,3.515,15.8542375625,34.5
2021-07-07 11:00:07.734375000,-58.0,-25.0,-15.5,63.2146875,2.49,15.853997375,34.5
2021-07-07 11:00:07.742187500,-58.0,-25.0,-15.25,63.21484375,1.4600000000000002,15.8537571875,34.5
2021-07-07 11:00:07.750000000,-58.0,-25.0,-15.0,63.215,0.43,15.853517,34.5
2021-07-07 11:00:07.757812500,-57.75,-25.0,-15.25,63.21515625,-0.6000000000000001,15.8533168125,34.5
2021-07-07 11:00:07.765625000,-57.5,-25.0,-15.5,63.2153125,-1.63,15.853116625,34.5
2021-07-07 11:00:07.773437500,-57.25,-25.0,-15.75,63.21546875,-2.675,15.8529164375,34.5
2021-07-07 11:00:07.781250000,-57.0,-25.0,-16.0,63.215625,-3.72,15.85271625,34.5
2021-07-07 11:00:07.789062500,-57.0,-25.0,-15.75,63.21578125,-4.8100000000000005,15.8525160625,34.5
2021-07-07 11:00:07.796875000,-57.0,-25.0,-15.5,63.2159375,-5.9,15.852315875,34.5
2021-07-07 11:00:07.804687500,-57.0,-25.0,-15.25,63.21609375,-7.055000000000001,15.8521156875,34.5
2021-07-07 11:00:07.812500000,-57.0,-25.0,-15.0,63.21625,-8.21,15.8519155,34.5
2021-07-07 11:00:07.820312500,-57.25,-25.0,-15.25,63.21640625,-9.440000000000001,15.8517153125,34.5
2021-07-07 11:00:07.828125000,-57.5,-25.0,-15.5,63.2165625,-10.67,15.851515125,34.5
2021-07-07 11:00:07.835937500,-57.75,-25.0,-15.75,63.21671875,-11.955,15.8513149375,34.5
2021-07-07 11:00:07.843750000,-58.0,-25.0,-16.0,63.216875,-13.24,15.85111475,34.5
2021-07-07 11:00:07.851562500,-58.0,-25.0,-15.75,63.21703125,-14.56,15.8509145625,34.5
2021-07-07 11:00:07.859375000,-58.0,-25.0,-15.5,63.2171875,-15.88,15.850714375,34.5
2021-07-07 11:00:07.867187500,-58.0,-25.0,-15.25,63.21734375,-17.225,15.8505141875,34.5
2021-07-07 11:00:07.875000000,-58.0,-25.0,-15.0,63.2175,-18.57,15.850314000000001,34.5
2021-07-07 11:00:07.882812500,-58.0,-25.0,-15.5,63.21765625,-19.92,15.8501138125,34.5
2021-07-07 11:00:07.890625000,-58.0,-25.0,-16.0,63.2178125,-21.27,15.849913625,34.5
2021-07-07 11:00:07.898437500,-58.0,-25.0,-16.5,63.21796875,-22.6,15.8497134375,34.5
2021-07-07 11:00:07.906250000,-58.0,-25.0,-17.0,63.218125,-23.93,15.84951325,34.5
2021-07-07 11:00:07.914062500,-58.0,-24.75,-16.75,63.21828125,-25.2,15.8493130625,34.5
2021-07-07 11:00:07.921875000,-58.0,-24.5,-16.5,63.2184375,-26.47,15.849112875,34.5
2021-07-07 11:00:07.929687500,-58.0,-24.25,-16.25,63.21859375,-27.64,15.8489126875,34.5
2021-07-07 11:00:07.937500000,-58.0,-24.0,-16.0,63.21875,-28.81,15.8487125,34.5
2021-07-07 11:00:07.945312500,-57.75,-24.0,-15.75,63.218906249999996,-29.85,15.8485123125,34.5
2021-07-07 11:00:07.953125000,-57.5,-24.0,-15.5,63.2190625,-30.89,15.848312125,34.5
2021-07-07 11:00:07.960937500,-57.25,-24.0,-15.25,63.219218749999996,-31.81,15.8481119375,34.5
2021-07-07 11:00:07.968750000,-57.0,-24.0,-15.0,63.219375,-32.73,15.84791175,34.5
2021-07-07 11:00:07.976562500,-57.0,-24.0,-15.0,63.219531249999996,-33.58,15.8477115625,34.5
2021-07-07 11:00:07.984375000,-57.0,-24.0,-15.0,63.2196875,-34.43,15.847511375,34.5
2021-07-07 11:00:07.992187500,-57.0,-24.0,-15.0,63.219843749999995,-35.305,15.8473111875,34.5
2021-07-07 11:00:08.000000000,-57.0,-24.0,-15.0,63.22,-36.18,15.847111,34.5
2021-07-07 11:00:08.007812500,-57.25,-24.25,-15.25,63.220078125,-37.195,15.846950875,34.4996875
2021-07-07 11:00:08.015625000,-57.5,-24.5,-15.5,63.22015625,-38.21,15.84679075,34.499375
2021-07-07 11:00:08.023437500,-57.75,-24.75,-15.75,63.220234375,-39.435,15.846630625,34.4990625
2021-07-07 11:00:08.031250000,-58.0,-25.0,-16.0,63.2203125,-40.66,15.8464705,34.49875
2021-07-07 11:00:08.039062500,-57.75,-25.0,-15.75,63.220390625,-42.08,15.846310375,34.4984375
2021-07-07 11:00:08.046875000,-57.5,-25.0,-15.5,63.22046875,-43.5,15.846150249999999,34.498125
2021-07-07 11:00:08.054687500,-57.25,-25.0,-15.25,63.220546875,-44.995000000000005,15.845990125,34.4978125
2021-07-07 11:00:08.062500000,-57.0,-25.0,-15.0,63.220625,-46.49,15.84583,34.4975
2021-07-07 11:00:08.070312500,-57.0,-25.25,-15.0,63.220703125,-47.8,15.845669875,34.4971875
2021-07-07 11:00:08.078125000,-57.0,-25.5,-15.0,63.22078125,-49.11,15.84550975,34.496875
2021-07-07 11:00:08.085937500,-57.0,-25.75,-15.0,63.220859374999996,-49.905,15.845349624999999,34.4965625
2021-07-07 11:00:08.093750000,-57.0,-26.0,-15.0,63.2209375,-50.7,15.8451895,34.49625
2021-07-07 11:00:08.101562500,-57.25,-25.75,-15.5,63.221015625,-50.635000000000005,15.845029375,34.495937500000004
2021-07-07 11:00:08.109375000,-57.5,-25.5,-16.0,63.22109375,-50.57,15.84486925,34.495625000000004
2021-07-07 11:00:08.117187500,-57.75,-25.25,-16.5,63.221171874999996,-49.4,15.844709125,34.495312500000004
2021-07-07 11:00:08.125000000,-58.0,-25.0,-17.0,63.22125,-48.23,15.844549,34.495000000000005
2021-07-07 11:00:08.132812500,-58.0,-25.0,-17.0,63.221328125,-45.864999999999995,15.844388875,34.4946875
2021-07-07 11:00:08.140625000,-58.0,-25.0,-17.0,63.22140625,-43.5,15.84422875,34.494375
2021-07-07 11:00:08.148437500,-58.0,-25.0,-17.0,63.221484374999996,-40.035,15.844068625,34.4940625
2021-07-07 11:00:08.156250000,-58.0,-25.0,-17.0,63.2215625,-36.57,15.8439085,34.49375
2021-07-07 11:00:08.164062500,-58.0,-24.75,-16.5,63.221640625,-32.269999999999996,15.843748375,34.4934375
2021-07-07 11:00:08.171875000,-58.0,-24.5,-16.0,63.22171875,-27.97,15.84358825,34.493125
2021-07-07 11:00:08.179687500,-58.0,-24.25,-15.5,63.221796874999995,-23.205,15.843428124999999,34.4928125
2021-07-07 11:00:08.187500000,-58.0,-24.0,-15.0,63.221875,-18.44,15.843268,34.4925
2021-07-07 11:00:08.195312500,-58.0,-24.25,-15.0,63.221953125,-13.63,15.843107875,34.4921875
2021-07-07 11:00:08.203125000,-58.0,-24.5,-15.0,63.22203125,-8.82,15.84294775,34.491875
2021-07-07 11:00:08.210937500,-58.0,-24.75,-15.0,63.222109374999995,-4.315,15.842787625,34.4915625
2021-07-07 11:00:08.218750000,-58.0,-25.0,-15.0,63.2221875,0.19,15.842627499999999,34.49125
2021-07-07 11:00:08.226562500,-58.0,-25.0,-16.0,63.222265625,4.114999999999999,15.842467375,34.4909375
2021-07-07 11:00:08.234375000,-58.0,-25.0,-17.0,63.22234375,8.04,15.84230725,34.490625
2021-07-07 11:00:08.242187500,-58.0,-25.0,-18.0,63.222421874999995,11.219999999999999,15.842147125,34.4903125
2021-07-07 11:00:08.250000000,-58.0,-25.0,-19.0,63.2225,14.4,15.841987,34.49
2021-07-07 11:00:08.257812500,-58.0,-25.0,-18.25,63.222578125,16.755,15.8423873125,34.49
2021-07-07 11:00:08.265625000,-58.0,-25.0,-17.5,63.22265625,19.11,15.842787625,34.49
2021-07-07 11:00:08.273437500,-58.0,-25.0,-16.75,63.222734375,20.634999999999998,15.8431879375,34.49
2021-07-07 11:00:08.281250000,-58.0,-25.0,-16.0,63.222812499999996,22.16,15.84358825,34.49
2021-07-07 11:00:08.289062500,-57.75,-25.0,-15.5,63.222890625,22.92,15.8439885625,34.49
2021-07-07 11:00:08.296875000,-57.5,-25.0,-15.0,63.22296875,23.68,15.844388875,34.49
2021-07-07 11:00:08.304687500,-57.25,-25.0,-14.5,63.223046875,23.795,15.8447891875,34.49
2021-07-07 11:00:08.312500000,-57.0,-25.0,-14.0,63.223124999999996,23.91,15.8451895,34.49
2021-07-07 11:00:08.320312500,-57.25,-24.75,-14.0,63.223203125,23.560000000000002,15.8455898125,34.49
2021-07-07 11:00:08.328125000,-57.5,-24.5,-14.0,63.22328125,23.21,15.845990125,34.49
2021-07-07 11:00:08.335937500,-57.75,-24.25,-14.0,63.223359375,22.62,15.8463904375,34.49
2021-07-07 11:00:08.343750000,-58.0,-24.0,-14.0,63.223437499999996,22.03,15.84679075,34.49
2021-07-07 11:00:08.351562500,-58.0,-24.25,-14.75,63.223515625,21.43,15.8471910625,34.49
2021-07-07 11:00:08.359375000,-58.0,-24.5,-15.5,63.22359375,20.83,15.847591375,34.49
2021-07-07 11:00:08.367187500,-58.0,-24.75,-16.25,63.223671875,20.4,15.8479916875,34.49
2021-07-07 11:00:08.375000000,-58.0,-25.0,-17.0,63.223749999999995,19.97,15.848392,34.49
2021-07-07 11:00:08.382812500,-57.75,-25.0,-16.5,63.223828125,19.814999999999998,15.848792312499999,34.49
2021-07-07 11:00:08.390625000,-57.5,-25.0,-16.0,63.22390625,19.66,15.849192624999999,34.49
2021-07-07 11:00:08.398437500,-57.25,-25.0,-15.5,63.223984375,19.79,15.849592937499999,34.49
2021-07-07 11:00:08.406250000,-57.0,-25.0,-15.0,63.224062499999995,19.92,15.849993249999999,34.49
2021-07-07 11:00:08.414062500,-57.0,-25.0,-15.0,63.224140625,20.275,15.850393562499999,34.49
2021-07-07 11:00:08.421875000,-57.0,-25.0,-15.0,63.22421875,20.63,15.850793874999999,34.49
2021-07-07 11:00:08.429687500,-57.0,-25.0,-15.0,63.224296875,21.119999999999997,15.851194187499999,34.49
2021-07-07 11:00:08.437500000,-57.0,-25.0,-15.0,63.224374999999995,21.61,15.8515945,34.49
2021-07-07 11:00:08.445312500,-57.25,-25.0,-15.5,63.224453125,22.185000000000002,15.8519948125,34.49
2021-07-07 11:00:08.453125000,-57.5,-25.0,-16.0,63.22453125,22.76,15.852395125,34.49
2021-07-07 11:00:08.460937500,-57.75,-25.0,-16.5,63.224609375,23.355,15.8527954375,34.49
2021-07-07 11:00:08.468750000,-58.0,-25.0,-17.0,63.224687499999995,23.95,15.85319575,34.49
2021-07-07 11:00:08.476562500,-58.0,-25.0,-16.75,63.224765624999996,24.525,15.8535960625,34.49
2021-07-07 11:00:08.484375000,-58.0,-25.0,-16.5,63.22484375,25.1,15.853996375,34.49
2021-07-07 11:00:08.492187500,-58.0,-25.0,-16.25,63.224921875,25.595,15.8543966875,34.49
2021-07-07 11:00:08.500000000,-58.0,-25.0,-16.0,63.224999999999994,26.09,15.854797,34.49
2021-07-07 11:00:08.507812500,-58.0,-25.0,-16.0,63.225078124999996,26.43,15.85407640625,34.49
2021-07-07 11:00:08.515625000,-58.0,-25.0,-16.0,63.22515625,26.77,15.8533558125,34.49
2021-07-07 11:00:08.523437500,-58.0,-25.0,-16.0,63.225234375,26.905,15.852635218749999,34.49
2021-07-07 11:00:08.531250000,-58.0,-25.0,-16.0,63.2253125,27.04,15.851914625,34.49
2021-07-07 11:00:08.539062500,-57.75,-25.0,-16.0,63.225390624999996,26.939999999999998,15.85119403125,34.49
2021-07-07 11:00:08.546875000,-57.5,-25.0,-16.0,63.22546875,26.84,15.8504734375,34.49
2021-07-07 11:00:08.554687500,-57.25,-25.0,-16.0,63.225546875,26.515,15.84975284375,34.49
2021-07-07 11:00:08.562500000,-57.0,-25.0,-16.0,63.225625,26.19,15.84903225,34.49
2021-07-07 11:00:08.570312500,-57.25,-25.0,-16.25,63.225703124999995,25.695,15.848311656249999,34.49
2021-07-07 11:00:08.578125000,-57.5,-25.0,-16.5,63.22578125,25.2,15.8475910625,34.49
2021-07-07 11:00:08.585937500,-57.75,-25.0,-16.75,63.225859375,24.58,15.84687046875,34.49
2021-07-07 11:00:08.593750000,-58.0,-25.0,-17.0,63.2259375,23.96,15.846149875,34.49
2021-07-07 11:00:08.601562500,-58.0,-25.0,-16.5,63.226015624999995,23.259999999999998,15.84542928125,34.49
2021-07-07 11:00:08.609375000,-58.0,-25.0,-16.0,63.22609375,22.56,15.844708687499999,34.49
2021-07-07 11:00:08.617187500,-58.0,-25.0,-15.5,63.226171875,21.799999999999997,15.84398809375,34.49
2021-07-07 11:00:08.625000000,-58.0,-25.0,-15.0,63.22625,21.04,15.8432675,34.49
2021-07-07 11:00:08.632812500,-57.75,-25.0,-15.25,63.226328124999995,20.255,15.84254690625,34.49
2021-07-07 11:00:08.640625000,-57.5,-25.0,-15.5,63.22640625,19.47,15.8418263125,34.49
2021-07-07 11:00:08.648437500,-57.25,-25.0,-15.75,63.226484375,18.674999999999997,15.841105718749999,34.49
2021-07-07 11:00:08.656250000,-57.0,-25.0,-16.0,63.2265625,17.88,15.840385125,34.49
2021-07-07 11:00:08.664062500,-57.25,-25.0,-16.0,63.226640624999995,17.085,15.83966453125,34.49
2021-07-07 11:00:08.671875000,-57.5,-25.0,-16.0,63.226718749999996,16.29,15.8389439375,34.49
2021-07-07 11:00:08.679687500,-57.75,-25.0,-16.0,63.226796875,15.489999999999998,15.83822334375,34.49
2021-07-07 11:00:08.687500000,-58.0,-25.0,-16.0,63.226875,14.69,15.837502749999999,34.49
2021-07-07 11:00:08.695312500,-57.75,-25.0,-15.75,63.226953124999994,13.870000000000001,15.836782156249999,34.49
2021-07-07 11:00:08.703125000,-57.5,-25.0,-15.5,63.227031249999996,13.05,15.8360615625,34.49
2021-07-07 11:00:08.710937500,-57.25,-25.0,-15.25,63.227109375,12.175,15.83534096875,34.49
2021-07-07 11:00:08.718750000,-57.0,-25.0,-15.0,63.2271875,11.3,15.834620375,34.49
2021-07-07 11:00:08.726562500,-57.0,-25.0,-15.25,63.227265624999994,10.350000000000001,15.83389978125,34.49
2021-07-07 11:00:08.734375000,-57.0,-25.0,-15.5,63.227343749999996,9.4,15.833179187499999,34.49
2021-07-07 11:00:08.742187500,-57.0,-25.0,-15.75,63.227421875,8.36,15.83245859375,34.49
2021-07-07 11:00:08.750000000,-57.0,-25.0,-16.0,63.2275,7.32,15.831738,34.49
2021-07-07 11:00:08.757812500,-57.0,-25.0,-16.0,63.227578125,6.215,15.831297625,34.49
2021-07-07 11:00:08.765625000,-57.0,-25.0,-16.0,63.227656249999995,5.11,15.83085725,34.49
2021-07-07 11:00:08.773437500,-57.0,-25.0,-16.0,63.227734375,3.97,15.830416875,34.49
2021-07-07 11:00:08.781250000,-57.0,-25.0,-16.0,63.2278125,2.83,15.829976499999999,34.49
2021-07-07 11:00:08.789062500,-57.25,-24.75,-16.0,63.227890625,1.7,15.829536124999999,34.49
2021-07-07 11:00:08.796875000,-57.5,-24.5,-16.0,63.227968749999995,0.57,15.82909575,34.49
2021-07-07 11:00:08.804687500,-57.75,-24.25,-16.0,63.228046875,-0.515,15.828655375,34.49
2021-07-07 11:00:08.812500000,-58.0,-24.0,-16.0,63.228125,-1.6,15.828215,34.49
2021-07-07 11:00:08.820312500,-58.0,-24.0,-16.0,63.228203125,-2.62,15.827774625,34.49
2021-07-07 11:00:08.828125000,-58.0,-24.0,-16.0,63.228281249999995,-3.64,15.82733425,34.49
2021-07-07 11:00:08.835937500,-58.0,-24.0,-16.0,63.228359375,-4.605,15.826893875,34.49
2021-07-07 11:00:08.843750000,-58.0,-24.0,-16.0,63.2284375,-5.57,15.8264535,34.49
2021-07-07 11:00:08.851562500,-58.0,-24.25,-16.0,63.228515625,-6.5,15.826013125,34.49
2021-07-07 11:00:08.859375000,-58.0,-24.5,-16.0,63.228593749999995,-7.43,15.82557275,34.49
2021-07-07 11:00:08.867187500,-58.0,-24.75,-16.0,63.228671874999996,-8.355,15.825132374999999,34.49
2021-07-07 11:00:08.875000000,-58.0,-25.0,-16.0,63.22875,-9.28,15.824691999999999,34.49
2021-07-07 11:00:08.882812500,-57.75,-25.0,-16.0,63.228828125,-10.239999999999998,15.824251625,34.49
2021-07-07 11:00:08.890625000,-57.5,-25.0,-16.0,63.228906249999994,-11.2,15.82381125,34.49
2021-07-07 11:00:08.898437500,-57.25,-25.0,-16.0,63.228984374999996,-12.23,15.823370875,34.49
2021-07-07 11:00:08.906250000,-57.0,-25.0,-16.0,63.2290625,-13.26,15.8229305,34.49
2021-07-07 11:00:08.914062500,-57.25,-24.75,-16.0,63.229140625,-14.355,15.822490125,34.49
2021-07-07 11:00:08.921875000,-57.5,-24.5,-16.0,63.229218749999994,-15.45,15.82204975,34.49
2021-07-07 11:00:08.929687500,-57.75,-24.25,-16.0,63.229296874999996,-16.595,15.821609375,34.49
2021-07-07 11:00:08.937500000,-58.0,-24.0,-16.0,63.229375,-17.74,15.821169,34.49
2021-07-07 11:00:08.945312500,-58.0,-24.25,-15.75,63.229453125,-18.89,15.820728625,34.49
2021-07-07 11:00:08.953125000,-58.0,-24.5,-15.5,63.229531249999994,-20.04,15.820288249999999,34.49
2021-07-07 11:00:08.960937500,-58.0,-24.75,-15.25,63.229609374999995,-21.16,15.819847875,34.49
2021-07-07 11:00:08.968750000,-58.0,-25.0,-15.0,63.2296875,-22.28,15.8194075,34.49
2021-07-07 11:00:08.976562500,-57.75,-25.0,-15.25,63.229765625,-23.35,15.818967125,34.49
2021-07-07 11:00:08.984375000,-57.5,-25.0,-15.5,63.22984374999999,-24.42,15.81852675,34.49
2021-07-07 11:00:08.992187500,-57.25,-25.0,-15.75,63.229921874999995,-25.44,15.818086375,34.49
2021-07-07 11:00:09.000000000,-57.0,-25.0,-16.0,63.23,-26.46,15.817646,34.49
2021-07-07 11:00:09.007812500,-57.0,-25.0,-16.0,63.23,-27.455,15.8172856875,34.4903125
2021-07-07 11:00:09.015625000,-57.0,-25.0,-16.0,63.23,-28.45,15.816925375,34.490625
2021-07-07 11:00:09.023437500,-57.0,-25.0,-16.0,63.23,-29.435000000000002,15.8165650625,34.4909375
2021-07-07 11:00:09.031250000,-57.0,-25.0,-16.0,63.23,-30.42,15.81620475,34.49125
2021-07-07 11:00:09.039062500,-57.25,-25.0,-16.0,63.23,-31.44,15.8158444375,34.4915625
2021-07-07 11:00:09.046875000,-57.5,-25.0,-16.0,63.23,-32.46,15.815484125,34.491875
2021-07-07 11:00:09.054687500,-57.75,-25.0,-16.0,63.23,-33.545,15.8151238125,34.4921875
2021-07-07 11:00:09.062500000,-58.0,-25.0,-16.0,63.23,-34.63,15.8147635,34.4925
2021-07-07 11:00:09.070312500,-57.75,-25.0,-15.75,63.23,-35.83,15.8144031875,34.4928125
2021-07-07 11:00:09.078125000,-57.5,-25.0,-15.5,63.23,-37.03,15.814042875,34.493125
2021-07-07 11:00:09.085937500,-57.25,-25.0,-15.25,63.23,-38.36,15.8136825625,34.4934375
2021-07-07 11:00:09.093750000,-57.0,-25.0,-15.0,63.23,-39.69,15.813322249999999,34.49375
2021-07-07 11:00:09.101562500,-57.0,-25.0,-15.0,63.23,-41.095,15.812961937499999,34.4940625
2021-07-07 11:00:09.109375000,-57.0,-25.0,-15.0,63.23,-42.5,15.812601625,34.494375
2021-07-07 11:00:09.117187500,-57.0,-25.0,-15.0,63.23,-43.805,15.8122413125,34.4946875
2021-07-07 11:00:09.125000000,-57.0,-25.0,-15.0,63.23,-45.11,15.811881,34.495000000000005
2021-07-07 11:00:09.132812500,-57.25,-25.0,-15.25,63.23,-46.01,15.8115206875,34.495312500000004
2021-07-07 11:00:09.140625000,-57.5,-25.0,-15.5,63.23,-46.91,15.811160375,34.495625000000004
2021-07-07 11:00:09.148437500,-57.75,-25.0,-15.75,63.23,-47.025,15.8108000625,34.495937500000004
2021-07-07 11:00:09.156250000,-58.0,-25.0,-16.0,63.23,-47.14,15.81043975,34.49625
2021-07-07 11:00:09.164062500,-57.75,-24.75,-16.0,63.23,-46.125,15.810079437499999,34.4965625
2021-07-07 11:00:09.171875000,-57.5,-24.5,-16.0,63.23,-45.11,15.809719124999999,34.496875
2021-07-07 11:00:09.179687500,-57.25,-24.25,-16.0,63.23,-42.795,15.8093588125,34.4971875
2021-07-07 11:00:09.187500000,-57.0,-24.0,-16.0,63.23,-40.48,15.8089985,34.4975
2021-07-07 11:00:09.195312500,-57.25,-24.0,-15.5,63.23,-36.94,15.8086381875,34.4978125
2021-07-07 11:00:09.203125000,-57.5,-24.0,-15.0,63.23,-33.4,15.808277875,34.498125
2021-07-07 11:00:09.210937500,-57.75,-24.0,-14.5,63.23,-28.965,15.8079175625,34.4984375
2021-07-07 11:00:09.218750000,-58.0,-24.0,-14.0,63.23,-24.53,15.807557249999999,34.49875
2021-07-07 11:00:09.226562500,-58.0,-24.0,-14.75,63.23,-19.675,15.807196937499999,34.4990625
2021-07-07 11:00:09.234375000,-58.0,-24.0,-15.5,63.23,-14.82,15.806836624999999,34.499375
2021-07-07 11:00:09.242187500,-58.0,-24.0,-16.25,63.23,-10.065,15.8064763125,34.4996875
2021-07-07 11:00:09.250000000,-58.0,-24.0,-17.0,63.23,-5.31,15.806116,34.5
2021-07-07 11:00:09.257812500,-57.75,-24.25,-16.5,63.23,-1.0549999999999997,15.8053153125,34.5
2021-07-07 11:00:09.265625000,-57.5,-24.5,-16.0,63.23,3.2,15.804514625,34.5
2021-07-07 11:00:09.273437500,-57.25,-24.75,-15.5,63.23,6.74,15.8037139375,34.5
2021-07-07 11:00:09.281250000,-57.0,-25.0,-15.0,63.23,10.28,15.80291325,34.5
2021-07-07 11:00:09.289062500,-57.0,-25.0,-15.0,63.23,13.07,15.8021125625,34.5
2021-07-07 11:00:09.296875000,-57.0,-25.0,-15.0,63.23,15.86,15.801311875,34.5
2021-07-07 11:00:09.304687500,-57.0,-25.0,-15.0,63.23,18.0,15.8005111875,34.5
2021-07-07 11:00:09.312500000,-57.0,-25.0,-15.0,63.23,20.14,15.7997105,34.5
2021-07-07 11:00:09.320312500,-57.25,-25.0,-15.0,63.23,21.765,15.7989098125,34.5
2021-07-07 11:00:09.328125000,-57.5,-25.0,-15.0,63.23,23.39,15.798109125,34.5
2021-07-07 11:00:09.335937500,-57.75,-25.0,-15.0,63.23,24.605,15.7973084375,34.5
2021-07-07 11:00:09.343750000,-58.0,-25.0,-15.0,63.23,25.82,15.79650775,34.5
2021-07-07 11:00:09.351562500,-58.0,-25.0,-15.5,63.23,26.655,15.7957070625,34.5
2021-07-07 11:00:09.359375000,-58.0,-25.0,-16.0,63.23,27.49,15.794906375,34.5
2021-07-07 11:00:09.367187500,-58.0,-25.0,-16.5,63.23,27.945,15.7941056875,34.5
2021-07-07 11:00:09.375000000,-58.0,-25.0,-17.0,63.23,28.4,15.793305,34.5
2021-07-07 11:00:09.382812500,-57.75,-25.0,-16.5,63.23,28.475,15.792504312499998,34.5
2021-07-07 11:00:09.390625000,-57.5,-25.0,-16.0,63.23,28.55,15.791703624999998,34.5
2021-07-07 11:00:09.398437500,-57.25,-25.0,-15.5,63.23,28.33,15.790902937499999,34.5
2021-07-07 11:00:09.406250000,-57.0,-25.0,-15.0,63.23,28.11,15.790102249999999,34.5
2021-07-07 11:00:09.414062500,-57.25,-25.0,-15.25,63.23,27.73,15.789301562499999,34.5
2021-07-07 11:00:09.421875000,-57.5,-25.0,-15.5,63.23,27.35,15.788500874999999,34.5
2021-07-07 11:00:09.429687500,-57.75,-25.0,-15.75,63.23,26.990000000000002,15.787700187499999,34.5
2021-07-07 11:00:09.437500000,-58.0,-25.0,-16.0,63.23,26.63,15.786899499999999,34.5
2021-07-07 11:00:09.445312500,-57.75,-25.0,-16.0,63.23,26.405,15.786098812499999,34.5
2021-07-07 11:00:09.453125000,-57.5,-25.0,-16.0,63.23,26.18,15.785298124999999,34.5
2021-07-07 11:00:09.460937500,-57.25,-25.0,-16.0,63.23,26.125,15.784497437499999,34.5
2021-07-07 11:00:09.468750000,-57.0,-25.0,-16.0,63.23,26.07,15.783696749999999,34.5
2021-07-07 11:00:09.476562500,-57.25,-24.75,-16.25,63.23,26.1,15.782896062499999,34.5
2021-07-07 11:00:09.484375000,-57.5,-24.5,-16.5,63.23,26.13,15.782095374999999,34.5
2021-07-07 11:00:09.492187500,-57.75,-24.25,-16.75,63.23,26.14,15.781294687499999,34.5
2021-07-07 11:00:09.500000000,-58.0,-24.0,-17.0,63.23,26.15,15.780494,34.5
2021-07-07 11:00:09.507812500,-58.0,-24.25,-16.75,63.23,26.055,15.7806941875,34.5
2021-07-07 11:00:09.515625000,-58.0,-24.5,-16.5,63.23,25.96,15.780894374999999,34.5
2021-07-07 11:00:09.523437500,-58.0,-24.75,-16.25,63.23,25.759999999999998,15.7810945625,34.5
2021-07-07 11:00:09.531250000,-58.0,-25.0,-16.0,63.23,25.56,15.781294749999999,34.5
2021-07-07 11:00:09.539062500,-58.0,-25.0,-15.5,63.23,25.314999999999998,15.7814949375,34.5
2021-07-07 11:00:09.546875000,-58.0,-25.0,-15.0,63.23,25.07,15.781695124999999,34.5
2021-07-07 11:00:09.554687500,-58.0,-25.0,-14.5,63.23,24.845,15.7818953125,34.5
2021-07-07 11:00:09.562500000,-58.0,-25.0,-14.0,63.23,24.62,15.782095499999999,34.5
2021-07-07 11:00:09.570312500,-58.0,-24.75,-13.75,63.23,24.435000000000002,15.7822956875,34.5
2021-07-07 11:00:09.578125000,-58.0,-24.5,-13.5,63.23,24.25,15.782495874999999,34.5
2021-07-07 11:00:09.585937500,-58.0,-24.25,-13.25,63.23,24.03,15.7826960625,34.5
2021-07-07 11:00:09.593750000,-58.0,-24.0,-13.0,63.23,23.81,15.782896249999999,34.5
2021-07-07 11:00:09.601562500,-58.25,-24.25,-13.75,63.23,23.439999999999998,15.7830964375,34.5
2021-07-07 11:00:09.609375000,-58.5,-24.5,-14.5,63.23,23.07,15.783296624999998,34.5
2021-07-07 11:00:09.617187500,-58.75,-24.75,-15.25,63.23,22.445,15.7834968125,34.5
2021-07-07 11:00:09.625000000,-59.0,-25.0,-16.0,63.23,21.82,15.783697,34.5
2021-07-07 11:00:09.632812500,-58.75,-24.75,-16.5,63.23,20.905,15.7838971875,34.5
2021-07-07 11:00:09.640625000,-58.5,-24.5,-17.0,63.23,19.99,15.784097375,34.5
2021-07-07 11:00:09.648437500,-58.25,-24.25,-17.5,63.23,18.82,15.784297562499999,34.5
2021-07-07 11:00:09.656250000,-58.0,-24.0,-18.0,63.23,17.65,15.78449775,34.5
2021-07-07 11:00:09.664062500,-57.75,-23.75,-15.5,63.23,16.325,15.784697937499999,34.5
2021-07-07 11:00:09.671875000,-57.5,-23.5,-13.0,63.23,15.0,15.784898125,34.5
2021-07-07 11:00:09.679687500,-57.25,-23.25,-10.5,63.23,13.61,15.785098312499999,34.5
2021-07-07 11:00:09.687500000,-57.0,-23.0,-8.0,63.23,12.22,15.7852985,34.5
2021-07-07 11:00:09.695312500,-56.75,-23.25,-10.5,63.23,10.825,15.785498687499999,34.5
2021-07-07 11:00:09.703125000,-56.5,-23.5,-13.0,63.23,9.43,15.785698875,34.5
2021-07-07 11:00:09.710937500,-56.25,-23.75,-15.5,63.23,8.05,15.785899062499999,34.5
2021-07-07 11:00:09.718750000,-56.0,-24.0,-18.0,63.23,6.67,15.78609925,34.5
2021-07-07 11:00:09.726562500,-55.75,-24.25,-18.75,63.23,5.3100000000000005,15.786299437499999,34.5
2021-07-07 11:00:09.734375000,-55.5,-24.5,-19.5,63.23,3.95,15.786499625,34.5
2021-07-07 11:00:09.742187500,-55.25,-24.75,-20.25,63.23,2.6350000000000002,15.786699812499998,34.5
2021-07-07 11:00:09.750000000,-55.0,-25.0,-21.0,63.23,1.32,15.7869,34.5
2021-07-07 11:00:09.757812500,-55.5,-25.0,-22.5,63.23,0.08000000000000007,15.78533865625,34.5
2021-07-07 11:00:09.765625000,-56.0,-25.0,-24.0,63.23,-1.16,15.7837773125,34.5
2021-07-07 11:00:09.773437500,-56.5,-25.0,-25.5,63.23,-2.2750000000000004,15.78221596875,34.5
2021-07-07 11:00:09.781250000,-57.0,-25.0,-27.0,63.23,-3.39,15.780654624999999,34.5
2021-07-07 11:00:09.789062500,-56.75,-25.0,-27.25,63.23,-4.35,15.779093281249999,34.5
2021-07-07 11:00:09.796875000,-56.5,-25.0,-27.5,63.23,-5.31,15.7775319375,34.5
2021-07-07 11:00:09.804687500,-56.25,-25.0,-27.75,63.23,-6.105,15.77597059375,34.5
2021-07-07 11:00:09.812500000,-56.0,-25.0,-28.0,63.23,-6.9,15.77440925,34.5
2021-07-07 11:00:09.820312500,-55.5,-24.5,-28.0,63.23,-7.55,15.77284790625,34.5
2021-07-07 11:00:09.828125000,-55.0,-24.0,-28.0,63.23,-8.2,15.771286562499998,34.5
2021-07-07 11:00:09.835937500,-54.5,-23.5,-28.0,63.23,-8.705,15.769725218749999,34.5
2021-07-07 11:00:09.843750000,-54.0,-23.0,-28.0,63.23,-9.21,15.768163874999999,34.5
2021-07-07 11:00:09.851562500,-54.0,-23.0,-28.0,63.23,-9.56,15.76660253125,34.5
2021-07-07 11:00:09.859375000,-54.0,-23.0,-28.0,63.23,-9.91,15.7650411875,34.5
2021-07-07 11:00:09.867187500,-54.0,-23.0,-28.0,63.23,-10.08,15.76347984375,34.5
2021-07-07 11:00:09.875000000,-54.0,-23.0,-28.0,63.23,-10.25,15.7619185,34.5
2021-07-07 11:00:09.882812500,-54.25,-23.0,-27.5,63.23,-10.24,15.760357156249999,34.5
2021-07-07 11:00:09.890625000,-54.5,-23.0,-27.0,63.23,-10.23,15.758795812499999,34.5
2021-07-07 11:00:09.898437500,-54.75,-23.0,-26.5,63.23,-10.100000000000001,15.75723446875,34.5
2021-07-07 11:00:09.906250000,-55.0,-23.0,-26.0,63.23,-9.97,15.755673125,34.5
2021-07-07 11:00:09.914062500,-55.25,-22.75,-26.0,63.23,-9.835,15.75411178125,34.5
2021-07-07 11:00:09.921875000,-55.5,-22.5,-26.0,63.23,-9.7,15.7525504375,34.5
2021-07-07 11:00:09.929687500,-55.75,-22.25,-26.0,63.23,-9.7,15.750989093749999,34.5
2021-07-07 11:00:09.937500000,-56.0,-22.0,-26.0,63.23,-9.7,15.749427749999999,34.5
2021-07-07 11:00:09.945312500,-56.25,-22.0,-25.0,63.23,-9.934999999999999,15.74786640625,34.5
2021-07-07 11:00:09.953125000,-56.5,-22.0,-24.0,63.23,-10.17,15.7463050625,34.5
2021-07-07 11:00:09.960937500,-56.75,-22.0,-23.0,63.23,-10.690000000000001,15.74474371875,34.5
2021-07-07 11:00:09.968750000,-57.0,-22.0,-22.0,63.23,-11.21,15.743182375,34.5
2021-07-07 11:00:09.976562500,-57.0,-22.0,-21.75,63.23,-11.97,15.741621031249998,34.5
2021-07-07 11:00:09.984375000,-57.0,-22.0,-21.5,63.23,-12.73,15.740059687499999,34.5
2021-07-07 11:00:09.992187500,-57.0,-22.0,-21.25,63.23,-13.64,15.738498343749999,34.5
2021-07-07 11:00:10.000000000,-57.0,-22.0,-21.0,63.23,-14.55,15.736937,34.5
2021-07-07 11:00:10.007812500,-57.0,-22.0,-21.0,63.23,-15.495000000000001,15.72889009375,34.4996875
2021-07-07 11:00:10.015625000,-57.0,-22.0,-21.0,63.23,-16.44,15.7208431875,34.499375
2021-07-07 11:00:10.023437500,-57.0,-22.0,-21.0,63.23,-17.345,15.71279628125,34.4990625
2021-07-07 11:00:10.031250000,-57.0,-22.0,-21.0,63.23,-18.25,15.704749374999999,34.49875
2021-07-07 11:00:10.039062500,-56.75,-21.75,-20.75,63.23,-19.064999999999998,15.696702468749999,34.4984375
2021-07-07 11:00:10.046875000,-56.5,-21.5,-20.5,63.23,-19.88,15.6886555625,34.498125
2021-07-07 11:00:10.054687500,-56.25,-21.25,-20.25,63.23,-20.64,15.68060865625,34.4978125
2021-07-07 11:00:10.062500000,-56.0,-21.0,-20.0,63.23,-21.4,15.67256175,34.4975
2021-07-07 11:00:10.070312500,-55.5,-21.25,-19.25,63.23,-22.174999999999997,15.66451484375,34.4971875
2021-07-07 11:00:10.078125000,-55.0,-21.5,-18.5,63.23,-22.95,15.656467937499999,34.496875
2021-07-07 11:00:10.085937500,-54.5,-21.75,-17.75,63.23,-23.869999999999997,15.648421031249999,34.4965625
2021-07-07 11:00:10.093750000,-54.0,-22.0,-17.0,63.23,-24.79,15.640374125,34.49625
2021-07-07 11:00:10.101562500,-55.0,-22.5,-15.0,63.23,-26.0,15.63232721875,34.495937500000004
2021-07-07 11:00:10.109375000,-56.0,-23.0,-13.0,63.23,-27.21,15.6242803125,34.495625000000004
2021-07-07 11:00:10.117187500,-57.0,-23.5,-11.0,63.23,-28.815,15.61623340625,34.495312500000004
2021-07-07 11:00:10.125000000,-58.0,-24.0,-9.0,63.23,-30.42,15.608186499999999,34.495000000000005
2021-07-07 11:00:10.132812500,-58.5,-24.0,-10.5,63.23,-32.43,15.600139593749999,34.4946875
2021-07-07 11:00:10.140625000,-59.0,-24.0,-12.0,63.23,-34.44,15.5920926875,34.494375
2021-07-07 11:00:10.148437500,-59.5,-24.0,-13.5,63.23,-36.675,15.58404578125,34.4940625
2021-07-07 11:00:10.156250000,-60.0,-24.0,-15.0,63.23,-38.91,15.575998875,34.49375
2021-07-07 11:00:10.164062500,-59.25,-23.5,-16.25,63.23,-41.019999999999996,15.56795196875,34.4934375
2021-07-07 11:00:10.171875000,-58.5,-23.0,-17.5,63.23,-43.13,15.5599050625,34.493125
2021-07-07 11:00:10.179687500,-57.75,-22.5,-18.75,63.23,-44.625,15.551858156249999,34.4928125
2021-07-07 11:00:10.187500000,-57.0,-22.0,-20.0,63.23,-46.12,15.54381125,34.4925
2021-07-07 11:00:10.195312500,-56.75,-22.25,-20.0,63.23,-46.5,15.53576434375,34.4921875
2021-07-07 11:00:10.203125000,-56.5,-22.5,-20.0,63.23,-46.88,15.5277174375,34.491875
2021-07-07 11:00:10.210937500,-56.25,-22.75,-20.0,63.23,-45.8,15.51967053125,34.4915625
2021-07-07 11:00:10.218750000,-56.0,-23.0,-20.0,63.23,-44.72,15.511623625,34.49125
2021-07-07 11:00:10.226562500,-56.5,-22.75,-19.5,63.23,-42.07,15.503576718749999,34.4909375
2021-07-07 11:00:10.234375000,-57.0,-22.5,-19.0,63.23,-39.42,15.4955298125,34.490625
2021-07-07 11:00:10.242187500,-57.5,-22.25,-18.5,63.23,-35.41,15.48748290625,34.4903125
2021-07-07 11:00:10.250000000,-58.0,-22.0,-18.0,63.23,-31.4,15.479436,34.49
2021-07-07 11:00:10.257812500,-58.0,-22.25,-18.0,63.23,-26.475,15.4836153125,34.49
2021-07-07 11:00:10.265625000,-58.0,-22.5,-18.0,63.23,-21.55,15.487794625,34.49
2021-07-07 11:00:10.273437500,-58.0,-22.75,-18.0,63.23,-16.295,15.4919739375,34.49
2021-07-07 11:00:10.281250000,-58.0,-23.0,-18.0,63.23,-11.04,15.496153249999999,34.49
2021-07-07 11:00:10.289062500,-57.75,-23.0,-17.75,63.23,-6.015,15.5003325625,34.49
2021-07-07 11:00:10.296875000,-57.5,-23.0,-17.5,63.23,-0.99,15.504511875,34.49
2021-07-07 11:00:10.304687500,-57.25,-23.0,-17.25,63.23,3.3999999999999995,15.5086911875,34.49
2021-07-07 11:00:10.312500000,-57.0,-23.0,-17.0,63.23,7.79,15.5128705,34.49
2021-07-07 11:00:10.320312500,-57.25,-23.0,-17.25,63.23,11.35,15.5170498125,34.49
2021-07-07 11:00:10.328125000,-57.5,-23.0,-17.5,63.23,14.91,15.521229125,34.49
2021-07-07 11:00:10.335937500,-57.75,-23.0,-17.75,63.23,17.634999999999998,15.5254084375,34.49
2021-07-07 11:00:10.343750000,-58.0,-23.0,-18.0,63.23,20.36,15.529587750000001,34.49
2021-07-07 11:00:10.351562500,-57.75,-22.75,-18.0,63.23,22.375,15.5337670625,34.49
2021-07-07 11:00:10.359375000,-57.5,-22.5,-18.0,63.23,24.39,15.537946375,34.49
2021-07-07 11:00:10.367187500,-57.25,-22.25,-18.0,63.23,25.84,15.5421256875,34.49
2021-07-07 11:00:10.375000000,-57.0,-22.0,-18.0,63.23,27.29,15.546305,34.49
2021-07-07 11:00:10.382812500,-57.25,-22.25,-18.25,63.23,28.275,15.5504843125,34.49
2021-07-07 11:00:10.390625000,-57.5,-22.5,-18.5,63.23,29.26,15.554663625,34.49
2021-07-07 11:00:10.398437500,-57.75,-22.75,-18.75,63.23,29.825000000000003,15.5588429375,34.49
2021-07-07 11:00:10.406250000,-58.0,-23.0,-19.0,63.23,30.39,15.56302225,34.49
2021-07-07 11:00:10.414062500,-58.0,-22.75,-18.5,63.23,30.564999999999998,15.567201562500001,34.49
2021-07-07 11:00:10.421875000,-58.0,-22.5,-18.0,63.23,30.74,15.571380875000001,34.49
2021-07-07 11:00:10.429687500,-58.0,-22.25,-17.5,63.23,30.564999999999998,15.5755601875,34.49
2021-07-07 11:00:10.437500000,-58.0,-22.0,-17.0,63.23,30.39,15.5797395,34.49
2021-07-07 11:00:10.445312500,-58.0,-22.0,-17.25,63.23,29.965,15.5839188125,34.49
2021-07-07 11:00:10.453125000,-58.0,-22.0,-17.5,63.23,29.54,15.588098125,34.49
2021-07-07 11:00:10.460937500,-58.0,-22.0,-17.75,63.23,28.975,15.5922774375,34.49
2021-07-07 11:00:10.468750000,-58.0,-22.0,-18.0,63.23,28.41,15.596456750000002,34.49
2021-07-07 11:00:10.476562500,-57.75,-22.0,-18.25,63.23,27.814999999999998,15.600636062500001,34.49
2021-07-07 11:00:10.484375000,-57.5,-22.0,-18.5,63.23,27.22,15.604815375000001,34.49
2021-07-07 11:00:10.492187500,-57.25,-22.0,-18.75,63.23,26.645,15.608994687500001,34.49
2021-07-07 11:00:10.500000000,-57.0,-22.0,-19.0,63.23,26.07,15.613174,34.49
2021-07-07 11:00:10.507812500,-57.25,-22.0,-19.25,63.23,25.54,15.61345428125,34.49
2021-07-07 11:00:10.515625000,-57.5,-22.0,-19.5,63.23,25.01,15.613734562500001,34.49
2021-07-07 11:00:10.523437500,-57.75,-22.0,-19.75,63.23,24.53,15.61401484375,34.49
2021-07-07 11:00:10.531250000,-58.0,-22.0,-20.0,63.23,24.05,15.614295125,34.49
2021-07-07 11:00:10.539062500,-58.0,-22.0,-19.75,63.23,23.634999999999998,15.614575406250001,34.49
2021-07-07 11:00:10.546875000,-58.0,-22.0,-19.5,63.23,23.22,15.6148556875,34.49
2021-07-07 11:00:10.554687500,-58.0,-22.0,-19.25,63.23,22.9,15.61513596875,34.49
2021-07-07 11:00:10.562500000,-58.0,-22.0,-19.0,63.23,22.58,15.61541625,34.49
2021-07-07 11:00:10.570312500,-57.75,-22.0,-18.75,63.23,22.354999999999997,15.61569653125,34.49
2021-07-07 11:00:10.578125000,-57.5,-22.0,-18.5,63.23,22.13,15.6159768125,34.49
2021-07-07 11:00:10.585937500,-57.25,-22.0,-18.25,63.23,21.935,15.61625709375,34.49
2021-07-07 11:00:10.593750000,-57.0,-22.0,-18.0,63.23,21.74,15.616537375,34.49
2021-07-07 11:00:10.601562500,-57.25,-22.25,-18.0,63.23,21.435,15.61681765625,34.49
2021-07-07 11:00:10.609375000,-57.5,-22.5,-18.0,63.23,21.13,15.6170979375,34.49
2021-07-07 11:00:10.617187500,-57.75,-22.75,-18.0,63.23,20.56,15.61737821875,34.49
2021-07-07 11:00:10.625000000,-58.0,-23.0,-18.0,63.23,19.99,15.617658500000001,34.49
2021-07-07 11:00:10.632812500,-58.0,-22.75,-18.0,63.23,19.034999999999997,15.61793878125,34.49
2021-07-07 11:00:10.640625000,-58.0,-22.5,-18.0,63.23,18.08,15.6182190625,34.49
2021-07-07 11:00:10.648437500,-58.0,-22.25,-18.0,63.23,16.73,15.61849934375,34.49
2021-07-07 11:00:10.656250000,-58.0,-22.0,-18.0,63.23,15.38,15.618779625,34.49
2021-07-07 11:00:10.664062500,-58.0,-22.0,-18.0,63.23,13.73,15.61905990625,34.49
2021-07-07 11:00:10.671875000,-58.0,-22.0,-18.0,63.23,12.08,15.6193401875,34.49
2021-07-07 11:00:10.679687500,-58.0,-22.0,-18.0,63.23,10.27,15.61962046875,34.49
2021-07-07 11:00:10.687500000,-58.0,-22.0,-18.0,63.23,8.46,15.61990075,34.49
2021-07-07 11:00:10.695312500,-58.0,-22.0,-18.25,63.23,6.615,15.62018103125,34.49
2021-07-07 11:00:10.703125000,-58.0,-22.0,-18.5,63.23,4.77,15.6204613125,34.49
2021-07-07 11:00:10.710937500,-58.0,-22.0,-18.75,63.23,2.96,15.62074159375,34.49
2021-07-07 11:00:10.718750000,-58.0,-22.0,-19.0,63.23,1.15,15.621021875,34.49
2021-07-07 11:00:10.726562500,-58.0,-22.25,-18.75,63.23,-0.645,15.62130215625,34.49
2021-07-07 11:00:10.734375000,-58.0,-22.5,-18.5,63.23,-2.44,15.621582437499999,34.49
2021-07-07 11:00:10.742187500,-58.0,-22.75,-18.25,63.23,-4.31,15.62186271875,34.49
2021-07-07 11:00:10.750000000,-58.0,-23.0,-18.0,63.23,-6.18,15.622143,34.49
2021-07-07 11:00:10.757812500,-58.0,-22.75,-17.75,63.23,-8.26,15.62334403125,34.49
2021-07-07 11:00:10.765625000,-58.0,-22.5,-17.5,63.23,-10.34,15.6245450625,34.49
2021-07-07 11:00:10.773437500,-58.0,-22.25,-17.25,63.23,-12.809999999999999,15.62574609375,34.49
2021-07-07 11:00:10.781250000,-58.0,-22.0,-17.0,63.23,-15.28,15.626947125,34.49
2021-07-07 11:00:10.789062500,-58.0,-22.25,-17.5,63.23,-18.245,15.628148156249999,34.49
2021-07-07 11:00:10.796875000,-58.0,-22.5,-18.0,63.23,-21.21,15.629349187499999,34.49
2021-07-07 11:00:10.804687500,-58.0,-22.75,-18.5,63.23,-24.700000000000003,15.630550218749999,34.49
2021-07-07 11:00:10.812500000,-58.0,-23.0,-19.0,63.23,-28.19,15.63175125,34.49
2021-07-07 11:00:10.820312500,-58.0,-22.75,-18.75,63.23,-32.07,15.63295228125,34.49
2021-07-07 11:00:10.828125000,-58.0,-22.5,-18.5,63.23,-35.95,15.6341533125,34.49
2021-07-07 11:00:10.835937500,-58.0,-22.25,-18.25,63.23,-39.905,15.63535434375,34.49
2021-07-07 11:00:10.843750000,-58.0,-22.0,-18.0,63.23,-43.86,15.636555375,34.49
2021-07-07 11:00:10.851562500,-57.75,-22.0,-17.75,63.23,-47.480000000000004,15.63775640625,34.49
2021-07-07 11:00:10.859375000,-57.5,-22.0,-17.5,63.23,-51.1,15.6389574375,34.49
2021-07-07 11:00:10.867187500,-57.25,-22.0,-17.25,63.23,-53.985,15.64015846875,34.49
2021-07-07 11:00:10.875000000,-57.0,-22.0,-17.0,63.23,-56.87,15.6413595,34.49
2021-07-07 11:00:10.882812500,-57.25,-22.25,-17.5,63.23,-58.765,15.64256053125,34.49
2021-07-07 11:00:10.890625000,-57.5,-22.5,-18.0,63.23,-60.66,15.6437615625,34.49
2021-07-07 11:00:10.898437500,-57.75,-22.75,-18.5,63.23,-61.51,15.64496259375,34.49
2021-07-07 11:00:10.906250000,-58.0,-23.0,-19.0,63.23,-62.36,15.646163625,34.49
2021-07-07 11:00:10.914062500,-58.0,-22.75,-19.0,63.23,-62.305,15.64736465625,34.49
2021-07-07 11:00:10.921875000,-58.0,-22.5,-19.0,63.23,-62.25,15.6485656875,34.49
2021-07-07 11:00:10.929687500,-58.0,-22.25,-19.0,63.23,-61.515,15.64976671875,34.49
2021-07-07 11:00:10.937500000,-58.0,-22.0,-19.0,63.23,-60.78,15.65096775,34.49
2021-07-07 11:00:10.945312500,-58.0,-22.0,-19.0,63.23,-59.575,15.652168781250001,34.49
2021-07-07 11:00:10.953125000,-58.0,-22.0,-19.0,63.23,-58.37,15.653369812500001,34.49
2021-07-07 11:00:10.960937500,-58.0,-22.0,-19.0,63.23,-56.825,15.654570843750001,34.49
2021-07-07 11:00:10.968750000,-58.0,-22.0,-19.0,63.23,-55.28,15.655771875000001,34.49
2021-07-07 11:00:10.976562500,-57.75,-21.75,-18.5,63.23,-53.44,15.656972906250001,34.49
2021-07-07 11:00:10.984375000,-57.5,-21.5,-18.0,63.23,-51.6,15.6581739375,34.49
2021-07-07 11:00:10.992187500,-57.25,-21.25,-17.5,63.23,-49.46,15.65937496875,34.49
2021-07-07 11:00:11.000000000,-57.0,-21.0,-17.0,63.23,-47.32,15.660576,34.49
2021-07-07 11:00:11.007812500,-57.25,-21.5,-17.5,63.229921874999995,-44.894999999999996,15.66005553125,34.49
2021-07-07 11:00:11.015625000,-57.5,-22.0,-18.0,63.22984374999999,-42.47,15.659535062500002,34.49
2021-07-07 11:00:11.023437500,-57.75,-22.5,-18.5,63.229765625,-39.83,15.659014593750001,34.49
2021-07-07 11:00:11.031250000,-58.0,-23.0,-19.0,63.2296875,-37.19,15.658494125,34.49
2021-07-07 11:00:11.039062500,-58.0,-23.0,-18.5,63.229609374999995,-34.48,15.65797365625,34.49
2021-07-07 11:00:11.046875000,-58.0,-23.0,-18.0,63.229531249999994,-31.77,15.6574531875,34.49
2021-07-07 11:00:11.054687500,-58.0,-23.0,-17.5,63.229453125,-29.205,15.656932718750001,34.49
2021-07-07 11:00:11.062500000,-58.0,-23.0,-17.0,63.229375,-26.64,15.65641225,34.49
2021-07-07 11:00:11.070312500,-58.0,-22.75,-17.0,63.229296874999996,-24.475,15.65589178125,34.49
2021-07-07 11:00:11.078125000,-58.0,-22.5,-17.0,63.229218749999994,-22.31,15.655371312500002,34.49
2021-07-07 11:00:11.085937500,-58.0,-22.25,-17.0,63.229140625,-20.795,15.654850843750001,34.49
2021-07-07 11:00:11.093750000,-58.0,-22.0,-17.0,63.2290625,-19.28,15.654330375,34.49
2021-07-07 11:00:11.101562500,-58.0,-22.0,-17.5,63.228984374999996,-18.625,15.65380990625,34.49
2021-07-07 11:00:11.109375000,-58.0,-22.0,-18.0,63.228906249999994,-17.97,15.6532894375,34.49
2021-07-07 11:00:11.117187500,-58.0,-22.0,-18.5,63.228828125,-18.259999999999998,15.652768968750001,34.49
2021-07-07 11:00:11.125000000,-58.0,-22.0,-19.0,63.22875,-18.55,15.6522485,34.49
2021-07-07 11:00:11.132812500,-58.0,-22.25,-19.25,63.228671874999996,-19.689999999999998,15.65172803125,34.49
2021-07-07 11:00:11.140625000,-58.0,-22.5,-19.5,63.228593749999995,-20.83,15.651207562500002,34.49
2021-07-07 11:00:11.148437500,-58.0,-22.75,-19.75,63.228515625,-22.53,15.650687093750001,34.49
2021-07-07 11:00:11.156250000,-58.0,-23.0,-20.0,63.2284375,-24.23,15.650166625,34.49
2021-07-07 11:00:11.164062500,-57.75,-22.75,-19.5,63.228359375,-26.0,15.64964615625,34.49
2021-07-07 11:00:11.171875000,-57.5,-22.5,-19.0,63.228281249999995,-27.77,15.6491256875,34.49
2021-07-07 11:00:11.179687500,-57.25,-22.25,-18.5,63.228203125,-29.04,15.648605218750001,34.49
2021-07-07 11:00:11.187500000,-57.0,-22.0,-18.0,63.228125,-30.31,15.64808475,34.49
2021-07-07 11:00:11.195312500,-57.25,-22.0,-18.0,63.228046875,-30.575,15.64756428125,34.49
2021-07-07 11:00:11.203125000,-57.5,-22.0,-18.0,63.227968749999995,-30.84,15.647043812500002,34.49
2021-07-07 11:00:11.210937500,-57.75,-22.0,-18.0,63.227890625,-29.78,15.646523343750001,34.49
2021-07-07 11:00:11.218750000,-58.0,-22.0,-18.0,63.2278125,-28.72,15.646002875,34.49
2021-07-07 11:00:11.226562500,-58.0,-22.0,-18.25,63.227734375,-26.314999999999998,15.64548240625,34.49
2021-07-07 11:00:11.234375000,-58.0,-22.0,-18.5,63.227656249999995,-23.91,15.6449619375,34.49
2021-07-07 11:00:11.242187500,-58.0,-22.0,-18.75,63.227578125,-20.445,15.644441468750001,34.49
2021-07-07 11:00:11.250000000,-58.0,-22.0,-19.0,63.2275,-16.98,15.643921,34.49
2021-07-07 11:00:11.257812500,-58.0,-22.25,-18.5,63.227421875,-12.97,15.64380090625,34.49
2021-07-07 11:00:11.265625000,-58.0,-22.5,-18.0,63.227343749999996,-8.96,15.643680812500001,34.49
2021-07-07 11:00:11.273437500,-58.0,-22.75,-17.5,63.227265624999994,-4.98,15.64356071875,34.49
2021-07-07 11:00:11.281250000,-58.0,-23.0,-17.0,63.2271875,-1.0,15.643440625,34.49
2021-07-07 11:00:11.289062500,-57.75,-22.75,-17.0,63.227109375,2.46,15.643320531250001,34.49
2021-07-07 11:00:11.296875000,-57.5,-22.5,-17.0,63.227031249999996,5.92,15.6432004375,34.49
2021-07-07 11:00:11.304687500,-57.25,-22.25,-17.0,63.226953124999994,8.57,15.64308034375,34.49
2021-07-07 11:00:11.312500000,-57.0,-22.0,-17.0,63.226875,11.22,15.642960250000002,34.49
2021-07-07 11:00:11.320312500,-57.25,-22.25,-17.5,63.226796875,13.010000000000002,15.642840156250001,34.49
2021-07-07 11:00:11.328125000,-57.5,-22.5,-18.0,63.226718749999996,14.8,15.6427200625,34.49
2021-07-07 11:00:11.335937500,-57.75,-22.75,-18.5,63.226640624999995,15.825000000000001,15.64259996875,34.49
2021-07-07 11:00:11.343750000,-58.0,-23.0,-19.0,63.2265625,16.85,15.642479875000001,34.49
2021-07-07 11:00:11.351562500,-58.0,-23.0,-18.75,63.226484375,17.305,15.64235978125,34.49
2021-07-07 11:00:11.359375000,-58.0,-23.0,-18.5,63.22640625,17.76,15.6422396875,34.49
2021-07-07 11:00:11.367187500,-58.0,-23.0,-18.25,63.226328124999995,17.815,15.642119593750001,34.49
2021-07-07 11:00:11.375000000,-58.0,-23.0,-18.0,63.22625,17.87,15.6419995,34.49
2021-07-07 11:00:11.382812500,-57.75,-22.75,-17.75,63.226171875,17.655,15.64187940625,34.49
2021-07-07 11:00:11.390625000,-57.5,-22.5,-17.5,63.22609375,17.44,15.641759312500001,34.49
2021-07-07 11:00:11.398437500,-57.25,-22.25,-17.25,63.226015624999995,17.03,15.64163921875,34.49
2021-07-07 11:00:11.406250000,-57.0,-22.0,-17.0,63.2259375,16.62,15.641519125,34.49
2021-07-07 11:00:11.414062500,-57.25,-22.25,-17.5,63.225859375,16.07,15.641399031250002,34.49
2021-07-07 11:00:11.421875000,-57.5,-22.5,-18.0,63.22578125,15.52,15.641278937500001,34.49
2021-07-07 11:00:11.429687500,-57.75,-22.75,-18.5,63.225703124999995,14.905,15.64115884375,34.49
2021-07-07 11:00:11.437500000,-58.0,-23.0,-19.0,63.225625,14.29,15.64103875,34.49
2021-07-07 11:00:11.445312500,-58.0,-23.0,-19.0,63.225546875,13.675,15.640918656250001,34.49
2021-07-07 11:00:11.453125000,-58.0,-23.0,-19.0,63.22546875,13.06,15.6407985625,34.49
2021-07-07 11:00:11.460937500,-58.0,-23.0,-19.0,63.225390624999996,12.54,15.64067846875,34.49
2021-07-07 11:00:11.468750000,-58.0,-23.0,-19.0,63.2253125,12.02,15.640558375000001,34.49
2021-07-07 11:00:11.476562500,-58.0,-23.0,-18.5,63.225234375,11.665,15.64043828125,34.49
2021-07-07 11:00:11.484375000,-58.0,-23.0,-18.0,63.22515625,11.31,15.6403181875,34.49
2021-07-07 11:00:11.492187500,-58.0,-23.0,-17.5,63.225078124999996,11.16,15.640198093750001,34.49
2021-07-07 11:00:11.500000000,-58.0,-23.0,-17.0,63.224999999999994,11.01,15.640078,34.49
2021-07-07 11:00:11.507812500,-58.0,-22.75,-17.0,63.224921875,11.1,15.63911715625,34.49
2021-07-07 11:00:11.515625000,-58.0,-22.5,-17.0,63.22484375,11.19,15.638156312500001,34.49
2021-07-07 11:00:11.523437500,-58.0,-22.25,-17.0,63.224765624999996,11.504999999999999,15.63719546875,34.49
2021-07-07 11:00:11.531250000,-58.0,-22.0,-17.0,63.224687499999995,11.82,15.636234625,34.49
2021-07-07 11:00:11.539062500,-57.75,-22.25,-17.5,63.224609375,12.33,15.635273781250001,34.49
2021-07-07 11:00:11.546875000,-57.5,-22.5,-18.0,63.22453125,12.84,15.6343129375,34.49
2021-07-07 11:00:11.554687500,-57.25,-22.75,-18.5,63.224453125,13.48,15.63335209375,34.49
2021-07-07 11:00:11.562500000,-57.0,-23.0,-19.0,63.224374999999995,14.12,15.632391250000001,34.49
2021-07-07 11:00:11.570312500,-57.25,-22.75,-18.75,63.224296875,14.79,15.63143040625,34.49
2021-07-07 11:00:11.578125000,-57.5,-22.5,-18.5,63.22421875,15.46,15.6304695625,34.49
2021-07-07 11:00:11.585937500,-57.75,-22.25,-18.25,63.224140625,16.075000000000003,15.62950871875,34.49
2021-07-07 11:00:11.593750000,-58.0,-22.0,-18.0,63.224062499999995,16.69,15.628547875,34.49
2021-07-07 11:00:11.601562500,-57.75,-22.25,-17.75,63.223984375,17.200000000000003,15.62758703125,34.49
2021-07-07 11:00:11.609375000,-57.5,-22.5,-17.5,63.22390625,17.71,15.6266261875,34.49
2021-07-07 11:00:11.617187500,-57.25,-22.75,-17.25,63.223828125,18.14,15.62566534375,34.49
2021-07-07 11:00:11.625000000,-57.0,-23.0,-17.0,63.223749999999995,18.57,15.6247045,34.49
2021-07-07 11:00:11.632812500,-57.0,-23.0,-17.5,63.223671875,19.04,15.62374365625,34.49
2021-07-07 11:00:11.640625000,-57.0,-23.0,-18.0,63.22359375,19.51,15.6227828125,34.49
2021-07-07 11:00:11.648437500,-57.0,-23.0,-18.5,63.223515625,20.14,15.62182196875,34.49
2021-07-07 11:00:11.656250000,-57.0,-23.0,-19.0,63.223437499999996,20.77,15.620861125,34.49
2021-07-07 11:00:11.664062500,-57.25,-23.0,-19.0,63.223359375,21.685000000000002,15.61990028125,34.49
2021-07-07 11:00:11.671875000,-57.5,-23.0,-19.0,63.22328125,22.6,15.6189394375,34.49
2021-07-07 11:00:11.679687500,-57.75,-23.0,-19.0,63.223203125,23.805,15.61797859375,34.49
2021-07-07 11:00:11.687500000,-58.0,-23.0,-19.0,63.223124999999996,25.01,15.617017749999999,34.49
2021-07-07 11:00:11.695312500,-57.75,-23.0,-18.75,63.223046875,26.44,15.61605690625,34.49
2021-07-07 11:00:11.703125000,-57.5,-23.0,-18.5,63.22296875,27.87,15.6150960625,34.49
2021-07-07 11:00:11.710937500,-57.25,-23.0,-18.25,63.222890625,29.37,15.614135218749999,34.49
2021-07-07 11:00:11.718750000,-57.0,-23.0,-18.0,63.222812499999996,30.87,15.613174375,34.49
2021-07-07 11:00:11.726562500,-57.25,-23.0,-17.75,63.222734375,32.27,15.61221353125,34.49
2021-07-07 11:00:11.734375000,-57.5,-23.0,-17.5,63.22265625,33.67,15.611252687499999,34.49
2021-07-07 11:00:11.742187500,-57.75,-23.0,-17.25,63.222578125,34.825,15.61029184375,34.49
2021-07-07 11:00:11.750000000,-58.0,-23.0,-17.0,63.2225,35.98,15.609331,34.49
2021-07-07 11:00:11.757812500,-58.0,-22.75,-17.0,63.222421874999995,36.775,15.60905078125,34.49
2021-07-07 11:00:11.765625000,-58.0,-22.5,-17.0,63.22234375,37.57,15.608770562499998,34.49
2021-07-07 11:00:11.773437500,-58.0,-22.25,-17.0,63.222265625,37.94,15.608490343749999,34.49
2021-07-07 11:00:11.781250000,-58.0,-22.0,-17.0,63.2221875,38.31,15.608210125,34.49
2021-07-07 11:00:11.789062500,-58.0,-22.0,-17.5,63.222109374999995,38.21,15.60792990625,34.49
2021-07-07 11:00:11.796875000,-58.0,-22.0,-18.0,63.22203125,38.11,15.6076496875,34.49
2021-07-07 11:00:11.804687500,-58.0,-22.0,-18.5,63.221953125,37.555,15.607369468749999,34.49
2021-07-07 11:00:11.812500000,-58.0,-22.0,-19.0,63.221875,37.0,15.60708925,34.49
2021-07-07 11:00:11.820312500,-57.75,-22.0,-19.0,63.221796874999995,36.055,15.60680903125,34.49
2021-07-07 11:00:11.828125000,-57.5,-22.0,-19.0,63.22171875,35.11,15.606528812499999,34.49
2021-07-07 11:00:11.835937500,-57.25,-22.0,-19.0,63.221640625,33.894999999999996,15.60624859375,34.49
2021-07-07 11:00:11.843750000,-57.0,-22.0,-19.0,63.2215625,32.68,15.605968375,34.49
2021-07-07 11:00:11.851562500,-57.0,-22.0,-18.75,63.221484374999996,31.35,15.60568815625,34.49
2021-07-07 11:00:11.859375000,-57.0,-22.0,-18.5,63.22140625,30.02,15.6054079375,34.49
2021-07-07 11:00:11.867187500,-57.0,-22.0,-18.25,63.221328125,28.705,15.60512771875,34.49
2021-07-07 11:00:11.875000000,-57.0,-22.0,-18.0,63.22125,27.39,15.6048475,34.49
2021-07-07 11:00:11.882812500,-57.25,-22.0,-18.0,63.221171874999996,26.145,15.60456728125,34.49
2021-07-07 11:00:11.890625000,-57.5,-22.0,-18.0,63.22109375,24.9,15.6042870625,34.49
2021-07-07 11:00:11.898437500,-57.75,-22.0,-18.0,63.221015625,23.65,15.60400684375,34.49
2021-07-07 11:00:11.906250000,-58.0,-22.0,-18.0,63.2209375,22.4,15.603726625,34.49
2021-07-07 11:00:11.914062500,-58.0,-22.0,-18.25,63.220859374999996,21.009999999999998,15.60344640625,34.49
2021-07-07 11:00:11.921875000,-58.0,-22.0,-18.5,63.22078125,19.62,15.603166187500001,34.49
2021-07-07 11:00:11.929687500,-58.0,-22.0,-18.75,63.220703125,17.97,15.60288596875,34.49
2021-07-07 11:00:11.937500000,-58.0,-22.0,-19.0,63.220625,16.32,15.60260575,34.49
2021-07-07 11:00:11.945312500,-57.75,-22.25,-18.75,63.220546875,14.395,15.60232553125,34.49
2021-07-07 11:00:11.953125000,-57.5,-22.5,-18.5,63.22046875,12.47,15.6020453125,34.49
2021-07-07 11:00:11.960937500,-57.25,-22.75,-18.25,63.220390625,10.375,15.60176509375,34.49
2021-07-07 11:00:11.968750000,-57.0,-23.0,-18.0,63.2203125,8.28,15.601484875,34.49
2021-07-07 11:00:11.976562500,-57.0,-22.75,-18.0,63.220234375,6.234999999999999,15.601204656250001,34.49
2021-07-07 11:00:11.984375000,-57.0,-22.5,-18.0,63.22015625,4.19,15.600924437500002,34.49
2021-07-07 11:00:11.992187500,-57.0,-22.25,-18.0,63.220078125,2.365,15.60064421875,34.49
2021-07-07 11:00:12.000000000,-57.0,-22.0,-18.0,63.22,0.54,15.600364,34.49
2021-07-07 11:00:12.007812500,-57.0,-22.0,-18.25,63.219453125,-1.01,15.600484093750001,34.49
2021-07-07 11:00:12.015625000,-57.0,-22.0,-18.5,63.218906249999996,-2.56,15.6006041875,34.49
2021-07-07 11:00:12.023437500,-57.0,-22.0,-18.75,63.218359375,-3.9450000000000003,15.60072428125,34.49
2021-07-07 11:00:12.031250000,-57.0,-22.0,-19.0,63.2178125,-5.33,15.600844375000001,34.49
2021-07-07 11:00:12.039062500,-57.0,-22.25,-18.75,63.217265624999996,-6.78,15.60096446875,34.49
2021-07-07 11:00:12.046875000,-57.0,-22.5,-18.5,63.21671875,-8.23,15.6010845625,34.49
2021-07-07 11:00:12.054687500,-57.0,-22.75,-18.25,63.216171875,-9.935,15.601204656250001,34.49
2021-07-07 11:00:12.062500000,-57.0,-23.0,-18.0,63.215624999999996,-11.64,15.60132475,34.49
2021-07-07 11:00:12.070312500,-57.0,-22.75,-18.0,63.215078125,-13.67,15.60144484375,34.49
2021-07-07 11:00:12.078125000,-57.0,-22.5,-18.0,63.21453125,-15.7,15.601564937500001,34.49
2021-07-07 11:00:12.085937500,-57.0,-22.25,-18.0,63.213984374999995,-17.91,15.601685031250002,34.49
2021-07-07 11:00:12.093750000,-57.0,-22.0,-18.0,63.2134375,-20.12,15.601805125,34.49
2021-07-07 11:00:12.101562500,-57.25,-22.0,-18.5,63.212890625,-22.22,15.60192521875,34.49
2021-07-07 11:00:12.109375000,-57.5,-22.0,-19.0,63.21234375,-24.32,15.602045312500001,34.49
2021-07-07 11:00:12.117187500,-57.75,-22.0,-19.5,63.211796875,-25.955,15.60216540625,34.49
2021-07-07 11:00:12.125000000,-58.0,-22.0,-20.0,63.21125,-27.59,15.6022855,34.49
2021-07-07 11:00:12.132812500,-58.0,-22.25,-19.75,63.210703125,-28.425,15.602405593750001,34.49
2021-07-07 11:00:12.140625000,-58.0,-22.5,-19.5,63.21015625,-29.26,15.6025256875,34.49
2021-07-07 11:00:12.148437500,-58.0,-22.75,-19.25,63.209609375,-29.07,15.60264578125,34.49
2021-07-07 11:00:12.156250000,-58.0,-23.0,-19.0,63.2090625,-28.88,15.602765875000001,34.49
2021-07-07 11:00:12.164062500,-58.0,-22.75,-18.5,63.208515625,-27.56,15.60288596875,34.49
2021-07-07 11:00:12.171875000,-58.0,-22.5,-18.0,63.20796875,-26.24,15.6030060625,34.49
2021-07-07 11:00:12.179687500,-58.0,-22.25,-17.5,63.207421875,-23.799999999999997,15.603126156250001,34.49
2021-07-07 11:00:12.187500000,-58.0,-22.0,-17.0,63.206875,-21.36,15.603246250000002,34.49
2021-07-07 11:00:12.195312500,-58.0,-22.0,-17.0,63.206328125,-17.92,15.60336634375,34.49
2021-07-07 11:00:12.203125000,-58.0,-22.0,-17.0,63.20578125,-14.48,15.6034864375,34.49
2021-07-07 11:00:12.210937500,-58.0,-22.0,-17.0,63.205234374999996,-10.280000000000001,15.603606531250001,34.49
2021-07-07 11:00:12.218750000,-58.0,-22.0,-17.0,63.2046875,-6.08,15.603726625,34.49
2021-07-07 11:00:12.226562500,-57.75,-22.5,-17.25,63.204140625,-1.4699999999999998,15.60384671875,34.49
2021-07-07 11:00:12.234375000,-57.5,-23.0,-17.5,63.203593749999996,3.14,15.603966812500001,34.49
2021-07-07 11:00:12.242187500,-57.25,-23.5,-17.75,63.203046875,7.785,15.60408690625,34.49
2021-07-07 11:00:12.250000000,-57.0,-24.0,-18.0,63.2025,12.43,15.604207,34.49
2021-07-07 11:00:12.257812500,-57.0,-23.25,-17.75,63.201953124999996,16.759999999999998,15.604727437500001,34.49
2021-07-07 11:00:12.265625000,-57.0,-22.5,-17.5,63.20140625,21.09,15.605247875,34.49
2021-07-07 11:00:12.273437500,-57.0,-21.75,-17.25,63.200859375,24.865000000000002,15.6057683125,34.49
2021-07-07 11:00:12.281250000,-57.0,-21.0,-17.0,63.200312499999995,28.64,15.606288750000001,34.49
2021-07-07 11:00:12.289062500,-57.25,-21.25,-17.5,63.199765625,31.73,15.6068091875,34.49
2021-07-07 11:00:12.296875000,-57.5,-21.5,-18.0,63.19921875,34.82,15.607329625,34.49
2021-07-07 11:00:12.304687500,-57.75,-21.75,-18.5,63.198671875,37.205,15.6078500625,34.49
2021-07-07 11:00:12.312500000,-58.0,-22.0,-19.0,63.198125,39.59,15.6083705,34.49
2021-07-07 11:00:12.320312500,-58.0,-22.25,-19.0,63.197578125,41.31,15.6088909375,34.49
2021-07-07 11:00:12.328125000,-58.0,-22.5,-19.0,63.19703125,43.03,15.609411375,34.49
2021-07-07 11:00:12.335937500,-58.0,-22.75,-19.0,63.196484375,44.115,15.609931812500001,34.49
2021-07-07 11:00:12.343750000,-58.0,-23.0,-19.0,63.1959375,45.2,15.61045225,34.49
2021-07-07 11:00:12.351562500,-57.75,-23.25,-18.75,63.195390625,45.68,15.6109726875,34.49
2021-07-07 11:00:12.359375000,-57.5,-23.5,-18.5,63.19484375,46.16,15.611493125,34.49
2021-07-07 11:00:12.367187500,-57.25,-23.75,-18.25,63.194296875,46.06,15.6120135625,34.49
2021-07-07 11:00:12.375000000,-57.0,-24.0,-18.0,63.19375,45.96,15.612534,34.49
2021-07-07 11:00:12.382812500,-57.0,-23.5,-18.0,63.193203125,45.34,15.6130544375,34.49
2021-07-07 11:00:12.390625000,-57.0,-23.0,-18.0,63.19265625,44.72,15.613574875,34.49
2021-07-07 11:00:12.398437500,-57.0,-22.5,-18.0,63.192109375,43.65,15.6140953125,34.49
2021-07-07 11:00:12.406250000,-57.0,-22.0,-18.0,63.191562499999996,42.58,15.61461575,34.49
2021-07-07 11:00:12.414062500,-57.25,-22.25,-18.75,63.191015625,41.15,15.6151361875,34.49
2021-07-07 11:00:12.421875000,-57.5,-22.5,-19.5,63.19046875,39.72,15.615656625,34.49
2021-07-07 11:00:12.429687500,-57.75,-22.75,-20.25,63.189921874999996,38.035,15.6161770625,34.49
2021-07-07 11:00:12.437500000,-58.0,-23.0,-21.0,63.189375,36.35,15.6166975,34.49
2021-07-07 11:00:12.445312500,-57.75,-23.0,-20.25,63.188828125,34.53,15.6172179375,34.49
2021-07-07 11:00:12.453125000,-57.5,-23.0,-19.5,63.188281249999996,32.71,15.617738375,34.49
2021-07-07 11:00:12.460937500,-57.25,-23.0,-18.75,63.187734375,30.9,15.6182588125,34.49
2021-07-07 11:00:12.468750000,-57.0,-23.0,-18.0,63.1871875,29.09,15.61877925,34.49
2021-07-07 11:00:12.476562500,-57.25,-23.0,-18.25,63.186640624999995,27.455,15.6192996875,34.49
2021-07-07 11:00:12.484375000,-57.5,-23.0,-18.5,63.18609375,25.82,15.619820125,34.49
2021-07-07 11:00:12.492187500,-57.75,-23.0,-18.75,63.185546875,24.53,15.6203405625,34.49
2021-07-07 11:00:12.500000000,-58.0,-23.0,-19.0,63.185,23.24,15.620861,34.49
2021-07-07 11:00:12.507812500,-58.0,-22.75,-19.0,63.184453125,22.375,15.6202605,34.49
2021-07-07 11:00:12.515625000,-58.0,-22.5,-19.0,63.18390625,21.51,15.61966,34.49
2021-07-07 11:00:12.523437500,-58.0,-22.25,-19.0,63.183359375,21.060000000000002,15.619059499999999,34.49
2021-07-07 11:00:12.531250000,-58.0,-22.0,-19.0,63.1828125,20.61,15.618459,34.49
2021-07-07 11:00:12.539062500,-58.0,-22.25,-19.25,63.182265625,20.43,15.6178585,34.49
2021-07-07 11:00:12.546875000,-58.0,-22.5,-19.5,63.18171875,20.25,15.617258,34.49
2021-07-07 11:00:12.554687500,-58.0,-22.75,-19.75,63.181171875,20.119999999999997,15.616657499999999,34.49
2021-07-07 11:00:12.562500000,-58.0,-23.0,-20.0,63.180625,19.99,15.616057,34.49
2021-07-07 11:00:12.570312500,-57.75,-23.0,-19.5,63.180078125,19.705,15.6154565,34.49
2021-07-07 11:00:12.578125000,-57.5,-23.0,-19.0,63.17953125,19.42,15.614856,34.49
2021-07-07 11:00:12.585937500,-57.25,-23.0,-18.5,63.178984375,18.865000000000002,15.614255499999999,34.49
2021-07-07 11:00:12.593750000,-57.0,-23.0,-18.0,63.1784375,18.31,15.613655,34.49
2021-07-07 11:00:12.601562500,-57.25,-23.0,-18.0,63.177890624999996,17.47,15.6130545,34.49
2021-07-07 11:00:12.609375000,-57.5,-23.0,-18.0,63.17734375,16.63,15.612454,34.49
2021-07-07 11:00:12.617187500,-57.75,-23.0,-18.0,63.176796875,15.6,15.611853499999999,34.49
2021-07-07 11:00:12.625000000,-58.0,-23.0,-18.0,63.176249999999996,14.57,15.611253,34.49
2021-07-07 11:00:12.632812500,-58.0,-22.75,-18.25,63.175703125,13.45,15.6106525,34.49
2021-07-07 11:00:12.640625000,-58.0,-22.5,-18.5,63.17515625,12.33,15.610052,34.49
2021-07-07 11:00:12.648437500,-58.0,-22.25,-18.75,63.174609374999996,11.215,15.609451499999999,34.49
2021-07-07 11:00:12.656250000,-58.0,-22.0,-19.0,63.1740625,10.1,15.608851,34.49
2021-07-07 11:00:12.664062500,-57.75,-22.0,-18.75,63.173515625,9.01,15.6082505,34.49
2021-07-07 11:00:12.671875000,-57.5,-22.0,-18.5,63.172968749999995,7.92,15.60765,34.49
2021-07-07 11:00:12.679687500,-57.25,-22.0,-18.25,63.172421875,6.83,15.607049499999999,34.49
2021-07-07 11:00:12.687500000,-57.0,-22.0,-18.0,63.171875,5.74,15.606449,34.49
2021-07-07 11:00:12.695312500,-56.75,-22.0,-18.25,63.171328124999995,4.625,15.6058485,34.49
2021-07-07 11:00:12.703125000,-56.5,-22.0,-18.5,63.17078125,3.51,15.605248,34.49
2021-07-07 11:00:12.710937500,-56.25,-22.0,-18.75,63.170234375,2.36,15.604647499999999,34.49
2021-07-07 11:00:12.718750000,-56.0,-22.0,-19.0,63.1696875,1.21,15.604047,34.49
2021-07-07 11:00:12.726562500,-56.5,-22.25,-19.0,63.169140625,0.04499999999999993,15.6034465,34.49
2021-07-07 11:00:12.734375000,-57.0,-22.5,-19.0,63.16859375,-1.12,15.602846,34.49
2021-07-07 11:00:12.742187500,-57.5,-22.75,-19.0,63.168046875,-2.255,15.602245499999999,34.49
2021-07-07 11:00:12.750000000,-58.0,-23.0,-19.0,63.1675,-3.39,15.601645,34.49
2021-07-07 11:00:12.757812500,-58.0,-23.0,-18.75,63.166953125,-4.44,15.60168503125,34.49
2021-07-07 11:00:12.765625000,-58.0,-23.0,-18.5,63.16640625,-5.49,15.6017250625,34.49
2021-07-07 11:00:12.773437500,-58.0,-23.0,-18.25,63.165859375,-6.405,15.60176509375,34.49
2021-07-07 11:00:12.781250000,-58.0,-23.0,-18.0,63.1653125,-7.32,15.601805125,34.49
2021-07-07 11:00:12.789062500,-57.75,-23.0,-18.25,63.164765625,-8.075,15.60184515625,34.49
2021-07-07 11:00:12.796875000,-57.5,-23.0,-18.5,63.164218749999996,-8.83,15.601885187499999,34.49
2021-07-07 11:00:12.804687500,-57.25,-23.0,-18.75,63.163671875,-9.43,15.601925218749999,34.49
2021-07-07 11:00:12.812500000,-57.0,-23.0,-19.0,63.163125,-10.03,15.60196525,34.49
2021-07-07 11:00:12.820312500,-57.25,-23.0,-19.25,63.162578124999996,-10.52,15.60200528125,34.49
2021-07-07 11:00:12.828125000,-57.5,-23.0,-19.5,63.16203125,-11.01,15.6020453125,34.49
2021-07-07 11:00:12.835937500,-57.75,-23.0,-19.75,63.161484375,-11.445,15.60208534375,34.49
2021-07-07 11:00:12.843750000,-58.0,-23.0,-20.0,63.160937499999996,-11.88,15.602125375,34.49
2021-07-07 11:00:12.851562500,-57.75,-22.75,-19.5,63.160390625,-12.335,15.60216540625,34.49
2021-07-07 11:00:12.859375000,-57.5,-22.5,-19.0,63.15984375,-12.79,15.6022054375,34.49
2021-07-07 11:00:12.867187500,-57.25,-22.25,-18.5,63.159296874999995,-13.305,15.60224546875,34.49
2021-07-07 11:00:12.875000000,-57.0,-22.0,-18.0,63.15875,-13.82,15.6022855,34.49
2021-07-07 11:00:12.882812500,-57.25,-22.0,-18.0,63.158203125,-14.415,15.602325531249999,34.49
2021-07-07 11:00:12.890625000,-57.5,-22.0,-18.0,63.157656249999995,-15.01,15.6023655625,34.49
2021-07-07 11:00:12.898437500,-57.75,-22.0,-18.0,63.157109375,-15.7,15.60240559375,34.49
2021-07-07 11:00:12.906250000,-58.0,-22.0,-18.0,63.1565625,-16.39,15.602445625,34.49
2021-07-07 11:00:12.914062500,-58.0,-22.0,-18.25,63.156015625,-17.189999999999998,15.60248565625,34.49
2021-07-07 11:00:12.921875000,-58.0,-22.0,-18.5,63.15546875,-17.99,15.6025256875,34.49
2021-07-07 11:00:12.929687500,-58.0,-22.0,-18.75,63.154921875,-18.915,15.60256571875,34.49
2021-07-07 11:00:12.937500000,-58.0,-22.0,-19.0,63.154375,-19.84,15.60260575,34.49
2021-07-07 11:00:12.945312500,-58.0,-22.0,-19.0,63.153828125,-20.884999999999998,15.60264578125,34.49
2021-07-07 11:00:12.953125000,-58.0,-22.0,-19.0,63.15328125,-21.93,15.6026858125,34.49
2021-07-07 11:00:12.960937500,-58.0,-22.0,-19.0,63.152734375,-23.075,15.60272584375,34.49
2021-07-07 11:00:12.968750000,-58.0,-22.0,-19.0,63.1521875,-24.22,15.602765875,34.49
2021-07-07 11:00:12.976562500,-57.75,-22.0,-18.75,63.151640625,-25.42,15.60280590625,34.49
2021-07-07 11:00:12.984375000,-57.5,-22.0,-18.5,63.15109375,-26.62,15.6028459375,34.49
2021-07-07 11:00:12.992187500,-57.25,-22.0,-18.25,63.150546874999996,-27.845,15.60288596875,34.49
2021-07-07 11:00:13.000000000,-57.0,-22.0,-18.0,63.15,-29.07,15.602926,34.49
2021-07-07 11:00:13.007812500,-57.0,-22.0,-18.0,63.149453125,-30.355,15.6052079375,34.489375
2021-07-07 11:00:13.015625000,-57.0,-22.0,-18.0,63.148906249999996,-31.64,15.607489875,34.48875
2021-07-07 11:00:13.023437500,-57.0,-22.0,-18.0,63.148359375,-33.065,15.6097718125,34.488125000000004
2021-07-07 11:00:13.031250000,-57.0,-22.0,-18.0,63.1478125,-34.49,15.61205375,34.487500000000004
2021-07-07 11:00:13.039062500,-57.25,-21.75,-18.25,63.147265624999996,-36.105000000000004,15.6143356875,34.486875000000005
2021-07-07 11:00:13.046875000,-57.5,-21.5,-18.5,63.14671875,-37.72,15.616617625,34.48625
2021-07-07 11:00:13.054687500,-57.75,-21.25,-18.75,63.146171875,-39.46,15.6188995625,34.485625
2021-07-07 11:00:13.062500000,-58.0,-21.0,-19.0,63.145624999999995,-41.2,15.6211815,34.485
2021-07-07 11:00:13.070312500,-57.75,-21.5,-18.75,63.145078125,-42.835,15.6234634375,34.484375
2021-07-07 11:00:13.078125000,-57.5,-22.0,-18.5,63.14453125,-44.47,15.625745375,34.48375
2021-07-07 11:00:13.085937500,-57.25,-22.5,-18.25,63.143984374999995,-45.61,15.6280273125,34.483125
2021-07-07 11:00:13.093750000,-57.0,-23.0,-18.0,63.1434375,-46.75,15.63030925,34.4825
2021-07-07 11:00:13.101562500,-57.5,-23.0,-17.75,63.142890625,-46.965,15.6325911875,34.481875
2021-07-07 11:00:13.109375000,-58.0,-23.0,-17.5,63.14234375,-47.18,15.634873125,34.48125
2021-07-07 11:00:13.117187500,-58.5,-23.0,-17.25,63.141796875,-46.175,15.6371550625,34.480625
2021-07-07 11:00:13.125000000,-59.0,-23.0,-17.0,63.14125,-45.17,15.639437000000001,34.480000000000004
2021-07-07 11:00:13.132812500,-58.5,-22.75,-17.25,63.140703125,-42.88,15.6417189375,34.479375
2021-07-07 11:00:13.140625000,-58.0,-22.5,-17.5,63.14015625,-40.59,15.644000875,34.47875
2021-07-07 11:00:13.148437500,-57.5,-22.25,-17.75,63.139609375,-37.225,15.6462828125,34.478125
2021-07-07 11:00:13.156250000,-57.0,-22.0,-18.0,63.1390625,-33.86,15.64856475,34.4775
2021-07-07 11:00:13.164062500,-57.25,-22.0,-19.0,63.138515625,-29.810000000000002,15.6508466875,34.476875
2021-07-07 11:00:13.171875000,-57.5,-22.0,-20.0,63.13796875,-25.76,15.653128625,34.47625
2021-07-07 11:00:13.179687500,-57.75,-22.0,-21.0,63.137421875,-21.5,15.6554105625,34.475625
2021-07-07 11:00:13.187500000,-58.0,-22.0,-22.0,63.136874999999996,-17.24,15.6576925,34.475
2021-07-07 11:00:13.195312500,-57.75,-22.0,-21.0,63.136328125,-13.174999999999999,15.6599744375,34.474375
2021-07-07 11:00:13.203125000,-57.5,-22.0,-20.0,63.13578125,-9.11,15.662256375,34.47375
2021-07-07 11:00:13.210937500,-57.25,-22.0,-19.0,63.135234374999996,-5.535,15.6645383125,34.473124999999996
2021-07-07 11:00:13.218750000,-57.0,-22.0,-18.0,63.1346875,-1.96,15.66682025,34.4725
2021-07-07 11:00:13.226562500,-57.25,-22.25,-18.0,63.134140625,0.98,15.6691021875,34.471875
2021-07-07 11:00:13.234375000,-57.5,-22.5,-18.0,63.133593749999996,3.92,15.671384125,34.47125
2021-07-07 11:00:13.242187500,-57.75,-22.75,-18.0,63.133046875,6.165,15.6736660625,34.470625
2021-07-07 11:00:13.250000000,-58.0,-23.0,-18.0,63.1325,8.41,15.675948,34.47
2021-07-07 11:00:13.257812500,-58.0,-22.75,-17.5,63.131953124999995,9.969999999999999,15.67498721875,34.47
2021-07-07 11:00:13.265625000,-58.0,-22.5,-17.0,63.13140625,11.53,15.6740264375,34.47
2021-07-07 11:00:13.273437500,-58.0,-22.25,-16.5,63.130859375,12.455,15.67306565625,34.47
2021-07-07 11:00:13.281250000,-58.0,-22.0,-16.0,63.130312499999995,13.38,15.672104875,34.47
2021-07-07 11:00:13.289062500,-58.0,-22.0,-17.5,63.129765625,13.73,15.67114409375,34.47
2021-07-07 11:00:13.296875000,-58.0,-22.0,-19.0,63.12921875,14.08,15.6701833125,34.47
2021-07-07 11:00:13.304687500,-58.0,-22.0,-20.5,63.128671875,13.95,15.66922253125,34.47
2021-07-07 11:00:13.312500000,-58.0,-22.0,-22.0,63.128125,13.82,15.66826175,34.47
2021-07-07 11:00:13.320312500,-58.0,-22.0,-21.5,63.127578125,13.32,15.66730096875,34.47
2021-07-07 11:00:13.328125000,-58.0,-22.0,-21.0,63.12703125,12.82,15.6663401875,34.47
2021-07-07 11:00:13.335937500,-58.0,-22.0,-20.5,63.126484375,12.120000000000001,15.66537940625,34.47
2021-07-07 11:00:13.343750000,-58.0,-22.0,-20.0,63.1259375,11.42,15.664418625,34.47
2021-07-07 11:00:13.351562500,-57.75,-22.0,-19.5,63.125390625,10.71,15.66345784375,34.47
2021-07-07 11:00:13.359375000,-57.5,-22.0,-19.0,63.12484375,10.0,15.6624970625,34.47
2021-07-07 11:00:13.367187500,-57.25,-22.0,-18.5,63.124296875,9.475,15.661536281250001,34.47
2021-07-07 11:00:13.375000000,-57.0,-22.0,-18.0,63.12375,8.95,15.6605755,34.47
2021-07-07 11:00:13.382812500,-57.25,-22.0,-18.25,63.123203124999996,8.76,15.65961471875,34.47
2021-07-07 11:00:13.390625000,-57.5,-22.0,-18.5,63.12265625,8.57,15.6586539375,34.47
2021-07-07 11:00:13.398437500,-57.75,-22.0,-18.75,63.122109375,8.795,15.65769315625,34.47
2021-07-07 11:00:13.406250000,-58.0,-22.0,-19.0,63.121562499999996,9.02,15.656732375,34.47
2021-07-07 11:00:13.414062500,-57.75,-22.25,-18.75,63.121015625,9.649999999999999,15.65577159375,34.47
2021-07-07 11:00:13.421875000,-57.5,-22.5,-18.5,63.12046875,10.28,15.654810812500001,34.47
2021-07-07 11:00:13.429687500,-57.25,-22.75,-18.25,63.119921874999996,11.239999999999998,15.65385003125,34.47
2021-07-07 11:00:13.437500000,-57.0,-23.0,-18.0,63.119375,12.2,15.652889250000001,34.47
2021-07-07 11:00:13.445312500,-57.0,-23.0,-18.0,63.118828125,13.399999999999999,15.65192846875,34.47
2021-07-07 11:00:13.453125000,-57.0,-23.0,-18.0,63.118281249999995,14.6,15.6509676875,34.47
2021-07-07 11:00:13.460937500,-57.0,-23.0,-18.0,63.117734375,15.945,15.65000690625,34.47
2021-07-07 11:00:13.468750000,-57.0,-23.0,-18.0,63.1171875,17.29,15.649046125,34.47
2021-07-07 11:00:13.476562500,-57.25,-23.0,-18.5,63.116640624999995,18.725,15.648085343750001,34.47
2021-07-07 11:00:13.484375000,-57.5,-23.0,-19.0,63.11609375,20.16,15.6471245625,34.47
2021-07-07 11:00:13.492187500,-57.75,-23.0,-19.5,63.115546875,21.625,15.646163781250001,34.47
2021-07-07 11:00:13.500000000,-58.0,-23.0,-20.0,63.114999999999995,23.09,15.645203,34.47
2021-07-07 11:00:13.507812500,-58.25,-23.0,-19.5,63.114453125,24.485,15.6451629375,34.47
2021-07-07 11:00:13.515625000,-58.5,-23.0,-19.0,63.11390625,25.88,15.645122875,34.47
2021-07-07 11:00:13.523437500,-58.75,-23.0,-18.5,63.113359375,27.045,15.6450828125,34.47
2021-07-07 11:00:13.531250000,-59.0,-23.0,-18.0,63.1128125,28.21,15.64504275,34.47
2021-07-07 11:00:13.539062500,-58.5,-23.25,-18.0,63.112265625,28.950000000000003,15.6450026875,34.47
2021-07-07 11:00:13.546875000,-58.0,-23.5,-18.0,63.11171875,29.69,15.644962625,34.47
2021-07-07 11:00:13.554687500,-57.5,-23.75,-18.0,63.111171875,29.810000000000002,15.6449225625,34.47
2021-07-07 11:00:13.562500000,-57.0,-24.0,-18.0,63.110625,29.93,15.644882500000001,34.47
2021-07-07 11:00:13.570312500,-57.0,-23.75,-18.25,63.110078125,29.34,15.644842437500001,34.47
2021-07-07 11:00:13.578125000,-57.0,-23.5,-18.5,63.109531249999996,28.75,15.644802375000001,34.47
2021-07-07 11:00:13.585937500,-57.0,-23.25,-18.75,63.108984375,27.490000000000002,15.644762312500001,34.47
2021-07-07 11:00:13.593750000,-57.0,-23.0,-19.0,63.1084375,26.23,15.644722250000001,34.47
2021-07-07 11:00:13.601562500,-57.25,-23.0,-19.25,63.107890624999996,24.475,15.6446821875,34.47
2021-07-07 11:00:13.609375000,-57.5,-23.0,-19.5,63.10734375,22.72,15.644642125,34.47
2021-07-07 11:00:13.617187500,-57.75,-23.0,-19.75,63.106796875,20.72,15.6446020625,34.47
2021-07-07 11:00:13.625000000,-58.0,-23.0,-20.0,63.106249999999996,18.72,15.644562,34.47
2021-07-07 11:00:13.632812500,-58.0,-22.75,-19.0,63.105703125,16.7,15.6445219375,34.47
2021-07-07 11:00:13.640625000,-58.0,-22.5,-18.0,63.10515625,14.68,15.644481875,34.47
2021-07-07 11:00:13.648437500,-58.0,-22.25,-17.0,63.104609374999995,12.77,15.6444418125,34.47
2021-07-07 11:00:13.656250000,-58.0,-22.0,-16.0,63.1040625,10.86,15.64440175,34.47
2021-07-07 11:00:13.664062500,-58.0,-22.25,-16.0,63.103515625,9.059999999999999,15.6443616875,34.47
2021-07-07 11:00:13.671875000,-58.0,-22.5,-16.0,63.102968749999995,7.26,15.644321625,34.47
2021-07-07 11:00:13.679687500,-58.0,-22.75,-16.0,63.102421875,5.505,15.6442815625,34.47
2021-07-07 11:00:13.687500000,-58.0,-23.0,-16.0,63.101875,3.75,15.6442415,34.47
2021-07-07 11:00:13.695312500,-58.0,-22.75,-17.25,63.101328124999995,1.96,15.644201437500001,34.47
2021-07-07 11:00:13.703125000,-58.0,-22.5,-18.5,63.10078125,0.17,15.644161375000001,34.47
2021-07-07 11:00:13.710937500,-58.0,-22.25,-19.75,63.100234375,-1.725,15.644121312500001,34.47
2021-07-07 11:00:13.718750000,-58.0,-22.0,-21.0,63.0996875,-3.62,15.644081250000001,34.47
2021-07-07 11:00:13.726562500,-58.25,-22.0,-21.0,63.099140625,-5.635,15.644041187500001,34.47
2021-07-07 11:00:13.734375000,-58.5,-22.0,-21.0,63.09859375,-7.65,15.644001125,34.47
2021-07-07 11:00:13.742187500,-58.75,-22.0,-21.0,63.098046875,-9.780000000000001,15.6439610625,34.47
2021-07-07 11:00:13.750000000,-59.0,-22.0,-21.0,63.0975,-11.91,15.643921,34.47
2021-07-07 11:00:13.757812500,-58.75,-22.0,-20.25,63.096953125,-14.14,15.64416121875,34.47
2021-07-07 11:00:13.765625000,-58.5,-22.0,-19.5,63.09640625,-16.37,15.644401437500001,34.47
2021-07-07 11:00:13.773437500,-58.25,-22.0,-18.75,63.095859374999996,-18.68,15.64464165625,34.47
2021-07-07 11:00:13.781250000,-58.0,-22.0,-18.0,63.0953125,-20.99,15.644881875000001,34.47
2021-07-07 11:00:13.789062500,-58.5,-22.0,-17.75,63.094765625,-23.29,15.64512209375,34.47
2021-07-07 11:00:13.796875000,-59.0,-22.0,-17.5,63.094218749999996,-25.59,15.6453623125,34.47
2021-07-07 11:00:13.804687500,-59.5,-22.0,-17.25,63.093671875,-27.759999999999998,15.64560253125,34.47
2021-07-07 11:00:13.812500000,-60.0,-22.0,-17.0,63.093125,-29.93,15.64584275,34.47
2021-07-07 11:00:13.820312500,-59.0,-22.25,-17.5,63.092578124999996,-31.79,15.646082968750001,34.47
2021-07-07 11:00:13.828125000,-58.0,-22.5,-18.0,63.09203125,-33.65,15.6463231875,34.47
2021-07-07 11:00:13.835937500,-57.0,-22.75,-18.5,63.091484375,-35.025,15.64656340625,34.47
2021-07-07 11:00:13.843750000,-56.0,-23.0,-19.0,63.090937499999995,-36.4,15.646803625,34.47
2021-07-07 11:00:13.851562500,-56.25,-23.25,-19.75,63.090390625,-37.205,15.64704384375,34.47
2021-07-07 11:00:13.859375000,-56.5,-23.5,-20.5,63.08984375,-38.01,15.6472840625,34.47
2021-07-07 11:00:13.867187500,-56.75,-23.75,-21.25,63.089296874999995,-38.254999999999995,15.64752428125,34.47
2021-07-07 11:00:13.875000000,-57.0,-24.0,-22.0,63.08875,-38.5,15.647764500000001,34.47
2021-07-07 11:00:13.882812500,-57.0,-24.0,-21.0,63.088203125,-38.335,15.64800471875,34.47
2021-07-07 11:00:13.890625000,-57.0,-24.0,-20.0,63.087656249999995,-38.17,15.6482449375,34.47
2021-07-07 11:00:13.898437500,-57.0,-24.0,-19.0,63.087109375,-37.83,15.64848515625,34.47
2021-07-07 11:00:13.906250000,-57.0,-24.0,-18.0,63.0865625,-37.49,15.648725375,34.47
2021-07-07 11:00:13.914062500,-56.75,-24.25,-18.25,63.086015625,-37.225,15.64896559375,34.47
2021-07-07 11:00:13.921875000,-56.5,-24.5,-18.5,63.08546875,-36.96,15.6492058125,34.47
2021-07-07 11:00:13.929687500,-56.25,-24.75,-18.75,63.084921875,-37.004999999999995,15.64944603125,34.47
2021-07-07 11:00:13.937500000,-56.0,-25.0,-19.0,63.084375,-37.05,15.64968625,34.47
2021-07-07 11:00:13.945312500,-56.25,-25.0,-18.75,63.083828125,-37.53,15.64992646875,34.47
2021-07-07 11:00:13.953125000,-56.5,-25.0,-18.5,63.08328125,-38.01,15.6501666875,34.47
2021-07-07 11:00:13.960937500,-56.75,-25.0,-18.25,63.082734375,-38.87,15.65040690625,34.47
2021-07-07 11:00:13.968750000,-57.0,-25.0,-18.0,63.082187499999996,-39.73,15.650647124999999,34.47
2021-07-07 11:00:13.976562500,-57.0,-24.5,-18.75,63.081640625,-40.715,15.65088734375,34.47
2021-07-07 11:00:13.984375000,-57.0,-24.0,-19.5,63.08109375,-41.7,15.6511275625,34.47
2021-07-07 11:00:13.992187500,-57.0,-23.5,-20.25,63.080546874999996,-42.375,15.65136778125,34.47
2021-07-07 11:00:14.000000000,-57.0,-23.0,-21.0,63.08,-43.05,15.651608,34.47
2021-07-07 11:00:14.007812500,-57.5,-22.75,-21.0,63.079609375,-42.894999999999996,15.6508073125,34.470625
2021-07-07 11:00:14.015625000,-58.0,-22.5,-21.0,63.079218749999995,-42.74,15.650006625,34.47125
2021-07-07 11:00:14.023437500,-58.5,-22.25,-21.0,63.078828125,-41.31,15.6492059375,34.471875
2021-07-07 11:00:14.031250000,-59.0,-22.0,-21.0,63.0784375,-39.88,15.64840525,34.4725
2021-07-07 11:00:14.039062500,-58.5,-22.25,-20.25,63.078046875,-36.980000000000004,15.6476045625,34.473124999999996
2021-07-07 11:00:14.046875000,-58.0,-22.5,-19.5,63.07765625,-34.08,15.646803875,34.47375
2021-07-07 11:00:14.054687500,-57.5,-22.75,-18.75,63.077265624999995,-29.814999999999998,15.6460031875,34.474375
2021-07-07 11:00:14.062500000,-57.0,-23.0,-18.0,63.076875,-25.55,15.6452025,34.475
2021-07-07 11:00:14.070312500,-57.5,-23.0,-17.5,63.076484375,-20.355,15.6444018125,34.475625
2021-07-07 11:00:14.078125000,-58.0,-23.0,-17.0,63.07609375,-15.16,15.643601125,34.47625
2021-07-07 11:00:14.085937500,-58.5,-23.0,-16.5,63.075703125,-9.66,15.6428004375,34.476875
2021-07-07 11:00:14.093750000,-59.0,-23.0,-16.0,63.075312499999995,-4.16,15.64199975,34.4775
2021-07-07 11:00:14.101562500,-58.75,-22.5,-16.5,63.074921875,1.0250000000000004,15.6411990625,34.478125
2021-07-07 11:00:14.109375000,-58.5,-22.0,-17.0,63.07453125,6.21,15.640398375,34.47875
2021-07-07 11:00:14.117187500,-58.25,-21.5,-17.5,63.074140625,10.620000000000001,15.6395976875,34.479375
2021-07-07 11:00:14.125000000,-58.0,-21.0,-18.0,63.07375,15.03,15.638797,34.480000000000004
2021-07-07 11:00:14.132812500,-58.0,-21.5,-18.75,63.073359374999995,18.475,15.637996312499999,34.480625
2021-07-07 11:00:14.140625000,-58.0,-22.0,-19.5,63.07296875,21.92,15.637195624999999,34.48125
2021-07-07 11:00:14.148437500,-58.0,-22.5,-20.25,63.072578125,24.48,15.636394937499999,34.481875
2021-07-07 11:00:14.156250000,-58.0,-23.0,-21.0,63.0721875,27.04,15.635594249999999,34.4825
2021-07-07 11:00:14.164062500,-57.5,-23.0,-20.25,63.071796875,28.96,15.634793562499999,34.483125
2021-07-07 11:00:14.171875000,-57.0,-23.0,-19.5,63.071406249999995,30.88,15.633992874999999,34.48375
2021-07-07 11:00:14.179687500,-56.5,-23.0,-18.75,63.071015625,32.41,15.633192187499999,34.484375
2021-07-07 11:00:14.187500000,-56.0,-23.0,-18.0,63.070625,33.94,15.632391499999999,34.485
2021-07-07 11:00:14.195312500,-56.0,-23.0,-18.5,63.070234375,35.245,15.631590812499999,34.485625
2021-07-07 11:00:14.203125000,-56.0,-23.0,-19.0,63.06984375,36.55,15.630790124999999,34.48625
2021-07-07 11:00:14.210937500,-56.0,-23.0,-19.5,63.069453124999995,37.629999999999995,15.629989437499999,34.486875000000005
2021-07-07 11:00:14.218750000,-56.0,-23.0,-20.0,63.0690625,38.71,15.629188749999999,34.487500000000004
2021-07-07 11:00:14.226562500,-56.5,-23.0,-19.5,63.068671875,39.43,15.6283880625,34.488125000000004
2021-07-07 11:00:14.234375000,-57.0,-23.0,-19.0,63.06828125,40.15,15.627587375,34.48875
2021-07-07 11:00:14.242187500,-57.5,-23.0,-18.5,63.067890625,40.345,15.6267866875,34.489375
2021-07-07 11:00:14.250000000,-58.0,-23.0,-18.0,63.067499999999995,40.54,15.625986,34.49
2021-07-07 11:00:14.257812500,-57.75,-22.75,-18.0,63.067109375,40.135,15.62574578125,34.49
2021-07-07 11:00:14.265625000,-57.5,-22.5,-18.0,63.06671875,39.73,15.625505562499999,34.49
2021-07-07 11:00:14.273437500,-57.25,-22.25,-18.0,63.066328125,38.78,15.62526534375,34.49
2021-07-07 11:00:14.281250000,-57.0,-22.0,-18.0,63.0659375,37.83,15.625025124999999,34.49
2021-07-07 11:00:14.289062500,-57.0,-22.0,-18.5,63.065546875,36.555,15.62478490625,34.49
2021-07-07 11:00:14.296875000,-57.0,-22.0,-19.0,63.06515625,35.28,15.6245446875,34.49
2021-07-07 11:00:14.304687500,-57.0,-22.0,-19.5,63.064765625,33.97,15.62430446875,34.49
2021-07-07 11:00:14.312500000,-57.0,-22.0,-20.0,63.064375,32.66,15.62406425,34.49
2021-07-07 11:00:14.320312500,-57.25,-22.0,-20.0,63.063984375,31.595,15.623824031249999,34.49
2021-07-07 11:00:14.328125000,-57.5,-22.0,-20.0,63.06359375,30.53,15.6235838125,34.49
2021-07-07 11:00:14.335937500,-57.75,-22.0,-20.0,63.063203125,29.880000000000003,15.62334359375,34.49
2021-07-07 11:00:14.343750000,-58.0,-22.0,-20.0,63.0628125,29.23,15.623103375,34.49
2021-07-07 11:00:14.351562500,-58.0,-22.0,-19.5,63.062421875,29.009999999999998,15.62286315625,34.49
2021-07-07 11:00:14.359375000,-58.0,-22.0,-19.0,63.06203125,28.79,15.6226229375,34.49
2021-07-07 11:00:14.367187500,-58.0,-22.0,-18.5,63.061640625,28.88,15.62238271875,34.49
2021-07-07 11:00:14.375000000,-58.0,-22.0,-18.0,63.06125,28.97,15.622142499999999,34.49
2021-07-07 11:00:14.382812500,-58.0,-22.25,-18.0,63.060859375,29.155,15.62190228125,34.49
2021-07-07 11:00:14.390625000,-58.0,-22.5,-18.0,63.06046875,29.34,15.6216620625,34.49
2021-07-07 11:00:14.398437500,-58.0,-22.75,-18.0,63.060078125,29.355,15.62142184375,34.49
2021-07-07 11:00:14.406250000,-58.0,-23.0,-18.0,63.0596875,29.37,15.621181625,34.49
2021-07-07 11:00:14.414062500,-58.0,-22.75,-18.0,63.059296875,29.020000000000003,15.62094140625,34.49
2021-07-07 11:00:14.421875000,-58.0,-22.5,-18.0,63.05890625,28.67,15.6207011875,34.49
2021-07-07 11:00:14.429687500,-58.0,-22.25,-18.0,63.058515625,27.87,15.62046096875,34.49
2021-07-07 11:00:14.437500000,-58.0,-22.0,-18.0,63.058125,27.07,15.62022075,34.49
2021-07-07 11:00:14.445312500,-57.75,-22.0,-17.75,63.057734375,25.884999999999998,15.61998053125,34.49
2021-07-07 11:00:14.453125000,-57.5,-22.0,-17.5,63.05734375,24.7,15.6197403125,34.49
2021-07-07 11:00:14.460937500,-57.25,-22.0,-17.25,63.056953125,23.36,15.61950009375,34.49
2021-07-07 11:00:14.468750000,-57.0,-22.0,-17.0,63.0565625,22.02,15.619259875000001,34.49
2021-07-07 11:00:14.476562500,-57.25,-21.75,-17.25,63.056171875,20.799999999999997,15.61901965625,34.49
2021-07-07 11:00:14.484375000,-57.5,-21.5,-17.5,63.05578125,19.58,15.6187794375,34.49
2021-07-07 11:00:14.492187500,-57.75,-21.25,-17.75,63.055390625,18.715,15.61853921875,34.49
2021-07-07 11:00:14.500000000,-58.0,-21.0,-18.0,63.055,17.85,15.618299,34.49
2021-07-07 11:00:14.507812500,-58.25,-21.25,-18.5,63.054609375,17.425,15.6186593125,34.49
2021-07-07 11:00:14.515625000,-58.5,-21.5,-19.0,63.05421875,17.0,15.619019625,34.49
2021-07-07 11:00:14.523437500,-58.75,-21.75,-19.5,63.053828125,16.92,15.6193799375,34.49
2021-07-07 11:00:14.531250000,-59.0,-22.0,-20.0,63.0534375,16.84,15.61974025,34.49
2021-07-07 11:00:14.539062500,-59.5,-21.25,-19.25,63.053046875,16.884999999999998,15.620100562500001,34.49
2021-07-07 11:00:14.546875000,-60.0,-20.5,-18.5,63.05265625,16.93,15.620460875000001,34.49
2021-07-07 11:00:14.554687500,-60.5,-19.75,-17.75,63.052265625,16.86,15.6208211875,34.49
2021-07-07 11:00:14.562500000,-61.0,-19.0,-17.0,63.051875,16.79,15.6211815,34.49
2021-07-07 11:00:14.570312500,-60.25,-19.75,-18.0,63.051484375,16.439999999999998,15.6215418125,34.49
2021-07-07 11:00:14.578125000,-59.5,-20.5,-19.0,63.05109375,16.09,15.621902125,34.49
2021-07-07 11:00:14.585937500,-58.75,-21.25,-20.0,63.050703125,15.41,15.6222624375,34.49
2021-07-07 11:00:14.593750000,-58.0,-22.0,-21.0,63.0503125,14.73,15.622622750000001,34.49
2021-07-07 11:00:14.601562500,-58.0,-21.75,-20.0,63.049921875,13.785,15.622983062500001,34.49
2021-07-07 11:00:14.609375000,-58.0,-21.5,-19.0,63.04953125,12.84,15.623343375000001,34.49
2021-07-07 11:00:14.617187500,-58.0,-21.25,-18.0,63.049140625,11.735,15.6237036875,34.49
2021-07-07 11:00:14.625000000,-58.0,-21.0,-17.0,63.04875,10.63,15.624064,34.49
2021-07-07 11:00:14.632812500,-58.25,-21.75,-17.75,63.048359375,9.45,15.6244243125,34.49
2021-07-07 11:00:14.640625000,-58.5,-22.5,-18.5,63.04796875,8.27,15.624784625,34.49
2021-07-07 11:00:14.648437500,-58.75,-23.25,-19.25,63.047578125,7.09,15.6251449375,34.49
2021-07-07 11:00:14.656250000,-59.0,-24.0,-20.0,63.0471875,5.91,15.62550525,34.49
2021-07-07 11:00:14.664062500,-59.0,-23.25,-19.0,63.046796875,4.77,15.625865562500001,34.49
2021-07-07 11:00:14.671875000,-59.0,-22.5,-18.0,63.04640625,3.63,15.626225875000001,34.49
2021-07-07 11:00:14.679687500,-59.0,-21.75,-17.0,63.046015625,2.565,15.626586187500001,34.49
2021-07-07 11:00:14.687500000,-59.0,-21.0,-16.0,63.045625,1.5,15.6269465,34.49
2021-07-07 11:00:14.695312500,-58.75,-21.0,-16.5,63.045234375,0.55,15.6273068125,34.49
2021-07-07 11:00:14.703125000,-58.5,-21.0,-17.0,63.04484375,-0.4,15.627667125,34.49
2021-07-07 11:00:14.710937500,-58.25,-21.0,-17.5,63.044453125,-1.2400000000000002,15.6280274375,34.49
2021-07-07 11:00:14.718750000,-58.0,-21.0,-18.0,63.0440625,-2.08,15.628387750000002,34.49
2021-07-07 11:00:14.726562500,-58.0,-21.5,-18.75,63.043671875,-2.865,15.628748062500001,34.49
2021-07-07 11:00:14.734375000,-58.0,-22.0,-19.5,63.04328125,-3.65,15.629108375000001,34.49
2021-07-07 11:00:14.742187500,-58.0,-22.5,-20.25,63.042890625,-4.475,15.629468687500001,34.49
2021-07-07 11:00:14.750000000,-58.0,-23.0,-21.0,63.042500000000004,-5.3,15.629829,34.49
2021-07-07 11:00:14.757812500,-57.75,-23.0,-20.25,63.042109375,-6.275,15.627466968750001,34.49
2021-07-07 11:00:14.765625000,-57.5,-23.0,-19.5,63.04171875,-7.25,15.625104937500002,34.49
2021-07-07 11:00:14.773437500,-57.25,-23.0,-18.75,63.041328125,-8.440000000000001,15.62274290625,34.49
2021-07-07 11:00:14.781250000,-57.0,-23.0,-18.0,63.0409375,-9.63,15.620380875,34.49
2021-07-07 11:00:14.789062500,-57.25,-23.0,-18.5,63.040546875000004,-11.055,15.61801884375,34.49
2021-07-07 11:00:14.796875000,-57.5,-23.0,-19.0,63.04015625,-12.48,15.615656812500001,34.49
2021-07-07 11:00:14.804687500,-57.75,-23.0,-19.5,63.039765625,-14.06,15.613294781250001,34.49
2021-07-07 11:00:14.812500000,-58.0,-23.0,-20.0,63.039375,-15.64,15.61093275,34.49
2021-07-07 11:00:14.820312500,-58.25,-22.75,-19.5,63.038984375,-17.29,15.60857071875,34.49
2021-07-07 11:00:14.828125000,-58.5,-22.5,-19.0,63.038593750000004,-18.94,15.6062086875,34.49
2021-07-07 11:00:14.835937500,-58.75,-22.25,-18.5,63.038203125,-20.560000000000002,15.603846656250001,34.49
2021-07-07 11:00:14.843750000,-59.0,-22.0,-18.0,63.0378125,-22.18,15.601484625000001,34.49
2021-07-07 11:00:14.851562500,-59.0,-22.0,-18.0,63.037421875,-23.715,15.599122593750002,34.49
2021-07-07 11:00:14.859375000,-59.0,-22.0,-18.0,63.03703125,-25.25,15.5967605625,34.49
2021-07-07 11:00:14.867187500,-59.0,-22.0,-18.0,63.036640625000004,-26.695,15.59439853125,34.49
2021-07-07 11:00:14.875000000,-59.0,-22.0,-18.0,63.03625,-28.14,15.5920365,34.49
2021-07-07 11:00:14.882812500,-58.5,-22.0,-17.75,63.035859375,-29.505000000000003,15.589674468750001,34.49
2021-07-07 11:00:14.890625000,-58.0,-22.0,-17.5,63.03546875,-30.87,15.587312437500001,34.49
2021-07-07 11:00:14.898437500,-57.5,-22.0,-17.25,63.035078125,-32.17,15.58495040625,34.49
2021-07-07 11:00:14.906250000,-57.0,-22.0,-17.0,63.034687500000004,-33.47,15.582588375,34.49
2021-07-07 11:00:14.914062500,-57.0,-22.0,-17.75,63.034296875,-34.64,15.58022634375,34.49
2021-07-07 11:00:14.921875000,-57.0,-22.0,-18.5,63.03390625,-35.81,15.577864312500001,34.49
2021-07-07 11:00:14.929687500,-57.0,-22.0,-19.25,63.033515625,-36.69,15.575502281250001,34.49
2021-07-07 11:00:14.937500000,-57.0,-22.0,-20.0,63.033125,-37.57,15.573140250000002,34.49
2021-07-07 11:00:14.945312500,-57.25,-22.0,-19.75,63.032734375000004,-37.905,15.57077821875,34.49
2021-07-07 11:00:14.953125000,-57.5,-22.0,-19.5,63.03234375,-38.24,15.5684161875,34.49
2021-07-07 11:00:14.960937500,-57.75,-22.0,-19.25,63.031953125,-37.715,15.56605415625,34.49
2021-07-07 11:00:14.968750000,-58.0,-22.0,-19.0,63.0315625,-37.19,15.563692125000001,34.49
2021-07-07 11:00:14.976562500,-58.0,-22.0,-19.0,63.031171875,-35.555,15.561330093750001,34.49
2021-07-07 11:00:14.984375000,-58.0,-22.0,-19.0,63.030781250000004,-33.92,15.5589680625,34.49
2021-07-07 11:00:14.992187500,-58.0,-22.0,-19.0,63.030390625,-31.085,15.55660603125,34.49
2021-07-07 11:00:15.000000000,-58.0,-22.0,-19.0,63.03,-28.25,15.554244,34.49
2021-07-07 11:00:15.007812500,-57.75,-22.0,-18.75,63.029765625,-24.369999999999997,15.554404125000001,34.49
2021-07-07 11:00:15.015625000,-57.5,-22.0,-18.5,63.02953125,-20.49,15.55456425,34.49
2021-07-07 11:00:15.023437500,-57.25,-22.0,-18.25,63.029296875,-15.959999999999999,15.554724375000001,34.49
2021-07-07 11:00:15.031250000,-57.0,-22.0,-18.0,63.0290625,-11.43,15.5548845,34.49
2021-07-07 11:00:15.039062500,-57.25,-22.25,-18.0,63.028828125000004,-6.77,15.555044625,34.49
2021-07-07 11:00:15.046875000,-57.5,-22.5,-18.0,63.02859375,-2.11,15.55520475,34.49
2021-07-07 11:00:15.054687500,-57.75,-22.75,-18.0,63.028359375,2.1599999999999997,15.555364875,34.49
2021-07-07 11:00:15.062500000,-58.0,-23.0,-18.0,63.028125,6.43,15.555525,34.49
2021-07-07 11:00:15.070312500,-58.0,-22.75,-18.5,63.027890625,9.94,15.555685125,34.49
2021-07-07 11:00:15.078125000,-58.0,-22.5,-19.0,63.02765625,13.45,15.55584525,34.49
2021-07-07 11:00:15.085937500,-58.0,-22.25,-19.5,63.027421875,16.04,15.556005375,34.49
2021-07-07 11:00:15.093750000,-58.0,-22.0,-20.0,63.027187500000004,18.63,15.5561655,34.49
2021-07-07 11:00:15.101562500,-58.0,-22.0,-19.5,63.026953125,20.32,15.556325625,34.49
2021-07-07 11:00:15.109375000,-58.0,-22.0,-19.0,63.02671875,22.01,15.55648575,34.49
2021-07-07 11:00:15.117187500,-58.0,-22.0,-18.5,63.026484375,22.93,15.556645875,34.49
2021-07-07 11:00:15.125000000,-58.0,-22.0,-18.0,63.026250000000005,23.85,15.556806,34.49
2021-07-07 11:00:15.132812500,-58.0,-22.0,-17.5,63.026015625,24.16,15.556966125,34.49
2021-07-07 11:00:15.140625000,-58.0,-22.0,-17.0,63.02578125,24.47,15.55712625,34.49
2021-07-07 11:00:15.148437500,-58.0,-22.0,-16.5,63.025546875,24.314999999999998,15.557286375,34.49
2021-07-07 11:00:15.156250000,-58.0,-22.0,-16.0,63.0253125,24.16,15.5574465,34.49
2021-07-07 11:00:15.164062500,-57.5,-22.25,-16.5,63.025078125,23.630000000000003,15.557606625,34.49
2021-07-07 11:00:15.171875000,-57.0,-22.5,-17.0,63.02484375,23.1,15.557766749999999,34.49
2021-07-07 11:00:15.179687500,-56.5,-22.75,-17.5,63.024609375000004,22.275,15.557926875,34.49
2021-07-07 11:00:15.187500000,-56.0,-23.0,-18.0,63.024375,21.45,15.558087,34.49
2021-07-07 11:00:15.195312500,-56.25,-23.75,-18.0,63.024140625,20.39,15.558247125,34.49
2021-07-07 11:00:15.203125000,-56.5,-24.5,-18.0,63.02390625,19.33,15.55840725,34.49
2021-07-07 11:00:15.210937500,-56.75,-25.25,-18.0,63.023671875,18.1,15.558567374999999,34.49
2021-07-07 11:00:15.218750000,-57.0,-26.0,-18.0,63.0234375,16.87,15.5587275,34.49
2021-07-07 11:00:15.226562500,-57.75,-24.25,-16.75,63.023203125,15.555,15.558887624999999,34.49
2021-07-07 11:00:15.234375000,-58.5,-22.5,-15.5,63.022968750000004,14.24,15.55904775,34.49
2021-07-07 11:00:15.242187500,-59.25,-20.75,-14.25,63.022734375,12.945,15.559207874999998,34.49
2021-07-07 11:00:15.250000000,-60.0,-19.0,-13.0,63.0225,11.65,15.559368,34.49
2021-07-07 11:00:15.257812500,-59.5,-19.75,-15.5,63.022265625,10.515,15.558807531249998,34.49
2021-07-07 11:00:15.265625000,-59.0,-20.5,-18.0,63.02203125,9.38,15.5582470625,34.49
2021-07-07 11:00:15.273437500,-58.5,-21.25,-20.5,63.021796875,8.555,15.557686593749999,34.49
2021-07-07 11:00:15.281250000,-58.0,-22.0,-23.0,63.0215625,7.73,15.557126125,34.49
2021-07-07 11:00:15.289062500,-58.0,-22.0,-22.25,63.021328125000004,7.365,15.55656565625,34.49
2021-07-07 11:00:15.296875000,-58.0,-22.0,-21.5,63.02109375,7.0,15.556005187499998,34.49
2021-07-07 11:00:15.304687500,-58.0,-22.0,-20.75,63.020859375,7.18,15.55544471875,34.49
2021-07-07 11:00:15.312500000,-58.0,-22.0,-20.0,63.020625,7.36,15.554884249999999,34.49
2021-07-07 11:00:15.320312500,-57.75,-22.0,-19.25,63.020390625,8.055,15.55432378125,34.49
2021-07-07 11:00:15.328125000,-57.5,-22.0,-18.5,63.02015625,8.75,15.5537633125,34.49
2021-07-07 11:00:15.335937500,-57.25,-22.0,-17.75,63.019921875,9.809999999999999,15.553202843749999,34.49
2021-07-07 11:00:15.343750000,-57.0,-22.0,-17.0,63.0196875,10.87,15.552642375,34.49
2021-07-07 11:00:15.351562500,-57.25,-21.75,-17.25,63.019453125,12.075,15.552081906249999,34.49
2021-07-07 11:00:15.359375000,-57.5,-21.5,-17.5,63.01921875,13.28,15.5515214375,34.49
2021-07-07 11:00:15.367187500,-57.75,-21.25,-17.75,63.018984375,14.395,15.55096096875,34.49
2021-07-07 11:00:15.375000000,-58.0,-21.0,-18.0,63.01875,15.51,15.550400499999999,34.49
2021-07-07 11:00:15.382812500,-58.25,-21.0,-18.5,63.018515625,16.35,15.54984003125,34.49
2021-07-07 11:00:15.390625000,-58.5,-21.0,-19.0,63.01828125,17.19,15.549279562499999,34.49
2021-07-07 11:00:15.398437500,-58.75,-21.0,-19.5,63.018046875,17.655,15.54871909375,34.49
2021-07-07 11:00:15.406250000,-59.0,-21.0,-20.0,63.0178125,18.12,15.548158625,34.49
2021-07-07 11:00:15.414062500,-58.25,-21.25,-20.5,63.017578125,18.165,15.54759815625,34.49
2021-07-07 11:00:15.421875000,-57.5,-21.5,-21.0,63.01734375,18.21,15.5470376875,34.49
2021-07-07 11:00:15.429687500,-56.75,-21.75,-21.5,63.017109375000004,17.825000000000003,15.546477218749999,34.49
2021-07-07 11:00:15.437500000,-56.0,-22.0,-22.0,63.016875,17.44,15.54591675,34.49
2021-07-07 11:00:15.445312500,-55.75,-22.0,-21.75,63.016640625,16.615000000000002,15.54535628125,34.49
2021-07-07 11:00:15.453125000,-55.5,-22.0,-21.5,63.01640625,15.79,15.5447958125,34.49
2021-07-07 11:00:15.460937500,-55.25,-22.0,-21.25,63.016171875,14.53,15.54423534375,34.49
2021-07-07 11:00:15.468750000,-55.0,-22.0,-21.0,63.0159375,13.27,15.543674874999999,34.49
2021-07-07 11:00:15.476562500,-55.75,-22.0,-20.75,63.015703125,11.635,15.54311440625,34.49
2021-07-07 11:00:15.484375000,-56.5,-22.0,-20.5,63.015468750000004,10.0,15.5425539375,34.49
2021-07-07 11:00:15.492187500,-57.25,-22.0,-20.25,63.015234375,8.115,15.54199346875,34.49
2021-07-07 11:00:15.500000000,-58.0,-22.0,-20.0,63.015,6.23,15.541433,34.49
2021-07-07 11:00:15.507812500,-58.5,-22.25,-19.25,63.014765625,4.28,15.54115275,34.49
2021-07-07 11:00:15.515625000,-59.0,-22.5,-18.5,63.01453125,2.33,15.540872499999999,34.49
2021-07-07 11:00:15.523437500,-59.5,-22.75,-17.75,63.014296875,0.5350000000000001,15.54059225,34.49
2021-07-07 11:00:15.531250000,-60.0,-23.0,-17.0,63.0140625,-1.26,15.540312,34.49
2021-07-07 11:00:15.539062500,-59.5,-22.75,-17.75,63.013828125,-2.75,15.540031749999999,34.49
2021-07-07 11:00:15.546875000,-59.0,-22.5,-18.5,63.01359375,-4.24,15.5397515,34.49
2021-07-07 11:00:15.554687500,-58.5,-22.25,-19.25,63.013359375,-5.375,15.53947125,34.49
2021-07-07 11:00:15.562500000,-58.0,-22.0,-20.0,63.013125,-6.51,15.539190999999999,34.49
2021-07-07 11:00:15.570312500,-57.75,-22.25,-19.75,63.012890625,-7.37,15.53891075,34.49
2021-07-07 11:00:15.578125000,-57.5,-22.5,-19.5,63.01265625,-8.23,15.5386305,34.49
2021-07-07 11:00:15.585937500,-57.25,-22.75,-19.25,63.012421875,-8.975000000000001,15.53835025,34.49
2021-07-07 11:00:15.593750000,-57.0,-23.0,-19.0,63.0121875,-9.72,15.53807,34.49
2021-07-07 11:00:15.601562500,-57.0,-22.75,-18.75,63.011953125,-10.530000000000001,15.53778975,34.49
2021-07-07 11:00:15.609375000,-57.0,-22.5,-18.5,63.01171875,-11.34,15.5375095,34.49
2021-07-07 11:00:15.617187500,-57.0,-22.25,-18.25,63.011484375,-12.325,15.53722925,34.49
2021-07-07 11:00:15.625000000,-57.0,-22.0,-18.0,63.011250000000004,-13.31,15.536949,34.49
2021-07-07 11:00:15.632812500,-57.25,-22.25,-17.75,63.011015625,-14.47,15.53666875,34.49
2021-07-07 11:00:15.640625000,-57.5,-22.5,-17.5,63.01078125,-15.63,15.5363885,34.49
2021-07-07 11:00:15.648437500,-57.75,-22.75,-17.25,63.010546875,-16.845,15.53610825,34.49
2021-07-07 11:00:15.656250000,-58.0,-23.0,-17.0,63.0103125,-18.06,15.535828,34.49
2021-07-07 11:00:15.664062500,-58.0,-23.0,-17.0,63.010078125,-19.11,15.53554775,34.49
2021-07-07 11:00:15.671875000,-58.0,-23.0,-17.0,63.00984375,-20.16,15.5352675,34.49
2021-07-07 11:00:15.679687500,-58.0,-23.0,-17.0,63.009609375000004,-20.795,15.53498725,34.49
2021-07-07 11:00:15.687500000,-58.0,-23.0,-17.0,63.009375,-21.43,15.534707000000001,34.49
2021-07-07 11:00:15.695312500,-58.0,-22.5,-17.0,63.009140625,-21.445,15.53442675,34.49
2021-07-07 11:00:15.703125000,-58.0,-22.0,-17.0,63.00890625,-21.46,15.5341465,34.49
2021-07-07 11:00:15.710937500,-58.0,-21.5,-17.0,63.008671875,-20.78,15.53386625,34.49
2021-07-07 11:00:15.718750000,-58.0,-21.0,-17.0,63.0084375,-20.1,15.533586,34.49
2021-07-07 11:00:15.726562500,-57.75,-21.0,-17.25,63.008203125,-18.85,15.53330575,34.49
2021-07-07 11:00:15.734375000,-57.5,-21.0,-17.5,63.00796875,-17.6,15.5330255,34.49
2021-07-07 11:00:15.742187500,-57.25,-21.0,-17.75,63.007734375,-16.09,15.53274525,34.49
2021-07-07 11:00:15.750000000,-57.0,-21.0,-18.0,63.0075,-14.58,15.532465,34.49
2021-07-07 11:00:15.757812500,-57.5,-21.0,-17.75,63.007265625,-13.25,15.53234490625,34.49
2021-07-07 11:00:15.765625000,-58.0,-21.0,-17.5,63.00703125,-11.92,15.5322248125,34.49
2021-07-07 11:00:15.773437500,-58.5,-21.0,-17.25,63.006796875,-11.25,15.53210471875,34.49
2021-07-07 11:00:15.781250000,-59.0,-21.0,-17.0,63.0065625,-10.58,15.531984625,34.49
2021-07-07 11:00:15.789062500,-58.5,-21.5,-17.0,63.006328125,-10.940000000000001,15.531864531250001,34.49
2021-07-07 11:00:15.796875000,-58.0,-22.0,-17.0,63.00609375,-11.3,15.5317444375,34.49
2021-07-07 11:00:15.804687500,-57.5,-22.5,-17.0,63.005859375,-12.825,15.53162434375,34.49
2021-07-07 11:00:15.812500000,-57.0,-23.0,-17.0,63.005625,-14.35,15.531504250000001,34.49
2021-07-07 11:00:15.820312500,-56.75,-22.5,-18.5,63.005390625,-16.895,15.53138415625,34.49
2021-07-07 11:00:15.828125000,-56.5,-22.0,-20.0,63.00515625,-19.44,15.5312640625,34.49
2021-07-07 11:00:15.835937500,-56.25,-21.5,-21.5,63.004921875,-22.57,15.53114396875,34.49
2021-07-07 11:00:15.843750000,-56.0,-21.0,-23.0,63.0046875,-25.7,15.531023875,34.49
2021-07-07 11:00:15.851562500,-56.5,-21.25,-22.0,63.004453125,-28.765,15.53090378125,34.49
2021-07-07 11:00:15.859375000,-57.0,-21.5,-21.0,63.00421875,-31.83,15.5307836875,34.49
2021-07-07 11:00:15.867187500,-57.5,-21.75,-20.0,63.003984375,-34.065,15.53066359375,34.49
2021-07-07 11:00:15.875000000,-58.0,-22.0,-19.0,63.00375,-36.3,15.5305435,34.49
2021-07-07 11:00:15.882812500,-58.0,-21.75,-18.5,63.003515625,-37.015,15.53042340625,34.49
2021-07-07 11:00:15.890625000,-58.0,-21.5,-18.0,63.00328125,-37.73,15.530303312500001,34.49
2021-07-07 11:00:15.898437500,-58.0,-21.25,-17.5,63.003046875,-36.47,15.53018321875,34.49
2021-07-07 11:00:15.906250000,-58.0,-21.0,-17.0,63.0028125,-35.21,15.530063125,34.49
2021-07-07 11:00:15.914062500,-58.0,-21.0,-17.25,63.002578125,-31.9,15.529943031250001,34.49
2021-07-07 11:00:15.921875000,-58.0,-21.0,-17.5,63.00234375,-28.59,15.5298229375,34.49
2021-07-07 11:00:15.929687500,-58.0,-21.0,-17.75,63.002109375,-23.585,15.52970284375,34.49
2021-07-07 11:00:15.937500000,-58.0,-21.0,-18.0,63.001875,-18.58,15.52958275,34.49
2021-07-07 11:00:15.945312500,-58.0,-21.25,-18.75,63.001640625,-12.559999999999999,15.52946265625,34.49
2021-07-07 11:00:15.953125000,-58.0,-21.5,-19.5,63.00140625,-6.54,15.5293425625,34.49
2021-07-07 11:00:15.960937500,-58.0,-21.75,-20.25,63.001171875,-0.34499999999999975,15.52922246875,34.49
2021-07-07 11:00:15.968750000,-58.0,-22.0,-21.0,63.0009375,5.85,15.529102375,34.49
2021-07-07 11:00:15.976562500,-57.75,-22.0,-20.5,63.000703125,11.46,15.52898228125,34.49
2021-07-07 11:00:15.984375000,-57.5,-22.0,-20.0,63.00046875,17.07,15.5288621875,34.49
2021-07-07 11:00:15.992187500,-57.25,-22.0,-19.5,63.000234375,21.59,15.528742093750001,34.49
2021-07-07 11:00:16.000000000,-57.0,-22.0,-19.0,63.0,26.11,15.528622,34.49
2021-07-07 11:00:16.007812500,-56.75,-22.0,-19.0,62.99984375,29.335,15.52842184375,34.489375
2021-07-07 11:00:16.015625000,-56.5,-22.0,-19.0,62.9996875,32.56,15.5282216875,34.48875
2021-07-07 11:00:16.023437500,-56.25,-22.0,-19.0,62.99953125,34.519999999999996,15.528021531250001,34.488125000000004
