TimeStamp,empatica.acc.x,empatica.acc.y,empatica.acc.z,empatica.hr,empatica.bvp,empatica.eda,empatica.temp
2021-07-06 13:18:32.578125000,4.5,46.0,44.0,67.46640625,10.25,6.8216124375,33.31
2021-07-06 13:18:32.585937500,4.25,46.0,44.0,67.465546875,8.89,6.82141228125,33.31
2021-07-06 13:18:32.593750000,4.0,46.0,44.0,67.4646875,7.53,6.821212125,33.31
2021-07-06 13:18:32.601562500,4.0,46.0,44.0,67.463828125,6.135,6.82101196875,33.31
2021-07-06 13:18:32.609375000,4.0,46.0,44.0,67.46296875,4.74,6.8208118125,33.31
2021-07-06 13:18:32.617187500,4.0,46.0,44.0,67.462109375,3.34,6.82061165625,33.31
2021-07-06 13:18:32.625000000,4.0,46.0,44.0,67.46125,1.94,6.8204115000000005,33.31
2021-07-06 13:18:32.632812500,4.0,46.0,44.0,67.460390625,0.5249999999999999,6.8202113437500005,33.31
2021-07-06 13:18:32.640625000,4.0,46.0,44.0,67.45953125,-0.89,6.8200111875000005,33.31
2021-07-06 13:18:32.648437500,4.0,46.0,44.0,67.45867187500001,-2.38,6.81981103125,33.31
2021-07-06 13:18:32.656250000,4.0,46.0,44.0,67.4578125,-3.87,6.819610875,33.31
2021-07-06 13:18:32.664062500,4.0,46.0,44.0,67.456953125,-5.465,6.81941071875,33.31
2021-07-06 13:18:32.671875000,4.0,46.0,44.0,67.45609375000001,-7.06,6.8192105625,33.31
2021-07-06 13:18:32.679687500,4.0,46.0,44.0,67.455234375,-8.765,6.81901040625,33.31
2021-07-06 13:18:32.687500000,4.0,46.0,44.0,67.454375,-10.47,6.81881025,33.31
2021-07-06 13:18:32.695312500,4.25,46.0,44.0,67.45351562500001,-12.215,6.81861009375,33.31
2021-07-06 13:18:32.703125000,4.5,46.0,44.0,67.45265625,-13.96,6.8184099375,33.31
2021-07-06 13:18:32.710937500,4.75,46.0,44.0,67.451796875,-15.690000000000001,6.81820978125,33.31
2021-07-06 13:18:32.718750000,5.0,46.0,44.0,67.4509375,-17.42,6.818009625,33.31
2021-07-06 13:18:32.726562500,5.0,46.0,44.0,67.450078125,-19.085,6.81780946875,33.31
2021-07-06 13:18:32.734375000,5.0,46.0,44.0,67.44921875,-20.75,6.8176093125,33.31
2021-07-06 13:18:32.742187500,5.0,46.0,44.0,67.448359375,-22.369999999999997,6.81740915625,33.31
2021-07-06 13:18:32.750000000,5.0,46.0,44.0,67.4475,-23.99,6.817209,33.31
2021-07-06 13:18:32.757812500,4.75,46.0,44.0,67.446640625,-25.645,6.8170888750000005,33.31
2021-07-06 13:18:32.765625000,4.5,46.0,44.0,67.44578125,-27.3,6.81696875,33.31
2021-07-06 13:18:32.773437500,4.25,46.0,44.0,67.444921875,-29.095,6.816848625,33.31
2021-07-06 13:18:32.781250000,4.0,46.0,44.0,67.4440625,-30.89,6.8167285,33.31
2021-07-06 13:18:32.789062500,4.0,46.0,44.0,67.443203125,-32.945,6.816608375,33.31
2021-07-06 13:18:32.796875000,4.0,46.0,44.0,67.44234375,-35.0,6.81648825,33.31
2021-07-06 13:18:32.804687500,4.0,46.0,44.0,67.441484375,-37.425,6.816368125,33.31
2021-07-06 13:18:32.812500000,4.0,46.0,44.0,67.440625,-39.85,6.816248,33.31
2021-07-06 13:18:32.820312500,4.25,46.0,44.0,67.439765625,-42.71,6.816127875,33.31
2021-07-06 13:18:32.828125000,4.5,46.0,44.0,67.43890625,-45.57,6.81600775,33.31
2021-07-06 13:18:32.835937500,4.75,46.0,44.0,67.438046875,-48.864999999999995,6.815887625,33.31
2021-07-06 13:18:32.843750000,5.0,46.0,44.0,67.43718750000001,-52.16,6.8157675,33.31
2021-07-06 13:18:32.851562500,5.0,46.0,44.0,67.436328125,-55.76,6.815647375,33.31
2021-07-06 13:18:32.859375000,5.0,46.0,44.0,67.43546875,-59.36,6.81552725,33.31
2021-07-06 13:18:32.867187500,5.0,46.0,44.0,67.43460937500001,-62.97,6.815407125,33.31
2021-07-06 13:18:32.875000000,5.0,46.0,44.0,67.43375,-66.58,6.815287,33.31
2021-07-06 13:18:32.882812500,5.0,46.0,44.0,67.432890625,-69.74000000000001,6.815166875,33.31
2021-07-06 13:18:32.890625000,5.0,46.0,44.0,67.43203125000001,-72.9,6.8150467500000005,33.31
2021-07-06 13:18:32.898437500,5.0,46.0,44.0,67.431171875,-75.09,6.814926625,33.31
2021-07-06 13:18:32.906250000,5.0,46.0,44.0,67.4303125,-77.28,6.8148065,33.31
2021-07-06 13:18:32.914062500,5.0,46.0,44.0,67.429453125,-78.03,6.814686375,33.31
2021-07-06 13:18:32.921875000,5.0,46.0,44.0,67.42859375,-78.78,6.81456625,33.31
2021-07-06 13:18:32.929687500,5.0,46.0,44.0,67.427734375,-77.84,6.814446125,33.31
2021-07-06 13:18:32.937500000,5.0,46.0,44.0,67.426875,-76.9,6.814326,33.31
2021-07-06 13:18:32.945312500,5.0,46.0,44.0,67.426015625,-74.30000000000001,6.814205875,33.31
2021-07-06 13:18:32.953125000,5.0,46.0,44.0,67.42515625,-71.7,6.81408575,33.31
2021-07-06 13:18:32.960937500,5.0,46.0,44.0,67.424296875,-67.75,6.813965625,33.31
2021-07-06 13:18:32.968750000,5.0,46.0,44.0,67.4234375,-63.8,6.8138455,33.31
2021-07-06 13:18:32.976562500,5.0,46.0,44.0,67.422578125,-58.974999999999994,6.813725375,33.31
2021-07-06 13:18:32.984375000,5.0,46.0,44.0,67.42171875,-54.15,6.81360525,33.31
2021-07-06 13:18:32.992187500,5.0,46.0,44.0,67.420859375,-48.96,6.813485125,33.31
2021-07-06 13:18:33.000000000,5.0,46.0,44.0,67.42,-43.77,6.813365,33.31
2021-07-06 13:18:33.007812500,4.75,46.0,44.0,67.419296875,-38.625,6.813325,33.31
2021-07-06 13:18:33.015625000,4.5,46.0,44.0,67.41859375,-33.48,6.8132850000000005,33.31
2021-07-06 13:18:33.023437500,4.25,46.0,44.0,67.417890625,-28.625,6.813245,33.31
2021-07-06 13:18:33.031250000,4.0,46.0,44.0,67.4171875,-23.77,6.813205,33.31
2021-07-06 13:18:33.039062500,4.25,46.0,44.0,67.416484375,-19.314999999999998,6.813165,33.31
2021-07-06 13:18:33.046875000,4.5,46.0,44.0,67.41578125,-14.86,6.813125,33.31
2021-07-06 13:18:33.054687500,4.75,46.0,44.0,67.41507812500001,-10.815,6.813085,33.31
2021-07-06 13:18:33.062500000,5.0,46.0,44.0,67.414375,-6.77,6.813045,33.31
2021-07-06 13:18:33.070312500,4.75,46.0,44.0,67.413671875,-3.135,6.813005,33.31
2021-07-06 13:18:33.078125000,4.5,46.0,44.0,67.41296875,0.5,6.812965,33.31
2021-07-06 13:18:33.085937500,4.25,46.0,44.0,67.412265625,3.695,6.812925,33.31
2021-07-06 13:18:33.093750000,4.0,46.0,44.0,67.4115625,6.89,6.812885,33.31
2021-07-06 13:18:33.101562500,4.25,46.0,44.0,67.410859375,9.6,6.812845,33.31
2021-07-06 13:18:33.109375000,4.5,46.0,44.0,67.41015625,12.31,6.812805,33.31
2021-07-06 13:18:33.117187500,4.75,46.0,44.0,67.409453125,14.490000000000002,6.812765,33.31
2021-07-06 13:18:33.125000000,5.0,46.0,44.0,67.40875,16.67,6.812725,33.31
2021-07-06 13:18:33.132812500,4.75,46.0,44.0,67.408046875,18.35,6.812685,33.31
2021-07-06 13:18:33.140625000,4.5,46.0,44.0,67.40734375,20.03,6.812645,33.31
2021-07-06 13:18:33.148437500,4.25,46.0,44.0,67.406640625,21.33,6.812605,33.31
2021-07-06 13:18:33.156250000,4.0,46.0,44.0,67.40593750000001,22.63,6.812565,33.31
2021-07-06 13:18:33.164062500,4.0,46.0,44.0,67.405234375,23.71,6.812525,33.31
2021-07-06 13:18:33.171875000,4.0,46.0,44.0,67.40453125,24.79,6.812485,33.31
2021-07-06 13:18:33.179687500,4.0,46.0,44.0,67.403828125,25.83,6.812444999999999,33.31
2021-07-06 13:18:33.187500000,4.0,46.0,44.0,67.403125,26.87,6.812405,33.31
2021-07-06 13:18:33.195312500,4.0,46.0,44.0,67.402421875,27.935000000000002,6.812365,33.31
2021-07-06 13:18:33.203125000,4.0,46.0,44.0,67.40171875,29.0,6.8123249999999995,33.31
2021-07-06 13:18:33.210937500,4.0,46.0,44.0,67.401015625,30.09,6.812285,33.31
2021-07-06 13:18:33.218750000,4.0,46.0,44.0,67.4003125,31.18,6.812245,33.31
2021-07-06 13:18:33.226562500,4.0,46.0,44.0,67.399609375,32.225,6.812205,33.31
2021-07-06 13:18:33.234375000,4.0,46.0,44.0,67.39890625,33.27,6.812164999999999,33.31
2021-07-06 13:18:33.242187500,4.0,46.0,44.0,67.398203125,34.22,6.812125,33.31
2021-07-06 13:18:33.250000000,4.0,46.0,44.0,67.39750000000001,35.17,6.812085,33.31
2021-07-06 13:18:33.257812500,4.25,46.0,44.0,67.396796875,36.015,6.812085,33.31
2021-07-06 13:18:33.265625000,4.5,46.0,44.0,67.39609375,36.86,6.812085,33.31
2021-07-06 13:18:33.273437500,4.75,46.0,44.0,67.395390625,37.65,6.812085,33.31
2021-07-06 13:18:33.281250000,5.0,46.0,44.0,67.3946875,38.44,6.812085,33.31
2021-07-06 13:18:33.289062500,4.75,46.0,44.0,67.393984375,39.209999999999994,6.812085,33.31
2021-07-06 13:18:33.296875000,4.5,46.0,44.0,67.39328125,39.98,6.812085,33.31
2021-07-06 13:18:33.304687500,4.25,46.0,44.0,67.392578125,40.709999999999994,6.812085,33.31
2021-07-06 13:18:33.312500000,4.0,46.0,44.0,67.391875,41.44,6.812085,33.31
2021-07-06 13:18:33.320312500,4.0,46.0,44.0,67.391171875,42.03,6.812085,33.31
2021-07-06 13:18:33.328125000,4.0,46.0,44.0,67.39046875,42.62,6.812085,33.31
2021-07-06 13:18:33.335937500,4.0,46.0,44.0,67.389765625,42.935,6.812085,33.31
2021-07-06 13:18:33.343750000,4.0,46.0,44.0,67.3890625,43.25,6.812085,33.31
2021-07-06 13:18:33.351562500,4.0,46.0,44.0,67.38835937500001,43.195,6.812085,33.31
2021-07-06 13:18:33.359375000,4.0,46.0,44.0,67.38765625,43.14,6.812085,33.31
2021-07-06 13:18:33.367187500,4.0,46.0,44.0,67.386953125,42.71,6.812085,33.31
2021-07-06 13:18:33.375000000,4.0,46.0,44.0,67.38625,42.28,6.812085,33.31
2021-07-06 13:18:33.382812500,4.0,46.0,44.0,67.385546875,41.56,6.812085,33.31
2021-07-06 13:18:33.390625000,4.0,46.0,44.0,67.38484375,40.84,6.812085,33.31
2021-07-06 13:18:33.398437500,4.0,46.0,44.0,67.384140625,39.965,6.812085,33.31
2021-07-06 13:18:33.406250000,4.0,46.0,44.0,67.3834375,39.09,6.812085,33.31
2021-07-06 13:18:33.414062500,4.0,46.0,44.0,67.382734375,38.225,6.812085,33.31
2021-07-06 13:18:33.421875000,4.0,46.0,44.0,67.38203125,37.36,6.812085,33.31
2021-07-06 13:18:33.429687500,4.0,46.0,44.0,67.381328125,36.595,6.812085,33.31
2021-07-06 13:18:33.437500000,4.0,46.0,44.0,67.380625,35.83,6.812085,33.31
2021-07-06 13:18:33.445312500,4.25,46.0,44.0,67.379921875,35.185,6.812085,33.31
2021-07-06 13:18:33.453125000,4.5,46.0,44.0,67.37921875,34.54,6.812085,33.31
2021-07-06 13:18:33.460937500,4.75,46.0,44.0,67.378515625,33.985,6.812085,33.31
2021-07-06 13:18:33.468750000,5.0,46.0,44.0,67.3778125,33.43,6.812085,33.31
2021-07-06 13:18:33.476562500,4.75,46.0,44.0,67.377109375,32.879999999999995,6.812085,33.31
2021-07-06 13:18:33.484375000,4.5,46.0,44.0,67.37640625,32.33,6.812085,33.31
2021-07-06 13:18:33.492187500,4.25,46.0,44.0,67.375703125,31.659999999999997,6.812085,33.31
2021-07-06 13:18:33.500000000,4.0,46.0,44.0,67.375,30.99,6.812085,33.31
2021-07-06 13:18:33.507812500,4.25,46.0,44.0,67.374296875,30.09,6.8123251875,33.31
2021-07-06 13:18:33.515625000,4.5,46.0,44.0,67.37359375,29.19,6.812565375,33.31
2021-07-06 13:18:33.523437500,4.75,46.0,44.0,67.372890625,27.985,6.8128055624999995,33.31
2021-07-06 13:18:33.531250000,5.0,46.0,44.0,67.3721875,26.78,6.81304575,33.31
2021-07-06 13:18:33.539062500,4.75,46.0,44.0,67.371484375,25.245,6.8132859375,33.31
2021-07-06 13:18:33.546875000,4.5,46.0,44.0,67.37078125,23.71,6.813526125,33.31
2021-07-06 13:18:33.554687500,4.25,46.0,44.0,67.370078125,21.884999999999998,6.813766312499999,33.31
2021-07-06 13:18:33.562500000,4.0,46.0,44.0,67.369375,20.06,6.8140065,33.31
2021-07-06 13:18:33.570312500,4.0,46.0,44.0,67.368671875,18.064999999999998,6.8142466875,33.31
2021-07-06 13:18:33.578125000,4.0,46.0,44.0,67.36796875,16.07,6.814486875,33.31
2021-07-06 13:18:33.585937500,4.0,46.0,44.0,67.367265625,14.05,6.8147270625,33.31
2021-07-06 13:18:33.593750000,4.0,46.0,44.0,67.3665625,12.03,6.81496725,33.31
2021-07-06 13:18:33.601562500,4.25,46.0,44.0,67.365859375,10.1,6.8152074375,33.31
2021-07-06 13:18:33.609375000,4.5,46.0,44.0,67.36515625,8.17,6.815447625,33.31
2021-07-06 13:18:33.617187500,4.75,46.0,44.0,67.364453125,6.390000000000001,6.8156878125,33.31
2021-07-06 13:18:33.625000000,5.0,46.0,44.0,67.36375,4.61,6.8159279999999995,33.31
2021-07-06 13:18:33.632812500,5.0,46.0,44.0,67.363046875,2.9450000000000003,6.8161681875,33.31
2021-07-06 13:18:33.640625000,5.0,46.0,44.0,67.36234375,1.28,6.816408375,33.31
2021-07-06 13:18:33.648437500,5.0,46.0,44.0,67.36164062499999,-0.405,6.8166485625,33.31
2021-07-06 13:18:33.656250000,5.0,46.0,44.0,67.3609375,-2.09,6.81688875,33.31
2021-07-06 13:18:33.664062500,4.75,46.0,44.0,67.360234375,-3.9299999999999997,6.8171289375,33.31
2021-07-06 13:18:33.671875000,4.5,46.0,44.0,67.35953125,-5.77,6.817369125,33.31
2021-07-06 13:18:33.679687500,4.25,46.0,44.0,67.358828125,-7.87,6.8176093125,33.31
2021-07-06 13:18:33.687500000,4.0,46.0,44.0,67.358125,-9.97,6.8178495,33.31
2021-07-06 13:18:33.695312500,4.0,46.0,44.0,67.357421875,-12.325,6.8180896875000006,33.31
2021-07-06 13:18:33.703125000,4.0,46.0,44.0,67.35671875,-14.68,6.818329875,33.31
2021-07-06 13:18:33.710937500,4.0,46.0,44.0,67.356015625,-17.175,6.8185700625,33.31
2021-07-06 13:18:33.718750000,4.0,46.0,44.0,67.3553125,-19.67,6.81881025,33.31
2021-07-06 13:18:33.726562500,4.0,46.0,44.0,67.354609375,-22.130000000000003,6.8190504375000005,33.31
2021-07-06 13:18:33.734375000,4.0,46.0,44.0,67.35390625,-24.59,6.819290625,33.31
2021-07-06 13:18:33.742187500,4.0,46.0,44.0,67.353203125,-26.835,6.8195308125,33.31
2021-07-06 13:18:33.750000000,4.0,46.0,44.0,67.35249999999999,-29.08,6.819771,33.31
2021-07-06 13:18:33.757812500,4.0,46.0,44.0,67.351796875,-31.025,6.8194106875000005,33.31
2021-07-06 13:18:33.765625000,4.0,46.0,44.0,67.35109375,-32.97,6.819050375,33.31
2021-07-06 13:18:33.773437500,4.0,46.0,44.0,67.350390625,-34.655,6.8186900625,33.31
2021-07-06 13:18:33.781250000,4.0,46.0,44.0,67.3496875,-36.34,6.81832975,33.31
2021-07-06 13:18:33.789062500,4.0,46.0,44.0,67.348984375,-37.965,6.8179694375,33.31
2021-07-06 13:18:33.796875000,4.0,46.0,44.0,67.34828125,-39.59,6.817609125000001,33.31
2021-07-06 13:18:33.804687500,4.0,46.0,44.0,67.347578125,-41.43000000000001,6.8172488125,33.31
2021-07-06 13:18:33.812500000,4.0,46.0,44.0,67.346875,-43.27,6.8168885,33.31
2021-07-06 13:18:33.820312500,4.0,46.0,44.0,67.346171875,-45.605000000000004,6.8165281875,33.31
2021-07-06 13:18:33.828125000,4.0,46.0,44.0,67.34546875,-47.94,6.816167875,33.31
2021-07-06 13:18:33.835937500,4.0,46.0,44.0,67.344765625,-50.915,6.8158075625,33.31
2021-07-06 13:18:33.843750000,4.0,46.0,44.0,67.34406249999999,-53.89,6.81544725,33.31
2021-07-06 13:18:33.851562500,4.25,46.0,44.0,67.343359375,-57.41,6.8150869375,33.31
2021-07-06 13:18:33.859375000,4.5,46.0,44.0,67.34265625,-60.93,6.8147266250000005,33.31
2021-07-06 13:18:33.867187500,4.75,46.0,44.0,67.341953125,-64.625,6.8143663125,33.31
2021-07-06 13:18:33.875000000,5.0,46.0,44.0,67.34125,-68.32,6.814006,33.31
2021-07-06 13:18:33.882812500,4.75,46.0,44.0,67.340546875,-71.595,6.8136456875,33.31
2021-07-06 13:18:33.890625000,4.5,46.0,44.0,67.33984375,-74.87,6.8132853749999995,33.31
2021-07-06 13:18:33.898437500,4.25,46.0,44.0,67.339140625,-77.055,6.8129250625,33.31
2021-07-06 13:18:33.906250000,4.0,46.0,44.0,67.3384375,-79.24,6.81256475,33.31
2021-07-06 13:18:33.914062500,4.0,46.0,44.0,67.337734375,-79.775,6.8122044375,33.31
2021-07-06 13:18:33.921875000,4.0,46.0,44.0,67.33703125,-80.31,6.811844125,33.31
2021-07-06 13:18:33.929687500,4.0,46.0,44.0,67.336328125,-78.92500000000001,6.8114838125,33.31
2021-07-06 13:18:33.937500000,4.0,46.0,44.0,67.335625,-77.54,6.8111235,33.31
2021-07-06 13:18:33.945312500,4.25,46.0,44.0,67.33492187499999,-74.355,6.8107631875,33.31
2021-07-06 13:18:33.953125000,4.5,46.0,44.0,67.33421875,-71.17,6.810402874999999,33.31
2021-07-06 13:18:33.960937500,4.75,46.0,44.0,67.333515625,-66.635,6.8100425625,33.31
2021-07-06 13:18:33.968750000,5.0,46.0,44.0,67.3328125,-62.1,6.80968225,33.31
2021-07-06 13:18:33.976562500,4.75,46.0,44.0,67.332109375,-56.82,6.8093219375,33.31
2021-07-06 13:18:33.984375000,4.5,46.0,44.0,67.33140625,-51.54,6.808961625,33.31
2021-07-06 13:18:33.992187500,4.25,46.0,44.0,67.330703125,-46.099999999999994,6.8086013125,33.31
2021-07-06 13:18:34.000000000,4.0,46.0,44.0,67.33,-40.66,6.808241,33.31
2021-07-06 13:18:34.007812500,4.25,46.0,44.0,67.329609375,-35.449999999999996,6.8082009999999995,33.310625
2021-07-06 13:18:34.015625000,4.5,46.0,44.0,67.32921875,-30.24,6.808161,33.31125
2021-07-06 13:18:34.023437500,4.75,46.0,44.0,67.328828125,-25.43,6.808121,33.311875
2021-07-06 13:18:34.031250000,5.0,46.0,44.0,67.32843749999999,-20.62,6.808081,33.3125
2021-07-06 13:18:34.039062500,5.0,46.0,44.0,67.328046875,-16.195,6.808041,33.313125
2021-07-06 13:18:34.046875000,5.0,46.0,44.0,67.32765625,-11.77,6.808001,33.31375
2021-07-06 13:18:34.054687500,5.0,46.0,44.0,67.327265625,-7.685,6.807961,33.314375
2021-07-06 13:18:34.062500000,5.0,46.0,44.0,67.326875,-3.6,6.807921,33.315
2021-07-06 13:18:34.070312500,5.0,46.0,44.0,67.32648437499999,0.16500000000000004,6.807881,33.315625000000004
2021-07-06 13:18:34.078125000,5.0,46.0,44.0,67.32609375,3.93,6.807841,33.316250000000004
2021-07-06 13:18:34.085937500,5.0,46.0,44.0,67.325703125,7.3100000000000005,6.8078009999999995,33.316875
2021-07-06 13:18:34.093750000,5.0,46.0,44.0,67.3253125,10.69,6.807761,33.3175
2021-07-06 13:18:34.101562500,5.0,46.0,44.0,67.324921875,13.59,6.807721,33.318125
2021-07-06 13:18:34.109375000,5.0,46.0,44.0,67.32453124999999,16.49,6.807681,33.31875
2021-07-06 13:18:34.117187500,5.0,46.0,44.0,67.324140625,18.854999999999997,6.807641,33.319375
2021-07-06 13:18:34.125000000,5.0,46.0,44.0,67.32375,21.22,6.807601,33.32
2021-07-06 13:18:34.132812500,4.75,46.0,44.0,67.323359375,23.09,6.807561,33.320625
2021-07-06 13:18:34.140625000,4.5,46.0,44.0,67.32296875,24.96,6.807521,33.32125
2021-07-06 13:18:34.148437500,4.25,46.0,44.0,67.32257812499999,26.465,6.807481,33.321875
2021-07-06 13:18:34.156250000,4.0,46.0,44.0,67.3221875,27.97,6.807441,33.3225
2021-07-06 13:18:34.164062500,4.0,45.75,44.0,67.321796875,29.27,6.8074010000000005,33.323125
2021-07-06 13:18:34.171875000,4.0,45.5,44.0,67.32140625,30.57,6.807361,33.32375
2021-07-06 13:18:34.179687500,4.0,45.25,44.0,67.321015625,31.8,6.807321,33.324374999999996
2021-07-06 13:18:34.187500000,4.0,45.0,44.0,67.32062499999999,33.03,6.807281,33.325
2021-07-06 13:18:34.195312500,4.0,45.25,44.0,67.320234375,34.22,6.807241,33.325625
2021-07-06 13:18:34.203125000,4.0,45.5,44.0,67.31984375,35.41,6.807201,33.32625
2021-07-06 13:18:34.210937500,4.0,45.75,44.0,67.319453125,36.504999999999995,6.807161,33.326875
2021-07-06 13:18:34.218750000,4.0,46.0,44.0,67.3190625,37.6,6.807121,33.3275
2021-07-06 13:18:34.226562500,4.0,46.0,44.0,67.31867187499999,38.53,6.807081,33.328125
2021-07-06 13:18:34.234375000,4.0,46.0,44.0,67.31828125,39.46,6.807041,33.32875
2021-07-06 13:18:34.242187500,4.0,46.0,44.0,67.317890625,40.195,6.8070010000000005,33.329375
2021-07-06 13:18:34.250000000,4.0,46.0,44.0,67.3175,40.93,6.806961,33.33
2021-07-06 13:18:34.257812500,4.0,46.0,44.0,67.317109375,41.519999999999996,6.806520625,33.33
2021-07-06 13:18:34.265625000,4.0,46.0,44.0,67.31671874999999,42.11,6.80608025,33.33
2021-07-06 13:18:34.273437500,4.0,46.0,44.0,67.316328125,42.68,6.805639875,33.33
2021-07-06 13:18:34.281250000,4.0,46.0,44.0,67.3159375,43.25,6.8051995000000005,33.33
2021-07-06 13:18:34.289062500,4.25,46.0,44.0,67.315546875,43.894999999999996,6.804759125,33.33
2021-07-06 13:18:34.296875000,4.5,46.0,44.0,67.31515625,44.54,6.80431875,33.33
2021-07-06 13:18:34.304687500,4.75,46.0,44.0,67.31476562499999,45.285,6.803878375,33.33
2021-07-06 13:18:34.312500000,5.0,46.0,44.0,67.314375,46.03,6.803438,33.33
2021-07-06 13:18:34.320312500,5.0,46.0,44.0,67.313984375,46.775000000000006,6.802997625,33.33
2021-07-06 13:18:34.328125000,5.0,46.0,44.0,67.31359375,47.52,6.80255725,33.33
2021-07-06 13:18:34.335937500,5.0,46.0,44.0,67.313203125,48.07,6.802116875,33.33
2021-07-06 13:18:34.343750000,5.0,46.0,44.0,67.31281249999999,48.62,6.8016765,33.33
2021-07-06 13:18:34.351562500,5.0,46.0,44.0,67.312421875,48.785,6.801236125,33.33
2021-07-06 13:18:34.359375000,5.0,46.0,44.0,67.31203125,48.95,6.80079575,33.33
2021-07-06 13:18:34.367187500,5.0,46.0,44.0,67.311640625,48.615,6.800355375,33.33
2021-07-06 13:18:34.375000000,5.0,46.0,44.0,67.31125,48.28,6.799915,33.33
2021-07-06 13:18:34.382812500,5.0,46.0,44.0,67.31085937499999,47.465,6.799474625,33.33
2021-07-06 13:18:34.390625000,5.0,46.0,44.0,67.31046875,46.65,6.79903425,33.33
2021-07-06 13:18:34.398437500,5.0,46.0,44.0,67.310078125,45.489999999999995,6.798593875,33.33
2021-07-06 13:18:34.406250000,5.0,46.0,44.0,67.3096875,44.33,6.7981535,33.33
2021-07-06 13:18:34.414062500,5.0,46.0,44.0,67.309296875,43.025,6.797713125,33.33
2021-07-06 13:18:34.421875000,5.0,46.0,44.0,67.30890624999999,41.72,6.797272749999999,33.33
2021-07-06 13:18:34.429687500,5.0,46.0,44.0,67.308515625,40.45,6.796832375,33.33
2021-07-06 13:18:34.437500000,5.0,46.0,44.0,67.308125,39.18,6.796392,33.33
2021-07-06 13:18:34.445312500,5.0,46.0,44.0,67.307734375,38.06,6.795951625,33.33
2021-07-06 13:18:34.453125000,5.0,46.0,44.0,67.30734375,36.94,6.79551125,33.33
2021-07-06 13:18:34.460937500,5.0,46.0,44.0,67.30695312499999,35.959999999999994,6.7950708749999995,33.33
2021-07-06 13:18:34.468750000,5.0,46.0,44.0,67.3065625,34.98,6.794630499999999,33.33
2021-07-06 13:18:34.476562500,5.0,46.0,44.0,67.306171875,34.075,6.794190125,33.33
2021-07-06 13:18:34.484375000,5.0,46.0,44.0,67.30578125,33.17,6.79374975,33.33
2021-07-06 13:18:34.492187500,5.0,46.0,44.0,67.305390625,32.225,6.793309375,33.33
2021-07-06 13:18:34.500000000,5.0,46.0,44.0,67.305,31.28,6.792869,33.33
2021-07-06 13:18:34.507812500,5.0,46.0,44.0,67.304609375,30.185000000000002,6.792869,33.33
2021-07-06 13:18:34.515625000,5.0,46.0,44.0,67.30421875,29.09,6.792869,33.33
2021-07-06 13:18:34.523437500,5.0,46.0,44.0,67.303828125,27.79,6.792869,33.33
2021-07-06 13:18:34.531250000,5.0,46.0,44.0,67.3034375,26.49,6.792869,33.33
2021-07-06 13:18:34.539062500,5.0,46.0,44.0,67.303046875,24.985,6.792869,33.33
2021-07-06 13:18:34.546875000,5.0,46.0,44.0,67.30265625,23.48,6.792869,33.33
2021-07-06 13:18:34.554687500,5.0,46.0,44.0,67.302265625,21.85,6.792869,33.33
2021-07-06 13:18:34.562500000,5.0,46.0,44.0,67.301875,20.22,6.792869,33.33
2021-07-06 13:18:34.570312500,5.0,45.75,44.0,67.301484375,18.58,6.792869,33.33
2021-07-06 13:18:34.578125000,5.0,45.5,44.0,67.30109375,16.94,6.792869,33.33
2021-07-06 13:18:34.585937500,5.0,45.25,44.0,67.300703125,15.41,6.792869,33.33
2021-07-06 13:18:34.593750000,5.0,45.0,44.0,67.3003125,13.88,6.792869,33.33
2021-07-06 13:18:34.601562500,5.0,45.0,44.0,67.299921875,12.510000000000002,6.792869,33.33
2021-07-06 13:18:34.609375000,5.0,45.0,44.0,67.29953125,11.14,6.792869,33.33
2021-07-06 13:18:34.617187500,5.0,45.0,44.0,67.299140625,9.9,6.792869,33.33
2021-07-06 13:18:34.625000000,5.0,45.0,44.0,67.29875,8.66,6.792869,33.33
2021-07-06 13:18:34.632812500,4.75,45.25,44.0,67.298359375,7.42,6.792869,33.33
2021-07-06 13:18:34.640625000,4.5,45.5,44.0,67.29796875,6.18,6.792869,33.33
2021-07-06 13:18:34.648437500,4.25,45.75,44.0,67.297578125,4.76,6.792869,33.33
2021-07-06 13:18:34.656250000,4.0,46.0,44.0,67.2971875,3.34,6.792869,33.33
2021-07-06 13:18:34.664062500,4.25,46.0,44.0,67.296796875,1.585,6.792869,33.33
2021-07-06 13:18:34.671875000,4.5,46.0,44.0,67.29640625,-0.17,6.792869,33.33
2021-07-06 13:18:34.679687500,4.75,46.0,44.0,67.296015625,-2.33,6.792869,33.33
2021-07-06 13:18:34.687500000,5.0,46.0,44.0,67.295625,-4.49,6.792869,33.33
2021-07-06 13:18:34.695312500,4.75,46.0,44.0,67.295234375,-6.98,6.792869,33.33
2021-07-06 13:18:34.703125000,4.5,46.0,44.0,67.29484375,-9.47,6.792869,33.33
2021-07-06 13:18:34.710937500,4.25,46.0,44.0,67.294453125,-12.120000000000001,6.792869,33.33
2021-07-06 13:18:34.718750000,4.0,46.0,44.0,67.2940625,-14.77,6.792869,33.33
2021-07-06 13:18:34.726562500,4.25,45.75,44.0,67.293671875,-17.375,6.792869,33.33
2021-07-06 13:18:34.734375000,4.5,45.5,44.0,67.29328125,-19.98,6.792869,33.33
2021-07-06 13:18:34.742187500,4.75,45.25,44.0,67.292890625,-22.365000000000002,6.792869,33.33
2021-07-06 13:18:34.750000000,5.0,45.0,44.0,67.2925,-24.75,6.792869,33.33
2021-07-06 13:18:34.757812500,4.75,45.25,44.0,67.292109375,-26.875,6.792588781249999,33.33
2021-07-06 13:18:34.765625000,4.5,45.5,44.0,67.29171875,-29.0,6.7923085625,33.33
2021-07-06 13:18:34.773437500,4.25,45.75,44.0,67.291328125,-30.95,6.792028343749999,33.33
2021-07-06 13:18:34.781250000,4.0,46.0,44.0,67.2909375,-32.9,6.791748125,33.33
2021-07-06 13:18:34.789062500,4.25,46.0,44.0,67.290546875,-34.870000000000005,6.791467906249999,33.33
2021-07-06 13:18:34.796875000,4.5,46.0,44.0,67.29015625,-36.84,6.7911876875,33.33
2021-07-06 13:18:34.804687500,4.75,46.0,44.0,67.289765625,-39.075,6.7909074687499995,33.33
2021-07-06 13:18:34.812500000,5.0,46.0,44.0,67.289375,-41.31,6.79062725,33.33
2021-07-06 13:18:34.820312500,5.0,46.0,44.0,67.288984375,-44.015,6.79034703125,33.33
2021-07-06 13:18:34.828125000,5.0,46.0,44.0,67.28859375,-46.72,6.7900668125,33.33
2021-07-06 13:18:34.835937500,5.0,46.0,44.0,67.288203125,-49.974999999999994,6.78978659375,33.33
2021-07-06 13:18:34.843750000,5.0,46.0,44.0,67.2878125,-53.23,6.789506375,33.33
2021-07-06 13:18:34.851562500,5.0,46.0,44.25,67.287421875,-56.925,6.78922615625,33.33
2021-07-06 13:18:34.859375000,5.0,46.0,44.5,67.28703125,-60.62,6.7889459375,33.33
2021-07-06 13:18:34.867187500,5.0,46.0,44.75,67.286640625,-64.425,6.78866571875,33.33
2021-07-06 13:18:34.875000000,5.0,46.0,45.0,67.28625,-68.23,6.7883855,33.33
2021-07-06 13:18:34.882812500,5.0,46.0,44.75,67.285859375,-71.61500000000001,6.78810528125,33.33
2021-07-06 13:18:34.890625000,5.0,46.0,44.5,67.28546875,-75.0,6.7878250625,33.33
2021-07-06 13:18:34.898437500,5.0,46.0,44.25,67.285078125,-77.34,6.78754484375,33.33
2021-07-06 13:18:34.906250000,5.0,46.0,44.0,67.2846875,-79.68,6.787264625,33.33
2021-07-06 13:18:34.914062500,4.75,46.0,44.0,67.284296875,-80.43,6.78698440625,33.33
2021-07-06 13:18:34.921875000,4.5,46.0,44.0,67.28390625,-81.18,6.7867041875,33.33
2021-07-06 13:18:34.929687500,4.25,46.0,44.0,67.283515625,-80.015,6.78642396875,33.33
2021-07-06 13:18:34.937500000,4.0,46.0,44.0,67.283125,-78.85,6.78614375,33.33
2021-07-06 13:18:34.945312500,4.25,46.0,44.0,67.282734375,-75.8,6.78586353125,33.33
2021-07-06 13:18:34.953125000,4.5,46.0,44.0,67.28234375,-72.75,6.7855833125,33.33
2021-07-06 13:18:34.960937500,4.75,46.0,44.0,67.281953125,-68.185,6.7853030937500005,33.33
2021-07-06 13:18:34.968750000,5.0,46.0,44.0,67.2815625,-63.62,6.785022875,33.33
2021-07-06 13:18:34.976562500,4.75,46.0,44.0,67.281171875,-58.125,6.784742656250001,33.33
2021-07-06 13:18:34.984375000,4.5,46.0,44.0,67.28078125,-52.63,6.7844624375,33.33
2021-07-06 13:18:34.992187500,4.25,46.0,44.0,67.280390625,-46.84,6.784182218750001,33.33
2021-07-06 13:18:35.000000000,4.0,46.0,44.0,67.28,-41.05,6.783902,33.33
2021-07-06 13:18:35.007812500,4.0,46.0,44.0,67.279375,-35.455,6.78370184375,33.3303125
2021-07-06 13:18:35.015625000,4.0,46.0,44.0,67.27875,-29.86,6.7835016875,33.330625
2021-07-06 13:18:35.023437500,4.0,46.0,44.0,67.278125,-24.744999999999997,6.78330153125,33.3309375
2021-07-06 13:18:35.031250000,4.0,46.0,44.0,67.2775,-19.63,6.783101375,33.33125
2021-07-06 13:18:35.039062500,4.0,46.0,44.0,67.276875,-15.055,6.78290121875,33.3315625
2021-07-06 13:18:35.046875000,4.0,46.0,44.0,67.27625,-10.48,6.7827010625,33.331875
2021-07-06 13:18:35.054687500,4.0,46.0,44.0,67.275625,-6.3950000000000005,6.78250090625,33.332187499999996
2021-07-06 13:18:35.062500000,4.0,46.0,44.0,67.275,-2.31,6.78230075,33.332499999999996
2021-07-06 13:18:35.070312500,4.25,46.0,44.0,67.274375,1.3850000000000002,6.78210059375,33.3328125
2021-07-06 13:18:35.078125000,4.5,46.0,44.0,67.27375,5.08,6.7819004375,33.333125
2021-07-06 13:18:35.085937500,4.75,46.0,44.0,67.27312500000001,8.445,6.78170028125,33.3334375
2021-07-06 13:18:35.093750000,5.0,46.0,44.0,67.27250000000001,11.81,6.781500125,33.33375
2021-07-06 13:18:35.101562500,5.0,46.0,44.0,67.271875,14.835,6.78129996875,33.3340625
2021-07-06 13:18:35.109375000,5.0,46.0,44.0,67.27125,17.86,6.7810998125,33.334375
2021-07-06 13:18:35.117187500,5.0,46.0,44.0,67.270625,20.509999999999998,6.78089965625,33.3346875
2021-07-06 13:18:35.125000000,5.0,46.0,44.0,67.27,23.16,6.780699500000001,33.335
2021-07-06 13:18:35.132812500,5.0,46.0,44.0,67.269375,25.369999999999997,6.780499343750001,33.3353125
2021-07-06 13:18:35.140625000,5.0,46.0,44.0,67.26875,27.58,6.780299187500001,33.335625
2021-07-06 13:18:35.148437500,5.0,46.0,44.0,67.268125,29.32,6.780099031250001,33.3359375
2021-07-06 13:18:35.156250000,5.0,46.0,44.0,67.2675,31.06,6.779898875000001,33.33625
2021-07-06 13:18:35.164062500,5.0,46.0,44.0,67.266875,32.365,6.779698718750001,33.3365625
2021-07-06 13:18:35.171875000,5.0,46.0,44.0,67.26625,33.67,6.779498562500001,33.336875
2021-07-06 13:18:35.179687500,5.0,46.0,44.0,67.265625,34.61,6.779298406250001,33.3371875
2021-07-06 13:18:35.187500000,5.0,46.0,44.0,67.265,35.55,6.7790982500000005,33.337500000000006
2021-07-06 13:18:35.195312500,5.0,46.0,44.0,67.264375,36.25,6.7788980937500005,33.337812500000005
2021-07-06 13:18:35.203125000,5.0,46.0,44.0,67.26375,36.95,6.7786979375000005,33.338125000000005
2021-07-06 13:18:35.210937500,5.0,46.0,44.0,67.263125,37.52,6.7784977812500005,33.338437500000005
2021-07-06 13:18:35.218750000,5.0,46.0,44.0,67.2625,38.09,6.778297625,33.338750000000005
2021-07-06 13:18:35.226562500,5.0,46.0,44.0,67.261875,38.605000000000004,6.77809746875,33.339062500000004
2021-07-06 13:18:35.234375000,5.0,46.0,44.0,67.26125,39.12,6.7778973125,33.339375000000004
2021-07-06 13:18:35.242187500,5.0,46.0,44.0,67.260625,39.614999999999995,6.77769715625,33.339687500000004
2021-07-06 13:18:35.250000000,5.0,46.0,44.0,67.26,40.11,6.777497,33.34
2021-07-06 13:18:35.257812500,4.75,46.0,44.0,67.259375,40.595,6.777497,33.34
2021-07-06 13:18:35.265625000,4.5,46.0,44.0,67.25875,41.08,6.777497,33.34
2021-07-06 13:18:35.273437500,4.25,46.0,44.0,67.258125,41.56,6.777497,33.34
2021-07-06 13:18:35.281250000,4.0,46.0,44.0,67.25750000000001,42.04,6.777497,33.34
2021-07-06 13:18:35.289062500,4.0,46.0,44.0,67.25687500000001,42.545,6.777497,33.34
2021-07-06 13:18:35.296875000,4.0,46.0,44.0,67.25625000000001,43.05,6.777497,33.34
2021-07-06 13:18:35.304687500,4.0,46.0,44.0,67.255625,43.595,6.777497,33.34
2021-07-06 13:18:35.312500000,4.0,46.0,44.0,67.255,44.14,6.777497,33.34
2021-07-06 13:18:35.320312500,4.0,46.0,44.0,67.254375,44.69,6.777497,33.34
2021-07-06 13:18:35.328125000,4.0,46.0,44.0,67.25375,45.24,6.777497,33.34
2021-07-06 13:18:35.335937500,4.0,46.0,44.0,67.253125,45.67,6.777497,33.34
2021-07-06 13:18:35.343750000,4.0,46.0,44.0,67.2525,46.1,6.777497,33.34
2021-07-06 13:18:35.351562500,4.25,46.0,44.0,67.251875,46.235,6.777497,33.34
2021-07-06 13:18:35.359375000,4.5,46.0,44.0,67.25125,46.37,6.777497,33.34
2021-07-06 13:18:35.367187500,4.75,46.0,44.0,67.250625,46.05,6.777497,33.34
2021-07-06 13:18:35.375000000,5.0,46.0,44.0,67.25,45.73,6.777497,33.34
2021-07-06 13:18:35.382812500,4.75,46.0,44.0,67.249375,44.87,6.777497,33.34
2021-07-06 13:18:35.390625000,4.5,46.0,44.0,67.24875,44.01,6.777497,33.34
2021-07-06 13:18:35.398437500,4.25,46.0,44.0,67.248125,42.685,6.777497,33.34
2021-07-06 13:18:35.406250000,4.0,46.0,44.0,67.2475,41.36,6.777497,33.34
2021-07-06 13:18:35.414062500,4.0,46.0,44.0,67.246875,39.765,6.777497,33.34
2021-07-06 13:18:35.421875000,4.0,46.0,44.0,67.24625,38.17,6.777497,33.34
2021-07-06 13:18:35.429687500,4.0,46.0,44.0,67.245625,36.575,6.777497,33.34
2021-07-06 13:18:35.437500000,4.0,46.0,44.0,67.245,34.98,6.777497,33.34
2021-07-06 13:18:35.445312500,4.0,46.0,44.0,67.244375,33.595,6.777497,33.34
2021-07-06 13:18:35.453125000,4.0,46.0,44.0,67.24375,32.21,6.777497,33.34
2021-07-06 13:18:35.460937500,4.0,46.0,44.0,67.243125,31.125,6.777497,33.34
2021-07-06 13:18:35.468750000,4.0,46.0,44.0,67.2425,30.04,6.777497,33.34
2021-07-06 13:18:35.476562500,4.0,46.0,44.0,67.24187500000001,29.215,6.777497,33.34
2021-07-06 13:18:35.484375000,4.0,46.0,44.0,67.24125000000001,28.39,6.777497,33.34
2021-07-06 13:18:35.492187500,4.0,46.0,44.0,67.24062500000001,27.67,6.777497,33.34
2021-07-06 13:18:35.500000000,4.0,46.0,44.0,67.24000000000001,26.95,6.777497,33.34
2021-07-06 13:18:35.507812500,4.25,46.0,44.0,67.239375,26.155,6.7775370312500005,33.34
2021-07-06 13:18:35.515625000,4.5,46.0,44.0,67.23875,25.36,6.777577062500001,33.34
2021-07-06 13:18:35.523437500,4.75,46.0,44.0,67.238125,24.33,6.77761709375,33.34
2021-07-06 13:18:35.531250000,5.0,46.0,44.0,67.2375,23.3,6.777657125,33.34
2021-07-06 13:18:35.539062500,5.0,46.0,44.0,67.236875,21.955,6.77769715625,33.34
2021-07-06 13:18:35.546875000,5.0,46.0,44.0,67.23625,20.61,6.7777371875000005,33.34
2021-07-06 13:18:35.554687500,5.0,46.0,44.0,67.235625,18.96,6.77777721875,33.34
2021-07-06 13:18:35.562500000,5.0,46.0,44.0,67.235,17.31,6.77781725,33.34
2021-07-06 13:18:35.570312500,4.75,46.0,44.0,67.234375,15.424999999999999,6.77785728125,33.34
2021-07-06 13:18:35.578125000,4.5,46.0,44.0,67.23375,13.54,6.7778973125,33.34
2021-07-06 13:18:35.585937500,4.25,46.0,44.0,67.233125,11.54,6.777937343750001,33.34
2021-07-06 13:18:35.593750000,4.0,46.0,44.0,67.2325,9.54,6.777977375,33.34
2021-07-06 13:18:35.601562500,4.0,46.0,44.0,67.231875,7.545,6.77801740625,33.34
2021-07-06 13:18:35.609375000,4.0,46.0,44.0,67.23125,5.55,6.7780574375,33.34
2021-07-06 13:18:35.617187500,4.0,46.0,44.0,67.230625,3.66,6.77809746875,33.34
2021-07-06 13:18:35.625000000,4.0,46.0,44.0,67.23,1.77,6.7781375,33.34
2021-07-06 13:18:35.632812500,4.0,46.0,44.0,67.229375,0.030000000000000027,6.77817753125,33.34
2021-07-06 13:18:35.640625000,4.0,46.0,44.0,67.22875,-1.71,6.7782175625,33.34
2021-07-06 13:18:35.648437500,4.0,46.0,44.0,67.228125,-3.34,6.77825759375,33.34
2021-07-06 13:18:35.656250000,4.0,46.0,44.0,67.2275,-4.97,6.778297625,33.34
2021-07-06 13:18:35.664062500,4.25,46.0,44.0,67.226875,-6.574999999999999,6.77833765625,33.34
2021-07-06 13:18:35.671875000,4.5,46.0,44.0,67.22625000000001,-8.18,6.7783776875,33.34
2021-07-06 13:18:35.679687500,4.75,46.0,44.0,67.22562500000001,-9.870000000000001,6.77841771875,33.34
2021-07-06 13:18:35.687500000,5.0,46.0,44.0,67.22500000000001,-11.56,6.77845775,33.34
2021-07-06 13:18:35.695312500,4.75,46.0,44.0,67.22437500000001,-13.415,6.7784977812500005,33.34
2021-07-06 13:18:35.703125000,4.5,46.0,44.0,67.22375,-15.27,6.7785378125,33.34
2021-07-06 13:18:35.710937500,4.25,46.0,44.0,67.223125,-17.295,6.77857784375,33.34
2021-07-06 13:18:35.718750000,4.0,46.0,44.0,67.2225,-19.32,6.778617875,33.34
2021-07-06 13:18:35.726562500,4.0,46.0,44.0,67.221875,-21.47,6.77865790625,33.34
2021-07-06 13:18:35.734375000,4.0,46.0,44.0,67.22125,-23.62,6.7786979375,33.34
2021-07-06 13:18:35.742187500,4.0,46.0,44.0,67.220625,-25.83,6.77873796875,33.34
2021-07-06 13:18:35.750000000,4.0,46.0,44.0,67.22,-28.04,6.778778,33.34
2021-07-06 13:18:35.757812500,4.0,46.0,44.0,67.219375,-30.224999999999998,6.7788580625,33.34
2021-07-06 13:18:35.765625000,4.0,46.0,44.0,67.21875,-32.41,6.778938125,33.34
2021-07-06 13:18:35.773437500,4.0,46.0,44.0,67.218125,-34.575,6.7790181875,33.34
2021-07-06 13:18:35.781250000,4.0,46.0,44.0,67.2175,-36.74,6.77909825,33.34
2021-07-06 13:18:35.789062500,4.0,46.0,44.0,67.216875,-38.925,6.7791783125,33.34
2021-07-06 13:18:35.796875000,4.0,46.0,44.0,67.21625,-41.11,6.779258375,33.34
2021-07-06 13:18:35.804687500,4.0,46.0,44.0,67.215625,-43.41,6.7793384375,33.34
2021-07-06 13:18:35.812500000,4.0,46.0,44.0,67.215,-45.71,6.7794185,33.34
2021-07-06 13:18:35.820312500,4.0,46.0,44.0,67.214375,-48.24,6.7794985625,33.34
2021-07-06 13:18:35.828125000,4.0,46.0,44.0,67.21375,-50.77,6.779578625,33.34
2021-07-06 13:18:35.835937500,4.0,46.0,44.0,67.213125,-53.64,6.7796586875000004,33.34
2021-07-06 13:18:35.843750000,4.0,46.0,44.0,67.2125,-56.51,6.77973875,33.34
2021-07-06 13:18:35.851562500,4.0,46.0,44.0,67.211875,-59.754999999999995,6.7798188125,33.34
2021-07-06 13:18:35.859375000,4.0,46.0,44.0,67.21125,-63.0,6.779898875,33.34
2021-07-06 13:18:35.867187500,4.0,46.0,44.0,67.21062500000001,-66.55,6.7799789375,33.34
2021-07-06 13:18:35.875000000,4.0,46.0,44.0,67.21000000000001,-70.1,6.780059,33.34
2021-07-06 13:18:35.882812500,4.0,46.0,44.0,67.20937500000001,-73.735,6.7801390625,33.34
2021-07-06 13:18:35.890625000,4.0,46.0,44.0,67.20875000000001,-77.37,6.780219125,33.34
2021-07-06 13:18:35.898437500,4.0,46.0,44.0,67.20812500000001,-80.66,6.7802991875,33.34
2021-07-06 13:18:35.906250000,4.0,46.0,44.0,67.2075,-83.95,6.78037925,33.34
2021-07-06 13:18:35.914062500,4.0,45.75,44.0,67.206875,-86.38,6.7804593125,33.34
2021-07-06 13:18:35.921875000,4.0,45.5,44.0,67.20625,-88.81,6.780539375,33.34
2021-07-06 13:18:35.929687500,4.0,45.25,44.0,67.205625,-89.815,6.7806194375,33.34
2021-07-06 13:18:35.937500000,4.0,45.0,44.0,67.205,-90.82,6.7806995,33.34
2021-07-06 13:18:35.945312500,4.0,45.25,44.0,67.204375,-90.02,6.7807795625,33.34
2021-07-06 13:18:35.953125000,4.0,45.5,44.0,67.20375,-89.22,6.780859625,33.34
2021-07-06 13:18:35.960937500,4.0,45.75,44.0,67.203125,-86.535,6.7809396875,33.34
2021-07-06 13:18:35.968750000,4.0,46.0,44.0,67.2025,-83.85,6.7810197500000005,33.34
2021-07-06 13:18:35.976562500,4.0,46.0,44.0,67.201875,-79.55,6.7810998125,33.34
2021-07-06 13:18:35.984375000,4.0,46.0,44.0,67.20125,-75.25,6.781179875,33.34
2021-07-06 13:18:35.992187500,4.0,46.0,44.0,67.200625,-69.84,6.7812599375,33.34
2021-07-06 13:18:36.000000000,4.0,46.0,44.0,67.2,-64.43,6.78134,33.34
2021-07-06 13:18:36.007812500,4.0,46.0,44.0,67.19921875,-58.540000000000006,6.78081959375,33.339687500000004
2021-07-06 13:18:36.015625000,4.0,46.0,44.0,67.1984375,-52.65,6.7802991875,33.339375000000004
2021-07-06 13:18:36.023437500,4.0,46.0,44.0,67.19765625000001,-46.81,6.77977878125,33.339062500000004
2021-07-06 13:18:36.031250000,4.0,46.0,44.0,67.196875,-40.97,6.779258375,33.338750000000005
2021-07-06 13:18:36.039062500,4.0,46.0,44.0,67.19609375,-35.485,6.77873796875,33.338437500000005
2021-07-06 13:18:36.046875000,4.0,46.0,44.0,67.1953125,-30.0,6.7782175625,33.338125000000005
2021-07-06 13:18:36.054687500,4.0,46.0,44.0,67.19453125,-24.975,6.77769715625,33.337812500000005
2021-07-06 13:18:36.062500000,4.0,46.0,44.0,67.19375000000001,-19.95,6.777176750000001,33.337500000000006
2021-07-06 13:18:36.070312500,4.0,46.0,44.0,67.19296875,-15.344999999999999,6.77665634375,33.3371875
2021-07-06 13:18:36.078125000,4.0,46.0,44.0,67.1921875,-10.74,6.7761359375,33.336875
2021-07-06 13:18:36.085937500,4.0,46.0,44.0,67.19140625,-6.5,6.775615531250001,33.3365625
2021-07-06 13:18:36.093750000,4.0,46.0,44.0,67.190625,-2.26,6.775095125,33.33625
2021-07-06 13:18:36.101562500,4.0,46.0,44.0,67.18984375000001,1.6100000000000003,6.77457471875,33.3359375
2021-07-06 13:18:36.109375000,4.0,46.0,44.0,67.1890625,5.48,6.774054312500001,33.335625
2021-07-06 13:18:36.117187500,4.0,46.0,44.0,67.18828125,8.91,6.77353390625,33.3353125
2021-07-06 13:18:36.125000000,4.0,46.0,44.0,67.1875,12.34,6.7730135,33.335
2021-07-06 13:18:36.132812500,4.0,46.0,44.0,67.18671875,15.245,6.7724930937500005,33.3346875
2021-07-06 13:18:36.140625000,4.0,46.0,44.0,67.18593750000001,18.15,6.7719726875,33.334375
2021-07-06 13:18:36.148437500,4.0,46.0,44.0,67.18515625,20.49,6.77145228125,33.3340625
2021-07-06 13:18:36.156250000,4.0,46.0,44.0,67.184375,22.83,6.7709318750000005,33.33375
2021-07-06 13:18:36.164062500,4.0,46.0,44.0,67.18359375,24.665,6.77041146875,33.3334375
2021-07-06 13:18:36.171875000,4.0,46.0,44.0,67.1828125,26.5,6.7698910625,33.333125
2021-07-06 13:18:36.179687500,4.0,46.0,44.0,67.18203125,27.955,6.7693706562500005,33.3328125
2021-07-06 13:18:36.187500000,4.0,46.0,44.0,67.18125,29.41,6.76885025,33.332499999999996
2021-07-06 13:18:36.195312500,4.0,46.0,44.0,67.18046875,30.65,6.76832984375,33.332187499999996
2021-07-06 13:18:36.203125000,4.0,46.0,44.0,67.1796875,31.89,6.7678094375,33.331875
2021-07-06 13:18:36.210937500,4.0,46.0,44.0,67.17890625,33.03,6.767289031250001,33.3315625
2021-07-06 13:18:36.218750000,4.0,46.0,44.0,67.178125,34.17,6.766768625,33.33125
2021-07-06 13:18:36.226562500,4.0,46.0,44.0,67.17734375,35.275000000000006,6.76624821875,33.3309375
2021-07-06 13:18:36.234375000,4.0,46.0,44.0,67.1765625,36.38,6.765727812500001,33.330625
2021-07-06 13:18:36.242187500,4.0,46.0,44.0,67.17578125,37.445,6.76520740625,33.3303125
2021-07-06 13:18:36.250000000,4.0,46.0,44.0,67.175,38.51,6.764687,33.33
2021-07-06 13:18:36.257812500,4.0,46.0,44.0,67.17421875,39.485,6.764687,33.33
2021-07-06 13:18:36.265625000,4.0,46.0,44.0,67.1734375,40.46,6.764687,33.33
2021-07-06 13:18:36.273437500,4.0,46.0,44.0,67.17265625,41.32,6.764687,33.33
2021-07-06 13:18:36.281250000,4.0,46.0,44.0,67.171875,42.18,6.764687,33.33
2021-07-06 13:18:36.289062500,4.0,46.0,44.0,67.17109375,42.879999999999995,6.764687,33.33
2021-07-06 13:18:36.296875000,4.0,46.0,44.0,67.1703125,43.58,6.764687,33.33
2021-07-06 13:18:36.304687500,4.0,46.0,44.0,67.16953125,44.135,6.764687,33.33
2021-07-06 13:18:36.312500000,4.0,46.0,44.0,67.16875,44.69,6.764687,33.33
2021-07-06 13:18:36.320312500,4.0,46.0,44.0,67.16796875,45.125,6.764687,33.33
2021-07-06 13:18:36.328125000,4.0,46.0,44.0,67.1671875,45.56,6.764687,33.33
2021-07-06 13:18:36.335937500,4.0,46.0,44.0,67.16640625,45.915000000000006,6.764687,33.33
2021-07-06 13:18:36.343750000,4.0,46.0,44.0,67.165625,46.27,6.764687,33.33
2021-07-06 13:18:36.351562500,4.0,46.0,44.0,67.16484375,46.535,6.764687,33.33
2021-07-06 13:18:36.359375000,4.0,46.0,44.0,67.1640625,46.8,6.764687,33.33
2021-07-06 13:18:36.367187500,4.0,46.0,44.0,67.16328125,46.915,6.764687,33.33
2021-07-06 13:18:36.375000000,4.0,46.0,44.0,67.1625,47.03,6.764687,33.33
2021-07-06 13:18:36.382812500,4.0,46.0,44.0,67.16171875,46.905,6.764687,33.33
2021-07-06 13:18:36.390625000,4.0,46.0,44.0,67.1609375,46.78,6.764687,33.33
2021-07-06 13:18:36.398437500,4.0,46.0,44.0,67.16015625,46.33,6.764687,33.33
2021-07-06 13:18:36.406250000,4.0,46.0,44.0,67.159375,45.88,6.764687,33.33
2021-07-06 13:18:36.414062500,4.0,46.0,44.0,67.15859375,45.08,6.764687,33.33
2021-07-06 13:18:36.421875000,4.0,46.0,44.0,67.1578125,44.28,6.764687,33.33
2021-07-06 13:18:36.429687500,4.0,46.0,44.0,67.15703125,43.215,6.764687,33.33
2021-07-06 13:18:36.437500000,4.0,46.0,44.0,67.15625,42.15,6.764687,33.33
2021-07-06 13:18:36.445312500,4.0,46.0,44.0,67.15546875,41.0,6.764687,33.33
2021-07-06 13:18:36.453125000,4.0,46.0,44.0,67.1546875,39.85,6.764687,33.33
2021-07-06 13:18:36.460937500,4.0,46.0,44.0,67.15390625,38.785,6.764687,33.33
2021-07-06 13:18:36.468750000,4.0,46.0,44.0,67.153125,37.72,6.764687,33.33
2021-07-06 13:18:36.476562500,4.0,46.0,44.0,67.15234375,36.855000000000004,6.764687,33.33
2021-07-06 13:18:36.484375000,4.0,46.0,44.0,67.1515625,35.99,6.764687,33.33
2021-07-06 13:18:36.492187500,4.0,46.0,44.0,67.15078125,35.305,6.764687,33.33
2021-07-06 13:18:36.500000000,4.0,46.0,44.0,67.15,34.62,6.764687,33.33
2021-07-06 13:18:36.507812500,4.0,46.0,44.0,67.14921875,33.985,6.76464696875,33.33
2021-07-06 13:18:36.515625000,4.0,46.0,44.0,67.1484375,33.35,6.7646069375,33.33
2021-07-06 13:18:36.523437500,4.0,46.0,44.0,67.14765625,32.59,6.764566906250001,33.33
2021-07-06 13:18:36.531250000,4.0,46.0,44.0,67.146875,31.83,6.7645268750000005,33.33
2021-07-06 13:18:36.539062500,4.0,46.0,44.0,67.14609374999999,30.81,6.76448684375,33.33
2021-07-06 13:18:36.546875000,4.0,46.0,44.0,67.1453125,29.79,6.7644468125,33.33
2021-07-06 13:18:36.554687500,4.0,46.0,44.0,67.14453125,28.475,6.76440678125,33.33
2021-07-06 13:18:36.562500000,4.0,46.0,44.0,67.14375,27.16,6.764366750000001,33.33
2021-07-06 13:18:36.570312500,4.0,46.0,44.0,67.14296875,25.619999999999997,6.7643267187500005,33.33
2021-07-06 13:18:36.578125000,4.0,46.0,44.0,67.14218749999999,24.08,6.7642866875,33.33
2021-07-06 13:18:36.585937500,4.0,46.0,44.0,67.14140625,22.43,6.76424665625,33.33
2021-07-06 13:18:36.593750000,4.0,46.0,44.0,67.140625,20.78,6.764206625,33.33
2021-07-06 13:18:36.601562500,4.0,46.0,44.0,67.13984375,19.145000000000003,6.76416659375,33.33
2021-07-06 13:18:36.609375000,4.0,46.0,44.0,67.1390625,17.51,6.7641265625,33.33
2021-07-06 13:18:36.617187500,4.0,46.0,44.0,67.13828124999999,15.955000000000002,6.76408653125,33.33
2021-07-06 13:18:36.625000000,4.0,46.0,44.0,67.1375,14.4,6.7640465,33.33
2021-07-06 13:18:36.632812500,4.0,46.0,44.0,67.13671875,12.955,6.76400646875,33.33
2021-07-06 13:18:36.640625000,4.0,46.0,44.0,67.1359375,11.51,6.7639664375,33.33
2021-07-06 13:18:36.648437500,4.0,46.0,44.0,67.13515625,10.129999999999999,6.76392640625,33.33
2021-07-06 13:18:36.656250000,4.0,46.0,44.0,67.13437499999999,8.75,6.763886375,33.33
2021-07-06 13:18:36.664062500,4.0,46.0,44.0,67.13359375,7.390000000000001,6.76384634375,33.33
2021-07-06 13:18:36.671875000,4.0,46.0,44.0,67.1328125,6.03,6.7638063125,33.33
2021-07-06 13:18:36.679687500,4.0,46.0,44.0,67.13203125,4.595000000000001,6.76376628125,33.33
2021-07-06 13:18:36.687500000,4.0,46.0,44.0,67.13125,3.16,6.7637262499999995,33.33
2021-07-06 13:18:36.695312500,4.0,46.0,44.0,67.13046874999999,1.5750000000000002,6.76368621875,33.33
2021-07-06 13:18:36.703125000,4.0,46.0,44.0,67.1296875,-0.01,6.7636461875,33.33
2021-07-06 13:18:36.710937500,4.0,46.0,44.0,67.12890625,-1.8050000000000002,6.76360615625,33.33
2021-07-06 13:18:36.718750000,4.0,46.0,44.0,67.128125,-3.6,6.763566125,33.33
2021-07-06 13:18:36.726562500,4.0,46.0,44.0,67.12734375,-5.625,6.7635260937499995,33.33
2021-07-06 13:18:36.734375000,4.0,46.0,44.0,67.12656249999999,-7.65,6.7634860625,33.33
2021-07-06 13:18:36.742187500,4.0,46.0,44.0,67.12578125,-9.855,6.76344603125,33.33
2021-07-06 13:18:36.750000000,4.0,46.0,44.0,67.125,-12.06,6.763406,33.33
2021-07-06 13:18:36.757812500,4.0,46.0,44.0,67.12421875,-14.330000000000002,6.76336596875,33.33
2021-07-06 13:18:36.765625000,4.0,46.0,44.0,67.1234375,-16.6,6.763325937499999,33.33
2021-07-06 13:18:36.773437500,4.0,46.0,44.0,67.12265624999999,-18.82,6.76328590625,33.33
2021-07-06 13:18:36.781250000,4.0,46.0,44.0,67.121875,-21.04,6.763245875,33.33
2021-07-06 13:18:36.789062500,4.0,46.0,44.0,67.12109375,-23.095,6.76320584375,33.33
2021-07-06 13:18:36.796875000,4.0,46.0,44.0,67.1203125,-25.15,6.7631658125,33.33
2021-07-06 13:18:36.804687500,4.0,46.0,44.0,67.11953125,-27.049999999999997,6.76312578125,33.33
2021-07-06 13:18:36.812500000,4.0,46.0,44.0,67.11874999999999,-28.95,6.76308575,33.33
2021-07-06 13:18:36.820312500,4.0,46.0,44.0,67.11796875,-30.805,6.76304571875,33.33
2021-07-06 13:18:36.828125000,4.0,46.0,44.0,67.1171875,-32.66,6.7630056875,33.33
2021-07-06 13:18:36.835937500,4.0,46.0,44.0,67.11640625,-34.705,6.76296565625,33.33
2021-07-06 13:18:36.843750000,4.0,46.0,44.0,67.115625,-36.75,6.762925625,33.33
2021-07-06 13:18:36.851562500,4.0,46.0,44.0,67.11484374999999,-39.22,6.76288559375,33.33
2021-07-06 13:18:36.859375000,4.0,46.0,44.0,67.11406249999999,-41.69,6.7628455625,33.33
2021-07-06 13:18:36.867187500,4.0,46.0,44.0,67.11328125,-44.739999999999995,6.76280553125,33.33
2021-07-06 13:18:36.875000000,4.0,46.0,44.0,67.1125,-47.79,6.7627655,33.33
2021-07-06 13:18:36.882812500,4.0,46.0,44.0,67.11171875,-51.405,6.76272546875,33.33
2021-07-06 13:18:36.890625000,4.0,46.0,44.0,67.11093749999999,-55.02,6.7626854375,33.33
2021-07-06 13:18:36.898437500,4.0,46.0,44.0,67.11015624999999,-58.945,6.76264540625,33.33
2021-07-06 13:18:36.906250000,4.0,46.0,44.0,67.109375,-62.87,6.762605375,33.33
2021-07-06 13:18:36.914062500,4.0,46.0,44.0,67.10859375,-66.66,6.76256534375,33.33
2021-07-06 13:18:36.921875000,4.0,46.0,44.0,67.1078125,-70.45,6.7625253125,33.33
2021-07-06 13:18:36.929687500,4.0,46.0,44.0,67.10703124999999,-73.52000000000001,6.76248528125,33.33
2021-07-06 13:18:36.937500000,4.0,46.0,44.0,67.10624999999999,-76.59,6.76244525,33.33
2021-07-06 13:18:36.945312500,4.0,46.0,44.0,67.10546875,-78.38,6.76240521875,33.33
2021-07-06 13:18:36.953125000,4.0,46.0,44.0,67.1046875,-80.17,6.7623651875,33.33
2021-07-06 13:18:36.960937500,4.0,46.0,44.0,67.10390625,-80.25999999999999,6.76232515625,33.33
2021-07-06 13:18:36.968750000,4.0,46.0,44.0,67.10312499999999,-80.35,6.762285125,33.33
2021-07-06 13:18:36.976562500,4.0,46.0,44.0,67.10234374999999,-78.535,6.76224509375,33.33
2021-07-06 13:18:36.984375000,4.0,46.0,44.0,67.1015625,-76.72,6.7622050625000005,33.33
2021-07-06 13:18:36.992187500,4.0,46.0,44.0,67.10078125,-73.125,6.76216503125,33.33
2021-07-06 13:18:37.000000000,4.0,46.0,44.0,67.1,-69.53,6.762125,33.33
2021-07-06 13:18:37.007812500,4.0,46.0,44.0,67.09921874999999,-64.525,6.7620049062500005,33.33
2021-07-06 13:18:37.015625000,4.0,46.0,44.0,67.09843749999999,-59.52,6.7618848125,33.33
2021-07-06 13:18:37.023437500,4.0,46.0,44.0,67.09765625,-53.685,6.76176471875,33.33
2021-07-06 13:18:37.031250000,4.0,46.0,44.0,67.096875,-47.85,6.761644625000001,33.33
2021-07-06 13:18:37.039062500,4.0,46.0,44.0,67.09609375,-41.78,6.76152453125,33.33
2021-07-06 13:18:37.046875000,4.0,46.0,44.0,67.09531249999999,-35.71,6.7614044375,33.33
2021-07-06 13:18:37.054687500,4.0,46.0,44.0,67.09453124999999,-29.89,6.76128434375,33.33
2021-07-06 13:18:37.062500000,4.0,46.0,44.0,67.09375,-24.07,6.76116425,33.33
2021-07-06 13:18:37.070312500,4.0,46.0,44.0,67.09296875,-18.805,6.7610441562500005,33.33
2021-07-06 13:18:37.078125000,4.0,46.0,44.0,67.0921875,-13.54,6.7609240625,33.33
2021-07-06 13:18:37.085937500,4.0,46.0,44.0,67.09140624999999,-8.915,6.76080396875,33.33
2021-07-06 13:18:37.093750000,4.0,46.0,44.0,67.09062499999999,-4.29,6.760683875,33.33
2021-07-06 13:18:37.101562500,4.0,46.0,44.0,67.08984375,-0.25,6.76056378125,33.33
2021-07-06 13:18:37.109375000,4.0,46.0,44.0,67.0890625,3.79,6.7604436875000005,33.33
2021-07-06 13:18:37.117187500,4.0,46.0,44.0,67.08828125,7.335000000000001,6.76032359375,33.33
2021-07-06 13:18:37.125000000,4.0,46.0,44.0,67.08749999999999,10.88,6.7602035,33.33
2021-07-06 13:18:37.132812500,4.0,46.0,44.0,67.08671874999999,13.995000000000001,6.760083406250001,33.33
2021-07-06 13:18:37.140625000,4.0,46.0,44.0,67.0859375,17.11,6.7599633125,33.33
2021-07-06 13:18:37.148437500,4.0,46.0,44.0,67.08515625,19.805,6.75984321875,33.33
2021-07-06 13:18:37.156250000,4.0,46.0,44.0,67.084375,22.5,6.759723125000001,33.33
2021-07-06 13:18:37.164062500,4.0,46.0,44.0,67.08359374999999,24.755000000000003,6.75960303125,33.33
2021-07-06 13:18:37.171875000,4.0,46.0,44.0,67.08281249999999,27.01,6.7594829375000005,33.33
2021-07-06 13:18:37.179687500,4.0,46.0,44.0,67.08203125,28.83,6.75936284375,33.33
2021-07-06 13:18:37.187500000,4.0,46.0,44.0,67.08125,30.65,6.75924275,33.33
2021-07-06 13:18:37.195312500,4.0,46.0,44.0,67.08046875,32.075,6.759122656250001,33.33
2021-07-06 13:18:37.203125000,4.0,46.0,44.0,67.07968749999999,33.5,6.7590025625,33.33
2021-07-06 13:18:37.210937500,4.0,46.0,44.0,67.07890624999999,34.625,6.75888246875,33.33
2021-07-06 13:18:37.218750000,4.0,46.0,44.0,67.078125,35.75,6.758762375,33.33
2021-07-06 13:18:37.226562500,4.0,46.0,44.0,67.07734375,36.685,6.75864228125,33.33
2021-07-06 13:18:37.234375000,4.0,46.0,44.0,67.0765625,37.62,6.7585221875000006,33.33
2021-07-06 13:18:37.242187500,4.0,46.0,44.0,67.07578124999999,38.459999999999994,6.75840209375,33.33
2021-07-06 13:18:37.250000000,4.0,46.0,44.0,67.07499999999999,39.3,6.758282,33.33
2021-07-06 13:18:37.257812500,4.0,46.0,44.0,67.07421875,40.084999999999994,6.7580818125,33.33
2021-07-06 13:18:37.265625000,4.0,46.0,44.0,67.0734375,40.87,6.7578816250000004,33.33
2021-07-06 13:18:37.273437500,4.0,46.0,44.0,67.07265625,41.565,6.7576814375000005,33.33
2021-07-06 13:18:37.281250000,4.0,46.0,44.0,67.07187499999999,42.26,6.7574812500000005,33.33
2021-07-06 13:18:37.289062500,4.0,46.0,44.0,67.07109375,42.825,6.757281062500001,33.33
2021-07-06 13:18:37.296875000,4.0,46.0,44.0,67.0703125,43.39,6.757080875000001,33.33
2021-07-06 13:18:37.304687500,4.0,46.0,44.0,67.06953125,43.8,6.756880687500001,33.33
2021-07-06 13:18:37.312500000,4.0,46.0,44.0,67.06875,44.21,6.7566805,33.33
2021-07-06 13:18:37.320312500,4.0,46.0,44.0,67.06796874999999,44.495000000000005,6.7564803125,33.33
2021-07-06 13:18:37.328125000,4.0,46.0,44.0,67.0671875,44.78,6.756280125,33.33
2021-07-06 13:18:37.335937500,4.0,46.0,44.0,67.06640625,45.03,6.7560799375,33.33
2021-07-06 13:18:37.343750000,4.0,46.0,44.0,67.065625,45.28,6.75587975,33.33
2021-07-06 13:18:37.351562500,4.0,46.0,44.0,67.06484375,45.585,6.7556795625,33.33
2021-07-06 13:18:37.359375000,4.0,46.0,44.0,67.06406249999999,45.89,6.755479375,33.33
2021-07-06 13:18:37.367187500,4.0,46.0,44.0,67.06328125,46.31,6.7552791875,33.33
2021-07-06 13:18:37.375000000,4.0,46.0,44.0,67.0625,46.73,6.755079,33.33
2021-07-06 13:18:37.382812500,4.0,46.0,44.0,67.06171875,47.209999999999994,6.7548788125,33.33
2021-07-06 13:18:37.390625000,4.0,46.0,44.0,67.0609375,47.69,6.754678625,33.33
2021-07-06 13:18:37.398437500,4.0,46.0,44.0,67.06015624999999,48.065,6.7544784375,33.33
2021-07-06 13:18:37.406250000,4.0,46.0,44.0,67.059375,48.44,6.7542782500000005,33.33
2021-07-06 13:18:37.414062500,4.0,46.0,44.0,67.05859375,48.519999999999996,6.7540780625000005,33.33
2021-07-06 13:18:37.421875000,4.0,46.0,44.0,67.0578125,48.6,6.753877875000001,33.33
2021-07-06 13:18:37.429687500,4.0,46.0,44.0,67.05703125,48.254999999999995,6.753677687500001,33.33
2021-07-06 13:18:37.437500000,4.0,46.0,44.0,67.05624999999999,47.91,6.753477500000001,33.33
2021-07-06 13:18:37.445312500,4.0,46.0,44.0,67.05546875,47.125,6.7532773125,33.33
2021-07-06 13:18:37.453125000,4.0,46.0,44.0,67.0546875,46.34,6.753077125,33.33
2021-07-06 13:18:37.460937500,4.0,46.0,44.0,67.05390625,45.24,6.7528769375,33.33
2021-07-06 13:18:37.468750000,4.0,46.0,44.0,67.053125,44.14,6.75267675,33.33
2021-07-06 13:18:37.476562500,4.0,46.0,44.0,67.05234374999999,42.905,6.7524765625,33.33
2021-07-06 13:18:37.484375000,4.0,46.0,44.0,67.0515625,41.67,6.752276375,33.33
2021-07-06 13:18:37.492187500,4.0,46.0,44.0,67.05078125,40.465,6.7520761875,33.33
2021-07-06 13:18:37.500000000,4.0,46.0,44.0,67.05,39.26,6.751876,33.33
2021-07-06 13:18:37.507812500,4.0,46.0,44.0,67.04921875,38.155,6.7516358125,33.33
2021-07-06 13:18:37.515625000,4.0,46.0,44.0,67.04843749999999,37.05,6.751395625,33.33
2021-07-06 13:18:37.523437500,4.0,46.0,44.0,67.04765625,36.0,6.7511554375000005,33.33
2021-07-06 13:18:37.531250000,4.0,46.0,44.0,67.046875,34.95,6.75091525,33.33
2021-07-06 13:18:37.539062500,4.0,46.0,44.0,67.04609375,33.89,6.7506750625,33.33
2021-07-06 13:18:37.546875000,4.0,46.0,44.0,67.0453125,32.83,6.750434875,33.33
2021-07-06 13:18:37.554687500,4.0,46.0,44.0,67.04453124999999,31.695,6.7501946875000005,33.33
2021-07-06 13:18:37.562500000,4.0,46.0,44.0,67.04375,30.56,6.7499545,33.33
2021-07-06 13:18:37.570312500,4.0,46.0,44.0,67.04296875,29.314999999999998,6.7497143125,33.33
2021-07-06 13:18:37.578125000,4.0,46.0,44.0,67.0421875,28.07,6.749474125,33.33
2021-07-06 13:18:37.585937500,4.0,46.0,44.0,67.04140625,26.725,6.7492339375,33.33
2021-07-06 13:18:37.593750000,4.0,46.0,44.0,67.04062499999999,25.38,6.74899375,33.33
2021-07-06 13:18:37.601562500,4.0,46.0,44.0,67.03984375,23.96,6.7487535625,33.33
2021-07-06 13:18:37.609375000,4.0,46.0,44.0,67.0390625,22.54,6.748513375,33.33
2021-07-06 13:18:37.617187500,4.0,46.0,44.0,67.03828125,21.06,6.7482731875,33.33
2021-07-06 13:18:37.625000000,4.0,46.0,44.0,67.0375,19.58,6.7480329999999995,33.33
2021-07-06 13:18:37.632812500,4.0,46.0,44.0,67.03671874999999,18.045,6.7477928125,33.33
2021-07-06 13:18:37.640625000,4.0,46.0,44.0,67.0359375,16.51,6.747552625,33.33
2021-07-06 13:18:37.648437500,4.0,46.0,44.0,67.03515625,14.945,6.7473124375,33.33
2021-07-06 13:18:37.656250000,4.0,46.0,44.0,67.034375,13.38,6.7470722499999995,33.33
2021-07-06 13:18:37.664062500,4.0,46.0,44.0,67.03359375,11.8,6.7468320625,33.33
2021-07-06 13:18:37.671875000,4.0,46.0,44.0,67.03281249999999,10.22,6.746591875,33.33
2021-07-06 13:18:37.679687500,4.0,46.0,44.0,67.03203125,8.625,6.7463516875,33.33
2021-07-06 13:18:37.687500000,4.0,46.0,44.0,67.03125,7.03,6.7461115,33.33
2021-07-06 13:18:37.695312500,4.0,46.0,44.0,67.03046875,5.405,6.745871312499999,33.33
2021-07-06 13:18:37.703125000,4.0,46.0,44.0,67.0296875,3.78,6.745631125,33.33
2021-07-06 13:18:37.710937500,4.0,46.0,44.0,67.02890624999999,2.075,6.7453909375,33.33
2021-07-06 13:18:37.718750000,4.0,46.0,44.0,67.028125,0.37,6.74515075,33.33
2021-07-06 13:18:37.726562500,4.0,46.0,44.0,67.02734375,-1.44,6.744910562499999,33.33
2021-07-06 13:18:37.734375000,4.0,46.0,44.0,67.0265625,-3.25,6.744670375,33.33
2021-07-06 13:18:37.742187500,4.0,46.0,44.0,67.02578125,-5.175,6.7444301875,33.33
2021-07-06 13:18:37.750000000,4.0,46.0,44.0,67.025,-7.1,6.74419,33.33
2021-07-06 13:18:37.757812500,4.0,46.0,44.0,67.02421875,-9.085,6.744109937499999,33.33
2021-07-06 13:18:37.765625000,4.0,46.0,44.0,67.0234375,-11.07,6.744029875,33.33
2021-07-06 13:18:37.773437500,4.0,46.0,44.0,67.02265625,-13.04,6.7439498124999995,33.33
2021-07-06 13:18:37.781250000,4.0,46.0,44.0,67.021875,-15.01,6.74386975,33.33
2021-07-06 13:18:37.789062500,4.0,46.0,44.0,67.02109375,-16.935,6.7437896875,33.33
2021-07-06 13:18:37.796875000,4.0,46.0,44.0,67.0203125,-18.86,6.743709625,33.33
2021-07-06 13:18:37.804687500,4.0,46.0,44.0,67.01953125,-20.735,6.7436295625,33.33
2021-07-06 13:18:37.812500000,4.0,46.0,44.0,67.01875,-22.61,6.7435495,33.33
2021-07-06 13:18:37.820312500,4.25,46.0,44.0,67.01796875,-24.5,6.7434694375,33.33
2021-07-06 13:18:37.828125000,4.5,46.0,44.0,67.0171875,-26.39,6.743389375,33.33
2021-07-06 13:18:37.835937500,4.75,46.0,44.0,67.01640625,-28.384999999999998,6.7433093125,33.33
2021-07-06 13:18:37.843750000,5.0,46.0,44.0,67.015625,-30.38,6.74322925,33.33
2021-07-06 13:18:37.851562500,4.75,46.0,44.0,67.01484375,-32.585,6.7431491875,33.33
2021-07-06 13:18:37.859375000,4.5,46.0,44.0,67.0140625,-34.79,6.743069125,33.33
2021-07-06 13:18:37.867187500,4.25,46.0,44.0,67.01328125,-37.28,6.7429890625,33.33
2021-07-06 13:18:37.875000000,4.0,46.0,44.0,67.0125,-39.77,6.742909,33.33
2021-07-06 13:18:37.882812500,4.0,46.0,44.0,67.01171875,-42.61,6.7428289375,33.33
2021-07-06 13:18:37.890625000,4.0,46.0,44.0,67.0109375,-45.45,6.742748875,33.33
2021-07-06 13:18:37.898437500,4.0,46.0,44.0,67.01015625,-48.655,6.7426688125,33.33
2021-07-06 13:18:37.906250000,4.0,46.0,44.0,67.009375,-51.86,6.74258875,33.33
2021-07-06 13:18:37.914062500,4.25,46.0,44.0,67.00859375,-55.355000000000004,6.7425086875,33.33
2021-07-06 13:18:37.921875000,4.5,46.0,44.0,67.0078125,-58.85,6.7424286250000005,33.33
2021-07-06 13:18:37.929687500,4.75,46.0,44.0,67.00703125,-62.405,6.7423485625,33.33
2021-07-06 13:18:37.937500000,5.0,46.0,44.0,67.00625,-65.96,6.7422685,33.33
2021-07-06 13:18:37.945312500,4.75,46.0,44.0,67.00546875,-69.155,6.7421884375,33.33
2021-07-06 13:18:37.953125000,4.5,46.0,44.0,67.0046875,-72.35,6.742108375,33.33
2021-07-06 13:18:37.960937500,4.25,46.0,44.0,67.00390625,-74.615,6.7420283125000005,33.33
2021-07-06 13:18:37.968750000,4.0,46.0,44.0,67.003125,-76.88,6.74194825,33.33
2021-07-06 13:18:37.976562500,4.0,46.0,44.0,67.00234375,-77.66,6.741868187500001,33.33
2021-07-06 13:18:37.984375000,4.0,46.0,44.0,67.0015625,-78.44,6.741788125,33.33
2021-07-06 13:18:37.992187500,4.0,46.0,44.0,67.00078125,-77.36500000000001,6.741708062500001,33.33
2021-07-06 13:18:38.000000000,4.0,46.0,44.0,67.0,-76.29,6.741628,33.33
2021-07-06 13:18:38.007812500,4.0,46.0,44.0,66.99921875,-73.31,6.7418281875,33.33
2021-07-06 13:18:38.015625000,4.0,46.0,44.0,66.9984375,-70.33,6.742028375,33.33
2021-07-06 13:18:38.023437500,4.0,46.0,44.0,66.99765625,-65.775,6.7422285625,33.33
2021-07-06 13:18:38.031250000,4.0,46.0,44.0,66.996875,-61.22,6.74242875,33.33
2021-07-06 13:18:38.039062500,4.0,46.0,44.0,66.99609375,-55.68,6.7426289375,33.33
2021-07-06 13:18:38.046875000,4.0,46.0,44.0,66.9953125,-50.14,6.742829125,33.33
2021-07-06 13:18:38.054687500,4.0,46.0,44.0,66.99453125,-44.265,6.7430293125,33.33
2021-07-06 13:18:38.062500000,4.0,46.0,44.0,66.99375,-38.39,6.7432295,33.33
2021-07-06 13:18:38.070312500,4.0,46.0,44.0,66.99296875,-32.735,6.7434296875,33.33
2021-07-06 13:18:38.078125000,4.0,46.0,44.0,66.9921875,-27.08,6.743629875,33.33
2021-07-06 13:18:38.085937500,4.0,46.0,44.0,66.99140625,-21.95,6.7438300625,33.33
2021-07-06 13:18:38.093750000,4.0,46.0,44.0,66.990625,-16.82,6.74403025,33.33
2021-07-06 13:18:38.101562500,4.0,46.0,44.0,66.98984375,-12.3,6.7442304375,33.33
2021-07-06 13:18:38.109375000,4.0,46.0,44.0,66.9890625,-7.78,6.744430625,33.33
2021-07-06 13:18:38.117187500,4.0,46.0,44.0,66.98828125,-3.83,6.7446308125,33.33
2021-07-06 13:18:38.125000000,4.0,46.0,44.0,66.9875,0.12,6.744831,33.33
2021-07-06 13:18:38.132812500,4.0,46.0,44.0,66.98671875,3.56,6.7450311875,33.33
2021-07-06 13:18:38.140625000,4.0,46.0,44.0,66.9859375,7.0,6.745231375,33.33
2021-07-06 13:18:38.148437500,4.0,46.0,44.0,66.98515625,9.940000000000001,6.7454315625,33.33
2021-07-06 13:18:38.156250000,4.0,46.0,44.0,66.984375,12.88,6.74563175,33.33
2021-07-06 13:18:38.164062500,4.0,46.0,44.0,66.98359375,15.29,6.7458319375,33.33
2021-07-06 13:18:38.171875000,4.0,46.0,44.0,66.9828125,17.7,6.746032125,33.33
2021-07-06 13:18:38.179687500,4.0,46.0,44.0,66.98203125,19.57,6.7462323125,33.33
2021-07-06 13:18:38.187500000,4.0,46.0,44.0,66.98125,21.44,6.7464325,33.33
2021-07-06 13:18:38.195312500,4.0,46.0,44.0,66.98046875,22.82,6.7466326875,33.33
2021-07-06 13:18:38.203125000,4.0,46.0,44.0,66.9796875,24.2,6.746832875,33.33
2021-07-06 13:18:38.210937500,4.0,46.0,44.0,66.97890625,25.215,6.7470330625,33.33
2021-07-06 13:18:38.218750000,4.0,46.0,44.0,66.978125,26.23,6.74723325,33.33
2021-07-06 13:18:38.226562500,4.25,46.0,44.0,66.97734375,27.035,6.7474334375,33.33
2021-07-06 13:18:38.234375000,4.5,46.0,44.0,66.9765625,27.84,6.747633625,33.33
2021-07-06 13:18:38.242187500,4.75,46.0,44.0,66.97578125,28.560000000000002,6.7478338125,33.33
2021-07-06 13:18:38.250000000,5.0,46.0,44.0,66.975,29.28,6.748034,33.33
2021-07-06 13:18:38.257812500,4.75,46.0,44.0,66.97421875,29.975,6.74731340625,33.33
2021-07-06 13:18:38.265625000,4.5,46.0,44.0,66.9734375,30.67,6.746592812499999,33.33
2021-07-06 13:18:38.273437500,4.25,46.0,44.0,66.97265625,31.36,6.74587221875,33.33
2021-07-06 13:18:38.281250000,4.0,46.0,44.0,66.971875,32.05,6.745151625,33.33
2021-07-06 13:18:38.289062500,4.0,46.0,44.0,66.97109375000001,32.709999999999994,6.7444310312499995,33.33
2021-07-06 13:18:38.296875000,4.0,46.0,44.0,66.9703125,33.37,6.7437104375,33.33
2021-07-06 13:18:38.304687500,4.0,46.0,44.0,66.96953125,34.004999999999995,6.742989843749999,33.33
2021-07-06 13:18:38.312500000,4.0,46.0,44.0,66.96875,34.64,6.74226925,33.33
2021-07-06 13:18:38.320312500,4.0,46.0,44.0,66.96796875,35.265,6.74154865625,33.33
2021-07-06 13:18:38.328125000,4.0,46.0,44.0,66.96718750000001,35.89,6.740828062499999,33.33
2021-07-06 13:18:38.335937500,4.0,46.0,44.0,66.96640625,36.515,6.74010746875,33.33
2021-07-06 13:18:38.343750000,4.0,46.0,44.0,66.965625,37.14,6.739386874999999,33.33
2021-07-06 13:18:38.351562500,4.0,46.0,44.0,66.96484375,37.730000000000004,6.73866628125,33.33
2021-07-06 13:18:38.359375000,4.0,46.0,44.0,66.9640625,38.32,6.7379456875,33.33
2021-07-06 13:18:38.367187500,4.0,46.0,44.0,66.96328125000001,38.79,6.737225093749999,33.33
2021-07-06 13:18:38.375000000,4.0,46.0,44.0,66.9625,39.26,6.7365045,33.33
2021-07-06 13:18:38.382812500,4.0,46.0,44.0,66.96171875,39.51,6.73578390625,33.33
2021-07-06 13:18:38.390625000,4.0,46.0,44.0,66.9609375,39.76,6.7350633124999995,33.33
2021-07-06 13:18:38.398437500,4.0,46.0,44.0,66.96015625,39.709999999999994,6.73434271875,33.33
2021-07-06 13:18:38.406250000,4.0,46.0,44.0,66.95937500000001,39.66,6.733622125,33.33
2021-07-06 13:18:38.414062500,4.0,46.0,44.0,66.95859375,39.28,6.73290153125,33.33
2021-07-06 13:18:38.421875000,4.0,46.0,44.0,66.9578125,38.9,6.7321809375,33.33
2021-07-06 13:18:38.429687500,4.0,46.0,44.0,66.95703125,38.215,6.731460343749999,33.33
2021-07-06 13:18:38.437500000,4.0,46.0,44.0,66.95625,37.53,6.73073975,33.33
2021-07-06 13:18:38.445312500,4.0,46.0,44.0,66.95546875000001,36.625,6.73001915625,33.33
2021-07-06 13:18:38.453125000,4.0,46.0,44.0,66.9546875,35.72,6.7292985624999995,33.33
2021-07-06 13:18:38.460937500,4.0,46.0,44.0,66.95390625,34.705,6.72857796875,33.33
2021-07-06 13:18:38.468750000,4.0,46.0,44.0,66.953125,33.69,6.727857374999999,33.33
2021-07-06 13:18:38.476562500,4.0,46.0,44.0,66.95234375,32.69,6.72713678125,33.33
2021-07-06 13:18:38.484375000,4.0,46.0,44.0,66.95156250000001,31.69,6.7264161875,33.33
2021-07-06 13:18:38.492187500,4.0,46.0,44.0,66.95078125,30.810000000000002,6.725695593749999,33.33
2021-07-06 13:18:38.500000000,4.0,46.0,44.0,66.95,29.93,6.724975,33.33
2021-07-06 13:18:38.507812500,4.0,46.0,44.0,66.94921875,29.215,6.72517515625,33.33
2021-07-06 13:18:38.515625000,4.0,46.0,44.0,66.9484375,28.5,6.7253753125,33.33
2021-07-06 13:18:38.523437500,4.0,46.0,44.0,66.94765625000001,27.915,6.72557546875,33.33
2021-07-06 13:18:38.531250000,4.0,46.0,44.0,66.946875,27.33,6.725775625,33.33
2021-07-06 13:18:38.539062500,4.0,46.0,44.0,66.94609375,26.74,6.72597578125,33.33
2021-07-06 13:18:38.546875000,4.0,46.0,44.0,66.9453125,26.15,6.7261759375,33.33
2021-07-06 13:18:38.554687500,4.0,46.0,44.0,66.94453125,25.384999999999998,6.72637609375,33.33
2021-07-06 13:18:38.562500000,4.0,46.0,44.0,66.94375000000001,24.62,6.72657625,33.33
2021-07-06 13:18:38.570312500,4.25,46.0,44.0,66.94296875,23.54,6.72677640625,33.33
2021-07-06 13:18:38.578125000,4.5,46.0,44.0,66.9421875,22.46,6.7269765625,33.33
2021-07-06 13:18:38.585937500,4.75,46.0,44.0,66.94140625,21.03,6.72717671875,33.33
2021-07-06 13:18:38.593750000,5.0,46.0,44.0,66.940625,19.6,6.727376875,33.33
2021-07-06 13:18:38.601562500,4.75,46.0,44.0,66.93984375000001,17.91,6.72757703125,33.33
2021-07-06 13:18:38.609375000,4.5,46.0,44.0,66.9390625,16.22,6.7277771875,33.33
2021-07-06 13:18:38.617187500,4.25,46.0,44.0,66.93828125,14.434999999999999,6.72797734375,33.33
2021-07-06 13:18:38.625000000,4.0,46.0,44.0,66.9375,12.65,6.728177499999999,33.33
2021-07-06 13:18:38.632812500,4.0,46.0,44.0,66.93671875,10.91,6.728377656249999,33.33
2021-07-06 13:18:38.640625000,4.0,46.0,44.0,66.93593750000001,9.17,6.728577812499999,33.33
2021-07-06 13:18:38.648437500,4.0,46.0,44.0,66.93515625,7.515000000000001,6.728777968749999,33.33
2021-07-06 13:18:38.656250000,4.0,46.0,44.0,66.934375,5.86,6.728978124999999,33.33
2021-07-06 13:18:38.664062500,4.25,46.0,44.0,66.93359375,4.225,6.729178281249999,33.33
2021-07-06 13:18:38.671875000,4.5,46.0,44.0,66.9328125,2.59,6.729378437499999,33.33
2021-07-06 13:18:38.679687500,4.75,46.0,44.0,66.93203125000001,0.865,6.7295785937499994,33.33
2021-07-06 13:18:38.687500000,5.0,46.0,44.0,66.93125,-0.86,6.7297787499999995,33.33
2021-07-06 13:18:38.695312500,4.75,46.0,44.0,66.93046875,-2.765,6.7299789062499995,33.33
2021-07-06 13:18:38.703125000,4.5,46.0,44.0,66.9296875,-4.67,6.7301790624999995,33.33
2021-07-06 13:18:38.710937500,4.25,46.0,44.0,66.92890625,-6.755,6.73037921875,33.33
2021-07-06 13:18:38.718750000,4.0,46.0,44.0,66.92812500000001,-8.84,6.730579375,33.33
2021-07-06 13:18:38.726562500,4.25,46.0,44.0,66.92734375,-11.045,6.73077953125,33.33
2021-07-06 13:18:38.734375000,4.5,46.0,44.0,66.9265625,-13.25,6.7309796875,33.33
2021-07-06 13:18:38.742187500,4.75,46.0,44.0,66.92578125,-15.485,6.73117984375,33.33
2021-07-06 13:18:38.750000000,5.0,46.0,44.0,66.92500000000001,-17.72,6.73138,33.33
2021-07-06 13:18:38.757812500,4.75,46.0,44.0,66.92421875000001,-19.93,6.73085959375,33.33
2021-07-06 13:18:38.765625000,4.5,46.0,44.0,66.9234375,-22.14,6.730339187499999,33.33
2021-07-06 13:18:38.773437500,4.25,46.0,44.0,66.92265625,-24.325000000000003,6.72981878125,33.33
2021-07-06 13:18:38.781250000,4.0,46.0,44.0,66.921875,-26.51,6.729298375,33.33
2021-07-06 13:18:38.789062500,4.0,46.0,44.0,66.92109375000001,-28.700000000000003,6.728777968749999,33.33
2021-07-06 13:18:38.796875000,4.0,46.0,44.0,66.92031250000001,-30.89,6.7282575625,33.33
2021-07-06 13:18:38.804687500,4.0,46.0,44.0,66.91953125,-33.11,6.72773715625,33.33
2021-07-06 13:18:38.812500000,4.0,46.0,44.0,66.91875,-35.33,6.72721675,33.33
2021-07-06 13:18:38.820312500,4.0,46.0,44.0,66.91796875,-37.62,6.72669634375,33.33
2021-07-06 13:18:38.828125000,4.0,46.0,44.0,66.91718750000001,-39.91,6.7261759375,33.33
2021-07-06 13:18:38.835937500,4.0,46.0,44.0,66.91640625000001,-42.3,6.72565553125,33.33
2021-07-06 13:18:38.843750000,4.0,46.0,44.0,66.915625,-44.69,6.7251351249999995,33.33
2021-07-06 13:18:38.851562500,4.0,46.0,44.0,66.91484375,-47.285,6.72461471875,33.33
2021-07-06 13:18:38.859375000,4.0,46.0,44.0,66.9140625,-49.88,6.7240943125,33.33
2021-07-06 13:18:38.867187500,4.0,46.0,44.0,66.91328125000001,-52.765,6.7235739062499995,33.33
2021-07-06 13:18:38.875000000,4.0,46.0,44.0,66.91250000000001,-55.65,6.7230535,33.33
2021-07-06 13:18:38.882812500,4.0,46.0,44.0,66.91171875,-58.870000000000005,6.72253309375,33.33
2021-07-06 13:18:38.890625000,4.0,46.0,44.0,66.9109375,-62.09,6.7220126874999995,33.33
2021-07-06 13:18:38.898437500,4.0,46.0,44.0,66.91015625,-65.525,6.72149228125,33.33
2021-07-06 13:18:38.906250000,4.0,46.0,44.0,66.90937500000001,-68.96,6.720971875,33.33
2021-07-06 13:18:38.914062500,4.0,46.0,44.0,66.90859375000001,-72.22999999999999,6.720451468749999,33.33
2021-07-06 13:18:38.921875000,4.0,46.0,44.0,66.9078125,-75.5,6.7199310625,33.33
2021-07-06 13:18:38.929687500,4.0,46.0,44.0,66.90703125,-78.03999999999999,6.71941065625,33.33
2021-07-06 13:18:38.937500000,4.0,46.0,44.0,66.90625,-80.58,6.718890249999999,33.33
2021-07-06 13:18:38.945312500,4.0,46.0,44.0,66.90546875000001,-81.745,6.71836984375,33.33
2021-07-06 13:18:38.953125000,4.0,46.0,44.0,66.90468750000001,-82.91,6.7178494375,33.33
2021-07-06 13:18:38.960937500,4.0,46.0,44.0,66.90390625,-82.22,6.71732903125,33.33
2021-07-06 13:18:38.968750000,4.0,46.0,44.0,66.903125,-81.53,6.716808625,33.33
2021-07-06 13:18:38.976562500,4.0,46.0,44.0,66.90234375,-78.825,6.71628821875,33.33
2021-07-06 13:18:38.984375000,4.0,46.0,44.0,66.90156250000001,-76.12,6.7157678125,33.33
2021-07-06 13:18:38.992187500,4.0,46.0,44.0,66.90078125000001,-71.625,6.71524740625,33.33
2021-07-06 13:18:39.000000000,4.0,46.0,44.0,66.9,-67.13,6.714727,33.33
2021-07-06 13:18:39.007812500,4.0,46.0,44.0,66.899375,-61.4,6.7148070625,33.33
2021-07-06 13:18:39.015625000,4.0,46.0,44.0,66.89875,-55.67,6.714887125,33.33
2021-07-06 13:18:39.023437500,4.0,46.0,44.0,66.89812500000001,-49.38,6.7149671875,33.33
2021-07-06 13:18:39.031250000,4.0,46.0,44.0,66.89750000000001,-43.09,6.71504725,33.33
2021-07-06 13:18:39.039062500,4.0,46.0,44.0,66.89687500000001,-36.85,6.7151273125,33.33
2021-07-06 13:18:39.046875000,4.0,46.0,44.0,66.89625000000001,-30.61,6.715207375,33.33
2021-07-06 13:18:39.054687500,4.0,46.0,44.0,66.89562500000001,-24.825,6.7152874375,33.33
2021-07-06 13:18:39.062500000,4.0,46.0,44.0,66.89500000000001,-19.04,6.7153675,33.33
2021-07-06 13:18:39.070312500,4.0,46.0,44.0,66.89437500000001,-13.879999999999999,6.7154475625,33.33
2021-07-06 13:18:39.078125000,4.0,46.0,44.0,66.89375000000001,-8.72,6.715527625,33.33
2021-07-06 13:18:39.085937500,4.0,46.0,44.0,66.893125,-4.17,6.7156076875,33.33
2021-07-06 13:18:39.093750000,4.0,46.0,44.0,66.8925,0.38,6.71568775,33.33
2021-07-06 13:18:39.101562500,4.0,46.0,44.0,66.891875,4.414999999999999,6.7157678125,33.33
2021-07-06 13:18:39.109375000,4.0,46.0,44.0,66.89125,8.45,6.715847875,33.33
2021-07-06 13:18:39.117187500,4.0,46.0,44.0,66.890625,12.05,6.7159279375,33.33
2021-07-06 13:18:39.125000000,4.0,46.0,44.0,66.89,15.65,6.716008,33.33
2021-07-06 13:18:39.132812500,4.0,46.0,44.0,66.889375,18.835,6.7160880625,33.33
2021-07-06 13:18:39.140625000,4.0,46.0,44.0,66.88875,22.02,6.716168125,33.33
2021-07-06 13:18:39.148437500,4.0,46.0,44.0,66.888125,24.740000000000002,6.7162481875,33.33
2021-07-06 13:18:39.156250000,4.0,46.0,44.0,66.8875,27.46,6.71632825,33.33
2021-07-06 13:18:39.164062500,4.0,46.0,44.0,66.886875,29.64,6.7164083125,33.33
2021-07-06 13:18:39.171875000,4.0,46.0,44.0,66.88625,31.82,6.716488375,33.33
2021-07-06 13:18:39.179687500,4.0,46.0,44.0,66.885625,33.405,6.7165684375,33.33
2021-07-06 13:18:39.187500000,4.0,46.0,44.0,66.885,34.99,6.7166485,33.33
2021-07-06 13:18:39.195312500,4.25,46.0,44.25,66.884375,36.035,6.7167285625,33.33
2021-07-06 13:18:39.203125000,4.5,46.0,44.5,66.88375,37.08,6.716808625,33.33
2021-07-06 13:18:39.210937500,4.75,46.0,44.75,66.883125,37.724999999999994,6.7168886875,33.33
2021-07-06 13:18:39.218750000,5.0,46.0,45.0,66.88250000000001,38.37,6.71696875,33.33
2021-07-06 13:18:39.226562500,5.0,46.0,44.75,66.88187500000001,38.834999999999994,6.7170488125,33.33
2021-07-06 13:18:39.234375000,5.0,46.0,44.5,66.88125000000001,39.3,6.717128875,33.33
2021-07-06 13:18:39.242187500,5.0,46.0,44.25,66.88062500000001,39.795,6.7172089375,33.33
2021-07-06 13:18:39.250000000,5.0,46.0,44.0,66.88,40.29,6.717289,33.33
2021-07-06 13:18:39.257812500,5.0,46.0,44.0,66.879375,40.945,6.716848625,33.33
2021-07-06 13:18:39.265625000,5.0,46.0,44.0,66.87875,41.6,6.71640825,33.33
2021-07-06 13:18:39.273437500,5.0,46.0,44.0,66.878125,42.43,6.7159678750000005,33.33
2021-07-06 13:18:39.281250000,5.0,46.0,44.0,66.8775,43.26,6.7155275,33.33
2021-07-06 13:18:39.289062500,4.75,46.0,44.0,66.876875,44.17,6.715087125,33.33
2021-07-06 13:18:39.296875000,4.5,46.0,44.0,66.87625,45.08,6.71464675,33.33
2021-07-06 13:18:39.304687500,4.25,46.0,44.0,66.875625,45.93,6.714206375,33.33
2021-07-06 13:18:39.312500000,4.0,46.0,44.0,66.875,46.78,6.713766,33.33
2021-07-06 13:18:39.320312500,4.0,46.0,44.0,66.874375,47.455,6.713325625,33.33
2021-07-06 13:18:39.328125000,4.0,46.0,44.0,66.87375,48.13,6.71288525,33.33
2021-07-06 13:18:39.335937500,4.0,46.0,44.0,66.873125,48.58,6.712444875,33.33
2021-07-06 13:18:39.343750000,4.0,46.0,44.0,66.8725,49.03,6.7120045,33.33
2021-07-06 13:18:39.351562500,4.0,46.0,44.0,66.871875,49.260000000000005,6.711564125,33.33
2021-07-06 13:18:39.359375000,4.0,46.0,44.0,66.87125,49.49,6.7111237500000005,33.33
2021-07-06 13:18:39.367187500,4.0,46.0,44.0,66.870625,49.515,6.710683375,33.33
2021-07-06 13:18:39.375000000,4.0,46.0,44.0,66.87,49.54,6.710243,33.33
2021-07-06 13:18:39.382812500,4.0,46.0,44.0,66.869375,49.36,6.709802625,33.33
2021-07-06 13:18:39.390625000,4.0,46.0,44.0,66.86875,49.18,6.70936225,33.33
2021-07-06 13:18:39.398437500,4.0,46.0,44.0,66.868125,48.745000000000005,6.708921875000001,33.33
2021-07-06 13:18:39.406250000,4.0,46.0,44.0,66.8675,48.31,6.7084815,33.33
2021-07-06 13:18:39.414062500,4.0,45.75,44.0,66.86687500000001,47.575,6.708041125,33.33
2021-07-06 13:18:39.421875000,4.0,45.5,44.0,66.86625,46.84,6.70760075,33.33
2021-07-06 13:18:39.429687500,4.0,45.25,44.0,66.865625,45.8,6.707160375,33.33
2021-07-06 13:18:39.437500000,4.0,45.0,44.0,66.865,44.76,6.706720000000001,33.33
2021-07-06 13:18:39.445312500,4.0,45.25,44.0,66.864375,43.489999999999995,6.7062796250000005,33.33
2021-07-06 13:18:39.453125000,4.0,45.5,44.0,66.86375,42.22,6.70583925,33.33
2021-07-06 13:18:39.460937500,4.0,45.75,44.0,66.863125,40.83,6.705398875,33.33
2021-07-06 13:18:39.468750000,4.0,46.0,44.0,66.8625,39.44,6.7049585,33.33
2021-07-06 13:18:39.476562500,4.0,45.75,44.0,66.861875,38.075,6.704518125,33.33
2021-07-06 13:18:39.484375000,4.0,45.5,44.0,66.86125,36.71,6.704077750000001,33.33
2021-07-06 13:18:39.492187500,4.0,45.25,44.0,66.860625,35.45,6.7036373750000005,33.33
2021-07-06 13:18:39.500000000,4.0,45.0,44.0,66.86,34.19,6.703197,33.33
2021-07-06 13:18:39.507812500,4.25,45.0,44.0,66.859375,33.06,6.703157,33.33
2021-07-06 13:18:39.515625000,4.5,45.0,44.0,66.85875,31.93,6.703117000000001,33.33
2021-07-06 13:18:39.523437500,4.75,45.0,44.0,66.858125,30.875,6.703077,33.33
2021-07-06 13:18:39.531250000,5.0,45.0,44.0,66.8575,29.82,6.703037,33.33
2021-07-06 13:18:39.539062500,4.75,45.25,44.0,66.856875,28.77,6.702997,33.33
2021-07-06 13:18:39.546875000,4.5,45.5,44.0,66.85625,27.72,6.7029570000000005,33.33
2021-07-06 13:18:39.554687500,4.25,45.75,44.0,66.855625,26.61,6.702917,33.33
2021-07-06 13:18:39.562500000,4.0,46.0,44.0,66.855,25.5,6.702877,33.33
2021-07-06 13:18:39.570312500,4.0,46.0,44.0,66.854375,24.275,6.702837000000001,33.33
2021-07-06 13:18:39.578125000,4.0,46.0,44.0,66.85375,23.05,6.702797,33.33
2021-07-06 13:18:39.585937500,4.0,46.0,44.0,66.85312499999999,21.695,6.702757,33.33
2021-07-06 13:18:39.593750000,4.0,46.0,44.0,66.85249999999999,20.34,6.702717,33.33
2021-07-06 13:18:39.601562500,4.0,46.0,44.0,66.85187499999999,18.855,6.702677,33.33
2021-07-06 13:18:39.609375000,4.0,46.0,44.0,66.85125,17.37,6.702637,33.33
2021-07-06 13:18:39.617187500,4.0,46.0,44.0,66.850625,15.795000000000002,6.702597,33.33
2021-07-06 13:18:39.625000000,4.0,46.0,44.0,66.85,14.22,6.7025570000000005,33.33
2021-07-06 13:18:39.632812500,4.0,46.0,44.0,66.849375,12.629999999999999,6.702517,33.33
2021-07-06 13:18:39.640625000,4.0,46.0,44.0,66.84875,11.04,6.702477,33.33
2021-07-06 13:18:39.648437500,4.0,46.0,44.0,66.848125,9.524999999999999,6.702437,33.33
2021-07-06 13:18:39.656250000,4.0,46.0,44.0,66.8475,8.01,6.702397,33.33
2021-07-06 13:18:39.664062500,4.25,46.0,44.0,66.846875,6.625,6.702357,33.33
2021-07-06 13:18:39.671875000,4.5,46.0,44.0,66.84625,5.24,6.702317,33.33
2021-07-06 13:18:39.679687500,4.75,46.0,44.0,66.845625,3.9800000000000004,6.702277,33.33
2021-07-06 13:18:39.687500000,5.0,46.0,44.0,66.845,2.72,6.702237,33.33
2021-07-06 13:18:39.695312500,5.0,46.0,44.0,66.844375,1.5,6.702197,33.33
2021-07-06 13:18:39.703125000,5.0,46.0,44.0,66.84375,0.28,6.702157,33.33
2021-07-06 13:18:39.710937500,5.0,46.0,44.0,66.843125,-1.0450000000000002,6.702117,33.33
2021-07-06 13:18:39.718750000,5.0,46.0,44.0,66.8425,-2.37,6.702077,33.33
2021-07-06 13:18:39.726562500,5.0,46.0,44.0,66.841875,-3.985,6.702037,33.33
2021-07-06 13:18:39.734375000,5.0,46.0,44.0,66.84125,-5.6,6.7019969999999995,33.33
2021-07-06 13:18:39.742187500,5.0,46.0,44.0,66.840625,-7.615,6.701957,33.33
2021-07-06 13:18:39.750000000,5.0,46.0,44.0,66.84,-9.63,6.701917,33.33
2021-07-06 13:18:39.757812500,4.75,46.0,44.0,66.83937499999999,-12.06,6.701957,33.33
2021-07-06 13:18:39.765625000,4.5,46.0,44.0,66.83874999999999,-14.49,6.7019969999999995,33.33
2021-07-06 13:18:39.773437500,4.25,46.0,44.0,66.83812499999999,-17.22,6.702037,33.33
2021-07-06 13:18:39.781250000,4.0,46.0,44.0,66.83749999999999,-19.95,6.702077,33.33
2021-07-06 13:18:39.789062500,4.25,46.0,44.0,66.83687499999999,-22.78,6.702117,33.33
2021-07-06 13:18:39.796875000,4.5,46.0,44.0,66.83624999999999,-25.61,6.702157,33.33
2021-07-06 13:18:39.804687500,4.75,46.0,44.0,66.835625,-28.34,6.702197,33.33
2021-07-06 13:18:39.812500000,5.0,46.0,44.0,66.835,-31.07,6.702237,33.33
2021-07-06 13:18:39.820312500,5.0,46.0,44.0,66.834375,-33.575,6.702277,33.33
2021-07-06 13:18:39.828125000,5.0,46.0,44.0,66.83375,-36.08,6.702317,33.33
2021-07-06 13:18:39.835937500,5.0,46.0,44.0,66.833125,-38.36,6.702357,33.33
2021-07-06 13:18:39.843750000,5.0,46.0,44.0,66.8325,-40.64,6.702397,33.33
2021-07-06 13:18:39.851562500,4.75,46.0,44.0,66.831875,-42.81,6.702437,33.33
2021-07-06 13:18:39.859375000,4.5,46.0,44.0,66.83125,-44.98,6.702477,33.33
2021-07-06 13:18:39.867187500,4.25,46.0,44.0,66.830625,-47.245,6.702517,33.33
2021-07-06 13:18:39.875000000,4.0,46.0,44.0,66.83,-49.51,6.7025570000000005,33.33
2021-07-06 13:18:39.882812500,4.0,45.75,44.0,66.829375,-52.065,6.702597,33.33
2021-07-06 13:18:39.890625000,4.0,45.5,44.0,66.82875,-54.62,6.702637,33.33
2021-07-06 13:18:39.898437500,4.0,45.25,44.0,66.828125,-57.61,6.702677,33.33
2021-07-06 13:18:39.906250000,4.0,45.0,44.0,66.8275,-60.6,6.702717,33.33
2021-07-06 13:18:39.914062500,4.25,45.25,44.0,66.826875,-64.065,6.702757,33.33
2021-07-06 13:18:39.921875000,4.5,45.5,44.0,66.82624999999999,-67.53,6.702797,33.33
2021-07-06 13:18:39.929687500,4.75,45.75,44.0,66.82562499999999,-71.31,6.702837000000001,33.33
2021-07-06 13:18:39.937500000,5.0,46.0,44.0,66.82499999999999,-75.09,6.702877,33.33
2021-07-06 13:18:39.945312500,4.75,46.0,44.0,66.82437499999999,-78.83,6.702917,33.33
2021-07-06 13:18:39.953125000,4.5,46.0,44.0,66.82374999999999,-82.57,6.7029570000000005,33.33
2021-07-06 13:18:39.960937500,4.25,46.0,44.0,66.82312499999999,-85.735,6.702997,33.33
2021-07-06 13:18:39.968750000,4.0,46.0,44.0,66.82249999999999,-88.9,6.703037,33.33
2021-07-06 13:18:39.976562500,4.0,45.75,44.0,66.82187499999999,-90.875,6.703077,33.33
2021-07-06 13:18:39.984375000,4.0,45.5,44.0,66.82124999999999,-92.85,6.703117000000001,33.33
2021-07-06 13:18:39.992187500,4.0,45.25,44.0,66.82062499999999,-93.095,6.703157,33.33
2021-07-06 13:18:40.000000000,4.0,45.0,44.0,66.82,-93.34,6.703197,33.33
2021-07-06 13:18:40.007812500,4.0,45.25,44.0,66.81929687499999,-91.56,6.703157,33.3303125
2021-07-06 13:18:40.015625000,4.0,45.5,44.0,66.81859374999999,-89.78,6.703117000000001,33.330625
2021-07-06 13:18:40.023437500,4.0,45.75,44.0,66.81789062499999,-86.06,6.703077,33.3309375
2021-07-06 13:18:40.031250000,4.0,46.0,44.0,66.81718749999999,-82.34,6.703037,33.33125
2021-07-06 13:18:40.039062500,4.0,46.0,44.0,66.81648437499999,-77.08500000000001,6.702997,33.3315625
2021-07-06 13:18:40.046875000,4.0,46.0,44.0,66.81578125,-71.83,6.7029570000000005,33.331875
2021-07-06 13:18:40.054687500,4.0,46.0,44.0,66.815078125,-65.685,6.702917,33.332187499999996
2021-07-06 13:18:40.062500000,4.0,46.0,44.0,66.814375,-59.54,6.702877,33.332499999999996
2021-07-06 13:18:40.070312500,4.25,46.0,44.0,66.813671875,-53.155,6.702837000000001,33.3328125
2021-07-06 13:18:40.078125000,4.5,46.0,44.0,66.81296875,-46.77,6.702797,33.333125
2021-07-06 13:18:40.085937500,4.75,46.0,44.0,66.812265625,-40.63,6.702757,33.3334375
2021-07-06 13:18:40.093750000,5.0,46.0,44.0,66.8115625,-34.49,6.702717,33.33375
2021-07-06 13:18:40.101562500,5.0,46.0,44.0,66.81085937499999,-28.85,6.702677,33.3340625
2021-07-06 13:18:40.109375000,5.0,46.0,44.0,66.81015624999999,-23.21,6.702637,33.334375
2021-07-06 13:18:40.117187500,5.0,46.0,44.0,66.80945312499999,-18.14,6.702597,33.3346875
2021-07-06 13:18:40.125000000,5.0,46.0,44.0,66.80874999999999,-13.07,6.7025570000000005,33.335
2021-07-06 13:18:40.132812500,5.0,46.0,44.0,66.80804687499999,-8.5,6.702517,33.3353125
2021-07-06 13:18:40.140625000,5.0,46.0,44.0,66.80734375,-3.93,6.702477,33.335625
2021-07-06 13:18:40.148437500,5.0,46.0,44.0,66.806640625,0.22999999999999998,6.702437,33.3359375
2021-07-06 13:18:40.156250000,5.0,46.0,44.0,66.8059375,4.39,6.702397,33.33625
2021-07-06 13:18:40.164062500,5.0,45.75,44.0,66.805234375,8.215,6.702357,33.3365625
2021-07-06 13:18:40.171875000,5.0,45.5,44.0,66.80453125,12.04,6.702317,33.336875
2021-07-06 13:18:40.179687500,5.0,45.25,44.0,66.803828125,15.575,6.702277,33.3371875
2021-07-06 13:18:40.187500000,5.0,45.0,44.0,66.803125,19.11,6.702237,33.337500000000006
2021-07-06 13:18:40.195312500,5.0,45.25,44.0,66.802421875,22.355,6.702197,33.337812500000005
2021-07-06 13:18:40.203125000,5.0,45.5,44.0,66.80171874999999,25.6,6.702157,33.338125000000005
2021-07-06 13:18:40.210937500,5.0,45.75,44.0,66.80101562499999,28.545,6.702117,33.338437500000005
2021-07-06 13:18:40.218750000,5.0,46.0,44.0,66.80031249999999,31.49,6.702077,33.338750000000005
2021-07-06 13:18:40.226562500,5.0,46.0,44.0,66.79960937499999,34.08,6.702037,33.339062500000004
2021-07-06 13:18:40.234375000,5.0,46.0,44.0,66.79890625,36.67,6.7019969999999995,33.339375000000004
2021-07-06 13:18:40.242187500,5.0,46.0,44.0,66.798203125,38.845,6.701957,33.339687500000004
2021-07-06 13:18:40.250000000,5.0,46.0,44.0,66.7975,41.02,6.701917,33.34
2021-07-06 13:18:40.257812500,5.0,46.0,44.0,66.796796875,42.735,6.7018369374999995,33.34
2021-07-06 13:18:40.265625000,5.0,46.0,44.0,66.79609375,44.45,6.701756875,33.34
2021-07-06 13:18:40.273437500,5.0,46.0,44.0,66.795390625,45.695,6.7016768125,33.34
2021-07-06 13:18:40.281250000,5.0,46.0,44.0,66.7946875,46.94,6.70159675,33.34
2021-07-06 13:18:40.289062500,4.75,46.0,44.0,66.793984375,47.765,6.7015166875,33.34
2021-07-06 13:18:40.296875000,4.5,46.0,44.0,66.79328124999999,48.59,6.7014366249999995,33.34
2021-07-06 13:18:40.304687500,4.25,46.0,44.0,66.79257812499999,49.1,6.7013565625,33.34
2021-07-06 13:18:40.312500000,4.0,46.0,44.0,66.79187499999999,49.61,6.7012765,33.34
2021-07-06 13:18:40.320312500,4.25,46.0,44.0,66.791171875,49.905,6.7011964375,33.34
2021-07-06 13:18:40.328125000,4.5,46.0,44.0,66.79046875,50.2,6.701116375,33.34
2021-07-06 13:18:40.335937500,4.75,46.0,44.0,66.789765625,50.41,6.701036312499999,33.34
2021-07-06 13:18:40.343750000,5.0,46.0,44.0,66.7890625,50.62,6.70095625,33.34
2021-07-06 13:18:40.351562500,5.0,46.0,44.0,66.788359375,50.81,6.7008761875,33.34
2021-07-06 13:18:40.359375000,5.0,46.0,44.0,66.78765625,51.0,6.700796125,33.34
2021-07-06 13:18:40.367187500,5.0,46.0,44.0,66.786953125,51.2,6.7007160625,33.34
2021-07-06 13:18:40.375000000,5.0,46.0,44.0,66.78625,51.4,6.700635999999999,33.34
2021-07-06 13:18:40.382812500,5.0,46.0,44.0,66.785546875,51.585,6.7005559375,33.34
2021-07-06 13:18:40.390625000,5.0,46.0,44.0,66.78484375,51.77,6.7004758749999995,33.34
2021-07-06 13:18:40.398437500,5.0,46.0,44.0,66.78414062499999,51.900000000000006,6.7003958125,33.34
2021-07-06 13:18:40.406250000,5.0,46.0,44.0,66.78343749999999,52.03,6.70031575,33.34
2021-07-06 13:18:40.414062500,5.0,46.0,44.0,66.782734375,52.045,6.7002356875,33.34
2021-07-06 13:18:40.421875000,5.0,46.0,44.0,66.78203125,52.06,6.700155625,33.34
2021-07-06 13:18:40.429687500,5.0,46.0,44.0,66.781328125,51.91,6.7000755624999995,33.34
2021-07-06 13:18:40.437500000,5.0,46.0,44.0,66.780625,51.76,6.6999955,33.34
2021-07-06 13:18:40.445312500,4.75,46.0,44.0,66.779921875,51.42,6.6999154375,33.34
2021-07-06 13:18:40.453125000,4.5,46.0,44.0,66.77921875,51.08,6.699835375,33.34
2021-07-06 13:18:40.460937500,4.25,46.0,44.0,66.778515625,50.535,6.6997553125,33.34
2021-07-06 13:18:40.468750000,4.0,46.0,44.0,66.7778125,49.99,6.699675249999999,33.34
2021-07-06 13:18:40.476562500,4.0,46.0,44.0,66.777109375,49.265,6.6995951875,33.34
2021-07-06 13:18:40.484375000,4.0,46.0,44.0,66.77640625,48.54,6.699515125,33.34
2021-07-06 13:18:40.492187500,4.0,46.0,44.0,66.77570312499999,47.69,6.6994350625,33.34
2021-07-06 13:18:40.500000000,4.0,46.0,44.0,66.775,46.84,6.699355,33.34
2021-07-06 13:18:40.507812500,4.0,46.0,44.0,66.774296875,45.935,6.69879453125,33.34
2021-07-06 13:18:40.515625000,4.0,46.0,44.0,66.77359375,45.03,6.6982340625,33.34
2021-07-06 13:18:40.523437500,4.0,46.0,44.0,66.772890625,44.16,6.697673593749999,33.34
2021-07-06 13:18:40.531250000,4.0,46.0,44.0,66.7721875,43.29,6.697113125,33.34
2021-07-06 13:18:40.539062500,4.25,46.0,44.0,66.771484375,42.525,6.69655265625,33.34
2021-07-06 13:18:40.546875000,4.5,46.0,44.0,66.77078125,41.76,6.6959921875,33.34
2021-07-06 13:18:40.554687500,4.75,46.0,44.0,66.770078125,41.114999999999995,6.69543171875,33.34
2021-07-06 13:18:40.562500000,5.0,46.0,44.0,66.769375,40.47,6.69487125,33.34
2021-07-06 13:18:40.570312500,5.0,46.0,44.0,66.768671875,39.864999999999995,6.69431078125,33.34
2021-07-06 13:18:40.578125000,5.0,46.0,44.0,66.76796875,39.26,6.6937503125,33.34
2021-07-06 13:18:40.585937500,5.0,46.0,44.0,66.767265625,38.57,6.69318984375,33.34
2021-07-06 13:18:40.593750000,5.0,46.0,44.0,66.7665625,37.88,6.692629375,33.34
2021-07-06 13:18:40.601562500,5.0,46.0,44.0,66.765859375,36.945,6.69206890625,33.34
2021-07-06 13:18:40.609375000,5.0,46.0,44.0,66.76515625,36.01,6.6915084375,33.34
2021-07-06 13:18:40.617187500,5.0,46.0,44.0,66.764453125,34.745,6.69094796875,33.34
2021-07-06 13:18:40.625000000,5.0,46.0,44.0,66.76375,33.48,6.6903875,33.34
2021-07-06 13:18:40.632812500,4.75,46.0,44.0,66.763046875,31.919999999999998,6.68982703125,33.34
2021-07-06 13:18:40.640625000,4.5,46.0,44.0,66.76234375,30.36,6.6892665625,33.34
2021-07-06 13:18:40.648437500,4.25,46.0,44.0,66.761640625,28.65,6.68870609375,33.34
2021-07-06 13:18:40.656250000,4.0,46.0,44.0,66.7609375,26.94,6.688145625,33.34
2021-07-06 13:18:40.664062500,4.25,46.0,44.0,66.760234375,25.285,6.68758515625,33.34
2021-07-06 13:18:40.671875000,4.5,46.0,44.0,66.75953125,23.63,6.6870246875,33.34
2021-07-06 13:18:40.679687500,4.75,46.0,44.0,66.758828125,22.185,6.68646421875,33.34
2021-07-06 13:18:40.687500000,5.0,46.0,44.0,66.758125,20.74,6.68590375,33.34
2021-07-06 13:18:40.695312500,4.75,46.0,44.0,66.757421875,19.545,6.68534328125,33.34
2021-07-06 13:18:40.703125000,4.5,46.0,44.0,66.75671875,18.35,6.6847828125,33.34
2021-07-06 13:18:40.710937500,4.25,46.0,44.0,66.756015625,17.3,6.68422234375,33.34
2021-07-06 13:18:40.718750000,4.0,46.0,44.0,66.7553125,16.25,6.683661875,33.34
2021-07-06 13:18:40.726562500,4.0,46.0,44.25,66.754609375,15.184999999999999,6.6831014062500005,33.34
2021-07-06 13:18:40.734375000,4.0,46.0,44.5,66.75390625,14.12,6.6825409375,33.34
2021-07-06 13:18:40.742187500,4.0,46.0,44.75,66.753203125,12.895,6.68198046875,33.34
2021-07-06 13:18:40.750000000,4.0,46.0,45.0,66.7525,11.67,6.68142,33.34
2021-07-06 13:18:40.757812500,4.25,46.0,44.75,66.751796875,10.27,6.68162015625,33.34
2021-07-06 13:18:40.765625000,4.5,46.0,44.5,66.75109375,8.87,6.6818203125,33.34
2021-07-06 13:18:40.773437500,4.75,46.0,44.25,66.75039062500001,7.359999999999999,6.68202046875,33.34
2021-07-06 13:18:40.781250000,5.0,46.0,44.0,66.74968750000001,5.85,6.682220625,33.34
2021-07-06 13:18:40.789062500,4.75,46.0,44.0,66.748984375,4.359999999999999,6.68242078125,33.34
2021-07-06 13:18:40.796875000,4.5,46.0,44.0,66.74828125,2.87,6.6826209375,33.34
2021-07-06 13:18:40.804687500,4.25,46.0,44.0,66.747578125,1.475,6.68282109375,33.34
2021-07-06 13:18:40.812500000,4.0,46.0,44.0,66.746875,0.08,6.68302125,33.34
2021-07-06 13:18:40.820312500,4.25,46.0,44.0,66.746171875,-1.285,6.68322140625,33.34
2021-07-06 13:18:40.828125000,4.5,46.0,44.0,66.74546875,-2.65,6.6834215625,33.34
2021-07-06 13:18:40.835937500,4.75,46.0,44.0,66.744765625,-4.16,6.68362171875,33.34
2021-07-06 13:18:40.843750000,5.0,46.0,44.0,66.7440625,-5.67,6.6838218750000005,33.34
2021-07-06 13:18:40.851562500,4.75,45.75,44.0,66.743359375,-7.505,6.6840220312500005,33.34
2021-07-06 13:18:40.859375000,4.5,45.5,44.0,66.74265625,-9.34,6.6842221875000005,33.34
2021-07-06 13:18:40.867187500,4.25,45.25,44.0,66.74195312500001,-11.59,6.6844223437500006,33.34
2021-07-06 13:18:40.875000000,4.0,45.0,44.0,66.74125000000001,-13.84,6.6846225,33.34
2021-07-06 13:18:40.882812500,4.25,45.25,44.0,66.740546875,-16.415,6.68482265625,33.34
2021-07-06 13:18:40.890625000,4.5,45.5,44.0,66.73984375,-18.99,6.6850228125,33.34
2021-07-06 13:18:40.898437500,4.75,45.75,44.0,66.739140625,-21.65,6.68522296875,33.34
2021-07-06 13:18:40.906250000,5.0,46.0,44.0,66.7384375,-24.31,6.685423125,33.34
2021-07-06 13:18:40.914062500,5.0,46.0,44.0,66.737734375,-26.799999999999997,6.68562328125,33.34
2021-07-06 13:18:40.921875000,5.0,46.0,44.0,66.73703125,-29.29,6.6858234375,33.34
2021-07-06 13:18:40.929687500,5.0,46.0,44.0,66.736328125,-31.46,6.68602359375,33.34
2021-07-06 13:18:40.937500000,5.0,46.0,44.0,66.735625,-33.63,6.68622375,33.34
2021-07-06 13:18:40.945312500,4.75,46.0,44.0,66.734921875,-35.495000000000005,6.68642390625,33.34
2021-07-06 13:18:40.953125000,4.5,46.0,44.0,66.73421875,-37.36,6.6866240625,33.34
2021-07-06 13:18:40.960937500,4.25,46.0,44.0,66.73351562500001,-39.095,6.68682421875,33.34
2021-07-06 13:18:40.968750000,4.0,46.0,44.0,66.73281250000001,-40.83,6.687024375,33.34
2021-07-06 13:18:40.976562500,4.0,45.75,44.25,66.73210937500001,-42.665,6.68722453125,33.34
2021-07-06 13:18:40.984375000,4.0,45.5,44.5,66.73140625,-44.5,6.6874246875,33.34
2021-07-06 13:18:40.992187500,4.0,45.25,44.75,66.730703125,-46.65,6.68762484375,33.34
2021-07-06 13:18:41.000000000,4.0,45.0,45.0,66.73,-48.8,6.687825,33.34
2021-07-06 13:18:41.007812500,4.0,45.25,44.75,66.729375,-51.4,6.68762484375,33.339687500000004
2021-07-06 13:18:41.015625000,4.0,45.5,44.5,66.72875,-54.0,6.6874246875,33.339375000000004
2021-07-06 13:18:41.023437500,4.0,45.75,44.25,66.728125,-57.11,6.68722453125,33.339062500000004
2021-07-06 13:18:41.031250000,4.0,46.0,44.0,66.7275,-60.22,6.687024375,33.338750000000005
2021-07-06 13:18:41.039062500,4.25,46.0,44.0,66.726875,-63.795,6.68682421875,33.338437500000005
2021-07-06 13:18:41.046875000,4.5,46.0,44.0,66.72625000000001,-67.37,6.6866240625,33.338125000000005
2021-07-06 13:18:41.054687500,4.75,46.0,44.0,66.72562500000001,-71.23,6.68642390625,33.337812500000005
2021-07-06 13:18:41.062500000,5.0,46.0,44.0,66.72500000000001,-75.09,6.68622375,33.337500000000006
2021-07-06 13:18:41.070312500,4.75,46.0,44.0,66.72437500000001,-78.85,6.68602359375,33.3371875
2021-07-06 13:18:41.078125000,4.5,46.0,44.0,66.72375000000001,-82.61,6.6858234375,33.336875
2021-07-06 13:18:41.085937500,4.25,46.0,44.0,66.72312500000001,-85.675,6.68562328125,33.3365625
2021-07-06 13:18:41.093750000,4.0,46.0,44.0,66.72250000000001,-88.74,6.685423125,33.33625
2021-07-06 13:18:41.101562500,4.25,46.0,44.0,66.721875,-90.41999999999999,6.68522296875,33.3359375
2021-07-06 13:18:41.109375000,4.5,46.0,44.0,66.72125,-92.1,6.6850228125,33.335625
2021-07-06 13:18:41.117187500,4.75,46.0,44.0,66.720625,-91.815,6.68482265625,33.3353125
2021-07-06 13:18:41.125000000,5.0,46.0,44.0,66.72,-91.53,6.6846225,33.335
2021-07-06 13:18:41.132812500,5.0,46.0,44.0,66.719375,-89.03,6.6844223437500006,33.3346875
2021-07-06 13:18:41.140625000,5.0,46.0,44.0,66.71875,-86.53,6.6842221875000005,33.334375
2021-07-06 13:18:41.148437500,5.0,46.0,44.0,66.718125,-82.055,6.6840220312500005,33.3340625
2021-07-06 13:18:41.156250000,5.0,46.0,44.0,66.7175,-77.58,6.6838218750000005,33.33375
2021-07-06 13:18:41.164062500,5.0,46.0,44.0,66.716875,-71.77,6.68362171875,33.3334375
2021-07-06 13:18:41.171875000,5.0,46.0,44.0,66.71625,-65.96,6.6834215625,33.333125
2021-07-06 13:18:41.179687500,5.0,46.0,44.0,66.715625,-59.644999999999996,6.68322140625,33.3328125
2021-07-06 13:18:41.187500000,5.0,46.0,44.0,66.715,-53.33,6.68302125,33.332499999999996
2021-07-06 13:18:41.195312500,5.0,45.75,44.0,66.714375,-47.239999999999995,6.68282109375,33.332187499999996
2021-07-06 13:18:41.203125000,5.0,45.5,44.0,66.71375,-41.15,6.6826209375,33.331875
2021-07-06 13:18:41.210937500,5.0,45.25,44.0,66.713125,-35.67,6.68242078125,33.3315625
2021-07-06 13:18:41.218750000,5.0,45.0,44.0,66.7125,-30.19,6.682220625,33.33125
2021-07-06 13:18:41.226562500,4.75,45.25,44.25,66.711875,-25.375,6.68202046875,33.3309375
2021-07-06 13:18:41.234375000,4.5,45.5,44.5,66.71125,-20.56,6.6818203125,33.330625
2021-07-06 13:18:41.242187500,4.25,45.75,44.75,66.71062500000001,-16.225,6.68162015625,33.3303125
2021-07-06 13:18:41.250000000,4.0,46.0,45.0,66.71000000000001,-11.89,6.68142,33.33
2021-07-06 13:18:41.257812500,4.25,46.0,44.75,66.70937500000001,-7.835,6.6813399375,33.33
2021-07-06 13:18:41.265625000,4.5,46.0,44.5,66.70875000000001,-3.78,6.681259875,33.33
2021-07-06 13:18:41.273437500,4.75,46.0,44.25,66.70812500000001,0.10000000000000009,6.6811798125,33.33
2021-07-06 13:18:41.281250000,5.0,46.0,44.0,66.70750000000001,3.98,6.6810997500000004,33.33
2021-07-06 13:18:41.289062500,4.75,46.0,44.0,66.70687500000001,7.629999999999999,6.6810196875,33.33
2021-07-06 13:18:41.296875000,4.5,46.0,44.0,66.70625000000001,11.28,6.680939625,33.33
2021-07-06 13:18:41.304687500,4.25,46.0,44.0,66.705625,14.575,6.6808595625,33.33
2021-07-06 13:18:41.312500000,4.0,46.0,44.0,66.705,17.87,6.6807795,33.33
2021-07-06 13:18:41.320312500,4.25,45.75,44.0,66.704375,20.695,6.6806994375,33.33
2021-07-06 13:18:41.328125000,4.5,45.5,44.0,66.70375,23.52,6.680619375,33.33
2021-07-06 13:18:41.335937500,4.75,45.25,44.0,66.703125,25.814999999999998,6.6805393125,33.33
2021-07-06 13:18:41.343750000,5.0,45.0,44.0,66.7025,28.11,6.68045925,33.33
2021-07-06 13:18:41.351562500,4.75,45.0,44.0,66.701875,29.924999999999997,6.6803791875,33.33
2021-07-06 13:18:41.359375000,4.5,45.0,44.0,66.70125,31.74,6.680299125,33.33
2021-07-06 13:18:41.367187500,4.25,45.0,44.0,66.700625,33.14,6.6802190625,33.33
2021-07-06 13:18:41.375000000,4.0,45.0,44.0,66.7,34.54,6.6801390000000005,33.33
2021-07-06 13:18:41.382812500,4.25,45.0,44.0,66.699375,35.614999999999995,6.6800589375,33.33
2021-07-06 13:18:41.390625000,4.5,45.0,44.0,66.69875,36.69,6.679978875,33.33
2021-07-06 13:18:41.398437500,4.75,45.0,44.0,66.698125,37.51,6.6798988125,33.33
2021-07-06 13:18:41.406250000,5.0,45.0,44.0,66.6975,38.33,6.67981875,33.33
2021-07-06 13:18:41.414062500,4.75,45.25,44.0,66.696875,38.955,6.6797386875,33.33
2021-07-06 13:18:41.421875000,4.5,45.5,44.0,66.69625,39.58,6.679658625,33.33
2021-07-06 13:18:41.429687500,4.25,45.75,44.0,66.695625,40.085,6.6795785625,33.33
2021-07-06 13:18:41.437500000,4.0,46.0,44.0,66.69500000000001,40.59,6.6794985,33.33
2021-07-06 13:18:41.445312500,4.0,46.0,44.0,66.69437500000001,41.045,6.6794184375,33.33
2021-07-06 13:18:41.453125000,4.0,46.0,44.0,66.69375000000001,41.5,6.679338375,33.33
2021-07-06 13:18:41.460937500,4.0,46.0,44.0,66.69312500000001,41.95,6.6792583125,33.33
2021-07-06 13:18:41.468750000,4.0,46.0,44.0,66.69250000000001,42.4,6.67917825,33.33
2021-07-06 13:18:41.476562500,4.25,45.75,44.0,66.69187500000001,42.864999999999995,6.6790981875,33.33
2021-07-06 13:18:41.484375000,4.5,45.5,44.0,66.69125000000001,43.33,6.679018125,33.33
2021-07-06 13:18:41.492187500,4.75,45.25,44.0,66.69062500000001,43.8,6.6789380625,33.33
2021-07-06 13:18:41.500000000,5.0,45.0,44.0,66.69,44.27,6.678858,33.33
2021-07-06 13:18:41.507812500,5.0,45.25,44.0,66.689375,44.68000000000001,6.67873790625,33.33
2021-07-06 13:18:41.515625000,5.0,45.5,44.0,66.68875,45.09,6.6786178125,33.33
2021-07-06 13:18:41.523437500,5.0,45.75,44.0,66.688125,45.39,6.67849771875,33.33
2021-07-06 13:18:41.531250000,5.0,46.0,44.0,66.6875,45.69,6.6783776249999995,33.33
2021-07-06 13:18:41.539062500,4.75,46.0,44.25,66.686875,45.82,6.67825753125,33.33
2021-07-06 13:18:41.546875000,4.5,46.0,44.5,66.68625,45.95,6.6781374375,33.33
2021-07-06 13:18:41.554687500,4.25,46.0,44.75,66.685625,45.870000000000005,6.67801734375,33.33
2021-07-06 13:18:41.562500000,4.0,46.0,45.0,66.685,45.79,6.67789725,33.33
2021-07-06 13:18:41.570312500,4.0,45.75,44.75,66.684375,45.465,6.67777715625,33.33
2021-07-06 13:18:41.578125000,4.0,45.5,44.5,66.68375,45.14,6.6776570625,33.33
2021-07-06 13:18:41.585937500,4.0,45.25,44.25,66.683125,44.585,6.67753696875,33.33
2021-07-06 13:18:41.593750000,4.0,45.0,44.0,66.6825,44.03,6.6774168750000005,33.33
2021-07-06 13:18:41.601562500,4.25,45.0,44.0,66.681875,43.3,6.67729678125,33.33
2021-07-06 13:18:41.609375000,4.5,45.0,44.0,66.68125,42.57,6.6771766875,33.33
2021-07-06 13:18:41.617187500,4.75,45.0,44.0,66.680625,41.760000000000005,6.67705659375,33.33
2021-07-06 13:18:41.625000000,5.0,45.0,44.0,66.68,40.95,6.6769365,33.33
2021-07-06 13:18:41.632812500,4.75,45.25,44.0,66.67937500000001,40.165000000000006,6.67681640625,33.33
2021-07-06 13:18:41.640625000,4.5,45.5,44.0,66.67875000000001,39.38,6.6766963125,33.33
2021-07-06 13:18:41.648437500,4.25,45.75,44.0,66.67812500000001,38.67,6.67657621875,33.33
2021-07-06 13:18:41.656250000,4.0,46.0,44.0,66.67750000000001,37.96,6.676456125,33.33
2021-07-06 13:18:41.664062500,4.25,46.0,44.0,66.67687500000001,37.3,6.67633603125,33.33
2021-07-06 13:18:41.671875000,4.5,46.0,44.0,66.67625000000001,36.64,6.6762159375,33.33
2021-07-06 13:18:41.679687500,4.75,46.0,44.0,66.67562500000001,35.94,6.67609584375,33.33
2021-07-06 13:18:41.687500000,5.0,46.0,44.0,66.67500000000001,35.24,6.67597575,33.33
2021-07-06 13:18:41.695312500,4.75,46.0,44.0,66.67437500000001,34.400000000000006,6.67585565625,33.33
2021-07-06 13:18:41.703125000,4.5,46.0,44.0,66.67375,33.56,6.6757355625,33.33
2021-07-06 13:18:41.710937500,4.25,46.0,44.0,66.673125,32.510000000000005,6.67561546875,33.33
2021-07-06 13:18:41.718750000,4.0,46.0,44.0,66.6725,31.46,6.675495375000001,33.33
2021-07-06 13:18:41.726562500,4.25,46.0,44.25,66.671875,30.23,6.67537528125,33.33
2021-07-06 13:18:41.734375000,4.5,46.0,44.5,66.67125,29.0,6.6752551875,33.33
2021-07-06 13:18:41.742187500,4.75,46.0,44.75,66.670625,27.689999999999998,6.67513509375,33.33
2021-07-06 13:18:41.750000000,5.0,46.0,45.0,66.67,26.38,6.675015,33.33
2021-07-06 13:18:41.757812500,5.0,46.0,44.75,66.669375,25.115000000000002,6.6748949062500005,33.33
2021-07-06 13:18:41.765625000,5.0,46.0,44.5,66.66875,23.85,6.6747748125,33.33
2021-07-06 13:18:41.773437500,5.0,46.0,44.25,66.668125,22.705,6.67465471875,33.33
2021-07-06 13:18:41.781250000,5.0,46.0,44.0,66.6675,21.56,6.674534625,33.33
2021-07-06 13:18:41.789062500,5.0,46.0,44.25,66.666875,20.549999999999997,6.67441453125,33.33
2021-07-06 13:18:41.796875000,5.0,46.0,44.5,66.66625,19.54,6.6742944375,33.33
2021-07-06 13:18:41.804687500,5.0,46.0,44.75,66.665625,18.61,6.67417434375,33.33
2021-07-06 13:18:41.812500000,5.0,46.0,45.0,66.665,17.68,6.67405425,33.33
2021-07-06 13:18:41.820312500,5.0,46.0,44.75,66.664375,16.745,6.6739341562500005,33.33
2021-07-06 13:18:41.828125000,5.0,46.0,44.5,66.66375000000001,15.81,6.6738140625,33.33
2021-07-06 13:18:41.835937500,5.0,46.0,44.25,66.66312500000001,14.81,6.67369396875,33.33
2021-07-06 13:18:41.843750000,5.0,46.0,44.0,66.66250000000001,13.81,6.673573875000001,33.33
2021-07-06 13:18:41.851562500,5.0,46.0,44.0,66.66187500000001,12.66,6.67345378125,33.33
2021-07-06 13:18:41.859375000,5.0,46.0,44.0,66.66125000000001,11.51,6.6733336875,33.33
2021-07-06 13:18:41.867187500,5.0,46.0,44.0,66.66062500000001,10.184999999999999,6.67321359375,33.33
2021-07-06 13:18:41.875000000,5.0,46.0,44.0,66.66000000000001,8.86,6.6730935,33.33
2021-07-06 13:18:41.882812500,4.75,46.0,44.0,66.65937500000001,7.359999999999999,6.672973406250001,33.33
2021-07-06 13:18:41.890625000,4.5,46.0,44.0,66.65875000000001,5.86,6.6728533125,33.33
2021-07-06 13:18:41.898437500,4.25,46.0,44.0,66.65812500000001,4.235,6.67273321875,33.33
2021-07-06 13:18:41.906250000,4.0,46.0,44.0,66.6575,2.61,6.672613125,33.33
2021-07-06 13:18:41.914062500,4.25,46.0,44.0,66.656875,0.97,6.67249303125,33.33
2021-07-06 13:18:41.921875000,4.5,46.0,44.0,66.65625,-0.67,6.6723729375000005,33.33
2021-07-06 13:18:41.929687500,4.75,46.0,44.0,66.655625,-2.24,6.67225284375,33.33
2021-07-06 13:18:41.937500000,5.0,46.0,44.0,66.655,-3.81,6.67213275,33.33
2021-07-06 13:18:41.945312500,5.0,46.0,44.25,66.654375,-5.2700000000000005,6.672012656250001,33.33
2021-07-06 13:18:41.953125000,5.0,46.0,44.5,66.65375,-6.73,6.6718925625,33.33
2021-07-06 13:18:41.960937500,5.0,46.0,44.75,66.653125,-8.145,6.67177246875,33.33
2021-07-06 13:18:41.968750000,5.0,46.0,45.0,66.6525,-9.56,6.671652375000001,33.33
2021-07-06 13:18:41.976562500,4.75,45.75,44.75,66.651875,-11.06,6.67153228125,33.33
2021-07-06 13:18:41.984375000,4.5,45.5,44.5,66.65125,-12.56,6.6714121875000005,33.33
2021-07-06 13:18:41.992187500,4.25,45.25,44.25,66.650625,-14.280000000000001,6.67129209375,33.33
2021-07-06 13:18:42.000000000,4.0,45.0,44.0,66.65,-16.0,6.671172,33.33
2021-07-06 13:18:42.007812500,4.25,45.25,44.0,66.649375,-17.985,6.6710919375,33.3303125
2021-07-06 13:18:42.015625000,4.5,45.5,44.0,66.64875,-19.97,6.6710118750000005,33.330625
2021-07-06 13:18:42.023437500,4.75,45.75,44.0,66.64812500000001,-22.165,6.6709318125,33.3309375
2021-07-06 13:18:42.031250000,5.0,46.0,44.0,66.64750000000001,-24.36,6.670851750000001,33.33125
2021-07-06 13:18:42.039062500,5.0,46.0,44.0,66.64687500000001,-26.61,6.6707716875,33.3315625
2021-07-06 13:18:42.046875000,5.0,46.0,44.0,66.64625000000001,-28.86,6.670691625,33.331875
2021-07-06 13:18:42.054687500,5.0,46.0,44.0,66.64562500000001,-31.025,6.6706115625,33.332187499999996
2021-07-06 13:18:42.062500000,5.0,46.0,44.0,66.64500000000001,-33.19,6.6705315,33.332499999999996
2021-07-06 13:18:42.070312500,4.75,45.75,44.0,66.64437500000001,-35.185,6.670451437500001,33.3328125
2021-07-06 13:18:42.078125000,4.5,45.5,44.0,66.64375000000001,-37.18,6.670371375,33.333125
2021-07-06 13:18:42.085937500,4.25,45.25,44.0,66.643125,-39.045,6.6702913125,33.3334375
2021-07-06 13:18:42.093750000,4.0,45.0,44.0,66.6425,-40.91,6.67021125,33.33375
2021-07-06 13:18:42.101562500,4.25,45.0,44.25,66.641875,-42.805,6.6701311875,33.3340625
2021-07-06 13:18:42.109375000,4.5,45.0,44.5,66.64125,-44.7,6.6700511250000005,33.334375
2021-07-06 13:18:42.117187500,4.75,45.0,44.75,66.640625,-46.805,6.6699710625,33.3346875
2021-07-06 13:18:42.125000000,5.0,45.0,45.0,66.64,-48.91,6.669891,33.335
2021-07-06 13:18:42.132812500,5.0,45.25,44.75,66.639375,-51.385,6.6698109375,33.3353125
2021-07-06 13:18:42.140625000,5.0,45.5,44.5,66.63875,-53.86,6.669730875,33.335625
2021-07-06 13:18:42.148437500,5.0,45.75,44.25,66.638125,-56.745000000000005,6.6696508125000005,33.3359375
2021-07-06 13:18:42.156250000,5.0,46.0,44.0,66.6375,-59.63,6.66957075,33.33625
2021-07-06 13:18:42.164062500,4.75,46.0,44.0,66.636875,-62.83,6.669490687500001,33.3365625
2021-07-06 13:18:42.171875000,4.5,46.0,44.0,66.63625,-66.03,6.669410625,33.336875
2021-07-06 13:18:42.179687500,4.25,46.0,44.0,66.635625,-69.24000000000001,6.6693305625,33.3371875
2021-07-06 13:18:42.187500000,4.0,46.0,44.0,66.635,-72.45,6.6692505,33.337500000000006
2021-07-06 13:18:42.195312500,4.25,45.75,44.0,66.634375,-75.21000000000001,6.6691704375,33.337812500000005
2021-07-06 13:18:42.203125000,4.5,45.5,44.0,66.63375,-77.97,6.669090375000001,33.338125000000005
2021-07-06 13:18:42.210937500,4.75,45.25,44.0,66.633125,-79.74000000000001,6.6690103125,33.338437500000005
2021-07-06 13:18:42.218750000,5.0,45.0,44.0,66.63250000000001,-81.51,6.66893025,33.338750000000005
2021-07-06 13:18:42.226562500,5.0,45.25,44.0,66.63187500000001,-81.83500000000001,6.6688501875,33.339062500000004
2021-07-06 13:18:42.234375000,5.0,45.5,44.0,66.63125000000001,-82.16,6.668770125,33.339375000000004
2021-07-06 13:18:42.242187500,5.0,45.75,44.0,66.63062500000001,-80.8,6.6686900625000005,33.339687500000004
2021-07-06 13:18:42.250000000,5.0,46.0,44.0,66.63,-79.44,6.66861,33.34
2021-07-06 13:18:42.257812500,5.0,46.0,44.25,66.629375,-76.445,6.66856996875,33.34
2021-07-06 13:18:42.265625000,5.0,46.0,44.5,66.62875,-73.45,6.6685299375,33.34
2021-07-06 13:18:42.273437500,5.0,46.0,44.75,66.628125,-69.16499999999999,6.6684899062500005,33.34
2021-07-06 13:18:42.281250000,5.0,46.0,45.0,66.6275,-64.88,6.668449875,33.34
2021-07-06 13:18:42.289062500,5.0,45.75,44.75,66.626875,-59.81,6.66840984375,33.34
2021-07-06 13:18:42.296875000,5.0,45.5,44.5,66.62625,-54.74,6.6683698125,33.34
2021-07-06 13:18:42.304687500,5.0,45.25,44.25,66.625625,-49.41,6.66832978125,33.34
2021-07-06 13:18:42.312500000,5.0,45.0,44.0,66.625,-44.08,6.66828975,33.34
2021-07-06 13:18:42.320312500,5.0,45.0,44.0,66.624375,-38.915,6.66824971875,33.34
2021-07-06 13:18:42.328125000,5.0,45.0,44.0,66.62375,-33.75,6.6682096875,33.34
2021-07-06 13:18:42.335937500,5.0,45.0,44.0,66.623125,-28.975,6.66816965625,33.34
2021-07-06 13:18:42.343750000,5.0,45.0,44.0,66.6225,-24.2,6.668129625,33.34
2021-07-06 13:18:42.351562500,5.0,45.25,44.0,66.621875,-19.895,6.6680895937499995,33.34
2021-07-06 13:18:42.359375000,5.0,45.5,44.0,66.62125,-15.59,6.6680495625,33.34
2021-07-06 13:18:42.367187500,5.0,45.75,44.0,66.620625,-11.7,6.66800953125,33.34
2021-07-06 13:18:42.375000000,5.0,46.0,44.0,66.62,-7.81,6.6679695,33.34
2021-07-06 13:18:42.382812500,5.0,45.75,44.25,66.619375,-4.25,6.66792946875,33.34
2021-07-06 13:18:42.390625000,5.0,45.5,44.5,66.61875,-0.69,6.6678894374999995,33.34
2021-07-06 13:18:42.398437500,5.0,45.25,44.75,66.618125,2.595,6.66784940625,33.34
2021-07-06 13:18:42.406250000,5.0,45.0,45.0,66.6175,5.88,6.667809375,33.34
2021-07-06 13:18:42.414062500,5.0,45.25,44.75,66.61687500000001,8.91,6.66776934375,33.34
2021-07-06 13:18:42.421875000,5.0,45.5,44.5,66.61625,11.94,6.6677293125,33.34
2021-07-06 13:18:42.429687500,5.0,45.75,44.25,66.615625,14.684999999999999,6.6676892812499995,33.34
2021-07-06 13:18:42.437500000,5.0,46.0,44.0,66.615,17.43,6.66764925,33.34
2021-07-06 13:18:42.445312500,5.0,46.0,44.0,66.614375,19.84,6.66760921875,33.34
2021-07-06 13:18:42.453125000,5.0,46.0,44.0,66.61375,22.25,6.6675691875,33.34
2021-07-06 13:18:42.460937500,5.0,46.0,44.0,66.613125,24.275,6.66752915625,33.34
2021-07-06 13:18:42.468750000,5.0,46.0,44.0,66.6125,26.3,6.6674891249999995,33.34
2021-07-06 13:18:42.476562500,4.75,46.0,44.0,66.611875,27.93,6.667449093749999,33.34
2021-07-06 13:18:42.484375000,4.5,46.0,44.0,66.61125,29.56,6.6674090625,33.34
2021-07-06 13:18:42.492187500,4.25,46.0,44.0,66.610625,30.83,6.66736903125,33.34
2021-07-06 13:18:42.500000000,4.0,46.0,44.0,66.61,32.1,6.667329,33.34
2021-07-06 13:18:42.507812500,4.25,46.0,44.0,66.609375,33.075,6.667248937499999,33.34
2021-07-06 13:18:42.515625000,4.5,46.0,44.0,66.60875,34.05,6.667168875,33.34
2021-07-06 13:18:42.523437500,4.75,46.0,44.0,66.608125,34.805,6.667088812499999,33.34
2021-07-06 13:18:42.531250000,5.0,46.0,44.0,66.6075,35.56,6.66700875,33.34
2021-07-06 13:18:42.539062500,5.0,45.75,44.0,66.606875,36.175,6.6669286875,33.34
2021-07-06 13:18:42.546875000,5.0,45.5,44.0,66.60625,36.79,6.666848625,33.34
2021-07-06 13:18:42.554687500,5.0,45.25,44.0,66.605625,37.33,6.6667685625,33.34
2021-07-06 13:18:42.562500000,5.0,45.0,44.0,66.605,37.87,6.666688499999999,33.34
2021-07-06 13:18:42.570312500,4.75,45.0,44.0,66.604375,38.394999999999996,6.6666084375,33.34
2021-07-06 13:18:42.578125000,4.5,45.0,44.0,66.60375,38.92,6.6665283749999995,33.34
2021-07-06 13:18:42.585937500,4.25,45.0,44.0,66.60312499999999,39.455,6.6664483125,33.34
2021-07-06 13:18:42.593750000,4.0,45.0,44.0,66.60249999999999,39.99,6.66636825,33.34
2021-07-06 13:18:42.601562500,4.25,45.0,44.0,66.60187499999999,40.535,6.6662881875,33.34
2021-07-06 13:18:42.609375000,4.5,45.0,44.0,66.60125,41.08,6.666208125,33.34
2021-07-06 13:18:42.617187500,4.75,45.0,44.0,66.600625,41.595,6.6661280625,33.34
2021-07-06 13:18:42.625000000,5.0,45.0,44.0,66.6,42.11,6.666048,33.34
2021-07-06 13:18:42.632812500,5.0,45.25,44.25,66.599375,42.519999999999996,6.6659679375,33.34
2021-07-06 13:18:42.640625000,5.0,45.5,44.5,66.59875,42.93,6.665887875,33.34
2021-07-06 13:18:42.648437500,5.0,45.75,44.75,66.598125,43.135000000000005,6.6658078125,33.34
2021-07-06 13:18:42.656250000,5.0,46.0,45.0,66.5975,43.34,6.66572775,33.34
2021-07-06 13:18:42.664062500,5.0,46.0,44.75,66.596875,43.285,6.6656476875,33.34
2021-07-06 13:18:42.671875000,5.0,46.0,44.5,66.59625,43.23,6.665567625,33.34
2021-07-06 13:18:42.679687500,5.0,46.0,44.25,66.595625,42.905,6.6654875625,33.34
2021-07-06 13:18:42.687500000,5.0,46.0,44.0,66.595,42.58,6.665407500000001,33.34
2021-07-06 13:18:42.695312500,5.0,46.0,44.0,66.594375,42.065,6.6653274375,33.34
2021-07-06 13:18:42.703125000,5.0,46.0,44.0,66.59375,41.55,6.665247375,33.34
2021-07-06 13:18:42.710937500,5.0,46.0,44.0,66.593125,40.915,6.6651673125,33.34
2021-07-06 13:18:42.718750000,5.0,46.0,44.0,66.5925,40.28,6.66508725,33.34
2021-07-06 13:18:42.726562500,5.0,46.0,44.0,66.591875,39.615,6.6650071875000005,33.34
2021-07-06 13:18:42.734375000,5.0,46.0,44.0,66.59125,38.95,6.664927125,33.34
2021-07-06 13:18:42.742187500,5.0,46.0,44.0,66.590625,38.275000000000006,6.664847062500001,33.34
2021-07-06 13:18:42.750000000,5.0,46.0,44.0,66.59,37.6,6.664767,33.34
2021-07-06 13:18:42.757812500,5.0,45.75,44.0,66.58937499999999,36.915,6.6642065312500005,33.34
2021-07-06 13:18:42.765625000,5.0,45.5,44.0,66.58874999999999,36.23,6.663646062500001,33.34
2021-07-06 13:18:42.773437500,5.0,45.25,44.0,66.58812499999999,35.485,6.66308559375,33.34
2021-07-06 13:18:42.781250000,5.0,45.0,44.0,66.58749999999999,34.74,6.662525125,33.34
2021-07-06 13:18:42.789062500,4.75,45.25,44.0,66.58687499999999,33.900000000000006,6.66196465625,33.34
2021-07-06 13:18:42.796875000,4.5,45.5,44.0,66.58624999999999,33.06,6.6614041875000005,33.34
2021-07-06 13:18:42.804687500,4.25,45.75,44.0,66.585625,32.095,6.66084371875,33.34
2021-07-06 13:18:42.812500000,4.0,46.0,44.0,66.585,31.13,6.66028325,33.34
2021-07-06 13:18:42.820312500,4.25,45.75,44.0,66.584375,30.045,6.65972278125,33.34
2021-07-06 13:18:42.828125000,4.5,45.5,44.0,66.58375,28.96,6.6591623125,33.34
2021-07-06 13:18:42.835937500,4.75,45.25,44.0,66.583125,27.775,6.6586018437500005,33.34
2021-07-06 13:18:42.843750000,5.0,45.0,44.0,66.5825,26.59,6.658041375,33.34
2021-07-06 13:18:42.851562500,5.0,45.25,44.0,66.581875,25.36,6.65748090625,33.34
2021-07-06 13:18:42.859375000,5.0,45.5,44.0,66.58125,24.13,6.6569204375,33.34
2021-07-06 13:18:42.867187500,5.0,45.75,44.0,66.580625,22.905,6.65635996875,33.34
2021-07-06 13:18:42.875000000,5.0,46.0,44.0,66.58,21.68,6.6557995000000005,33.34
2021-07-06 13:18:42.882812500,4.75,46.0,44.0,66.579375,20.52,6.65523903125,33.34
2021-07-06 13:18:42.890625000,4.5,46.0,44.0,66.57875,19.36,6.6546785625,33.34
2021-07-06 13:18:42.898437500,4.25,46.0,44.0,66.578125,18.29,6.65411809375,33.34
2021-07-06 13:18:42.906250000,4.0,46.0,44.0,66.5775,17.22,6.653557625,33.34
2021-07-06 13:18:42.914062500,4.25,46.0,44.0,66.576875,16.225,6.65299715625,33.34
2021-07-06 13:18:42.921875000,4.5,46.0,44.0,66.57624999999999,15.23,6.6524366875,33.34
2021-07-06 13:18:42.929687500,4.75,46.0,44.0,66.57562499999999,14.24,6.65187621875,33.34
2021-07-06 13:18:42.937500000,5.0,46.0,44.0,66.57499999999999,13.25,6.65131575,33.34
2021-07-06 13:18:42.945312500,5.0,45.75,44.0,66.57437499999999,12.190000000000001,6.65075528125,33.34
2021-07-06 13:18:42.953125000,5.0,45.5,44.0,66.57374999999999,11.13,6.6501948125,33.34
2021-07-06 13:18:42.960937500,5.0,45.25,44.0,66.57312499999999,9.940000000000001,6.64963434375,33.34
2021-07-06 13:18:42.968750000,5.0,45.0,44.0,66.57249999999999,8.75,6.649073875,33.34
2021-07-06 13:18:42.976562500,5.0,45.25,44.0,66.57187499999999,7.4350000000000005,6.64851340625,33.34
2021-07-06 13:18:42.984375000,5.0,45.5,44.0,66.57124999999999,6.12,6.6479529374999995,33.34
2021-07-06 13:18:42.992187500,5.0,45.75,44.0,66.57062499999999,4.73,6.64739246875,33.34
2021-07-06 13:18:43.000000000,5.0,46.0,44.0,66.57,3.34,6.646832,33.34
2021-07-06 13:18:43.007812500,4.75,45.75,44.0,66.56929687499999,1.97,6.64691209375,33.339687500000004
2021-07-06 13:18:43.015625000,4.5,45.5,44.0,66.56859374999999,0.6,6.6469921874999995,33.339375000000004
2021-07-06 13:18:43.023437500,4.25,45.25,44.0,66.56789062499999,-0.705,6.64707228125,33.339062500000004
2021-07-06 13:18:43.031250000,4.0,45.0,44.0,66.56718749999999,-2.01,6.647152375,33.338750000000005
2021-07-06 13:18:43.039062500,4.25,45.0,44.0,66.56648437499999,-3.225,6.6472324687499995,33.338437500000005
2021-07-06 13:18:43.046875000,4.5,45.0,44.0,66.56578125,-4.44,6.6473125625,33.338125000000005
2021-07-06 13:18:43.054687500,4.75,45.0,44.0,66.565078125,-5.635,6.64739265625,33.337812500000005
2021-07-06 13:18:43.062500000,5.0,45.0,44.0,66.564375,-6.83,6.64747275,33.337500000000006
2021-07-06 13:18:43.070312500,5.0,45.25,44.0,66.563671875,-8.075,6.64755284375,33.3371875
2021-07-06 13:18:43.078125000,5.0,45.5,44.0,66.56296875,-9.32,6.6476329375,33.336875
2021-07-06 13:18:43.085937500,5.0,45.75,44.0,66.562265625,-10.695,6.64771303125,33.3365625
2021-07-06 13:18:43.093750000,5.0,46.0,44.0,66.5615625,-12.07,6.647793125,33.33625
2021-07-06 13:18:43.101562500,4.75,46.0,44.0,66.56085937499999,-13.620000000000001,6.64787321875,33.3359375
2021-07-06 13:18:43.109375000,4.5,46.0,44.0,66.56015624999999,-15.17,6.6479533125,33.335625
2021-07-06 13:18:43.117187500,4.25,46.0,44.0,66.55945312499999,-16.885,6.64803340625,33.3353125
2021-07-06 13:18:43.125000000,4.0,46.0,44.0,66.55874999999999,-18.6,6.6481135,33.335
2021-07-06 13:18:43.132812500,4.0,45.75,44.25,66.55804687499999,-20.425,6.64819359375,33.3346875
2021-07-06 13:18:43.140625000,4.0,45.5,44.5,66.55734375,-22.25,6.6482736875,33.334375
2021-07-06 13:18:43.148437500,4.0,45.25,44.75,66.556640625,-24.155,6.64835378125,33.3340625
2021-07-06 13:18:43.156250000,4.0,45.0,45.0,66.5559375,-26.06,6.648433875,33.33375
2021-07-06 13:18:43.164062500,4.25,45.0,45.0,66.555234375,-28.009999999999998,6.64851396875,33.3334375
2021-07-06 13:18:43.171875000,4.5,45.0,45.0,66.55453125,-29.96,6.6485940625,33.333125
2021-07-06 13:18:43.179687500,4.75,45.0,45.0,66.553828125,-31.945,6.64867415625,33.3328125
2021-07-06 13:18:43.187500000,5.0,45.0,45.0,66.553125,-33.93,6.64875425,33.332499999999996
2021-07-06 13:18:43.195312500,4.75,45.25,44.75,66.552421875,-35.95,6.64883434375,33.332187499999996
2021-07-06 13:18:43.203125000,4.5,45.5,44.5,66.55171874999999,-37.97,6.6489144375,33.331875
2021-07-06 13:18:43.210937500,4.25,45.75,44.25,66.55101562499999,-40.04,6.6489945312500005,33.3315625
2021-07-06 13:18:43.218750000,4.0,46.0,44.0,66.55031249999999,-42.11,6.649074625,33.33125
2021-07-06 13:18:43.226562500,4.0,45.75,44.0,66.54960937499999,-44.269999999999996,6.64915471875,33.3309375
2021-07-06 13:18:43.234375000,4.0,45.5,44.0,66.54890625,-46.43,6.6492348125000005,33.330625
2021-07-06 13:18:43.242187500,4.0,45.25,44.0,66.548203125,-48.795,6.64931490625,33.3303125
2021-07-06 13:18:43.250000000,4.0,45.0,44.0,66.5475,-51.16,6.649395,33.33
2021-07-06 13:18:43.257812500,4.25,45.0,44.0,66.546796875,-53.825,6.64891459375,33.33
2021-07-06 13:18:43.265625000,4.5,45.0,44.0,66.54609375,-56.49,6.6484341875,33.33
2021-07-06 13:18:43.273437500,4.75,45.0,44.0,66.545390625,-59.475,6.64795378125,33.33
2021-07-06 13:18:43.281250000,5.0,45.0,44.0,66.5446875,-62.46,6.647473375000001,33.33
2021-07-06 13:18:43.289062500,5.0,45.25,44.25,66.543984375,-65.595,6.64699296875,33.33
2021-07-06 13:18:43.296875000,5.0,45.5,44.5,66.54328124999999,-68.73,6.6465125625,33.33
2021-07-06 13:18:43.304687500,5.0,45.75,44.75,66.54257812499999,-71.58000000000001,6.64603215625,33.33
2021-07-06 13:18:43.312500000,5.0,46.0,45.0,66.54187499999999,-74.43,6.64555175,33.33
2021-07-06 13:18:43.320312500,4.75,46.0,44.75,66.541171875,-76.385,6.64507134375,33.33
2021-07-06 13:18:43.328125000,4.5,46.0,44.5,66.54046875,-78.34,6.6445909375,33.33
2021-07-06 13:18:43.335937500,4.25,46.0,44.25,66.539765625,-78.78999999999999,6.64411053125,33.33
2021-07-06 13:18:43.343750000,4.0,46.0,44.0,66.5390625,-79.24,6.643630125,33.33
2021-07-06 13:18:43.351562500,4.25,46.0,44.25,66.538359375,-77.84,6.64314971875,33.33
2021-07-06 13:18:43.359375000,4.5,46.0,44.5,66.53765625,-76.44,6.6426693125,33.33
2021-07-06 13:18:43.367187500,4.75,46.0,44.75,66.536953125,-73.24000000000001,6.64218890625,33.33
2021-07-06 13:18:43.375000000,5.0,46.0,45.0,66.53625,-70.04,6.6417085,33.33
2021-07-06 13:18:43.382812500,5.0,46.0,44.75,66.535546875,-65.49000000000001,6.64122809375,33.33
2021-07-06 13:18:43.390625000,5.0,46.0,44.5,66.53484375,-60.94,6.6407476875,33.33
2021-07-06 13:18:43.398437500,5.0,46.0,44.25,66.53414062499999,-55.685,6.64026728125,33.33
2021-07-06 13:18:43.406250000,5.0,46.0,44.0,66.53343749999999,-50.43,6.639786875,33.33
2021-07-06 13:18:43.414062500,5.0,46.0,44.0,66.532734375,-45.095,6.63930646875,33.33
2021-07-06 13:18:43.421875000,5.0,46.0,44.0,66.53203125,-39.76,6.6388260625,33.33
2021-07-06 13:18:43.429687500,5.0,46.0,44.0,66.531328125,-34.73,6.63834565625,33.33
2021-07-06 13:18:43.437500000,5.0,46.0,44.0,66.530625,-29.7,6.63786525,33.33
2021-07-06 13:18:43.445312500,4.75,45.75,44.25,66.529921875,-25.119999999999997,6.63738484375,33.33
2021-07-06 13:18:43.453125000,4.5,45.5,44.5,66.52921875,-20.54,6.6369044375,33.33
2021-07-06 13:18:43.460937500,4.25,45.25,44.75,66.528515625,-16.395,6.63642403125,33.33
2021-07-06 13:18:43.468750000,4.0,45.0,45.0,66.5278125,-12.25,6.6359436249999995,33.33
2021-07-06 13:18:43.476562500,4.25,45.0,44.75,66.527109375,-8.46,6.63546321875,33.33
2021-07-06 13:18:43.484375000,4.5,45.0,44.5,66.52640625,-4.67,6.6349828125,33.33
2021-07-06 13:18:43.492187500,4.75,45.0,44.25,66.52570312499999,-1.21,6.63450240625,33.33
2021-07-06 13:18:43.500000000,5.0,45.0,44.0,66.525,2.25,6.634022,33.33
2021-07-06 13:18:43.507812500,5.0,45.25,44.0,66.524296875,5.37,6.63406203125,33.33
2021-07-06 13:18:43.515625000,5.0,45.5,44.0,66.52359375,8.49,6.6341020625,33.33
2021-07-06 13:18:43.523437500,5.0,45.75,44.0,66.522890625,11.23,6.6341420937499995,33.33
2021-07-06 13:18:43.531250000,5.0,46.0,44.0,66.5221875,13.97,6.634182125,33.33
2021-07-06 13:18:43.539062500,5.0,46.0,44.0,66.521484375,16.305,6.63422215625,33.33
2021-07-06 13:18:43.546875000,5.0,46.0,44.0,66.52078125,18.64,6.6342621875,33.33
2021-07-06 13:18:43.554687500,5.0,46.0,44.0,66.520078125,20.57,6.63430221875,33.33
2021-07-06 13:18:43.562500000,5.0,46.0,44.0,66.519375,22.5,6.6343422499999996,33.33
2021-07-06 13:18:43.570312500,5.0,46.0,44.0,66.518671875,24.05,6.63438228125,33.33
2021-07-06 13:18:43.578125000,5.0,46.0,44.0,66.51796875,25.6,6.6344223125,33.33
2021-07-06 13:18:43.585937500,5.0,46.0,44.0,66.517265625,26.810000000000002,6.63446234375,33.33
2021-07-06 13:18:43.593750000,5.0,46.0,44.0,66.5165625,28.02,6.634502375,33.33
2021-07-06 13:18:43.601562500,4.75,46.0,44.25,66.515859375,28.935000000000002,6.6345424062500005,33.33
2021-07-06 13:18:43.609375000,4.5,46.0,44.5,66.51515625,29.85,6.6345824375,33.33
2021-07-06 13:18:43.617187500,4.25,46.0,44.75,66.514453125,30.545,6.63462246875,33.33
2021-07-06 13:18:43.625000000,4.0,46.0,45.0,66.51375,31.24,6.6346625,33.33
2021-07-06 13:18:43.632812500,4.0,46.0,44.75,66.513046875,31.799999999999997,6.63470253125,33.33
2021-07-06 13:18:43.640625000,4.0,46.0,44.5,66.51234375,32.36,6.6347425625000005,33.33
2021-07-06 13:18:43.648437500,4.0,46.0,44.25,66.511640625,32.855000000000004,6.63478259375,33.33
2021-07-06 13:18:43.656250000,4.0,46.0,44.0,66.5109375,33.35,6.634822625,33.33
2021-07-06 13:18:43.664062500,4.25,46.0,44.25,66.510234375,33.81,6.63486265625,33.33
2021-07-06 13:18:43.671875000,4.5,46.0,44.5,66.50953125,34.27,6.6349026875,33.33
2021-07-06 13:18:43.679687500,4.75,46.0,44.75,66.508828125,34.725,6.6349427187500005,33.33
2021-07-06 13:18:43.687500000,5.0,46.0,45.0,66.508125,35.18,6.634982750000001,33.33
