TimeStamp,empatica.acc.x,empatica.acc.y,empatica.acc.z,empatica.hr,empatica.bvp,empatica.eda,empatica.temp
2021-06-21 12:43:44.632812500,-53.0,9.0,36.0,73.018359375,-22.32,0.34410140624999996,238.65
2021-06-21 12:43:44.640625000,-53.0,9.0,36.0,73.01796875,-24.68,0.34398131249999997,238.65
2021-06-21 12:43:44.648437500,-53.0,9.0,36.0,73.017578125,-26.965,0.34386121875,238.65
2021-06-21 12:43:44.656250000,-53.0,9.0,36.0,73.0171875,-29.25,0.343741125,238.65
2021-06-21 12:43:44.664062500,-53.25,9.0,35.75,73.016796875,-31.54,0.34362103125,238.65
2021-06-21 12:43:44.671875000,-53.5,9.0,35.5,73.01640625,-33.83,0.3435009375,238.65
2021-06-21 12:43:44.679687500,-53.75,9.0,35.25,73.016015625,-36.254999999999995,0.34338084375,238.65
2021-06-21 12:43:44.687500000,-54.0,9.0,35.0,73.015625,-38.68,0.34326075,238.65
2021-06-21 12:43:44.695312500,-54.25,9.0,35.25,73.015234375,-41.385000000000005,0.34314065625,238.65
2021-06-21 12:43:44.703125000,-54.5,9.0,35.5,73.01484375,-44.09,0.3430205625,238.65
2021-06-21 12:43:44.710937500,-54.75,9.0,35.75,73.014453125,-47.255,0.34290046874999996,238.65
2021-06-21 12:43:44.718750000,-55.0,9.0,36.0,73.0140625,-50.42,0.34278037499999997,238.65
2021-06-21 12:43:44.726562500,-55.0,9.0,35.75,73.013671875,-54.195,0.34266028125,238.65
2021-06-21 12:43:44.734375000,-55.0,9.0,35.5,73.01328125,-57.97,0.3425401875,238.65
2021-06-21 12:43:44.742187500,-55.0,9.0,35.25,73.012890625,-62.39,0.34242009375,238.65
2021-06-21 12:43:44.750000000,-55.0,9.0,35.0,73.0125,-66.81,0.3423,238.65
2021-06-21 12:43:44.757812500,-54.75,8.75,35.0,73.012109375,-71.63499999999999,0.34242009375,238.65
2021-06-21 12:43:44.765625000,-54.5,8.5,35.0,73.01171875,-76.46,0.3425401875,238.65
2021-06-21 12:43:44.773437500,-54.25,8.25,35.0,73.011328125,-81.145,0.34266028125,238.65
2021-06-21 12:43:44.781250000,-54.0,8.0,35.0,73.0109375,-85.83,0.34278037499999997,238.65
2021-06-21 12:43:44.789062500,-53.75,8.0,35.0,73.010546875,-89.52,0.34290046874999996,238.65
2021-06-21 12:43:44.796875000,-53.5,8.0,35.0,73.01015625,-93.21,0.3430205625,238.65
2021-06-21 12:43:44.804687500,-53.25,8.0,35.0,73.009765625,-94.96,0.34314065625,238.65
2021-06-21 12:43:44.812500000,-53.0,8.0,35.0,73.009375,-96.71,0.34326075,238.65
2021-06-21 12:43:44.820312500,-53.25,8.0,35.0,73.008984375,-95.76499999999999,0.34338084375,238.65
2021-06-21 12:43:44.828125000,-53.5,8.0,35.0,73.00859375,-94.82,0.3435009375,238.65
2021-06-21 12:43:44.835937500,-53.75,8.0,35.0,73.008203125,-90.87,0.34362103125,238.65
2021-06-21 12:43:44.843750000,-54.0,8.0,35.0,73.0078125,-86.92,0.343741125,238.65
2021-06-21 12:43:44.851562500,-54.25,8.0,35.0,73.007421875,-80.25,0.34386121875,238.65
2021-06-21 12:43:44.859375000,-54.5,8.0,35.0,73.00703125,-73.58,0.34398131249999997,238.65
2021-06-21 12:43:44.867187500,-54.75,8.0,35.0,73.006640625,-64.96000000000001,0.34410140624999996,238.65
2021-06-21 12:43:44.875000000,-55.0,8.0,35.0,73.00625,-56.34,0.34422149999999996,238.65
2021-06-21 12:43:44.882812500,-55.0,8.0,35.25,73.005859375,-46.85,0.34434159375,238.65
2021-06-21 12:43:44.890625000,-55.0,8.0,35.5,73.00546875,-37.36,0.3444616875,238.65
2021-06-21 12:43:44.898437500,-55.0,8.0,35.75,73.005078125,-28.08,0.34458178125,238.65
2021-06-21 12:43:44.906250000,-55.0,8.0,36.0,73.0046875,-18.8,0.344701875,238.65
2021-06-21 12:43:44.914062500,-54.75,8.25,36.0,73.004296875,-10.575000000000001,0.34482196875,238.65
2021-06-21 12:43:44.921875000,-54.5,8.5,36.0,73.00390625,-2.35,0.3449420625,238.65
2021-06-21 12:43:44.929687500,-54.25,8.75,36.0,73.003515625,4.289999999999999,0.34506215625,238.65
2021-06-21 12:43:44.937500000,-54.0,9.0,36.0,73.003125,10.93,0.34518224999999997,238.65
2021-06-21 12:43:44.945312500,-53.75,9.25,36.0,73.002734375,15.82,0.34530234374999996,238.65
2021-06-21 12:43:44.953125000,-53.5,9.5,36.0,73.00234375,20.71,0.34542243749999996,238.65
2021-06-21 12:43:44.960937500,-53.25,9.75,36.0,73.001953125,23.985,0.34554253125,238.65
2021-06-21 12:43:44.968750000,-53.0,10.0,36.0,73.0015625,27.26,0.345662625,238.65
2021-06-21 12:43:44.976562500,-53.0,10.0,36.0,73.001171875,29.270000000000003,0.34578271875,238.65
2021-06-21 12:43:44.984375000,-53.0,10.0,36.0,73.00078125,31.28,0.3459028125,238.65
2021-06-21 12:43:44.992187500,-53.0,10.0,36.0,73.000390625,32.46,0.34602290625,238.65
2021-06-21 12:43:45.000000000,-53.0,10.0,36.0,73.0,33.64,0.346143,238.65
2021-06-21 12:43:45.007812500,-52.75,10.25,36.0,72.999609375,34.425,0.34598287499999997,238.65
2021-06-21 12:43:45.015625000,-52.5,10.5,36.0,72.99921875,35.21,0.34582274999999996,238.65
2021-06-21 12:43:45.023437500,-52.25,10.75,36.0,72.998828125,35.91,0.345662625,238.65
2021-06-21 12:43:45.031250000,-52.0,11.0,36.0,72.9984375,36.61,0.3455025,238.65
2021-06-21 12:43:45.039062500,-52.25,11.0,36.0,72.998046875,37.364999999999995,0.345342375,238.65
2021-06-21 12:43:45.046875000,-52.5,11.0,36.0,72.99765625,38.12,0.34518224999999997,238.65
2021-06-21 12:43:45.054687500,-52.75,11.0,36.0,72.997265625,38.925,0.345022125,238.65
2021-06-21 12:43:45.062500000,-53.0,11.0,36.0,72.996875,39.73,0.344862,238.65
2021-06-21 12:43:45.070312500,-53.0,11.0,36.0,72.996484375,40.48,0.344701875,238.65
2021-06-21 12:43:45.078125000,-53.0,11.0,36.0,72.99609375,41.23,0.34454175,238.65
2021-06-21 12:43:45.085937500,-53.0,11.0,36.0,72.995703125,41.855,0.34438162499999997,238.65
2021-06-21 12:43:45.093750000,-53.0,11.0,36.0,72.9953125,42.48,0.3442215,238.65
2021-06-21 12:43:45.101562500,-53.25,10.75,36.0,72.994921875,42.95,0.344061375,238.65
2021-06-21 12:43:45.109375000,-53.5,10.5,36.0,72.99453125,43.42,0.34390125,238.65
2021-06-21 12:43:45.117187500,-53.75,10.25,36.0,72.994140625,43.79,0.343741125,238.65
2021-06-21 12:43:45.125000000,-54.0,10.0,36.0,72.99375,44.16,0.343581,238.65
2021-06-21 12:43:45.132812500,-54.0,10.0,36.0,72.993359375,44.489999999999995,0.343420875,238.65
2021-06-21 12:43:45.140625000,-54.0,10.0,36.0,72.99296875,44.82,0.34326075,238.65
2021-06-21 12:43:45.148437500,-54.0,10.0,36.0,72.992578125,45.15,0.343100625,238.65
2021-06-21 12:43:45.156250000,-54.0,10.0,36.0,72.9921875,45.48,0.3429405,238.65
2021-06-21 12:43:45.164062500,-54.0,10.0,36.0,72.991796875,45.84,0.342780375,238.65
2021-06-21 12:43:45.171875000,-54.0,10.0,36.0,72.99140625,46.2,0.34262025,238.65
2021-06-21 12:43:45.179687500,-54.0,10.0,36.0,72.991015625,46.565,0.342460125,238.65
2021-06-21 12:43:45.187500000,-54.0,10.0,36.0,72.990625,46.93,0.3423,238.65
2021-06-21 12:43:45.195312500,-54.0,10.0,36.0,72.990234375,47.275,0.342139875,238.65
2021-06-21 12:43:45.203125000,-54.0,10.0,36.0,72.98984375,47.62,0.34197975,238.65
2021-06-21 12:43:45.210937500,-54.0,10.0,36.0,72.989453125,47.89,0.341819625,238.65
2021-06-21 12:43:45.218750000,-54.0,10.0,36.0,72.9890625,48.16,0.3416595,238.65
2021-06-21 12:43:45.226562500,-53.75,10.0,36.0,72.988671875,48.28,0.341499375,238.65
2021-06-21 12:43:45.234375000,-53.5,10.0,36.0,72.98828125,48.4,0.34133925000000004,238.65
2021-06-21 12:43:45.242187500,-53.25,10.0,36.0,72.987890625,48.25,0.341179125,238.65
2021-06-21 12:43:45.250000000,-53.0,10.0,36.0,72.9875,48.1,0.341019,238.65
2021-06-21 12:43:45.257812500,-53.0,10.0,35.75,72.987109375,47.545,0.34113909375,238.65
2021-06-21 12:43:45.265625000,-53.0,10.0,35.5,72.98671875,46.99,0.3412591875,238.65
2021-06-21 12:43:45.273437500,-53.0,10.0,35.25,72.986328125,45.92,0.34137928125,238.65
2021-06-21 12:43:45.281250000,-53.0,10.0,35.0,72.9859375,44.85,0.341499375,238.65
2021-06-21 12:43:45.289062500,-53.0,10.25,35.0,72.985546875,43.235,0.34161946875,238.65
2021-06-21 12:43:45.296875000,-53.0,10.5,35.0,72.98515625,41.62,0.34173956250000004,238.65
2021-06-21 12:43:45.304687500,-53.0,10.75,35.0,72.984765625,39.525,0.34185965625000003,238.65
2021-06-21 12:43:45.312500000,-53.0,11.0,35.0,72.984375,37.43,0.34197975,238.65
2021-06-21 12:43:45.320312500,-53.0,11.0,35.25,72.983984375,34.989999999999995,0.34209984375,238.65
2021-06-21 12:43:45.328125000,-53.0,11.0,35.5,72.98359375,32.55,0.3422199375,238.65
2021-06-21 12:43:45.335937500,-53.0,11.0,35.75,72.983203125,29.979999999999997,0.34234003125,238.65
2021-06-21 12:43:45.343750000,-53.0,11.0,36.0,72.9828125,27.41,0.342460125,238.65
2021-06-21 12:43:45.351562500,-53.0,11.0,36.0,72.982421875,24.895,0.34258021875,238.65
2021-06-21 12:43:45.359375000,-53.0,11.0,36.0,72.98203125,22.38,0.3427003125,238.65
2021-06-21 12:43:45.367187500,-53.0,11.0,36.0,72.981640625,20.055,0.34282040625,238.65
2021-06-21 12:43:45.375000000,-53.0,11.0,36.0,72.98125,17.73,0.3429405,238.65
2021-06-21 12:43:45.382812500,-53.0,11.0,36.0,72.980859375,15.629999999999999,0.34306059375000003,238.65
2021-06-21 12:43:45.390625000,-53.0,11.0,36.0,72.98046875,13.53,0.3431806875,238.65
2021-06-21 12:43:45.398437500,-53.0,11.0,36.0,72.980078125,11.58,0.34330078125,238.65
2021-06-21 12:43:45.406250000,-53.0,11.0,36.0,72.9796875,9.63,0.343420875,238.65
2021-06-21 12:43:45.414062500,-53.25,11.0,36.0,72.979296875,7.695,0.34354096875,238.65
2021-06-21 12:43:45.421875000,-53.5,11.0,36.0,72.97890625,5.76,0.3436610625,238.65
2021-06-21 12:43:45.429687500,-53.75,11.0,36.0,72.978515625,3.695,0.34378115625,238.65
2021-06-21 12:43:45.437500000,-54.0,11.0,36.0,72.978125,1.63,0.34390125,238.65
2021-06-21 12:43:45.445312500,-53.75,10.75,36.0,72.977734375,-0.6749999999999998,0.34402134375,238.65
2021-06-21 12:43:45.453125000,-53.5,10.5,36.0,72.97734375,-2.98,0.3441414375,238.65
2021-06-21 12:43:45.460937500,-53.25,10.25,36.0,72.976953125,-5.525,0.34426153125000003,238.65
2021-06-21 12:43:45.468750000,-53.0,10.0,36.0,72.9765625,-8.07,0.344381625,238.65
2021-06-21 12:43:45.476562500,-53.0,10.0,36.0,72.976171875,-10.77,0.34450171875,238.65
2021-06-21 12:43:45.484375000,-53.0,10.0,36.0,72.97578125,-13.47,0.3446218125,238.65
2021-06-21 12:43:45.492187500,-53.0,10.0,36.0,72.975390625,-16.19,0.34474190625,238.65
2021-06-21 12:43:45.500000000,-53.0,10.0,36.0,72.975,-18.91,0.344862,238.65
2021-06-21 12:43:45.507812500,-53.0,10.0,36.0,72.974609375,-21.525,0.34482196875,238.65
2021-06-21 12:43:45.515625000,-53.0,10.0,36.0,72.97421875,-24.14,0.3447819375,238.65
2021-06-21 12:43:45.523437500,-53.0,10.0,36.0,72.973828125,-26.585,0.34474190625,238.65
2021-06-21 12:43:45.531250000,-53.0,10.0,36.0,72.9734375,-29.03,0.344701875,238.65
2021-06-21 12:43:45.539062500,-53.0,10.0,36.25,72.97304687500001,-31.255,0.34466184375000003,238.65
2021-06-21 12:43:45.546875000,-53.0,10.0,36.5,72.97265625,-33.48,0.3446218125,238.65
2021-06-21 12:43:45.554687500,-53.0,10.0,36.75,72.972265625,-35.504999999999995,0.34458178125,238.65
2021-06-21 12:43:45.562500000,-53.0,10.0,37.0,72.971875,-37.53,0.34454175,238.65
2021-06-21 12:43:45.570312500,-53.0,10.0,37.0,72.971484375,-39.44,0.34450171875,238.65
2021-06-21 12:43:45.578125000,-53.0,10.0,37.0,72.97109375000001,-41.35,0.3444616875,238.65
2021-06-21 12:43:45.585937500,-53.0,10.0,37.0,72.970703125,-43.305,0.34442165625,238.65
2021-06-21 12:43:45.593750000,-53.0,10.0,37.0,72.9703125,-45.26,0.344381625,238.65
2021-06-21 12:43:45.601562500,-53.0,10.0,37.0,72.969921875,-47.535,0.34434159375,238.65
2021-06-21 12:43:45.609375000,-53.0,10.0,37.0,72.96953125,-49.81,0.3443015625,238.65
2021-06-21 12:43:45.617187500,-53.0,10.0,37.0,72.96914062500001,-52.685,0.34426153125000003,238.65
2021-06-21 12:43:45.625000000,-53.0,10.0,37.0,72.96875,-55.56,0.3442215,238.65
2021-06-21 12:43:45.632812500,-53.0,10.0,37.0,72.968359375,-59.230000000000004,0.34418146875,238.65
2021-06-21 12:43:45.640625000,-53.0,10.0,37.0,72.96796875,-62.9,0.34414143750000004,238.65
2021-06-21 12:43:45.648437500,-53.0,10.0,37.0,72.967578125,-67.295,0.34410140625,238.65
2021-06-21 12:43:45.656250000,-53.0,10.0,37.0,72.96718750000001,-71.69,0.344061375,238.65
2021-06-21 12:43:45.664062500,-52.75,10.0,36.75,72.966796875,-76.33,0.34402134375000004,238.65
2021-06-21 12:43:45.671875000,-52.5,10.0,36.5,72.96640625,-80.97,0.3439813125,238.65
2021-06-21 12:43:45.679687500,-52.25,10.0,36.25,72.966015625,-85.0,0.34394128125,238.65
2021-06-21 12:43:45.687500000,-52.0,10.0,36.0,72.965625,-89.03,0.34390125000000005,238.65
2021-06-21 12:43:45.695312500,-52.25,10.0,36.25,72.96523437500001,-91.41499999999999,0.34386121875000003,238.65
2021-06-21 12:43:45.703125000,-52.5,10.0,36.5,72.96484375,-93.8,0.3438211875,238.65
2021-06-21 12:43:45.710937500,-52.75,10.0,36.75,72.964453125,-93.61,0.34378115625,238.65
2021-06-21 12:43:45.718750000,-53.0,10.0,37.0,72.9640625,-93.42,0.34374112500000004,238.65
2021-06-21 12:43:45.726562500,-52.75,10.0,37.0,72.963671875,-90.16499999999999,0.34370109375,238.65
2021-06-21 12:43:45.734375000,-52.5,10.0,37.0,72.96328125000001,-86.91,0.3436610625,238.65
2021-06-21 12:43:45.742187500,-52.25,10.0,37.0,72.962890625,-80.705,0.34362103125000004,238.65
2021-06-21 12:43:45.750000000,-52.0,10.0,37.0,72.9625,-74.5,0.343581,238.65
2021-06-21 12:43:45.757812500,-52.0,10.0,37.0,72.962109375,-66.03999999999999,0.34346090625000003,238.65
2021-06-21 12:43:45.765625000,-52.0,10.0,37.0,72.96171875,-57.58,0.34334081250000004,238.65
2021-06-21 12:43:45.773437500,-52.0,10.0,37.0,72.96132812500001,-47.955,0.34322071875000004,238.65
2021-06-21 12:43:45.781250000,-52.0,10.0,37.0,72.9609375,-38.33,0.34310062500000005,238.65
2021-06-21 12:43:45.789062500,-52.25,10.0,37.0,72.960546875,-28.695,0.34298053125,238.65
2021-06-21 12:43:45.796875000,-52.5,10.0,37.0,72.96015625,-19.06,0.3428604375,238.65
2021-06-21 12:43:45.804687500,-52.75,10.0,37.0,72.959765625,-10.389999999999999,0.34274034375,238.65
2021-06-21 12:43:45.812500000,-53.0,10.0,37.0,72.95937500000001,-1.72,0.34262025,238.65
2021-06-21 12:43:45.820312500,-53.0,10.0,37.0,72.958984375,5.36,0.34250015625,238.65
2021-06-21 12:43:45.828125000,-53.0,10.0,37.0,72.95859375,12.44,0.3423800625,238.65
2021-06-21 12:43:45.835937500,-53.0,10.0,37.0,72.958203125,17.69,0.34225996875000003,238.65
2021-06-21 12:43:45.843750000,-53.0,10.0,37.0,72.9578125,22.94,0.342139875,238.65
2021-06-21 12:43:45.851562500,-52.75,10.0,37.0,72.95742187500001,26.450000000000003,0.34201978125,238.65
2021-06-21 12:43:45.859375000,-52.5,10.0,37.0,72.95703125,29.96,0.3418996875,238.65
2021-06-21 12:43:45.867187500,-52.25,10.0,37.0,72.956640625,32.010000000000005,0.34177959375,238.65
2021-06-21 12:43:45.875000000,-52.0,10.0,37.0,72.95625,34.06,0.3416595,238.65
2021-06-21 12:43:45.882812500,-52.0,10.0,37.0,72.955859375,35.035,0.34153940625,238.65
2021-06-21 12:43:45.890625000,-52.0,10.0,37.0,72.95546875000001,36.01,0.3414193125,238.65
2021-06-21 12:43:45.898437500,-52.0,10.0,37.0,72.955078125,36.28,0.34129921875,238.65
2021-06-21 12:43:45.906250000,-52.0,10.0,37.0,72.9546875,36.55,0.341179125,238.65
2021-06-21 12:43:45.914062500,-52.25,10.0,37.0,72.954296875,36.459999999999994,0.34105903125,238.65
2021-06-21 12:43:45.921875000,-52.5,10.0,37.0,72.95390625,36.37,0.3409389375,238.65
2021-06-21 12:43:45.929687500,-52.75,10.0,37.0,72.95351562500001,36.22,0.34081884375,238.65
2021-06-21 12:43:45.937500000,-53.0,10.0,37.0,72.953125,36.07,0.34069875,238.65
2021-06-21 12:43:45.945312500,-53.0,10.0,37.0,72.952734375,36.095,0.34057865625,238.65
2021-06-21 12:43:45.953125000,-53.0,10.0,37.0,72.95234375,36.12,0.3404585625,238.65
2021-06-21 12:43:45.960937500,-53.0,10.0,37.0,72.951953125,36.435,0.34033846875,238.65
2021-06-21 12:43:45.968750000,-53.0,10.0,37.0,72.95156250000001,36.75,0.34021837499999996,238.65
2021-06-21 12:43:45.976562500,-52.75,10.0,37.0,72.951171875,37.34,0.34009828124999997,238.65
2021-06-21 12:43:45.984375000,-52.5,10.0,37.0,72.95078125,37.93,0.3399781875,238.65
2021-06-21 12:43:45.992187500,-52.25,10.0,37.0,72.950390625,38.665,0.33985809375,238.65
2021-06-21 12:43:46.000000000,-52.0,10.0,37.0,72.95,39.4,0.339738,238.65
2021-06-21 12:43:46.007812500,-52.25,10.25,37.0,72.949453125,40.06,0.339898125,238.65
2021-06-21 12:43:46.015625000,-52.5,10.5,37.0,72.94890625000001,40.72,0.34005825,238.65
2021-06-21 12:43:46.023437500,-52.75,10.75,37.0,72.94835937500001,41.095,0.34021837499999996,238.65
2021-06-21 12:43:46.031250000,-53.0,11.0,37.0,72.9478125,41.47,0.3403785,238.65
2021-06-21 12:43:46.039062500,-53.0,11.0,37.0,72.947265625,41.46,0.340538625,238.65
2021-06-21 12:43:46.046875000,-53.0,11.0,37.0,72.94671875,41.45,0.34069875,238.65
2021-06-21 12:43:46.054687500,-53.0,11.0,37.0,72.946171875,41.105000000000004,0.340858875,238.65
2021-06-21 12:43:46.062500000,-53.0,11.0,37.0,72.945625,40.76,0.34101899999999996,238.65
2021-06-21 12:43:46.070312500,-52.75,11.0,36.75,72.94507812500001,40.215,0.34117912499999997,238.65
2021-06-21 12:43:46.078125000,-52.5,11.0,36.5,72.94453125,39.67,0.34133925,238.65
2021-06-21 12:43:46.085937500,-52.25,11.0,36.25,72.943984375,39.075,0.341499375,238.65
2021-06-21 12:43:46.093750000,-52.0,11.0,36.0,72.9434375,38.48,0.3416595,238.65
2021-06-21 12:43:46.101562500,-52.0,11.0,36.0,72.942890625,37.894999999999996,0.341819625,238.65
2021-06-21 12:43:46.109375000,-52.0,11.0,36.0,72.94234375,37.31,0.34197974999999997,238.65
2021-06-21 12:43:46.117187500,-52.0,11.0,36.0,72.94179687500001,36.68,0.342139875,238.65
2021-06-21 12:43:46.125000000,-52.0,11.0,36.0,72.94125,36.05,0.3423,238.65
2021-06-21 12:43:46.132812500,-52.25,11.0,36.25,72.940703125,35.239999999999995,0.342460125,238.65
2021-06-21 12:43:46.140625000,-52.5,11.0,36.5,72.94015625,34.43,0.34262025,238.65
2021-06-21 12:43:46.148437500,-52.75,11.0,36.75,72.939609375,33.32,0.34278037499999997,238.65
2021-06-21 12:43:46.156250000,-53.0,11.0,37.0,72.9390625,32.21,0.3429405,238.65
2021-06-21 12:43:46.164062500,-53.0,11.0,37.0,72.93851562500001,30.8,0.343100625,238.65
2021-06-21 12:43:46.171875000,-53.0,11.0,37.0,72.93796875,29.39,0.34326075,238.65
2021-06-21 12:43:46.179687500,-53.0,11.0,37.0,72.937421875,27.759999999999998,0.343420875,238.65
2021-06-21 12:43:46.187500000,-53.0,11.0,37.0,72.936875,26.13,0.343581,238.65
2021-06-21 12:43:46.195312500,-53.0,11.0,37.0,72.936328125,24.395,0.343741125,238.65
2021-06-21 12:43:46.203125000,-53.0,11.0,37.0,72.93578125,22.66,0.34390125,238.65
2021-06-21 12:43:46.210937500,-53.0,11.0,37.0,72.93523437500001,20.884999999999998,0.344061375,238.65
2021-06-21 12:43:46.218750000,-53.0,11.0,37.0,72.9346875,19.11,0.3442215,238.65
2021-06-21 12:43:46.226562500,-52.75,11.0,36.75,72.934140625,17.24,0.344381625,238.65
2021-06-21 12:43:46.234375000,-52.5,11.0,36.5,72.93359375,15.37,0.34454175,238.65
2021-06-21 12:43:46.242187500,-52.25,11.0,36.25,72.933046875,13.305,0.344701875,238.65
2021-06-21 12:43:46.250000000,-52.0,11.0,36.0,72.9325,11.24,0.344862,238.65
2021-06-21 12:43:46.257812500,-52.25,11.0,36.25,72.931953125,8.885,0.344701875,238.65
2021-06-21 12:43:46.265625000,-52.5,11.0,36.5,72.93140625,6.53,0.34454175,238.65
2021-06-21 12:43:46.273437500,-52.75,11.0,36.75,72.930859375,3.865,0.344381625,238.65
2021-06-21 12:43:46.281250000,-53.0,11.0,37.0,72.9303125,1.2,0.3442215,238.65
2021-06-21 12:43:46.289062500,-53.0,11.0,37.0,72.929765625,-1.635,0.344061375,238.65
2021-06-21 12:43:46.296875000,-53.0,11.0,37.0,72.92921875,-4.47,0.34390125,238.65
2021-06-21 12:43:46.304687500,-53.0,11.0,37.0,72.928671875,-7.295,0.343741125,238.65
2021-06-21 12:43:46.312500000,-53.0,11.0,37.0,72.928125,-10.12,0.343581,238.65
2021-06-21 12:43:46.320312500,-52.75,11.0,37.0,72.927578125,-12.715,0.343420875,238.65
2021-06-21 12:43:46.328125000,-52.5,11.0,37.0,72.92703125,-15.31,0.34326075,238.65
2021-06-21 12:43:46.335937500,-52.25,11.0,37.0,72.926484375,-17.595,0.343100625,238.65
2021-06-21 12:43:46.343750000,-52.0,11.0,37.0,72.9259375,-19.88,0.3429405,238.65
2021-06-21 12:43:46.351562500,-52.25,11.0,37.0,72.925390625,-21.905,0.34278037499999997,238.65
2021-06-21 12:43:46.359375000,-52.5,11.0,37.0,72.92484375,-23.93,0.34262025,238.65
2021-06-21 12:43:46.367187500,-52.75,11.0,37.0,72.924296875,-25.895,0.342460125,238.65
2021-06-21 12:43:46.375000000,-53.0,11.0,37.0,72.92375,-27.86,0.3423,238.65
2021-06-21 12:43:46.382812500,-53.0,11.0,37.0,72.923203125,-30.05,0.342139875,238.65
2021-06-21 12:43:46.390625000,-53.0,11.0,37.0,72.92265625,-32.24,0.34197974999999997,238.65
2021-06-21 12:43:46.398437500,-53.0,11.0,37.0,72.922109375,-34.945,0.341819625,238.65
2021-06-21 12:43:46.406250000,-53.0,11.0,37.0,72.9215625,-37.65,0.3416595,238.65
2021-06-21 12:43:46.414062500,-52.75,11.0,37.0,72.921015625,-41.03,0.341499375,238.65
2021-06-21 12:43:46.421875000,-52.5,11.0,37.0,72.92046875,-44.41,0.34133925,238.65
2021-06-21 12:43:46.429687500,-52.25,11.0,37.0,72.919921875,-48.41,0.34117912499999997,238.65
2021-06-21 12:43:46.437500000,-52.0,11.0,37.0,72.919375,-52.41,0.34101899999999996,238.65
2021-06-21 12:43:46.445312500,-52.0,11.0,37.0,72.918828125,-56.715,0.340858875,238.65
2021-06-21 12:43:46.453125000,-52.0,11.0,37.0,72.91828124999999,-61.02,0.34069875,238.65
2021-06-21 12:43:46.460937500,-52.0,11.0,37.0,72.917734375,-64.99,0.340538625,238.65
2021-06-21 12:43:46.468750000,-52.0,11.0,37.0,72.9171875,-68.96,0.3403785,238.65
2021-06-21 12:43:46.476562500,-52.25,11.0,37.0,72.916640625,-71.78,0.34021837499999996,238.65
2021-06-21 12:43:46.484375000,-52.5,11.0,37.0,72.91609375,-74.6,0.34005825,238.65
2021-06-21 12:43:46.492187500,-52.75,11.0,37.0,72.915546875,-75.41999999999999,0.339898125,238.65
2021-06-21 12:43:46.500000000,-53.0,11.0,37.0,72.91499999999999,-76.24,0.339738,238.65
2021-06-21 12:43:46.507812500,-53.0,11.0,37.0,72.914453125,-74.485,0.33985809375,238.65
2021-06-21 12:43:46.515625000,-53.0,11.0,37.0,72.91390625,-72.73,0.3399781875,238.65
2021-06-21 12:43:46.523437500,-53.0,11.0,37.0,72.913359375,-68.265,0.34009828124999997,238.65
2021-06-21 12:43:46.531250000,-53.0,11.0,37.0,72.9128125,-63.8,0.34021837499999996,238.65
2021-06-21 12:43:46.539062500,-53.0,11.0,37.0,72.912265625,-57.05,0.34033846875,238.65
2021-06-21 12:43:46.546875000,-53.0,11.0,37.0,72.91171875,-50.3,0.3404585625,238.65
2021-06-21 12:43:46.554687500,-53.0,11.0,37.0,72.911171875,-42.129999999999995,0.34057865625,238.65
2021-06-21 12:43:46.562500000,-53.0,11.0,37.0,72.910625,-33.96,0.34069875,238.65
2021-06-21 12:43:46.570312500,-52.75,11.0,36.75,72.910078125,-25.415,0.34081884375,238.65
2021-06-21 12:43:46.578125000,-52.5,11.0,36.5,72.90953125,-16.87,0.3409389375,238.65
2021-06-21 12:43:46.585937500,-52.25,11.0,36.25,72.908984375,-8.905000000000001,0.34105903125,238.65
2021-06-21 12:43:46.593750000,-52.0,11.0,36.0,72.9084375,-0.94,0.341179125,238.65
2021-06-21 12:43:46.601562500,-52.0,11.0,36.25,72.907890625,5.824999999999999,0.34129921875,238.65
2021-06-21 12:43:46.609375000,-52.0,11.0,36.5,72.90734375,12.59,0.3414193125,238.65
2021-06-21 12:43:46.617187500,-52.0,11.0,36.75,72.906796875,17.905,0.34153940625,238.65
2021-06-21 12:43:46.625000000,-52.0,11.0,37.0,72.90625,23.22,0.3416595,238.65
2021-06-21 12:43:46.632812500,-52.25,11.0,37.0,72.905703125,27.119999999999997,0.34177959375,238.65
2021-06-21 12:43:46.640625000,-52.5,11.0,37.0,72.90515625,31.02,0.3418996875,238.65
2021-06-21 12:43:46.648437500,-52.75,11.0,37.0,72.90460937499999,33.675,0.34201978125,238.65
2021-06-21 12:43:46.656250000,-53.0,11.0,37.0,72.9040625,36.33,0.342139875,238.65
2021-06-21 12:43:46.664062500,-53.0,11.0,37.0,72.903515625,37.92,0.34225996875000003,238.65
2021-06-21 12:43:46.671875000,-53.0,11.0,37.0,72.90296875,39.51,0.3423800625,238.65
2021-06-21 12:43:46.679687500,-53.0,11.0,37.0,72.902421875,40.16,0.34250015625,238.65
2021-06-21 12:43:46.687500000,-53.0,11.0,37.0,72.901875,40.81,0.34262025,238.65
2021-06-21 12:43:46.695312500,-52.75,11.0,36.75,72.90132812499999,40.675,0.34274034375,238.65
2021-06-21 12:43:46.703125000,-52.5,11.0,36.5,72.90078125,40.54,0.3428604375,238.65
2021-06-21 12:43:46.710937500,-52.25,11.0,36.25,72.900234375,39.825,0.34298053125,238.65
2021-06-21 12:43:46.718750000,-52.0,11.0,36.0,72.8996875,39.11,0.34310062500000005,238.65
2021-06-21 12:43:46.726562500,-52.0,11.0,36.25,72.899140625,38.095,0.34322071875000004,238.65
2021-06-21 12:43:46.734375000,-52.0,11.0,36.5,72.89859375,37.08,0.34334081250000004,238.65
2021-06-21 12:43:46.742187500,-52.0,11.0,36.75,72.89804687499999,36.075,0.34346090625000003,238.65
2021-06-21 12:43:46.750000000,-52.0,11.0,37.0,72.8975,35.07,0.343581,238.65
2021-06-21 12:43:46.757812500,-52.25,11.0,37.0,72.896953125,34.31,0.343420875,238.65
2021-06-21 12:43:46.765625000,-52.5,11.0,37.0,72.89640625,33.55,0.34326075,238.65
2021-06-21 12:43:46.773437500,-52.75,11.0,37.0,72.895859375,33.11,0.34310062500000005,238.65
2021-06-21 12:43:46.781250000,-53.0,11.0,37.0,72.8953125,32.67,0.34294050000000004,238.65
2021-06-21 12:43:46.789062500,-53.0,11.0,37.0,72.89476562499999,32.47,0.342780375,238.65
2021-06-21 12:43:46.796875000,-53.0,11.0,37.0,72.89421875,32.27,0.34262025,238.65
2021-06-21 12:43:46.804687500,-53.0,11.0,37.0,72.893671875,32.11,0.342460125,238.65
2021-06-21 12:43:46.812500000,-53.0,11.0,37.0,72.893125,31.95,0.34230000000000005,238.65
2021-06-21 12:43:46.820312500,-52.75,11.0,37.0,72.892578125,31.655,0.34213987500000004,238.65
2021-06-21 12:43:46.828125000,-52.5,11.0,37.0,72.89203125,31.36,0.34197975,238.65
2021-06-21 12:43:46.835937500,-52.25,11.0,37.0,72.89148437499999,30.875,0.341819625,238.65
2021-06-21 12:43:46.843750000,-52.0,11.0,37.0,72.89093749999999,30.39,0.3416595,238.65
2021-06-21 12:43:46.851562500,-52.0,11.0,37.0,72.890390625,29.78,0.341499375,238.65
2021-06-21 12:43:46.859375000,-52.0,11.0,37.0,72.88984375,29.17,0.34133925000000004,238.65
2021-06-21 12:43:46.867187500,-52.0,11.0,37.0,72.889296875,28.590000000000003,0.341179125,238.65
2021-06-21 12:43:46.875000000,-52.0,11.0,37.0,72.88875,28.01,0.341019,238.65
2021-06-21 12:43:46.882812500,-52.0,11.0,37.0,72.88820312499999,27.61,0.340858875,238.65
2021-06-21 12:43:46.890625000,-52.0,11.0,37.0,72.88765624999999,27.21,0.34069875,238.65
2021-06-21 12:43:46.898437500,-52.0,11.0,37.0,72.887109375,26.975,0.34053862500000004,238.65
2021-06-21 12:43:46.906250000,-52.0,11.0,37.0,72.8865625,26.74,0.34037850000000003,238.65
2021-06-21 12:43:46.914062500,-52.0,11.0,37.0,72.886015625,26.505,0.340218375,238.65
2021-06-21 12:43:46.921875000,-52.0,11.0,37.0,72.88546875,26.27,0.34005825,238.65
2021-06-21 12:43:46.929687500,-52.0,11.0,37.0,72.88492187499999,25.765,0.339898125,238.65
2021-06-21 12:43:46.937500000,-52.0,11.0,37.0,72.88437499999999,25.26,0.339738,238.65
2021-06-21 12:43:46.945312500,-52.0,11.0,37.0,72.883828125,24.215000000000003,0.33957787500000003,238.65
2021-06-21 12:43:46.953125000,-52.0,11.0,37.0,72.88328125,23.17,0.33941775,238.65
2021-06-21 12:43:46.960937500,-52.0,11.0,37.0,72.882734375,21.415,0.339257625,238.65
2021-06-21 12:43:46.968750000,-52.0,11.0,37.0,72.8821875,19.66,0.3390975,238.65
2021-06-21 12:43:46.976562500,-52.25,11.0,37.0,72.88164062499999,17.215,0.338937375,238.65
2021-06-21 12:43:46.984375000,-52.5,11.0,37.0,72.88109374999999,14.77,0.33877725000000003,238.65
2021-06-21 12:43:46.992187500,-52.75,11.0,37.0,72.880546875,11.825,0.338617125,238.65
2021-06-21 12:43:47.000000000,-53.0,11.0,37.0,72.88,8.88,0.338457,238.65
2021-06-21 12:43:47.007812500,-52.75,11.0,37.0,72.87953125,5.7250000000000005,0.338617125,238.65
2021-06-21 12:43:47.015625000,-52.5,11.0,37.0,72.87906249999999,2.57,0.33877725000000003,238.65
2021-06-21 12:43:47.023437500,-52.25,11.0,37.0,72.87859375,-0.5249999999999999,0.338937375,238.65
2021-06-21 12:43:47.031250000,-52.0,11.0,37.0,72.878125,-3.62,0.3390975,238.65
2021-06-21 12:43:47.039062500,-52.0,11.0,37.0,72.87765625,-6.475,0.339257625,238.65
2021-06-21 12:43:47.046875000,-52.0,11.0,37.0,72.87718749999999,-9.33,0.33941775,238.65
2021-06-21 12:43:47.054687500,-52.0,11.0,37.0,72.87671875,-11.915,0.33957787500000003,238.65
2021-06-21 12:43:47.062500000,-52.0,11.0,37.0,72.87625,-14.5,0.339738,238.65
2021-06-21 12:43:47.070312500,-52.0,11.0,37.0,72.87578124999999,-16.95,0.339898125,238.65
2021-06-21 12:43:47.078125000,-52.0,11.0,37.0,72.87531249999999,-19.4,0.34005825,238.65
2021-06-21 12:43:47.085937500,-52.0,11.0,37.0,72.87484375,-21.955,0.340218375,238.65
2021-06-21 12:43:47.093750000,-52.0,11.0,37.0,72.874375,-24.51,0.34037850000000003,238.65
2021-06-21 12:43:47.101562500,-52.25,11.0,37.0,72.87390624999999,-27.48,0.34053862500000004,238.65
2021-06-21 12:43:47.109375000,-52.5,11.0,37.0,72.8734375,-30.45,0.34069875,238.65
2021-06-21 12:43:47.117187500,-52.75,11.0,37.0,72.87296875,-34.075,0.340858875,238.65
2021-06-21 12:43:47.125000000,-53.0,11.0,37.0,72.8725,-37.7,0.341019,238.65
2021-06-21 12:43:47.132812500,-53.0,11.0,37.0,72.87203124999999,-42.02,0.341179125,238.65
2021-06-21 12:43:47.140625000,-53.0,11.0,37.0,72.8715625,-46.34,0.34133925000000004,238.65
2021-06-21 12:43:47.148437500,-53.0,11.0,37.0,72.87109375,-51.06,0.341499375,238.65
2021-06-21 12:43:47.156250000,-53.0,11.0,37.0,72.87062499999999,-55.78,0.3416595,238.65
2021-06-21 12:43:47.164062500,-52.75,11.0,37.0,72.87015625,-60.255,0.341819625,238.65
2021-06-21 12:43:47.171875000,-52.5,11.0,37.0,72.8696875,-64.73,0.34197975,238.65
2021-06-21 12:43:47.179687500,-52.25,11.0,37.0,72.86921875,-68.025,0.34213987500000004,238.65
2021-06-21 12:43:47.187500000,-52.0,11.0,37.0,72.86874999999999,-71.32,0.34230000000000005,238.65
2021-06-21 12:43:47.195312500,-52.0,11.25,37.0,72.86828125,-72.495,0.342460125,238.65
2021-06-21 12:43:47.203125000,-52.0,11.5,37.0,72.8678125,-73.67,0.34262025,238.65
2021-06-21 12:43:47.210937500,-52.0,11.75,37.0,72.86734374999999,-72.07,0.342780375,238.65
2021-06-21 12:43:47.218750000,-52.0,12.0,37.0,72.866875,-70.47,0.34294050000000004,238.65
2021-06-21 12:43:47.226562500,-52.25,11.75,37.0,72.86640625,-66.00999999999999,0.34310062500000005,238.65
2021-06-21 12:43:47.234375000,-52.5,11.5,37.0,72.8659375,-61.55,0.34326075,238.65
2021-06-21 12:43:47.242187500,-52.75,11.25,37.0,72.86546874999999,-54.739999999999995,0.343420875,238.65
2021-06-21 12:43:47.250000000,-53.0,11.0,37.0,72.865,-47.93,0.343581,238.65
2021-06-21 12:43:47.257812500,-53.0,11.0,37.0,72.86453125,-39.775,0.343420875,238.65
2021-06-21 12:43:47.265625000,-53.0,11.0,37.0,72.86406249999999,-31.62,0.34326075,238.65
2021-06-21 12:43:47.273437500,-53.0,11.0,37.0,72.86359374999999,-23.26,0.34310062500000005,238.65
2021-06-21 12:43:47.281250000,-53.0,11.0,37.0,72.863125,-14.9,0.34294050000000004,238.65
2021-06-21 12:43:47.289062500,-52.75,11.0,37.0,72.86265625,-7.33,0.342780375,238.65
2021-06-21 12:43:47.296875000,-52.5,11.0,37.0,72.86218749999999,0.24,0.34262025,238.65
2021-06-21 12:43:47.304687500,-52.25,11.0,37.0,72.86171875,6.43,0.342460125,238.65
2021-06-21 12:43:47.312500000,-52.0,11.0,37.0,72.86125,12.62,0.34230000000000005,238.65
2021-06-21 12:43:47.320312500,-52.25,11.0,37.0,72.86078124999999,17.24,0.34213987500000004,238.65
2021-06-21 12:43:47.328125000,-52.5,11.0,37.0,72.86031249999999,21.86,0.34197975,238.65
2021-06-21 12:43:47.335937500,-52.75,11.0,37.0,72.85984375,25.04,0.341819625,238.65
2021-06-21 12:43:47.343750000,-53.0,11.0,37.0,72.859375,28.22,0.3416595,238.65
2021-06-21 12:43:47.351562500,-52.75,11.0,37.0,72.85890624999999,30.18,0.341499375,238.65
2021-06-21 12:43:47.359375000,-52.5,11.0,37.0,72.8584375,32.14,0.34133925000000004,238.65
2021-06-21 12:43:47.367187500,-52.25,11.0,37.0,72.85796875,33.085,0.341179125,238.65
2021-06-21 12:43:47.375000000,-52.0,11.0,37.0,72.85749999999999,34.03,0.341019,238.65
2021-06-21 12:43:47.382812500,-52.25,11.0,37.0,72.85703124999999,34.165,0.340858875,238.65
2021-06-21 12:43:47.390625000,-52.5,11.0,37.0,72.8565625,34.3,0.34069875,238.65
2021-06-21 12:43:47.398437500,-52.75,11.0,37.0,72.85609375,33.82,0.34053862500000004,238.65
2021-06-21 12:43:47.406250000,-53.0,11.0,37.0,72.85562499999999,33.34,0.34037850000000003,238.65
2021-06-21 12:43:47.414062500,-52.75,11.0,37.25,72.85515625,32.510000000000005,0.340218375,238.65
2021-06-21 12:43:47.421875000,-52.5,11.0,37.5,72.8546875,31.68,0.34005825,238.65
2021-06-21 12:43:47.429687500,-52.25,11.0,37.75,72.85421875,30.814999999999998,0.339898125,238.65
2021-06-21 12:43:47.437500000,-52.0,11.0,38.0,72.85374999999999,29.95,0.339738,238.65
2021-06-21 12:43:47.445312500,-52.0,11.0,37.75,72.85328125,29.335,0.33957787500000003,238.65
2021-06-21 12:43:47.453125000,-52.0,11.0,37.5,72.8528125,28.72,0.33941775,238.65
2021-06-21 12:43:47.460937500,-52.0,11.0,37.25,72.85234374999999,28.5,0.339257625,238.65
2021-06-21 12:43:47.468750000,-52.0,11.0,37.0,72.85187499999999,28.28,0.3390975,238.65
2021-06-21 12:43:47.476562500,-52.0,11.25,37.0,72.85140625,28.415,0.338937375,238.65
2021-06-21 12:43:47.484375000,-52.0,11.5,37.0,72.8509375,28.55,0.33877725000000003,238.65
2021-06-21 12:43:47.492187500,-52.0,11.75,37.0,72.85046874999999,28.845,0.338617125,238.65
2021-06-21 12:43:47.500000000,-52.0,12.0,37.0,72.85,29.14,0.338457,238.65
2021-06-21 12:43:47.507812500,-52.0,11.75,37.0,72.84953125,29.35,0.338617125,238.65
2021-06-21 12:43:47.515625000,-52.0,11.5,37.0,72.84906249999999,29.56,0.33877725000000003,238.65
2021-06-21 12:43:47.523437500,-52.0,11.25,37.0,72.84859374999999,29.515,0.338937375,238.65
2021-06-21 12:43:47.531250000,-52.0,11.0,37.0,72.848125,29.47,0.3390975,238.65
2021-06-21 12:43:47.539062500,-52.0,11.0,37.0,72.84765625,29.14,0.339257625,238.65
2021-06-21 12:43:47.546875000,-52.0,11.0,37.0,72.84718749999999,28.81,0.33941775,238.65
2021-06-21 12:43:47.554687500,-52.0,11.0,37.0,72.84671875,28.285,0.33957787500000003,238.65
2021-06-21 12:43:47.562500000,-52.0,11.0,37.0,72.84625,27.76,0.339738,238.65
2021-06-21 12:43:47.570312500,-52.0,11.0,37.0,72.84578124999999,27.175,0.339898125,238.65
2021-06-21 12:43:47.578125000,-52.0,11.0,37.0,72.84531249999999,26.59,0.34005825,238.65
2021-06-21 12:43:47.585937500,-52.0,11.0,37.0,72.84484375,26.02,0.340218375,238.65
2021-06-21 12:43:47.593750000,-52.0,11.0,37.0,72.844375,25.45,0.34037850000000003,238.65
2021-06-21 12:43:47.601562500,-52.0,11.0,37.0,72.84390624999999,24.86,0.34053862500000004,238.65
2021-06-21 12:43:47.609375000,-52.0,11.0,37.0,72.8434375,24.27,0.34069875,238.65
2021-06-21 12:43:47.617187500,-52.0,11.0,37.0,72.84296875,23.52,0.340858875,238.65
2021-06-21 12:43:47.625000000,-52.0,11.0,37.0,72.8425,22.77,0.341019,238.65
2021-06-21 12:43:47.632812500,-52.0,11.0,37.0,72.84203124999999,21.685000000000002,0.341179125,238.65
2021-06-21 12:43:47.640625000,-52.0,11.0,37.0,72.8415625,20.6,0.34133925000000004,238.65
2021-06-21 12:43:47.648437500,-52.0,11.0,37.0,72.84109375,19.01,0.341499375,238.65
2021-06-21 12:43:47.656250000,-52.0,11.0,37.0,72.84062499999999,17.42,0.3416595,238.65
2021-06-21 12:43:47.664062500,-52.25,11.0,37.0,72.84015624999999,15.265,0.341819625,238.65
2021-06-21 12:43:47.671875000,-52.5,11.0,37.0,72.8396875,13.11,0.34197975,238.65
2021-06-21 12:43:47.679687500,-52.75,11.0,37.0,72.83921875,10.4,0.34213987500000004,238.65
2021-06-21 12:43:47.687500000,-53.0,11.0,37.0,72.83874999999999,7.69,0.34230000000000005,238.65
2021-06-21 12:43:47.695312500,-52.75,11.0,37.0,72.83828125,4.53,0.342460125,238.65
2021-06-21 12:43:47.703125000,-52.5,11.0,37.0,72.8378125,1.37,0.34262025,238.65
2021-06-21 12:43:47.710937500,-52.25,11.0,37.0,72.83734374999999,-2.045,0.342780375,238.65
2021-06-21 12:43:47.718750000,-52.0,11.0,37.0,72.83687499999999,-5.46,0.34294050000000004,238.65
2021-06-21 12:43:47.726562500,-52.0,11.0,37.0,72.83640625,-8.9,0.34310062500000005,238.65
2021-06-21 12:43:47.734375000,-52.0,11.0,37.0,72.8359375,-12.34,0.34326075,238.65
2021-06-21 12:43:47.742187500,-52.0,11.0,37.0,72.83546874999999,-15.56,0.343420875,238.65
2021-06-21 12:43:47.750000000,-52.0,11.0,37.0,72.835,-18.78,0.343581,238.65
2021-06-21 12:43:47.757812500,-52.0,11.25,37.0,72.83453125,-21.630000000000003,0.34346090625000003,238.65
2021-06-21 12:43:47.765625000,-52.0,11.5,37.0,72.83406249999999,-24.48,0.34334081250000004,238.65
2021-06-21 12:43:47.773437500,-52.0,11.75,37.0,72.83359374999999,-26.935000000000002,0.34322071875000004,238.65
2021-06-21 12:43:47.781250000,-52.0,12.0,37.0,72.833125,-29.39,0.34310062500000005,238.65
2021-06-21 12:43:47.789062500,-52.0,11.75,37.0,72.83265625,-31.62,0.34298053125,238.65
2021-06-21 12:43:47.796875000,-52.0,11.5,37.0,72.83218749999999,-33.85,0.3428604375,238.65
2021-06-21 12:43:47.804687500,-52.0,11.25,37.0,72.83171875,-36.125,0.34274034375,238.65
2021-06-21 12:43:47.812500000,-52.0,11.0,37.0,72.83125,-38.4,0.34262025,238.65
2021-06-21 12:43:47.820312500,-52.0,11.0,37.0,72.83078124999999,-41.105000000000004,0.34250015625,238.65
2021-06-21 12:43:47.828125000,-52.0,11.0,37.0,72.83031249999999,-43.81,0.3423800625,238.65
2021-06-21 12:43:47.835937500,-52.0,11.0,37.0,72.82984375,-47.245000000000005,0.34225996875000003,238.65
2021-06-21 12:43:47.843750000,-52.0,11.0,37.0,72.829375,-50.68,0.342139875,238.65
2021-06-21 12:43:47.851562500,-52.0,11.25,37.0,72.82890624999999,-54.925,0.34201978125,238.65
2021-06-21 12:43:47.859375000,-52.0,11.5,37.0,72.82843749999999,-59.17,0.3418996875,238.65
2021-06-21 12:43:47.867187500,-52.0,11.75,37.0,72.82796875,-63.95,0.34177959375,238.65
2021-06-21 12:43:47.875000000,-52.0,12.0,37.0,72.82749999999999,-68.73,0.3416595,238.65
2021-06-21 12:43:47.882812500,-52.0,12.0,37.0,72.82703124999999,-73.39500000000001,0.34153940625,238.65
2021-06-21 12:43:47.890625000,-52.0,12.0,37.0,72.8265625,-78.06,0.3414193125,238.65
2021-06-21 12:43:47.898437500,-52.0,12.0,37.0,72.82609375,-81.64,0.34129921875,238.65
2021-06-21 12:43:47.906250000,-52.0,12.0,37.0,72.82562499999999,-85.22,0.341179125,238.65
2021-06-21 12:43:47.914062500,-52.25,12.0,37.0,72.82515624999999,-86.715,0.34105903125,238.65
2021-06-21 12:43:47.921875000,-52.5,12.0,37.0,72.8246875,-88.21,0.3409389375,238.65
2021-06-21 12:43:47.929687500,-52.75,12.0,37.0,72.82421875,-86.88999999999999,0.34081884375,238.65
2021-06-21 12:43:47.937500000,-53.0,12.0,37.0,72.82374999999999,-85.57,0.34069875,238.65
2021-06-21 12:43:47.945312500,-52.75,11.75,37.0,72.82328125,-81.215,0.34057865625,238.65
2021-06-21 12:43:47.953125000,-52.5,11.5,37.0,72.8228125,-76.86,0.3404585625,238.65
2021-06-21 12:43:47.960937500,-52.25,11.25,37.0,72.82234374999999,-69.925,0.34033846875,238.65
2021-06-21 12:43:47.968750000,-52.0,11.0,37.0,72.82187499999999,-62.99,0.34021837499999996,238.65
2021-06-21 12:43:47.976562500,-52.0,11.0,37.0,72.82140625,-54.435,0.34009828124999997,238.65
2021-06-21 12:43:47.984375000,-52.0,11.0,37.0,72.8209375,-45.88,0.3399781875,238.65
2021-06-21 12:43:47.992187500,-52.0,11.0,37.0,72.82046874999999,-36.910000000000004,0.33985809375,238.65
2021-06-21 12:43:48.000000000,-52.0,11.0,37.0,72.82,-27.94,0.339738,238.65
2021-06-21 12:43:48.007812500,-52.0,11.0,37.25,72.81929687499999,-19.64,0.33977803125,238.65
2021-06-21 12:43:48.015625000,-52.0,11.0,37.5,72.81859374999999,-11.34,0.33981806249999996,238.65
2021-06-21 12:43:48.023437500,-52.0,11.0,37.75,72.81789062499999,-4.42,0.33985809375,238.65
2021-06-21 12:43:48.031250000,-52.0,11.0,38.0,72.81718749999999,2.5,0.339898125,238.65
2021-06-21 12:43:48.039062500,-52.0,11.0,37.75,72.81648437499999,7.79,0.33993815625,238.65
2021-06-21 12:43:48.046875000,-52.0,11.0,37.5,72.81578125,13.08,0.3399781875,238.65
2021-06-21 12:43:48.054687500,-52.0,11.0,37.25,72.815078125,16.87,0.34001821875,238.65
2021-06-21 12:43:48.062500000,-52.0,11.0,37.0,72.814375,20.66,0.34005825,238.65
2021-06-21 12:43:48.070312500,-52.0,11.0,37.0,72.813671875,23.295,0.34009828124999997,238.65
2021-06-21 12:43:48.078125000,-52.0,11.0,37.0,72.81296875,25.93,0.3401383125,238.65
2021-06-21 12:43:48.085937500,-52.0,11.0,37.0,72.812265625,27.8,0.34017834375,238.65
2021-06-21 12:43:48.093750000,-52.0,11.0,37.0,72.8115625,29.67,0.340218375,238.65
2021-06-21 12:43:48.101562500,-52.0,11.0,37.0,72.81085937499999,31.135,0.34025840625,238.65
2021-06-21 12:43:48.109375000,-52.0,11.0,37.0,72.81015624999999,32.6,0.3402984375,238.65
2021-06-21 12:43:48.117187500,-52.0,11.0,37.0,72.80945312499999,33.900000000000006,0.34033846875,238.65
2021-06-21 12:43:48.125000000,-52.0,11.0,37.0,72.80874999999999,35.2,0.34037850000000003,238.65
2021-06-21 12:43:48.132812500,-52.0,11.0,37.0,72.80804687499999,36.480000000000004,0.34041853125,238.65
2021-06-21 12:43:48.140625000,-52.0,11.0,37.0,72.80734375,37.76,0.3404585625,238.65
2021-06-21 12:43:48.148437500,-52.0,11.0,37.0,72.806640625,39.045,0.34049859375,238.65
2021-06-21 12:43:48.156250000,-52.0,11.0,37.0,72.8059375,40.33,0.340538625,238.65
2021-06-21 12:43:48.164062500,-52.0,11.0,37.0,72.805234375,41.54,0.34057865625,238.65
2021-06-21 12:43:48.171875000,-52.0,11.0,37.0,72.80453125,42.75,0.3406186875,238.65
2021-06-21 12:43:48.179687500,-52.0,11.0,37.0,72.803828125,43.769999999999996,0.34065871875000003,238.65
2021-06-21 12:43:48.187500000,-52.0,11.0,37.0,72.803125,44.79,0.34069875,238.65
2021-06-21 12:43:48.195312500,-52.0,11.0,37.0,72.802421875,45.485,0.34073878125,238.65
2021-06-21 12:43:48.203125000,-52.0,11.0,37.0,72.80171874999999,46.18,0.34077881250000003,238.65
2021-06-21 12:43:48.210937500,-52.0,11.0,37.0,72.80101562499999,46.485,0.34081884375,238.65
2021-06-21 12:43:48.218750000,-52.0,11.0,37.0,72.80031249999999,46.79,0.340858875,238.65
2021-06-21 12:43:48.226562500,-52.0,11.0,37.0,72.79960937499999,46.7,0.34089890625,238.65
2021-06-21 12:43:48.234375000,-52.0,11.0,37.0,72.79890625,46.61,0.34093893750000004,238.65
2021-06-21 12:43:48.242187500,-52.0,11.0,37.0,72.798203125,46.22,0.34097896875,238.65
2021-06-21 12:43:48.250000000,-52.0,11.0,37.0,72.7975,45.83,0.341019,238.65
2021-06-21 12:43:48.257812500,-52.25,11.0,37.0,72.796796875,45.275,0.34097896875,238.65
2021-06-21 12:43:48.265625000,-52.5,11.0,37.0,72.79609375,44.72,0.34093893750000004,238.65
2021-06-21 12:43:48.273437500,-52.75,11.0,37.0,72.795390625,44.125,0.34089890625,238.65
2021-06-21 12:43:48.281250000,-53.0,11.0,37.0,72.7946875,43.53,0.340858875,238.65
2021-06-21 12:43:48.289062500,-52.75,11.0,37.0,72.793984375,42.975,0.34081884375,238.65
2021-06-21 12:43:48.296875000,-52.5,11.0,37.0,72.79328124999999,42.42,0.34077881250000003,238.65
2021-06-21 12:43:48.304687500,-52.25,11.0,37.0,72.79257812499999,41.91,0.34073878125,238.65
2021-06-21 12:43:48.312500000,-52.0,11.0,37.0,72.79187499999999,41.4,0.34069875,238.65
2021-06-21 12:43:48.320312500,-52.0,11.0,37.0,72.791171875,40.86,0.34065871875000003,238.65
2021-06-21 12:43:48.328125000,-52.0,11.0,37.0,72.79046875,40.32,0.3406186875,238.65
2021-06-21 12:43:48.335937500,-52.0,11.0,37.0,72.789765625,39.655,0.34057865625,238.65
2021-06-21 12:43:48.343750000,-52.0,11.0,37.0,72.7890625,38.99,0.340538625,238.65
2021-06-21 12:43:48.351562500,-52.0,11.0,37.0,72.788359375,38.125,0.34049859375,238.65
2021-06-21 12:43:48.359375000,-52.0,11.0,37.0,72.78765625,37.26,0.3404585625,238.65
2021-06-21 12:43:48.367187500,-52.0,11.0,37.0,72.786953125,36.14,0.34041853125,238.65
2021-06-21 12:43:48.375000000,-52.0,11.0,37.0,72.78625,35.02,0.34037850000000003,238.65
2021-06-21 12:43:48.382812500,-52.0,11.0,37.0,72.785546875,33.66,0.34033846875,238.65
2021-06-21 12:43:48.390625000,-52.0,11.0,37.0,72.78484375,32.3,0.3402984375,238.65
2021-06-21 12:43:48.398437500,-52.0,11.0,37.0,72.78414062499999,30.714999999999996,0.34025840625,238.65
2021-06-21 12:43:48.406250000,-52.0,11.0,37.0,72.78343749999999,29.13,0.340218375,238.65
2021-06-21 12:43:48.414062500,-52.0,11.0,37.0,72.782734375,27.335,0.34017834375,238.65
2021-06-21 12:43:48.421875000,-52.0,11.0,37.0,72.78203125,25.54,0.3401383125,238.65
2021-06-21 12:43:48.429687500,-52.0,11.0,37.0,72.781328125,23.494999999999997,0.34009828124999997,238.65
2021-06-21 12:43:48.437500000,-52.0,11.0,37.0,72.780625,21.45,0.34005825,238.65
2021-06-21 12:43:48.445312500,-52.0,11.0,37.0,72.779921875,19.1,0.34001821875,238.65
2021-06-21 12:43:48.453125000,-52.0,11.0,37.0,72.77921875,16.75,0.3399781875,238.65
2021-06-21 12:43:48.460937500,-52.0,11.0,37.0,72.778515625,14.04,0.33993815625,238.65
2021-06-21 12:43:48.468750000,-52.0,11.0,37.0,72.7778125,11.33,0.339898125,238.65
2021-06-21 12:43:48.476562500,-52.0,11.0,37.0,72.777109375,8.26,0.33985809375,238.65
2021-06-21 12:43:48.484375000,-52.0,11.0,37.0,72.77640625,5.19,0.33981806249999996,238.65
2021-06-21 12:43:48.492187500,-52.0,11.0,37.0,72.77570312499999,1.8450000000000002,0.33977803125,238.65
2021-06-21 12:43:48.500000000,-52.0,11.0,37.0,72.775,-1.5,0.339738,238.65
2021-06-21 12:43:48.507812500,-52.0,11.0,37.0,72.774296875,-4.965,0.33969796874999997,238.65
2021-06-21 12:43:48.515625000,-52.0,11.0,37.0,72.77359375,-8.43,0.3396579375,238.65
2021-06-21 12:43:48.523437500,-52.0,11.0,37.0,72.772890625,-11.835,0.33961790625,238.65
2021-06-21 12:43:48.531250000,-52.0,11.0,37.0,72.7721875,-15.24,0.339577875,238.65
2021-06-21 12:43:48.539062500,-52.0,11.0,37.0,72.771484375,-18.395,0.33953784375,238.65
2021-06-21 12:43:48.546875000,-52.0,11.0,37.0,72.77078125,-21.55,0.3394978125,238.65
2021-06-21 12:43:48.554687500,-52.0,11.0,37.0,72.770078125,-24.365000000000002,0.33945778125,238.65
2021-06-21 12:43:48.562500000,-52.0,11.0,37.0,72.769375,-27.18,0.33941774999999996,238.65
2021-06-21 12:43:48.570312500,-52.25,11.0,37.0,72.768671875,-29.69,0.33937771875,238.65
2021-06-21 12:43:48.578125000,-52.5,11.0,37.0,72.76796875,-32.2,0.3393376875,238.65
2021-06-21 12:43:48.585937500,-52.75,11.0,37.0,72.767265625,-34.565,0.33929765624999997,238.65
2021-06-21 12:43:48.593750000,-53.0,11.0,37.0,72.7665625,-36.93,0.339257625,238.65
2021-06-21 12:43:48.601562500,-52.75,11.0,37.0,72.765859375,-39.465,0.33921759375,238.65
2021-06-21 12:43:48.609375000,-52.5,11.0,37.0,72.76515625,-42.0,0.3391775625,238.65
2021-06-21 12:43:48.617187500,-52.25,11.0,37.0,72.764453125,-45.025,0.33913753125,238.65
2021-06-21 12:43:48.625000000,-52.0,11.0,37.0,72.76375,-48.05,0.3390975,238.65
2021-06-21 12:43:48.632812500,-52.0,11.0,37.0,72.763046875,-51.805,0.33905746875,238.65
2021-06-21 12:43:48.640625000,-52.0,11.0,37.0,72.76234375,-55.56,0.3390174375,238.65
2021-06-21 12:43:48.648437500,-52.0,11.0,37.0,72.761640625,-59.99,0.33897740625,238.65
2021-06-21 12:43:48.656250000,-52.0,11.0,37.0,72.7609375,-64.42,0.338937375,238.65
2021-06-21 12:43:48.664062500,-52.0,11.0,37.0,72.760234375,-69.11500000000001,0.33889734375,238.65
2021-06-21 12:43:48.671875000,-52.0,11.0,37.0,72.75953125,-73.81,0.3388573125,238.65
2021-06-21 12:43:48.679687500,-52.0,11.0,37.0,72.758828125,-77.99000000000001,0.33881728125,238.65
2021-06-21 12:43:48.687500000,-52.0,11.0,37.0,72.758125,-82.17,0.33877725000000003,238.65
2021-06-21 12:43:48.695312500,-52.25,10.75,37.0,72.757421875,-84.845,0.33873721875,238.65
2021-06-21 12:43:48.703125000,-52.5,10.5,37.0,72.75671875,-87.52,0.3386971875,238.65
2021-06-21 12:43:48.710937500,-52.75,10.25,37.0,72.756015625,-87.805,0.33865715625,238.65
2021-06-21 12:43:48.718750000,-53.0,10.0,37.0,72.7553125,-88.09,0.338617125,238.65
2021-06-21 12:43:48.726562500,-52.75,10.25,37.0,72.754609375,-85.45,0.33857709375,238.65
2021-06-21 12:43:48.734375000,-52.5,10.5,37.0,72.75390625,-82.81,0.3385370625,238.65
2021-06-21 12:43:48.742187500,-52.25,10.75,37.0,72.753203125,-77.28999999999999,0.33849703125,238.65
2021-06-21 12:43:48.750000000,-52.0,11.0,37.0,72.7525,-71.77,0.338457,238.65
2021-06-21 12:43:48.757812500,-52.0,11.0,37.0,72.751796875,-63.995,0.338617125,238.65
2021-06-21 12:43:48.765625000,-52.0,11.0,37.0,72.75109375,-56.22,0.33877725000000003,238.65
2021-06-21 12:43:48.773437500,-52.0,11.0,37.0,72.75039062500001,-47.215,0.338937375,238.65
2021-06-21 12:43:48.781250000,-52.0,11.0,37.0,72.74968750000001,-38.21,0.3390975,238.65
2021-06-21 12:43:48.789062500,-52.0,11.0,37.0,72.748984375,-29.125,0.339257625,238.65
2021-06-21 12:43:48.796875000,-52.0,11.0,37.0,72.74828125,-20.04,0.33941775,238.65
2021-06-21 12:43:48.804687500,-52.0,11.0,37.0,72.747578125,-11.85,0.33957787500000003,238.65
2021-06-21 12:43:48.812500000,-52.0,11.0,37.0,72.746875,-3.66,0.339738,238.65
2021-06-21 12:43:48.820312500,-52.25,10.75,37.0,72.746171875,3.0250000000000004,0.339898125,238.65
2021-06-21 12:43:48.828125000,-52.5,10.5,37.0,72.74546875,9.71,0.34005825,238.65
2021-06-21 12:43:48.835937500,-52.75,10.25,37.0,72.744765625,14.74,0.340218375,238.65
2021-06-21 12:43:48.843750000,-53.0,10.0,37.0,72.7440625,19.77,0.34037850000000003,238.65
2021-06-21 12:43:48.851562500,-53.0,10.25,37.0,72.743359375,23.33,0.34053862500000004,238.65
2021-06-21 12:43:48.859375000,-53.0,10.5,37.0,72.74265625,26.89,0.34069875,238.65
2021-06-21 12:43:48.867187500,-53.0,10.75,37.0,72.74195312500001,29.39,0.340858875,238.65
2021-06-21 12:43:48.875000000,-53.0,11.0,37.0,72.74125000000001,31.89,0.341019,238.65
2021-06-21 12:43:48.882812500,-52.75,11.0,37.0,72.740546875,33.754999999999995,0.341179125,238.65
2021-06-21 12:43:48.890625000,-52.5,11.0,37.0,72.73984375,35.62,0.34133925000000004,238.65
2021-06-21 12:43:48.898437500,-52.25,11.0,37.0,72.739140625,37.175,0.341499375,238.65
2021-06-21 12:43:48.906250000,-52.0,11.0,37.0,72.7384375,38.73,0.3416595,238.65
2021-06-21 12:43:48.914062500,-52.25,11.0,37.0,72.737734375,40.125,0.341819625,238.65
2021-06-21 12:43:48.921875000,-52.5,11.0,37.0,72.73703125,41.52,0.34197975,238.65
2021-06-21 12:43:48.929687500,-52.75,11.0,37.0,72.736328125,42.735,0.34213987500000004,238.65
2021-06-21 12:43:48.937500000,-53.0,11.0,37.0,72.735625,43.95,0.34230000000000005,238.65
2021-06-21 12:43:48.945312500,-52.75,11.0,37.0,72.734921875,44.870000000000005,0.342460125,238.65
2021-06-21 12:43:48.953125000,-52.5,11.0,37.0,72.73421875,45.79,0.34262025,238.65
2021-06-21 12:43:48.960937500,-52.25,11.0,37.0,72.73351562500001,46.315,0.342780375,238.65
2021-06-21 12:43:48.968750000,-52.0,11.0,37.0,72.73281250000001,46.84,0.34294050000000004,238.65
2021-06-21 12:43:48.976562500,-52.0,11.0,37.0,72.73210937500001,46.925,0.34310062500000005,238.65
2021-06-21 12:43:48.984375000,-52.0,11.0,37.0,72.73140625,47.01,0.34326075,238.65
2021-06-21 12:43:48.992187500,-52.0,11.0,37.0,72.730703125,46.724999999999994,0.343420875,238.65
2021-06-21 12:43:49.000000000,-52.0,11.0,37.0,72.73,46.44,0.343581,238.65
2021-06-21 12:43:49.007812500,-52.0,10.75,37.0,72.73,45.925,0.34350093750000005,238.65
2021-06-21 12:43:49.015625000,-52.0,10.5,37.0,72.73,45.41,0.343420875,238.65
2021-06-21 12:43:49.023437500,-52.0,10.25,37.0,72.73,44.834999999999994,0.34334081250000004,238.65
2021-06-21 12:43:49.031250000,-52.0,10.0,37.0,72.73,44.26,0.34326075,238.65
2021-06-21 12:43:49.039062500,-52.25,10.0,37.0,72.73,43.754999999999995,0.3431806875,238.65
2021-06-21 12:43:49.046875000,-52.5,10.0,37.0,72.73,43.25,0.34310062500000005,238.65
2021-06-21 12:43:49.054687500,-52.75,10.0,37.0,72.73,42.879999999999995,0.3430205625,238.65
2021-06-21 12:43:49.062500000,-53.0,10.0,37.0,72.73,42.51,0.34294050000000004,238.65
2021-06-21 12:43:49.070312500,-52.75,10.25,37.0,72.73,42.285,0.3428604375,238.65
2021-06-21 12:43:49.078125000,-52.5,10.5,37.0,72.73,42.06,0.342780375,238.65
2021-06-21 12:43:49.085937500,-52.25,10.75,37.0,72.73,41.935,0.34270031250000005,238.65
2021-06-21 12:43:49.093750000,-52.0,11.0,37.0,72.73,41.81,0.34262025,238.65
2021-06-21 12:43:49.101562500,-52.0,11.0,37.0,72.73,41.725,0.34254018750000004,238.65
2021-06-21 12:43:49.109375000,-52.0,11.0,37.0,72.73,41.64,0.342460125,238.65
2021-06-21 12:43:49.117187500,-52.0,11.0,37.0,72.73,41.5,0.3423800625,238.65
2021-06-21 12:43:49.125000000,-52.0,11.0,37.0,72.73,41.36,0.34230000000000005,238.65
2021-06-21 12:43:49.132812500,-52.0,11.0,37.0,72.73,41.065,0.3422199375,238.65
2021-06-21 12:43:49.140625000,-52.0,11.0,37.0,72.73,40.77,0.34213987500000004,238.65
2021-06-21 12:43:49.148437500,-52.0,11.0,37.0,72.73,40.195,0.3420598125,238.65
2021-06-21 12:43:49.156250000,-52.0,11.0,37.0,72.73,39.62,0.34197975,238.65
2021-06-21 12:43:49.164062500,-52.0,10.75,37.0,72.73,38.68,0.3418996875,238.65
2021-06-21 12:43:49.171875000,-52.0,10.5,37.0,72.73,37.74,0.341819625,238.65
2021-06-21 12:43:49.179687500,-52.0,10.25,37.0,72.73,36.42,0.34173956250000004,238.65
2021-06-21 12:43:49.187500000,-52.0,10.0,37.0,72.73,35.1,0.3416595,238.65
2021-06-21 12:43:49.195312500,-52.25,10.0,37.0,72.73,33.45,0.3415794375,238.65
2021-06-21 12:43:49.203125000,-52.5,10.0,37.0,72.73,31.8,0.341499375,238.65
2021-06-21 12:43:49.210937500,-52.75,10.0,37.0,72.73,29.925,0.3414193125,238.65
2021-06-21 12:43:49.218750000,-53.0,10.0,37.0,72.73,28.05,0.34133925000000004,238.65
2021-06-21 12:43:49.226562500,-52.75,10.25,37.0,72.73,26.035,0.3412591875,238.65
2021-06-21 12:43:49.234375000,-52.5,10.5,37.0,72.73,24.02,0.341179125,238.65
2021-06-21 12:43:49.242187500,-52.25,10.75,37.0,72.73,21.905,0.3410990625,238.65
2021-06-21 12:43:49.250000000,-52.0,11.0,37.0,72.73,19.79,0.341019,238.65
2021-06-21 12:43:49.257812500,-52.0,11.0,37.0,72.73,17.56,0.341019,238.65
2021-06-21 12:43:49.265625000,-52.0,11.0,37.0,72.73,15.33,0.341019,238.65
2021-06-21 12:43:49.273437500,-52.0,11.0,37.0,72.73,12.934999999999999,0.341019,238.65
2021-06-21 12:43:49.281250000,-52.0,11.0,37.0,72.73,10.54,0.341019,238.65
2021-06-21 12:43:49.289062500,-52.25,11.0,37.0,72.73,7.975,0.341019,238.65
2021-06-21 12:43:49.296875000,-52.5,11.0,37.0,72.73,5.41,0.341019,238.65
2021-06-21 12:43:49.304687500,-52.75,11.0,37.0,72.73,2.71,0.341019,238.65
2021-06-21 12:43:49.312500000,-53.0,11.0,37.0,72.73,0.01,0.341019,238.65
2021-06-21 12:43:49.320312500,-53.0,10.75,37.0,72.73,-2.7,0.341019,238.65
2021-06-21 12:43:49.328125000,-53.0,10.5,37.0,72.73,-5.41,0.341019,238.65
2021-06-21 12:43:49.335937500,-53.0,10.25,37.0,72.73,-8.02,0.341019,238.65
2021-06-21 12:43:49.343750000,-53.0,10.0,37.0,72.73,-10.63,0.341019,238.65
2021-06-21 12:43:49.351562500,-52.75,10.0,37.0,72.73,-13.05,0.341019,238.65
2021-06-21 12:43:49.359375000,-52.5,10.0,37.0,72.73,-15.47,0.341019,238.65
2021-06-21 12:43:49.367187500,-52.25,10.0,37.0,72.73,-17.7,0.341019,238.65
2021-06-21 12:43:49.375000000,-52.0,10.0,37.0,72.73,-19.93,0.341019,238.65
2021-06-21 12:43:49.382812500,-52.0,10.0,37.0,72.73,-22.085,0.341019,238.65
2021-06-21 12:43:49.390625000,-52.0,10.0,37.0,72.73,-24.24,0.341019,238.65
2021-06-21 12:43:49.398437500,-52.0,10.0,37.0,72.73,-26.5,0.341019,238.65
2021-06-21 12:43:49.406250000,-52.0,10.0,37.0,72.73,-28.76,0.341019,238.65
2021-06-21 12:43:49.414062500,-52.0,10.0,37.0,72.73,-31.375,0.341019,238.65
2021-06-21 12:43:49.421875000,-52.0,10.0,37.0,72.73,-33.99,0.341019,238.65
2021-06-21 12:43:49.429687500,-52.0,10.0,37.0,72.73,-37.205,0.341019,238.65
2021-06-21 12:43:49.437500000,-52.0,10.0,37.0,72.73,-40.42,0.341019,238.65
2021-06-21 12:43:49.445312500,-52.25,10.0,37.0,72.73,-44.394999999999996,0.341019,238.65
2021-06-21 12:43:49.453125000,-52.5,10.0,37.0,72.73,-48.37,0.341019,238.65
2021-06-21 12:43:49.460937500,-52.75,10.0,37.0,72.73,-53.055,0.341019,238.65
2021-06-21 12:43:49.468750000,-53.0,10.0,37.0,72.73,-57.74,0.341019,238.65
2021-06-21 12:43:49.476562500,-53.0,10.0,37.0,72.73,-62.769999999999996,0.341019,238.65
2021-06-21 12:43:49.484375000,-53.0,10.0,37.0,72.73,-67.8,0.341019,238.65
2021-06-21 12:43:49.492187500,-53.0,10.0,37.0,72.73,-72.435,0.341019,238.65
2021-06-21 12:43:49.500000000,-53.0,10.0,37.0,72.73,-77.07,0.341019,238.65
2021-06-21 12:43:49.507812500,-52.75,10.0,37.0,72.73,-80.32499999999999,0.34097896875,238.65
2021-06-21 12:43:49.515625000,-52.5,10.0,37.0,72.73,-83.58,0.34093893750000004,238.65
2021-06-21 12:43:49.523437500,-52.25,10.0,37.0,72.73,-84.485,0.34089890625,238.65
2021-06-21 12:43:49.531250000,-52.0,10.0,37.0,72.73,-85.39,0.340858875,238.65
2021-06-21 12:43:49.539062500,-52.25,10.0,37.0,72.73,-83.315,0.34081884375,238.65
2021-06-21 12:43:49.546875000,-52.5,10.0,37.0,72.73,-81.24,0.34077881250000003,238.65
2021-06-21 12:43:49.554687500,-52.75,10.0,37.0,72.73,-76.13,0.34073878125,238.65
2021-06-21 12:43:49.562500000,-53.0,10.0,37.0,72.73,-71.02,0.34069875,238.65
2021-06-21 12:43:49.570312500,-53.0,10.0,37.0,72.73,-63.485,0.34065871875000003,238.65
2021-06-21 12:43:49.578125000,-53.0,10.0,37.0,72.73,-55.95,0.3406186875,238.65
2021-06-21 12:43:49.585937500,-53.0,10.0,37.0,72.73,-47.06,0.34057865625,238.65
2021-06-21 12:43:49.593750000,-53.0,10.0,37.0,72.73,-38.17,0.340538625,238.65
2021-06-21 12:43:49.601562500,-52.75,10.0,37.0,72.73,-29.145000000000003,0.34049859375,238.65
2021-06-21 12:43:49.609375000,-52.5,10.0,37.0,72.73,-20.12,0.3404585625,238.65
2021-06-21 12:43:49.617187500,-52.25,10.0,37.0,72.73,-11.96,0.34041853125,238.65
2021-06-21 12:43:49.625000000,-52.0,10.0,37.0,72.73,-3.8,0.34037850000000003,238.65
2021-06-21 12:43:49.632812500,-52.0,10.0,37.0,72.73,2.8950000000000005,0.34033846875,238.65
2021-06-21 12:43:49.640625000,-52.0,10.0,37.0,72.73,9.59,0.3402984375,238.65
2021-06-21 12:43:49.648437500,-52.0,10.0,37.0,72.73,14.675,0.34025840625,238.65
2021-06-21 12:43:49.656250000,-52.0,10.0,37.0,72.73,19.76,0.340218375,238.65
2021-06-21 12:43:49.664062500,-52.0,10.0,37.0,72.73,23.46,0.34017834375,238.65
2021-06-21 12:43:49.671875000,-52.0,10.0,37.0,72.73,27.16,0.3401383125,238.65
2021-06-21 12:43:49.679687500,-52.0,10.0,37.0,72.73,29.835,0.34009828124999997,238.65
2021-06-21 12:43:49.687500000,-52.0,10.0,37.0,72.73,32.51,0.34005825,238.65
2021-06-21 12:43:49.695312500,-52.0,10.0,37.0,72.73,34.545,0.34001821875,238.65
2021-06-21 12:43:49.703125000,-52.0,10.0,37.0,72.73,36.58,0.3399781875,238.65
2021-06-21 12:43:49.710937500,-52.0,10.0,37.0,72.73,38.230000000000004,0.33993815625,238.65
2021-06-21 12:43:49.718750000,-52.0,10.0,37.0,72.73,39.88,0.339898125,238.65
2021-06-21 12:43:49.726562500,-52.0,10.0,37.0,72.73,41.285,0.33985809375,238.65
2021-06-21 12:43:49.734375000,-52.0,10.0,37.0,72.73,42.69,0.33981806249999996,238.65
2021-06-21 12:43:49.742187500,-52.0,10.0,37.0,72.73,43.875,0.33977803125,238.65
2021-06-21 12:43:49.750000000,-52.0,10.0,37.0,72.73,45.06,0.339738,238.65
2021-06-21 12:43:49.757812500,-52.25,10.0,37.0,72.73,45.980000000000004,0.33981806249999996,238.65
2021-06-21 12:43:49.765625000,-52.5,10.0,37.0,72.73,46.9,0.339898125,238.65
2021-06-21 12:43:49.773437500,-52.75,10.0,37.0,72.73,47.519999999999996,0.3399781875,238.65
2021-06-21 12:43:49.781250000,-53.0,10.0,37.0,72.73,48.14,0.34005825,238.65
2021-06-21 12:43:49.789062500,-52.75,10.0,37.0,72.73,48.445,0.3401383125,238.65
2021-06-21 12:43:49.796875000,-52.5,10.0,37.0,72.73,48.75,0.34021837499999996,238.65
2021-06-21 12:43:49.804687500,-52.25,10.0,37.0,72.73,48.765,0.3402984375,238.65
2021-06-21 12:43:49.812500000,-52.0,10.0,37.0,72.73,48.78,0.3403785,238.65
2021-06-21 12:43:49.820312500,-52.0,10.0,37.0,72.73,48.575,0.3404585625,238.65
2021-06-21 12:43:49.828125000,-52.0,10.0,37.0,72.73,48.37,0.340538625,238.65
2021-06-21 12:43:49.835937500,-52.0,10.0,37.0,72.73,48.0,0.34061868749999996,238.65
2021-06-21 12:43:49.843750000,-52.0,10.0,37.0,72.73,47.63,0.34069875,238.65
2021-06-21 12:43:49.851562500,-52.0,10.0,37.0,72.73,47.16,0.3407788125,238.65
2021-06-21 12:43:49.859375000,-52.0,10.0,37.0,72.73,46.69,0.340858875,238.65
2021-06-21 12:43:49.867187500,-52.0,10.0,37.0,72.73,46.17,0.3409389375,238.65
2021-06-21 12:43:49.875000000,-52.0,10.0,37.0,72.73,45.65,0.34101899999999996,238.65
2021-06-21 12:43:49.882812500,-52.0,10.0,37.0,72.73,45.120000000000005,0.3410990625,238.65
2021-06-21 12:43:49.890625000,-52.0,10.0,37.0,72.73,44.59,0.34117912499999997,238.65
2021-06-21 12:43:49.898437500,-52.0,10.0,37.0,72.73,44.075,0.3412591875,238.65
2021-06-21 12:43:49.906250000,-52.0,10.0,37.0,72.73,43.56,0.34133925,238.65
2021-06-21 12:43:49.914062500,-52.0,10.0,37.0,72.73,43.07,0.3414193125,238.65
2021-06-21 12:43:49.921875000,-52.0,10.0,37.0,72.73,42.58,0.341499375,238.65
2021-06-21 12:43:49.929687500,-52.0,10.0,37.0,72.73,42.06,0.34157943749999997,238.65
2021-06-21 12:43:49.937500000,-52.0,10.0,37.0,72.73,41.54,0.3416595,238.65
2021-06-21 12:43:49.945312500,-52.0,10.0,37.0,72.73,40.905,0.3417395625,238.65
2021-06-21 12:43:49.953125000,-52.0,10.0,37.0,72.73,40.27,0.341819625,238.65
2021-06-21 12:43:49.960937500,-52.0,10.0,37.0,72.73,39.39,0.3418996875,238.65
2021-06-21 12:43:49.968750000,-52.0,10.0,37.0,72.73,38.51,0.34197974999999997,238.65
2021-06-21 12:43:49.976562500,-52.0,10.0,37.0,72.73,37.26,0.3420598125,238.65
2021-06-21 12:43:49.984375000,-52.0,10.0,37.0,72.73,36.01,0.342139875,238.65
2021-06-21 12:43:49.992187500,-52.0,10.0,37.0,72.73,34.315,0.3422199375,238.65
2021-06-21 12:43:50.000000000,-52.0,10.0,37.0,72.73,32.62,0.3423,238.65
2021-06-21 12:43:50.007812500,-52.0,10.25,37.0,72.729921875,30.485,0.34217990625,238.65
2021-06-21 12:43:50.015625000,-52.0,10.5,37.0,72.72984375,28.35,0.3420598125,238.65
2021-06-21 12:43:50.023437500,-52.0,10.75,37.0,72.729765625,25.84,0.34193971875,238.65
2021-06-21 12:43:50.031250000,-52.0,11.0,37.0,72.7296875,23.33,0.341819625,238.65
2021-06-21 12:43:50.039062500,-52.0,10.75,37.0,72.72960937500001,20.59,0.34169953125,238.65
2021-06-21 12:43:50.046875000,-52.0,10.5,37.0,72.72953125000001,17.85,0.34157943749999997,238.65
2021-06-21 12:43:50.054687500,-52.0,10.25,37.0,72.729453125,15.05,0.34145934375,238.65
2021-06-21 12:43:50.062500000,-52.0,10.0,37.0,72.729375,12.25,0.34133925,238.65
2021-06-21 12:43:50.070312500,-52.0,10.0,37.0,72.729296875,9.575,0.34121915625,238.65
2021-06-21 12:43:50.078125000,-52.0,10.0,37.0,72.72921875,6.9,0.3410990625,238.65
2021-06-21 12:43:50.085937500,-52.0,10.0,37.0,72.729140625,4.495,0.34097896875,238.65
2021-06-21 12:43:50.093750000,-52.0,10.0,37.0,72.7290625,2.09,0.340858875,238.65
2021-06-21 12:43:50.101562500,-52.0,10.25,37.0,72.72898437500001,0.040000000000000036,0.34073878125,238.65
2021-06-21 12:43:50.109375000,-52.0,10.5,37.0,72.72890625000001,-2.01,0.3406186875,238.65
2021-06-21 12:43:50.117187500,-52.0,10.75,37.0,72.728828125,-3.6999999999999997,0.34049859375,238.65
2021-06-21 12:43:50.125000000,-52.0,11.0,37.0,72.72875,-5.39,0.34037850000000003,238.65
2021-06-21 12:43:50.132812500,-52.0,10.75,37.0,72.728671875,-6.824999999999999,0.34025840625,238.65
2021-06-21 12:43:50.140625000,-52.0,10.5,37.0,72.72859375,-8.26,0.3401383125,238.65
2021-06-21 12:43:50.148437500,-52.0,10.25,37.0,72.728515625,-9.58,0.34001821875,238.65
2021-06-21 12:43:50.156250000,-52.0,10.0,37.0,72.7284375,-10.9,0.339898125,238.65
2021-06-21 12:43:50.164062500,-52.0,10.25,37.0,72.728359375,-12.285,0.33977803125,238.65
2021-06-21 12:43:50.171875000,-52.0,10.5,37.0,72.72828125000001,-13.67,0.3396579375,238.65
2021-06-21 12:43:50.179687500,-52.0,10.75,37.0,72.72820312500001,-15.285,0.33953784375,238.65
2021-06-21 12:43:50.187500000,-52.0,11.0,37.0,72.728125,-16.9,0.33941775,238.65
2021-06-21 12:43:50.195312500,-52.0,11.0,37.0,72.728046875,-18.9,0.33929765625,238.65
2021-06-21 12:43:50.203125000,-52.0,11.0,37.0,72.72796875,-20.9,0.33917756250000003,238.65
2021-06-21 12:43:50.210937500,-52.0,11.0,37.0,72.727890625,-23.46,0.33905746875,238.65
2021-06-21 12:43:50.218750000,-52.0,11.0,37.0,72.7278125,-26.02,0.338937375,238.65
2021-06-21 12:43:50.226562500,-52.0,10.75,37.0,72.727734375,-29.270000000000003,0.33881728125,238.65
2021-06-21 12:43:50.234375000,-52.0,10.5,37.0,72.72765625000001,-32.52,0.3386971875,238.65
2021-06-21 12:43:50.242187500,-52.0,10.25,37.0,72.72757812500001,-36.475,0.33857709375,238.65
2021-06-21 12:43:50.250000000,-52.0,10.0,37.0,72.7275,-40.43,0.338457,238.65
2021-06-21 12:43:50.257812500,-52.0,10.25,37.0,72.727421875,-44.885000000000005,0.3393376875,238.65
2021-06-21 12:43:50.265625000,-52.0,10.5,37.0,72.72734375,-49.34,0.340218375,238.65
2021-06-21 12:43:50.273437500,-52.0,10.75,37.0,72.727265625,-53.745000000000005,0.3410990625,238.65
2021-06-21 12:43:50.281250000,-52.0,11.0,37.0,72.7271875,-58.15,0.34197975,238.65
2021-06-21 12:43:50.289062500,-52.0,11.0,37.0,72.727109375,-61.7,0.3428604375,238.65
2021-06-21 12:43:50.296875000,-52.0,11.0,37.0,72.72703125,-65.25,0.343741125,238.65
2021-06-21 12:43:50.304687500,-52.0,11.0,37.0,72.72695312500001,-67.03999999999999,0.3446218125,238.65
2021-06-21 12:43:50.312500000,-52.0,11.0,37.0,72.726875,-68.83,0.3455025,238.65
2021-06-21 12:43:50.320312500,-52.0,11.0,37.0,72.726796875,-68.175,0.3463831875,238.65
2021-06-21 12:43:50.328125000,-52.0,11.0,37.0,72.72671875,-67.52,0.347263875,238.65
2021-06-21 12:43:50.335937500,-52.0,11.0,37.0,72.726640625,-64.17,0.3481445625,238.65
2021-06-21 12:43:50.343750000,-52.0,11.0,37.0,72.7265625,-60.82,0.34902525,238.65
2021-06-21 12:43:50.351562500,-52.0,11.0,37.0,72.726484375,-55.06,0.3499059375,238.65
2021-06-21 12:43:50.359375000,-52.0,11.0,37.0,72.72640625,-49.3,0.350786625,238.65
2021-06-21 12:43:50.367187500,-52.0,11.0,37.0,72.72632812500001,-41.879999999999995,0.3516673125,238.65
2021-06-21 12:43:50.375000000,-52.0,11.0,37.0,72.72625000000001,-34.46,0.352548,238.65
2021-06-21 12:43:50.382812500,-52.0,11.0,37.0,72.726171875,-26.310000000000002,0.3534286875,238.65
2021-06-21 12:43:50.390625000,-52.0,11.0,37.0,72.72609375,-18.16,0.354309375,238.65
2021-06-21 12:43:50.398437500,-52.0,11.0,37.0,72.726015625,-10.175,0.3551900625,238.65
2021-06-21 12:43:50.406250000,-52.0,11.0,37.0,72.7259375,-2.19,0.35607075,238.65
2021-06-21 12:43:50.414062500,-52.0,11.0,37.0,72.725859375,4.98,0.3569514375,238.65
2021-06-21 12:43:50.421875000,-52.0,11.0,37.0,72.72578125,12.15,0.357832125,238.65
2021-06-21 12:43:50.429687500,-52.0,11.0,37.0,72.725703125,18.145,0.3587128125,238.65
2021-06-21 12:43:50.437500000,-52.0,11.0,37.0,72.72562500000001,24.14,0.3595935,238.65
2021-06-21 12:43:50.445312500,-52.0,11.0,37.0,72.725546875,28.84,0.3604741875,238.65
2021-06-21 12:43:50.453125000,-52.0,11.0,37.0,72.72546875,33.54,0.361354875,238.65
2021-06-21 12:43:50.460937500,-52.0,11.0,37.0,72.725390625,36.945,0.3622355625,238.65
2021-06-21 12:43:50.468750000,-52.0,11.0,37.0,72.7253125,40.35,0.36311625,238.65
2021-06-21 12:43:50.476562500,-52.0,11.0,37.0,72.725234375,42.575,0.3639969375,238.65
2021-06-21 12:43:50.484375000,-52.0,11.0,37.0,72.72515625,44.8,0.364877625,238.65
2021-06-21 12:43:50.492187500,-52.0,11.0,37.0,72.725078125,45.98,0.3657583125,238.65
2021-06-21 12:43:50.500000000,-52.0,11.0,37.0,72.725,47.16,0.366639,238.65
2021-06-21 12:43:50.507812500,-52.25,11.0,37.0,72.724921875,47.5,0.3657583125,238.65
2021-06-21 12:43:50.515625000,-52.5,11.0,37.0,72.72484375,47.84,0.364877625,238.65
2021-06-21 12:43:50.523437500,-52.75,11.0,37.0,72.724765625,47.57,0.3639969375,238.65
2021-06-21 12:43:50.531250000,-53.0,11.0,37.0,72.7246875,47.3,0.36311625,238.65
2021-06-21 12:43:50.539062500,-52.75,11.0,37.0,72.724609375,46.675,0.3622355625,238.65
2021-06-21 12:43:50.546875000,-52.5,11.0,37.0,72.72453125,46.05,0.361354875,238.65
2021-06-21 12:43:50.554687500,-52.25,11.0,37.0,72.724453125,45.32,0.3604741875,238.65
2021-06-21 12:43:50.562500000,-52.0,11.0,37.0,72.724375,44.59,0.3595935,238.65
2021-06-21 12:43:50.570312500,-52.0,10.75,37.0,72.72429687500001,43.92,0.3587128125,238.65
2021-06-21 12:43:50.578125000,-52.0,10.5,37.0,72.72421875,43.25,0.357832125,238.65
2021-06-21 12:43:50.585937500,-52.0,10.25,37.0,72.724140625,42.739999999999995,0.3569514375,238.65
2021-06-21 12:43:50.593750000,-52.0,10.0,37.0,72.7240625,42.23,0.35607075,238.65
2021-06-21 12:43:50.601562500,-52.0,10.25,37.0,72.723984375,41.855,0.3551900625,238.65
2021-06-21 12:43:50.609375000,-52.0,10.5,37.0,72.72390625,41.48,0.354309375,238.65
2021-06-21 12:43:50.617187500,-52.0,10.75,37.0,72.723828125,41.144999999999996,0.3534286875,238.65
2021-06-21 12:43:50.625000000,-52.0,11.0,37.0,72.72375,40.81,0.352548,238.65
2021-06-21 12:43:50.632812500,-52.0,11.0,37.0,72.723671875,40.385000000000005,0.3516673125,238.65
2021-06-21 12:43:50.640625000,-52.0,11.0,37.0,72.72359375,39.96,0.350786625,238.65
2021-06-21 12:43:50.648437500,-52.0,11.0,37.0,72.723515625,39.335,0.3499059375,238.65
2021-06-21 12:43:50.656250000,-52.0,11.0,37.0,72.7234375,38.71,0.34902525,238.65
2021-06-21 12:43:50.664062500,-52.0,11.0,37.0,72.723359375,37.879999999999995,0.34814456250000003,238.65
2021-06-21 12:43:50.671875000,-52.0,11.0,37.0,72.72328125,37.05,0.347263875,238.65
2021-06-21 12:43:50.679687500,-52.0,11.0,37.0,72.723203125,36.08,0.3463831875,238.65
2021-06-21 12:43:50.687500000,-52.0,11.0,37.0,72.723125,35.11,0.3455025,238.65
2021-06-21 12:43:50.695312500,-52.0,11.0,37.0,72.723046875,34.125,0.3446218125,238.65
2021-06-21 12:43:50.703125000,-52.0,11.0,37.0,72.72296875,33.14,0.343741125,238.65
2021-06-21 12:43:50.710937500,-52.0,11.0,37.0,72.722890625,32.245000000000005,0.3428604375,238.65
2021-06-21 12:43:50.718750000,-52.0,11.0,37.0,72.7228125,31.35,0.34197975,238.65
2021-06-21 12:43:50.726562500,-52.0,11.0,37.25,72.722734375,30.53,0.3410990625,238.65
2021-06-21 12:43:50.734375000,-52.0,11.0,37.5,72.72265625,29.71,0.340218375,238.65
2021-06-21 12:43:50.742187500,-52.0,11.0,37.75,72.722578125,28.84,0.3393376875,238.65
2021-06-21 12:43:50.750000000,-52.0,11.0,38.0,72.7225,27.97,0.338457,238.65
2021-06-21 12:43:50.757812500,-52.0,11.0,37.75,72.722421875,26.82,0.33857709375,238.65
2021-06-21 12:43:50.765625000,-52.0,11.0,37.5,72.72234375,25.67,0.3386971875,238.65
2021-06-21 12:43:50.773437500,-52.0,11.0,37.25,72.722265625,24.035,0.33881728125,238.65
2021-06-21 12:43:50.781250000,-52.0,11.0,37.0,72.7221875,22.4,0.338937375,238.65
2021-06-21 12:43:50.789062500,-52.0,11.0,37.0,72.722109375,20.205,0.33905746875,238.65
2021-06-21 12:43:50.796875000,-52.0,11.0,37.0,72.72203125,18.01,0.33917756250000003,238.65
2021-06-21 12:43:50.804687500,-52.0,11.0,37.0,72.721953125,15.360000000000001,0.33929765625,238.65
2021-06-21 12:43:50.812500000,-52.0,11.0,37.0,72.721875,12.71,0.33941775,238.65
2021-06-21 12:43:50.820312500,-52.0,11.0,37.0,72.721796875,9.88,0.33953784375,238.65
2021-06-21 12:43:50.828125000,-52.0,11.0,37.0,72.72171875,7.05,0.3396579375,238.65
2021-06-21 12:43:50.835937500,-52.0,11.0,37.0,72.721640625,4.359999999999999,0.33977803125,238.65
2021-06-21 12:43:50.843750000,-52.0,11.0,37.0,72.7215625,1.67,0.339898125,238.65
2021-06-21 12:43:50.851562500,-52.0,11.0,37.0,72.721484375,-0.6299999999999999,0.34001821875,238.65
2021-06-21 12:43:50.859375000,-52.0,11.0,37.0,72.72140625,-2.93,0.3401383125,238.65
2021-06-21 12:43:50.867187500,-52.0,11.0,37.0,72.721328125,-4.805,0.34025840625,238.65
2021-06-21 12:43:50.875000000,-52.0,11.0,37.0,72.72125,-6.68,0.34037850000000003,238.65
2021-06-21 12:43:50.882812500,-52.0,10.75,37.0,72.721171875,-8.315,0.34049859375,238.65
2021-06-21 12:43:50.890625000,-52.0,10.5,37.0,72.72109375,-9.95,0.3406186875,238.65
2021-06-21 12:43:50.898437500,-52.0,10.25,37.0,72.72101562499999,-11.705,0.34073878125,238.65
2021-06-21 12:43:50.906250000,-52.0,10.0,37.0,72.7209375,-13.46,0.340858875,238.65
2021-06-21 12:43:50.914062500,-52.0,10.25,37.0,72.720859375,-15.735000000000001,0.34097896875,238.65
2021-06-21 12:43:50.921875000,-52.0,10.5,37.0,72.72078125,-18.01,0.3410990625,238.65
2021-06-21 12:43:50.929687500,-52.0,10.75,37.0,72.720703125,-21.125,0.34121915625,238.65
2021-06-21 12:43:50.937500000,-52.0,11.0,37.0,72.720625,-24.24,0.34133925,238.65
2021-06-21 12:43:50.945312500,-52.0,11.0,37.0,72.720546875,-28.310000000000002,0.34145934375,238.65
2021-06-21 12:43:50.953125000,-52.0,11.0,37.0,72.72046875,-32.38,0.34157943749999997,238.65
2021-06-21 12:43:50.960937500,-52.0,11.0,37.0,72.720390625,-37.260000000000005,0.34169953125,238.65
2021-06-21 12:43:50.968750000,-52.0,11.0,37.0,72.7203125,-42.14,0.341819625,238.65
2021-06-21 12:43:50.976562500,-52.0,11.0,37.25,72.720234375,-47.36,0.34193971875,238.65
2021-06-21 12:43:50.984375000,-52.0,11.0,37.5,72.72015625,-52.58,0.3420598125,238.65
2021-06-21 12:43:50.992187500,-52.0,11.0,37.75,72.720078125,-57.41,0.34217990625,238.65
2021-06-21 12:43:51.000000000,-52.0,11.0,38.0,72.72,-62.24,0.3423,238.65
2021-06-21 12:43:51.007812500,-52.0,11.0,37.75,72.72,-65.775,0.34225996875,238.65
2021-06-21 12:43:51.015625000,-52.0,11.0,37.5,72.72,-69.31,0.3422199375,238.65
2021-06-21 12:43:51.023437500,-52.0,11.0,37.25,72.72,-70.71000000000001,0.34217990625,238.65
2021-06-21 12:43:51.031250000,-52.0,11.0,37.0,72.72,-72.11,0.342139875,238.65
2021-06-21 12:43:51.039062500,-52.0,11.0,37.0,72.72,-70.82,0.34209984375,238.65
2021-06-21 12:43:51.046875000,-52.0,11.0,37.0,72.72,-69.53,0.3420598125,238.65
2021-06-21 12:43:51.054687500,-52.0,11.0,37.0,72.72,-65.49000000000001,0.34201978125,238.65
2021-06-21 12:43:51.062500000,-52.0,11.0,37.0,72.72,-61.45,0.34197975,238.65
2021-06-21 12:43:51.070312500,-52.0,11.0,37.0,72.72,-55.135000000000005,0.34193971875,238.65
2021-06-21 12:43:51.078125000,-52.0,11.0,37.0,72.72,-48.82,0.3418996875,238.65
2021-06-21 12:43:51.085937500,-52.0,11.0,37.0,72.72,-41.129999999999995,0.34185965625,238.65
2021-06-21 12:43:51.093750000,-52.0,11.0,37.0,72.72,-33.44,0.341819625,238.65
2021-06-21 12:43:51.101562500,-52.0,11.0,37.0,72.72,-25.439999999999998,0.34177959375,238.65
2021-06-21 12:43:51.109375000,-52.0,11.0,37.0,72.72,-17.44,0.3417395625,238.65
2021-06-21 12:43:51.117187500,-52.0,11.0,37.0,72.72,-10.080000000000002,0.34169953125,238.65
2021-06-21 12:43:51.125000000,-52.0,11.0,37.0,72.72,-2.72,0.3416595,238.65
2021-06-21 12:43:51.132812500,-52.0,11.0,37.0,72.72,3.3649999999999998,0.34161946875,238.65
2021-06-21 12:43:51.140625000,-52.0,11.0,37.0,72.72,9.45,0.3415794375,238.65
2021-06-21 12:43:51.148437500,-52.0,11.0,37.0,72.72,14.03,0.34153940625,238.65
2021-06-21 12:43:51.156250000,-52.0,11.0,37.0,72.72,18.61,0.341499375,238.65
2021-06-21 12:43:51.164062500,-52.0,11.0,37.0,72.72,21.785,0.34145934375000003,238.65
2021-06-21 12:43:51.171875000,-52.0,11.0,37.0,72.72,24.96,0.3414193125,238.65
2021-06-21 12:43:51.179687500,-52.0,11.0,37.0,72.72,27.015,0.34137928125,238.65
2021-06-21 12:43:51.187500000,-52.0,11.0,37.0,72.72,29.07,0.34133925,238.65
2021-06-21 12:43:51.195312500,-52.0,11.0,37.0,72.72,30.33,0.34129921875,238.65
2021-06-21 12:43:51.203125000,-52.0,11.0,37.0,72.72,31.59,0.3412591875,238.65
2021-06-21 12:43:51.210937500,-52.0,11.0,37.0,72.72,32.315,0.34121915625,238.65
2021-06-21 12:43:51.218750000,-52.0,11.0,37.0,72.72,33.04,0.341179125,238.65
2021-06-21 12:43:51.226562500,-52.0,10.75,37.0,72.72,33.405,0.34113909375,238.65
2021-06-21 12:43:51.234375000,-52.0,10.5,37.0,72.72,33.77,0.3410990625,238.65
2021-06-21 12:43:51.242187500,-52.0,10.25,37.0,72.72,33.865,0.34105903125000003,238.65
2021-06-21 12:43:51.250000000,-52.0,10.0,37.0,72.72,33.96,0.341019,238.65
2021-06-21 12:43:51.257812500,-52.0,10.25,37.0,72.72,33.84,0.34093893750000004,238.65
2021-06-21 12:43:51.265625000,-52.0,10.5,37.0,72.72,33.72,0.340858875,238.65
2021-06-21 12:43:51.273437500,-52.0,10.75,37.0,72.72,33.44,0.34077881250000003,238.65
2021-06-21 12:43:51.281250000,-52.0,11.0,37.0,72.72,33.16,0.34069875,238.65
2021-06-21 12:43:51.289062500,-52.0,11.0,37.0,72.72,32.795,0.3406186875,238.65
2021-06-21 12:43:51.296875000,-52.0,11.0,37.0,72.72,32.43,0.34053862500000004,238.65
2021-06-21 12:43:51.304687500,-52.0,11.0,37.0,72.72,32.085,0.3404585625,238.65
2021-06-21 12:43:51.312500000,-52.0,11.0,37.0,72.72,31.74,0.34037850000000003,238.65
2021-06-21 12:43:51.320312500,-52.0,11.0,37.25,72.72,31.5,0.3402984375,238.65
2021-06-21 12:43:51.328125000,-52.0,11.0,37.5,72.72,31.26,0.340218375,238.65
2021-06-21 12:43:51.335937500,-52.0,11.0,37.75,72.72,31.185000000000002,0.34013831250000004,238.65
2021-06-21 12:43:51.343750000,-52.0,11.0,38.0,72.72,31.11,0.34005825,238.65
2021-06-21 12:43:51.351562500,-52.25,11.0,38.0,72.72,31.155,0.33997818750000003,238.65
2021-06-21 12:43:51.359375000,-52.5,11.0,38.0,72.72,31.2,0.339898125,238.65
2021-06-21 12:43:51.367187500,-52.75,11.0,38.0,72.72,31.259999999999998,0.3398180625,238.65
2021-06-21 12:43:51.375000000,-53.0,11.0,38.0,72.72,31.32,0.339738,238.65
2021-06-21 12:43:51.382812500,-52.75,11.0,37.75,72.72,31.235,0.3396579375,238.65
2021-06-21 12:43:51.390625000,-52.5,11.0,37.5,72.72,31.15,0.33957787500000003,238.65
2021-06-21 12:43:51.398437500,-52.25,11.0,37.25,72.72,30.814999999999998,0.3394978125,238.65
2021-06-21 12:43:51.406250000,-52.0,11.0,37.0,72.72,30.48,0.33941775,238.65
2021-06-21 12:43:51.414062500,-52.0,11.0,37.0,72.72,29.84,0.3393376875,238.65
2021-06-21 12:43:51.421875000,-52.0,11.0,37.0,72.72,29.2,0.339257625,238.65
2021-06-21 12:43:51.429687500,-52.0,11.0,37.0,72.72,28.28,0.33917756250000003,238.65
2021-06-21 12:43:51.437500000,-52.0,11.0,37.0,72.72,27.36,0.3390975,238.65
2021-06-21 12:43:51.445312500,-52.25,11.0,37.0,72.72,26.215,0.3390174375,238.65
2021-06-21 12:43:51.453125000,-52.5,11.0,37.0,72.72,25.07,0.338937375,238.65
2021-06-21 12:43:51.460937500,-52.75,11.0,37.0,72.72,23.705,0.3388573125,238.65
2021-06-21 12:43:51.468750000,-53.0,11.0,37.0,72.72,22.34,0.33877725000000003,238.65
2021-06-21 12:43:51.476562500,-52.75,11.0,37.0,72.72,20.72,0.3386971875,238.65
2021-06-21 12:43:51.484375000,-52.5,11.0,37.0,72.72,19.1,0.338617125,238.65
2021-06-21 12:43:51.492187500,-52.25,11.0,37.0,72.72,17.12,0.3385370625,238.65
2021-06-21 12:43:51.500000000,-52.0,11.0,37.0,72.72,15.14,0.338457,238.65
2021-06-21 12:43:51.507812500,-52.0,10.75,37.0,72.72,12.72,0.33857709375,238.65
2021-06-21 12:43:51.515625000,-52.0,10.5,37.0,72.72,10.3,0.3386971875,238.65
2021-06-21 12:43:51.523437500,-52.0,10.25,37.0,72.72,7.4350000000000005,0.33881728125,238.65
2021-06-21 12:43:51.531250000,-52.0,10.0,37.0,72.72,4.57,0.338937375,238.65
2021-06-21 12:43:51.539062500,-52.0,10.25,37.0,72.72,1.335,0.33905746875,238.65
2021-06-21 12:43:51.546875000,-52.0,10.5,37.0,72.72,-1.9,0.33917756250000003,238.65
2021-06-21 12:43:51.554687500,-52.0,10.75,37.0,72.72,-5.3149999999999995,0.33929765625,238.65
2021-06-21 12:43:51.562500000,-52.0,11.0,37.0,72.72,-8.73,0.33941775,238.65
2021-06-21 12:43:51.570312500,-52.0,11.0,37.0,72.72,-12.14,0.33953784375,238.65
2021-06-21 12:43:51.578125000,-52.0,11.0,37.0,72.72,-15.55,0.3396579375,238.65
2021-06-21 12:43:51.585937500,-52.0,11.0,37.0,72.72,-18.775,0.33977803125,238.65
2021-06-21 12:43:51.593750000,-52.0,11.0,37.0,72.72,-22.0,0.339898125,238.65
2021-06-21 12:43:51.601562500,-52.25,11.0,37.0,72.72,-24.91,0.34001821875,238.65
2021-06-21 12:43:51.609375000,-52.5,11.0,37.0,72.72,-27.82,0.3401383125,238.65
2021-06-21 12:43:51.617187500,-52.75,11.0,37.0,72.72,-30.375,0.34025840625,238.65
2021-06-21 12:43:51.625000000,-53.0,11.0,37.0,72.72,-32.93,0.34037850000000003,238.65
2021-06-21 12:43:51.632812500,-52.75,11.0,37.0,72.72,-35.16,0.34049859375,238.65
2021-06-21 12:43:51.640625000,-52.5,11.0,37.0,72.72,-37.39,0.3406186875,238.65
2021-06-21 12:43:51.648437500,-52.25,11.0,37.0,72.72,-39.43,0.34073878125,238.65
2021-06-21 12:43:51.656250000,-52.0,11.0,37.0,72.72,-41.47,0.340858875,238.65
2021-06-21 12:43:51.664062500,-52.0,11.0,37.0,72.72,-43.565,0.34097896875,238.65
2021-06-21 12:43:51.671875000,-52.0,11.0,37.0,72.72,-45.66,0.3410990625,238.65
2021-06-21 12:43:51.679687500,-52.0,11.0,37.0,72.72,-48.11,0.34121915625,238.65
2021-06-21 12:43:51.687500000,-52.0,11.0,37.0,72.72,-50.56,0.34133925,238.65
2021-06-21 12:43:51.695312500,-52.0,11.0,37.0,72.72,-53.635000000000005,0.34145934375,238.65
2021-06-21 12:43:51.703125000,-52.0,11.0,37.0,72.72,-56.71,0.34157943749999997,238.65
2021-06-21 12:43:51.710937500,-52.0,11.0,37.0,72.72,-60.5,0.34169953125,238.65
2021-06-21 12:43:51.718750000,-52.0,11.0,37.0,72.72,-64.29,0.341819625,238.65
2021-06-21 12:43:51.726562500,-52.0,10.75,37.0,72.72,-68.535,0.34193971875,238.65
2021-06-21 12:43:51.734375000,-52.0,10.5,37.0,72.72,-72.78,0.3420598125,238.65
2021-06-21 12:43:51.742187500,-52.0,10.25,37.0,72.72,-76.83,0.34217990625,238.65
2021-06-21 12:43:51.750000000,-52.0,10.0,37.0,72.72,-80.88,0.3423,238.65
2021-06-21 12:43:51.757812500,-52.0,10.25,37.0,72.72,-83.815,0.34217990625,238.65
2021-06-21 12:43:51.765625000,-52.0,10.5,37.0,72.72,-86.75,0.3420598125,238.65
2021-06-21 12:43:51.773437500,-52.0,10.75,37.0,72.72,-87.595,0.34193971875,238.65
2021-06-21 12:43:51.781250000,-52.0,11.0,37.0,72.72,-88.44,0.341819625,238.65
2021-06-21 12:43:51.789062500,-52.25,11.0,37.0,72.72,-86.47999999999999,0.34169953125,238.65
2021-06-21 12:43:51.796875000,-52.5,11.0,37.0,72.72,-84.52,0.34157943749999997,238.65
2021-06-21 12:43:51.804687500,-52.75,11.0,37.0,72.72,-79.61,0.34145934375,238.65
2021-06-21 12:43:51.812500000,-53.0,11.0,37.0,72.72,-74.7,0.34133925,238.65
2021-06-21 12:43:51.820312500,-52.75,11.0,37.0,72.72,-67.305,0.34121915625,238.65
2021-06-21 12:43:51.828125000,-52.5,11.0,37.0,72.72,-59.91,0.3410990625,238.65
2021-06-21 12:43:51.835937500,-52.25,11.0,37.0,72.72,-51.0,0.34097896875,238.65
2021-06-21 12:43:51.843750000,-52.0,11.0,37.0,72.72,-42.09,0.340858875,238.65
2021-06-21 12:43:51.851562500,-52.0,11.0,37.0,72.72,-32.835,0.34073878125,238.65
2021-06-21 12:43:51.859375000,-52.0,11.0,37.0,72.72,-23.58,0.3406186875,238.65
2021-06-21 12:43:51.867187500,-52.0,11.0,37.0,72.72,-15.01,0.34049859375,238.65
2021-06-21 12:43:51.875000000,-52.0,11.0,37.0,72.72,-6.44,0.34037850000000003,238.65
2021-06-21 12:43:51.882812500,-52.0,11.0,37.0,72.72,0.794999999999999,0.34025840625,238.65
2021-06-21 12:43:51.890625000,-52.0,11.0,37.0,72.72,8.03,0.3401383125,238.65
2021-06-21 12:43:51.898437500,-52.0,11.0,37.0,72.72,13.7,0.34001821875,238.65
2021-06-21 12:43:51.906250000,-52.0,11.0,37.0,72.72,19.37,0.339898125,238.65
2021-06-21 12:43:51.914062500,-52.25,10.75,37.0,72.72,23.615000000000002,0.33977803125,238.65
2021-06-21 12:43:51.921875000,-52.5,10.5,37.0,72.72,27.86,0.3396579375,238.65
2021-06-21 12:43:51.929687500,-52.75,10.25,37.0,72.72,30.995,0.33953784375,238.65
2021-06-21 12:43:51.937500000,-53.0,10.0,37.0,72.72,34.13,0.33941775,238.65
2021-06-21 12:43:51.945312500,-52.75,10.25,37.25,72.72,36.49,0.33929765625,238.65
2021-06-21 12:43:51.953125000,-52.5,10.5,37.5,72.72,38.85,0.33917756250000003,238.65
2021-06-21 12:43:51.960937500,-52.25,10.75,37.75,72.72,40.685,0.33905746875,238.65
2021-06-21 12:43:51.968750000,-52.0,11.0,38.0,72.72,42.52,0.338937375,238.65
2021-06-21 12:43:51.976562500,-52.0,11.0,37.75,72.72,43.985,0.33881728125,238.65
2021-06-21 12:43:51.984375000,-52.0,11.0,37.5,72.72,45.45,0.3386971875,238.65
2021-06-21 12:43:51.992187500,-52.0,11.0,37.25,72.72,46.650000000000006,0.33857709375,238.65
2021-06-21 12:43:52.000000000,-52.0,11.0,37.0,72.72,47.85,0.338457,238.65
2021-06-21 12:43:52.007812500,-52.0,11.0,37.0,72.720078125,48.835,0.33857709375,238.65
2021-06-21 12:43:52.015625000,-52.0,11.0,37.0,72.72015625,49.82,0.3386971875,238.65
2021-06-21 12:43:52.023437500,-52.0,11.0,37.0,72.720234375,50.629999999999995,0.33881728125,238.65
2021-06-21 12:43:52.031250000,-52.0,11.0,37.0,72.7203125,51.44,0.338937375,238.65
2021-06-21 12:43:52.039062500,-52.0,10.75,37.0,72.720390625,52.04,0.33905746875,238.65
2021-06-21 12:43:52.046875000,-52.0,10.5,37.0,72.72046875,52.64,0.33917756250000003,238.65
2021-06-21 12:43:52.054687500,-52.0,10.25,37.0,72.720546875,52.935,0.33929765625,238.65
2021-06-21 12:43:52.062500000,-52.0,10.0,37.0,72.720625,53.23,0.33941775,238.65
2021-06-21 12:43:52.070312500,-52.0,10.0,37.0,72.720703125,53.099999999999994,0.33953784375,238.65
2021-06-21 12:43:52.078125000,-52.0,10.0,37.0,72.72078125,52.97,0.3396579375,238.65
2021-06-21 12:43:52.085937500,-52.0,10.0,37.0,72.720859375,52.32,0.33977803125,238.65
2021-06-21 12:43:52.093750000,-52.0,10.0,37.0,72.7209375,51.67,0.339898125,238.65
2021-06-21 12:43:52.101562500,-52.0,10.0,37.0,72.72101562499999,50.515,0.34001821875,238.65
2021-06-21 12:43:52.109375000,-52.0,10.0,37.0,72.72109375,49.36,0.3401383125,238.65
2021-06-21 12:43:52.117187500,-52.0,10.0,37.0,72.721171875,47.885,0.34025840625,238.65
2021-06-21 12:43:52.125000000,-52.0,10.0,37.0,72.72125,46.41,0.34037850000000003,238.65
2021-06-21 12:43:52.132812500,-52.0,10.0,37.0,72.721328125,44.91,0.34049859375,238.65
2021-06-21 12:43:52.140625000,-52.0,10.0,37.0,72.72140625,43.41,0.3406186875,238.65
2021-06-21 12:43:52.148437500,-52.0,10.0,37.0,72.721484375,42.2,0.34073878125,238.65
2021-06-21 12:43:52.156250000,-52.0,10.0,37.0,72.7215625,40.99,0.340858875,238.65
2021-06-21 12:43:52.164062500,-52.0,10.25,37.0,72.721640625,40.260000000000005,0.34097896875,238.65
2021-06-21 12:43:52.171875000,-52.0,10.5,37.0,72.72171875,39.53,0.3410990625,238.65
2021-06-21 12:43:52.179687500,-52.0,10.75,37.0,72.721796875,39.25,0.34121915625,238.65
2021-06-21 12:43:52.187500000,-52.0,11.0,37.0,72.721875,38.97,0.34133925,238.65
2021-06-21 12:43:52.195312500,-52.0,11.0,37.0,72.721953125,38.905,0.34145934375,238.65
2021-06-21 12:43:52.203125000,-52.0,11.0,37.0,72.72203125,38.84,0.34157943749999997,238.65
2021-06-21 12:43:52.210937500,-52.0,11.0,37.0,72.722109375,38.605000000000004,0.34169953125,238.65
2021-06-21 12:43:52.218750000,-52.0,11.0,37.0,72.7221875,38.37,0.341819625,238.65
2021-06-21 12:43:52.226562500,-52.25,10.75,37.0,72.722265625,37.629999999999995,0.34193971875,238.65
2021-06-21 12:43:52.234375000,-52.5,10.5,37.0,72.72234375,36.89,0.3420598125,238.65
2021-06-21 12:43:52.242187500,-52.75,10.25,37.0,72.722421875,35.47,0.34217990625,238.65
2021-06-21 12:43:52.250000000,-53.0,10.0,37.0,72.7225,34.05,0.3423,238.65
2021-06-21 12:43:52.257812500,-52.75,10.0,37.0,72.722578125,32.004999999999995,0.342139875,238.65
2021-06-21 12:43:52.265625000,-52.5,10.0,37.0,72.72265625,29.96,0.34197974999999997,238.65
2021-06-21 12:43:52.273437500,-52.25,10.0,37.0,72.722734375,27.52,0.341819625,238.65
2021-06-21 12:43:52.281250000,-52.0,10.0,37.0,72.7228125,25.08,0.3416595,238.65
2021-06-21 12:43:52.289062500,-52.0,10.0,37.0,72.722890625,22.54,0.341499375,238.65
2021-06-21 12:43:52.296875000,-52.0,10.0,37.0,72.72296875,20.0,0.34133925,238.65
2021-06-21 12:43:52.304687500,-52.0,10.0,37.0,72.723046875,17.575,0.34117912499999997,238.65
2021-06-21 12:43:52.312500000,-52.0,10.0,37.0,72.723125,15.15,0.34101899999999996,238.65
2021-06-21 12:43:52.320312500,-52.0,10.25,37.0,72.723203125,12.905000000000001,0.340858875,238.65
2021-06-21 12:43:52.328125000,-52.0,10.5,37.0,72.72328125,10.66,0.34069875,238.65
2021-06-21 12:43:52.335937500,-52.0,10.75,37.0,72.723359375,8.51,0.340538625,238.65
2021-06-21 12:43:52.343750000,-52.0,11.0,37.0,72.7234375,6.36,0.3403785,238.65
2021-06-21 12:43:52.351562500,-52.0,10.75,37.0,72.723515625,4.13,0.34021837499999996,238.65
2021-06-21 12:43:52.359375000,-52.0,10.5,37.0,72.72359375,1.9,0.34005825,238.65
2021-06-21 12:43:52.367187500,-52.0,10.25,37.0,72.723671875,-0.5550000000000002,0.339898125,238.65
2021-06-21 12:43:52.375000000,-52.0,10.0,37.0,72.72375,-3.01,0.339738,238.65
2021-06-21 12:43:52.382812500,-52.0,10.0,37.0,72.723828125,-5.75,0.339577875,238.65
2021-06-21 12:43:52.390625000,-52.0,10.0,37.0,72.72390625,-8.49,0.33941774999999996,238.65
2021-06-21 12:43:52.398437500,-52.0,10.0,37.0,72.723984375,-11.435,0.339257625,238.65
2021-06-21 12:43:52.406250000,-52.0,10.0,37.0,72.7240625,-14.38,0.3390975,238.65
2021-06-21 12:43:52.414062500,-52.0,10.0,37.0,72.724140625,-17.405,0.338937375,238.65
2021-06-21 12:43:52.421875000,-52.0,10.0,37.0,72.72421875,-20.43,0.33877725,238.65
2021-06-21 12:43:52.429687500,-52.0,10.0,37.0,72.72429687500001,-23.4,0.33861712499999996,238.65
2021-06-21 12:43:52.437500000,-52.0,10.0,37.0,72.724375,-26.37,0.338457,238.65
2021-06-21 12:43:52.445312500,-52.0,10.0,37.0,72.724453125,-29.200000000000003,0.338296875,238.65
2021-06-21 12:43:52.453125000,-52.0,10.0,37.0,72.72453125,-32.03,0.33813675,238.65
2021-06-21 12:43:52.460937500,-52.0,10.0,37.0,72.724609375,-34.705,0.337976625,238.65
2021-06-21 12:43:52.468750000,-52.0,10.0,37.0,72.7246875,-37.38,0.33781649999999996,238.65
2021-06-21 12:43:52.476562500,-52.0,10.0,37.0,72.724765625,-39.905,0.33765637499999995,238.65
2021-06-21 12:43:52.484375000,-52.0,10.0,37.0,72.72484375,-42.43,0.33749625,238.65
2021-06-21 12:43:52.492187500,-52.0,10.0,37.0,72.724921875,-44.875,0.337336125,238.65
2021-06-21 12:43:52.500000000,-52.0,10.0,37.0,72.725,-47.32,0.337176,238.65
2021-06-21 12:43:52.507812500,-52.0,10.0,37.0,72.725078125,-49.82,0.33729609374999997,238.65
2021-06-21 12:43:52.515625000,-52.0,10.0,37.0,72.72515625,-52.32,0.33741618749999996,238.65
2021-06-21 12:43:52.523437500,-52.0,10.0,37.0,72.725234375,-55.14,0.33753628124999996,238.65
2021-06-21 12:43:52.531250000,-52.0,10.0,37.0,72.7253125,-57.96,0.337656375,238.65
2021-06-21 12:43:52.539062500,-52.25,10.0,37.0,72.725390625,-61.375,0.33777646875,238.65
2021-06-21 12:43:52.546875000,-52.5,10.0,37.0,72.72546875,-64.79,0.3378965625,238.65
2021-06-21 12:43:52.554687500,-52.75,10.0,37.0,72.725546875,-68.97,0.33801665625,238.65
2021-06-21 12:43:52.562500000,-53.0,10.0,37.0,72.72562500000001,-73.15,0.33813675,238.65
2021-06-21 12:43:52.570312500,-52.75,10.0,37.0,72.725703125,-77.915,0.33825684375,238.65
2021-06-21 12:43:52.578125000,-52.5,10.0,37.0,72.72578125,-82.68,0.3383769375,238.65
2021-06-21 12:43:52.585937500,-52.25,10.0,37.0,72.725859375,-87.37,0.33849703124999997,238.65
2021-06-21 12:43:52.593750000,-52.0,10.0,37.0,72.7259375,-92.06,0.33861712499999996,238.65
2021-06-21 12:43:52.601562500,-52.0,10.0,37.0,72.726015625,-95.66499999999999,0.33873721875,238.65
2021-06-21 12:43:52.609375000,-52.0,10.0,37.0,72.72609375,-99.27,0.3388573125,238.65
2021-06-21 12:43:52.617187500,-52.0,10.0,37.0,72.726171875,-100.68,0.33897740625,238.65
2021-06-21 12:43:52.625000000,-52.0,10.0,37.0,72.72625000000001,-102.09,0.3390975,238.65
2021-06-21 12:43:52.632812500,-52.25,10.0,37.0,72.72632812500001,-100.545,0.33921759375,238.65
2021-06-21 12:43:52.640625000,-52.5,10.0,37.0,72.72640625,-99.0,0.3393376875,238.65
2021-06-21 12:43:52.648437500,-52.75,10.0,37.0,72.726484375,-94.37,0.33945778125,238.65
2021-06-21 12:43:52.656250000,-53.0,10.0,37.0,72.7265625,-89.74,0.33957787500000003,238.65
2021-06-21 12:43:52.664062500,-52.75,10.0,37.0,72.726640625,-82.57499999999999,0.33969796875,238.65
2021-06-21 12:43:52.671875000,-52.5,10.0,37.0,72.72671875,-75.41,0.3398180625,238.65
2021-06-21 12:43:52.679687500,-52.25,10.0,37.0,72.726796875,-66.765,0.33993815625,238.65
2021-06-21 12:43:52.687500000,-52.0,10.0,37.0,72.726875,-58.12,0.34005825,238.65
2021-06-21 12:43:52.695312500,-52.0,10.0,37.0,72.72695312500001,-49.144999999999996,0.34017834375,238.65
2021-06-21 12:43:52.703125000,-52.0,10.0,37.0,72.72703125,-40.17,0.3402984375,238.65
2021-06-21 12:43:52.710937500,-52.0,10.0,37.0,72.727109375,-31.815,0.34041853125,238.65
2021-06-21 12:43:52.718750000,-52.0,10.0,37.0,72.7271875,-23.46,0.340538625,238.65
2021-06-21 12:43:52.726562500,-52.25,10.0,37.0,72.727265625,-16.310000000000002,0.34065871875000003,238.65
2021-06-21 12:43:52.734375000,-52.5,10.0,37.0,72.72734375,-9.16,0.34077881250000003,238.65
2021-06-21 12:43:52.742187500,-52.75,10.0,37.0,72.727421875,-3.4000000000000004,0.34089890625,238.65
2021-06-21 12:43:52.750000000,-53.0,10.0,37.0,72.7275,2.36,0.341019,238.65
2021-06-21 12:43:52.757812500,-52.75,10.0,37.0,72.72757812500001,6.779999999999999,0.34089890625,238.65
2021-06-21 12:43:52.765625000,-52.5,10.0,37.0,72.72765625000001,11.2,0.34077881250000003,238.65
2021-06-21 12:43:52.773437500,-52.25,10.0,37.0,72.727734375,14.465,0.34065871875000003,238.65
2021-06-21 12:43:52.781250000,-52.0,10.0,37.0,72.7278125,17.73,0.340538625,238.65
2021-06-21 12:43:52.789062500,-52.0,10.0,37.0,72.727890625,20.105,0.34041853125,238.65
2021-06-21 12:43:52.796875000,-52.0,10.0,37.0,72.72796875,22.48,0.3402984375,238.65
2021-06-21 12:43:52.804687500,-52.0,10.0,37.0,72.728046875,24.240000000000002,0.34017834375,238.65
2021-06-21 12:43:52.812500000,-52.0,10.0,37.0,72.728125,26.0,0.34005825,238.65
2021-06-21 12:43:52.820312500,-52.25,10.0,37.0,72.72820312500001,27.455,0.33993815625,238.65
2021-06-21 12:43:52.828125000,-52.5,10.0,37.0,72.72828125000001,28.91,0.3398180625,238.65
2021-06-21 12:43:52.835937500,-52.75,10.0,37.0,72.728359375,30.305,0.33969796875,238.65
2021-06-21 12:43:52.843750000,-53.0,10.0,37.0,72.7284375,31.7,0.33957787500000003,238.65
2021-06-21 12:43:52.851562500,-52.75,10.0,37.0,72.728515625,33.205,0.33945778125,238.65
2021-06-21 12:43:52.859375000,-52.5,10.0,37.0,72.72859375,34.71,0.3393376875,238.65
2021-06-21 12:43:52.867187500,-52.25,10.0,37.0,72.728671875,36.375,0.33921759375,238.65
2021-06-21 12:43:52.875000000,-52.0,10.0,37.0,72.72875,38.04,0.3390975,238.65
2021-06-21 12:43:52.882812500,-52.0,10.25,37.0,72.728828125,39.79,0.33897740625,238.65
2021-06-21 12:43:52.890625000,-52.0,10.5,37.0,72.72890625000001,41.54,0.3388573125,238.65
2021-06-21 12:43:52.898437500,-52.0,10.75,37.0,72.72898437500001,43.230000000000004,0.33873721875,238.65
2021-06-21 12:43:52.906250000,-52.0,11.0,37.0,72.7290625,44.92,0.33861712499999996,238.65
2021-06-21 12:43:52.914062500,-52.0,10.75,37.0,72.729140625,46.385000000000005,0.33849703124999997,238.65
2021-06-21 12:43:52.921875000,-52.0,10.5,37.0,72.72921875,47.85,0.3383769375,238.65
2021-06-21 12:43:52.929687500,-52.0,10.25,37.0,72.729296875,48.95,0.33825684375,238.65
2021-06-21 12:43:52.937500000,-52.0,10.0,37.0,72.729375,50.05,0.33813675,238.65
2021-06-21 12:43:52.945312500,-52.0,10.0,37.25,72.729453125,50.765,0.33801665625,238.65
2021-06-21 12:43:52.953125000,-52.0,10.0,37.5,72.72953125000001,51.48,0.3378965625,238.65
2021-06-21 12:43:52.960937500,-52.0,10.0,37.75,72.72960937500001,51.86,0.33777646875,238.65
2021-06-21 12:43:52.968750000,-52.0,10.0,38.0,72.7296875,52.24,0.337656375,238.65
2021-06-21 12:43:52.976562500,-52.0,10.0,37.75,72.729765625,52.394999999999996,0.33753628124999996,238.65
2021-06-21 12:43:52.984375000,-52.0,10.0,37.5,72.72984375,52.55,0.33741618749999996,238.65
2021-06-21 12:43:52.992187500,-52.0,10.0,37.25,72.729921875,52.605,0.33729609374999997,238.65
2021-06-21 12:43:53.000000000,-52.0,10.0,37.0,72.73,52.66,0.337176,238.65
2021-06-21 12:43:53.007812500,-52.0,10.0,37.0,72.730546875,52.655,0.33737615625,238.65
2021-06-21 12:43:53.015625000,-52.0,10.0,37.0,72.73109375,52.65,0.3375763125,238.65
2021-06-21 12:43:53.023437500,-52.0,10.0,37.0,72.731640625,52.53,0.33777646875,238.65
2021-06-21 12:43:53.031250000,-52.0,10.0,37.0,72.73218750000001,52.41,0.337976625,238.65
2021-06-21 12:43:53.039062500,-52.0,10.0,37.0,72.732734375,52.06,0.33817678125,238.65
2021-06-21 12:43:53.046875000,-52.0,10.0,37.0,72.73328125,51.71,0.3383769375,238.65
2021-06-21 12:43:53.054687500,-52.0,10.0,37.0,72.733828125,50.99,0.33857709375,238.65
2021-06-21 12:43:53.062500000,-52.0,10.0,37.0,72.734375,50.27,0.33877725,238.65
2021-06-21 12:43:53.070312500,-52.0,10.0,37.0,72.734921875,49.085,0.33897740625,238.65
2021-06-21 12:43:53.078125000,-52.0,10.0,37.0,72.73546875000001,47.9,0.3391775625,238.65
2021-06-21 12:43:53.085937500,-52.0,10.0,37.0,72.73601562500001,46.224999999999994,0.33937771875,238.65
2021-06-21 12:43:53.093750000,-52.0,10.0,37.0,72.7365625,44.55,0.339577875,238.65
2021-06-21 12:43:53.101562500,-52.0,10.0,37.0,72.737109375,42.44,0.33977803125,238.65
2021-06-21 12:43:53.109375000,-52.0,10.0,37.0,72.73765625,40.33,0.3399781875,238.65
2021-06-21 12:43:53.117187500,-52.0,10.0,37.0,72.738203125,37.87,0.34017834375,238.65
2021-06-21 12:43:53.125000000,-52.0,10.0,37.0,72.73875000000001,35.41,0.34037850000000003,238.65
2021-06-21 12:43:53.132812500,-52.25,10.0,37.0,72.73929687500001,32.739999999999995,0.34057865625,238.65
2021-06-21 12:43:53.140625000,-52.5,10.0,37.0,72.73984375,30.07,0.34077881250000003,238.65
2021-06-21 12:43:53.148437500,-52.75,10.0,37.0,72.740390625,27.34,0.34097896875,238.65
2021-06-21 12:43:53.156250000,-53.0,10.0,37.0,72.7409375,24.61,0.341179125,238.65
2021-06-21 12:43:53.164062500,-52.75,10.0,37.0,72.741484375,21.994999999999997,0.34137928125,238.65
2021-06-21 12:43:53.171875000,-52.5,10.0,37.0,72.74203125,19.38,0.3415794375,238.65
2021-06-21 12:43:53.179687500,-52.25,10.0,37.0,72.74257812500001,17.025,0.34177959375,238.65
2021-06-21 12:43:53.187500000,-52.0,10.0,37.0,72.743125,14.67,0.34197975,238.65
2021-06-21 12:43:53.195312500,-52.0,10.0,37.0,72.743671875,12.64,0.34217990625,238.65
2021-06-21 12:43:53.203125000,-52.0,10.0,37.0,72.74421875,10.61,0.3423800625,238.65
2021-06-21 12:43:53.210937500,-52.0,10.0,37.0,72.744765625,8.855,0.34258021875,238.65
2021-06-21 12:43:53.218750000,-52.0,10.0,37.0,72.7453125,7.1,0.342780375,238.65
2021-06-21 12:43:53.226562500,-52.0,10.0,37.0,72.74585937500001,5.4399999999999995,0.34298053125,238.65
2021-06-21 12:43:53.234375000,-52.0,10.0,37.0,72.74640625,3.78,0.3431806875,238.65
2021-06-21 12:43:53.242187500,-52.0,10.0,37.0,72.746953125,1.9649999999999999,0.34338084375,238.65
2021-06-21 12:43:53.250000000,-52.0,10.0,37.0,72.7475,0.15,0.343581,238.65
2021-06-21 12:43:53.257812500,-52.25,10.25,37.0,72.748046875,-2.0200000000000005,0.34354096875,238.65
2021-06-21 12:43:53.265625000,-52.5,10.5,37.0,72.74859375,-4.19,0.34350093750000005,238.65
2021-06-21 12:43:53.273437500,-52.75,10.75,37.0,72.749140625,-6.800000000000001,0.34346090625000003,238.65
2021-06-21 12:43:53.281250000,-53.0,11.0,37.0,72.74968750000001,-9.41,0.343420875,238.65
2021-06-21 12:43:53.289062500,-52.75,11.0,37.0,72.750234375,-12.344999999999999,0.34338084375,238.65
2021-06-21 12:43:53.296875000,-52.5,11.0,37.0,72.75078125,-15.28,0.34334081250000004,238.65
2021-06-21 12:43:53.304687500,-52.25,11.0,37.0,72.751328125,-18.28,0.34330078125,238.65
2021-06-21 12:43:53.312500000,-52.0,11.0,37.0,72.751875,-21.28,0.34326075,238.65
2021-06-21 12:43:53.320312500,-52.0,11.0,37.0,72.752421875,-24.04,0.34322071875000004,238.65
2021-06-21 12:43:53.328125000,-52.0,11.0,37.0,72.75296875000001,-26.8,0.3431806875,238.65
2021-06-21 12:43:53.335937500,-52.0,11.0,37.0,72.753515625,-29.05,0.34314065625,238.65
2021-06-21 12:43:53.343750000,-52.0,11.0,37.0,72.7540625,-31.3,0.343100625,238.65
2021-06-21 12:43:53.351562500,-52.25,11.0,37.25,72.754609375,-32.945,0.34306059375000003,238.65
2021-06-21 12:43:53.359375000,-52.5,11.0,37.5,72.75515625,-34.59,0.3430205625,238.65
2021-06-21 12:43:53.367187500,-52.75,11.0,37.75,72.755703125,-35.74,0.34298053125,238.65
2021-06-21 12:43:53.375000000,-53.0,11.0,38.0,72.75625,-36.89,0.3429405,238.65
2021-06-21 12:43:53.382812500,-53.0,11.0,37.75,72.756796875,-37.86,0.34290046875,238.65
2021-06-21 12:43:53.390625000,-53.0,11.0,37.5,72.75734375,-38.83,0.3428604375,238.65
2021-06-21 12:43:53.398437500,-53.0,11.0,37.25,72.757890625,-40.06,0.34282040625,238.65
2021-06-21 12:43:53.406250000,-53.0,11.0,37.0,72.7584375,-41.29,0.342780375,238.65
2021-06-21 12:43:53.414062500,-52.75,11.0,37.0,72.758984375,-43.26,0.34274034375,238.65
2021-06-21 12:43:53.421875000,-52.5,11.0,37.0,72.75953125,-45.23,0.3427003125,238.65
2021-06-21 12:43:53.429687500,-52.25,11.0,37.0,72.760078125,-48.254999999999995,0.34266028125,238.65
2021-06-21 12:43:53.437500000,-52.0,11.0,37.0,72.760625,-51.28,0.34262025,238.65
2021-06-21 12:43:53.445312500,-52.0,10.75,37.0,72.761171875,-55.370000000000005,0.34258021875,238.65
2021-06-21 12:43:53.453125000,-52.0,10.5,37.0,72.76171875,-59.46,0.3425401875,238.65
2021-06-21 12:43:53.460937500,-52.0,10.25,37.0,72.762265625,-64.225,0.34250015625,238.65
2021-06-21 12:43:53.468750000,-52.0,10.0,37.0,72.7628125,-68.99,0.342460125,238.65
2021-06-21 12:43:53.476562500,-52.25,10.0,37.0,72.76335937500001,-73.66999999999999,0.34242009375,238.65
2021-06-21 12:43:53.484375000,-52.5,10.0,37.0,72.76390625,-78.35,0.34238006249999997,238.65
2021-06-21 12:43:53.492187500,-52.75,10.0,37.0,72.764453125,-81.955,0.34234003125,238.65
2021-06-21 12:43:53.500000000,-53.0,10.0,37.0,72.765,-85.56,0.3423,238.65
2021-06-21 12:43:53.507812500,-53.0,10.0,37.0,72.765546875,-87.12,0.3422199375,238.65
2021-06-21 12:43:53.515625000,-53.0,10.0,37.0,72.76609375,-88.68,0.342139875,238.65
2021-06-21 12:43:53.523437500,-53.0,10.0,37.0,72.766640625,-87.515,0.3420598125,238.65
2021-06-21 12:43:53.531250000,-53.0,10.0,37.0,72.7671875,-86.35,0.34197974999999997,238.65
2021-06-21 12:43:53.539062500,-53.0,10.0,37.0,72.767734375,-82.25999999999999,0.3418996875,238.65
2021-06-21 12:43:53.546875000,-53.0,10.0,37.0,72.76828125,-78.17,0.341819625,238.65
2021-06-21 12:43:53.554687500,-53.0,10.0,37.0,72.768828125,-71.505,0.3417395625,238.65
2021-06-21 12:43:53.562500000,-53.0,10.0,37.0,72.769375,-64.84,0.3416595,238.65
2021-06-21 12:43:53.570312500,-52.75,10.0,37.25,72.769921875,-56.38,0.34157943749999997,238.65
2021-06-21 12:43:53.578125000,-52.5,10.0,37.5,72.77046875,-47.92,0.341499375,238.65
2021-06-21 12:43:53.585937500,-52.25,10.0,37.75,72.771015625,-38.71,0.3414193125,238.65
2021-06-21 12:43:53.593750000,-52.0,10.0,38.0,72.7715625,-29.5,0.34133925,238.65
2021-06-21 12:43:53.601562500,-52.0,10.25,37.75,72.772109375,-20.575,0.3412591875,238.65
2021-06-21 12:43:53.609375000,-52.0,10.5,37.5,72.77265625,-11.65,0.34117912499999997,238.65
2021-06-21 12:43:53.617187500,-52.0,10.75,37.25,72.773203125,-3.8000000000000007,0.3410990625,238.65
2021-06-21 12:43:53.625000000,-52.0,11.0,37.0,72.77375,4.05,0.34101899999999996,238.65
2021-06-21 12:43:53.632812500,-52.0,11.0,37.0,72.774296875,10.355,0.3409389375,238.65
2021-06-21 12:43:53.640625000,-52.0,11.0,37.0,72.77484375,16.66,0.340858875,238.65
2021-06-21 12:43:53.648437500,-52.0,11.0,37.0,72.775390625,21.305,0.3407788125,238.65
2021-06-21 12:43:53.656250000,-52.0,11.0,37.0,72.7759375,25.95,0.34069875,238.65
2021-06-21 12:43:53.664062500,-52.0,11.0,37.0,72.776484375,29.095,0.34061868749999996,238.65
2021-06-21 12:43:53.671875000,-52.0,11.0,37.0,72.77703125,32.24,0.340538625,238.65
2021-06-21 12:43:53.679687500,-52.0,11.0,37.0,72.777578125,34.205,0.3404585625,238.65
2021-06-21 12:43:53.687500000,-52.0,11.0,37.0,72.778125,36.17,0.3403785,238.65
2021-06-21 12:43:53.695312500,-52.0,10.75,37.0,72.778671875,37.325,0.3402984375,238.65
2021-06-21 12:43:53.703125000,-52.0,10.5,37.0,72.77921875,38.48,0.34021837499999996,238.65
2021-06-21 12:43:53.710937500,-52.0,10.25,37.0,72.779765625,39.14,0.3401383125,238.65
2021-06-21 12:43:53.718750000,-52.0,10.0,37.0,72.7803125,39.8,0.34005825,238.65
2021-06-21 12:43:53.726562500,-52.0,10.0,37.0,72.780859375,40.22,0.3399781875,238.65
2021-06-21 12:43:53.734375000,-52.0,10.0,37.0,72.78140625,40.64,0.339898125,238.65
2021-06-21 12:43:53.742187500,-52.0,10.0,37.0,72.781953125,40.985,0.33981806249999996,238.65
2021-06-21 12:43:53.750000000,-52.0,10.0,37.0,72.7825,41.33,0.339738,238.65
2021-06-21 12:43:53.757812500,-52.0,10.0,37.0,72.783046875,41.665,0.33985809375,238.65
2021-06-21 12:43:53.765625000,-52.0,10.0,37.0,72.78359375,42.0,0.3399781875,238.65
2021-06-21 12:43:53.773437500,-52.0,10.0,37.0,72.78414062499999,42.315,0.34009828124999997,238.65
2021-06-21 12:43:53.781250000,-52.0,10.0,37.0,72.7846875,42.63,0.34021837499999996,238.65
2021-06-21 12:43:53.789062500,-52.0,10.0,37.0,72.785234375,42.85,0.34033846875,238.65
2021-06-21 12:43:53.796875000,-52.0,10.0,37.0,72.78578125,43.07,0.3404585625,238.65
2021-06-21 12:43:53.804687500,-52.0,10.0,37.0,72.786328125,43.11,0.34057865625,238.65
2021-06-21 12:43:53.812500000,-52.0,10.0,37.0,72.786875,43.15,0.34069875,238.65
2021-06-21 12:43:53.820312500,-52.0,10.25,37.25,72.78742187499999,42.955,0.34081884375,238.65
2021-06-21 12:43:53.828125000,-52.0,10.5,37.5,72.78796875,42.76,0.3409389375,238.65
2021-06-21 12:43:53.835937500,-52.0,10.75,37.75,72.788515625,42.325,0.34105903125,238.65
2021-06-21 12:43:53.843750000,-52.0,11.0,38.0,72.7890625,41.89,0.341179125,238.65
2021-06-21 12:43:53.851562500,-52.0,11.0,37.75,72.789609375,41.305,0.34129921875,238.65
2021-06-21 12:43:53.859375000,-52.0,11.0,37.5,72.79015625,40.72,0.3414193125,238.65
2021-06-21 12:43:53.867187500,-52.0,11.0,37.25,72.790703125,40.085,0.34153940625,238.65
2021-06-21 12:43:53.875000000,-52.0,11.0,37.0,72.79124999999999,39.45,0.3416595,238.65
2021-06-21 12:43:53.882812500,-52.0,11.0,37.0,72.791796875,38.845,0.34177959375,238.65
2021-06-21 12:43:53.890625000,-52.0,11.0,37.0,72.79234375,38.24,0.3418996875,238.65
2021-06-21 12:43:53.898437500,-52.0,11.0,37.0,72.792890625,37.71,0.34201978125,238.65
2021-06-21 12:43:53.906250000,-52.0,11.0,37.0,72.7934375,37.18,0.342139875,238.65
2021-06-21 12:43:53.914062500,-52.0,11.0,37.25,72.793984375,36.665,0.34225996875000003,238.65
2021-06-21 12:43:53.921875000,-52.0,11.0,37.5,72.79453124999999,36.15,0.3423800625,238.65
2021-06-21 12:43:53.929687500,-52.0,11.0,37.75,72.795078125,35.56,0.34250015625,238.65
2021-06-21 12:43:53.937500000,-52.0,11.0,38.0,72.795625,34.97,0.34262025,238.65
2021-06-21 12:43:53.945312500,-52.0,10.75,38.0,72.796171875,34.195,0.34274034375,238.65
2021-06-21 12:43:53.953125000,-52.0,10.5,38.0,72.79671875,33.42,0.3428604375,238.65
2021-06-21 12:43:53.960937500,-52.0,10.25,38.0,72.797265625,32.375,0.34298053125,238.65
2021-06-21 12:43:53.968750000,-52.0,10.0,38.0,72.79781249999999,31.33,0.34310062500000005,238.65
2021-06-21 12:43:53.976562500,-52.0,10.0,37.75,72.798359375,29.979999999999997,0.34322071875000004,238.65
2021-06-21 12:43:53.984375000,-52.0,10.0,37.5,72.79890625,28.63,0.34334081250000004,238.65
2021-06-21 12:43:53.992187500,-52.0,10.0,37.25,72.799453125,26.979999999999997,0.34346090625000003,238.65
2021-06-21 12:43:54.000000000,-52.0,10.0,37.0,72.8,25.33,0.343581,238.65
2021-06-21 12:43:54.007812500,-52.0,10.25,37.0,72.800625,23.4,0.343420875,238.65
2021-06-21 12:43:54.015625000,-52.0,10.5,37.0,72.80125,21.47,0.34326075,238.65
2021-06-21 12:43:54.023437500,-52.0,10.75,37.0,72.801875,19.31,0.34310062500000005,238.65
2021-06-21 12:43:54.031250000,-52.0,11.0,37.0,72.8025,17.15,0.34294050000000004,238.65
2021-06-21 12:43:54.039062500,-52.0,11.0,37.25,72.803125,14.815,0.342780375,238.65
2021-06-21 12:43:54.046875000,-52.0,11.0,37.5,72.80375,12.48,0.34262025,238.65
2021-06-21 12:43:54.054687500,-52.0,11.0,37.75,72.804375,10.015,0.342460125,238.65
2021-06-21 12:43:54.062500000,-52.0,11.0,38.0,72.80499999999999,7.55,0.34230000000000005,238.65
2021-06-21 12:43:54.070312500,-52.0,10.75,37.75,72.80562499999999,5.005,0.34213987500000004,238.65
2021-06-21 12:43:54.078125000,-52.0,10.5,37.5,72.80624999999999,2.46,0.34197975,238.65
2021-06-21 12:43:54.085937500,-52.0,10.25,37.25,72.80687499999999,-0.1299999999999999,0.341819625,238.65
2021-06-21 12:43:54.093750000,-52.0,10.0,37.0,72.80749999999999,-2.72,0.3416595,238.65
2021-06-21 12:43:54.101562500,-52.0,10.0,37.0,72.808125,-5.33,0.341499375,238.65
2021-06-21 12:43:54.109375000,-52.0,10.0,37.0,72.80875,-7.94,0.34133925000000004,238.65
2021-06-21 12:43:54.117187500,-52.0,10.0,37.0,72.809375,-10.555,0.341179125,238.65
2021-06-21 12:43:54.125000000,-52.0,10.0,37.0,72.81,-13.17,0.341019,238.65
2021-06-21 12:43:54.132812500,-52.0,10.25,37.0,72.810625,-15.75,0.340858875,238.65
2021-06-21 12:43:54.140625000,-52.0,10.5,37.0,72.81125,-18.33,0.34069875,238.65
2021-06-21 12:43:54.148437500,-52.0,10.75,37.0,72.811875,-20.805,0.34053862500000004,238.65
2021-06-21 12:43:54.156250000,-52.0,11.0,37.0,72.8125,-23.28,0.34037850000000003,238.65
2021-06-21 12:43:54.164062500,-52.0,10.75,37.0,72.813125,-25.575000000000003,0.340218375,238.65
2021-06-21 12:43:54.171875000,-52.0,10.5,37.0,72.81375,-27.87,0.34005825,238.65
2021-06-21 12:43:54.179687500,-52.0,10.25,37.0,72.814375,-29.939999999999998,0.339898125,238.65
2021-06-21 12:43:54.187500000,-52.0,10.0,37.0,72.815,-32.01,0.339738,238.65
2021-06-21 12:43:54.195312500,-52.0,10.0,37.0,72.815625,-33.894999999999996,0.33957787500000003,238.65
2021-06-21 12:43:54.203125000,-52.0,10.0,37.0,72.81625,-35.78,0.33941775,238.65
2021-06-21 12:43:54.210937500,-52.0,10.0,37.0,72.816875,-37.66,0.339257625,238.65
2021-06-21 12:43:54.218750000,-52.0,10.0,37.0,72.8175,-39.54,0.3390975,238.65
2021-06-21 12:43:54.226562500,-52.0,10.25,37.0,72.818125,-41.730000000000004,0.338937375,238.65
2021-06-21 12:43:54.234375000,-52.0,10.5,37.0,72.81875,-43.92,0.33877725000000003,238.65
2021-06-21 12:43:54.242187500,-52.0,10.75,37.0,72.819375,-46.755,0.338617125,238.65
2021-06-21 12:43:54.250000000,-52.0,11.0,37.0,72.82,-49.59,0.338457,238.65
2021-06-21 12:43:54.257812500,-52.0,10.75,37.0,72.82062499999999,-53.24,0.338617125,238.65
2021-06-21 12:43:54.265625000,-52.0,10.5,37.0,72.82124999999999,-56.89,0.33877725000000003,238.65
2021-06-21 12:43:54.273437500,-52.0,10.25,37.0,72.82187499999999,-61.17,0.338937375,238.65
2021-06-21 12:43:54.281250000,-52.0,10.0,37.0,72.82249999999999,-65.45,0.3390975,238.65
2021-06-21 12:43:54.289062500,-52.0,10.0,37.0,72.82312499999999,-69.77000000000001,0.339257625,238.65
2021-06-21 12:43:54.296875000,-52.0,10.0,37.0,72.82374999999999,-74.09,0.33941775,238.65
2021-06-21 12:43:54.304687500,-52.0,10.0,37.0,72.824375,-77.53,0.33957787500000003,238.65
2021-06-21 12:43:54.312500000,-52.0,10.0,37.0,72.825,-80.97,0.339738,238.65
2021-06-21 12:43:54.320312500,-52.0,10.0,37.25,72.825625,-82.555,0.339898125,238.65
2021-06-21 12:43:54.328125000,-52.0,10.0,37.5,72.82625,-84.14,0.34005825,238.65
2021-06-21 12:43:54.335937500,-52.0,10.0,37.75,72.826875,-83.16,0.340218375,238.65
2021-06-21 12:43:54.343750000,-52.0,10.0,38.0,72.8275,-82.18,0.34037850000000003,238.65
2021-06-21 12:43:54.351562500,-52.0,10.0,37.75,72.828125,-78.445,0.34053862500000004,238.65
2021-06-21 12:43:54.359375000,-52.0,10.0,37.5,72.82875,-74.71,0.34069875,238.65
2021-06-21 12:43:54.367187500,-52.0,10.0,37.25,72.829375,-68.63499999999999,0.340858875,238.65
2021-06-21 12:43:54.375000000,-52.0,10.0,37.0,72.83,-62.56,0.341019,238.65
2021-06-21 12:43:54.382812500,-52.0,10.25,37.0,72.830625,-55.0,0.341179125,238.65
2021-06-21 12:43:54.390625000,-52.0,10.5,37.0,72.83125,-47.44,0.34133925000000004,238.65
2021-06-21 12:43:54.398437500,-52.0,10.75,37.0,72.831875,-39.405,0.341499375,238.65
2021-06-21 12:43:54.406250000,-52.0,11.0,37.0,72.8325,-31.37,0.3416595,238.65
2021-06-21 12:43:54.414062500,-52.0,10.75,37.0,72.833125,-23.75,0.341819625,238.65
2021-06-21 12:43:54.421875000,-52.0,10.5,37.0,72.83375,-16.13,0.34197975,238.65
2021-06-21 12:43:54.429687500,-52.0,10.25,37.0,72.834375,-9.52,0.34213987500000004,238.65
2021-06-21 12:43:54.437500000,-52.0,10.0,37.0,72.835,-2.91,0.34230000000000005,238.65
2021-06-21 12:43:54.445312500,-52.0,10.0,37.0,72.835625,2.42,0.342460125,238.65
2021-06-21 12:43:54.453125000,-52.0,10.0,37.0,72.83624999999999,7.75,0.34262025,238.65
2021-06-21 12:43:54.460937500,-52.0,10.0,37.0,72.83687499999999,11.785,0.342780375,238.65
2021-06-21 12:43:54.468750000,-52.0,10.0,37.0,72.83749999999999,15.82,0.34294050000000004,238.65
2021-06-21 12:43:54.476562500,-52.0,10.25,37.25,72.83812499999999,18.68,0.34310062500000005,238.65
2021-06-21 12:43:54.484375000,-52.0,10.5,37.5,72.83874999999999,21.54,0.34326075,238.65
2021-06-21 12:43:54.492187500,-52.0,10.75,37.75,72.83937499999999,23.42,0.343420875,238.65
2021-06-21 12:43:54.500000000,-52.0,11.0,38.0,72.84,25.3,0.343581,238.65
2021-06-21 12:43:54.507812500,-52.0,11.0,38.0,72.840625,26.39,0.34346090625000003,238.65
2021-06-21 12:43:54.515625000,-52.0,11.0,38.0,72.84125,27.48,0.34334081250000004,238.65
2021-06-21 12:43:54.523437500,-52.0,11.0,38.0,72.841875,28.015,0.34322071875000004,238.65
2021-06-21 12:43:54.531250000,-52.0,11.0,38.0,72.8425,28.55,0.34310062500000005,238.65
2021-06-21 12:43:54.539062500,-52.0,10.75,37.75,72.843125,28.735,0.34298053125,238.65
2021-06-21 12:43:54.546875000,-52.0,10.5,37.5,72.84375,28.92,0.3428604375,238.65
2021-06-21 12:43:54.554687500,-52.0,10.25,37.25,72.844375,28.96,0.34274034375,238.65
2021-06-21 12:43:54.562500000,-52.0,10.0,37.0,72.845,29.0,0.34262025,238.65
2021-06-21 12:43:54.570312500,-52.0,10.25,37.0,72.845625,29.035,0.34250015625,238.65
2021-06-21 12:43:54.578125000,-52.0,10.5,37.0,72.84625,29.07,0.3423800625,238.65
2021-06-21 12:43:54.585937500,-52.0,10.75,37.0,72.846875,29.189999999999998,0.34225996875000003,238.65
2021-06-21 12:43:54.593750000,-52.0,11.0,37.0,72.8475,29.31,0.342139875,238.65
2021-06-21 12:43:54.601562500,-52.0,11.0,37.0,72.848125,29.509999999999998,0.34201978125,238.65
2021-06-21 12:43:54.609375000,-52.0,11.0,37.0,72.84875,29.71,0.3418996875,238.65
2021-06-21 12:43:54.617187500,-52.0,11.0,37.0,72.849375,29.9,0.34177959375,238.65
2021-06-21 12:43:54.625000000,-52.0,11.0,37.0,72.85,30.09,0.3416595,238.65
2021-06-21 12:43:54.632812500,-52.0,10.75,37.0,72.850625,30.155,0.34153940625,238.65
2021-06-21 12:43:54.640625000,-52.0,10.5,37.0,72.85125,30.22,0.3414193125,238.65
2021-06-21 12:43:54.648437500,-52.0,10.25,37.0,72.85187499999999,30.064999999999998,0.34129921875,238.65
2021-06-21 12:43:54.656250000,-52.0,10.0,37.0,72.85249999999999,29.91,0.341179125,238.65
2021-06-21 12:43:54.664062500,-52.0,10.0,37.0,72.85312499999999,29.5,0.34105903125,238.65
2021-06-21 12:43:54.671875000,-52.0,10.0,37.0,72.85374999999999,29.09,0.3409389375,238.65
2021-06-21 12:43:54.679687500,-52.0,10.0,37.0,72.85437499999999,28.490000000000002,0.34081884375,238.65
2021-06-21 12:43:54.687500000,-52.0,10.0,37.0,72.85499999999999,27.89,0.34069875,238.65
2021-06-21 12:43:54.695312500,-52.0,10.25,37.0,72.85562499999999,27.225,0.34057865625,238.65
2021-06-21 12:43:54.703125000,-52.0,10.5,37.0,72.85625,26.56,0.3404585625,238.65
2021-06-21 12:43:54.710937500,-52.0,10.75,37.0,72.856875,25.97,0.34033846875,238.65
2021-06-21 12:43:54.718750000,-52.0,11.0,37.0,72.8575,25.38,0.34021837499999996,238.65
2021-06-21 12:43:54.726562500,-52.0,10.75,37.0,72.858125,24.979999999999997,0.34009828124999997,238.65
2021-06-21 12:43:54.734375000,-52.0,10.5,37.0,72.85875,24.58,0.3399781875,238.65
2021-06-21 12:43:54.742187500,-52.0,10.25,37.0,72.859375,24.38,0.33985809375,238.65
2021-06-21 12:43:54.750000000,-52.0,10.0,37.0,72.86,24.18,0.339738,238.65
2021-06-21 12:43:54.757812500,-52.0,10.0,37.0,72.860625,24.08,0.33981806249999996,238.65
2021-06-21 12:43:54.765625000,-52.0,10.0,37.0,72.86125,23.98,0.339898125,238.65
2021-06-21 12:43:54.773437500,-52.0,10.0,37.0,72.861875,23.8,0.3399781875,238.65
2021-06-21 12:43:54.781250000,-52.0,10.0,37.0,72.8625,23.62,0.34005825,238.65
2021-06-21 12:43:54.789062500,-52.0,10.25,37.0,72.863125,23.145000000000003,0.3401383125,238.65
2021-06-21 12:43:54.796875000,-52.0,10.5,37.0,72.86375,22.67,0.34021837499999996,238.65
2021-06-21 12:43:54.804687500,-52.0,10.75,37.0,72.864375,21.745,0.3402984375,238.65
2021-06-21 12:43:54.812500000,-52.0,11.0,37.0,72.865,20.82,0.3403785,238.65
2021-06-21 12:43:54.820312500,-52.0,11.0,37.25,72.865625,19.37,0.3404585625,238.65
2021-06-21 12:43:54.828125000,-52.0,11.0,37.5,72.86625,17.92,0.340538625,238.65
2021-06-21 12:43:54.835937500,-52.0,11.0,37.75,72.866875,16.03,0.34061868749999996,238.65
2021-06-21 12:43:54.843750000,-52.0,11.0,38.0,72.86749999999999,14.14,0.34069875,238.65
2021-06-21 12:43:54.851562500,-52.0,10.75,38.0,72.86812499999999,12.004999999999999,0.3407788125,238.65
2021-06-21 12:43:54.859375000,-52.0,10.5,38.0,72.86874999999999,9.87,0.340858875,238.65
2021-06-21 12:43:54.867187500,-52.0,10.25,38.0,72.86937499999999,7.7299999999999995,0.3409389375,238.65
2021-06-21 12:43:54.875000000,-52.0,10.0,38.0,72.86999999999999,5.59,0.34101899999999996,238.65
2021-06-21 12:43:54.882812500,-52.0,10.0,37.75,72.87062499999999,3.635,0.3410990625,238.65
2021-06-21 12:43:54.890625000,-52.0,10.0,37.5,72.87124999999999,1.68,0.34117912499999997,238.65
2021-06-21 12:43:54.898437500,-52.0,10.0,37.25,72.87187499999999,-0.040000000000000036,0.3412591875,238.65
2021-06-21 12:43:54.906250000,-52.0,10.0,37.0,72.8725,-1.76,0.34133925,238.65
2021-06-21 12:43:54.914062500,-52.0,10.25,37.0,72.873125,-3.3550000000000004,0.3414193125,238.65
2021-06-21 12:43:54.921875000,-52.0,10.5,37.0,72.87375,-4.95,0.341499375,238.65
2021-06-21 12:43:54.929687500,-52.0,10.75,37.0,72.874375,-6.654999999999999,0.34157943749999997,238.65
2021-06-21 12:43:54.937500000,-52.0,11.0,37.0,72.875,-8.36,0.3416595,238.65
2021-06-21 12:43:54.945312500,-52.0,10.75,37.0,72.875625,-10.39,0.3417395625,238.65
2021-06-21 12:43:54.953125000,-52.0,10.5,37.0,72.87625,-12.42,0.341819625,238.65
2021-06-21 12:43:54.960937500,-52.0,10.25,37.0,72.876875,-14.855,0.3418996875,238.65
2021-06-21 12:43:54.968750000,-52.0,10.0,37.0,72.8775,-17.29,0.34197974999999997,238.65
2021-06-21 12:43:54.976562500,-52.0,10.0,37.25,72.878125,-20.03,0.3420598125,238.65
2021-06-21 12:43:54.984375000,-52.0,10.0,37.5,72.87875,-22.77,0.342139875,238.65
2021-06-21 12:43:54.992187500,-52.0,10.0,37.75,72.879375,-25.57,0.3422199375,238.65
2021-06-21 12:43:55.000000000,-52.0,10.0,38.0,72.88,-28.37,0.3423,238.65
2021-06-21 12:43:55.007812500,-52.25,10.0,38.0,72.88078125,-30.975,0.34217990625,238.65
2021-06-21 12:43:55.015625000,-52.5,10.0,38.0,72.8815625,-33.58,0.3420598125,238.65
2021-06-21 12:43:55.023437500,-52.75,10.0,38.0,72.88234374999999,-35.864999999999995,0.34193971875,238.65
2021-06-21 12:43:55.031250000,-53.0,10.0,38.0,72.88312499999999,-38.15,0.341819625,238.65
2021-06-21 12:43:55.039062500,-52.75,10.25,37.75,72.88390625,-40.224999999999994,0.34169953125,238.65
2021-06-21 12:43:55.046875000,-52.5,10.5,37.5,72.8846875,-42.3,0.34157943749999997,238.65
2021-06-21 12:43:55.054687500,-52.25,10.75,37.25,72.88546875,-44.425,0.34145934375,238.65
2021-06-21 12:43:55.062500000,-52.0,11.0,37.0,72.88624999999999,-46.55,0.34133925,238.65
2021-06-21 12:43:55.070312500,-52.0,11.0,37.0,72.88703124999999,-49.099999999999994,0.34121915625,238.65
2021-06-21 12:43:55.078125000,-52.0,11.0,37.0,72.8878125,-51.65,0.3410990625,238.65
2021-06-21 12:43:55.085937500,-52.0,11.0,37.0,72.88859375,-54.925,0.34097896875,238.65
2021-06-21 12:43:55.093750000,-52.0,11.0,37.0,72.889375,-58.2,0.340858875,238.65
2021-06-21 12:43:55.101562500,-52.25,10.75,37.0,72.89015624999999,-62.335,0.34073878125,238.65
2021-06-21 12:43:55.109375000,-52.5,10.5,37.0,72.89093749999999,-66.47,0.3406186875,238.65
2021-06-21 12:43:55.117187500,-52.75,10.25,37.0,72.89171875,-71.34,0.34049859375,238.65
2021-06-21 12:43:55.125000000,-53.0,10.0,37.0,72.8925,-76.21,0.34037850000000003,238.65
2021-06-21 12:43:55.132812500,-53.0,10.0,37.25,72.89328125,-81.375,0.34025840625,238.65
2021-06-21 12:43:55.140625000,-53.0,10.0,37.5,72.89406249999999,-86.54,0.3401383125,238.65
2021-06-21 12:43:55.148437500,-53.0,10.0,37.75,72.89484374999999,-91.30000000000001,0.34001821875,238.65
2021-06-21 12:43:55.156250000,-53.0,10.0,38.0,72.895625,-96.06,0.339898125,238.65
2021-06-21 12:43:55.164062500,-52.75,10.0,37.75,72.89640625,-99.505,0.33977803125,238.65
2021-06-21 12:43:55.171875000,-52.5,10.0,37.5,72.8971875,-102.95,0.3396579375,238.65
2021-06-21 12:43:55.179687500,-52.25,10.0,37.25,72.89796875,-104.16,0.33953784375,238.65
2021-06-21 12:43:55.187500000,-52.0,10.0,37.0,72.89874999999999,-105.37,0.33941775,238.65
2021-06-21 12:43:55.195312500,-52.0,10.0,37.0,72.89953125,-103.65,0.33929765625,238.65
2021-06-21 12:43:55.203125000,-52.0,10.0,37.0,72.9003125,-101.93,0.33917756250000003,238.65
2021-06-21 12:43:55.210937500,-52.0,10.0,37.0,72.90109375,-97.045,0.33905746875,238.65
2021-06-21 12:43:55.218750000,-52.0,10.0,37.0,72.901875,-92.16,0.338937375,238.65
2021-06-21 12:43:55.226562500,-52.0,10.0,37.0,72.90265624999999,-84.455,0.33881728125,238.65
2021-06-21 12:43:55.234375000,-52.0,10.0,37.0,72.9034375,-76.75,0.3386971875,238.65
2021-06-21 12:43:55.242187500,-52.0,10.0,37.0,72.90421875,-67.11,0.33857709375,238.65
2021-06-21 12:43:55.250000000,-52.0,10.0,37.0,72.905,-57.47,0.338457,238.65
2021-06-21 12:43:55.257812500,-52.25,10.0,37.25,72.90578125,-47.05,0.33857709375,238.65
2021-06-21 12:43:55.265625000,-52.5,10.0,37.5,72.90656249999999,-36.63,0.3386971875,238.65
2021-06-21 12:43:55.273437500,-52.75,10.0,37.75,72.90734375,-26.585,0.33881728125,238.65
2021-06-21 12:43:55.281250000,-53.0,10.0,38.0,72.908125,-16.54,0.338937375,238.65
2021-06-21 12:43:55.289062500,-52.75,10.0,37.75,72.90890625,-7.725,0.33905746875,238.65
2021-06-21 12:43:55.296875000,-52.5,10.0,37.5,72.9096875,1.09,0.33917756250000003,238.65
2021-06-21 12:43:55.304687500,-52.25,10.0,37.25,72.91046874999999,8.235000000000001,0.33929765625,238.65
2021-06-21 12:43:55.312500000,-52.0,10.0,37.0,72.91125,15.38,0.33941775,238.65
2021-06-21 12:43:55.320312500,-52.0,10.0,37.0,72.91203125,20.8,0.33953784375,238.65
2021-06-21 12:43:55.328125000,-52.0,10.0,37.0,72.9128125,26.22,0.3396579375,238.65
2021-06-21 12:43:55.335937500,-52.0,10.0,37.0,72.91359375,30.145,0.33977803125,238.65
2021-06-21 12:43:55.343750000,-52.0,10.0,37.0,72.91437499999999,34.07,0.339898125,238.65
2021-06-21 12:43:55.351562500,-52.0,10.0,37.0,72.91515625,36.84,0.34001821875,238.65
2021-06-21 12:43:55.359375000,-52.0,10.0,37.0,72.9159375,39.61,0.3401383125,238.65
2021-06-21 12:43:55.367187500,-52.0,10.0,37.0,72.91671875,41.59,0.34025840625,238.65
2021-06-21 12:43:55.375000000,-52.0,10.0,37.0,72.9175,43.57,0.34037850000000003,238.65
2021-06-21 12:43:55.382812500,-52.0,10.0,37.0,72.91828124999999,45.085,0.34049859375,238.65
2021-06-21 12:43:55.390625000,-52.0,10.0,37.0,72.9190625,46.6,0.3406186875,238.65
2021-06-21 12:43:55.398437500,-52.0,10.0,37.0,72.91984375,47.879999999999995,0.34073878125,238.65
2021-06-21 12:43:55.406250000,-52.0,10.0,37.0,72.920625,49.16,0.340858875,238.65
2021-06-21 12:43:55.414062500,-52.25,10.0,37.25,72.92140625,50.349999999999994,0.34097896875,238.65
2021-06-21 12:43:55.421875000,-52.5,10.0,37.5,72.92218749999999,51.54,0.3410990625,238.65
2021-06-21 12:43:55.429687500,-52.75,10.0,37.75,72.92296875,52.64,0.34121915625,238.65
2021-06-21 12:43:55.437500000,-53.0,10.0,38.0,72.92375,53.74,0.34133925,238.65
