TimeStamp,empatica.acc.x,empatica.acc.y,empatica.acc.z,empatica.hr,empatica.bvp,empatica.eda,empatica.temp
2021-06-21 12:43:05.734375000,-55.0,9.5,34.0,70.33749999999999,26.71,0.3580723125,238.65
2021-06-21 12:43:05.742187500,-55.0,9.75,34.0,70.33874999999999,26.285,0.35787215625,238.65
2021-06-21 12:43:05.750000000,-55.0,10.0,34.0,70.34,25.86,0.357672,238.65
2021-06-21 12:43:05.757812500,-55.0,10.0,34.0,70.34125,25.060000000000002,0.35779209375,238.65
2021-06-21 12:43:05.765625000,-55.0,10.0,34.0,70.3425,24.26,0.3579121875,238.65
2021-06-21 12:43:05.773437500,-55.0,10.0,34.0,70.34375,22.755000000000003,0.35803228125,238.65
2021-06-21 12:43:05.781250000,-55.0,10.0,34.0,70.345,21.25,0.35815237499999997,238.65
2021-06-21 12:43:05.789062500,-55.0,10.0,34.0,70.34625,18.84,0.35827246874999996,238.65
2021-06-21 12:43:05.796875000,-55.0,10.0,34.0,70.3475,16.43,0.3583925625,238.65
2021-06-21 12:43:05.804687500,-55.0,10.0,34.0,70.34875,13.135,0.35851265625,238.65
2021-06-21 12:43:05.812500000,-55.0,10.0,34.0,70.35,9.84,0.35863275,238.65
2021-06-21 12:43:05.820312500,-55.0,10.0,34.0,70.35125,5.975,0.35875284375,238.65
2021-06-21 12:43:05.828125000,-55.0,10.0,34.0,70.35249999999999,2.11,0.3588729375,238.65
2021-06-21 12:43:05.835937500,-55.0,10.0,34.0,70.35374999999999,-1.8400000000000003,0.35899303125,238.65
2021-06-21 12:43:05.843750000,-55.0,10.0,34.0,70.35499999999999,-5.79,0.359113125,238.65
2021-06-21 12:43:05.851562500,-55.0,10.0,34.0,70.35625,-9.335,0.35923321874999997,238.65
2021-06-21 12:43:05.859375000,-55.0,10.0,34.0,70.3575,-12.88,0.35935331249999997,238.65
2021-06-21 12:43:05.867187500,-55.0,10.0,34.0,70.35875,-15.7,0.35947340624999996,238.65
2021-06-21 12:43:05.875000000,-55.0,10.0,34.0,70.36,-18.52,0.3595935,238.65
2021-06-21 12:43:05.882812500,-55.0,10.0,34.0,70.36125,-20.58,0.35971359375,238.65
2021-06-21 12:43:05.890625000,-55.0,10.0,34.0,70.3625,-22.64,0.3598336875,238.65
2021-06-21 12:43:05.898437500,-55.0,10.0,34.0,70.36375,-24.195,0.35995378125,238.65
2021-06-21 12:43:05.906250000,-55.0,10.0,34.0,70.365,-25.75,0.360073875,238.65
2021-06-21 12:43:05.914062500,-55.0,10.0,34.0,70.36625,-27.240000000000002,0.36019396875,238.65
2021-06-21 12:43:05.921875000,-55.0,10.0,34.0,70.36749999999999,-28.73,0.3603140625,238.65
2021-06-21 12:43:05.929687500,-55.0,10.0,34.0,70.36874999999999,-30.645000000000003,0.36043415624999997,238.65
2021-06-21 12:43:05.937500000,-55.0,10.0,34.0,70.36999999999999,-32.56,0.36055424999999997,238.65
2021-06-21 12:43:05.945312500,-54.75,10.0,34.0,70.37124999999999,-35.260000000000005,0.36067434374999996,238.65
2021-06-21 12:43:05.953125000,-54.5,10.0,34.0,70.3725,-37.96,0.36079443749999995,238.65
2021-06-21 12:43:05.960937500,-54.25,10.0,34.0,70.37375,-41.57,0.36091453125,238.65
2021-06-21 12:43:05.968750000,-54.0,10.0,34.0,70.375,-45.18,0.361034625,238.65
2021-06-21 12:43:05.976562500,-54.25,9.75,34.0,70.37625,-49.475,0.36115471875,238.65
2021-06-21 12:43:05.984375000,-54.5,9.5,34.0,70.3775,-53.77,0.3612748125,238.65
2021-06-21 12:43:05.992187500,-54.75,9.25,34.0,70.37875,-58.195,0.36139490625,238.65
2021-06-21 12:43:06.000000000,-55.0,9.0,34.0,70.38,-62.62,0.361515,238.65
2021-06-21 12:43:06.007812500,-55.0,9.0,34.0,70.38117187499999,-66.315,0.36147496874999996,238.65
2021-06-21 12:43:06.015625000,-55.0,9.0,34.0,70.38234374999999,-70.01,0.3614349375,238.65
2021-06-21 12:43:06.023437500,-55.0,9.0,34.0,70.383515625,-72.03,0.36139490625,238.65
2021-06-21 12:43:06.031250000,-55.0,9.0,34.0,70.3846875,-74.05,0.36135487499999996,238.65
2021-06-21 12:43:06.039062500,-55.0,9.0,34.0,70.385859375,-73.57499999999999,0.36131484375,238.65
2021-06-21 12:43:06.046875000,-55.0,9.0,34.0,70.38703124999999,-73.1,0.3612748125,238.65
2021-06-21 12:43:06.054687500,-55.0,9.0,34.0,70.38820312499999,-69.755,0.36123478124999997,238.65
2021-06-21 12:43:06.062500000,-55.0,9.0,34.0,70.389375,-66.41,0.36119475,238.65
2021-06-21 12:43:06.070312500,-55.0,9.0,34.0,70.390546875,-60.37,0.36115471875,238.65
2021-06-21 12:43:06.078125000,-55.0,9.0,34.0,70.39171875,-54.33,0.3611146875,238.65
2021-06-21 12:43:06.085937500,-55.0,9.0,34.0,70.39289062499999,-46.36,0.36107465624999996,238.65
2021-06-21 12:43:06.093750000,-55.0,9.0,34.0,70.39406249999999,-38.39,0.361034625,238.65
2021-06-21 12:43:06.101562500,-55.0,9.25,34.0,70.395234375,-29.605,0.36099459375,238.65
2021-06-21 12:43:06.109375000,-55.0,9.5,34.0,70.39640625,-20.82,0.36095456249999996,238.65
2021-06-21 12:43:06.117187500,-55.0,9.75,34.0,70.397578125,-12.395,0.36091453125,238.65
2021-06-21 12:43:06.125000000,-55.0,10.0,34.0,70.39874999999999,-3.97,0.3608745,238.65
2021-06-21 12:43:06.132812500,-55.0,10.0,34.0,70.39992187499999,3.19,0.36083446874999997,238.65
2021-06-21 12:43:06.140625000,-55.0,10.0,34.0,70.40109375,10.35,0.3607944375,238.65
2021-06-21 12:43:06.148437500,-55.0,10.0,34.0,70.402265625,15.765,0.36075440625,238.65
2021-06-21 12:43:06.156250000,-55.0,10.0,34.0,70.4034375,21.18,0.360714375,238.65
2021-06-21 12:43:06.164062500,-55.0,10.0,34.0,70.40460937499999,24.869999999999997,0.36067434375,238.65
2021-06-21 12:43:06.171875000,-55.0,10.0,34.0,70.40578124999999,28.56,0.3606343125,238.65
2021-06-21 12:43:06.179687500,-55.0,10.0,34.0,70.406953125,30.880000000000003,0.36059428125,238.65
2021-06-21 12:43:06.187500000,-55.0,10.0,34.0,70.408125,33.2,0.36055424999999997,238.65
2021-06-21 12:43:06.195312500,-55.0,10.0,34.0,70.409296875,34.67,0.36051421875,238.65
2021-06-21 12:43:06.203125000,-55.0,10.0,34.0,70.41046874999999,36.14,0.3604741875,238.65
2021-06-21 12:43:06.210937500,-55.0,10.0,34.0,70.41164062499999,37.24,0.36043415624999997,238.65
2021-06-21 12:43:06.218750000,-55.0,10.0,34.0,70.4128125,38.34,0.360394125,238.65
2021-06-21 12:43:06.226562500,-55.0,10.0,34.0,70.413984375,39.355000000000004,0.36035409375,238.65
2021-06-21 12:43:06.234375000,-55.0,10.0,34.0,70.41515625,40.37,0.3603140625,238.65
2021-06-21 12:43:06.242187500,-55.0,10.0,34.0,70.41632812499999,41.375,0.36027403125,238.65
2021-06-21 12:43:06.250000000,-55.0,10.0,34.0,70.41749999999999,42.38,0.360234,238.65
2021-06-21 12:43:06.257812500,-55.0,9.75,34.0,70.418671875,43.25,0.36027403125,238.65
2021-06-21 12:43:06.265625000,-55.0,9.5,34.0,70.41984375,44.12,0.3603140625,238.65
2021-06-21 12:43:06.273437500,-55.0,9.25,34.0,70.421015625,44.67,0.36035409375,238.65
2021-06-21 12:43:06.281250000,-55.0,9.0,34.0,70.42218749999999,45.22,0.360394125,238.65
2021-06-21 12:43:06.289062500,-54.75,9.25,34.0,70.423359375,45.315,0.36043415624999997,238.65
2021-06-21 12:43:06.296875000,-54.5,9.5,34.0,70.42453125,45.41,0.3604741875,238.65
2021-06-21 12:43:06.304687500,-54.25,9.75,34.0,70.425703125,45.019999999999996,0.36051421875,238.65
2021-06-21 12:43:06.312500000,-54.0,10.0,34.0,70.426875,44.63,0.36055424999999997,238.65
2021-06-21 12:43:06.320312500,-54.25,9.75,34.0,70.42804687499999,43.86,0.36059428125,238.65
2021-06-21 12:43:06.328125000,-54.5,9.5,34.0,70.42921875,43.09,0.3606343125,238.65
2021-06-21 12:43:06.335937500,-54.75,9.25,34.0,70.430390625,42.11,0.36067434375,238.65
2021-06-21 12:43:06.343750000,-55.0,9.0,34.0,70.4315625,41.13,0.360714375,238.65
2021-06-21 12:43:06.351562500,-55.0,9.0,34.0,70.432734375,40.125,0.36075440625,238.65
2021-06-21 12:43:06.359375000,-55.0,9.0,34.0,70.43390624999999,39.12,0.3607944375,238.65
2021-06-21 12:43:06.367187500,-55.0,9.0,34.0,70.435078125,38.2,0.36083446874999997,238.65
2021-06-21 12:43:06.375000000,-55.0,9.0,34.0,70.43625,37.28,0.3608745,238.65
2021-06-21 12:43:06.382812500,-55.0,9.0,34.0,70.437421875,36.485,0.36091453125,238.65
2021-06-21 12:43:06.390625000,-55.0,9.0,34.0,70.43859375,35.69,0.36095456249999996,238.65
2021-06-21 12:43:06.398437500,-55.0,9.0,34.0,70.43976562499999,35.0,0.36099459375,238.65
2021-06-21 12:43:06.406250000,-55.0,9.0,34.0,70.4409375,34.31,0.361034625,238.65
2021-06-21 12:43:06.414062500,-54.75,9.25,34.0,70.442109375,33.68,0.36107465624999996,238.65
2021-06-21 12:43:06.421875000,-54.5,9.5,34.0,70.44328125,33.05,0.3611146875,238.65
2021-06-21 12:43:06.429687500,-54.25,9.75,34.0,70.444453125,32.44,0.36115471875,238.65
2021-06-21 12:43:06.437500000,-54.0,10.0,34.0,70.44562499999999,31.83,0.36119475,238.65
2021-06-21 12:43:06.445312500,-54.0,10.0,34.0,70.446796875,31.195,0.36123478124999997,238.65
2021-06-21 12:43:06.453125000,-54.0,10.0,34.0,70.44796875,30.56,0.3612748125,238.65
2021-06-21 12:43:06.460937500,-54.0,10.0,34.0,70.449140625,29.865000000000002,0.36131484375,238.65
2021-06-21 12:43:06.468750000,-54.0,10.0,34.0,70.4503125,29.17,0.36135487499999996,238.65
2021-06-21 12:43:06.476562500,-54.25,10.0,34.25,70.45148437499999,28.33,0.36139490625,238.65
2021-06-21 12:43:06.484375000,-54.5,10.0,34.5,70.45265625,27.49,0.3614349375,238.65
2021-06-21 12:43:06.492187500,-54.75,10.0,34.75,70.453828125,26.395,0.36147496874999996,238.65
2021-06-21 12:43:06.500000000,-55.0,10.0,35.0,70.455,25.3,0.361515,238.65
2021-06-21 12:43:06.507812500,-55.0,10.0,34.75,70.456171875,23.825000000000003,0.36147496874999996,238.65
2021-06-21 12:43:06.515625000,-55.0,10.0,34.5,70.45734374999999,22.35,0.3614349375,238.65
2021-06-21 12:43:06.523437500,-55.0,10.0,34.25,70.458515625,20.37,0.36139490625,238.65
2021-06-21 12:43:06.531250000,-55.0,10.0,34.0,70.4596875,18.39,0.36135487499999996,238.65
2021-06-21 12:43:06.539062500,-55.0,9.75,34.0,70.460859375,15.855,0.36131484375,238.65
2021-06-21 12:43:06.546875000,-55.0,9.5,34.0,70.46203125,13.32,0.3612748125,238.65
2021-06-21 12:43:06.554687500,-55.0,9.25,34.0,70.46320312499999,10.275,0.36123478124999997,238.65
2021-06-21 12:43:06.562500000,-55.0,9.0,34.0,70.464375,7.23,0.36119475,238.65
2021-06-21 12:43:06.570312500,-54.75,9.0,34.0,70.465546875,3.8350000000000004,0.36115471875,238.65
2021-06-21 12:43:06.578125000,-54.5,9.0,34.0,70.46671875,0.44,0.3611146875,238.65
2021-06-21 12:43:06.585937500,-54.25,9.0,34.0,70.467890625,-3.0650000000000004,0.36107465624999996,238.65
2021-06-21 12:43:06.593750000,-54.0,9.0,34.0,70.46906249999999,-6.57,0.361034625,238.65
2021-06-21 12:43:06.601562500,-54.0,9.0,34.0,70.470234375,-9.935,0.36099459375,238.65
2021-06-21 12:43:06.609375000,-54.0,9.0,34.0,70.47140625,-13.3,0.36095456249999996,238.65
2021-06-21 12:43:06.617187500,-54.0,9.0,34.0,70.472578125,-16.34,0.36091453125,238.65
2021-06-21 12:43:06.625000000,-54.0,9.0,34.0,70.47375,-19.38,0.3608745,238.65
2021-06-21 12:43:06.632812500,-54.25,8.75,34.25,70.47492187499999,-22.015,0.36083446874999997,238.65
2021-06-21 12:43:06.640625000,-54.5,8.5,34.5,70.47609375,-24.65,0.3607944375,238.65
2021-06-21 12:43:06.648437500,-54.75,8.25,34.75,70.477265625,-26.93,0.36075440625,238.65
2021-06-21 12:43:06.656250000,-55.0,8.0,35.0,70.4784375,-29.21,0.360714375,238.65
2021-06-21 12:43:06.664062500,-55.0,8.5,34.75,70.479609375,-31.27,0.36067434375,238.65
2021-06-21 12:43:06.671875000,-55.0,9.0,34.5,70.48078124999999,-33.33,0.3606343125,238.65
2021-06-21 12:43:06.679687500,-55.0,9.5,34.25,70.481953125,-35.39,0.36059428125,238.65
2021-06-21 12:43:06.687500000,-55.0,10.0,34.0,70.483125,-37.45,0.36055424999999997,238.65
2021-06-21 12:43:06.695312500,-55.0,10.0,34.0,70.484296875,-39.775000000000006,0.36051421875,238.65
2021-06-21 12:43:06.703125000,-55.0,10.0,34.0,70.48546875,-42.1,0.3604741875,238.65
2021-06-21 12:43:06.710937500,-55.0,10.0,34.0,70.48664062499999,-44.975,0.36043415624999997,238.65
2021-06-21 12:43:06.718750000,-55.0,10.0,34.0,70.4878125,-47.85,0.360394125,238.65
2021-06-21 12:43:06.726562500,-54.75,9.75,34.0,70.488984375,-51.455,0.36035409375,238.65
2021-06-21 12:43:06.734375000,-54.5,9.5,34.0,70.49015625,-55.06,0.3603140625,238.65
2021-06-21 12:43:06.742187500,-54.25,9.25,34.0,70.491328125,-59.385000000000005,0.36027403125,238.65
2021-06-21 12:43:06.750000000,-54.0,9.0,34.0,70.4925,-63.71,0.360234,238.65
2021-06-21 12:43:06.757812500,-54.25,9.0,34.0,70.493671875,-68.39,0.36027403125,238.65
2021-06-21 12:43:06.765625000,-54.5,9.0,34.0,70.49484375,-73.07,0.3603140625,238.65
2021-06-21 12:43:06.773437500,-54.75,9.0,34.0,70.496015625,-77.38499999999999,0.36035409375,238.65
2021-06-21 12:43:06.781250000,-55.0,9.0,34.0,70.4971875,-81.7,0.360394125,238.65
2021-06-21 12:43:06.789062500,-55.0,9.0,34.0,70.498359375,-84.68,0.36043415624999997,238.65
2021-06-21 12:43:06.796875000,-55.0,9.0,34.0,70.49953125,-87.66,0.3604741875,238.65
2021-06-21 12:43:06.804687500,-55.0,9.0,34.0,70.500703125,-88.345,0.36051421875,238.65
2021-06-21 12:43:06.812500000,-55.0,9.0,34.0,70.501875,-89.03,0.36055424999999997,238.65
2021-06-21 12:43:06.820312500,-55.0,9.0,34.0,70.503046875,-86.83,0.36059428125,238.65
2021-06-21 12:43:06.828125000,-55.0,9.0,34.0,70.50421875,-84.63,0.3606343125,238.65
2021-06-21 12:43:06.835937500,-55.0,9.0,34.0,70.505390625,-79.52,0.36067434375,238.65
2021-06-21 12:43:06.843750000,-55.0,9.0,34.0,70.5065625,-74.41,0.360714375,238.65
2021-06-21 12:43:06.851562500,-55.0,9.0,34.0,70.507734375,-66.99,0.36075440625,238.65
2021-06-21 12:43:06.859375000,-55.0,9.0,34.0,70.50890625,-59.57,0.3607944375,238.65
2021-06-21 12:43:06.867187500,-55.0,9.0,34.0,70.510078125,-50.91,0.36083446874999997,238.65
2021-06-21 12:43:06.875000000,-55.0,9.0,34.0,70.51125,-42.25,0.3608745,238.65
2021-06-21 12:43:06.882812500,-54.75,9.0,34.0,70.512421875,-33.525,0.36091453125,238.65
2021-06-21 12:43:06.890625000,-54.5,9.0,34.0,70.51359375,-24.8,0.36095456249999996,238.65
2021-06-21 12:43:06.898437500,-54.25,9.0,34.0,70.514765625,-16.965,0.36099459375,238.65
2021-06-21 12:43:06.906250000,-54.0,9.0,34.0,70.5159375,-9.13,0.361034625,238.65
2021-06-21 12:43:06.914062500,-54.25,9.0,34.0,70.517109375,-2.7250000000000005,0.36107465624999996,238.65
2021-06-21 12:43:06.921875000,-54.5,9.0,34.0,70.51828125,3.68,0.3611146875,238.65
2021-06-21 12:43:06.929687500,-54.75,9.0,34.0,70.519453125,8.57,0.36115471875,238.65
2021-06-21 12:43:06.937500000,-55.0,9.0,34.0,70.520625,13.46,0.36119475,238.65
2021-06-21 12:43:06.945312500,-55.0,9.0,34.0,70.521796875,17.055,0.36123478124999997,238.65
2021-06-21 12:43:06.953125000,-55.0,9.0,34.0,70.52296875,20.65,0.3612748125,238.65
2021-06-21 12:43:06.960937500,-55.0,9.0,34.0,70.524140625,23.28,0.36131484375,238.65
2021-06-21 12:43:06.968750000,-55.0,9.0,34.0,70.5253125,25.91,0.36135487499999996,238.65
2021-06-21 12:43:06.976562500,-55.0,9.0,34.0,70.526484375,27.884999999999998,0.36139490625,238.65
2021-06-21 12:43:06.984375000,-55.0,9.0,34.0,70.52765625,29.86,0.3614349375,238.65
2021-06-21 12:43:06.992187500,-55.0,9.0,34.0,70.528828125,31.375,0.36147496874999996,238.65
2021-06-21 12:43:07.000000000,-55.0,9.0,34.0,70.53,32.89,0.361515,238.65
2021-06-21 12:43:07.007812500,-54.75,9.0,34.0,70.530703125,34.075,0.3614349375,238.65
2021-06-21 12:43:07.015625000,-54.5,9.0,34.0,70.53140625,35.26,0.36135487499999996,238.65
2021-06-21 12:43:07.023437500,-54.25,9.0,34.0,70.532109375,36.185,0.3612748125,238.65
2021-06-21 12:43:07.031250000,-54.0,9.0,34.0,70.5328125,37.11,0.36119475,238.65
2021-06-21 12:43:07.039062500,-54.25,9.0,34.0,70.533515625,37.84,0.3611146875,238.65
2021-06-21 12:43:07.046875000,-54.5,9.0,34.0,70.53421875000001,38.57,0.361034625,238.65
2021-06-21 12:43:07.054687500,-54.75,9.0,34.0,70.534921875,39.144999999999996,0.36095456249999996,238.65
2021-06-21 12:43:07.062500000,-55.0,9.0,34.0,70.535625,39.72,0.3608745,238.65
2021-06-21 12:43:07.070312500,-55.0,9.0,34.0,70.536328125,40.129999999999995,0.3607944375,238.65
2021-06-21 12:43:07.078125000,-55.0,9.0,34.0,70.53703125,40.54,0.360714375,238.65
2021-06-21 12:43:07.085937500,-55.0,9.0,34.0,70.537734375,40.75,0.3606343125,238.65
2021-06-21 12:43:07.093750000,-55.0,9.0,34.0,70.5384375,40.96,0.36055424999999997,238.65
2021-06-21 12:43:07.101562500,-55.0,9.0,34.0,70.539140625,40.92,0.3604741875,238.65
2021-06-21 12:43:07.109375000,-55.0,9.0,34.0,70.53984375,40.88,0.360394125,238.65
2021-06-21 12:43:07.117187500,-55.0,9.0,34.0,70.540546875,40.57,0.3603140625,238.65
2021-06-21 12:43:07.125000000,-55.0,9.0,34.0,70.54125,40.26,0.360234,238.65
2021-06-21 12:43:07.132812500,-55.0,9.0,34.0,70.541953125,39.75,0.3601539375,238.65
2021-06-21 12:43:07.140625000,-55.0,9.0,34.0,70.54265625000001,39.24,0.360073875,238.65
2021-06-21 12:43:07.148437500,-55.0,9.0,34.0,70.54335937500001,38.620000000000005,0.3599938125,238.65
2021-06-21 12:43:07.156250000,-55.0,9.0,34.0,70.5440625,38.0,0.35991375000000003,238.65
2021-06-21 12:43:07.164062500,-55.0,9.0,34.0,70.544765625,37.41,0.3598336875,238.65
2021-06-21 12:43:07.171875000,-55.0,9.0,34.0,70.54546875,36.82,0.359753625,238.65
2021-06-21 12:43:07.179687500,-55.0,9.0,34.0,70.546171875,36.36,0.3596735625,238.65
2021-06-21 12:43:07.187500000,-55.0,9.0,34.0,70.546875,35.9,0.3595935,238.65
2021-06-21 12:43:07.195312500,-55.0,9.0,34.0,70.547578125,35.61,0.35951343750000003,238.65
2021-06-21 12:43:07.203125000,-55.0,9.0,34.0,70.54828125,35.32,0.359433375,238.65
2021-06-21 12:43:07.210937500,-55.0,9.0,34.0,70.548984375,35.155,0.3593533125,238.65
2021-06-21 12:43:07.218750000,-55.0,9.0,34.0,70.5496875,34.99,0.35927325,238.65
2021-06-21 12:43:07.226562500,-55.0,9.0,34.0,70.550390625,34.815,0.3591931875,238.65
2021-06-21 12:43:07.234375000,-55.0,9.0,34.0,70.55109375,34.64,0.35911312500000003,238.65
2021-06-21 12:43:07.242187500,-55.0,9.0,34.0,70.55179687500001,34.275,0.3590330625,238.65
2021-06-21 12:43:07.250000000,-55.0,9.0,34.0,70.55250000000001,33.91,0.358953,238.65
2021-06-21 12:43:07.257812500,-55.0,9.0,34.0,70.553203125,33.155,0.3590330625,238.65
2021-06-21 12:43:07.265625000,-55.0,9.0,34.0,70.55390625,32.4,0.35911312500000003,238.65
2021-06-21 12:43:07.273437500,-55.0,9.0,34.0,70.554609375,31.095,0.3591931875,238.65
2021-06-21 12:43:07.281250000,-55.0,9.0,34.0,70.5553125,29.79,0.35927325,238.65
2021-06-21 12:43:07.289062500,-55.0,9.0,34.0,70.556015625,27.92,0.3593533125,238.65
2021-06-21 12:43:07.296875000,-55.0,9.0,34.0,70.55671875,26.05,0.359433375,238.65
2021-06-21 12:43:07.304687500,-55.0,9.0,34.0,70.557421875,23.73,0.35951343750000003,238.65
2021-06-21 12:43:07.312500000,-55.0,9.0,34.0,70.558125,21.41,0.3595935,238.65
2021-06-21 12:43:07.320312500,-55.0,9.0,34.0,70.558828125,18.895,0.3596735625,238.65
2021-06-21 12:43:07.328125000,-55.0,9.0,34.0,70.55953125,16.38,0.359753625,238.65
2021-06-21 12:43:07.335937500,-55.0,9.0,34.0,70.56023437500001,13.945,0.3598336875,238.65
2021-06-21 12:43:07.343750000,-55.0,9.0,34.0,70.56093750000001,11.51,0.35991375000000003,238.65
2021-06-21 12:43:07.351562500,-55.0,9.0,34.0,70.561640625,9.31,0.3599938125,238.65
2021-06-21 12:43:07.359375000,-55.0,9.0,34.0,70.56234375,7.11,0.360073875,238.65
2021-06-21 12:43:07.367187500,-55.0,9.0,34.0,70.563046875,5.095000000000001,0.3601539375,238.65
2021-06-21 12:43:07.375000000,-55.0,9.0,34.0,70.56375,3.08,0.360234,238.65
2021-06-21 12:43:07.382812500,-55.0,9.0,34.0,70.564453125,1.06,0.3603140625,238.65
2021-06-21 12:43:07.390625000,-55.0,9.0,34.0,70.56515625,-0.96,0.360394125,238.65
2021-06-21 12:43:07.398437500,-55.0,9.0,34.0,70.565859375,-3.225,0.3604741875,238.65
2021-06-21 12:43:07.406250000,-55.0,9.0,34.0,70.5665625,-5.49,0.36055424999999997,238.65
2021-06-21 12:43:07.414062500,-55.0,9.0,34.0,70.567265625,-8.125,0.3606343125,238.65
2021-06-21 12:43:07.421875000,-55.0,9.0,34.0,70.56796875,-10.76,0.360714375,238.65
2021-06-21 12:43:07.429687500,-55.0,9.0,34.0,70.568671875,-13.684999999999999,0.3607944375,238.65
2021-06-21 12:43:07.437500000,-55.0,9.0,34.0,70.56937500000001,-16.61,0.3608745,238.65
2021-06-21 12:43:07.445312500,-55.0,9.0,34.0,70.57007812500001,-19.57,0.36095456249999996,238.65
2021-06-21 12:43:07.453125000,-55.0,9.0,34.0,70.57078125,-22.53,0.361034625,238.65
2021-06-21 12:43:07.460937500,-55.0,9.0,34.0,70.571484375,-25.235,0.3611146875,238.65
2021-06-21 12:43:07.468750000,-55.0,9.0,34.0,70.5721875,-27.94,0.36119475,238.65
2021-06-21 12:43:07.476562500,-55.0,9.0,34.0,70.572890625,-30.200000000000003,0.3612748125,238.65
2021-06-21 12:43:07.484375000,-55.0,9.0,34.0,70.57359375,-32.46,0.36135487499999996,238.65
2021-06-21 12:43:07.492187500,-55.0,9.0,34.0,70.574296875,-34.260000000000005,0.3614349375,238.65
2021-06-21 12:43:07.500000000,-55.0,9.0,34.0,70.575,-36.06,0.361515,238.65
2021-06-21 12:43:07.507812500,-55.0,9.0,34.0,70.575703125,-37.61,0.36139490625,238.65
2021-06-21 12:43:07.515625000,-55.0,9.0,34.0,70.57640625,-39.16,0.3612748125,238.65
2021-06-21 12:43:07.523437500,-55.0,9.0,34.0,70.577109375,-40.775,0.36115471875,238.65
2021-06-21 12:43:07.531250000,-55.0,9.0,34.0,70.57781250000001,-42.39,0.361034625,238.65
2021-06-21 12:43:07.539062500,-55.0,9.0,34.0,70.57851562500001,-44.42,0.36091453125,238.65
2021-06-21 12:43:07.546875000,-55.0,9.0,34.0,70.57921875000001,-46.45,0.36079443749999995,238.65
2021-06-21 12:43:07.554687500,-55.0,9.0,34.0,70.579921875,-49.135000000000005,0.36067434374999996,238.65
2021-06-21 12:43:07.562500000,-55.0,9.0,34.0,70.580625,-51.82,0.36055424999999997,238.65
2021-06-21 12:43:07.570312500,-54.75,9.0,34.0,70.581328125,-55.22,0.36043415624999997,238.65
2021-06-21 12:43:07.578125000,-54.5,9.0,34.0,70.58203125,-58.62,0.3603140625,238.65
2021-06-21 12:43:07.585937500,-54.25,9.0,34.0,70.582734375,-62.504999999999995,0.36019396875,238.65
2021-06-21 12:43:07.593750000,-54.0,9.0,34.0,70.5834375,-66.39,0.360073875,238.65
2021-06-21 12:43:07.601562500,-54.0,9.0,34.0,70.584140625,-70.205,0.35995378125,238.65
2021-06-21 12:43:07.609375000,-54.0,9.0,34.0,70.58484375,-74.02,0.3598336875,238.65
2021-06-21 12:43:07.617187500,-54.0,9.0,34.0,70.585546875,-76.955,0.35971359375,238.65
2021-06-21 12:43:07.625000000,-54.0,9.0,34.0,70.58625,-79.89,0.3595935,238.65
2021-06-21 12:43:07.632812500,-54.25,9.0,34.25,70.58695312500001,-81.045,0.35947340624999996,238.65
2021-06-21 12:43:07.640625000,-54.5,9.0,34.5,70.58765625000001,-82.2,0.35935331249999997,238.65
2021-06-21 12:43:07.648437500,-54.75,9.0,34.75,70.58835937500001,-80.855,0.35923321874999997,238.65
2021-06-21 12:43:07.656250000,-55.0,9.0,35.0,70.5890625,-79.51,0.359113125,238.65
2021-06-21 12:43:07.664062500,-55.0,9.0,34.75,70.589765625,-75.39500000000001,0.35899303125,238.65
2021-06-21 12:43:07.671875000,-55.0,9.0,34.5,70.59046875,-71.28,0.3588729375,238.65
2021-06-21 12:43:07.679687500,-55.0,9.0,34.25,70.591171875,-64.695,0.35875284375,238.65
2021-06-21 12:43:07.687500000,-55.0,9.0,34.0,70.591875,-58.11,0.35863275,238.65
2021-06-21 12:43:07.695312500,-55.0,9.0,34.0,70.592578125,-49.864999999999995,0.35851265625,238.65
2021-06-21 12:43:07.703125000,-55.0,9.0,34.0,70.59328125,-41.62,0.3583925625,238.65
2021-06-21 12:43:07.710937500,-55.0,9.0,34.0,70.593984375,-32.754999999999995,0.35827246874999996,238.65
2021-06-21 12:43:07.718750000,-55.0,9.0,34.0,70.5946875,-23.89,0.35815237499999997,238.65
2021-06-21 12:43:07.726562500,-55.0,9.0,34.0,70.59539062500001,-15.415000000000001,0.35803228125,238.65
2021-06-21 12:43:07.734375000,-55.0,9.0,34.0,70.59609375000001,-6.94,0.3579121875,238.65
2021-06-21 12:43:07.742187500,-55.0,9.0,34.0,70.59679687500001,0.47499999999999964,0.35779209375,238.65
2021-06-21 12:43:07.750000000,-55.0,9.0,34.0,70.5975,7.89,0.357672,238.65
2021-06-21 12:43:07.757812500,-55.0,9.0,34.0,70.598203125,13.934999999999999,0.35775206249999997,238.65
2021-06-21 12:43:07.765625000,-55.0,9.0,34.0,70.59890625,19.98,0.357832125,238.65
2021-06-21 12:43:07.773437500,-55.0,9.0,34.0,70.599609375,24.665,0.3579121875,238.65
2021-06-21 12:43:07.781250000,-55.0,9.0,34.0,70.6003125,29.35,0.35799225,238.65
2021-06-21 12:43:07.789062500,-55.0,9.0,34.0,70.601015625,32.825,0.3580723125,238.65
2021-06-21 12:43:07.796875000,-55.0,9.0,34.0,70.60171875,36.3,0.35815237499999997,238.65
2021-06-21 12:43:07.804687500,-55.0,9.0,34.0,70.602421875,38.745,0.3582324375,238.65
2021-06-21 12:43:07.812500000,-55.0,9.0,34.0,70.603125,41.19,0.3583125,238.65
2021-06-21 12:43:07.820312500,-54.75,9.0,34.25,70.603828125,42.769999999999996,0.3583925625,238.65
2021-06-21 12:43:07.828125000,-54.5,9.0,34.5,70.60453125000001,44.35,0.358472625,238.65
2021-06-21 12:43:07.835937500,-54.25,9.0,34.75,70.60523437500001,45.245000000000005,0.35855268749999997,238.65
2021-06-21 12:43:07.843750000,-54.0,9.0,35.0,70.60593750000001,46.14,0.35863275,238.65
2021-06-21 12:43:07.851562500,-54.25,9.0,34.75,70.606640625,46.57,0.3587128125,238.65
2021-06-21 12:43:07.859375000,-54.5,9.0,34.5,70.60734375,47.0,0.358792875,238.65
2021-06-21 12:43:07.867187500,-54.75,9.0,34.25,70.608046875,47.225,0.3588729375,238.65
2021-06-21 12:43:07.875000000,-55.0,9.0,34.0,70.60875,47.45,0.35895299999999997,238.65
2021-06-21 12:43:07.882812500,-54.75,9.25,34.0,70.609453125,47.69,0.3590330625,238.65
2021-06-21 12:43:07.890625000,-54.5,9.5,34.0,70.61015625,47.93,0.359113125,238.65
2021-06-21 12:43:07.898437500,-54.25,9.75,34.0,70.610859375,48.305,0.3591931875,238.65
2021-06-21 12:43:07.906250000,-54.0,10.0,34.0,70.6115625,48.68,0.35927325,238.65
2021-06-21 12:43:07.914062500,-54.0,9.75,34.0,70.612265625,49.16,0.3593533125,238.65
2021-06-21 12:43:07.921875000,-54.0,9.5,34.0,70.61296875000001,49.64,0.359433375,238.65
2021-06-21 12:43:07.929687500,-54.0,9.25,34.0,70.61367187500001,50.055,0.3595134375,238.65
2021-06-21 12:43:07.937500000,-54.0,9.0,34.0,70.61437500000001,50.47,0.3595935,238.65
2021-06-21 12:43:07.945312500,-54.0,9.0,34.25,70.61507812500001,50.599999999999994,0.3596735625,238.65
2021-06-21 12:43:07.953125000,-54.0,9.0,34.5,70.61578125,50.73,0.359753625,238.65
2021-06-21 12:43:07.960937500,-54.0,9.0,34.75,70.616484375,50.42,0.3598336875,238.65
2021-06-21 12:43:07.968750000,-54.0,9.0,35.0,70.6171875,50.11,0.35991375,238.65
2021-06-21 12:43:07.976562500,-54.25,9.0,35.0,70.617890625,49.34,0.3599938125,238.65
2021-06-21 12:43:07.984375000,-54.5,9.0,35.0,70.61859375,48.57,0.360073875,238.65
2021-06-21 12:43:07.992187500,-54.75,9.0,35.0,70.619296875,47.480000000000004,0.3601539375,238.65
2021-06-21 12:43:08.000000000,-55.0,9.0,35.0,70.62,46.39,0.360234,238.65
2021-06-21 12:43:08.007812500,-55.0,9.0,35.0,70.620625,45.21,0.3603140625,238.65
2021-06-21 12:43:08.015625000,-55.0,9.0,35.0,70.62125,44.03,0.360394125,238.65
2021-06-21 12:43:08.023437500,-55.0,9.0,35.0,70.621875,43.010000000000005,0.3604741875,238.65
2021-06-21 12:43:08.031250000,-55.0,9.0,35.0,70.6225,41.99,0.36055425,238.65
2021-06-21 12:43:08.039062500,-54.75,9.0,35.0,70.623125,41.260000000000005,0.3606343125,238.65
2021-06-21 12:43:08.046875000,-54.5,9.0,35.0,70.62375,40.53,0.360714375,238.65
2021-06-21 12:43:08.054687500,-54.25,9.0,35.0,70.624375,40.03,0.3607944375,238.65
2021-06-21 12:43:08.062500000,-54.0,9.0,35.0,70.625,39.53,0.3608745,238.65
2021-06-21 12:43:08.070312500,-54.0,9.0,34.75,70.625625,39.045,0.3609545625,238.65
2021-06-21 12:43:08.078125000,-54.0,9.0,34.5,70.62625,38.56,0.361034625,238.65
2021-06-21 12:43:08.085937500,-54.0,9.0,34.25,70.626875,37.82,0.3611146875,238.65
2021-06-21 12:43:08.093750000,-54.0,9.0,34.0,70.6275,37.08,0.36119475,238.65
2021-06-21 12:43:08.101562500,-54.25,9.0,34.25,70.62812500000001,35.84,0.3612748125,238.65
2021-06-21 12:43:08.109375000,-54.5,9.0,34.5,70.62875000000001,34.6,0.361354875,238.65
2021-06-21 12:43:08.117187500,-54.75,9.0,34.75,70.62937500000001,32.79,0.3614349375,238.65
2021-06-21 12:43:08.125000000,-55.0,9.0,35.0,70.63000000000001,30.98,0.36151500000000003,238.65
2021-06-21 12:43:08.132812500,-54.75,9.0,34.75,70.63062500000001,28.705,0.3615950625,238.65
2021-06-21 12:43:08.140625000,-54.5,9.0,34.5,70.63125000000001,26.43,0.361675125,238.65
2021-06-21 12:43:08.148437500,-54.25,9.0,34.25,70.63187500000001,23.91,0.3617551875,238.65
2021-06-21 12:43:08.156250000,-54.0,9.0,34.0,70.63250000000001,21.39,0.36183525,238.65
2021-06-21 12:43:08.164062500,-54.0,9.0,34.25,70.633125,18.85,0.36191531250000003,238.65
2021-06-21 12:43:08.171875000,-54.0,9.0,34.5,70.63375,16.31,0.361995375,238.65
2021-06-21 12:43:08.179687500,-54.0,9.0,34.75,70.634375,13.91,0.3620754375,238.65
2021-06-21 12:43:08.187500000,-54.0,9.0,35.0,70.635,11.51,0.3621555,238.65
2021-06-21 12:43:08.195312500,-54.25,9.25,34.75,70.635625,9.305,0.3622355625,238.65
2021-06-21 12:43:08.203125000,-54.5,9.5,34.5,70.63625,7.1,0.36231562500000003,238.65
2021-06-21 12:43:08.210937500,-54.75,9.75,34.25,70.636875,5.04,0.3623956875,238.65
2021-06-21 12:43:08.218750000,-55.0,10.0,34.0,70.6375,2.98,0.36247575,238.65
2021-06-21 12:43:08.226562500,-55.0,10.0,34.0,70.638125,0.9550000000000001,0.3625558125,238.65
2021-06-21 12:43:08.234375000,-55.0,10.0,34.0,70.63875,-1.07,0.362635875,238.65
2021-06-21 12:43:08.242187500,-55.0,10.0,34.0,70.639375,-3.17,0.36271593750000003,238.65
2021-06-21 12:43:08.250000000,-55.0,10.0,34.0,70.64,-5.27,0.362796,238.65
2021-06-21 12:43:08.257812500,-55.0,10.0,34.0,70.640625,-7.5,0.36259584375,238.65
2021-06-21 12:43:08.265625000,-55.0,10.0,34.0,70.64125,-9.73,0.3623956875,238.65
2021-06-21 12:43:08.273437500,-55.0,10.0,34.0,70.641875,-12.075,0.36219553125000004,238.65
2021-06-21 12:43:08.281250000,-55.0,10.0,34.0,70.6425,-14.42,0.361995375,238.65
2021-06-21 12:43:08.289062500,-55.0,9.75,34.0,70.643125,-16.795,0.36179521875,238.65
2021-06-21 12:43:08.296875000,-55.0,9.5,34.0,70.64375,-19.17,0.3615950625,238.65
2021-06-21 12:43:08.304687500,-55.0,9.25,34.0,70.64437500000001,-21.44,0.36139490625000004,238.65
2021-06-21 12:43:08.312500000,-55.0,9.0,34.0,70.64500000000001,-23.71,0.36119475,238.65
2021-06-21 12:43:08.320312500,-54.75,9.25,34.25,70.64562500000001,-25.755000000000003,0.36099459375,238.65
2021-06-21 12:43:08.328125000,-54.5,9.5,34.5,70.64625000000001,-27.8,0.3607944375,238.65
2021-06-21 12:43:08.335937500,-54.25,9.75,34.75,70.64687500000001,-29.595,0.36059428125000004,238.65
2021-06-21 12:43:08.343750000,-54.0,10.0,35.0,70.64750000000001,-31.39,0.360394125,238.65
2021-06-21 12:43:08.351562500,-54.25,9.75,34.75,70.64812500000001,-33.045,0.36019396875,238.65
2021-06-21 12:43:08.359375000,-54.5,9.5,34.5,70.64875,-34.7,0.3599938125,238.65
2021-06-21 12:43:08.367187500,-54.75,9.25,34.25,70.649375,-36.46,0.35979365625000004,238.65
2021-06-21 12:43:08.375000000,-55.0,9.0,34.0,70.65,-38.22,0.3595935,238.65
2021-06-21 12:43:08.382812500,-55.0,9.0,34.0,70.650625,-40.4,0.35939334375,238.65
2021-06-21 12:43:08.390625000,-55.0,9.0,34.0,70.65125,-42.58,0.3591931875,238.65
2021-06-21 12:43:08.398437500,-55.0,9.0,34.0,70.651875,-45.445,0.35899303125000004,238.65
2021-06-21 12:43:08.406250000,-55.0,9.0,34.0,70.6525,-48.31,0.358792875,238.65
2021-06-21 12:43:08.414062500,-55.0,9.0,34.0,70.653125,-51.92,0.35859271875,238.65
2021-06-21 12:43:08.421875000,-55.0,9.0,34.0,70.65375,-55.53,0.3583925625,238.65
2021-06-21 12:43:08.429687500,-55.0,9.0,34.0,70.654375,-59.605000000000004,0.35819240625000004,238.65
2021-06-21 12:43:08.437500000,-55.0,9.0,34.0,70.655,-63.68,0.35799225,238.65
2021-06-21 12:43:08.445312500,-55.0,9.0,34.0,70.655625,-67.62,0.35779209375,238.65
2021-06-21 12:43:08.453125000,-55.0,9.0,34.0,70.65625,-71.56,0.3575919375,238.65
2021-06-21 12:43:08.460937500,-55.0,9.0,34.0,70.656875,-74.495,0.35739178125000004,238.65
2021-06-21 12:43:08.468750000,-55.0,9.0,34.0,70.6575,-77.43,0.357191625,238.65
2021-06-21 12:43:08.476562500,-54.75,9.25,34.25,70.658125,-78.48500000000001,0.35699146875,238.65
2021-06-21 12:43:08.484375000,-54.5,9.5,34.5,70.65875,-79.54,0.3567913125,238.65
2021-06-21 12:43:08.492187500,-54.25,9.75,34.75,70.659375,-78.095,0.35659115625000004,238.65
2021-06-21 12:43:08.500000000,-54.0,10.0,35.0,70.66,-76.65,0.356391,238.65
2021-06-21 12:43:08.507812500,-54.0,9.75,35.0,70.66062500000001,-72.555,0.35659115625000004,238.65
2021-06-21 12:43:08.515625000,-54.0,9.5,35.0,70.66125000000001,-68.46,0.3567913125,238.65
2021-06-21 12:43:08.523437500,-54.0,9.25,35.0,70.66187500000001,-62.095,0.35699146875,238.65
2021-06-21 12:43:08.531250000,-54.0,9.0,35.0,70.66250000000001,-55.73,0.357191625,238.65
2021-06-21 12:43:08.539062500,-54.25,9.25,35.0,70.66312500000001,-47.94,0.35739178125000004,238.65
2021-06-21 12:43:08.546875000,-54.5,9.5,35.0,70.66375000000001,-40.15,0.3575919375,238.65
2021-06-21 12:43:08.554687500,-54.75,9.75,35.0,70.664375,-31.975,0.35779209375,238.65
2021-06-21 12:43:08.562500000,-55.0,10.0,35.0,70.665,-23.8,0.35799225,238.65
2021-06-21 12:43:08.570312500,-55.0,9.75,35.0,70.665625,-16.2,0.35819240625000004,238.65
2021-06-21 12:43:08.578125000,-55.0,9.5,35.0,70.66625,-8.6,0.3583925625,238.65
2021-06-21 12:43:08.585937500,-55.0,9.25,35.0,70.666875,-2.25,0.35859271875,238.65
2021-06-21 12:43:08.593750000,-55.0,9.0,35.0,70.6675,4.1,0.358792875,238.65
2021-06-21 12:43:08.601562500,-55.0,9.25,35.0,70.668125,8.905000000000001,0.35899303125000004,238.65
2021-06-21 12:43:08.609375000,-55.0,9.5,35.0,70.66875,13.71,0.3591931875,238.65
2021-06-21 12:43:08.617187500,-55.0,9.75,35.0,70.669375,17.005000000000003,0.35939334375,238.65
2021-06-21 12:43:08.625000000,-55.0,10.0,35.0,70.67,20.3,0.3595935,238.65
2021-06-21 12:43:08.632812500,-54.75,10.0,34.75,70.670625,22.325000000000003,0.35979365625000004,238.65
2021-06-21 12:43:08.640625000,-54.5,10.0,34.5,70.67125,24.35,0.3599938125,238.65
2021-06-21 12:43:08.648437500,-54.25,10.0,34.25,70.671875,25.41,0.36019396875,238.65
2021-06-21 12:43:08.656250000,-54.0,10.0,34.0,70.6725,26.47,0.360394125,238.65
2021-06-21 12:43:08.664062500,-54.0,9.75,34.0,70.673125,26.854999999999997,0.36059428125000004,238.65
2021-06-21 12:43:08.671875000,-54.0,9.5,34.0,70.67375,27.24,0.3607944375,238.65
2021-06-21 12:43:08.679687500,-54.0,9.25,34.0,70.674375,27.189999999999998,0.36099459375,238.65
2021-06-21 12:43:08.687500000,-54.0,9.0,34.0,70.675,27.14,0.36119475,238.65
2021-06-21 12:43:08.695312500,-54.0,9.0,34.25,70.675625,26.85,0.36139490625000004,238.65
2021-06-21 12:43:08.703125000,-54.0,9.0,34.5,70.67625000000001,26.56,0.3615950625,238.65
2021-06-21 12:43:08.710937500,-54.0,9.0,34.75,70.67687500000001,26.189999999999998,0.36179521875,238.65
2021-06-21 12:43:08.718750000,-54.0,9.0,35.0,70.67750000000001,25.82,0.361995375,238.65
2021-06-21 12:43:08.726562500,-54.0,9.25,34.75,70.67812500000001,25.509999999999998,0.36219553125000004,238.65
2021-06-21 12:43:08.734375000,-54.0,9.5,34.5,70.67875000000001,25.2,0.3623956875,238.65
2021-06-21 12:43:08.742187500,-54.0,9.75,34.25,70.67937500000001,25.049999999999997,0.36259584375,238.65
2021-06-21 12:43:08.750000000,-54.0,10.0,34.0,70.68,24.9,0.362796,238.65
2021-06-21 12:43:08.757812500,-54.25,10.0,34.25,70.680625,24.975,0.36259584375,238.65
2021-06-21 12:43:08.765625000,-54.5,10.0,34.5,70.68125,25.05,0.3623956875,238.65
2021-06-21 12:43:08.773437500,-54.75,10.0,34.75,70.681875,25.33,0.36219553125000004,238.65
2021-06-21 12:43:08.781250000,-55.0,10.0,35.0,70.6825,25.61,0.361995375,238.65
2021-06-21 12:43:08.789062500,-54.75,10.0,35.0,70.683125,25.994999999999997,0.36179521875,238.65
2021-06-21 12:43:08.796875000,-54.5,10.0,35.0,70.68375,26.38,0.3615950625,238.65
2021-06-21 12:43:08.804687500,-54.25,10.0,35.0,70.684375,26.744999999999997,0.36139490625000004,238.65
2021-06-21 12:43:08.812500000,-54.0,10.0,35.0,70.685,27.11,0.36119475,238.65
2021-06-21 12:43:08.820312500,-53.75,10.0,35.0,70.685625,27.314999999999998,0.36099459375,238.65
2021-06-21 12:43:08.828125000,-53.5,10.0,35.0,70.68625,27.52,0.3607944375,238.65
2021-06-21 12:43:08.835937500,-53.25,10.0,35.0,70.686875,27.5,0.36059428125000004,238.65
2021-06-21 12:43:08.843750000,-53.0,10.0,35.0,70.6875,27.48,0.360394125,238.65
2021-06-21 12:43:08.851562500,-53.5,10.0,35.0,70.688125,27.240000000000002,0.36019396875,238.65
2021-06-21 12:43:08.859375000,-54.0,10.0,35.0,70.68875,27.0,0.3599938125,238.65
2021-06-21 12:43:08.867187500,-54.5,10.0,35.0,70.689375,26.625,0.35979365625000004,238.65
2021-06-21 12:43:08.875000000,-55.0,10.0,35.0,70.69,26.25,0.3595935,238.65
2021-06-21 12:43:08.882812500,-55.0,10.5,35.0,70.690625,25.810000000000002,0.35939334375,238.65
2021-06-21 12:43:08.890625000,-55.0,11.0,35.0,70.69125,25.37,0.3591931875,238.65
2021-06-21 12:43:08.898437500,-55.0,11.5,35.0,70.691875,24.86,0.35899303125000004,238.65
2021-06-21 12:43:08.906250000,-55.0,12.0,35.0,70.69250000000001,24.35,0.358792875,238.65
2021-06-21 12:43:08.914062500,-54.75,11.5,35.0,70.69312500000001,23.665,0.35859271875,238.65
2021-06-21 12:43:08.921875000,-54.5,11.0,35.0,70.69375000000001,22.98,0.3583925625,238.65
2021-06-21 12:43:08.929687500,-54.25,10.5,35.0,70.69437500000001,21.950000000000003,0.35819240625000004,238.65
2021-06-21 12:43:08.937500000,-54.0,10.0,35.0,70.69500000000001,20.92,0.35799225,238.65
2021-06-21 12:43:08.945312500,-54.0,10.0,34.75,70.695625,19.37,0.35779209375,238.65
2021-06-21 12:43:08.953125000,-54.0,10.0,34.5,70.69625,17.82,0.3575919375,238.65
2021-06-21 12:43:08.960937500,-54.0,10.0,34.25,70.696875,15.68,0.35739178125000004,238.65
2021-06-21 12:43:08.968750000,-54.0,10.0,34.0,70.6975,13.54,0.357191625,238.65
2021-06-21 12:43:08.976562500,-54.25,10.0,34.25,70.698125,10.89,0.35699146875,238.65
2021-06-21 12:43:08.984375000,-54.5,10.0,34.5,70.69875,8.24,0.3567913125,238.65
2021-06-21 12:43:08.992187500,-54.75,10.0,34.75,70.699375,5.29,0.35659115625000004,238.65
2021-06-21 12:43:09.000000000,-55.0,10.0,35.0,70.7,2.34,0.356391,238.65
2021-06-21 12:43:09.007812500,-55.0,9.75,34.75,70.700546875,-0.645,0.356551125,238.65
2021-06-21 12:43:09.015625000,-55.0,9.5,34.5,70.70109375,-3.63,0.35671125000000004,238.65
2021-06-21 12:43:09.023437500,-55.0,9.25,34.25,70.701640625,-6.43,0.356871375,238.65
2021-06-21 12:43:09.031250000,-55.0,9.0,34.0,70.70218750000001,-9.23,0.3570315,238.65
2021-06-21 12:43:09.039062500,-54.75,9.0,34.25,70.702734375,-11.725000000000001,0.357191625,238.65
2021-06-21 12:43:09.046875000,-54.5,9.0,34.5,70.70328125,-14.22,0.35735175,238.65
2021-06-21 12:43:09.054687500,-54.25,9.0,34.75,70.703828125,-16.42,0.357511875,238.65
2021-06-21 12:43:09.062500000,-54.0,9.0,35.0,70.704375,-18.62,0.357672,238.65
2021-06-21 12:43:09.070312500,-54.0,9.0,35.0,70.704921875,-20.64,0.357832125,238.65
2021-06-21 12:43:09.078125000,-54.0,9.0,35.0,70.70546875000001,-22.66,0.35799225,238.65
2021-06-21 12:43:09.085937500,-54.0,9.0,35.0,70.706015625,-24.689999999999998,0.358152375,238.65
2021-06-21 12:43:09.093750000,-54.0,9.0,35.0,70.7065625,-26.72,0.3583125,238.65
2021-06-21 12:43:09.101562500,-54.25,9.25,35.0,70.707109375,-28.955,0.358472625,238.65
2021-06-21 12:43:09.109375000,-54.5,9.5,35.0,70.70765625,-31.19,0.35863275,238.65
2021-06-21 12:43:09.117187500,-54.75,9.75,35.0,70.708203125,-33.83,0.358792875,238.65
2021-06-21 12:43:09.125000000,-55.0,10.0,35.0,70.70875000000001,-36.47,0.35895299999999997,238.65
2021-06-21 12:43:09.132812500,-55.0,10.0,35.0,70.709296875,-39.635,0.359113125,238.65
2021-06-21 12:43:09.140625000,-55.0,10.0,35.0,70.70984375,-42.8,0.35927325,238.65
2021-06-21 12:43:09.148437500,-55.0,10.0,35.0,70.710390625,-46.48,0.359433375,238.65
2021-06-21 12:43:09.156250000,-55.0,10.0,35.0,70.7109375,-50.16,0.3595935,238.65
2021-06-21 12:43:09.164062500,-55.0,10.0,35.0,70.711484375,-54.135,0.35975362499999997,238.65
2021-06-21 12:43:09.171875000,-55.0,10.0,35.0,70.71203125,-58.11,0.35991375,238.65
2021-06-21 12:43:09.179687500,-55.0,10.0,35.0,70.71257812500001,-61.92,0.360073875,238.65
2021-06-21 12:43:09.187500000,-55.0,10.0,35.0,70.713125,-65.73,0.360234,238.65
2021-06-21 12:43:09.195312500,-54.75,10.0,35.0,70.713671875,-68.68,0.360394125,238.65
2021-06-21 12:43:09.203125000,-54.5,10.0,35.0,70.71421875,-71.63,0.36055424999999997,238.65
2021-06-21 12:43:09.210937500,-54.25,10.0,35.0,70.714765625,-72.97,0.360714375,238.65
2021-06-21 12:43:09.218750000,-54.0,10.0,35.0,70.7153125,-74.31,0.3608745,238.65
2021-06-21 12:43:09.226562500,-54.0,10.0,35.0,70.71585937500001,-73.445,0.361034625,238.65
2021-06-21 12:43:09.234375000,-54.0,10.0,35.0,70.71640625,-72.58,0.36119474999999995,238.65
2021-06-21 12:43:09.242187500,-54.0,10.0,35.0,70.716953125,-69.25999999999999,0.36135487499999996,238.65
2021-06-21 12:43:09.250000000,-54.0,10.0,35.0,70.7175,-65.94,0.361515,238.65
2021-06-21 12:43:09.257812500,-54.0,9.75,35.0,70.718046875,-60.425,0.36135487499999996,238.65
2021-06-21 12:43:09.265625000,-54.0,9.5,35.0,70.71859375,-54.91,0.36119474999999995,238.65
2021-06-21 12:43:09.273437500,-54.0,9.25,35.0,70.719140625,-47.855,0.361034625,238.65
2021-06-21 12:43:09.281250000,-54.0,9.0,35.0,70.7196875,-40.8,0.3608745,238.65
2021-06-21 12:43:09.289062500,-54.0,9.0,35.0,70.720234375,-33.125,0.360714375,238.65
2021-06-21 12:43:09.296875000,-54.0,9.0,35.0,70.72078125,-25.45,0.36055424999999997,238.65
2021-06-21 12:43:09.304687500,-54.0,9.0,35.0,70.721328125,-18.02,0.360394125,238.65
2021-06-21 12:43:09.312500000,-54.0,9.0,35.0,70.721875,-10.59,0.360234,238.65
2021-06-21 12:43:09.320312500,-54.0,9.0,35.0,70.722421875,-4.07,0.360073875,238.65
2021-06-21 12:43:09.328125000,-54.0,9.0,35.0,70.72296875,2.45,0.35991375,238.65
2021-06-21 12:43:09.335937500,-54.0,9.0,35.0,70.723515625,7.72,0.35975362499999997,238.65
2021-06-21 12:43:09.343750000,-54.0,9.0,35.0,70.7240625,12.99,0.3595935,238.65
2021-06-21 12:43:09.351562500,-54.0,9.25,35.0,70.724609375,16.98,0.359433375,238.65
2021-06-21 12:43:09.359375000,-54.0,9.5,35.0,70.72515625,20.97,0.35927325,238.65
2021-06-21 12:43:09.367187500,-54.0,9.75,35.0,70.725703125,23.814999999999998,0.359113125,238.65
2021-06-21 12:43:09.375000000,-54.0,10.0,35.0,70.72625,26.66,0.35895299999999997,238.65
2021-06-21 12:43:09.382812500,-54.0,10.0,35.0,70.726796875,28.555,0.358792875,238.65
2021-06-21 12:43:09.390625000,-54.0,10.0,35.0,70.72734375,30.45,0.35863275,238.65
2021-06-21 12:43:09.398437500,-54.0,10.0,35.0,70.727890625,31.564999999999998,0.358472625,238.65
2021-06-21 12:43:09.406250000,-54.0,10.0,35.0,70.7284375,32.68,0.3583125,238.65
2021-06-21 12:43:09.414062500,-54.0,10.0,35.0,70.728984375,33.105000000000004,0.358152375,238.65
2021-06-21 12:43:09.421875000,-54.0,10.0,35.0,70.72953125,33.53,0.35799225,238.65
2021-06-21 12:43:09.429687500,-54.0,10.0,35.0,70.730078125,33.35,0.357832125,238.65
2021-06-21 12:43:09.437500000,-54.0,10.0,35.0,70.730625,33.17,0.357672,238.65
2021-06-21 12:43:09.445312500,-54.0,10.0,35.0,70.731171875,32.475,0.357511875,238.65
2021-06-21 12:43:09.453125000,-54.0,10.0,35.0,70.73171875,31.78,0.35735175,238.65
2021-06-21 12:43:09.460937500,-54.0,10.0,35.0,70.732265625,30.78,0.357191625,238.65
2021-06-21 12:43:09.468750000,-54.0,10.0,35.0,70.7328125,29.78,0.3570315,238.65
2021-06-21 12:43:09.476562500,-54.0,10.0,35.0,70.733359375,28.75,0.356871375,238.65
2021-06-21 12:43:09.484375000,-54.0,10.0,35.0,70.73390625,27.72,0.35671125000000004,238.65
2021-06-21 12:43:09.492187500,-54.0,10.0,35.0,70.734453125,26.975,0.356551125,238.65
2021-06-21 12:43:09.500000000,-54.0,10.0,35.0,70.735,26.23,0.356391,238.65
2021-06-21 12:43:09.507812500,-54.0,9.75,35.0,70.735546875,25.995,0.35651109375,238.65
2021-06-21 12:43:09.515625000,-54.0,9.5,35.0,70.73609375,25.76,0.3566311875,238.65
2021-06-21 12:43:09.523437500,-54.0,9.25,35.0,70.73664062499999,26.05,0.35675128125,238.65
2021-06-21 12:43:09.531250000,-54.0,9.0,35.0,70.7371875,26.34,0.356871375,238.65
2021-06-21 12:43:09.539062500,-54.25,9.25,35.0,70.737734375,26.965,0.35699146875,238.65
2021-06-21 12:43:09.546875000,-54.5,9.5,35.0,70.73828125,27.59,0.35711156250000003,238.65
2021-06-21 12:43:09.554687500,-54.75,9.75,35.0,70.738828125,28.23,0.35723165625000003,238.65
2021-06-21 12:43:09.562500000,-55.0,10.0,35.0,70.739375,28.87,0.35735175,238.65
2021-06-21 12:43:09.570312500,-54.75,10.0,35.0,70.739921875,29.18,0.35747184375,238.65
2021-06-21 12:43:09.578125000,-54.5,10.0,35.0,70.74046875,29.49,0.3575919375,238.65
2021-06-21 12:43:09.585937500,-54.25,10.0,35.0,70.741015625,29.27,0.35771203125,238.65
2021-06-21 12:43:09.593750000,-54.0,10.0,35.0,70.7415625,29.05,0.357832125,238.65
2021-06-21 12:43:09.601562500,-54.25,10.0,35.0,70.742109375,28.295,0.35795221875,238.65
2021-06-21 12:43:09.609375000,-54.5,10.0,35.0,70.74265625,27.54,0.3580723125,238.65
2021-06-21 12:43:09.617187500,-54.75,10.0,35.0,70.743203125,26.384999999999998,0.35819240625,238.65
2021-06-21 12:43:09.625000000,-55.0,10.0,35.0,70.74375,25.23,0.35831250000000003,238.65
2021-06-21 12:43:09.632812500,-54.75,10.0,35.0,70.744296875,23.86,0.35843259375000003,238.65
2021-06-21 12:43:09.640625000,-54.5,10.0,35.0,70.74484375,22.49,0.3585526875,238.65
2021-06-21 12:43:09.648437500,-54.25,10.0,35.0,70.745390625,21.025,0.35867278125,238.65
2021-06-21 12:43:09.656250000,-54.0,10.0,35.0,70.7459375,19.56,0.358792875,238.65
2021-06-21 12:43:09.664062500,-54.0,9.75,35.0,70.746484375,18.02,0.35891296875,238.65
2021-06-21 12:43:09.671875000,-54.0,9.5,35.0,70.74703124999999,16.48,0.3590330625,238.65
2021-06-21 12:43:09.679687500,-54.0,9.25,35.0,70.747578125,14.780000000000001,0.35915315625,238.65
2021-06-21 12:43:09.687500000,-54.0,9.0,35.0,70.748125,13.08,0.35927325,238.65
2021-06-21 12:43:09.695312500,-54.0,9.0,35.0,70.748671875,11.125,0.35939334375,238.65
2021-06-21 12:43:09.703125000,-54.0,9.0,35.0,70.74921875,9.17,0.3595134375,238.65
2021-06-21 12:43:09.710937500,-54.0,9.0,35.0,70.749765625,6.9,0.35963353125,238.65
2021-06-21 12:43:09.718750000,-54.0,9.0,35.0,70.75031249999999,4.63,0.359753625,238.65
2021-06-21 12:43:09.726562500,-54.0,9.25,35.0,70.750859375,2.025,0.35987371875,238.65
2021-06-21 12:43:09.734375000,-54.0,9.5,35.0,70.75140625,-0.58,0.3599938125,238.65
2021-06-21 12:43:09.742187500,-54.0,9.75,35.0,70.751953125,-3.46,0.36011390625,238.65
2021-06-21 12:43:09.750000000,-54.0,10.0,35.0,70.7525,-6.34,0.360234,238.65
2021-06-21 12:43:09.757812500,-54.0,9.75,35.0,70.753046875,-9.43,0.3601539375,238.65
2021-06-21 12:43:09.765625000,-54.0,9.5,35.0,70.75359375,-12.52,0.360073875,238.65
2021-06-21 12:43:09.773437500,-54.0,9.25,35.0,70.75414062499999,-15.705,0.3599938125,238.65
2021-06-21 12:43:09.781250000,-54.0,9.0,35.0,70.7546875,-18.89,0.35991375,238.65
2021-06-21 12:43:09.789062500,-54.0,9.0,35.0,70.755234375,-22.060000000000002,0.3598336875,238.65
2021-06-21 12:43:09.796875000,-54.0,9.0,35.0,70.75578125,-25.23,0.359753625,238.65
2021-06-21 12:43:09.804687500,-54.0,9.0,35.0,70.756328125,-28.25,0.3596735625,238.65
2021-06-21 12:43:09.812500000,-54.0,9.0,35.0,70.756875,-31.27,0.3595935,238.65
2021-06-21 12:43:09.820312500,-54.0,9.0,35.0,70.75742187499999,-34.03,0.3595134375,238.65
2021-06-21 12:43:09.828125000,-54.0,9.0,35.0,70.75796875,-36.79,0.359433375,238.65
2021-06-21 12:43:09.835937500,-54.0,9.0,35.0,70.758515625,-39.224999999999994,0.3593533125,238.65
2021-06-21 12:43:09.843750000,-54.0,9.0,35.0,70.7590625,-41.66,0.35927325,238.65
2021-06-21 12:43:09.851562500,-54.0,9.0,35.0,70.759609375,-43.81999999999999,0.3591931875,238.65
2021-06-21 12:43:09.859375000,-54.0,9.0,35.0,70.76015625,-45.98,0.359113125,238.65
2021-06-21 12:43:09.867187500,-54.0,9.0,35.0,70.76070312499999,-48.04,0.3590330625,238.65
2021-06-21 12:43:09.875000000,-54.0,9.0,35.0,70.76124999999999,-50.1,0.35895299999999997,238.65
2021-06-21 12:43:09.882812500,-54.0,9.0,35.0,70.761796875,-52.365,0.3588729375,238.65
2021-06-21 12:43:09.890625000,-54.0,9.0,35.0,70.76234375,-54.63,0.358792875,238.65
2021-06-21 12:43:09.898437500,-54.0,9.0,35.0,70.762890625,-57.44,0.3587128125,238.65
2021-06-21 12:43:09.906250000,-54.0,9.0,35.0,70.7634375,-60.25,0.35863275,238.65
2021-06-21 12:43:09.914062500,-54.0,9.0,35.0,70.76398437499999,-63.805,0.35855268749999997,238.65
2021-06-21 12:43:09.921875000,-54.0,9.0,35.0,70.76453124999999,-67.36,0.358472625,238.65
2021-06-21 12:43:09.929687500,-54.0,9.0,35.0,70.765078125,-71.555,0.3583925625,238.65
2021-06-21 12:43:09.937500000,-54.0,9.0,35.0,70.765625,-75.75,0.3583125,238.65
2021-06-21 12:43:09.945312500,-54.0,9.25,35.0,70.766171875,-80.05,0.3582324375,238.65
2021-06-21 12:43:09.953125000,-54.0,9.5,35.0,70.76671875,-84.35,0.35815237499999997,238.65
2021-06-21 12:43:09.960937500,-54.0,9.75,35.0,70.767265625,-87.87,0.3580723125,238.65
2021-06-21 12:43:09.968750000,-54.0,10.0,35.0,70.76781249999999,-91.39,0.35799225,238.65
2021-06-21 12:43:09.976562500,-54.0,10.0,35.0,70.768359375,-93.10499999999999,0.3579121875,238.65
2021-06-21 12:43:09.984375000,-54.0,10.0,35.0,70.76890625,-94.82,0.357832125,238.65
2021-06-21 12:43:09.992187500,-54.0,10.0,35.0,70.769453125,-93.91,0.35775206249999997,238.65
2021-06-21 12:43:10.000000000,-54.0,10.0,35.0,70.77,-93.0,0.357672,238.65
2021-06-21 12:43:10.007812500,-54.0,10.0,35.0,70.770625,-89.15,0.35771203125,238.65
2021-06-21 12:43:10.015625000,-54.0,10.0,35.0,70.77125,-85.3,0.35775206249999997,238.65
2021-06-21 12:43:10.023437500,-54.0,10.0,35.0,70.771875,-78.84,0.35779209375,238.65
2021-06-21 12:43:10.031250000,-54.0,10.0,35.0,70.7725,-72.38,0.357832125,238.65
2021-06-21 12:43:10.039062500,-54.0,10.0,35.0,70.773125,-64.205,0.35787215625,238.65
2021-06-21 12:43:10.046875000,-54.0,10.0,35.0,70.77374999999999,-56.03,0.3579121875,238.65
2021-06-21 12:43:10.054687500,-54.0,10.0,35.0,70.77437499999999,-47.28,0.35795221875,238.65
2021-06-21 12:43:10.062500000,-54.0,10.0,35.0,70.77499999999999,-38.53,0.35799225,238.65
2021-06-21 12:43:10.070312500,-54.0,10.0,35.0,70.77562499999999,-30.28,0.35803228125,238.65
2021-06-21 12:43:10.078125000,-54.0,10.0,35.0,70.77624999999999,-22.03,0.3580723125,238.65
2021-06-21 12:43:10.085937500,-54.0,10.0,35.0,70.77687499999999,-15.030000000000001,0.35811234375,238.65
2021-06-21 12:43:10.093750000,-54.0,10.0,35.0,70.77749999999999,-8.03,0.358152375,238.65
2021-06-21 12:43:10.101562500,-54.0,10.0,35.0,70.778125,-2.5599999999999996,0.35819240625,238.65
2021-06-21 12:43:10.109375000,-54.0,10.0,35.0,70.77875,2.91,0.3582324375,238.65
2021-06-21 12:43:10.117187500,-54.0,10.0,35.0,70.779375,6.93,0.35827246875,238.65
2021-06-21 12:43:10.125000000,-54.0,10.0,35.0,70.78,10.95,0.35831250000000003,238.65
2021-06-21 12:43:10.132812500,-54.0,10.0,35.0,70.780625,13.799999999999999,0.35835253125,238.65
2021-06-21 12:43:10.140625000,-54.0,10.0,35.0,70.78125,16.65,0.3583925625,238.65
2021-06-21 12:43:10.148437500,-54.0,10.0,35.0,70.781875,18.655,0.35843259375000003,238.65
2021-06-21 12:43:10.156250000,-54.0,10.0,35.0,70.7825,20.66,0.358472625,238.65
2021-06-21 12:43:10.164062500,-54.0,10.0,35.0,70.783125,22.105,0.35851265625,238.65
2021-06-21 12:43:10.171875000,-54.0,10.0,35.0,70.78375,23.55,0.3585526875,238.65
2021-06-21 12:43:10.179687500,-54.0,10.0,35.0,70.784375,24.64,0.35859271875000004,238.65
2021-06-21 12:43:10.187500000,-54.0,10.0,35.0,70.785,25.73,0.35863275,238.65
2021-06-21 12:43:10.195312500,-54.0,10.0,35.0,70.785625,26.634999999999998,0.35867278125,238.65
2021-06-21 12:43:10.203125000,-54.0,10.0,35.0,70.78625,27.54,0.35871281250000003,238.65
2021-06-21 12:43:10.210937500,-54.0,10.0,35.0,70.786875,28.39,0.35875284375,238.65
2021-06-21 12:43:10.218750000,-54.0,10.0,35.0,70.7875,29.24,0.358792875,238.65
2021-06-21 12:43:10.226562500,-54.0,9.75,35.0,70.788125,30.095,0.35883290625,238.65
2021-06-21 12:43:10.234375000,-54.0,9.5,35.0,70.78875,30.95,0.35887293750000004,238.65
2021-06-21 12:43:10.242187500,-54.0,9.25,35.0,70.78937499999999,31.799999999999997,0.35891296875,238.65
2021-06-21 12:43:10.250000000,-54.0,9.0,35.0,70.78999999999999,32.65,0.358953,238.65
2021-06-21 12:43:10.257812500,-54.0,9.0,35.0,70.79062499999999,33.415,0.35887293750000004,238.65
2021-06-21 12:43:10.265625000,-54.0,9.0,35.0,70.79124999999999,34.18,0.358792875,238.65
2021-06-21 12:43:10.273437500,-54.0,9.0,35.0,70.79187499999999,34.730000000000004,0.35871281250000003,238.65
2021-06-21 12:43:10.281250000,-54.0,9.0,35.0,70.79249999999999,35.28,0.35863275,238.65
2021-06-21 12:43:10.289062500,-54.0,9.25,35.0,70.79312499999999,35.565,0.3585526875,238.65
2021-06-21 12:43:10.296875000,-54.0,9.5,35.0,70.79374999999999,35.85,0.35847262500000004,238.65
2021-06-21 12:43:10.304687500,-54.0,9.75,35.0,70.794375,35.900000000000006,0.3583925625,238.65
2021-06-21 12:43:10.312500000,-54.0,10.0,35.0,70.795,35.95,0.35831250000000003,238.65
2021-06-21 12:43:10.320312500,-54.0,9.75,35.0,70.795625,35.88,0.3582324375,238.65
2021-06-21 12:43:10.328125000,-54.0,9.5,35.0,70.79625,35.81,0.358152375,238.65
2021-06-21 12:43:10.335937500,-54.0,9.25,35.0,70.796875,35.760000000000005,0.35807231250000005,238.65
2021-06-21 12:43:10.343750000,-54.0,9.0,35.0,70.7975,35.71,0.35799225,238.65
2021-06-21 12:43:10.351562500,-54.0,9.25,35.0,70.798125,35.75,0.35791218750000003,238.65
2021-06-21 12:43:10.359375000,-54.0,9.5,35.0,70.79875,35.79,0.357832125,238.65
2021-06-21 12:43:10.367187500,-54.0,9.75,35.0,70.799375,35.849999999999994,0.3577520625,238.65
2021-06-21 12:43:10.375000000,-54.0,10.0,35.0,70.8,35.91,0.357672,238.65
2021-06-21 12:43:10.382812500,-54.0,9.75,35.0,70.800625,35.834999999999994,0.3575919375,238.65
2021-06-21 12:43:10.390625000,-54.0,9.5,35.0,70.80125,35.76,0.35751187500000003,238.65
2021-06-21 12:43:10.398437500,-54.0,9.25,35.0,70.801875,35.39,0.3574318125,238.65
2021-06-21 12:43:10.406250000,-54.0,9.0,35.0,70.8025,35.02,0.35735175,238.65
2021-06-21 12:43:10.414062500,-54.0,9.25,35.0,70.803125,34.235,0.3572716875,238.65
2021-06-21 12:43:10.421875000,-54.0,9.5,35.0,70.80375,33.45,0.357191625,238.65
2021-06-21 12:43:10.429687500,-54.0,9.75,35.0,70.804375,32.275000000000006,0.35711156250000003,238.65
2021-06-21 12:43:10.437500000,-54.0,10.0,35.0,70.80499999999999,31.1,0.3570315,238.65
2021-06-21 12:43:10.445312500,-54.0,10.0,35.0,70.80562499999999,29.630000000000003,0.3569514375,238.65
2021-06-21 12:43:10.453125000,-54.0,10.0,35.0,70.80624999999999,28.16,0.356871375,238.65
2021-06-21 12:43:10.460937500,-54.0,10.0,35.0,70.80687499999999,26.505000000000003,0.3567913125,238.65
2021-06-21 12:43:10.468750000,-54.0,10.0,35.0,70.80749999999999,24.85,0.35671125000000004,238.65
2021-06-21 12:43:10.476562500,-54.0,9.75,35.0,70.80812499999999,23.065,0.3566311875,238.65
2021-06-21 12:43:10.484375000,-54.0,9.5,35.0,70.80874999999999,21.28,0.356551125,238.65
2021-06-21 12:43:10.492187500,-54.0,9.25,35.0,70.80937499999999,19.335,0.3564710625,238.65
2021-06-21 12:43:10.500000000,-54.0,9.0,35.0,70.81,17.39,0.356391,238.65
2021-06-21 12:43:10.507812500,-54.0,9.0,35.0,70.810625,15.22,0.3564710625,238.65
2021-06-21 12:43:10.515625000,-54.0,9.0,35.0,70.81125,13.05,0.356551125,238.65
2021-06-21 12:43:10.523437500,-54.0,9.0,35.0,70.811875,10.595,0.3566311875,238.65
2021-06-21 12:43:10.531250000,-54.0,9.0,35.0,70.8125,8.14,0.35671125000000004,238.65
2021-06-21 12:43:10.539062500,-54.0,9.25,35.0,70.813125,5.415,0.3567913125,238.65
2021-06-21 12:43:10.546875000,-54.0,9.5,35.0,70.81375,2.69,0.356871375,238.65
2021-06-21 12:43:10.554687500,-54.0,9.75,35.0,70.814375,-0.2200000000000002,0.3569514375,238.65
2021-06-21 12:43:10.562500000,-54.0,10.0,35.0,70.815,-3.13,0.3570315,238.65
2021-06-21 12:43:10.570312500,-54.0,9.75,35.0,70.815625,-6.09,0.35711156250000003,238.65
2021-06-21 12:43:10.578125000,-54.0,9.5,35.0,70.81625,-9.05,0.357191625,238.65
2021-06-21 12:43:10.585937500,-54.0,9.25,35.0,70.816875,-11.935,0.3572716875,238.65
2021-06-21 12:43:10.593750000,-54.0,9.0,35.0,70.8175,-14.82,0.35735175,238.65
2021-06-21 12:43:10.601562500,-54.0,9.25,35.0,70.818125,-17.545,0.3574318125,238.65
2021-06-21 12:43:10.609375000,-54.0,9.5,35.0,70.81875,-20.27,0.35751187500000003,238.65
2021-06-21 12:43:10.617187500,-54.0,9.75,35.0,70.819375,-22.795,0.3575919375,238.65
2021-06-21 12:43:10.625000000,-54.0,10.0,35.0,70.82,-25.32,0.357672,238.65
2021-06-21 12:43:10.632812500,-54.25,10.0,35.0,70.82062499999999,-27.665,0.3577520625,238.65
2021-06-21 12:43:10.640625000,-54.5,10.0,35.0,70.82124999999999,-30.01,0.357832125,238.65
2021-06-21 12:43:10.648437500,-54.75,10.0,35.0,70.82187499999999,-32.29,0.35791218750000003,238.65
2021-06-21 12:43:10.656250000,-55.0,10.0,35.0,70.82249999999999,-34.57,0.35799225,238.65
2021-06-21 12:43:10.664062500,-54.75,10.0,35.0,70.82312499999999,-37.0,0.35807231250000005,238.65
2021-06-21 12:43:10.671875000,-54.5,10.0,35.0,70.82374999999999,-39.43,0.358152375,238.65
2021-06-21 12:43:10.679687500,-54.25,10.0,35.0,70.82437499999999,-42.285,0.3582324375,238.65
2021-06-21 12:43:10.687500000,-54.0,10.0,35.0,70.82499999999999,-45.14,0.35831250000000003,238.65
2021-06-21 12:43:10.695312500,-54.0,9.75,35.0,70.82562499999999,-48.715,0.3583925625,238.65
2021-06-21 12:43:10.703125000,-54.0,9.5,35.0,70.82625,-52.29,0.35847262500000004,238.65
2021-06-21 12:43:10.710937500,-54.0,9.25,35.0,70.826875,-56.665,0.3585526875,238.65
2021-06-21 12:43:10.718750000,-54.0,9.0,35.0,70.8275,-61.04,0.35863275,238.65
2021-06-21 12:43:10.726562500,-54.0,9.0,35.0,70.828125,-65.97,0.35871281250000003,238.65
2021-06-21 12:43:10.734375000,-54.0,9.0,35.0,70.82875,-70.9,0.358792875,238.65
2021-06-21 12:43:10.742187500,-54.0,9.0,35.0,70.829375,-75.685,0.35887293750000004,238.65
2021-06-21 12:43:10.750000000,-54.0,9.0,35.0,70.83,-80.47,0.358953,238.65
2021-06-21 12:43:10.757812500,-54.0,9.0,35.0,70.830625,-84.10499999999999,0.35907309375,238.65
2021-06-21 12:43:10.765625000,-54.0,9.0,35.0,70.83125,-87.74,0.3591931875,238.65
2021-06-21 12:43:10.773437500,-54.0,9.0,35.0,70.831875,-89.16999999999999,0.35931328125,238.65
2021-06-21 12:43:10.781250000,-54.0,9.0,35.0,70.8325,-90.6,0.359433375,238.65
2021-06-21 12:43:10.789062500,-54.0,9.0,35.0,70.833125,-89.085,0.35955346875,238.65
2021-06-21 12:43:10.796875000,-54.0,9.0,35.0,70.83375,-87.57,0.35967356250000004,238.65
2021-06-21 12:43:10.804687500,-54.0,9.0,35.0,70.834375,-82.955,0.35979365625000004,238.65
2021-06-21 12:43:10.812500000,-54.0,9.0,35.0,70.835,-78.34,0.35991375000000003,238.65
2021-06-21 12:43:10.820312500,-54.25,9.0,35.0,70.835625,-71.155,0.36003384375,238.65
2021-06-21 12:43:10.828125000,-54.5,9.0,35.0,70.83624999999999,-63.97,0.3601539375,238.65
2021-06-21 12:43:10.835937500,-54.75,9.0,35.0,70.83687499999999,-55.215,0.36027403125,238.65
2021-06-21 12:43:10.843750000,-55.0,9.0,35.0,70.83749999999999,-46.46,0.360394125,238.65
2021-06-21 12:43:10.851562500,-54.75,9.0,35.0,70.83812499999999,-37.335,0.36051421875,238.65
2021-06-21 12:43:10.859375000,-54.5,9.0,35.0,70.83874999999999,-28.21,0.3606343125,238.65
2021-06-21 12:43:10.867187500,-54.25,9.0,35.0,70.83937499999999,-19.75,0.36075440625,238.65
2021-06-21 12:43:10.875000000,-54.0,9.0,35.0,70.83999999999999,-11.29,0.3608745,238.65
2021-06-21 12:43:10.882812500,-54.0,9.0,35.0,70.84062499999999,-4.145,0.36099459375000004,238.65
2021-06-21 12:43:10.890625000,-54.0,9.0,35.0,70.84124999999999,3.0,0.36111468750000003,238.65
2021-06-21 12:43:10.898437500,-54.0,9.0,35.0,70.84187499999999,8.59,0.36123478125,238.65
2021-06-21 12:43:10.906250000,-54.0,9.0,35.0,70.8425,14.18,0.361354875,238.65
2021-06-21 12:43:10.914062500,-54.0,9.0,35.0,70.843125,18.314999999999998,0.36147496875,238.65
2021-06-21 12:43:10.921875000,-54.0,9.0,35.0,70.84375,22.45,0.3615950625,238.65
2021-06-21 12:43:10.929687500,-54.0,9.0,35.0,70.844375,25.38,0.36171515625,238.65
2021-06-21 12:43:10.937500000,-54.0,9.0,35.0,70.845,28.31,0.36183525,238.65
2021-06-21 12:43:10.945312500,-54.0,9.0,35.0,70.845625,30.339999999999996,0.36195534375,238.65
2021-06-21 12:43:10.953125000,-54.0,9.0,35.0,70.84625,32.37,0.3620754375,238.65
2021-06-21 12:43:10.960937500,-54.0,9.0,35.0,70.846875,33.805,0.36219553125000004,238.65
2021-06-21 12:43:10.968750000,-54.0,9.0,35.0,70.8475,35.24,0.36231562500000003,238.65
2021-06-21 12:43:10.976562500,-54.0,9.0,35.0,70.848125,36.33,0.36243571875,238.65
2021-06-21 12:43:10.984375000,-54.0,9.0,35.0,70.84875,37.42,0.3625558125,238.65
2021-06-21 12:43:10.992187500,-54.0,9.0,35.0,70.849375,38.375,0.36267590625,238.65
2021-06-21 12:43:11.000000000,-54.0,9.0,35.0,70.85,39.33,0.362796,238.65
2021-06-21 12:43:11.007812500,-54.0,9.0,35.0,70.85078125,40.245,0.36259584375,238.65
2021-06-21 12:43:11.015625000,-54.0,9.0,35.0,70.8515625,41.16,0.3623956875,238.65
2021-06-21 12:43:11.023437500,-54.0,9.0,35.0,70.85234374999999,42.045,0.36219553125000004,238.65
2021-06-21 12:43:11.031250000,-54.0,9.0,35.0,70.85312499999999,42.93,0.361995375,238.65
2021-06-21 12:43:11.039062500,-54.0,9.0,35.0,70.85390625,43.7,0.36179521875,238.65
2021-06-21 12:43:11.046875000,-54.0,9.0,35.0,70.8546875,44.47,0.3615950625,238.65
2021-06-21 12:43:11.054687500,-54.0,9.0,35.0,70.85546875,45.0,0.36139490625000004,238.65
2021-06-21 12:43:11.062500000,-54.0,9.0,35.0,70.85624999999999,45.53,0.36119475,238.65
2021-06-21 12:43:11.070312500,-54.0,9.0,35.0,70.85703124999999,45.75,0.36099459375,238.65
2021-06-21 12:43:11.078125000,-54.0,9.0,35.0,70.8578125,45.97,0.3607944375,238.65
2021-06-21 12:43:11.085937500,-54.0,9.0,35.0,70.85859375,45.92,0.36059428125000004,238.65
2021-06-21 12:43:11.093750000,-54.0,9.0,35.0,70.859375,45.87,0.360394125,238.65
2021-06-21 12:43:11.101562500,-54.0,9.0,35.0,70.86015624999999,45.7,0.36019396875,238.65
2021-06-21 12:43:11.109375000,-54.0,9.0,35.0,70.86093749999999,45.53,0.3599938125,238.65
2021-06-21 12:43:11.117187500,-54.0,9.0,35.0,70.86171875,45.445,0.35979365625000004,238.65
2021-06-21 12:43:11.125000000,-54.0,9.0,35.0,70.8625,45.36,0.3595935,238.65
2021-06-21 12:43:11.132812500,-54.0,9.0,35.0,70.86328125,45.495000000000005,0.35939334375,238.65
2021-06-21 12:43:11.140625000,-54.0,9.0,35.0,70.86406249999999,45.63,0.3591931875,238.65
2021-06-21 12:43:11.148437500,-54.0,9.0,35.0,70.86484374999999,46.015,0.35899303125000004,238.65
2021-06-21 12:43:11.156250000,-54.0,9.0,35.0,70.865625,46.4,0.358792875,238.65
2021-06-21 12:43:11.164062500,-54.25,9.25,34.75,70.86640625,46.905,0.35859271875,238.65
2021-06-21 12:43:11.171875000,-54.5,9.5,34.5,70.8671875,47.41,0.3583925625,238.65
2021-06-21 12:43:11.179687500,-54.75,9.75,34.25,70.86796875,47.81999999999999,0.35819240625000004,238.65
2021-06-21 12:43:11.187500000,-55.0,10.0,34.0,70.86874999999999,48.23,0.35799225,238.65
2021-06-21 12:43:11.195312500,-55.0,10.0,34.25,70.86953125,48.28,0.35779209375,238.65
2021-06-21 12:43:11.203125000,-55.0,10.0,34.5,70.8703125,48.33,0.3575919375,238.65
2021-06-21 12:43:11.210937500,-55.0,10.0,34.75,70.87109375,47.82,0.35739178125000004,238.65
2021-06-21 12:43:11.218750000,-55.0,10.0,35.0,70.871875,47.31,0.357191625,238.65
2021-06-21 12:43:11.226562500,-54.75,10.0,35.0,70.87265624999999,46.13,0.35699146875,238.65
2021-06-21 12:43:11.234375000,-54.5,10.0,35.0,70.8734375,44.95,0.3567913125,238.65
2021-06-21 12:43:11.242187500,-54.25,10.0,35.0,70.87421875,43.145,0.35659115625000004,238.65
2021-06-21 12:43:11.250000000,-54.0,10.0,35.0,70.875,41.34,0.356391,238.65
2021-06-21 12:43:11.257812500,-54.25,9.75,35.0,70.87578125,39.045,0.3564710625,238.65
2021-06-21 12:43:11.265625000,-54.5,9.5,35.0,70.87656249999999,36.75,0.356551125,238.65
2021-06-21 12:43:11.273437500,-54.75,9.25,35.0,70.87734375,34.18,0.3566311875,238.65
2021-06-21 12:43:11.281250000,-55.0,9.0,35.0,70.878125,31.61,0.35671125000000004,238.65
2021-06-21 12:43:11.289062500,-54.75,9.0,35.0,70.87890625,28.98,0.3567913125,238.65
2021-06-21 12:43:11.296875000,-54.5,9.0,35.0,70.8796875,26.35,0.356871375,238.65
2021-06-21 12:43:11.304687500,-54.25,9.0,35.0,70.88046874999999,23.775,0.3569514375,238.65
2021-06-21 12:43:11.312500000,-54.0,9.0,35.0,70.88125,21.2,0.3570315,238.65
2021-06-21 12:43:11.320312500,-54.0,9.0,35.0,70.88203125,18.66,0.35711156250000003,238.65
2021-06-21 12:43:11.328125000,-54.0,9.0,35.0,70.8828125,16.12,0.357191625,238.65
2021-06-21 12:43:11.335937500,-54.0,9.0,35.0,70.88359375,13.515,0.3572716875,238.65
2021-06-21 12:43:11.343750000,-54.0,9.0,35.0,70.88437499999999,10.91,0.35735175,238.65
2021-06-21 12:43:11.351562500,-54.0,9.0,35.0,70.88515625,8.105,0.3574318125,238.65
2021-06-21 12:43:11.359375000,-54.0,9.0,35.0,70.8859375,5.3,0.35751187500000003,238.65
2021-06-21 12:43:11.367187500,-54.0,9.0,35.0,70.88671875,2.225,0.3575919375,238.65
2021-06-21 12:43:11.375000000,-54.0,9.0,35.0,70.8875,-0.85,0.357672,238.65
2021-06-21 12:43:11.382812500,-54.0,9.0,35.0,70.88828124999999,-4.12,0.3577520625,238.65
2021-06-21 12:43:11.390625000,-54.0,9.0,35.0,70.8890625,-7.39,0.357832125,238.65
2021-06-21 12:43:11.398437500,-54.0,9.0,35.0,70.88984375,-10.69,0.35791218750000003,238.65
2021-06-21 12:43:11.406250000,-54.0,9.0,35.0,70.890625,-13.99,0.35799225,238.65
2021-06-21 12:43:11.414062500,-54.25,9.0,35.0,70.89140625,-17.11,0.35807231250000005,238.65
2021-06-21 12:43:11.421875000,-54.5,9.0,35.0,70.89218749999999,-20.23,0.358152375,238.65
2021-06-21 12:43:11.429687500,-54.75,9.0,35.0,70.89296875,-23.025,0.3582324375,238.65
2021-06-21 12:43:11.437500000,-55.0,9.0,35.0,70.89375,-25.82,0.35831250000000003,238.65
2021-06-21 12:43:11.445312500,-54.75,9.25,35.0,70.89453125,-28.29,0.3583925625,238.65
2021-06-21 12:43:11.453125000,-54.5,9.5,35.0,70.8953125,-30.76,0.35847262500000004,238.65
2021-06-21 12:43:11.460937500,-54.25,9.75,35.0,70.89609374999999,-33.07,0.3585526875,238.65
2021-06-21 12:43:11.468750000,-54.0,10.0,35.0,70.896875,-35.38,0.35863275,238.65
2021-06-21 12:43:11.476562500,-54.25,10.0,35.0,70.89765625,-37.805,0.35871281250000003,238.65
2021-06-21 12:43:11.484375000,-54.5,10.0,35.0,70.8984375,-40.23,0.358792875,238.65
2021-06-21 12:43:11.492187500,-54.75,10.0,35.0,70.89921875,-43.114999999999995,0.35887293750000004,238.65
2021-06-21 12:43:11.500000000,-55.0,10.0,35.0,70.9,-46.0,0.358953,238.65
2021-06-21 12:43:11.507812500,-55.0,10.0,35.0,70.90078125,-49.629999999999995,0.35891296875,238.65
2021-06-21 12:43:11.515625000,-55.0,10.0,35.0,70.9015625,-53.26,0.35887293750000004,238.65
2021-06-21 12:43:11.523437500,-55.0,10.0,35.0,70.90234375,-57.724999999999994,0.35883290625,238.65
2021-06-21 12:43:11.531250000,-55.0,10.0,35.0,70.903125,-62.19,0.358792875,238.65
2021-06-21 12:43:11.539062500,-54.75,9.75,35.0,70.90390625,-67.24000000000001,0.35875284375,238.65
2021-06-21 12:43:11.546875000,-54.5,9.5,35.0,70.9046875,-72.29,0.35871281250000003,238.65
2021-06-21 12:43:11.554687500,-54.25,9.25,35.0,70.90546875,-77.275,0.35867278125,238.65
2021-06-21 12:43:11.562500000,-54.0,9.0,35.0,70.90625,-82.26,0.35863275,238.65
2021-06-21 12:43:11.570312500,-54.0,8.75,35.0,70.90703125,-86.21000000000001,0.35859271875000004,238.65
2021-06-21 12:43:11.578125000,-54.0,8.5,35.0,70.9078125,-90.16,0.3585526875,238.65
2021-06-21 12:43:11.585937500,-54.0,8.25,35.0,70.90859375,-91.99,0.35851265625,238.65
2021-06-21 12:43:11.593750000,-54.0,8.0,35.0,70.909375,-93.82,0.358472625,238.65
2021-06-21 12:43:11.601562500,-53.75,8.0,35.0,70.91015625,-92.715,0.35843259375000003,238.65
2021-06-21 12:43:11.609375000,-53.5,8.0,35.0,70.9109375,-91.61,0.3583925625,238.65
2021-06-21 12:43:11.617187500,-53.25,8.0,35.0,70.91171875,-87.285,0.35835253125,238.65
2021-06-21 12:43:11.625000000,-53.0,8.0,35.0,70.9125,-82.96,0.35831250000000003,238.65
2021-06-21 12:43:11.632812500,-53.25,8.0,35.25,70.91328125,-75.8,0.35827246875,238.65
2021-06-21 12:43:11.640625000,-53.5,8.0,35.5,70.9140625,-68.64,0.3582324375,238.65
2021-06-21 12:43:11.648437500,-53.75,8.0,35.75,70.91484375,-59.595,0.35819240625,238.65
2021-06-21 12:43:11.656250000,-54.0,8.0,36.0,70.915625,-50.55,0.358152375,238.65
2021-06-21 12:43:11.664062500,-54.0,8.25,35.75,70.91640625,-40.825,0.35811234375,238.65
2021-06-21 12:43:11.671875000,-54.0,8.5,35.5,70.9171875,-31.1,0.3580723125,238.65
2021-06-21 12:43:11.679687500,-54.0,8.75,35.25,70.91796875,-21.835,0.35803228125,238.65
2021-06-21 12:43:11.687500000,-54.0,9.0,35.0,70.91875,-12.57,0.35799225,238.65
2021-06-21 12:43:11.695312500,-54.0,9.0,35.0,70.91953125,-4.57,0.35795221875,238.65
2021-06-21 12:43:11.703125000,-54.0,9.0,35.0,70.9203125,3.43,0.3579121875,238.65
2021-06-21 12:43:11.710937500,-54.0,9.0,35.0,70.92109375,9.775,0.35787215625,238.65
2021-06-21 12:43:11.718750000,-54.0,9.0,35.0,70.921875,16.12,0.357832125,238.65
2021-06-21 12:43:11.726562500,-54.0,9.0,35.0,70.92265625,20.795,0.35779209375,238.65
2021-06-21 12:43:11.734375000,-54.0,9.0,35.0,70.9234375,25.47,0.35775206249999997,238.65
2021-06-21 12:43:11.742187500,-54.0,9.0,35.0,70.92421875,28.71,0.35771203125,238.65
2021-06-21 12:43:11.750000000,-54.0,9.0,35.0,70.925,31.95,0.357672,238.65
2021-06-21 12:43:11.757812500,-54.0,9.0,35.0,70.92578125,34.095,0.35779209375,238.65
2021-06-21 12:43:11.765625000,-54.0,9.0,35.0,70.9265625,36.24,0.3579121875,238.65
2021-06-21 12:43:11.773437500,-54.0,9.0,35.0,70.92734375,37.66,0.35803228125,238.65
2021-06-21 12:43:11.781250000,-54.0,9.0,35.0,70.928125,39.08,0.35815237499999997,238.65
2021-06-21 12:43:11.789062500,-54.0,9.0,35.0,70.92890625,40.105000000000004,0.35827246874999996,238.65
2021-06-21 12:43:11.796875000,-54.0,9.0,35.0,70.9296875,41.13,0.3583925625,238.65
2021-06-21 12:43:11.804687500,-54.0,9.0,35.0,70.93046875,42.005,0.35851265625,238.65
2021-06-21 12:43:11.812500000,-54.0,9.0,35.0,70.93125,42.88,0.35863275,238.65
2021-06-21 12:43:11.820312500,-54.0,9.0,35.0,70.93203125,43.735,0.35875284375,238.65
2021-06-21 12:43:11.828125000,-54.0,9.0,35.0,70.9328125,44.59,0.3588729375,238.65
2021-06-21 12:43:11.835937500,-54.0,9.0,35.0,70.93359375,45.44,0.35899303125,238.65
2021-06-21 12:43:11.843750000,-54.0,9.0,35.0,70.934375,46.29,0.359113125,238.65
2021-06-21 12:43:11.851562500,-54.0,9.0,35.0,70.93515625,47.08,0.35923321874999997,238.65
2021-06-21 12:43:11.859375000,-54.0,9.0,35.0,70.93593750000001,47.87,0.35935331249999997,238.65
2021-06-21 12:43:11.867187500,-54.0,9.0,35.0,70.93671875,48.51,0.35947340624999996,238.65
2021-06-21 12:43:11.875000000,-54.0,9.0,35.0,70.9375,49.15,0.3595935,238.65
2021-06-21 12:43:11.882812500,-54.0,9.0,35.0,70.93828125,49.565,0.35971359375,238.65
2021-06-21 12:43:11.890625000,-54.0,9.0,35.0,70.9390625,49.98,0.3598336875,238.65
2021-06-21 12:43:11.898437500,-54.0,9.0,35.0,70.93984375000001,50.165,0.35995378125,238.65
2021-06-21 12:43:11.906250000,-54.0,9.0,35.0,70.940625,50.35,0.360073875,238.65
2021-06-21 12:43:11.914062500,-54.0,9.0,35.0,70.94140625,50.35,0.36019396875,238.65
2021-06-21 12:43:11.921875000,-54.0,9.0,35.0,70.9421875,50.35,0.3603140625,238.65
2021-06-21 12:43:11.929687500,-54.0,9.0,35.0,70.94296875,50.269999999999996,0.36043415624999997,238.65
2021-06-21 12:43:11.937500000,-54.0,9.0,35.0,70.94375000000001,50.19,0.36055424999999997,238.65
2021-06-21 12:43:11.945312500,-54.0,9.0,35.0,70.94453125,50.16,0.36067434374999996,238.65
2021-06-21 12:43:11.953125000,-54.0,9.0,35.0,70.9453125,50.13,0.36079443749999995,238.65
2021-06-21 12:43:11.960937500,-54.0,9.0,35.0,70.94609375,50.255,0.36091453125,238.65
2021-06-21 12:43:11.968750000,-54.0,9.0,35.0,70.946875,50.38,0.361034625,238.65
2021-06-21 12:43:11.976562500,-54.0,9.0,35.0,70.94765625000001,50.705,0.36115471875,238.65
2021-06-21 12:43:11.984375000,-54.0,9.0,35.0,70.9484375,51.03,0.3612748125,238.65
2021-06-21 12:43:11.992187500,-54.0,9.0,35.0,70.94921875,51.465,0.36139490625,238.65
2021-06-21 12:43:12.000000000,-54.0,9.0,35.0,70.95,51.9,0.361515,238.65
2021-06-21 12:43:12.007812500,-54.0,9.0,35.0,70.95078125,52.25,0.3614349375,238.65
2021-06-21 12:43:12.015625000,-54.0,9.0,35.0,70.95156250000001,52.6,0.36135487499999996,238.65
2021-06-21 12:43:12.023437500,-54.0,9.0,35.0,70.95234375,52.625,0.3612748125,238.65
2021-06-21 12:43:12.031250000,-54.0,9.0,35.0,70.953125,52.65,0.36119475,238.65
2021-06-21 12:43:12.039062500,-54.0,9.0,35.0,70.95390625,52.15,0.3611146875,238.65
2021-06-21 12:43:12.046875000,-54.0,9.0,35.0,70.9546875,51.65,0.361034625,238.65
2021-06-21 12:43:12.054687500,-54.0,9.0,35.0,70.95546875000001,50.519999999999996,0.36095456249999996,238.65
2021-06-21 12:43:12.062500000,-54.0,9.0,35.0,70.95625,49.39,0.3608745,238.65
2021-06-21 12:43:12.070312500,-54.0,9.0,35.0,70.95703125,47.69,0.3607944375,238.65
2021-06-21 12:43:12.078125000,-54.0,9.0,35.0,70.9578125,45.99,0.360714375,238.65
2021-06-21 12:43:12.085937500,-54.0,9.0,35.0,70.95859375,43.875,0.3606343125,238.65
2021-06-21 12:43:12.093750000,-54.0,9.0,35.0,70.95937500000001,41.76,0.36055424999999997,238.65
2021-06-21 12:43:12.101562500,-54.0,9.0,35.0,70.96015625,39.44,0.3604741875,238.65
2021-06-21 12:43:12.109375000,-54.0,9.0,35.0,70.9609375,37.12,0.360394125,238.65
2021-06-21 12:43:12.117187500,-54.0,9.0,35.0,70.96171875,34.745,0.3603140625,238.65
2021-06-21 12:43:12.125000000,-54.0,9.0,35.0,70.9625,32.37,0.360234,238.65
2021-06-21 12:43:12.132812500,-54.0,9.0,35.0,70.96328125000001,30.005,0.3601539375,238.65
2021-06-21 12:43:12.140625000,-54.0,9.0,35.0,70.9640625,27.64,0.360073875,238.65
2021-06-21 12:43:12.148437500,-54.0,9.0,35.0,70.96484375,25.265,0.3599938125,238.65
2021-06-21 12:43:12.156250000,-54.0,9.0,35.0,70.965625,22.89,0.35991375000000003,238.65
2021-06-21 12:43:12.164062500,-54.0,9.0,35.0,70.96640625,20.43,0.3598336875,238.65
2021-06-21 12:43:12.171875000,-54.0,9.0,35.0,70.96718750000001,17.97,0.359753625,238.65
2021-06-21 12:43:12.179687500,-54.0,9.0,35.0,70.96796875,15.355,0.3596735625,238.65
2021-06-21 12:43:12.187500000,-54.0,9.0,35.0,70.96875,12.74,0.3595935,238.65
2021-06-21 12:43:12.195312500,-54.0,9.0,35.0,70.96953125,9.955,0.35951343750000003,238.65
2021-06-21 12:43:12.203125000,-54.0,9.0,35.0,70.9703125,7.17,0.359433375,238.65
2021-06-21 12:43:12.210937500,-54.0,9.0,35.0,70.97109375000001,4.26,0.3593533125,238.65
2021-06-21 12:43:12.218750000,-54.0,9.0,35.0,70.971875,1.35,0.35927325,238.65
2021-06-21 12:43:12.226562500,-54.0,9.0,35.0,70.97265625,-1.565,0.3591931875,238.65
2021-06-21 12:43:12.234375000,-54.0,9.0,35.0,70.9734375,-4.48,0.35911312500000003,238.65
2021-06-21 12:43:12.242187500,-54.0,9.0,35.0,70.97421875,-7.265000000000001,0.3590330625,238.65
2021-06-21 12:43:12.250000000,-54.0,9.0,35.0,70.975,-10.05,0.358953,238.65
2021-06-21 12:43:12.257812500,-54.0,9.0,35.0,70.97578125,-12.59,0.358953,238.65
2021-06-21 12:43:12.265625000,-54.0,9.0,35.0,70.9765625,-15.13,0.358953,238.65
2021-06-21 12:43:12.273437500,-54.0,9.0,35.0,70.97734375,-17.375,0.358953,238.65
2021-06-21 12:43:12.281250000,-54.0,9.0,35.0,70.978125,-19.62,0.358953,238.65
2021-06-21 12:43:12.289062500,-54.0,9.0,35.0,70.97890625,-21.655,0.358953,238.65
2021-06-21 12:43:12.296875000,-54.0,9.0,35.0,70.9796875,-23.69,0.358953,238.65
2021-06-21 12:43:12.304687500,-54.0,9.0,35.0,70.98046875,-25.770000000000003,0.358953,238.65
2021-06-21 12:43:12.312500000,-54.0,9.0,35.0,70.98125,-27.85,0.358953,238.65
2021-06-21 12:43:12.320312500,-54.0,9.0,35.0,70.98203125,-30.35,0.358953,238.65
2021-06-21 12:43:12.328125000,-54.0,9.0,35.0,70.9828125,-32.85,0.358953,238.65
2021-06-21 12:43:12.335937500,-54.0,9.0,35.0,70.98359375,-36.150000000000006,0.358953,238.65
2021-06-21 12:43:12.343750000,-54.0,9.0,35.0,70.984375,-39.45,0.358953,238.65
2021-06-21 12:43:12.351562500,-54.0,9.0,35.0,70.98515625,-43.745000000000005,0.358953,238.65
2021-06-21 12:43:12.359375000,-54.0,9.0,35.0,70.9859375,-48.04,0.358953,238.65
2021-06-21 12:43:12.367187500,-54.0,9.0,35.0,70.98671875,-53.129999999999995,0.358953,238.65
2021-06-21 12:43:12.375000000,-54.0,9.0,35.0,70.9875,-58.22,0.358953,238.65
2021-06-21 12:43:12.382812500,-54.0,9.0,35.0,70.98828125,-63.455,0.358953,238.65
2021-06-21 12:43:12.390625000,-54.0,9.0,35.0,70.9890625,-68.69,0.358953,238.65
2021-06-21 12:43:12.398437500,-54.0,9.0,35.0,70.98984375,-73.03999999999999,0.358953,238.65
2021-06-21 12:43:12.406250000,-54.0,9.0,35.0,70.990625,-77.39,0.358953,238.65
2021-06-21 12:43:12.414062500,-54.0,9.0,35.0,70.99140625,-79.755,0.358953,238.65
2021-06-21 12:43:12.421875000,-54.0,9.0,35.0,70.9921875,-82.12,0.358953,238.65
2021-06-21 12:43:12.429687500,-54.0,9.0,35.0,70.99296875,-81.66499999999999,0.358953,238.65
2021-06-21 12:43:12.437500000,-54.0,9.0,35.0,70.99375,-81.21,0.358953,238.65
2021-06-21 12:43:12.445312500,-54.0,9.0,35.0,70.99453125,-77.63,0.358953,238.65
2021-06-21 12:43:12.453125000,-54.0,9.0,35.0,70.9953125,-74.05,0.358953,238.65
2021-06-21 12:43:12.460937500,-54.0,9.0,35.0,70.99609375,-67.705,0.358953,238.65
2021-06-21 12:43:12.468750000,-54.0,9.0,35.0,70.996875,-61.36,0.358953,238.65
2021-06-21 12:43:12.476562500,-54.0,9.0,35.0,70.99765625,-53.15,0.358953,238.65
2021-06-21 12:43:12.484375000,-54.0,9.0,35.0,70.9984375,-44.94,0.358953,238.65
2021-06-21 12:43:12.492187500,-54.0,9.0,35.0,70.99921875,-36.03,0.358953,238.65
2021-06-21 12:43:12.500000000,-54.0,9.0,35.0,71.0,-27.12,0.358953,238.65
2021-06-21 12:43:12.507812500,-54.0,9.0,35.0,71.00078125,-18.625,0.35887293750000004,238.65
2021-06-21 12:43:12.515625000,-54.0,9.0,35.0,71.0015625,-10.13,0.358792875,238.65
2021-06-21 12:43:12.523437500,-54.0,9.0,35.0,71.00234375,-2.8450000000000006,0.35871281250000003,238.65
2021-06-21 12:43:12.531250000,-54.0,9.0,35.0,71.003125,4.44,0.35863275,238.65
2021-06-21 12:43:12.539062500,-54.0,9.0,35.0,71.00390625,10.125,0.3585526875,238.65
2021-06-21 12:43:12.546875000,-54.0,9.0,35.0,71.0046875,15.81,0.35847262500000004,238.65
2021-06-21 12:43:12.554687500,-54.0,9.0,35.0,71.00546875,19.88,0.3583925625,238.65
2021-06-21 12:43:12.562500000,-54.0,9.0,35.0,71.00625,23.95,0.35831250000000003,238.65
2021-06-21 12:43:12.570312500,-54.0,9.0,35.0,71.00703125,26.634999999999998,0.3582324375,238.65
2021-06-21 12:43:12.578125000,-54.0,9.0,35.0,71.0078125,29.32,0.358152375,238.65
2021-06-21 12:43:12.585937500,-54.0,9.0,35.0,71.00859375,30.93,0.35807231250000005,238.65
2021-06-21 12:43:12.593750000,-54.0,9.0,35.0,71.009375,32.54,0.35799225,238.65
2021-06-21 12:43:12.601562500,-54.0,9.0,35.0,71.01015625,33.345,0.35791218750000003,238.65
2021-06-21 12:43:12.609375000,-54.0,9.0,35.0,71.0109375,34.15,0.357832125,238.65
2021-06-21 12:43:12.617187500,-54.0,9.0,35.0,71.01171875,34.335,0.3577520625,238.65
2021-06-21 12:43:12.625000000,-54.0,9.0,35.0,71.0125,34.52,0.357672,238.65
2021-06-21 12:43:12.632812500,-54.0,9.0,35.25,71.01328125,34.21,0.3575919375,238.65
2021-06-21 12:43:12.640625000,-54.0,9.0,35.5,71.0140625,33.9,0.35751187500000003,238.65
2021-06-21 12:43:12.648437500,-54.0,9.0,35.75,71.01484375,33.2,0.3574318125,238.65
2021-06-21 12:43:12.656250000,-54.0,9.0,36.0,71.015625,32.5,0.35735175,238.65
2021-06-21 12:43:12.664062500,-54.0,9.0,35.75,71.01640625,31.575,0.3572716875,238.65
2021-06-21 12:43:12.671875000,-54.0,9.0,35.5,71.0171875,30.65,0.357191625,238.65
2021-06-21 12:43:12.679687500,-54.0,9.0,35.25,71.01796875,29.71,0.35711156250000003,238.65
2021-06-21 12:43:12.687500000,-54.0,9.0,35.0,71.01875,28.77,0.3570315,238.65
2021-06-21 12:43:12.695312500,-54.0,9.0,35.0,71.01953125,28.0,0.3569514375,238.65
2021-06-21 12:43:12.703125000,-54.0,9.0,35.0,71.0203125,27.23,0.356871375,238.65
2021-06-21 12:43:12.710937500,-54.0,9.0,35.0,71.02109375,26.72,0.3567913125,238.65
2021-06-21 12:43:12.718750000,-54.0,9.0,35.0,71.021875,26.21,0.35671125000000004,238.65
2021-06-21 12:43:12.726562500,-54.0,9.0,35.0,71.02265625,25.925,0.3566311875,238.65
2021-06-21 12:43:12.734375000,-54.0,9.0,35.0,71.0234375,25.64,0.356551125,238.65
2021-06-21 12:43:12.742187500,-54.0,9.0,35.0,71.02421875,25.450000000000003,0.3564710625,238.65
2021-06-21 12:43:12.750000000,-54.0,9.0,35.0,71.025,25.26,0.356391,238.65
2021-06-21 12:43:12.757812500,-54.0,9.0,35.0,71.02578125,25.01,0.3564710625,238.65
2021-06-21 12:43:12.765625000,-54.0,9.0,35.0,71.0265625,24.76,0.356551125,238.65
2021-06-21 12:43:12.773437500,-54.0,9.0,35.0,71.02734375,24.395000000000003,0.3566311875,238.65
2021-06-21 12:43:12.781250000,-54.0,9.0,35.0,71.028125,24.03,0.35671125000000004,238.65
2021-06-21 12:43:12.789062500,-54.0,9.0,35.0,71.02890624999999,23.62,0.3567913125,238.65
2021-06-21 12:43:12.796875000,-54.0,9.0,35.0,71.0296875,23.21,0.356871375,238.65
2021-06-21 12:43:12.804687500,-54.0,9.0,35.0,71.03046875,22.9,0.3569514375,238.65
2021-06-21 12:43:12.812500000,-54.0,9.0,35.0,71.03125,22.59,0.3570315,238.65
2021-06-21 12:43:12.820312500,-54.0,9.0,35.0,71.03203125,22.490000000000002,0.35711156250000003,238.65
2021-06-21 12:43:12.828125000,-54.0,9.0,35.0,71.03281249999999,22.39,0.357191625,238.65
2021-06-21 12:43:12.835937500,-54.0,9.0,35.0,71.03359375,22.475,0.3572716875,238.65
2021-06-21 12:43:12.843750000,-54.0,9.0,35.0,71.034375,22.56,0.35735175,238.65
2021-06-21 12:43:12.851562500,-54.0,9.0,35.0,71.03515625,22.655,0.3574318125,238.65
2021-06-21 12:43:12.859375000,-54.0,9.0,35.0,71.0359375,22.75,0.35751187500000003,238.65
2021-06-21 12:43:12.867187500,-54.0,9.0,35.0,71.03671874999999,22.560000000000002,0.3575919375,238.65
2021-06-21 12:43:12.875000000,-54.0,9.0,35.0,71.0375,22.37,0.357672,238.65
2021-06-21 12:43:12.882812500,-54.0,9.0,35.0,71.03828125,21.615000000000002,0.3577520625,238.65
2021-06-21 12:43:12.890625000,-54.0,9.0,35.0,71.0390625,20.86,0.357832125,238.65
2021-06-21 12:43:12.898437500,-54.0,9.0,35.0,71.03984375,19.405,0.35791218750000003,238.65
2021-06-21 12:43:12.906250000,-54.0,9.0,35.0,71.04062499999999,17.95,0.35799225,238.65
2021-06-21 12:43:12.914062500,-54.0,9.0,35.25,71.04140625,15.844999999999999,0.35807231250000005,238.65
2021-06-21 12:43:12.921875000,-54.0,9.0,35.5,71.0421875,13.74,0.358152375,238.65
2021-06-21 12:43:12.929687500,-54.0,9.0,35.75,71.04296875,11.195,0.3582324375,238.65
2021-06-21 12:43:12.937500000,-54.0,9.0,36.0,71.04375,8.65,0.35831250000000003,238.65
2021-06-21 12:43:12.945312500,-54.0,9.0,35.75,71.04453124999999,5.945,0.3583925625,238.65
2021-06-21 12:43:12.953125000,-54.0,9.0,35.5,71.0453125,3.24,0.35847262500000004,238.65
2021-06-21 12:43:12.960937500,-54.0,9.0,35.25,71.04609375,0.6299999999999999,0.3585526875,238.65
2021-06-21 12:43:12.968750000,-54.0,9.0,35.0,71.046875,-1.98,0.35863275,238.65
2021-06-21 12:43:12.976562500,-54.0,9.0,35.25,71.04765625,-4.335000000000001,0.35871281250000003,238.65
2021-06-21 12:43:12.984375000,-54.0,9.0,35.5,71.04843749999999,-6.69,0.358792875,238.65
2021-06-21 12:43:12.992187500,-54.0,9.0,35.75,71.04921875,-8.745000000000001,0.35887293750000004,238.65
2021-06-21 12:43:13.000000000,-54.0,9.0,36.0,71.05,-10.8,0.358953,238.65
2021-06-21 12:43:13.007812500,-54.0,9.0,35.75,71.05171874999999,-12.64,0.35899303125000004,238.65
2021-06-21 12:43:13.015625000,-54.0,9.0,35.5,71.0534375,-14.48,0.3590330625,238.65
2021-06-21 12:43:13.023437500,-54.0,9.0,35.25,71.05515625,-16.265,0.35907309375,238.65
2021-06-21 12:43:13.031250000,-54.0,9.0,35.0,71.05687499999999,-18.05,0.35911312500000003,238.65
2021-06-21 12:43:13.039062500,-54.0,9.0,35.0,71.05859375,-20.035,0.35915315625,238.65
2021-06-21 12:43:13.046875000,-54.0,9.0,35.0,71.0603125,-22.02,0.3591931875,238.65
2021-06-21 12:43:13.054687500,-54.0,9.0,35.0,71.06203125,-24.445,0.35923321875,238.65
2021-06-21 12:43:13.062500000,-54.0,9.0,35.0,71.06375,-26.87,0.35927325,238.65
2021-06-21 12:43:13.070312500,-54.0,9.0,35.0,71.06546875,-29.955,0.35931328125,238.65
2021-06-21 12:43:13.078125000,-54.0,9.0,35.0,71.0671875,-33.04,0.3593533125,238.65
2021-06-21 12:43:13.085937500,-54.0,9.0,35.0,71.06890625,-36.81,0.35939334375000004,238.65
2021-06-21 12:43:13.093750000,-54.0,9.0,35.0,71.07062499999999,-40.58,0.359433375,238.65
2021-06-21 12:43:13.101562500,-54.0,9.0,35.0,71.07234375,-44.79,0.35947340625,238.65
2021-06-21 12:43:13.109375000,-54.0,9.0,35.0,71.0740625,-49.0,0.35951343750000003,238.65
2021-06-21 12:43:13.117187500,-54.0,9.0,35.0,71.07578124999999,-53.09,0.35955346875,238.65
2021-06-21 12:43:13.125000000,-54.0,9.0,35.0,71.0775,-57.18,0.3595935,238.65
2021-06-21 12:43:13.132812500,-54.0,9.0,35.0,71.07921875,-60.355000000000004,0.35963353125,238.65
2021-06-21 12:43:13.140625000,-54.0,9.0,35.0,71.08093749999999,-63.53,0.3596735625,238.65
2021-06-21 12:43:13.148437500,-54.0,9.0,35.0,71.08265625,-64.95,0.35971359375,238.65
2021-06-21 12:43:13.156250000,-54.0,9.0,35.0,71.084375,-66.37,0.359753625,238.65
2021-06-21 12:43:13.164062500,-54.0,9.0,35.0,71.08609375,-65.39500000000001,0.35979365625,238.65
2021-06-21 12:43:13.171875000,-54.0,9.0,35.0,71.0878125,-64.42,0.3598336875,238.65
2021-06-21 12:43:13.179687500,-54.0,9.0,35.0,71.08953125,-60.845,0.35987371875,238.65
2021-06-21 12:43:13.187500000,-54.0,9.0,35.0,71.09125,-57.27,0.35991375000000003,238.65
2021-06-21 12:43:13.195312500,-54.0,9.0,35.0,71.09296875,-51.42,0.35995378125,238.65
2021-06-21 12:43:13.203125000,-54.0,9.0,35.0,71.09468749999999,-45.57,0.3599938125,238.65
2021-06-21 12:43:13.210937500,-54.0,9.0,35.0,71.09640625,-38.205,0.36003384375,238.65
2021-06-21 12:43:13.218750000,-54.0,9.0,35.0,71.098125,-30.84,0.360073875,238.65
2021-06-21 12:43:13.226562500,-54.0,9.0,35.0,71.09984374999999,-22.939999999999998,0.36011390625,238.65
2021-06-21 12:43:13.234375000,-54.0,9.0,35.0,71.1015625,-15.04,0.3601539375,238.65
2021-06-21 12:43:13.242187500,-54.0,9.0,35.0,71.10328125,-7.55,0.36019396875,238.65
2021-06-21 12:43:13.250000000,-54.0,9.0,35.0,71.10499999999999,-0.06,0.360234,238.65
2021-06-21 12:43:13.257812500,-54.0,9.0,35.0,71.10671875,6.3500000000000005,0.360073875,238.65
2021-06-21 12:43:13.265625000,-54.0,9.0,35.0,71.1084375,12.76,0.35991375,238.65
2021-06-21 12:43:13.273437500,-54.0,9.0,35.0,71.11015625,17.775,0.359753625,238.65
2021-06-21 12:43:13.281250000,-54.0,9.0,35.0,71.111875,22.79,0.3595935,238.65
2021-06-21 12:43:13.289062500,-54.0,9.0,35.0,71.11359374999999,26.435,0.359433375,238.65
2021-06-21 12:43:13.296875000,-54.0,9.0,35.0,71.1153125,30.08,0.35927325,238.65
2021-06-21 12:43:13.304687500,-54.0,9.0,35.0,71.11703125,32.595,0.359113125,238.65
2021-06-21 12:43:13.312500000,-54.0,9.0,35.0,71.11874999999999,35.11,0.35895299999999997,238.65
2021-06-21 12:43:13.320312500,-54.0,9.0,35.0,71.12046875,36.785,0.358792875,238.65
2021-06-21 12:43:13.328125000,-54.0,9.0,35.0,71.1221875,38.46,0.35863275,238.65
2021-06-21 12:43:13.335937500,-54.0,9.0,35.0,71.12390624999999,39.535,0.358472625,238.65
2021-06-21 12:43:13.343750000,-54.0,9.0,35.0,71.125625,40.61,0.3583125,238.65
2021-06-21 12:43:13.351562500,-54.0,9.0,35.0,71.12734375,41.225,0.35815237499999997,238.65
2021-06-21 12:43:13.359375000,-54.0,9.0,35.0,71.1290625,41.84,0.35799225,238.65
2021-06-21 12:43:13.367187500,-54.0,9.0,35.0,71.13078125,42.05,0.357832125,238.65
2021-06-21 12:43:13.375000000,-54.0,9.0,35.0,71.1325,42.26,0.357672,238.65
2021-06-21 12:43:13.382812500,-53.75,9.0,35.0,71.13421875,42.099999999999994,0.357511875,238.65
2021-06-21 12:43:13.390625000,-53.5,9.0,35.0,71.1359375,41.94,0.35735174999999997,238.65
2021-06-21 12:43:13.398437500,-53.25,9.0,35.0,71.13765624999999,41.495,0.357191625,238.65
2021-06-21 12:43:13.406250000,-53.0,9.0,35.0,71.139375,41.05,0.3570315,238.65
2021-06-21 12:43:13.414062500,-53.0,9.0,35.0,71.14109375,40.44,0.356871375,238.65
2021-06-21 12:43:13.421875000,-53.0,9.0,35.0,71.14281249999999,39.83,0.35671125,238.65
2021-06-21 12:43:13.429687500,-53.0,9.0,35.0,71.14453125,39.215,0.35655112499999997,238.65
2021-06-21 12:43:13.437500000,-53.0,9.0,35.0,71.14625,38.6,0.356391,238.65
2021-06-21 12:43:13.445312500,-53.25,9.0,35.0,71.14796874999999,38.105000000000004,0.356230875,238.65
2021-06-21 12:43:13.453125000,-53.5,9.0,35.0,71.1496875,37.61,0.35607075,238.65
2021-06-21 12:43:13.460937500,-53.75,9.0,35.0,71.15140625,37.295,0.355910625,238.65
2021-06-21 12:43:13.468750000,-54.0,9.0,35.0,71.153125,36.98,0.35575049999999997,238.65
2021-06-21 12:43:13.476562500,-54.0,9.0,35.0,71.15484375,36.81,0.35559037499999996,238.65
2021-06-21 12:43:13.484375000,-54.0,9.0,35.0,71.15656249999999,36.64,0.35543025,238.65
2021-06-21 12:43:13.492187500,-54.0,9.0,35.0,71.15828125,36.555,0.355270125,238.65
2021-06-21 12:43:13.500000000,-54.0,9.0,35.0,71.16,36.47,0.35511,238.65
2021-06-21 12:43:13.507812500,-54.0,9.0,35.0,71.16171874999999,36.379999999999995,0.35523009375,238.65
2021-06-21 12:43:13.515625000,-54.0,9.0,35.0,71.1634375,36.29,0.35535018749999997,238.65
2021-06-21 12:43:13.523437500,-54.0,9.0,35.0,71.16515625,36.129999999999995,0.35547028124999996,238.65
2021-06-21 12:43:13.531250000,-54.0,9.0,35.0,71.16687499999999,35.97,0.355590375,238.65
2021-06-21 12:43:13.539062500,-54.0,9.0,35.0,71.16859375,35.675,0.35571046875,238.65
2021-06-21 12:43:13.546875000,-54.0,9.0,35.0,71.1703125,35.38,0.3558305625,238.65
2021-06-21 12:43:13.554687500,-54.0,9.0,35.0,71.17203125,34.900000000000006,0.35595065625,238.65
2021-06-21 12:43:13.562500000,-54.0,9.0,35.0,71.17375,34.42,0.35607075,238.65
2021-06-21 12:43:13.570312500,-54.0,9.0,35.0,71.17546875,33.675,0.35619084375,238.65
2021-06-21 12:43:13.578125000,-54.0,9.0,35.0,71.1771875,32.93,0.3563109375,238.65
2021-06-21 12:43:13.585937500,-54.0,9.0,35.0,71.17890625,31.85,0.35643103125,238.65
2021-06-21 12:43:13.593750000,-54.0,9.0,35.0,71.18062499999999,30.77,0.35655112499999997,238.65
2021-06-21 12:43:13.601562500,-54.0,9.0,35.0,71.18234375,29.299999999999997,0.35667121875,238.65
2021-06-21 12:43:13.609375000,-54.0,9.0,35.0,71.1840625,27.83,0.3567913125,238.65
2021-06-21 12:43:13.617187500,-54.0,9.0,35.0,71.18578124999999,25.935,0.35691140625,238.65
2021-06-21 12:43:13.625000000,-54.0,9.0,35.0,71.1875,24.04,0.3570315,238.65
2021-06-21 12:43:13.632812500,-54.0,9.0,35.0,71.18921875,21.7,0.35715159375,238.65
2021-06-21 12:43:13.640625000,-54.0,9.0,35.0,71.19093749999999,19.36,0.3572716875,238.65
2021-06-21 12:43:13.648437500,-54.0,9.0,35.0,71.19265625,16.57,0.35739178125,238.65
2021-06-21 12:43:13.656250000,-54.0,9.0,35.0,71.194375,13.78,0.35751187500000003,238.65
2021-06-21 12:43:13.664062500,-54.0,9.0,35.0,71.19609375,10.559999999999999,0.35763196875000003,238.65
2021-06-21 12:43:13.671875000,-54.0,9.0,35.0,71.1978125,7.34,0.3577520625,238.65
2021-06-21 12:43:13.679687500,-54.0,9.0,35.0,71.19953124999999,3.79,0.35787215625,238.65
2021-06-21 12:43:13.687500000,-54.0,9.0,35.0,71.20125,0.24,0.35799225,238.65
2021-06-21 12:43:13.695312500,-54.0,9.0,35.0,71.20296875,-3.465,0.35811234375,238.65
2021-06-21 12:43:13.703125000,-54.0,9.0,35.0,71.20468749999999,-7.17,0.3582324375,238.65
2021-06-21 12:43:13.710937500,-54.0,9.0,35.0,71.20640625,-10.76,0.35835253125,238.65
2021-06-21 12:43:13.718750000,-54.0,9.0,35.0,71.208125,-14.35,0.358472625,238.65
2021-06-21 12:43:13.726562500,-54.0,9.25,35.0,71.20984374999999,-17.605,0.35859271875000004,238.65
2021-06-21 12:43:13.734375000,-54.0,9.5,35.0,71.2115625,-20.86,0.35871281250000003,238.65
2021-06-21 12:43:13.742187500,-54.0,9.75,35.0,71.21328125,-23.65,0.35883290625,238.65
2021-06-21 12:43:13.750000000,-54.0,10.0,35.0,71.215,-26.44,0.358953,238.65
2021-06-21 12:43:13.757812500,-54.0,9.75,35.0,71.21671875,-28.810000000000002,0.35883290625,238.65
2021-06-21 12:43:13.765625000,-54.0,9.5,35.0,71.2184375,-31.18,0.35871281250000003,238.65
2021-06-21 12:43:13.773437500,-54.0,9.25,35.0,71.22015625,-33.370000000000005,0.35859271875000004,238.65
2021-06-21 12:43:13.781250000,-54.0,9.0,35.0,71.221875,-35.56,0.358472625,238.65
2021-06-21 12:43:13.789062500,-54.0,9.0,35.0,71.22359374999999,-37.925,0.35835253125,238.65
2021-06-21 12:43:13.796875000,-54.0,9.0,35.0,71.2253125,-40.29,0.3582324375,238.65
2021-06-21 12:43:13.804687500,-54.0,9.0,35.0,71.22703125,-43.21,0.35811234375,238.65
2021-06-21 12:43:13.812500000,-54.0,9.0,35.0,71.22874999999999,-46.13,0.35799225,238.65
2021-06-21 12:43:13.820312500,-54.0,9.0,35.0,71.23046875,-49.85,0.35787215625,238.65
2021-06-21 12:43:13.828125000,-54.0,9.0,35.0,71.2321875,-53.57,0.3577520625,238.65
2021-06-21 12:43:13.835937500,-54.0,9.0,35.0,71.23390624999999,-58.07,0.35763196875000003,238.65
2021-06-21 12:43:13.843750000,-54.0,9.0,35.0,71.235625,-62.57,0.35751187500000003,238.65
2021-06-21 12:43:13.851562500,-54.0,9.0,35.0,71.23734375,-67.475,0.35739178125,238.65
2021-06-21 12:43:13.859375000,-54.0,9.0,35.0,71.2390625,-72.38,0.3572716875,238.65
2021-06-21 12:43:13.867187500,-54.0,9.0,35.0,71.24078125,-76.955,0.35715159375,238.65
2021-06-21 12:43:13.875000000,-54.0,9.0,35.0,71.24249999999999,-81.53,0.3570315,238.65
2021-06-21 12:43:13.882812500,-54.0,9.0,35.0,71.24421875,-84.82,0.35691140625,238.65
2021-06-21 12:43:13.890625000,-54.0,9.0,35.0,71.2459375,-88.11,0.3567913125,238.65
2021-06-21 12:43:13.898437500,-54.0,9.0,35.0,71.24765624999999,-89.16,0.35667121875,238.65
2021-06-21 12:43:13.906250000,-54.0,9.0,35.0,71.249375,-90.21,0.35655112499999997,238.65
2021-06-21 12:43:13.914062500,-54.0,9.0,35.0,71.25109375,-88.37,0.35643103125,238.65
2021-06-21 12:43:13.921875000,-54.0,9.0,35.0,71.25281249999999,-86.53,0.3563109375,238.65
2021-06-21 12:43:13.929687500,-54.0,9.0,35.0,71.25453125,-81.64,0.35619084375,238.65
2021-06-21 12:43:13.937500000,-54.0,9.0,35.0,71.25625,-76.75,0.35607075,238.65
2021-06-21 12:43:13.945312500,-54.0,9.0,35.0,71.25796874999999,-69.235,0.35595065625,238.65
2021-06-21 12:43:13.953125000,-54.0,9.0,35.0,71.2596875,-61.72,0.3558305625,238.65
2021-06-21 12:43:13.960937500,-54.0,9.0,35.0,71.26140625,-52.465,0.35571046875,238.65
2021-06-21 12:43:13.968750000,-54.0,9.0,35.0,71.263125,-43.21,0.355590375,238.65
2021-06-21 12:43:13.976562500,-54.0,9.0,35.0,71.26484375,-33.335,0.35547028124999996,238.65
2021-06-21 12:43:13.984375000,-54.0,9.0,35.0,71.26656249999999,-23.46,0.35535018749999997,238.65
2021-06-21 12:43:13.992187500,-54.0,9.0,35.0,71.26828125,-14.05,0.35523009375,238.65
2021-06-21 12:43:14.000000000,-54.0,9.0,35.0,71.27,-4.64,0.35511,238.65
2021-06-21 12:43:14.007812500,-54.0,9.0,35.0,71.2715625,3.4899999999999993,0.35523009375,238.65
2021-06-21 12:43:14.015625000,-54.0,9.0,35.0,71.273125,11.62,0.35535018749999997,238.65
2021-06-21 12:43:14.023437500,-54.0,9.0,35.0,71.2746875,17.99,0.35547028124999996,238.65
2021-06-21 12:43:14.031250000,-54.0,9.0,35.0,71.27624999999999,24.36,0.355590375,238.65
2021-06-21 12:43:14.039062500,-54.0,9.25,35.0,71.2778125,28.89,0.35571046875,238.65
2021-06-21 12:43:14.046875000,-54.0,9.5,35.0,71.279375,33.42,0.3558305625,238.65
2021-06-21 12:43:14.054687500,-54.0,9.75,35.0,71.2809375,36.345,0.35595065625,238.65
2021-06-21 12:43:14.062500000,-54.0,10.0,35.0,71.2825,39.27,0.35607075,238.65
2021-06-21 12:43:14.070312500,-54.0,9.75,35.0,71.28406249999999,41.040000000000006,0.35619084375,238.65
2021-06-21 12:43:14.078125000,-54.0,9.5,35.0,71.285625,42.81,0.3563109375,238.65
2021-06-21 12:43:14.085937500,-54.0,9.25,35.0,71.2871875,43.915000000000006,0.35643103125,238.65
2021-06-21 12:43:14.093750000,-54.0,9.0,35.0,71.28875,45.02,0.35655112499999997,238.65
2021-06-21 12:43:14.101562500,-54.0,9.0,35.0,71.2903125,45.855000000000004,0.35667121875,238.65
2021-06-21 12:43:14.109375000,-54.0,9.0,35.0,71.29187499999999,46.69,0.3567913125,238.65
2021-06-21 12:43:14.117187500,-54.0,9.0,35.0,71.2934375,47.459999999999994,0.35691140625,238.65
2021-06-21 12:43:14.125000000,-54.0,9.0,35.0,71.295,48.23,0.3570315,238.65
2021-06-21 12:43:14.132812500,-54.0,9.0,35.0,71.2965625,48.935,0.35715159375,238.65
2021-06-21 12:43:14.140625000,-54.0,9.0,35.0,71.298125,49.64,0.3572716875,238.65
2021-06-21 12:43:14.148437500,-54.0,9.0,35.0,71.29968749999999,50.135000000000005,0.35739178125,238.65
2021-06-21 12:43:14.156250000,-54.0,9.0,35.0,71.30125,50.63,0.35751187500000003,238.65
2021-06-21 12:43:14.164062500,-54.0,9.0,35.0,71.3028125,50.78,0.35763196875000003,238.65
2021-06-21 12:43:14.171875000,-54.0,9.0,35.0,71.304375,50.93,0.3577520625,238.65
2021-06-21 12:43:14.179687500,-54.0,9.0,35.0,71.3059375,50.675,0.35787215625,238.65
2021-06-21 12:43:14.187500000,-54.0,9.0,35.0,71.30749999999999,50.42,0.35799225,238.65
2021-06-21 12:43:14.195312500,-54.0,9.0,35.0,71.3090625,49.83,0.35811234375,238.65
2021-06-21 12:43:14.203125000,-54.0,9.0,35.0,71.310625,49.24,0.3582324375,238.65
2021-06-21 12:43:14.210937500,-54.0,9.0,35.0,71.3121875,48.485,0.35835253125,238.65
2021-06-21 12:43:14.218750000,-54.0,9.0,35.0,71.31375,47.73,0.358472625,238.65
2021-06-21 12:43:14.226562500,-54.0,9.0,35.0,71.31531249999999,47.004999999999995,0.35859271875000004,238.65
2021-06-21 12:43:14.234375000,-54.0,9.0,35.0,71.316875,46.28,0.35871281250000003,238.65
2021-06-21 12:43:14.242187500,-54.0,9.0,35.0,71.3184375,45.71,0.35883290625,238.65
2021-06-21 12:43:14.250000000,-54.0,9.0,35.0,71.32,45.14,0.358953,238.65
2021-06-21 12:43:14.257812500,-54.0,9.0,35.0,71.3215625,44.760000000000005,0.35887293750000004,238.65
2021-06-21 12:43:14.265625000,-54.0,9.0,35.0,71.32312499999999,44.38,0.358792875,238.65
2021-06-21 12:43:14.273437500,-54.0,9.0,35.0,71.3246875,44.135000000000005,0.35871281250000003,238.65
2021-06-21 12:43:14.281250000,-54.0,9.0,35.0,71.32625,43.89,0.35863275,238.65
2021-06-21 12:43:14.289062500,-54.0,9.0,35.0,71.3278125,43.65,0.3585526875,238.65
2021-06-21 12:43:14.296875000,-54.0,9.0,35.0,71.329375,43.41,0.35847262500000004,238.65
2021-06-21 12:43:14.304687500,-54.0,9.0,35.0,71.33093749999999,43.035,0.3583925625,238.65
2021-06-21 12:43:14.312500000,-54.0,9.0,35.0,71.3325,42.66,0.35831250000000003,238.65
2021-06-21 12:43:14.320312500,-54.0,9.0,35.0,71.3340625,42.01,0.3582324375,238.65
2021-06-21 12:43:14.328125000,-54.0,9.0,35.0,71.335625,41.36,0.358152375,238.65
2021-06-21 12:43:14.335937500,-54.0,9.0,35.0,71.3371875,40.335,0.35807231250000005,238.65
2021-06-21 12:43:14.343750000,-54.0,9.0,35.0,71.33874999999999,39.31,0.35799225,238.65
2021-06-21 12:43:14.351562500,-54.0,9.0,35.0,71.3403125,37.865,0.35791218750000003,238.65
2021-06-21 12:43:14.359375000,-54.0,9.0,35.0,71.341875,36.42,0.357832125,238.65
2021-06-21 12:43:14.367187500,-54.0,9.0,35.0,71.3434375,34.56,0.3577520625,238.65
2021-06-21 12:43:14.375000000,-54.0,9.0,35.0,71.345,32.7,0.357672,238.65
2021-06-21 12:43:14.382812500,-54.0,9.0,35.0,71.34656249999999,30.520000000000003,0.3575919375,238.65
2021-06-21 12:43:14.390625000,-54.0,9.0,35.0,71.348125,28.34,0.35751187500000003,238.65
2021-06-21 12:43:14.398437500,-54.0,9.0,35.0,71.3496875,25.945,0.3574318125,238.65
2021-06-21 12:43:14.406250000,-54.0,9.0,35.0,71.35125,23.55,0.35735175,238.65
2021-06-21 12:43:14.414062500,-54.0,9.0,35.0,71.3528125,21.025,0.3572716875,238.65
2021-06-21 12:43:14.421875000,-54.0,9.0,35.0,71.35437499999999,18.5,0.357191625,238.65
2021-06-21 12:43:14.429687500,-54.0,9.0,35.0,71.3559375,15.895,0.35711156250000003,238.65
2021-06-21 12:43:14.437500000,-54.0,9.0,35.0,71.3575,13.29,0.3570315,238.65
2021-06-21 12:43:14.445312500,-54.0,9.0,35.0,71.3590625,10.584999999999999,0.3569514375,238.65
2021-06-21 12:43:14.453125000,-54.0,9.0,35.0,71.360625,7.88,0.356871375,238.65
2021-06-21 12:43:14.460937500,-54.0,9.0,35.0,71.36218749999999,5.035,0.3567913125,238.65
2021-06-21 12:43:14.468750000,-54.0,9.0,35.0,71.36375,2.19,0.35671125000000004,238.65
2021-06-21 12:43:14.476562500,-54.0,9.0,35.0,71.3653125,-0.8249999999999997,0.3566311875,238.65
2021-06-21 12:43:14.484375000,-54.0,9.0,35.0,71.366875,-3.84,0.356551125,238.65
2021-06-21 12:43:14.492187500,-54.0,9.0,35.0,71.3684375,-6.975,0.3564710625,238.65
2021-06-21 12:43:14.500000000,-54.0,9.0,35.0,71.37,-10.11,0.356391,238.65
2021-06-21 12:43:14.507812500,-54.0,9.0,35.0,71.3715625,-13.235,0.356551125,238.65
2021-06-21 12:43:14.515625000,-54.0,9.0,35.0,71.373125,-16.36,0.35671125000000004,238.65
2021-06-21 12:43:14.523437500,-54.0,9.0,35.0,71.3746875,-19.32,0.356871375,238.65
2021-06-21 12:43:14.531250000,-54.0,9.0,35.0,71.37625,-22.28,0.3570315,238.65
2021-06-21 12:43:14.539062500,-54.0,9.0,35.0,71.3778125,-24.950000000000003,0.357191625,238.65
2021-06-21 12:43:14.546875000,-54.0,9.0,35.0,71.379375,-27.62,0.35735175,238.65
2021-06-21 12:43:14.554687500,-54.0,9.0,35.0,71.3809375,-30.0,0.357511875,238.65
2021-06-21 12:43:14.562500000,-54.0,9.0,35.0,71.3825,-32.38,0.357672,238.65
2021-06-21 12:43:14.570312500,-54.0,9.0,35.0,71.3840625,-34.61,0.357832125,238.65
2021-06-21 12:43:14.578125000,-54.0,9.0,35.0,71.385625,-36.84,0.35799225,238.65
2021-06-21 12:43:14.585937500,-54.0,9.0,35.0,71.3871875,-39.21,0.358152375,238.65
2021-06-21 12:43:14.593750000,-54.0,9.0,35.0,71.38875,-41.58,0.3583125,238.65
2021-06-21 12:43:14.601562500,-54.0,9.25,35.0,71.3903125,-44.445,0.358472625,238.65
2021-06-21 12:43:14.609375000,-54.0,9.5,35.0,71.391875,-47.31,0.35863275,238.65
2021-06-21 12:43:14.617187500,-54.0,9.75,35.0,71.3934375,-50.925,0.358792875,238.65
2021-06-21 12:43:14.625000000,-54.0,10.0,35.0,71.395,-54.54,0.35895299999999997,238.65
2021-06-21 12:43:14.632812500,-54.0,9.75,35.0,71.3965625,-58.9,0.359113125,238.65
2021-06-21 12:43:14.640625000,-54.0,9.5,35.0,71.398125,-63.26,0.35927325,238.65
2021-06-21 12:43:14.648437500,-54.0,9.25,35.0,71.3996875,-67.985,0.359433375,238.65
2021-06-21 12:43:14.656250000,-54.0,9.0,35.0,71.40125,-72.71,0.3595935,238.65
2021-06-21 12:43:14.664062500,-54.0,9.0,35.0,71.4028125,-77.02,0.35975362499999997,238.65
2021-06-21 12:43:14.671875000,-54.0,9.0,35.0,71.404375,-81.33,0.35991375,238.65
2021-06-21 12:43:14.679687500,-54.0,9.0,35.0,71.4059375,-84.22999999999999,0.360073875,238.65
2021-06-21 12:43:14.687500000,-54.0,9.0,35.0,71.4075,-87.13,0.360234,238.65
2021-06-21 12:43:14.695312500,-54.0,9.0,35.0,71.4090625,-87.655,0.360394125,238.65
2021-06-21 12:43:14.703125000,-54.0,9.0,35.0,71.410625,-88.18,0.36055424999999997,238.65
2021-06-21 12:43:14.710937500,-54.0,9.0,35.0,71.4121875,-85.755,0.360714375,238.65
2021-06-21 12:43:14.718750000,-54.0,9.0,35.0,71.41375,-83.33,0.3608745,238.65
2021-06-21 12:43:14.726562500,-54.0,9.0,35.0,71.4153125,-77.955,0.361034625,238.65
2021-06-21 12:43:14.734375000,-54.0,9.0,35.0,71.416875,-72.58,0.36119474999999995,238.65
2021-06-21 12:43:14.742187500,-54.0,9.0,35.0,71.4184375,-64.865,0.36135487499999996,238.65
2021-06-21 12:43:14.750000000,-54.0,9.0,35.0,71.42,-57.15,0.361515,238.65
2021-06-21 12:43:14.757812500,-54.0,9.0,35.0,71.4215625,-48.114999999999995,0.36139490625,238.65
2021-06-21 12:43:14.765625000,-54.0,9.0,35.0,71.423125,-39.08,0.3612748125,238.65
2021-06-21 12:43:14.773437500,-54.0,9.0,35.0,71.4246875,-29.884999999999998,0.36115471875,238.65
2021-06-21 12:43:14.781250000,-54.0,9.0,35.0,71.42625,-20.69,0.361034625,238.65
2021-06-21 12:43:14.789062500,-54.0,9.25,35.0,71.4278125,-12.305,0.36091453125,238.65
2021-06-21 12:43:14.796875000,-54.0,9.5,35.0,71.429375,-3.92,0.36079443749999995,238.65
2021-06-21 12:43:14.804687500,-54.0,9.75,35.0,71.4309375,3.0549999999999997,0.36067434374999996,238.65
2021-06-21 12:43:14.812500000,-54.0,10.0,35.0,71.4325,10.03,0.36055424999999997,238.65
2021-06-21 12:43:14.820312500,-54.0,10.0,35.0,71.4340625,15.399999999999999,0.36043415624999997,238.65
2021-06-21 12:43:14.828125000,-54.0,10.0,35.0,71.435625,20.77,0.3603140625,238.65
2021-06-21 12:43:14.835937500,-54.0,10.0,35.0,71.4371875,24.68,0.36019396875,238.65
2021-06-21 12:43:14.843750000,-54.0,10.0,35.0,71.43875,28.59,0.360073875,238.65
2021-06-21 12:43:14.851562500,-54.0,10.0,35.0,71.4403125,31.380000000000003,0.35995378125,238.65
2021-06-21 12:43:14.859375000,-54.0,10.0,35.0,71.441875,34.17,0.3598336875,238.65
2021-06-21 12:43:14.867187500,-54.0,10.0,35.0,71.4434375,36.22,0.35971359375,238.65
2021-06-21 12:43:14.875000000,-54.0,10.0,35.0,71.445,38.27,0.3595935,238.65
2021-06-21 12:43:14.882812500,-54.0,10.0,35.0,71.4465625,39.88,0.35947340624999996,238.65
2021-06-21 12:43:14.890625000,-54.0,10.0,35.0,71.448125,41.49,0.35935331249999997,238.65
2021-06-21 12:43:14.898437500,-54.0,10.0,35.0,71.4496875,42.825,0.35923321874999997,238.65
2021-06-21 12:43:14.906250000,-54.0,10.0,35.0,71.45125,44.16,0.359113125,238.65
2021-06-21 12:43:14.914062500,-54.0,10.0,35.0,71.4528125,45.265,0.35899303125,238.65
2021-06-21 12:43:14.921875000,-54.0,10.0,35.0,71.454375,46.37,0.3588729375,238.65
2021-06-21 12:43:14.929687500,-54.0,10.0,35.0,71.4559375,47.230000000000004,0.35875284375,238.65
2021-06-21 12:43:14.937500000,-54.0,10.0,35.0,71.4575,48.09,0.35863275,238.65
2021-06-21 12:43:14.945312500,-54.0,9.75,35.0,71.4590625,48.685,0.35851265625,238.65
2021-06-21 12:43:14.953125000,-54.0,9.5,35.0,71.460625,49.28,0.3583925625,238.65
2021-06-21 12:43:14.960937500,-54.0,9.25,35.0,71.4621875,49.615,0.35827246874999996,238.65
2021-06-21 12:43:14.968750000,-54.0,9.0,35.0,71.46375,49.95,0.35815237499999997,238.65
2021-06-21 12:43:14.976562500,-54.0,9.25,35.0,71.4653125,50.075,0.35803228125,238.65
2021-06-21 12:43:14.984375000,-54.0,9.5,35.0,71.466875,50.2,0.3579121875,238.65
2021-06-21 12:43:14.992187500,-54.0,9.75,35.0,71.4684375,50.14,0.35779209375,238.65
2021-06-21 12:43:15.000000000,-54.0,10.0,35.0,71.47,50.08,0.357672,238.65
2021-06-21 12:43:15.007812500,-54.0,9.75,35.0,71.47164062499999,49.84,0.35771203125,238.65
2021-06-21 12:43:15.015625000,-54.0,9.5,35.0,71.47328125,49.6,0.35775206249999997,238.65
2021-06-21 12:43:15.023437500,-54.0,9.25,35.0,71.47492187499999,49.175,0.35779209375,238.65
2021-06-21 12:43:15.031250000,-54.0,9.0,35.0,71.4765625,48.75,0.357832125,238.65
2021-06-21 12:43:15.039062500,-54.0,9.0,35.0,71.478203125,48.175,0.35787215625,238.65
2021-06-21 12:43:15.046875000,-54.0,9.0,35.0,71.47984375,47.6,0.3579121875,238.65
2021-06-21 12:43:15.054687500,-54.0,9.0,35.0,71.481484375,46.99,0.35795221875,238.65
2021-06-21 12:43:15.062500000,-54.0,9.0,35.0,71.483125,46.38,0.35799225,238.65
2021-06-21 12:43:15.070312500,-54.0,9.0,35.0,71.484765625,45.900000000000006,0.35803228125,238.65
2021-06-21 12:43:15.078125000,-54.0,9.0,35.0,71.48640625,45.42,0.3580723125,238.65
2021-06-21 12:43:15.085937500,-54.0,9.0,35.0,71.488046875,45.205,0.35811234375,238.65
2021-06-21 12:43:15.093750000,-54.0,9.0,35.0,71.4896875,44.99,0.358152375,238.65
2021-06-21 12:43:15.101562500,-54.0,9.0,35.0,71.491328125,45.025000000000006,0.35819240625,238.65
2021-06-21 12:43:15.109375000,-54.0,9.0,35.0,71.49296875,45.06,0.3582324375,238.65
2021-06-21 12:43:15.117187500,-54.0,9.0,35.0,71.494609375,45.135000000000005,0.35827246875,238.65
2021-06-21 12:43:15.125000000,-54.0,9.0,35.0,71.49625,45.21,0.35831250000000003,238.65
2021-06-21 12:43:15.132812500,-54.0,9.0,35.0,71.497890625,44.975,0.35835253125,238.65
2021-06-21 12:43:15.140625000,-54.0,9.0,35.0,71.49953125,44.74,0.3583925625,238.65
2021-06-21 12:43:15.148437500,-54.0,9.0,35.0,71.501171875,43.88,0.35843259375000003,238.65
2021-06-21 12:43:15.156250000,-54.0,9.0,35.0,71.5028125,43.02,0.358472625,238.65
2021-06-21 12:43:15.164062500,-54.0,9.0,35.0,71.504453125,41.38,0.35851265625,238.65
2021-06-21 12:43:15.171875000,-54.0,9.0,35.0,71.50609375,39.74,0.3585526875,238.65
2021-06-21 12:43:15.179687500,-54.0,9.0,35.0,71.507734375,37.385000000000005,0.35859271875000004,238.65
2021-06-21 12:43:15.187500000,-54.0,9.0,35.0,71.509375,35.03,0.35863275,238.65
2021-06-21 12:43:15.195312500,-54.0,9.0,35.0,71.511015625,32.255,0.35867278125,238.65
2021-06-21 12:43:15.203125000,-54.0,9.0,35.0,71.51265625,29.48,0.35871281250000003,238.65
2021-06-21 12:43:15.210937500,-54.0,9.0,35.0,71.514296875,26.655,0.35875284375,238.65
2021-06-21 12:43:15.218750000,-54.0,9.0,35.0,71.5159375,23.83,0.358792875,238.65
2021-06-21 12:43:15.226562500,-54.0,9.25,35.0,71.517578125,21.244999999999997,0.35883290625,238.65
2021-06-21 12:43:15.234375000,-54.0,9.5,35.0,71.51921875000001,18.66,0.35887293750000004,238.65
2021-06-21 12:43:15.242187500,-54.0,9.75,35.0,71.520859375,16.44,0.35891296875,238.65
2021-06-21 12:43:15.250000000,-54.0,10.0,35.0,71.52250000000001,14.22,0.358953,238.65
2021-06-21 12:43:15.257812500,-54.0,9.75,35.0,71.524140625,12.3,0.35887293750000004,238.65
2021-06-21 12:43:15.265625000,-54.0,9.5,35.0,71.52578125,10.38,0.358792875,238.65
2021-06-21 12:43:15.273437500,-54.0,9.25,35.0,71.527421875,8.55,0.35871281250000003,238.65
2021-06-21 12:43:15.281250000,-54.0,9.0,35.0,71.5290625,6.72,0.35863275,238.65
2021-06-21 12:43:15.289062500,-54.0,9.0,35.0,71.530703125,4.76,0.3585526875,238.65
2021-06-21 12:43:15.296875000,-54.0,9.0,35.0,71.53234375,2.8,0.35847262500000004,238.65
2021-06-21 12:43:15.304687500,-54.0,9.0,35.0,71.533984375,0.5499999999999998,0.3583925625,238.65
2021-06-21 12:43:15.312500000,-54.0,9.0,35.0,71.535625,-1.7,0.35831250000000003,238.65
2021-06-21 12:43:15.320312500,-54.0,9.0,35.25,71.537265625,-4.28,0.3582324375,238.65
2021-06-21 12:43:15.328125000,-54.0,9.0,35.5,71.53890625,-6.86,0.358152375,238.65
2021-06-21 12:43:15.335937500,-54.0,9.0,35.75,71.540546875,-9.68,0.35807231250000005,238.65
2021-06-21 12:43:15.343750000,-54.0,9.0,36.0,71.5421875,-12.5,0.35799225,238.65
2021-06-21 12:43:15.351562500,-54.0,9.0,36.0,71.543828125,-15.385,0.35791218750000003,238.65
2021-06-21 12:43:15.359375000,-54.0,9.0,36.0,71.54546875,-18.27,0.357832125,238.65
2021-06-21 12:43:15.367187500,-54.0,9.0,36.0,71.547109375,-21.02,0.3577520625,238.65
2021-06-21 12:43:15.375000000,-54.0,9.0,36.0,71.54875,-23.77,0.357672,238.65
2021-06-21 12:43:15.382812500,-53.75,9.0,35.75,71.550390625,-26.195,0.3575919375,238.65
2021-06-21 12:43:15.390625000,-53.5,9.0,35.5,71.55203125,-28.62,0.35751187500000003,238.65
2021-06-21 12:43:15.398437500,-53.25,9.0,35.25,71.553671875,-30.634999999999998,0.3574318125,238.65
2021-06-21 12:43:15.406250000,-53.0,9.0,35.0,71.5553125,-32.65,0.35735175,238.65
2021-06-21 12:43:15.414062500,-53.25,9.0,35.25,71.556953125,-34.31,0.3572716875,238.65
2021-06-21 12:43:15.421875000,-53.5,9.0,35.5,71.55859375,-35.97,0.357191625,238.65
2021-06-21 12:43:15.429687500,-53.75,9.0,35.75,71.56023437500001,-37.504999999999995,0.35711156250000003,238.65
2021-06-21 12:43:15.437500000,-54.0,9.0,36.0,71.561875,-39.04,0.3570315,238.65
2021-06-21 12:43:15.445312500,-54.0,9.0,35.75,71.56351562500001,-40.815,0.3569514375,238.65
2021-06-21 12:43:15.453125000,-54.0,9.0,35.5,71.56515625,-42.59,0.356871375,238.65
2021-06-21 12:43:15.460937500,-54.0,9.0,35.25,71.56679687500001,-45.05,0.3567913125,238.65
2021-06-21 12:43:15.468750000,-54.0,9.0,35.0,71.5684375,-47.51,0.35671125000000004,238.65
2021-06-21 12:43:15.476562500,-54.0,9.0,35.25,71.57007812500001,-50.985,0.3566311875,238.65
2021-06-21 12:43:15.484375000,-54.0,9.0,35.5,71.57171875,-54.46,0.356551125,238.65
2021-06-21 12:43:15.492187500,-54.0,9.0,35.75,71.57335937500001,-58.980000000000004,0.3564710625,238.65
2021-06-21 12:43:15.500000000,-54.0,9.0,36.0,71.575,-63.5,0.356391,238.65
2021-06-21 12:43:15.507812500,-54.0,9.0,35.75,71.576640625,-68.625,0.35643103125000003,238.65
2021-06-21 12:43:15.515625000,-54.0,9.0,35.5,71.57828125,-73.75,0.3564710625,238.65
2021-06-21 12:43:15.523437500,-54.0,9.0,35.25,71.579921875,-78.58,0.35651109375,238.65
2021-06-21 12:43:15.531250000,-54.0,9.0,35.0,71.5815625,-83.41,0.356551125,238.65
2021-06-21 12:43:15.539062500,-53.75,9.0,35.0,71.583203125,-86.765,0.35659115625,238.65
2021-06-21 12:43:15.546875000,-53.5,9.0,35.0,71.58484375,-90.12,0.3566311875,238.65
2021-06-21 12:43:15.554687500,-53.25,9.0,35.0,71.586484375,-90.905,0.35667121875,238.65
2021-06-21 12:43:15.562500000,-53.0,9.0,35.0,71.588125,-91.69,0.35671125000000004,238.65
2021-06-21 12:43:15.570312500,-53.25,9.0,35.0,71.589765625,-89.24000000000001,0.35675128125,238.65
2021-06-21 12:43:15.578125000,-53.5,9.0,35.0,71.59140625,-86.79,0.3567913125,238.65
2021-06-21 12:43:15.585937500,-53.75,9.0,35.0,71.593046875,-81.13,0.35683134375000003,238.65
2021-06-21 12:43:15.593750000,-54.0,9.0,35.0,71.5946875,-75.47,0.356871375,238.65
2021-06-21 12:43:15.601562500,-54.0,9.0,35.25,71.596328125,-67.3,0.35691140625,238.65
2021-06-21 12:43:15.609375000,-54.0,9.0,35.5,71.59796875,-59.13,0.3569514375,238.65
2021-06-21 12:43:15.617187500,-54.0,9.0,35.75,71.599609375,-49.61,0.35699146875,238.65
2021-06-21 12:43:15.625000000,-54.0,9.0,36.0,71.60125000000001,-40.09,0.3570315,238.65
2021-06-21 12:43:15.632812500,-54.0,9.0,35.75,71.602890625,-30.5,0.35707153125,238.65
2021-06-21 12:43:15.640625000,-54.0,9.0,35.5,71.60453125000001,-20.91,0.3571115625,238.65
2021-06-21 12:43:15.648437500,-54.0,9.0,35.25,71.606171875,-12.3,0.35715159375,238.65
2021-06-21 12:43:15.656250000,-54.0,9.0,35.0,71.60781250000001,-3.69,0.357191625,238.65
2021-06-21 12:43:15.664062500,-53.75,9.0,35.0,71.609453125,3.31,0.35723165625,238.65
2021-06-21 12:43:15.671875000,-53.5,9.0,35.0,71.61109375000001,10.31,0.3572716875,238.65
2021-06-21 12:43:15.679687500,-53.25,9.0,35.0,71.612734375,15.52,0.35731171875,238.65
2021-06-21 12:43:15.687500000,-53.0,9.0,35.0,71.61437500000001,20.73,0.35735174999999997,238.65
2021-06-21 12:43:15.695312500,-53.0,9.0,35.0,71.616015625,24.32,0.35739178125,238.65
2021-06-21 12:43:15.703125000,-53.0,9.0,35.0,71.61765625000001,27.91,0.3574318125,238.65
2021-06-21 12:43:15.710937500,-53.0,9.0,35.0,71.619296875,30.265,0.35747184375,238.65
2021-06-21 12:43:15.718750000,-53.0,9.0,35.0,71.62093750000001,32.62,0.357511875,238.65
2021-06-21 12:43:15.726562500,-53.25,9.0,35.25,71.622578125,34.175,0.35755190625,238.65
2021-06-21 12:43:15.734375000,-53.5,9.0,35.5,71.62421875000001,35.73,0.3575919375,238.65
2021-06-21 12:43:15.742187500,-53.75,9.0,35.75,71.625859375,36.9,0.35763196875,238.65
2021-06-21 12:43:15.750000000,-54.0,9.0,36.0,71.6275,38.07,0.357672,238.65
2021-06-21 12:43:15.757812500,-54.0,9.0,35.75,71.629140625,39.15,0.357672,238.65
2021-06-21 12:43:15.765625000,-54.0,9.0,35.5,71.63078125,40.23,0.357672,238.65
2021-06-21 12:43:15.773437500,-54.0,9.0,35.25,71.632421875,41.385,0.357672,238.65
2021-06-21 12:43:15.781250000,-54.0,9.0,35.0,71.6340625,42.54,0.357672,238.65
2021-06-21 12:43:15.789062500,-53.75,9.0,35.0,71.635703125,43.75,0.357672,238.65
2021-06-21 12:43:15.796875000,-53.5,9.0,35.0,71.63734375,44.96,0.357672,238.65
2021-06-21 12:43:15.804687500,-53.25,9.0,35.0,71.638984375,46.1,0.357672,238.65
2021-06-21 12:43:15.812500000,-53.0,9.0,35.0,71.640625,47.24,0.357672,238.65
2021-06-21 12:43:15.820312500,-53.25,9.25,35.0,71.64226562500001,48.11,0.357672,238.65
2021-06-21 12:43:15.828125000,-53.5,9.5,35.0,71.64390625,48.98,0.357672,238.65
2021-06-21 12:43:15.835937500,-53.75,9.75,35.0,71.64554687500001,49.435,0.357672,238.65
2021-06-21 12:43:15.843750000,-54.0,10.0,35.0,71.6471875,49.89,0.357672,238.65
2021-06-21 12:43:15.851562500,-54.0,9.75,35.0,71.64882812500001,49.870000000000005,0.357672,238.65
2021-06-21 12:43:15.859375000,-54.0,9.5,35.0,71.65046875,49.85,0.357672,238.65
2021-06-21 12:43:15.867187500,-54.0,9.25,35.0,71.65210937500001,49.435,0.357672,238.65
2021-06-21 12:43:15.875000000,-54.0,9.0,35.0,71.65375,49.02,0.357672,238.65
2021-06-21 12:43:15.882812500,-54.0,9.0,35.0,71.65539062500001,48.400000000000006,0.357672,238.65
2021-06-21 12:43:15.890625000,-54.0,9.0,35.0,71.65703125,47.78,0.357672,238.65
2021-06-21 12:43:15.898437500,-54.0,9.0,35.0,71.65867187500001,47.144999999999996,0.357672,238.65
2021-06-21 12:43:15.906250000,-54.0,9.0,35.0,71.6603125,46.51,0.357672,238.65
2021-06-21 12:43:15.914062500,-54.0,9.0,35.0,71.66195312500001,46.015,0.357672,238.65
2021-06-21 12:43:15.921875000,-54.0,9.0,35.0,71.66359375,45.52,0.357672,238.65
2021-06-21 12:43:15.929687500,-54.0,9.0,35.0,71.66523437500001,45.2,0.357672,238.65
2021-06-21 12:43:15.937500000,-54.0,9.0,35.0,71.666875,44.88,0.357672,238.65
2021-06-21 12:43:15.945312500,-54.0,9.0,35.25,71.66851562500001,44.695,0.357672,238.65
2021-06-21 12:43:15.953125000,-54.0,9.0,35.5,71.67015625,44.51,0.357672,238.65
2021-06-21 12:43:15.960937500,-54.0,9.0,35.75,71.67179687500001,44.355000000000004,0.357672,238.65
2021-06-21 12:43:15.968750000,-54.0,9.0,36.0,71.6734375,44.2,0.357672,238.65
2021-06-21 12:43:15.976562500,-53.75,9.0,35.75,71.67507812500001,43.975,0.357672,238.65
2021-06-21 12:43:15.984375000,-53.5,9.0,35.5,71.67671875,43.75,0.357672,238.65
2021-06-21 12:43:15.992187500,-53.25,9.0,35.25,71.67835937500001,43.364999999999995,0.357672,238.65
2021-06-21 12:43:16.000000000,-53.0,9.0,35.0,71.68,42.98,0.357672,238.65
2021-06-21 12:43:16.007812500,-53.25,9.0,35.0,71.68210937500001,42.345,0.35771203125,238.65
2021-06-21 12:43:16.015625000,-53.5,9.0,35.0,71.68421875000001,41.71,0.35775206249999997,238.65
2021-06-21 12:43:16.023437500,-53.75,9.0,35.0,71.686328125,40.7,0.35779209375,238.65
2021-06-21 12:43:16.031250000,-54.0,9.0,35.0,71.6884375,39.69,0.357832125,238.65
2021-06-21 12:43:16.039062500,-54.0,9.0,35.0,71.69054687500001,38.175,0.35787215625,238.65
2021-06-21 12:43:16.046875000,-54.0,9.0,35.0,71.69265625000001,36.66,0.3579121875,238.65
2021-06-21 12:43:16.054687500,-54.0,9.0,35.0,71.694765625,34.55,0.35795221875,238.65
2021-06-21 12:43:16.062500000,-54.0,9.0,35.0,71.696875,32.44,0.35799225,238.65
2021-06-21 12:43:16.070312500,-54.0,9.0,35.0,71.69898437500001,29.78,0.35803228125,238.65
2021-06-21 12:43:16.078125000,-54.0,9.0,35.0,71.70109375000001,27.12,0.3580723125,238.65
2021-06-21 12:43:16.085937500,-54.0,9.0,35.0,71.703203125,24.105,0.35811234375,238.65
2021-06-21 12:43:16.093750000,-54.0,9.0,35.0,71.7053125,21.09,0.358152375,238.65
2021-06-21 12:43:16.101562500,-54.0,9.0,35.0,71.70742187500001,18.04,0.35819240625,238.65
2021-06-21 12:43:16.109375000,-54.0,9.0,35.0,71.70953125000001,14.99,0.3582324375,238.65
2021-06-21 12:43:16.117187500,-54.0,9.0,35.0,71.711640625,12.23,0.35827246875,238.65
2021-06-21 12:43:16.125000000,-54.0,9.0,35.0,71.71375,9.47,0.35831250000000003,238.65
2021-06-21 12:43:16.132812500,-54.0,9.0,35.0,71.71585937500001,7.19,0.35835253125,238.65
2021-06-21 12:43:16.140625000,-54.0,9.0,35.0,71.71796875000001,4.91,0.3583925625,238.65
2021-06-21 12:43:16.148437500,-54.0,9.0,35.0,71.720078125,3.1100000000000003,0.35843259375000003,238.65
2021-06-21 12:43:16.156250000,-54.0,9.0,35.0,71.7221875,1.31,0.358472625,238.65
2021-06-21 12:43:16.164062500,-54.0,9.0,35.0,71.72429687500001,-0.21999999999999997,0.35851265625,238.65
2021-06-21 12:43:16.171875000,-54.0,9.0,35.0,71.72640625000001,-1.75,0.3585526875,238.65
2021-06-21 12:43:16.179687500,-54.0,9.0,35.0,71.728515625,-3.3,0.35859271875000004,238.65
2021-06-21 12:43:16.187500000,-54.0,9.0,35.0,71.730625,-4.85,0.35863275,238.65
2021-06-21 12:43:16.195312500,-54.0,9.0,35.0,71.732734375,-6.645,0.35867278125,238.65
2021-06-21 12:43:16.203125000,-54.0,9.0,35.0,71.73484375000001,-8.44,0.35871281250000003,238.65
2021-06-21 12:43:16.210937500,-54.0,9.0,35.0,71.736953125,-10.555,0.35875284375,238.65
2021-06-21 12:43:16.218750000,-54.0,9.0,35.0,71.7390625,-12.67,0.358792875,238.65
2021-06-21 12:43:16.226562500,-54.0,9.0,35.0,71.741171875,-15.015,0.35883290625,238.65
2021-06-21 12:43:16.234375000,-54.0,9.0,35.0,71.74328125000001,-17.36,0.35887293750000004,238.65
2021-06-21 12:43:16.242187500,-54.0,9.0,35.0,71.745390625,-19.744999999999997,0.35891296875,238.65
2021-06-21 12:43:16.250000000,-54.0,9.0,35.0,71.7475,-22.13,0.358953,238.65
2021-06-21 12:43:16.257812500,-54.0,9.0,35.25,71.749609375,-24.39,0.35891296875,238.65
2021-06-21 12:43:16.265625000,-54.0,9.0,35.5,71.75171875000001,-26.65,0.35887293750000004,238.65
2021-06-21 12:43:16.273437500,-54.0,9.0,35.75,71.75382812500001,-28.7,0.35883290625,238.65
2021-06-21 12:43:16.281250000,-54.0,9.0,36.0,71.7559375,-30.75,0.358792875,238.65
2021-06-21 12:43:16.289062500,-54.0,9.0,36.0,71.758046875,-32.635000000000005,0.35875284375,238.65
2021-06-21 12:43:16.296875000,-54.0,9.0,36.0,71.76015625000001,-34.52,0.35871281250000003,238.65
2021-06-21 12:43:16.304687500,-54.0,9.0,36.0,71.76226562500001,-36.335,0.35867278125,238.65
2021-06-21 12:43:16.312500000,-54.0,9.0,36.0,71.764375,-38.15,0.35863275,238.65
2021-06-21 12:43:16.320312500,-54.0,9.0,36.0,71.766484375,-40.019999999999996,0.35859271875000004,238.65
2021-06-21 12:43:16.328125000,-54.0,9.0,36.0,71.76859375000001,-41.89,0.3585526875,238.65
2021-06-21 12:43:16.335937500,-54.0,9.0,36.0,71.77070312500001,-43.935,0.35851265625,238.65
2021-06-21 12:43:16.343750000,-54.0,9.0,36.0,71.7728125,-45.98,0.358472625,238.65
2021-06-21 12:43:16.351562500,-54.0,9.0,35.75,71.774921875,-48.349999999999994,0.35843259375000003,238.65
2021-06-21 12:43:16.359375000,-54.0,9.0,35.5,71.77703125000001,-50.72,0.3583925625,238.65
2021-06-21 12:43:16.367187500,-54.0,9.0,35.25,71.77914062500001,-53.57,0.35835253125,238.65
2021-06-21 12:43:16.375000000,-54.0,9.0,35.0,71.78125,-56.42,0.35831250000000003,238.65
2021-06-21 12:43:16.382812500,-54.0,9.0,35.25,71.783359375,-59.870000000000005,0.35827246875,238.65
2021-06-21 12:43:16.390625000,-54.0,9.0,35.5,71.78546875,-63.32,0.3582324375,238.65
2021-06-21 12:43:16.398437500,-54.0,9.0,35.75,71.78757812500001,-67.32,0.35819240625,238.65
2021-06-21 12:43:16.406250000,-54.0,9.0,36.0,71.7896875,-71.32,0.358152375,238.65
2021-06-21 12:43:16.414062500,-54.0,9.0,35.75,71.791796875,-75.53,0.35811234375,238.65
2021-06-21 12:43:16.421875000,-54.0,9.0,35.5,71.79390625,-79.74,0.3580723125,238.65
2021-06-21 12:43:16.429687500,-54.0,9.0,35.25,71.79601562500001,-83.46000000000001,0.35803228125,238.65
2021-06-21 12:43:16.437500000,-54.0,9.0,35.0,71.798125,-87.18,0.35799225,238.65
2021-06-21 12:43:16.445312500,-54.0,9.0,35.25,71.800234375,-89.44,0.35795221875,238.65
2021-06-21 12:43:16.453125000,-54.0,9.0,35.5,71.80234375,-91.7,0.3579121875,238.65
2021-06-21 12:43:16.460937500,-54.0,9.0,35.75,71.80445312500001,-91.525,0.35787215625,238.65
2021-06-21 12:43:16.468750000,-54.0,9.0,36.0,71.8065625,-91.35,0.357832125,238.65
2021-06-21 12:43:16.476562500,-53.75,9.0,36.0,71.808671875,-88.125,0.35779209375,238.65
2021-06-21 12:43:16.484375000,-53.5,9.0,36.0,71.81078125,-84.9,0.35775206249999997,238.65
2021-06-21 12:43:16.492187500,-53.25,9.0,36.0,71.81289062500001,-78.61,0.35771203125,238.65
2021-06-21 12:43:16.500000000,-53.0,9.0,36.0,71.815,-72.32,0.357672,238.65
2021-06-21 12:43:16.507812500,-53.25,9.0,35.75,71.817109375,-63.64999999999999,0.3575919375,238.65
2021-06-21 12:43:16.515625000,-53.5,9.0,35.5,71.81921875,-54.98,0.357511875,238.65
