TimeStamp,empatica.acc.x,empatica.acc.y,empatica.acc.z,empatica.hr,empatica.bvp,empatica.eda,empatica.temp
2021-06-29 17:32:21.273437500,-44.0,-20.0,42.0,89.393671875,16.47,10.11656490625,33.61
2021-06-29 17:32:21.281250000,-44.0,-20.0,42.0,89.3940625,16.47,10.117765875,33.61
2021-06-29 17:32:21.289062500,-44.0,-20.0,42.0,89.394453125,16.314999999999998,10.11896684375,33.61
2021-06-29 17:32:21.296875000,-44.0,-20.0,42.0,89.39484374999999,16.16,10.1201678125,33.61
2021-06-29 17:32:21.304687500,-44.0,-20.0,42.0,89.395234375,15.6,10.12136878125,33.61
2021-06-29 17:32:21.312500000,-44.0,-20.0,42.0,89.395625,15.04,10.12256975,33.61
2021-06-29 17:32:21.320312500,-44.0,-20.0,42.0,89.396015625,13.934999999999999,10.12377071875,33.61
2021-06-29 17:32:21.328125000,-44.0,-20.0,42.0,89.39640625,12.83,10.1249716875,33.61
2021-06-29 17:32:21.335937500,-44.0,-20.0,42.0,89.39679687499999,11.17,10.12617265625,33.61
2021-06-29 17:32:21.343750000,-44.0,-20.0,42.0,89.3971875,9.51,10.127373625,33.61
2021-06-29 17:32:21.351562500,-44.0,-20.0,42.0,89.397578125,7.395,10.12857459375,33.61
2021-06-29 17:32:21.359375000,-44.0,-20.0,42.0,89.39796875,5.28,10.1297755625,33.61
2021-06-29 17:32:21.367187500,-44.0,-20.0,42.0,89.398359375,2.835,10.13097653125,33.61
2021-06-29 17:32:21.375000000,-44.0,-20.0,42.0,89.39875,0.39,10.132177500000001,33.61
2021-06-29 17:32:21.382812500,-44.0,-20.0,42.0,89.399140625,-2.2699999999999996,10.13337846875,33.61
2021-06-29 17:32:21.390625000,-44.0,-20.0,42.0,89.39953125,-4.93,10.1345794375,33.61
2021-06-29 17:32:21.398437500,-44.0,-20.0,42.0,89.399921875,-7.75,10.13578040625,33.61
2021-06-29 17:32:21.406250000,-44.0,-20.0,42.0,89.4003125,-10.57,10.136981375,33.61
2021-06-29 17:32:21.414062500,-44.0,-20.0,42.0,89.400703125,-13.55,10.13818234375,33.61
2021-06-29 17:32:21.421875000,-44.0,-20.0,42.0,89.40109375,-16.53,10.1393833125,33.61
2021-06-29 17:32:21.429687500,-44.0,-20.0,42.0,89.401484375,-19.700000000000003,10.14058428125,33.61
2021-06-29 17:32:21.437500000,-44.0,-20.0,42.0,89.401875,-22.87,10.14178525,33.61
2021-06-29 17:32:21.445312500,-44.0,-20.0,42.0,89.402265625,-26.32,10.14298621875,33.61
2021-06-29 17:32:21.453125000,-44.0,-20.0,42.0,89.40265625,-29.77,10.1441871875,33.61
2021-06-29 17:32:21.460937500,-44.0,-20.0,42.0,89.403046875,-33.685,10.14538815625,33.61
2021-06-29 17:32:21.468750000,-44.0,-20.0,42.0,89.4034375,-37.6,10.146589125,33.61
2021-06-29 17:32:21.476562500,-44.0,-20.0,42.0,89.403828125,-42.195,10.14779009375,33.61
2021-06-29 17:32:21.484375000,-44.0,-20.0,42.0,89.40421875,-46.79,10.1489910625,33.61
2021-06-29 17:32:21.492187500,-44.0,-20.0,42.0,89.404609375,-52.254999999999995,10.15019203125,33.61
2021-06-29 17:32:21.500000000,-44.0,-20.0,42.0,89.405,-57.72,10.151393,33.61
2021-06-29 17:32:21.507812500,-44.0,-20.0,42.0,89.405390625,-63.935,10.1541551875,33.61
2021-06-29 17:32:21.515625000,-44.0,-20.0,42.0,89.40578125,-70.15,10.156917375,33.61
2021-06-29 17:32:21.523437500,-44.0,-20.0,42.0,89.406171875,-76.51,10.159679562500001,33.61
2021-06-29 17:32:21.531250000,-44.0,-20.0,42.0,89.4065625,-82.87,10.162441750000001,33.61
2021-06-29 17:32:21.539062500,-44.0,-20.0,42.0,89.406953125,-88.255,10.165203937500001,33.61
2021-06-29 17:32:21.546875000,-44.0,-20.0,42.0,89.40734375,-93.64,10.167966125,33.61
2021-06-29 17:32:21.554687500,-44.0,-20.0,42.0,89.407734375,-96.63,10.1707283125,33.61
2021-06-29 17:32:21.562500000,-44.0,-20.0,42.0,89.408125,-99.62,10.1734905,33.61
2021-06-29 17:32:21.570312500,-44.0,-20.0,42.0,89.408515625,-98.91499999999999,10.1762526875,33.61
2021-06-29 17:32:21.578125000,-44.0,-20.0,42.0,89.40890625,-98.21,10.179014875,33.61
2021-06-29 17:32:21.585937500,-44.0,-20.0,42.0,89.409296875,-93.175,10.1817770625,33.61
2021-06-29 17:32:21.593750000,-44.0,-20.0,42.0,89.4096875,-88.14,10.18453925,33.61
2021-06-29 17:32:21.601562500,-44.0,-20.0,42.0,89.410078125,-79.02000000000001,10.1873014375,33.61
2021-06-29 17:32:21.609375000,-44.0,-20.0,42.0,89.41046875,-69.9,10.190063625,33.61
2021-06-29 17:32:21.617187500,-44.0,-20.0,42.0,89.410859375,-57.845,10.1928258125,33.61
2021-06-29 17:32:21.625000000,-44.0,-20.0,42.0,89.41125,-45.79,10.195588,33.61
2021-06-29 17:32:21.632812500,-44.0,-20.0,42.0,89.411640625,-32.455,10.198350187499999,33.61
2021-06-29 17:32:21.640625000,-44.0,-20.0,42.0,89.41203125,-19.12,10.201112375,33.61
2021-06-29 17:32:21.648437500,-44.0,-20.0,42.0,89.412421875,-6.195,10.2038745625,33.61
2021-06-29 17:32:21.656250000,-44.0,-20.0,42.0,89.4128125,6.73,10.20663675,33.61
2021-06-29 17:32:21.664062500,-44.0,-20.0,42.0,89.41320312500001,17.945,10.2093989375,33.61
2021-06-29 17:32:21.671875000,-44.0,-20.0,42.0,89.41359375,29.16,10.212161125,33.61
2021-06-29 17:32:21.679687500,-44.0,-20.0,42.0,89.413984375,37.92,10.2149233125,33.61
2021-06-29 17:32:21.687500000,-44.0,-20.0,42.0,89.414375,46.68,10.2176855,33.61
2021-06-29 17:32:21.695312500,-44.0,-20.0,42.0,89.414765625,52.78,10.2204476875,33.61
2021-06-29 17:32:21.703125000,-44.0,-20.0,42.0,89.41515625000001,58.88,10.223209875,33.61
2021-06-29 17:32:21.710937500,-44.0,-20.0,42.0,89.415546875,62.44500000000001,10.225972062499999,33.61
2021-06-29 17:32:21.718750000,-44.0,-20.0,42.0,89.4159375,66.01,10.228734249999999,33.61
2021-06-29 17:32:21.726562500,-44.0,-20.0,42.0,89.416328125,67.325,10.231496437499999,33.61
2021-06-29 17:32:21.734375000,-44.0,-20.0,42.0,89.41671875,68.64,10.234258624999999,33.61
2021-06-29 17:32:21.742187500,-44.0,-20.0,42.0,89.41710937500001,68.035,10.237020812499999,33.61
2021-06-29 17:32:21.750000000,-44.0,-20.0,42.0,89.4175,67.43,10.239783,33.61
2021-06-29 17:32:21.757812500,-44.0,-20.0,42.0,89.417890625,65.29,10.243986343749999,33.61
2021-06-29 17:32:21.765625000,-44.0,-20.0,42.0,89.41828125,63.15,10.2481896875,33.61
2021-06-29 17:32:21.773437500,-44.0,-20.0,42.0,89.418671875,59.91,10.25239303125,33.61
2021-06-29 17:32:21.781250000,-44.0,-20.0,42.0,89.41906250000001,56.67,10.256596374999999,33.61
2021-06-29 17:32:21.789062500,-44.0,-20.0,42.0,89.419453125,52.85,10.260799718749999,33.61
2021-06-29 17:32:21.796875000,-44.0,-20.0,42.0,89.41984375,49.03,10.2650030625,33.61
2021-06-29 17:32:21.804687500,-44.0,-20.0,42.0,89.420234375,45.16,10.26920640625,33.61
2021-06-29 17:32:21.812500000,-44.0,-20.0,42.0,89.420625,41.29,10.273409749999999,33.61
2021-06-29 17:32:21.820312500,-44.0,-20.0,42.0,89.42101562500001,37.82,10.27761309375,33.61
2021-06-29 17:32:21.828125000,-44.0,-20.0,42.0,89.42140625,34.35,10.2818164375,33.61
2021-06-29 17:32:21.835937500,-44.0,-20.0,42.0,89.421796875,31.61,10.28601978125,33.61
2021-06-29 17:32:21.843750000,-44.0,-20.0,42.0,89.4221875,28.87,10.290223124999999,33.61
2021-06-29 17:32:21.851562500,-44.0,-20.0,42.0,89.422578125,26.97,10.29442646875,33.61
2021-06-29 17:32:21.859375000,-44.0,-20.0,42.0,89.42296875000001,25.07,10.2986298125,33.61
2021-06-29 17:32:21.867187500,-44.0,-20.0,42.0,89.423359375,23.955,10.30283315625,33.61
2021-06-29 17:32:21.875000000,-44.0,-20.0,42.0,89.42375000000001,22.84,10.307036499999999,33.61
2021-06-29 17:32:21.882812500,-44.0,-20.0,42.0,89.424140625,22.335,10.31123984375,33.61
2021-06-29 17:32:21.890625000,-44.0,-20.0,42.0,89.42453125,21.83,10.3154431875,33.61
2021-06-29 17:32:21.898437500,-44.0,-20.0,42.0,89.42492187500001,21.68,10.31964653125,33.61
2021-06-29 17:32:21.906250000,-44.0,-20.0,42.0,89.4253125,21.53,10.323849875,33.61
2021-06-29 17:32:21.914062500,-44.0,-20.0,42.0,89.42570312500001,21.455,10.32805321875,33.61
2021-06-29 17:32:21.921875000,-44.0,-20.0,42.0,89.42609375,21.38,10.3322565625,33.61
2021-06-29 17:32:21.929687500,-44.0,-20.0,42.0,89.426484375,21.115000000000002,10.336459906249999,33.61
2021-06-29 17:32:21.937500000,-44.0,-20.0,42.0,89.42687500000001,20.85,10.34066325,33.61
2021-06-29 17:32:21.945312500,-44.0,-20.0,42.0,89.427265625,20.16,10.34486659375,33.61
2021-06-29 17:32:21.953125000,-44.0,-20.0,42.0,89.42765625000001,19.47,10.3490699375,33.61
2021-06-29 17:32:21.960937500,-44.0,-20.0,42.0,89.428046875,18.2,10.35327328125,33.61
2021-06-29 17:32:21.968750000,-44.0,-20.0,42.0,89.4284375,16.93,10.357476625,33.61
2021-06-29 17:32:21.976562500,-44.0,-20.0,42.0,89.42882812500001,15.02,10.36167996875,33.61
2021-06-29 17:32:21.984375000,-44.0,-20.0,42.0,89.42921875,13.11,10.3658833125,33.61
2021-06-29 17:32:21.992187500,-44.0,-20.0,42.0,89.42960937500001,10.61,10.37008665625,33.61
2021-06-29 17:32:22.000000000,-44.0,-20.0,42.0,89.43,8.11,10.37429,33.61
2021-06-29 17:32:22.007812500,-44.0,-20.0,42.0,89.430390625,5.175,10.378813625,33.60875
2021-06-29 17:32:22.015625000,-44.0,-20.0,42.0,89.43078125000001,2.24,10.38333725,33.6075
2021-06-29 17:32:22.023437500,-44.0,-20.0,42.0,89.431171875,-0.9499999999999997,10.387860875,33.60625
2021-06-29 17:32:22.031250000,-44.0,-20.0,42.0,89.43156250000001,-4.14,10.3923845,33.605
2021-06-29 17:32:22.039062500,-44.0,-20.0,42.0,89.431953125,-7.425000000000001,10.396908125,33.60375
2021-06-29 17:32:22.046875000,-44.0,-20.0,42.0,89.43234375,-10.71,10.40143175,33.6025
2021-06-29 17:32:22.054687500,-44.0,-20.0,42.0,89.43273437500001,-14.025,10.405955375,33.60125
2021-06-29 17:32:22.062500000,-44.0,-20.0,42.0,89.433125,-17.34,10.410479,33.6
2021-06-29 17:32:22.070312500,-44.0,-20.0,42.0,89.43351562500001,-20.75,10.415002625,33.59875
2021-06-29 17:32:22.078125000,-44.0,-20.0,42.0,89.43390625,-24.16,10.41952625,33.5975
2021-06-29 17:32:22.085937500,-44.0,-20.0,42.0,89.434296875,-27.84,10.424049875,33.59625
2021-06-29 17:32:22.093750000,-44.0,-20.0,42.0,89.43468750000001,-31.52,10.4285735,33.595
2021-06-29 17:32:22.101562500,-44.0,-20.0,42.0,89.435078125,-35.755,10.433097125,33.59375
2021-06-29 17:32:22.109375000,-44.0,-20.0,42.0,89.43546875000001,-39.99,10.43762075,33.5925
2021-06-29 17:32:22.117187500,-44.0,-20.0,42.0,89.435859375,-45.035,10.442144375,33.59125
2021-06-29 17:32:22.125000000,-44.0,-20.0,42.0,89.43625,-50.08,10.446667999999999,33.59
2021-06-29 17:32:22.132812500,-44.0,-20.0,42.0,89.43664062500001,-56.03,10.451191625,33.58875
2021-06-29 17:32:22.140625000,-44.0,-20.0,42.0,89.43703125,-61.98,10.455715249999999,33.5875
2021-06-29 17:32:22.148437500,-44.0,-20.0,42.0,89.43742187500001,-68.55,10.460238875,33.58625
2021-06-29 17:32:22.156250000,-44.0,-20.0,42.0,89.4378125,-75.12,10.464762499999999,33.585
2021-06-29 17:32:22.164062500,-44.0,-20.0,42.0,89.438203125,-81.545,10.469286125,33.58375
2021-06-29 17:32:22.171875000,-44.0,-20.0,42.0,89.43859375000001,-87.97,10.47380975,33.5825
2021-06-29 17:32:22.179687500,-44.0,-20.0,42.0,89.438984375,-93.035,10.478333375,33.58125
2021-06-29 17:32:22.187500000,-44.0,-20.0,42.0,89.43937500000001,-98.1,10.482857,33.58
2021-06-29 17:32:22.195312500,-44.0,-20.0,42.0,89.439765625,-100.43,10.487380625,33.57875
2021-06-29 17:32:22.203125000,-44.0,-20.0,42.0,89.44015625,-102.76,10.49190425,33.5775
2021-06-29 17:32:22.210937500,-44.0,-20.0,42.0,89.44054687500001,-101.24000000000001,10.496427875,33.57625
2021-06-29 17:32:22.218750000,-44.0,-20.0,42.0,89.4409375,-99.72,10.5009515,33.575
2021-06-29 17:32:22.226562500,-44.0,-20.0,42.25,89.44132812500001,-93.91,10.505475125,33.57375
2021-06-29 17:32:22.234375000,-44.0,-20.0,42.5,89.44171875,-88.1,10.50999875,33.5725
2021-06-29 17:32:22.242187500,-44.0,-20.0,42.75,89.442109375,-78.41999999999999,10.514522375,33.57125
2021-06-29 17:32:22.250000000,-44.0,-20.0,43.0,89.44250000000001,-68.74,10.519046,33.57
2021-06-29 17:32:22.257812500,-44.0,-20.0,42.75,89.442890625,-56.4,10.522849031249999,33.57
2021-06-29 17:32:22.265625000,-44.0,-20.0,42.5,89.44328125000001,-44.06,10.5266520625,33.57
2021-06-29 17:32:22.273437500,-44.0,-20.0,42.25,89.443671875,-30.695,10.53045509375,33.57
2021-06-29 17:32:22.281250000,-44.0,-20.0,42.0,89.4440625,-17.33,10.534258125,33.57
2021-06-29 17:32:22.289062500,-44.0,-20.0,42.0,89.44445312500001,-4.535,10.53806115625,33.57
2021-06-29 17:32:22.296875000,-44.0,-20.0,42.0,89.44484375,8.26,10.5418641875,33.57
2021-06-29 17:32:22.304687500,-44.0,-20.0,42.0,89.44523437500001,19.28,10.54566721875,33.57
2021-06-29 17:32:22.312500000,-44.0,-20.0,42.0,89.445625,30.3,10.549470249999999,33.57
2021-06-29 17:32:22.320312500,-44.0,-20.0,42.0,89.446015625,38.905,10.55327328125,33.57
2021-06-29 17:32:22.328125000,-44.0,-20.0,42.0,89.44640625000001,47.51,10.5570763125,33.57
2021-06-29 17:32:22.335937500,-44.0,-20.0,42.0,89.446796875,53.545,10.560879343749999,33.57
2021-06-29 17:32:22.343750000,-44.0,-20.0,42.0,89.44718750000001,59.58,10.564682375,33.57
2021-06-29 17:32:22.351562500,-44.0,-20.0,42.0,89.447578125,63.23,10.56848540625,33.57
2021-06-29 17:32:22.359375000,-44.0,-20.0,42.0,89.44796875,66.88,10.5722884375,33.57
2021-06-29 17:32:22.367187500,-44.0,-20.0,42.0,89.44835937500001,68.47,10.57609146875,33.57
2021-06-29 17:32:22.375000000,-44.0,-20.0,42.0,89.44875,70.06,10.5798945,33.57
2021-06-29 17:32:22.382812500,-44.0,-20.0,42.0,89.44914062500001,69.955,10.58369753125,33.57
2021-06-29 17:32:22.390625000,-44.0,-20.0,42.0,89.44953125,69.85,10.5875005625,33.57
2021-06-29 17:32:22.398437500,-44.0,-20.0,42.0,89.449921875,68.405,10.59130359375,33.57
2021-06-29 17:32:22.406250000,-44.0,-20.0,42.0,89.45031250000001,66.96,10.595106625,33.57
2021-06-29 17:32:22.414062500,-44.0,-20.0,42.0,89.450703125,64.56,10.598909656250001,33.57
2021-06-29 17:32:22.421875000,-44.0,-20.0,42.0,89.45109375000001,62.16,10.6027126875,33.57
2021-06-29 17:32:22.429687500,-44.0,-20.0,42.0,89.451484375,59.215,10.60651571875,33.57
2021-06-29 17:32:22.437500000,-44.0,-20.0,42.0,89.451875,56.27,10.610318750000001,33.57
2021-06-29 17:32:22.445312500,-44.0,-20.0,42.25,89.45226562500001,53.17,10.61412178125,33.57
2021-06-29 17:32:22.453125000,-44.0,-20.0,42.5,89.45265625,50.07,10.6179248125,33.57
2021-06-29 17:32:22.460937500,-44.0,-20.0,42.75,89.45304687500001,47.185,10.62172784375,33.57
2021-06-29 17:32:22.468750000,-44.0,-20.0,43.0,89.4534375,44.3,10.625530875,33.57
2021-06-29 17:32:22.476562500,-44.0,-20.0,42.75,89.453828125,41.875,10.62933390625,33.57
2021-06-29 17:32:22.484375000,-44.0,-20.0,42.5,89.45421875000001,39.45,10.6331369375,33.57
2021-06-29 17:32:22.492187500,-44.0,-20.0,42.25,89.454609375,37.61,10.636939968750001,33.57
2021-06-29 17:32:22.500000000,-44.0,-20.0,42.0,89.45500000000001,35.77,10.640743,33.57
2021-06-29 17:32:22.507812500,-44.0,-20.0,42.0,89.455390625,34.505,10.64338509375,33.57
2021-06-29 17:32:22.515625000,-44.0,-20.0,42.0,89.45578125,33.24,10.6460271875,33.57
2021-06-29 17:32:22.523437500,-44.0,-20.0,42.0,89.45617187500001,32.42,10.648669281250001,33.57
2021-06-29 17:32:22.531250000,-44.0,-20.0,42.0,89.4565625,31.6,10.651311375,33.57
2021-06-29 17:32:22.539062500,-44.0,-20.25,42.0,89.456953125,31.035,10.65395346875,33.57
2021-06-29 17:32:22.546875000,-44.0,-20.5,42.0,89.45734375,30.47,10.6565955625,33.57
2021-06-29 17:32:22.554687500,-44.0,-20.75,42.0,89.457734375,29.975,10.659237656250001,33.57
2021-06-29 17:32:22.562500000,-44.0,-21.0,42.0,89.45812500000001,29.48,10.66187975,33.57
2021-06-29 17:32:22.570312500,-44.0,-20.75,42.0,89.458515625,28.845,10.66452184375,33.57
2021-06-29 17:32:22.578125000,-44.0,-20.5,42.0,89.45890625,28.21,10.6671639375,33.57
2021-06-29 17:32:22.585937500,-44.0,-20.25,42.0,89.459296875,27.29,10.66980603125,33.57
2021-06-29 17:32:22.593750000,-44.0,-20.0,42.0,89.4596875,26.37,10.672448125,33.57
2021-06-29 17:32:22.601562500,-44.0,-20.0,42.0,89.46007812500001,25.045,10.67509021875,33.57
2021-06-29 17:32:22.609375000,-44.0,-20.0,42.0,89.46046875,23.72,10.6777323125,33.57
2021-06-29 17:32:22.617187500,-44.0,-20.0,42.0,89.460859375,21.945,10.68037440625,33.57
2021-06-29 17:32:22.625000000,-44.0,-20.0,42.0,89.46125,20.17,10.6830165,33.57
2021-06-29 17:32:22.632812500,-44.0,-20.25,42.0,89.461640625,17.975,10.68565859375,33.57
2021-06-29 17:32:22.640625000,-44.0,-20.5,42.0,89.46203125000001,15.78,10.6883006875,33.57
2021-06-29 17:32:22.648437500,-44.0,-20.75,42.0,89.462421875,13.23,10.69094278125,33.57
2021-06-29 17:32:22.656250000,-44.0,-21.0,42.0,89.4628125,10.68,10.693584874999999,33.57
2021-06-29 17:32:22.664062500,-44.0,-20.75,42.0,89.463203125,7.865,10.69622696875,33.57
2021-06-29 17:32:22.671875000,-44.0,-20.5,42.0,89.46359375,5.05,10.6988690625,33.57
2021-06-29 17:32:22.679687500,-44.0,-20.25,42.0,89.46398437500001,2.045,10.70151115625,33.57
2021-06-29 17:32:22.687500000,-44.0,-20.0,42.0,89.464375,-0.96,10.70415325,33.57
2021-06-29 17:32:22.695312500,-44.0,-20.0,42.0,89.464765625,-4.13,10.706795343749999,33.57
2021-06-29 17:32:22.703125000,-44.0,-20.0,42.0,89.46515625,-7.3,10.7094374375,33.57
2021-06-29 17:32:22.710937500,-44.0,-20.0,42.0,89.465546875,-10.625,10.71207953125,33.57
2021-06-29 17:32:22.718750000,-44.0,-20.0,42.0,89.46593750000001,-13.95,10.714721625,33.57
2021-06-29 17:32:22.726562500,-44.0,-20.0,42.0,89.466328125,-17.485,10.717363718749999,33.57
2021-06-29 17:32:22.734375000,-44.0,-20.0,42.0,89.46671875,-21.02,10.7200058125,33.57
2021-06-29 17:32:22.742187500,-44.0,-20.0,42.0,89.467109375,-24.89,10.72264790625,33.57
2021-06-29 17:32:22.750000000,-44.0,-20.0,42.0,89.4675,-28.76,10.72529,33.57
2021-06-29 17:32:22.757812500,-44.0,-20.0,42.0,89.46789062500001,-33.160000000000004,10.725410125,33.57
2021-06-29 17:32:22.765625000,-44.0,-20.0,42.0,89.46828125,-37.56,10.725530249999998,33.57
2021-06-29 17:32:22.773437500,-44.0,-20.0,42.0,89.468671875,-42.67,10.725650374999999,33.57
2021-06-29 17:32:22.781250000,-44.0,-20.0,42.0,89.4690625,-47.78,10.7257705,33.57
2021-06-29 17:32:22.789062500,-44.0,-20.0,42.0,89.469453125,-53.56,10.725890625,33.57
2021-06-29 17:32:22.796875000,-44.0,-20.0,42.0,89.46984375000001,-59.34,10.72601075,33.57
2021-06-29 17:32:22.804687500,-44.0,-20.0,42.0,89.470234375,-65.355,10.726130874999999,33.57
2021-06-29 17:32:22.812500000,-44.0,-20.0,42.0,89.470625,-71.37,10.726251,33.57
2021-06-29 17:32:22.820312500,-44.25,-20.0,42.0,89.471015625,-76.685,10.726371125,33.57
2021-06-29 17:32:22.828125000,-44.5,-20.0,42.0,89.47140625,-82.0,10.726491249999999,33.57
2021-06-29 17:32:22.835937500,-44.75,-20.0,42.0,89.47179687500001,-85.34,10.726611375,33.57
2021-06-29 17:32:22.843750000,-45.0,-20.0,42.0,89.4721875,-88.68,10.7267315,33.57
2021-06-29 17:32:22.851562500,-45.0,-20.0,42.0,89.472578125,-88.78,10.726851625,33.57
2021-06-29 17:32:22.859375000,-45.0,-20.0,42.0,89.47296875,-88.88,10.72697175,33.57
2021-06-29 17:32:22.867187500,-45.0,-20.0,42.0,89.473359375,-84.94999999999999,10.727091875,33.57
2021-06-29 17:32:22.875000000,-45.0,-20.0,42.0,89.47375000000001,-81.02,10.727212,33.57
2021-06-29 17:32:22.882812500,-44.75,-20.25,42.0,89.474140625,-73.13,10.727332125,33.57
2021-06-29 17:32:22.890625000,-44.5,-20.5,42.0,89.47453125,-65.24,10.727452249999999,33.57
2021-06-29 17:32:22.898437500,-44.25,-20.75,42.0,89.474921875,-54.334999999999994,10.727572375,33.57
2021-06-29 17:32:22.906250000,-44.0,-21.0,42.0,89.4753125,-43.43,10.7276925,33.57
2021-06-29 17:32:22.914062500,-44.0,-20.75,42.0,89.47570312500001,-31.045,10.727812625,33.57
2021-06-29 17:32:22.921875000,-44.0,-20.5,42.0,89.47609375,-18.66,10.72793275,33.57
2021-06-29 17:32:22.929687500,-44.0,-20.25,42.0,89.476484375,-6.465,10.728052875,33.57
2021-06-29 17:32:22.937500000,-44.0,-20.0,42.0,89.476875,5.73,10.728173,33.57
2021-06-29 17:32:22.945312500,-44.0,-20.0,42.0,89.477265625,16.4,10.728293125,33.57
2021-06-29 17:32:22.953125000,-44.0,-20.0,42.0,89.47765625000001,27.07,10.72841325,33.57
2021-06-29 17:32:22.960937500,-44.0,-20.0,42.0,89.478046875,35.46,10.728533375,33.57
2021-06-29 17:32:22.968750000,-44.0,-20.0,42.0,89.4784375,43.85,10.7286535,33.57
2021-06-29 17:32:22.976562500,-44.0,-20.25,42.0,89.478828125,49.75,10.728773625,33.57
2021-06-29 17:32:22.984375000,-44.0,-20.5,42.0,89.47921875,55.65,10.728893750000001,33.57
2021-06-29 17:32:22.992187500,-44.0,-20.75,42.0,89.47960937500001,59.22,10.729013875,33.57
2021-06-29 17:32:23.000000000,-44.0,-21.0,42.0,89.48,62.79,10.729134,33.57
2021-06-29 17:32:23.007812500,-44.25,-20.75,42.0,89.48031250000001,64.33,10.72881371875,33.57
2021-06-29 17:32:23.015625000,-44.5,-20.5,42.0,89.480625,65.87,10.728493437500001,33.57
2021-06-29 17:32:23.023437500,-44.75,-20.25,42.0,89.48093750000001,65.67500000000001,10.72817315625,33.57
2021-06-29 17:32:23.031250000,-45.0,-20.0,42.0,89.48125,65.48,10.727852875,33.57
2021-06-29 17:32:23.039062500,-45.0,-20.0,42.5,89.48156250000001,63.85,10.72753259375,33.57
2021-06-29 17:32:23.046875000,-45.0,-20.0,43.0,89.481875,62.22,10.7272123125,33.57
2021-06-29 17:32:23.054687500,-45.0,-20.0,43.5,89.48218750000001,59.504999999999995,10.72689203125,33.57
2021-06-29 17:32:23.062500000,-45.0,-20.0,44.0,89.4825,56.79,10.72657175,33.57
2021-06-29 17:32:23.070312500,-44.5,-20.5,43.25,89.48281250000001,53.405,10.72625146875,33.57
2021-06-29 17:32:23.078125000,-44.0,-21.0,42.5,89.483125,50.02,10.7259311875,33.57
2021-06-29 17:32:23.085937500,-43.5,-21.5,41.75,89.48343750000001,46.45,10.725610906250001,33.57
2021-06-29 17:32:23.093750000,-43.0,-22.0,41.0,89.48375,42.88,10.725290625,33.57
2021-06-29 17:32:23.101562500,-43.0,-21.75,41.25,89.48406250000001,39.605000000000004,10.72497034375,33.57
2021-06-29 17:32:23.109375000,-43.0,-21.5,41.5,89.484375,36.33,10.7246500625,33.57
2021-06-29 17:32:23.117187500,-43.0,-21.25,41.75,89.4846875,33.715,10.72432978125,33.57
2021-06-29 17:32:23.125000000,-43.0,-21.0,42.0,89.485,31.1,10.724009500000001,33.57
2021-06-29 17:32:23.132812500,-43.25,-21.0,42.0,89.4853125,29.34,10.72368921875,33.57
2021-06-29 17:32:23.140625000,-43.5,-21.0,42.0,89.485625,27.58,10.7233689375,33.57
2021-06-29 17:32:23.148437500,-43.75,-21.0,42.0,89.4859375,26.659999999999997,10.72304865625,33.57
2021-06-29 17:32:23.156250000,-44.0,-21.0,42.0,89.48625,25.74,10.722728375,33.57
2021-06-29 17:32:23.164062500,-44.25,-20.75,42.0,89.4865625,25.455,10.72240809375,33.57
2021-06-29 17:32:23.171875000,-44.5,-20.5,42.0,89.486875,25.17,10.7220878125,33.57
2021-06-29 17:32:23.179687500,-44.75,-20.25,42.0,89.4871875,25.205,10.72176753125,33.57
2021-06-29 17:32:23.187500000,-45.0,-20.0,42.0,89.4875,25.24,10.72144725,33.57
2021-06-29 17:32:23.195312500,-44.75,-20.0,42.0,89.4878125,25.28,10.721126968750001,33.57
2021-06-29 17:32:23.203125000,-44.5,-20.0,42.0,89.488125,25.32,10.7208066875,33.57
2021-06-29 17:32:23.210937500,-44.25,-20.0,42.0,89.4884375,25.09,10.72048640625,33.57
2021-06-29 17:32:23.218750000,-44.0,-20.0,42.0,89.48875,24.86,10.720166125,33.57
2021-06-29 17:32:23.226562500,-44.0,-20.0,42.0,89.4890625,24.215,10.71984584375,33.57
2021-06-29 17:32:23.234375000,-44.0,-20.0,42.0,89.489375,23.57,10.7195255625,33.57
2021-06-29 17:32:23.242187500,-44.0,-20.0,42.0,89.4896875,22.5,10.71920528125,33.57
2021-06-29 17:32:23.250000000,-44.0,-20.0,42.0,89.49000000000001,21.43,10.718885,33.57
2021-06-29 17:32:23.257812500,-44.0,-20.0,42.0,89.4903125,20.0,10.71732375,33.57
2021-06-29 17:32:23.265625000,-44.0,-20.0,42.0,89.49062500000001,18.57,10.7157625,33.57
2021-06-29 17:32:23.273437500,-44.0,-20.0,42.0,89.4909375,16.875,10.71420125,33.57
2021-06-29 17:32:23.281250000,-44.0,-20.0,42.0,89.49125000000001,15.18,10.71264,33.57
2021-06-29 17:32:23.289062500,-44.0,-20.0,42.0,89.4915625,13.315,10.71107875,33.57
2021-06-29 17:32:23.296875000,-44.0,-20.0,42.0,89.49187500000001,11.45,10.7095175,33.57
2021-06-29 17:32:23.304687500,-44.0,-20.0,42.0,89.4921875,9.434999999999999,10.70795625,33.57
2021-06-29 17:32:23.312500000,-44.0,-20.0,42.0,89.4925,7.42,10.706395,33.57
2021-06-29 17:32:23.320312500,-44.0,-20.0,42.0,89.4928125,5.234999999999999,10.70483375,33.57
2021-06-29 17:32:23.328125000,-44.0,-20.0,42.0,89.493125,3.05,10.7032725,33.57
2021-06-29 17:32:23.335937500,-44.0,-20.0,42.0,89.4934375,0.6200000000000001,10.70171125,33.57
2021-06-29 17:32:23.343750000,-44.0,-20.0,42.0,89.49375,-1.81,10.70015,33.57
2021-06-29 17:32:23.351562500,-44.0,-20.0,42.0,89.4940625,-4.595000000000001,10.69858875,33.57
2021-06-29 17:32:23.359375000,-44.0,-20.0,42.0,89.494375,-7.38,10.6970275,33.57
2021-06-29 17:32:23.367187500,-44.0,-20.0,42.0,89.4946875,-10.67,10.69546625,33.57
2021-06-29 17:32:23.375000000,-44.0,-20.0,42.0,89.495,-13.96,10.693905,33.57
2021-06-29 17:32:23.382812500,-44.0,-20.0,42.0,89.4953125,-17.895,10.69234375,33.57
2021-06-29 17:32:23.390625000,-44.0,-20.0,42.0,89.495625,-21.83,10.6907825,33.57
2021-06-29 17:32:23.398437500,-44.0,-20.0,42.0,89.4959375,-26.52,10.68922125,33.57
2021-06-29 17:32:23.406250000,-44.0,-20.0,42.0,89.49625,-31.21,10.68766,33.57
2021-06-29 17:32:23.414062500,-44.25,-20.0,42.0,89.4965625,-36.555,10.68609875,33.57
2021-06-29 17:32:23.421875000,-44.5,-20.0,42.0,89.496875,-41.9,10.6845375,33.57
2021-06-29 17:32:23.429687500,-44.75,-20.0,42.0,89.4971875,-47.485,10.68297625,33.57
2021-06-29 17:32:23.437500000,-45.0,-20.0,42.0,89.4975,-53.07,10.681415,33.57
2021-06-29 17:32:23.445312500,-44.75,-20.0,42.0,89.4978125,-58.085,10.67985375,33.57
2021-06-29 17:32:23.453125000,-44.5,-20.0,42.0,89.498125,-63.1,10.6782925,33.57
2021-06-29 17:32:23.460937500,-44.25,-20.0,42.0,89.4984375,-66.465,10.67673125,33.57
2021-06-29 17:32:23.468750000,-44.0,-20.0,42.0,89.49875,-69.83,10.67517,33.57
2021-06-29 17:32:23.476562500,-44.0,-20.0,42.0,89.4990625,-70.455,10.67360875,33.57
2021-06-29 17:32:23.484375000,-44.0,-20.0,42.0,89.499375,-71.08,10.6720475,33.57
2021-06-29 17:32:23.492187500,-44.0,-20.0,42.0,89.4996875,-68.245,10.67048625,33.57
2021-06-29 17:32:23.500000000,-44.0,-20.0,42.0,89.5,-65.41,10.668925,33.57
2021-06-29 17:32:23.507812500,-44.0,-20.0,42.0,89.5003125,-59.035,10.6672436875,33.57
2021-06-29 17:32:23.515625000,-44.0,-20.0,42.0,89.500625,-52.66,10.665562375,33.57
2021-06-29 17:32:23.523437500,-44.0,-20.0,42.0,89.5009375,-43.43,10.6638810625,33.57
2021-06-29 17:32:23.531250000,-44.0,-20.0,42.0,89.50125,-34.2,10.66219975,33.57
2021-06-29 17:32:23.539062500,-44.0,-20.0,42.0,89.5015625,-23.355,10.6605184375,33.57
2021-06-29 17:32:23.546875000,-44.0,-20.0,42.0,89.501875,-12.51,10.658837125,33.57
2021-06-29 17:32:23.554687500,-44.0,-20.0,42.0,89.5021875,-1.5149999999999988,10.6571558125,33.57
2021-06-29 17:32:23.562500000,-44.0,-20.0,42.0,89.5025,9.48,10.6554745,33.57
2021-06-29 17:32:23.570312500,-44.0,-20.0,42.0,89.5028125,19.325000000000003,10.6537931875,33.57
2021-06-29 17:32:23.578125000,-44.0,-20.0,42.0,89.503125,29.17,10.652111875,33.57
2021-06-29 17:32:23.585937500,-44.0,-20.0,42.0,89.5034375,37.019999999999996,10.6504305625,33.57
2021-06-29 17:32:23.593750000,-44.0,-20.0,42.0,89.50375,44.87,10.64874925,33.57
2021-06-29 17:32:23.601562500,-44.0,-20.0,42.0,89.5040625,50.379999999999995,10.6470679375,33.57
2021-06-29 17:32:23.609375000,-44.0,-20.0,42.0,89.504375,55.89,10.645386625,33.57
2021-06-29 17:32:23.617187500,-44.0,-20.0,42.0,89.5046875,59.1,10.6437053125,33.57
2021-06-29 17:32:23.625000000,-44.0,-20.0,42.0,89.505,62.31,10.642024,33.57
2021-06-29 17:32:23.632812500,-44.0,-20.0,42.0,89.5053125,63.46,10.6403426875,33.57
2021-06-29 17:32:23.640625000,-44.0,-20.0,42.0,89.505625,64.61,10.638661375,33.57
2021-06-29 17:32:23.648437500,-44.0,-20.0,42.0,89.5059375,63.985,10.636980062500001,33.57
2021-06-29 17:32:23.656250000,-44.0,-20.0,42.0,89.50625,63.36,10.63529875,33.57
2021-06-29 17:32:23.664062500,-44.0,-20.0,42.0,89.5065625,61.265,10.6336174375,33.57
2021-06-29 17:32:23.671875000,-44.0,-20.0,42.0,89.506875,59.17,10.631936125000001,33.57
2021-06-29 17:32:23.679687500,-44.0,-20.0,42.0,89.5071875,55.955,10.6302548125,33.57
2021-06-29 17:32:23.687500000,-44.0,-20.0,42.0,89.5075,52.74,10.6285735,33.57
2021-06-29 17:32:23.695312500,-44.0,-20.0,42.0,89.5078125,48.855000000000004,10.626892187500001,33.57
2021-06-29 17:32:23.703125000,-44.0,-20.0,42.0,89.50812499999999,44.97,10.625210875,33.57
2021-06-29 17:32:23.710937500,-44.0,-20.0,42.0,89.5084375,40.955,10.6235295625,33.57
2021-06-29 17:32:23.718750000,-44.0,-20.0,42.0,89.50874999999999,36.94,10.621848250000001,33.57
2021-06-29 17:32:23.726562500,-44.0,-20.0,42.0,89.5090625,33.33,10.6201669375,33.57
2021-06-29 17:32:23.734375000,-44.0,-20.0,42.0,89.50937499999999,29.72,10.618485625,33.57
2021-06-29 17:32:23.742187500,-44.0,-20.0,42.0,89.5096875,26.924999999999997,10.616804312500001,33.57
2021-06-29 17:32:23.750000000,-44.0,-20.0,42.0,89.50999999999999,24.13,10.615123,33.57
2021-06-29 17:32:23.757812500,-44.0,-20.0,42.0,89.5103125,22.33,10.613321562500001,33.57
2021-06-29 17:32:23.765625000,-44.0,-20.0,42.0,89.510625,20.53,10.611520125,33.57
2021-06-29 17:32:23.773437500,-44.0,-20.0,42.0,89.5109375,19.64,10.609718687500001,33.57
2021-06-29 17:32:23.781250000,-44.0,-20.0,42.0,89.51125,18.75,10.60791725,33.57
2021-06-29 17:32:23.789062500,-44.0,-20.0,42.0,89.5115625,18.509999999999998,10.6061158125,33.57
2021-06-29 17:32:23.796875000,-44.0,-20.0,42.0,89.511875,18.27,10.604314375000001,33.57
2021-06-29 17:32:23.804687500,-44.0,-20.0,42.0,89.5121875,18.325,10.6025129375,33.57
2021-06-29 17:32:23.812500000,-44.0,-20.0,42.0,89.5125,18.38,10.600711500000001,33.57
2021-06-29 17:32:23.820312500,-44.0,-20.0,42.0,89.5128125,18.405,10.5989100625,33.57
2021-06-29 17:32:23.828125000,-44.0,-20.0,42.0,89.513125,18.43,10.597108625,33.57
2021-06-29 17:32:23.835937500,-44.0,-20.0,42.0,89.5134375,18.175,10.595307187500001,33.57
2021-06-29 17:32:23.843750000,-44.0,-20.0,42.0,89.51375,17.92,10.59350575,33.57
2021-06-29 17:32:23.851562500,-44.0,-20.0,42.0,89.5140625,17.235,10.591704312500001,33.57
2021-06-29 17:32:23.859375000,-44.0,-20.0,42.0,89.514375,16.55,10.589902875,33.57
2021-06-29 17:32:23.867187500,-44.0,-20.0,42.0,89.5146875,15.365,10.5881014375,33.57
2021-06-29 17:32:23.875000000,-44.0,-20.0,42.0,89.515,14.18,10.586300000000001,33.57
2021-06-29 17:32:23.882812500,-44.0,-20.0,42.0,89.5153125,12.524999999999999,10.5844985625,33.57
2021-06-29 17:32:23.890625000,-44.0,-20.0,42.0,89.515625,10.87,10.582697125000001,33.57
2021-06-29 17:32:23.898437500,-44.0,-20.0,42.0,89.51593749999999,8.84,10.5808956875,33.57
2021-06-29 17:32:23.906250000,-44.0,-20.0,42.0,89.51625,6.81,10.57909425,33.57
2021-06-29 17:32:23.914062500,-44.0,-20.0,42.0,89.51656249999999,4.525,10.5772928125,33.57
2021-06-29 17:32:23.921875000,-44.0,-20.0,42.0,89.516875,2.24,10.575491375,33.57
2021-06-29 17:32:23.929687500,-44.0,-20.0,42.0,89.51718749999999,-0.18999999999999995,10.573689937500001,33.57
2021-06-29 17:32:23.937500000,-44.0,-20.0,42.0,89.5175,-2.62,10.5718885,33.57
2021-06-29 17:32:23.945312500,-44.0,-20.0,42.0,89.51781249999999,-5.155,10.5700870625,33.57
2021-06-29 17:32:23.953125000,-44.0,-20.0,42.0,89.518125,-7.69,10.568285625,33.57
2021-06-29 17:32:23.960937500,-44.0,-20.0,42.0,89.51843749999999,-10.38,10.5664841875,33.57
2021-06-29 17:32:23.968750000,-44.0,-20.0,42.0,89.51875,-13.07,10.564682750000001,33.57
2021-06-29 17:32:23.976562500,-44.0,-20.0,42.0,89.51906249999999,-16.045,10.5628813125,33.57
2021-06-29 17:32:23.984375000,-44.0,-20.0,42.0,89.519375,-19.02,10.561079875,33.57
2021-06-29 17:32:23.992187500,-44.0,-20.0,42.0,89.51968749999999,-22.455,10.5592784375,33.57
2021-06-29 17:32:24.000000000,-44.0,-20.0,42.0,89.52,-25.89,10.557477,33.57
2021-06-29 17:32:24.007812500,-44.25,-20.0,42.0,89.520078125,-29.945,10.5555955,33.57
2021-06-29 17:32:24.015625000,-44.5,-20.0,42.0,89.52015625,-34.0,10.553714000000001,33.57
2021-06-29 17:32:24.023437500,-44.75,-20.0,42.0,89.520234375,-38.739999999999995,10.5518325,33.57
2021-06-29 17:32:24.031250000,-45.0,-20.0,42.0,89.5203125,-43.48,10.549951,33.57
2021-06-29 17:32:24.039062500,-44.75,-20.0,42.0,89.52039062499999,-48.775,10.5480695,33.57
2021-06-29 17:32:24.046875000,-44.5,-20.0,42.0,89.52046874999999,-54.07,10.546188,33.57
2021-06-29 17:32:24.054687500,-44.25,-20.0,42.0,89.520546875,-59.485,10.5443065,33.57
2021-06-29 17:32:24.062500000,-44.0,-20.0,42.0,89.520625,-64.9,10.542425,33.57
2021-06-29 17:32:24.070312500,-44.0,-20.0,42.0,89.520703125,-69.65,10.5405435,33.57
2021-06-29 17:32:24.078125000,-44.0,-20.0,42.0,89.52078125,-74.4,10.538662,33.57
2021-06-29 17:32:24.085937500,-44.0,-20.0,42.0,89.520859375,-77.44,10.5367805,33.57
2021-06-29 17:32:24.093750000,-44.0,-20.0,42.0,89.5209375,-80.48,10.534899,33.57
2021-06-29 17:32:24.101562500,-44.0,-20.0,42.0,89.52101562499999,-80.755,10.5330175,33.57
2021-06-29 17:32:24.109375000,-44.0,-20.0,42.0,89.52109374999999,-81.03,10.531136,33.57
2021-06-29 17:32:24.117187500,-44.0,-20.0,42.0,89.521171875,-77.825,10.5292545,33.57
2021-06-29 17:32:24.125000000,-44.0,-20.0,42.0,89.52125,-74.62,10.527373,33.57
2021-06-29 17:32:24.132812500,-44.0,-20.0,42.0,89.521328125,-67.85,10.5254915,33.57
2021-06-29 17:32:24.140625000,-44.0,-20.0,42.0,89.52140625,-61.08,10.52361,33.57
2021-06-29 17:32:24.148437500,-44.0,-20.0,42.0,89.521484375,-51.42,10.5217285,33.57
2021-06-29 17:32:24.156250000,-44.0,-20.0,42.0,89.5215625,-41.76,10.519847,33.57
2021-06-29 17:32:24.164062500,-44.25,-20.0,42.25,89.521640625,-30.46,10.517965499999999,33.57
2021-06-29 17:32:24.171875000,-44.5,-20.0,42.5,89.52171874999999,-19.16,10.516084,33.57
2021-06-29 17:32:24.179687500,-44.75,-20.0,42.75,89.52179687499999,-7.725,10.5142025,33.57
2021-06-29 17:32:24.187500000,-45.0,-20.0,43.0,89.521875,3.71,10.512321,33.57
2021-06-29 17:32:24.195312500,-44.75,-20.0,42.75,89.521953125,13.95,10.5104395,33.57
2021-06-29 17:32:24.203125000,-44.5,-20.0,42.5,89.52203125,24.19,10.508557999999999,33.57
2021-06-29 17:32:24.210937500,-44.25,-20.0,42.25,89.522109375,32.35,10.5066765,33.57
2021-06-29 17:32:24.218750000,-44.0,-20.0,42.0,89.5221875,40.51,10.504795,33.57
2021-06-29 17:32:24.226562500,-44.0,-20.0,42.0,89.522265625,46.209999999999994,10.5029135,33.57
2021-06-29 17:32:24.234375000,-44.0,-20.0,42.0,89.52234374999999,51.91,10.501031999999999,33.57
2021-06-29 17:32:24.242187500,-44.0,-20.0,42.0,89.52242187499999,55.19499999999999,10.499150499999999,33.57
2021-06-29 17:32:24.250000000,-44.0,-20.0,42.0,89.5225,58.48,10.497269,33.57
2021-06-29 17:32:24.257812500,-44.0,-20.0,42.0,89.522578125,59.65,10.4957878125,33.57
2021-06-29 17:32:24.265625000,-44.0,-20.0,42.0,89.52265625,60.82,10.494306625,33.57
2021-06-29 17:32:24.273437500,-44.0,-20.0,42.0,89.522734375,60.275,10.492825437499999,33.57
2021-06-29 17:32:24.281250000,-44.0,-20.0,42.0,89.5228125,59.73,10.49134425,33.57
2021-06-29 17:32:24.289062500,-44.0,-20.0,42.0,89.522890625,57.89,10.4898630625,33.57
2021-06-29 17:32:24.296875000,-44.0,-20.0,42.0,89.52296875,56.05,10.488381875,33.57
2021-06-29 17:32:24.304687500,-44.0,-20.0,42.0,89.52304687499999,53.36,10.486900687499999,33.57
2021-06-29 17:32:24.312500000,-44.0,-20.0,42.0,89.523125,50.67,10.485419499999999,33.57
2021-06-29 17:32:24.320312500,-44.0,-20.0,42.0,89.523203125,47.555,10.4839383125,33.57
2021-06-29 17:32:24.328125000,-44.0,-20.0,42.0,89.52328125,44.44,10.482457125,33.57
2021-06-29 17:32:24.335937500,-44.0,-20.0,42.0,89.523359375,41.29,10.4809759375,33.57
2021-06-29 17:32:24.343750000,-44.0,-20.0,42.0,89.5234375,38.14,10.479494749999999,33.57
2021-06-29 17:32:24.351562500,-44.0,-20.0,42.0,89.523515625,35.285,10.4780135625,33.57
2021-06-29 17:32:24.359375000,-44.0,-20.0,42.0,89.52359375,32.43,10.476532375,33.57
2021-06-29 17:32:24.367187500,-44.0,-20.0,42.0,89.52367187499999,30.09,10.4750511875,33.57
2021-06-29 17:32:24.375000000,-44.0,-20.0,42.0,89.52374999999999,27.75,10.473569999999999,33.57
2021-06-29 17:32:24.382812500,-44.0,-20.0,42.0,89.523828125,26.03,10.4720888125,33.57
2021-06-29 17:32:24.390625000,-44.0,-20.0,42.0,89.52390625,24.31,10.470607625,33.57
2021-06-29 17:32:24.398437500,-44.0,-20.0,42.0,89.523984375,23.215,10.4691264375,33.57
2021-06-29 17:32:24.406250000,-44.0,-20.0,42.0,89.5240625,22.12,10.46764525,33.57
2021-06-29 17:32:24.414062500,-44.0,-20.0,42.0,89.524140625,21.565,10.466164062499999,33.57
2021-06-29 17:32:24.421875000,-44.0,-20.0,42.0,89.52421875,21.01,10.464682875,33.57
2021-06-29 17:32:24.429687500,-44.0,-20.0,42.0,89.524296875,20.86,10.4632016875,33.57
2021-06-29 17:32:24.437500000,-44.0,-20.0,42.0,89.52437499999999,20.71,10.4617205,33.57
2021-06-29 17:32:24.445312500,-44.0,-20.0,42.0,89.524453125,20.79,10.4602393125,33.57
2021-06-29 17:32:24.453125000,-44.0,-20.0,42.0,89.52453125,20.87,10.458758125,33.57
2021-06-29 17:32:24.460937500,-44.0,-20.0,42.0,89.524609375,21.005000000000003,10.4572769375,33.57
2021-06-29 17:32:24.468750000,-44.0,-20.0,42.0,89.5246875,21.14,10.45579575,33.57
2021-06-29 17:32:24.476562500,-44.0,-20.0,42.0,89.524765625,21.15,10.4543145625,33.57
2021-06-29 17:32:24.484375000,-44.0,-20.0,42.0,89.52484375,21.16,10.452833374999999,33.57
2021-06-29 17:32:24.492187500,-44.0,-20.0,42.0,89.524921875,20.86,10.4513521875,33.57
2021-06-29 17:32:24.500000000,-44.0,-20.0,42.0,89.525,20.56,10.449871,33.57
2021-06-29 17:32:24.507812500,-44.0,-20.0,42.0,89.525078125,19.78,10.448469875,33.57
2021-06-29 17:32:24.515625000,-44.0,-20.0,42.0,89.52515625,19.0,10.44706875,33.57
2021-06-29 17:32:24.523437500,-44.0,-20.0,42.0,89.525234375,17.575,10.445667625,33.57
2021-06-29 17:32:24.531250000,-44.0,-20.0,42.0,89.5253125,16.15,10.4442665,33.57
2021-06-29 17:32:24.539062500,-44.0,-20.0,42.0,89.525390625,13.959999999999999,10.442865375,33.57
2021-06-29 17:32:24.546875000,-44.0,-20.0,42.0,89.52546875,11.77,10.44146425,33.57
2021-06-29 17:32:24.554687500,-44.0,-20.0,42.0,89.525546875,8.835,10.440063125,33.57
2021-06-29 17:32:24.562500000,-44.0,-20.0,42.0,89.525625,5.9,10.438662,33.57
2021-06-29 17:32:24.570312500,-44.0,-20.0,42.0,89.52570312499999,2.365,10.437260875,33.57
2021-06-29 17:32:24.578125000,-44.0,-20.0,42.0,89.52578125,-1.17,10.43585975,33.57
2021-06-29 17:32:24.585937500,-44.0,-20.0,42.0,89.525859375,-5.03,10.434458625,33.57
2021-06-29 17:32:24.593750000,-44.0,-20.0,42.0,89.5259375,-8.89,10.4330575,33.57
2021-06-29 17:32:24.601562500,-44.0,-20.0,42.0,89.526015625,-12.775,10.431656375,33.57
2021-06-29 17:32:24.609375000,-44.0,-20.0,42.0,89.52609375,-16.66,10.43025525,33.57
2021-06-29 17:32:24.617187500,-44.0,-20.0,42.0,89.526171875,-20.34,10.428854124999999,33.57
2021-06-29 17:32:24.625000000,-44.0,-20.0,42.0,89.52625,-24.02,10.427453,33.57
2021-06-29 17:32:24.632812500,-44.0,-20.0,42.0,89.526328125,-27.48,10.426051875,33.57
2021-06-29 17:32:24.640625000,-44.0,-20.0,42.0,89.52640625,-30.94,10.42465075,33.57
2021-06-29 17:32:24.648437500,-44.0,-20.0,42.0,89.526484375,-34.37,10.423249625,33.57
2021-06-29 17:32:24.656250000,-44.0,-20.0,42.0,89.5265625,-37.8,10.4218485,33.57
2021-06-29 17:32:24.664062500,-44.0,-20.0,42.0,89.526640625,-41.54,10.420447375,33.57
2021-06-29 17:32:24.671875000,-44.0,-20.0,42.0,89.52671875,-45.28,10.41904625,33.57
2021-06-29 17:32:24.679687500,-44.0,-20.0,42.0,89.526796875,-49.6,10.417645125,33.57
2021-06-29 17:32:24.687500000,-44.0,-20.0,42.0,89.526875,-53.92,10.416243999999999,33.57
2021-06-29 17:32:24.695312500,-44.0,-20.0,42.0,89.526953125,-58.769999999999996,10.414842875,33.57
2021-06-29 17:32:24.703125000,-44.0,-20.0,42.0,89.52703125,-63.62,10.41344175,33.57
2021-06-29 17:32:24.710937500,-44.0,-20.0,42.0,89.527109375,-68.505,10.412040625,33.57
2021-06-29 17:32:24.718750000,-44.0,-20.0,42.0,89.5271875,-73.39,10.4106395,33.57
2021-06-29 17:32:24.726562500,-44.0,-20.0,42.0,89.527265625,-77.35,10.409238375,33.57
2021-06-29 17:32:24.734375000,-44.0,-20.0,42.0,89.52734375,-81.31,10.40783725,33.57
2021-06-29 17:32:24.742187500,-44.0,-20.0,42.0,89.527421875,-83.16,10.406436124999999,33.57
2021-06-29 17:32:24.750000000,-44.0,-20.0,42.0,89.5275,-85.01,10.405035,33.57
2021-06-29 17:32:24.757812500,-44.0,-20.0,42.0,89.527578125,-83.745,10.40415428125,33.57
2021-06-29 17:32:24.765625000,-44.0,-20.0,42.0,89.52765625,-82.48,10.403273562499999,33.57
2021-06-29 17:32:24.773437500,-44.0,-20.0,42.0,89.527734375,-77.635,10.40239284375,33.57
2021-06-29 17:32:24.781250000,-44.0,-20.0,42.0,89.5278125,-72.79,10.401512125,33.57
2021-06-29 17:32:24.789062500,-44.25,-20.0,42.0,89.527890625,-64.69,10.40063140625,33.57
2021-06-29 17:32:24.796875000,-44.5,-20.0,42.0,89.52796875,-56.59,10.3997506875,33.57
2021-06-29 17:32:24.804687500,-44.75,-20.0,42.0,89.528046875,-46.265,10.39886996875,33.57
2021-06-29 17:32:24.812500000,-45.0,-20.0,42.0,89.528125,-35.94,10.39798925,33.57
2021-06-29 17:32:24.820312500,-44.75,-20.0,42.0,89.528203125,-24.825,10.39710853125,33.57
2021-06-29 17:32:24.828125000,-44.5,-20.0,42.0,89.52828125,-13.71,10.3962278125,33.57
2021-06-29 17:32:24.835937500,-44.25,-20.0,42.0,89.528359375,-3.1950000000000003,10.395347093749999,33.57
2021-06-29 17:32:24.843750000,-44.0,-20.0,42.0,89.5284375,7.32,10.394466375,33.57
2021-06-29 17:32:24.851562500,-44.0,-20.0,42.0,89.528515625,16.225,10.39358565625,33.57
2021-06-29 17:32:24.859375000,-44.0,-20.0,42.0,89.52859375,25.13,10.3927049375,33.57
2021-06-29 17:32:24.867187500,-44.0,-20.0,42.0,89.528671875,31.924999999999997,10.39182421875,33.57
2021-06-29 17:32:24.875000000,-44.0,-20.0,42.0,89.52875,38.72,10.390943499999999,33.57
2021-06-29 17:32:24.882812500,-44.0,-20.0,42.0,89.528828125,43.345,10.39006278125,33.57
2021-06-29 17:32:24.890625000,-44.0,-20.0,42.0,89.52890625,47.97,10.3891820625,33.57
2021-06-29 17:32:24.898437500,-44.0,-20.0,42.0,89.52898437500001,50.575,10.38830134375,33.57
2021-06-29 17:32:24.906250000,-44.0,-20.0,42.0,89.5290625,53.18,10.387420624999999,33.57
2021-06-29 17:32:24.914062500,-44.0,-20.0,42.0,89.529140625,53.989999999999995,10.38653990625,33.57
2021-06-29 17:32:24.921875000,-44.0,-20.0,42.0,89.52921875,54.8,10.3856591875,33.57
2021-06-29 17:32:24.929687500,-44.0,-20.0,42.0,89.529296875,54.04,10.38477846875,33.57
2021-06-29 17:32:24.937500000,-44.0,-20.0,42.0,89.529375,53.28,10.38389775,33.57
2021-06-29 17:32:24.945312500,-44.25,-20.0,42.0,89.529453125,51.235,10.383017031249999,33.57
2021-06-29 17:32:24.953125000,-44.5,-20.0,42.0,89.52953125,49.19,10.3821363125,33.57
2021-06-29 17:32:24.960937500,-44.75,-20.0,42.0,89.529609375,46.265,10.38125559375,33.57
2021-06-29 17:32:24.968750000,-45.0,-20.0,42.0,89.5296875,43.34,10.380374875,33.57
2021-06-29 17:32:24.976562500,-44.75,-20.0,42.0,89.529765625,40.06,10.379494156249999,33.57
2021-06-29 17:32:24.984375000,-44.5,-20.0,42.0,89.52984375,36.78,10.3786134375,33.57
2021-06-29 17:32:24.992187500,-44.25,-20.0,42.0,89.529921875,33.68,10.37773271875,33.57
2021-06-29 17:32:25.000000000,-44.0,-20.0,42.0,89.53,30.58,10.376852,33.57
2021-06-29 17:32:25.007812500,-44.0,-20.0,42.0,89.53015625,28.07,10.3762115,33.57
2021-06-29 17:32:25.015625000,-44.0,-20.0,42.0,89.53031250000001,25.56,10.375570999999999,33.57
2021-06-29 17:32:25.023437500,-44.0,-20.0,42.0,89.53046875,23.805,10.3749305,33.57
2021-06-29 17:32:25.031250000,-44.0,-20.0,42.0,89.530625,22.05,10.37429,33.57
2021-06-29 17:32:25.039062500,-44.0,-20.25,42.0,89.53078125,20.98,10.373649499999999,33.57
2021-06-29 17:32:25.046875000,-44.0,-20.5,42.0,89.53093750000001,19.91,10.373009,33.57
2021-06-29 17:32:25.054687500,-44.0,-20.75,42.0,89.53109375,19.305,10.3723685,33.57
2021-06-29 17:32:25.062500000,-44.0,-21.0,42.0,89.53125,18.7,10.371728,33.57
2021-06-29 17:32:25.070312500,-44.0,-20.75,42.0,89.53140625,18.32,10.3710875,33.57
2021-06-29 17:32:25.078125000,-44.0,-20.5,42.0,89.5315625,17.94,10.370447,33.57
2021-06-29 17:32:25.085937500,-44.0,-20.25,42.0,89.53171875,17.615000000000002,10.3698065,33.57
2021-06-29 17:32:25.093750000,-44.0,-20.0,42.0,89.531875,17.29,10.369166,33.57
2021-06-29 17:32:25.101562500,-44.0,-20.0,42.0,89.53203125,16.975,10.3685255,33.57
2021-06-29 17:32:25.109375000,-44.0,-20.0,42.0,89.5321875,16.66,10.367885,33.57
2021-06-29 17:32:25.117187500,-44.0,-20.0,42.0,89.53234375,16.36,10.3672445,33.57
2021-06-29 17:32:25.125000000,-44.0,-20.0,42.0,89.5325,16.06,10.366603999999999,33.57
2021-06-29 17:32:25.132812500,-44.0,-20.0,42.0,89.53265625,15.739999999999998,10.3659635,33.57
2021-06-29 17:32:25.140625000,-44.0,-20.0,42.0,89.5328125,15.42,10.365323,33.57
2021-06-29 17:32:25.148437500,-44.0,-20.0,42.0,89.53296875,14.965,10.364682499999999,33.57
2021-06-29 17:32:25.156250000,-44.0,-20.0,42.0,89.533125,14.51,10.364042,33.57
2021-06-29 17:32:25.164062500,-44.0,-20.0,42.0,89.53328125,13.73,10.3634015,33.57
2021-06-29 17:32:25.171875000,-44.0,-20.0,42.0,89.5334375,12.95,10.362760999999999,33.57
2021-06-29 17:32:25.179687500,-44.0,-20.0,42.0,89.53359375,11.629999999999999,10.3621205,33.57
2021-06-29 17:32:25.187500000,-44.0,-20.0,42.0,89.53375,10.31,10.36148,33.57
2021-06-29 17:32:25.195312500,-44.0,-20.0,42.0,89.53390625,8.345,10.360839499999999,33.57
2021-06-29 17:32:25.203125000,-44.0,-20.0,42.0,89.5340625,6.38,10.360199,33.57
2021-06-29 17:32:25.210937500,-44.0,-20.0,42.0,89.53421875,3.82,10.3595585,33.57
2021-06-29 17:32:25.218750000,-44.0,-20.0,42.0,89.534375,1.26,10.358918,33.57
2021-06-29 17:32:25.226562500,-44.0,-20.0,42.0,89.53453125,-1.6699999999999997,10.3582775,33.57
2021-06-29 17:32:25.234375000,-44.0,-20.0,42.0,89.5346875,-4.6,10.357637,33.57
2021-06-29 17:32:25.242187500,-44.0,-20.0,42.0,89.53484375,-7.58,10.3569965,33.57
2021-06-29 17:32:25.250000000,-44.0,-20.0,42.0,89.535,-10.56,10.356356,33.57
2021-06-29 17:32:25.257812500,-44.0,-20.0,42.0,89.53515625,-13.309999999999999,10.35543528125,33.57
2021-06-29 17:32:25.265625000,-44.0,-20.0,42.0,89.5353125,-16.06,10.3545145625,33.57
2021-06-29 17:32:25.273437500,-44.0,-20.0,42.0,89.53546875,-18.445,10.35359384375,33.57
2021-06-29 17:32:25.281250000,-44.0,-20.0,42.0,89.535625,-20.83,10.352673124999999,33.57
2021-06-29 17:32:25.289062500,-44.0,-20.0,42.0,89.53578125,-22.924999999999997,10.35175240625,33.57
2021-06-29 17:32:25.296875000,-44.0,-20.0,42.0,89.5359375,-25.02,10.3508316875,33.57
2021-06-29 17:32:25.304687500,-44.0,-20.0,42.0,89.53609375,-27.1,10.34991096875,33.57
2021-06-29 17:32:25.312500000,-44.0,-20.0,42.0,89.53625,-29.18,10.34899025,33.57
2021-06-29 17:32:25.320312500,-44.0,-20.0,42.0,89.53640625,-31.655,10.34806953125,33.57
2021-06-29 17:32:25.328125000,-44.0,-20.0,42.0,89.5365625,-34.13,10.3471488125,33.57
2021-06-29 17:32:25.335937500,-44.0,-20.0,42.0,89.53671875,-37.34,10.34622809375,33.57
2021-06-29 17:32:25.343750000,-44.0,-20.0,42.0,89.536875,-40.55,10.345307375,33.57
2021-06-29 17:32:25.351562500,-44.0,-20.0,42.0,89.53703125,-44.61,10.34438665625,33.57
2021-06-29 17:32:25.359375000,-44.0,-20.0,42.0,89.5371875,-48.67,10.3434659375,33.57
2021-06-29 17:32:25.367187500,-44.0,-20.0,42.0,89.53734375,-53.305,10.34254521875,33.57
2021-06-29 17:32:25.375000000,-44.0,-20.0,42.0,89.5375,-57.94,10.3416245,33.57
2021-06-29 17:32:25.382812500,-44.0,-20.0,42.0,89.53765625,-62.425,10.34070378125,33.57
2021-06-29 17:32:25.390625000,-44.0,-20.0,42.0,89.5378125,-66.91,10.3397830625,33.57
2021-06-29 17:32:25.398437500,-44.0,-20.0,42.0,89.53796875,-70.215,10.33886234375,33.57
2021-06-29 17:32:25.406250000,-44.0,-20.0,42.0,89.538125,-73.52,10.337941625,33.57
2021-06-29 17:32:25.414062500,-44.0,-20.25,42.0,89.53828125,-74.57499999999999,10.33702090625,33.57
2021-06-29 17:32:25.421875000,-44.0,-20.5,42.0,89.5384375,-75.63,10.3361001875,33.57
2021-06-29 17:32:25.429687500,-44.0,-20.75,42.0,89.53859375,-73.66,10.33517946875,33.57
2021-06-29 17:32:25.437500000,-44.0,-21.0,42.0,89.53875,-71.69,10.33425875,33.57
2021-06-29 17:32:25.445312500,-44.0,-21.0,42.0,89.53890625,-66.50999999999999,10.33333803125,33.57
2021-06-29 17:32:25.453125000,-44.0,-21.0,42.0,89.5390625,-61.33,10.3324173125,33.57
2021-06-29 17:32:25.460937500,-44.0,-21.0,42.0,89.53921875,-53.415,10.33149659375,33.57
2021-06-29 17:32:25.468750000,-44.0,-21.0,42.0,89.53937499999999,-45.5,10.330575875000001,33.57
2021-06-29 17:32:25.476562500,-44.0,-20.75,42.0,89.53953125,-35.86,10.32965515625,33.57
2021-06-29 17:32:25.484375000,-44.0,-20.5,42.0,89.5396875,-26.22,10.3287344375,33.57
2021-06-29 17:32:25.492187500,-44.0,-20.25,42.0,89.53984375,-16.115,10.32781371875,33.57
2021-06-29 17:32:25.500000000,-44.0,-20.0,42.0,89.53999999999999,-6.01,10.326893,33.57
2021-06-29 17:32:25.507812500,-44.0,-20.0,42.0,89.54015625,3.389999999999999,10.32553190625,33.57
2021-06-29 17:32:25.515625000,-44.0,-20.0,42.0,89.5403125,12.79,10.3241708125,33.57
2021-06-29 17:32:25.523437500,-44.0,-20.0,42.0,89.54046875,20.625,10.32280971875,33.57
2021-06-29 17:32:25.531250000,-44.0,-20.0,42.0,89.540625,28.46,10.321448625,33.57
2021-06-29 17:32:25.539062500,-44.0,-20.0,42.0,89.54078125,34.285,10.32008753125,33.57
2021-06-29 17:32:25.546875000,-44.0,-20.0,42.0,89.5409375,40.11,10.3187264375,33.57
2021-06-29 17:32:25.554687500,-44.0,-20.0,42.0,89.54109375,43.785,10.31736534375,33.57
2021-06-29 17:32:25.562500000,-44.0,-20.0,42.0,89.54125,47.46,10.31600425,33.57
2021-06-29 17:32:25.570312500,-44.0,-20.0,42.0,89.54140625,49.11,10.31464315625,33.57
2021-06-29 17:32:25.578125000,-44.0,-20.0,42.0,89.5415625,50.76,10.3132820625,33.57
2021-06-29 17:32:25.585937500,-44.0,-20.0,42.0,89.54171875,50.644999999999996,10.31192096875,33.57
2021-06-29 17:32:25.593750000,-44.0,-20.0,42.0,89.541875,50.53,10.310559875000001,33.57
2021-06-29 17:32:25.601562500,-44.0,-20.0,42.0,89.54203125,48.995000000000005,10.30919878125,33.57
2021-06-29 17:32:25.609375000,-44.0,-20.0,42.0,89.5421875,47.46,10.307837687500001,33.57
2021-06-29 17:32:25.617187500,-44.0,-20.0,42.0,89.54234375,44.905,10.30647659375,33.57
2021-06-29 17:32:25.625000000,-44.0,-20.0,42.0,89.5425,42.35,10.3051155,33.57
2021-06-29 17:32:25.632812500,-44.0,-20.0,42.0,89.54265625,39.215,10.30375440625,33.57
2021-06-29 17:32:25.640625000,-44.0,-20.0,42.0,89.5428125,36.08,10.3023933125,33.57
2021-06-29 17:32:25.648437500,-44.0,-20.0,42.0,89.54296875,32.805,10.30103221875,33.57
2021-06-29 17:32:25.656250000,-44.0,-20.0,42.0,89.543125,29.53,10.299671125,33.57
2021-06-29 17:32:25.664062500,-44.0,-20.0,42.0,89.54328124999999,26.475,10.29831003125,33.57
2021-06-29 17:32:25.671875000,-44.0,-20.0,42.0,89.5434375,23.42,10.2969489375,33.57
2021-06-29 17:32:25.679687500,-44.0,-20.0,42.0,89.54359375,20.855,10.29558784375,33.57
2021-06-29 17:32:25.687500000,-44.0,-20.0,42.0,89.54375,18.29,10.29422675,33.57
2021-06-29 17:32:25.695312500,-44.0,-20.0,42.0,89.54390624999999,16.375,10.292865656250001,33.57
2021-06-29 17:32:25.703125000,-44.0,-20.0,42.0,89.5440625,14.46,10.2915045625,33.57
2021-06-29 17:32:25.710937500,-44.0,-20.0,42.0,89.54421875,13.225000000000001,10.290143468750001,33.57
2021-06-29 17:32:25.718750000,-44.0,-20.0,42.0,89.544375,11.99,10.288782375,33.57
2021-06-29 17:32:25.726562500,-44.0,-20.0,42.0,89.54453124999999,11.395,10.287421281250001,33.57
2021-06-29 17:32:25.734375000,-44.0,-20.0,42.0,89.5446875,10.8,10.2860601875,33.57
2021-06-29 17:32:25.742187500,-44.0,-20.0,42.0,89.54484375,10.725000000000001,10.284699093750001,33.57
2021-06-29 17:32:25.750000000,-44.0,-20.0,42.0,89.545,10.65,10.283338,33.57
2021-06-29 17:32:25.757812500,-44.0,-20.0,42.0,89.54515625,10.905000000000001,10.283017718750001,33.57
2021-06-29 17:32:25.765625000,-44.0,-20.0,42.0,89.5453125,11.16,10.282697437500001,33.57
2021-06-29 17:32:25.773437500,-44.0,-20.0,42.0,89.54546875,11.545,10.28237715625,33.57
2021-06-29 17:32:25.781250000,-44.0,-20.0,42.0,89.545625,11.93,10.282056875,33.57
2021-06-29 17:32:25.789062500,-44.25,-20.0,42.0,89.54578125,12.205,10.28173659375,33.57
2021-06-29 17:32:25.796875000,-44.5,-20.0,42.0,89.5459375,12.48,10.281416312500001,33.57
2021-06-29 17:32:25.804687500,-44.75,-20.0,42.0,89.54609375,12.445,10.28109603125,33.57
2021-06-29 17:32:25.812500000,-45.0,-20.0,42.0,89.54625,12.41,10.28077575,33.57
2021-06-29 17:32:25.820312500,-44.75,-20.0,42.0,89.54640625,11.91,10.28045546875,33.57
2021-06-29 17:32:25.828125000,-44.5,-20.0,42.0,89.5465625,11.41,10.2801351875,33.57
2021-06-29 17:32:25.835937500,-44.25,-20.0,42.0,89.54671875,10.385,10.279814906250001,33.57
2021-06-29 17:32:25.843750000,-44.0,-20.0,42.0,89.546875,9.36,10.279494625,33.57
2021-06-29 17:32:25.851562500,-44.0,-20.0,42.0,89.54703125,7.834999999999999,10.27917434375,33.57
2021-06-29 17:32:25.859375000,-44.0,-20.0,42.0,89.54718749999999,6.31,10.2788540625,33.57
2021-06-29 17:32:25.867187500,-44.0,-20.0,42.0,89.54734375,4.395,10.278533781250001,33.57
2021-06-29 17:32:25.875000000,-44.0,-20.0,42.0,89.5475,2.48,10.2782135,33.57
2021-06-29 17:32:25.882812500,-44.0,-20.0,42.0,89.54765625,0.30500000000000016,10.27789321875,33.57
2021-06-29 17:32:25.890625000,-44.0,-20.0,42.0,89.54781249999999,-1.87,10.2775729375,33.57
2021-06-29 17:32:25.898437500,-44.0,-20.0,42.0,89.54796875,-4.16,10.27725265625,33.57
2021-06-29 17:32:25.906250000,-44.0,-20.0,42.0,89.548125,-6.45,10.276932375000001,33.57
2021-06-29 17:32:25.914062500,-44.0,-20.0,42.0,89.54828125,-8.75,10.27661209375,33.57
2021-06-29 17:32:25.921875000,-44.0,-20.0,42.0,89.54843749999999,-11.05,10.2762918125,33.57
2021-06-29 17:32:25.929687500,-44.0,-20.0,42.0,89.54859375,-13.315000000000001,10.27597153125,33.57
2021-06-29 17:32:25.937500000,-44.0,-20.0,42.0,89.54875,-15.58,10.275651250000001,33.57
2021-06-29 17:32:25.945312500,-44.0,-20.0,42.0,89.54890625,-17.83,10.275330968750001,33.57
2021-06-29 17:32:25.953125000,-44.0,-20.0,42.0,89.54906249999999,-20.08,10.2750106875,33.57
2021-06-29 17:32:25.960937500,-44.0,-20.0,42.0,89.54921875,-22.424999999999997,10.27469040625,33.57
2021-06-29 17:32:25.968750000,-44.0,-20.0,42.0,89.549375,-24.77,10.274370125,33.57
2021-06-29 17:32:25.976562500,-44.0,-20.0,42.0,89.54953125,-27.41,10.274049843750001,33.57
2021-06-29 17:32:25.984375000,-44.0,-20.0,42.0,89.54968749999999,-30.05,10.2737295625,33.57
2021-06-29 17:32:25.992187500,-44.0,-20.0,42.0,89.54984375,-33.205,10.27340928125,33.57
2021-06-29 17:32:26.000000000,-44.0,-20.0,42.0,89.55,-36.36,10.273089,33.57
2021-06-29 17:32:26.007812500,-44.0,-20.0,42.0,89.55015625,-40.165,10.27212825,33.569375
2021-06-29 17:32:26.015625000,-44.0,-20.0,42.0,89.5503125,-43.97,10.2711675,33.56875
2021-06-29 17:32:26.023437500,-44.0,-20.0,42.0,89.55046875,-48.29,10.27020675,33.568125
2021-06-29 17:32:26.031250000,-44.0,-20.0,42.0,89.550625,-52.61,10.269246,33.5675
2021-06-29 17:32:26.039062500,-44.25,-20.0,42.0,89.55078125,-56.935,10.26828525,33.566875
2021-06-29 17:32:26.046875000,-44.5,-20.0,42.0,89.5509375,-61.26,10.2673245,33.56625
2021-06-29 17:32:26.054687500,-44.75,-20.0,42.0,89.55109374999999,-64.725,10.26636375,33.565625
2021-06-29 17:32:26.062500000,-45.0,-20.0,42.0,89.55125,-68.19,10.265403000000001,33.565
2021-06-29 17:32:26.070312500,-44.75,-20.0,42.0,89.55140625,-69.78999999999999,10.26444225,33.564375
2021-06-29 17:32:26.078125000,-44.5,-20.0,42.0,89.5515625,-71.39,10.263481500000001,33.56375
2021-06-29 17:32:26.085937500,-44.25,-20.0,42.0,89.55171874999999,-70.25,10.26252075,33.563125
2021-06-29 17:32:26.093750000,-44.0,-20.0,42.0,89.551875,-69.11,10.261560000000001,33.5625
2021-06-29 17:32:26.101562500,-44.0,-20.0,42.0,89.55203125,-64.86,10.26059925,33.561875
2021-06-29 17:32:26.109375000,-44.0,-20.0,42.0,89.5521875,-60.61,10.259638500000001,33.56125
2021-06-29 17:32:26.117187500,-44.0,-20.0,42.0,89.55234374999999,-53.489999999999995,10.25867775,33.560625
2021-06-29 17:32:26.125000000,-44.0,-20.0,42.0,89.5525,-46.37,10.257717,33.56
2021-06-29 17:32:26.132812500,-44.0,-20.0,42.0,89.55265625,-37.22,10.25675625,33.559374999999996
2021-06-29 17:32:26.140625000,-44.0,-20.0,42.0,89.5528125,-28.07,10.2557955,33.558749999999996
2021-06-29 17:32:26.148437500,-44.0,-20.0,42.0,89.55296874999999,-18.060000000000002,10.25483475,33.558125
2021-06-29 17:32:26.156250000,-44.0,-20.0,42.0,89.553125,-8.05,10.253874,33.5575
2021-06-29 17:32:26.164062500,-44.0,-20.0,42.0,89.55328125,1.6050000000000004,10.25291325,33.556875
2021-06-29 17:32:26.171875000,-44.0,-20.0,42.0,89.5534375,11.26,10.2519525,33.55625
2021-06-29 17:32:26.179687500,-44.0,-20.0,42.0,89.55359374999999,19.6,10.25099175,33.555625
2021-06-29 17:32:26.187500000,-44.0,-20.0,42.0,89.55375,27.94,10.250031,33.555
2021-06-29 17:32:26.195312500,-44.0,-20.0,42.25,89.55390625,34.35,10.24907025,33.554375
2021-06-29 17:32:26.203125000,-44.0,-20.0,42.5,89.5540625,40.76,10.2481095,33.55375
2021-06-29 17:32:26.210937500,-44.0,-20.0,42.75,89.55421874999999,44.959999999999994,10.247148750000001,33.553124999999994
2021-06-29 17:32:26.218750000,-44.0,-20.0,43.0,89.554375,49.16,10.246188,33.552499999999995
2021-06-29 17:32:26.226562500,-44.0,-20.0,43.0,89.55453125,51.16,10.245227250000001,33.551874999999995
2021-06-29 17:32:26.234375000,-44.0,-20.0,43.0,89.5546875,53.16,10.2442665,33.551249999999996
2021-06-29 17:32:26.242187500,-44.0,-20.0,43.0,89.55484374999999,53.12,10.243305750000001,33.550625
2021-06-29 17:32:26.250000000,-44.0,-20.0,43.0,89.55499999999999,53.08,10.242345,33.55
2021-06-29 17:32:26.257812500,-44.0,-20.0,42.75,89.55515625,51.32,10.24246509375,33.55
2021-06-29 17:32:26.265625000,-44.0,-20.0,42.5,89.5553125,49.56,10.2425851875,33.55
2021-06-29 17:32:26.273437500,-44.0,-20.0,42.25,89.55546875,46.540000000000006,10.24270528125,33.55
2021-06-29 17:32:26.281250000,-44.0,-20.0,42.0,89.55562499999999,43.52,10.242825375,33.55
2021-06-29 17:32:26.289062500,-44.0,-20.0,42.0,89.55578125,39.825,10.24294546875,33.55
2021-06-29 17:32:26.296875000,-44.0,-20.0,42.0,89.5559375,36.13,10.2430655625,33.55
2021-06-29 17:32:26.304687500,-44.0,-20.0,42.0,89.55609375,32.39,10.24318565625,33.55
2021-06-29 17:32:26.312500000,-44.0,-20.0,42.0,89.55624999999999,28.65,10.243305750000001,33.55
2021-06-29 17:32:26.320312500,-44.0,-20.0,42.0,89.55640625,25.445,10.24342584375,33.55
2021-06-29 17:32:26.328125000,-44.0,-20.0,42.0,89.5565625,22.24,10.2435459375,33.55
2021-06-29 17:32:26.335937500,-44.0,-20.0,42.0,89.55671875,19.92,10.243666031250001,33.55
2021-06-29 17:32:26.343750000,-44.0,-20.0,42.0,89.55687499999999,17.6,10.243786125,33.55
2021-06-29 17:32:26.351562500,-44.0,-20.0,42.0,89.55703125,16.26,10.24390621875,33.55
2021-06-29 17:32:26.359375000,-44.0,-20.0,42.0,89.5571875,14.92,10.2440263125,33.55
2021-06-29 17:32:26.367187500,-44.0,-20.0,42.0,89.55734375,14.375,10.24414640625,33.55
2021-06-29 17:32:26.375000000,-44.0,-20.0,42.0,89.55749999999999,13.83,10.2442665,33.55
2021-06-29 17:32:26.382812500,-44.0,-20.0,42.0,89.55765625,13.719999999999999,10.24438659375,33.55
2021-06-29 17:32:26.390625000,-44.0,-20.0,42.0,89.5578125,13.61,10.2445066875,33.55
2021-06-29 17:32:26.398437500,-44.0,-20.0,42.0,89.55796875,13.594999999999999,10.24462678125,33.55
2021-06-29 17:32:26.406250000,-44.0,-20.0,42.0,89.55812499999999,13.58,10.244746875,33.55
2021-06-29 17:32:26.414062500,-44.0,-20.0,42.0,89.55828125,13.425,10.24486696875,33.55
2021-06-29 17:32:26.421875000,-44.0,-20.0,42.0,89.5584375,13.27,10.2449870625,33.55
2021-06-29 17:32:26.429687500,-44.0,-20.0,42.0,89.55859375,12.91,10.24510715625,33.55
2021-06-29 17:32:26.437500000,-44.0,-20.0,42.0,89.55874999999999,12.55,10.24522725,33.55
2021-06-29 17:32:26.445312500,-44.0,-20.0,42.0,89.55890624999999,12.035,10.24534734375,33.55
2021-06-29 17:32:26.453125000,-44.0,-20.0,42.0,89.5590625,11.52,10.2454674375,33.55
2021-06-29 17:32:26.460937500,-44.0,-20.0,42.0,89.55921875,10.91,10.24558753125,33.55
2021-06-29 17:32:26.468750000,-44.0,-20.0,42.0,89.55937499999999,10.3,10.245707625,33.55
2021-06-29 17:32:26.476562500,-44.0,-20.0,42.0,89.55953124999999,9.56,10.24582771875,33.55
2021-06-29 17:32:26.484375000,-44.0,-20.0,42.0,89.5596875,8.82,10.2459478125,33.55
2021-06-29 17:32:26.492187500,-44.0,-20.0,42.0,89.55984375,7.83,10.24606790625,33.55
2021-06-29 17:32:26.500000000,-44.0,-20.0,42.0,89.56,6.84,10.246188,33.55
2021-06-29 17:32:26.507812500,-44.0,-20.0,42.0,89.56015624999999,5.4350000000000005,10.24534734375,33.55
2021-06-29 17:32:26.515625000,-44.0,-20.0,42.0,89.5603125,4.03,10.2445066875,33.55
2021-06-29 17:32:26.523437500,-44.0,-20.0,42.0,89.56046875,2.125,10.24366603125,33.55
2021-06-29 17:32:26.531250000,-44.0,-20.0,42.0,89.560625,0.22,10.242825375,33.55
2021-06-29 17:32:26.539062500,-44.0,-20.0,42.0,89.56078124999999,-2.1449999999999996,10.24198471875,33.55
2021-06-29 17:32:26.546875000,-44.0,-20.0,42.0,89.5609375,-4.51,10.2411440625,33.55
2021-06-29 17:32:26.554687500,-44.0,-20.0,42.0,89.56109375,-7.17,10.24030340625,33.55
2021-06-29 17:32:26.562500000,-44.0,-20.0,42.0,89.56125,-9.83,10.23946275,33.55
2021-06-29 17:32:26.570312500,-44.0,-20.0,42.0,89.56140624999999,-12.57,10.23862209375,33.55
2021-06-29 17:32:26.578125000,-44.0,-20.0,42.0,89.5615625,-15.31,10.2377814375,33.55
2021-06-29 17:32:26.585937500,-44.0,-20.0,42.0,89.56171875,-17.93,10.23694078125,33.55
2021-06-29 17:32:26.593750000,-44.0,-20.0,42.0,89.561875,-20.55,10.236100125,33.55
2021-06-29 17:32:26.601562500,-44.0,-20.0,42.0,89.56203124999999,-22.975,10.23525946875,33.55
2021-06-29 17:32:26.609375000,-44.0,-20.0,42.0,89.5621875,-25.4,10.2344188125,33.55
2021-06-29 17:32:26.617187500,-44.0,-20.0,42.0,89.56234375,-27.67,10.23357815625,33.55
2021-06-29 17:32:26.625000000,-44.0,-20.0,42.0,89.5625,-29.94,10.232737499999999,33.55
2021-06-29 17:32:26.632812500,-44.0,-20.0,42.0,89.56265624999999,-32.2,10.23189684375,33.55
2021-06-29 17:32:26.640625000,-44.0,-20.0,42.0,89.56281249999999,-34.46,10.2310561875,33.55
2021-06-29 17:32:26.648437500,-44.0,-20.0,42.0,89.56296875,-36.915,10.23021553125,33.55
2021-06-29 17:32:26.656250000,-44.0,-20.0,42.0,89.563125,-39.37,10.229374875,33.55
2021-06-29 17:32:26.664062500,-44.0,-20.0,42.0,89.56328124999999,-42.26,10.22853421875,33.55
2021-06-29 17:32:26.671875000,-44.0,-20.0,42.0,89.56343749999999,-45.15,10.227693562499999,33.55
2021-06-29 17:32:26.679687500,-44.0,-20.0,42.0,89.56359375,-48.67,10.22685290625,33.55
2021-06-29 17:32:26.687500000,-44.0,-20.0,42.0,89.56375,-52.19,10.22601225,33.55
2021-06-29 17:32:26.695312500,-44.0,-20.0,42.0,89.56390624999999,-56.375,10.22517159375,33.55
2021-06-29 17:32:26.703125000,-44.0,-20.0,42.0,89.56406249999999,-60.56,10.2243309375,33.55
2021-06-29 17:32:26.710937500,-44.0,-20.0,42.0,89.56421875,-65.16,10.22349028125,33.55
2021-06-29 17:32:26.718750000,-44.0,-20.0,42.0,89.564375,-69.76,10.222649624999999,33.55
2021-06-29 17:32:26.726562500,-44.0,-20.0,42.0,89.56453124999999,-74.135,10.22180896875,33.55
2021-06-29 17:32:26.734375000,-44.0,-20.0,42.0,89.56468749999999,-78.51,10.2209683125,33.55
2021-06-29 17:32:26.742187500,-44.0,-20.0,42.0,89.56484375,-81.70500000000001,10.22012765625,33.55
2021-06-29 17:32:26.750000000,-44.0,-20.0,42.0,89.565,-84.9,10.219287,33.55
2021-06-29 17:32:26.757812500,-44.0,-20.0,42.0,89.56515625,-85.85,10.21940709375,33.55
2021-06-29 17:32:26.765625000,-44.0,-20.0,42.0,89.56531249999999,-86.8,10.219527187499999,33.55
2021-06-29 17:32:26.773437500,-44.0,-20.0,42.0,89.56546875,-84.66,10.21964728125,33.55
2021-06-29 17:32:26.781250000,-44.0,-20.0,42.0,89.565625,-82.52,10.219767375,33.55
2021-06-29 17:32:26.789062500,-44.0,-20.0,42.0,89.56578125,-77.015,10.219887468749999,33.55
2021-06-29 17:32:26.796875000,-44.0,-20.0,42.0,89.56593749999999,-71.51,10.2200075625,33.55
2021-06-29 17:32:26.804687500,-44.0,-20.0,42.0,89.56609375,-63.07000000000001,10.22012765625,33.55
2021-06-29 17:32:26.812500000,-44.0,-20.0,42.0,89.56625,-54.63,10.220247749999999,33.55
2021-06-29 17:32:26.820312500,-44.0,-20.0,42.0,89.56640625,-44.295,10.22036784375,33.55
2021-06-29 17:32:26.828125000,-44.0,-20.0,42.0,89.56656249999999,-33.96,10.2204879375,33.55
2021-06-29 17:32:26.835937500,-44.0,-20.0,42.0,89.56671874999999,-23.07,10.22060803125,33.55
2021-06-29 17:32:26.843750000,-44.0,-20.0,42.0,89.566875,-12.18,10.220728124999999,33.55
2021-06-29 17:32:26.851562500,-44.0,-20.0,42.0,89.56703125,-2.0150000000000006,10.22084821875,33.55
2021-06-29 17:32:26.859375000,-44.0,-20.0,42.0,89.56718749999999,8.15,10.2209683125,33.55
2021-06-29 17:32:26.867187500,-44.0,-20.0,42.0,89.56734374999999,16.655,10.221088406249999,33.55
2021-06-29 17:32:26.875000000,-44.0,-20.0,42.0,89.5675,25.16,10.2212085,33.55
2021-06-29 17:32:26.882812500,-44.25,-20.0,42.0,89.56765625,31.54,10.22132859375,33.55
2021-06-29 17:32:26.890625000,-44.5,-20.0,42.0,89.56781249999999,37.92,10.221448687499999,33.55
2021-06-29 17:32:26.898437500,-44.75,-20.0,42.0,89.56796874999999,42.085,10.22156878125,33.55
2021-06-29 17:32:26.906250000,-45.0,-20.0,42.0,89.568125,46.25,10.221688875,33.55
2021-06-29 17:32:26.914062500,-44.75,-20.0,42.0,89.56828125,48.355000000000004,10.221808968749999,33.55
2021-06-29 17:32:26.921875000,-44.5,-20.0,42.0,89.56843749999999,50.46,10.2219290625,33.55
2021-06-29 17:32:26.929687500,-44.25,-20.0,42.0,89.56859374999999,50.769999999999996,10.22204915625,33.55
2021-06-29 17:32:26.937500000,-44.0,-20.0,42.0,89.56875,51.08,10.22216925,33.55
2021-06-29 17:32:26.945312500,-44.0,-20.0,42.0,89.56890625,49.94,10.222289343749999,33.55
2021-06-29 17:32:26.953125000,-44.0,-20.0,42.0,89.56906249999999,48.8,10.2224094375,33.55
2021-06-29 17:32:26.960937500,-44.0,-20.0,42.0,89.56921874999999,46.59,10.22252953125,33.55
2021-06-29 17:32:26.968750000,-44.0,-20.0,42.0,89.569375,44.38,10.222649624999999,33.55
2021-06-29 17:32:26.976562500,-44.25,-20.0,42.0,89.56953125,41.55,10.22276971875,33.55
2021-06-29 17:32:26.984375000,-44.5,-20.0,42.0,89.56968749999999,38.72,10.2228898125,33.55
2021-06-29 17:32:26.992187500,-44.75,-20.0,42.0,89.56984374999999,35.739999999999995,10.223009906249999,33.55
2021-06-29 17:32:27.000000000,-45.0,-20.0,42.0,89.57,32.76,10.22313,33.55
2021-06-29 17:32:27.007812500,-45.0,-20.0,42.0,89.570078125,30.034999999999997,10.2228898125,33.551249999999996
2021-06-29 17:32:27.015625000,-45.0,-20.0,42.0,89.57015625,27.31,10.222649624999999,33.552499999999995
2021-06-29 17:32:27.023437500,-45.0,-20.0,42.0,89.570234375,25.13,10.2224094375,33.55375
2021-06-29 17:32:27.031250000,-45.0,-20.0,42.0,89.5703125,22.95,10.22216925,33.555
2021-06-29 17:32:27.039062500,-44.75,-20.0,42.0,89.57039062499999,21.43,10.2219290625,33.55625
2021-06-29 17:32:27.046875000,-44.5,-20.0,42.0,89.57046874999999,19.91,10.221688875,33.5575
2021-06-29 17:32:27.054687500,-44.25,-20.0,42.0,89.57054687499999,18.98,10.221448687499999,33.558749999999996
2021-06-29 17:32:27.062500000,-44.0,-20.0,42.0,89.57062499999999,18.05,10.2212085,33.56
2021-06-29 17:32:27.070312500,-44.0,-20.0,42.0,89.570703125,17.53,10.2209683125,33.56125
2021-06-29 17:32:27.078125000,-44.0,-20.0,42.0,89.57078125,17.01,10.220728124999999,33.5625
2021-06-29 17:32:27.085937500,-44.0,-20.0,42.0,89.570859375,16.68,10.2204879375,33.56375
2021-06-29 17:32:27.093750000,-44.0,-20.0,42.0,89.5709375,16.35,10.220247749999999,33.565
2021-06-29 17:32:27.101562500,-44.0,-20.0,42.0,89.57101562499999,16.045,10.2200075625,33.56625
2021-06-29 17:32:27.109375000,-44.0,-20.0,42.0,89.57109374999999,15.74,10.219767375,33.5675
2021-06-29 17:32:27.117187500,-44.0,-20.0,42.0,89.57117187499999,15.39,10.219527187499999,33.56875
2021-06-29 17:32:27.125000000,-44.0,-20.0,42.0,89.57124999999999,15.04,10.219287,33.57
2021-06-29 17:32:27.132812500,-44.0,-20.0,42.0,89.571328125,14.66,10.2190468125,33.57125
2021-06-29 17:32:27.140625000,-44.0,-20.0,42.0,89.57140625,14.28,10.218806625,33.5725
2021-06-29 17:32:27.148437500,-44.0,-20.0,42.0,89.571484375,13.899999999999999,10.2185664375,33.573750000000004
2021-06-29 17:32:27.156250000,-44.0,-20.0,42.0,89.5715625,13.52,10.21832625,33.575
2021-06-29 17:32:27.164062500,-44.0,-20.0,42.0,89.571640625,13.120000000000001,10.2180860625,33.57625
2021-06-29 17:32:27.171875000,-44.0,-20.0,42.0,89.57171874999999,12.72,10.217845875,33.5775
2021-06-29 17:32:27.179687500,-44.0,-20.0,42.0,89.57179687499999,12.155000000000001,10.217605687499999,33.57875
2021-06-29 17:32:27.187500000,-44.0,-20.0,42.0,89.57187499999999,11.59,10.2173655,33.58
2021-06-29 17:32:27.195312500,-44.0,-20.0,42.0,89.571953125,10.625,10.2171253125,33.581250000000004
2021-06-29 17:32:27.203125000,-44.0,-20.0,42.0,89.57203125,9.66,10.216885125,33.5825
2021-06-29 17:32:27.210937500,-44.0,-20.0,42.0,89.572109375,8.045,10.2166449375,33.58375
2021-06-29 17:32:27.218750000,-44.0,-20.0,42.0,89.5721875,6.43,10.216404749999999,33.585
2021-06-29 17:32:27.226562500,-44.0,-20.0,42.0,89.572265625,4.055,10.2161645625,33.58625
2021-06-29 17:32:27.234375000,-44.0,-20.0,42.0,89.57234374999999,1.68,10.215924375,33.587500000000006
2021-06-29 17:32:27.242187500,-44.0,-20.0,42.0,89.57242187499999,-1.39,10.215684187499999,33.588750000000005
2021-06-29 17:32:27.250000000,-44.0,-20.0,42.0,89.57249999999999,-4.46,10.215444,33.59
2021-06-29 17:32:27.257812500,-44.0,-20.0,42.0,89.57257812499999,-7.93,10.2153639375,33.59
2021-06-29 17:32:27.265625000,-44.0,-20.0,42.0,89.57265625,-11.4,10.215283874999999,33.59
2021-06-29 17:32:27.273437500,-44.0,-20.0,42.0,89.572734375,-14.89,10.2152038125,33.59
2021-06-29 17:32:27.281250000,-44.0,-20.0,42.0,89.5728125,-18.38,10.21512375,33.59
2021-06-29 17:32:27.289062500,-44.0,-20.0,42.0,89.572890625,-21.564999999999998,10.2150436875,33.59
2021-06-29 17:32:27.296875000,-44.0,-20.0,42.0,89.57296875,-24.75,10.214963625,33.59
2021-06-29 17:32:27.304687500,-44.0,-20.0,42.0,89.57304687499999,-27.48,10.2148835625,33.59
2021-06-29 17:32:27.312500000,-44.0,-20.0,42.0,89.57312499999999,-30.21,10.2148035,33.59
2021-06-29 17:32:27.320312500,-44.0,-20.0,42.0,89.57320312499999,-32.55,10.2147234375,33.59
2021-06-29 17:32:27.328125000,-44.0,-20.0,42.0,89.57328125,-34.89,10.214643375,33.59
2021-06-29 17:32:27.335937500,-44.0,-20.0,42.0,89.573359375,-37.105000000000004,10.2145633125,33.59
2021-06-29 17:32:27.343750000,-44.0,-20.0,42.0,89.5734375,-39.32,10.21448325,33.59
2021-06-29 17:32:27.351562500,-44.0,-20.0,42.0,89.573515625,-41.78,10.2144031875,33.59
2021-06-29 17:32:27.359375000,-44.0,-20.0,42.0,89.57359375,-44.24,10.214323125,33.59
2021-06-29 17:32:27.367187500,-44.0,-20.0,42.0,89.57367187499999,-47.285,10.2142430625,33.59
2021-06-29 17:32:27.375000000,-44.0,-20.0,42.0,89.57374999999999,-50.33,10.214163,33.59
2021-06-29 17:32:27.382812500,-44.0,-20.0,42.0,89.57382812499999,-54.155,10.2140829375,33.59
2021-06-29 17:32:27.390625000,-44.0,-20.0,42.0,89.57390625,-57.98,10.214002875,33.59
2021-06-29 17:32:27.398437500,-44.0,-20.0,42.0,89.573984375,-62.519999999999996,10.2139228125,33.59
2021-06-29 17:32:27.406250000,-44.0,-20.0,42.0,89.5740625,-67.06,10.21384275,33.59
2021-06-29 17:32:27.414062500,-44.0,-20.0,42.0,89.574140625,-71.83500000000001,10.213762687500001,33.59
2021-06-29 17:32:27.421875000,-44.0,-20.0,42.0,89.57421875,-76.61,10.213682625,33.59
2021-06-29 17:32:27.429687500,-44.0,-20.0,42.0,89.574296875,-80.805,10.2136025625,33.59
2021-06-29 17:32:27.437500000,-44.0,-20.0,42.0,89.57437499999999,-85.0,10.2135225,33.59
2021-06-29 17:32:27.445312500,-44.0,-20.0,42.0,89.57445312499999,-87.545,10.2134424375,33.59
2021-06-29 17:32:27.453125000,-44.0,-20.0,42.0,89.57453124999999,-90.09,10.213362375,33.59
2021-06-29 17:32:27.460937500,-44.0,-20.0,42.0,89.574609375,-89.965,10.2132823125,33.59
2021-06-29 17:32:27.468750000,-44.0,-20.0,42.0,89.5746875,-89.84,10.21320225,33.59
2021-06-29 17:32:27.476562500,-44.0,-20.0,42.0,89.574765625,-86.41499999999999,10.2131221875,33.59
2021-06-29 17:32:27.484375000,-44.0,-20.0,42.0,89.57484375,-82.99,10.213042125000001,33.59
2021-06-29 17:32:27.492187500,-44.0,-20.0,42.0,89.574921875,-76.25999999999999,10.2129620625,33.59
2021-06-29 17:32:27.500000000,-44.0,-20.0,42.0,89.57499999999999,-69.53,10.212882,33.59
2021-06-29 17:32:27.507812500,-44.0,-20.0,42.0,89.57507812499999,-60.18,10.21276190625,33.59
2021-06-29 17:32:27.515625000,-44.0,-20.0,42.0,89.57515624999999,-50.83,10.212641812500001,33.59
2021-06-29 17:32:27.523437500,-44.0,-20.0,42.0,89.575234375,-40.065,10.21252171875,33.59
2021-06-29 17:32:27.531250000,-44.0,-20.0,42.0,89.5753125,-29.3,10.212401625,33.59
2021-06-29 17:32:27.539062500,-44.0,-20.0,42.25,89.575390625,-18.490000000000002,10.212281531250001,33.59
2021-06-29 17:32:27.546875000,-44.0,-20.0,42.5,89.57546875,-7.68,10.2121614375,33.59
2021-06-29 17:32:27.554687500,-44.0,-20.0,42.75,89.575546875,1.9900000000000002,10.21204134375,33.59
2021-06-29 17:32:27.562500000,-44.0,-20.0,43.0,89.575625,11.66,10.21192125,33.59
2021-06-29 17:32:27.570312500,-44.0,-20.0,42.75,89.57570312499999,19.425,10.21180115625,33.59
2021-06-29 17:32:27.578125000,-44.0,-20.0,42.5,89.57578124999999,27.19,10.2116810625,33.59
2021-06-29 17:32:27.585937500,-44.0,-20.0,42.25,89.575859375,32.765,10.21156096875,33.59
2021-06-29 17:32:27.593750000,-44.0,-20.0,42.0,89.5759375,38.34,10.211440875000001,33.59
2021-06-29 17:32:27.601562500,-44.0,-20.0,42.0,89.576015625,41.775000000000006,10.21132078125,33.59
2021-06-29 17:32:27.609375000,-44.0,-20.0,42.0,89.57609375,45.21,10.2112006875,33.59
2021-06-29 17:32:27.617187500,-44.0,-20.0,42.0,89.576171875,46.730000000000004,10.211080593750001,33.59
2021-06-29 17:32:27.625000000,-44.0,-20.0,42.0,89.57625,48.25,10.2109605,33.59
2021-06-29 17:32:27.632812500,-44.0,-20.0,42.0,89.576328125,48.155,10.21084040625,33.59
2021-06-29 17:32:27.640625000,-44.0,-20.0,42.0,89.57640624999999,48.06,10.210720312500001,33.59
2021-06-29 17:32:27.648437500,-44.0,-20.0,42.0,89.57648437499999,46.675,10.21060021875,33.59
2021-06-29 17:32:27.656250000,-44.0,-20.0,42.0,89.5765625,45.29,10.210480125,33.59
2021-06-29 17:32:27.664062500,-44.0,-20.0,42.0,89.576640625,42.985,10.210360031250001,33.59
2021-06-29 17:32:27.671875000,-44.0,-20.0,42.0,89.57671875,40.68,10.2102399375,33.59
2021-06-29 17:32:27.679687500,-44.0,-20.0,42.0,89.576796875,37.875,10.21011984375,33.59
2021-06-29 17:32:27.687500000,-44.0,-20.0,42.0,89.576875,35.07,10.209999750000001,33.59
2021-06-29 17:32:27.695312500,-44.25,-20.0,42.0,89.576953125,32.195,10.209879656250001,33.59
2021-06-29 17:32:27.703125000,-44.5,-20.0,42.0,89.57703124999999,29.32,10.2097595625,33.59
2021-06-29 17:32:27.710937500,-44.75,-20.0,42.0,89.57710937499999,26.73,10.20963946875,33.59
2021-06-29 17:32:27.718750000,-45.0,-20.0,42.0,89.5771875,24.14,10.209519375000001,33.59
2021-06-29 17:32:27.726562500,-44.75,-20.0,42.0,89.577265625,22.05,10.20939928125,33.59
2021-06-29 17:32:27.734375000,-44.5,-20.0,42.0,89.57734375,19.96,10.2092791875,33.59
2021-06-29 17:32:27.742187500,-44.25,-20.0,42.0,89.577421875,18.435000000000002,10.209159093750001,33.59
2021-06-29 17:32:27.750000000,-44.0,-20.0,42.0,89.5775,16.91,10.209039,33.59
2021-06-29 17:32:27.757812500,-44.0,-20.0,42.0,89.577578125,15.89,10.21003978125,33.59
2021-06-29 17:32:27.765625000,-44.0,-20.0,42.0,89.57765625,14.87,10.211040562500001,33.59
2021-06-29 17:32:27.773437500,-44.0,-20.0,42.0,89.57773437499999,14.25,10.21204134375,33.59
2021-06-29 17:32:27.781250000,-44.0,-20.0,42.0,89.5778125,13.63,10.213042125000001,33.59
2021-06-29 17:32:27.789062500,-44.0,-20.0,42.0,89.577890625,13.33,10.21404290625,33.59
2021-06-29 17:32:27.796875000,-44.0,-20.0,42.0,89.57796875,13.03,10.2150436875,33.59
2021-06-29 17:32:27.804687500,-44.0,-20.0,42.0,89.578046875,12.98,10.21604446875,33.59
2021-06-29 17:32:27.812500000,-44.0,-20.0,42.0,89.578125,12.93,10.21704525,33.59
2021-06-29 17:32:27.820312500,-44.25,-20.0,42.0,89.578203125,13.059999999999999,10.218046031250001,33.59
2021-06-29 17:32:27.828125000,-44.5,-20.0,42.0,89.57828125,13.19,10.2190468125,33.59
2021-06-29 17:32:27.835937500,-44.75,-20.0,42.0,89.57835937499999,13.364999999999998,10.22004759375,33.59
2021-06-29 17:32:27.843750000,-45.0,-20.0,42.0,89.57843749999999,13.54,10.221048375,33.59
2021-06-29 17:32:27.851562500,-44.75,-20.0,42.0,89.578515625,13.55,10.22204915625,33.59
2021-06-29 17:32:27.859375000,-44.5,-20.0,42.0,89.57859375,13.56,10.2230499375,33.59
2021-06-29 17:32:27.867187500,-44.25,-20.0,42.0,89.578671875,13.16,10.22405071875,33.59
2021-06-29 17:32:27.875000000,-44.0,-20.0,42.0,89.57875,12.76,10.2250515,33.59
2021-06-29 17:32:27.882812500,-44.0,-20.0,42.0,89.578828125,11.745000000000001,10.22605228125,33.59
2021-06-29 17:32:27.890625000,-44.0,-20.0,42.0,89.57890625,10.73,10.2270530625,33.59
2021-06-29 17:32:27.898437500,-44.0,-20.0,42.0,89.578984375,9.030000000000001,10.22805384375,33.59
2021-06-29 17:32:27.906250000,-44.0,-20.0,42.0,89.57906249999999,7.33,10.229054625,33.59
2021-06-29 17:32:27.914062500,-44.25,-20.0,42.0,89.579140625,5.025,10.23005540625,33.59
2021-06-29 17:32:27.921875000,-44.5,-20.0,42.0,89.57921875,2.72,10.2310561875,33.59
2021-06-29 17:32:27.929687500,-44.75,-20.0,42.0,89.579296875,0.0,10.23205696875,33.59
2021-06-29 17:32:27.937500000,-45.0,-20.0,42.0,89.579375,-2.72,10.23305775,33.59
2021-06-29 17:32:27.945312500,-44.75,-20.0,42.0,89.579453125,-5.615,10.23405853125,33.59
2021-06-29 17:32:27.953125000,-44.5,-20.0,42.0,89.57953125,-8.51,10.2350593125,33.59
2021-06-29 17:32:27.960937500,-44.25,-20.0,42.0,89.579609375,-11.375,10.23606009375,33.59
2021-06-29 17:32:27.968750000,-44.0,-20.0,42.0,89.57968749999999,-14.24,10.237060875,33.59
2021-06-29 17:32:27.976562500,-44.0,-20.0,42.0,89.579765625,-16.955000000000002,10.23806165625,33.59
2021-06-29 17:32:27.984375000,-44.0,-20.0,42.0,89.57984375,-19.67,10.2390624375,33.59
2021-06-29 17:32:27.992187500,-44.0,-20.0,42.0,89.579921875,-22.255000000000003,10.24006321875,33.59
2021-06-29 17:32:28.000000000,-44.0,-20.0,42.0,89.58,-24.84,10.241064,33.59
2021-06-29 17:32:28.007812500,-44.25,-20.0,42.0,89.58015625,-27.5,10.2450671875,33.588750000000005
2021-06-29 17:32:28.015625000,-44.5,-20.0,42.0,89.5803125,-30.16,10.249070375,33.587500000000006
2021-06-29 17:32:28.023437500,-44.75,-20.0,42.0,89.58046875,-33.2,10.2530735625,33.58625
2021-06-29 17:32:28.031250000,-45.0,-20.0,42.0,89.580625,-36.24,10.25707675,33.585
2021-06-29 17:32:28.039062500,-44.75,-20.0,42.0,89.58078125,-40.010000000000005,10.2610799375,33.58375
2021-06-29 17:32:28.046875000,-44.5,-20.0,42.0,89.5809375,-43.78,10.265083125,33.5825
2021-06-29 17:32:28.054687500,-44.25,-20.0,42.0,89.58109375,-48.485,10.269086312499999,33.581250000000004
2021-06-29 17:32:28.062500000,-44.0,-20.0,42.0,89.58125,-53.19,10.2730895,33.58
2021-06-29 17:32:28.070312500,-44.25,-20.0,42.0,89.58140625,-58.66,10.2770926875,33.57875
2021-06-29 17:32:28.078125000,-44.5,-20.0,42.0,89.5815625,-64.13,10.281095875,33.5775
2021-06-29 17:32:28.085937500,-44.75,-20.0,42.0,89.58171875,-69.69999999999999,10.2850990625,33.57625
2021-06-29 17:32:28.093750000,-45.0,-20.0,42.0,89.581875,-75.27,10.28910225,33.575
2021-06-29 17:32:28.101562500,-45.0,-20.0,42.0,89.58203125,-79.83,10.2931054375,33.573750000000004
2021-06-29 17:32:28.109375000,-45.0,-20.0,42.0,89.5821875,-84.39,10.297108625,33.5725
2021-06-29 17:32:28.117187500,-45.0,-20.0,42.0,89.58234374999999,-86.65,10.3011118125,33.57125
2021-06-29 17:32:28.125000000,-45.0,-20.0,42.0,89.5825,-88.91,10.305115,33.57
2021-06-29 17:32:28.132812500,-44.75,-20.0,42.0,89.58265625,-87.83500000000001,10.3091181875,33.56875
2021-06-29 17:32:28.140625000,-44.5,-20.0,42.0,89.5828125,-86.76,10.313121375,33.5675
2021-06-29 17:32:28.148437500,-44.25,-20.0,42.0,89.58296874999999,-81.92500000000001,10.3171245625,33.56625
2021-06-29 17:32:28.156250000,-44.0,-20.0,42.0,89.583125,-77.09,10.32112775,33.565
2021-06-29 17:32:28.164062500,-44.25,-20.0,42.0,89.58328125,-68.86,10.325130937499999,33.56375
2021-06-29 17:32:28.171875000,-44.5,-20.0,42.0,89.5834375,-60.63,10.329134125,33.5625
2021-06-29 17:32:28.179687500,-44.75,-20.0,42.0,89.58359374999999,-50.03,10.3331373125,33.56125
2021-06-29 17:32:28.187500000,-45.0,-20.0,42.0,89.58375,-39.43,10.3371405,33.56
2021-06-29 17:32:28.195312500,-44.75,-20.0,42.0,89.58390625,-27.83,10.3411436875,33.558749999999996
2021-06-29 17:32:28.203125000,-44.5,-20.0,42.0,89.5840625,-16.23,10.345146875,33.5575
2021-06-29 17:32:28.210937500,-44.25,-20.0,42.0,89.58421874999999,-4.940000000000001,10.3491500625,33.55625
2021-06-29 17:32:28.218750000,-44.0,-20.0,42.0,89.584375,6.35,10.35315325,33.555
2021-06-29 17:32:28.226562500,-44.0,-20.0,42.0,89.58453125,16.305,10.3571564375,33.55375
2021-06-29 17:32:28.234375000,-44.0,-20.0,42.0,89.5846875,26.26,10.361159624999999,33.552499999999995
2021-06-29 17:32:28.242187500,-44.0,-20.0,42.0,89.58484374999999,34.25,10.3651628125,33.551249999999996
2021-06-29 17:32:28.250000000,-44.0,-20.0,42.0,89.585,42.24,10.369166,33.55
2021-06-29 17:32:28.257812500,-44.25,-20.0,42.0,89.58515625,47.95,10.3759714375,33.55
2021-06-29 17:32:28.265625000,-44.5,-20.0,42.0,89.5853125,53.66,10.382776875,33.55
2021-06-29 17:32:28.273437500,-44.75,-20.0,42.0,89.58546875,56.989999999999995,10.3895823125,33.55
2021-06-29 17:32:28.281250000,-45.0,-20.0,42.0,89.585625,60.32,10.39638775,33.55
2021-06-29 17:32:28.289062500,-44.75,-20.0,42.0,89.58578125,61.325,10.4031931875,33.55
2021-06-29 17:32:28.296875000,-44.5,-20.0,42.0,89.5859375,62.33,10.409998625,33.55
2021-06-29 17:32:28.304687500,-44.25,-20.0,42.0,89.58609375,61.265,10.4168040625,33.55
2021-06-29 17:32:28.312500000,-44.0,-20.0,42.0,89.58624999999999,60.2,10.4236095,33.55
2021-06-29 17:32:28.320312500,-44.0,-20.0,42.0,89.58640625,57.510000000000005,10.4304149375,33.55
2021-06-29 17:32:28.328125000,-44.0,-20.0,42.0,89.5865625,54.82,10.437220375,33.55
2021-06-29 17:32:28.335937500,-44.0,-20.0,42.0,89.58671875,51.125,10.4440258125,33.55
2021-06-29 17:32:28.343750000,-44.0,-20.0,42.0,89.58687499999999,47.43,10.45083125,33.55
2021-06-29 17:32:28.351562500,-44.25,-20.0,42.0,89.58703125,43.42,10.4576366875,33.55
2021-06-29 17:32:28.359375000,-44.5,-20.0,42.0,89.5871875,39.41,10.464442125,33.55
2021-06-29 17:32:28.367187500,-44.75,-20.0,42.0,89.58734375,35.685,10.4712475625,33.55
2021-06-29 17:32:28.375000000,-45.0,-20.0,42.0,89.58749999999999,31.96,10.478053,33.55
2021-06-29 17:32:28.382812500,-44.75,-20.0,42.0,89.58765625,28.91,10.4848584375,33.55
2021-06-29 17:32:28.390625000,-44.5,-20.0,42.0,89.5878125,25.86,10.491663875,33.55
2021-06-29 17:32:28.398437500,-44.25,-20.0,42.0,89.58796875,23.645,10.4984693125,33.55
2021-06-29 17:32:28.406250000,-44.0,-20.0,42.0,89.58812499999999,21.43,10.50527475,33.55
2021-06-29 17:32:28.414062500,-44.25,-20.0,42.0,89.58828125,20.015,10.5120801875,33.55
2021-06-29 17:32:28.421875000,-44.5,-20.0,42.0,89.5884375,18.6,10.518885625,33.55
2021-06-29 17:32:28.429687500,-44.75,-20.0,42.0,89.58859375,17.825000000000003,10.5256910625,33.55
2021-06-29 17:32:28.437500000,-45.0,-20.0,42.0,89.58874999999999,17.05,10.5324965,33.55
2021-06-29 17:32:28.445312500,-44.75,-20.0,42.0,89.58890625,16.745,10.5393019375,33.55
2021-06-29 17:32:28.453125000,-44.5,-20.0,42.0,89.5890625,16.44,10.546107375,33.55
2021-06-29 17:32:28.460937500,-44.25,-20.0,42.0,89.58921875,16.465,10.5529128125,33.55
2021-06-29 17:32:28.468750000,-44.0,-20.0,42.0,89.58937499999999,16.49,10.55971825,33.55
2021-06-29 17:32:28.476562500,-44.0,-20.0,42.0,89.58953125,16.695,10.5665236875,33.55
2021-06-29 17:32:28.484375000,-44.0,-20.0,42.0,89.5896875,16.9,10.573329125,33.55
2021-06-29 17:32:28.492187500,-44.0,-20.0,42.0,89.58984375,17.115,10.5801345625,33.55
2021-06-29 17:32:28.500000000,-44.0,-20.0,42.0,89.59,17.33,10.58694,33.55
2021-06-29 17:32:28.507812500,-44.0,-20.0,42.0,89.59015624999999,17.34,10.594546093750001,33.55
2021-06-29 17:32:28.515625000,-44.0,-20.0,42.0,89.5903125,17.35,10.6021521875,33.55
2021-06-29 17:32:28.523437500,-44.0,-20.0,42.0,89.59046875,16.89,10.60975828125,33.55
2021-06-29 17:32:28.531250000,-44.0,-20.0,42.0,89.590625,16.43,10.617364375000001,33.55
2021-06-29 17:32:28.539062500,-44.0,-20.0,42.0,89.59078124999999,15.24,10.62497046875,33.55
2021-06-29 17:32:28.546875000,-44.0,-20.0,42.0,89.5909375,14.05,10.6325765625,33.55
2021-06-29 17:32:28.554687500,-44.0,-20.0,42.0,89.59109375,11.98,10.64018265625,33.55
2021-06-29 17:32:28.562500000,-44.0,-20.0,42.0,89.59125,9.91,10.64778875,33.55
2021-06-29 17:32:28.570312500,-44.0,-20.0,42.0,89.59140624999999,6.98,10.65539484375,33.55
2021-06-29 17:32:28.578125000,-44.0,-20.0,42.0,89.5915625,4.05,10.6630009375,33.55
2021-06-29 17:32:28.585937500,-44.0,-20.0,42.0,89.59171875,0.4500000000000002,10.67060703125,33.55
2021-06-29 17:32:28.593750000,-44.0,-20.0,42.0,89.591875,-3.15,10.678213125,33.55
2021-06-29 17:32:28.601562500,-44.0,-20.0,42.0,89.59203124999999,-7.109999999999999,10.68581921875,33.55
2021-06-29 17:32:28.609375000,-44.0,-20.0,42.0,89.5921875,-11.07,10.6934253125,33.55
2021-06-29 17:32:28.617187500,-44.0,-20.0,42.0,89.59234375,-15.075,10.70103140625,33.55
2021-06-29 17:32:28.625000000,-44.0,-20.0,42.0,89.5925,-19.08,10.7086375,33.55
2021-06-29 17:32:28.632812500,-44.0,-20.0,42.0,89.59265624999999,-22.909999999999997,10.71624359375,33.55
2021-06-29 17:32:28.640625000,-44.0,-20.0,42.0,89.5928125,-26.74,10.7238496875,33.55
2021-06-29 17:32:28.648437500,-44.0,-20.0,42.0,89.59296875,-30.354999999999997,10.73145578125,33.55
2021-06-29 17:32:28.656250000,-44.0,-20.0,42.0,89.593125,-33.97,10.739061875,33.55
2021-06-29 17:32:28.664062500,-44.0,-20.0,42.0,89.59328124999999,-37.519999999999996,10.74666796875,33.55
2021-06-29 17:32:28.671875000,-44.0,-20.0,42.0,89.5934375,-41.07,10.7542740625,33.55
2021-06-29 17:32:28.679687500,-44.0,-20.0,42.0,89.59359375,-44.879999999999995,10.76188015625,33.55
2021-06-29 17:32:28.687500000,-44.0,-20.0,42.0,89.59375,-48.69,10.76948625,33.55
2021-06-29 17:32:28.695312500,-44.0,-20.0,42.0,89.59390624999999,-53.129999999999995,10.77709234375,33.55
2021-06-29 17:32:28.703125000,-44.0,-20.0,42.0,89.59406249999999,-57.57,10.7846984375,33.55
2021-06-29 17:32:28.710937500,-44.0,-20.0,42.0,89.59421875,-62.93000000000001,10.79230453125,33.55
2021-06-29 17:32:28.718750000,-44.0,-20.0,42.0,89.594375,-68.29,10.799910624999999,33.55
2021-06-29 17:32:28.726562500,-44.0,-20.0,42.0,89.59453124999999,-74.555,10.80751671875,33.55
2021-06-29 17:32:28.734375000,-44.0,-20.0,42.0,89.59468749999999,-80.82,10.8151228125,33.55
2021-06-29 17:32:28.742187500,-44.0,-20.0,42.0,89.59484375,-87.535,10.82272890625,33.55
2021-06-29 17:32:28.750000000,-44.0,-20.0,42.0,89.595,-94.25,10.830335,33.55
2021-06-29 17:32:28.757812500,-44.0,-20.0,42.0,89.59515625,-100.45,10.834858593749999,33.55
2021-06-29 17:32:28.765625000,-44.0,-20.0,42.0,89.59531249999999,-106.65,10.8393821875,33.55
2021-06-29 17:32:28.773437500,-44.0,-20.0,42.0,89.59546875,-111.03,10.84390578125,33.55
2021-06-29 17:32:28.781250000,-44.0,-20.0,42.0,89.595625,-115.41,10.848429375,33.55
2021-06-29 17:32:28.789062500,-44.0,-20.0,42.0,89.59578125,-116.625,10.85295296875,33.55
2021-06-29 17:32:28.796875000,-44.0,-20.0,42.0,89.59593749999999,-117.84,10.8574765625,33.55
2021-06-29 17:32:28.804687500,-44.0,-20.0,42.0,89.59609375,-114.965,10.86200015625,33.55
2021-06-29 17:32:28.812500000,-44.0,-20.0,42.0,89.59625,-112.09,10.866523749999999,33.55
2021-06-29 17:32:28.820312500,-44.25,-20.0,42.0,89.59640625,-104.89500000000001,10.87104734375,33.55
2021-06-29 17:32:28.828125000,-44.5,-20.0,42.0,89.59656249999999,-97.7,10.8755709375,33.55
2021-06-29 17:32:28.835937500,-44.75,-20.0,42.0,89.59671875,-86.78999999999999,10.88009453125,33.55
2021-06-29 17:32:28.843750000,-45.0,-20.0,42.0,89.596875,-75.88,10.884618125,33.55
2021-06-29 17:32:28.851562500,-45.0,-20.0,42.0,89.59703125,-62.519999999999996,10.88914171875,33.55
2021-06-29 17:32:28.859375000,-45.0,-20.0,42.0,89.59718749999999,-49.16,10.8936653125,33.55
2021-06-29 17:32:28.867187500,-45.0,-20.0,42.0,89.59734375,-34.93,10.89818890625,33.55
2021-06-29 17:32:28.875000000,-45.0,-20.0,42.0,89.5975,-20.7,10.9027125,33.55
2021-06-29 17:32:28.882812500,-44.75,-20.0,42.0,89.59765625,-7.105,10.907236093749999,33.55
2021-06-29 17:32:28.890625000,-44.5,-20.0,42.0,89.59781249999999,6.49,10.9117596875,33.55
2021-06-29 17:32:28.898437500,-44.25,-20.0,42.0,89.59796874999999,18.299999999999997,10.91628328125,33.55
2021-06-29 17:32:28.906250000,-44.0,-20.0,42.0,89.598125,30.11,10.920806875,33.55
2021-06-29 17:32:28.914062500,-44.0,-20.0,42.0,89.59828125,39.445,10.92533046875,33.55
2021-06-29 17:32:28.921875000,-44.0,-20.0,42.0,89.59843749999999,48.78,10.9298540625,33.55
2021-06-29 17:32:28.929687500,-44.0,-20.0,42.0,89.59859374999999,55.385000000000005,10.93437765625,33.55
2021-06-29 17:32:28.937500000,-44.0,-20.0,42.0,89.59875,61.99,10.93890125,33.55
2021-06-29 17:32:28.945312500,-44.0,-20.0,42.25,89.59890625,65.915,10.94342484375,33.55
2021-06-29 17:32:28.953125000,-44.0,-20.0,42.5,89.59906249999999,69.84,10.9479484375,33.55
2021-06-29 17:32:28.960937500,-44.0,-20.0,42.75,89.59921874999999,71.355,10.95247203125,33.55
2021-06-29 17:32:28.968750000,-44.0,-20.0,43.0,89.599375,72.87,10.956995625,33.55
2021-06-29 17:32:28.976562500,-44.0,-20.0,43.0,89.59953125,72.39,10.96151921875,33.55
2021-06-29 17:32:28.984375000,-44.0,-20.0,43.0,89.59968749999999,71.91,10.9660428125,33.55
2021-06-29 17:32:28.992187500,-44.0,-20.0,43.0,89.59984374999999,69.935,10.97056640625,33.55
2021-06-29 17:32:29.000000000,-44.0,-20.0,43.0,89.6,67.96,10.97509,33.55
2021-06-29 17:32:29.007812500,-44.0,-20.0,43.0,89.60015625,65.045,10.98086653125,33.550625
2021-06-29 17:32:29.015625000,-44.0,-20.0,43.0,89.6003125,62.13,10.9866430625,33.551249999999996
2021-06-29 17:32:29.023437500,-44.0,-20.0,43.0,89.60046874999999,58.825,10.99241959375,33.551874999999995
2021-06-29 17:32:29.031250000,-44.0,-20.0,43.0,89.600625,55.52,10.998196125,33.552499999999995
2021-06-29 17:32:29.039062500,-44.0,-20.0,42.75,89.60078125,52.295,11.00397265625,33.553124999999994
2021-06-29 17:32:29.046875000,-44.0,-20.0,42.5,89.6009375,49.07,11.009749187499999,33.55375
2021-06-29 17:32:29.054687500,-44.0,-20.0,42.25,89.60109374999999,46.25,11.01552571875,33.554375
2021-06-29 17:32:29.062500000,-44.0,-20.0,42.0,89.60125,43.43,11.02130225,33.555
2021-06-29 17:32:29.070312500,-44.0,-20.0,42.0,89.60140625,41.18,11.02707878125,33.555625
2021-06-29 17:32:29.078125000,-44.0,-20.0,42.0,89.6015625,38.93,11.0328553125,33.55625
2021-06-29 17:32:29.085937500,-44.0,-20.0,42.0,89.60171874999999,37.28,11.03863184375,33.556875
2021-06-29 17:32:29.093750000,-44.0,-20.0,42.0,89.60187499999999,35.63,11.044408375,33.5575
2021-06-29 17:32:29.101562500,-44.0,-20.0,42.25,89.60203125,34.519999999999996,11.05018490625,33.558125
2021-06-29 17:32:29.109375000,-44.0,-20.0,42.5,89.6021875,33.41,11.055961437499999,33.558749999999996
2021-06-29 17:32:29.117187500,-44.0,-20.0,42.75,89.60234374999999,32.739999999999995,11.06173796875,33.559374999999996
2021-06-29 17:32:29.125000000,-44.0,-20.0,43.0,89.60249999999999,32.07,11.0675145,33.56
2021-06-29 17:32:29.132812500,-44.0,-20.0,42.75,89.60265625,31.775,11.07329103125,33.560625
2021-06-29 17:32:29.140625000,-44.0,-20.0,42.5,89.6028125,31.48,11.0790675625,33.56125
2021-06-29 17:32:29.148437500,-44.0,-20.0,42.25,89.60296875,31.475,11.08484409375,33.561875
2021-06-29 17:32:29.156250000,-44.0,-20.0,42.0,89.60312499999999,31.47,11.090620625,33.5625
2021-06-29 17:32:29.164062500,-44.0,-20.0,42.0,89.60328125,31.64,11.09639715625,33.563125
2021-06-29 17:32:29.171875000,-44.0,-20.0,42.0,89.6034375,31.81,11.102173687499999,33.56375
2021-06-29 17:32:29.179687500,-44.0,-20.0,42.0,89.60359375,31.935000000000002,11.10795021875,33.564375
2021-06-29 17:32:29.187500000,-44.0,-20.0,42.0,89.60374999999999,32.06,11.11372675,33.565
2021-06-29 17:32:29.195312500,-44.0,-20.0,42.0,89.60390625,31.82,11.11950328125,33.565625
2021-06-29 17:32:29.203125000,-44.0,-20.0,42.0,89.6040625,31.58,11.1252798125,33.56625
2021-06-29 17:32:29.210937500,-44.0,-20.0,42.0,89.60421875,30.63,11.13105634375,33.566875
2021-06-29 17:32:29.218750000,-44.0,-20.0,42.0,89.60437499999999,29.68,11.136832875,33.5675
2021-06-29 17:32:29.226562500,-44.0,-20.0,42.0,89.60453125,27.78,11.14260940625,33.568125
2021-06-29 17:32:29.234375000,-44.0,-20.0,42.0,89.6046875,25.88,11.148385937499999,33.56875
2021-06-29 17:32:29.242187500,-44.0,-20.0,42.0,89.60484375,22.97,11.15416246875,33.569375
2021-06-29 17:32:29.250000000,-44.0,-20.0,42.0,89.60499999999999,20.06,11.159939,33.57
2021-06-29 17:32:29.257812500,-44.0,-20.0,42.0,89.60515625,16.31,11.160539437499999,33.57
2021-06-29 17:32:29.265625000,-44.0,-20.0,42.0,89.6053125,12.56,11.161139875,33.57
2021-06-29 17:32:29.273437500,-44.0,-20.0,42.0,89.60546875,8.295,11.1617403125,33.57
2021-06-29 17:32:29.281250000,-44.0,-20.0,42.0,89.605625,4.03,11.16234075,33.57
2021-06-29 17:32:29.289062500,-44.25,-20.0,42.0,89.60578124999999,-0.375,11.1629411875,33.57
2021-06-29 17:32:29.296875000,-44.5,-20.0,42.0,89.6059375,-4.78,11.163541624999999,33.57
2021-06-29 17:32:29.304687500,-44.75,-20.0,42.0,89.60609375,-9.04,11.1641420625,33.57
2021-06-29 17:32:29.312500000,-45.0,-20.0,42.0,89.60625,-13.3,11.1647425,33.57
2021-06-29 17:32:29.320312500,-44.75,-20.0,42.0,89.60640624999999,-17.310000000000002,11.1653429375,33.57
2021-06-29 17:32:29.328125000,-44.5,-20.0,42.0,89.6065625,-21.32,11.165943375,33.57
2021-06-29 17:32:29.335937500,-44.25,-20.0,42.0,89.60671875,-25.205,11.166543812499999,33.57
2021-06-29 17:32:29.343750000,-44.0,-20.0,42.0,89.606875,-29.09,11.16714425,33.57
2021-06-29 17:32:29.351562500,-44.0,-20.0,42.0,89.60703124999999,-33.19,11.167744687499999,33.57
2021-06-29 17:32:29.359375000,-44.0,-20.0,42.0,89.6071875,-37.29,11.168345125,33.57
2021-06-29 17:32:29.367187500,-44.0,-20.0,42.0,89.60734375,-42.045,11.1689455625,33.57
2021-06-29 17:32:29.375000000,-44.0,-20.0,42.0,89.6075,-46.8,11.169546,33.57
2021-06-29 17:32:29.382812500,-44.0,-20.0,42.0,89.60765625,-52.595,11.1701464375,33.57
2021-06-29 17:32:29.390625000,-44.0,-20.0,42.0,89.6078125,-58.39,11.170746874999999,33.57
2021-06-29 17:32:29.398437500,-44.0,-20.0,42.0,89.60796875,-65.285,11.1713473125,33.57
2021-06-29 17:32:29.406250000,-44.0,-20.0,42.0,89.608125,-72.18,11.17194775,33.57
2021-06-29 17:32:29.414062500,-44.0,-20.0,42.0,89.60828125,-79.71000000000001,11.1725481875,33.57
2021-06-29 17:32:29.421875000,-44.0,-20.0,42.0,89.6084375,-87.24,11.173148625,33.57
2021-06-29 17:32:29.429687500,-44.0,-20.0,42.0,89.60859375,-94.35499999999999,11.173749062499999,33.57
2021-06-29 17:32:29.437500000,-44.0,-20.0,42.0,89.60875,-101.47,11.1743495,33.57
2021-06-29 17:32:29.445312500,-44.0,-20.0,42.0,89.60890625,-106.675,11.1749499375,33.57
2021-06-29 17:32:29.453125000,-44.0,-20.0,42.0,89.6090625,-111.88,11.175550375,33.57
2021-06-29 17:32:29.460937500,-44.0,-20.0,42.0,89.60921875,-113.65,11.1761508125,33.57
2021-06-29 17:32:29.468750000,-44.0,-20.0,42.0,89.609375,-115.42,11.176751249999999,33.57
2021-06-29 17:32:29.476562500,-44.25,-20.0,42.0,89.60953125,-112.67,11.1773516875,33.57
2021-06-29 17:32:29.484375000,-44.5,-20.0,42.0,89.60968749999999,-109.92,11.177952125,33.57
2021-06-29 17:32:29.492187500,-44.75,-20.0,42.0,89.60984375,-102.39,11.1785525625,33.57
2021-06-29 17:32:29.500000000,-45.0,-20.0,42.0,89.61,-94.86,11.179153,33.57
2021-06-29 17:32:29.507812500,-44.75,-20.0,42.25,89.61015625,-83.22999999999999,11.178272312499999,33.57
2021-06-29 17:32:29.515625000,-44.5,-20.0,42.5,89.6103125,-71.6,11.177391625,33.57
2021-06-29 17:32:29.523437500,-44.25,-20.0,42.75,89.61046875,-57.28999999999999,11.1765109375,33.57
2021-06-29 17:32:29.531250000,-44.0,-20.0,43.0,89.610625,-42.98,11.17563025,33.57
2021-06-29 17:32:29.539062500,-44.0,-20.0,42.75,89.61078125,-27.77,11.174749562499999,33.57
2021-06-29 17:32:29.546875000,-44.0,-20.0,42.5,89.6109375,-12.56,11.173868875,33.57
2021-06-29 17:32:29.554687500,-44.0,-20.0,42.25,89.61109375,1.8699999999999992,11.1729881875,33.57
2021-06-29 17:32:29.562500000,-44.0,-20.0,42.0,89.61125,16.3,11.1721075,33.57
2021-06-29 17:32:29.570312500,-44.0,-20.0,42.0,89.61140625,28.705,11.1712268125,33.57
2021-06-29 17:32:29.578125000,-44.0,-20.0,42.0,89.6115625,41.11,11.170346125,33.57
2021-06-29 17:32:29.585937500,-44.0,-20.0,42.0,89.61171875,50.765,11.1694654375,33.57
2021-06-29 17:32:29.593750000,-44.0,-20.0,42.0,89.611875,60.42,11.168584749999999,33.57
2021-06-29 17:32:29.601562500,-44.0,-20.0,42.0,89.61203125,67.11500000000001,11.1677040625,33.57
2021-06-29 17:32:29.609375000,-44.0,-20.0,42.0,89.6121875,73.81,11.166823375,33.57
2021-06-29 17:32:29.617187500,-44.0,-20.0,42.0,89.61234375,77.67500000000001,11.1659426875,33.57
2021-06-29 17:32:29.625000000,-44.0,-20.0,42.0,89.6125,81.54,11.165061999999999,33.57
2021-06-29 17:32:29.632812500,-44.0,-20.0,42.0,89.61265625,82.89,11.1641813125,33.57
2021-06-29 17:32:29.640625000,-44.0,-20.0,42.0,89.6128125,84.24,11.163300625,33.57
2021-06-29 17:32:29.648437500,-44.0,-20.0,42.0,89.61296875000001,83.53,11.1624199375,33.57
2021-06-29 17:32:29.656250000,-44.0,-20.0,42.0,89.613125,82.82,11.16153925,33.57
2021-06-29 17:32:29.664062500,-44.0,-20.0,42.0,89.61328125,80.57499999999999,11.1606585625,33.57
2021-06-29 17:32:29.671875000,-44.0,-20.0,42.0,89.6134375,78.33,11.159777875,33.57
2021-06-29 17:32:29.679687500,-44.0,-20.0,42.0,89.61359375,75.12,11.1588971875,33.57
2021-06-29 17:32:29.687500000,-44.0,-20.0,42.0,89.61375,71.91,11.1580165,33.57
2021-06-29 17:32:29.695312500,-44.0,-20.0,42.0,89.61390625,68.3,11.1571358125,33.57
2021-06-29 17:32:29.703125000,-44.0,-20.0,42.0,89.6140625,64.69,11.156255125,33.57
2021-06-29 17:32:29.710937500,-44.0,-20.0,42.0,89.61421875,61.18,11.1553744375,33.57
2021-06-29 17:32:29.718750000,-44.0,-20.0,42.0,89.614375,57.67,11.15449375,33.57
2021-06-29 17:32:29.726562500,-44.0,-20.0,42.0,89.61453125,54.61,11.1536130625,33.57
2021-06-29 17:32:29.734375000,-44.0,-20.0,42.0,89.6146875,51.55,11.152732375,33.57
2021-06-29 17:32:29.742187500,-44.0,-20.0,42.0,89.61484375,49.135,11.1518516875,33.57
2021-06-29 17:32:29.750000000,-44.0,-20.0,42.0,89.61500000000001,46.72,11.150971,33.57
2021-06-29 17:32:29.757812500,-44.0,-20.0,42.0,89.61515625,44.980000000000004,11.148288875,33.57
2021-06-29 17:32:29.765625000,-44.0,-20.0,42.0,89.6153125,43.24,11.14560675,33.57
2021-06-29 17:32:29.773437500,-44.0,-20.0,42.0,89.61546875,42.13,11.142924625000001,33.57
2021-06-29 17:32:29.781250000,-44.0,-20.0,42.0,89.61562500000001,41.02,11.1402425,33.57
2021-06-29 17:32:29.789062500,-44.0,-20.0,42.0,89.61578125,40.46,11.137560375,33.57
2021-06-29 17:32:29.796875000,-44.0,-20.0,42.0,89.6159375,39.9,11.13487825,33.57
2021-06-29 17:32:29.804687500,-44.0,-20.0,42.0,89.61609375,39.835,11.132196125,33.57
2021-06-29 17:32:29.812500000,-44.0,-20.0,42.0,89.61625000000001,39.77,11.129514,33.57
2021-06-29 17:32:29.820312500,-44.0,-20.0,42.0,89.61640625,40.08,11.126831875,33.57
2021-06-29 17:32:29.828125000,-44.0,-20.0,42.0,89.6165625,40.39,11.12414975,33.57
2021-06-29 17:32:29.835937500,-44.0,-20.0,42.0,89.61671875,40.894999999999996,11.121467625000001,33.57
2021-06-29 17:32:29.843750000,-44.0,-20.0,42.0,89.61687500000001,41.4,11.118785500000001,33.57
2021-06-29 17:32:29.851562500,-44.0,-20.0,42.0,89.61703125,41.8,11.116103375,33.57
2021-06-29 17:32:29.859375000,-44.0,-20.0,42.0,89.6171875,42.2,11.11342125,33.57
2021-06-29 17:32:29.867187500,-44.0,-20.0,42.0,89.61734375,42.115,11.110739125,33.57
2021-06-29 17:32:29.875000000,-44.0,-20.0,42.0,89.6175,42.03,11.108057,33.57
2021-06-29 17:32:29.882812500,-44.0,-20.0,42.0,89.61765625000001,41.129999999999995,11.105374875,33.57
2021-06-29 17:32:29.890625000,-44.0,-20.0,42.0,89.6178125,40.23,11.102692750000001,33.57
2021-06-29 17:32:29.898437500,-44.0,-20.0,42.0,89.61796875,38.349999999999994,11.100010625000001,33.57
2021-06-29 17:32:29.906250000,-44.0,-20.0,42.0,89.618125,36.47,11.0973285,33.57
2021-06-29 17:32:29.914062500,-44.0,-20.0,42.0,89.61828125000001,33.665,11.094646375,33.57
2021-06-29 17:32:29.921875000,-44.0,-20.0,42.0,89.6184375,30.86,11.09196425,33.57
2021-06-29 17:32:29.929687500,-44.0,-20.0,42.0,89.61859375,27.395,11.089282125,33.57
2021-06-29 17:32:29.937500000,-44.0,-20.0,42.0,89.61875,23.93,11.0866,33.57
2021-06-29 17:32:29.945312500,-44.0,-20.0,42.0,89.61890625000001,20.16,11.083917875000001,33.57
2021-06-29 17:32:29.953125000,-44.0,-20.0,42.0,89.6190625,16.39,11.081235750000001,33.57
2021-06-29 17:32:29.960937500,-44.0,-20.0,42.0,89.61921875,12.600000000000001,11.078553625000001,33.57
2021-06-29 17:32:29.968750000,-44.0,-20.0,42.0,89.619375,8.81,11.075871500000002,33.57
2021-06-29 17:32:29.976562500,-44.0,-20.0,42.0,89.61953125000001,5.1450000000000005,11.073189375,33.57
2021-06-29 17:32:29.984375000,-44.0,-20.0,42.0,89.6196875,1.48,11.07050725,33.57
2021-06-29 17:32:29.992187500,-44.0,-20.0,42.0,89.61984375,-2.1199999999999997,11.067825125,33.57
2021-06-29 17:32:30.000000000,-44.0,-20.0,42.0,89.62,-5.72,11.065143,33.57
2021-06-29 17:32:30.007812500,-44.0,-20.0,42.0,89.62,-9.504999999999999,11.0619404375,33.569375
2021-06-29 17:32:30.015625000,-44.0,-20.0,42.0,89.62,-13.29,11.058737875,33.56875
2021-06-29 17:32:30.023437500,-44.0,-20.0,42.0,89.62,-17.63,11.0555353125,33.568125
2021-06-29 17:32:30.031250000,-44.0,-20.0,42.0,89.62,-21.97,11.052332750000001,33.5675
2021-06-29 17:32:30.039062500,-44.0,-20.0,42.0,89.62,-27.2,11.049130187500001,33.566875
2021-06-29 17:32:30.046875000,-44.0,-20.0,42.0,89.62,-32.43,11.045927625000001,33.56625
2021-06-29 17:32:30.054687500,-44.0,-20.0,42.0,89.62,-38.655,11.0427250625,33.565625
2021-06-29 17:32:30.062500000,-44.0,-20.0,42.0,89.62,-44.88,11.0395225,33.565
2021-06-29 17:32:30.070312500,-44.0,-20.0,42.25,89.62,-51.790000000000006,11.0363199375,33.564375
2021-06-29 17:32:30.078125000,-44.0,-20.0,42.5,89.62,-58.7,11.033117375000002,33.56375
2021-06-29 17:32:30.085937500,-44.0,-20.0,42.75,89.62,-65.43,11.029914812500001,33.563125
2021-06-29 17:32:30.093750000,-44.0,-20.0,43.0,89.62,-72.16,11.026712250000001,33.5625
2021-06-29 17:32:30.101562500,-44.0,-20.0,42.75,89.62,-77.425,11.0235096875,33.561875
2021-06-29 17:32:30.109375000,-44.0,-20.0,42.5,89.62,-82.69,11.020307125,33.56125
2021-06-29 17:32:30.117187500,-44.0,-20.0,42.25,89.62,-85.055,11.0171045625,33.560625
2021-06-29 17:32:30.125000000,-44.0,-20.0,42.0,89.62,-87.42,11.013902000000002,33.56
2021-06-29 17:32:30.132812500,-44.0,-20.0,42.0,89.62,-85.75,11.010699437500001,33.559374999999996
2021-06-29 17:32:30.140625000,-44.0,-20.0,42.0,89.62,-84.08,11.007496875000001,33.558749999999996
2021-06-29 17:32:30.148437500,-44.0,-20.0,42.0,89.62,-77.965,11.0042943125,33.558125
2021-06-29 17:32:30.156250000,-44.0,-20.0,42.0,89.62,-71.85,11.00109175,33.5575
2021-06-29 17:32:30.164062500,-44.0,-20.0,42.0,89.62,-61.76,10.9978891875,33.556875
2021-06-29 17:32:30.171875000,-44.0,-20.0,42.0,89.62,-51.67,10.994686625,33.55625
2021-06-29 17:32:30.179687500,-44.0,-20.0,42.0,89.62,-38.86,10.991484062500001,33.555625
2021-06-29 17:32:30.187500000,-44.0,-20.0,42.0,89.62,-26.05,10.988281500000001,33.555
2021-06-29 17:32:30.195312500,-44.0,-20.0,42.0,89.62,-12.21,10.9850789375,33.554375
2021-06-29 17:32:30.203125000,-44.0,-20.0,42.0,89.62,1.63,10.981876375,33.55375
2021-06-29 17:32:30.210937500,-44.0,-20.0,42.0,89.62,14.850000000000001,10.9786738125,33.553124999999994
2021-06-29 17:32:30.218750000,-44.0,-20.0,42.0,89.62,28.07,10.97547125,33.552499999999995
2021-06-29 17:32:30.226562500,-44.0,-20.0,42.0,89.62,39.4,10.972268687500002,33.551874999999995
2021-06-29 17:32:30.234375000,-44.0,-20.0,42.0,89.62,50.73,10.969066125000001,33.551249999999996
2021-06-29 17:32:30.242187500,-44.0,-20.0,42.0,89.62,59.44499999999999,10.965863562500001,33.550625
2021-06-29 17:32:30.250000000,-44.0,-20.0,42.0,89.62,68.16,10.962661,33.55
2021-06-29 17:32:30.257812500,-44.25,-20.0,42.0,89.62,74.05,10.959338375000002,33.55
2021-06-29 17:32:30.265625000,-44.5,-20.0,42.0,89.62,79.94,10.95601575,33.55
2021-06-29 17:32:30.273437500,-44.75,-20.0,42.0,89.62,83.15,10.952693125,33.55
2021-06-29 17:32:30.281250000,-45.0,-20.0,42.0,89.62,86.36,10.9493705,33.55
2021-06-29 17:32:30.289062500,-45.0,-20.0,42.0,89.62,87.195,10.946047875000001,33.55
2021-06-29 17:32:30.296875000,-45.0,-20.0,42.0,89.62,88.03,10.94272525,33.55
2021-06-29 17:32:30.304687500,-45.0,-20.0,42.0,89.62,86.89500000000001,10.939402625,33.55
2021-06-29 17:32:30.312500000,-45.0,-20.0,42.0,89.62,85.76,10.93608,33.55
2021-06-29 17:32:30.320312500,-45.0,-20.0,42.0,89.62,83.08000000000001,10.932757375000001,33.55
2021-06-29 17:32:30.328125000,-45.0,-20.0,42.0,89.62,80.4,10.92943475,33.55
2021-06-29 17:32:30.335937500,-45.0,-20.0,42.0,89.62,76.65,10.926112125,33.55
2021-06-29 17:32:30.343750000,-45.0,-20.0,42.0,89.62,72.9,10.9227895,33.55
2021-06-29 17:32:30.351562500,-44.75,-20.0,42.0,89.62,68.605,10.919466875000001,33.55
2021-06-29 17:32:30.359375000,-44.5,-20.0,42.0,89.62,64.31,10.91614425,33.55
2021-06-29 17:32:30.367187500,-44.25,-20.0,42.0,89.62,60.005,10.912821625,33.55
2021-06-29 17:32:30.375000000,-44.0,-20.0,42.0,89.62,55.7,10.909499,33.55
2021-06-29 17:32:30.382812500,-44.0,-20.0,42.0,89.62,51.900000000000006,10.906176375000001,33.55
2021-06-29 17:32:30.390625000,-44.0,-20.0,42.0,89.62,48.1,10.90285375,33.55
2021-06-29 17:32:30.398437500,-44.0,-20.0,42.0,89.62,45.18,10.899531125,33.55
2021-06-29 17:32:30.406250000,-44.0,-20.0,42.0,89.62,42.26,10.8962085,33.55
2021-06-29 17:32:30.414062500,-44.0,-20.0,42.0,89.62,40.415,10.892885875000001,33.55
2021-06-29 17:32:30.421875000,-44.0,-20.0,42.0,89.62,38.57,10.88956325,33.55
2021-06-29 17:32:30.429687500,-44.0,-20.0,42.0,89.62,37.785,10.886240625,33.55
2021-06-29 17:32:30.437500000,-44.0,-20.0,42.0,89.62,37.0,10.882918,33.55
2021-06-29 17:32:30.445312500,-44.0,-20.0,42.0,89.62,37.075,10.879595375000001,33.55
2021-06-29 17:32:30.453125000,-44.0,-20.0,42.0,89.62,37.15,10.87627275,33.55
2021-06-29 17:32:30.460937500,-44.0,-20.0,42.0,89.62,37.745000000000005,10.872950125,33.55
2021-06-29 17:32:30.468750000,-44.0,-20.0,42.0,89.62,38.34,10.8696275,33.55
2021-06-29 17:32:30.476562500,-44.0,-20.0,42.0,89.62,39.07,10.866304875,33.55
2021-06-29 17:32:30.484375000,-44.0,-20.0,42.0,89.62,39.8,10.86298225,33.55
2021-06-29 17:32:30.492187500,-44.0,-20.0,42.0,89.62,40.295,10.859659624999999,33.55
2021-06-29 17:32:30.500000000,-44.0,-20.0,42.0,89.62,40.79,10.856337,33.55
2021-06-29 17:32:30.507812500,-44.0,-20.0,42.0,89.62,40.730000000000004,10.8531344375,33.55
2021-06-29 17:32:30.515625000,-44.0,-20.0,42.0,89.62,40.67,10.849931875,33.55
2021-06-29 17:32:30.523437500,-44.0,-20.0,42.0,89.62,39.85,10.846729312499999,33.55
2021-06-29 17:32:30.531250000,-44.0,-20.0,42.0,89.62,39.03,10.84352675,33.55
2021-06-29 17:32:30.539062500,-44.0,-20.0,42.0,89.62,37.379999999999995,10.8403241875,33.55
2021-06-29 17:32:30.546875000,-44.0,-20.0,42.0,89.62,35.73,10.837121625,33.55
2021-06-29 17:32:30.554687500,-44.0,-20.0,42.0,89.62,33.325,10.8339190625,33.55
2021-06-29 17:32:30.562500000,-44.0,-20.0,42.0,89.62,30.92,10.8307165,33.55
2021-06-29 17:32:30.570312500,-44.0,-20.0,42.0,89.62,27.935000000000002,10.8275139375,33.55
2021-06-29 17:32:30.578125000,-44.0,-20.0,42.0,89.62,24.95,10.824311375,33.55
2021-06-29 17:32:30.585937500,-44.0,-20.0,42.0,89.62,21.61,10.8211088125,33.55
2021-06-29 17:32:30.593750000,-44.0,-20.0,42.0,89.62,18.27,10.81790625,33.55
2021-06-29 17:32:30.601562500,-44.0,-20.0,42.0,89.62,14.78,10.8147036875,33.55
2021-06-29 17:32:30.609375000,-44.0,-20.0,42.0,89.62,11.29,10.811501125,33.55
2021-06-29 17:32:30.617187500,-44.0,-20.0,42.0,89.62,7.754999999999999,10.8082985625,33.55
2021-06-29 17:32:30.625000000,-44.0,-20.0,42.0,89.62,4.22,10.805095999999999,33.55
2021-06-29 17:32:30.632812500,-44.0,-20.0,42.0,89.62,0.625,10.8018934375,33.55
2021-06-29 17:32:30.640625000,-44.0,-20.0,42.0,89.62,-2.97,10.798690875,33.55
2021-06-29 17:32:30.648437500,-44.0,-20.0,42.0,89.62,-6.785,10.7954883125,33.55
2021-06-29 17:32:30.656250000,-44.0,-20.0,42.0,89.62,-10.6,10.79228575,33.55
2021-06-29 17:32:30.664062500,-44.25,-20.0,42.0,89.62,-14.855,10.7890831875,33.55
2021-06-29 17:32:30.671875000,-44.5,-20.0,42.0,89.62,-19.11,10.785880624999999,33.55
2021-06-29 17:32:30.679687500,-44.75,-20.0,42.0,89.62,-24.015,10.7826780625,33.55
2021-06-29 17:32:30.687500000,-45.0,-20.0,42.0,89.62,-28.92,10.7794755,33.55
2021-06-29 17:32:30.695312500,-44.75,-20.0,42.25,89.62,-34.46,10.7762729375,33.55
2021-06-29 17:32:30.703125000,-44.5,-20.0,42.5,89.62,-40.0,10.773070375,33.55
2021-06-29 17:32:30.710937500,-44.25,-20.0,42.75,89.62,-45.81,10.7698678125,33.55
2021-06-29 17:32:30.718750000,-44.0,-20.0,43.0,89.62,-51.62,10.766665249999999,33.55
2021-06-29 17:32:30.726562500,-44.25,-20.0,42.75,89.62,-56.885,10.7634626875,33.55
2021-06-29 17:32:30.734375000,-44.5,-20.0,42.5,89.62,-62.15,10.760260125,33.55
2021-06-29 17:32:30.742187500,-44.75,-20.0,42.25,89.62,-65.73,10.7570575625,33.55
2021-06-29 17:32:30.750000000,-45.0,-20.0,42.0,89.62,-69.31,10.753855,33.55
2021-06-29 17:32:30.757812500,-44.75,-20.0,42.25,89.62,-70.025,10.7514530625,33.55
2021-06-29 17:32:30.765625000,-44.5,-20.0,42.5,89.62,-70.74,10.749051125,33.55
2021-06-29 17:32:30.773437500,-44.25,-20.0,42.75,89.62,-67.71000000000001,10.7466491875,33.55
2021-06-29 17:32:30.781250000,-44.0,-20.0,43.0,89.62,-64.68,10.744247249999999,33.55
2021-06-29 17:32:30.789062500,-44.25,-20.0,42.75,89.62,-57.730000000000004,10.741845312499999,33.55
2021-06-29 17:32:30.796875000,-44.5,-20.0,42.5,89.62,-50.78,10.739443375,33.55
2021-06-29 17:32:30.804687500,-44.75,-20.0,42.25,89.62,-40.53,10.7370414375,33.55
2021-06-29 17:32:30.812500000,-45.0,-20.0,42.0,89.62,-30.28,10.7346395,33.55
2021-06-29 17:32:30.820312500,-44.75,-20.0,42.0,89.62,-18.03,10.7322375625,33.55
2021-06-29 17:32:30.828125000,-44.5,-20.0,42.0,89.62,-5.78,10.729835625,33.55
2021-06-29 17:32:30.835937500,-44.25,-20.0,42.0,89.62,6.830000000000001,10.7274336875,33.55
2021-06-29 17:32:30.843750000,-44.0,-20.0,42.0,89.62,19.44,10.72503175,33.55
2021-06-29 17:32:30.851562500,-44.0,-20.0,42.0,89.62,30.884999999999998,10.7226298125,33.55
2021-06-29 17:32:30.859375000,-44.0,-20.0,42.0,89.62,42.33,10.720227874999999,33.55
2021-06-29 17:32:30.867187500,-44.0,-20.0,42.0,89.62,51.51,10.717825937499999,33.55
2021-06-29 17:32:30.875000000,-44.0,-20.0,42.0,89.62,60.69,10.715423999999999,33.55
2021-06-29 17:32:30.882812500,-44.0,-20.0,42.0,89.62,67.08500000000001,10.7130220625,33.55
2021-06-29 17:32:30.890625000,-44.0,-20.0,42.0,89.62,73.48,10.710620125,33.55
2021-06-29 17:32:30.898437500,-44.0,-20.0,42.0,89.62,77.05000000000001,10.7082181875,33.55
2021-06-29 17:32:30.906250000,-44.0,-20.0,42.0,89.62,80.62,10.70581625,33.55
2021-06-29 17:32:30.914062500,-44.0,-20.0,42.0,89.62,81.67,10.7034143125,33.55
2021-06-29 17:32:30.921875000,-44.0,-20.0,42.0,89.62,82.72,10.701012375,33.55
2021-06-29 17:32:30.929687500,-44.0,-20.0,42.0,89.62,81.67,10.6986104375,33.55
2021-06-29 17:32:30.937500000,-44.0,-20.0,42.0,89.62,80.62,10.6962085,33.55
2021-06-29 17:32:30.945312500,-44.0,-20.0,42.0,89.62,77.96000000000001,10.693806562499999,33.55
2021-06-29 17:32:30.953125000,-44.0,-20.0,42.0,89.62,75.3,10.691404624999999,33.55
2021-06-29 17:32:30.960937500,-44.0,-20.0,42.0,89.62,71.525,10.6890026875,33.55
2021-06-29 17:32:30.968750000,-44.0,-20.0,42.0,89.62,67.75,10.68660075,33.55
2021-06-29 17:32:30.976562500,-44.0,-20.0,42.0,89.62,63.364999999999995,10.6841988125,33.55
2021-06-29 17:32:30.984375000,-44.0,-20.0,42.0,89.62,58.98,10.681796875,33.55
2021-06-29 17:32:30.992187500,-44.0,-20.0,42.0,89.62,54.519999999999996,10.6793949375,33.55
2021-06-29 17:32:31.000000000,-44.0,-20.0,42.0,89.62,50.06,10.676993,33.55
2021-06-29 17:32:31.007812500,-44.0,-20.0,42.25,89.62,46.040000000000006,10.67499140625,33.551249999999996
2021-06-29 17:32:31.015625000,-44.0,-20.0,42.5,89.62,42.02,10.6729898125,33.552499999999995
2021-06-29 17:32:31.023437500,-44.0,-20.0,42.75,89.62,38.855000000000004,10.670988218749999,33.55375
2021-06-29 17:32:31.031250000,-44.0,-20.0,43.0,89.62,35.69,10.668986624999999,33.555
2021-06-29 17:32:31.039062500,-44.0,-20.0,42.75,89.62,33.585,10.66698503125,33.55625
2021-06-29 17:32:31.046875000,-44.0,-20.0,42.5,89.62,31.48,10.6649834375,33.5575
2021-06-29 17:32:31.054687500,-44.0,-20.0,42.25,89.62,30.405,10.66298184375,33.558749999999996
2021-06-29 17:32:31.062500000,-44.0,-20.0,42.0,89.62,29.33,10.66098025,33.56
2021-06-29 17:32:31.070312500,-44.0,-20.0,42.0,89.62,29.025,10.65897865625,33.56125
2021-06-29 17:32:31.078125000,-44.0,-20.0,42.0,89.62,28.72,10.6569770625,33.5625
2021-06-29 17:32:31.085937500,-44.0,-20.0,42.0,89.62,28.795,10.65497546875,33.56375
2021-06-29 17:32:31.093750000,-44.0,-20.0,42.0,89.62,28.87,10.652973875,33.565
2021-06-29 17:32:31.101562500,-44.0,-20.0,42.0,89.62,28.91,10.65097228125,33.56625
2021-06-29 17:32:31.109375000,-44.0,-20.0,42.0,89.62,28.95,10.6489706875,33.5675
2021-06-29 17:32:31.117187500,-44.0,-20.0,42.0,89.62,28.64,10.64696909375,33.56875
2021-06-29 17:32:31.125000000,-44.0,-20.0,42.0,89.62,28.33,10.6449675,33.57
2021-06-29 17:32:31.132812500,-44.0,-20.0,42.0,89.62,27.49,10.64296590625,33.57125
2021-06-29 17:32:31.140625000,-44.0,-20.0,42.0,89.62,26.65,10.6409643125,33.5725
2021-06-29 17:32:31.148437500,-44.0,-20.0,42.0,89.62,25.24,10.63896271875,33.573750000000004
2021-06-29 17:32:31.156250000,-44.0,-20.0,42.0,89.62,23.83,10.636961125,33.575
2021-06-29 17:32:31.164062500,-44.0,-20.0,42.25,89.62,21.924999999999997,10.63495953125,33.57625
2021-06-29 17:32:31.171875000,-44.0,-20.0,42.5,89.62,20.02,10.6329579375,33.5775
2021-06-29 17:32:31.179687500,-44.0,-20.0,42.75,89.62,17.705,10.63095634375,33.57875
2021-06-29 17:32:31.187500000,-44.0,-20.0,43.0,89.62,15.39,10.62895475,33.58
2021-06-29 17:32:31.195312500,-44.0,-20.0,43.0,89.62,12.79,10.62695315625,33.581250000000004
2021-06-29 17:32:31.203125000,-44.0,-20.0,43.0,89.62,10.19,10.6249515625,33.5825
2021-06-29 17:32:31.210937500,-44.0,-20.0,43.0,89.62,7.39,10.62294996875,33.58375
2021-06-29 17:32:31.218750000,-44.0,-20.0,43.0,89.62,4.59,10.620948375000001,33.585
2021-06-29 17:32:31.226562500,-44.0,-20.0,42.75,89.62,1.6799999999999997,10.618946781250001,33.58625
2021-06-29 17:32:31.234375000,-44.0,-20.0,42.5,89.62,-1.23,10.6169451875,33.587500000000006
2021-06-29 17:32:31.242187500,-44.0,-20.0,42.25,89.62,-4.205,10.61494359375,33.588750000000005
2021-06-29 17:32:31.250000000,-44.0,-20.0,42.0,89.62,-7.18,10.612942,33.59
2021-06-29 17:32:31.257812500,-44.0,-20.0,42.0,89.62,-10.23,10.61110053125,33.59
2021-06-29 17:32:31.265625000,-44.0,-20.0,42.0,89.62,-13.28,10.6092590625,33.59
2021-06-29 17:32:31.273437500,-44.0,-20.0,42.0,89.62,-16.509999999999998,10.60741759375,33.59
2021-06-29 17:32:31.281250000,-44.0,-20.0,42.0,89.62,-19.74,10.605576125,33.59
2021-06-29 17:32:31.289062500,-44.0,-20.0,42.0,89.62,-23.36,10.60373465625,33.59
2021-06-29 17:32:31.296875000,-44.0,-20.0,42.0,89.62,-26.98,10.6018931875,33.59
2021-06-29 17:32:31.304687500,-44.0,-20.0,42.0,89.62,-31.255000000000003,10.60005171875,33.59
2021-06-29 17:32:31.312500000,-44.0,-20.0,42.0,89.62,-35.53,10.598210250000001,33.59
2021-06-29 17:32:31.320312500,-44.0,-20.0,42.0,89.62,-40.57,10.59636878125,33.59
2021-06-29 17:32:31.328125000,-44.0,-20.0,42.0,89.62,-45.61,10.5945273125,33.59
2021-06-29 17:32:31.335937500,-44.0,-20.0,42.0,89.62,-51.239999999999995,10.59268584375,33.59
2021-06-29 17:32:31.343750000,-44.0,-20.0,42.0,89.62,-56.87,10.590844375,33.59
2021-06-29 17:32:31.351562500,-44.0,-20.0,42.0,89.62,-62.455,10.58900290625,33.59
2021-06-29 17:32:31.359375000,-44.0,-20.0,42.0,89.62,-68.04,10.5871614375,33.59
2021-06-29 17:32:31.367187500,-44.0,-20.0,42.0,89.62,-72.54,10.58531996875,33.59
2021-06-29 17:32:31.375000000,-44.0,-20.0,42.0,89.62,-77.04,10.5834785,33.59
2021-06-29 17:32:31.382812500,-44.0,-20.0,42.0,89.62,-79.23500000000001,10.58163703125,33.59
2021-06-29 17:32:31.390625000,-44.0,-20.0,42.0,89.62,-81.43,10.5797955625,33.59
2021-06-29 17:32:31.398437500,-44.0,-20.0,42.0,89.62,-80.295,10.57795409375,33.59
2021-06-29 17:32:31.406250000,-44.0,-20.0,42.0,89.62,-79.16,10.576112625,33.59
2021-06-29 17:32:31.414062500,-44.0,-20.0,42.0,89.62,-74.245,10.57427115625,33.59
2021-06-29 17:32:31.421875000,-44.0,-20.0,42.0,89.62,-69.33,10.5724296875,33.59
2021-06-29 17:32:31.429687500,-44.0,-20.0,42.0,89.62,-60.965,10.57058821875,33.59
2021-06-29 17:32:31.437500000,-44.0,-20.0,42.0,89.62,-52.6,10.568746749999999,33.59
2021-06-29 17:32:31.445312500,-44.0,-20.0,42.0,89.62,-41.825,10.56690528125,33.59
2021-06-29 17:32:31.453125000,-44.0,-20.0,42.0,89.62,-31.05,10.5650638125,33.59
2021-06-29 17:32:31.460937500,-44.0,-20.0,42.0,89.62,-19.310000000000002,10.56322234375,33.59
2021-06-29 17:32:31.468750000,-44.0,-20.0,42.0,89.62,-7.57,10.561380875,33.59
2021-06-29 17:32:31.476562500,-44.0,-20.0,42.0,89.62,3.664999999999999,10.55953940625,33.59
2021-06-29 17:32:31.484375000,-44.0,-20.0,42.0,89.62,14.9,10.5576979375,33.59
2021-06-29 17:32:31.492187500,-44.0,-20.0,42.0,89.62,24.535000000000004,10.55585646875,33.59
2021-06-29 17:32:31.500000000,-44.0,-20.0,42.0,89.62,34.17,10.554015,33.59
2021-06-29 17:32:31.507812500,-44.0,-20.0,42.25,89.62,41.595,10.551853249999999,33.59
2021-06-29 17:32:31.515625000,-44.0,-20.0,42.5,89.62,49.02,10.5496915,33.59
2021-06-29 17:32:31.523437500,-44.0,-20.0,42.75,89.62,54.085,10.547529749999999,33.59
2021-06-29 17:32:31.531250000,-44.0,-20.0,43.0,89.62,59.15,10.545368,33.59
2021-06-29 17:32:31.539062500,-44.0,-20.0,42.75,89.62,62.010000000000005,10.543206249999999,33.59
2021-06-29 17:32:31.546875000,-44.0,-20.0,42.5,89.62,64.87,10.5410445,33.59
2021-06-29 17:32:31.554687500,-44.0,-20.0,42.25,89.62,65.785,10.538882749999999,33.59
2021-06-29 17:32:31.562500000,-44.0,-20.0,42.0,89.62,66.7,10.536721,33.59
2021-06-29 17:32:31.570312500,-44.0,-20.0,42.0,89.62,65.99000000000001,10.53455925,33.59
2021-06-29 17:32:31.578125000,-44.0,-20.0,42.0,89.62,65.28,10.5323975,33.59
2021-06-29 17:32:31.585937500,-44.0,-20.0,42.0,89.62,63.254999999999995,10.53023575,33.59
2021-06-29 17:32:31.593750000,-44.0,-20.0,42.0,89.62,61.23,10.528074,33.59
2021-06-29 17:32:31.601562500,-44.0,-20.0,42.0,89.62,58.295,10.52591225,33.59
2021-06-29 17:32:31.609375000,-44.0,-20.0,42.0,89.62,55.36,10.5237505,33.59
2021-06-29 17:32:31.617187500,-44.0,-20.0,42.0,89.62,51.955,10.52158875,33.59
2021-06-29 17:32:31.625000000,-44.0,-20.0,42.0,89.62,48.55,10.519427,33.59
2021-06-29 17:32:31.632812500,-44.0,-20.0,42.25,89.62,45.144999999999996,10.51726525,33.59
2021-06-29 17:32:31.640625000,-44.0,-20.0,42.5,89.62,41.74,10.515103499999999,33.59
2021-06-29 17:32:31.648437500,-44.0,-20.0,42.75,89.62,38.730000000000004,10.51294175,33.59
2021-06-29 17:32:31.656250000,-44.0,-20.0,43.0,89.62,35.72,10.510779999999999,33.59
2021-06-29 17:32:31.664062500,-44.0,-20.0,42.75,89.62,33.345,10.50861825,33.59
2021-06-29 17:32:31.671875000,-44.0,-20.0,42.5,89.62,30.97,10.506456499999999,33.59
2021-06-29 17:32:31.679687500,-44.0,-20.0,42.25,89.62,29.295,10.50429475,33.59
2021-06-29 17:32:31.687500000,-44.0,-20.0,42.0,89.62,27.62,10.502132999999999,33.59
2021-06-29 17:32:31.695312500,-44.0,-20.0,42.0,89.62,26.560000000000002,10.49997125,33.59
2021-06-29 17:32:31.703125000,-44.0,-20.0,42.0,89.62,25.5,10.497809499999999,33.59
2021-06-29 17:32:31.710937500,-44.0,-20.0,42.0,89.62,24.91,10.49564775,33.59
2021-06-29 17:32:31.718750000,-44.0,-20.0,42.0,89.62,24.32,10.493485999999999,33.59
2021-06-29 17:32:31.726562500,-44.25,-20.0,42.25,89.62,24.05,10.49132425,33.59
2021-06-29 17:32:31.734375000,-44.5,-20.0,42.5,89.62,23.78,10.489162499999999,33.59
2021-06-29 17:32:31.742187500,-44.75,-20.0,42.75,89.62,23.71,10.48700075,33.59
2021-06-29 17:32:31.750000000,-45.0,-20.0,43.0,89.62,23.64,10.484839,33.59
2021-06-29 17:32:31.757812500,-44.75,-20.0,43.0,89.62,23.68,10.484318593749999,33.59
2021-06-29 17:32:31.765625000,-44.5,-20.0,43.0,89.62,23.72,10.4837981875,33.59
2021-06-29 17:32:31.773437500,-44.25,-20.0,43.0,89.62,23.715,10.483277781249999,33.59
2021-06-29 17:32:31.781250000,-44.0,-20.0,43.0,89.62,23.71,10.482757374999998,33.59
2021-06-29 17:32:31.789062500,-44.0,-20.0,43.0,89.62,23.47,10.48223696875,33.59
2021-06-29 17:32:31.796875000,-44.0,-20.0,43.0,89.62,23.23,10.481716562499999,33.59
2021-06-29 17:32:31.804687500,-44.0,-20.0,43.0,89.62,22.505000000000003,10.481196156249998,33.59
2021-06-29 17:32:31.812500000,-44.0,-20.0,43.0,89.62,21.78,10.48067575,33.59
2021-06-29 17:32:31.820312500,-44.0,-20.0,42.75,89.62,20.36,10.480155343749999,33.59
2021-06-29 17:32:31.828125000,-44.0,-20.0,42.5,89.62,18.94,10.479634937499998,33.59
2021-06-29 17:32:31.835937500,-44.0,-20.0,42.25,89.62,16.77,10.47911453125,33.59
2021-06-29 17:32:31.843750000,-44.0,-20.0,42.0,89.62,14.6,10.478594124999999,33.59
2021-06-29 17:32:31.851562500,-44.0,-20.0,42.25,89.62,11.79,10.478073718749998,33.59
2021-06-29 17:32:31.859375000,-44.0,-20.0,42.5,89.62,8.98,10.4775533125,33.59
2021-06-29 17:32:31.867187500,-44.0,-20.0,42.75,89.62,5.800000000000001,10.477032906249999,33.59
2021-06-29 17:32:31.875000000,-44.0,-20.0,43.0,89.62,2.62,10.476512499999998,33.59
2021-06-29 17:32:31.882812500,-44.25,-20.0,42.75,89.62,-0.6099999999999999,10.47599209375,33.59
2021-06-29 17:32:31.890625000,-44.5,-20.0,42.5,89.62,-3.84,10.475471687499999,33.59
2021-06-29 17:32:31.898437500,-44.75,-20.0,42.25,89.62,-6.915,10.47495128125,33.59
2021-06-29 17:32:31.906250000,-45.0,-20.0,42.0,89.62,-9.99,10.474430875,33.59
2021-06-29 17:32:31.914062500,-44.75,-20.0,42.0,89.62,-12.89,10.473910468749999,33.59
2021-06-29 17:32:31.921875000,-44.5,-20.0,42.0,89.62,-15.79,10.4733900625,33.59
2021-06-29 17:32:31.929687500,-44.25,-20.0,42.0,89.62,-18.705,10.47286965625,33.59
2021-06-29 17:32:31.937500000,-44.0,-20.0,42.0,89.62,-21.62,10.472349249999999,33.59
2021-06-29 17:32:31.945312500,-44.25,-20.0,42.0,89.62,-24.875,10.47182884375,33.59
