TimeStamp,empatica.acc.x,empatica.acc.y,empatica.acc.z,empatica.hr,empatica.bvp,empatica.eda,empatica.temp
2021-06-29 17:35:41.695312500,-45.0,-16.0,43.0,89.75609375,4.775,11.498645374999999,33.53
2021-06-29 17:35:41.703125000,-45.0,-16.0,43.0,89.7559375,2.32,11.514309749999999,33.53
2021-06-29 17:35:41.710937500,-45.0,-16.0,43.0,89.75578125,-0.2950000000000004,11.529974124999999,33.53
2021-06-29 17:35:41.718750000,-45.0,-16.0,43.0,89.755625,-2.91,11.545638499999999,33.53
2021-06-29 17:35:41.726562500,-45.0,-16.0,43.0,89.75546875,-5.695,11.561302874999999,33.53
2021-06-29 17:35:41.734375000,-45.0,-16.0,43.0,89.7553125,-8.48,11.57696725,33.53
2021-06-29 17:35:41.742187500,-45.0,-16.0,43.0,89.75515625,-11.5,11.592631625,33.53
2021-06-29 17:35:41.750000000,-45.0,-16.0,43.0,89.755,-14.52,11.608296,33.53
2021-06-29 17:35:41.757812500,-45.0,-16.0,43.0,89.75484374999999,-17.85,11.62396034375,33.53
2021-06-29 17:35:41.765625000,-45.0,-16.0,43.0,89.7546875,-21.18,11.6396246875,33.53
2021-06-29 17:35:41.773437500,-45.0,-16.0,43.0,89.75453125,-24.975,11.65528903125,33.53
2021-06-29 17:35:41.781250000,-45.0,-16.0,43.0,89.754375,-28.77,11.670953375,33.53
2021-06-29 17:35:41.789062500,-45.0,-16.0,43.0,89.75421874999999,-33.225,11.68661771875,33.53
2021-06-29 17:35:41.796875000,-45.0,-16.0,43.0,89.7540625,-37.68,11.7022820625,33.53
2021-06-29 17:35:41.804687500,-45.0,-16.0,43.0,89.75390625,-42.93,11.71794640625,33.53
2021-06-29 17:35:41.812500000,-45.0,-16.0,43.0,89.75375,-48.18,11.73361075,33.53
2021-06-29 17:35:41.820312500,-45.0,-16.0,43.0,89.75359375,-54.114999999999995,11.749275093749999,33.53
2021-06-29 17:35:41.828125000,-45.0,-16.0,43.0,89.7534375,-60.05,11.764939437499999,33.53
2021-06-29 17:35:41.835937500,-45.0,-16.0,43.0,89.75328125,-66.16,11.780603781249999,33.53
2021-06-29 17:35:41.843750000,-45.0,-16.0,43.0,89.753125,-72.27,11.796268125,33.53
2021-06-29 17:35:41.851562500,-45.0,-16.0,43.0,89.75296875,-77.535,11.81193246875,33.53
2021-06-29 17:35:41.859375000,-45.0,-16.0,43.0,89.7528125,-82.8,11.8275968125,33.53
2021-06-29 17:35:41.867187500,-45.0,-16.0,43.0,89.75265625,-85.91499999999999,11.84326115625,33.53
2021-06-29 17:35:41.875000000,-45.0,-16.0,43.0,89.7525,-89.03,11.8589255,33.53
2021-06-29 17:35:41.882812500,-45.0,-16.0,43.0,89.75234375,-88.75,11.87458984375,33.53
2021-06-29 17:35:41.890625000,-45.0,-16.0,43.0,89.7521875,-88.47,11.8902541875,33.53
2021-06-29 17:35:41.898437500,-45.0,-16.0,43.0,89.75203125,-84.1,11.90591853125,33.53
2021-06-29 17:35:41.906250000,-45.0,-16.0,43.0,89.751875,-79.73,11.921582875,33.53
2021-06-29 17:35:41.914062500,-45.0,-16.0,43.0,89.75171875,-71.46000000000001,11.93724721875,33.53
2021-06-29 17:35:41.921875000,-45.0,-16.0,43.0,89.7515625,-63.19,11.9529115625,33.53
2021-06-29 17:35:41.929687500,-45.0,-16.0,43.0,89.75140625,-52.084999999999994,11.96857590625,33.53
2021-06-29 17:35:41.937500000,-45.0,-16.0,43.0,89.75125,-40.98,11.98424025,33.53
2021-06-29 17:35:41.945312500,-45.0,-16.0,43.0,89.75109375,-28.689999999999998,11.99990459375,33.53
2021-06-29 17:35:41.953125000,-45.0,-16.0,43.0,89.7509375,-16.4,12.0155689375,33.53
2021-06-29 17:35:41.960937500,-45.0,-16.0,43.0,89.75078125,-4.619999999999999,12.03123328125,33.53
2021-06-29 17:35:41.968750000,-45.0,-16.0,43.0,89.750625,7.16,12.046897625,33.53
2021-06-29 17:35:41.976562500,-45.0,-16.0,43.0,89.75046875,17.16,12.06256196875,33.53
2021-06-29 17:35:41.984375000,-45.0,-16.0,43.0,89.7503125,27.16,12.0782263125,33.53
2021-06-29 17:35:41.992187500,-45.0,-16.0,43.0,89.75015625,34.75,12.09389065625,33.53
2021-06-29 17:35:42.000000000,-45.0,-16.0,43.0,89.75,42.34,12.109555,33.53
2021-06-29 17:35:42.007812500,-45.0,-16.0,43.0,89.75,47.495000000000005,12.12519475,33.52875
2021-06-29 17:35:42.015625000,-45.0,-16.0,43.0,89.75,52.65,12.1408345,33.5275
2021-06-29 17:35:42.023437500,-45.0,-16.0,43.0,89.75,55.67,12.15647425,33.526250000000005
2021-06-29 17:35:42.031250000,-45.0,-16.0,43.0,89.75,58.69,12.172114,33.525
2021-06-29 17:35:42.039062500,-45.0,-16.0,43.0,89.75,59.91,12.18775375,33.52375
2021-06-29 17:35:42.046875000,-45.0,-16.0,43.0,89.75,61.13,12.2033935,33.5225
2021-06-29 17:35:42.054687500,-45.0,-16.0,43.0,89.75,60.790000000000006,12.21903325,33.52125
2021-06-29 17:35:42.062500000,-45.0,-16.0,43.0,89.75,60.45,12.234673,33.52
2021-06-29 17:35:42.070312500,-45.0,-16.0,43.0,89.75,58.675,12.25031275,33.518750000000004
2021-06-29 17:35:42.078125000,-45.0,-16.0,43.0,89.75,56.9,12.265952500000001,33.5175
2021-06-29 17:35:42.085937500,-45.0,-16.0,43.0,89.75,53.875,12.281592250000001,33.51625
2021-06-29 17:35:42.093750000,-45.0,-16.0,43.0,89.75,50.85,12.297232000000001,33.515
2021-06-29 17:35:42.101562500,-45.0,-16.0,43.0,89.75,46.95,12.312871750000001,33.51375
2021-06-29 17:35:42.109375000,-45.0,-16.0,43.0,89.75,43.05,12.328511500000001,33.5125
2021-06-29 17:35:42.117187500,-45.0,-16.0,43.0,89.75,38.845,12.344151250000001,33.511250000000004
2021-06-29 17:35:42.125000000,-45.0,-16.0,43.0,89.75,34.64,12.359791000000001,33.510000000000005
2021-06-29 17:35:42.132812500,-45.0,-16.0,43.0,89.75,30.805,12.37543075,33.50875
2021-06-29 17:35:42.140625000,-45.0,-16.0,43.0,89.75,26.97,12.3910705,33.5075
2021-06-29 17:35:42.148437500,-45.0,-16.0,43.0,89.75,24.08,12.40671025,33.50625
2021-06-29 17:35:42.156250000,-45.0,-16.0,43.0,89.75,21.19,12.42235,33.505
2021-06-29 17:35:42.164062500,-45.0,-16.0,43.0,89.75,19.555,12.43798975,33.503750000000004
2021-06-29 17:35:42.171875000,-45.0,-16.0,43.0,89.75,17.92,12.4536295,33.502500000000005
2021-06-29 17:35:42.179687500,-45.0,-16.0,43.0,89.75,17.47,12.46926925,33.50125
2021-06-29 17:35:42.187500000,-45.0,-16.0,43.0,89.75,17.02,12.484909,33.5
2021-06-29 17:35:42.195312500,-45.0,-16.0,43.0,89.75,17.375,12.50054875,33.49875
2021-06-29 17:35:42.203125000,-45.0,-16.0,43.0,89.75,17.73,12.5161885,33.4975
2021-06-29 17:35:42.210937500,-45.0,-16.0,43.0,89.75,18.345,12.53182825,33.49625
2021-06-29 17:35:42.218750000,-45.0,-16.0,43.0,89.75,18.96,12.547468,33.495000000000005
2021-06-29 17:35:42.226562500,-45.0,-16.0,43.0,89.75,19.33,12.56310775,33.49375
2021-06-29 17:35:42.234375000,-45.0,-16.0,43.0,89.75,19.7,12.5787475,33.4925
2021-06-29 17:35:42.242187500,-45.0,-16.0,43.0,89.75,19.490000000000002,12.59438725,33.49125
2021-06-29 17:35:42.250000000,-45.0,-16.0,43.0,89.75,19.28,12.610027,33.49
2021-06-29 17:35:42.257812500,-45.0,-16.0,43.0,89.75,18.36,12.625696375,33.49
2021-06-29 17:35:42.265625000,-45.0,-16.0,43.0,89.75,17.44,12.64136575,33.49
2021-06-29 17:35:42.273437500,-45.0,-16.0,43.0,89.75,15.84,12.657035125,33.49
2021-06-29 17:35:42.281250000,-45.0,-16.0,43.0,89.75,14.24,12.6727045,33.49
2021-06-29 17:35:42.289062500,-45.0,-16.0,43.25,89.75,12.08,12.688373875,33.49
2021-06-29 17:35:42.296875000,-45.0,-16.0,43.5,89.75,9.92,12.70404325,33.49
2021-06-29 17:35:42.304687500,-45.0,-16.0,43.75,89.75,7.305,12.719712625,33.49
2021-06-29 17:35:42.312500000,-45.0,-16.0,44.0,89.75,4.69,12.735382000000001,33.49
2021-06-29 17:35:42.320312500,-45.0,-16.0,44.0,89.75,1.7300000000000004,12.751051375000001,33.49
2021-06-29 17:35:42.328125000,-45.0,-16.0,44.0,89.75,-1.23,12.766720750000001,33.49
2021-06-29 17:35:42.335937500,-45.0,-16.0,44.0,89.75,-4.425000000000001,12.782390125000001,33.49
2021-06-29 17:35:42.343750000,-45.0,-16.0,44.0,89.75,-7.62,12.7980595,33.49
2021-06-29 17:35:42.351562500,-45.0,-16.0,43.75,89.75,-10.95,12.813728875,33.49
2021-06-29 17:35:42.359375000,-45.0,-16.0,43.5,89.75,-14.28,12.82939825,33.49
2021-06-29 17:35:42.367187500,-45.0,-16.0,43.25,89.75,-17.669999999999998,12.845067625,33.49
2021-06-29 17:35:42.375000000,-45.0,-16.0,43.0,89.75,-21.06,12.860737,33.49
2021-06-29 17:35:42.382812500,-45.0,-16.0,43.0,89.75,-24.535,12.876406375,33.49
2021-06-29 17:35:42.390625000,-45.0,-16.0,43.0,89.75,-28.01,12.89207575,33.49
2021-06-29 17:35:42.398437500,-45.0,-16.0,43.0,89.75,-31.765,12.907745125,33.49
2021-06-29 17:35:42.406250000,-45.0,-16.0,43.0,89.75,-35.52,12.9234145,33.49
2021-06-29 17:35:42.414062500,-45.0,-16.0,43.0,89.75,-39.85,12.939083875,33.49
2021-06-29 17:35:42.421875000,-45.0,-16.0,43.0,89.75,-44.18,12.95475325,33.49
2021-06-29 17:35:42.429687500,-45.0,-16.0,43.0,89.75,-49.355000000000004,12.970422625,33.49
2021-06-29 17:35:42.437500000,-45.0,-16.0,43.0,89.75,-54.53,12.986092,33.49
2021-06-29 17:35:42.445312500,-45.0,-16.0,43.0,89.75,-60.555,13.001761375000001,33.49
2021-06-29 17:35:42.453125000,-45.0,-16.0,43.0,89.75,-66.58,13.01743075,33.49
2021-06-29 17:35:42.460937500,-45.0,-16.0,43.0,89.75,-72.94,13.033100125,33.49
2021-06-29 17:35:42.468750000,-45.0,-16.0,43.0,89.75,-79.3,13.0487695,33.49
2021-06-29 17:35:42.476562500,-45.0,-16.0,43.0,89.75,-84.935,13.064438875,33.49
2021-06-29 17:35:42.484375000,-45.0,-16.0,43.0,89.75,-90.57,13.08010825,33.49
2021-06-29 17:35:42.492187500,-45.0,-16.0,43.0,89.75,-94.06,13.095777625,33.49
2021-06-29 17:35:42.500000000,-45.0,-16.0,43.0,89.75,-97.55,13.111447,33.49
2021-06-29 17:35:42.507812500,-45.0,-16.0,43.0,89.75,-97.53999999999999,13.11631040625,33.49
2021-06-29 17:35:42.515625000,-45.0,-16.0,43.0,89.75,-97.53,13.1211738125,33.49
2021-06-29 17:35:42.523437500,-45.0,-16.0,43.0,89.75,-93.235,13.12603721875,33.49
2021-06-29 17:35:42.531250000,-45.0,-16.0,43.0,89.75,-88.94,13.130900625,33.49
2021-06-29 17:35:42.539062500,-45.0,-16.0,43.0,89.75,-80.485,13.13576403125,33.49
2021-06-29 17:35:42.546875000,-45.0,-16.0,43.0,89.75,-72.03,13.1406274375,33.49
2021-06-29 17:35:42.554687500,-45.0,-16.0,43.0,89.75,-60.47,13.14549084375,33.49
2021-06-29 17:35:42.562500000,-45.0,-16.0,43.0,89.75,-48.91,13.15035425,33.49
2021-06-29 17:35:42.570312500,-45.0,-16.0,43.0,89.75,-35.925,13.15521765625,33.49
2021-06-29 17:35:42.578125000,-45.0,-16.0,43.0,89.75,-22.94,13.1600810625,33.49
2021-06-29 17:35:42.585937500,-45.0,-16.0,43.0,89.75,-10.315000000000001,13.164944468749999,33.49
2021-06-29 17:35:42.593750000,-45.0,-16.0,43.0,89.75,2.31,13.169807875,33.49
2021-06-29 17:35:42.601562500,-45.0,-16.0,43.0,89.75,13.170000000000002,13.17467128125,33.49
2021-06-29 17:35:42.609375000,-45.0,-16.0,43.0,89.75,24.03,13.1795346875,33.49
2021-06-29 17:35:42.617187500,-45.0,-16.0,43.0,89.75,32.379999999999995,13.18439809375,33.49
2021-06-29 17:35:42.625000000,-45.0,-16.0,43.0,89.75,40.73,13.1892615,33.49
2021-06-29 17:35:42.632812500,-45.0,-16.0,43.0,89.75,46.43,13.19412490625,33.49
2021-06-29 17:35:42.640625000,-45.0,-16.0,43.0,89.75,52.13,13.1989883125,33.49
2021-06-29 17:35:42.648437500,-45.0,-16.0,43.0,89.75,55.49,13.20385171875,33.49
2021-06-29 17:35:42.656250000,-45.0,-16.0,43.0,89.75,58.85,13.208715125,33.49
2021-06-29 17:35:42.664062500,-45.0,-16.0,43.25,89.75,60.285,13.21357853125,33.49
2021-06-29 17:35:42.671875000,-45.0,-16.0,43.5,89.75,61.72,13.2184419375,33.49
2021-06-29 17:35:42.679687500,-45.0,-16.0,43.75,89.75,61.595,13.223305343749999,33.49
2021-06-29 17:35:42.687500000,-45.0,-16.0,44.0,89.75,61.47,13.22816875,33.49
2021-06-29 17:35:42.695312500,-45.0,-16.0,43.75,89.75,60.065,13.23303215625,33.49
2021-06-29 17:35:42.703125000,-45.0,-16.0,43.5,89.75,58.66,13.2378955625,33.49
2021-06-29 17:35:42.710937500,-45.0,-16.0,43.25,89.75,56.209999999999994,13.24275896875,33.49
2021-06-29 17:35:42.718750000,-45.0,-16.0,43.0,89.75,53.76,13.247622374999999,33.49
2021-06-29 17:35:42.726562500,-45.0,-16.0,43.0,89.75,50.565,13.25248578125,33.49
2021-06-29 17:35:42.734375000,-45.0,-16.0,43.0,89.75,47.37,13.2573491875,33.49
2021-06-29 17:35:42.742187500,-45.0,-16.0,43.0,89.75,43.855000000000004,13.26221259375,33.49
2021-06-29 17:35:42.750000000,-45.0,-16.0,43.0,89.75,40.34,13.267076,33.49
2021-06-29 17:35:42.757812500,-45.0,-16.0,43.0,89.75,36.99,13.2554666875,33.49
2021-06-29 17:35:42.765625000,-45.0,-16.0,43.0,89.75,33.64,13.243857375,33.49
2021-06-29 17:35:42.773437500,-45.0,-16.0,43.0,89.75,30.9,13.2322480625,33.49
2021-06-29 17:35:42.781250000,-45.0,-16.0,43.0,89.75,28.16,13.220638749999999,33.49
2021-06-29 17:35:42.789062500,-45.0,-16.0,43.25,89.75,26.32,13.2090294375,33.49
2021-06-29 17:35:42.796875000,-45.0,-16.0,43.5,89.75,24.48,13.197420124999999,33.49
2021-06-29 17:35:42.804687500,-45.0,-16.0,43.75,89.75,23.59,13.1858108125,33.49
2021-06-29 17:35:42.812500000,-45.0,-16.0,44.0,89.75,22.7,13.174201499999999,33.49
2021-06-29 17:35:42.820312500,-45.0,-16.0,43.75,89.75,22.575,13.1625921875,33.49
2021-06-29 17:35:42.828125000,-45.0,-16.0,43.5,89.75,22.45,13.150982875,33.49
2021-06-29 17:35:42.835937500,-45.0,-16.0,43.25,89.75,22.744999999999997,13.1393735625,33.49
2021-06-29 17:35:42.843750000,-45.0,-16.0,43.0,89.75,23.04,13.12776425,33.49
2021-06-29 17:35:42.851562500,-45.0,-16.0,43.0,89.75,23.35,13.1161549375,33.49
2021-06-29 17:35:42.859375000,-45.0,-16.0,43.0,89.75,23.66,13.104545625,33.49
2021-06-29 17:35:42.867187500,-45.0,-16.0,43.0,89.75,23.634999999999998,13.0929363125,33.49
2021-06-29 17:35:42.875000000,-45.0,-16.0,43.0,89.75,23.61,13.081327,33.49
2021-06-29 17:35:42.882812500,-45.0,-16.0,43.0,89.75,23.015,13.0697176875,33.49
2021-06-29 17:35:42.890625000,-45.0,-16.0,43.0,89.75,22.42,13.058108375,33.49
2021-06-29 17:35:42.898437500,-45.0,-16.0,43.0,89.75,21.155,13.0464990625,33.49
2021-06-29 17:35:42.906250000,-45.0,-16.0,43.0,89.75,19.89,13.03488975,33.49
2021-06-29 17:35:42.914062500,-45.0,-16.0,43.0,89.75,17.995,13.0232804375,33.49
2021-06-29 17:35:42.921875000,-45.0,-16.0,43.0,89.75,16.1,13.011671125,33.49
2021-06-29 17:35:42.929687500,-45.0,-16.0,43.0,89.75,13.690000000000001,13.0000618125,33.49
2021-06-29 17:35:42.937500000,-45.0,-16.0,43.0,89.75,11.28,12.988452500000001,33.49
2021-06-29 17:35:42.945312500,-45.0,-16.0,43.0,89.75,8.52,12.9768431875,33.49
2021-06-29 17:35:42.953125000,-45.0,-16.0,43.0,89.75,5.76,12.965233875000001,33.49
2021-06-29 17:35:42.960937500,-45.0,-16.0,43.0,89.75,2.79,12.9536245625,33.49
2021-06-29 17:35:42.968750000,-45.0,-16.0,43.0,89.75,-0.18,12.94201525,33.49
2021-06-29 17:35:42.976562500,-45.0,-16.0,43.0,89.75,-3.2800000000000002,12.9304059375,33.49
2021-06-29 17:35:42.984375000,-45.0,-16.0,43.0,89.75,-6.38,12.918796625,33.49
2021-06-29 17:35:42.992187500,-45.0,-16.0,43.0,89.75,-9.635,12.9071873125,33.49
2021-06-29 17:35:43.000000000,-45.0,-16.0,43.0,89.75,-12.89,12.895578,33.49
2021-06-29 17:35:43.007812500,-45.0,-16.0,43.0,89.75,-16.43,12.8821673125,33.49125
2021-06-29 17:35:43.015625000,-45.0,-16.0,43.0,89.75,-19.97,12.868756625,33.4925
2021-06-29 17:35:43.023437500,-45.0,-16.0,43.0,89.75,-24.015,12.855345937500001,33.49375
2021-06-29 17:35:43.031250000,-45.0,-16.0,43.0,89.75,-28.06,12.84193525,33.495000000000005
2021-06-29 17:35:43.039062500,-45.0,-16.0,43.25,89.75,-32.85,12.8285245625,33.49625
2021-06-29 17:35:43.046875000,-45.0,-16.0,43.5,89.75,-37.64,12.815113875,33.4975
2021-06-29 17:35:43.054687500,-45.0,-16.0,43.75,89.75,-43.32,12.801703187500001,33.49875
2021-06-29 17:35:43.062500000,-45.0,-16.0,44.0,89.75,-49.0,12.7882925,33.5
2021-06-29 17:35:43.070312500,-45.0,-16.0,43.75,89.75,-55.46,12.7748818125,33.50125
2021-06-29 17:35:43.078125000,-45.0,-16.0,43.5,89.75,-61.92,12.761471125,33.502500000000005
2021-06-29 17:35:43.085937500,-45.0,-16.0,43.25,89.75,-68.63,12.7480604375,33.503750000000004
2021-06-29 17:35:43.093750000,-45.0,-16.0,43.0,89.75,-75.34,12.73464975,33.505
2021-06-29 17:35:43.101562500,-45.0,-16.0,43.0,89.75,-81.28999999999999,12.7212390625,33.50625
2021-06-29 17:35:43.109375000,-45.0,-16.0,43.0,89.75,-87.24,12.707828375,33.5075
2021-06-29 17:35:43.117187500,-45.0,-16.0,43.0,89.75,-91.115,12.6944176875,33.50875
2021-06-29 17:35:43.125000000,-45.0,-16.0,43.0,89.75,-94.99,12.681007000000001,33.510000000000005
2021-06-29 17:35:43.132812500,-45.0,-16.0,43.0,89.75,-95.525,12.6675963125,33.511250000000004
2021-06-29 17:35:43.140625000,-45.0,-16.0,43.0,89.75,-96.06,12.654185625,33.5125
2021-06-29 17:35:43.148437500,-45.0,-16.0,43.0,89.75,-92.455,12.6407749375,33.51375
2021-06-29 17:35:43.156250000,-45.0,-16.0,43.0,89.75,-88.85,12.62736425,33.515
2021-06-29 17:35:43.164062500,-45.0,-16.0,43.0,89.75,-81.16499999999999,12.6139535625,33.51625
2021-06-29 17:35:43.171875000,-45.0,-16.0,43.0,89.75,-73.48,12.600542875,33.5175
2021-06-29 17:35:43.179687500,-45.0,-16.0,43.0,89.75,-62.660000000000004,12.5871321875,33.518750000000004
2021-06-29 17:35:43.187500000,-45.0,-16.0,43.0,89.75,-51.84,12.5737215,33.52
2021-06-29 17:35:43.195312500,-45.0,-16.0,43.0,89.75,-39.455,12.5603108125,33.52125
2021-06-29 17:35:43.203125000,-45.0,-16.0,43.0,89.75,-27.07,12.546900125,33.5225
2021-06-29 17:35:43.210937500,-45.0,-16.0,43.0,89.75,-14.82,12.5334894375,33.52375
2021-06-29 17:35:43.218750000,-45.0,-16.0,43.0,89.75,-2.57,12.52007875,33.525
2021-06-29 17:35:43.226562500,-45.0,-16.0,43.0,89.75,8.165,12.5066680625,33.526250000000005
2021-06-29 17:35:43.234375000,-45.0,-16.0,43.0,89.75,18.9,12.493257375,33.5275
2021-06-29 17:35:43.242187500,-45.0,-16.0,43.0,89.75,27.365,12.4798466875,33.52875
2021-06-29 17:35:43.250000000,-45.0,-16.0,43.0,89.75,35.83,12.466436,33.53
2021-06-29 17:35:43.257812500,-45.0,-16.0,43.0,89.75,41.84,12.4613519375,33.53
2021-06-29 17:35:43.265625000,-45.0,-16.0,43.0,89.75,47.85,12.456267875,33.53
2021-06-29 17:35:43.273437500,-45.0,-16.0,43.0,89.75,51.575,12.4511838125,33.53
2021-06-29 17:35:43.281250000,-45.0,-16.0,43.0,89.75,55.3,12.44609975,33.53
2021-06-29 17:35:43.289062500,-45.0,-16.0,43.0,89.75,57.019999999999996,12.4410156875,33.53
2021-06-29 17:35:43.296875000,-45.0,-16.0,43.0,89.75,58.74,12.435931625,33.53
2021-06-29 17:35:43.304687500,-45.0,-16.0,43.0,89.75,58.685,12.4308475625,33.53
2021-06-29 17:35:43.312500000,-45.0,-16.0,43.0,89.75,58.63,12.4257635,33.53
2021-06-29 17:35:43.320312500,-45.0,-16.0,43.0,89.75,57.005,12.4206794375,33.53
2021-06-29 17:35:43.328125000,-45.0,-16.0,43.0,89.75,55.38,12.415595375,33.53
2021-06-29 17:35:43.335937500,-45.0,-16.0,43.0,89.75,52.47,12.4105113125,33.53
2021-06-29 17:35:43.343750000,-45.0,-16.0,43.0,89.75,49.56,12.40542725,33.53
2021-06-29 17:35:43.351562500,-45.0,-16.0,43.25,89.75,45.81,12.4003431875,33.53
2021-06-29 17:35:43.359375000,-45.0,-16.0,43.5,89.75,42.06,12.395259125,33.53
2021-06-29 17:35:43.367187500,-45.0,-16.0,43.75,89.75,38.075,12.390175062500001,33.53
2021-06-29 17:35:43.375000000,-45.0,-16.0,44.0,89.75,34.09,12.385091,33.53
2021-06-29 17:35:43.382812500,-45.0,-16.0,43.75,89.75,30.495,12.3800069375,33.53
2021-06-29 17:35:43.390625000,-45.0,-16.0,43.5,89.75,26.9,12.374922875,33.53
2021-06-29 17:35:43.398437500,-45.0,-16.0,43.25,89.75,24.205,12.3698388125,33.53
2021-06-29 17:35:43.406250000,-45.0,-16.0,43.0,89.75,21.51,12.36475475,33.53
2021-06-29 17:35:43.414062500,-45.0,-16.0,43.0,89.75,19.955,12.3596706875,33.53
2021-06-29 17:35:43.421875000,-45.0,-16.0,43.0,89.75,18.4,12.354586625,33.53
2021-06-29 17:35:43.429687500,-45.0,-16.0,43.0,89.75,17.905,12.3495025625,33.53
2021-06-29 17:35:43.437500000,-45.0,-16.0,43.0,89.75,17.41,12.3444185,33.53
2021-06-29 17:35:43.445312500,-45.0,-16.0,43.0,89.75,17.625,12.3393344375,33.53
2021-06-29 17:35:43.453125000,-45.0,-16.0,43.0,89.75,17.84,12.334250375,33.53
2021-06-29 17:35:43.460937500,-45.0,-16.0,43.0,89.75,18.265,12.3291663125,33.53
2021-06-29 17:35:43.468750000,-45.0,-16.0,43.0,89.75,18.69,12.32408225,33.53
2021-06-29 17:35:43.476562500,-45.0,-16.0,43.0,89.75,18.86,12.3189981875,33.53
2021-06-29 17:35:43.484375000,-45.0,-16.0,43.0,89.75,19.03,12.313914125,33.53
2021-06-29 17:35:43.492187500,-45.0,-16.0,43.0,89.75,18.605,12.3088300625,33.53
2021-06-29 17:35:43.500000000,-45.0,-16.0,43.0,89.75,18.18,12.303746,33.53
2021-06-29 17:35:43.507812500,-45.0,-16.0,43.0,89.75,17.045,12.28899475,33.53
2021-06-29 17:35:43.515625000,-45.0,-16.0,43.0,89.75,15.91,12.2742435,33.53
2021-06-29 17:35:43.523437500,-45.0,-16.0,43.0,89.75,14.145,12.259492250000001,33.53
2021-06-29 17:35:43.531250000,-45.0,-16.0,43.0,89.75,12.38,12.244741000000001,33.53
2021-06-29 17:35:43.539062500,-45.0,-16.0,43.0,89.75,10.16,12.22998975,33.53
2021-06-29 17:35:43.546875000,-45.0,-16.0,43.0,89.75,7.94,12.2152385,33.53
2021-06-29 17:35:43.554687500,-45.0,-16.0,43.0,89.75,5.455,12.20048725,33.53
2021-06-29 17:35:43.562500000,-45.0,-16.0,43.0,89.75,2.97,12.185736,33.53
2021-06-29 17:35:43.570312500,-45.0,-16.0,43.0,89.75,0.3450000000000002,12.17098475,33.53
2021-06-29 17:35:43.578125000,-45.0,-16.0,43.0,89.75,-2.28,12.1562335,33.53
2021-06-29 17:35:43.585937500,-45.0,-16.0,43.0,89.75,-5.029999999999999,12.141482250000001,33.53
2021-06-29 17:35:43.593750000,-45.0,-16.0,43.0,89.75,-7.78,12.126731,33.53
2021-06-29 17:35:43.601562500,-45.0,-16.0,43.0,89.75,-10.72,12.11197975,33.53
2021-06-29 17:35:43.609375000,-45.0,-16.0,43.0,89.75,-13.66,12.0972285,33.53
2021-06-29 17:35:43.617187500,-45.0,-16.0,43.0,89.75,-16.93,12.08247725,33.53
2021-06-29 17:35:43.625000000,-45.0,-16.0,43.0,89.75,-20.2,12.067726,33.53
2021-06-29 17:35:43.632812500,-45.0,-16.0,43.0,89.75,-23.93,12.05297475,33.53
2021-06-29 17:35:43.640625000,-45.0,-16.0,43.0,89.75,-27.66,12.0382235,33.53
2021-06-29 17:35:43.648437500,-45.0,-16.0,43.0,89.75,-32.02,12.023472250000001,33.53
2021-06-29 17:35:43.656250000,-45.0,-16.0,43.0,89.75,-36.38,12.008721000000001,33.53
2021-06-29 17:35:43.664062500,-45.0,-16.0,43.0,89.75,-41.465,11.99396975,33.53
2021-06-29 17:35:43.671875000,-45.0,-16.0,43.0,89.75,-46.55,11.9792185,33.53
2021-06-29 17:35:43.679687500,-45.0,-16.0,43.0,89.75,-52.334999999999994,11.96446725,33.53
2021-06-29 17:35:43.687500000,-45.0,-16.0,43.0,89.75,-58.12,11.949716,33.53
2021-06-29 17:35:43.695312500,-45.0,-16.0,43.0,89.75,-64.28,11.93496475,33.53
2021-06-29 17:35:43.703125000,-45.0,-16.0,43.0,89.75,-70.44,11.920213500000001,33.53
2021-06-29 17:35:43.710937500,-45.0,-16.0,43.0,89.75,-76.25999999999999,11.905462250000001,33.53
2021-06-29 17:35:43.718750000,-45.0,-16.0,43.0,89.75,-82.08,11.890711,33.53
2021-06-29 17:35:43.726562500,-45.0,-16.0,43.0,89.75,-86.44999999999999,11.87595975,33.53
2021-06-29 17:35:43.734375000,-45.0,-16.0,43.0,89.75,-90.82,11.8612085,33.53
2021-06-29 17:35:43.742187500,-45.0,-16.0,43.0,89.75,-92.495,11.84645725,33.53
2021-06-29 17:35:43.750000000,-45.0,-16.0,43.0,89.75,-94.17,11.831706,33.53
2021-06-29 17:35:43.757812500,-45.0,-16.0,43.0,89.75,-92.17,11.82060025,33.53
2021-06-29 17:35:43.765625000,-45.0,-16.0,43.0,89.75,-90.17,11.8094945,33.53
2021-06-29 17:35:43.773437500,-45.0,-16.0,43.0,89.75,-84.15,11.79838875,33.53
2021-06-29 17:35:43.781250000,-45.0,-16.0,43.0,89.75,-78.13,11.787283,33.53
2021-06-29 17:35:43.789062500,-45.0,-16.0,43.0,89.75,-68.615,11.77617725,33.53
2021-06-29 17:35:43.796875000,-45.0,-16.0,43.0,89.75,-59.1,11.765071500000001,33.53
2021-06-29 17:35:43.804687500,-45.0,-16.0,43.0,89.75,-47.35,11.75396575,33.53
2021-06-29 17:35:43.812500000,-45.0,-16.0,43.0,89.75,-35.6,11.74286,33.53
2021-06-29 17:35:43.820312500,-45.0,-16.0,43.0,89.75,-23.245,11.73175425,33.53
2021-06-29 17:35:43.828125000,-45.0,-16.0,43.0,89.75,-10.89,11.7206485,33.53
2021-06-29 17:35:43.835937500,-45.0,-16.0,43.0,89.75,0.5700000000000003,11.70954275,33.53
2021-06-29 17:35:43.843750000,-45.0,-16.0,43.0,89.75,12.03,11.698437,33.53
2021-06-29 17:35:43.851562500,-45.0,-16.0,43.0,89.75,21.545,11.68733125,33.53
2021-06-29 17:35:43.859375000,-45.0,-16.0,43.0,89.75,31.06,11.676225500000001,33.53
2021-06-29 17:35:43.867187500,-45.0,-16.0,43.0,89.75,38.175,11.66511975,33.53
2021-06-29 17:35:43.875000000,-45.0,-16.0,43.0,89.75,45.29,11.654014,33.53
2021-06-29 17:35:43.882812500,-45.0,-16.0,43.0,89.75,50.004999999999995,11.64290825,33.53
2021-06-29 17:35:43.890625000,-45.0,-16.0,43.0,89.75,54.72,11.6318025,33.53
2021-06-29 17:35:43.898437500,-45.0,-16.0,43.0,89.75,57.195,11.62069675,33.53
2021-06-29 17:35:43.906250000,-45.0,-16.0,43.0,89.75,59.67,11.609591,33.53
2021-06-29 17:35:43.914062500,-45.0,-16.0,43.0,89.75,60.105000000000004,11.59848525,33.53
2021-06-29 17:35:43.921875000,-45.0,-16.0,43.0,89.75,60.54,11.5873795,33.53
2021-06-29 17:35:43.929687500,-45.0,-16.0,43.0,89.75,59.095,11.57627375,33.53
2021-06-29 17:35:43.937500000,-45.0,-16.0,43.0,89.75,57.65,11.565168,33.53
2021-06-29 17:35:43.945312500,-45.0,-16.0,43.0,89.75,54.585,11.55406225,33.53
2021-06-29 17:35:43.953125000,-45.0,-16.0,43.0,89.75,51.52,11.542956499999999,33.53
2021-06-29 17:35:43.960937500,-45.0,-16.0,43.0,89.75,47.30500000000001,11.53185075,33.53
2021-06-29 17:35:43.968750000,-45.0,-16.0,43.0,89.75,43.09,11.520745,33.53
2021-06-29 17:35:43.976562500,-45.0,-16.0,43.0,89.75,38.43000000000001,11.50963925,33.53
2021-06-29 17:35:43.984375000,-45.0,-16.0,43.0,89.75,33.77,11.4985335,33.53
2021-06-29 17:35:43.992187500,-45.0,-16.0,43.0,89.75,29.485,11.48742775,33.53
2021-06-29 17:35:44.000000000,-45.0,-16.0,43.0,89.75,25.2,11.476322,33.53
2021-06-29 17:35:44.007812500,-45.0,-16.0,43.0,89.75015625,21.98,11.4719185,33.53
2021-06-29 17:35:44.015625000,-45.0,-16.0,43.0,89.7503125,18.76,11.467514999999999,33.53
2021-06-29 17:35:44.023437500,-45.0,-16.0,43.0,89.75046875,16.955000000000002,11.4631115,33.53
2021-06-29 17:35:44.031250000,-45.0,-16.0,43.0,89.750625,15.15,11.458708,33.53
2021-06-29 17:35:44.039062500,-45.0,-16.0,43.0,89.75078125,14.66,11.4543045,33.53
2021-06-29 17:35:44.046875000,-45.0,-16.0,43.0,89.7509375,14.17,11.449901,33.53
2021-06-29 17:35:44.054687500,-45.0,-16.0,43.0,89.75109375,14.525,11.4454975,33.53
2021-06-29 17:35:44.062500000,-45.0,-16.0,43.0,89.75125,14.88,11.441094,33.53
2021-06-29 17:35:44.070312500,-45.0,-16.0,43.0,89.75140625,15.445,11.4366905,33.53
2021-06-29 17:35:44.078125000,-45.0,-16.0,43.0,89.7515625,16.01,11.432286999999999,33.53
2021-06-29 17:35:44.085937500,-45.0,-16.0,43.0,89.75171875,16.255000000000003,11.4278835,33.53
2021-06-29 17:35:44.093750000,-45.0,-16.0,43.0,89.751875,16.5,11.42348,33.53
2021-06-29 17:35:44.101562500,-45.0,-16.0,43.0,89.75203125,16.175,11.4190765,33.53
2021-06-29 17:35:44.109375000,-45.0,-16.0,43.0,89.7521875,15.85,11.414673,33.53
2021-06-29 17:35:44.117187500,-45.0,-16.0,43.0,89.75234375,14.995000000000001,11.4102695,33.53
2021-06-29 17:35:44.125000000,-45.0,-16.0,43.0,89.7525,14.14,11.405866,33.53
2021-06-29 17:35:44.132812500,-45.0,-16.0,43.0,89.75265625,12.995000000000001,11.4014625,33.53
2021-06-29 17:35:44.140625000,-45.0,-16.0,43.0,89.7528125,11.85,11.397058999999999,33.53
2021-06-29 17:35:44.148437500,-45.0,-16.0,43.0,89.75296875,10.615,11.3926555,33.53
2021-06-29 17:35:44.156250000,-45.0,-16.0,43.0,89.753125,9.38,11.388252,33.53
2021-06-29 17:35:44.164062500,-45.0,-16.0,43.0,89.75328125,8.095,11.3838485,33.53
2021-06-29 17:35:44.171875000,-45.0,-16.0,43.0,89.7534375,6.81,11.379445,33.53
2021-06-29 17:35:44.179687500,-45.0,-16.0,43.0,89.75359375,5.32,11.3750415,33.53
2021-06-29 17:35:44.187500000,-45.0,-16.0,43.0,89.75375,3.83,11.370638,33.53
2021-06-29 17:35:44.195312500,-45.0,-16.0,43.0,89.75390625,1.8800000000000001,11.3662345,33.53
2021-06-29 17:35:44.203125000,-45.0,-16.0,43.0,89.7540625,-0.07,11.361830999999999,33.53
2021-06-29 17:35:44.210937500,-45.0,-16.0,43.0,89.75421874999999,-2.7249999999999996,11.3574275,33.53
2021-06-29 17:35:44.218750000,-45.0,-16.0,43.0,89.754375,-5.38,11.353024,33.53
2021-06-29 17:35:44.226562500,-45.0,-16.0,43.0,89.75453125,-8.89,11.348620499999999,33.53
2021-06-29 17:35:44.234375000,-45.0,-16.0,43.0,89.7546875,-12.4,11.344217,33.53
2021-06-29 17:35:44.242187500,-45.0,-16.0,43.0,89.75484374999999,-16.815,11.3398135,33.53
2021-06-29 17:35:44.250000000,-45.0,-16.0,43.0,89.755,-21.23,11.33541,33.53
2021-06-29 17:35:44.257812500,-45.0,-16.0,43.0,89.75515625,-26.515,11.328297062499999,33.53
2021-06-29 17:35:44.265625000,-45.0,-16.0,43.0,89.7553125,-31.8,11.321184125,33.53
2021-06-29 17:35:44.273437500,-45.0,-16.0,43.0,89.75546875,-37.8,11.3140711875,33.53
2021-06-29 17:35:44.281250000,-45.0,-16.0,43.0,89.755625,-43.8,11.30695825,33.53
2021-06-29 17:35:44.289062500,-45.0,-16.0,43.0,89.75578125,-50.129999999999995,11.2998453125,33.53
2021-06-29 17:35:44.296875000,-45.0,-16.0,43.0,89.7559375,-56.46,11.292732375,33.53
2021-06-29 17:35:44.304687500,-45.0,-16.0,43.0,89.75609375,-62.375,11.2856194375,33.53
2021-06-29 17:35:44.312500000,-45.0,-16.0,43.0,89.75625,-68.29,11.278506499999999,33.53
2021-06-29 17:35:44.320312500,-45.0,-16.0,43.0,89.75640625,-72.71000000000001,11.2713935625,33.53
2021-06-29 17:35:44.328125000,-45.0,-16.0,43.0,89.7565625,-77.13,11.264280625,33.53
2021-06-29 17:35:44.335937500,-45.0,-16.0,43.0,89.75671875,-78.81,11.257167687499999,33.53
2021-06-29 17:35:44.343750000,-45.0,-16.0,43.0,89.756875,-80.49,11.25005475,33.53
2021-06-29 17:35:44.351562500,-45.0,-16.0,43.0,89.75703125,-78.455,11.2429418125,33.53
2021-06-29 17:35:44.359375000,-45.0,-16.0,43.0,89.7571875,-76.42,11.235828875,33.53
2021-06-29 17:35:44.367187500,-45.0,-16.0,43.0,89.75734375,-70.345,11.2287159375,33.53
2021-06-29 17:35:44.375000000,-45.0,-16.0,43.0,89.7575,-64.27,11.221603,33.53
2021-06-29 17:35:44.382812500,-45.0,-16.0,43.0,89.75765625,-54.665,11.2144900625,33.53
2021-06-29 17:35:44.390625000,-45.0,-16.0,43.0,89.7578125,-45.06,11.207377125,33.53
2021-06-29 17:35:44.398437500,-45.0,-16.0,43.0,89.75796875,-33.215,11.2002641875,33.53
2021-06-29 17:35:44.406250000,-45.0,-16.0,43.0,89.75812499999999,-21.37,11.19315125,33.53
2021-06-29 17:35:44.414062500,-45.0,-16.0,43.0,89.75828125,-8.905000000000001,11.186038312500001,33.53
2021-06-29 17:35:44.421875000,-45.0,-16.0,43.0,89.7584375,3.56,11.178925375,33.53
2021-06-29 17:35:44.429687500,-45.0,-16.0,43.0,89.75859375,15.125000000000002,11.1718124375,33.53
2021-06-29 17:35:44.437500000,-45.0,-16.0,43.0,89.75874999999999,26.69,11.164699500000001,33.53
2021-06-29 17:35:44.445312500,-45.0,-16.0,43.0,89.75890625,36.305,11.1575865625,33.53
2021-06-29 17:35:44.453125000,-45.0,-16.0,43.0,89.7590625,45.92,11.150473625,33.53
2021-06-29 17:35:44.460937500,-45.0,-16.0,43.0,89.75921875,53.035,11.1433606875,33.53
2021-06-29 17:35:44.468750000,-45.0,-16.0,43.0,89.75937499999999,60.15,11.13624775,33.53
2021-06-29 17:35:44.476562500,-45.0,-16.0,43.0,89.75953125,64.655,11.1291348125,33.53
2021-06-29 17:35:44.484375000,-45.0,-16.0,43.0,89.7596875,69.16,11.122021875,33.53
2021-06-29 17:35:44.492187500,-45.0,-16.0,43.0,89.75984375,71.125,11.114908937500001,33.53
2021-06-29 17:35:44.500000000,-45.0,-16.0,43.0,89.75999999999999,73.09,11.107796,33.53
2021-06-29 17:35:44.507812500,-45.0,-16.0,43.0,89.76015625,72.66499999999999,11.10391290625,33.53
2021-06-29 17:35:44.515625000,-45.0,-16.0,43.0,89.7603125,72.24,11.1000298125,33.53
2021-06-29 17:35:44.523437500,-45.0,-16.0,43.0,89.76046875,69.69,11.096146718750001,33.53
2021-06-29 17:35:44.531250000,-45.0,-16.0,43.0,89.760625,67.14,11.092263625000001,33.53
2021-06-29 17:35:44.539062500,-45.0,-16.0,43.0,89.76078125,62.9,11.088380531250001,33.53
2021-06-29 17:35:44.546875000,-45.0,-16.0,43.0,89.7609375,58.66,11.0844974375,33.53
2021-06-29 17:35:44.554687500,-45.0,-16.0,43.0,89.76109375,53.42,11.08061434375,33.53
2021-06-29 17:35:44.562500000,-45.0,-16.0,43.0,89.76125,48.18,11.07673125,33.53
2021-06-29 17:35:44.570312500,-45.0,-16.0,43.0,89.76140625,42.8,11.07284815625,33.53
2021-06-29 17:35:44.578125000,-45.0,-16.0,43.0,89.7615625,37.42,11.0689650625,33.53
2021-06-29 17:35:44.585937500,-45.0,-16.0,43.0,89.76171875,32.775,11.06508196875,33.53
2021-06-29 17:35:44.593750000,-45.0,-16.0,43.0,89.761875,28.13,11.061198875,33.53
2021-06-29 17:35:44.601562500,-45.0,-16.0,43.0,89.76203124999999,24.875,11.05731578125,33.53
2021-06-29 17:35:44.609375000,-45.0,-16.0,43.0,89.7621875,21.62,11.0534326875,33.53
2021-06-29 17:35:44.617187500,-45.0,-16.0,43.0,89.76234375,19.995,11.049549593750001,33.53
2021-06-29 17:35:44.625000000,-45.0,-16.0,43.0,89.7625,18.37,11.0456665,33.53
2021-06-29 17:35:44.632812500,-45.0,-16.0,43.0,89.76265624999999,18.17,11.04178340625,33.53
2021-06-29 17:35:44.640625000,-45.0,-16.0,43.0,89.7628125,17.97,11.0379003125,33.53
2021-06-29 17:35:44.648437500,-45.0,-16.0,43.0,89.76296875,18.63,11.03401721875,33.53
2021-06-29 17:35:44.656250000,-45.0,-16.0,43.0,89.763125,19.29,11.030134125,33.53
2021-06-29 17:35:44.664062500,-45.0,-16.0,43.0,89.76328124999999,20.08,11.02625103125,33.53
2021-06-29 17:35:44.671875000,-45.0,-16.0,43.0,89.7634375,20.87,11.0223679375,33.53
2021-06-29 17:35:44.679687500,-45.0,-16.0,43.0,89.76359375,21.15,11.01848484375,33.53
2021-06-29 17:35:44.687500000,-45.0,-16.0,43.0,89.76375,21.43,11.01460175,33.53
2021-06-29 17:35:44.695312500,-45.0,-16.25,43.0,89.76390624999999,20.8,11.01071865625,33.53
2021-06-29 17:35:44.703125000,-45.0,-16.5,43.0,89.7640625,20.17,11.006835562500001,33.53
2021-06-29 17:35:44.710937500,-45.0,-16.75,43.0,89.76421875,18.545,11.00295246875,33.53
2021-06-29 17:35:44.718750000,-45.0,-17.0,43.0,89.764375,16.92,10.999069375,33.53
2021-06-29 17:35:44.726562500,-45.0,-17.0,43.0,89.76453124999999,14.47,10.99518628125,33.53
2021-06-29 17:35:44.734375000,-45.0,-17.0,43.0,89.7646875,12.02,10.9913031875,33.53
2021-06-29 17:35:44.742187500,-45.0,-17.0,43.0,89.76484375,9.02,10.98742009375,33.53
2021-06-29 17:35:44.750000000,-45.0,-17.0,43.0,89.765,6.02,10.983537,33.53
2021-06-29 17:35:44.757812500,-45.25,-17.0,43.0,89.76515625,2.7249999999999996,10.98029440625,33.53
2021-06-29 17:35:44.765625000,-45.5,-17.0,43.0,89.7653125,-0.57,10.977051812500001,33.53
2021-06-29 17:35:44.773437500,-45.75,-17.0,43.0,89.76546875,-4.005,10.97380921875,33.53
2021-06-29 17:35:44.781250000,-46.0,-17.0,43.0,89.765625,-7.44,10.970566625,33.53
2021-06-29 17:35:44.789062500,-45.75,-16.75,43.0,89.76578125,-10.965,10.96732403125,33.53
2021-06-29 17:35:44.796875000,-45.5,-16.5,43.0,89.76593749999999,-14.49,10.964081437499999,33.53
2021-06-29 17:35:44.804687500,-45.25,-16.25,43.0,89.76609375,-18.12,10.96083884375,33.53
2021-06-29 17:35:44.812500000,-45.0,-16.0,43.0,89.76625,-21.75,10.95759625,33.53
2021-06-29 17:35:44.820312500,-45.0,-16.25,43.0,89.76640625,-25.57,10.95435365625,33.53
2021-06-29 17:35:44.828125000,-45.0,-16.5,43.0,89.76656249999999,-29.39,10.9511110625,33.53
2021-06-29 17:35:44.835937500,-45.0,-16.75,43.0,89.76671875,-33.56,10.94786846875,33.53
2021-06-29 17:35:44.843750000,-45.0,-17.0,43.0,89.766875,-37.73,10.944625875,33.53
2021-06-29 17:35:44.851562500,-45.0,-16.75,42.75,89.76703125,-42.525,10.94138328125,33.53
2021-06-29 17:35:44.859375000,-45.0,-16.5,42.5,89.76718749999999,-47.32,10.938140687499999,33.53
2021-06-29 17:35:44.867187500,-45.0,-16.25,42.25,89.76734375,-53.085,10.93489809375,33.53
2021-06-29 17:35:44.875000000,-45.0,-16.0,42.0,89.7675,-58.85,10.9316555,33.53
2021-06-29 17:35:44.882812500,-45.0,-16.0,42.25,89.76765625,-65.78,10.92841290625,33.53
2021-06-29 17:35:44.890625000,-45.0,-16.0,42.5,89.76781249999999,-72.71,10.9251703125,33.53
2021-06-29 17:35:44.898437500,-45.0,-16.0,42.75,89.76796875,-80.59,10.92192771875,33.53
2021-06-29 17:35:44.906250000,-45.0,-16.0,43.0,89.768125,-88.47,10.918685125,33.53
2021-06-29 17:35:44.914062500,-45.0,-16.0,43.0,89.76828125,-96.41,10.91544253125,33.53
2021-06-29 17:35:44.921875000,-45.0,-16.0,43.0,89.76843749999999,-104.35,10.912199937499999,33.53
2021-06-29 17:35:44.929687500,-45.0,-16.0,43.0,89.76859375,-110.815,10.90895734375,33.53
2021-06-29 17:35:44.937500000,-45.0,-16.0,43.0,89.76875,-117.28,10.90571475,33.53
2021-06-29 17:35:44.945312500,-45.0,-16.0,43.0,89.76890625,-120.425,10.902472156249999,33.53
2021-06-29 17:35:44.953125000,-45.0,-16.0,43.0,89.76906249999999,-123.57,10.8992295625,33.53
2021-06-29 17:35:44.960937500,-45.0,-16.0,43.0,89.76921875,-121.86,10.89598696875,33.53
2021-06-29 17:35:44.968750000,-45.0,-16.0,43.0,89.769375,-120.15,10.892744375,33.53
2021-06-29 17:35:44.976562500,-45.0,-16.25,43.0,89.76953125,-112.96000000000001,10.889501781249999,33.53
2021-06-29 17:35:44.984375000,-45.0,-16.5,43.0,89.76968749999999,-105.77,10.886259187499999,33.53
2021-06-29 17:35:44.992187500,-45.0,-16.75,43.0,89.76984374999999,-93.68,10.88301659375,33.53
2021-06-29 17:35:45.000000000,-45.0,-17.0,43.0,89.77,-81.59,10.879774,33.53
2021-06-29 17:35:45.007812500,-45.0,-16.75,43.0,89.77039062499999,-66.27000000000001,10.876919874999999,33.53
2021-06-29 17:35:45.015625000,-45.0,-16.5,43.0,89.77078125,-50.95,10.87406575,33.53
2021-06-29 17:35:45.023437500,-45.0,-16.25,43.0,89.771171875,-34.64,10.871211624999999,33.53
2021-06-29 17:35:45.031250000,-45.0,-16.0,43.0,89.7715625,-18.33,10.8683575,33.53
2021-06-29 17:35:45.039062500,-45.0,-16.0,43.0,89.771953125,-3.134999999999998,10.865503375,33.53
2021-06-29 17:35:45.046875000,-45.0,-16.0,43.0,89.77234374999999,12.06,10.862649249999999,33.53
2021-06-29 17:35:45.054687500,-45.0,-16.0,43.0,89.772734375,24.685000000000002,10.859795125,33.53
2021-06-29 17:35:45.062500000,-45.0,-16.0,43.0,89.773125,37.31,10.856940999999999,33.53
2021-06-29 17:35:45.070312500,-45.0,-16.0,43.0,89.773515625,46.755,10.854086875,33.53
2021-06-29 17:35:45.078125000,-45.0,-16.0,43.0,89.77390625,56.2,10.85123275,33.53
2021-06-29 17:35:45.085937500,-45.0,-16.0,43.0,89.77429687499999,62.51,10.848378624999999,33.53
2021-06-29 17:35:45.093750000,-45.0,-16.0,43.0,89.7746875,68.82,10.8455245,33.53
2021-06-29 17:35:45.101562500,-45.0,-16.25,43.0,89.775078125,72.35499999999999,10.842670374999999,33.53
2021-06-29 17:35:45.109375000,-45.0,-16.5,43.0,89.77546875,75.89,10.83981625,33.53
2021-06-29 17:35:45.117187500,-45.0,-16.75,43.0,89.775859375,77.035,10.836962125,33.53
2021-06-29 17:35:45.125000000,-45.0,-17.0,43.0,89.77624999999999,78.18,10.834108,33.53
2021-06-29 17:35:45.132812500,-45.0,-17.0,43.0,89.776640625,77.23500000000001,10.831253875,33.53
2021-06-29 17:35:45.140625000,-45.0,-17.0,43.0,89.77703125,76.29,10.828399749999999,33.53
2021-06-29 17:35:45.148437500,-45.0,-17.0,43.0,89.777421875,73.55000000000001,10.825545625,33.53
2021-06-29 17:35:45.156250000,-45.0,-17.0,43.0,89.7778125,70.81,10.8226915,33.53
2021-06-29 17:35:45.164062500,-45.0,-17.0,43.0,89.77820312499999,66.745,10.819837375,33.53
2021-06-29 17:35:45.171875000,-45.0,-17.0,43.0,89.77859375,62.68,10.81698325,33.53
2021-06-29 17:35:45.179687500,-45.0,-17.0,43.0,89.778984375,57.980000000000004,10.814129125,33.53
2021-06-29 17:35:45.187500000,-45.0,-17.0,43.0,89.779375,53.28,10.811275,33.53
2021-06-29 17:35:45.195312500,-45.0,-17.0,43.0,89.779765625,48.775000000000006,10.808420875,33.53
2021-06-29 17:35:45.203125000,-45.0,-17.0,43.0,89.78015624999999,44.27,10.80556675,33.53
2021-06-29 17:35:45.210937500,-45.0,-17.0,43.0,89.780546875,40.725,10.802712625,33.53
2021-06-29 17:35:45.218750000,-45.0,-17.0,43.0,89.7809375,37.18,10.7998585,33.53
2021-06-29 17:35:45.226562500,-45.0,-16.75,43.0,89.781328125,35.065,10.797004375,33.53
2021-06-29 17:35:45.234375000,-45.0,-16.5,43.0,89.78171875,32.95,10.79415025,33.53
2021-06-29 17:35:45.242187500,-45.0,-16.25,43.0,89.78210937499999,32.295,10.791296125,33.53
2021-06-29 17:35:45.250000000,-45.0,-16.0,43.0,89.7825,31.64,10.788442,33.53
2021-06-29 17:35:45.257812500,-45.0,-16.25,43.0,89.782890625,32.085,10.785879937499999,33.53
2021-06-29 17:35:45.265625000,-45.0,-16.5,43.0,89.78328125,32.53,10.783317875,33.53
2021-06-29 17:35:45.273437500,-45.0,-16.75,43.0,89.783671875,33.47,10.7807558125,33.53
2021-06-29 17:35:45.281250000,-45.0,-17.0,43.0,89.78406249999999,34.41,10.77819375,33.53
2021-06-29 17:35:45.289062500,-45.0,-16.75,43.0,89.784453125,35.209999999999994,10.775631687499999,33.53
2021-06-29 17:35:45.296875000,-45.0,-16.5,43.0,89.78484375,36.01,10.773069625,33.53
2021-06-29 17:35:45.304687500,-45.0,-16.25,43.0,89.785234375,36.19,10.7705075625,33.53
2021-06-29 17:35:45.312500000,-45.0,-16.0,43.0,89.785625,36.37,10.7679455,33.53
2021-06-29 17:35:45.320312500,-45.0,-16.25,43.0,89.78601562499999,35.675,10.765383437499999,33.53
2021-06-29 17:35:45.328125000,-45.0,-16.5,43.0,89.78640625,34.98,10.762821375,33.53
2021-06-29 17:35:45.335937500,-45.0,-16.75,43.0,89.786796875,33.394999999999996,10.7602593125,33.53
2021-06-29 17:35:45.343750000,-45.0,-17.0,43.0,89.7871875,31.81,10.75769725,33.53
2021-06-29 17:35:45.351562500,-45.0,-17.0,43.0,89.787578125,29.46,10.755135187499999,33.53
2021-06-29 17:35:45.359375000,-45.0,-17.0,43.0,89.78796874999999,27.11,10.752573125,33.53
2021-06-29 17:35:45.367187500,-45.0,-17.0,43.0,89.788359375,24.18,10.7500110625,33.53
2021-06-29 17:35:45.375000000,-45.0,-17.0,43.0,89.78875,21.25,10.747449,33.53
2021-06-29 17:35:45.382812500,-45.0,-16.75,43.0,89.789140625,17.93,10.744886937499999,33.53
2021-06-29 17:35:45.390625000,-45.0,-16.5,43.0,89.78953125,14.61,10.742324875,33.53
2021-06-29 17:35:45.398437500,-45.0,-16.25,43.0,89.78992187499999,11.01,10.7397628125,33.53
2021-06-29 17:35:45.406250000,-45.0,-16.0,43.0,89.7903125,7.41,10.73720075,33.53
2021-06-29 17:35:45.414062500,-45.0,-16.0,43.0,89.790703125,3.59,10.734638687499999,33.53
2021-06-29 17:35:45.421875000,-45.0,-16.0,43.0,89.79109375,-0.23,10.732076625,33.53
2021-06-29 17:35:45.429687500,-45.0,-16.0,43.0,89.791484375,-4.3100000000000005,10.7295145625,33.53
2021-06-29 17:35:45.437500000,-45.0,-16.0,43.0,89.79187499999999,-8.39,10.7269525,33.53
2021-06-29 17:35:45.445312500,-45.0,-16.0,43.0,89.792265625,-12.855,10.724390437499999,33.53
2021-06-29 17:35:45.453125000,-45.0,-16.0,43.0,89.79265625,-17.32,10.721828375,33.53
2021-06-29 17:35:45.460937500,-45.0,-16.0,43.0,89.793046875,-22.365000000000002,10.7192663125,33.53
2021-06-29 17:35:45.468750000,-45.0,-16.0,43.0,89.7934375,-27.41,10.71670425,33.53
2021-06-29 17:35:45.476562500,-45.0,-16.25,43.0,89.79382812499999,-33.28,10.714142187499998,33.53
2021-06-29 17:35:45.484375000,-45.0,-16.5,43.0,89.79421875,-39.15,10.711580125,33.53
2021-06-29 17:35:45.492187500,-45.0,-16.75,43.0,89.794609375,-46.045,10.7090180625,33.53
2021-06-29 17:35:45.500000000,-45.0,-17.0,43.0,89.79499999999999,-52.94,10.706456,33.53
2021-06-29 17:35:45.507812500,-45.0,-16.75,43.0,89.795390625,-60.815,10.70505490625,33.53
2021-06-29 17:35:45.515625000,-45.0,-16.5,43.0,89.79578124999999,-68.69,10.703653812499999,33.53
2021-06-29 17:35:45.523437500,-45.0,-16.25,43.0,89.796171875,-77.06,10.70225271875,33.53
2021-06-29 17:35:45.531250000,-45.0,-16.0,43.0,89.7965625,-85.43,10.700851624999999,33.53
2021-06-29 17:35:45.539062500,-45.0,-16.25,43.0,89.79695312499999,-93.22,10.69945053125,33.53
2021-06-29 17:35:45.546875000,-45.0,-16.5,43.0,89.79734375,-101.01,10.6980494375,33.53
2021-06-29 17:35:45.554687500,-45.0,-16.75,43.0,89.79773437499999,-106.64500000000001,10.696648343749999,33.53
2021-06-29 17:35:45.562500000,-45.0,-17.0,43.0,89.798125,-112.28,10.69524725,33.53
2021-06-29 17:35:45.570312500,-45.0,-17.0,43.0,89.798515625,-114.075,10.69384615625,33.53
2021-06-29 17:35:45.578125000,-45.0,-17.0,43.0,89.79890624999999,-115.87,10.6924450625,33.53
2021-06-29 17:35:45.585937500,-45.0,-17.0,43.0,89.799296875,-112.58000000000001,10.69104396875,33.53
2021-06-29 17:35:45.593750000,-45.0,-17.0,43.0,89.79968749999999,-109.29,10.689642875,33.53
2021-06-29 17:35:45.601562500,-45.0,-16.75,43.0,89.800078125,-100.58000000000001,10.68824178125,33.53
2021-06-29 17:35:45.609375000,-45.0,-16.5,43.0,89.80046875,-91.87,10.6868406875,33.53
2021-06-29 17:35:45.617187500,-45.0,-16.25,43.0,89.80085937499999,-78.59,10.685439593749999,33.53
2021-06-29 17:35:45.625000000,-45.0,-16.0,43.0,89.80125,-65.31,10.6840385,33.53
2021-06-29 17:35:45.632812500,-45.0,-16.25,43.0,89.80164062499999,-49.265,10.68263740625,33.53
2021-06-29 17:35:45.640625000,-45.0,-16.5,43.0,89.80203125,-33.22,10.6812363125,33.53
2021-06-29 17:35:45.648437500,-45.0,-16.75,43.0,89.802421875,-16.63,10.67983521875,33.53
2021-06-29 17:35:45.656250000,-45.0,-17.0,43.0,89.80281249999999,-0.04,10.678434124999999,33.53
2021-06-29 17:35:45.664062500,-45.0,-16.75,43.0,89.803203125,15.08,10.67703303125,33.53
2021-06-29 17:35:45.671875000,-45.0,-16.5,43.0,89.80359374999999,30.2,10.6756319375,33.53
2021-06-29 17:35:45.679687500,-45.0,-16.25,43.0,89.803984375,42.525,10.67423084375,33.53
2021-06-29 17:35:45.687500000,-45.0,-16.0,43.0,89.804375,54.85,10.67282975,33.53
2021-06-29 17:35:45.695312500,-45.0,-16.0,43.0,89.80476562499999,63.86,10.67142865625,33.53
2021-06-29 17:35:45.703125000,-45.0,-16.0,43.0,89.80515625,72.87,10.6700275625,33.53
2021-06-29 17:35:45.710937500,-45.0,-16.0,43.0,89.80554687499999,78.68,10.66862646875,33.53
2021-06-29 17:35:45.718750000,-45.0,-16.0,43.0,89.8059375,84.49,10.667225375000001,33.53
2021-06-29 17:35:45.726562500,-45.0,-16.0,43.0,89.806328125,87.5,10.66582428125,33.53
2021-06-29 17:35:45.734375000,-45.0,-16.0,43.0,89.80671874999999,90.51,10.6644231875,33.53
2021-06-29 17:35:45.742187500,-45.0,-16.0,43.0,89.807109375,91.13,10.66302209375,33.53
2021-06-29 17:35:45.750000000,-45.0,-16.0,43.0,89.80749999999999,91.75,10.661621,33.53
2021-06-29 17:35:45.757812500,-45.0,-16.25,43.0,89.807890625,90.33500000000001,10.65997965625,33.53
2021-06-29 17:35:45.765625000,-45.0,-16.5,43.0,89.80828125,88.92,10.6583383125,33.53
2021-06-29 17:35:45.773437500,-45.0,-16.75,43.0,89.80867187499999,85.815,10.65669696875,33.53
2021-06-29 17:35:45.781250000,-45.0,-17.0,43.0,89.8090625,82.71,10.655055625,33.53
2021-06-29 17:35:45.789062500,-44.75,-17.0,42.75,89.80945312499999,78.38,10.65341428125,33.53
2021-06-29 17:35:45.796875000,-44.5,-17.0,42.5,89.80984375,74.05,10.6517729375,33.53
2021-06-29 17:35:45.804687500,-44.25,-17.0,42.25,89.810234375,69.125,10.65013159375,33.53
2021-06-29 17:35:45.812500000,-44.0,-17.0,42.0,89.81062499999999,64.2,10.64849025,33.53
2021-06-29 17:35:45.820312500,-43.75,-17.0,42.25,89.811015625,59.435,10.64684890625,33.53
2021-06-29 17:35:45.828125000,-43.5,-17.0,42.5,89.81140624999999,54.67,10.6452075625,33.53
2021-06-29 17:35:45.835937500,-43.25,-17.0,42.75,89.811796875,50.735,10.64356621875,33.53
2021-06-29 17:35:45.843750000,-43.0,-17.0,43.0,89.8121875,46.8,10.641924875,33.53
2021-06-29 17:35:45.851562500,-43.75,-17.0,43.0,89.81257812499999,44.114999999999995,10.64028353125,33.53
2021-06-29 17:35:45.859375000,-44.5,-17.0,43.0,89.81296875,41.43,10.6386421875,33.53
2021-06-29 17:35:45.867187500,-45.25,-17.0,43.0,89.81335937499999,40.07,10.63700084375,33.53
2021-06-29 17:35:45.875000000,-46.0,-17.0,43.0,89.81375,38.71,10.6353595,33.53
2021-06-29 17:35:45.882812500,-45.75,-17.0,43.0,89.814140625,38.39,10.63371815625,33.53
2021-06-29 17:35:45.890625000,-45.5,-17.0,43.0,89.81453124999999,38.07,10.6320768125,33.53
2021-06-29 17:35:45.898437500,-45.25,-17.0,43.0,89.814921875,38.28,10.63043546875,33.53
2021-06-29 17:35:45.906250000,-45.0,-17.0,43.0,89.81531249999999,38.49,10.628794124999999,33.53
2021-06-29 17:35:45.914062500,-45.0,-16.75,43.25,89.815703125,38.67,10.62715278125,33.53
2021-06-29 17:35:45.921875000,-45.0,-16.5,43.5,89.81609375,38.85,10.6255114375,33.53
2021-06-29 17:35:45.929687500,-45.0,-16.25,43.75,89.81648437499999,38.53,10.62387009375,33.53
2021-06-29 17:35:45.937500000,-45.0,-16.0,44.0,89.816875,38.21,10.62222875,33.53
2021-06-29 17:35:45.945312500,-45.0,-16.0,44.0,89.81726562499999,37.085,10.62058740625,33.53
2021-06-29 17:35:45.953125000,-45.0,-16.0,44.0,89.81765625,35.96,10.6189460625,33.53
2021-06-29 17:35:45.960937500,-45.0,-16.0,44.0,89.818046875,33.93,10.617304718749999,33.53
2021-06-29 17:35:45.968750000,-45.0,-16.0,44.0,89.81843749999999,31.9,10.615663375,33.53
2021-06-29 17:35:45.976562500,-45.0,-16.25,43.75,89.818828125,29.03,10.61402203125,33.53
2021-06-29 17:35:45.984375000,-45.0,-16.5,43.5,89.81921874999999,26.16,10.6123806875,33.53
2021-06-29 17:35:45.992187500,-45.0,-16.75,43.25,89.819609375,22.634999999999998,10.61073934375,33.53
2021-06-29 17:35:46.000000000,-45.0,-17.0,43.0,89.82,19.11,10.609098,33.53
2021-06-29 17:35:46.007812500,-45.0,-16.75,43.0,89.82046874999999,15.155,10.607977125,33.53
2021-06-29 17:35:46.015625000,-45.0,-16.5,43.0,89.8209375,11.2,10.60685625,33.53
2021-06-29 17:35:46.023437500,-45.0,-16.25,43.0,89.82140625,7.029999999999999,10.605735375,33.53
2021-06-29 17:35:46.031250000,-45.0,-16.0,43.0,89.82187499999999,2.86,10.6046145,33.53
2021-06-29 17:35:46.039062500,-45.0,-16.0,43.0,89.82234374999999,-1.3800000000000003,10.603493625,33.53
2021-06-29 17:35:46.046875000,-45.0,-16.0,43.0,89.8228125,-5.62,10.602372749999999,33.53
2021-06-29 17:35:46.054687500,-45.0,-16.0,43.0,89.82328125,-9.875,10.601251874999999,33.53
2021-06-29 17:35:46.062500000,-45.0,-16.0,43.0,89.82374999999999,-14.13,10.600131,33.53
2021-06-29 17:35:46.070312500,-45.0,-16.0,43.0,89.82421875,-18.45,10.599010125,33.53
2021-06-29 17:35:46.078125000,-45.0,-16.0,43.0,89.8246875,-22.77,10.59788925,33.53
2021-06-29 17:35:46.085937500,-45.0,-16.0,43.0,89.82515624999999,-27.310000000000002,10.596768375,33.53
2021-06-29 17:35:46.093750000,-45.0,-16.0,43.0,89.82562499999999,-31.85,10.5956475,33.53
2021-06-29 17:35:46.101562500,-45.0,-16.0,43.0,89.82609375,-36.82,10.594526625,33.53
2021-06-29 17:35:46.109375000,-45.0,-16.0,43.0,89.8265625,-41.79,10.59340575,33.53
2021-06-29 17:35:46.117187500,-45.0,-16.0,43.0,89.82703124999999,-47.45,10.592284875,33.53
2021-06-29 17:35:46.125000000,-45.0,-16.0,43.0,89.82749999999999,-53.11,10.591164,33.53
2021-06-29 17:35:46.132812500,-45.0,-16.0,43.0,89.82796875,-59.61,10.590043125,33.53
2021-06-29 17:35:46.140625000,-45.0,-16.0,43.0,89.82843749999999,-66.11,10.58892225,33.53
2021-06-29 17:35:46.148437500,-45.0,-16.0,43.0,89.82890624999999,-73.3,10.587801375,33.53
2021-06-29 17:35:46.156250000,-45.0,-16.0,43.0,89.829375,-80.49,10.5866805,33.53
2021-06-29 17:35:46.164062500,-45.0,-16.0,43.0,89.82984375,-87.71000000000001,10.585559625,33.53
2021-06-29 17:35:46.171875000,-45.0,-16.0,43.0,89.83031249999999,-94.93,10.58443875,33.53
2021-06-29 17:35:46.179687500,-45.0,-16.0,43.0,89.83078124999999,-100.915,10.583317875,33.53
2021-06-29 17:35:46.187500000,-45.0,-16.0,43.0,89.83125,-106.9,10.582197,33.53
2021-06-29 17:35:46.195312500,-44.75,-16.0,42.75,89.83171875,-109.995,10.581076125000001,33.53
2021-06-29 17:35:46.203125000,-44.5,-16.0,42.5,89.83218749999999,-113.09,10.579955250000001,33.53
2021-06-29 17:35:46.210937500,-44.25,-16.0,42.25,89.83265625,-111.69,10.578834375,33.53
2021-06-29 17:35:46.218750000,-44.0,-16.0,42.0,89.833125,-110.29,10.5777135,33.53
2021-06-29 17:35:46.226562500,-43.5,-16.5,42.0,89.83359374999999,-103.495,10.576592625,33.53
2021-06-29 17:35:46.234375000,-43.0,-17.0,42.0,89.83406249999999,-96.7,10.57547175,33.53
2021-06-29 17:35:46.242187500,-42.5,-17.5,42.0,89.83453125,-84.71000000000001,10.574350875,33.53
2021-06-29 17:35:46.250000000,-42.0,-18.0,42.0,89.835,-72.72,10.57323,33.53
2021-06-29 17:35:46.257812500,-43.25,-17.5,42.5,89.83546874999999,-56.945,10.57198903125,33.53
2021-06-29 17:35:46.265625000,-44.5,-17.0,43.0,89.8359375,-41.17,10.5707480625,33.53
2021-06-29 17:35:46.273437500,-45.75,-16.5,43.5,89.83640625,-23.810000000000002,10.569507093750001,33.53
2021-06-29 17:35:46.281250000,-47.0,-16.0,44.0,89.83687499999999,-6.45,10.568266125000001,33.53
2021-06-29 17:35:46.289062500,-46.5,-16.25,43.75,89.83734374999999,10.190000000000001,10.56702515625,33.53
2021-06-29 17:35:46.296875000,-46.0,-16.5,43.5,89.8378125,26.83,10.5657841875,33.53
2021-06-29 17:35:46.304687500,-45.5,-16.75,43.25,89.83828125,40.95,10.56454321875,33.53
2021-06-29 17:35:46.312500000,-45.0,-17.0,43.0,89.83874999999999,55.07,10.56330225,33.53
2021-06-29 17:35:46.320312500,-44.75,-16.75,43.25,89.83921875,65.74,10.562061281250001,33.53
2021-06-29 17:35:46.328125000,-44.5,-16.5,43.5,89.8396875,76.41,10.5608203125,33.53
2021-06-29 17:35:46.335937500,-44.25,-16.25,43.75,89.84015624999999,83.475,10.55957934375,33.53
2021-06-29 17:35:46.343750000,-44.0,-16.0,44.0,89.84062499999999,90.54,10.558338375,33.53
2021-06-29 17:35:46.351562500,-44.25,-16.0,44.0,89.84109375,94.34,10.55709740625,33.53
2021-06-29 17:35:46.359375000,-44.5,-16.0,44.0,89.8415625,98.14,10.555856437500001,33.53
2021-06-29 17:35:46.367187500,-44.75,-16.0,44.0,89.84203124999999,99.15,10.55461546875,33.53
2021-06-29 17:35:46.375000000,-45.0,-16.0,44.0,89.8425,100.16,10.5533745,33.53
2021-06-29 17:35:46.382812500,-45.0,-16.0,43.75,89.84296875,98.85499999999999,10.55213353125,33.53
2021-06-29 17:35:46.390625000,-45.0,-16.0,43.5,89.8434375,97.55,10.5508925625,33.53
2021-06-29 17:35:46.398437500,-45.0,-16.0,43.25,89.84390624999999,94.39,10.549651593750001,33.53
2021-06-29 17:35:46.406250000,-45.0,-16.0,43.0,89.844375,91.23,10.548410625,33.53
2021-06-29 17:35:46.414062500,-45.0,-16.0,43.25,89.84484375,86.765,10.54716965625,33.53
2021-06-29 17:35:46.421875000,-45.0,-16.0,43.5,89.84531249999999,82.3,10.5459286875,33.53
2021-06-29 17:35:46.429687500,-45.0,-16.0,43.75,89.84578124999999,77.21000000000001,10.54468771875,33.53
2021-06-29 17:35:46.437500000,-45.0,-16.0,44.0,89.84625,72.12,10.543446750000001,33.53
2021-06-29 17:35:46.445312500,-45.0,-16.0,43.75,89.84671875,67.155,10.54220578125,33.53
2021-06-29 17:35:46.453125000,-45.0,-16.0,43.5,89.84718749999999,62.19,10.5409648125,33.53
2021-06-29 17:35:46.460937500,-45.0,-16.0,43.25,89.84765625,57.989999999999995,10.53972384375,33.53
2021-06-29 17:35:46.468750000,-45.0,-16.0,43.0,89.848125,53.79,10.538482875,33.53
2021-06-29 17:35:46.476562500,-44.75,-16.0,43.0,89.84859374999999,50.79,10.53724190625,33.53
2021-06-29 17:35:46.484375000,-44.5,-16.0,43.0,89.84906249999999,47.79,10.5360009375,33.53
2021-06-29 17:35:46.492187500,-44.25,-16.0,43.0,89.84953125,46.085,10.53475996875,33.53
2021-06-29 17:35:46.500000000,-44.0,-16.0,43.0,89.85,44.38,10.533519,33.53
2021-06-29 17:35:46.507812500,-44.25,-16.0,43.0,89.85046874999999,43.790000000000006,10.532518187500001,33.53
2021-06-29 17:35:46.515625000,-44.5,-16.0,43.0,89.8509375,43.2,10.531517375,33.53
2021-06-29 17:35:46.523437500,-44.75,-16.0,43.0,89.85140625,43.39,10.5305165625,33.53
2021-06-29 17:35:46.531250000,-45.0,-16.0,43.0,89.85187499999999,43.58,10.52951575,33.53
2021-06-29 17:35:46.539062500,-45.0,-16.0,43.0,89.85234374999999,44.125,10.5285149375,33.53
2021-06-29 17:35:46.546875000,-45.0,-16.0,43.0,89.8528125,44.67,10.527514125,33.53
2021-06-29 17:35:46.554687500,-45.0,-16.0,43.0,89.85328125,45.18,10.5265133125,33.53
2021-06-29 17:35:46.562500000,-45.0,-16.0,43.0,89.85374999999999,45.69,10.5255125,33.53
2021-06-29 17:35:46.570312500,-45.0,-16.0,43.0,89.85421875,45.82,10.5245116875,33.53
2021-06-29 17:35:46.578125000,-45.0,-16.0,43.0,89.8546875,45.95,10.523510875,33.53
2021-06-29 17:35:46.585937500,-45.0,-16.0,43.0,89.85515625,45.415000000000006,10.5225100625,33.53
2021-06-29 17:35:46.593750000,-45.0,-16.0,43.0,89.85562499999999,44.88,10.52150925,33.53
2021-06-29 17:35:46.601562500,-45.0,-16.0,43.25,89.85609375,43.47,10.5205084375,33.53
2021-06-29 17:35:46.609375000,-45.0,-16.0,43.5,89.8565625,42.06,10.519507625,33.53
2021-06-29 17:35:46.617187500,-45.0,-16.0,43.75,89.85703124999999,39.650000000000006,10.5185068125,33.53
2021-06-29 17:35:46.625000000,-45.0,-16.0,44.0,89.85749999999999,37.24,10.517506000000001,33.53
2021-06-29 17:35:46.632812500,-45.0,-16.0,43.75,89.85796875,33.83,10.5165051875,33.53
2021-06-29 17:35:46.640625000,-45.0,-16.0,43.5,89.8584375,30.42,10.515504375,33.53
2021-06-29 17:35:46.648437500,-45.0,-16.0,43.25,89.85890624999999,26.155,10.5145035625,33.53
2021-06-29 17:35:46.656250000,-45.0,-16.0,43.0,89.859375,21.89,10.51350275,33.53
2021-06-29 17:35:46.664062500,-45.0,-16.0,43.0,89.85984375,17.07,10.5125019375,33.53
2021-06-29 17:35:46.671875000,-45.0,-16.0,43.0,89.86031249999999,12.25,10.511501125,33.53
2021-06-29 17:35:46.679687500,-45.0,-16.0,43.0,89.86078124999999,7.255,10.5105003125,33.53
2021-06-29 17:35:46.687500000,-45.0,-16.0,43.0,89.86125,2.26,10.5094995,33.53
2021-06-29 17:35:46.695312500,-45.0,-16.0,43.0,89.86171875,-2.585,10.5084986875,33.53
2021-06-29 17:35:46.703125000,-45.0,-16.0,43.0,89.86218749999999,-7.43,10.507497875,33.53
2021-06-29 17:35:46.710937500,-45.0,-16.0,43.0,89.86265625,-11.955,10.5064970625,33.53
2021-06-29 17:35:46.718750000,-45.0,-16.0,43.0,89.863125,-16.48,10.50549625,33.53
2021-06-29 17:35:46.726562500,-45.0,-16.0,43.0,89.86359374999999,-20.78,10.5044954375,33.53
2021-06-29 17:35:46.734375000,-45.0,-16.0,43.0,89.86406249999999,-25.08,10.503494625,33.53
2021-06-29 17:35:46.742187500,-45.0,-16.0,43.0,89.86453125,-29.494999999999997,10.5024938125,33.53
2021-06-29 17:35:46.750000000,-45.0,-16.0,43.0,89.865,-33.91,10.501493,33.53
2021-06-29 17:35:46.757812500,-45.0,-16.0,43.0,89.86546874999999,-38.955,10.50113271875,33.53
2021-06-29 17:35:46.765625000,-45.0,-16.0,43.0,89.8659375,-44.0,10.5007724375,33.53
2021-06-29 17:35:46.773437500,-45.0,-16.0,43.0,89.86640625,-50.165,10.50041215625,33.53
2021-06-29 17:35:46.781250000,-45.0,-16.0,43.0,89.866875,-56.33,10.500051875,33.53
2021-06-29 17:35:46.789062500,-45.0,-16.0,43.0,89.86734374999999,-63.775,10.49969159375,33.53
2021-06-29 17:35:46.796875000,-45.0,-16.0,43.0,89.8678125,-71.22,10.4993313125,33.53
2021-06-29 17:35:46.804687500,-45.0,-16.0,43.0,89.86828125,-79.515,10.49897103125,33.53
2021-06-29 17:35:46.812500000,-45.0,-16.0,43.0,89.86874999999999,-87.81,10.498610750000001,33.53
2021-06-29 17:35:46.820312500,-45.0,-16.0,43.0,89.86921875,-95.82,10.49825046875,33.53
2021-06-29 17:35:46.828125000,-45.0,-16.0,43.0,89.8696875,-103.83,10.4978901875,33.53
2021-06-29 17:35:46.835937500,-45.0,-16.0,43.0,89.87015625,-109.84,10.49752990625,33.53
2021-06-29 17:35:46.843750000,-45.0,-16.0,43.0,89.87062499999999,-115.85,10.497169625,33.53
2021-06-29 17:35:46.851562500,-45.0,-16.0,43.0,89.87109375,-118.015,10.49680934375,33.53
2021-06-29 17:35:46.859375000,-45.0,-16.0,43.0,89.8715625,-120.18,10.4964490625,33.53
2021-06-29 17:35:46.867187500,-45.0,-16.0,43.0,89.87203124999999,-117.13,10.49608878125,33.53
2021-06-29 17:35:46.875000000,-45.0,-16.0,43.0,89.8725,-114.08,10.4957285,33.53
2021-06-29 17:35:46.882812500,-45.0,-16.0,43.0,89.87296875,-105.44999999999999,10.49536821875,33.53
2021-06-29 17:35:46.890625000,-45.0,-16.0,43.0,89.8734375,-96.82,10.4950079375,33.53
2021-06-29 17:35:46.898437500,-45.0,-16.0,43.0,89.87390624999999,-83.46,10.49464765625,33.53
2021-06-29 17:35:46.906250000,-45.0,-16.0,43.0,89.874375,-70.1,10.494287375,33.53
2021-06-29 17:35:46.914062500,-45.0,-16.0,43.0,89.87484375,-53.86,10.49392709375,33.53
2021-06-29 17:35:46.921875000,-45.0,-16.0,43.0,89.87531249999999,-37.62,10.493566812500001,33.53
2021-06-29 17:35:46.929687500,-45.0,-16.0,43.0,89.87578124999999,-20.775,10.493206531250001,33.53
2021-06-29 17:35:46.937500000,-45.0,-16.0,43.0,89.87625,-3.93,10.49284625,33.53
2021-06-29 17:35:46.945312500,-45.0,-16.0,43.0,89.87671875,11.44,10.49248596875,33.53
2021-06-29 17:35:46.953125000,-45.0,-16.0,43.0,89.87718749999999,26.81,10.4921256875,33.53
2021-06-29 17:35:46.960937500,-45.0,-16.0,43.0,89.87765625,39.32,10.49176540625,33.53
2021-06-29 17:35:46.968750000,-45.0,-16.0,43.0,89.878125,51.83,10.491405125,33.53
2021-06-29 17:35:46.976562500,-45.0,-16.0,43.0,89.87859375,60.89,10.49104484375,33.53
2021-06-29 17:35:46.984375000,-45.0,-16.0,43.0,89.87906249999999,69.95,10.4906845625,33.53
2021-06-29 17:35:46.992187500,-45.0,-16.0,43.0,89.87953125,75.58500000000001,10.49032428125,33.53
2021-06-29 17:35:47.000000000,-45.0,-16.0,43.0,89.88,81.22,10.489964,33.53
2021-06-29 17:35:47.007812500,-45.0,-16.0,43.0,89.88078125,83.78,10.488963187500001,33.53
2021-06-29 17:35:47.015625000,-45.0,-16.0,43.0,89.8815625,86.34,10.487962375,33.53
2021-06-29 17:35:47.023437500,-45.0,-16.0,43.0,89.88234374999999,86.255,10.486961562500001,33.53
2021-06-29 17:35:47.031250000,-45.0,-16.0,43.0,89.88312499999999,86.17,10.48596075,33.53
2021-06-29 17:35:47.039062500,-45.0,-16.0,43.0,89.88390625,83.89500000000001,10.484959937500001,33.53
2021-06-29 17:35:47.046875000,-45.0,-16.0,43.0,89.8846875,81.62,10.483959125,33.53
2021-06-29 17:35:47.054687500,-45.0,-16.0,43.0,89.88546875,77.7,10.482958312500001,33.53
2021-06-29 17:35:47.062500000,-45.0,-16.0,43.0,89.88624999999999,73.78,10.4819575,33.53
2021-06-29 17:35:47.070312500,-45.0,-16.0,43.25,89.88703124999999,68.89500000000001,10.4809566875,33.53
2021-06-29 17:35:47.078125000,-45.0,-16.0,43.5,89.8878125,64.01,10.479955875,33.53
2021-06-29 17:35:47.085937500,-45.0,-16.0,43.75,89.88859375,58.955,10.4789550625,33.53
2021-06-29 17:35:47.093750000,-45.0,-16.0,44.0,89.889375,53.9,10.47795425,33.53
2021-06-29 17:35:47.101562500,-45.0,-16.0,43.75,89.89015624999999,49.445,10.4769534375,33.53
2021-06-29 17:35:47.109375000,-45.0,-16.0,43.5,89.89093749999999,44.99,10.475952625,33.53
2021-06-29 17:35:47.117187500,-45.0,-16.0,43.25,89.89171875,41.685,10.4749518125,33.53
2021-06-29 17:35:47.125000000,-45.0,-16.0,43.0,89.8925,38.38,10.473951,33.53
2021-06-29 17:35:47.132812500,-45.0,-16.0,43.0,89.89328125,36.425,10.4729501875,33.53
2021-06-29 17:35:47.140625000,-45.0,-16.0,43.0,89.89406249999999,34.47,10.471949375000001,33.53
2021-06-29 17:35:47.148437500,-45.0,-16.0,43.0,89.89484374999999,33.715,10.4709485625,33.53
2021-06-29 17:35:47.156250000,-45.0,-16.0,43.0,89.895625,32.96,10.469947750000001,33.53
2021-06-29 17:35:47.164062500,-45.0,-16.0,43.0,89.89640625,32.995000000000005,10.4689469375,33.53
2021-06-29 17:35:47.171875000,-45.0,-16.0,43.0,89.8971875,33.03,10.467946125000001,33.53
2021-06-29 17:35:47.179687500,-45.0,-16.0,43.0,89.89796875,33.405,10.4669453125,33.53
2021-06-29 17:35:47.187500000,-45.0,-16.0,43.0,89.89874999999999,33.78,10.4659445,33.53
2021-06-29 17:35:47.195312500,-45.0,-16.0,43.0,89.89953125,34.155,10.4649436875,33.53
2021-06-29 17:35:47.203125000,-45.0,-16.0,43.0,89.9003125,34.53,10.463942875,33.53
2021-06-29 17:35:47.210937500,-45.0,-16.0,43.0,89.90109375,34.730000000000004,10.4629420625,33.53
2021-06-29 17:35:47.218750000,-45.0,-16.0,43.0,89.901875,34.93,10.46194125,33.53
2021-06-29 17:35:47.226562500,-45.0,-16.0,43.0,89.90265624999999,34.915,10.4609404375,33.53
2021-06-29 17:35:47.234375000,-45.0,-16.0,43.0,89.9034375,34.9,10.459939625,33.53
2021-06-29 17:35:47.242187500,-45.0,-16.0,43.0,89.90421875,34.605000000000004,10.4589388125,33.53
2021-06-29 17:35:47.250000000,-45.0,-16.0,43.0,89.905,34.31,10.457938,33.53
2021-06-29 17:35:47.257812500,-45.0,-16.0,43.0,89.90578125,33.56,10.45684521875,33.53
2021-06-29 17:35:47.265625000,-45.0,-16.0,43.0,89.90656249999999,32.81,10.455752437500001,33.53
2021-06-29 17:35:47.273437500,-45.0,-16.0,43.0,89.90734375,31.325000000000003,10.45465965625,33.53
2021-06-29 17:35:47.281250000,-45.0,-16.0,43.0,89.908125,29.84,10.453566875,33.53
2021-06-29 17:35:47.289062500,-45.0,-16.0,43.0,89.90890625,27.34,10.45247409375,33.53
2021-06-29 17:35:47.296875000,-45.0,-16.0,43.0,89.9096875,24.84,10.4513813125,33.53
2021-06-29 17:35:47.304687500,-45.0,-16.0,43.0,89.91046874999999,21.22,10.450288531250001,33.53
2021-06-29 17:35:47.312500000,-45.0,-16.0,43.0,89.91125,17.6,10.449195750000001,33.53
2021-06-29 17:35:47.320312500,-45.0,-16.0,43.0,89.91203125,13.040000000000001,10.44810296875,33.53
2021-06-29 17:35:47.328125000,-45.0,-16.0,43.0,89.9128125,8.48,10.4470101875,33.53
2021-06-29 17:35:47.335937500,-45.0,-16.0,43.0,89.91359375,3.4250000000000007,10.44591740625,33.53
2021-06-29 17:35:47.343750000,-45.0,-16.0,43.0,89.91437499999999,-1.63,10.444824625,33.53
2021-06-29 17:35:47.351562500,-45.0,-16.0,43.0,89.91515625,-6.63,10.443731843750001,33.53
2021-06-29 17:35:47.359375000,-45.0,-16.0,43.0,89.9159375,-11.63,10.4426390625,33.53
2021-06-29 17:35:47.367187500,-45.0,-16.0,43.0,89.91671875,-16.155,10.44154628125,33.53
2021-06-29 17:35:47.375000000,-45.0,-16.0,43.0,89.9175,-20.68,10.4404535,33.53
2021-06-29 17:35:47.382812500,-45.0,-16.0,43.0,89.91828124999999,-24.615000000000002,10.43936071875,33.53
2021-06-29 17:35:47.390625000,-45.0,-16.0,43.0,89.9190625,-28.55,10.438267937500001,33.53
2021-06-29 17:35:47.398437500,-45.0,-16.0,43.0,89.91984375,-32.15,10.43717515625,33.53
2021-06-29 17:35:47.406250000,-45.0,-16.0,43.0,89.920625,-35.75,10.436082375,33.53
2021-06-29 17:35:47.414062500,-45.0,-16.0,43.0,89.92140625,-39.545,10.43498959375,33.53
2021-06-29 17:35:47.421875000,-45.0,-16.0,43.0,89.92218749999999,-43.34,10.4338968125,33.53
2021-06-29 17:35:47.429687500,-45.0,-16.0,43.0,89.92296875,-47.95,10.43280403125,33.53
2021-06-29 17:35:47.437500000,-45.0,-16.0,43.0,89.92375,-52.56,10.43171125,33.53
2021-06-29 17:35:47.445312500,-45.0,-16.0,43.0,89.92453125,-58.410000000000004,10.43061846875,33.53
2021-06-29 17:35:47.453125000,-45.0,-16.0,43.0,89.9253125,-64.26,10.4295256875,33.53
2021-06-29 17:35:47.460937500,-45.0,-16.0,43.0,89.92609374999999,-71.30000000000001,10.42843290625,33.53
2021-06-29 17:35:47.468750000,-45.0,-16.0,43.0,89.926875,-78.34,10.427340125,33.53
2021-06-29 17:35:47.476562500,-45.0,-16.0,43.0,89.92765625,-85.885,10.426247343750001,33.53
2021-06-29 17:35:47.484375000,-45.0,-16.0,43.0,89.9284375,-93.43,10.4251545625,33.53
2021-06-29 17:35:47.492187500,-45.0,-16.0,43.0,89.92921875,-100.16,10.42406178125,33.53
2021-06-29 17:35:47.500000000,-45.0,-16.0,43.0,89.93,-106.89,10.422969,33.53
2021-06-29 17:35:47.507812500,-45.0,-16.0,43.0,89.93078125,-111.11,10.4216079375,33.53
2021-06-29 17:35:47.515625000,-45.0,-16.0,43.0,89.9315625,-115.33,10.420246875,33.53
2021-06-29 17:35:47.523437500,-45.0,-16.0,43.0,89.93234375,-115.44,10.418885812500001,33.53
2021-06-29 17:35:47.531250000,-45.0,-16.0,43.0,89.933125,-115.55,10.41752475,33.53
2021-06-29 17:35:47.539062500,-45.0,-16.0,43.0,89.93390625,-110.58500000000001,10.4161636875,33.53
2021-06-29 17:35:47.546875000,-45.0,-16.0,43.0,89.9346875,-105.62,10.414802625,33.53
2021-06-29 17:35:47.554687500,-45.0,-16.0,43.0,89.93546875,-95.64,10.413441562500001,33.53
2021-06-29 17:35:47.562500000,-45.0,-16.0,43.0,89.93625,-85.66,10.4120805,33.53
2021-06-29 17:35:47.570312500,-45.0,-16.0,43.0,89.93703125,-71.795,10.4107194375,33.53
2021-06-29 17:35:47.578125000,-45.0,-16.0,43.0,89.9378125,-57.93,10.409358375,33.53
2021-06-29 17:35:47.585937500,-45.0,-16.0,43.0,89.93859375,-42.07,10.407997312500001,33.53
2021-06-29 17:35:47.593750000,-45.0,-16.0,43.0,89.939375,-26.21,10.40663625,33.53
2021-06-29 17:35:47.601562500,-45.0,-16.0,43.0,89.94015625,-10.425,10.4052751875,33.53
2021-06-29 17:35:47.609375000,-45.0,-16.0,43.0,89.9409375,5.36,10.403914125,33.53
2021-06-29 17:35:47.617187500,-45.0,-16.0,43.0,89.94171875,19.365,10.402553062500001,33.53
2021-06-29 17:35:47.625000000,-45.0,-16.0,43.0,89.9425,33.37,10.401192,33.53
2021-06-29 17:35:47.632812500,-45.0,-16.0,43.0,89.94328125,44.56,10.399830937499999,33.53
2021-06-29 17:35:47.640625000,-45.0,-16.0,43.0,89.9440625,55.75,10.398469875,33.53
2021-06-29 17:35:47.648437500,-45.0,-16.0,43.0,89.94484375,63.77,10.3971088125,33.53
2021-06-29 17:35:47.656250000,-45.0,-16.0,43.0,89.945625,71.79,10.39574775,33.53
2021-06-29 17:35:47.664062500,-45.0,-16.0,43.0,89.94640625,76.70500000000001,10.394386687499999,33.53
2021-06-29 17:35:47.671875000,-45.0,-16.0,43.0,89.9471875,81.62,10.393025625,33.53
2021-06-29 17:35:47.679687500,-45.0,-16.0,43.0,89.94796875,83.68,10.3916645625,33.53
2021-06-29 17:35:47.687500000,-45.0,-16.0,43.0,89.94875,85.74,10.3903035,33.53
2021-06-29 17:35:47.695312500,-45.0,-16.0,43.0,89.94953125,85.225,10.388942437499999,33.53
2021-06-29 17:35:47.703125000,-45.0,-16.0,43.0,89.9503125,84.71,10.387581375,33.53
2021-06-29 17:35:47.710937500,-45.0,-16.0,43.0,89.95109375,81.99,10.3862203125,33.53
2021-06-29 17:35:47.718750000,-45.0,-16.0,43.0,89.951875,79.27,10.38485925,33.53
2021-06-29 17:35:47.726562500,-45.0,-16.0,43.0,89.95265625,74.88499999999999,10.383498187499999,33.53
2021-06-29 17:35:47.734375000,-45.0,-16.0,43.0,89.9534375,70.5,10.382137125,33.53
2021-06-29 17:35:47.742187500,-45.0,-16.0,43.0,89.95421875,65.21000000000001,10.3807760625,33.53
2021-06-29 17:35:47.750000000,-45.0,-16.0,43.0,89.955,59.92,10.379415,33.53
2021-06-29 17:35:47.757812500,-45.0,-16.0,43.0,89.95578125,54.635000000000005,10.378654375,33.53
2021-06-29 17:35:47.765625000,-45.0,-16.0,43.0,89.9565625,49.35,10.37789375,33.53
2021-06-29 17:35:47.773437500,-45.0,-16.0,43.0,89.95734375,44.894999999999996,10.377133125,33.53
2021-06-29 17:35:47.781250000,-45.0,-16.0,43.0,89.958125,40.44,10.3763725,33.53
2021-06-29 17:35:47.789062500,-45.0,-16.0,43.0,89.95890625,37.394999999999996,10.375611875,33.53
2021-06-29 17:35:47.796875000,-45.0,-16.0,43.0,89.9596875,34.35,10.374851249999999,33.53
2021-06-29 17:35:47.804687500,-45.0,-16.0,43.0,89.96046875,32.885000000000005,10.374090625,33.53
2021-06-29 17:35:47.812500000,-45.0,-16.0,43.0,89.96125,31.42,10.37333,33.53
2021-06-29 17:35:47.820312500,-45.0,-16.0,43.0,89.96203125,31.335,10.372569375,33.53
2021-06-29 17:35:47.828125000,-45.0,-16.0,43.0,89.9628125,31.25,10.37180875,33.53
2021-06-29 17:35:47.835937500,-45.0,-16.0,43.0,89.96359375,32.065,10.371048125,33.53
2021-06-29 17:35:47.843750000,-45.0,-16.0,43.0,89.964375,32.88,10.3702875,33.53
2021-06-29 17:35:47.851562500,-45.0,-16.0,43.0,89.96515625,34.019999999999996,10.369526875,33.53
2021-06-29 17:35:47.859375000,-45.0,-16.0,43.0,89.96593750000001,35.16,10.36876625,33.53
2021-06-29 17:35:47.867187500,-45.0,-16.0,43.0,89.96671875,36.114999999999995,10.368005625,33.53
2021-06-29 17:35:47.875000000,-45.0,-16.0,43.0,89.9675,37.07,10.367245,33.53
2021-06-29 17:35:47.882812500,-45.0,-16.0,43.0,89.96828125,37.46,10.366484374999999,33.53
2021-06-29 17:35:47.890625000,-45.0,-16.0,43.0,89.9690625,37.85,10.365723749999999,33.53
2021-06-29 17:35:47.898437500,-45.0,-16.0,43.0,89.96984375000001,37.47,10.364963125,33.53
2021-06-29 17:35:47.906250000,-45.0,-16.0,43.0,89.970625,37.09,10.3642025,33.53
2021-06-29 17:35:47.914062500,-45.0,-16.0,43.25,89.97140625,35.85,10.363441875,33.53
2021-06-29 17:35:47.921875000,-45.0,-16.0,43.5,89.9721875,34.61,10.36268125,33.53
2021-06-29 17:35:47.929687500,-45.0,-16.0,43.75,89.97296875,32.535,10.361920625,33.53
2021-06-29 17:35:47.937500000,-45.0,-16.0,44.0,89.97375000000001,30.46,10.36116,33.53
2021-06-29 17:35:47.945312500,-45.0,-16.0,43.75,89.97453125,27.64,10.360399375,33.53
2021-06-29 17:35:47.953125000,-45.0,-16.0,43.5,89.9753125,24.82,10.35963875,33.53
2021-06-29 17:35:47.960937500,-45.0,-16.0,43.25,89.97609375,21.415,10.358878124999999,33.53
2021-06-29 17:35:47.968750000,-45.0,-16.0,43.0,89.976875,18.01,10.358117499999999,33.53
2021-06-29 17:35:47.976562500,-45.0,-16.0,43.0,89.97765625000001,14.195,10.357356874999999,33.53
2021-06-29 17:35:47.984375000,-45.0,-16.0,43.0,89.9784375,10.38,10.356596249999999,33.53
2021-06-29 17:35:47.992187500,-45.0,-16.0,43.0,89.97921875,6.345000000000001,10.355835625,33.53
2021-06-29 17:35:48.000000000,-45.0,-16.0,43.0,89.98,2.31,10.355075,33.53
2021-06-29 17:35:48.007812500,-45.0,-16.0,43.0,89.98078125,-1.8050000000000002,10.354314375,33.53
2021-06-29 17:35:48.015625000,-45.0,-16.0,43.0,89.98156250000001,-5.92,10.35355375,33.53
2021-06-29 17:35:48.023437500,-45.0,-16.0,43.0,89.98234375,-10.07,10.352793125,33.53
2021-06-29 17:35:48.031250000,-45.0,-16.0,43.0,89.983125,-14.22,10.3520325,33.53
2021-06-29 17:35:48.039062500,-45.0,-16.0,43.0,89.98390625,-18.485,10.351271875,33.53
2021-06-29 17:35:48.046875000,-45.0,-16.0,43.0,89.9846875,-22.75,10.35051125,33.53
2021-06-29 17:35:48.054687500,-45.0,-16.0,43.0,89.98546875000001,-27.36,10.349750625,33.53
2021-06-29 17:35:48.062500000,-45.0,-16.0,43.0,89.98625,-31.97,10.34899,33.53
2021-06-29 17:35:48.070312500,-45.0,-16.0,43.0,89.98703125,-37.239999999999995,10.348229374999999,33.53
2021-06-29 17:35:48.078125000,-45.0,-16.0,43.0,89.9878125,-42.51,10.347468749999999,33.53
2021-06-29 17:35:48.085937500,-45.0,-16.0,43.0,89.98859375,-48.705,10.346708125,33.53
2021-06-29 17:35:48.093750000,-45.0,-16.0,43.0,89.98937500000001,-54.9,10.3459475,33.53
2021-06-29 17:35:48.101562500,-45.0,-16.0,43.0,89.99015625,-61.965,10.345186875,33.53
2021-06-29 17:35:48.109375000,-45.0,-16.0,43.0,89.9909375,-69.03,10.34442625,33.53
2021-06-29 17:35:48.117187500,-45.0,-16.0,43.0,89.99171875,-76.38499999999999,10.343665625,33.53
2021-06-29 17:35:48.125000000,-45.0,-16.0,43.0,89.9925,-83.74,10.342905,33.53
2021-06-29 17:35:48.132812500,-45.0,-16.0,43.0,89.99328125000001,-90.19999999999999,10.342144375,33.53
2021-06-29 17:35:48.140625000,-45.0,-16.0,43.0,89.9940625,-96.66,10.34138375,33.53
2021-06-29 17:35:48.148437500,-45.0,-16.0,43.0,89.99484375,-100.625,10.340623125,33.53
2021-06-29 17:35:48.156250000,-45.0,-16.0,43.0,89.995625,-104.59,10.3398625,33.53
2021-06-29 17:35:48.164062500,-45.0,-16.0,43.0,89.99640625,-104.515,10.339101875,33.53
2021-06-29 17:35:48.171875000,-45.0,-16.0,43.0,89.99718750000001,-104.44,10.338341250000001,33.53
2021-06-29 17:35:48.179687500,-45.0,-16.0,43.0,89.99796875,-99.38,10.337580625000001,33.53
2021-06-29 17:35:48.187500000,-45.0,-16.0,43.0,89.99875,-94.32,10.33682,33.53
2021-06-29 17:35:48.195312500,-45.0,-16.0,43.25,89.99953125,-84.38499999999999,10.336059375,33.53
2021-06-29 17:35:48.203125000,-45.0,-16.0,43.5,90.0003125,-74.45,10.33529875,33.53
2021-06-29 17:35:48.210937500,-45.0,-16.0,43.75,90.00109375000001,-60.805,10.334538125,33.53
2021-06-29 17:35:48.218750000,-45.0,-16.0,44.0,90.001875,-47.16,10.3337775,33.53
2021-06-29 17:35:48.226562500,-45.0,-16.0,43.75,90.00265625,-31.75,10.333016875,33.53
2021-06-29 17:35:48.234375000,-45.0,-16.0,43.5,90.0034375,-16.34,10.33225625,33.53
2021-06-29 17:35:48.242187500,-45.0,-16.0,43.25,90.00421875,-1.254999999999999,10.331495625,33.53
2021-06-29 17:35:48.250000000,-45.0,-16.0,43.0,90.005,13.83,10.330735,33.53
2021-06-29 17:35:48.257812500,-45.0,-16.0,43.0,90.00578125,26.915,10.32997440625,33.53
2021-06-29 17:35:48.265625000,-45.0,-16.0,43.0,90.0065625,40.0,10.3292138125,33.53
2021-06-29 17:35:48.273437500,-45.0,-16.0,43.0,90.00734375,50.125,10.32845321875,33.53
2021-06-29 17:35:48.281250000,-45.0,-16.0,43.0,90.008125,60.25,10.327692625000001,33.53
2021-06-29 17:35:48.289062500,-45.0,-16.0,43.0,90.00890625,67.16,10.326932031250001,33.53
2021-06-29 17:35:48.296875000,-45.0,-16.0,43.0,90.0096875,74.07,10.326171437500001,33.53
2021-06-29 17:35:48.304687500,-45.0,-16.0,43.0,90.01046875,77.935,10.325410843750001,33.53
2021-06-29 17:35:48.312500000,-45.0,-16.0,43.0,90.01125,81.8,10.324650250000001,33.53
2021-06-29 17:35:48.320312500,-45.0,-16.0,43.0,90.01203125,82.955,10.32388965625,33.53
2021-06-29 17:35:48.328125000,-45.0,-16.0,43.0,90.0128125,84.11,10.3231290625,33.53
2021-06-29 17:35:48.335937500,-45.0,-16.0,43.0,90.01359375,82.93,10.32236846875,33.53
2021-06-29 17:35:48.343750000,-45.0,-16.0,43.0,90.014375,81.75,10.321607875,33.53
2021-06-29 17:35:48.351562500,-45.0,-16.0,43.0,90.01515625,78.64500000000001,10.32084728125,33.53
2021-06-29 17:35:48.359375000,-45.0,-16.0,43.0,90.0159375,75.54,10.3200866875,33.53
2021-06-29 17:35:48.367187500,-45.0,-16.0,43.0,90.01671875,71.07,10.31932609375,33.53
2021-06-29 17:35:48.375000000,-45.0,-16.0,43.0,90.0175,66.6,10.3185655,33.53
2021-06-29 17:35:48.382812500,-45.0,-16.0,43.0,90.01828125,61.504999999999995,10.31780490625,33.53
2021-06-29 17:35:48.390625000,-45.0,-16.0,43.0,90.0190625,56.41,10.3170443125,33.53
2021-06-29 17:35:48.398437500,-45.0,-16.0,43.0,90.01984375,51.489999999999995,10.31628371875,33.53
2021-06-29 17:35:48.406250000,-45.0,-16.0,43.0,90.020625,46.57,10.315523125,33.53
2021-06-29 17:35:48.414062500,-45.0,-16.0,43.0,90.02140625,42.510000000000005,10.31476253125,33.53
2021-06-29 17:35:48.421875000,-45.0,-16.0,43.0,90.0221875,38.45,10.3140019375,33.53
2021-06-29 17:35:48.429687500,-45.0,-16.0,43.0,90.02296875,35.635000000000005,10.31324134375,33.53
2021-06-29 17:35:48.437500000,-45.0,-16.0,43.0,90.02375,32.82,10.312480749999999,33.53
2021-06-29 17:35:48.445312500,-45.0,-16.0,43.0,90.02453125,31.259999999999998,10.311720156249999,33.53
2021-06-29 17:35:48.453125000,-45.0,-16.0,43.0,90.0253125,29.7,10.310959562499999,33.53
2021-06-29 17:35:48.460937500,-45.0,-16.0,43.0,90.02609375,29.125,10.310198968749999,33.53
2021-06-29 17:35:48.468750000,-45.0,-16.0,43.0,90.026875,28.55,10.309438375,33.53
2021-06-29 17:35:48.476562500,-45.0,-16.0,43.0,90.02765625,28.564999999999998,10.30867778125,33.53
2021-06-29 17:35:48.484375000,-45.0,-16.0,43.0,90.0284375,28.58,10.3079171875,33.53
2021-06-29 17:35:48.492187500,-45.0,-16.0,43.0,90.02921875,28.82,10.30715659375,33.53
2021-06-29 17:35:48.500000000,-45.0,-16.0,43.0,90.03,29.06,10.306396,33.53
2021-06-29 17:35:48.507812500,-45.0,-16.0,43.0,90.03078125,29.275,10.3057555,33.53
2021-06-29 17:35:48.515625000,-45.0,-16.0,43.0,90.0315625,29.49,10.305114999999999,33.53
2021-06-29 17:35:48.523437500,-45.0,-16.0,43.0,90.03234375,29.494999999999997,10.3044745,33.53
2021-06-29 17:35:48.531250000,-45.0,-16.0,43.0,90.033125,29.5,10.303834,33.53
2021-06-29 17:35:48.539062500,-45.0,-16.0,43.0,90.03390625,29.11,10.303193499999999,33.53
2021-06-29 17:35:48.546875000,-45.0,-16.0,43.0,90.0346875,28.72,10.302553,33.53
2021-06-29 17:35:48.554687500,-45.0,-16.0,43.0,90.03546875,27.715,10.3019125,33.53
2021-06-29 17:35:48.562500000,-45.0,-16.0,43.0,90.03625,26.71,10.301271999999999,33.53
2021-06-29 17:35:48.570312500,-45.0,-16.0,43.0,90.03703125,24.9,10.3006315,33.53
2021-06-29 17:35:48.578125000,-45.0,-16.0,43.0,90.0378125,23.09,10.299991,33.53
2021-06-29 17:35:48.585937500,-45.0,-16.0,43.0,90.03859375,20.369999999999997,10.2993505,33.53
2021-06-29 17:35:48.593750000,-45.0,-16.0,43.0,90.039375,17.65,10.29871,33.53
2021-06-29 17:35:48.601562500,-45.0,-16.0,43.0,90.04015625,14.11,10.2980695,33.53
2021-06-29 17:35:48.609375000,-45.0,-16.0,43.0,90.0409375,10.57,10.297429,33.53
2021-06-29 17:35:48.617187500,-45.0,-16.0,43.0,90.04171875,6.485,10.2967885,33.53
2021-06-29 17:35:48.625000000,-45.0,-16.0,43.0,90.0425,2.4,10.296147999999999,33.53
2021-06-29 17:35:48.632812500,-45.0,-16.0,43.0,90.04328125,-1.8649999999999998,10.2955075,33.53
2021-06-29 17:35:48.640625000,-45.0,-16.0,43.0,90.0440625,-6.13,10.294867,33.53
2021-06-29 17:35:48.648437500,-45.0,-16.0,43.0,90.04484375,-10.245000000000001,10.294226499999999,33.53
2021-06-29 17:35:48.656250000,-45.0,-16.0,43.0,90.045625,-14.36,10.293586,33.53
2021-06-29 17:35:48.664062500,-45.0,-16.0,43.0,90.04640625,-18.18,10.2929455,33.53
2021-06-29 17:35:48.671875000,-45.0,-16.0,43.0,90.0471875,-22.0,10.292304999999999,33.53
2021-06-29 17:35:48.679687500,-45.0,-16.0,43.0,90.04796875,-25.605,10.2916645,33.53
2021-06-29 17:35:48.687500000,-45.0,-16.0,43.0,90.04875,-29.21,10.291024,33.53
2021-06-29 17:35:48.695312500,-45.0,-16.0,43.0,90.04953125,-32.91,10.290383499999999,33.53
2021-06-29 17:35:48.703125000,-45.0,-16.0,43.0,90.0503125,-36.61,10.289743,33.53
2021-06-29 17:35:48.710937500,-45.0,-16.0,43.0,90.05109375,-40.855000000000004,10.2891025,33.53
2021-06-29 17:35:48.718750000,-45.0,-16.0,43.0,90.051875,-45.1,10.288461999999999,33.53
2021-06-29 17:35:48.726562500,-45.0,-16.0,43.0,90.05265625,-50.345,10.2878215,33.53
2021-06-29 17:35:48.734375000,-45.0,-16.0,43.0,90.0534375,-55.59,10.287181,33.53
2021-06-29 17:35:48.742187500,-45.0,-16.0,43.0,90.05421875,-62.050000000000004,10.2865405,33.53
2021-06-29 17:35:48.750000000,-45.0,-16.0,43.0,90.055,-68.51,10.2859,33.53
2021-06-29 17:35:48.757812500,-45.0,-16.0,43.0,90.05578125,-75.91499999999999,10.28533953125,33.53
2021-06-29 17:35:48.765625000,-45.0,-16.0,43.0,90.0565625,-83.32,10.2847790625,33.53
2021-06-29 17:35:48.773437500,-45.0,-16.0,43.0,90.05734375,-90.75,10.28421859375,33.53
2021-06-29 17:35:48.781250000,-45.0,-16.0,43.0,90.058125,-98.18,10.283658125,33.53
2021-06-29 17:35:48.789062500,-45.0,-16.0,43.0,90.05890624999999,-104.135,10.28309765625,33.53
2021-06-29 17:35:48.796875000,-45.0,-16.0,43.0,90.0596875,-110.09,10.2825371875,33.53
2021-06-29 17:35:48.804687500,-45.0,-16.0,43.0,90.06046875,-112.825,10.28197671875,33.53
2021-06-29 17:35:48.812500000,-45.0,-16.0,43.0,90.06125,-115.56,10.28141625,33.53
2021-06-29 17:35:48.820312500,-45.0,-16.0,43.0,90.06203125,-113.67500000000001,10.28085578125,33.53
2021-06-29 17:35:48.828125000,-45.0,-16.0,43.0,90.06281249999999,-111.79,10.2802953125,33.53
2021-06-29 17:35:48.835937500,-45.0,-16.0,43.0,90.06359375,-104.72,10.27973484375,33.53
2021-06-29 17:35:48.843750000,-45.0,-16.0,43.0,90.064375,-97.65,10.279174375,33.53
2021-06-29 17:35:48.851562500,-45.0,-16.0,43.25,90.06515625,-85.95500000000001,10.27861390625,33.53
2021-06-29 17:35:48.859375000,-45.0,-16.0,43.5,90.0659375,-74.26,10.2780534375,33.53
2021-06-29 17:35:48.867187500,-45.0,-16.0,43.75,90.06671874999999,-59.505,10.27749296875,33.53
2021-06-29 17:35:48.875000000,-45.0,-16.0,44.0,90.0675,-44.75,10.276932500000001,33.53
2021-06-29 17:35:48.882812500,-45.0,-16.0,44.0,90.06828125,-29.0,10.27637203125,33.53
2021-06-29 17:35:48.890625000,-45.0,-16.0,44.0,90.0690625,-13.25,10.2758115625,33.53
2021-06-29 17:35:48.898437500,-45.0,-16.0,44.0,90.06984375,1.5199999999999996,10.27525109375,33.53
2021-06-29 17:35:48.906250000,-45.0,-16.0,44.0,90.07062499999999,16.29,10.274690625,33.53
2021-06-29 17:35:48.914062500,-45.0,-16.0,43.75,90.07140625,28.645,10.274130156250001,33.53
2021-06-29 17:35:48.921875000,-45.0,-16.0,43.5,90.0721875,41.0,10.2735696875,33.53
2021-06-29 17:35:48.929687500,-45.0,-16.0,43.25,90.07296875,50.235,10.27300921875,33.53
2021-06-29 17:35:48.937500000,-45.0,-16.0,43.0,90.07375,59.47,10.27244875,33.53
2021-06-29 17:35:48.945312500,-45.0,-16.0,43.25,90.07453124999999,65.465,10.27188828125,33.53
2021-06-29 17:35:48.953125000,-45.0,-16.0,43.5,90.0753125,71.46,10.271327812500001,33.53
2021-06-29 17:35:48.960937500,-45.0,-16.0,43.75,90.07609375,74.44999999999999,10.27076734375,33.53
2021-06-29 17:35:48.968750000,-45.0,-16.0,44.0,90.076875,77.44,10.270206875,33.53
2021-06-29 17:35:48.976562500,-45.0,-16.0,43.75,90.07765625,77.81,10.26964640625,33.53
2021-06-29 17:35:48.984375000,-45.0,-16.0,43.5,90.07843749999999,78.18,10.2690859375,33.53
2021-06-29 17:35:48.992187500,-45.0,-16.0,43.25,90.07921875,76.385,10.268525468750001,33.53
2021-06-29 17:35:49.000000000,-45.0,-16.0,43.0,90.08,74.59,10.267965,33.53
2021-06-29 17:35:49.007812500,-45.0,-16.0,43.0,90.08078125,71.155,10.267764843750001,33.53
2021-06-29 17:35:49.015625000,-45.0,-16.0,43.0,90.0815625,67.72,10.2675646875,33.53
2021-06-29 17:35:49.023437500,-45.0,-16.0,43.0,90.08234374999999,63.29,10.26736453125,33.53
2021-06-29 17:35:49.031250000,-45.0,-16.0,43.0,90.083125,58.86,10.267164375,33.53
2021-06-29 17:35:49.039062500,-44.75,-16.0,43.25,90.08390625,54.125,10.266964218750001,33.53
2021-06-29 17:35:49.046875000,-44.5,-16.0,43.5,90.0846875,49.39,10.2667640625,33.53
2021-06-29 17:35:49.054687500,-44.25,-16.0,43.75,90.08546875,45.03,10.26656390625,33.53
2021-06-29 17:35:49.062500000,-44.0,-16.0,44.0,90.08624999999999,40.67,10.26636375,33.53
2021-06-29 17:35:49.070312500,-44.25,-16.0,44.0,90.08703125,37.18,10.26616359375,33.53
2021-06-29 17:35:49.078125000,-44.5,-16.0,44.0,90.0878125,33.69,10.2659634375,33.53
2021-06-29 17:35:49.085937500,-44.75,-16.0,44.0,90.08859375,31.31,10.265763281249999,33.53
2021-06-29 17:35:49.093750000,-45.0,-16.0,44.0,90.089375,28.93,10.265563125,33.53
2021-06-29 17:35:49.101562500,-45.0,-16.0,43.75,90.09015624999999,27.595,10.26536296875,33.53
2021-06-29 17:35:49.109375000,-45.0,-16.0,43.5,90.0909375,26.26,10.2651628125,33.53
2021-06-29 17:35:49.117187500,-45.0,-16.0,43.25,90.09171875,25.73,10.264962656249999,33.53
2021-06-29 17:35:49.125000000,-45.0,-16.0,43.0,90.0925,25.2,10.2647625,33.53
2021-06-29 17:35:49.132812500,-45.0,-16.0,43.0,90.09328125,25.155,10.26456234375,33.53
2021-06-29 17:35:49.140625000,-45.0,-16.0,43.0,90.09406249999999,25.11,10.2643621875,33.53
2021-06-29 17:35:49.148437500,-45.0,-16.0,43.0,90.09484375,25.275,10.264162031249999,33.53
2021-06-29 17:35:49.156250000,-45.0,-16.0,43.0,90.095625,25.44,10.263961875,33.53
2021-06-29 17:35:49.164062500,-45.0,-16.0,43.0,90.09640625,25.64,10.26376171875,33.53
2021-06-29 17:35:49.171875000,-45.0,-16.0,43.0,90.0971875,25.84,10.2635615625,33.53
2021-06-29 17:35:49.179687500,-45.0,-16.0,43.0,90.09796875,25.939999999999998,10.263361406249999,33.53
2021-06-29 17:35:49.187500000,-45.0,-16.0,43.0,90.09875,26.04,10.26316125,33.53
2021-06-29 17:35:49.195312500,-45.0,-16.0,43.25,90.09953125,25.89,10.26296109375,33.53
2021-06-29 17:35:49.203125000,-45.0,-16.0,43.5,90.1003125,25.74,10.2627609375,33.53
2021-06-29 17:35:49.210937500,-45.0,-16.0,43.75,90.10109375,25.14,10.262560781249999,33.53
2021-06-29 17:35:49.218750000,-45.0,-16.0,44.0,90.101875,24.54,10.262360625,33.53
2021-06-29 17:35:49.226562500,-45.0,-16.0,43.75,90.10265625,23.285,10.26216046875,33.53
2021-06-29 17:35:49.234375000,-45.0,-16.0,43.5,90.1034375,22.03,10.2619603125,33.53
2021-06-29 17:35:49.242187500,-45.0,-16.0,43.25,90.10421875,19.98,10.261760156249998,33.53
2021-06-29 17:35:49.250000000,-45.0,-16.0,43.0,90.105,17.93,10.26156,33.53
2021-06-29 17:35:49.257812500,-45.0,-16.0,43.0,90.10578125,15.11,10.2596785,33.53
2021-06-29 17:35:49.265625000,-45.0,-16.0,43.0,90.1065625,12.29,10.257797,33.53
2021-06-29 17:35:49.273437500,-45.0,-16.0,43.0,90.10734375,8.91,10.255915499999999,33.53
2021-06-29 17:35:49.281250000,-45.0,-16.0,43.0,90.108125,5.53,10.254033999999999,33.53
2021-06-29 17:35:49.289062500,-45.0,-16.0,43.25,90.10890625,1.8650000000000002,10.2521525,33.53
2021-06-29 17:35:49.296875000,-45.0,-16.0,43.5,90.1096875,-1.8,10.250271,33.53
2021-06-29 17:35:49.304687500,-45.0,-16.0,43.75,90.11046875,-5.510000000000001,10.2483895,33.53
2021-06-29 17:35:49.312500000,-45.0,-16.0,44.0,90.11125,-9.22,10.246507999999999,33.53
2021-06-29 17:35:49.320312500,-45.0,-16.0,44.0,90.11203125,-12.870000000000001,10.244626499999999,33.53
2021-06-29 17:35:49.328125000,-45.0,-16.0,44.0,90.1128125,-16.52,10.242745,33.53
2021-06-29 17:35:49.335937500,-45.0,-16.0,44.0,90.11359375,-20.185000000000002,10.2408635,33.53
2021-06-29 17:35:49.343750000,-45.0,-16.0,44.0,90.114375,-23.85,10.238982,33.53
2021-06-29 17:35:49.351562500,-45.0,-16.0,43.75,90.11515625,-27.765,10.2371005,33.53
2021-06-29 17:35:49.359375000,-45.0,-16.0,43.5,90.1159375,-31.68,10.235218999999999,33.53
2021-06-29 17:35:49.367187500,-45.0,-16.0,43.25,90.11671875,-36.155,10.2333375,33.53
2021-06-29 17:35:49.375000000,-45.0,-16.0,43.0,90.1175,-40.63,10.231456,33.53
2021-06-29 17:35:49.382812500,-45.0,-16.0,43.25,90.11828125,-45.985,10.2295745,33.53
2021-06-29 17:35:49.390625000,-45.0,-16.0,43.5,90.1190625,-51.34,10.227693,33.53
2021-06-29 17:35:49.398437500,-45.0,-16.0,43.75,90.11984375,-57.695,10.225811499999999,33.53
2021-06-29 17:35:49.406250000,-45.0,-16.0,44.0,90.120625,-64.05,10.22393,33.53
2021-06-29 17:35:49.414062500,-45.0,-16.0,43.75,90.12140625,-71.13,10.2220485,33.53
2021-06-29 17:35:49.421875000,-45.0,-16.0,43.5,90.1221875,-78.21,10.220167,33.53
2021-06-29 17:35:49.429687500,-45.0,-16.0,43.25,90.12296875,-85.215,10.2182855,33.53
2021-06-29 17:35:49.437500000,-45.0,-16.0,43.0,90.12375,-92.22,10.216404,33.53
2021-06-29 17:35:49.445312500,-45.0,-16.0,43.25,90.12453125,-97.795,10.2145225,33.53
2021-06-29 17:35:49.453125000,-45.0,-16.0,43.5,90.1253125,-103.37,10.212641,33.53
2021-06-29 17:35:49.460937500,-45.0,-16.0,43.75,90.12609375,-105.93,10.2107595,33.53
2021-06-29 17:35:49.468750000,-45.0,-16.0,44.0,90.126875,-108.49,10.208878,33.53
2021-06-29 17:35:49.476562500,-45.0,-16.0,43.75,90.12765625,-106.69999999999999,10.2069965,33.53
2021-06-29 17:35:49.484375000,-45.0,-16.0,43.5,90.1284375,-104.91,10.205115,33.53
2021-06-29 17:35:49.492187500,-45.0,-16.0,43.25,90.12921875,-98.22,10.2032335,33.53
2021-06-29 17:35:49.500000000,-45.0,-16.0,43.0,90.13,-91.53,10.201352,33.53
2021-06-29 17:35:49.507812500,-45.0,-16.0,43.25,90.13078125,-80.455,10.2012319375,33.53
2021-06-29 17:35:49.515625000,-45.0,-16.0,43.5,90.1315625,-69.38,10.201111875,33.53
2021-06-29 17:35:49.523437500,-45.0,-16.0,43.75,90.13234375,-55.415,10.2009918125,33.53
2021-06-29 17:35:49.531250000,-45.0,-16.0,44.0,90.133125,-41.45,10.20087175,33.53
2021-06-29 17:35:49.539062500,-45.0,-16.0,43.75,90.13390625000001,-26.590000000000003,10.2007516875,33.53
2021-06-29 17:35:49.546875000,-45.0,-16.0,43.5,90.1346875,-11.73,10.200631625,33.53
2021-06-29 17:35:49.554687500,-45.0,-16.0,43.25,90.13546875,2.094999999999999,10.2005115625,33.53
2021-06-29 17:35:49.562500000,-45.0,-16.0,43.0,90.13625,15.92,10.2003915,33.53
2021-06-29 17:35:49.570312500,-45.0,-16.0,43.0,90.13703125,27.354999999999997,10.2002714375,33.53
2021-06-29 17:35:49.578125000,-45.0,-16.0,43.0,90.13781250000001,38.79,10.200151374999999,33.53
2021-06-29 17:35:49.585937500,-45.0,-16.0,43.0,90.13859375,47.21,10.2000313125,33.53
2021-06-29 17:35:49.593750000,-45.0,-16.0,43.0,90.139375,55.63,10.19991125,33.53
2021-06-29 17:35:49.601562500,-45.0,-16.0,43.25,90.14015625,60.995000000000005,10.199791187499999,33.53
2021-06-29 17:35:49.609375000,-45.0,-16.0,43.5,90.1409375,66.36,10.199671125,33.53
2021-06-29 17:35:49.617187500,-45.0,-16.0,43.75,90.14171875000001,68.955,10.1995510625,33.53
2021-06-29 17:35:49.625000000,-45.0,-16.0,44.0,90.1425,71.55,10.199431,33.53
2021-06-29 17:35:49.632812500,-45.0,-16.0,43.75,90.14328125,71.755,10.1993109375,33.53
2021-06-29 17:35:49.640625000,-45.0,-16.0,43.5,90.1440625,71.96,10.199190875,33.53
2021-06-29 17:35:49.648437500,-45.0,-16.0,43.25,90.14484375,70.185,10.1990708125,33.53
2021-06-29 17:35:49.656250000,-45.0,-16.0,43.0,90.14562500000001,68.41,10.19895075,33.53
2021-06-29 17:35:49.664062500,-45.0,-16.0,43.0,90.14640625,65.11,10.1988306875,33.53
2021-06-29 17:35:49.671875000,-45.0,-16.0,43.0,90.1471875,61.81,10.198710625,33.53
2021-06-29 17:35:49.679687500,-45.0,-16.0,43.0,90.14796875,57.58,10.1985905625,33.53
2021-06-29 17:35:49.687500000,-45.0,-16.0,43.0,90.14875,53.35,10.198470499999999,33.53
2021-06-29 17:35:49.695312500,-45.0,-16.0,43.0,90.14953125000001,48.879999999999995,10.1983504375,33.53
2021-06-29 17:35:49.703125000,-45.0,-16.0,43.0,90.1503125,44.41,10.198230375,33.53
2021-06-29 17:35:49.710937500,-45.0,-16.0,43.0,90.15109375,40.37,10.198110312499999,33.53
2021-06-29 17:35:49.718750000,-45.0,-16.0,43.0,90.151875,36.33,10.19799025,33.53
2021-06-29 17:35:49.726562500,-45.0,-16.0,43.0,90.15265625,33.21,10.1978701875,33.53
2021-06-29 17:35:49.734375000,-45.0,-16.0,43.0,90.15343750000001,30.09,10.197750124999999,33.53
2021-06-29 17:35:49.742187500,-45.0,-16.0,43.0,90.15421875,28.105,10.1976300625,33.53
2021-06-29 17:35:49.750000000,-45.0,-16.0,43.0,90.155,26.12,10.19751,33.53
2021-06-29 17:35:49.757812500,-45.0,-16.0,43.0,90.15578125,25.175,10.197029593749999,33.53
2021-06-29 17:35:49.765625000,-45.0,-16.0,43.0,90.1565625,24.23,10.196549187499999,33.53
2021-06-29 17:35:49.773437500,-45.0,-16.0,43.0,90.15734375000001,24.060000000000002,10.19606878125,33.53
2021-06-29 17:35:49.781250000,-45.0,-16.0,43.0,90.158125,23.89,10.195588375,33.53
2021-06-29 17:35:49.789062500,-45.0,-16.0,43.0,90.15890625,24.155,10.19510796875,33.53
2021-06-29 17:35:49.796875000,-45.0,-16.0,43.0,90.1596875,24.42,10.1946275625,33.53
2021-06-29 17:35:49.804687500,-45.0,-16.0,43.0,90.16046875,24.83,10.19414715625,33.53
2021-06-29 17:35:49.812500000,-45.0,-16.0,43.0,90.16125000000001,25.24,10.19366675,33.53
2021-06-29 17:35:49.820312500,-45.0,-16.0,43.0,90.16203125,25.6,10.19318634375,33.53
2021-06-29 17:35:49.828125000,-45.0,-16.0,43.0,90.1628125,25.96,10.1927059375,33.53
2021-06-29 17:35:49.835937500,-45.0,-16.0,43.0,90.16359375,26.11,10.19222553125,33.53
2021-06-29 17:35:49.843750000,-45.0,-16.0,43.0,90.164375,26.26,10.191745125,33.53
2021-06-29 17:35:49.851562500,-45.0,-16.0,43.25,90.16515625000001,26.025,10.19126471875,33.53
2021-06-29 17:35:49.859375000,-45.0,-16.0,43.5,90.16593750000001,25.79,10.1907843125,33.53
2021-06-29 17:35:49.867187500,-45.0,-16.0,43.75,90.16671875,24.96,10.19030390625,33.53
2021-06-29 17:35:49.875000000,-45.0,-16.0,44.0,90.1675,24.13,10.1898235,33.53
2021-06-29 17:35:49.882812500,-45.0,-16.0,43.75,90.16828125,22.515,10.18934309375,33.53
2021-06-29 17:35:49.890625000,-45.0,-16.0,43.5,90.16906250000001,20.9,10.1888626875,33.53
2021-06-29 17:35:49.898437500,-45.0,-16.0,43.25,90.16984375000001,18.405,10.18838228125,33.53
2021-06-29 17:35:49.906250000,-45.0,-16.0,43.0,90.170625,15.91,10.187901875,33.53
2021-06-29 17:35:49.914062500,-45.0,-16.0,43.0,90.17140625,12.620000000000001,10.187421468750001,33.53
2021-06-29 17:35:49.921875000,-45.0,-16.0,43.0,90.1721875,9.33,10.1869410625,33.53
2021-06-29 17:35:49.929687500,-45.0,-16.0,43.0,90.17296875000001,5.484999999999999,10.18646065625,33.53
2021-06-29 17:35:49.937500000,-45.0,-16.0,43.0,90.17375000000001,1.64,10.18598025,33.53
2021-06-29 17:35:49.945312500,-45.0,-16.0,43.0,90.17453125,-2.4050000000000002,10.18549984375,33.53
2021-06-29 17:35:49.953125000,-45.0,-16.0,43.0,90.1753125,-6.45,10.185019437500001,33.53
2021-06-29 17:35:49.960937500,-45.0,-16.0,43.0,90.17609375,-10.39,10.18453903125,33.53
2021-06-29 17:35:49.968750000,-45.0,-16.0,43.0,90.17687500000001,-14.33,10.184058625,33.53
2021-06-29 17:35:49.976562500,-45.0,-16.0,43.0,90.17765625000001,-18.015,10.18357821875,33.53
2021-06-29 17:35:49.984375000,-45.0,-16.0,43.0,90.1784375,-21.7,10.183097812500002,33.53
2021-06-29 17:35:49.992187500,-45.0,-16.0,43.0,90.17921875,-25.16,10.182617406250001,33.53
2021-06-29 17:35:50.000000000,-45.0,-16.0,43.0,90.18,-28.62,10.182137,33.53
2021-06-29 17:35:50.007812500,-45.0,-16.0,43.0,90.18078125000001,-32.1,10.1816165625,33.5290625
2021-06-29 17:35:50.015625000,-45.0,-16.0,43.0,90.18156250000001,-35.58,10.181096125000002,33.528125
2021-06-29 17:35:50.023437500,-45.0,-16.0,43.0,90.18234375,-39.44,10.180575687500001,33.527187500000004
2021-06-29 17:35:50.031250000,-45.0,-16.0,43.0,90.183125,-43.3,10.18005525,33.526250000000005
2021-06-29 17:35:50.039062500,-45.0,-16.0,43.0,90.18390625,-47.93,10.1795348125,33.5253125
2021-06-29 17:35:50.046875000,-45.0,-16.0,43.0,90.18468750000001,-52.56,10.179014375000001,33.524375
2021-06-29 17:35:50.054687500,-45.0,-16.0,43.0,90.18546875000001,-58.185,10.1784939375,33.5234375
2021-06-29 17:35:50.062500000,-45.0,-16.0,43.0,90.18625,-63.81,10.1779735,33.5225
2021-06-29 17:35:50.070312500,-45.0,-16.0,43.0,90.18703125,-70.305,10.177453062500001,33.5215625
2021-06-29 17:35:50.078125000,-45.0,-16.0,43.0,90.1878125,-76.8,10.176932625000001,33.520625
2021-06-29 17:35:50.085937500,-45.0,-16.0,43.0,90.18859375000001,-83.505,10.1764121875,33.5196875
2021-06-29 17:35:50.093750000,-45.0,-16.0,43.0,90.18937500000001,-90.21,10.17589175,33.51875
2021-06-29 17:35:50.101562500,-45.0,-16.0,43.25,90.19015625,-95.94999999999999,10.175371312500001,33.5178125
2021-06-29 17:35:50.109375000,-45.0,-16.0,43.5,90.1909375,-101.69,10.174850875,33.516875
2021-06-29 17:35:50.117187500,-45.0,-16.0,43.75,90.19171875,-104.99000000000001,10.1743304375,33.5159375
2021-06-29 17:35:50.125000000,-45.0,-16.0,44.0,90.19250000000001,-108.29,10.17381,33.515
2021-06-29 17:35:50.132812500,-45.0,-16.0,43.75,90.19328125000001,-107.805,10.1732895625,33.5140625
2021-06-29 17:35:50.140625000,-45.0,-16.0,43.5,90.1940625,-107.32,10.172769125,33.513125
2021-06-29 17:35:50.148437500,-45.0,-16.0,43.25,90.19484375,-102.335,10.1722486875,33.5121875
2021-06-29 17:35:50.156250000,-45.0,-16.0,43.0,90.195625,-97.35,10.171728250000001,33.511250000000004
2021-06-29 17:35:50.164062500,-45.0,-16.0,43.0,90.19640625000001,-88.09,10.1712078125,33.5103125
2021-06-29 17:35:50.171875000,-45.0,-16.0,43.0,90.19718750000001,-78.83,10.170687375,33.509375
2021-06-29 17:35:50.179687500,-45.0,-16.0,43.0,90.19796875,-66.46000000000001,10.1701669375,33.5084375
2021-06-29 17:35:50.187500000,-45.0,-16.0,43.0,90.19875,-54.09,10.1696465,33.5075
2021-06-29 17:35:50.195312500,-45.0,-16.0,43.0,90.19953125,-40.36,10.1691260625,33.5065625
2021-06-29 17:35:50.203125000,-45.0,-16.0,43.0,90.20031250000001,-26.63,10.168605625,33.505625
2021-06-29 17:35:50.210937500,-45.0,-16.0,43.0,90.20109375000001,-13.354999999999999,10.168085187500001,33.5046875
2021-06-29 17:35:50.218750000,-45.0,-16.0,43.0,90.201875,-0.08,10.16756475,33.50375
2021-06-29 17:35:50.226562500,-45.0,-16.0,43.0,90.20265625,11.315,10.1670443125,33.5028125
2021-06-29 17:35:50.234375000,-45.0,-16.0,43.0,90.2034375,22.71,10.166523875,33.501875
2021-06-29 17:35:50.242187500,-45.0,-16.0,43.0,90.20421875000001,31.445,10.1660034375,33.5009375
2021-06-29 17:35:50.250000000,-45.0,-16.0,43.0,90.20500000000001,40.18,10.165483,33.5
2021-06-29 17:35:50.257812500,-45.0,-16.0,43.0,90.20578125,46.065,10.16448221875,33.5
2021-06-29 17:35:50.265625000,-45.0,-16.0,43.0,90.2065625,51.95,10.1634814375,33.5
2021-06-29 17:35:50.273437500,-45.0,-16.0,43.0,90.20734375,55.19,10.16248065625,33.5
2021-06-29 17:35:50.281250000,-45.0,-16.0,43.0,90.20812500000001,58.43,10.161479875,33.5
2021-06-29 17:35:50.289062500,-45.0,-16.0,43.0,90.20890625,59.375,10.16047909375,33.5
2021-06-29 17:35:50.296875000,-45.0,-16.0,43.0,90.2096875,60.32,10.1594783125,33.5
2021-06-29 17:35:50.304687500,-45.0,-16.0,43.0,90.21046875,59.36,10.15847753125,33.5
2021-06-29 17:35:50.312500000,-45.0,-16.0,43.0,90.21125,58.4,10.15747675,33.5
2021-06-29 17:35:50.320312500,-45.0,-16.0,43.0,90.21203125000001,55.925,10.15647596875,33.5
2021-06-29 17:35:50.328125000,-45.0,-16.0,43.0,90.2128125,53.45,10.1554751875,33.5
2021-06-29 17:35:50.335937500,-45.0,-16.0,43.0,90.21359375,49.89,10.15447440625,33.5
2021-06-29 17:35:50.343750000,-45.0,-16.0,43.0,90.214375,46.33,10.153473625,33.5
2021-06-29 17:35:50.351562500,-45.0,-16.0,43.0,90.21515625,42.19,10.15247284375,33.5
2021-06-29 17:35:50.359375000,-45.0,-16.0,43.0,90.21593750000001,38.05,10.1514720625,33.5
2021-06-29 17:35:50.367187500,-45.0,-16.0,43.0,90.21671875,33.885,10.150471281249999,33.5
2021-06-29 17:35:50.375000000,-45.0,-16.0,43.0,90.2175,29.72,10.1494705,33.5
2021-06-29 17:35:50.382812500,-45.0,-16.0,43.0,90.21828125,26.049999999999997,10.14846971875,33.5
2021-06-29 17:35:50.390625000,-45.0,-16.0,43.0,90.2190625,22.38,10.1474689375,33.5
2021-06-29 17:35:50.398437500,-45.0,-16.0,43.0,90.21984375000001,19.619999999999997,10.14646815625,33.5
2021-06-29 17:35:50.406250000,-45.0,-16.0,43.0,90.220625,16.86,10.145467374999999,33.5
2021-06-29 17:35:50.414062500,-45.0,-16.0,43.25,90.22140625,15.215,10.14446659375,33.5
2021-06-29 17:35:50.421875000,-45.0,-16.0,43.5,90.2221875,13.57,10.143465812499999,33.5
2021-06-29 17:35:50.429687500,-45.0,-16.0,43.75,90.22296875,13.025,10.14246503125,33.5
2021-06-29 17:35:50.437500000,-45.0,-16.0,44.0,90.22375000000001,12.48,10.141464249999999,33.5
2021-06-29 17:35:50.445312500,-45.0,-16.0,43.75,90.22453125,12.79,10.14046346875,33.5
2021-06-29 17:35:50.453125000,-45.0,-16.0,43.5,90.2253125,13.1,10.1394626875,33.5
2021-06-29 17:35:50.460937500,-45.0,-16.0,43.25,90.22609375,13.89,10.138461906249999,33.5
2021-06-29 17:35:50.468750000,-45.0,-16.0,43.0,90.226875,14.68,10.137461125,33.5
2021-06-29 17:35:50.476562500,-45.0,-16.0,43.0,90.22765625000001,15.525,10.136460343749999,33.5
2021-06-29 17:35:50.484375000,-45.0,-16.0,43.0,90.2284375,16.37,10.1354595625,33.5
2021-06-29 17:35:50.492187500,-45.0,-16.0,43.0,90.22921875,16.9,10.134458781249998,33.5
2021-06-29 17:35:50.500000000,-45.0,-16.0,43.0,90.23,17.43,10.133458,33.5
2021-06-29 17:35:50.507812500,-45.0,-16.0,43.0,90.23078125,17.4,10.1330576875,33.5
2021-06-29 17:35:50.515625000,-45.0,-16.0,43.0,90.23156250000001,17.37,10.132657374999999,33.5
2021-06-29 17:35:50.523437500,-45.0,-16.0,43.0,90.23234375,16.675,10.132257062499999,33.5
2021-06-29 17:35:50.531250000,-45.0,-16.0,43.0,90.233125,15.98,10.131856749999999,33.5
2021-06-29 17:35:50.539062500,-45.0,-16.0,43.0,90.23390625,14.64,10.131456437499999,33.5
2021-06-29 17:35:50.546875000,-45.0,-16.0,43.0,90.2346875,13.3,10.131056124999999,33.5
2021-06-29 17:35:50.554687500,-45.0,-16.0,43.0,90.23546875000001,11.435,10.130655812499999,33.5
2021-06-29 17:35:50.562500000,-45.0,-16.0,43.0,90.23625,9.57,10.130255499999999,33.5
2021-06-29 17:35:50.570312500,-45.0,-16.0,43.0,90.23703125,7.32,10.129855187499999,33.5
2021-06-29 17:35:50.578125000,-45.0,-16.0,43.0,90.2378125,5.07,10.129454874999999,33.5
2021-06-29 17:35:50.585937500,-45.0,-16.0,43.0,90.23859375,2.58,10.129054562499999,33.5
2021-06-29 17:35:50.593750000,-45.0,-16.0,43.0,90.23937500000001,0.09,10.128654249999999,33.5
2021-06-29 17:35:50.601562500,-45.0,-16.0,43.0,90.24015625,-2.545,10.128253937499998,33.5
2021-06-29 17:35:50.609375000,-45.0,-16.0,43.0,90.2409375,-5.18,10.127853624999998,33.5
2021-06-29 17:35:50.617187500,-45.0,-16.0,43.0,90.24171875,-7.93,10.127453312499998,33.5
2021-06-29 17:35:50.625000000,-45.0,-16.0,43.0,90.2425,-10.68,10.127053,33.5
2021-06-29 17:35:50.632812500,-45.0,-16.0,43.0,90.24328125000001,-13.55,10.1266526875,33.5
2021-06-29 17:35:50.640625000,-45.0,-16.0,43.0,90.2440625,-16.42,10.126252375,33.5
2021-06-29 17:35:50.648437500,-45.0,-16.0,43.0,90.24484375,-19.51,10.1258520625,33.5
2021-06-29 17:35:50.656250000,-45.0,-16.0,43.0,90.245625,-22.6,10.12545175,33.5
2021-06-29 17:35:50.664062500,-45.0,-16.0,43.0,90.24640625,-26.08,10.1250514375,33.5
2021-06-29 17:35:50.671875000,-45.0,-16.0,43.0,90.24718750000001,-29.56,10.124651125,33.5
2021-06-29 17:35:50.679687500,-45.0,-16.0,43.0,90.24796875,-33.685,10.1242508125,33.5
2021-06-29 17:35:50.687500000,-45.0,-16.0,43.0,90.24875,-37.81,10.1238505,33.5
2021-06-29 17:35:50.695312500,-45.0,-16.0,43.0,90.24953125,-42.8,10.1234501875,33.5
2021-06-29 17:35:50.703125000,-45.0,-16.0,43.0,90.2503125,-47.79,10.123049875,33.5
2021-06-29 17:35:50.710937500,-45.0,-16.0,43.0,90.25109375000001,-53.614999999999995,10.1226495625,33.5
2021-06-29 17:35:50.718750000,-45.0,-16.0,43.0,90.251875,-59.44,10.12224925,33.5
2021-06-29 17:35:50.726562500,-45.0,-16.0,43.0,90.25265625,-65.58500000000001,10.1218489375,33.5
2021-06-29 17:35:50.734375000,-45.0,-16.0,43.0,90.2534375,-71.73,10.121448625,33.5
2021-06-29 17:35:50.742187500,-45.0,-16.0,43.0,90.25421875,-77.135,10.1210483125,33.5
2021-06-29 17:35:50.750000000,-45.0,-16.0,43.0,90.255,-82.54,10.120648,33.5
2021-06-29 17:35:50.757812500,-45.0,-16.0,43.0,90.25578125,-85.77000000000001,10.120848156249998,33.5
2021-06-29 17:35:50.765625000,-45.0,-16.0,43.0,90.2565625,-89.0,10.1210483125,33.5
2021-06-29 17:35:50.773437500,-45.0,-16.0,43.0,90.25734375,-88.67,10.12124846875,33.5
2021-06-29 17:35:50.781250000,-45.0,-16.0,43.0,90.258125,-88.34,10.121448625,33.5
2021-06-29 17:35:50.789062500,-45.0,-16.0,43.0,90.25890625,-83.67500000000001,10.121648781249998,33.5
2021-06-29 17:35:50.796875000,-45.0,-16.0,43.0,90.2596875,-79.01,10.1218489375,33.5
2021-06-29 17:35:50.804687500,-45.0,-16.0,43.0,90.26046875,-70.17,10.12204909375,33.5
2021-06-29 17:35:50.812500000,-45.0,-16.0,43.0,90.26125,-61.33,10.12224925,33.5
2021-06-29 17:35:50.820312500,-45.0,-16.0,43.25,90.26203125,-49.47,10.122449406249999,33.5
2021-06-29 17:35:50.828125000,-45.0,-16.0,43.5,90.2628125,-37.61,10.1226495625,33.5
2021-06-29 17:35:50.835937500,-45.0,-16.0,43.75,90.26359375,-24.49,10.12284971875,33.5
2021-06-29 17:35:50.843750000,-45.0,-16.0,44.0,90.264375,-11.37,10.123049875,33.5
2021-06-29 17:35:50.851562500,-45.0,-16.0,43.75,90.26515625,1.205,10.123250031249999,33.5
2021-06-29 17:35:50.859375000,-45.0,-16.0,43.5,90.2659375,13.78,10.1234501875,33.5
2021-06-29 17:35:50.867187500,-45.0,-16.0,43.25,90.26671875,24.47,10.12365034375,33.5
2021-06-29 17:35:50.875000000,-45.0,-16.0,43.0,90.2675,35.16,10.1238505,33.5
2021-06-29 17:35:50.882812500,-45.0,-16.0,43.0,90.26828125,43.269999999999996,10.124050656249999,33.5
2021-06-29 17:35:50.890625000,-45.0,-16.0,43.0,90.2690625,51.38,10.1242508125,33.5
2021-06-29 17:35:50.898437500,-45.0,-16.0,43.0,90.26984375,56.785,10.12445096875,33.5
2021-06-29 17:35:50.906250000,-45.0,-16.0,43.0,90.270625,62.19,10.124651125,33.5
2021-06-29 17:35:50.914062500,-45.0,-16.0,43.0,90.27140625,65.11,10.124851281249999,33.5
2021-06-29 17:35:50.921875000,-45.0,-16.0,43.0,90.2721875,68.03,10.1250514375,33.5
2021-06-29 17:35:50.929687500,-45.0,-16.0,43.0,90.27296875,68.745,10.12525159375,33.5
2021-06-29 17:35:50.937500000,-45.0,-16.0,43.0,90.27375,69.46,10.12545175,33.5
2021-06-29 17:35:50.945312500,-45.0,-16.0,43.0,90.27453125,68.275,10.125651906249999,33.5
2021-06-29 17:35:50.953125000,-45.0,-16.0,43.0,90.2753125,67.09,10.1258520625,33.5
2021-06-29 17:35:50.960937500,-45.0,-16.0,43.0,90.27609375,64.345,10.12605221875,33.5
2021-06-29 17:35:50.968750000,-45.0,-16.0,43.0,90.276875,61.6,10.126252375,33.5
2021-06-29 17:35:50.976562500,-45.0,-16.0,43.0,90.27765625,57.74,10.126452531249999,33.5
2021-06-29 17:35:50.984375000,-45.0,-16.0,43.0,90.2784375,53.88,10.1266526875,33.5
2021-06-29 17:35:50.992187500,-45.0,-16.0,43.0,90.27921875,49.475,10.126852843750001,33.5
2021-06-29 17:35:51.000000000,-45.0,-16.0,43.0,90.28,45.07,10.127053,33.5
2021-06-29 17:35:51.007812500,-45.0,-16.0,43.0,90.280546875,40.72,10.12609225,33.5
2021-06-29 17:35:51.015625000,-45.0,-16.0,43.0,90.28109375,36.37,10.1251315,33.5
2021-06-29 17:35:51.023437500,-45.0,-16.0,43.0,90.281640625,32.589999999999996,10.12417075,33.5
2021-06-29 17:35:51.031250000,-45.0,-16.0,43.0,90.2821875,28.81,10.12321,33.5
2021-06-29 17:35:51.039062500,-45.0,-16.0,43.0,90.282734375,25.93,10.12224925,33.5
2021-06-29 17:35:51.046875000,-45.0,-16.0,43.0,90.28328125,23.05,10.1212885,33.5
2021-06-29 17:35:51.054687500,-45.0,-16.0,43.0,90.283828125,21.205,10.12032775,33.5
2021-06-29 17:35:51.062500000,-45.0,-16.0,43.0,90.284375,19.36,10.119367,33.5
2021-06-29 17:35:51.070312500,-45.0,-16.0,43.0,90.284921875,18.465,10.11840625,33.5
2021-06-29 17:35:51.078125000,-45.0,-16.0,43.0,90.28546875,17.57,10.1174455,33.5
2021-06-29 17:35:51.085937500,-45.0,-16.0,43.0,90.286015625,17.415,10.11648475,33.5
2021-06-29 17:35:51.093750000,-45.0,-16.0,43.0,90.2865625,17.26,10.115524,33.5
2021-06-29 17:35:51.101562500,-45.0,-16.0,43.0,90.287109375,17.53,10.11456325,33.5
2021-06-29 17:35:51.109375000,-45.0,-16.0,43.0,90.28765625,17.8,10.1136025,33.5
2021-06-29 17:35:51.117187500,-45.0,-16.0,43.0,90.288203125,18.14,10.11264175,33.5
2021-06-29 17:35:51.125000000,-45.0,-16.0,43.0,90.28875,18.48,10.111681,33.5
2021-06-29 17:35:51.132812500,-45.0,-16.0,43.0,90.289296875,18.55,10.11072025,33.5
2021-06-29 17:35:51.140625000,-45.0,-16.0,43.0,90.28984375,18.62,10.1097595,33.5
2021-06-29 17:35:51.148437500,-45.0,-16.0,43.0,90.290390625,18.14,10.10879875,33.5
2021-06-29 17:35:51.156250000,-45.0,-16.0,43.0,90.2909375,17.66,10.107838,33.5
2021-06-29 17:35:51.164062500,-45.0,-16.0,43.0,90.291484375,16.45,10.10687725,33.5
2021-06-29 17:35:51.171875000,-45.0,-16.0,43.0,90.29203125,15.24,10.1059165,33.5
2021-06-29 17:35:51.179687500,-45.0,-16.0,43.0,90.292578125,13.25,10.10495575,33.5
2021-06-29 17:35:51.187500000,-45.0,-16.0,43.0,90.293125,11.26,10.103995,33.5
2021-06-29 17:35:51.195312500,-45.0,-16.0,43.0,90.293671875,8.575,10.10303425,33.5
2021-06-29 17:35:51.203125000,-45.0,-16.0,43.0,90.29421875,5.89,10.1020735,33.5
2021-06-29 17:35:51.210937500,-45.0,-16.0,43.0,90.294765625,2.6999999999999997,10.10111275,33.5
2021-06-29 17:35:51.218750000,-45.0,-16.0,43.0,90.2953125,-0.49,10.100152,33.5
2021-06-29 17:35:51.226562500,-45.0,-16.0,43.0,90.295859375,-3.95,10.09919125,33.5
2021-06-29 17:35:51.234375000,-45.0,-16.0,43.0,90.29640625,-7.41,10.0982305,33.5
2021-06-29 17:35:51.242187500,-45.0,-16.0,43.0,90.296953125,-10.92,10.09726975,33.5
2021-06-29 17:35:51.250000000,-45.0,-16.0,43.0,90.2975,-14.43,10.096309,33.5
2021-06-29 17:35:51.257812500,-45.0,-16.0,43.0,90.298046875,-17.865000000000002,10.09606878125,33.5
2021-06-29 17:35:51.265625000,-45.0,-16.0,43.0,90.29859375,-21.3,10.0958285625,33.5
2021-06-29 17:35:51.273437500,-45.0,-16.0,43.0,90.29914062499999,-24.67,10.09558834375,33.5
2021-06-29 17:35:51.281250000,-45.0,-16.0,43.0,90.2996875,-28.04,10.095348125,33.5
2021-06-29 17:35:51.289062500,-45.0,-16.0,43.25,90.300234375,-31.485,10.09510790625,33.5
2021-06-29 17:35:51.296875000,-45.0,-16.0,43.5,90.30078125,-34.93,10.0948676875,33.5
2021-06-29 17:35:51.304687500,-45.0,-16.0,43.75,90.301328125,-38.75,10.09462746875,33.5
2021-06-29 17:35:51.312500000,-45.0,-16.0,44.0,90.301875,-42.57,10.09438725,33.5
2021-06-29 17:35:51.320312500,-45.0,-16.0,44.0,90.302421875,-47.105000000000004,10.09414703125,33.5
2021-06-29 17:35:51.328125000,-45.0,-16.0,44.0,90.30296875,-51.64,10.0939068125,33.5
2021-06-29 17:35:51.335937500,-45.0,-16.0,44.0,90.303515625,-57.165,10.093666593750001,33.5
2021-06-29 17:35:51.343750000,-45.0,-16.0,44.0,90.3040625,-62.69,10.093426375,33.5
2021-06-29 17:35:51.351562500,-45.0,-16.0,43.75,90.304609375,-69.16499999999999,10.09318615625,33.5
2021-06-29 17:35:51.359375000,-45.0,-16.0,43.5,90.30515625,-75.64,10.0929459375,33.5
2021-06-29 17:35:51.367187500,-45.0,-16.0,43.25,90.305703125,-82.535,10.09270571875,33.5
2021-06-29 17:35:51.375000000,-45.0,-16.0,43.0,90.30625,-89.43,10.0924655,33.5
2021-06-29 17:35:51.382812500,-45.0,-16.0,43.0,90.306796875,-95.64500000000001,10.09222528125,33.5
2021-06-29 17:35:51.390625000,-45.0,-16.0,43.0,90.30734375,-101.86,10.091985062500001,33.5
2021-06-29 17:35:51.398437500,-45.0,-16.0,43.0,90.307890625,-105.925,10.09174484375,33.5
2021-06-29 17:35:51.406250000,-45.0,-16.0,43.0,90.3084375,-109.99,10.091504625,33.5
2021-06-29 17:35:51.414062500,-45.0,-16.0,43.0,90.308984375,-110.44,10.09126440625,33.5
2021-06-29 17:35:51.421875000,-45.0,-16.0,43.0,90.30953124999999,-110.89,10.0910241875,33.5
2021-06-29 17:35:51.429687500,-45.0,-16.0,43.0,90.310078125,-106.785,10.090783968750001,33.5
2021-06-29 17:35:51.437500000,-45.0,-16.0,43.0,90.310625,-102.68,10.09054375,33.5
2021-06-29 17:35:51.445312500,-45.0,-16.0,43.0,90.311171875,-94.01,10.090303531250001,33.5
2021-06-29 17:35:51.453125000,-45.0,-16.0,43.0,90.31171875,-85.34,10.0900633125,33.5
2021-06-29 17:35:51.460937500,-45.0,-16.0,43.0,90.312265625,-73.065,10.08982309375,33.5
2021-06-29 17:35:51.468750000,-45.0,-16.0,43.0,90.31281249999999,-60.79,10.089582875000001,33.5
2021-06-29 17:35:51.476562500,-45.0,-16.0,43.25,90.313359375,-46.629999999999995,10.08934265625,33.5
2021-06-29 17:35:51.484375000,-45.0,-16.0,43.5,90.31390625,-32.47,10.089102437500001,33.5
2021-06-29 17:35:51.492187500,-45.0,-16.0,43.75,90.314453125,-18.335,10.08886221875,33.5
2021-06-29 17:35:51.500000000,-45.0,-16.0,44.0,90.315,-4.2,10.088622,33.5
2021-06-29 17:35:51.507812500,-45.0,-16.0,44.0,90.315546875,8.309999999999999,10.087581187500001,33.5
2021-06-29 17:35:51.515625000,-45.0,-16.0,44.0,90.31609375,20.82,10.086540375,33.5
2021-06-29 17:35:51.523437500,-45.0,-16.0,44.0,90.31664062499999,30.73,10.0854995625,33.5
2021-06-29 17:35:51.531250000,-45.0,-16.0,44.0,90.3171875,40.64,10.084458750000001,33.5
2021-06-29 17:35:51.539062500,-45.0,-16.0,43.75,90.317734375,47.635000000000005,10.0834179375,33.5
2021-06-29 17:35:51.546875000,-45.0,-16.0,43.5,90.31828125,54.63,10.082377125,33.5
2021-06-29 17:35:51.554687500,-45.0,-16.0,43.25,90.318828125,58.85,10.081336312500001,33.5
2021-06-29 17:35:51.562500000,-45.0,-16.0,43.0,90.319375,63.07,10.0802955,33.5
2021-06-29 17:35:51.570312500,-45.0,-16.0,43.25,90.31992187499999,64.88,10.0792546875,33.5
2021-06-29 17:35:51.578125000,-45.0,-16.0,43.5,90.32046875,66.69,10.078213875000001,33.5
2021-06-29 17:35:51.585937500,-45.0,-16.0,43.75,90.321015625,66.465,10.0771730625,33.5
2021-06-29 17:35:51.593750000,-45.0,-16.0,44.0,90.3215625,66.24,10.07613225,33.5
2021-06-29 17:35:51.601562500,-45.0,-16.0,43.75,90.322109375,64.38499999999999,10.075091437500001,33.5
2021-06-29 17:35:51.609375000,-45.0,-16.0,43.5,90.32265625,62.53,10.074050625,33.5
2021-06-29 17:35:51.617187500,-45.0,-16.0,43.25,90.32320312499999,59.504999999999995,10.0730098125,33.5
2021-06-29 17:35:51.625000000,-45.0,-16.0,43.0,90.32374999999999,56.48,10.071969,33.5
2021-06-29 17:35:51.632812500,-45.0,-16.0,43.0,90.324296875,52.815,10.0709281875,33.5
2021-06-29 17:35:51.640625000,-45.0,-16.0,43.0,90.32484375,49.15,10.069887375,33.5
2021-06-29 17:35:51.648437500,-45.0,-16.0,43.0,90.325390625,45.435,10.0688465625,33.5
2021-06-29 17:35:51.656250000,-45.0,-16.0,43.0,90.3259375,41.72,10.06780575,33.5
2021-06-29 17:35:51.664062500,-45.0,-16.0,43.0,90.32648437499999,38.480000000000004,10.0667649375,33.5
2021-06-29 17:35:51.671875000,-45.0,-16.0,43.0,90.32703124999999,35.24,10.065724125,33.5
2021-06-29 17:35:51.679687500,-45.0,-16.0,43.0,90.327578125,32.835,10.0646833125,33.5
2021-06-29 17:35:51.687500000,-45.0,-16.0,43.0,90.328125,30.43,10.0636425,33.5
2021-06-29 17:35:51.695312500,-45.0,-16.25,43.25,90.328671875,28.985,10.062601687499999,33.5
2021-06-29 17:35:51.703125000,-45.0,-16.5,43.5,90.32921875,27.54,10.061560875,33.5
2021-06-29 17:35:51.710937500,-45.0,-16.75,43.75,90.329765625,26.97,10.0605200625,33.5
2021-06-29 17:35:51.718750000,-45.0,-17.0,44.0,90.33031249999999,26.4,10.059479249999999,33.5
2021-06-29 17:35:51.726562500,-44.75,-16.75,44.0,90.330859375,26.46,10.0584384375,33.5
2021-06-29 17:35:51.734375000,-44.5,-16.5,44.0,90.33140625,26.52,10.057397625,33.5
2021-06-29 17:35:51.742187500,-44.25,-16.25,44.0,90.331953125,26.93,10.056356812499999,33.5
2021-06-29 17:35:51.750000000,-44.0,-16.0,44.0,90.3325,27.34,10.055316,33.5
2021-06-29 17:35:51.757812500,-44.25,-16.0,44.0,90.333046875,27.805,10.05511584375,33.5
2021-06-29 17:35:51.765625000,-44.5,-16.0,44.0,90.33359374999999,28.27,10.0549156875,33.5
2021-06-29 17:35:51.773437500,-44.75,-16.0,44.0,90.33414062499999,28.525,10.05471553125,33.5
2021-06-29 17:35:51.781250000,-45.0,-16.0,44.0,90.3346875,28.78,10.054515375,33.5
2021-06-29 17:35:51.789062500,-45.0,-16.0,43.75,90.335234375,28.595,10.05431521875,33.5
2021-06-29 17:35:51.796875000,-45.0,-16.0,43.5,90.33578125,28.41,10.0541150625,33.5
2021-06-29 17:35:51.804687500,-45.0,-16.0,43.25,90.336328125,27.560000000000002,10.05391490625,33.5
2021-06-29 17:35:51.812500000,-45.0,-16.0,43.0,90.33687499999999,26.71,10.05371475,33.5
2021-06-29 17:35:51.820312500,-45.0,-16.0,43.25,90.33742187499999,25.065,10.05351459375,33.5
2021-06-29 17:35:51.828125000,-45.0,-16.0,43.5,90.33796875,23.42,10.0533144375,33.5
2021-06-29 17:35:51.835937500,-45.0,-16.0,43.75,90.338515625,20.935000000000002,10.05311428125,33.5
2021-06-29 17:35:51.843750000,-45.0,-16.0,44.0,90.3390625,18.45,10.052914125,33.5
2021-06-29 17:35:51.851562500,-45.0,-16.0,43.75,90.339609375,15.239999999999998,10.05271396875,33.5
2021-06-29 17:35:51.859375000,-45.0,-16.0,43.5,90.34015624999999,12.03,10.052513812499999,33.5
2021-06-29 17:35:51.867187500,-45.0,-16.0,43.25,90.34070312499999,8.33,10.05231365625,33.5
2021-06-29 17:35:51.875000000,-45.0,-16.0,43.0,90.34125,4.63,10.0521135,33.5
2021-06-29 17:35:51.882812500,-45.0,-16.0,43.25,90.341796875,0.71,10.05191334375,33.5
2021-06-29 17:35:51.890625000,-45.0,-16.0,43.5,90.34234375,-3.21,10.0517131875,33.5
2021-06-29 17:35:51.898437500,-45.0,-16.0,43.75,90.342890625,-7.1,10.05151303125,33.5
2021-06-29 17:35:51.906250000,-45.0,-16.0,44.0,90.3434375,-10.99,10.051312875,33.5
2021-06-29 17:35:51.914062500,-45.0,-16.0,43.75,90.34398437499999,-14.73,10.05111271875,33.5
2021-06-29 17:35:51.921875000,-45.0,-16.0,43.5,90.34453124999999,-18.47,10.0509125625,33.5
2021-06-29 17:35:51.929687500,-45.0,-16.0,43.25,90.345078125,-22.095,10.05071240625,33.5
2021-06-29 17:35:51.937500000,-45.0,-16.0,43.0,90.345625,-25.72,10.05051225,33.5
2021-06-29 17:35:51.945312500,-45.0,-16.0,43.0,90.346171875,-29.435,10.05031209375,33.5
2021-06-29 17:35:51.953125000,-45.0,-16.0,43.0,90.34671875,-33.15,10.0501119375,33.5
2021-06-29 17:35:51.960937500,-45.0,-16.0,43.0,90.34726562499999,-37.31,10.04991178125,33.5
2021-06-29 17:35:51.968750000,-45.0,-16.0,43.0,90.34781249999999,-41.47,10.049711625,33.5
2021-06-29 17:35:51.976562500,-45.0,-16.0,43.25,90.348359375,-46.474999999999994,10.04951146875,33.5
2021-06-29 17:35:51.984375000,-45.0,-16.0,43.5,90.34890625,-51.48,10.0493113125,33.5
2021-06-29 17:35:51.992187500,-45.0,-16.0,43.75,90.349453125,-57.54,10.04911115625,33.5
2021-06-29 17:35:52.000000000,-45.0,-16.0,44.0,90.35,-63.6,10.048911,33.5
2021-06-29 17:35:52.007812500,-45.0,-16.0,43.75,90.35039062499999,-70.515,10.0477500625,33.5
2021-06-29 17:35:52.015625000,-45.0,-16.0,43.5,90.35078125,-77.43,10.046589125,33.5
2021-06-29 17:35:52.023437500,-45.0,-16.0,43.25,90.35117187499999,-84.375,10.0454281875,33.5
2021-06-29 17:35:52.031250000,-45.0,-16.0,43.0,90.3515625,-91.32,10.04426725,33.5
2021-06-29 17:35:52.039062500,-44.75,-16.0,43.0,90.351953125,-96.9,10.0431063125,33.5
2021-06-29 17:35:52.046875000,-44.5,-16.0,43.0,90.35234374999999,-102.48,10.041945375000001,33.5
2021-06-29 17:35:52.054687500,-44.25,-16.0,43.0,90.352734375,-105.065,10.040784437500001,33.5
2021-06-29 17:35:52.062500000,-44.0,-16.0,43.0,90.35312499999999,-107.65,10.039623500000001,33.5
2021-06-29 17:35:52.070312500,-44.25,-16.0,43.25,90.353515625,-105.9,10.0384625625,33.5
2021-06-29 17:35:52.078125000,-44.5,-16.0,43.5,90.35390625,-104.15,10.037301625,33.5
2021-06-29 17:35:52.085937500,-44.75,-16.0,43.75,90.35429687499999,-97.57,10.0361406875,33.5
2021-06-29 17:35:52.093750000,-45.0,-16.0,44.0,90.3546875,-90.99,10.03497975,33.5
2021-06-29 17:35:52.101562500,-45.0,-16.0,44.0,90.35507812499999,-80.18,10.0338188125,33.5
2021-06-29 17:35:52.109375000,-45.0,-16.0,44.0,90.35546875,-69.37,10.032657875,33.5
2021-06-29 17:35:52.117187500,-45.0,-16.0,44.0,90.355859375,-55.855000000000004,10.0314969375,33.5
2021-06-29 17:35:52.125000000,-45.0,-16.0,44.0,90.35624999999999,-42.34,10.030336,33.5
2021-06-29 17:35:52.132812500,-45.0,-16.0,44.0,90.356640625,-28.105,10.0291750625,33.5
2021-06-29 17:35:52.140625000,-45.0,-16.0,44.0,90.35703124999999,-13.87,10.028014125,33.5
2021-06-29 17:35:52.148437500,-45.0,-16.0,44.0,90.357421875,-0.7400000000000002,10.0268531875,33.5
2021-06-29 17:35:52.156250000,-45.0,-16.0,44.0,90.3578125,12.39,10.02569225,33.5
2021-06-29 17:35:52.164062500,-44.75,-16.0,43.75,90.358203125,23.195,10.0245313125,33.5
2021-06-29 17:35:52.171875000,-44.5,-16.0,43.5,90.35859375,34.0,10.023370375,33.5
2021-06-29 17:35:52.179687500,-44.25,-16.0,43.25,90.35898437499999,41.945,10.0222094375,33.5
2021-06-29 17:35:52.187500000,-44.0,-16.0,43.0,90.359375,49.89,10.0210485,33.5
2021-06-29 17:35:52.195312500,-44.25,-16.0,43.25,90.359765625,55.004999999999995,10.0198875625,33.5
2021-06-29 17:35:52.203125000,-44.5,-16.0,43.5,90.36015625,60.12,10.018726625,33.5
2021-06-29 17:35:52.210937500,-44.75,-16.0,43.75,90.360546875,62.709999999999994,10.0175656875,33.5
2021-06-29 17:35:52.218750000,-45.0,-16.0,44.0,90.36093749999999,65.3,10.01640475,33.5
2021-06-29 17:35:52.226562500,-45.0,-16.0,44.0,90.361328125,65.75999999999999,10.0152438125,33.5
2021-06-29 17:35:52.234375000,-45.0,-16.0,44.0,90.36171875,66.22,10.014082875,33.5
2021-06-29 17:35:52.242187500,-45.0,-16.0,44.0,90.362109375,64.98,10.0129219375,33.5
2021-06-29 17:35:52.250000000,-45.0,-16.0,44.0,90.3625,63.74,10.011761,33.5
2021-06-29 17:35:52.257812500,-45.0,-16.0,43.75,90.36289062499999,61.285,10.01180103125,33.5
2021-06-29 17:35:52.265625000,-45.0,-16.0,43.5,90.36328125,58.83,10.0118410625,33.5
2021-06-29 17:35:52.273437500,-45.0,-16.0,43.25,90.363671875,55.71,10.01188109375,33.5
2021-06-29 17:35:52.281250000,-45.0,-16.0,43.0,90.3640625,52.59,10.011921125,33.5
2021-06-29 17:35:52.289062500,-45.0,-16.0,43.25,90.364453125,49.38,10.01196115625,33.5
2021-06-29 17:35:52.296875000,-45.0,-16.0,43.5,90.36484374999999,46.17,10.0120011875,33.5
2021-06-29 17:35:52.304687500,-45.0,-16.0,43.75,90.365234375,43.33,10.01204121875,33.5
2021-06-29 17:35:52.312500000,-45.0,-16.0,44.0,90.365625,40.49,10.01208125,33.5
2021-06-29 17:35:52.320312500,-45.0,-16.0,43.75,90.366015625,38.285,10.01212128125,33.5
2021-06-29 17:35:52.328125000,-45.0,-16.0,43.5,90.36640625,36.08,10.0121613125,33.5
2021-06-29 17:35:52.335937500,-45.0,-16.0,43.25,90.36679687499999,34.565,10.01220134375,33.5
2021-06-29 17:35:52.343750000,-45.0,-16.0,43.0,90.3671875,33.05,10.012241375,33.5
2021-06-29 17:35:52.351562500,-45.0,-16.0,43.0,90.367578125,32.089999999999996,10.01228140625,33.5
2021-06-29 17:35:52.359375000,-45.0,-16.0,43.0,90.36796875,31.13,10.0123214375,33.5
2021-06-29 17:35:52.367187500,-45.0,-16.0,43.0,90.368359375,30.53,10.01236146875,33.5
2021-06-29 17:35:52.375000000,-45.0,-16.0,43.0,90.36875,29.93,10.0124015,33.5
2021-06-29 17:35:52.382812500,-45.0,-16.0,43.0,90.369140625,29.53,10.01244153125,33.5
2021-06-29 17:35:52.390625000,-45.0,-16.0,43.0,90.36953125,29.13,10.0124815625,33.5
2021-06-29 17:35:52.398437500,-45.0,-16.0,43.0,90.369921875,28.85,10.01252159375,33.5
2021-06-29 17:35:52.406250000,-45.0,-16.0,43.0,90.3703125,28.57,10.012561625,33.5
2021-06-29 17:35:52.414062500,-45.0,-16.0,43.25,90.370703125,28.37,10.01260165625,33.5
2021-06-29 17:35:52.421875000,-45.0,-16.0,43.5,90.37109375,28.17,10.0126416875,33.5
2021-06-29 17:35:52.429687500,-45.0,-16.0,43.75,90.371484375,27.98,10.01268171875,33.5
2021-06-29 17:35:52.437500000,-45.0,-16.0,44.0,90.371875,27.79,10.01272175,33.5
2021-06-29 17:35:52.445312500,-45.0,-16.0,44.0,90.372265625,27.45,10.012761781250001,33.5
2021-06-29 17:35:52.453125000,-45.0,-16.0,44.0,90.37265625,27.11,10.012801812500001,33.5
2021-06-29 17:35:52.460937500,-45.0,-16.0,44.0,90.373046875,26.38,10.01284184375,33.5
2021-06-29 17:35:52.468750000,-45.0,-16.0,44.0,90.3734375,25.65,10.012881875,33.5
