TimeStamp,empatica.acc.x,empatica.acc.y,empatica.acc.z,empatica.hr,empatica.bvp,empatica.eda,empatica.temp
2021-06-29 17:14:21.187500000,-44.0,-20.0,43.0,92.65,0.68,3.656688,33.97
2021-06-29 17:14:21.195312500,-44.0,-20.0,43.0,92.64875,-3.2199999999999998,3.656527875,33.97
2021-06-29 17:14:21.203125000,-44.0,-20.0,43.0,92.64750000000001,-7.12,3.65636775,33.97
2021-06-29 17:14:21.210937500,-44.0,-20.0,43.0,92.64625000000001,-10.97,3.656207625,33.97
2021-06-29 17:14:21.218750000,-44.0,-20.0,43.0,92.64500000000001,-14.82,3.6560474999999997,33.97
2021-06-29 17:14:21.226562500,-44.0,-20.0,43.0,92.64375000000001,-18.525,3.655887375,33.97
2021-06-29 17:14:21.234375000,-44.0,-20.0,43.0,92.6425,-22.23,3.65572725,33.97
2021-06-29 17:14:21.242187500,-44.0,-20.0,43.0,92.64125,-25.87,3.6555671249999997,33.97
2021-06-29 17:14:21.250000000,-44.0,-20.0,43.0,92.64,-29.51,3.655407,33.97
2021-06-29 17:14:21.257812500,-44.0,-20.0,43.0,92.63875,-33.32,3.6553269375,33.97
2021-06-29 17:14:21.265625000,-44.0,-20.0,43.0,92.6375,-37.13,3.655246875,33.97
2021-06-29 17:14:21.273437500,-44.0,-20.0,43.0,92.63625,-41.455,3.6551668125,33.97
2021-06-29 17:14:21.281250000,-44.0,-20.0,43.0,92.635,-45.78,3.6550867499999997,33.97
2021-06-29 17:14:21.289062500,-44.0,-20.0,43.0,92.63375,-50.96,3.6550066875,33.97
2021-06-29 17:14:21.296875000,-44.0,-20.0,43.0,92.63250000000001,-56.14,3.654926625,33.97
2021-06-29 17:14:21.304687500,-44.0,-20.0,43.0,92.63125000000001,-62.325,3.6548465625,33.97
2021-06-29 17:14:21.312500000,-44.0,-20.0,43.0,92.63000000000001,-68.51,3.6547665,33.97
2021-06-29 17:14:21.320312500,-44.0,-20.0,43.0,92.62875,-75.44,3.6546864375,33.97
2021-06-29 17:14:21.328125000,-44.0,-20.0,43.0,92.6275,-82.37,3.6546063749999997,33.97
2021-06-29 17:14:21.335937500,-44.0,-20.0,43.0,92.62625,-89.19,3.6545263125,33.97
2021-06-29 17:14:21.343750000,-44.0,-20.0,43.0,92.625,-96.01,3.65444625,33.97
2021-06-29 17:14:21.351562500,-44.0,-20.0,43.0,92.62375,-101.315,3.6543661875,33.97
2021-06-29 17:14:21.359375000,-44.0,-20.0,43.0,92.6225,-106.62,3.654286125,33.97
2021-06-29 17:14:21.367187500,-44.0,-20.0,43.0,92.62125,-108.755,3.6542060625,33.97
2021-06-29 17:14:21.375000000,-44.0,-20.0,43.0,92.62,-110.89,3.6541259999999998,33.97
2021-06-29 17:14:21.382812500,-44.0,-20.0,43.0,92.61875,-108.47999999999999,3.6540459375,33.97
2021-06-29 17:14:21.390625000,-44.0,-20.0,43.0,92.6175,-106.07,3.653965875,33.97
2021-06-29 17:14:21.398437500,-44.0,-20.0,43.0,92.61625000000001,-98.55,3.6538858125,33.97
2021-06-29 17:14:21.406250000,-44.0,-20.0,43.0,92.61500000000001,-91.03,3.65380575,33.97
2021-06-29 17:14:21.414062500,-44.0,-20.0,43.0,92.61375,-78.95,3.6537256875,33.97
2021-06-29 17:14:21.421875000,-44.0,-20.0,43.0,92.6125,-66.87,3.6536456250000002,33.97
2021-06-29 17:14:21.429687500,-44.0,-20.0,43.0,92.61125,-51.80500000000001,3.6535655625,33.97
2021-06-29 17:14:21.437500000,-44.0,-20.0,43.0,92.61,-36.74,3.6534855,33.97
2021-06-29 17:14:21.445312500,-44.0,-20.0,43.0,92.60875,-20.825000000000003,3.6534054375,33.97
2021-06-29 17:14:21.453125000,-44.0,-20.0,43.0,92.6075,-4.91,3.653325375,33.97
2021-06-29 17:14:21.460937500,-44.0,-20.0,43.0,92.60625,9.805,3.6532453125,33.97
2021-06-29 17:14:21.468750000,-44.0,-20.0,43.0,92.605,24.52,3.6531652500000003,33.97
2021-06-29 17:14:21.476562500,-44.0,-20.0,43.0,92.60375,36.575,3.6530851875,33.97
2021-06-29 17:14:21.484375000,-44.0,-20.0,43.0,92.6025,48.63,3.653005125,33.97
2021-06-29 17:14:21.492187500,-44.0,-20.0,43.0,92.60125000000001,57.375,3.6529250625,33.97
2021-06-29 17:14:21.500000000,-44.0,-20.0,43.0,92.6,66.12,3.652845,33.97
2021-06-29 17:14:21.507812500,-44.0,-20.0,43.0,92.59875,71.595,3.6526848750000003,33.97
2021-06-29 17:14:21.515625000,-44.0,-20.0,43.0,92.5975,77.07,3.65252475,33.97
2021-06-29 17:14:21.523437500,-44.0,-20.0,43.0,92.59625,79.705,3.652364625,33.97
2021-06-29 17:14:21.531250000,-44.0,-20.0,43.0,92.595,82.34,3.6522045000000003,33.97
2021-06-29 17:14:21.539062500,-44.0,-20.0,43.0,92.59375,82.68,3.652044375,33.97
2021-06-29 17:14:21.546875000,-44.0,-20.0,43.0,92.5925,83.02,3.65188425,33.97
2021-06-29 17:14:21.554687500,-44.0,-20.0,43.0,92.59125,81.555,3.6517241250000003,33.97
2021-06-29 17:14:21.562500000,-44.0,-20.0,43.0,92.59,80.09,3.651564,33.97
2021-06-29 17:14:21.570312500,-44.0,-20.0,43.0,92.58875,77.30000000000001,3.651403875,33.97
2021-06-29 17:14:21.578125000,-44.0,-20.0,43.0,92.5875,74.51,3.6512437500000003,33.97
2021-06-29 17:14:21.585937500,-44.0,-20.0,43.0,92.58625,70.85,3.651083625,33.97
2021-06-29 17:14:21.593750000,-44.0,-20.0,43.0,92.585,67.19,3.6509235,33.97
2021-06-29 17:14:21.601562500,-44.0,-20.0,43.0,92.58375,63.18,3.6507633750000004,33.97
2021-06-29 17:14:21.609375000,-44.0,-20.0,43.0,92.5825,59.17,3.65060325,33.97
2021-06-29 17:14:21.617187500,-44.0,-20.0,43.0,92.58125,55.31,3.6504431250000002,33.97
2021-06-29 17:14:21.625000000,-44.0,-20.0,43.0,92.58,51.45,3.650283,33.97
2021-06-29 17:14:21.632812500,-44.0,-20.0,43.0,92.57875,48.135000000000005,3.650122875,33.97
2021-06-29 17:14:21.640625000,-44.0,-20.0,43.0,92.5775,44.82,3.6499627500000003,33.97
2021-06-29 17:14:21.648437500,-44.0,-20.0,43.0,92.57625,42.269999999999996,3.649802625,33.97
2021-06-29 17:14:21.656250000,-44.0,-20.0,43.0,92.575,39.72,3.6496425,33.97
2021-06-29 17:14:21.664062500,-44.0,-20.0,43.0,92.57375,37.945,3.6494823750000003,33.97
2021-06-29 17:14:21.671875000,-44.0,-20.0,43.0,92.5725,36.17,3.64932225,33.97
2021-06-29 17:14:21.679687500,-44.0,-20.0,43.0,92.57125,35.025000000000006,3.649162125,33.97
2021-06-29 17:14:21.687500000,-44.0,-20.0,43.0,92.57,33.88,3.6490020000000003,33.97
2021-06-29 17:14:21.695312500,-44.0,-20.0,43.0,92.56875,33.175,3.648841875,33.97
2021-06-29 17:14:21.703125000,-44.0,-20.0,43.0,92.5675,32.47,3.64868175,33.97
2021-06-29 17:14:21.710937500,-44.0,-20.0,43.0,92.56625,32.045,3.6485216250000003,33.97
2021-06-29 17:14:21.718750000,-44.0,-20.0,43.0,92.565,31.62,3.6483615,33.97
2021-06-29 17:14:21.726562500,-44.0,-20.0,43.0,92.56375,31.375,3.648201375,33.97
2021-06-29 17:14:21.734375000,-44.0,-20.0,43.0,92.5625,31.13,3.6480412500000003,33.97
2021-06-29 17:14:21.742187500,-44.0,-20.0,43.0,92.56125,30.975,3.647881125,33.97
2021-06-29 17:14:21.750000000,-44.0,-20.0,43.0,92.56,30.82,3.647721,33.97
2021-06-29 17:14:21.757812500,-44.0,-20.0,43.0,92.55875,30.6,3.6480412500000003,33.97
2021-06-29 17:14:21.765625000,-44.0,-20.0,43.0,92.5575,30.38,3.6483615,33.97
2021-06-29 17:14:21.773437500,-44.0,-20.0,43.0,92.55624999999999,29.82,3.64868175,33.97
2021-06-29 17:14:21.781250000,-44.0,-20.0,43.0,92.55499999999999,29.26,3.6490020000000003,33.97
2021-06-29 17:14:21.789062500,-44.0,-20.0,43.0,92.55375,28.020000000000003,3.64932225,33.97
2021-06-29 17:14:21.796875000,-44.0,-20.0,43.0,92.5525,26.78,3.6496425,33.97
2021-06-29 17:14:21.804687500,-44.0,-20.0,43.0,92.55125,24.560000000000002,3.6499627500000003,33.97
2021-06-29 17:14:21.812500000,-44.0,-20.0,43.0,92.55,22.34,3.650283,33.97
2021-06-29 17:14:21.820312500,-44.0,-20.0,43.0,92.54875,19.045,3.65060325,33.97
2021-06-29 17:14:21.828125000,-44.0,-20.0,43.0,92.5475,15.75,3.6509235,33.97
2021-06-29 17:14:21.835937500,-44.0,-20.0,43.0,92.54625,11.55,3.6512437500000003,33.97
2021-06-29 17:14:21.843750000,-44.0,-20.0,43.0,92.545,7.35,3.651564,33.97
2021-06-29 17:14:21.851562500,-44.0,-20.0,43.0,92.54375,2.6500000000000004,3.65188425,33.97
2021-06-29 17:14:21.859375000,-44.0,-20.0,43.0,92.5425,-2.05,3.6522045000000003,33.97
2021-06-29 17:14:21.867187500,-44.0,-20.0,43.0,92.54124999999999,-6.7700000000000005,3.65252475,33.97
2021-06-29 17:14:21.875000000,-44.0,-20.0,43.0,92.53999999999999,-11.49,3.652845,33.97
2021-06-29 17:14:21.882812500,-44.0,-20.0,43.0,92.53875,-15.86,3.6531652500000003,33.97
2021-06-29 17:14:21.890625000,-44.0,-20.0,43.0,92.5375,-20.23,3.6534855,33.97
2021-06-29 17:14:21.898437500,-44.0,-20.0,43.0,92.53625,-24.16,3.65380575,33.97
2021-06-29 17:14:21.906250000,-44.0,-20.0,43.0,92.535,-28.09,3.654126,33.97
2021-06-29 17:14:21.914062500,-44.0,-20.25,43.0,92.53375,-31.78,3.65444625,33.97
2021-06-29 17:14:21.921875000,-44.0,-20.5,43.0,92.5325,-35.47,3.6547665,33.97
2021-06-29 17:14:21.929687500,-44.0,-20.75,43.0,92.53125,-39.34,3.65508675,33.97
2021-06-29 17:14:21.937500000,-44.0,-21.0,43.0,92.53,-43.21,3.6554070000000003,33.97
2021-06-29 17:14:21.945312500,-44.0,-20.75,43.0,92.52875,-47.765,3.65572725,33.97
2021-06-29 17:14:21.953125000,-44.0,-20.5,43.0,92.5275,-52.32,3.6560475,33.97
2021-06-29 17:14:21.960937500,-44.0,-20.25,43.0,92.52624999999999,-57.89,3.6563677500000002,33.97
2021-06-29 17:14:21.968750000,-44.0,-20.0,43.0,92.52499999999999,-63.46,3.656688,33.97
2021-06-29 17:14:21.976562500,-44.0,-20.0,43.0,92.52374999999999,-70.01,3.65700825,33.97
2021-06-29 17:14:21.984375000,-44.0,-20.0,43.0,92.5225,-76.56,3.6573285,33.97
2021-06-29 17:14:21.992187500,-44.0,-20.0,43.0,92.52125,-83.475,3.65764875,33.97
2021-06-29 17:14:22.000000000,-44.0,-20.0,43.0,92.52,-90.39,3.657969,33.97
2021-06-29 17:14:22.007812500,-44.0,-20.0,43.0,92.518828125,-96.47999999999999,3.65704825,33.9709375
2021-06-29 17:14:22.015625000,-44.0,-20.0,43.0,92.51765625,-102.57,3.6561275,33.971875
2021-06-29 17:14:22.023437500,-44.0,-20.0,43.0,92.51648437499999,-106.25,3.65520675,33.972812499999996
2021-06-29 17:14:22.031250000,-44.0,-20.0,43.0,92.5153125,-109.93,3.654286,33.973749999999995
2021-06-29 17:14:22.039062500,-44.0,-20.0,43.0,92.514140625,-109.69,3.6533652500000002,33.9746875
2021-06-29 17:14:22.046875000,-44.0,-20.0,43.0,92.51296875,-109.45,3.6524445,33.975625
2021-06-29 17:14:22.054687500,-44.0,-20.0,43.0,92.511796875,-104.36500000000001,3.65152375,33.9765625
2021-06-29 17:14:22.062500000,-44.0,-20.0,43.0,92.51062499999999,-99.28,3.6506030000000003,33.9775
2021-06-29 17:14:22.070312500,-44.0,-20.0,43.0,92.509453125,-89.445,3.64968225,33.9784375
2021-06-29 17:14:22.078125000,-44.0,-20.0,43.0,92.50828125,-79.61,3.6487615,33.979375
2021-06-29 17:14:22.085937500,-44.0,-20.0,43.0,92.507109375,-66.155,3.64784075,33.9803125
2021-06-29 17:14:22.093750000,-44.0,-20.0,43.0,92.5059375,-52.7,3.64692,33.98125
2021-06-29 17:14:22.101562500,-44.0,-20.0,43.0,92.50476562499999,-37.510000000000005,3.64599925,33.9821875
2021-06-29 17:14:22.109375000,-44.0,-20.0,43.0,92.50359375,-22.32,3.6450785,33.983125
2021-06-29 17:14:22.117187500,-44.0,-20.0,43.0,92.502421875,-7.4399999999999995,3.64415775,33.9840625
2021-06-29 17:14:22.125000000,-44.0,-20.0,43.0,92.50125,7.44,3.643237,33.985
2021-06-29 17:14:22.132812500,-44.0,-20.0,42.75,92.500078125,20.349999999999998,3.64231625,33.9859375
2021-06-29 17:14:22.140625000,-44.0,-20.0,42.5,92.49890624999999,33.26,3.6413955000000002,33.986875
2021-06-29 17:14:22.148437500,-44.0,-20.0,42.25,92.497734375,43.265,3.64047475,33.9878125
2021-06-29 17:14:22.156250000,-44.0,-20.0,42.0,92.4965625,53.27,3.639554,33.988749999999996
2021-06-29 17:14:22.164062500,-44.0,-20.0,42.25,92.495390625,60.120000000000005,3.6386332500000003,33.9896875
2021-06-29 17:14:22.171875000,-44.0,-20.0,42.5,92.49421875,66.97,3.6377125,33.990625
2021-06-29 17:14:22.179687500,-44.0,-20.0,42.75,92.493046875,70.895,3.63679175,33.9915625
2021-06-29 17:14:22.187500000,-44.0,-20.0,43.0,92.491875,74.82,3.635871,33.9925
2021-06-29 17:14:22.195312500,-44.0,-20.0,43.0,92.490703125,76.24,3.63495025,33.9934375
2021-06-29 17:14:22.203125000,-44.0,-20.0,43.0,92.48953125,77.66,3.6340295,33.994375
2021-06-29 17:14:22.210937500,-44.0,-20.0,43.0,92.488359375,76.99,3.63310875,33.9953125
2021-06-29 17:14:22.218750000,-44.0,-20.0,43.0,92.4871875,76.32,3.632188,33.99625
2021-06-29 17:14:22.226562500,-44.0,-20.0,43.0,92.486015625,73.99,3.63126725,33.9971875
2021-06-29 17:14:22.234375000,-44.0,-20.0,43.0,92.48484375,71.66,3.6303465,33.998125
2021-06-29 17:14:22.242187500,-44.0,-20.0,43.0,92.483671875,68.14,3.6294257500000002,33.9990625
2021-06-29 17:14:22.250000000,-44.0,-20.0,43.0,92.4825,64.62,3.628505,34.0
2021-06-29 17:14:22.257812500,-44.0,-20.0,43.0,92.481328125,60.5,3.62858509375,34.0
2021-06-29 17:14:22.265625000,-44.0,-20.0,43.0,92.48015625,56.38,3.6286651875000002,34.0
2021-06-29 17:14:22.273437500,-44.0,-20.0,43.0,92.478984375,52.28,3.62874528125,34.0
2021-06-29 17:14:22.281250000,-44.0,-20.0,43.0,92.4778125,48.18,3.628825375,34.0
2021-06-29 17:14:22.289062500,-44.0,-20.0,43.0,92.476640625,44.67,3.62890546875,34.0
2021-06-29 17:14:22.296875000,-44.0,-20.0,43.0,92.47546875,41.16,3.6289855625,34.0
2021-06-29 17:14:22.304687500,-44.0,-20.0,43.0,92.474296875,38.614999999999995,3.62906565625,34.0
2021-06-29 17:14:22.312500000,-44.0,-20.0,43.0,92.473125,36.07,3.62914575,34.0
2021-06-29 17:14:22.320312500,-44.0,-20.0,43.0,92.471953125,34.575,3.62922584375,34.0
2021-06-29 17:14:22.328125000,-44.0,-20.0,43.0,92.47078125,33.08,3.6293059375,34.0
2021-06-29 17:14:22.335937500,-44.0,-20.0,43.0,92.469609375,32.465,3.62938603125,34.0
2021-06-29 17:14:22.343750000,-44.0,-20.0,43.0,92.4684375,31.85,3.629466125,34.0
2021-06-29 17:14:22.351562500,-44.0,-20.0,43.0,92.467265625,31.775,3.62954621875,34.0
2021-06-29 17:14:22.359375000,-44.0,-20.0,43.0,92.46609375,31.7,3.6296263125,34.0
2021-06-29 17:14:22.367187500,-44.0,-20.0,43.0,92.464921875,31.814999999999998,3.62970640625,34.0
2021-06-29 17:14:22.375000000,-44.0,-20.0,43.0,92.46375,31.93,3.6297865,34.0
2021-06-29 17:14:22.382812500,-44.0,-20.0,42.75,92.462578125,31.975,3.62986659375,34.0
2021-06-29 17:14:22.390625000,-44.0,-20.0,42.5,92.46140625,32.02,3.6299466875,34.0
2021-06-29 17:14:22.398437500,-44.0,-20.0,42.25,92.460234375,31.865000000000002,3.6300267812500002,34.0
2021-06-29 17:14:22.406250000,-44.0,-20.0,42.0,92.4590625,31.71,3.630106875,34.0
2021-06-29 17:14:22.414062500,-44.0,-20.0,42.25,92.457890625,31.305,3.63018696875,34.0
2021-06-29 17:14:22.421875000,-44.0,-20.0,42.5,92.45671875,30.9,3.6302670625,34.0
2021-06-29 17:14:22.429687500,-44.0,-20.0,42.75,92.455546875,30.189999999999998,3.63034715625,34.0
2021-06-29 17:14:22.437500000,-44.0,-20.0,43.0,92.454375,29.48,3.63042725,34.0
2021-06-29 17:14:22.445312500,-44.0,-20.0,43.0,92.453203125,28.335,3.63050734375,34.0
2021-06-29 17:14:22.453125000,-44.0,-20.0,43.0,92.45203125,27.19,3.6305874375,34.0
2021-06-29 17:14:22.460937500,-44.0,-20.0,43.0,92.450859375,25.42,3.63066753125,34.0
2021-06-29 17:14:22.468750000,-44.0,-20.0,43.0,92.4496875,23.65,3.630747625,34.0
2021-06-29 17:14:22.476562500,-44.0,-20.0,43.0,92.448515625,21.134999999999998,3.63082771875,34.0
2021-06-29 17:14:22.484375000,-44.0,-20.0,43.0,92.44734375,18.62,3.6309078125,34.0
2021-06-29 17:14:22.492187500,-44.0,-20.0,43.0,92.446171875,15.34,3.63098790625,34.0
2021-06-29 17:14:22.500000000,-44.0,-20.0,43.0,92.445,12.06,3.631068,34.0
2021-06-29 17:14:22.507812500,-44.0,-20.0,43.0,92.443828125,8.2,3.63134821875,34.0
2021-06-29 17:14:22.515625000,-44.0,-20.0,43.0,92.44265625,4.34,3.6316284375,34.0
2021-06-29 17:14:22.523437500,-44.0,-20.0,43.0,92.441484375,0.22499999999999964,3.63190865625,34.0
2021-06-29 17:14:22.531250000,-44.0,-20.0,43.0,92.4403125,-3.89,3.6321888749999998,34.0
2021-06-29 17:14:22.539062500,-43.75,-20.0,43.0,92.43914062500001,-7.925000000000001,3.63246909375,34.0
2021-06-29 17:14:22.546875000,-43.5,-20.0,43.0,92.43796875,-11.96,3.6327493125,34.0
2021-06-29 17:14:22.554687500,-43.25,-20.0,43.0,92.436796875,-15.690000000000001,3.63302953125,34.0
2021-06-29 17:14:22.562500000,-43.0,-20.0,43.0,92.435625,-19.42,3.63330975,34.0
2021-06-29 17:14:22.570312500,-43.25,-20.25,43.0,92.434453125,-22.835,3.63358996875,34.0
2021-06-29 17:14:22.578125000,-43.5,-20.5,43.0,92.43328125000001,-26.25,3.6338701875,34.0
2021-06-29 17:14:22.585937500,-43.75,-20.75,43.0,92.432109375,-29.555,3.63415040625,34.0
2021-06-29 17:14:22.593750000,-44.0,-21.0,43.0,92.4309375,-32.86,3.6344306250000002,34.0
2021-06-29 17:14:22.601562500,-44.0,-20.75,43.0,92.429765625,-36.44,3.63471084375,34.0
2021-06-29 17:14:22.609375000,-44.0,-20.5,43.0,92.42859375,-40.02,3.6349910625,34.0
2021-06-29 17:14:22.617187500,-44.0,-20.25,43.0,92.42742187500001,-44.275000000000006,3.63527128125,34.0
2021-06-29 17:14:22.625000000,-44.0,-20.0,43.0,92.42625,-48.53,3.6355515,34.0
2021-06-29 17:14:22.632812500,-44.0,-20.0,43.0,92.425078125,-53.735,3.63583171875,34.0
2021-06-29 17:14:22.640625000,-44.0,-20.0,43.0,92.42390625,-58.94,3.6361119375,34.0
2021-06-29 17:14:22.648437500,-44.0,-20.0,43.0,92.422734375,-65.02,3.63639215625,34.0
2021-06-29 17:14:22.656250000,-44.0,-20.0,43.0,92.42156250000001,-71.1,3.636672375,34.0
2021-06-29 17:14:22.664062500,-44.0,-20.0,43.0,92.420390625,-77.455,3.6369525937500002,34.0
2021-06-29 17:14:22.671875000,-44.0,-20.0,43.0,92.41921875,-83.81,3.6372328125,34.0
2021-06-29 17:14:22.679687500,-44.0,-20.0,43.0,92.418046875,-89.32,3.63751303125,34.0
2021-06-29 17:14:22.687500000,-44.0,-20.0,43.0,92.416875,-94.83,3.63779325,34.0
2021-06-29 17:14:22.695312500,-44.0,-20.0,43.0,92.41570312500001,-98.035,3.63807346875,34.0
2021-06-29 17:14:22.703125000,-44.0,-20.0,43.0,92.41453125,-101.24,3.6383536875,34.0
2021-06-29 17:14:22.710937500,-44.0,-20.0,43.0,92.413359375,-100.765,3.63863390625,34.0
2021-06-29 17:14:22.718750000,-44.0,-20.0,43.0,92.4121875,-100.29,3.6389141250000003,34.0
2021-06-29 17:14:22.726562500,-44.0,-20.0,43.0,92.411015625,-95.345,3.6391943437500003,34.0
2021-06-29 17:14:22.734375000,-44.0,-20.0,43.0,92.40984375000001,-90.4,3.6394745625000002,34.0
2021-06-29 17:14:22.742187500,-44.0,-20.0,43.0,92.408671875,-81.1,3.63975478125,34.0
2021-06-29 17:14:22.750000000,-44.0,-20.0,43.0,92.4075,-71.8,3.640035,34.0
2021-06-29 17:14:22.757812500,-44.0,-20.0,43.0,92.406328125,-59.239999999999995,3.64047534375,34.0
2021-06-29 17:14:22.765625000,-44.0,-20.0,43.0,92.40515625,-46.68,3.6409156875,34.0
2021-06-29 17:14:22.773437500,-44.0,-20.0,43.0,92.40398437500001,-32.605000000000004,3.64135603125,34.0
2021-06-29 17:14:22.781250000,-44.0,-20.0,43.0,92.4028125,-18.53,3.641796375,34.0
2021-06-29 17:14:22.789062500,-44.0,-20.0,43.0,92.401640625,-4.824999999999999,3.64223671875,34.0
2021-06-29 17:14:22.796875000,-44.0,-20.0,43.0,92.40046875,8.88,3.6426770625000002,34.0
2021-06-29 17:14:22.804687500,-44.0,-20.0,43.0,92.399296875,20.695,3.64311740625,34.0
2021-06-29 17:14:22.812500000,-44.0,-20.0,43.0,92.39812500000001,32.51,3.6435577500000003,34.0
2021-06-29 17:14:22.820312500,-44.0,-20.0,43.0,92.396953125,41.565,3.64399809375,34.0
2021-06-29 17:14:22.828125000,-44.0,-20.0,43.0,92.39578125,50.62,3.6444384375000003,34.0
2021-06-29 17:14:22.835937500,-44.0,-20.0,43.0,92.394609375,56.69,3.64487878125,34.0
2021-06-29 17:14:22.843750000,-44.0,-20.0,43.0,92.3934375,62.76,3.6453191250000003,34.0
2021-06-29 17:14:22.851562500,-44.0,-20.25,43.0,92.39226562500001,66.05,3.64575946875,34.0
2021-06-29 17:14:22.859375000,-44.0,-20.5,43.0,92.39109375000001,69.34,3.6461998125000004,34.0
2021-06-29 17:14:22.867187500,-44.0,-20.75,43.0,92.389921875,70.215,3.64664015625,34.0
2021-06-29 17:14:22.875000000,-44.0,-21.0,43.0,92.38875,71.09,3.6470805000000004,34.0
2021-06-29 17:14:22.882812500,-44.0,-20.75,43.0,92.387578125,69.92,3.64752084375,34.0
2021-06-29 17:14:22.890625000,-44.0,-20.5,43.0,92.38640625000001,68.75,3.6479611875,34.0
2021-06-29 17:14:22.898437500,-44.0,-20.25,43.0,92.38523437500001,65.91,3.64840153125,34.0
2021-06-29 17:14:22.906250000,-44.0,-20.0,43.0,92.3840625,63.07,3.648841875,34.0
2021-06-29 17:14:22.914062500,-44.0,-20.0,43.0,92.382890625,58.995000000000005,3.6492822187500003,34.0
2021-06-29 17:14:22.921875000,-44.0,-20.0,43.0,92.38171875,54.92,3.6497225625,34.0
2021-06-29 17:14:22.929687500,-44.0,-20.0,43.0,92.38054687500001,50.18,3.6501629062500003,34.0
2021-06-29 17:14:22.937500000,-44.0,-20.0,43.0,92.37937500000001,45.44,3.65060325,34.0
2021-06-29 17:14:22.945312500,-44.0,-20.0,43.0,92.378203125,40.68,3.6510435937500003,34.0
2021-06-29 17:14:22.953125000,-44.0,-20.0,43.0,92.37703125,35.92,3.6514839375,34.0
2021-06-29 17:14:22.960937500,-44.0,-20.0,43.0,92.375859375,31.765,3.6519242812500003,34.0
2021-06-29 17:14:22.968750000,-44.0,-20.0,43.0,92.37468750000001,27.61,3.652364625,34.0
2021-06-29 17:14:22.976562500,-44.0,-20.0,43.0,92.37351562500001,24.494999999999997,3.6528049687500004,34.0
2021-06-29 17:14:22.984375000,-44.0,-20.0,43.0,92.37234375,21.38,3.6532453125,34.0
2021-06-29 17:14:22.992187500,-44.0,-20.0,43.0,92.371171875,19.494999999999997,3.6536856562500004,34.0
2021-06-29 17:14:23.000000000,-44.0,-20.0,43.0,92.37,17.61,3.654126,34.0
2021-06-29 17:14:23.007812500,-44.0,-20.0,43.0,92.36882812500001,16.875,3.6540459375000003,34.0
2021-06-29 17:14:23.015625000,-44.0,-20.0,43.0,92.36765625000001,16.14,3.6539658750000004,34.0
2021-06-29 17:14:23.023437500,-44.0,-20.0,43.0,92.366484375,16.28,3.6538858125,34.0
2021-06-29 17:14:23.031250000,-44.0,-20.0,43.0,92.3653125,16.42,3.65380575,34.0
2021-06-29 17:14:23.039062500,-44.0,-20.0,43.0,92.364140625,17.075000000000003,3.6537256875,34.0
2021-06-29 17:14:23.046875000,-44.0,-20.0,43.0,92.36296875000001,17.73,3.6536456250000002,34.0
2021-06-29 17:14:23.054687500,-44.0,-20.0,43.0,92.36179687500001,18.5,3.6535655625000003,34.0
2021-06-29 17:14:23.062500000,-44.0,-20.0,43.0,92.360625,19.27,3.6534855000000004,34.0
2021-06-29 17:14:23.070312500,-44.0,-20.0,43.0,92.359453125,19.810000000000002,3.6534054375,34.0
2021-06-29 17:14:23.078125000,-44.0,-20.0,43.0,92.35828125,20.35,3.653325375,34.0
2021-06-29 17:14:23.085937500,-44.0,-20.0,43.0,92.35710937500001,20.365000000000002,3.6532453125,34.0
2021-06-29 17:14:23.093750000,-44.0,-20.0,43.0,92.35593750000001,20.38,3.6531652500000003,34.0
2021-06-29 17:14:23.101562500,-44.0,-20.0,43.0,92.354765625,19.645,3.6530851875000003,34.0
2021-06-29 17:14:23.109375000,-44.0,-20.0,43.0,92.35359375,18.91,3.653005125,34.0
2021-06-29 17:14:23.117187500,-44.0,-20.0,43.0,92.352421875,17.305,3.6529250625,34.0
2021-06-29 17:14:23.125000000,-44.0,-20.0,43.0,92.35125000000001,15.7,3.652845,34.0
2021-06-29 17:14:23.132812500,-44.0,-20.0,43.0,92.35007812500001,13.25,3.6527649375,34.0
2021-06-29 17:14:23.140625000,-44.0,-20.0,43.0,92.34890625,10.8,3.6526848750000003,34.0
2021-06-29 17:14:23.148437500,-44.0,-20.0,43.0,92.347734375,7.6450000000000005,3.6526048125,34.0
2021-06-29 17:14:23.156250000,-44.0,-20.0,43.0,92.3465625,4.49,3.65252475,34.0
2021-06-29 17:14:23.164062500,-44.0,-20.0,43.0,92.34539062500001,0.8849999999999998,3.6524446875,34.0
2021-06-29 17:14:23.171875000,-44.0,-20.0,43.0,92.34421875000001,-2.72,3.652364625,34.0
2021-06-29 17:14:23.179687500,-44.0,-20.0,43.0,92.343046875,-6.48,3.6522845625,34.0
2021-06-29 17:14:23.187500000,-44.0,-20.0,43.0,92.341875,-10.24,3.6522045,34.0
2021-06-29 17:14:23.195312500,-44.0,-20.0,43.0,92.340703125,-13.920000000000002,3.6521244375,34.0
2021-06-29 17:14:23.203125000,-44.0,-20.0,43.0,92.33953125000001,-17.6,3.652044375,34.0
2021-06-29 17:14:23.210937500,-44.0,-20.0,43.0,92.33835937500001,-21.065,3.6519643125,34.0
2021-06-29 17:14:23.218750000,-44.0,-20.0,43.0,92.3371875,-24.53,3.65188425,34.0
2021-06-29 17:14:23.226562500,-44.0,-20.0,43.0,92.336015625,-27.805,3.6518041875000002,34.0
2021-06-29 17:14:23.234375000,-44.0,-20.0,43.0,92.33484375,-31.08,3.651724125,34.0
2021-06-29 17:14:23.242187500,-44.0,-20.0,43.0,92.33367187500001,-34.345,3.6516440625,34.0
2021-06-29 17:14:23.250000000,-44.0,-20.0,43.0,92.33250000000001,-37.61,3.651564,34.0
2021-06-29 17:14:23.257812500,-44.0,-20.0,43.0,92.331328125,-41.195,3.65232459375,34.0
2021-06-29 17:14:23.265625000,-44.0,-20.0,43.0,92.33015625,-44.78,3.6530851875,34.0
2021-06-29 17:14:23.273437500,-44.0,-20.0,43.0,92.328984375,-49.085,3.65384578125,34.0
2021-06-29 17:14:23.281250000,-44.0,-20.0,43.0,92.32781250000001,-53.39,3.654606375,34.0
2021-06-29 17:14:23.289062500,-44.0,-20.0,42.75,92.326640625,-58.69,3.65536696875,34.0
2021-06-29 17:14:23.296875000,-44.0,-20.0,42.5,92.32546875,-63.99,3.6561275625,34.0
2021-06-29 17:14:23.304687500,-44.0,-20.0,42.25,92.324296875,-70.165,3.65688815625,34.0
2021-06-29 17:14:23.312500000,-44.0,-20.0,42.0,92.323125,-76.34,3.65764875,34.0
2021-06-29 17:14:23.320312500,-44.0,-20.0,42.25,92.32195312500001,-82.67,3.65840934375,34.0
2021-06-29 17:14:23.328125000,-44.0,-20.0,42.5,92.32078125,-89.0,3.6591699375,34.0
2021-06-29 17:14:23.335937500,-44.0,-20.0,42.75,92.319609375,-94.185,3.65993053125,34.0
2021-06-29 17:14:23.343750000,-44.0,-20.0,43.0,92.3184375,-99.37,3.660691125,34.0
2021-06-29 17:14:23.351562500,-44.0,-20.0,43.0,92.317265625,-101.77000000000001,3.66145171875,34.0
2021-06-29 17:14:23.359375000,-44.0,-20.0,43.0,92.31609375000001,-104.17,3.6622123125,34.0
2021-06-29 17:14:23.367187500,-44.0,-20.0,43.0,92.314921875,-102.38499999999999,3.66297290625,34.0
2021-06-29 17:14:23.375000000,-44.0,-20.0,43.0,92.31375,-100.6,3.6637335,34.0
2021-06-29 17:14:23.382812500,-44.0,-20.0,43.0,92.312578125,-94.0,3.66449409375,34.0
2021-06-29 17:14:23.390625000,-44.0,-20.0,43.0,92.31140625,-87.4,3.6652546875,34.0
2021-06-29 17:14:23.398437500,-44.0,-20.0,43.0,92.31023437500001,-76.43,3.66601528125,34.0
2021-06-29 17:14:23.406250000,-44.0,-20.0,43.0,92.3090625,-65.46,3.666775875,34.0
2021-06-29 17:14:23.414062500,-44.0,-20.0,43.0,92.307890625,-51.565,3.66753646875,34.0
2021-06-29 17:14:23.421875000,-44.0,-20.0,43.0,92.30671875,-37.67,3.6682970624999998,34.0
2021-06-29 17:14:23.429687500,-44.0,-20.0,43.0,92.305546875,-22.85,3.66905765625,34.0
2021-06-29 17:14:23.437500000,-44.0,-20.0,43.0,92.30437500000001,-8.03,3.66981825,34.0
2021-06-29 17:14:23.445312500,-44.0,-20.0,43.0,92.303203125,5.775,3.67057884375,34.0
2021-06-29 17:14:23.453125000,-44.0,-20.0,43.0,92.30203125,19.58,3.6713394375,34.0
2021-06-29 17:14:23.460937500,-44.0,-20.0,43.0,92.300859375,30.96,3.67210003125,34.0
2021-06-29 17:14:23.468750000,-44.0,-20.0,43.0,92.2996875,42.34,3.6728606249999998,34.0
2021-06-29 17:14:23.476562500,-44.0,-20.0,43.0,92.29851562500001,50.615,3.67362121875,34.0
2021-06-29 17:14:23.484375000,-44.0,-20.0,43.0,92.29734375,58.89,3.6743818125,34.0
2021-06-29 17:14:23.492187500,-44.0,-20.0,43.0,92.296171875,64.015,3.67514240625,34.0
2021-06-29 17:14:23.500000000,-44.0,-20.0,43.0,92.295,69.14,3.675903,34.0
2021-06-29 17:14:23.507812500,-44.0,-20.0,43.0,92.293828125,71.44,3.676343375,34.0
2021-06-29 17:14:23.515625000,-44.0,-20.0,43.0,92.29265625000001,73.74,3.67678375,34.0
2021-06-29 17:14:23.523437500,-44.0,-20.0,43.0,92.291484375,73.66999999999999,3.677224125,34.0
2021-06-29 17:14:23.531250000,-44.0,-20.0,43.0,92.2903125,73.6,3.6776645,34.0
2021-06-29 17:14:23.539062500,-44.0,-20.0,43.0,92.289140625,71.63,3.678104875,34.0
2021-06-29 17:14:23.546875000,-44.0,-20.0,43.0,92.28796875,69.66,3.67854525,34.0
2021-06-29 17:14:23.554687500,-44.0,-20.0,43.0,92.28679687500001,66.28,3.678985625,34.0
2021-06-29 17:14:23.562500000,-44.0,-20.0,43.0,92.285625,62.9,3.679426,34.0
2021-06-29 17:14:23.570312500,-44.0,-20.0,43.0,92.284453125,58.65,3.679866375,34.0
2021-06-29 17:14:23.578125000,-44.0,-20.0,43.0,92.28328125,54.4,3.68030675,34.0
2021-06-29 17:14:23.585937500,-44.0,-20.0,43.0,92.282109375,49.894999999999996,3.680747125,34.0
2021-06-29 17:14:23.593750000,-44.0,-20.0,43.0,92.28093750000001,45.39,3.6811875,34.0
2021-06-29 17:14:23.601562500,-44.0,-20.0,43.0,92.279765625,41.235,3.681627875,34.0
2021-06-29 17:14:23.609375000,-44.0,-20.0,43.0,92.27859375,37.08,3.68206825,34.0
2021-06-29 17:14:23.617187500,-44.0,-20.0,43.0,92.277421875,33.735,3.682508625,34.0
2021-06-29 17:14:23.625000000,-44.0,-20.0,43.0,92.27625,30.39,3.682949,34.0
2021-06-29 17:14:23.632812500,-44.0,-20.0,43.0,92.27507812500001,28.12,3.683389375,34.0
2021-06-29 17:14:23.640625000,-44.0,-20.0,43.0,92.27390625,25.85,3.68382975,34.0
2021-06-29 17:14:23.648437500,-44.0,-20.0,43.0,92.272734375,24.625,3.684270125,34.0
2021-06-29 17:14:23.656250000,-44.0,-20.0,43.0,92.2715625,23.4,3.6847105,34.0
2021-06-29 17:14:23.664062500,-44.0,-20.0,43.0,92.270390625,23.0,3.685150875,34.0
2021-06-29 17:14:23.671875000,-44.0,-20.0,43.0,92.26921875000001,22.6,3.68559125,34.0
2021-06-29 17:14:23.679687500,-44.0,-20.0,43.0,92.268046875,22.695,3.686031625,34.0
2021-06-29 17:14:23.687500000,-44.0,-20.0,43.0,92.266875,22.79,3.686472,34.0
2021-06-29 17:14:23.695312500,-44.0,-20.0,43.0,92.265703125,23.1,3.686912375,34.0
2021-06-29 17:14:23.703125000,-44.0,-20.0,43.0,92.26453125,23.41,3.68735275,34.0
2021-06-29 17:14:23.710937500,-44.0,-20.0,43.0,92.26335937500001,23.735,3.6877931250000002,34.0
2021-06-29 17:14:23.718750000,-44.0,-20.0,43.0,92.2621875,24.06,3.6882335,34.0
2021-06-29 17:14:23.726562500,-44.0,-20.0,43.0,92.261015625,24.295,3.688673875,34.0
2021-06-29 17:14:23.734375000,-44.0,-20.0,43.0,92.25984375,24.53,3.6891142500000003,34.0
2021-06-29 17:14:23.742187500,-44.0,-20.0,43.0,92.258671875,24.53,3.689554625,34.0
2021-06-29 17:14:23.750000000,-44.0,-20.0,43.0,92.2575,24.53,3.689995,34.0
2021-06-29 17:14:23.757812500,-43.75,-20.0,43.0,92.256328125,24.08,3.69155621875,34.0
2021-06-29 17:14:23.765625000,-43.5,-20.0,43.0,92.25515625,23.63,3.6931174375,34.0
2021-06-29 17:14:23.773437500,-43.25,-20.0,43.0,92.253984375,22.445,3.6946786562500002,34.0
2021-06-29 17:14:23.781250000,-43.0,-20.0,43.0,92.2528125,21.26,3.6962398750000003,34.0
2021-06-29 17:14:23.789062500,-43.25,-20.0,42.75,92.251640625,19.090000000000003,3.6978010937500003,34.0
2021-06-29 17:14:23.796875000,-43.5,-20.0,42.5,92.25046875,16.92,3.6993623125,34.0
2021-06-29 17:14:23.804687500,-43.75,-20.0,42.25,92.249296875,13.690000000000001,3.70092353125,34.0
2021-06-29 17:14:23.812500000,-44.0,-20.0,42.0,92.248125,10.46,3.70248475,34.0
2021-06-29 17:14:23.820312500,-44.0,-20.25,42.25,92.246953125,6.375,3.70404596875,34.0
2021-06-29 17:14:23.828125000,-44.0,-20.5,42.5,92.24578125,2.29,3.7056071875,34.0
2021-06-29 17:14:23.835937500,-44.0,-20.75,42.75,92.244609375,-2.245,3.70716840625,34.0
2021-06-29 17:14:23.843750000,-44.0,-21.0,43.0,92.2434375,-6.78,3.708729625,34.0
2021-06-29 17:14:23.851562500,-44.0,-20.75,43.0,92.242265625,-11.274999999999999,3.71029084375,34.0
2021-06-29 17:14:23.859375000,-44.0,-20.5,43.0,92.24109375,-15.77,3.7118520625,34.0
2021-06-29 17:14:23.867187500,-44.0,-20.25,43.0,92.239921875,-19.84,3.7134132812500003,34.0
2021-06-29 17:14:23.875000000,-44.0,-20.0,43.0,92.23875,-23.91,3.7149745000000003,34.0
2021-06-29 17:14:23.882812500,-44.0,-20.25,43.0,92.237578125,-27.415,3.71653571875,34.0
2021-06-29 17:14:23.890625000,-44.0,-20.5,43.0,92.23640625,-30.92,3.7180969375,34.0
2021-06-29 17:14:23.898437500,-44.0,-20.75,43.0,92.235234375,-34.035,3.71965815625,34.0
2021-06-29 17:14:23.906250000,-44.0,-21.0,43.0,92.2340625,-37.15,3.721219375,34.0
2021-06-29 17:14:23.914062500,-44.0,-20.75,43.0,92.232890625,-40.275,3.72278059375,34.0
2021-06-29 17:14:23.921875000,-44.0,-20.5,43.0,92.23171875,-43.4,3.7243418125,34.0
2021-06-29 17:14:23.929687500,-44.0,-20.25,43.0,92.230546875,-47.09,3.72590303125,34.0
2021-06-29 17:14:23.937500000,-44.0,-20.0,43.0,92.229375,-50.78,3.72746425,34.0
2021-06-29 17:14:23.945312500,-44.0,-20.0,43.0,92.228203125,-55.53,3.72902546875,34.0
2021-06-29 17:14:23.953125000,-44.0,-20.0,43.0,92.22703125,-60.28,3.7305866875,34.0
2021-06-29 17:14:23.960937500,-44.0,-20.0,43.0,92.225859375,-66.275,3.73214790625,34.0
2021-06-29 17:14:23.968750000,-44.0,-20.0,43.0,92.2246875,-72.27,3.733709125,34.0
2021-06-29 17:14:23.976562500,-44.0,-20.0,43.0,92.223515625,-79.18,3.73527034375,34.0
2021-06-29 17:14:23.984375000,-44.0,-20.0,43.0,92.22234375,-86.09,3.7368315625,34.0
2021-06-29 17:14:23.992187500,-44.0,-20.0,43.0,92.221171875,-92.91,3.73839278125,34.0
2021-06-29 17:14:24.000000000,-44.0,-20.0,43.0,92.22,-99.73,3.739954,34.0
2021-06-29 17:14:24.007812500,-44.0,-20.0,43.0,92.21890625,-104.91,3.743717,33.9996875
2021-06-29 17:14:24.015625000,-44.0,-20.0,43.0,92.2178125,-110.09,3.74748,33.999375
2021-06-29 17:14:24.023437500,-44.0,-20.0,43.0,92.21671875,-111.935,3.751243,33.9990625
2021-06-29 17:14:24.031250000,-44.0,-20.0,43.0,92.215625,-113.78,3.755006,33.99875
2021-06-29 17:14:24.039062500,-44.0,-20.0,43.0,92.21453125,-110.995,3.758769,33.9984375
2021-06-29 17:14:24.046875000,-44.0,-20.0,43.0,92.2134375,-108.21,3.762532,33.998125
2021-06-29 17:14:24.054687500,-44.0,-20.0,43.0,92.21234375,-100.41999999999999,3.766295,33.9978125
2021-06-29 17:14:24.062500000,-44.0,-20.0,43.0,92.21124999999999,-92.63,3.770058,33.9975
2021-06-29 17:14:24.070312500,-44.0,-20.0,43.0,92.21015625,-80.58,3.773821,33.9971875
2021-06-29 17:14:24.078125000,-44.0,-20.0,43.0,92.2090625,-68.53,3.777584,33.996875
2021-06-29 17:14:24.085937500,-44.0,-20.0,43.0,92.20796874999999,-53.89,3.7813470000000002,33.9965625
2021-06-29 17:14:24.093750000,-44.0,-20.0,43.0,92.206875,-39.25,3.78511,33.99625
2021-06-29 17:14:24.101562500,-44.0,-20.0,43.0,92.20578125,-24.075,3.788873,33.995937500000004
2021-06-29 17:14:24.109375000,-44.0,-20.0,43.0,92.2046875,-8.9,3.792636,33.995625000000004
2021-06-29 17:14:24.117187500,-44.0,-20.0,43.0,92.20359375,4.979999999999999,3.796399,33.995312500000004
2021-06-29 17:14:24.125000000,-44.0,-20.0,43.0,92.2025,18.86,3.8001620000000003,33.995000000000005
2021-06-29 17:14:24.132812500,-44.0,-20.0,43.0,92.20140625,30.22,3.803925,33.9946875
2021-06-29 17:14:24.140625000,-44.0,-20.0,43.0,92.2003125,41.58,3.807688,33.994375
2021-06-29 17:14:24.148437500,-44.0,-20.0,43.0,92.19921875,49.965,3.811451,33.9940625
2021-06-29 17:14:24.156250000,-44.0,-20.0,43.0,92.198125,58.35,3.815214,33.99375
2021-06-29 17:14:24.164062500,-44.0,-20.0,43.0,92.19703125,63.82000000000001,3.818977,33.9934375
2021-06-29 17:14:24.171875000,-44.0,-20.0,43.0,92.1959375,69.29,3.82274,33.993125
2021-06-29 17:14:24.179687500,-44.0,-20.0,43.0,92.19484375,72.185,3.826503,33.9928125
2021-06-29 17:14:24.187500000,-44.0,-20.0,43.0,92.19375,75.08,3.830266,33.9925
2021-06-29 17:14:24.195312500,-44.0,-20.0,43.0,92.19265625,75.75,3.834029,33.9921875
2021-06-29 17:14:24.203125000,-44.0,-20.0,43.0,92.1915625,76.42,3.837792,33.991875
2021-06-29 17:14:24.210937500,-44.0,-20.0,43.0,92.19046875,75.205,3.841555,33.9915625
2021-06-29 17:14:24.218750000,-44.0,-20.0,43.0,92.189375,73.99,3.8453180000000002,33.99125
2021-06-29 17:14:24.226562500,-44.0,-20.0,43.0,92.18828125,71.305,3.849081,33.9909375
2021-06-29 17:14:24.234375000,-44.0,-20.0,43.0,92.1871875,68.62,3.852844,33.990625
2021-06-29 17:14:24.242187500,-44.0,-20.0,43.0,92.18609375,64.975,3.856607,33.9903125
2021-06-29 17:14:24.250000000,-44.0,-20.0,43.0,92.185,61.33,3.86037,33.99
2021-06-29 17:14:24.257812500,-44.0,-20.0,43.0,92.18390624999999,57.364999999999995,3.86413303125,33.99
2021-06-29 17:14:24.265625000,-44.0,-20.0,43.0,92.1828125,53.4,3.8678960625,33.99
2021-06-29 17:14:24.273437500,-44.0,-20.0,43.0,92.18171875,49.745000000000005,3.87165909375,33.99
2021-06-29 17:14:24.281250000,-44.0,-20.0,43.0,92.18062499999999,46.09,3.875422125,33.99
2021-06-29 17:14:24.289062500,-44.0,-20.0,43.0,92.17953125,43.185,3.87918515625,33.99
2021-06-29 17:14:24.296875000,-44.0,-20.0,43.0,92.1784375,40.28,3.8829481875000003,33.99
2021-06-29 17:14:24.304687500,-44.0,-20.0,43.0,92.17734375,38.295,3.88671121875,33.99
2021-06-29 17:14:24.312500000,-44.0,-20.0,43.0,92.17625,36.31,3.89047425,33.99
2021-06-29 17:14:24.320312500,-44.0,-20.0,43.0,92.17515625,35.120000000000005,3.89423728125,33.99
2021-06-29 17:14:24.328125000,-44.0,-20.0,43.0,92.1740625,33.93,3.8980003125,33.99
2021-06-29 17:14:24.335937500,-44.0,-20.0,43.0,92.17296875,33.25,3.90176334375,33.99
2021-06-29 17:14:24.343750000,-44.0,-20.0,43.0,92.171875,32.57,3.905526375,33.99
2021-06-29 17:14:24.351562500,-43.75,-20.0,43.0,92.17078125,32.105000000000004,3.90928940625,33.99
2021-06-29 17:14:24.359375000,-43.5,-20.0,43.0,92.1696875,31.64,3.9130524375,33.99
2021-06-29 17:14:24.367187500,-43.25,-20.0,43.0,92.16859375,31.259999999999998,3.91681546875,33.99
2021-06-29 17:14:24.375000000,-43.0,-20.0,43.0,92.1675,30.88,3.9205785,33.99
2021-06-29 17:14:24.382812500,-43.25,-20.0,43.0,92.16640625,30.595,3.92434153125,33.99
2021-06-29 17:14:24.390625000,-43.5,-20.0,43.0,92.1653125,30.31,3.9281045624999997,33.99
2021-06-29 17:14:24.398437500,-43.75,-20.0,43.0,92.16421875,30.185,3.93186759375,33.99
2021-06-29 17:14:24.406250000,-44.0,-20.0,43.0,92.163125,30.06,3.935630625,33.99
2021-06-29 17:14:24.414062500,-44.0,-20.0,43.0,92.16203125,30.064999999999998,3.93939365625,33.99
2021-06-29 17:14:24.421875000,-44.0,-20.0,43.0,92.1609375,30.07,3.9431566875,33.99
2021-06-29 17:14:24.429687500,-44.0,-20.0,43.0,92.15984375,29.965,3.94691971875,33.99
2021-06-29 17:14:24.437500000,-44.0,-20.0,43.0,92.15875,29.86,3.95068275,33.99
2021-06-29 17:14:24.445312500,-44.0,-20.0,43.0,92.15765625,29.240000000000002,3.95444578125,33.99
2021-06-29 17:14:24.453125000,-44.0,-20.0,43.0,92.15656249999999,28.62,3.9582088124999997,33.99
2021-06-29 17:14:24.460937500,-44.0,-20.0,43.0,92.15546875,27.045,3.9619718437499998,33.99
2021-06-29 17:14:24.468750000,-44.0,-20.0,43.0,92.154375,25.47,3.965734875,33.99
2021-06-29 17:14:24.476562500,-44.0,-20.0,43.0,92.15328124999999,22.67,3.96949790625,33.99
2021-06-29 17:14:24.484375000,-44.0,-20.0,43.0,92.1521875,19.87,3.9732609375,33.99
2021-06-29 17:14:24.492187500,-44.0,-20.0,43.0,92.15109375,15.905000000000001,3.9770239687499997,33.99
2021-06-29 17:14:24.500000000,-44.0,-20.0,43.0,92.15,11.94,3.980787,33.99
2021-06-29 17:14:24.507812500,-44.0,-20.0,43.0,92.14890625,7.185,3.9837093125,33.99
2021-06-29 17:14:24.515625000,-44.0,-20.0,43.0,92.1478125,2.43,3.986631625,33.99
2021-06-29 17:14:24.523437500,-44.0,-20.0,43.0,92.14671875,-2.53,3.9895539374999998,33.99
2021-06-29 17:14:24.531250000,-44.0,-20.0,43.0,92.145625,-7.49,3.9924762499999997,33.99
2021-06-29 17:14:24.539062500,-44.0,-20.0,43.0,92.14453125,-12.105,3.9953985624999997,33.99
2021-06-29 17:14:24.546875000,-44.0,-20.0,43.0,92.1434375,-16.72,3.998320875,33.99
2021-06-29 17:14:24.554687500,-44.0,-20.0,43.0,92.14234375,-20.66,4.0012431875,33.99
2021-06-29 17:14:24.562500000,-44.0,-20.0,43.0,92.14125,-24.6,4.0041655,33.99
2021-06-29 17:14:24.570312500,-44.0,-20.0,43.0,92.14015625,-27.86,4.0070878125,33.99
2021-06-29 17:14:24.578125000,-44.0,-20.0,43.0,92.1390625,-31.12,4.010010125,33.99
2021-06-29 17:14:24.585937500,-44.0,-20.0,43.0,92.13796875,-34.025,4.0129324375,33.99
2021-06-29 17:14:24.593750000,-44.0,-20.0,43.0,92.136875,-36.93,4.01585475,33.99
2021-06-29 17:14:24.601562500,-44.0,-20.0,43.0,92.13578125,-39.995000000000005,4.0187770625,33.99
2021-06-29 17:14:24.609375000,-44.0,-20.0,43.0,92.1346875,-43.06,4.021699375,33.99
2021-06-29 17:14:24.617187500,-44.0,-20.0,43.0,92.13359375,-46.855000000000004,4.0246216875,33.99
2021-06-29 17:14:24.625000000,-44.0,-20.0,43.0,92.1325,-50.65,4.027544,33.99
2021-06-29 17:14:24.632812500,-44.0,-20.0,43.0,92.13140625,-55.585,4.0304663125,33.99
2021-06-29 17:14:24.640625000,-44.0,-20.0,43.0,92.1303125,-60.52,4.033388625,33.99
2021-06-29 17:14:24.648437500,-44.0,-20.0,43.0,92.12921874999999,-66.62,4.0363109375,33.99
2021-06-29 17:14:24.656250000,-44.0,-20.0,43.0,92.128125,-72.72,4.03923325,33.99
2021-06-29 17:14:24.664062500,-44.0,-20.0,43.0,92.12703125,-79.47,4.0421555625,33.99
2021-06-29 17:14:24.671875000,-44.0,-20.0,43.0,92.12593749999999,-86.22,4.0450778750000005,33.99
2021-06-29 17:14:24.679687500,-44.0,-20.0,43.0,92.12484375,-92.495,4.0480001875000005,33.99
2021-06-29 17:14:24.687500000,-44.0,-20.0,43.0,92.12375,-98.77,4.0509225,33.99
2021-06-29 17:14:24.695312500,-44.0,-20.0,43.0,92.12265624999999,-103.015,4.0538448125,33.99
2021-06-29 17:14:24.703125000,-44.0,-20.0,43.0,92.1215625,-107.26,4.056767125,33.99
2021-06-29 17:14:24.710937500,-44.0,-20.0,43.0,92.12046875,-107.92500000000001,4.0596894375,33.99
2021-06-29 17:14:24.718750000,-44.0,-20.0,43.0,92.119375,-108.59,4.06261175,33.99
2021-06-29 17:14:24.726562500,-44.0,-20.0,43.0,92.11828125,-104.635,4.0655340625,33.99
2021-06-29 17:14:24.734375000,-44.0,-20.0,43.0,92.1171875,-100.68,4.068456375,33.99
2021-06-29 17:14:24.742187500,-44.0,-20.0,43.0,92.11609375,-91.995,4.0713786875,33.99
2021-06-29 17:14:24.750000000,-44.0,-20.0,43.0,92.115,-83.31,4.074301,33.99
2021-06-29 17:14:24.757812500,-44.0,-20.0,43.0,92.11390625,-70.85,4.07598234375,33.99
2021-06-29 17:14:24.765625000,-44.0,-20.0,43.0,92.1128125,-58.39,4.0776636875,33.99
2021-06-29 17:14:24.773437500,-44.0,-20.0,43.0,92.11171875,-43.894999999999996,4.07934503125,33.99
2021-06-29 17:14:24.781250000,-44.0,-20.0,43.0,92.110625,-29.4,4.081026375,33.99
2021-06-29 17:14:24.789062500,-44.0,-20.0,43.0,92.10953125,-14.86,4.08270771875,33.99
2021-06-29 17:14:24.796875000,-44.0,-20.0,43.0,92.1084375,-0.32,4.0843890625000006,33.99
2021-06-29 17:14:24.804687500,-44.0,-20.0,43.0,92.10734375,12.555,4.08607040625,33.99
2021-06-29 17:14:24.812500000,-44.0,-20.0,43.0,92.10625,25.43,4.087751750000001,33.99
2021-06-29 17:14:24.820312500,-44.0,-20.0,43.0,92.10515625,35.595,4.08943309375,33.99
2021-06-29 17:14:24.828125000,-44.0,-20.0,43.0,92.1040625,45.76,4.0911144375,33.99
2021-06-29 17:14:24.835937500,-44.0,-20.0,43.0,92.10296875,52.849999999999994,4.09279578125,33.99
2021-06-29 17:14:24.843750000,-44.0,-20.0,43.0,92.10187499999999,59.94,4.094477125,33.99
2021-06-29 17:14:24.851562500,-44.0,-20.0,43.0,92.10078125,64.1,4.096158468750001,33.99
2021-06-29 17:14:24.859375000,-44.0,-20.0,43.0,92.0996875,68.26,4.0978398125,33.99
2021-06-29 17:14:24.867187500,-44.0,-20.0,43.0,92.09859374999999,69.88,4.099521156250001,33.99
2021-06-29 17:14:24.875000000,-44.0,-20.0,43.0,92.0975,71.5,4.1012025,33.99
2021-06-29 17:14:24.882812500,-44.0,-20.0,42.75,92.09640625,71.05,4.10288384375,33.99
2021-06-29 17:14:24.890625000,-44.0,-20.0,42.5,92.09531249999999,70.6,4.1045651875,33.99
2021-06-29 17:14:24.898437500,-44.0,-20.0,42.25,92.09421875,68.53999999999999,4.10624653125,33.99
2021-06-29 17:14:24.906250000,-44.0,-20.0,42.0,92.093125,66.48,4.107927875000001,33.99
2021-06-29 17:14:24.914062500,-44.0,-20.0,42.25,92.09203125,63.30500000000001,4.10960921875,33.99
2021-06-29 17:14:24.921875000,-44.0,-20.0,42.5,92.0909375,60.13,4.111290562500001,33.99
2021-06-29 17:14:24.929687500,-44.0,-20.0,42.75,92.08984375,56.335,4.11297190625,33.99
2021-06-29 17:14:24.937500000,-44.0,-20.0,43.0,92.08875,52.54,4.11465325,33.99
2021-06-29 17:14:24.945312500,-44.0,-20.0,43.0,92.08765625,48.629999999999995,4.11633459375,33.99
2021-06-29 17:14:24.953125000,-44.0,-20.0,43.0,92.0865625,44.72,4.1180159375,33.99
2021-06-29 17:14:24.960937500,-44.0,-20.0,43.0,92.08546875,41.15,4.119697281250001,33.99
2021-06-29 17:14:24.968750000,-44.0,-20.0,43.0,92.084375,37.58,4.121378625,33.99
2021-06-29 17:14:24.976562500,-44.0,-20.0,43.0,92.08328125,34.675,4.123059968750001,33.99
2021-06-29 17:14:24.984375000,-44.0,-20.0,43.0,92.0821875,31.77,4.1247413125,33.99
2021-06-29 17:14:24.992187500,-44.0,-20.0,43.0,92.08109375,29.71,4.126422656250001,33.99
2021-06-29 17:14:25.000000000,-44.0,-20.0,43.0,92.08,27.65,4.128104,33.99
2021-06-29 17:14:25.007812500,-44.0,-20.0,43.0,92.079140625,26.475,4.12866446875,33.99
2021-06-29 17:14:25.015625000,-44.0,-20.0,43.0,92.07828125,25.3,4.1292249375,33.99
2021-06-29 17:14:25.023437500,-44.0,-20.0,43.0,92.077421875,24.87,4.129785406250001,33.99
2021-06-29 17:14:25.031250000,-44.0,-20.0,43.0,92.0765625,24.44,4.130345875000001,33.99
2021-06-29 17:14:25.039062500,-44.0,-20.0,43.0,92.075703125,24.560000000000002,4.13090634375,33.99
2021-06-29 17:14:25.046875000,-44.0,-20.0,43.0,92.07484375,24.68,4.1314668125,33.99
2021-06-29 17:14:25.054687500,-44.0,-20.0,43.0,92.073984375,25.075,4.13202728125,33.99
2021-06-29 17:14:25.062500000,-44.0,-20.0,43.0,92.073125,25.47,4.132587750000001,33.99
2021-06-29 17:14:25.070312500,-44.0,-20.0,43.0,92.072265625,25.869999999999997,4.133148218750001,33.99
2021-06-29 17:14:25.078125000,-44.0,-20.0,43.0,92.07140625,26.27,4.1337086875,33.99
2021-06-29 17:14:25.085937500,-44.0,-20.0,43.0,92.070546875,26.455,4.13426915625,33.99
2021-06-29 17:14:25.093750000,-44.0,-20.0,43.0,92.0696875,26.64,4.134829625,33.99
2021-06-29 17:14:25.101562500,-44.0,-20.0,43.0,92.068828125,26.405,4.13539009375,33.99
2021-06-29 17:14:25.109375000,-44.0,-20.0,43.0,92.06796874999999,26.17,4.135950562500001,33.99
2021-06-29 17:14:25.117187500,-44.0,-20.0,43.0,92.067109375,25.35,4.13651103125,33.99
2021-06-29 17:14:25.125000000,-44.0,-20.0,43.0,92.06625,24.53,4.1370715,33.99
2021-06-29 17:14:25.132812500,-44.0,-20.0,43.0,92.06539062499999,22.995,4.13763196875,33.99
2021-06-29 17:14:25.140625000,-44.0,-20.0,43.0,92.06453125,21.46,4.1381924375,33.99
2021-06-29 17:14:25.148437500,-44.0,-20.0,43.0,92.063671875,19.12,4.138752906250001,33.99
2021-06-29 17:14:25.156250000,-44.0,-20.0,43.0,92.06281249999999,16.78,4.139313375,33.99
2021-06-29 17:14:25.164062500,-44.0,-20.0,43.0,92.061953125,13.65,4.13987384375,33.99
2021-06-29 17:14:25.171875000,-44.0,-20.0,43.0,92.06109375,10.52,4.1404343125,33.99
2021-06-29 17:14:25.179687500,-44.0,-20.0,43.0,92.060234375,6.77,4.14099478125,33.99
2021-06-29 17:14:25.187500000,-44.0,-20.0,43.0,92.059375,3.02,4.14155525,33.99
2021-06-29 17:14:25.195312500,-44.0,-20.0,43.0,92.058515625,-1.0749999999999997,4.14211571875,33.99
2021-06-29 17:14:25.203125000,-44.0,-20.0,43.0,92.05765625,-5.17,4.1426761875,33.99
2021-06-29 17:14:25.210937500,-44.0,-20.0,43.0,92.056796875,-9.254999999999999,4.14323665625,33.99
2021-06-29 17:14:25.218750000,-44.0,-20.0,43.0,92.0559375,-13.34,4.143797125,33.99
2021-06-29 17:14:25.226562500,-44.0,-20.0,43.0,92.055078125,-17.145,4.14435759375,33.99
2021-06-29 17:14:25.234375000,-44.0,-20.0,43.0,92.05421875,-20.95,4.1449180625,33.99
2021-06-29 17:14:25.242187500,-44.0,-20.0,43.0,92.053359375,-24.4,4.14547853125,33.99
2021-06-29 17:14:25.250000000,-44.0,-20.0,43.0,92.0525,-27.85,4.146039,33.99
2021-06-29 17:14:25.257812500,-44.0,-20.0,43.0,92.051640625,-31.145,4.14539846875,33.99
2021-06-29 17:14:25.265625000,-44.0,-20.0,43.0,92.05078125,-34.44,4.1447579375,33.99
2021-06-29 17:14:25.273437500,-44.0,-20.0,43.0,92.049921875,-37.995,4.14411740625,33.99
2021-06-29 17:14:25.281250000,-44.0,-20.0,43.0,92.0490625,-41.55,4.143476875,33.99
2021-06-29 17:14:25.289062500,-44.0,-20.0,43.0,92.048203125,-45.845,4.14283634375,33.99
2021-06-29 17:14:25.296875000,-44.0,-20.0,43.0,92.04734375,-50.14,4.1421958125,33.99
2021-06-29 17:14:25.304687500,-44.0,-20.0,43.0,92.04648437499999,-55.455,4.1415552812500005,33.99
2021-06-29 17:14:25.312500000,-44.0,-20.0,43.0,92.045625,-60.77,4.14091475,33.99
2021-06-29 17:14:25.320312500,-44.0,-20.0,43.0,92.044765625,-66.865,4.14027421875,33.99
2021-06-29 17:14:25.328125000,-44.0,-20.0,43.0,92.04390624999999,-72.96,4.1396336875,33.99
2021-06-29 17:14:25.335937500,-44.0,-20.0,43.0,92.043046875,-78.975,4.13899315625,33.99
2021-06-29 17:14:25.343750000,-44.0,-20.0,43.0,92.0421875,-84.99,4.1383526250000005,33.99
2021-06-29 17:14:25.351562500,-44.0,-20.0,43.0,92.04132812499999,-89.525,4.13771209375,33.99
2021-06-29 17:14:25.359375000,-44.0,-20.0,43.0,92.04046875,-94.06,4.1370715625,33.99
2021-06-29 17:14:25.367187500,-44.0,-20.0,43.0,92.039609375,-95.56,4.13643103125,33.99
2021-06-29 17:14:25.375000000,-44.0,-20.0,43.0,92.03875,-97.06,4.135790500000001,33.99
2021-06-29 17:14:25.382812500,-44.0,-20.0,43.0,92.037890625,-94.33500000000001,4.13514996875,33.99
2021-06-29 17:14:25.390625000,-44.0,-20.0,43.0,92.03703125,-91.61,4.1345094375,33.99
2021-06-29 17:14:25.398437500,-44.0,-20.0,43.0,92.036171875,-84.33500000000001,4.13386890625,33.99
2021-06-29 17:14:25.406250000,-44.0,-20.0,43.0,92.0353125,-77.06,4.133228375,33.99
2021-06-29 17:14:25.414062500,-44.0,-20.0,43.0,92.034453125,-65.92,4.1325878437500005,33.99
2021-06-29 17:14:25.421875000,-44.0,-20.0,43.0,92.03359375,-54.78,4.1319473125,33.99
2021-06-29 17:14:25.429687500,-44.0,-20.0,43.0,92.032734375,-41.325,4.13130678125,33.99
2021-06-29 17:14:25.437500000,-44.0,-20.0,43.0,92.031875,-27.87,4.13066625,33.99
2021-06-29 17:14:25.445312500,-44.0,-20.0,43.0,92.031015625,-14.005,4.13002571875,33.99
2021-06-29 17:14:25.453125000,-44.0,-20.0,43.0,92.03015625,-0.14,4.1293851875000005,33.99
2021-06-29 17:14:25.460937500,-44.0,-20.0,43.0,92.029296875,12.39,4.12874465625,33.99
2021-06-29 17:14:25.468750000,-44.0,-20.0,43.0,92.0284375,24.92,4.128104125,33.99
2021-06-29 17:14:25.476562500,-44.0,-20.0,43.0,92.027578125,34.97,4.12746359375,33.99
2021-06-29 17:14:25.484375000,-44.0,-20.0,43.0,92.02671875,45.02,4.126823062500001,33.99
2021-06-29 17:14:25.492187500,-44.0,-20.0,43.0,92.025859375,52.120000000000005,4.1261825312500005,33.99
2021-06-29 17:14:25.500000000,-44.0,-20.0,43.0,92.025,59.22,4.125542,33.99
2021-06-29 17:14:25.507812500,-44.0,-20.0,43.0,92.024140625,63.455,4.12486146875,33.99
2021-06-29 17:14:25.515625000,-44.0,-20.0,43.0,92.02328125,67.69,4.1241809375,33.99
2021-06-29 17:14:25.523437500,-44.0,-20.0,43.0,92.02242187499999,69.41499999999999,4.123500406250001,33.99
2021-06-29 17:14:25.531250000,-44.0,-20.0,43.0,92.0215625,71.14,4.122819875,33.99
2021-06-29 17:14:25.539062500,-44.0,-20.0,43.0,92.020703125,70.75999999999999,4.12213934375,33.99
2021-06-29 17:14:25.546875000,-44.0,-20.0,43.0,92.01984374999999,70.38,4.1214588125,33.99
2021-06-29 17:14:25.554687500,-44.0,-20.0,43.0,92.018984375,68.265,4.120778281250001,33.99
2021-06-29 17:14:25.562500000,-44.0,-20.0,43.0,92.018125,66.15,4.12009775,33.99
2021-06-29 17:14:25.570312500,-44.0,-20.0,43.0,92.017265625,62.67,4.11941721875,33.99
2021-06-29 17:14:25.578125000,-44.0,-20.0,43.0,92.01640625,59.19,4.1187366875,33.99
2021-06-29 17:14:25.585937500,-44.0,-20.0,43.0,92.015546875,54.805,4.118056156250001,33.99
2021-06-29 17:14:25.593750000,-44.0,-20.0,43.0,92.0146875,50.42,4.117375625,33.99
2021-06-29 17:14:25.601562500,-43.75,-20.0,43.0,92.013828125,45.685,4.11669509375,33.99
2021-06-29 17:14:25.609375000,-43.5,-20.0,43.0,92.01296875,40.95,4.1160145625,33.99
2021-06-29 17:14:25.617187500,-43.25,-20.0,43.0,92.012109375,36.480000000000004,4.115334031250001,33.99
2021-06-29 17:14:25.625000000,-43.0,-20.0,43.0,92.01125,32.01,4.1146535,33.99
2021-06-29 17:14:25.632812500,-43.25,-20.0,43.0,92.010390625,28.335,4.11397296875,33.99
2021-06-29 17:14:25.640625000,-43.5,-20.0,43.0,92.00953125,24.66,4.1132924375,33.99
2021-06-29 17:14:25.648437500,-43.75,-20.0,43.0,92.008671875,22.130000000000003,4.112611906250001,33.99
2021-06-29 17:14:25.656250000,-44.0,-20.0,43.0,92.0078125,19.6,4.111931375,33.99
2021-06-29 17:14:25.664062500,-44.0,-20.0,43.0,92.006953125,18.28,4.11125084375,33.99
2021-06-29 17:14:25.671875000,-44.0,-20.0,43.0,92.00609375,16.96,4.1105703125,33.99
2021-06-29 17:14:25.679687500,-44.0,-20.0,43.0,92.005234375,16.67,4.109889781250001,33.99
2021-06-29 17:14:25.687500000,-44.0,-20.0,43.0,92.004375,16.38,4.10920925,33.99
2021-06-29 17:14:25.695312500,-44.0,-20.25,43.0,92.003515625,16.77,4.10852871875,33.99
2021-06-29 17:14:25.703125000,-44.0,-20.5,43.0,92.00265625,17.16,4.1078481875,33.99
2021-06-29 17:14:25.710937500,-44.0,-20.75,43.0,92.001796875,17.825,4.107167656250001,33.99
2021-06-29 17:14:25.718750000,-44.0,-21.0,43.0,92.00093749999999,18.49,4.106487125,33.99
2021-06-29 17:14:25.726562500,-44.0,-20.75,43.0,92.000078125,19.06,4.10580659375,33.99
2021-06-29 17:14:25.734375000,-44.0,-20.5,43.0,91.99921875,19.63,4.1051260625,33.99
2021-06-29 17:14:25.742187500,-44.0,-20.25,43.0,91.99835937499999,19.805,4.104445531250001,33.99
2021-06-29 17:14:25.750000000,-44.0,-20.0,43.0,91.9975,19.98,4.103765,33.99
2021-06-29 17:14:25.757812500,-44.0,-20.0,43.0,91.996640625,19.515,4.10216371875,33.99
2021-06-29 17:14:25.765625000,-44.0,-20.0,43.0,91.99578125,19.05,4.1005624375,33.99
2021-06-29 17:14:25.773437500,-44.0,-20.0,43.0,91.994921875,17.765,4.09896115625,33.99
2021-06-29 17:14:25.781250000,-44.0,-20.0,43.0,91.9940625,16.48,4.097359875,33.99
2021-06-29 17:14:25.789062500,-44.0,-20.0,43.0,91.993203125,14.285,4.09575859375,33.99
2021-06-29 17:14:25.796875000,-44.0,-20.0,43.0,91.99234375,12.09,4.0941573125,33.99
2021-06-29 17:14:25.804687500,-44.0,-20.0,43.0,91.991484375,9.0,4.09255603125,33.99
2021-06-29 17:14:25.812500000,-44.0,-20.0,43.0,91.990625,5.91,4.09095475,33.99
2021-06-29 17:14:25.820312500,-44.0,-20.0,43.0,91.989765625,2.115,4.08935346875,33.99
2021-06-29 17:14:25.828125000,-44.0,-20.0,43.0,91.98890625,-1.68,4.0877521875000005,33.99
2021-06-29 17:14:25.835937500,-44.0,-20.0,43.0,91.988046875,-5.875,4.08615090625,33.99
2021-06-29 17:14:25.843750000,-44.0,-20.0,43.0,91.9871875,-10.07,4.084549625,33.99
2021-06-29 17:14:25.851562500,-43.75,-20.0,43.0,91.986328125,-14.28,4.08294834375,33.99
2021-06-29 17:14:25.859375000,-43.5,-20.0,43.0,91.98546875,-18.49,4.0813470625,33.99
2021-06-29 17:14:25.867187500,-43.25,-20.0,43.0,91.984609375,-22.42,4.07974578125,33.99
2021-06-29 17:14:25.875000000,-43.0,-20.0,43.0,91.98375,-26.35,4.0781445000000005,33.99
2021-06-29 17:14:25.882812500,-43.25,-20.0,43.0,91.982890625,-29.885,4.07654321875,33.99
2021-06-29 17:14:25.890625000,-43.5,-20.0,43.0,91.98203125,-33.42,4.0749419375,33.99
2021-06-29 17:14:25.898437500,-43.75,-20.0,43.0,91.981171875,-36.730000000000004,4.07334065625,33.99
2021-06-29 17:14:25.906250000,-44.0,-20.0,43.0,91.9803125,-40.04,4.071739375,33.99
2021-06-29 17:14:25.914062500,-44.0,-20.0,43.0,91.97945312499999,-43.535,4.07013809375,33.99
2021-06-29 17:14:25.921875000,-44.0,-20.0,43.0,91.97859375,-47.03,4.0685368125,33.99
2021-06-29 17:14:25.929687500,-44.0,-20.0,43.0,91.977734375,-51.265,4.06693553125,33.99
2021-06-29 17:14:25.937500000,-44.0,-20.0,43.0,91.97687499999999,-55.5,4.06533425,33.99
2021-06-29 17:14:25.945312500,-44.0,-20.0,43.0,91.976015625,-60.9,4.06373296875,33.99
2021-06-29 17:14:25.953125000,-44.0,-20.0,43.0,91.97515625,-66.3,4.0621316875,33.99
2021-06-29 17:14:25.960937500,-44.0,-20.0,43.0,91.974296875,-72.89,4.06053040625,33.99
2021-06-29 17:14:25.968750000,-44.0,-20.0,43.0,91.9734375,-79.48,4.058929125,33.99
2021-06-29 17:14:25.976562500,-44.0,-20.0,43.0,91.972578125,-86.65,4.05732784375,33.99
2021-06-29 17:14:25.984375000,-44.0,-20.0,43.0,91.97171875,-93.82,4.0557265625,33.99
2021-06-29 17:14:25.992187500,-44.0,-20.0,43.0,91.970859375,-100.27,4.05412528125,33.99
2021-06-29 17:14:26.000000000,-44.0,-20.0,43.0,91.97,-106.72,4.052524,33.99
2021-06-29 17:14:26.007812500,-44.0,-20.0,43.0,91.96906249999999,-110.74000000000001,4.0513630625,33.99
2021-06-29 17:14:26.015625000,-44.0,-20.0,43.0,91.968125,-114.76,4.050202125,33.99
2021-06-29 17:14:26.023437500,-44.0,-20.0,43.0,91.9671875,-114.70500000000001,4.0490411875,33.99
2021-06-29 17:14:26.031250000,-44.0,-20.0,43.0,91.96625,-114.65,4.04788025,33.99
2021-06-29 17:14:26.039062500,-44.0,-20.0,43.0,91.9653125,-109.54,4.0467193125000005,33.99
2021-06-29 17:14:26.046875000,-44.0,-20.0,43.0,91.964375,-104.43,4.045558375,33.99
2021-06-29 17:14:26.054687500,-44.0,-20.0,43.0,91.9634375,-94.38,4.0443974375,33.99
2021-06-29 17:14:26.062500000,-44.0,-20.0,43.0,91.9625,-84.33,4.0432365,33.99
2021-06-29 17:14:26.070312500,-44.0,-20.0,43.0,91.9615625,-70.555,4.0420755625,33.99
2021-06-29 17:14:26.078125000,-44.0,-20.0,43.0,91.960625,-56.78,4.040914625,33.99
2021-06-29 17:14:26.085937500,-44.0,-20.0,43.0,91.9596875,-41.245000000000005,4.0397536875,33.99
2021-06-29 17:14:26.093750000,-44.0,-20.0,43.0,91.95875,-25.71,4.03859275,33.99
2021-06-29 17:14:26.101562500,-44.0,-20.0,43.0,91.9578125,-10.515,4.0374318125,33.99
2021-06-29 17:14:26.109375000,-44.0,-20.0,43.0,91.956875,4.68,4.0362708750000005,33.99
2021-06-29 17:14:26.117187500,-44.0,-20.0,43.0,91.9559375,17.875,4.035109937500001,33.99
2021-06-29 17:14:26.125000000,-44.0,-20.0,43.0,91.955,31.07,4.033949,33.99
2021-06-29 17:14:26.132812500,-44.0,-20.0,43.0,91.95406249999999,41.345,4.0327880625,33.99
2021-06-29 17:14:26.140625000,-44.0,-20.0,43.0,91.953125,51.62,4.031627125,33.99
2021-06-29 17:14:26.148437500,-44.0,-20.0,43.0,91.9521875,58.735,4.0304661875,33.99
2021-06-29 17:14:26.156250000,-44.0,-20.0,43.0,91.95125,65.85,4.02930525,33.99
2021-06-29 17:14:26.164062500,-44.0,-20.0,43.0,91.9503125,70.025,4.0281443125,33.99
2021-06-29 17:14:26.171875000,-44.0,-20.0,43.0,91.949375,74.2,4.026983375,33.99
2021-06-29 17:14:26.179687500,-44.0,-20.0,43.0,91.9484375,75.80000000000001,4.0258224375000005,33.99
2021-06-29 17:14:26.187500000,-44.0,-20.0,43.0,91.94749999999999,77.4,4.024661500000001,33.99
2021-06-29 17:14:26.195312500,-44.0,-20.0,43.0,91.9465625,76.83000000000001,4.023500562500001,33.99
2021-06-29 17:14:26.203125000,-44.0,-20.0,43.0,91.94562499999999,76.26,4.022339625000001,33.99
2021-06-29 17:14:26.210937500,-44.0,-20.0,43.0,91.9446875,73.95500000000001,4.0211786875,33.99
2021-06-29 17:14:26.218750000,-44.0,-20.0,43.0,91.94375,71.65,4.02001775,33.99
2021-06-29 17:14:26.226562500,-44.0,-20.0,43.0,91.9428125,68.135,4.0188568125,33.99
2021-06-29 17:14:26.234375000,-44.0,-20.0,43.0,91.941875,64.62,4.017695875,33.99
2021-06-29 17:14:26.242187500,-44.0,-20.0,43.0,91.9409375,60.545,4.0165349375,33.99
2021-06-29 17:14:26.250000000,-44.0,-20.0,43.0,91.94,56.47,4.015374,33.99
2021-06-29 17:14:26.257812500,-44.0,-20.0,43.0,91.93906249999999,52.485,4.0138127500000005,33.99
2021-06-29 17:14:26.265625000,-44.0,-20.0,43.0,91.938125,48.5,4.0122515000000005,33.99
2021-06-29 17:14:26.273437500,-44.0,-20.0,43.0,91.9371875,45.135000000000005,4.010690250000001,33.99
2021-06-29 17:14:26.281250000,-44.0,-20.0,43.0,91.93625,41.77,4.009129000000001,33.99
2021-06-29 17:14:26.289062500,-44.0,-20.0,43.0,91.9353125,39.3,4.007567750000001,33.99
2021-06-29 17:14:26.296875000,-44.0,-20.0,43.0,91.934375,36.83,4.006006500000001,33.99
2021-06-29 17:14:26.304687500,-44.0,-20.0,43.0,91.9334375,35.28,4.004445250000001,33.99
2021-06-29 17:14:26.312500000,-44.0,-20.0,43.0,91.9325,33.73,4.002884,33.99
2021-06-29 17:14:26.320312500,-44.0,-20.0,43.0,91.9315625,32.93,4.00132275,33.99
2021-06-29 17:14:26.328125000,-44.0,-20.0,43.0,91.93062499999999,32.13,3.9997615000000004,33.99
2021-06-29 17:14:26.335937500,-44.0,-20.0,43.0,91.9296875,31.85,3.9982002500000005,33.99
2021-06-29 17:14:26.343750000,-44.0,-20.0,43.0,91.92875,31.57,3.996639,33.99
2021-06-29 17:14:26.351562500,-44.0,-20.0,43.0,91.9278125,31.615000000000002,3.99507775,33.99
2021-06-29 17:14:26.359375000,-44.0,-20.0,43.0,91.926875,31.66,3.9935165,33.99
2021-06-29 17:14:26.367187500,-44.0,-20.0,43.0,91.9259375,31.880000000000003,3.99195525,33.99
2021-06-29 17:14:26.375000000,-44.0,-20.0,43.0,91.925,32.1,3.990394,33.99
2021-06-29 17:14:26.382812500,-43.75,-20.0,43.0,91.92406249999999,32.345,3.9888327500000003,33.99
2021-06-29 17:14:26.390625000,-43.5,-20.0,43.0,91.923125,32.59,3.9872715000000003,33.99
2021-06-29 17:14:26.398437500,-43.25,-20.0,43.0,91.92218749999999,32.655,3.9857102500000003,33.99
2021-06-29 17:14:26.406250000,-43.0,-20.0,43.0,91.92125,32.72,3.9841490000000004,33.99
2021-06-29 17:14:26.414062500,-43.25,-20.0,43.0,91.9203125,32.315,3.98258775,33.99
2021-06-29 17:14:26.421875000,-43.5,-20.0,43.0,91.919375,31.91,3.9810265,33.99
2021-06-29 17:14:26.429687500,-43.75,-20.0,43.0,91.9184375,30.7,3.97946525,33.99
2021-06-29 17:14:26.437500000,-44.0,-20.0,43.0,91.91749999999999,29.49,3.977904,33.99
2021-06-29 17:14:26.445312500,-44.0,-20.0,43.0,91.9165625,27.25,3.97634275,33.99
2021-06-29 17:14:26.453125000,-44.0,-20.0,43.0,91.91562499999999,25.01,3.9747815,33.99
2021-06-29 17:14:26.460937500,-44.0,-20.0,43.0,91.9146875,21.695,3.9732202500000002,33.99
2021-06-29 17:14:26.468750000,-44.0,-20.0,43.0,91.91375,18.38,3.971659,33.99
2021-06-29 17:14:26.476562500,-44.0,-20.0,43.0,91.9128125,14.18,3.97009775,33.99
2021-06-29 17:14:26.484375000,-44.0,-20.0,43.0,91.911875,9.98,3.9685365,33.99
2021-06-29 17:14:26.492187500,-44.0,-20.0,43.0,91.9109375,5.275,3.96697525,33.99
2021-06-29 17:14:26.500000000,-44.0,-20.0,43.0,91.91,0.57,3.965414,33.99
2021-06-29 17:14:26.507812500,-44.0,-20.0,43.0,91.90906249999999,-4.205,3.9644932812500002,33.99
2021-06-29 17:14:26.515625000,-44.0,-20.0,43.0,91.908125,-8.98,3.9635725625,33.99
2021-06-29 17:14:26.523437500,-44.0,-20.0,43.0,91.90718749999999,-13.485,3.96265184375,33.99
2021-06-29 17:14:26.531250000,-44.0,-20.0,43.0,91.90625,-17.99,3.961731125,33.99
2021-06-29 17:14:26.539062500,-44.0,-20.0,43.0,91.9053125,-22.08,3.9608104062500002,33.99
2021-06-29 17:14:26.546875000,-44.0,-20.0,43.0,91.904375,-26.17,3.9598896875,33.99
2021-06-29 17:14:26.554687500,-44.0,-20.0,43.0,91.9034375,-29.965,3.95896896875,33.99
2021-06-29 17:14:26.562500000,-44.0,-20.0,43.0,91.9025,-33.76,3.95804825,33.99
2021-06-29 17:14:26.570312500,-44.0,-20.0,43.0,91.9015625,-37.614999999999995,3.9571275312500003,33.99
2021-06-29 17:14:26.578125000,-44.0,-20.0,43.0,91.90062499999999,-41.47,3.9562068125,33.99
2021-06-29 17:14:26.585937500,-44.0,-20.0,43.0,91.8996875,-45.86,3.95528609375,33.99
2021-06-29 17:14:26.593750000,-44.0,-20.0,43.0,91.89874999999999,-50.25,3.954365375,33.99
2021-06-29 17:14:26.601562500,-44.0,-20.0,43.0,91.8978125,-55.595,3.9534446562500003,33.99
2021-06-29 17:14:26.609375000,-44.0,-20.0,43.0,91.896875,-60.94,3.9525239375,33.99
2021-06-29 17:14:26.617187500,-44.0,-20.0,43.0,91.8959375,-67.38,3.95160321875,33.99
2021-06-29 17:14:26.625000000,-44.0,-20.0,43.0,91.895,-73.82,3.9506825,33.99
2021-06-29 17:14:26.632812500,-44.0,-20.0,43.0,91.89406249999999,-80.935,3.9497617812500003,33.99
2021-06-29 17:14:26.640625000,-44.0,-20.0,43.0,91.893125,-88.05,3.9488410625,33.99
2021-06-29 17:14:26.648437500,-44.0,-20.0,43.0,91.89218749999999,-94.78999999999999,3.94792034375,33.99
2021-06-29 17:14:26.656250000,-44.0,-20.0,43.0,91.89125,-101.53,3.946999625,33.99
2021-06-29 17:14:26.664062500,-44.0,-20.0,43.0,91.8903125,-106.33500000000001,3.9460789062500004,33.99
2021-06-29 17:14:26.671875000,-44.0,-20.0,43.0,91.889375,-111.14,3.9451581875,33.99
2021-06-29 17:14:26.679687500,-44.0,-20.0,43.0,91.8884375,-112.36500000000001,3.94423746875,33.99
2021-06-29 17:14:26.687500000,-44.0,-20.0,43.0,91.88749999999999,-113.59,3.94331675,33.99
2021-06-29 17:14:26.695312500,-44.0,-20.0,43.0,91.8865625,-110.065,3.9423960312500004,33.99
2021-06-29 17:14:26.703125000,-44.0,-20.0,43.0,91.88562499999999,-106.54,3.9414753125,33.99
2021-06-29 17:14:26.710937500,-44.0,-20.0,43.0,91.8846875,-98.05000000000001,3.94055459375,33.99
2021-06-29 17:14:26.718750000,-44.0,-20.0,43.0,91.88374999999999,-89.56,3.939633875,33.99
2021-06-29 17:14:26.726562500,-44.0,-20.0,43.0,91.8828125,-76.98,3.9387131562500004,33.99
2021-06-29 17:14:26.734375000,-44.0,-20.0,43.0,91.881875,-64.4,3.9377924375,33.99
2021-06-29 17:14:26.742187500,-44.0,-20.0,43.0,91.8809375,-49.475,3.93687171875,33.99
2021-06-29 17:14:26.750000000,-44.0,-20.0,43.0,91.88,-34.55,3.935951,33.99
2021-06-29 17:14:26.757812500,-44.0,-20.25,43.0,91.87906249999999,-19.32,3.9347100000000004,33.99
2021-06-29 17:14:26.765625000,-44.0,-20.5,43.0,91.878125,-4.09,3.933469,33.99
2021-06-29 17:14:26.773437500,-44.0,-20.75,43.0,91.87718749999999,9.665000000000001,3.9322280000000003,33.99
2021-06-29 17:14:26.781250000,-44.0,-21.0,43.0,91.87625,23.42,3.930987,33.99
2021-06-29 17:14:26.789062500,-44.0,-20.75,43.0,91.87531249999999,34.585,3.929746,33.99
2021-06-29 17:14:26.796875000,-44.0,-20.5,43.0,91.874375,45.75,3.9285050000000004,33.99
2021-06-29 17:14:26.804687500,-44.0,-20.25,43.0,91.8734375,53.915,3.927264,33.99
2021-06-29 17:14:26.812500000,-44.0,-20.0,43.0,91.8725,62.08,3.9260230000000003,33.99
2021-06-29 17:14:26.820312500,-44.0,-20.0,43.0,91.8715625,67.32,3.924782,33.99
2021-06-29 17:14:26.828125000,-44.0,-20.0,43.0,91.87062499999999,72.56,3.923541,33.99
2021-06-29 17:14:26.835937500,-44.0,-20.0,43.0,91.8696875,75.215,3.9223000000000003,33.99
2021-06-29 17:14:26.843750000,-44.0,-20.0,43.0,91.86874999999999,77.87,3.921059,33.99
2021-06-29 17:14:26.851562500,-44.0,-20.0,43.0,91.8678125,78.31,3.9198180000000002,33.99
2021-06-29 17:14:26.859375000,-44.0,-20.0,43.0,91.866875,78.75,3.918577,33.99
2021-06-29 17:14:26.867187500,-44.0,-20.0,43.0,91.8659375,77.36,3.917336,33.99
2021-06-29 17:14:26.875000000,-44.0,-20.0,43.0,91.865,75.97,3.9160950000000003,33.99
2021-06-29 17:14:26.882812500,-44.0,-20.0,43.0,91.86406249999999,73.185,3.914854,33.99
2021-06-29 17:14:26.890625000,-44.0,-20.0,43.0,91.863125,70.4,3.9136130000000002,33.99
2021-06-29 17:14:26.898437500,-44.0,-20.0,43.0,91.86218749999999,66.76,3.912372,33.99
2021-06-29 17:14:26.906250000,-44.0,-20.0,43.0,91.86125,63.12,3.911131,33.99
2021-06-29 17:14:26.914062500,-44.0,-20.0,43.0,91.86031249999999,59.224999999999994,3.90989,33.99
2021-06-29 17:14:26.921875000,-44.0,-20.0,43.0,91.859375,55.33,3.908649,33.99
2021-06-29 17:14:26.929687500,-44.0,-20.0,43.0,91.8584375,51.745,3.907408,33.99
2021-06-29 17:14:26.937500000,-44.0,-20.0,43.0,91.85749999999999,48.16,3.906167,33.99
2021-06-29 17:14:26.945312500,-44.0,-20.0,43.0,91.8565625,45.3,3.904926,33.99
2021-06-29 17:14:26.953125000,-44.0,-20.0,43.0,91.85562499999999,42.44,3.903685,33.99
2021-06-29 17:14:26.960937500,-44.0,-20.0,43.0,91.8546875,40.495,3.902444,33.99
2021-06-29 17:14:26.968750000,-44.0,-20.0,43.0,91.85374999999999,38.55,3.901203,33.99
2021-06-29 17:14:26.976562500,-44.0,-20.0,43.0,91.8528125,37.485,3.899962,33.99
2021-06-29 17:14:26.984375000,-44.0,-20.0,43.0,91.85187499999999,36.42,3.898721,33.99
2021-06-29 17:14:26.992187500,-44.0,-20.0,43.0,91.8509375,36.010000000000005,3.89748,33.99
2021-06-29 17:14:27.000000000,-44.0,-20.0,43.0,91.85,35.6,3.896239,33.99
2021-06-29 17:14:27.007812500,-44.0,-20.0,43.0,91.84906249999999,35.565,3.8956785625,33.99
2021-06-29 17:14:27.015625000,-44.0,-20.0,43.0,91.848125,35.53,3.895118125,33.99
2021-06-29 17:14:27.023437500,-44.0,-20.0,43.0,91.84718749999999,35.61,3.8945576875,33.99
2021-06-29 17:14:27.031250000,-44.0,-20.0,43.0,91.84625,35.69,3.89399725,33.99
2021-06-29 17:14:27.039062500,-44.0,-20.0,43.0,91.84531249999999,35.685,3.8934368125,33.99
2021-06-29 17:14:27.046875000,-44.0,-20.0,43.0,91.844375,35.68,3.892876375,33.99
2021-06-29 17:14:27.054687500,-44.0,-20.0,43.0,91.8434375,35.44,3.8923159375,33.99
2021-06-29 17:14:27.062500000,-44.0,-20.0,43.0,91.8425,35.2,3.8917555,33.99
2021-06-29 17:14:27.070312500,-44.0,-20.0,43.0,91.8415625,34.58,3.8911950625,33.99
2021-06-29 17:14:27.078125000,-44.0,-20.0,43.0,91.84062499999999,33.96,3.890634625,33.99
2021-06-29 17:14:27.085937500,-44.0,-20.0,43.0,91.8396875,32.775,3.8900741875000002,33.99
2021-06-29 17:14:27.093750000,-44.0,-20.0,43.0,91.83874999999999,31.59,3.88951375,33.99
2021-06-29 17:14:27.101562500,-44.0,-20.0,43.0,91.8378125,29.655,3.8889533125,33.99
2021-06-29 17:14:27.109375000,-44.0,-20.0,43.0,91.83687499999999,27.72,3.888392875,33.99
2021-06-29 17:14:27.117187500,-44.0,-20.0,43.0,91.8359375,24.915,3.8878324375,33.99
2021-06-29 17:14:27.125000000,-44.0,-20.0,43.0,91.835,22.11,3.8872720000000003,33.99
2021-06-29 17:14:27.132812500,-44.0,-20.0,43.0,91.8340625,18.445,3.8867115625,33.99
2021-06-29 17:14:27.140625000,-44.0,-20.0,43.0,91.833125,14.78,3.886151125,33.99
2021-06-29 17:14:27.148437500,-44.0,-20.0,43.0,91.83218749999999,10.485,3.8855906875,33.99
2021-06-29 17:14:27.156250000,-44.0,-20.0,43.0,91.83125,6.19,3.8850302500000002,33.99
2021-06-29 17:14:27.164062500,-44.0,-20.0,43.0,91.83031249999999,1.625,3.8844698125,33.99
2021-06-29 17:14:27.171875000,-44.0,-20.0,43.0,91.829375,-2.94,3.883909375,33.99
2021-06-29 17:14:27.179687500,-44.0,-20.0,43.0,91.82843749999999,-7.385,3.8833489375,33.99
2021-06-29 17:14:27.187500000,-44.0,-20.0,43.0,91.8275,-11.83,3.8827885,33.99
2021-06-29 17:14:27.195312500,-44.0,-20.0,43.0,91.8265625,-15.879999999999999,3.8822280625000003,33.99
2021-06-29 17:14:27.203125000,-44.0,-20.0,43.0,91.825625,-19.93,3.881667625,33.99
2021-06-29 17:14:27.210937500,-44.0,-20.0,43.0,91.8246875,-23.54,3.8811071875,33.99
2021-06-29 17:14:27.218750000,-44.0,-20.0,43.0,91.82374999999999,-27.15,3.88054675,33.99
2021-06-29 17:14:27.226562500,-44.0,-20.0,43.0,91.8228125,-30.564999999999998,3.8799863125000003,33.99
2021-06-29 17:14:27.234375000,-44.0,-20.0,43.0,91.82187499999999,-33.98,3.879425875,33.99
2021-06-29 17:14:27.242187500,-44.0,-20.0,43.0,91.8209375,-37.66,3.8788654375,33.99
2021-06-29 17:14:27.250000000,-44.0,-20.0,43.0,91.82,-41.34,3.878305,33.99
2021-06-29 17:14:27.257812500,-44.0,-20.0,43.0,91.8190625,-45.83,3.87766446875,33.99
2021-06-29 17:14:27.265625000,-44.0,-20.0,43.0,91.818125,-50.32,3.8770239375,33.99
2021-06-29 17:14:27.273437500,-44.0,-20.0,43.0,91.8171875,-56.015,3.87638340625,33.99
2021-06-29 17:14:27.281250000,-44.0,-20.0,43.0,91.81625,-61.71,3.8757428750000003,33.99
2021-06-29 17:14:27.289062500,-44.0,-20.0,43.0,91.81531249999999,-68.54,3.87510234375,33.99
2021-06-29 17:14:27.296875000,-44.0,-20.0,43.0,91.814375,-75.37,3.8744618125,33.99
2021-06-29 17:14:27.304687500,-44.0,-20.0,43.0,91.81343749999999,-82.61500000000001,3.87382128125,33.99
2021-06-29 17:14:27.312500000,-44.0,-20.0,43.0,91.8125,-89.86,3.87318075,33.99
2021-06-29 17:14:27.320312500,-44.0,-20.0,43.0,91.8115625,-96.13499999999999,3.87254021875,33.99
2021-06-29 17:14:27.328125000,-44.0,-20.0,43.0,91.810625,-102.41,3.8718996875,33.99
2021-06-29 17:14:27.335937500,-44.0,-20.0,43.0,91.8096875,-105.96000000000001,3.87125915625,33.99
2021-06-29 17:14:27.343750000,-44.0,-20.0,43.0,91.80875,-109.51,3.870618625,33.99
2021-06-29 17:14:27.351562500,-44.0,-20.0,43.0,91.8078125,-108.755,3.86997809375,33.99
2021-06-29 17:14:27.359375000,-44.0,-20.0,43.0,91.80687499999999,-108.0,3.8693375625,33.99
2021-06-29 17:14:27.367187500,-44.0,-20.0,43.0,91.8059375,-102.14,3.86869703125,33.99
2021-06-29 17:14:27.375000000,-44.0,-20.0,43.0,91.80499999999999,-96.28,3.8680565,33.99
2021-06-29 17:14:27.382812500,-44.0,-20.0,43.0,91.8040625,-85.63499999999999,3.86741596875,33.99
2021-06-29 17:14:27.390625000,-44.0,-20.0,43.0,91.803125,-74.99,3.8667754375,33.99
2021-06-29 17:14:27.398437500,-44.0,-20.0,43.0,91.8021875,-60.98,3.86613490625,33.99
2021-06-29 17:14:27.406250000,-44.0,-20.0,43.0,91.80125,-46.97,3.865494375,33.99
2021-06-29 17:14:27.414062500,-44.0,-20.0,43.0,91.8003125,-31.68,3.86485384375,33.99
2021-06-29 17:14:27.421875000,-44.0,-20.0,43.0,91.799375,-16.39,3.8642133125,33.99
2021-06-29 17:14:27.429687500,-44.0,-20.0,43.0,91.79843749999999,-1.8900000000000006,3.86357278125,33.99
2021-06-29 17:14:27.437500000,-44.0,-20.0,43.0,91.7975,12.61,3.86293225,33.99
2021-06-29 17:14:27.445312500,-44.0,-20.0,43.0,91.7965625,24.78,3.86229171875,33.99
2021-06-29 17:14:27.453125000,-44.0,-20.0,43.0,91.795625,36.95,3.8616511875,33.99
2021-06-29 17:14:27.460937500,-44.0,-20.0,43.0,91.7946875,46.045,3.86101065625,33.99
2021-06-29 17:14:27.468750000,-44.0,-20.0,43.0,91.79375,55.14,3.8603701249999998,33.99
2021-06-29 17:14:27.476562500,-44.0,-20.0,43.0,91.7928125,61.125,3.85972959375,33.99
2021-06-29 17:14:27.484375000,-44.0,-20.0,43.0,91.791875,67.11,3.8590890625,33.99
2021-06-29 17:14:27.492187500,-44.0,-20.0,43.0,91.7909375,70.33500000000001,3.85844853125,33.99
2021-06-29 17:14:27.500000000,-44.0,-20.0,43.0,91.78999999999999,73.56,3.857808,33.99
2021-06-29 17:14:27.507812500,-44.0,-20.0,43.0,91.7890625,74.475,3.8572875937499997,33.99
2021-06-29 17:14:27.515625000,-44.0,-20.0,43.0,91.788125,75.39,3.8567671875,33.99
2021-06-29 17:14:27.523437500,-44.0,-20.0,43.0,91.7871875,74.35499999999999,3.85624678125,33.99
2021-06-29 17:14:27.531250000,-44.0,-20.0,43.0,91.78625,73.32,3.8557263749999997,33.99
2021-06-29 17:14:27.539062500,-44.0,-20.0,43.0,91.7853125,70.66999999999999,3.85520596875,33.99
2021-06-29 17:14:27.546875000,-44.0,-20.0,43.0,91.784375,68.02,3.8546855625,33.99
2021-06-29 17:14:27.554687500,-44.0,-20.0,43.0,91.7834375,64.115,3.85416515625,33.99
2021-06-29 17:14:27.562500000,-44.0,-20.0,43.0,91.7825,60.21,3.85364475,33.99
2021-06-29 17:14:27.570312500,-44.0,-20.0,43.0,91.7815625,55.585,3.85312434375,33.99
2021-06-29 17:14:27.578125000,-44.0,-20.0,43.0,91.780625,50.96,3.8526039375,33.99
2021-06-29 17:14:27.585937500,-44.0,-20.0,43.0,91.7796875,46.260000000000005,3.85208353125,33.99
2021-06-29 17:14:27.593750000,-44.0,-20.0,43.0,91.77875,41.56,3.851563125,33.99
2021-06-29 17:14:27.601562500,-44.0,-20.0,43.0,91.7778125,37.42,3.85104271875,33.99
2021-06-29 17:14:27.609375000,-44.0,-20.0,43.0,91.776875,33.28,3.8505223125,33.99
2021-06-29 17:14:27.617187500,-44.0,-20.0,43.0,91.7759375,30.19,3.85000190625,33.99
2021-06-29 17:14:27.625000000,-44.0,-20.0,43.0,91.775,27.1,3.8494815,33.99
2021-06-29 17:14:27.632812500,-44.0,-20.0,43.0,91.7740625,25.275,3.84896109375,33.99
2021-06-29 17:14:27.640625000,-44.0,-20.0,43.0,91.77312500000001,23.45,3.8484406875,33.99
2021-06-29 17:14:27.648437500,-44.0,-20.0,43.0,91.7721875,22.78,3.84792028125,33.99
2021-06-29 17:14:27.656250000,-44.0,-20.0,43.0,91.77125,22.11,3.847399875,33.99
2021-06-29 17:14:27.664062500,-43.75,-20.0,43.0,91.7703125,22.275,3.84687946875,33.99
2021-06-29 17:14:27.671875000,-43.5,-20.0,43.0,91.769375,22.44,3.8463590625,33.99
2021-06-29 17:14:27.679687500,-43.25,-20.0,43.0,91.7684375,23.0,3.84583865625,33.99
2021-06-29 17:14:27.687500000,-43.0,-20.0,43.0,91.7675,23.56,3.84531825,33.99
2021-06-29 17:14:27.695312500,-43.25,-20.0,43.0,91.7665625,24.119999999999997,3.84479784375,33.99
2021-06-29 17:14:27.703125000,-43.5,-20.0,43.0,91.765625,24.68,3.8442774375,33.99
2021-06-29 17:14:27.710937500,-43.75,-20.0,43.0,91.76468750000001,24.925,3.84375703125,33.99
2021-06-29 17:14:27.718750000,-44.0,-20.0,43.0,91.76375,25.17,3.8432366250000003,33.99
2021-06-29 17:14:27.726562500,-44.0,-20.0,43.0,91.7628125,24.865000000000002,3.84271621875,33.99
2021-06-29 17:14:27.734375000,-44.0,-20.0,43.0,91.761875,24.56,3.8421958125,33.99
2021-06-29 17:14:27.742187500,-44.0,-20.0,43.0,91.7609375,23.564999999999998,3.8416754062500003,33.99
2021-06-29 17:14:27.750000000,-44.0,-20.0,43.0,91.76,22.57,3.841155,33.99
2021-06-29 17:14:27.757812500,-44.0,-20.0,43.0,91.7590625,20.805,3.84087478125,33.99
2021-06-29 17:14:27.765625000,-44.0,-20.0,43.0,91.758125,19.04,3.8405945625,33.99
2021-06-29 17:14:27.773437500,-44.0,-20.0,43.0,91.7571875,16.525,3.8403143437500002,33.99
2021-06-29 17:14:27.781250000,-44.0,-20.0,43.0,91.75625000000001,14.01,3.840034125,33.99
2021-06-29 17:14:27.789062500,-44.0,-20.0,43.0,91.7553125,10.885,3.83975390625,33.99
2021-06-29 17:14:27.796875000,-44.0,-20.0,43.0,91.754375,7.76,3.8394736875,33.99
2021-06-29 17:14:27.804687500,-44.0,-20.0,43.0,91.7534375,4.27,3.83919346875,33.99
2021-06-29 17:14:27.812500000,-44.0,-20.0,43.0,91.7525,0.78,3.83891325,33.99
2021-06-29 17:14:27.820312500,-44.0,-20.0,43.0,91.7515625,-2.8100000000000005,3.83863303125,33.99
2021-06-29 17:14:27.828125000,-44.0,-20.0,43.0,91.750625,-6.4,3.8383528125,33.99
2021-06-29 17:14:27.835937500,-44.0,-20.0,43.0,91.74968750000001,-9.895,3.83807259375,33.99
2021-06-29 17:14:27.843750000,-44.0,-20.0,43.0,91.74875,-13.39,3.8377923750000003,33.99
2021-06-29 17:14:27.851562500,-44.0,-20.0,43.0,91.74781250000001,-16.745,3.83751215625,33.99
2021-06-29 17:14:27.859375000,-44.0,-20.0,43.0,91.746875,-20.1,3.8372319375,33.99
2021-06-29 17:14:27.867187500,-44.0,-20.0,43.0,91.7459375,-23.44,3.83695171875,33.99
2021-06-29 17:14:27.875000000,-44.0,-20.0,43.0,91.745,-26.78,3.8366715,33.99
2021-06-29 17:14:27.882812500,-44.0,-20.0,43.0,91.7440625,-30.36,3.83639128125,33.99
2021-06-29 17:14:27.890625000,-44.0,-20.0,43.0,91.743125,-33.94,3.8361110625,33.99
2021-06-29 17:14:27.898437500,-44.0,-20.0,43.0,91.7421875,-38.11,3.83583084375,33.99
2021-06-29 17:14:27.906250000,-44.0,-20.0,43.0,91.74125000000001,-42.28,3.8355506249999998,33.99
2021-06-29 17:14:27.914062500,-44.0,-20.0,43.0,91.7403125,-47.295,3.83527040625,33.99
2021-06-29 17:14:27.921875000,-44.0,-20.0,43.0,91.73937500000001,-52.31,3.8349901875,33.99
2021-06-29 17:14:27.929687500,-44.0,-20.0,43.0,91.7384375,-58.215,3.83470996875,33.99
2021-06-29 17:14:27.937500000,-44.0,-20.0,43.0,91.7375,-64.12,3.83442975,33.99
2021-06-29 17:14:27.945312500,-44.0,-20.0,43.0,91.7365625,-70.495,3.83414953125,33.99
2021-06-29 17:14:27.953125000,-44.0,-20.0,43.0,91.735625,-76.87,3.8338693125,33.99
2021-06-29 17:14:27.960937500,-44.0,-20.0,43.0,91.7346875,-82.745,3.83358909375,33.99
2021-06-29 17:14:27.968750000,-44.0,-20.0,43.0,91.73375,-88.62,3.833308875,33.99
2021-06-29 17:14:27.976562500,-44.0,-20.0,43.0,91.73281250000001,-92.57,3.8330286562499998,33.99
2021-06-29 17:14:27.984375000,-44.0,-20.0,43.0,91.731875,-96.52,3.8327484375,33.99
2021-06-29 17:14:27.992187500,-44.0,-20.0,43.0,91.73093750000001,-97.03,3.83246821875,33.99
2021-06-29 17:14:28.000000000,-44.0,-20.0,43.0,91.73,-97.54,3.832188,33.99
2021-06-29 17:14:28.007812500,-44.0,-20.0,43.0,91.72898437500001,-93.545,3.8319478124999997,33.99
2021-06-29 17:14:28.015625000,-44.0,-20.0,43.0,91.72796875,-89.55,3.831707625,33.99
2021-06-29 17:14:28.023437500,-44.0,-20.0,43.0,91.72695312500001,-80.925,3.8314674374999997,33.99
2021-06-29 17:14:28.031250000,-44.0,-20.0,43.0,91.7259375,-72.3,3.83122725,33.99
2021-06-29 17:14:28.039062500,-44.0,-20.0,43.0,91.724921875,-60.004999999999995,3.8309870624999998,33.99
2021-06-29 17:14:28.046875000,-44.0,-20.0,43.0,91.72390625,-47.71,3.830746875,33.99
2021-06-29 17:14:28.054687500,-44.0,-20.0,43.0,91.722890625,-33.535,3.8305066875,33.99
2021-06-29 17:14:28.062500000,-44.0,-20.0,43.0,91.721875,-19.36,3.8302665,33.99
2021-06-29 17:14:28.070312500,-44.0,-20.0,43.0,91.720859375,-5.35,3.8300263125,33.99
2021-06-29 17:14:28.078125000,-44.0,-20.0,43.0,91.71984375000001,8.66,3.829786125,33.99
2021-06-29 17:14:28.085937500,-44.0,-20.0,43.0,91.718828125,20.795,3.8295459375,33.99
2021-06-29 17:14:28.093750000,-44.0,-20.0,43.0,91.71781250000001,32.93,3.82930575,33.99
2021-06-29 17:14:28.101562500,-44.0,-20.0,43.0,91.716796875,42.225,3.8290655625,33.99
2021-06-29 17:14:28.109375000,-44.0,-20.0,43.0,91.71578125,51.52,3.828825375,33.99
2021-06-29 17:14:28.117187500,-44.0,-20.0,43.0,91.714765625,57.745000000000005,3.8285851875,33.99
2021-06-29 17:14:28.125000000,-44.0,-20.0,43.0,91.71375,63.97,3.8283449999999997,33.99
2021-06-29 17:14:28.132812500,-44.0,-20.0,43.0,91.712734375,67.395,3.8281048125,33.99
2021-06-29 17:14:28.140625000,-44.0,-20.0,43.0,91.71171875,70.82,3.8278646249999997,33.99
2021-06-29 17:14:28.148437500,-44.0,-20.0,43.0,91.71070312500001,71.87,3.8276244375,33.99
2021-06-29 17:14:28.156250000,-44.0,-20.0,43.0,91.7096875,72.92,3.8273842499999997,33.99
2021-06-29 17:14:28.164062500,-44.0,-20.0,43.0,91.70867187500001,71.99000000000001,3.8271440625,33.99
2021-06-29 17:14:28.171875000,-44.0,-20.0,43.0,91.70765625,71.06,3.8269038749999997,33.99
2021-06-29 17:14:28.179687500,-44.0,-20.0,43.0,91.706640625,68.445,3.8266636875,33.99
2021-06-29 17:14:28.187500000,-44.0,-20.0,43.0,91.705625,65.83,3.8264234999999998,33.99
2021-06-29 17:14:28.195312500,-44.0,-20.0,43.0,91.704609375,61.9,3.8261833125,33.99
2021-06-29 17:14:28.203125000,-44.0,-20.0,43.0,91.70359375,57.97,3.825943125,33.99
2021-06-29 17:14:28.210937500,-44.0,-20.0,43.0,91.702578125,53.230000000000004,3.8257029375,33.99
2021-06-29 17:14:28.218750000,-44.0,-20.0,43.0,91.70156250000001,48.49,3.82546275,33.99
2021-06-29 17:14:28.226562500,-44.0,-20.0,43.0,91.700546875,43.58,3.8252225625,33.99
2021-06-29 17:14:28.234375000,-44.0,-20.0,43.0,91.69953125,38.67,3.824982375,33.99
2021-06-29 17:14:28.242187500,-44.0,-20.0,43.0,91.698515625,34.27,3.8247421875,33.99
2021-06-29 17:14:28.250000000,-44.0,-20.0,43.0,91.6975,29.87,3.824502,33.99
2021-06-29 17:14:28.257812500,-44.0,-20.0,43.0,91.696484375,26.515,3.8243819062499997,33.99
2021-06-29 17:14:28.265625000,-44.0,-20.0,43.0,91.69546875,23.16,3.8242618124999996,33.99
2021-06-29 17:14:28.273437500,-44.0,-20.0,43.0,91.694453125,21.115000000000002,3.82414171875,33.99
2021-06-29 17:14:28.281250000,-44.0,-20.0,43.0,91.6934375,19.07,3.824021625,33.99
2021-06-29 17:14:28.289062500,-44.0,-20.0,43.0,91.69242187500001,18.295,3.8239015312499998,33.99
2021-06-29 17:14:28.296875000,-44.0,-20.0,43.0,91.69140625,17.52,3.8237814375,33.99
2021-06-29 17:14:28.304687500,-44.0,-20.0,43.0,91.690390625,17.715,3.82366134375,33.99
2021-06-29 17:14:28.312500000,-44.0,-20.0,43.0,91.689375,17.91,3.82354125,33.99
2021-06-29 17:14:28.320312500,-44.0,-20.0,43.0,91.688359375,18.630000000000003,3.82342115625,33.99
2021-06-29 17:14:28.328125000,-44.0,-20.0,43.0,91.68734375,19.35,3.8233010624999997,33.99
2021-06-29 17:14:28.335937500,-44.0,-20.0,43.0,91.686328125,20.115000000000002,3.82318096875,33.99
2021-06-29 17:14:28.343750000,-44.0,-20.0,43.0,91.6853125,20.88,3.823060875,33.99
2021-06-29 17:14:28.351562500,-44.0,-20.0,43.0,91.684296875,21.29,3.82294078125,33.99
2021-06-29 17:14:28.359375000,-44.0,-20.0,43.0,91.68328125000001,21.7,3.8228206875,33.99
2021-06-29 17:14:28.367187500,-44.0,-20.0,43.0,91.682265625,21.45,3.82270059375,33.99
2021-06-29 17:14:28.375000000,-44.0,-20.0,43.0,91.68125,21.2,3.8225805,33.99
2021-06-29 17:14:28.382812500,-44.0,-20.0,43.0,91.680234375,20.119999999999997,3.82246040625,33.99
2021-06-29 17:14:28.390625000,-44.0,-20.0,43.0,91.67921875,19.04,3.8223403124999997,33.99
2021-06-29 17:14:28.398437500,-44.0,-20.0,43.0,91.678203125,17.064999999999998,3.82222021875,33.99
2021-06-29 17:14:28.406250000,-44.0,-20.0,43.0,91.6771875,15.09,3.822100125,33.99
2021-06-29 17:14:28.414062500,-44.0,-20.0,43.0,91.676171875,12.285,3.82198003125,33.99
2021-06-29 17:14:28.421875000,-44.0,-20.0,43.0,91.67515625,9.48,3.8218599375,33.99
2021-06-29 17:14:28.429687500,-44.0,-20.0,43.0,91.674140625,6.005,3.82173984375,33.99
2021-06-29 17:14:28.437500000,-44.0,-20.0,43.0,91.673125,2.53,3.82161975,33.99
2021-06-29 17:14:28.445312500,-44.0,-20.0,43.0,91.672109375,-1.3599999999999999,3.82149965625,33.99
2021-06-29 17:14:28.453125000,-44.0,-20.0,43.0,91.67109375,-5.25,3.8213795624999998,33.99
2021-06-29 17:14:28.460937500,-44.0,-20.0,43.0,91.670078125,-9.295,3.82125946875,33.99
2021-06-29 17:14:28.468750000,-44.0,-20.0,43.0,91.6690625,-13.34,3.821139375,33.99
2021-06-29 17:14:28.476562500,-44.0,-20.0,43.0,91.668046875,-17.32,3.82101928125,33.99
2021-06-29 17:14:28.484375000,-44.0,-20.0,43.0,91.66703125,-21.3,3.8208991875000002,33.99
2021-06-29 17:14:28.492187500,-44.0,-20.0,43.0,91.666015625,-25.134999999999998,3.82077909375,33.99
2021-06-29 17:14:28.500000000,-44.0,-20.0,43.0,91.66499999999999,-28.97,3.820659,33.99
2021-06-29 17:14:28.507812500,-44.0,-20.0,43.0,91.663984375,-32.745000000000005,3.8200185,33.99
2021-06-29 17:14:28.515625000,-44.0,-20.0,43.0,91.66296875,-36.52,3.819378,33.99
2021-06-29 17:14:28.523437500,-44.0,-20.0,43.0,91.661953125,-40.475,3.8187375,33.99
2021-06-29 17:14:28.531250000,-44.0,-20.0,43.0,91.6609375,-44.43,3.818097,33.99
2021-06-29 17:14:28.539062500,-44.0,-20.0,43.0,91.659921875,-48.955,3.8174565,33.99
2021-06-29 17:14:28.546875000,-44.0,-20.0,43.0,91.65890625,-53.48,3.816816,33.99
2021-06-29 17:14:28.554687500,-44.0,-20.0,43.0,91.657890625,-58.935,3.8161755,33.99
2021-06-29 17:14:28.562500000,-44.0,-20.0,43.0,91.656875,-64.39,3.815535,33.99
2021-06-29 17:14:28.570312500,-44.0,-20.0,43.0,91.65585937499999,-70.875,3.8148945,33.99
2021-06-29 17:14:28.578125000,-44.0,-20.0,43.0,91.65484375,-77.36,3.814254,33.99
2021-06-29 17:14:28.585937500,-44.0,-20.0,43.0,91.653828125,-84.465,3.8136135,33.99
2021-06-29 17:14:28.593750000,-44.0,-20.0,43.0,91.6528125,-91.57,3.812973,33.99
2021-06-29 17:14:28.601562500,-44.0,-20.0,43.0,91.651796875,-98.205,3.8123325,33.99
2021-06-29 17:14:28.609375000,-44.0,-20.0,43.0,91.65078125,-104.84,3.811692,33.99
2021-06-29 17:14:28.617187500,-44.0,-20.0,43.0,91.649765625,-109.42,3.8110515,33.99
2021-06-29 17:14:28.625000000,-44.0,-20.0,43.0,91.64874999999999,-114.0,3.810411,33.99
2021-06-29 17:14:28.632812500,-44.0,-20.0,43.0,91.647734375,-114.845,3.8097705,33.99
2021-06-29 17:14:28.640625000,-44.0,-20.0,43.0,91.64671874999999,-115.69,3.80913,33.99
2021-06-29 17:14:28.648437500,-44.0,-20.0,43.0,91.645703125,-111.62,3.8084895,33.99
2021-06-29 17:14:28.656250000,-44.0,-20.0,43.0,91.6446875,-107.55,3.807849,33.99
2021-06-29 17:14:28.664062500,-44.0,-20.0,43.0,91.643671875,-98.36500000000001,3.8072084999999998,33.99
2021-06-29 17:14:28.671875000,-44.0,-20.0,43.0,91.64265625,-89.18,3.806568,33.99
2021-06-29 17:14:28.679687500,-44.0,-20.0,43.0,91.641640625,-75.85000000000001,3.8059275,33.99
2021-06-29 17:14:28.687500000,-44.0,-20.0,43.0,91.640625,-62.52,3.805287,33.99
2021-06-29 17:14:28.695312500,-44.0,-20.0,43.0,91.63960937499999,-46.885000000000005,3.8046465,33.99
2021-06-29 17:14:28.703125000,-44.0,-20.0,43.0,91.63859375,-31.25,3.8040059999999998,33.99
2021-06-29 17:14:28.710937500,-44.0,-20.0,43.0,91.63757812499999,-15.475,3.8033655,33.99
2021-06-29 17:14:28.718750000,-44.0,-20.0,43.0,91.6365625,0.3,3.802725,33.99
2021-06-29 17:14:28.726562500,-44.0,-20.0,43.0,91.635546875,14.355,3.8020845,33.99
2021-06-29 17:14:28.734375000,-44.0,-20.0,43.0,91.63453125,28.41,3.801444,33.99
2021-06-29 17:14:28.742187500,-44.0,-20.0,43.0,91.633515625,39.58,3.8008035,33.99
2021-06-29 17:14:28.750000000,-44.0,-20.0,43.0,91.6325,50.75,3.800163,33.99
2021-06-29 17:14:28.757812500,-44.0,-20.0,43.0,91.631484375,58.65,3.8000829375,33.99
2021-06-29 17:14:28.765625000,-44.0,-20.0,43.0,91.63046874999999,66.55,3.800002875,33.99
2021-06-29 17:14:28.773437500,-44.0,-20.0,43.0,91.629453125,71.33500000000001,3.7999228124999997,33.99
2021-06-29 17:14:28.781250000,-44.0,-20.0,43.0,91.62843749999999,76.12,3.79984275,33.99
2021-06-29 17:14:28.789062500,-44.0,-20.0,43.0,91.627421875,78.2,3.7997626875,33.99
2021-06-29 17:14:28.796875000,-44.0,-20.0,43.0,91.62640625,80.28,3.799682625,33.99
2021-06-29 17:14:28.804687500,-44.0,-20.0,43.0,91.625390625,80.14,3.7996025625,33.99
2021-06-29 17:14:28.812500000,-44.0,-20.0,43.0,91.624375,80.0,3.7995225,33.99
2021-06-29 17:14:28.820312500,-44.0,-20.0,43.0,91.62335937499999,78.075,3.7994424374999998,33.99
2021-06-29 17:14:28.828125000,-44.0,-20.0,43.0,91.62234375,76.15,3.799362375,33.99
2021-06-29 17:14:28.835937500,-44.0,-20.0,43.0,91.62132812499999,72.915,3.7992823125,33.99
2021-06-29 17:14:28.843750000,-44.0,-20.0,43.0,91.6203125,69.68,3.79920225,33.99
2021-06-29 17:14:28.851562500,-44.0,-20.0,43.0,91.61929687499999,65.665,3.7991221875,33.99
2021-06-29 17:14:28.859375000,-44.0,-20.0,43.0,91.61828125,61.65,3.7990421249999997,33.99
2021-06-29 17:14:28.867187500,-44.0,-20.0,43.0,91.617265625,57.425,3.7989620625,33.99
2021-06-29 17:14:28.875000000,-44.0,-20.0,43.0,91.61625,53.2,3.798882,33.99
2021-06-29 17:14:28.882812500,-44.0,-20.0,43.0,91.615234375,49.315,3.7988019375,33.99
2021-06-29 17:14:28.890625000,-44.0,-20.0,43.0,91.61421874999999,45.43,3.798721875,33.99
2021-06-29 17:14:28.898437500,-44.0,-20.0,43.0,91.613203125,42.3,3.7986418124999997,33.99
2021-06-29 17:14:28.906250000,-44.0,-20.0,43.0,91.61218749999999,39.17,3.7985617499999997,33.99
2021-06-29 17:14:28.914062500,-44.0,-20.0,43.0,91.611171875,36.99,3.7984816875,33.99
2021-06-29 17:14:28.921875000,-44.0,-20.0,43.0,91.61015624999999,34.81,3.798401625,33.99
2021-06-29 17:14:28.929687500,-44.0,-20.0,43.0,91.609140625,33.555,3.7983215625,33.99
2021-06-29 17:14:28.937500000,-44.0,-20.0,43.0,91.608125,32.3,3.7982414999999996,33.99
2021-06-29 17:14:28.945312500,-44.0,-20.0,43.0,91.607109375,31.784999999999997,3.7981614374999997,33.99
2021-06-29 17:14:28.953125000,-44.0,-20.0,43.0,91.60609375,31.27,3.7980813749999998,33.99
2021-06-29 17:14:28.960937500,-44.0,-20.0,43.0,91.60507812499999,31.23,3.7980013125,33.99
2021-06-29 17:14:28.968750000,-44.0,-20.0,43.0,91.6040625,31.19,3.79792125,33.99
2021-06-29 17:14:28.976562500,-44.0,-20.0,43.0,91.60304687499999,31.365000000000002,3.7978411875,33.99
2021-06-29 17:14:28.984375000,-44.0,-20.0,43.0,91.60203125,31.54,3.7977611249999996,33.99
2021-06-29 17:14:28.992187500,-44.0,-20.0,43.0,91.60101562499999,31.7,3.7976810624999997,33.99
2021-06-29 17:14:29.000000000,-44.0,-20.0,43.0,91.6,31.86,3.797601,33.99
2021-06-29 17:14:29.007812500,-44.0,-20.0,43.0,91.598828125,31.775,3.7974808749999998,33.9903125
2021-06-29 17:14:29.015625000,-44.0,-20.0,43.0,91.59765625,31.69,3.7973607499999997,33.990625
2021-06-29 17:14:29.023437500,-44.0,-20.0,43.0,91.59648437499999,31.12,3.7972406249999997,33.9909375
2021-06-29 17:14:29.031250000,-44.0,-20.0,43.0,91.59531249999999,30.55,3.7971204999999997,33.99125
2021-06-29 17:14:29.039062500,-44.0,-20.0,43.0,91.594140625,29.255000000000003,3.7970003749999997,33.9915625
2021-06-29 17:14:29.046875000,-44.0,-20.0,43.0,91.59296875,27.96,3.7968802499999996,33.991875
2021-06-29 17:14:29.054687500,-44.0,-20.0,43.0,91.591796875,25.765,3.7967601249999996,33.9921875
2021-06-29 17:14:29.062500000,-44.0,-20.0,43.0,91.59062499999999,23.57,3.79664,33.9925
2021-06-29 17:14:29.070312500,-44.0,-20.0,43.0,91.58945312499999,20.45,3.796519875,33.9928125
2021-06-29 17:14:29.078125000,-44.0,-20.0,43.0,91.58828125,17.33,3.79639975,33.993125
2021-06-29 17:14:29.085937500,-44.0,-20.0,43.0,91.587109375,13.445,3.796279625,33.9934375
2021-06-29 17:14:29.093750000,-44.0,-20.0,43.0,91.5859375,9.56,3.7961595,33.99375
2021-06-29 17:14:29.101562500,-44.0,-20.0,43.0,91.58476562499999,5.2250000000000005,3.796039375,33.9940625
2021-06-29 17:14:29.109375000,-44.0,-20.0,43.0,91.58359374999999,0.89,3.79591925,33.994375
2021-06-29 17:14:29.117187500,-44.0,-20.0,43.0,91.582421875,-3.5450000000000004,3.795799125,33.9946875
2021-06-29 17:14:29.125000000,-44.0,-20.0,43.0,91.58125,-7.98,3.795679,33.995000000000005
2021-06-29 17:14:29.132812500,-44.0,-20.0,43.0,91.580078125,-12.24,3.7955588749999998,33.995312500000004
2021-06-29 17:14:29.140625000,-44.0,-20.0,43.0,91.57890624999999,-16.5,3.7954387499999998,33.995625000000004
2021-06-29 17:14:29.148437500,-44.0,-20.0,43.0,91.57773437499999,-20.525,3.7953186249999997,33.995937500000004
2021-06-29 17:14:29.156250000,-44.0,-20.0,43.0,91.5765625,-24.55,3.7951984999999997,33.99625
2021-06-29 17:14:29.164062500,-44.0,-20.0,43.0,91.575390625,-28.525,3.7950783749999997,33.9965625
2021-06-29 17:14:29.171875000,-44.0,-20.0,43.0,91.57421875,-32.5,3.7949582499999996,33.996875
2021-06-29 17:14:29.179687500,-44.0,-20.0,43.0,91.573046875,-36.815,3.7948381249999996,33.9971875
2021-06-29 17:14:29.187500000,-44.0,-20.0,43.0,91.57187499999999,-41.13,3.7947179999999996,33.9975
2021-06-29 17:14:29.195312500,-44.0,-20.0,43.0,91.570703125,-46.245000000000005,3.794597875,33.9978125
2021-06-29 17:14:29.203125000,-44.0,-20.0,43.0,91.56953125,-51.36,3.79447775,33.998125
2021-06-29 17:14:29.210937500,-44.0,-20.0,43.0,91.568359375,-57.59,3.794357625,33.9984375
2021-06-29 17:14:29.218750000,-44.0,-20.0,43.0,91.5671875,-63.82,3.7942375,33.99875
2021-06-29 17:14:29.226562500,-44.0,-20.0,43.0,91.56601562499999,-71.09,3.794117375,33.9990625
2021-06-29 17:14:29.234375000,-44.0,-20.0,43.0,91.56484375,-78.36,3.79399725,33.999375
2021-06-29 17:14:29.242187500,-44.0,-20.0,43.0,91.563671875,-85.985,3.793877125,33.9996875
2021-06-29 17:14:29.250000000,-44.0,-20.0,43.0,91.5625,-93.61,3.793757,34.0
2021-06-29 17:14:29.257812500,-44.0,-20.25,43.0,91.561328125,-100.31,3.79355684375,34.0
2021-06-29 17:14:29.265625000,-44.0,-20.5,43.0,91.56015624999999,-107.01,3.7933566874999998,34.0
2021-06-29 17:14:29.273437500,-44.0,-20.75,43.0,91.558984375,-111.095,3.7931565312499997,34.0
2021-06-29 17:14:29.281250000,-44.0,-21.0,43.0,91.5578125,-115.18,3.7929563749999997,34.0
2021-06-29 17:14:29.289062500,-44.0,-20.75,43.0,91.556640625,-115.075,3.7927562187499997,34.0
2021-06-29 17:14:29.296875000,-44.0,-20.5,43.0,91.55546875,-114.97,3.7925560624999997,34.0
2021-06-29 17:14:29.304687500,-44.0,-20.25,43.0,91.55429687499999,-109.75,3.7923559062499996,34.0
2021-06-29 17:14:29.312500000,-44.0,-20.0,43.0,91.553125,-104.53,3.79215575,34.0
2021-06-29 17:14:29.320312500,-44.0,-20.0,43.0,91.551953125,-94.315,3.79195559375,34.0
2021-06-29 17:14:29.328125000,-44.0,-20.0,43.0,91.55078125,-84.1,3.7917554375,34.0
2021-06-29 17:14:29.335937500,-44.0,-20.0,43.0,91.549609375,-70.1,3.79155528125,34.0
2021-06-29 17:14:29.343750000,-44.0,-20.0,43.0,91.54843749999999,-56.1,3.791355125,34.0
2021-06-29 17:14:29.351562500,-44.0,-20.0,43.0,91.547265625,-40.230000000000004,3.79115496875,34.0
2021-06-29 17:14:29.359375000,-44.0,-20.0,43.0,91.54609375,-24.36,3.7909548125,34.0
2021-06-29 17:14:29.367187500,-44.0,-20.0,43.0,91.544921875,-8.69,3.79075465625,34.0
2021-06-29 17:14:29.375000000,-44.0,-20.0,43.0,91.54375,6.98,3.7905545,34.0
2021-06-29 17:14:29.382812500,-44.0,-20.0,43.0,91.54257812499999,20.82,3.79035434375,34.0
2021-06-29 17:14:29.390625000,-44.0,-20.0,43.0,91.54140625,34.66,3.7901541874999998,34.0
2021-06-29 17:14:29.398437500,-44.0,-20.0,43.0,91.540234375,45.72,3.7899540312499997,34.0
2021-06-29 17:14:29.406250000,-44.0,-20.0,43.0,91.5390625,56.78,3.7897538749999997,34.0
2021-06-29 17:14:29.414062500,-44.0,-20.0,43.0,91.537890625,64.78,3.7895537187499997,34.0
2021-06-29 17:14:29.421875000,-44.0,-20.0,43.0,91.53671874999999,72.78,3.7893535624999997,34.0
2021-06-29 17:14:29.429687500,-44.0,-20.0,43.0,91.535546875,77.85,3.7891534062499996,34.0
2021-06-29 17:14:29.437500000,-44.0,-20.0,43.0,91.534375,82.92,3.7889532499999996,34.0
2021-06-29 17:14:29.445312500,-44.0,-20.0,43.0,91.533203125,85.34,3.78875309375,34.0
2021-06-29 17:14:29.453125000,-44.0,-20.0,43.0,91.53203125,87.76,3.7885529375,34.0
2021-06-29 17:14:29.460937500,-44.0,-20.0,43.0,91.53085937499999,87.85,3.78835278125,34.0
2021-06-29 17:14:29.468750000,-44.0,-20.0,43.0,91.5296875,87.94,3.788152625,34.0
2021-06-29 17:14:29.476562500,-44.0,-20.0,43.0,91.528515625,86.08,3.78795246875,34.0
2021-06-29 17:14:29.484375000,-44.0,-20.0,43.0,91.52734375,84.22,3.7877523125,34.0
2021-06-29 17:14:29.492187500,-44.0,-20.0,43.0,91.526171875,80.925,3.78755215625,34.0
2021-06-29 17:14:29.500000000,-44.0,-20.0,43.0,91.525,77.63,3.787352,34.0
2021-06-29 17:14:29.507812500,-44.0,-20.0,43.0,91.523828125,73.58500000000001,3.78747209375,34.0
2021-06-29 17:14:29.515625000,-44.0,-20.0,43.0,91.52265625,69.54,3.7875921875,34.0
2021-06-29 17:14:29.523437500,-44.0,-20.0,43.0,91.521484375,65.45,3.7877122812499997,34.0
2021-06-29 17:14:29.531250000,-44.0,-20.0,43.0,91.5203125,61.36,3.787832375,34.0
2021-06-29 17:14:29.539062500,-44.0,-20.0,43.0,91.519140625,57.805,3.78795246875,34.0
2021-06-29 17:14:29.546875000,-44.0,-20.0,43.0,91.51796875,54.25,3.7880725625,34.0
2021-06-29 17:14:29.554687500,-44.0,-20.0,43.0,91.516796875,51.535,3.7881926562499997,34.0
2021-06-29 17:14:29.562500000,-44.0,-20.0,43.0,91.515625,48.82,3.78831275,34.0
2021-06-29 17:14:29.570312500,-44.0,-20.0,43.0,91.514453125,46.965,3.78843284375,34.0
2021-06-29 17:14:29.578125000,-44.0,-20.0,43.0,91.51328125,45.11,3.7885529375,34.0
2021-06-29 17:14:29.585937500,-44.0,-20.0,43.0,91.512109375,43.935,3.78867303125,34.0
2021-06-29 17:14:29.593750000,-44.0,-20.0,43.0,91.5109375,42.76,3.7887931249999998,34.0
2021-06-29 17:14:29.601562500,-44.0,-20.0,43.0,91.509765625,42.025,3.78891321875,34.0
2021-06-29 17:14:29.609375000,-44.0,-20.0,43.0,91.50859375,41.29,3.7890333125,34.0
2021-06-29 17:14:29.617187500,-44.0,-20.0,43.0,91.507421875,40.84,3.78915340625,34.0
2021-06-29 17:14:29.625000000,-44.0,-20.0,43.0,91.50625,40.39,3.7892735,34.0
2021-06-29 17:14:29.632812500,-44.0,-20.25,43.0,91.505078125,40.14,3.78939359375,34.0
2021-06-29 17:14:29.640625000,-44.0,-20.5,43.0,91.50390625,39.89,3.7895136875,34.0
2021-06-29 17:14:29.648437500,-44.0,-20.75,43.0,91.502734375,39.79,3.78963378125,34.0
2021-06-29 17:14:29.656250000,-44.0,-21.0,43.0,91.5015625,39.69,3.789753875,34.0
2021-06-29 17:14:29.664062500,-44.0,-20.75,43.0,91.500390625,39.614999999999995,3.78987396875,34.0
2021-06-29 17:14:29.671875000,-44.0,-20.5,43.0,91.49921875,39.54,3.7899940625,34.0
2021-06-29 17:14:29.679687500,-44.0,-20.25,43.0,91.498046875,39.254999999999995,3.79011415625,34.0
2021-06-29 17:14:29.687500000,-44.0,-20.0,43.0,91.496875,38.97,3.79023425,34.0
2021-06-29 17:14:29.695312500,-44.0,-20.0,43.0,91.495703125,38.120000000000005,3.7903543437500002,34.0
2021-06-29 17:14:29.703125000,-44.0,-20.0,43.0,91.49453125,37.27,3.7904744375,34.0
2021-06-29 17:14:29.710937500,-44.0,-20.0,43.0,91.493359375,35.515,3.79059453125,34.0
2021-06-29 17:14:29.718750000,-44.0,-20.0,43.0,91.4921875,33.76,3.790714625,34.0
2021-06-29 17:14:29.726562500,-44.0,-20.0,43.0,91.491015625,30.9,3.79083471875,34.0
2021-06-29 17:14:29.734375000,-44.0,-20.0,43.0,91.48984375,28.04,3.7909548125,34.0
2021-06-29 17:14:29.742187500,-44.0,-20.0,43.0,91.488671875,24.119999999999997,3.79107490625,34.0
2021-06-29 17:14:29.750000000,-44.0,-20.0,43.0,91.4875,20.2,3.791195,34.0
2021-06-29 17:14:29.757812500,-44.0,-20.0,43.0,91.486328125,15.485,3.79099484375,34.0
2021-06-29 17:14:29.765625000,-44.0,-20.0,43.0,91.48515625,10.77,3.7907946875,34.0
2021-06-29 17:14:29.773437500,-44.0,-20.0,43.0,91.483984375,5.7,3.79059453125,34.0
2021-06-29 17:14:29.781250000,-44.0,-20.0,43.0,91.4828125,0.63,3.790394375,34.0
2021-06-29 17:14:29.789062500,-44.0,-20.0,43.0,91.481640625,-4.345000000000001,3.79019421875,34.0
2021-06-29 17:14:29.796875000,-44.0,-20.0,43.0,91.48046875,-9.32,3.7899940625,34.0
2021-06-29 17:14:29.804687500,-44.0,-20.0,43.0,91.479296875,-13.86,3.78979390625,34.0
2021-06-29 17:14:29.812500000,-44.0,-20.0,43.0,91.478125,-18.4,3.78959375,34.0
2021-06-29 17:14:29.820312500,-44.0,-20.0,43.0,91.476953125,-22.384999999999998,3.7893935937500003,34.0
2021-06-29 17:14:29.828125000,-44.0,-20.0,43.0,91.47578125,-26.37,3.7891934375000003,34.0
2021-06-29 17:14:29.835937500,-44.0,-20.0,43.0,91.474609375,-29.939999999999998,3.7889932812500002,34.0
2021-06-29 17:14:29.843750000,-44.0,-20.0,43.0,91.4734375,-33.51,3.788793125,34.0
2021-06-29 17:14:29.851562500,-44.0,-20.0,43.0,91.472265625,-37.045,3.78859296875,34.0
2021-06-29 17:14:29.859375000,-44.0,-20.0,43.0,91.47109375000001,-40.58,3.7883928125,34.0
2021-06-29 17:14:29.867187500,-44.0,-20.0,43.0,91.469921875,-44.614999999999995,3.78819265625,34.0
2021-06-29 17:14:29.875000000,-44.0,-20.0,43.0,91.46875,-48.65,3.7879925,34.0
2021-06-29 17:14:29.882812500,-44.0,-20.0,43.0,91.467578125,-53.675,3.78779234375,34.0
2021-06-29 17:14:29.890625000,-44.0,-20.0,43.0,91.46640625,-58.7,3.7875921875,34.0
2021-06-29 17:14:29.898437500,-44.0,-20.0,43.0,91.46523437500001,-64.905,3.78739203125,34.0
2021-06-29 17:14:29.906250000,-44.0,-20.0,43.0,91.4640625,-71.11,3.787191875,34.0
2021-06-29 17:14:29.914062500,-44.0,-20.0,43.0,91.462890625,-78.11500000000001,3.78699171875,34.0
2021-06-29 17:14:29.921875000,-44.0,-20.0,43.0,91.46171875,-85.12,3.7867915625,34.0
2021-06-29 17:14:29.929687500,-44.0,-20.0,43.0,91.460546875,-91.875,3.78659140625,34.0
2021-06-29 17:14:29.937500000,-44.0,-20.0,43.0,91.45937500000001,-98.63,3.7863912500000003,34.0
2021-06-29 17:14:29.945312500,-44.0,-20.0,43.0,91.458203125,-103.555,3.7861910937500003,34.0
2021-06-29 17:14:29.953125000,-44.0,-20.0,43.0,91.45703125,-108.48,3.7859909375000003,34.0
2021-06-29 17:14:29.960937500,-44.0,-20.0,43.0,91.455859375,-109.885,3.7857907812500002,34.0
2021-06-29 17:14:29.968750000,-44.0,-20.0,43.0,91.4546875,-111.29,3.785590625,34.0
2021-06-29 17:14:29.976562500,-44.0,-20.0,43.0,91.45351562500001,-107.96000000000001,3.78539046875,34.0
2021-06-29 17:14:29.984375000,-44.0,-20.0,43.0,91.45234375,-104.63,3.7851903125,34.0
2021-06-29 17:14:29.992187500,-44.0,-20.0,43.0,91.451171875,-96.32,3.78499015625,34.0
2021-06-29 17:14:30.000000000,-44.0,-20.0,43.0,91.45,-88.01,3.78479,34.0
2021-06-29 17:14:30.007812500,-44.0,-20.0,43.0,91.448828125,-75.59,3.7846298750000003,34.0009375
2021-06-29 17:14:30.015625000,-44.0,-20.0,43.0,91.44765625000001,-63.17,3.78446975,34.001875
2021-06-29 17:14:30.023437500,-44.0,-20.0,43.0,91.446484375,-48.36,3.784309625,34.0028125
2021-06-29 17:14:30.031250000,-44.0,-20.0,43.0,91.4453125,-33.55,3.7841495000000003,34.00375
2021-06-29 17:14:30.039062500,-44.0,-20.0,43.0,91.444140625,-18.415,3.783989375,34.0046875
2021-06-29 17:14:30.046875000,-44.0,-20.0,43.0,91.44296875,-3.28,3.78382925,34.005625
2021-06-29 17:14:30.054687500,-44.0,-20.0,43.0,91.44179687500001,10.39,3.7836691250000003,34.0065625
2021-06-29 17:14:30.062500000,-44.0,-20.0,43.0,91.440625,24.06,3.783509,34.0075
2021-06-29 17:14:30.070312500,-44.0,-20.0,43.0,91.439453125,35.12,3.783348875,34.0084375
2021-06-29 17:14:30.078125000,-44.0,-20.0,43.0,91.43828125,46.18,3.7831887500000003,34.009375
2021-06-29 17:14:30.085937500,-44.0,-20.0,43.0,91.437109375,54.21,3.783028625,34.0103125
2021-06-29 17:14:30.093750000,-44.0,-20.0,43.0,91.43593750000001,62.24,3.7828685,34.011250000000004
2021-06-29 17:14:30.101562500,-44.0,-20.0,43.0,91.434765625,67.325,3.7827083750000003,34.0121875
2021-06-29 17:14:30.109375000,-44.0,-20.0,43.0,91.43359375,72.41,3.78254825,34.013125
2021-06-29 17:14:30.117187500,-44.0,-20.0,43.0,91.432421875,74.9,3.782388125,34.0140625
2021-06-29 17:14:30.125000000,-44.0,-20.0,43.0,91.43125,77.39,3.782228,34.015
2021-06-29 17:14:30.132812500,-44.0,-20.0,43.0,91.43007812500001,77.66,3.782067875,34.0159375
2021-06-29 17:14:30.140625000,-44.0,-20.0,43.0,91.42890625,77.93,3.7819077500000002,34.016875
2021-06-29 17:14:30.148437500,-44.0,-20.0,43.0,91.427734375,76.38,3.781747625,34.0178125
2021-06-29 17:14:30.156250000,-44.0,-20.0,43.0,91.4265625,74.83,3.7815875,34.01875
2021-06-29 17:14:30.164062500,-44.0,-20.0,43.0,91.425390625,71.91499999999999,3.7814273750000003,34.0196875
2021-06-29 17:14:30.171875000,-44.0,-20.0,43.0,91.42421875000001,69.0,3.78126725,34.020625
2021-06-29 17:14:30.179687500,-44.0,-20.0,43.0,91.423046875,65.275,3.781107125,34.0215625
2021-06-29 17:14:30.187500000,-44.0,-20.0,43.0,91.421875,61.55,3.7809470000000003,34.0225
2021-06-29 17:14:30.195312500,-44.0,-20.0,43.0,91.420703125,57.655,3.780786875,34.0234375
2021-06-29 17:14:30.203125000,-44.0,-20.0,43.0,91.41953125,53.76,3.78062675,34.024375
2021-06-29 17:14:30.210937500,-44.0,-20.0,43.0,91.41835937500001,50.275,3.7804666250000003,34.0253125
2021-06-29 17:14:30.218750000,-44.0,-20.0,43.0,91.4171875,46.79,3.7803065,34.026250000000005
2021-06-29 17:14:30.226562500,-44.0,-20.0,43.0,91.416015625,44.105000000000004,3.780146375,34.027187500000004
2021-06-29 17:14:30.234375000,-44.0,-20.0,43.0,91.41484375,41.42,3.7799862500000003,34.028125
2021-06-29 17:14:30.242187500,-44.0,-20.0,43.0,91.413671875,39.66,3.779826125,34.0290625
2021-06-29 17:14:30.250000000,-44.0,-20.0,43.0,91.4125,37.9,3.779666,34.03
2021-06-29 17:14:30.257812500,-44.0,-20.0,43.0,91.411328125,36.945,3.77994621875,34.03
2021-06-29 17:14:30.265625000,-44.0,-20.0,43.0,91.41015625,35.99,3.7802264375,34.03
2021-06-29 17:14:30.273437500,-44.0,-20.0,43.0,91.408984375,35.58,3.78050665625,34.03
2021-06-29 17:14:30.281250000,-44.0,-20.0,43.0,91.4078125,35.17,3.780786875,34.03
2021-06-29 17:14:30.289062500,-44.0,-20.0,43.0,91.406640625,35.03,3.78106709375,34.03
2021-06-29 17:14:30.296875000,-44.0,-20.0,43.0,91.40546875,34.89,3.7813473125000003,34.03
2021-06-29 17:14:30.304687500,-44.0,-20.0,43.0,91.404296875,34.81,3.7816275312500003,34.03
2021-06-29 17:14:30.312500000,-44.0,-20.0,43.0,91.403125,34.73,3.7819077500000002,34.03
2021-06-29 17:14:30.320312500,-44.0,-20.0,43.0,91.401953125,34.61,3.78218796875,34.03
2021-06-29 17:14:30.328125000,-44.0,-20.0,43.0,91.40078125,34.49,3.7824681875,34.03
2021-06-29 17:14:30.335937500,-44.0,-20.0,43.0,91.399609375,34.245000000000005,3.78274840625,34.03
2021-06-29 17:14:30.343750000,-44.0,-20.0,43.0,91.3984375,34.0,3.783028625,34.03
2021-06-29 17:14:30.351562500,-44.0,-20.0,43.0,91.397265625,33.519999999999996,3.78330884375,34.03
2021-06-29 17:14:30.359375000,-44.0,-20.0,43.0,91.39609375,33.04,3.7835890625,34.03
2021-06-29 17:14:30.367187500,-44.0,-20.0,43.0,91.394921875,32.135,3.78386928125,34.03
2021-06-29 17:14:30.375000000,-44.0,-20.0,43.0,91.39375,31.23,3.7841495,34.03
2021-06-29 17:14:30.382812500,-44.0,-20.0,43.0,91.392578125,29.665,3.7844297187500002,34.03
2021-06-29 17:14:30.390625000,-44.0,-20.0,43.0,91.39140625,28.1,3.7847099375,34.03
2021-06-29 17:14:30.398437500,-44.0,-20.0,43.0,91.390234375,25.700000000000003,3.78499015625,34.03
2021-06-29 17:14:30.406250000,-44.0,-20.0,43.0,91.3890625,23.3,3.785270375,34.03
2021-06-29 17:14:30.414062500,-44.0,-20.0,43.0,91.387890625,20.04,3.78555059375,34.03
2021-06-29 17:14:30.421875000,-44.0,-20.0,43.0,91.38671875,16.78,3.7858308125,34.03
2021-06-29 17:14:30.429687500,-44.0,-20.0,43.0,91.385546875,12.855,3.78611103125,34.03
2021-06-29 17:14:30.437500000,-44.0,-20.0,43.0,91.384375,8.93,3.78639125,34.03
2021-06-29 17:14:30.445312500,-44.0,-20.0,43.0,91.383203125,4.665,3.78667146875,34.03
2021-06-29 17:14:30.453125000,-44.0,-20.0,43.0,91.38203125,0.4,3.7869516874999998,34.03
2021-06-29 17:14:30.460937500,-44.0,-20.0,43.0,91.380859375,-3.8250000000000006,3.78723190625,34.03
2021-06-29 17:14:30.468750000,-44.0,-20.0,43.0,91.3796875,-8.05,3.787512125,34.03
2021-06-29 17:14:30.476562500,-44.0,-20.0,43.0,91.378515625,-11.96,3.78779234375,34.03
2021-06-29 17:14:30.484375000,-44.0,-20.0,43.0,91.37734375,-15.87,3.7880725625,34.03
2021-06-29 17:14:30.492187500,-44.0,-20.0,43.0,91.376171875,-19.4,3.78835278125,34.03
2021-06-29 17:14:30.500000000,-44.0,-20.0,43.0,91.375,-22.93,3.788633,34.03
2021-06-29 17:14:30.507812500,-44.0,-20.0,43.0,91.373828125,-26.240000000000002,3.78819265625,34.03
2021-06-29 17:14:30.515625000,-44.0,-20.0,43.0,91.37265625,-29.55,3.7877523125,34.03
2021-06-29 17:14:30.523437500,-44.0,-20.0,43.0,91.371484375,-33.0,3.78731196875,34.03
2021-06-29 17:14:30.531250000,-44.0,-20.0,43.0,91.3703125,-36.45,3.786871625,34.03
2021-06-29 17:14:30.539062500,-44.0,-20.0,43.0,91.369140625,-40.465,3.78643128125,34.03
2021-06-29 17:14:30.546875000,-44.0,-20.0,43.0,91.36796875,-44.48,3.7859909375,34.03
2021-06-29 17:14:30.554687500,-44.0,-20.0,43.0,91.366796875,-49.4,3.78555059375,34.03
2021-06-29 17:14:30.562500000,-44.0,-20.0,43.0,91.365625,-54.32,3.78511025,34.03
2021-06-29 17:14:30.570312500,-44.0,-20.0,43.0,91.364453125,-60.144999999999996,3.78466990625,34.03
2021-06-29 17:14:30.578125000,-44.0,-20.0,43.0,91.36328125,-65.97,3.7842295624999998,34.03
2021-06-29 17:14:30.585937500,-44.0,-20.0,43.0,91.362109375,-72.185,3.78378921875,34.03
2021-06-29 17:14:30.593750000,-44.0,-20.0,43.0,91.3609375,-78.4,3.7833488749999997,34.03
2021-06-29 17:14:30.601562500,-44.0,-20.0,43.0,91.359765625,-83.91,3.78290853125,34.03
2021-06-29 17:14:30.609375000,-44.0,-20.0,43.0,91.35859375,-89.42,3.7824681874999997,34.03
2021-06-29 17:14:30.617187500,-44.0,-20.0,43.0,91.357421875,-92.745,3.78202784375,34.03
2021-06-29 17:14:30.625000000,-44.0,-20.0,43.0,91.35625,-96.07,3.7815874999999997,34.03
2021-06-29 17:14:30.632812500,-44.0,-20.0,43.0,91.355078125,-95.75999999999999,3.78114715625,34.03
2021-06-29 17:14:30.640625000,-44.0,-20.0,43.0,91.35390625,-95.45,3.7807068125,34.03
2021-06-29 17:14:30.648437500,-44.0,-20.0,43.0,91.352734375,-90.64,3.78026646875,34.03
2021-06-29 17:14:30.656250000,-44.0,-20.0,43.0,91.3515625,-85.83,3.779826125,34.03
2021-06-29 17:14:30.664062500,-44.0,-20.0,43.0,91.350390625,-76.595,3.77938578125,34.03
2021-06-29 17:14:30.671875000,-44.0,-20.0,43.0,91.34921875,-67.36,3.7789454375,34.03
2021-06-29 17:14:30.679687500,-44.0,-20.0,43.0,91.348046875,-54.8,3.7785050937499998,34.03
2021-06-29 17:14:30.687500000,-44.0,-20.0,43.0,91.346875,-42.24,3.77806475,34.03
2021-06-29 17:14:30.695312500,-44.0,-20.0,43.0,91.345703125,-28.14,3.7776244062499997,34.03
2021-06-29 17:14:30.703125000,-44.0,-20.0,43.0,91.34453125,-14.04,3.7771840625,34.03
2021-06-29 17:14:30.710937500,-44.0,-20.0,43.0,91.343359375,-0.3200000000000003,3.7767437187499997,34.03
2021-06-29 17:14:30.718750000,-44.0,-20.0,43.0,91.3421875,13.4,3.776303375,34.03
2021-06-29 17:14:30.726562500,-44.0,-20.0,43.0,91.341015625,25.230000000000004,3.7758630312499997,34.03
2021-06-29 17:14:30.734375000,-44.0,-20.0,43.0,91.33984375,37.06,3.7754226875,34.03
2021-06-29 17:14:30.742187500,-44.0,-20.0,43.0,91.338671875,46.16,3.7749823437499996,34.03
2021-06-29 17:14:30.750000000,-44.0,-20.0,43.0,91.3375,55.26,3.774542,34.03
2021-06-29 17:14:30.757812500,-44.0,-20.0,43.0,91.336328125,61.42999999999999,3.7743018125,34.03
2021-06-29 17:14:30.765625000,-44.0,-20.0,43.0,91.33515625,67.6,3.774061625,34.03
2021-06-29 17:14:30.773437500,-44.0,-20.0,43.0,91.333984375,70.99,3.7738214374999997,34.03
2021-06-29 17:14:30.781250000,-44.0,-20.0,43.0,91.3328125,74.38,3.77358125,34.03
2021-06-29 17:14:30.789062500,-44.0,-20.0,43.0,91.33164062499999,75.29499999999999,3.7733410625,34.03
2021-06-29 17:14:30.796875000,-44.0,-20.0,43.0,91.33046875,76.21,3.773100875,34.03
2021-06-29 17:14:30.804687500,-44.0,-20.0,43.0,91.329296875,74.925,3.7728606874999997,34.03
2021-06-29 17:14:30.812500000,-44.0,-20.0,43.0,91.328125,73.64,3.7726205,34.03
2021-06-29 17:14:30.820312500,-44.0,-20.0,43.0,91.326953125,70.505,3.7723803125,34.03
2021-06-29 17:14:30.828125000,-44.0,-20.0,43.0,91.32578124999999,67.37,3.772140125,34.03
2021-06-29 17:14:30.835937500,-44.0,-20.0,43.0,91.324609375,62.885000000000005,3.7718999374999997,34.03
2021-06-29 17:14:30.843750000,-44.0,-20.0,43.0,91.3234375,58.4,3.77165975,34.03
2021-06-29 17:14:30.851562500,-44.0,-20.0,43.0,91.322265625,53.25,3.7714195625,34.03
2021-06-29 17:14:30.859375000,-44.0,-20.0,43.0,91.32109375,48.1,3.771179375,34.03
2021-06-29 17:14:30.867187500,-44.0,-20.0,43.0,91.31992187499999,43.05,3.7709391875,34.03
2021-06-29 17:14:30.875000000,-44.0,-20.0,43.0,91.31875,38.0,3.770699,34.03
2021-06-29 17:14:30.882812500,-44.0,-20.0,43.0,91.317578125,33.74,3.7704588125000003,34.03
2021-06-29 17:14:30.890625000,-44.0,-20.0,43.0,91.31640625,29.48,3.770218625,34.03
2021-06-29 17:14:30.898437500,-44.0,-20.0,43.0,91.315234375,26.435000000000002,3.7699784375,34.03
2021-06-29 17:14:30.906250000,-44.0,-20.0,43.0,91.31406249999999,23.39,3.76973825,34.03
2021-06-29 17:14:30.914062500,-44.0,-20.0,43.0,91.312890625,21.675,3.7694980625000003,34.03
2021-06-29 17:14:30.921875000,-44.0,-20.0,43.0,91.31171875,19.96,3.769257875,34.03
2021-06-29 17:14:30.929687500,-44.0,-20.0,43.0,91.310546875,19.380000000000003,3.7690176875,34.03
2021-06-29 17:14:30.937500000,-44.0,-20.0,43.0,91.309375,18.8,3.7687775,34.03
2021-06-29 17:14:30.945312500,-44.0,-20.0,43.0,91.30820312499999,18.995,3.7685373125000003,34.03
2021-06-29 17:14:30.953125000,-44.0,-20.0,43.0,91.30703125,19.19,3.768297125,34.03
2021-06-29 17:14:30.960937500,-44.0,-20.0,43.0,91.305859375,19.775,3.7680569375,34.03
2021-06-29 17:14:30.968750000,-44.0,-20.0,43.0,91.3046875,20.36,3.76781675,34.03
2021-06-29 17:14:30.976562500,-44.0,-20.0,43.0,91.303515625,20.975,3.7675765625000004,34.03
2021-06-29 17:14:30.984375000,-44.0,-20.0,43.0,91.30234374999999,21.59,3.767336375,34.03
2021-06-29 17:14:30.992187500,-44.0,-20.0,43.0,91.301171875,21.97,3.7670961875,34.03
2021-06-29 17:14:31.000000000,-44.0,-20.0,43.0,91.3,22.35,3.766856,34.03
2021-06-29 17:14:31.007812500,-44.0,-20.0,43.0,91.298828125,22.275,3.767016125,34.02875
2021-06-29 17:14:31.015625000,-44.0,-20.0,43.0,91.29765625,22.2,3.7671762500000003,34.0275
2021-06-29 17:14:31.023437500,-44.0,-20.0,43.0,91.29648437499999,21.5,3.767336375,34.026250000000005
2021-06-29 17:14:31.031250000,-44.0,-20.0,43.0,91.2953125,20.8,3.7674965,34.025
2021-06-29 17:14:31.039062500,-44.0,-20.25,43.0,91.294140625,19.355,3.7676566250000003,34.02375
2021-06-29 17:14:31.046875000,-44.0,-20.5,43.0,91.29296875,17.91,3.76781675,34.0225
2021-06-29 17:14:31.054687500,-44.0,-20.75,43.0,91.291796875,15.695,3.767976875,34.02125
2021-06-29 17:14:31.062500000,-44.0,-21.0,43.0,91.29062499999999,13.48,3.7681370000000003,34.02
2021-06-29 17:14:31.070312500,-44.0,-20.75,43.0,91.289453125,10.575,3.768297125,34.018750000000004
2021-06-29 17:14:31.078125000,-44.0,-20.5,43.0,91.28828125,7.67,3.76845725,34.0175
2021-06-29 17:14:31.085937500,-44.0,-20.25,43.0,91.287109375,4.245,3.7686173750000003,34.01625
2021-06-29 17:14:31.093750000,-44.0,-20.0,43.0,91.2859375,0.82,3.7687775,34.015
2021-06-29 17:14:31.101562500,-44.0,-20.0,43.0,91.28476562499999,-2.89,3.768937625,34.01375
2021-06-29 17:14:31.109375000,-44.0,-20.0,43.0,91.28359375,-6.6,3.7690977500000002,34.0125
2021-06-29 17:14:31.117187500,-44.0,-20.0,43.0,91.282421875,-10.379999999999999,3.769257875,34.011250000000004
2021-06-29 17:14:31.125000000,-44.0,-20.0,43.0,91.28125,-14.16,3.769418,34.010000000000005
2021-06-29 17:14:31.132812500,-44.0,-20.0,43.0,91.280078125,-17.884999999999998,3.7695781250000002,34.00875
2021-06-29 17:14:31.140625000,-44.0,-20.0,43.0,91.27890624999999,-21.61,3.76973825,34.0075
2021-06-29 17:14:31.148437500,-44.0,-20.0,43.0,91.277734375,-25.265,3.7698983750000004,34.00625
2021-06-29 17:14:31.156250000,-44.0,-20.0,43.0,91.2765625,-28.92,3.7700585,34.005
2021-06-29 17:14:31.164062500,-44.0,-20.0,43.0,91.275390625,-32.644999999999996,3.770218625,34.003750000000004
2021-06-29 17:14:31.171875000,-44.0,-20.0,43.0,91.27421875,-36.37,3.7703787500000003,34.002500000000005
2021-06-29 17:14:31.179687500,-44.0,-20.0,43.0,91.273046875,-40.415,3.770538875,34.00125
2021-06-29 17:14:31.187500000,-44.0,-20.0,43.0,91.271875,-44.46,3.770699,34.0
2021-06-29 17:14:31.195312500,-44.0,-20.0,43.0,91.270703125,-49.135000000000005,3.7708591250000003,33.99875
2021-06-29 17:14:31.203125000,-44.0,-20.0,43.0,91.26953125,-53.81,3.77101925,33.9975
2021-06-29 17:14:31.210937500,-44.0,-20.0,43.0,91.268359375,-59.285000000000004,3.771179375,33.99625
2021-06-29 17:14:31.218750000,-44.0,-20.0,43.0,91.2671875,-64.76,3.7713395000000003,33.995000000000005
2021-06-29 17:14:31.226562500,-44.0,-20.0,43.0,91.266015625,-70.86,3.771499625,33.99375
2021-06-29 17:14:31.234375000,-44.0,-20.0,43.0,91.26484375,-76.96,3.77165975,33.9925
2021-06-29 17:14:31.242187500,-44.0,-20.0,43.0,91.263671875,-82.94999999999999,3.7718198750000003,33.99125
2021-06-29 17:14:31.250000000,-44.0,-20.0,43.0,91.2625,-88.94,3.77198,33.99
2021-06-29 17:14:31.257812500,-44.0,-20.0,43.0,91.261328125,-93.565,3.7718198750000003,33.99
2021-06-29 17:14:31.265625000,-44.0,-20.0,43.0,91.26015625,-98.19,3.77165975,33.99
2021-06-29 17:14:31.273437500,-44.0,-20.0,43.0,91.258984375,-99.94999999999999,3.771499625,33.99
2021-06-29 17:14:31.281250000,-44.0,-20.0,43.0,91.2578125,-101.71,3.7713395000000003,33.99
2021-06-29 17:14:31.289062500,-44.0,-20.0,43.0,91.256640625,-99.33,3.771179375,33.99
2021-06-29 17:14:31.296875000,-44.0,-20.0,43.0,91.25546875,-96.95,3.77101925,33.99
2021-06-29 17:14:31.304687500,-44.0,-20.0,43.0,91.254296875,-89.92,3.7708591250000003,33.99
2021-06-29 17:14:31.312500000,-44.0,-20.0,43.0,91.253125,-82.89,3.770699,33.99
2021-06-29 17:14:31.320312500,-44.0,-20.0,43.0,91.251953125,-71.74000000000001,3.770538875,33.99
2021-06-29 17:14:31.328125000,-44.0,-20.0,43.0,91.25078125,-60.59,3.7703787500000003,33.99
2021-06-29 17:14:31.335937500,-44.0,-20.0,43.0,91.249609375,-46.790000000000006,3.770218625,33.99
2021-06-29 17:14:31.343750000,-44.0,-20.0,43.0,91.2484375,-32.99,3.7700585,33.99
2021-06-29 17:14:31.351562500,-44.0,-20.0,43.0,91.247265625,-18.490000000000002,3.7698983750000004,33.99
2021-06-29 17:14:31.359375000,-44.0,-20.0,43.0,91.24609375,-3.99,3.76973825,33.99
2021-06-29 17:14:31.367187500,-44.0,-20.0,43.0,91.244921875,9.360000000000001,3.7695781250000002,33.99
2021-06-29 17:14:31.375000000,-44.0,-20.0,43.0,91.24375,22.71,3.769418,33.99
2021-06-29 17:14:31.382812500,-44.0,-20.0,43.0,91.242578125,33.64,3.769257875,33.99
2021-06-29 17:14:31.390625000,-44.0,-20.0,43.0,91.24140625,44.57,3.7690977500000002,33.99
2021-06-29 17:14:31.398437500,-44.0,-20.0,43.0,91.240234375,52.510000000000005,3.768937625,33.99
2021-06-29 17:14:31.406250000,-44.0,-20.0,43.0,91.2390625,60.45,3.7687775,33.99
2021-06-29 17:14:31.414062500,-44.0,-20.0,43.0,91.237890625,65.43,3.7686173750000003,33.99
2021-06-29 17:14:31.421875000,-44.0,-20.0,43.0,91.23671875,70.41,3.76845725,33.99
2021-06-29 17:14:31.429687500,-44.0,-20.0,43.0,91.235546875,72.745,3.768297125,33.99
2021-06-29 17:14:31.437500000,-44.0,-20.0,43.0,91.234375,75.08,3.7681370000000003,33.99
2021-06-29 17:14:31.445312500,-44.0,-20.0,43.0,91.233203125,75.15,3.767976875,33.99
2021-06-29 17:14:31.453125000,-44.0,-20.0,43.0,91.23203125,75.22,3.76781675,33.99
2021-06-29 17:14:31.460937500,-44.0,-20.0,43.0,91.230859375,73.39,3.7676566250000003,33.99
2021-06-29 17:14:31.468750000,-44.0,-20.0,43.0,91.2296875,71.56,3.7674965,33.99
2021-06-29 17:14:31.476562500,-44.0,-20.0,43.0,91.228515625,68.22,3.767336375,33.99
2021-06-29 17:14:31.484375000,-44.0,-20.0,43.0,91.22734375,64.88,3.7671762500000003,33.99
2021-06-29 17:14:31.492187500,-44.0,-20.0,43.0,91.226171875,60.575,3.767016125,33.99
2021-06-29 17:14:31.500000000,-44.0,-20.0,43.0,91.225,56.27,3.766856,33.99
2021-06-29 17:14:31.507812500,-44.0,-20.0,43.0,91.223828125,51.685,3.76673590625,33.99
2021-06-29 17:14:31.515625000,-44.0,-20.0,43.0,91.22265625,47.1,3.7666158125,33.99
2021-06-29 17:14:31.523437500,-44.0,-20.0,43.0,91.221484375,42.93,3.7664957187500003,33.99
2021-06-29 17:14:31.531250000,-44.0,-20.0,43.0,91.2203125,38.76,3.7663756250000002,33.99
2021-06-29 17:14:31.539062500,-44.0,-20.0,43.0,91.21914062500001,35.525,3.76625553125,33.99
2021-06-29 17:14:31.546875000,-44.0,-20.0,43.0,91.21796875,32.29,3.7661354375,33.99
2021-06-29 17:14:31.554687500,-44.0,-20.0,43.0,91.216796875,30.21,3.7660153437500004,33.99
2021-06-29 17:14:31.562500000,-44.0,-20.0,43.0,91.215625,28.13,3.7658952500000002,33.99
2021-06-29 17:14:31.570312500,-44.0,-20.0,43.0,91.214453125,27.07,3.76577515625,33.99
2021-06-29 17:14:31.578125000,-44.0,-20.0,43.0,91.21328125000001,26.01,3.7656550625,33.99
2021-06-29 17:14:31.585937500,-44.0,-20.0,43.0,91.212109375,25.605,3.76553496875,33.99
2021-06-29 17:14:31.593750000,-44.0,-20.0,43.0,91.2109375,25.2,3.7654148750000003,33.99
2021-06-29 17:14:31.601562500,-44.0,-20.0,43.0,91.209765625,25.064999999999998,3.76529478125,33.99
2021-06-29 17:14:31.609375000,-44.0,-20.0,43.0,91.20859375,24.93,3.7651746875,33.99
2021-06-29 17:14:31.617187500,-44.0,-20.0,43.0,91.20742187500001,24.82,3.76505459375,33.99
2021-06-29 17:14:31.625000000,-44.0,-20.0,43.0,91.20625,24.71,3.7649345,33.99
2021-06-29 17:14:31.632812500,-44.0,-20.0,43.0,91.205078125,24.55,3.76481440625,33.99
2021-06-29 17:14:31.640625000,-44.0,-20.0,43.0,91.20390625,24.39,3.7646943125,33.99
2021-06-29 17:14:31.648437500,-44.0,-20.0,43.0,91.202734375,24.21,3.76457421875,33.99
2021-06-29 17:14:31.656250000,-44.0,-20.0,43.0,91.20156250000001,24.03,3.764454125,33.99
2021-06-29 17:14:31.664062500,-44.0,-20.0,43.0,91.200390625,23.795,3.76433403125,33.99
2021-06-29 17:14:31.671875000,-44.0,-20.0,43.0,91.19921875,23.56,3.7642139375,33.99
2021-06-29 17:14:31.679687500,-44.0,-20.0,43.0,91.198046875,23.045,3.76409384375,33.99
2021-06-29 17:14:31.687500000,-44.0,-20.0,43.0,91.196875,22.53,3.76397375,33.99
2021-06-29 17:14:31.695312500,-44.0,-20.0,43.0,91.19570312500001,21.405,3.76385365625,33.99
2021-06-29 17:14:31.703125000,-44.0,-20.0,43.0,91.19453125,20.28,3.7637335625,33.99
2021-06-29 17:14:31.710937500,-44.0,-20.0,43.0,91.193359375,18.225,3.76361346875,33.99
2021-06-29 17:14:31.718750000,-44.0,-20.0,43.0,91.1921875,16.17,3.763493375,33.99
2021-06-29 17:14:31.726562500,-44.0,-20.0,43.0,91.191015625,13.07,3.76337328125,33.99
2021-06-29 17:14:31.734375000,-44.0,-20.0,43.0,91.18984375000001,9.97,3.7632531875,33.99
2021-06-29 17:14:31.742187500,-44.0,-20.0,43.0,91.188671875,6.025,3.76313309375,33.99
2021-06-29 17:14:31.750000000,-44.0,-20.0,43.0,91.1875,2.08,3.763013,33.99
2021-06-29 17:14:31.757812500,-44.0,-20.0,43.0,91.186328125,-2.2799999999999994,3.762532625,33.99
2021-06-29 17:14:31.765625000,-44.0,-20.0,43.0,91.18515625,-6.64,3.76205225,33.99
2021-06-29 17:14:31.773437500,-44.0,-20.0,43.0,91.18398437500001,-10.91,3.761571875,33.99
2021-06-29 17:14:31.781250000,-44.0,-20.0,43.0,91.1828125,-15.18,3.7610915,33.99
2021-06-29 17:14:31.789062500,-44.0,-20.0,43.0,91.181640625,-19.009999999999998,3.760611125,33.99
2021-06-29 17:14:31.796875000,-44.0,-20.0,43.0,91.18046875,-22.84,3.76013075,33.99
2021-06-29 17:14:31.804687500,-44.0,-20.0,43.0,91.179296875,-26.14,3.759650375,33.99
2021-06-29 17:14:31.812500000,-44.0,-20.0,43.0,91.17812500000001,-29.44,3.75917,33.99
2021-06-29 17:14:31.820312500,-44.0,-20.0,43.0,91.176953125,-32.435,3.7586896249999997,33.99
2021-06-29 17:14:31.828125000,-44.0,-20.0,43.0,91.17578125,-35.43,3.7582092499999997,33.99
2021-06-29 17:14:31.835937500,-44.0,-20.0,43.0,91.174609375,-38.555,3.7577288749999997,33.99
2021-06-29 17:14:31.843750000,-44.0,-20.0,43.0,91.1734375,-41.68,3.7572484999999998,33.99
2021-06-29 17:14:31.851562500,-44.0,-20.0,43.0,91.17226562500001,-45.435,3.756768125,33.99
2021-06-29 17:14:31.859375000,-44.0,-20.0,43.0,91.17109375000001,-49.19,3.75628775,33.99
2021-06-29 17:14:31.867187500,-44.0,-20.0,43.0,91.169921875,-53.959999999999994,3.755807375,33.99
2021-06-29 17:14:31.875000000,-44.0,-20.0,43.0,91.16875,-58.73,3.755327,33.99
2021-06-29 17:14:31.882812500,-44.0,-20.0,43.0,91.167578125,-64.595,3.754846625,33.99
2021-06-29 17:14:31.890625000,-44.0,-20.0,43.0,91.16640625000001,-70.46,3.75436625,33.99
