TimeStamp,empatica.acc.x,empatica.acc.y,empatica.acc.z,empatica.hr,empatica.bvp,empatica.eda,empatica.temp
2021-07-07 11:03:51.203125000,-54.5,-24.5,-26.5,80.24906250000001,-35.57,13.3138335,34.58625
2021-07-07 11:03:51.210937500,-54.25,-24.75,-26.75,80.25171875000001,-42.57,13.31471425,34.586875000000006
2021-07-07 11:03:51.218750000,-54.0,-25.0,-27.0,80.25437500000001,-49.57,13.315595,34.587500000000006
2021-07-07 11:03:51.226562500,-53.75,-24.75,-27.0,80.25703125000001,-54.965,13.31647575,34.588125000000005
2021-07-07 11:03:51.234375000,-53.5,-24.5,-27.0,80.2596875,-60.36,13.317356499999999,34.588750000000005
2021-07-07 11:03:51.242187500,-53.25,-24.25,-27.0,80.26234375,-62.695,13.31823725,34.589375000000004
2021-07-07 11:03:51.250000000,-53.0,-24.0,-27.0,80.265,-65.03,13.319118,34.59
2021-07-07 11:03:51.257812500,-53.25,-24.0,-27.5,80.26765625,-63.93,13.313633281249999,34.59
2021-07-07 11:03:51.265625000,-53.5,-24.0,-28.0,80.2703125,-62.83,13.3081485625,34.59
2021-07-07 11:03:51.273437500,-53.75,-24.0,-28.5,80.27296875,-59.165,13.30266384375,34.59
2021-07-07 11:03:51.281250000,-54.0,-24.0,-29.0,80.275625,-55.5,13.297179125,34.59
2021-07-07 11:03:51.289062500,-54.0,-24.0,-29.5,80.27828125,-50.86,13.291694406249999,34.59
2021-07-07 11:03:51.296875000,-54.0,-24.0,-30.0,80.28093750000001,-46.22,13.2862096875,34.59
2021-07-07 11:03:51.304687500,-54.0,-24.0,-30.5,80.28359375000001,-42.09,13.28072496875,34.59
2021-07-07 11:03:51.312500000,-54.0,-24.0,-31.0,80.28625000000001,-37.96,13.27524025,34.59
2021-07-07 11:03:51.320312500,-54.75,-25.0,-31.5,80.28890625,-35.05,13.269755531249999,34.59
2021-07-07 11:03:51.328125000,-55.5,-26.0,-32.0,80.2915625,-32.14,13.2642708125,34.59
2021-07-07 11:03:51.335937500,-56.25,-27.0,-32.5,80.29421875,-30.325000000000003,13.25878609375,34.59
2021-07-07 11:03:51.343750000,-57.0,-28.0,-33.0,80.296875,-28.51,13.253301375,34.59
2021-07-07 11:03:51.351562500,-62.25,-28.5,-37.0,80.29953125,-27.18,13.247816656249999,34.59
2021-07-07 11:03:51.359375000,-67.5,-29.0,-41.0,80.3021875,-25.85,13.2423319375,34.59
2021-07-07 11:03:51.367187500,-72.75,-29.5,-45.0,80.30484375,-24.380000000000003,13.23684721875,34.59
2021-07-07 11:03:51.375000000,-78.0,-30.0,-49.0,80.3075,-22.91,13.2313625,34.59
2021-07-07 11:03:51.382812500,-74.75,-29.75,-46.0,80.31015625,-21.025,13.225877781249999,34.59
2021-07-07 11:03:51.390625000,-71.5,-29.5,-43.0,80.3128125,-19.14,13.2203930625,34.59
2021-07-07 11:03:51.398437500,-68.25,-29.25,-40.0,80.31546875000001,-16.97,13.21490834375,34.59
2021-07-07 11:03:51.406250000,-65.0,-29.0,-37.0,80.31812500000001,-14.8,13.209423625,34.59
2021-07-07 11:03:51.414062500,-63.0,-23.75,-34.5,80.32078125,-12.73,13.203938906249999,34.59
2021-07-07 11:03:51.421875000,-61.0,-18.5,-32.0,80.3234375,-10.66,13.1984541875,34.59
2021-07-07 11:03:51.429687500,-59.0,-13.25,-29.5,80.32609375,-9.129999999999999,13.19296946875,34.59
2021-07-07 11:03:51.437500000,-57.0,-8.0,-27.0,80.32875,-7.6,13.18748475,34.59
2021-07-07 11:03:51.445312500,-58.0,-8.75,-27.25,80.33140625,-6.91,13.182000031249999,34.59
2021-07-07 11:03:51.453125000,-59.0,-9.5,-27.5,80.3340625,-6.22,13.1765153125,34.59
2021-07-07 11:03:51.460937500,-60.0,-10.25,-27.75,80.33671875,-6.385,13.17103059375,34.59
2021-07-07 11:03:51.468750000,-61.0,-11.0,-28.0,80.339375,-6.55,13.165545875,34.59
2021-07-07 11:03:51.476562500,-60.0,-10.75,-26.5,80.34203125,-7.3149999999999995,13.160061156249999,34.59
2021-07-07 11:03:51.484375000,-59.0,-10.5,-25.0,80.3446875,-8.08,13.1545764375,34.59
2021-07-07 11:03:51.492187500,-58.0,-10.25,-23.5,80.34734375000001,-9.01,13.14909171875,34.59
2021-07-07 11:03:51.500000000,-57.0,-10.0,-22.0,80.35,-9.94,13.143607,34.59
2021-07-07 11:03:51.507812500,-58.5,-10.5,-22.0,80.35265625,-10.535,13.1439673125,34.59
2021-07-07 11:03:51.515625000,-60.0,-11.0,-22.0,80.3553125,-11.13,13.144327624999999,34.59
2021-07-07 11:03:51.523437500,-61.5,-11.5,-22.0,80.35796875,-11.030000000000001,13.144687937499999,34.59
2021-07-07 11:03:51.531250000,-63.0,-12.0,-22.0,80.360625,-10.93,13.145048249999999,34.59
2021-07-07 11:03:51.539062500,-62.25,-12.5,-21.5,80.36328125,-10.045,13.1454085625,34.59
2021-07-07 11:03:51.546875000,-61.5,-13.0,-21.0,80.3659375,-9.16,13.145768875,34.59
2021-07-07 11:03:51.554687500,-60.75,-13.5,-20.5,80.36859375,-7.720000000000001,13.1461291875,34.59
2021-07-07 11:03:51.562500000,-60.0,-14.0,-20.0,80.37125,-6.28,13.1464895,34.59
2021-07-07 11:03:51.570312500,-59.75,-13.5,-20.25,80.37390625,-4.735,13.1468498125,34.59
2021-07-07 11:03:51.578125000,-59.5,-13.0,-20.5,80.3765625,-3.19,13.147210124999999,34.59
2021-07-07 11:03:51.585937500,-59.25,-12.5,-20.75,80.37921875,-1.9449999999999998,13.147570437499999,34.59
2021-07-07 11:03:51.593750000,-59.0,-12.0,-21.0,80.381875,-0.7,13.14793075,34.59
2021-07-07 11:03:51.601562500,-58.0,-11.75,-18.75,80.38453125,0.17000000000000004,13.1482910625,34.59
2021-07-07 11:03:51.609375000,-57.0,-11.5,-16.5,80.3871875,1.04,13.148651375,34.59
2021-07-07 11:03:51.617187500,-56.0,-11.25,-14.25,80.38984375,1.815,13.1490116875,34.59
2021-07-07 11:03:51.625000000,-55.0,-11.0,-12.0,80.3925,2.59,13.149372,34.59
2021-07-07 11:03:51.632812500,-55.0,-11.5,-11.0,80.39515625,3.745,13.1497323125,34.59
2021-07-07 11:03:51.640625000,-55.0,-12.0,-10.0,80.3978125,4.9,13.150092625,34.59
2021-07-07 11:03:51.648437500,-55.0,-12.5,-9.0,80.40046875,6.84,13.150452937499999,34.59
2021-07-07 11:03:51.656250000,-55.0,-13.0,-8.0,80.403125,8.78,13.150813249999999,34.59
2021-07-07 11:03:51.664062500,-52.5,-13.0,-6.5,80.40578125,11.68,13.1511735625,34.59
2021-07-07 11:03:51.671875000,-50.0,-13.0,-5.0,80.4084375,14.58,13.151533875,34.59
2021-07-07 11:03:51.679687500,-47.5,-13.0,-3.5,80.41109375,18.26,13.1518941875,34.59
2021-07-07 11:03:51.687500000,-45.0,-13.0,-2.0,80.41375,21.94,13.1522545,34.59
2021-07-07 11:03:51.695312500,-44.0,-12.75,-0.5,80.41640625,25.89,13.1526148125,34.59
2021-07-07 11:03:51.703125000,-43.0,-12.5,1.0,80.4190625,29.84,13.152975125,34.59
2021-07-07 11:03:51.710937500,-42.0,-12.25,2.5,80.42171875,33.28,13.1533354375,34.59
2021-07-07 11:03:51.718750000,-41.0,-12.0,4.0,80.424375,36.72,13.15369575,34.59
2021-07-07 11:03:51.726562500,-41.0,-11.75,5.25,80.42703125,38.769999999999996,13.1540560625,34.59
2021-07-07 11:03:51.734375000,-41.0,-11.5,6.5,80.4296875,40.82,13.154416375,34.59
2021-07-07 11:03:51.742187500,-41.0,-11.25,7.75,80.43234375,40.75,13.1547766875,34.59
2021-07-07 11:03:51.750000000,-41.0,-11.0,9.0,80.435,40.68,13.155137,34.59
2021-07-07 11:03:51.757812500,-40.0,-11.5,10.75,80.43765625,37.925,13.1582596875,34.59
2021-07-07 11:03:51.765625000,-39.0,-12.0,12.5,80.4403125,35.17,13.161382375,34.59
2021-07-07 11:03:51.773437500,-38.0,-12.5,14.25,80.44296874999999,29.37,13.1645050625,34.59
2021-07-07 11:03:51.781250000,-37.0,-13.0,16.0,80.44562499999999,23.57,13.16762775,34.59
2021-07-07 11:03:51.789062500,-37.0,-13.0,16.75,80.44828125,14.935,13.1707504375,34.59
2021-07-07 11:03:51.796875000,-37.0,-13.0,17.5,80.4509375,6.3,13.173873125,34.59
2021-07-07 11:03:51.804687500,-37.0,-13.0,18.25,80.45359375,-3.8999999999999995,13.1769958125,34.59
2021-07-07 11:03:51.812500000,-37.0,-13.0,19.0,80.45625,-14.1,13.180118499999999,34.59
2021-07-07 11:03:51.820312500,-46.0,-12.75,17.5,80.45890625,-23.46,13.1832411875,34.59
2021-07-07 11:03:51.828125000,-55.0,-12.5,16.0,80.4615625,-32.82,13.186363875,34.59
2021-07-07 11:03:51.835937500,-64.0,-12.25,14.5,80.46421875,-38.315,13.189486562499999,34.59
2021-07-07 11:03:51.843750000,-73.0,-12.0,13.0,80.466875,-43.81,13.19260925,34.59
2021-07-07 11:03:51.851562500,-82.0,-14.0,9.75,80.46953125,-42.925,13.1957319375,34.59
2021-07-07 11:03:51.859375000,-91.0,-16.0,6.5,80.4721875,-42.04,13.198854625,34.59
2021-07-07 11:03:51.867187500,-100.0,-18.0,3.25,80.47484374999999,-33.925,13.2019773125,34.59
2021-07-07 11:03:51.875000000,-109.0,-20.0,0.0,80.47749999999999,-25.81,13.2051,34.59
2021-07-07 11:03:51.882812500,-102.5,-22.0,-1.0,80.48015625,-11.559999999999999,13.2082226875,34.59
2021-07-07 11:03:51.890625000,-96.0,-24.0,-2.0,80.4828125,2.69,13.211345375,34.59
2021-07-07 11:03:51.898437500,-89.5,-26.0,-3.0,80.48546875,20.090000000000003,13.2144680625,34.59
2021-07-07 11:03:51.906250000,-83.0,-28.0,-4.0,80.488125,37.49,13.21759075,34.59
2021-07-07 11:03:51.914062500,-79.5,-27.0,-3.75,80.49078125,53.885000000000005,13.2207134375,34.59
2021-07-07 11:03:51.921875000,-76.0,-26.0,-3.5,80.4934375,70.28,13.223836125,34.59
2021-07-07 11:03:51.929687500,-72.5,-25.0,-3.25,80.49609375,81.845,13.2269588125,34.59
2021-07-07 11:03:51.937500000,-69.0,-24.0,-3.0,80.49875,93.41,13.2300815,34.59
2021-07-07 11:03:51.945312500,-64.0,-23.25,0.25,80.50140625,97.99,13.2332041875,34.59
2021-07-07 11:03:51.953125000,-59.0,-22.5,3.5,80.5040625,102.57,13.236326875,34.59
2021-07-07 11:03:51.960937500,-54.0,-21.75,6.75,80.50671874999999,100.025,13.239449562499999,34.59
2021-07-07 11:03:51.968750000,-49.0,-21.0,10.0,80.50937499999999,97.48,13.24257225,34.59
2021-07-07 11:03:51.976562500,-52.0,-21.5,8.5,80.51203124999999,89.15,13.2456949375,34.59
2021-07-07 11:03:51.984375000,-55.0,-22.0,7.0,80.5146875,80.82,13.248817625,34.59
2021-07-07 11:03:51.992187500,-58.0,-22.5,5.5,80.51734375,68.58,13.2519403125,34.59
2021-07-07 11:03:52.000000000,-61.0,-23.0,4.0,80.52,56.34,13.255063,34.59
2021-07-07 11:03:52.007812500,-60.75,-23.0,3.75,80.522734375,41.93,13.25634409375,34.59
2021-07-07 11:03:52.015625000,-60.5,-23.0,3.5,80.52546875,27.52,13.2576251875,34.59
2021-07-07 11:03:52.023437500,-60.25,-23.0,3.25,80.52820312499999,12.9,13.25890628125,34.59
2021-07-07 11:03:52.031250000,-60.0,-23.0,3.0,80.5309375,-1.72,13.260187375,34.59
2021-07-07 11:03:52.039062500,-60.5,-22.75,3.0,80.533671875,-14.81,13.26146846875,34.59
2021-07-07 11:03:52.046875000,-61.0,-22.5,3.0,80.53640625,-27.9,13.2627495625,34.59
2021-07-07 11:03:52.054687500,-61.5,-22.25,3.0,80.539140625,-38.519999999999996,13.26403065625,34.59
2021-07-07 11:03:52.062500000,-62.0,-22.0,3.0,80.54187499999999,-49.14,13.26531175,34.59
2021-07-07 11:03:52.070312500,-62.25,-22.25,3.0,80.544609375,-57.205,13.26659284375,34.59
2021-07-07 11:03:52.078125000,-62.5,-22.5,3.0,80.54734375,-65.27,13.2678739375,34.59
2021-07-07 11:03:52.085937500,-62.75,-22.75,3.0,80.550078125,-71.305,13.26915503125,34.59
2021-07-07 11:03:52.093750000,-63.0,-23.0,3.0,80.5528125,-77.34,13.270436125,34.59
2021-07-07 11:03:52.101562500,-63.25,-23.0,3.25,80.55554687499999,-82.355,13.27171721875,34.59
2021-07-07 11:03:52.109375000,-63.5,-23.0,3.5,80.55828125,-87.37,13.2729983125,34.59
2021-07-07 11:03:52.117187500,-63.75,-23.0,3.75,80.561015625,-92.605,13.27427940625,34.59
2021-07-07 11:03:52.125000000,-64.0,-23.0,4.0,80.56375,-97.84,13.275560500000001,34.59
2021-07-07 11:03:52.132812500,-63.75,-22.75,4.25,80.566484375,-104.25,13.27684159375,34.59
2021-07-07 11:03:52.140625000,-63.5,-22.5,4.5,80.56921874999999,-110.66,13.2781226875,34.59
2021-07-07 11:03:52.148437500,-63.25,-22.25,4.75,80.571953125,-118.395,13.27940378125,34.59
2021-07-07 11:03:52.156250000,-63.0,-22.0,5.0,80.5746875,-126.13,13.280684875,34.59
2021-07-07 11:03:52.164062500,-62.25,-21.75,4.5,80.577421875,-133.39,13.28196596875,34.59
2021-07-07 11:03:52.171875000,-61.5,-21.5,4.0,80.58015625,-140.65,13.283247062500001,34.59
2021-07-07 11:03:52.179687500,-60.75,-21.25,3.5,80.582890625,-144.39,13.28452815625,34.59
2021-07-07 11:03:52.187500000,-60.0,-21.0,3.0,80.585625,-148.13,13.28580925,34.59
2021-07-07 11:03:52.195312500,-60.0,-20.75,2.5,80.588359375,-145.47,13.28709034375,34.59
2021-07-07 11:03:52.203125000,-60.0,-20.5,2.0,80.59109375,-142.81,13.2883714375,34.59
2021-07-07 11:03:52.210937500,-60.0,-20.25,1.5,80.593828125,-131.925,13.28965253125,34.59
2021-07-07 11:03:52.218750000,-60.0,-20.0,1.0,80.5965625,-121.04,13.290933625000001,34.59
2021-07-07 11:03:52.226562500,-60.25,-20.25,0.0,80.599296875,-101.545,13.29221471875,34.59
2021-07-07 11:03:52.234375000,-60.5,-20.5,-1.0,80.60203125,-82.05,13.2934958125,34.59
2021-07-07 11:03:52.242187500,-60.75,-20.75,-2.0,80.604765625,-55.37,13.29477690625,34.59
2021-07-07 11:03:52.250000000,-61.0,-21.0,-3.0,80.6075,-28.69,13.296058,34.59
2021-07-07 11:03:52.257812500,-61.0,-21.25,-3.0,80.610234375,1.8749999999999964,13.292935312500001,34.59
2021-07-07 11:03:52.265625000,-61.0,-21.5,-3.0,80.61296875,32.44,13.289812625,34.59
2021-07-07 11:03:52.273437500,-61.0,-21.75,-3.0,80.615703125,62.89,13.2866899375,34.59
2021-07-07 11:03:52.281250000,-61.0,-22.0,-3.0,80.6184375,93.34,13.28356725,34.59
2021-07-07 11:03:52.289062500,-61.5,-22.25,-3.0,80.621171875,115.43,13.2804445625,34.59
2021-07-07 11:03:52.296875000,-62.0,-22.5,-3.0,80.62390625,137.52,13.277321875,34.59
2021-07-07 11:03:52.304687500,-62.5,-22.75,-3.0,80.626640625,145.04000000000002,13.2741991875,34.59
2021-07-07 11:03:52.312500000,-63.0,-23.0,-3.0,80.629375,152.56,13.2710765,34.59
2021-07-07 11:03:52.320312500,-62.25,-23.0,-2.5,80.632109375,146.35,13.2679538125,34.59
2021-07-07 11:03:52.328125000,-61.5,-23.0,-2.0,80.63484375,140.14,13.264831125,34.59
2021-07-07 11:03:52.335937500,-60.75,-23.0,-1.5,80.637578125,126.195,13.261708437500001,34.59
2021-07-07 11:03:52.343750000,-60.0,-23.0,-1.0,80.6403125,112.25,13.25858575,34.59
2021-07-07 11:03:52.351562500,-60.25,-23.25,-1.25,80.643046875,96.715,13.2554630625,34.59
2021-07-07 11:03:52.359375000,-60.5,-23.5,-1.5,80.64578125,81.18,13.252340375000001,34.59
2021-07-07 11:03:52.367187500,-60.75,-23.75,-1.75,80.648515625,67.685,13.2492176875,34.59
2021-07-07 11:03:52.375000000,-61.0,-24.0,-2.0,80.65125,54.19,13.246095,34.59
2021-07-07 11:03:52.382812500,-60.75,-23.75,-2.0,80.653984375,43.775,13.242972312500001,34.59
2021-07-07 11:03:52.390625000,-60.5,-23.5,-2.0,80.65671875,33.36,13.239849625,34.59
2021-07-07 11:03:52.398437500,-60.25,-23.25,-2.0,80.659453125,25.48,13.2367269375,34.59
2021-07-07 11:03:52.406250000,-60.0,-23.0,-2.0,80.6621875,17.6,13.23360425,34.59
2021-07-07 11:03:52.414062500,-60.0,-22.75,-2.0,80.664921875,11.420000000000002,13.2304815625,34.59
2021-07-07 11:03:52.421875000,-60.0,-22.5,-2.0,80.66765625,5.24,13.227358875,34.59
2021-07-07 11:03:52.429687500,-60.0,-22.25,-2.0,80.670390625,0.2549999999999999,13.2242361875,34.59
2021-07-07 11:03:52.437500000,-60.0,-22.0,-2.0,80.673125,-4.73,13.221113500000001,34.59
2021-07-07 11:03:52.445312500,-60.25,-21.75,-2.5,80.675859375,-7.86,13.2179908125,34.59
2021-07-07 11:03:52.453125000,-60.5,-21.5,-3.0,80.67859375,-10.99,13.214868125,34.59
2021-07-07 11:03:52.460937500,-60.75,-21.25,-3.5,80.681328125,-11.440000000000001,13.211745437500001,34.59
2021-07-07 11:03:52.468750000,-61.0,-21.0,-4.0,80.6840625,-11.89,13.20862275,34.59
2021-07-07 11:03:52.476562500,-61.25,-21.25,-4.25,80.686796875,-9.940000000000001,13.2055000625,34.59
2021-07-07 11:03:52.484375000,-61.5,-21.5,-4.5,80.68953125,-7.99,13.202377375000001,34.59
2021-07-07 11:03:52.492187500,-61.75,-21.75,-4.75,80.692265625,-4.955,13.1992546875,34.59
2021-07-07 11:03:52.500000000,-62.0,-22.0,-5.0,80.695,-1.92,13.196132,34.59
2021-07-07 11:03:52.507812500,-62.0,-22.0,-5.0,80.697734375,0.75,13.19352978125,34.59
2021-07-07 11:03:52.515625000,-62.0,-22.0,-5.0,80.70046875,3.42,13.1909275625,34.59
2021-07-07 11:03:52.523437500,-62.0,-22.0,-5.0,80.703203125,4.91,13.18832534375,34.59
2021-07-07 11:03:52.531250000,-62.0,-22.0,-5.0,80.7059375,6.4,13.185723125,34.59
2021-07-07 11:03:52.539062500,-61.75,-21.75,-4.5,80.70867187500001,6.585,13.18312090625,34.59
2021-07-07 11:03:52.546875000,-61.5,-21.5,-4.0,80.71140625,6.77,13.180518687500001,34.59
2021-07-07 11:03:52.554687500,-61.25,-21.25,-3.5,80.714140625,5.955,13.17791646875,34.59
2021-07-07 11:03:52.562500000,-61.0,-21.0,-3.0,80.716875,5.14,13.17531425,34.59
2021-07-07 11:03:52.570312500,-61.25,-21.25,-3.5,80.719609375,3.5749999999999997,13.17271203125,34.59
2021-07-07 11:03:52.578125000,-61.5,-21.5,-4.0,80.72234375000001,2.01,13.1701098125,34.59
2021-07-07 11:03:52.585937500,-61.75,-21.75,-4.5,80.725078125,-0.05500000000000016,13.16750759375,34.59
2021-07-07 11:03:52.593750000,-62.0,-22.0,-5.0,80.7278125,-2.12,13.164905375,34.59
2021-07-07 11:03:52.601562500,-61.5,-21.75,-4.75,80.730546875,-4.28,13.162303156250001,34.59
2021-07-07 11:03:52.609375000,-61.0,-21.5,-4.5,80.73328125,-6.44,13.1597009375,34.59
2021-07-07 11:03:52.617187500,-60.5,-21.25,-4.25,80.73601562500001,-8.845,13.157098718750001,34.59
2021-07-07 11:03:52.625000000,-60.0,-21.0,-4.0,80.73875,-11.25,13.1544965,34.59
2021-07-07 11:03:52.632812500,-60.25,-21.0,-4.0,80.741484375,-14.115,13.15189428125,34.59
2021-07-07 11:03:52.640625000,-60.5,-21.0,-4.0,80.74421875,-16.98,13.1492920625,34.59
2021-07-07 11:03:52.648437500,-60.75,-21.0,-4.0,80.746953125,-20.0,13.14668984375,34.59
2021-07-07 11:03:52.656250000,-61.0,-21.0,-4.0,80.74968750000001,-23.02,13.144087625000001,34.59
2021-07-07 11:03:52.664062500,-61.0,-21.25,-3.75,80.752421875,-24.98,13.14148540625,34.59
2021-07-07 11:03:52.671875000,-61.0,-21.5,-3.5,80.75515625,-26.94,13.138883187500001,34.59
2021-07-07 11:03:52.679687500,-61.0,-21.75,-3.25,80.757890625,-27.200000000000003,13.13628096875,34.59
2021-07-07 11:03:52.687500000,-61.0,-22.0,-3.0,80.760625,-27.46,13.133678750000001,34.59
2021-07-07 11:03:52.695312500,-61.25,-21.75,-3.25,80.76335937500001,-26.134999999999998,13.13107653125,34.59
2021-07-07 11:03:52.703125000,-61.5,-21.5,-3.5,80.76609375,-24.81,13.1284743125,34.59
2021-07-07 11:03:52.710937500,-61.75,-21.25,-3.75,80.768828125,-22.79,13.12587209375,34.59
2021-07-07 11:03:52.718750000,-62.0,-21.0,-4.0,80.7715625,-20.77,13.123269875,34.59
2021-07-07 11:03:52.726562500,-61.5,-21.25,-3.75,80.774296875,-18.945,13.120667656250001,34.59
2021-07-07 11:03:52.734375000,-61.0,-21.5,-3.5,80.77703125000001,-17.12,13.1180654375,34.59
2021-07-07 11:03:52.742187500,-60.5,-21.75,-3.25,80.779765625,-15.935,13.115463218750001,34.59
2021-07-07 11:03:52.750000000,-60.0,-22.0,-3.0,80.7825,-14.75,13.112861,34.59
2021-07-07 11:03:52.757812500,-60.25,-22.0,-3.25,80.785234375,-14.29,13.111419750000001,34.59
2021-07-07 11:03:52.765625000,-60.5,-22.0,-3.5,80.78796875,-13.83,13.1099785,34.59
2021-07-07 11:03:52.773437500,-60.75,-22.0,-3.75,80.79070312500001,-13.8,13.108537250000001,34.59
2021-07-07 11:03:52.781250000,-61.0,-22.0,-4.0,80.7934375,-13.77,13.107096,34.59
2021-07-07 11:03:52.789062500,-61.0,-22.0,-4.0,80.796171875,-13.64,13.105654750000001,34.59
2021-07-07 11:03:52.796875000,-61.0,-22.0,-4.0,80.79890625,-13.51,13.1042135,34.59
2021-07-07 11:03:52.804687500,-61.0,-22.0,-4.0,80.801640625,-12.865,13.102772250000001,34.59
2021-07-07 11:03:52.812500000,-61.0,-22.0,-4.0,80.80437500000001,-12.22,13.101331,34.59
2021-07-07 11:03:52.820312500,-61.0,-22.0,-4.0,80.807109375,-11.105,13.09988975,34.59
2021-07-07 11:03:52.828125000,-61.0,-22.0,-4.0,80.80984375,-9.99,13.0984485,34.59
2021-07-07 11:03:52.835937500,-61.0,-22.0,-4.0,80.812578125,-8.96,13.09700725,34.59
2021-07-07 11:03:52.843750000,-61.0,-22.0,-4.0,80.8153125,-7.93,13.095566,34.59
2021-07-07 11:03:52.851562500,-61.0,-22.0,-3.75,80.81804687500001,-7.3149999999999995,13.09412475,34.59
2021-07-07 11:03:52.859375000,-61.0,-22.0,-3.5,80.82078125000001,-6.7,13.0926835,34.59
2021-07-07 11:03:52.867187500,-61.0,-22.0,-3.25,80.823515625,-6.535,13.09124225,34.59
2021-07-07 11:03:52.875000000,-61.0,-22.0,-3.0,80.82625,-6.37,13.089801000000001,34.59
2021-07-07 11:03:52.882812500,-61.25,-22.0,-3.0,80.828984375,-6.38,13.08835975,34.59
2021-07-07 11:03:52.890625000,-61.5,-22.0,-3.0,80.83171875000001,-6.39,13.086918500000001,34.59
2021-07-07 11:03:52.898437500,-61.75,-22.0,-3.0,80.83445312500001,-6.234999999999999,13.08547725,34.59
2021-07-07 11:03:52.906250000,-62.0,-22.0,-3.0,80.8371875,-6.08,13.084036000000001,34.59
2021-07-07 11:03:52.914062500,-61.75,-22.0,-3.0,80.839921875,-5.48,13.08259475,34.59
2021-07-07 11:03:52.921875000,-61.5,-22.0,-3.0,80.84265625,-4.88,13.081153500000001,34.59
2021-07-07 11:03:52.929687500,-61.25,-22.0,-3.0,80.84539062500001,-3.665,13.07971225,34.59
2021-07-07 11:03:52.937500000,-61.0,-22.0,-3.0,80.84812500000001,-2.45,13.078271,34.59
2021-07-07 11:03:52.945312500,-60.75,-21.75,-3.25,80.850859375,-0.52,13.07682975,34.59
2021-07-07 11:03:52.953125000,-60.5,-21.5,-3.5,80.85359375,1.41,13.0753885,34.59
2021-07-07 11:03:52.960937500,-60.25,-21.25,-3.75,80.856328125,4.05,13.07394725,34.59
2021-07-07 11:03:52.968750000,-60.0,-21.0,-4.0,80.85906250000001,6.69,13.072506,34.59
2021-07-07 11:03:52.976562500,-60.25,-21.25,-4.0,80.86179687500001,10.045,13.07106475,34.59
2021-07-07 11:03:52.984375000,-60.5,-21.5,-4.0,80.86453125,13.4,13.0696235,34.59
2021-07-07 11:03:52.992187500,-60.75,-21.75,-4.0,80.867265625,17.52,13.06818225,34.59
2021-07-07 11:03:53.000000000,-61.0,-22.0,-4.0,80.87,21.64,13.066741,34.59
2021-07-07 11:03:53.007812500,-61.25,-22.0,-4.0,80.872421875,26.46,13.06634065625,34.589375000000004
2021-07-07 11:03:53.015625000,-61.5,-22.0,-4.0,80.87484375000001,31.28,13.0659403125,34.588750000000005
2021-07-07 11:03:53.023437500,-61.75,-22.0,-4.0,80.877265625,36.455,13.06553996875,34.588125000000005
2021-07-07 11:03:53.031250000,-62.0,-22.0,-4.0,80.8796875,41.63,13.065139625,34.587500000000006
2021-07-07 11:03:53.039062500,-61.75,-21.75,-4.0,80.882109375,46.275000000000006,13.06473928125,34.586875000000006
2021-07-07 11:03:53.046875000,-61.5,-21.5,-4.0,80.88453125000001,50.92,13.0643389375,34.58625
2021-07-07 11:03:53.054687500,-61.25,-21.25,-4.0,80.886953125,53.82,13.06393859375,34.585625
2021-07-07 11:03:53.062500000,-61.0,-21.0,-4.0,80.889375,56.72,13.06353825,34.585
2021-07-07 11:03:53.070312500,-61.0,-21.0,-3.75,80.89179687500001,56.7,13.06313790625,34.584375
2021-07-07 11:03:53.078125000,-61.0,-21.0,-3.5,80.89421875000001,56.68,13.0627375625,34.58375
2021-07-07 11:03:53.085937500,-61.0,-21.0,-3.25,80.896640625,53.230000000000004,13.06233721875,34.583125
2021-07-07 11:03:53.093750000,-61.0,-21.0,-3.0,80.8990625,49.78,13.061936875,34.5825
2021-07-07 11:03:53.101562500,-61.0,-21.0,-3.0,80.90148437500001,43.285,13.06153653125,34.581875000000004
2021-07-07 11:03:53.109375000,-61.0,-21.0,-3.0,80.90390625,36.79,13.0611361875,34.581250000000004
2021-07-07 11:03:53.117187500,-61.0,-21.0,-3.0,80.906328125,28.535,13.06073584375,34.580625000000005
2021-07-07 11:03:53.125000000,-61.0,-21.0,-3.0,80.90875,20.28,13.0603355,34.58
2021-07-07 11:03:53.132812500,-61.0,-21.0,-3.5,80.91117187500001,12.040000000000001,13.059935156249999,34.579375
2021-07-07 11:03:53.140625000,-61.0,-21.0,-4.0,80.91359375,3.8,13.059534812499999,34.57875
2021-07-07 11:03:53.148437500,-61.0,-21.0,-4.5,80.916015625,-2.875000000000001,13.059134468749999,34.578125
2021-07-07 11:03:53.156250000,-61.0,-21.0,-5.0,80.91843750000001,-9.55,13.058734124999999,34.5775
2021-07-07 11:03:53.164062500,-61.0,-21.0,-4.75,80.920859375,-13.83,13.058333781249999,34.576875
2021-07-07 11:03:53.171875000,-61.0,-21.0,-4.5,80.92328125,-18.11,13.0579334375,34.57625
2021-07-07 11:03:53.179687500,-61.0,-21.0,-4.25,80.925703125,-20.119999999999997,13.05753309375,34.575625
2021-07-07 11:03:53.187500000,-61.0,-21.0,-4.0,80.92812500000001,-22.13,13.05713275,34.575
2021-07-07 11:03:53.195312500,-61.0,-21.0,-4.0,80.930546875,-22.68,13.05673240625,34.574375
2021-07-07 11:03:53.203125000,-61.0,-21.0,-4.0,80.93296875,-23.23,13.0563320625,34.573750000000004
2021-07-07 11:03:53.210937500,-61.0,-21.0,-4.0,80.93539062500001,-23.4,13.05593171875,34.573125
2021-07-07 11:03:53.218750000,-61.0,-21.0,-4.0,80.9378125,-23.57,13.055531375,34.5725
2021-07-07 11:03:53.226562500,-61.0,-21.0,-4.0,80.940234375,-24.17,13.05513103125,34.571875
2021-07-07 11:03:53.234375000,-61.0,-21.0,-4.0,80.94265625,-24.77,13.0547306875,34.57125
2021-07-07 11:03:53.242187500,-61.0,-21.0,-4.0,80.94507812500001,-26.119999999999997,13.05433034375,34.570625
2021-07-07 11:03:53.250000000,-61.0,-21.0,-4.0,80.9475,-27.47,13.05393,34.57
2021-07-07 11:03:53.257812500,-61.25,-21.0,-3.75,80.949921875,-29.615000000000002,13.0535696875,34.57
2021-07-07 11:03:53.265625000,-61.5,-21.0,-3.5,80.95234375000001,-31.76,13.053209375,34.57
2021-07-07 11:03:53.273437500,-61.75,-21.0,-3.25,80.95476562500001,-34.46,13.0528490625,34.57
2021-07-07 11:03:53.281250000,-62.0,-21.0,-3.0,80.9571875,-37.16,13.05248875,34.57
2021-07-07 11:03:53.289062500,-61.75,-21.0,-3.25,80.959609375,-40.055,13.0521284375,34.57
2021-07-07 11:03:53.296875000,-61.5,-21.0,-3.5,80.96203125000001,-42.95,13.051768124999999,34.57
2021-07-07 11:03:53.304687500,-61.25,-21.0,-3.75,80.964453125,-45.635000000000005,13.051407812499999,34.57
2021-07-07 11:03:53.312500000,-61.0,-21.0,-4.0,80.966875,-48.32,13.0510475,34.57
2021-07-07 11:03:53.320312500,-61.0,-21.0,-4.0,80.96929687500001,-50.455,13.0506871875,34.57
2021-07-07 11:03:53.328125000,-61.0,-21.0,-4.0,80.97171875000001,-52.59,13.050326875,34.57
2021-07-07 11:03:53.335937500,-61.0,-21.0,-4.0,80.974140625,-53.935,13.0499665625,34.57
2021-07-07 11:03:53.343750000,-61.0,-21.0,-4.0,80.9765625,-55.28,13.04960625,34.57
2021-07-07 11:03:53.351562500,-61.0,-21.25,-3.75,80.97898437500001,-55.725,13.0492459375,34.57
2021-07-07 11:03:53.359375000,-61.0,-21.5,-3.5,80.98140625,-56.17,13.048885625,34.57
2021-07-07 11:03:53.367187500,-61.0,-21.75,-3.25,80.983828125,-55.45,13.0485253125,34.57
2021-07-07 11:03:53.375000000,-61.0,-22.0,-3.0,80.98625000000001,-54.73,13.048165000000001,34.57
2021-07-07 11:03:53.382812500,-61.0,-22.0,-3.0,80.98867187500001,-52.69499999999999,13.0478046875,34.57
2021-07-07 11:03:53.390625000,-61.0,-22.0,-3.0,80.99109375,-50.66,13.047444375,34.57
2021-07-07 11:03:53.398437500,-61.0,-22.0,-3.0,80.993515625,-47.4,13.0470840625,34.57
2021-07-07 11:03:53.406250000,-61.0,-22.0,-3.0,80.99593750000001,-44.14,13.04672375,34.57
2021-07-07 11:03:53.414062500,-61.0,-22.0,-3.25,80.998359375,-40.04,13.0463634375,34.57
2021-07-07 11:03:53.421875000,-61.0,-22.0,-3.5,81.00078125,-35.94,13.046003125,34.57
2021-07-07 11:03:53.429687500,-61.0,-22.0,-3.75,81.003203125,-31.6,13.0456428125,34.57
2021-07-07 11:03:53.437500000,-61.0,-22.0,-4.0,81.00562500000001,-27.26,13.0452825,34.57
2021-07-07 11:03:53.445312500,-61.25,-22.0,-4.0,81.008046875,-23.315,13.044922187500001,34.57
2021-07-07 11:03:53.453125000,-61.5,-22.0,-4.0,81.01046875,-19.37,13.044561875000001,34.57
2021-07-07 11:03:53.460937500,-61.75,-22.0,-4.0,81.01289062500001,-16.29,13.0442015625,34.57
2021-07-07 11:03:53.468750000,-62.0,-22.0,-4.0,81.01531250000001,-13.21,13.04384125,34.57
2021-07-07 11:03:53.476562500,-61.75,-22.0,-4.0,81.017734375,-11.165,13.0434809375,34.57
2021-07-07 11:03:53.484375000,-61.5,-22.0,-4.0,81.02015625,-9.12,13.043120625,34.57
2021-07-07 11:03:53.492187500,-61.25,-22.0,-4.0,81.02257812500001,-8.01,13.0427603125,34.57
2021-07-07 11:03:53.500000000,-61.0,-22.0,-4.0,81.025,-6.9,13.0424,34.57
2021-07-07 11:03:53.507812500,-61.0,-22.0,-4.0,81.027421875,-6.02,13.04147921875,34.57
2021-07-07 11:03:53.515625000,-61.0,-22.0,-4.0,81.02984375000001,-5.14,13.040558437500001,34.57
2021-07-07 11:03:53.523437500,-61.0,-22.0,-4.0,81.03226562500001,-3.7649999999999997,13.039637656250001,34.57
2021-07-07 11:03:53.531250000,-61.0,-22.0,-4.0,81.0346875,-2.39,13.038716875,34.57
2021-07-07 11:03:53.539062500,-61.0,-21.75,-4.0,81.037109375,-0.13500000000000023,13.03779609375,34.57
2021-07-07 11:03:53.546875000,-61.0,-21.5,-4.0,81.03953125000001,2.12,13.036875312500001,34.57
2021-07-07 11:03:53.554687500,-61.0,-21.25,-4.0,81.041953125,5.175000000000001,13.03595453125,34.57
2021-07-07 11:03:53.562500000,-61.0,-21.0,-4.0,81.044375,8.23,13.03503375,34.57
2021-07-07 11:03:53.570312500,-61.25,-21.25,-4.0,81.04679687500001,11.67,13.034112968750001,34.57
2021-07-07 11:03:53.578125000,-61.5,-21.5,-4.0,81.04921875000001,15.11,13.033192187500001,34.57
2021-07-07 11:03:53.585937500,-61.75,-21.75,-4.0,81.051640625,18.509999999999998,13.03227140625,34.57
2021-07-07 11:03:53.593750000,-62.0,-22.0,-4.0,81.0540625,21.91,13.031350625,34.57
2021-07-07 11:03:53.601562500,-61.75,-21.75,-4.0,81.05648437500001,24.990000000000002,13.030429843750001,34.57
2021-07-07 11:03:53.609375000,-61.5,-21.5,-4.0,81.05890625,28.07,13.0295090625,34.57
2021-07-07 11:03:53.617187500,-61.25,-21.25,-4.0,81.061328125,30.79,13.02858828125,34.57
2021-07-07 11:03:53.625000000,-61.0,-21.0,-4.0,81.06375,33.51,13.0276675,34.57
2021-07-07 11:03:53.632812500,-61.0,-21.25,-3.75,81.06617187500001,35.845,13.026746718750001,34.57
2021-07-07 11:03:53.640625000,-61.0,-21.5,-3.5,81.06859375,38.18,13.0258259375,34.57
2021-07-07 11:03:53.648437500,-61.0,-21.75,-3.25,81.071015625,40.655,13.02490515625,34.57
2021-07-07 11:03:53.656250000,-61.0,-22.0,-3.0,81.07343750000001,43.13,13.023984375000001,34.57
2021-07-07 11:03:53.664062500,-61.25,-22.0,-3.25,81.07585937500001,46.17,13.02306359375,34.57
2021-07-07 11:03:53.671875000,-61.5,-22.0,-3.5,81.07828125,49.21,13.0221428125,34.57
2021-07-07 11:03:53.679687500,-61.75,-22.0,-3.75,81.080703125,52.945,13.02122203125,34.57
2021-07-07 11:03:53.687500000,-62.0,-22.0,-4.0,81.08312500000001,56.68,13.020301250000001,34.57
2021-07-07 11:03:53.695312500,-61.75,-21.75,-4.0,81.085546875,60.974999999999994,13.01938046875,34.57
2021-07-07 11:03:53.703125000,-61.5,-21.5,-4.0,81.08796875,65.27,13.0184596875,34.57
2021-07-07 11:03:53.710937500,-61.25,-21.25,-4.0,81.09039062500001,69.88,13.017538906250001,34.57
2021-07-07 11:03:53.718750000,-61.0,-21.0,-4.0,81.09281250000001,74.49,13.016618125,34.57
2021-07-07 11:03:53.726562500,-61.0,-21.25,-4.0,81.095234375,79.265,13.01569734375,34.57
2021-07-07 11:03:53.734375000,-61.0,-21.5,-4.0,81.09765625,84.04,13.0147765625,34.57
2021-07-07 11:03:53.742187500,-61.0,-21.75,-4.0,81.10007812500001,88.905,13.013855781250001,34.57
2021-07-07 11:03:53.750000000,-61.0,-22.0,-4.0,81.1025,93.77,13.012935,34.57
2021-07-07 11:03:53.757812500,-61.0,-22.0,-3.75,81.104921875,98.66499999999999,13.0127348125,34.57
2021-07-07 11:03:53.765625000,-61.0,-22.0,-3.5,81.10734375000001,103.56,13.012534625,34.57
2021-07-07 11:03:53.773437500,-61.0,-22.0,-3.25,81.10976562500001,105.46000000000001,13.0123344375,34.57
2021-07-07 11:03:53.781250000,-61.0,-22.0,-3.0,81.1121875,107.36,13.01213425,34.57
2021-07-07 11:03:53.789062500,-61.0,-21.75,-3.25,81.114609375,104.10499999999999,13.0119340625,34.57
2021-07-07 11:03:53.796875000,-61.0,-21.5,-3.5,81.11703125000001,100.85,13.011733875000001,34.57
2021-07-07 11:03:53.804687500,-61.0,-21.25,-3.75,81.119453125,92.02,13.0115336875,34.57
2021-07-07 11:03:53.812500000,-61.0,-21.0,-4.0,81.121875,83.19,13.011333500000001,34.57
2021-07-07 11:03:53.820312500,-61.0,-21.25,-3.75,81.12429687500001,70.62,13.0111333125,34.57
2021-07-07 11:03:53.828125000,-61.0,-21.5,-3.5,81.12671875000001,58.05,13.010933125000001,34.57
2021-07-07 11:03:53.835937500,-61.0,-21.75,-3.25,81.129140625,44.55,13.0107329375,34.57
2021-07-07 11:03:53.843750000,-61.0,-22.0,-3.0,81.1315625,31.05,13.010532750000001,34.57
2021-07-07 11:03:53.851562500,-61.0,-22.0,-3.0,81.13398437500001,18.92,13.0103325625,34.57
2021-07-07 11:03:53.859375000,-61.0,-22.0,-3.0,81.13640625000001,6.79,13.010132375000001,34.57
2021-07-07 11:03:53.867187500,-61.0,-22.0,-3.0,81.138828125,-2.6949999999999994,13.0099321875,34.57
2021-07-07 11:03:53.875000000,-61.0,-22.0,-3.0,81.14125000000001,-12.18,13.009732,34.57
2021-07-07 11:03:53.882812500,-61.0,-22.0,-3.25,81.14367187500001,-18.65,13.0095318125,34.57
2021-07-07 11:03:53.890625000,-61.0,-22.0,-3.5,81.14609375,-25.12,13.009331625,34.57
2021-07-07 11:03:53.898437500,-61.0,-22.0,-3.75,81.148515625,-28.3,13.0091314375,34.57
2021-07-07 11:03:53.906250000,-61.0,-22.0,-4.0,81.15093750000001,-31.48,13.00893125,34.57
2021-07-07 11:03:53.914062500,-61.0,-22.0,-4.0,81.15335937500001,-32.385,13.0087310625,34.57
2021-07-07 11:03:53.921875000,-61.0,-22.0,-4.0,81.15578125,-33.29,13.008530875,34.57
2021-07-07 11:03:53.929687500,-61.0,-22.0,-4.0,81.158203125,-32.379999999999995,13.0083306875,34.57
2021-07-07 11:03:53.937500000,-61.0,-22.0,-4.0,81.16062500000001,-31.47,13.0081305,34.57
2021-07-07 11:03:53.945312500,-61.0,-22.0,-4.0,81.163046875,-29.189999999999998,13.007930312500001,34.57
2021-07-07 11:03:53.953125000,-61.0,-22.0,-4.0,81.16546875,-26.91,13.007730125,34.57
2021-07-07 11:03:53.960937500,-61.0,-22.0,-4.0,81.16789062500001,-23.825,13.007529937500001,34.57
2021-07-07 11:03:53.968750000,-61.0,-22.0,-4.0,81.17031250000001,-20.74,13.00732975,34.57
2021-07-07 11:03:53.976562500,-61.0,-21.75,-4.0,81.172734375,-17.549999999999997,13.007129562500001,34.57
2021-07-07 11:03:53.984375000,-61.0,-21.5,-4.0,81.17515625,-14.36,13.006929375,34.57
2021-07-07 11:03:53.992187500,-61.0,-21.25,-4.0,81.17757812500001,-11.655,13.006729187500001,34.57
2021-07-07 11:03:54.000000000,-61.0,-21.0,-4.0,81.18,-8.95,13.006529,34.57
2021-07-07 11:03:54.007812500,-61.0,-21.0,-3.75,81.183046875,-6.945,13.00612865625,34.57
2021-07-07 11:03:54.015625000,-61.0,-21.0,-3.5,81.18609375000001,-4.94,13.0057283125,34.57
2021-07-07 11:03:54.023437500,-61.0,-21.0,-3.25,81.18914062500001,-4.235,13.00532796875,34.57
2021-07-07 11:03:54.031250000,-61.0,-21.0,-3.0,81.1921875,-3.53,13.004927625,34.57
2021-07-07 11:03:54.039062500,-61.0,-21.0,-3.0,81.19523437500001,-4.1049999999999995,13.00452728125,34.57
2021-07-07 11:03:54.046875000,-61.0,-21.0,-3.0,81.19828125000001,-4.68,13.0041269375,34.57
2021-07-07 11:03:54.054687500,-61.0,-21.0,-3.0,81.201328125,-6.37,13.00372659375,34.57
2021-07-07 11:03:54.062500000,-61.0,-21.0,-3.0,81.204375,-8.06,13.00332625,34.57
2021-07-07 11:03:54.070312500,-61.0,-21.0,-3.25,81.20742187500001,-10.215,13.00292590625,34.57
2021-07-07 11:03:54.078125000,-61.0,-21.0,-3.5,81.21046875,-12.37,13.0025255625,34.57
2021-07-07 11:03:54.085937500,-61.0,-21.0,-3.75,81.213515625,-14.419999999999998,13.00212521875,34.57
2021-07-07 11:03:54.093750000,-61.0,-21.0,-4.0,81.21656250000001,-16.47,13.001724875,34.57
2021-07-07 11:03:54.101562500,-61.0,-21.25,-4.0,81.219609375,-18.16,13.00132453125,34.57
2021-07-07 11:03:54.109375000,-61.0,-21.5,-4.0,81.22265625,-19.85,13.0009241875,34.57
2021-07-07 11:03:54.117187500,-61.0,-21.75,-4.0,81.22570312500001,-21.25,13.00052384375,34.57
2021-07-07 11:03:54.125000000,-61.0,-22.0,-4.0,81.22875,-22.65,13.0001235,34.57
2021-07-07 11:03:54.132812500,-61.0,-22.0,-4.0,81.231796875,-24.02,12.999723156249999,34.57
2021-07-07 11:03:54.140625000,-61.0,-22.0,-4.0,81.23484375000001,-25.39,12.999322812499999,34.57
2021-07-07 11:03:54.148437500,-61.0,-22.0,-4.0,81.237890625,-26.939999999999998,12.99892246875,34.57
2021-07-07 11:03:54.156250000,-61.0,-22.0,-4.0,81.2409375,-28.49,12.998522125,34.57
2021-07-07 11:03:54.164062500,-61.0,-22.0,-4.0,81.24398437500001,-30.295,12.99812178125,34.57
2021-07-07 11:03:54.171875000,-61.0,-22.0,-4.0,81.24703125,-32.1,12.9977214375,34.57
2021-07-07 11:03:54.179687500,-61.0,-22.0,-4.0,81.250078125,-33.985,12.99732109375,34.57
2021-07-07 11:03:54.187500000,-61.0,-22.0,-4.0,81.25312500000001,-35.87,12.99692075,34.57
2021-07-07 11:03:54.195312500,-61.0,-21.75,-4.0,81.256171875,-37.66,12.99652040625,34.57
2021-07-07 11:03:54.203125000,-61.0,-21.5,-4.0,81.25921875,-39.45,12.9961200625,34.57
2021-07-07 11:03:54.210937500,-61.0,-21.25,-4.0,81.262265625,-40.61,12.99571971875,34.57
2021-07-07 11:03:54.218750000,-61.0,-21.0,-4.0,81.26531250000001,-41.77,12.995319375,34.57
2021-07-07 11:03:54.226562500,-61.0,-21.0,-4.0,81.268359375,-41.835,12.99491903125,34.57
2021-07-07 11:03:54.234375000,-61.0,-21.0,-4.0,81.27140625,-41.9,12.9945186875,34.57
2021-07-07 11:03:54.242187500,-61.0,-21.0,-4.0,81.27445312500001,-40.61,12.99411834375,34.57
2021-07-07 11:03:54.250000000,-61.0,-21.0,-4.0,81.2775,-39.32,12.993718,34.57
2021-07-07 11:03:54.257812500,-61.0,-21.0,-4.0,81.280546875,-36.730000000000004,12.99383809375,34.57
2021-07-07 11:03:54.265625000,-61.0,-21.0,-4.0,81.28359375000001,-34.14,12.993958187499999,34.57
2021-07-07 11:03:54.273437500,-61.0,-21.0,-4.0,81.286640625,-30.555,12.99407828125,34.57
2021-07-07 11:03:54.281250000,-61.0,-21.0,-4.0,81.2896875,-26.97,12.994198375,34.57
2021-07-07 11:03:54.289062500,-61.0,-21.0,-4.0,81.29273437500001,-22.775,12.994318468749999,34.57
2021-07-07 11:03:54.296875000,-61.0,-21.0,-4.0,81.29578125,-18.58,12.9944385625,34.57
2021-07-07 11:03:54.304687500,-61.0,-21.0,-4.0,81.298828125,-14.174999999999999,12.99455865625,34.57
2021-07-07 11:03:54.312500000,-61.0,-21.0,-4.0,81.301875,-9.77,12.994678749999999,34.57
2021-07-07 11:03:54.320312500,-61.0,-21.0,-4.0,81.304921875,-5.385,12.994798843749999,34.57
2021-07-07 11:03:54.328125000,-61.0,-21.0,-4.0,81.30796875,-1.0,12.9949189375,34.57
2021-07-07 11:03:54.335937500,-61.0,-21.0,-4.0,81.311015625,3.13,12.99503903125,34.57
2021-07-07 11:03:54.343750000,-61.0,-21.0,-4.0,81.3140625,7.26,12.995159124999999,34.57
2021-07-07 11:03:54.351562500,-61.0,-21.0,-4.0,81.317109375,11.105,12.99527921875,34.57
2021-07-07 11:03:54.359375000,-61.0,-21.0,-4.0,81.32015625,14.95,12.9953993125,34.57
2021-07-07 11:03:54.367187500,-61.0,-21.0,-4.0,81.323203125,18.5,12.995519406249999,34.57
2021-07-07 11:03:54.375000000,-61.0,-21.0,-4.0,81.32625,22.05,12.9956395,34.57
2021-07-07 11:03:54.382812500,-61.0,-21.0,-4.0,81.329296875,25.215,12.99575959375,34.57
2021-07-07 11:03:54.390625000,-61.0,-21.0,-4.0,81.33234375,28.38,12.995879687499999,34.57
2021-07-07 11:03:54.398437500,-61.0,-21.0,-4.0,81.335390625,31.015,12.99599978125,34.57
2021-07-07 11:03:54.406250000,-61.0,-21.0,-4.0,81.3384375,33.65,12.996119875,34.57
2021-07-07 11:03:54.414062500,-61.0,-21.25,-3.75,81.34148437500001,35.565,12.996239968749999,34.57
2021-07-07 11:03:54.421875000,-61.0,-21.5,-3.5,81.34453125,37.48,12.996360062499999,34.57
2021-07-07 11:03:54.429687500,-61.0,-21.75,-3.25,81.347578125,38.56,12.99648015625,34.57
2021-07-07 11:03:54.437500000,-61.0,-22.0,-3.0,81.35062500000001,39.64,12.99660025,34.57
2021-07-07 11:03:54.445312500,-61.0,-21.75,-3.25,81.353671875,39.845,12.996720343749999,34.57
2021-07-07 11:03:54.453125000,-61.0,-21.5,-3.5,81.35671875,40.05,12.9968404375,34.57
2021-07-07 11:03:54.460937500,-61.0,-21.25,-3.75,81.359765625,39.48,12.99696053125,34.57
2021-07-07 11:03:54.468750000,-61.0,-21.0,-4.0,81.3628125,38.91,12.997080624999999,34.57
2021-07-07 11:03:54.476562500,-61.0,-21.0,-4.0,81.365859375,37.724999999999994,12.99720071875,34.57
2021-07-07 11:03:54.484375000,-61.0,-21.0,-4.0,81.36890625,36.54,12.9973208125,34.57
2021-07-07 11:03:54.492187500,-61.0,-21.0,-4.0,81.371953125,35.015,12.997440906249999,34.57
2021-07-07 11:03:54.500000000,-61.0,-21.0,-4.0,81.375,33.49,12.997561,34.57
2021-07-07 11:03:54.507812500,-61.25,-21.0,-4.0,81.378046875,31.93,12.997080593749999,34.57
2021-07-07 11:03:54.515625000,-61.5,-21.0,-4.0,81.38109375,30.37,12.996600187499999,34.57
2021-07-07 11:03:54.523437500,-61.75,-21.0,-4.0,81.384140625,29.03,12.99611978125,34.57
2021-07-07 11:03:54.531250000,-62.0,-21.0,-4.0,81.3871875,27.69,12.995639375,34.57
2021-07-07 11:03:54.539062500,-61.75,-21.0,-3.75,81.390234375,26.71,12.99515896875,34.57
2021-07-07 11:03:54.546875000,-61.5,-21.0,-3.5,81.39328125,25.73,12.994678562499999,34.57
2021-07-07 11:03:54.554687500,-61.25,-21.0,-3.25,81.396328125,25.11,12.99419815625,34.57
2021-07-07 11:03:54.562500000,-61.0,-21.0,-3.0,81.39937499999999,24.49,12.99371775,34.57
2021-07-07 11:03:54.570312500,-61.25,-21.25,-3.25,81.402421875,24.104999999999997,12.99323734375,34.57
2021-07-07 11:03:54.578125000,-61.5,-21.5,-3.5,81.40546875,23.72,12.9927569375,34.57
2021-07-07 11:03:54.585937500,-61.75,-21.75,-3.75,81.40851562499999,23.375,12.992276531249999,34.57
2021-07-07 11:03:54.593750000,-62.0,-22.0,-4.0,81.4115625,23.03,12.991796125,34.57
2021-07-07 11:03:54.601562500,-61.5,-22.0,-4.0,81.414609375,22.59,12.99131571875,34.57
2021-07-07 11:03:54.609375000,-61.0,-22.0,-4.0,81.41765625,22.15,12.9908353125,34.57
2021-07-07 11:03:54.617187500,-60.5,-22.0,-4.0,81.420703125,21.564999999999998,12.99035490625,34.57
2021-07-07 11:03:54.625000000,-60.0,-22.0,-4.0,81.42375,20.98,12.989874499999999,34.57
2021-07-07 11:03:54.632812500,-60.25,-22.0,-4.0,81.426796875,20.28,12.98939409375,34.57
2021-07-07 11:03:54.640625000,-60.5,-22.0,-4.0,81.42984375,19.58,12.9889136875,34.57
2021-07-07 11:03:54.648437500,-60.75,-22.0,-4.0,81.432890625,18.84,12.98843328125,34.57
2021-07-07 11:03:54.656250000,-61.0,-22.0,-4.0,81.4359375,18.1,12.987952875,34.57
2021-07-07 11:03:54.664062500,-61.0,-22.0,-4.25,81.438984375,17.385,12.987472468750001,34.57
2021-07-07 11:03:54.671875000,-61.0,-22.0,-4.5,81.44203125,16.67,12.9869920625,34.57
2021-07-07 11:03:54.679687500,-61.0,-22.0,-4.75,81.445078125,15.98,12.98651165625,34.57
2021-07-07 11:03:54.687500000,-61.0,-22.0,-5.0,81.448125,15.29,12.98603125,34.57
2021-07-07 11:03:54.695312500,-61.0,-22.0,-4.75,81.451171875,14.579999999999998,12.98555084375,34.57
2021-07-07 11:03:54.703125000,-61.0,-22.0,-4.5,81.45421875,13.87,12.985070437500001,34.57
2021-07-07 11:03:54.710937500,-61.0,-22.0,-4.25,81.45726562499999,13.075,12.98459003125,34.57
2021-07-07 11:03:54.718750000,-61.0,-22.0,-4.0,81.4603125,12.28,12.984109625,34.57
2021-07-07 11:03:54.726562500,-61.0,-21.75,-4.0,81.463359375,11.355,12.98362921875,34.57
2021-07-07 11:03:54.734375000,-61.0,-21.5,-4.0,81.46640624999999,10.43,12.983148812500001,34.57
2021-07-07 11:03:54.742187500,-61.0,-21.25,-4.0,81.469453125,9.385,12.982668406250001,34.57
2021-07-07 11:03:54.750000000,-61.0,-21.0,-4.0,81.4725,8.34,12.982188,34.57
2021-07-07 11:03:54.757812500,-61.0,-21.0,-4.0,81.47554687499999,7.195,12.98174765625,34.57
2021-07-07 11:03:54.765625000,-61.0,-21.0,-4.0,81.47859375,6.05,12.9813073125,34.57
2021-07-07 11:03:54.773437500,-61.0,-21.0,-4.0,81.481640625,4.845,12.98086696875,34.57
2021-07-07 11:03:54.781250000,-61.0,-21.0,-4.0,81.48468749999999,3.64,12.980426625,34.57
2021-07-07 11:03:54.789062500,-61.0,-21.0,-4.0,81.487734375,2.425,12.979986281250001,34.57
2021-07-07 11:03:54.796875000,-61.0,-21.0,-4.0,81.49078125,1.21,12.979545937500001,34.57
2021-07-07 11:03:54.804687500,-61.0,-21.0,-4.0,81.493828125,0.03500000000000014,12.97910559375,34.57
2021-07-07 11:03:54.812500000,-61.0,-21.0,-4.0,81.49687499999999,-1.14,12.97866525,34.57
2021-07-07 11:03:54.820312500,-61.0,-21.0,-4.0,81.499921875,-2.205,12.97822490625,34.57
2021-07-07 11:03:54.828125000,-61.0,-21.0,-4.0,81.50296875,-3.27,12.9777845625,34.57
2021-07-07 11:03:54.835937500,-61.0,-21.0,-4.0,81.50601562499999,-4.17,12.97734421875,34.57
2021-07-07 11:03:54.843750000,-61.0,-21.0,-4.0,81.5090625,-5.07,12.976903875000001,34.57
2021-07-07 11:03:54.851562500,-61.25,-21.0,-3.75,81.512109375,-5.78,12.976463531250001,34.57
2021-07-07 11:03:54.859375000,-61.5,-21.0,-3.5,81.51515624999999,-6.49,12.976023187500001,34.57
2021-07-07 11:03:54.867187500,-61.75,-21.0,-3.25,81.518203125,-7.04,12.97558284375,34.57
2021-07-07 11:03:54.875000000,-62.0,-21.0,-3.0,81.52125,-7.59,12.9751425,34.57
2021-07-07 11:03:54.882812500,-61.75,-21.0,-3.25,81.52429687499999,-8.055,12.97470215625,34.57
2021-07-07 11:03:54.890625000,-61.5,-21.0,-3.5,81.52734375,-8.52,12.9742618125,34.57
2021-07-07 11:03:54.898437500,-61.25,-21.0,-3.75,81.530390625,-8.969999999999999,12.97382146875,34.57
2021-07-07 11:03:54.906250000,-61.0,-21.0,-4.0,81.53343749999999,-9.42,12.973381125,34.57
2021-07-07 11:03:54.914062500,-61.0,-21.0,-4.0,81.536484375,-9.915,12.972940781250001,34.57
2021-07-07 11:03:54.921875000,-61.0,-21.0,-4.0,81.53953125,-10.41,12.9725004375,34.57
2021-07-07 11:03:54.929687500,-61.0,-21.0,-4.0,81.54257812499999,-10.969999999999999,12.97206009375,34.57
2021-07-07 11:03:54.937500000,-61.0,-21.0,-4.0,81.545625,-11.53,12.97161975,34.57
2021-07-07 11:03:54.945312500,-61.0,-21.25,-4.0,81.548671875,-12.145,12.97117940625,34.57
2021-07-07 11:03:54.953125000,-61.0,-21.5,-4.0,81.55171874999999,-12.76,12.9707390625,34.57
2021-07-07 11:03:54.960937500,-61.0,-21.75,-4.0,81.55476562499999,-13.445,12.97029871875,34.57
2021-07-07 11:03:54.968750000,-61.0,-22.0,-4.0,81.5578125,-14.13,12.969858375000001,34.57
2021-07-07 11:03:54.976562500,-61.0,-21.75,-4.25,81.56085937499999,-14.89,12.969418031250001,34.57
2021-07-07 11:03:54.984375000,-61.0,-21.5,-4.5,81.56390624999999,-15.65,12.9689776875,34.57
2021-07-07 11:03:54.992187500,-61.0,-21.25,-4.75,81.566953125,-16.505,12.96853734375,34.57
2021-07-07 11:03:55.000000000,-61.0,-21.0,-5.0,81.57,-17.36,12.968097,34.57
2021-07-07 11:03:55.007812500,-61.0,-21.0,-5.0,81.5728125,-18.285,12.96821709375,34.57
2021-07-07 11:03:55.015625000,-61.0,-21.0,-5.0,81.57562499999999,-19.21,12.9683371875,34.57
2021-07-07 11:03:55.023437500,-61.0,-21.0,-5.0,81.57843749999999,-20.134999999999998,12.96845728125,34.57
2021-07-07 11:03:55.031250000,-61.0,-21.0,-5.0,81.58125,-21.06,12.968577375,34.57
2021-07-07 11:03:55.039062500,-61.0,-21.0,-5.0,81.58406249999999,-21.9,12.96869746875,34.57
2021-07-07 11:03:55.046875000,-61.0,-21.0,-5.0,81.58687499999999,-22.74,12.9688175625,34.57
2021-07-07 11:03:55.054687500,-61.0,-21.0,-5.0,81.5896875,-23.43,12.96893765625,34.57
2021-07-07 11:03:55.062500000,-61.0,-21.0,-5.0,81.5925,-24.12,12.969057750000001,34.57
2021-07-07 11:03:55.070312500,-61.25,-21.0,-4.5,81.59531249999999,-24.655,12.96917784375,34.57
2021-07-07 11:03:55.078125000,-61.5,-21.0,-4.0,81.598125,-25.19,12.9692979375,34.57
2021-07-07 11:03:55.085937500,-61.75,-21.0,-3.5,81.6009375,-25.645000000000003,12.969418031250001,34.57
2021-07-07 11:03:55.093750000,-62.0,-21.0,-3.0,81.60374999999999,-26.1,12.969538125,34.57
2021-07-07 11:03:55.101562500,-61.75,-21.0,-3.25,81.6065625,-26.605,12.96965821875,34.57
2021-07-07 11:03:55.109375000,-61.5,-21.0,-3.5,81.609375,-27.11,12.9697783125,34.57
2021-07-07 11:03:55.117187500,-61.25,-21.0,-3.75,81.61218749999999,-27.795,12.96989840625,34.57
2021-07-07 11:03:55.125000000,-61.0,-21.0,-4.0,81.615,-28.48,12.9700185,34.57
2021-07-07 11:03:55.132812500,-61.0,-21.0,-4.0,81.6178125,-29.439999999999998,12.97013859375,34.57
2021-07-07 11:03:55.140625000,-61.0,-21.0,-4.0,81.62062499999999,-30.4,12.9702586875,34.57
2021-07-07 11:03:55.148437500,-61.0,-21.0,-4.0,81.6234375,-31.645,12.97037878125,34.57
2021-07-07 11:03:55.156250000,-61.0,-21.0,-4.0,81.62625,-32.89,12.970498875,34.57
2021-07-07 11:03:55.164062500,-61.0,-21.25,-4.0,81.62906249999999,-34.295,12.97061896875,34.57
2021-07-07 11:03:55.171875000,-61.0,-21.5,-4.0,81.631875,-35.7,12.9707390625,34.57
2021-07-07 11:03:55.179687500,-61.0,-21.75,-4.0,81.6346875,-37.040000000000006,12.97085915625,34.57
2021-07-07 11:03:55.187500000,-61.0,-22.0,-4.0,81.63749999999999,-38.38,12.97097925,34.57
2021-07-07 11:03:55.195312500,-61.0,-22.0,-4.0,81.6403125,-39.32,12.97109934375,34.57
2021-07-07 11:03:55.203125000,-61.0,-22.0,-4.0,81.643125,-40.26,12.9712194375,34.57
2021-07-07 11:03:55.210937500,-61.0,-22.0,-4.0,81.6459375,-40.42,12.97133953125,34.57
2021-07-07 11:03:55.218750000,-61.0,-22.0,-4.0,81.64874999999999,-40.58,12.971459625,34.57
2021-07-07 11:03:55.226562500,-61.0,-22.0,-4.0,81.6515625,-39.67,12.97157971875,34.57
2021-07-07 11:03:55.234375000,-61.0,-22.0,-4.0,81.654375,-38.76,12.9716998125,34.57
2021-07-07 11:03:55.242187500,-61.0,-22.0,-4.0,81.65718749999999,-36.66,12.97181990625,34.57
2021-07-07 11:03:55.250000000,-61.0,-22.0,-4.0,81.66,-34.56,12.97194,34.57
2021-07-07 11:03:55.257812500,-61.0,-22.0,-4.0,81.6628125,-31.375,12.97109928125,34.57
2021-07-07 11:03:55.265625000,-61.0,-22.0,-4.0,81.66562499999999,-28.19,12.9702585625,34.57
2021-07-07 11:03:55.273437500,-61.0,-22.0,-4.0,81.6684375,-24.25,12.96941784375,34.57
2021-07-07 11:03:55.281250000,-61.0,-22.0,-4.0,81.67125,-20.31,12.968577125,34.57
2021-07-07 11:03:55.289062500,-61.0,-21.75,-4.0,81.67406249999999,-16.075,12.96773640625,34.57
2021-07-07 11:03:55.296875000,-61.0,-21.5,-4.0,81.676875,-11.84,12.9668956875,34.57
2021-07-07 11:03:55.304687500,-61.0,-21.25,-4.0,81.6796875,-7.765,12.966054968749999,34.57
2021-07-07 11:03:55.312500000,-61.0,-21.0,-4.0,81.6825,-3.69,12.965214249999999,34.57
2021-07-07 11:03:55.320312500,-61.0,-21.0,-4.0,81.6853125,-0.0900000000000003,12.96437353125,34.57
2021-07-07 11:03:55.328125000,-61.0,-21.0,-4.0,81.688125,3.51,12.9635328125,34.57
2021-07-07 11:03:55.335937500,-61.0,-21.0,-4.0,81.6909375,6.51,12.96269209375,34.57
2021-07-07 11:03:55.343750000,-61.0,-21.0,-4.0,81.69375,9.51,12.961851375,34.57
2021-07-07 11:03:55.351562500,-61.0,-21.0,-4.0,81.6965625,11.934999999999999,12.96101065625,34.57
2021-07-07 11:03:55.359375000,-61.0,-21.0,-4.0,81.699375,14.36,12.9601699375,34.57
2021-07-07 11:03:55.367187500,-61.0,-21.0,-4.0,81.7021875,16.32,12.95932921875,34.57
2021-07-07 11:03:55.375000000,-61.0,-21.0,-4.0,81.705,18.28,12.9584885,34.57
2021-07-07 11:03:55.382812500,-61.0,-21.0,-4.0,81.7078125,19.880000000000003,12.95764778125,34.57
2021-07-07 11:03:55.390625000,-61.0,-21.0,-4.0,81.710625,21.48,12.9568070625,34.57
2021-07-07 11:03:55.398437500,-61.0,-21.0,-4.0,81.7134375,22.75,12.95596634375,34.57
2021-07-07 11:03:55.406250000,-61.0,-21.0,-4.0,81.71625,24.02,12.955125624999999,34.57
2021-07-07 11:03:55.414062500,-61.0,-21.0,-4.0,81.71906249999999,24.93,12.954284906249999,34.57
2021-07-07 11:03:55.421875000,-61.0,-21.0,-4.0,81.721875,25.84,12.953444187499999,34.57
2021-07-07 11:03:55.429687500,-61.0,-21.0,-4.0,81.7246875,26.34,12.952603468749999,34.57
2021-07-07 11:03:55.437500000,-61.0,-21.0,-4.0,81.72749999999999,26.84,12.95176275,34.57
2021-07-07 11:03:55.445312500,-61.0,-21.0,-4.0,81.7303125,26.92,12.95092203125,34.57
2021-07-07 11:03:55.453125000,-61.0,-21.0,-4.0,81.733125,27.0,12.9500813125,34.57
2021-07-07 11:03:55.460937500,-61.0,-21.0,-4.0,81.7359375,26.73,12.94924059375,34.57
2021-07-07 11:03:55.468750000,-61.0,-21.0,-4.0,81.73875,26.46,12.948399875,34.57
2021-07-07 11:03:55.476562500,-61.0,-21.0,-4.0,81.7415625,25.97,12.94755915625,34.57
2021-07-07 11:03:55.484375000,-61.0,-21.0,-4.0,81.744375,25.48,12.9467184375,34.57
2021-07-07 11:03:55.492187500,-61.0,-21.0,-4.0,81.7471875,24.925,12.94587771875,34.57
2021-07-07 11:03:55.500000000,-61.0,-21.0,-4.0,81.75,24.37,12.945037,34.57
2021-07-07 11:03:55.507812500,-61.0,-21.0,-4.0,81.7528125,23.875,12.945237156249998,34.57
2021-07-07 11:03:55.515625000,-61.0,-21.0,-4.0,81.755625,23.38,12.9454373125,34.57
2021-07-07 11:03:55.523437500,-61.0,-21.0,-4.0,81.7584375,23.005,12.94563746875,34.57
2021-07-07 11:03:55.531250000,-61.0,-21.0,-4.0,81.76125,22.63,12.945837625,34.57
2021-07-07 11:03:55.539062500,-61.0,-21.0,-4.0,81.7640625,22.365000000000002,12.946037781249998,34.57
2021-07-07 11:03:55.546875000,-61.0,-21.0,-4.0,81.766875,22.1,12.9462379375,34.57
2021-07-07 11:03:55.554687500,-61.0,-21.0,-4.0,81.7696875,21.89,12.94643809375,34.57
2021-07-07 11:03:55.562500000,-61.0,-21.0,-4.0,81.77250000000001,21.68,12.94663825,34.57
2021-07-07 11:03:55.570312500,-61.0,-21.0,-4.0,81.7753125,21.485,12.946838406249999,34.57
2021-07-07 11:03:55.578125000,-61.0,-21.0,-4.0,81.778125,21.29,12.9470385625,34.57
2021-07-07 11:03:55.585937500,-61.0,-21.0,-4.0,81.78093750000001,21.095,12.94723871875,34.57
2021-07-07 11:03:55.593750000,-61.0,-21.0,-4.0,81.78375,20.9,12.947438875,34.57
2021-07-07 11:03:55.601562500,-61.0,-21.0,-4.0,81.7865625,20.725,12.947639031249999,34.57
2021-07-07 11:03:55.609375000,-61.0,-21.0,-4.0,81.789375,20.55,12.9478391875,34.57
2021-07-07 11:03:55.617187500,-61.0,-21.0,-4.0,81.7921875,20.43,12.94803934375,34.57
2021-07-07 11:03:55.625000000,-61.0,-21.0,-4.0,81.795,20.31,12.9482395,34.57
2021-07-07 11:03:55.632812500,-61.0,-21.0,-4.0,81.7978125,20.25,12.948439656249999,34.57
2021-07-07 11:03:55.640625000,-61.0,-21.0,-4.0,81.800625,20.19,12.9486398125,34.57
2021-07-07 11:03:55.648437500,-61.0,-21.0,-4.0,81.8034375,20.14,12.94883996875,34.57
2021-07-07 11:03:55.656250000,-61.0,-21.0,-4.0,81.80625,20.09,12.949040125,34.57
2021-07-07 11:03:55.664062500,-61.0,-21.0,-4.0,81.8090625,19.965,12.949240281249999,34.57
2021-07-07 11:03:55.671875000,-61.0,-21.0,-4.0,81.811875,19.84,12.9494404375,34.57
2021-07-07 11:03:55.679687500,-61.0,-21.0,-4.0,81.8146875,19.515,12.94964059375,34.57
2021-07-07 11:03:55.687500000,-61.0,-21.0,-4.0,81.8175,19.19,12.94984075,34.57
2021-07-07 11:03:55.695312500,-61.0,-21.0,-4.0,81.8203125,18.565,12.950040906249999,34.57
2021-07-07 11:03:55.703125000,-61.0,-21.0,-4.0,81.823125,17.94,12.9502410625,34.57
2021-07-07 11:03:55.710937500,-61.0,-21.0,-4.0,81.82593750000001,16.965,12.95044121875,34.57
2021-07-07 11:03:55.718750000,-61.0,-21.0,-4.0,81.82875,15.99,12.950641375,34.57
2021-07-07 11:03:55.726562500,-61.0,-21.25,-4.0,81.8315625,14.68,12.95084153125,34.57
2021-07-07 11:03:55.734375000,-61.0,-21.5,-4.0,81.83437500000001,13.37,12.9510416875,34.57
2021-07-07 11:03:55.742187500,-61.0,-21.75,-4.0,81.8371875,11.809999999999999,12.951241843750001,34.57
2021-07-07 11:03:55.750000000,-61.0,-22.0,-4.0,81.84,10.25,12.951442,34.57
2021-07-07 11:03:55.757812500,-61.0,-21.75,-4.0,81.84281250000001,8.565,12.95088153125,34.57
2021-07-07 11:03:55.765625000,-61.0,-21.5,-4.0,81.845625,6.88,12.9503210625,34.57
2021-07-07 11:03:55.773437500,-61.0,-21.25,-4.0,81.8484375,5.22,12.94976059375,34.57
2021-07-07 11:03:55.781250000,-61.0,-21.0,-4.0,81.85125000000001,3.56,12.949200125,34.57
2021-07-07 11:03:55.789062500,-61.0,-21.0,-4.0,81.8540625,2.055,12.94863965625,34.57
2021-07-07 11:03:55.796875000,-61.0,-21.0,-4.0,81.856875,0.55,12.9480791875,34.57
2021-07-07 11:03:55.804687500,-61.0,-21.0,-4.0,81.8596875,-0.72,12.94751871875,34.57
2021-07-07 11:03:55.812500000,-61.0,-21.0,-4.0,81.86250000000001,-1.99,12.94695825,34.57
2021-07-07 11:03:55.820312500,-61.0,-21.25,-4.0,81.8653125,-2.98,12.94639778125,34.57
2021-07-07 11:03:55.828125000,-61.0,-21.5,-4.0,81.868125,-3.97,12.9458373125,34.57
2021-07-07 11:03:55.835937500,-61.0,-21.75,-4.0,81.87093750000001,-4.715,12.94527684375,34.57
2021-07-07 11:03:55.843750000,-61.0,-22.0,-4.0,81.87375,-5.46,12.944716375,34.57
2021-07-07 11:03:55.851562500,-61.0,-21.75,-4.0,81.8765625,-6.045,12.94415590625,34.57
2021-07-07 11:03:55.859375000,-61.0,-21.5,-4.0,81.87937500000001,-6.63,12.9435954375,34.57
2021-07-07 11:03:55.867187500,-61.0,-21.25,-4.0,81.8821875,-7.175,12.94303496875,34.57
2021-07-07 11:03:55.875000000,-61.0,-21.0,-4.0,81.885,-7.72,12.9424745,34.57
2021-07-07 11:03:55.882812500,-61.0,-21.0,-4.0,81.88781250000001,-8.305,12.94191403125,34.57
2021-07-07 11:03:55.890625000,-61.0,-21.0,-4.0,81.890625,-8.89,12.9413535625,34.57
2021-07-07 11:03:55.898437500,-61.0,-21.0,-4.0,81.8934375,-9.565000000000001,12.94079309375,34.57
2021-07-07 11:03:55.906250000,-61.0,-21.0,-4.0,81.89625000000001,-10.24,12.940232625,34.57
2021-07-07 11:03:55.914062500,-61.0,-21.0,-4.0,81.8990625,-10.99,12.939672156250001,34.57
2021-07-07 11:03:55.921875000,-61.0,-21.0,-4.0,81.901875,-11.74,12.9391116875,34.57
2021-07-07 11:03:55.929687500,-61.0,-21.0,-4.0,81.90468750000001,-12.49,12.93855121875,34.57
2021-07-07 11:03:55.937500000,-61.0,-21.0,-4.0,81.9075,-13.24,12.93799075,34.57
2021-07-07 11:03:55.945312500,-61.0,-21.0,-4.0,81.9103125,-13.91,12.93743028125,34.57
2021-07-07 11:03:55.953125000,-61.0,-21.0,-4.0,81.91312500000001,-14.58,12.936869812500001,34.57
2021-07-07 11:03:55.960937500,-61.0,-21.0,-4.0,81.91593750000001,-15.11,12.93630934375,34.57
2021-07-07 11:03:55.968750000,-61.0,-21.0,-4.0,81.91875,-15.64,12.935748875,34.57
2021-07-07 11:03:55.976562500,-61.0,-21.0,-4.0,81.92156250000001,-16.009999999999998,12.93518840625,34.57
2021-07-07 11:03:55.984375000,-61.0,-21.0,-4.0,81.92437500000001,-16.38,12.9346279375,34.57
2021-07-07 11:03:55.992187500,-61.0,-21.0,-4.0,81.9271875,-16.64,12.934067468750001,34.57
2021-07-07 11:03:56.000000000,-61.0,-21.0,-4.0,81.93,-16.9,12.933507,34.57
2021-07-07 11:03:56.007812500,-61.0,-21.0,-4.0,81.93265625000001,-17.134999999999998,12.933627093750001,34.570625
2021-07-07 11:03:56.015625000,-61.0,-21.0,-4.0,81.93531250000001,-17.37,12.9337471875,34.57125
2021-07-07 11:03:56.023437500,-61.0,-21.0,-4.0,81.93796875000001,-17.64,12.93386728125,34.571875
2021-07-07 11:03:56.031250000,-61.0,-21.0,-4.0,81.94062500000001,-17.91,12.933987375000001,34.5725
2021-07-07 11:03:56.039062500,-61.0,-21.0,-4.0,81.94328125000001,-18.235,12.93410746875,34.573125
2021-07-07 11:03:56.046875000,-61.0,-21.0,-4.0,81.9459375,-18.56,12.9342275625,34.573750000000004
2021-07-07 11:03:56.054687500,-61.0,-21.0,-4.0,81.94859375,-18.92,12.93434765625,34.574375
2021-07-07 11:03:56.062500000,-61.0,-21.0,-4.0,81.95125,-19.28,12.93446775,34.575
2021-07-07 11:03:56.070312500,-61.0,-21.0,-4.0,81.95390625,-19.595,12.93458784375,34.575625
2021-07-07 11:03:56.078125000,-61.0,-21.0,-4.0,81.9565625,-19.91,12.9347079375,34.57625
2021-07-07 11:03:56.085937500,-61.0,-21.0,-4.0,81.95921875,-20.11,12.934828031250001,34.576875
2021-07-07 11:03:56.093750000,-61.0,-21.0,-4.0,81.961875,-20.31,12.934948125,34.5775
2021-07-07 11:03:56.101562500,-61.0,-21.0,-4.0,81.96453125000001,-20.345,12.93506821875,34.578125
2021-07-07 11:03:56.109375000,-61.0,-21.0,-4.0,81.96718750000001,-20.38,12.935188312500001,34.57875
2021-07-07 11:03:56.117187500,-61.0,-21.0,-4.0,81.96984375000001,-20.259999999999998,12.93530840625,34.579375
2021-07-07 11:03:56.125000000,-61.0,-21.0,-4.0,81.97250000000001,-20.14,12.9354285,34.58
2021-07-07 11:03:56.132812500,-61.0,-21.0,-4.0,81.97515625000001,-19.965,12.935548593750001,34.580625000000005
2021-07-07 11:03:56.140625000,-61.0,-21.0,-4.0,81.9778125,-19.79,12.9356686875,34.581250000000004
2021-07-07 11:03:56.148437500,-61.0,-21.0,-4.0,81.98046875,-19.695,12.93578878125,34.581875000000004
2021-07-07 11:03:56.156250000,-61.0,-21.0,-4.0,81.983125,-19.6,12.935908875,34.5825
2021-07-07 11:03:56.164062500,-61.25,-21.0,-4.0,81.98578125,-19.73,12.93602896875,34.583125
2021-07-07 11:03:56.171875000,-61.5,-21.0,-4.0,81.9884375,-19.86,12.9361490625,34.58375
2021-07-07 11:03:56.179687500,-61.75,-21.0,-4.0,81.99109375,-20.335,12.93626915625,34.584375
2021-07-07 11:03:56.187500000,-62.0,-21.0,-4.0,81.99375,-20.81,12.936389250000001,34.585
2021-07-07 11:03:56.195312500,-61.75,-21.25,-4.0,81.99640625,-21.67,12.93650934375,34.585625
2021-07-07 11:03:56.203125000,-61.5,-21.5,-4.0,81.99906250000001,-22.53,12.9366294375,34.58625
2021-07-07 11:03:56.210937500,-61.25,-21.75,-4.0,82.00171875000001,-23.715,12.936749531250001,34.586875000000006
2021-07-07 11:03:56.218750000,-61.0,-22.0,-4.0,82.00437500000001,-24.9,12.936869625,34.587500000000006
2021-07-07 11:03:56.226562500,-61.0,-22.0,-4.0,82.00703125000001,-26.215,12.93698971875,34.588125000000005
2021-07-07 11:03:56.234375000,-61.0,-22.0,-4.0,82.0096875,-27.53,12.937109812500001,34.588750000000005
2021-07-07 11:03:56.242187500,-61.0,-22.0,-4.0,82.01234375,-28.705,12.93722990625,34.589375000000004
2021-07-07 11:03:56.250000000,-61.0,-22.0,-4.0,82.015,-29.88,12.93735,34.59
2021-07-07 11:03:56.257812500,-61.0,-22.0,-4.0,82.01765625,-30.585,12.93730996875,34.59
2021-07-07 11:03:56.265625000,-61.0,-22.0,-4.0,82.0203125,-31.29,12.9372699375,34.59
2021-07-07 11:03:56.273437500,-61.0,-22.0,-4.0,82.02296875,-31.215,12.93722990625,34.59
2021-07-07 11:03:56.281250000,-61.0,-22.0,-4.0,82.025625,-31.14,12.937189875,34.59
2021-07-07 11:03:56.289062500,-61.25,-21.75,-4.0,82.02828125,-30.055,12.93714984375,34.59
2021-07-07 11:03:56.296875000,-61.5,-21.5,-4.0,82.03093750000001,-28.97,12.937109812500001,34.59
2021-07-07 11:03:56.304687500,-61.75,-21.25,-4.0,82.03359375000001,-26.814999999999998,12.93706978125,34.59
2021-07-07 11:03:56.312500000,-62.0,-21.0,-4.0,82.03625000000001,-24.66,12.93702975,34.59
2021-07-07 11:03:56.320312500,-61.75,-21.0,-4.0,82.03890625,-21.57,12.93698971875,34.59
2021-07-07 11:03:56.328125000,-61.5,-21.0,-4.0,82.0415625,-18.48,12.9369496875,34.59
2021-07-07 11:03:56.335937500,-61.25,-21.0,-4.0,82.04421875,-14.754999999999999,12.93690965625,34.59
2021-07-07 11:03:56.343750000,-61.0,-21.0,-4.0,82.046875,-11.03,12.936869625,34.59
2021-07-07 11:03:56.351562500,-61.0,-21.0,-4.0,82.04953125,-7.08,12.93682959375,34.59
2021-07-07 11:03:56.359375000,-61.0,-21.0,-4.0,82.0521875,-3.13,12.9367895625,34.59
2021-07-07 11:03:56.367187500,-61.0,-21.0,-4.0,82.05484375,0.6350000000000002,12.93674953125,34.59
2021-07-07 11:03:56.375000000,-61.0,-21.0,-4.0,82.0575,4.4,12.9367095,34.59
2021-07-07 11:03:56.382812500,-61.0,-21.0,-4.0,82.06015625,7.655,12.93666946875,34.59
2021-07-07 11:03:56.390625000,-61.0,-21.0,-4.0,82.0628125,10.91,12.9366294375,34.59
2021-07-07 11:03:56.398437500,-61.0,-21.0,-4.0,82.06546875000001,13.51,12.93658940625,34.59
2021-07-07 11:03:56.406250000,-61.0,-21.0,-4.0,82.06812500000001,16.11,12.936549375,34.59
2021-07-07 11:03:56.414062500,-61.0,-21.0,-4.0,82.07078125,18.075,12.93650934375,34.59
2021-07-07 11:03:56.421875000,-61.0,-21.0,-4.0,82.0734375,20.04,12.9364693125,34.59
2021-07-07 11:03:56.429687500,-61.0,-21.0,-4.0,82.07609375,21.494999999999997,12.93642928125,34.59
2021-07-07 11:03:56.437500000,-61.0,-21.0,-4.0,82.07875,22.95,12.93638925,34.59
2021-07-07 11:03:56.445312500,-61.0,-21.0,-4.0,82.08140625,24.055,12.93634921875,34.59
2021-07-07 11:03:56.453125000,-61.0,-21.0,-4.0,82.0840625,25.16,12.9363091875,34.59
2021-07-07 11:03:56.460937500,-61.0,-21.0,-4.0,82.08671875,26.009999999999998,12.93626915625,34.59
2021-07-07 11:03:56.468750000,-61.0,-21.0,-4.0,82.089375,26.86,12.936229125,34.59
2021-07-07 11:03:56.476562500,-61.0,-21.0,-4.0,82.09203125,27.465,12.93618909375,34.59
2021-07-07 11:03:56.484375000,-61.0,-21.0,-4.0,82.0946875,28.07,12.9361490625,34.59
2021-07-07 11:03:56.492187500,-61.0,-21.0,-4.0,82.09734375000001,28.37,12.93610903125,34.59
2021-07-07 11:03:56.500000000,-61.0,-21.0,-4.0,82.1,28.67,12.936069,34.59
2021-07-07 11:03:56.507812500,-61.0,-21.0,-4.0,82.10265625,28.61,12.93618909375,34.59
2021-07-07 11:03:56.515625000,-61.0,-21.0,-4.0,82.1053125,28.55,12.9363091875,34.59
2021-07-07 11:03:56.523437500,-61.0,-21.0,-4.0,82.10796875,28.125,12.93642928125,34.59
2021-07-07 11:03:56.531250000,-61.0,-21.0,-4.0,82.110625,27.7,12.936549375,34.59
2021-07-07 11:03:56.539062500,-61.0,-21.0,-4.0,82.11328125,27.005,12.936669468749999,34.59
2021-07-07 11:03:56.546875000,-61.0,-21.0,-4.0,82.1159375,26.31,12.9367895625,34.59
2021-07-07 11:03:56.554687500,-61.0,-21.0,-4.0,82.11859375,25.505,12.93690965625,34.59
2021-07-07 11:03:56.562500000,-61.0,-21.0,-4.0,82.12125,24.7,12.93702975,34.59
2021-07-07 11:03:56.570312500,-61.0,-21.0,-4.0,82.12390625,23.96,12.93714984375,34.59
2021-07-07 11:03:56.578125000,-61.0,-21.0,-4.0,82.1265625,23.22,12.9372699375,34.59
2021-07-07 11:03:56.585937500,-61.0,-21.0,-4.0,82.12921875,22.65,12.93739003125,34.59
2021-07-07 11:03:56.593750000,-61.0,-21.0,-4.0,82.131875,22.08,12.937510125,34.59
2021-07-07 11:03:56.601562500,-61.0,-21.0,-4.0,82.13453125,21.72,12.93763021875,34.59
2021-07-07 11:03:56.609375000,-61.0,-21.0,-4.0,82.1371875,21.36,12.9377503125,34.59
2021-07-07 11:03:56.617187500,-61.0,-21.0,-4.0,82.13984375,21.174999999999997,12.93787040625,34.59
2021-07-07 11:03:56.625000000,-61.0,-21.0,-4.0,82.1425,20.99,12.9379905,34.59
2021-07-07 11:03:56.632812500,-61.0,-21.0,-4.0,82.14515625,20.92,12.93811059375,34.59
2021-07-07 11:03:56.640625000,-61.0,-21.0,-4.0,82.1478125,20.85,12.938230687499999,34.59
2021-07-07 11:03:56.648437500,-61.0,-21.0,-4.0,82.15046875,20.84,12.93835078125,34.59
2021-07-07 11:03:56.656250000,-61.0,-21.0,-4.0,82.153125,20.83,12.938470875,34.59
2021-07-07 11:03:56.664062500,-61.0,-21.0,-4.0,82.15578125,20.869999999999997,12.938590968749999,34.59
2021-07-07 11:03:56.671875000,-61.0,-21.0,-4.0,82.1584375,20.91,12.9387110625,34.59
2021-07-07 11:03:56.679687500,-61.0,-21.0,-4.0,82.16109375,20.990000000000002,12.93883115625,34.59
2021-07-07 11:03:56.687500000,-61.0,-21.0,-4.0,82.16375,21.07,12.938951249999999,34.59
2021-07-07 11:03:56.695312500,-61.0,-21.0,-4.0,82.16640625,21.165,12.93907134375,34.59
2021-07-07 11:03:56.703125000,-61.0,-21.0,-4.0,82.1690625,21.26,12.9391914375,34.59
2021-07-07 11:03:56.710937500,-61.0,-21.0,-4.0,82.17171875,21.325000000000003,12.93931153125,34.59
2021-07-07 11:03:56.718750000,-61.0,-21.0,-4.0,82.174375,21.39,12.939431625,34.59
2021-07-07 11:03:56.726562500,-61.0,-21.0,-4.0,82.17703125,21.345,12.93955171875,34.59
2021-07-07 11:03:56.734375000,-61.0,-21.0,-4.0,82.1796875,21.3,12.9396718125,34.59
2021-07-07 11:03:56.742187500,-61.0,-21.0,-4.0,82.18234375,21.064999999999998,12.939791906249999,34.59
2021-07-07 11:03:56.750000000,-61.0,-21.0,-4.0,82.185,20.83,12.939912,34.59
2021-07-07 11:03:56.757812500,-61.0,-21.0,-4.0,82.18765625,20.365,12.93943159375,34.59
2021-07-07 11:03:56.765625000,-61.0,-21.0,-4.0,82.1903125,19.9,12.938951187499999,34.59
2021-07-07 11:03:56.773437500,-61.0,-21.0,-4.0,82.19296874999999,19.21,12.93847078125,34.59
2021-07-07 11:03:56.781250000,-61.0,-21.0,-4.0,82.19562499999999,18.52,12.937990375,34.59
2021-07-07 11:03:56.789062500,-61.0,-21.0,-4.0,82.19828125,17.65,12.93750996875,34.59
2021-07-07 11:03:56.796875000,-61.0,-21.0,-4.0,82.2009375,16.78,12.9370295625,34.59
2021-07-07 11:03:56.804687500,-61.0,-21.0,-4.0,82.20359375,15.805,12.936549156249999,34.59
2021-07-07 11:03:56.812500000,-61.0,-21.0,-4.0,82.20625,14.83,12.93606875,34.59
2021-07-07 11:03:56.820312500,-61.0,-21.0,-4.0,82.20890625,13.805,12.93558834375,34.59
2021-07-07 11:03:56.828125000,-61.0,-21.0,-4.0,82.2115625,12.78,12.9351079375,34.59
2021-07-07 11:03:56.835937500,-61.0,-21.0,-4.0,82.21421875,11.76,12.93462753125,34.59
2021-07-07 11:03:56.843750000,-61.0,-21.0,-4.0,82.216875,10.74,12.934147124999999,34.59
2021-07-07 11:03:56.851562500,-61.0,-21.25,-4.0,82.21953125,9.75,12.933666718749999,34.59
2021-07-07 11:03:56.859375000,-61.0,-21.5,-4.0,82.2221875,8.76,12.9331863125,34.59
2021-07-07 11:03:56.867187500,-61.0,-21.75,-4.0,82.22484374999999,7.835,12.93270590625,34.59
2021-07-07 11:03:56.875000000,-61.0,-22.0,-4.0,82.22749999999999,6.91,12.9322255,34.59
2021-07-07 11:03:56.882812500,-61.0,-22.0,-4.0,82.23015625,6.07,12.93174509375,34.59
2021-07-07 11:03:56.890625000,-61.0,-22.0,-4.0,82.2328125,5.23,12.931264687499999,34.59
2021-07-07 11:03:56.898437500,-61.0,-22.0,-4.0,82.23546875,4.5,12.93078428125,34.59
2021-07-07 11:03:56.906250000,-61.0,-22.0,-4.0,82.238125,3.77,12.930303875,34.59
2021-07-07 11:03:56.914062500,-61.0,-21.75,-4.0,82.24078125,3.125,12.92982346875,34.59
2021-07-07 11:03:56.921875000,-61.0,-21.5,-4.0,82.2434375,2.48,12.9293430625,34.59
2021-07-07 11:03:56.929687500,-61.0,-21.25,-4.0,82.24609375,1.88,12.928862656249999,34.59
2021-07-07 11:03:56.937500000,-61.0,-21.0,-4.0,82.24875,1.28,12.928382249999999,34.59
2021-07-07 11:03:56.945312500,-61.0,-21.25,-4.0,82.25140625,0.66,12.92790184375,34.59
2021-07-07 11:03:56.953125000,-61.0,-21.5,-4.0,82.2540625,0.04,12.9274214375,34.59
2021-07-07 11:03:56.960937500,-61.0,-21.75,-4.0,82.25671874999999,-0.6699999999999999,12.92694103125,34.59
2021-07-07 11:03:56.968750000,-61.0,-22.0,-4.0,82.25937499999999,-1.38,12.926460624999999,34.59
2021-07-07 11:03:56.976562500,-61.0,-21.75,-4.0,82.26203124999999,-2.19,12.925980218749999,34.59
2021-07-07 11:03:56.984375000,-61.0,-21.5,-4.0,82.2646875,-3.0,12.9254998125,34.59
2021-07-07 11:03:56.992187500,-61.0,-21.25,-4.0,82.26734375,-3.87,12.92501940625,34.59
2021-07-07 11:03:57.000000000,-61.0,-21.0,-4.0,82.27,-4.74,12.924539,34.59
2021-07-07 11:03:57.007812500,-61.0,-21.0,-4.0,82.27164062499999,-5.605,12.92421871875,34.59
2021-07-07 11:03:57.015625000,-61.0,-21.0,-4.0,82.27328125,-6.47,12.9238984375,34.59
2021-07-07 11:03:57.023437500,-61.0,-21.0,-4.0,82.27492187499999,-7.265000000000001,12.923578156249999,34.59
2021-07-07 11:03:57.031250000,-61.0,-21.0,-4.0,82.2765625,-8.06,12.923257875,34.59
2021-07-07 11:03:57.039062500,-61.0,-21.0,-4.0,82.27820312499999,-8.760000000000002,12.92293759375,34.59
2021-07-07 11:03:57.046875000,-61.0,-21.0,-4.0,82.27984375,-9.46,12.9226173125,34.59
2021-07-07 11:03:57.054687500,-61.0,-21.0,-4.0,82.28148437499999,-10.105,12.922297031249999,34.59
2021-07-07 11:03:57.062500000,-61.0,-21.0,-4.0,82.283125,-10.75,12.921976749999999,34.59
2021-07-07 11:03:57.070312500,-61.0,-21.25,-4.0,82.28476562499999,-11.41,12.92165646875,34.59
2021-07-07 11:03:57.078125000,-61.0,-21.5,-4.0,82.28640625,-12.07,12.9213361875,34.59
2021-07-07 11:03:57.085937500,-61.0,-21.75,-4.0,82.28804687499999,-12.81,12.92101590625,34.59
2021-07-07 11:03:57.093750000,-61.0,-22.0,-4.0,82.2896875,-13.55,12.920695624999999,34.59
2021-07-07 11:03:57.101562500,-61.0,-22.0,-4.25,82.29132812499999,-14.4,12.920375343749999,34.59
2021-07-07 11:03:57.109375000,-61.0,-22.0,-4.5,82.29296875,-15.25,12.9200550625,34.59
2021-07-07 11:03:57.117187500,-61.0,-22.0,-4.75,82.294609375,-16.17,12.91973478125,34.59
2021-07-07 11:03:57.125000000,-61.0,-22.0,-5.0,82.29625,-17.09,12.919414499999998,34.59
2021-07-07 11:03:57.132812500,-61.0,-21.75,-4.75,82.297890625,-18.025,12.919094218749999,34.59
2021-07-07 11:03:57.140625000,-61.0,-21.5,-4.5,82.29953125,-18.96,12.9187739375,34.59
2021-07-07 11:03:57.148437500,-61.0,-21.25,-4.25,82.301171875,-19.845,12.91845365625,34.59
2021-07-07 11:03:57.156250000,-61.0,-21.0,-4.0,82.3028125,-20.73,12.918133375,34.59
2021-07-07 11:03:57.164062500,-61.25,-21.0,-4.0,82.304453125,-21.54,12.917813093749999,34.59
2021-07-07 11:03:57.171875000,-61.5,-21.0,-4.0,82.30609375,-22.35,12.917492812499999,34.59
2021-07-07 11:03:57.179687500,-61.75,-21.0,-4.0,82.307734375,-23.09,12.91717253125,34.59
2021-07-07 11:03:57.187500000,-62.0,-21.0,-4.0,82.309375,-23.83,12.91685225,34.59
2021-07-07 11:03:57.195312500,-61.75,-21.0,-4.0,82.311015625,-24.534999999999997,12.91653196875,34.59
2021-07-07 11:03:57.203125000,-61.5,-21.0,-4.0,82.31265625,-25.24,12.916211687499999,34.59
2021-07-07 11:03:57.210937500,-61.25,-21.0,-4.0,82.314296875,-25.979999999999997,12.91589140625,34.59
2021-07-07 11:03:57.218750000,-61.0,-21.0,-4.0,82.3159375,-26.72,12.915571125,34.59
2021-07-07 11:03:57.226562500,-61.0,-21.25,-4.0,82.317578125,-27.555,12.91525084375,34.59
2021-07-07 11:03:57.234375000,-61.0,-21.5,-4.0,82.31921875,-28.39,12.914930562499999,34.59
2021-07-07 11:03:57.242187500,-61.0,-21.75,-4.0,82.320859375,-29.375,12.914610281249999,34.59
2021-07-07 11:03:57.250000000,-61.0,-22.0,-4.0,82.32249999999999,-30.36,12.91429,34.59
2021-07-07 11:03:57.257812500,-61.0,-22.0,-3.75,82.324140625,-31.509999999999998,12.91424996875,34.59
2021-07-07 11:03:57.265625000,-61.0,-22.0,-3.5,82.32578124999999,-32.66,12.914209937499999,34.59
2021-07-07 11:03:57.273437500,-61.0,-22.0,-3.25,82.327421875,-33.9,12.914169906249999,34.59
2021-07-07 11:03:57.281250000,-61.0,-22.0,-3.0,82.32906249999999,-35.14,12.914129875,34.59
2021-07-07 11:03:57.289062500,-61.0,-22.0,-3.25,82.330703125,-36.315,12.91408984375,34.59
2021-07-07 11:03:57.296875000,-61.0,-22.0,-3.5,82.33234374999999,-37.49,12.9140498125,34.59
2021-07-07 11:03:57.304687500,-61.0,-22.0,-3.75,82.333984375,-38.385000000000005,12.91400978125,34.59
2021-07-07 11:03:57.312500000,-61.0,-22.0,-4.0,82.335625,-39.28,12.91396975,34.59
2021-07-07 11:03:57.320312500,-61.0,-22.0,-4.0,82.337265625,-39.644999999999996,12.91392971875,34.59
2021-07-07 11:03:57.328125000,-61.0,-22.0,-4.0,82.33890625,-40.01,12.9138896875,34.59
2021-07-07 11:03:57.335937500,-61.0,-22.0,-4.0,82.340546875,-39.64,12.91384965625,34.59
2021-07-07 11:03:57.343750000,-61.0,-22.0,-4.0,82.3421875,-39.27,12.913809624999999,34.59
2021-07-07 11:03:57.351562500,-61.0,-21.75,-4.0,82.343828125,-38.05500000000001,12.91376959375,34.59
2021-07-07 11:03:57.359375000,-61.0,-21.5,-4.0,82.34546875,-36.84,12.9137295625,34.59
2021-07-07 11:03:57.367187500,-61.0,-21.25,-4.0,82.347109375,-34.815,12.91368953125,34.59
2021-07-07 11:03:57.375000000,-61.0,-21.0,-4.0,82.34875,-32.79,12.9136495,34.59
2021-07-07 11:03:57.382812500,-61.0,-21.0,-4.0,82.350390625,-30.095,12.91360946875,34.59
2021-07-07 11:03:57.390625000,-61.0,-21.0,-4.0,82.35203125,-27.4,12.9135694375,34.59
2021-07-07 11:03:57.398437500,-61.0,-21.0,-4.0,82.353671875,-24.25,12.91352940625,34.59
2021-07-07 11:03:57.406250000,-61.0,-21.0,-4.0,82.3553125,-21.1,12.913489375000001,34.59
2021-07-07 11:03:57.414062500,-61.0,-21.0,-4.0,82.356953125,-17.725,12.91344934375,34.59
2021-07-07 11:03:57.421875000,-61.0,-21.0,-4.0,82.35859375,-14.35,12.9134093125,34.59
2021-07-07 11:03:57.429687500,-61.0,-21.0,-4.0,82.360234375,-10.945,12.91336928125,34.59
2021-07-07 11:03:57.437500000,-61.0,-21.0,-4.0,82.361875,-7.54,12.91332925,34.59
2021-07-07 11:03:57.445312500,-61.0,-21.0,-4.0,82.363515625,-4.265000000000001,12.91328921875,34.59
2021-07-07 11:03:57.453125000,-61.0,-21.0,-4.0,82.36515625,-0.99,12.9132491875,34.59
2021-07-07 11:03:57.460937500,-61.0,-21.0,-4.0,82.366796875,2.0600000000000005,12.91320915625,34.59
2021-07-07 11:03:57.468750000,-61.0,-21.0,-4.0,82.3684375,5.11,12.913169125,34.59
2021-07-07 11:03:57.476562500,-61.0,-21.25,-4.0,82.370078125,7.84,12.913129093750001,34.59
2021-07-07 11:03:57.484375000,-61.0,-21.5,-4.0,82.37171875,10.57,12.913089062500001,34.59
2021-07-07 11:03:57.492187500,-61.0,-21.75,-4.0,82.373359375,12.92,12.91304903125,34.59
2021-07-07 11:03:57.500000000,-61.0,-22.0,-4.0,82.375,15.27,12.913009,34.59
2021-07-07 11:03:57.507812500,-61.0,-21.75,-4.0,82.376640625,17.185000000000002,12.9124885625,34.59
2021-07-07 11:03:57.515625000,-61.0,-21.5,-4.0,82.37828125,19.1,12.911968125000001,34.59
2021-07-07 11:03:57.523437500,-61.0,-21.25,-4.0,82.379921875,20.545,12.9114476875,34.59
2021-07-07 11:03:57.531250000,-61.0,-21.0,-4.0,82.3815625,21.99,12.91092725,34.59
2021-07-07 11:03:57.539062500,-61.0,-21.0,-4.0,82.383203125,22.945,12.9104068125,34.59
2021-07-07 11:03:57.546875000,-61.0,-21.0,-4.0,82.38484375,23.9,12.909886375000001,34.59
2021-07-07 11:03:57.554687500,-61.0,-21.0,-4.0,82.386484375,24.375,12.9093659375,34.59
2021-07-07 11:03:57.562500000,-61.0,-21.0,-4.0,82.388125,24.85,12.9088455,34.59
2021-07-07 11:03:57.570312500,-61.0,-21.0,-4.0,82.389765625,24.895000000000003,12.908325062500001,34.59
2021-07-07 11:03:57.578125000,-61.0,-21.0,-4.0,82.39140625,24.94,12.907804625,34.59
2021-07-07 11:03:57.585937500,-61.0,-21.0,-4.0,82.393046875,24.615000000000002,12.9072841875,34.59
2021-07-07 11:03:57.593750000,-61.0,-21.0,-4.0,82.3946875,24.29,12.90676375,34.59
2021-07-07 11:03:57.601562500,-61.0,-21.25,-4.0,82.396328125,23.695,12.906243312500001,34.59
2021-07-07 11:03:57.609375000,-61.0,-21.5,-4.0,82.39796875,23.1,12.905722875,34.59
2021-07-07 11:03:57.617187500,-61.0,-21.75,-4.0,82.399609375,22.355,12.9052024375,34.59
2021-07-07 11:03:57.625000000,-61.0,-22.0,-4.0,82.40125,21.61,12.904682000000001,34.59
2021-07-07 11:03:57.632812500,-61.0,-22.0,-4.0,82.402890625,20.865000000000002,12.9041615625,34.59
2021-07-07 11:03:57.640625000,-61.0,-22.0,-4.0,82.40453125,20.12,12.903641125,34.59
2021-07-07 11:03:57.648437500,-61.0,-22.0,-4.0,82.406171875,19.53,12.9031206875,34.59
2021-07-07 11:03:57.656250000,-61.0,-22.0,-4.0,82.4078125,18.94,12.90260025,34.59
2021-07-07 11:03:57.664062500,-61.0,-22.0,-4.0,82.409453125,18.61,12.9020798125,34.59
2021-07-07 11:03:57.671875000,-61.0,-22.0,-4.0,82.41109375,18.28,12.901559375,34.59
2021-07-07 11:03:57.679687500,-61.0,-22.0,-4.0,82.412734375,18.255000000000003,12.9010389375,34.59
2021-07-07 11:03:57.687500000,-61.0,-22.0,-4.0,82.414375,18.23,12.9005185,34.59
2021-07-07 11:03:57.695312500,-61.0,-22.0,-4.0,82.416015625,18.48,12.8999980625,34.59
2021-07-07 11:03:57.703125000,-61.0,-22.0,-4.0,82.41765625000001,18.73,12.899477625,34.59
2021-07-07 11:03:57.710937500,-61.0,-22.0,-4.0,82.419296875,19.155,12.8989571875,34.59
2021-07-07 11:03:57.718750000,-61.0,-22.0,-4.0,82.42093750000001,19.58,12.89843675,34.59
2021-07-07 11:03:57.726562500,-61.0,-22.0,-4.0,82.422578125,20.045,12.8979163125,34.59
2021-07-07 11:03:57.734375000,-61.0,-22.0,-4.0,82.42421875000001,20.51,12.897395874999999,34.59
2021-07-07 11:03:57.742187500,-61.0,-22.0,-4.0,82.425859375,20.9,12.8968754375,34.59
2021-07-07 11:03:57.750000000,-61.0,-22.0,-4.0,82.42750000000001,21.29,12.896355,34.59
2021-07-07 11:03:57.757812500,-61.0,-22.0,-4.0,82.429140625,21.515,12.8965551875,34.59
2021-07-07 11:03:57.765625000,-61.0,-22.0,-4.0,82.43078125,21.74,12.896755375,34.59
2021-07-07 11:03:57.773437500,-61.0,-22.0,-4.0,82.432421875,21.744999999999997,12.8969555625,34.59
2021-07-07 11:03:57.781250000,-61.0,-22.0,-4.0,82.4340625,21.75,12.89715575,34.59
2021-07-07 11:03:57.789062500,-61.0,-22.0,-4.0,82.435703125,21.509999999999998,12.8973559375,34.59
2021-07-07 11:03:57.796875000,-61.0,-22.0,-4.0,82.43734375,21.27,12.897556125,34.59
2021-07-07 11:03:57.804687500,-61.0,-22.0,-4.0,82.438984375,20.79,12.8977563125,34.59
2021-07-07 11:03:57.812500000,-61.0,-22.0,-4.0,82.440625,20.31,12.8979565,34.59
2021-07-07 11:03:57.820312500,-61.0,-22.0,-4.0,82.442265625,19.61,12.8981566875,34.59
2021-07-07 11:03:57.828125000,-61.0,-22.0,-4.0,82.44390625,18.91,12.898356875,34.59
2021-07-07 11:03:57.835937500,-61.0,-22.0,-4.0,82.445546875,18.064999999999998,12.8985570625,34.59
2021-07-07 11:03:57.843750000,-61.0,-22.0,-4.0,82.4471875,17.22,12.89875725,34.59
2021-07-07 11:03:57.851562500,-61.0,-22.0,-4.0,82.448828125,16.305,12.8989574375,34.59
2021-07-07 11:03:57.859375000,-61.0,-22.0,-4.0,82.45046875,15.39,12.899157624999999,34.59
2021-07-07 11:03:57.867187500,-61.0,-22.0,-4.0,82.452109375,14.5,12.8993578125,34.59
2021-07-07 11:03:57.875000000,-61.0,-22.0,-4.0,82.45375,13.61,12.899557999999999,34.59
2021-07-07 11:03:57.882812500,-61.0,-22.0,-4.0,82.455390625,12.78,12.8997581875,34.59
2021-07-07 11:03:57.890625000,-61.0,-22.0,-4.0,82.45703125,11.95,12.899958375,34.59
2021-07-07 11:03:57.898437500,-61.0,-22.0,-4.0,82.45867187500001,11.16,12.9001585625,34.59
2021-07-07 11:03:57.906250000,-61.0,-22.0,-4.0,82.4603125,10.37,12.90035875,34.59
2021-07-07 11:03:57.914062500,-61.0,-22.0,-4.25,82.46195312500001,9.555,12.9005589375,34.59
2021-07-07 11:03:57.921875000,-61.0,-22.0,-4.5,82.46359375,8.74,12.900759125,34.59
2021-07-07 11:03:57.929687500,-61.0,-22.0,-4.75,82.46523437500001,7.825,12.9009593125,34.59
2021-07-07 11:03:57.937500000,-61.0,-22.0,-5.0,82.466875,6.91,12.9011595,34.59
2021-07-07 11:03:57.945312500,-61.0,-22.0,-5.0,82.46851562500001,5.845000000000001,12.9013596875,34.59
2021-07-07 11:03:57.953125000,-61.0,-22.0,-5.0,82.47015625,4.78,12.901559875,34.59
2021-07-07 11:03:57.960937500,-61.0,-22.0,-5.0,82.47179687500001,3.6050000000000004,12.9017600625,34.59
2021-07-07 11:03:57.968750000,-61.0,-22.0,-5.0,82.4734375,2.43,12.90196025,34.59
2021-07-07 11:03:57.976562500,-61.0,-22.0,-4.75,82.47507812500001,1.23,12.9021604375,34.59
2021-07-07 11:03:57.984375000,-61.0,-22.0,-4.5,82.47671875,0.03,12.902360625,34.59
2021-07-07 11:03:57.992187500,-61.0,-22.0,-4.25,82.47835937500001,-1.085,12.902560812499999,34.59
2021-07-07 11:03:58.000000000,-61.0,-22.0,-4.0,82.48,-2.2,12.902761,34.59
2021-07-07 11:03:58.007812500,-61.0,-22.0,-4.0,82.48156250000001,-3.14,12.902040375,34.59
2021-07-07 11:03:58.015625000,-61.0,-22.0,-4.0,82.483125,-4.08,12.90131975,34.59
2021-07-07 11:03:58.023437500,-61.0,-22.0,-4.0,82.4846875,-4.8,12.900599125,34.59
2021-07-07 11:03:58.031250000,-61.0,-22.0,-4.0,82.48625,-5.52,12.8998785,34.59
2021-07-07 11:03:58.039062500,-61.0,-22.0,-4.0,82.4878125,-6.025,12.899157875,34.59
2021-07-07 11:03:58.046875000,-61.0,-22.0,-4.0,82.48937500000001,-6.53,12.89843725,34.59
2021-07-07 11:03:58.054687500,-61.0,-22.0,-4.0,82.4909375,-6.865,12.897716625,34.59
2021-07-07 11:03:58.062500000,-61.0,-22.0,-4.0,82.4925,-7.2,12.896996,34.59
2021-07-07 11:03:58.070312500,-61.0,-22.0,-4.0,82.4940625,-7.42,12.896275375,34.59
2021-07-07 11:03:58.078125000,-61.0,-22.0,-4.0,82.495625,-7.64,12.89555475,34.59
2021-07-07 11:03:58.085937500,-61.0,-22.0,-4.0,82.49718750000001,-7.8149999999999995,12.894834125000001,34.59
2021-07-07 11:03:58.093750000,-61.0,-22.0,-4.0,82.49875,-7.99,12.8941135,34.59
2021-07-07 11:03:58.101562500,-61.0,-22.0,-4.0,82.5003125,-8.190000000000001,12.893392875,34.59
2021-07-07 11:03:58.109375000,-61.0,-22.0,-4.0,82.501875,-8.39,12.89267225,34.59
2021-07-07 11:03:58.117187500,-61.0,-22.0,-4.0,82.5034375,-8.685,12.891951625,34.59
2021-07-07 11:03:58.125000000,-61.0,-22.0,-4.0,82.50500000000001,-8.98,12.891231000000001,34.59
2021-07-07 11:03:58.132812500,-61.0,-22.0,-4.0,82.5065625,-9.43,12.890510375,34.59
2021-07-07 11:03:58.140625000,-61.0,-22.0,-4.0,82.508125,-9.88,12.88978975,34.59
2021-07-07 11:03:58.148437500,-61.0,-22.0,-4.0,82.5096875,-10.52,12.889069125,34.59
2021-07-07 11:03:58.156250000,-61.0,-22.0,-4.0,82.51125,-11.16,12.888348500000001,34.59
2021-07-07 11:03:58.164062500,-61.0,-21.75,-4.0,82.51281250000001,-11.975,12.887627875,34.59
2021-07-07 11:03:58.171875000,-61.0,-21.5,-4.0,82.514375,-12.79,12.88690725,34.59
2021-07-07 11:03:58.179687500,-61.0,-21.25,-4.0,82.5159375,-13.715,12.886186625,34.59
2021-07-07 11:03:58.187500000,-61.0,-21.0,-4.0,82.5175,-14.64,12.885466000000001,34.59
2021-07-07 11:03:58.195312500,-61.0,-21.0,-4.0,82.5190625,-15.595,12.884745375000001,34.59
2021-07-07 11:03:58.203125000,-61.0,-21.0,-4.0,82.52062500000001,-16.55,12.88402475,34.59
2021-07-07 11:03:58.210937500,-61.0,-21.0,-4.0,82.5221875,-17.439999999999998,12.883304125,34.59
2021-07-07 11:03:58.218750000,-61.0,-21.0,-4.0,82.52375,-18.33,12.8825835,34.59
2021-07-07 11:03:58.226562500,-61.0,-21.0,-4.0,82.5253125,-19.11,12.881862875000001,34.59
2021-07-07 11:03:58.234375000,-61.0,-21.0,-4.0,82.526875,-19.89,12.88114225,34.59
2021-07-07 11:03:58.242187500,-61.0,-21.0,-4.0,82.52843750000001,-20.564999999999998,12.880421625,34.59
2021-07-07 11:03:58.250000000,-61.0,-21.0,-4.0,82.53,-21.24,12.879701,34.59
2021-07-07 11:03:58.257812500,-61.0,-21.0,-4.0,82.5315625,-21.845,12.879701,34.59
2021-07-07 11:03:58.265625000,-61.0,-21.0,-4.0,82.533125,-22.45,12.879701,34.59
2021-07-07 11:03:58.273437500,-61.0,-21.0,-4.0,82.5346875,-23.07,12.879701,34.59
2021-07-07 11:03:58.281250000,-61.0,-21.0,-4.0,82.53625000000001,-23.69,12.879701,34.59
2021-07-07 11:03:58.289062500,-61.0,-21.25,-4.0,82.5378125,-24.405,12.879701,34.59
2021-07-07 11:03:58.296875000,-61.0,-21.5,-4.0,82.539375,-25.12,12.879701,34.59
2021-07-07 11:03:58.304687500,-61.0,-21.75,-4.0,82.5409375,-25.985,12.879701,34.59
2021-07-07 11:03:58.312500000,-61.0,-22.0,-4.0,82.5425,-26.85,12.879701,34.59
2021-07-07 11:03:58.320312500,-61.5,-22.0,-4.25,82.54406250000001,-27.9,12.879701,34.59
2021-07-07 11:03:58.328125000,-62.0,-22.0,-4.5,82.545625,-28.95,12.879701,34.59
2021-07-07 11:03:58.335937500,-62.5,-22.0,-4.75,82.5471875,-30.17,12.879701,34.59
2021-07-07 11:03:58.343750000,-63.0,-22.0,-5.0,82.54875,-31.39,12.879701,34.59
2021-07-07 11:03:58.351562500,-62.75,-22.0,-5.0,82.5503125,-32.675,12.879701,34.59
2021-07-07 11:03:58.359375000,-62.5,-22.0,-5.0,82.55187500000001,-33.96,12.879701,34.59
2021-07-07 11:03:58.367187500,-62.25,-22.0,-5.0,82.5534375,-35.125,12.879701,34.59
2021-07-07 11:03:58.375000000,-62.0,-22.0,-5.0,82.555,-36.29,12.879701,34.59
2021-07-07 11:03:58.382812500,-61.25,-21.75,-4.5,82.5565625,-37.075,12.879701,34.59
2021-07-07 11:03:58.390625000,-60.5,-21.5,-4.0,82.558125,-37.86,12.879701,34.59
2021-07-07 11:03:58.398437500,-59.75,-21.25,-3.5,82.55968750000001,-37.94,12.879701,34.59
2021-07-07 11:03:58.406250000,-59.0,-21.0,-3.0,82.56125,-38.02,12.879701,34.59
2021-07-07 11:03:58.414062500,-59.25,-21.25,-2.75,82.5628125,-37.14,12.879701,34.59
2021-07-07 11:03:58.421875000,-59.5,-21.5,-2.5,82.564375,-36.26,12.879701,34.59
2021-07-07 11:03:58.429687500,-59.75,-21.75,-2.25,82.5659375,-34.3,12.879701,34.59
2021-07-07 11:03:58.437500000,-60.0,-22.0,-2.0,82.56750000000001,-32.34,12.879701,34.59
2021-07-07 11:03:58.445312500,-60.0,-21.75,-1.75,82.5690625,-29.385,12.879701,34.59
2021-07-07 11:03:58.453125000,-60.0,-21.5,-1.5,82.570625,-26.43,12.879701,34.59
2021-07-07 11:03:58.460937500,-60.0,-21.25,-1.25,82.5721875,-22.740000000000002,12.879701,34.59
2021-07-07 11:03:58.468750000,-60.0,-21.0,-1.0,82.57375,-19.05,12.879701,34.59
2021-07-07 11:03:58.476562500,-60.25,-21.25,-1.25,82.57531250000001,-15.005,12.879701,34.59
2021-07-07 11:03:58.484375000,-60.5,-21.5,-1.5,82.576875,-10.96,12.879701,34.59
2021-07-07 11:03:58.492187500,-60.75,-21.75,-1.75,82.5784375,-6.930000000000001,12.879701,34.59
2021-07-07 11:03:58.500000000,-61.0,-22.0,-2.0,82.58000000000001,-2.9,12.879701,34.59
2021-07-07 11:03:58.507812500,-61.25,-22.0,-2.25,82.5815625,0.8299999999999996,12.879781031250001,34.59
2021-07-07 11:03:58.515625000,-61.5,-22.0,-2.5,82.58312500000001,4.56,12.879861062500002,34.59
2021-07-07 11:03:58.523437500,-61.75,-22.0,-2.75,82.5846875,7.8100000000000005,12.87994109375,34.59
2021-07-07 11:03:58.531250000,-62.0,-22.0,-3.0,82.58625,11.06,12.880021125,34.59
2021-07-07 11:03:58.539062500,-61.75,-21.75,-3.0,82.58781250000001,13.754999999999999,12.880101156250001,34.59
2021-07-07 11:03:58.546875000,-61.5,-21.5,-3.0,82.589375,16.45,12.8801811875,34.59
2021-07-07 11:03:58.554687500,-61.25,-21.25,-3.0,82.59093750000001,18.564999999999998,12.88026121875,34.59
2021-07-07 11:03:58.562500000,-61.0,-21.0,-3.0,82.5925,20.68,12.88034125,34.59
2021-07-07 11:03:58.570312500,-61.25,-21.0,-3.5,82.5940625,22.205,12.880421281250001,34.59
2021-07-07 11:03:58.578125000,-61.5,-21.0,-4.0,82.59562500000001,23.73,12.880501312500002,34.59
2021-07-07 11:03:58.585937500,-61.75,-21.0,-4.5,82.5971875,24.68,12.88058134375,34.59
2021-07-07 11:03:58.593750000,-62.0,-21.0,-5.0,82.59875000000001,25.63,12.880661375,34.59
2021-07-07 11:03:58.601562500,-62.25,-20.75,-5.5,82.6003125,26.025,12.880741406250001,34.59
2021-07-07 11:03:58.609375000,-62.5,-20.5,-6.0,82.601875,26.42,12.8808214375,34.59
2021-07-07 11:03:58.617187500,-62.75,-20.25,-6.5,82.60343750000001,26.315,12.88090146875,34.59
2021-07-07 11:03:58.625000000,-63.0,-20.0,-7.0,82.605,26.21,12.8809815,34.59
2021-07-07 11:03:58.632812500,-62.75,-20.0,-6.5,82.60656250000001,25.72,12.881061531250001,34.59
2021-07-07 11:03:58.640625000,-62.5,-20.0,-6.0,82.608125,25.23,12.881141562500002,34.59
2021-07-07 11:03:58.648437500,-62.25,-20.0,-5.5,82.6096875,24.48,12.88122159375,34.59
2021-07-07 11:03:58.656250000,-62.0,-20.0,-5.0,82.61125000000001,23.73,12.881301625,34.59
2021-07-07 11:03:58.664062500,-61.5,-19.75,-4.5,82.6128125,22.835,12.881381656250001,34.59
2021-07-07 11:03:58.671875000,-61.0,-19.5,-4.0,82.61437500000001,21.94,12.8814616875,34.59
2021-07-07 11:03:58.679687500,-60.5,-19.25,-3.5,82.6159375,21.009999999999998,12.88154171875,34.59
2021-07-07 11:03:58.687500000,-60.0,-19.0,-3.0,82.6175,20.08,12.88162175,34.59
2021-07-07 11:03:58.695312500,-60.25,-19.25,-3.0,82.61906250000001,19.21,12.881701781250001,34.59
2021-07-07 11:03:58.703125000,-60.5,-19.5,-3.0,82.620625,18.34,12.881781812500002,34.59
2021-07-07 11:03:58.710937500,-60.75,-19.75,-3.0,82.62218750000001,17.59,12.88186184375,34.59
2021-07-07 11:03:58.718750000,-61.0,-20.0,-3.0,82.62375,16.84,12.881941875,34.59
2021-07-07 11:03:58.726562500,-61.25,-20.5,-2.0,82.6253125,16.265,12.882021906250001,34.59
2021-07-07 11:03:58.734375000,-61.5,-21.0,-1.0,82.62687500000001,15.69,12.8821019375,34.59
2021-07-07 11:03:58.742187500,-61.75,-21.5,0.0,82.6284375,15.309999999999999,12.88218196875,34.59
2021-07-07 11:03:58.750000000,-62.0,-22.0,1.0,82.63000000000001,14.93,12.882262,34.59
2021-07-07 11:03:58.757812500,-61.75,-21.75,0.5,82.6315625,14.735,12.88270240625,34.59
2021-07-07 11:03:58.765625000,-61.5,-21.5,0.0,82.633125,14.54,12.883142812500001,34.59
2021-07-07 11:03:58.773437500,-61.25,-21.25,-0.5,82.63468750000001,14.45,12.883583218750001,34.59
2021-07-07 11:03:58.781250000,-61.0,-21.0,-1.0,82.63625,14.36,12.884023625000001,34.59
2021-07-07 11:03:58.789062500,-61.0,-21.25,-1.75,82.63781250000001,14.28,12.884464031250001,34.59
2021-07-07 11:03:58.796875000,-61.0,-21.5,-2.5,82.639375,14.2,12.884904437500001,34.59
2021-07-07 11:03:58.804687500,-61.0,-21.75,-3.25,82.6409375,14.02,12.885344843750001,34.59
2021-07-07 11:03:58.812500000,-61.0,-22.0,-4.0,82.64250000000001,13.84,12.885785250000001,34.59
2021-07-07 11:03:58.820312500,-61.25,-22.0,-4.25,82.6440625,13.504999999999999,12.88622565625,34.59
2021-07-07 11:03:58.828125000,-61.5,-22.0,-4.5,82.64562500000001,13.17,12.8866660625,34.59
2021-07-07 11:03:58.835937500,-61.75,-22.0,-4.75,82.6471875,12.684999999999999,12.88710646875,34.59
2021-07-07 11:03:58.843750000,-62.0,-22.0,-5.0,82.64875,12.2,12.887546875,34.59
2021-07-07 11:03:58.851562500,-61.75,-22.0,-4.5,82.65031250000001,11.635,12.88798728125,34.59
2021-07-07 11:03:58.859375000,-61.5,-22.0,-4.0,82.651875,11.07,12.8884276875,34.59
2021-07-07 11:03:58.867187500,-61.25,-22.0,-3.5,82.65343750000001,10.5,12.88886809375,34.59
2021-07-07 11:03:58.875000000,-61.0,-22.0,-3.0,82.655,9.93,12.8893085,34.59
2021-07-07 11:03:58.882812500,-61.0,-22.0,-2.75,82.6565625,9.415,12.88974890625,34.59
2021-07-07 11:03:58.890625000,-61.0,-22.0,-2.5,82.65812500000001,8.9,12.8901893125,34.59
2021-07-07 11:03:58.898437500,-61.0,-22.0,-2.25,82.6596875,8.435,12.89062971875,34.59
2021-07-07 11:03:58.906250000,-61.0,-22.0,-2.0,82.66125000000001,7.97,12.891070125,34.59
2021-07-07 11:03:58.914062500,-61.0,-22.0,-1.75,82.6628125,7.494999999999999,12.89151053125,34.59
2021-07-07 11:03:58.921875000,-61.0,-22.0,-1.5,82.664375,7.02,12.8919509375,34.59
2021-07-07 11:03:58.929687500,-61.0,-22.0,-1.25,82.66593750000001,6.484999999999999,12.89239134375,34.59
2021-07-07 11:03:58.937500000,-61.0,-22.0,-1.0,82.6675,5.95,12.89283175,34.59
2021-07-07 11:03:58.945312500,-61.25,-22.0,-1.5,82.66906250000001,5.345000000000001,12.89327215625,34.59
2021-07-07 11:03:58.953125000,-61.5,-22.0,-2.0,82.670625,4.74,12.8937125625,34.59
2021-07-07 11:03:58.960937500,-61.75,-22.0,-2.5,82.6721875,4.11,12.89415296875,34.59
2021-07-07 11:03:58.968750000,-62.0,-22.0,-3.0,82.67375000000001,3.48,12.894593375,34.59
2021-07-07 11:03:58.976562500,-61.75,-21.75,-2.75,82.6753125,2.895,12.89503378125,34.59
2021-07-07 11:03:58.984375000,-61.5,-21.5,-2.5,82.67687500000001,2.31,12.8954741875,34.59
2021-07-07 11:03:58.992187500,-61.25,-21.25,-2.25,82.6784375,1.8050000000000002,12.89591459375,34.59
2021-07-07 11:03:59.000000000,-61.0,-21.0,-2.0,82.68,1.3,12.896355,34.59
2021-07-07 11:03:59.007812500,-61.25,-21.25,-2.5,82.681875,0.875,12.8965551875,34.589375000000004
2021-07-07 11:03:59.015625000,-61.5,-21.5,-3.0,82.68375,0.45,12.896755375,34.588750000000005
2021-07-07 11:03:59.023437500,-61.75,-21.75,-3.5,82.685625,0.03999999999999998,12.8969555625,34.588125000000005
2021-07-07 11:03:59.031250000,-62.0,-22.0,-4.0,82.6875,-0.37,12.89715575,34.587500000000006
2021-07-07 11:03:59.039062500,-61.75,-21.75,-4.0,82.68937500000001,-0.815,12.8973559375,34.586875000000006
2021-07-07 11:03:59.046875000,-61.5,-21.5,-4.0,82.69125000000001,-1.26,12.897556125,34.58625
2021-07-07 11:03:59.054687500,-61.25,-21.25,-4.0,82.69312500000001,-1.7850000000000001,12.8977563125,34.585625
2021-07-07 11:03:59.062500000,-61.0,-21.0,-4.0,82.69500000000001,-2.31,12.8979565,34.585
2021-07-07 11:03:59.070312500,-61.25,-21.0,-4.25,82.696875,-2.895,12.8981566875,34.584375
2021-07-07 11:03:59.078125000,-61.5,-21.0,-4.5,82.69875,-3.48,12.898356875,34.58375
2021-07-07 11:03:59.085937500,-61.75,-21.0,-4.75,82.700625,-4.075,12.8985570625,34.583125
2021-07-07 11:03:59.093750000,-62.0,-21.0,-5.0,82.7025,-4.67,12.89875725,34.5825
2021-07-07 11:03:59.101562500,-62.25,-21.0,-5.25,82.70437500000001,-5.225,12.8989574375,34.581875000000004
2021-07-07 11:03:59.109375000,-62.5,-21.0,-5.5,82.70625000000001,-5.78,12.899157624999999,34.581250000000004
2021-07-07 11:03:59.117187500,-62.75,-21.0,-5.75,82.70812500000001,-6.285,12.8993578125,34.580625000000005
2021-07-07 11:03:59.125000000,-63.0,-21.0,-6.0,82.71000000000001,-6.79,12.899557999999999,34.58
2021-07-07 11:03:59.132812500,-62.5,-21.0,-5.0,82.711875,-7.27,12.8997581875,34.579375
2021-07-07 11:03:59.140625000,-62.0,-21.0,-4.0,82.71375,-7.75,12.899958375,34.57875
2021-07-07 11:03:59.148437500,-61.5,-21.0,-3.0,82.715625,-8.265,12.9001585625,34.578125
2021-07-07 11:03:59.156250000,-61.0,-21.0,-2.0,82.7175,-8.78,12.90035875,34.5775
2021-07-07 11:03:59.164062500,-61.0,-21.0,-1.75,82.719375,-9.395,12.9005589375,34.576875
2021-07-07 11:03:59.171875000,-61.0,-21.0,-1.5,82.72125000000001,-10.01,12.900759125,34.57625
2021-07-07 11:03:59.179687500,-61.0,-21.0,-1.25,82.72312500000001,-10.745000000000001,12.9009593125,34.575625
2021-07-07 11:03:59.187500000,-61.0,-21.0,-1.0,82.72500000000001,-11.48,12.9011595,34.575
2021-07-07 11:03:59.195312500,-60.75,-20.75,-0.75,82.726875,-12.33,12.9013596875,34.574375
2021-07-07 11:03:59.203125000,-60.5,-20.5,-0.5,82.72875,-13.18,12.901559875,34.573750000000004
2021-07-07 11:03:59.210937500,-60.25,-20.25,-0.25,82.730625,-14.07,12.9017600625,34.573125
2021-07-07 11:03:59.218750000,-60.0,-20.0,0.0,82.7325,-14.96,12.90196025,34.5725
2021-07-07 11:03:59.226562500,-60.25,-20.25,0.5,82.734375,-15.805,12.9021604375,34.571875
2021-07-07 11:03:59.234375000,-60.5,-20.5,1.0,82.73625000000001,-16.65,12.902360625,34.57125
2021-07-07 11:03:59.242187500,-60.75,-20.75,1.5,82.73812500000001,-17.375,12.902560812499999,34.570625
2021-07-07 11:03:59.250000000,-61.0,-21.0,2.0,82.74000000000001,-18.1,12.902761,34.57
2021-07-07 11:03:59.257812500,-61.25,-21.0,1.75,82.74187500000001,-18.68,12.9047626875,34.57
2021-07-07 11:03:59.265625000,-61.5,-21.0,1.5,82.74375,-19.26,12.906764375,34.57
2021-07-07 11:03:59.273437500,-61.75,-21.0,1.25,82.745625,-19.71,12.9087660625,34.57
2021-07-07 11:03:59.281250000,-62.0,-21.0,1.0,82.7475,-20.16,12.91076775,34.57
2021-07-07 11:03:59.289062500,-61.75,-20.75,0.5,82.749375,-20.545,12.9127694375,34.57
2021-07-07 11:03:59.296875000,-61.5,-20.5,0.0,82.75125,-20.93,12.914771125,34.57
2021-07-07 11:03:59.304687500,-61.25,-20.25,-0.5,82.75312500000001,-21.36,12.9167728125,34.57
2021-07-07 11:03:59.312500000,-61.0,-20.0,-1.0,82.75500000000001,-21.79,12.9187745,34.57
2021-07-07 11:03:59.320312500,-61.25,-20.0,-1.25,82.75687500000001,-22.35,12.9207761875,34.57
2021-07-07 11:03:59.328125000,-61.5,-20.0,-1.5,82.75875,-22.91,12.922777875,34.57
2021-07-07 11:03:59.335937500,-61.75,-20.0,-1.75,82.760625,-23.665,12.9247795625,34.57
2021-07-07 11:03:59.343750000,-62.0,-20.0,-2.0,82.7625,-24.42,12.92678125,34.57
2021-07-07 11:03:59.351562500,-62.0,-20.25,-1.75,82.764375,-25.375,12.9287829375,34.57
2021-07-07 11:03:59.359375000,-62.0,-20.5,-1.5,82.76625,-26.33,12.930784625,34.57
2021-07-07 11:03:59.367187500,-62.0,-20.75,-1.25,82.76812500000001,-27.409999999999997,12.9327863125,34.57
2021-07-07 11:03:59.375000000,-62.0,-21.0,-1.0,82.77000000000001,-28.49,12.934788000000001,34.57
2021-07-07 11:03:59.382812500,-62.5,-21.0,-1.25,82.77187500000001,-29.575,12.936789687500001,34.57
2021-07-07 11:03:59.390625000,-63.0,-21.0,-1.5,82.77375,-30.66,12.938791375000001,34.57
2021-07-07 11:03:59.398437500,-63.5,-21.0,-1.75,82.775625,-31.564999999999998,12.940793062500001,34.57
2021-07-07 11:03:59.406250000,-64.0,-21.0,-2.0,82.7775,-32.47,12.942794750000001,34.57
2021-07-07 11:03:59.414062500,-63.75,-20.75,-2.0,82.779375,-32.995000000000005,12.9447964375,34.57
2021-07-07 11:03:59.421875000,-63.5,-20.5,-2.0,82.78125,-33.52,12.946798125,34.57
2021-07-07 11:03:59.429687500,-63.25,-20.25,-2.0,82.783125,-33.46,12.9487998125,34.57
2021-07-07 11:03:59.437500000,-63.0,-20.0,-2.0,82.78500000000001,-33.4,12.9508015,34.57
2021-07-07 11:03:59.445312500,-62.25,-20.0,-1.25,82.78687500000001,-32.58,12.9528031875,34.57
2021-07-07 11:03:59.453125000,-61.5,-20.0,-0.5,82.78875000000001,-31.76,12.954804875,34.57
2021-07-07 11:03:59.460937500,-60.75,-20.0,0.25,82.790625,-30.07,12.9568065625,34.57
2021-07-07 11:03:59.468750000,-60.0,-20.0,1.0,82.7925,-28.38,12.95880825,34.57
2021-07-07 11:03:59.476562500,-59.75,-20.0,0.25,82.794375,-25.82,12.9608099375,34.57
2021-07-07 11:03:59.484375000,-59.5,-20.0,-0.5,82.79625,-23.26,12.962811625,34.57
2021-07-07 11:03:59.492187500,-59.25,-20.0,-1.25,82.798125,-19.990000000000002,12.9648133125,34.57
2021-07-07 11:03:59.500000000,-59.0,-20.0,-2.0,82.80000000000001,-16.72,12.966815,34.57
2021-07-07 11:03:59.507812500,-60.25,-20.25,-1.25,82.80187500000001,-13.059999999999999,12.96889678125,34.57
2021-07-07 11:03:59.515625000,-61.5,-20.5,-0.5,82.80375000000001,-9.4,12.970978562500001,34.57
2021-07-07 11:03:59.523437500,-62.75,-20.75,0.25,82.805625,-5.795,12.973060343750001,34.57
2021-07-07 11:03:59.531250000,-64.0,-21.0,1.0,82.8075,-2.19,12.975142125,34.57
2021-07-07 11:03:59.539062500,-63.75,-21.0,1.0,82.809375,0.9049999999999998,12.97722390625,34.57
2021-07-07 11:03:59.546875000,-63.5,-21.0,1.0,82.81125,4.0,12.9793056875,34.57
2021-07-07 11:03:59.554687500,-63.25,-21.0,1.0,82.813125,6.21,12.98138746875,34.57
2021-07-07 11:03:59.562500000,-63.0,-21.0,1.0,82.815,8.42,12.98346925,34.57
2021-07-07 11:03:59.570312500,-62.75,-20.75,0.5,82.81687500000001,9.594999999999999,12.98555103125,34.57
2021-07-07 11:03:59.578125000,-62.5,-20.5,0.0,82.81875000000001,10.77,12.9876328125,34.57
2021-07-07 11:03:59.585937500,-62.25,-20.25,-0.5,82.820625,10.985,12.98971459375,34.57
2021-07-07 11:03:59.593750000,-62.0,-20.0,-1.0,82.8225,11.2,12.991796375,34.57
2021-07-07 11:03:59.601562500,-62.0,-20.0,-0.5,82.824375,10.71,12.99387815625,34.57
2021-07-07 11:03:59.609375000,-62.0,-20.0,0.0,82.82625,10.22,12.9959599375,34.57
2021-07-07 11:03:59.617187500,-62.0,-20.0,0.5,82.828125,9.36,12.99804171875,34.57
2021-07-07 11:03:59.625000000,-62.0,-20.0,1.0,82.83,8.5,13.0001235,34.57
2021-07-07 11:03:59.632812500,-62.25,-19.75,1.0,82.831875,7.54,13.00220528125,34.57
2021-07-07 11:03:59.640625000,-62.5,-19.5,1.0,82.83375000000001,6.58,13.0042870625,34.57
2021-07-07 11:03:59.648437500,-62.75,-19.25,1.0,82.83562500000001,5.665,13.00636884375,34.57
2021-07-07 11:03:59.656250000,-63.0,-19.0,1.0,82.8375,4.75,13.008450625,34.57
2021-07-07 11:03:59.664062500,-62.75,-19.25,1.25,82.839375,3.8899999999999997,13.01053240625,34.57
2021-07-07 11:03:59.671875000,-62.5,-19.5,1.5,82.84125,3.03,13.0126141875,34.57
2021-07-07 11:03:59.679687500,-62.25,-19.75,1.75,82.843125,2.185,13.014695968749999,34.57
2021-07-07 11:03:59.687500000,-62.0,-20.0,2.0,82.845,1.34,13.01677775,34.57
2021-07-07 11:03:59.695312500,-61.5,-20.0,3.0,82.846875,0.51,13.01885953125,34.57
2021-07-07 11:03:59.703125000,-61.0,-20.0,4.0,82.84875000000001,-0.32,13.0209413125,34.57
2021-07-07 11:03:59.710937500,-60.5,-20.0,5.0,82.85062500000001,-1.03,13.02302309375,34.57
2021-07-07 11:03:59.718750000,-60.0,-20.0,6.0,82.8525,-1.74,13.025104875,34.57
2021-07-07 11:03:59.726562500,-60.25,-20.0,6.5,82.854375,-2.115,13.027186656249999,34.57
2021-07-07 11:03:59.734375000,-60.5,-20.0,7.0,82.85625,-2.49,13.029268437499999,34.57
2021-07-07 11:03:59.742187500,-60.75,-20.0,7.5,82.858125,-2.255,13.03135021875,34.57
2021-07-07 11:03:59.750000000,-61.0,-20.0,8.0,82.86,-2.02,13.033432,34.57
2021-07-07 11:03:59.757812500,-61.0,-20.0,7.5,82.861875,-0.97,13.037795749999999,34.57
2021-07-07 11:03:59.765625000,-61.0,-20.0,7.0,82.86375,0.08,13.0421595,34.57
2021-07-07 11:03:59.773437500,-61.0,-20.0,6.5,82.86562500000001,2.025,13.04652325,34.57
2021-07-07 11:03:59.781250000,-61.0,-20.0,6.0,82.8675,3.97,13.050887,34.57
2021-07-07 11:03:59.789062500,-61.25,-20.0,6.0,82.869375,6.68,13.055250749999999,34.57
2021-07-07 11:03:59.796875000,-61.5,-20.0,6.0,82.87125,9.39,13.059614499999999,34.57
2021-07-07 11:03:59.804687500,-61.75,-20.0,6.0,82.873125,12.585,13.06397825,34.57
2021-07-07 11:03:59.812500000,-62.0,-20.0,6.0,82.875,15.78,13.068342,34.57
2021-07-07 11:03:59.820312500,-62.0,-20.0,6.0,82.876875,19.07,13.072705749999999,34.57
2021-07-07 11:03:59.828125000,-62.0,-20.0,6.0,82.87875,22.36,13.0770695,34.57
2021-07-07 11:03:59.835937500,-62.0,-20.0,6.0,82.88062500000001,25.39,13.08143325,34.57
2021-07-07 11:03:59.843750000,-62.0,-20.0,6.0,82.88250000000001,28.42,13.085797,34.57
2021-07-07 11:03:59.851562500,-61.25,-20.0,6.25,82.884375,30.91,13.090160749999999,34.57
2021-07-07 11:03:59.859375000,-60.5,-20.0,6.5,82.88625,33.4,13.094524499999999,34.57
2021-07-07 11:03:59.867187500,-59.75,-20.0,6.75,82.888125,35.19,13.09888825,34.57
2021-07-07 11:03:59.875000000,-59.0,-20.0,7.0,82.89,36.98,13.103252,34.57
2021-07-07 11:03:59.882812500,-60.25,-20.0,6.5,82.891875,37.98,13.107615749999999,34.57
2021-07-07 11:03:59.890625000,-61.5,-20.0,6.0,82.89375,38.98,13.1119795,34.57
2021-07-07 11:03:59.898437500,-62.75,-20.0,5.5,82.895625,39.19499999999999,13.11634325,34.57
2021-07-07 11:03:59.906250000,-64.0,-20.0,5.0,82.89750000000001,39.41,13.120707,34.57
2021-07-07 11:03:59.914062500,-63.75,-19.75,5.5,82.899375,38.95,13.125070749999999,34.57
2021-07-07 11:03:59.921875000,-63.5,-19.5,6.0,82.90125,38.49,13.129434499999999,34.57
2021-07-07 11:03:59.929687500,-63.25,-19.25,6.5,82.903125,37.6,13.13379825,34.57
2021-07-07 11:03:59.937500000,-63.0,-19.0,7.0,82.905,36.71,13.138162,34.57
2021-07-07 11:03:59.945312500,-62.25,-19.0,8.25,82.906875,35.8,13.142525749999999,34.57
2021-07-07 11:03:59.953125000,-61.5,-19.0,9.5,82.90875,34.89,13.1468895,34.57
2021-07-07 11:03:59.960937500,-60.75,-19.0,10.75,82.910625,34.405,13.15125325,34.57
2021-07-07 11:03:59.968750000,-60.0,-19.0,12.0,82.91250000000001,33.92,13.155617,34.57
2021-07-07 11:03:59.976562500,-60.0,-19.25,12.25,82.914375,34.165,13.159980749999999,34.57
2021-07-07 11:03:59.984375000,-60.0,-19.5,12.5,82.91625,34.41,13.164344499999999,34.57
2021-07-07 11:03:59.992187500,-60.0,-19.75,12.75,82.918125,35.41,13.16870825,34.57
2021-07-07 11:04:00.000000000,-60.0,-20.0,13.0,82.92,36.41,13.173072,34.57
2021-07-07 11:04:00.007812500,-60.25,-20.0,12.0,82.9221875,37.864999999999995,13.17811634375,34.57
2021-07-07 11:04:00.015625000,-60.5,-20.0,11.0,82.924375,39.32,13.1831606875,34.57
2021-07-07 11:04:00.023437500,-60.75,-20.0,10.0,82.9265625,40.735,13.18820503125,34.57
2021-07-07 11:04:00.031250000,-61.0,-20.0,9.0,82.92875000000001,42.15,13.193249374999999,34.57
2021-07-07 11:04:00.039062500,-60.25,-20.0,9.5,82.9309375,43.075,13.19829371875,34.57
2021-07-07 11:04:00.046875000,-59.5,-20.0,10.0,82.933125,44.0,13.2033380625,34.57
2021-07-07 11:04:00.054687500,-58.75,-20.0,10.5,82.9353125,44.245000000000005,13.20838240625,34.57
2021-07-07 11:04:00.062500000,-58.0,-20.0,11.0,82.9375,44.49,13.21342675,34.57
2021-07-07 11:04:00.070312500,-58.0,-20.25,11.75,82.9396875,44.17,13.218471093749999,34.57
2021-07-07 11:04:00.078125000,-58.0,-20.5,12.5,82.941875,43.85,13.2235154375,34.57
2021-07-07 11:04:00.085937500,-58.0,-20.75,13.25,82.9440625,43.29,13.22855978125,34.57
2021-07-07 11:04:00.093750000,-58.0,-21.0,14.0,82.94625,42.73,13.233604125,34.57
2021-07-07 11:04:00.101562500,-59.75,-20.75,12.5,82.9484375,42.2,13.23864846875,34.57
2021-07-07 11:04:00.109375000,-61.5,-20.5,11.0,82.950625,41.67,13.243692812499999,34.57
2021-07-07 11:04:00.117187500,-63.25,-20.25,9.5,82.95281250000001,41.245000000000005,13.24873715625,34.57
2021-07-07 11:04:00.125000000,-65.0,-20.0,8.0,82.955,40.82,13.253781499999999,34.57
2021-07-07 11:04:00.132812500,-64.0,-19.75,7.75,82.9571875,40.355000000000004,13.25882584375,34.57
2021-07-07 11:04:00.140625000,-63.0,-19.5,7.5,82.95937500000001,39.89,13.2638701875,34.57
2021-07-07 11:04:00.148437500,-62.0,-19.25,7.25,82.9615625,39.15,13.26891453125,34.57
2021-07-07 11:04:00.156250000,-61.0,-19.0,7.0,82.96375,38.41,13.273958875,34.57
2021-07-07 11:04:00.164062500,-61.0,-19.25,7.25,82.9659375,37.23,13.279003218749999,34.57
2021-07-07 11:04:00.171875000,-61.0,-19.5,7.5,82.968125,36.05,13.2840475625,34.57
2021-07-07 11:04:00.179687500,-61.0,-19.75,7.75,82.9703125,34.445,13.28909190625,34.57
2021-07-07 11:04:00.187500000,-61.0,-20.0,8.0,82.9725,32.84,13.29413625,34.57
2021-07-07 11:04:00.195312500,-61.5,-20.25,8.5,82.9746875,30.990000000000002,13.29918059375,34.57
2021-07-07 11:04:00.203125000,-62.0,-20.5,9.0,82.976875,29.14,13.304224937499999,34.57
2021-07-07 11:04:00.210937500,-62.5,-20.75,9.5,82.9790625,27.265,13.30926928125,34.57
2021-07-07 11:04:00.218750000,-63.0,-21.0,10.0,82.98125,25.39,13.314313625,34.57
2021-07-07 11:04:00.226562500,-64.0,-20.75,9.25,82.98343750000001,23.630000000000003,13.31935796875,34.57
2021-07-07 11:04:00.234375000,-65.0,-20.5,8.5,82.985625,21.87,13.3244023125,34.57
2021-07-07 11:04:00.242187500,-66.0,-20.25,7.75,82.9878125,20.240000000000002,13.32944665625,34.57
2021-07-07 11:04:00.250000000,-67.0,-20.0,7.0,82.99000000000001,18.61,13.334491,34.57
2021-07-07 11:04:00.257812500,-64.75,-19.5,9.0,82.9921875,16.985,13.336092375,34.57
2021-07-07 11:04:00.265625000,-62.5,-19.0,11.0,82.994375,15.36,13.33769375,34.57
2021-07-07 11:04:00.273437500,-60.25,-18.5,13.0,82.9965625,13.545,13.339295125,34.57
2021-07-07 11:04:00.281250000,-58.0,-18.0,15.0,82.99875,11.73,13.3408965,34.57
2021-07-07 11:04:00.289062500,-58.0,-18.25,14.75,83.0009375,9.535,13.342497875,34.57
2021-07-07 11:04:00.296875000,-58.0,-18.5,14.5,83.003125,7.34,13.34409925,34.57
2021-07-07 11:04:00.304687500,-58.0,-18.75,14.25,83.0053125,4.635,13.345700625,34.57
2021-07-07 11:04:00.312500000,-58.0,-19.0,14.0,83.00750000000001,1.93,13.347301999999999,34.57
2021-07-07 11:04:00.320312500,-58.25,-19.0,12.75,83.0096875,-1.34,13.348903375,34.57
2021-07-07 11:04:00.328125000,-58.5,-19.0,11.5,83.011875,-4.61,13.35050475,34.57
2021-07-07 11:04:00.335937500,-58.75,-19.0,10.25,83.01406250000001,-8.41,13.352106125,34.57
2021-07-07 11:04:00.343750000,-59.0,-19.0,9.0,83.01625,-12.21,13.3537075,34.57
2021-07-07 11:04:00.351562500,-59.75,-19.0,8.5,83.0184375,-16.41,13.355308875,34.57
2021-07-07 11:04:00.359375000,-60.5,-19.0,8.0,83.020625,-20.61,13.35691025,34.57
2021-07-07 11:04:00.367187500,-61.25,-19.0,7.5,83.0228125,-24.994999999999997,13.358511625,34.57
2021-07-07 11:04:00.375000000,-62.0,-19.0,7.0,83.025,-29.38,13.360113,34.57
2021-07-07 11:04:00.382812500,-62.5,-19.25,7.0,83.0271875,-33.575,13.361714375,34.57
2021-07-07 11:04:00.390625000,-63.0,-19.5,7.0,83.029375,-37.77,13.36331575,34.57
2021-07-07 11:04:00.398437500,-63.5,-19.75,7.0,83.0315625,-41.285,13.364917125,34.57
2021-07-07 11:04:00.406250000,-64.0,-20.0,7.0,83.03375,-44.8,13.3665185,34.57
2021-07-07 11:04:00.414062500,-64.0,-19.5,7.25,83.0359375,-47.075,13.368119875,34.57
2021-07-07 11:04:00.421875000,-64.0,-19.0,7.5,83.03812500000001,-49.35,13.36972125,34.57
2021-07-07 11:04:00.429687500,-64.0,-18.5,7.75,83.0403125,-49.879999999999995,13.371322625,34.57
2021-07-07 11:04:00.437500000,-64.0,-18.0,8.0,83.0425,-50.41,13.372924000000001,34.57
2021-07-07 11:04:00.445312500,-63.0,-18.25,7.75,83.04468750000001,-48.94,13.374525375000001,34.57
2021-07-07 11:04:00.453125000,-62.0,-18.5,7.5,83.046875,-47.47,13.376126750000001,34.57
2021-07-07 11:04:00.460937500,-61.0,-18.75,7.25,83.0490625,-44.129999999999995,13.377728125,34.57
2021-07-07 11:04:00.468750000,-60.0,-19.0,7.0,83.05125,-40.79,13.3793295,34.57
2021-07-07 11:04:00.476562500,-60.5,-19.0,7.75,83.0534375,-36.105000000000004,13.380930875,34.57
2021-07-07 11:04:00.484375000,-61.0,-19.0,8.5,83.055625,-31.42,13.38253225,34.57
2021-07-07 11:04:00.492187500,-61.5,-19.0,9.25,83.0578125,-26.185000000000002,13.384133625,34.57
2021-07-07 11:04:00.500000000,-62.0,-19.0,10.0,83.06,-20.95,13.385735,34.57
2021-07-07 11:04:00.507812500,-61.25,-19.0,9.75,83.06218750000001,-16.015,13.3853746875,34.57
2021-07-07 11:04:00.515625000,-60.5,-19.0,9.5,83.064375,-11.08,13.385014375,34.57
2021-07-07 11:04:00.523437500,-59.75,-19.0,9.25,83.0665625,-7.115,13.384654062500001,34.57
2021-07-07 11:04:00.531250000,-59.0,-19.0,9.0,83.06875000000001,-3.15,13.384293750000001,34.57
2021-07-07 11:04:00.539062500,-60.0,-19.5,8.75,83.0709375,-0.4849999999999999,13.3839334375,34.57
2021-07-07 11:04:00.546875000,-61.0,-20.0,8.5,83.073125,2.18,13.383573125,34.57
2021-07-07 11:04:00.554687500,-62.0,-20.5,8.25,83.0753125,3.5200000000000005,13.3832128125,34.57
2021-07-07 11:04:00.562500000,-63.0,-21.0,8.0,83.0775,4.86,13.3828525,34.57
2021-07-07 11:04:00.570312500,-63.25,-21.0,8.5,83.0796875,5.09,13.3824921875,34.57
2021-07-07 11:04:00.578125000,-63.5,-21.0,9.0,83.081875,5.32,13.382131875,34.57
2021-07-07 11:04:00.585937500,-63.75,-21.0,9.5,83.0840625,4.74,13.3817715625,34.57
2021-07-07 11:04:00.593750000,-64.0,-21.0,10.0,83.08625,4.16,13.38141125,34.57
2021-07-07 11:04:00.601562500,-63.0,-20.5,10.25,83.0884375,3.0300000000000002,13.3810509375,34.57
2021-07-07 11:04:00.609375000,-62.0,-20.0,10.5,83.090625,1.9,13.380690625,34.57
2021-07-07 11:04:00.617187500,-61.0,-19.5,10.75,83.09281250000001,0.44499999999999984,13.3803303125,34.57
2021-07-07 11:04:00.625000000,-60.0,-19.0,11.0,83.095,-1.01,13.37997,34.57
2021-07-07 11:04:00.632812500,-60.0,-19.0,10.75,83.0971875,-2.6550000000000002,13.3796096875,34.57
2021-07-07 11:04:00.640625000,-60.0,-19.0,10.5,83.09937500000001,-4.3,13.379249375,34.57
2021-07-07 11:04:00.648437500,-60.0,-19.0,10.25,83.1015625,-6.029999999999999,13.3788890625,34.57
2021-07-07 11:04:00.656250000,-60.0,-19.0,10.0,83.10375,-7.76,13.378528750000001,34.57
2021-07-07 11:04:00.664062500,-60.5,-19.25,10.5,83.1059375,-9.48,13.3781684375,34.57
2021-07-07 11:04:00.671875000,-61.0,-19.5,11.0,83.108125,-11.2,13.377808125,34.57
2021-07-07 11:04:00.679687500,-61.5,-19.75,11.5,83.1103125,-12.805,13.3774478125,34.57
2021-07-07 11:04:00.687500000,-62.0,-20.0,12.0,83.1125,-14.41,13.3770875,34.57
2021-07-07 11:04:00.695312500,-62.0,-19.75,11.0,83.1146875,-15.745,13.3767271875,34.57
2021-07-07 11:04:00.703125000,-62.0,-19.5,10.0,83.11687500000001,-17.08,13.376366875,34.57
2021-07-07 11:04:00.710937500,-62.0,-19.25,9.0,83.1190625,-17.945,13.3760065625,34.57
2021-07-07 11:04:00.718750000,-62.0,-19.0,8.0,83.12125,-18.81,13.375646249999999,34.57
2021-07-07 11:04:00.726562500,-60.75,-18.75,8.25,83.12343750000001,-19.06,13.3752859375,34.57
2021-07-07 11:04:00.734375000,-59.5,-18.5,8.5,83.125625,-19.31,13.374925625,34.57
2021-07-07 11:04:00.742187500,-58.25,-18.25,8.75,83.1278125,-18.915,13.3745653125,34.57
2021-07-07 11:04:00.750000000,-57.0,-18.0,9.0,83.13,-18.52,13.374205,34.57
2021-07-07 11:04:00.757812500,-58.25,-18.5,9.75,83.1321875,-17.655,13.375366,34.57
2021-07-07 11:04:00.765625000,-59.5,-19.0,10.5,83.134375,-16.79,13.376527,34.57
2021-07-07 11:04:00.773437500,-60.75,-19.5,11.25,83.1365625,-15.77,13.377688,34.57
2021-07-07 11:04:00.781250000,-62.0,-20.0,12.0,83.13875,-14.75,13.378849,34.57
2021-07-07 11:04:00.789062500,-63.75,-20.25,11.0,83.1409375,-13.9,13.38001,34.57
2021-07-07 11:04:00.796875000,-65.5,-20.5,10.0,83.143125,-13.05,13.381171,34.57
2021-07-07 11:04:00.804687500,-67.25,-20.75,9.0,83.1453125,-12.535,13.382332,34.57
2021-07-07 11:04:00.812500000,-69.0,-21.0,8.0,83.14750000000001,-12.02,13.383493,34.57
2021-07-07 11:04:00.820312500,-67.25,-20.75,8.25,83.1496875,-11.715,13.384654,34.57
2021-07-07 11:04:00.828125000,-65.5,-20.5,8.5,83.151875,-11.41,13.385815000000001,34.57
2021-07-07 11:04:00.835937500,-63.75,-20.25,8.75,83.15406250000001,-10.99,13.386976,34.57
2021-07-07 11:04:00.843750000,-62.0,-20.0,9.0,83.15625,-10.57,13.388137,34.57
2021-07-07 11:04:00.851562500,-61.0,-20.0,9.5,83.1584375,-9.68,13.389298,34.57
2021-07-07 11:04:00.859375000,-60.0,-20.0,10.0,83.160625,-8.79,13.390459,34.57
2021-07-07 11:04:00.867187500,-59.0,-20.0,10.5,83.1628125,-7.24,13.39162,34.57
2021-07-07 11:04:00.875000000,-58.0,-20.0,11.0,83.165,-5.69,13.392781,34.57
2021-07-07 11:04:00.882812500,-58.5,-20.25,11.25,83.1671875,-3.575,13.393942000000001,34.57
2021-07-07 11:04:00.890625000,-59.0,-20.5,11.5,83.169375,-1.46,13.395103,34.57
2021-07-07 11:04:00.898437500,-59.5,-20.75,11.75,83.17156250000001,0.9199999999999999,13.396264,34.57
2021-07-07 11:04:00.906250000,-60.0,-21.0,12.0,83.17375,3.3,13.397425,34.57
2021-07-07 11:04:00.914062500,-60.25,-20.75,12.0,83.1759375,5.615,13.398586,34.57
2021-07-07 11:04:00.921875000,-60.5,-20.5,12.0,83.17812500000001,7.93,13.399747,34.57
2021-07-07 11:04:00.929687500,-60.75,-20.25,12.0,83.1803125,10.004999999999999,13.400908000000001,34.57
2021-07-07 11:04:00.937500000,-61.0,-20.0,12.0,83.1825,12.08,13.402069000000001,34.57
2021-07-07 11:04:00.945312500,-60.75,-19.5,12.0,83.18468750000001,13.95,13.40323,34.57
2021-07-07 11:04:00.953125000,-60.5,-19.0,12.0,83.186875,15.82,13.404391,34.57
2021-07-07 11:04:00.960937500,-60.25,-18.5,12.0,83.1890625,17.689999999999998,13.405552,34.57
2021-07-07 11:04:00.968750000,-60.0,-18.0,12.0,83.19125,19.56,13.406713,34.57
2021-07-07 11:04:00.976562500,-60.0,-18.0,12.25,83.1934375,21.604999999999997,13.407874000000001,34.57
2021-07-07 11:04:00.984375000,-60.0,-18.0,12.5,83.195625,23.65,13.409035000000001,34.57
2021-07-07 11:04:00.992187500,-60.0,-18.0,12.75,83.1978125,25.915,13.410196000000001,34.57
2021-07-07 11:04:01.000000000,-60.0,-18.0,13.0,83.2,28.18,13.411357,34.57
2021-07-07 11:04:01.007812500,-60.25,-18.25,13.0,83.200546875,30.505,13.41095665625,34.57
2021-07-07 11:04:01.015625000,-60.5,-18.5,13.0,83.20109375,32.83,13.4105563125,34.57
2021-07-07 11:04:01.023437500,-60.75,-18.75,13.0,83.201640625,34.905,13.41015596875,34.57
2021-07-07 11:04:01.031250000,-61.0,-19.0,13.0,83.20218750000001,36.98,13.409755625,34.57
2021-07-07 11:04:01.039062500,-61.25,-18.75,12.5,83.202734375,38.489999999999995,13.40935528125,34.57
2021-07-07 11:04:01.046875000,-61.5,-18.5,12.0,83.20328125,40.0,13.4089549375,34.57
2021-07-07 11:04:01.054687500,-61.75,-18.25,11.5,83.203828125,40.72,13.40855459375,34.57
2021-07-07 11:04:01.062500000,-62.0,-18.0,11.0,83.204375,41.44,13.40815425,34.57
2021-07-07 11:04:01.070312500,-62.25,-18.25,10.75,83.204921875,41.325,13.40775390625,34.57
2021-07-07 11:04:01.078125000,-62.5,-18.5,10.5,83.20546875000001,41.21,13.4073535625,34.57
2021-07-07 11:04:01.085937500,-62.75,-18.75,10.25,83.206015625,40.36,13.406953218750001,34.57
2021-07-07 11:04:01.093750000,-63.0,-19.0,10.0,83.2065625,39.51,13.406552875000001,34.57
2021-07-07 11:04:01.101562500,-62.75,-19.0,10.25,83.207109375,38.07,13.406152531250001,34.57
2021-07-07 11:04:01.109375000,-62.5,-19.0,10.5,83.20765625,36.63,13.405752187500001,34.57
2021-07-07 11:04:01.117187500,-62.25,-19.0,10.75,83.208203125,34.685,13.405351843750001,34.57
2021-07-07 11:04:01.125000000,-62.0,-19.0,11.0,83.20875000000001,32.74,13.4049515,34.57
2021-07-07 11:04:01.132812500,-61.75,-19.0,11.75,83.209296875,30.270000000000003,13.40455115625,34.57
2021-07-07 11:04:01.140625000,-61.5,-19.0,12.5,83.20984375,27.8,13.4041508125,34.57
2021-07-07 11:04:01.148437500,-61.25,-19.0,13.25,83.210390625,24.689999999999998,13.40375046875,34.57
2021-07-07 11:04:01.156250000,-61.0,-19.0,14.0,83.2109375,21.58,13.403350125,34.57
2021-07-07 11:04:01.164062500,-61.25,-19.0,14.0,83.211484375,17.724999999999998,13.40294978125,34.57
2021-07-07 11:04:01.171875000,-61.5,-19.0,14.0,83.21203125,13.87,13.4025494375,34.57
2021-07-07 11:04:01.179687500,-61.75,-19.0,14.0,83.21257812500001,9.305,13.40214909375,34.57
2021-07-07 11:04:01.187500000,-62.0,-19.0,14.0,83.213125,4.74,13.40174875,34.57
2021-07-07 11:04:01.195312500,-61.5,-19.0,14.25,83.213671875,-0.3100000000000005,13.40134840625,34.57
2021-07-07 11:04:01.203125000,-61.0,-19.0,14.5,83.21421875,-5.36,13.4009480625,34.57
2021-07-07 11:04:01.210937500,-60.5,-19.0,14.75,83.214765625,-10.475000000000001,13.40054771875,34.57
2021-07-07 11:04:01.218750000,-60.0,-19.0,15.0,83.2153125,-15.59,13.400147375,34.57
2021-07-07 11:04:01.226562500,-60.75,-18.75,14.0,83.21585937500001,-20.305,13.39974703125,34.57
2021-07-07 11:04:01.234375000,-61.5,-18.5,13.0,83.21640625,-25.02,13.3993466875,34.57
2021-07-07 11:04:01.242187500,-62.25,-18.25,12.0,83.216953125,-28.96,13.39894634375,34.57
2021-07-07 11:04:01.250000000,-63.0,-18.0,11.0,83.2175,-32.9,13.398546,34.57
2021-07-07 11:04:01.257812500,-63.25,-18.25,10.25,83.218046875,-35.915,13.398706125,34.57
2021-07-07 11:04:01.265625000,-63.5,-18.5,9.5,83.21859375,-38.93,13.39886625,34.57
2021-07-07 11:04:01.273437500,-63.75,-18.75,8.75,83.219140625,-41.120000000000005,13.399026375,34.57
2021-07-07 11:04:01.281250000,-64.0,-19.0,8.0,83.2196875,-43.31,13.399186499999999,34.57
2021-07-07 11:04:01.289062500,-63.0,-18.75,8.75,83.220234375,-44.96,13.399346625,34.57
2021-07-07 11:04:01.296875000,-62.0,-18.5,9.5,83.22078125,-46.61,13.39950675,34.57
2021-07-07 11:04:01.304687500,-61.0,-18.25,10.25,83.221328125,-48.085,13.399666875,34.57
2021-07-07 11:04:01.312500000,-60.0,-18.0,11.0,83.221875,-49.56,13.399827,34.57
2021-07-07 11:04:01.320312500,-59.75,-18.0,11.0,83.222421875,-51.144999999999996,13.399987124999999,34.57
2021-07-07 11:04:01.328125000,-59.5,-18.0,11.0,83.22296875,-52.73,13.40014725,34.57
2021-07-07 11:04:01.335937500,-59.25,-18.0,11.0,83.223515625,-54.565,13.400307375,34.57
2021-07-07 11:04:01.343750000,-59.0,-18.0,11.0,83.2240625,-56.4,13.4004675,34.57
2021-07-07 11:04:01.351562500,-59.5,-17.75,11.0,83.224609375,-58.4,13.400627625,34.57
2021-07-07 11:04:01.359375000,-60.0,-17.5,11.0,83.22515625,-60.4,13.40078775,34.57
2021-07-07 11:04:01.367187500,-60.5,-17.25,11.0,83.225703125,-62.315,13.400947875,34.57
2021-07-07 11:04:01.375000000,-61.0,-17.0,11.0,83.22625,-64.23,13.401108,34.57
2021-07-07 11:04:01.382812500,-61.25,-17.25,11.25,83.226796875,-65.68,13.401268125,34.57
2021-07-07 11:04:01.390625000,-61.5,-17.5,11.5,83.22734375,-67.13,13.40142825,34.57
2021-07-07 11:04:01.398437500,-61.75,-17.75,11.75,83.227890625,-67.715,13.401588375,34.57
2021-07-07 11:04:01.406250000,-62.0,-18.0,12.0,83.2284375,-68.3,13.4017485,34.57
2021-07-07 11:04:01.414062500,-61.5,-17.75,12.25,83.228984375,-67.675,13.401908624999999,34.57
2021-07-07 11:04:01.421875000,-61.0,-17.5,12.5,83.22953125,-67.05,13.40206875,34.57
2021-07-07 11:04:01.429687500,-60.5,-17.25,12.75,83.230078125,-65.03,13.402228875,34.57
2021-07-07 11:04:01.437500000,-60.0,-17.0,13.0,83.230625,-63.01,13.402389,34.57
2021-07-07 11:04:01.445312500,-61.25,-17.25,12.0,83.231171875,-59.629999999999995,13.402549125,34.57
2021-07-07 11:04:01.453125000,-62.5,-17.5,11.0,83.23171875,-56.25,13.40270925,34.57
2021-07-07 11:04:01.460937500,-63.75,-17.75,10.0,83.232265625,-51.795,13.402869375,34.57
2021-07-07 11:04:01.468750000,-65.0,-18.0,9.0,83.2328125,-47.34,13.4030295,34.57
2021-07-07 11:04:01.476562500,-64.0,-18.0,9.25,83.233359375,-42.335,13.403189625,34.57
2021-07-07 11:04:01.484375000,-63.0,-18.0,9.5,83.23390625,-37.33,13.40334975,34.57
2021-07-07 11:04:01.492187500,-62.0,-18.0,9.75,83.234453125,-32.415,13.403509875,34.57
2021-07-07 11:04:01.500000000,-61.0,-18.0,10.0,83.235,-27.5,13.40367,34.57
2021-07-07 11:04:01.507812500,-61.75,-18.25,9.25,83.235546875,-23.265,13.40367,34.57
2021-07-07 11:04:01.515625000,-62.5,-18.5,8.5,83.23609375,-19.03,13.40367,34.57
2021-07-07 11:04:01.523437500,-63.25,-18.75,7.75,83.23664062499999,-15.870000000000001,13.40367,34.57
2021-07-07 11:04:01.531250000,-64.0,-19.0,7.0,83.2371875,-12.71,13.40367,34.57
2021-07-07 11:04:01.539062500,-64.75,-19.25,7.5,83.237734375,-10.72,13.40367,34.57
2021-07-07 11:04:01.546875000,-65.5,-19.5,8.0,83.23828125,-8.73,13.40367,34.57
2021-07-07 11:04:01.554687500,-66.25,-19.75,8.5,83.238828125,-7.77,13.40367,34.57
2021-07-07 11:04:01.562500000,-67.0,-20.0,9.0,83.239375,-6.81,13.40367,34.57
2021-07-07 11:04:01.570312500,-64.5,-19.75,10.25,83.239921875,-6.654999999999999,13.40367,34.57
2021-07-07 11:04:01.578125000,-62.0,-19.5,11.5,83.24046875,-6.5,13.40367,34.57
2021-07-07 11:04:01.585937500,-59.5,-19.25,12.75,83.241015625,-7.005,13.40367,34.57
2021-07-07 11:04:01.593750000,-57.0,-19.0,14.0,83.2415625,-7.51,13.40367,34.57
2021-07-07 11:04:01.601562500,-56.75,-19.0,14.25,83.242109375,-8.649999999999999,13.40367,34.57
2021-07-07 11:04:01.609375000,-56.5,-19.0,14.5,83.24265625,-9.79,13.40367,34.57
2021-07-07 11:04:01.617187500,-56.25,-19.0,14.75,83.243203125,-11.585,13.40367,34.57
2021-07-07 11:04:01.625000000,-56.0,-19.0,15.0,83.24375,-13.38,13.40367,34.57
2021-07-07 11:04:01.632812500,-58.75,-19.0,14.25,83.244296875,-15.719999999999999,13.40367,34.57
2021-07-07 11:04:01.640625000,-61.5,-19.0,13.5,83.24484375,-18.06,13.40367,34.57
2021-07-07 11:04:01.648437500,-64.25,-19.0,12.75,83.245390625,-20.6,13.40367,34.57
2021-07-07 11:04:01.656250000,-67.0,-19.0,12.0,83.2459375,-23.14,13.40367,34.57
2021-07-07 11:04:01.664062500,-66.5,-18.75,12.25,83.246484375,-25.35,13.40367,34.57
2021-07-07 11:04:01.671875000,-66.0,-18.5,12.5,83.24703124999999,-27.56,13.40367,34.57
2021-07-07 11:04:01.679687500,-65.5,-18.25,12.75,83.247578125,-28.88,13.40367,34.57
2021-07-07 11:04:01.687500000,-65.0,-18.0,13.0,83.248125,-30.2,13.40367,34.57
2021-07-07 11:04:01.695312500,-63.0,-17.75,13.25,83.248671875,-30.28,13.40367,34.57
2021-07-07 11:04:01.703125000,-61.0,-17.5,13.5,83.24921875,-30.36,13.40367,34.57
2021-07-07 11:04:01.710937500,-59.0,-17.25,13.75,83.249765625,-29.16,13.40367,34.57
2021-07-07 11:04:01.718750000,-57.0,-17.0,14.0,83.25031249999999,-27.96,13.40367,34.57
2021-07-07 11:04:01.726562500,-57.75,-17.0,14.0,83.250859375,-25.715,13.40367,34.57
2021-07-07 11:04:01.734375000,-58.5,-17.0,14.0,83.25140625,-23.47,13.40367,34.57
2021-07-07 11:04:01.742187500,-59.25,-17.0,14.0,83.251953125,-20.515,13.40367,34.57
