TimeStamp,empatica.acc.x,empatica.acc.y,empatica.acc.z,empatica.hr,empatica.bvp,empatica.eda,empatica.temp
2021-06-29 11:46:22.953125000,-56.0,33.5,-1.5,84.85703124999999,-22.3,14.148905625,30.31
2021-06-29 11:46:22.960937500,-56.0,33.75,-1.75,84.855859375,-23.395,14.1489856875,30.31
2021-06-29 11:46:22.968750000,-56.0,34.0,-2.0,84.8546875,-24.49,14.14906575,30.31
2021-06-29 11:46:22.976562500,-56.0,34.0,-2.0,84.853515625,-24.795,14.1491458125,30.31
2021-06-29 11:46:22.984375000,-56.0,34.0,-2.0,84.85234374999999,-25.1,14.149225874999999,30.31
2021-06-29 11:46:22.992187500,-56.0,34.0,-2.0,84.85117187499999,-24.415,14.1493059375,30.31
2021-06-29 11:46:23.000000000,-56.0,34.0,-2.0,84.85,-23.73,14.149386,30.31
2021-06-29 11:46:23.007812500,-56.0,34.0,-1.75,84.84906249999999,-22.09,14.14862534375,30.31
2021-06-29 11:46:23.015625000,-56.0,34.0,-1.5,84.848125,-20.45,14.1478646875,30.31
2021-06-29 11:46:23.023437500,-56.0,34.0,-1.25,84.84718749999999,-18.045,14.14710403125,30.31
2021-06-29 11:46:23.031250000,-56.0,34.0,-1.0,84.84625,-15.64,14.146343375,30.31
2021-06-29 11:46:23.039062500,-56.0,33.75,-1.0,84.84531249999999,-12.75,14.14558271875,30.31
2021-06-29 11:46:23.046875000,-56.0,33.5,-1.0,84.844375,-9.86,14.1448220625,30.31
2021-06-29 11:46:23.054687500,-56.0,33.25,-1.0,84.8434375,-6.779999999999999,14.14406140625,30.31
2021-06-29 11:46:23.062500000,-56.0,33.0,-1.0,84.8425,-3.7,14.14330075,30.31
2021-06-29 11:46:23.070312500,-56.0,33.0,-1.0,84.8415625,-0.6900000000000004,14.14254009375,30.31
2021-06-29 11:46:23.078125000,-56.0,33.0,-1.0,84.84062499999999,2.32,14.1417794375,30.31
2021-06-29 11:46:23.085937500,-56.0,33.0,-1.0,84.8396875,5.0649999999999995,14.14101878125,30.31
2021-06-29 11:46:23.093750000,-56.0,33.0,-1.0,84.83874999999999,7.81,14.140258124999999,30.31
2021-06-29 11:46:23.101562500,-56.25,33.25,-1.0,84.8378125,10.16,14.13949746875,30.31
2021-06-29 11:46:23.109375000,-56.5,33.5,-1.0,84.83687499999999,12.51,14.1387368125,30.31
2021-06-29 11:46:23.117187500,-56.75,33.75,-1.0,84.8359375,14.385000000000002,14.13797615625,30.31
2021-06-29 11:46:23.125000000,-57.0,34.0,-1.0,84.835,16.26,14.1372155,30.31
2021-06-29 11:46:23.132812500,-56.75,34.0,-1.25,84.8340625,17.65,14.13645484375,30.31
2021-06-29 11:46:23.140625000,-56.5,34.0,-1.5,84.833125,19.04,14.1356941875,30.31
2021-06-29 11:46:23.148437500,-56.25,34.0,-1.75,84.83218749999999,19.994999999999997,14.13493353125,30.31
2021-06-29 11:46:23.156250000,-56.0,34.0,-2.0,84.83125,20.95,14.134172875,30.31
2021-06-29 11:46:23.164062500,-56.25,33.75,-1.75,84.83031249999999,21.545,14.13341221875,30.31
2021-06-29 11:46:23.171875000,-56.5,33.5,-1.5,84.829375,22.14,14.1326515625,30.31
2021-06-29 11:46:23.179687500,-56.75,33.25,-1.25,84.82843749999999,22.485,14.13189090625,30.31
2021-06-29 11:46:23.187500000,-57.0,33.0,-1.0,84.8275,22.83,14.13113025,30.31
2021-06-29 11:46:23.195312500,-56.75,33.0,-1.25,84.8265625,23.02,14.13036959375,30.31
2021-06-29 11:46:23.203125000,-56.5,33.0,-1.5,84.825625,23.21,14.1296089375,30.31
2021-06-29 11:46:23.210937500,-56.25,33.0,-1.75,84.8246875,23.310000000000002,14.12884828125,30.31
2021-06-29 11:46:23.218750000,-56.0,33.0,-2.0,84.82374999999999,23.41,14.128087625,30.31
2021-06-29 11:46:23.226562500,-55.75,32.75,-1.75,84.8228125,23.465,14.12732696875,30.31
2021-06-29 11:46:23.234375000,-55.5,32.5,-1.5,84.82187499999999,23.52,14.1265663125,30.31
2021-06-29 11:46:23.242187500,-55.25,32.25,-1.25,84.8209375,23.525,14.12580565625,30.31
2021-06-29 11:46:23.250000000,-55.0,32.0,-1.0,84.82,23.53,14.125045,30.31
2021-06-29 11:46:23.257812500,-55.0,31.75,-1.0,84.8190625,23.445,14.1248048125,30.31
2021-06-29 11:46:23.265625000,-55.0,31.5,-1.0,84.818125,23.36,14.124564625,30.31
2021-06-29 11:46:23.273437500,-55.0,31.25,-1.0,84.8171875,23.125,14.1243244375,30.31
2021-06-29 11:46:23.281250000,-55.0,31.0,-1.0,84.81625,22.89,14.12408425,30.31
2021-06-29 11:46:23.289062500,-55.5,31.5,-1.0,84.81531249999999,22.41,14.1238440625,30.31
2021-06-29 11:46:23.296875000,-56.0,32.0,-1.0,84.814375,21.93,14.123603875,30.31
2021-06-29 11:46:23.304687500,-56.5,32.5,-1.0,84.81343749999999,21.185000000000002,14.1233636875,30.31
2021-06-29 11:46:23.312500000,-57.0,33.0,-1.0,84.8125,20.44,14.1231235,30.31
2021-06-29 11:46:23.320312500,-56.75,33.0,-1.0,84.8115625,19.435000000000002,14.1228833125,30.31
2021-06-29 11:46:23.328125000,-56.5,33.0,-1.0,84.810625,18.43,14.122643125,30.31
2021-06-29 11:46:23.335937500,-56.25,33.0,-1.0,84.8096875,17.275,14.1224029375,30.31
2021-06-29 11:46:23.343750000,-56.0,33.0,-1.0,84.80875,16.12,14.122162750000001,30.31
2021-06-29 11:46:23.351562500,-56.25,33.25,-1.0,84.8078125,14.940000000000001,14.1219225625,30.31
2021-06-29 11:46:23.359375000,-56.5,33.5,-1.0,84.80687499999999,13.76,14.121682375,30.31
2021-06-29 11:46:23.367187500,-56.75,33.75,-1.0,84.8059375,12.715,14.1214421875,30.31
2021-06-29 11:46:23.375000000,-57.0,34.0,-1.0,84.80499999999999,11.67,14.121202,30.31
2021-06-29 11:46:23.382812500,-56.75,33.75,-1.0,84.8040625,10.85,14.120961812500001,30.31
2021-06-29 11:46:23.390625000,-56.5,33.5,-1.0,84.803125,10.03,14.120721625,30.31
2021-06-29 11:46:23.398437500,-56.25,33.25,-1.0,84.8021875,9.445,14.1204814375,30.31
2021-06-29 11:46:23.406250000,-56.0,33.0,-1.0,84.80125,8.86,14.12024125,30.31
2021-06-29 11:46:23.414062500,-55.75,32.75,-1.0,84.8003125,8.445,14.1200010625,30.31
2021-06-29 11:46:23.421875000,-55.5,32.5,-1.0,84.799375,8.03,14.119760875,30.31
2021-06-29 11:46:23.429687500,-55.25,32.25,-1.0,84.79843749999999,7.625,14.1195206875,30.31
2021-06-29 11:46:23.437500000,-55.0,32.0,-1.0,84.7975,7.22,14.1192805,30.31
2021-06-29 11:46:23.445312500,-55.5,32.25,-1.0,84.7965625,6.66,14.119040312500001,30.31
2021-06-29 11:46:23.453125000,-56.0,32.5,-1.0,84.795625,6.1,14.118800125,30.31
2021-06-29 11:46:23.460937500,-56.5,32.75,-1.0,84.7946875,5.255,14.1185599375,30.31
2021-06-29 11:46:23.468750000,-57.0,33.0,-1.0,84.79375,4.41,14.118319750000001,30.31
2021-06-29 11:46:23.476562500,-57.0,33.25,-1.0,84.7928125,3.25,14.1180795625,30.31
2021-06-29 11:46:23.484375000,-57.0,33.5,-1.0,84.791875,2.09,14.117839375,30.31
2021-06-29 11:46:23.492187500,-57.0,33.75,-1.0,84.7909375,0.6949999999999998,14.1175991875,30.31
2021-06-29 11:46:23.500000000,-57.0,34.0,-1.0,84.78999999999999,-0.7,14.117359,30.31
2021-06-29 11:46:23.507812500,-57.0,34.25,-0.75,84.7890625,-2.1550000000000002,14.11623803125,30.31
2021-06-29 11:46:23.515625000,-57.0,34.5,-0.5,84.788125,-3.61,14.115117062500001,30.31
2021-06-29 11:46:23.523437500,-57.0,34.75,-0.25,84.7871875,-4.965,14.11399609375,30.31
2021-06-29 11:46:23.531250000,-57.0,35.0,0.0,84.78625,-6.32,14.112875125,30.31
2021-06-29 11:46:23.539062500,-57.0,34.75,0.0,84.7853125,-7.4750000000000005,14.11175415625,30.31
2021-06-29 11:46:23.546875000,-57.0,34.5,0.0,84.784375,-8.63,14.1106331875,30.31
2021-06-29 11:46:23.554687500,-57.0,34.25,0.0,84.7834375,-9.625,14.10951221875,30.31
2021-06-29 11:46:23.562500000,-57.0,34.0,0.0,84.7825,-10.62,14.10839125,30.31
2021-06-29 11:46:23.570312500,-56.75,33.25,-0.25,84.7815625,-11.585,14.10727028125,30.31
2021-06-29 11:46:23.578125000,-56.5,32.5,-0.5,84.780625,-12.55,14.106149312500001,30.31
2021-06-29 11:46:23.585937500,-56.25,31.75,-0.75,84.7796875,-13.645,14.10502834375,30.31
2021-06-29 11:46:23.593750000,-56.0,31.0,-1.0,84.77875,-14.74,14.103907375,30.31
2021-06-29 11:46:23.601562500,-56.25,30.75,-1.0,84.7778125,-16.105,14.10278640625,30.31
2021-06-29 11:46:23.609375000,-56.5,30.5,-1.0,84.776875,-17.47,14.1016654375,30.31
2021-06-29 11:46:23.617187500,-56.75,30.25,-1.0,84.7759375,-19.119999999999997,14.10054446875,30.31
2021-06-29 11:46:23.625000000,-57.0,30.0,-1.0,84.775,-20.77,14.0994235,30.31
2021-06-29 11:46:23.632812500,-56.75,30.5,-0.75,84.7740625,-22.6,14.09830253125,30.31
2021-06-29 11:46:23.640625000,-56.5,31.0,-0.5,84.77312500000001,-24.43,14.097181562500001,30.31
2021-06-29 11:46:23.648437500,-56.25,31.5,-0.25,84.7721875,-26.2,14.09606059375,30.31
2021-06-29 11:46:23.656250000,-56.0,32.0,0.0,84.77125,-27.97,14.094939625,30.31
2021-06-29 11:46:23.664062500,-56.25,31.5,-0.25,84.7703125,-29.39,14.09381865625,30.31
2021-06-29 11:46:23.671875000,-56.5,31.0,-0.5,84.769375,-30.81,14.0926976875,30.31
2021-06-29 11:46:23.679687500,-56.75,30.5,-0.75,84.7684375,-31.585,14.09157671875,30.31
2021-06-29 11:46:23.687500000,-57.0,30.0,-1.0,84.7675,-32.36,14.09045575,30.31
2021-06-29 11:46:23.695312500,-57.25,30.25,-0.75,84.7665625,-32.235,14.08933478125,30.31
2021-06-29 11:46:23.703125000,-57.5,30.5,-0.5,84.765625,-32.11,14.088213812500001,30.31
2021-06-29 11:46:23.710937500,-57.75,30.75,-0.25,84.76468750000001,-30.95,14.08709284375,30.31
2021-06-29 11:46:23.718750000,-58.0,31.0,0.0,84.76375,-29.79,14.085971875,30.31
2021-06-29 11:46:23.726562500,-57.5,31.5,0.0,84.7628125,-27.564999999999998,14.08485090625,30.31
2021-06-29 11:46:23.734375000,-57.0,32.0,0.0,84.761875,-25.34,14.0837299375,30.31
2021-06-29 11:46:23.742187500,-56.5,32.5,0.0,84.7609375,-22.205,14.08260896875,30.31
2021-06-29 11:46:23.750000000,-56.0,33.0,0.0,84.76,-19.07,14.081488,30.31
2021-06-29 11:46:23.757812500,-56.0,33.0,-0.25,84.7590625,-15.3,14.08296925,30.31
2021-06-29 11:46:23.765625000,-56.0,33.0,-0.5,84.758125,-11.53,14.0844505,30.31
2021-06-29 11:46:23.773437500,-56.0,33.0,-0.75,84.7571875,-7.51,14.08593175,30.31
2021-06-29 11:46:23.781250000,-56.0,33.0,-1.0,84.75625000000001,-3.49,14.087413,30.31
2021-06-29 11:46:23.789062500,-56.25,32.75,-0.5,84.7553125,0.3849999999999998,14.088894250000001,30.31
2021-06-29 11:46:23.796875000,-56.5,32.5,0.0,84.754375,4.26,14.0903755,30.31
2021-06-29 11:46:23.804687500,-56.75,32.25,0.5,84.7534375,7.615,14.09185675,30.31
2021-06-29 11:46:23.812500000,-57.0,32.0,1.0,84.7525,10.97,14.093338,30.31
2021-06-29 11:46:23.820312500,-57.0,32.0,1.0,84.7515625,13.55,14.09481925,30.31
2021-06-29 11:46:23.828125000,-57.0,32.0,1.0,84.750625,16.13,14.0963005,30.31
2021-06-29 11:46:23.835937500,-57.0,32.0,1.0,84.74968750000001,17.825,14.09778175,30.31
2021-06-29 11:46:23.843750000,-57.0,32.0,1.0,84.74875,19.52,14.099263,30.31
2021-06-29 11:46:23.851562500,-57.0,31.75,1.0,84.74781250000001,20.375,14.10074425,30.31
2021-06-29 11:46:23.859375000,-57.0,31.5,1.0,84.746875,21.23,14.1022255,30.31
2021-06-29 11:46:23.867187500,-57.0,31.25,1.0,84.7459375,21.435000000000002,14.10370675,30.31
2021-06-29 11:46:23.875000000,-57.0,31.0,1.0,84.745,21.64,14.105188,30.31
2021-06-29 11:46:23.882812500,-57.0,31.5,1.0,84.7440625,21.435000000000002,14.10666925,30.31
2021-06-29 11:46:23.890625000,-57.0,32.0,1.0,84.743125,21.23,14.1081505,30.31
2021-06-29 11:46:23.898437500,-57.0,32.5,1.0,84.7421875,20.86,14.10963175,30.31
2021-06-29 11:46:23.906250000,-57.0,33.0,1.0,84.74125000000001,20.49,14.111113,30.31
2021-06-29 11:46:23.914062500,-57.0,33.5,0.75,84.7403125,20.11,14.11259425,30.31
2021-06-29 11:46:23.921875000,-57.0,34.0,0.5,84.73937500000001,19.73,14.1140755,30.31
2021-06-29 11:46:23.929687500,-57.0,34.5,0.25,84.7384375,19.415,14.11555675,30.31
2021-06-29 11:46:23.937500000,-57.0,35.0,0.0,84.7375,19.1,14.117038,30.31
2021-06-29 11:46:23.945312500,-56.75,34.75,0.0,84.7365625,18.83,14.11851925,30.31
2021-06-29 11:46:23.953125000,-56.5,34.5,0.0,84.735625,18.56,14.1200005,30.31
2021-06-29 11:46:23.960937500,-56.25,34.25,0.0,84.7346875,18.295,14.12148175,30.31
2021-06-29 11:46:23.968750000,-56.0,34.0,0.0,84.73375,18.03,14.122963,30.31
2021-06-29 11:46:23.976562500,-56.25,33.75,0.25,84.73281250000001,17.755000000000003,14.12444425,30.31
2021-06-29 11:46:23.984375000,-56.5,33.5,0.5,84.731875,17.48,14.1259255,30.31
2021-06-29 11:46:23.992187500,-56.75,33.25,0.75,84.73093750000001,17.189999999999998,14.12740675,30.31
2021-06-29 11:46:24.000000000,-57.0,33.0,1.0,84.73,16.9,14.128888,30.31
2021-06-29 11:46:24.007812500,-56.5,33.0,1.0,84.72953125000001,16.645,14.12956859375,30.31
2021-06-29 11:46:24.015625000,-56.0,33.0,1.0,84.7290625,16.39,14.1302491875,30.31
2021-06-29 11:46:24.023437500,-55.5,33.0,1.0,84.72859375,16.200000000000003,14.13092978125,30.31
2021-06-29 11:46:24.031250000,-55.0,33.0,1.0,84.728125,16.01,14.131610375,30.31
2021-06-29 11:46:24.039062500,-55.25,32.75,1.0,84.72765625000001,15.88,14.13229096875,30.31
2021-06-29 11:46:24.046875000,-55.5,32.5,1.0,84.7271875,15.75,14.1329715625,30.31
2021-06-29 11:46:24.054687500,-55.75,32.25,1.0,84.72671875,15.65,14.13365215625,30.31
2021-06-29 11:46:24.062500000,-56.0,32.0,1.0,84.72625000000001,15.55,14.13433275,30.31
2021-06-29 11:46:24.070312500,-56.0,32.0,1.25,84.72578125,15.455,14.13501334375,30.31
2021-06-29 11:46:24.078125000,-56.0,32.0,1.5,84.7253125,15.36,14.1356939375,30.31
2021-06-29 11:46:24.085937500,-56.0,32.0,1.75,84.72484375,15.26,14.13637453125,30.31
2021-06-29 11:46:24.093750000,-56.0,32.0,2.0,84.72437500000001,15.16,14.137055125,30.31
2021-06-29 11:46:24.101562500,-56.0,32.25,2.25,84.72390625,15.08,14.13773571875,30.31
2021-06-29 11:46:24.109375000,-56.0,32.5,2.5,84.7234375,15.0,14.1384163125,30.31
2021-06-29 11:46:24.117187500,-56.0,32.75,2.75,84.72296875,14.99,14.13909690625,30.31
2021-06-29 11:46:24.125000000,-56.0,33.0,3.0,84.7225,14.98,14.139777500000001,30.31
2021-06-29 11:46:24.132812500,-56.0,33.0,3.0,84.72203125,15.02,14.14045809375,30.31
2021-06-29 11:46:24.140625000,-56.0,33.0,3.0,84.7215625,15.06,14.1411386875,30.31
2021-06-29 11:46:24.148437500,-56.0,33.0,3.0,84.72109375000001,15.095,14.141819281250001,30.31
2021-06-29 11:46:24.156250000,-56.0,33.0,3.0,84.720625,15.13,14.142499875,30.31
2021-06-29 11:46:24.164062500,-56.0,33.0,3.0,84.72015625,15.0,14.14318046875,30.31
2021-06-29 11:46:24.171875000,-56.0,33.0,3.0,84.7196875,14.87,14.143861062500001,30.31
2021-06-29 11:46:24.179687500,-56.0,33.0,3.0,84.71921875000001,14.425,14.14454165625,30.31
2021-06-29 11:46:24.187500000,-56.0,33.0,3.0,84.71875,13.98,14.14522225,30.31
2021-06-29 11:46:24.195312500,-56.0,33.0,2.75,84.71828125,13.120000000000001,14.145902843750001,30.31
2021-06-29 11:46:24.203125000,-56.0,33.0,2.5,84.71781250000001,12.26,14.1465834375,30.31
2021-06-29 11:46:24.210937500,-56.0,33.0,2.25,84.71734375,10.995000000000001,14.14726403125,30.31
2021-06-29 11:46:24.218750000,-56.0,33.0,2.0,84.716875,9.73,14.147944625000001,30.31
2021-06-29 11:46:24.226562500,-56.0,33.25,2.5,84.71640625,8.205,14.14862521875,30.31
2021-06-29 11:46:24.234375000,-56.0,33.5,3.0,84.71593750000001,6.68,14.1493058125,30.31
2021-06-29 11:46:24.242187500,-56.0,33.75,3.5,84.71546875,5.06,14.149986406250001,30.31
2021-06-29 11:46:24.250000000,-56.0,34.0,4.0,84.715,3.44,14.150667,30.31
2021-06-29 11:46:24.257812500,-55.5,34.25,3.25,84.71453125000001,1.8699999999999999,14.15078709375,30.31
2021-06-29 11:46:24.265625000,-55.0,34.5,2.5,84.7140625,0.3,14.1509071875,30.31
2021-06-29 11:46:24.273437500,-54.5,34.75,1.75,84.71359375,-1.1949999999999998,14.15102728125,30.31
2021-06-29 11:46:24.281250000,-54.0,35.0,1.0,84.713125,-2.69,14.151147375,30.31
2021-06-29 11:46:24.289062500,-54.5,35.0,1.0,84.71265625000001,-4.21,14.15126746875,30.31
2021-06-29 11:46:24.296875000,-55.0,35.0,1.0,84.7121875,-5.73,14.1513875625,30.31
2021-06-29 11:46:24.304687500,-55.5,35.0,1.0,84.71171875,-7.44,14.15150765625,30.31
2021-06-29 11:46:24.312500000,-56.0,35.0,1.0,84.71125,-9.15,14.15162775,30.31
2021-06-29 11:46:24.320312500,-56.0,34.75,1.25,84.71078125,-11.175,14.15174784375,30.31
2021-06-29 11:46:24.328125000,-56.0,34.5,1.5,84.7103125,-13.2,14.1518679375,30.31
2021-06-29 11:46:24.335937500,-56.0,34.25,1.75,84.70984375,-15.5,14.151988031250001,30.31
2021-06-29 11:46:24.343750000,-56.0,34.0,2.0,84.70937500000001,-17.8,14.152108125,30.31
2021-06-29 11:46:24.351562500,-56.0,34.0,2.25,84.70890625,-20.189999999999998,14.15222821875,30.31
2021-06-29 11:46:24.359375000,-56.0,34.0,2.5,84.7084375,-22.58,14.152348312500001,30.31
2021-06-29 11:46:24.367187500,-56.0,34.0,2.75,84.70796875,-24.7,14.15246840625,30.31
2021-06-29 11:46:24.375000000,-56.0,34.0,3.0,84.70750000000001,-26.82,14.1525885,30.31
2021-06-29 11:46:24.382812500,-56.0,34.0,3.0,84.70703125,-28.285,14.15270859375,30.31
2021-06-29 11:46:24.390625000,-56.0,34.0,3.0,84.7065625,-29.75,14.1528286875,30.31
2021-06-29 11:46:24.398437500,-56.0,34.0,3.0,84.70609375000001,-30.235,14.15294878125,30.31
2021-06-29 11:46:24.406250000,-56.0,34.0,3.0,84.705625,-30.72,14.153068875,30.31
2021-06-29 11:46:24.414062500,-55.75,34.0,3.0,84.70515625,-30.049999999999997,14.15318896875,30.31
2021-06-29 11:46:24.421875000,-55.5,34.0,3.0,84.7046875,-29.38,14.1533090625,30.31
2021-06-29 11:46:24.429687500,-55.25,34.0,3.0,84.70421875000001,-27.52,14.15342915625,30.31
2021-06-29 11:46:24.437500000,-55.0,34.0,3.0,84.70375,-25.66,14.153549250000001,30.31
2021-06-29 11:46:24.445312500,-55.0,34.0,3.0,84.70328125,-22.775,14.15366934375,30.31
2021-06-29 11:46:24.453125000,-55.0,34.0,3.0,84.70281250000001,-19.89,14.1537894375,30.31
2021-06-29 11:46:24.460937500,-55.0,34.0,3.0,84.70234375,-16.240000000000002,14.153909531250001,30.31
2021-06-29 11:46:24.468750000,-55.0,34.0,3.0,84.701875,-12.59,14.154029625,30.31
2021-06-29 11:46:24.476562500,-55.25,34.0,3.0,84.70140625,-8.515,14.15414971875,30.31
2021-06-29 11:46:24.484375000,-55.5,34.0,3.0,84.70093750000001,-4.44,14.1542698125,30.31
2021-06-29 11:46:24.492187500,-55.75,34.0,3.0,84.70046875,-0.3250000000000002,14.15438990625,30.31
2021-06-29 11:46:24.500000000,-56.0,34.0,3.0,84.7,3.79,14.15451,30.31
2021-06-29 11:46:24.507812500,-56.25,34.0,3.0,84.69953125,7.615,14.15803303125,30.31
2021-06-29 11:46:24.515625000,-56.5,34.0,3.0,84.6990625,11.44,14.1615560625,30.31
2021-06-29 11:46:24.523437500,-56.75,34.0,3.0,84.69859375,14.765,14.16507909375,30.31
2021-06-29 11:46:24.531250000,-57.0,34.0,3.0,84.698125,18.09,14.168602125,30.31
2021-06-29 11:46:24.539062500,-56.5,33.75,3.0,84.69765625000001,20.85,14.17212515625,30.31
2021-06-29 11:46:24.546875000,-56.0,33.5,3.0,84.6971875,23.61,14.1756481875,30.31
2021-06-29 11:46:24.554687500,-55.5,33.25,3.0,84.69671875,25.924999999999997,14.17917121875,30.31
2021-06-29 11:46:24.562500000,-55.0,33.0,3.0,84.69625,28.24,14.18269425,30.31
2021-06-29 11:46:24.570312500,-55.25,33.25,3.0,84.69578125,30.345,14.18621728125,30.31
2021-06-29 11:46:24.578125000,-55.5,33.5,3.0,84.6953125,32.45,14.1897403125,30.31
2021-06-29 11:46:24.585937500,-55.75,33.75,3.0,84.69484375,34.585,14.193263343749999,30.31
2021-06-29 11:46:24.593750000,-56.0,34.0,3.0,84.69437500000001,36.72,14.196786375,30.31
2021-06-29 11:46:24.601562500,-55.75,34.0,3.0,84.69390625,39.03,14.20030940625,30.31
2021-06-29 11:46:24.609375000,-55.5,34.0,3.0,84.6934375,41.34,14.2038324375,30.31
2021-06-29 11:46:24.617187500,-55.25,34.0,3.0,84.69296875,43.835,14.20735546875,30.31
2021-06-29 11:46:24.625000000,-55.0,34.0,3.0,84.6925,46.33,14.2108785,30.31
2021-06-29 11:46:24.632812500,-55.0,34.25,3.0,84.69203125,48.8,14.21440153125,30.31
2021-06-29 11:46:24.640625000,-55.0,34.5,3.0,84.6915625,51.27,14.2179245625,30.31
2021-06-29 11:46:24.648437500,-55.0,34.75,3.0,84.69109375000001,53.415000000000006,14.22144759375,30.31
2021-06-29 11:46:24.656250000,-55.0,35.0,3.0,84.690625,55.56,14.224970625,30.31
2021-06-29 11:46:24.664062500,-55.25,34.75,3.25,84.69015625,56.97,14.22849365625,30.31
2021-06-29 11:46:24.671875000,-55.5,34.5,3.5,84.6896875,58.38,14.2320166875,30.31
2021-06-29 11:46:24.679687500,-55.75,34.25,3.75,84.68921875000001,58.695,14.23553971875,30.31
2021-06-29 11:46:24.687500000,-56.0,34.0,4.0,84.68875,59.01,14.239062749999999,30.31
2021-06-29 11:46:24.695312500,-55.75,34.25,4.25,84.68828125,57.94,14.24258578125,30.31
2021-06-29 11:46:24.703125000,-55.5,34.5,4.5,84.6878125,56.87,14.2461088125,30.31
2021-06-29 11:46:24.710937500,-55.25,34.75,4.75,84.68734375,54.315,14.249631843749999,30.31
2021-06-29 11:46:24.718750000,-55.0,35.0,5.0,84.686875,51.76,14.253154875,30.31
2021-06-29 11:46:24.726562500,-55.0,34.75,4.75,84.68640625,47.825,14.25667790625,30.31
2021-06-29 11:46:24.734375000,-55.0,34.5,4.5,84.68593750000001,43.89,14.260200937499999,30.31
2021-06-29 11:46:24.742187500,-55.0,34.25,4.25,84.68546875,38.89,14.26372396875,30.31
2021-06-29 11:46:24.750000000,-55.0,34.0,4.0,84.685,33.89,14.267247,30.31
2021-06-29 11:46:24.757812500,-55.0,34.0,4.0,84.68453125,28.310000000000002,14.26820784375,30.31
2021-06-29 11:46:24.765625000,-55.0,34.0,4.0,84.6840625,22.73,14.269168687499999,30.31
2021-06-29 11:46:24.773437500,-55.0,34.0,4.0,84.68359375,17.08,14.27012953125,30.31
2021-06-29 11:46:24.781250000,-55.0,34.0,4.0,84.683125,11.43,14.271090375,30.31
2021-06-29 11:46:24.789062500,-55.25,34.0,4.0,84.68265625000001,6.16,14.272051218749999,30.31
2021-06-29 11:46:24.796875000,-55.5,34.0,4.0,84.6821875,0.89,14.2730120625,30.31
2021-06-29 11:46:24.804687500,-55.75,34.0,4.0,84.68171875,-3.7150000000000003,14.27397290625,30.31
2021-06-29 11:46:24.812500000,-56.0,34.0,4.0,84.68125,-8.32,14.274933749999999,30.31
2021-06-29 11:46:24.820312500,-56.0,34.25,4.0,84.68078125,-12.16,14.27589459375,30.31
2021-06-29 11:46:24.828125000,-56.0,34.5,4.0,84.6803125,-16.0,14.2768554375,30.31
2021-06-29 11:46:24.835937500,-56.0,34.75,4.0,84.67984375,-19.134999999999998,14.277816281249999,30.31
2021-06-29 11:46:24.843750000,-56.0,35.0,4.0,84.67937500000001,-22.27,14.278777125,30.31
2021-06-29 11:46:24.851562500,-55.75,34.75,4.0,84.67890625,-24.884999999999998,14.27973796875,30.31
2021-06-29 11:46:24.859375000,-55.5,34.5,4.0,84.6784375,-27.5,14.280698812499999,30.31
2021-06-29 11:46:24.867187500,-55.25,34.25,4.0,84.67796875,-29.825,14.28165965625,30.31
2021-06-29 11:46:24.875000000,-55.0,34.0,4.0,84.67750000000001,-32.15,14.2826205,30.31
2021-06-29 11:46:24.882812500,-55.0,34.0,4.0,84.67703125,-34.425,14.283581343749999,30.31
2021-06-29 11:46:24.890625000,-55.0,34.0,4.0,84.6765625,-36.7,14.2845421875,30.31
2021-06-29 11:46:24.898437500,-55.0,34.0,4.0,84.67609375,-39.11,14.285503031249998,30.31
2021-06-29 11:46:24.906250000,-55.0,34.0,4.0,84.675625,-41.52,14.286463874999999,30.31
2021-06-29 11:46:24.914062500,-55.25,34.0,4.0,84.67515625,-44.2,14.28742471875,30.31
2021-06-29 11:46:24.921875000,-55.5,34.0,4.0,84.6746875,-46.88,14.288385562499998,30.31
2021-06-29 11:46:24.929687500,-55.75,34.0,4.0,84.67421875000001,-49.845,14.289346406249999,30.31
2021-06-29 11:46:24.937500000,-56.0,34.0,4.0,84.67375,-52.81,14.29030725,30.31
2021-06-29 11:46:24.945312500,-55.75,34.0,3.75,84.67328125,-56.0,14.291268093749999,30.31
2021-06-29 11:46:24.953125000,-55.5,34.0,3.5,84.6728125,-59.19,14.2922289375,30.31
2021-06-29 11:46:24.960937500,-55.25,34.0,3.25,84.67234375,-62.445,14.29318978125,30.31
2021-06-29 11:46:24.968750000,-55.0,34.0,3.0,84.671875,-65.7,14.294150624999999,30.31
2021-06-29 11:46:24.976562500,-55.0,34.0,3.0,84.67140625,-68.83,14.29511146875,30.31
2021-06-29 11:46:24.984375000,-55.0,34.0,3.0,84.67093750000001,-71.96,14.2960723125,30.31
2021-06-29 11:46:24.992187500,-55.0,34.0,3.0,84.67046875,-74.82,14.297033156249999,30.31
2021-06-29 11:46:25.000000000,-55.0,34.0,3.0,84.67,-77.68,14.297994,30.31
2021-06-29 11:46:25.007812500,-55.0,34.0,3.25,84.6690625,-80.20500000000001,14.29447096875,30.310624999999998
2021-06-29 11:46:25.015625000,-55.0,34.0,3.5,84.668125,-82.73,14.290947937499999,30.311249999999998
2021-06-29 11:46:25.023437500,-55.0,34.0,3.75,84.6671875,-84.94,14.28742490625,30.311874999999997
2021-06-29 11:46:25.031250000,-55.0,34.0,4.0,84.66625,-87.15,14.283901875,30.3125
2021-06-29 11:46:25.039062500,-55.25,34.25,4.0,84.6653125,-89.14500000000001,14.280378843749999,30.313125
2021-06-29 11:46:25.046875000,-55.5,34.5,4.0,84.664375,-91.14,14.2768558125,30.31375
2021-06-29 11:46:25.054687500,-55.75,34.75,4.0,84.6634375,-93.005,14.27333278125,30.314375
2021-06-29 11:46:25.062500000,-56.0,35.0,4.0,84.6625,-94.87,14.26980975,30.314999999999998
2021-06-29 11:46:25.070312500,-55.75,35.0,4.0,84.6615625,-96.61,14.266286718749999,30.315624999999997
2021-06-29 11:46:25.078125000,-55.5,35.0,4.0,84.660625,-98.35,14.2627636875,30.31625
2021-06-29 11:46:25.085937500,-55.25,35.0,4.0,84.6596875,-99.82499999999999,14.25924065625,30.316875
2021-06-29 11:46:25.093750000,-55.0,35.0,4.0,84.65875,-101.3,14.255717624999999,30.3175
2021-06-29 11:46:25.101562500,-55.0,35.0,4.0,84.6578125,-102.25,14.25219459375,30.318125
2021-06-29 11:46:25.109375000,-55.0,35.0,4.0,84.656875,-103.2,14.2486715625,30.318749999999998
2021-06-29 11:46:25.117187500,-55.0,35.0,4.0,84.65593750000001,-103.275,14.245148531249999,30.319374999999997
2021-06-29 11:46:25.125000000,-55.0,35.0,4.0,84.655,-103.35,14.2416255,30.32
2021-06-29 11:46:25.132812500,-55.0,34.75,4.0,84.6540625,-102.255,14.23810246875,30.320625
2021-06-29 11:46:25.140625000,-55.0,34.5,4.0,84.653125,-101.16,14.234579437499999,30.32125
2021-06-29 11:46:25.148437500,-55.0,34.25,4.0,84.6521875,-98.75,14.23105640625,30.321875
2021-06-29 11:46:25.156250000,-55.0,34.0,4.0,84.65125,-96.34,14.227533375,30.322499999999998
2021-06-29 11:46:25.164062500,-55.0,34.25,3.75,84.6503125,-92.685,14.224010343749999,30.323124999999997
2021-06-29 11:46:25.171875000,-55.0,34.5,3.5,84.649375,-89.03,14.2204873125,30.323749999999997
2021-06-29 11:46:25.179687500,-55.0,34.75,3.25,84.6484375,-84.375,14.21696428125,30.324375
2021-06-29 11:46:25.187500000,-55.0,35.0,3.0,84.64750000000001,-79.72,14.213441249999999,30.325
2021-06-29 11:46:25.195312500,-55.0,35.0,3.25,84.6465625,-74.4,14.20991821875,30.325625
2021-06-29 11:46:25.203125000,-55.0,35.0,3.5,84.645625,-69.08,14.2063951875,30.326249999999998
2021-06-29 11:46:25.210937500,-55.0,35.0,3.75,84.6446875,-63.379999999999995,14.20287215625,30.326874999999998
2021-06-29 11:46:25.218750000,-55.0,35.0,4.0,84.64375,-57.68,14.199349125,30.327499999999997
2021-06-29 11:46:25.226562500,-55.0,35.0,3.75,84.6428125,-51.83,14.19582609375,30.328125
2021-06-29 11:46:25.234375000,-55.0,35.0,3.5,84.641875,-45.98,14.1923030625,30.32875
2021-06-29 11:46:25.242187500,-55.0,35.0,3.25,84.6409375,-40.125,14.18878003125,30.329375
2021-06-29 11:46:25.250000000,-55.0,35.0,3.0,84.64,-34.27,14.185257,30.33
2021-06-29 11:46:25.257812500,-55.0,35.0,3.0,84.6390625,-28.560000000000002,14.18493671875,30.33
2021-06-29 11:46:25.265625000,-55.0,35.0,3.0,84.638125,-22.85,14.1846164375,30.33
2021-06-29 11:46:25.273437500,-55.0,35.0,3.0,84.6371875,-17.455000000000002,14.18429615625,30.33
2021-06-29 11:46:25.281250000,-55.0,35.0,3.0,84.63625,-12.06,14.183975875,30.33
2021-06-29 11:46:25.289062500,-55.25,35.0,3.25,84.6353125,-7.1850000000000005,14.18365559375,30.33
2021-06-29 11:46:25.296875000,-55.5,35.0,3.5,84.634375,-2.31,14.1833353125,30.33
2021-06-29 11:46:25.304687500,-55.75,35.0,3.75,84.6334375,1.8900000000000001,14.18301503125,30.33
2021-06-29 11:46:25.312500000,-56.0,35.0,4.0,84.6325,6.09,14.18269475,30.33
2021-06-29 11:46:25.320312500,-55.75,35.0,4.0,84.6315625,9.594999999999999,14.18237446875,30.33
2021-06-29 11:46:25.328125000,-55.5,35.0,4.0,84.630625,13.1,14.1820541875,30.33
2021-06-29 11:46:25.335937500,-55.25,35.0,4.0,84.6296875,16.025,14.18173390625,30.33
2021-06-29 11:46:25.343750000,-55.0,35.0,4.0,84.62875,18.95,14.181413625,30.33
2021-06-29 11:46:25.351562500,-55.0,34.75,3.75,84.6278125,21.535,14.18109334375,30.33
2021-06-29 11:46:25.359375000,-55.0,34.5,3.5,84.626875,24.12,14.1807730625,30.33
2021-06-29 11:46:25.367187500,-55.0,34.25,3.25,84.6259375,26.58,14.18045278125,30.33
2021-06-29 11:46:25.375000000,-55.0,34.0,3.0,84.625,29.04,14.1801325,30.33
2021-06-29 11:46:25.382812500,-55.0,34.25,3.25,84.6240625,31.515,14.17981221875,30.33
2021-06-29 11:46:25.390625000,-55.0,34.5,3.5,84.623125,33.99,14.1794919375,30.33
2021-06-29 11:46:25.398437500,-55.0,34.75,3.75,84.6221875,36.475,14.17917165625,30.33
2021-06-29 11:46:25.406250000,-55.0,35.0,4.0,84.62125,38.96,14.178851375,30.33
2021-06-29 11:46:25.414062500,-55.0,35.0,4.0,84.6203125,41.35,14.17853109375,30.33
2021-06-29 11:46:25.421875000,-55.0,35.0,4.0,84.619375,43.74,14.1782108125,30.33
2021-06-29 11:46:25.429687500,-55.0,35.0,4.0,84.6184375,45.870000000000005,14.17789053125,30.33
2021-06-29 11:46:25.437500000,-55.0,35.0,4.0,84.6175,48.0,14.17757025,30.33
2021-06-29 11:46:25.445312500,-55.0,35.0,4.0,84.6165625,49.735,14.17724996875,30.33
2021-06-29 11:46:25.453125000,-55.0,35.0,4.0,84.615625,51.47,14.1769296875,30.33
2021-06-29 11:46:25.460937500,-55.0,35.0,4.0,84.6146875,52.705,14.17660940625,30.33
2021-06-29 11:46:25.468750000,-55.0,35.0,4.0,84.61375,53.94,14.176289125,30.33
2021-06-29 11:46:25.476562500,-55.0,35.0,3.75,84.6128125,54.61,14.17596884375,30.33
2021-06-29 11:46:25.484375000,-55.0,35.0,3.5,84.611875,55.28,14.1756485625,30.33
2021-06-29 11:46:25.492187500,-55.0,35.0,3.25,84.6109375,55.32,14.17532828125,30.33
2021-06-29 11:46:25.500000000,-55.0,35.0,3.0,84.61,55.36,14.175008,30.33
2021-06-29 11:46:25.507812500,-55.0,35.0,3.0,84.6090625,54.705,14.176169,30.33
2021-06-29 11:46:25.515625000,-55.0,35.0,3.0,84.608125,54.05,14.17733,30.33
2021-06-29 11:46:25.523437500,-55.0,35.0,3.0,84.6071875,52.665,14.178491,30.33
2021-06-29 11:46:25.531250000,-55.0,35.0,3.0,84.60625,51.28,14.179652,30.33
2021-06-29 11:46:25.539062500,-55.0,35.0,3.25,84.6053125,49.21,14.180813,30.33
2021-06-29 11:46:25.546875000,-55.0,35.0,3.5,84.604375,47.14,14.181974,30.33
2021-06-29 11:46:25.554687500,-55.0,35.0,3.75,84.6034375,44.515,14.183135,30.33
2021-06-29 11:46:25.562500000,-55.0,35.0,4.0,84.60249999999999,41.89,14.184296,30.33
2021-06-29 11:46:25.570312500,-55.0,35.0,4.0,84.6015625,38.96,14.185457,30.33
2021-06-29 11:46:25.578125000,-55.0,35.0,4.0,84.600625,36.03,14.186618000000001,30.33
2021-06-29 11:46:25.585937500,-55.0,35.0,4.0,84.5996875,33.085,14.187779,30.33
2021-06-29 11:46:25.593750000,-55.0,35.0,4.0,84.59875,30.14,14.18894,30.33
2021-06-29 11:46:25.601562500,-55.0,35.0,4.0,84.5978125,27.445,14.190101,30.33
2021-06-29 11:46:25.609375000,-55.0,35.0,4.0,84.596875,24.75,14.191262,30.33
2021-06-29 11:46:25.617187500,-55.0,35.0,4.0,84.5959375,22.42,14.192423,30.33
2021-06-29 11:46:25.625000000,-55.0,35.0,4.0,84.595,20.09,14.193584000000001,30.33
2021-06-29 11:46:25.632812500,-55.0,35.0,3.75,84.59406249999999,18.11,14.194745000000001,30.33
2021-06-29 11:46:25.640625000,-55.0,35.0,3.5,84.593125,16.13,14.195906,30.33
2021-06-29 11:46:25.648437500,-55.0,35.0,3.25,84.5921875,14.34,14.197067,30.33
2021-06-29 11:46:25.656250000,-55.0,35.0,3.0,84.59125,12.55,14.198228,30.33
2021-06-29 11:46:25.664062500,-55.0,35.0,3.25,84.5903125,10.74,14.199389,30.33
2021-06-29 11:46:25.671875000,-55.0,35.0,3.5,84.589375,8.93,14.20055,30.33
2021-06-29 11:46:25.679687500,-55.0,35.0,3.75,84.5884375,6.949999999999999,14.201711000000001,30.33
2021-06-29 11:46:25.687500000,-55.0,35.0,4.0,84.5875,4.97,14.202872000000001,30.33
2021-06-29 11:46:25.695312500,-55.0,35.0,3.75,84.5865625,2.8049999999999997,14.204033,30.33
2021-06-29 11:46:25.703125000,-55.0,35.0,3.5,84.585625,0.64,14.205194,30.33
2021-06-29 11:46:25.710937500,-55.0,35.0,3.25,84.5846875,-1.6199999999999997,14.206355,30.33
2021-06-29 11:46:25.718750000,-55.0,35.0,3.0,84.58375,-3.88,14.207516,30.33
2021-06-29 11:46:25.726562500,-55.25,35.0,3.0,84.5828125,-6.07,14.208677000000002,30.33
2021-06-29 11:46:25.734375000,-55.5,35.0,3.0,84.581875,-8.26,14.209838000000001,30.33
2021-06-29 11:46:25.742187500,-55.75,35.0,3.0,84.5809375,-10.280000000000001,14.210999000000001,30.33
2021-06-29 11:46:25.750000000,-56.0,35.0,3.0,84.58,-12.3,14.21216,30.33
2021-06-29 11:46:25.757812500,-55.75,34.75,3.5,84.57906249999999,-14.155000000000001,14.21131928125,30.33
2021-06-29 11:46:25.765625000,-55.5,34.5,4.0,84.578125,-16.01,14.2104785625,30.33
2021-06-29 11:46:25.773437500,-55.25,34.25,4.5,84.5771875,-17.82,14.20963784375,30.33
2021-06-29 11:46:25.781250000,-55.0,34.0,5.0,84.57625,-19.63,14.208797125,30.33
2021-06-29 11:46:25.789062500,-55.0,34.25,4.75,84.5753125,-21.564999999999998,14.20795640625,30.33
2021-06-29 11:46:25.796875000,-55.0,34.5,4.5,84.574375,-23.5,14.2071156875,30.33
2021-06-29 11:46:25.804687500,-55.0,34.75,4.25,84.5734375,-25.685000000000002,14.20627496875,30.33
2021-06-29 11:46:25.812500000,-55.0,35.0,4.0,84.57249999999999,-27.87,14.20543425,30.33
2021-06-29 11:46:25.820312500,-55.0,35.0,3.75,84.5715625,-30.295,14.204593531250001,30.33
2021-06-29 11:46:25.828125000,-55.0,35.0,3.5,84.57062499999999,-32.72,14.203752812500001,30.33
2021-06-29 11:46:25.835937500,-55.0,35.0,3.25,84.5696875,-35.269999999999996,14.202912093750001,30.33
2021-06-29 11:46:25.843750000,-55.0,35.0,3.0,84.56875,-37.82,14.202071375000001,30.33
2021-06-29 11:46:25.851562500,-55.0,35.0,3.25,84.5678125,-40.3,14.20123065625,30.33
2021-06-29 11:46:25.859375000,-55.0,35.0,3.5,84.566875,-42.78,14.2003899375,30.33
2021-06-29 11:46:25.867187500,-55.0,35.0,3.75,84.5659375,-44.985,14.19954921875,30.33
2021-06-29 11:46:25.875000000,-55.0,35.0,4.0,84.565,-47.19,14.1987085,30.33
2021-06-29 11:46:25.882812500,-55.0,35.0,4.0,84.56406249999999,-48.94,14.19786778125,30.33
2021-06-29 11:46:25.890625000,-55.0,35.0,4.0,84.563125,-50.69,14.1970270625,30.33
2021-06-29 11:46:25.898437500,-55.0,35.0,4.0,84.5621875,-51.834999999999994,14.19618634375,30.33
2021-06-29 11:46:25.906250000,-55.0,35.0,4.0,84.56125,-52.98,14.195345625,30.33
2021-06-29 11:46:25.914062500,-55.0,35.0,4.0,84.5603125,-53.41,14.19450490625,30.33
2021-06-29 11:46:25.921875000,-55.0,35.0,4.0,84.559375,-53.84,14.1936641875,30.33
2021-06-29 11:46:25.929687500,-55.0,35.0,4.0,84.5584375,-53.475,14.19282346875,30.33
2021-06-29 11:46:25.937500000,-55.0,35.0,4.0,84.5575,-53.11,14.191982750000001,30.33
2021-06-29 11:46:25.945312500,-55.0,35.0,3.75,84.5565625,-51.92,14.191142031250001,30.33
2021-06-29 11:46:25.953125000,-55.0,35.0,3.5,84.55562499999999,-50.73,14.1903013125,30.33
2021-06-29 11:46:25.960937500,-55.0,35.0,3.25,84.5546875,-48.76,14.18946059375,30.33
2021-06-29 11:46:25.968750000,-55.0,35.0,3.0,84.55375,-46.79,14.188619875,30.33
2021-06-29 11:46:25.976562500,-55.0,35.0,3.25,84.5528125,-44.19,14.18777915625,30.33
2021-06-29 11:46:25.984375000,-55.0,35.0,3.5,84.551875,-41.59,14.1869384375,30.33
2021-06-29 11:46:25.992187500,-55.0,35.0,3.75,84.5509375,-38.565,14.18609771875,30.33
2021-06-29 11:46:26.000000000,-55.0,35.0,4.0,84.55,-35.54,14.185257,30.33
2021-06-29 11:46:26.007812500,-55.25,34.75,4.0,84.54921875,-32.325,14.1860576875,30.32875
2021-06-29 11:46:26.015625000,-55.5,34.5,4.0,84.54843749999999,-29.11,14.186858375,30.327499999999997
2021-06-29 11:46:26.023437500,-55.75,34.25,4.0,84.54765625,-25.91,14.1876590625,30.326249999999998
2021-06-29 11:46:26.031250000,-56.0,34.0,4.0,84.546875,-22.71,14.18845975,30.325
2021-06-29 11:46:26.039062500,-56.0,34.25,3.75,84.54609375,-19.645,14.1892604375,30.323749999999997
2021-06-29 11:46:26.046875000,-56.0,34.5,3.5,84.5453125,-16.58,14.190061125,30.322499999999998
2021-06-29 11:46:26.054687500,-56.0,34.75,3.25,84.54453124999999,-13.719999999999999,14.1908618125,30.32125
2021-06-29 11:46:26.062500000,-56.0,35.0,3.0,84.54375,-10.86,14.1916625,30.32
2021-06-29 11:46:26.070312500,-55.75,34.75,3.25,84.54296875,-8.219999999999999,14.1924631875,30.318749999999998
2021-06-29 11:46:26.078125000,-55.5,34.5,3.5,84.5421875,-5.58,14.193263875,30.3175
2021-06-29 11:46:26.085937500,-55.25,34.25,3.75,84.54140625,-3.175,14.1940645625,30.31625
2021-06-29 11:46:26.093750000,-55.0,34.0,4.0,84.54062499999999,-0.77,14.19486525,30.314999999999998
2021-06-29 11:46:26.101562500,-55.0,34.25,4.0,84.53984375,1.3900000000000001,14.1956659375,30.31375
2021-06-29 11:46:26.109375000,-55.0,34.5,4.0,84.5390625,3.55,14.196466625,30.3125
2021-06-29 11:46:26.117187500,-55.0,34.75,4.0,84.53828125,5.445,14.1972673125,30.311249999999998
2021-06-29 11:46:26.125000000,-55.0,35.0,4.0,84.5375,7.34,14.198068,30.31
2021-06-29 11:46:26.132812500,-55.0,35.0,4.0,84.53671874999999,8.95,14.198868687500001,30.30875
2021-06-29 11:46:26.140625000,-55.0,35.0,4.0,84.5359375,10.56,14.199669375000001,30.307499999999997
2021-06-29 11:46:26.148437500,-55.0,35.0,4.0,84.53515625,11.865,14.2004700625,30.30625
2021-06-29 11:46:26.156250000,-55.0,35.0,4.0,84.534375,13.17,14.20127075,30.305
2021-06-29 11:46:26.164062500,-55.0,35.0,4.0,84.53359375,14.165,14.2020714375,30.303749999999997
2021-06-29 11:46:26.171875000,-55.0,35.0,4.0,84.53281249999999,15.16,14.202872125,30.3025
2021-06-29 11:46:26.179687500,-55.0,35.0,4.0,84.53203125,15.87,14.2036728125,30.30125
2021-06-29 11:46:26.187500000,-55.0,35.0,4.0,84.53125,16.58,14.2044735,30.299999999999997
2021-06-29 11:46:26.195312500,-55.0,35.0,4.0,84.53046875,17.06,14.2052741875,30.29875
2021-06-29 11:46:26.203125000,-55.0,35.0,4.0,84.5296875,17.54,14.206074875,30.2975
2021-06-29 11:46:26.210937500,-55.0,35.0,4.0,84.52890624999999,17.86,14.2068755625,30.29625
2021-06-29 11:46:26.218750000,-55.0,35.0,4.0,84.528125,18.18,14.20767625,30.294999999999998
2021-06-29 11:46:26.226562500,-55.0,35.0,4.0,84.52734375,18.39,14.2084769375,30.29375
2021-06-29 11:46:26.234375000,-55.0,35.0,4.0,84.5265625,18.6,14.209277625,30.2925
2021-06-29 11:46:26.242187500,-55.0,35.0,4.0,84.52578125,18.735,14.2100783125,30.291249999999998
2021-06-29 11:46:26.250000000,-55.0,35.0,4.0,84.525,18.87,14.210879,30.29
2021-06-29 11:46:26.257812500,-55.0,35.0,4.0,84.52421875,18.9,14.2099181875,30.29
2021-06-29 11:46:26.265625000,-55.0,35.0,4.0,84.5234375,18.93,14.208957375,30.29
2021-06-29 11:46:26.273437500,-55.0,35.0,4.0,84.52265625,18.8,14.2079965625,30.29
2021-06-29 11:46:26.281250000,-55.0,35.0,4.0,84.521875,18.67,14.20703575,30.29
2021-06-29 11:46:26.289062500,-55.0,34.75,4.0,84.52109375,18.305,14.2060749375,30.29
2021-06-29 11:46:26.296875000,-55.0,34.5,4.0,84.5203125,17.94,14.205114125,30.29
2021-06-29 11:46:26.304687500,-55.0,34.25,4.0,84.51953125,17.295,14.2041533125,30.29
2021-06-29 11:46:26.312500000,-55.0,34.0,4.0,84.51875,16.65,14.2031925,30.29
2021-06-29 11:46:26.320312500,-55.0,34.0,4.0,84.51796875,15.7,14.2022316875,30.29
2021-06-29 11:46:26.328125000,-55.0,34.0,4.0,84.5171875,14.75,14.201270875,30.29
2021-06-29 11:46:26.335937500,-55.0,34.0,4.0,84.51640625,13.545,14.2003100625,30.29
2021-06-29 11:46:26.343750000,-55.0,34.0,4.0,84.515625,12.34,14.199349250000001,30.29
2021-06-29 11:46:26.351562500,-55.0,34.25,4.25,84.51484375,10.93,14.1983884375,30.29
2021-06-29 11:46:26.359375000,-55.0,34.5,4.5,84.5140625,9.52,14.197427625,30.29
2021-06-29 11:46:26.367187500,-55.0,34.75,4.75,84.51328125,7.984999999999999,14.1964668125,30.29
2021-06-29 11:46:26.375000000,-55.0,35.0,5.0,84.5125,6.45,14.195506,30.29
2021-06-29 11:46:26.382812500,-55.0,34.75,4.75,84.51171875,4.865,14.1945451875,30.29
2021-06-29 11:46:26.390625000,-55.0,34.5,4.5,84.5109375,3.28,14.193584375,30.29
2021-06-29 11:46:26.398437500,-55.0,34.25,4.25,84.51015625,1.7349999999999999,14.1926235625,30.29
2021-06-29 11:46:26.406250000,-55.0,34.0,4.0,84.509375,0.19,14.191662749999999,30.29
2021-06-29 11:46:26.414062500,-55.0,34.0,4.0,84.50859375,-1.26,14.1907019375,30.29
2021-06-29 11:46:26.421875000,-55.0,34.0,4.0,84.5078125,-2.71,14.189741125,30.29
2021-06-29 11:46:26.429687500,-55.0,34.0,4.0,84.50703125,-4.029999999999999,14.1887803125,30.29
2021-06-29 11:46:26.437500000,-55.0,34.0,4.0,84.50625,-5.35,14.1878195,30.29
2021-06-29 11:46:26.445312500,-55.25,34.25,4.0,84.50546875,-6.56,14.1868586875,30.29
2021-06-29 11:46:26.453125000,-55.5,34.5,4.0,84.5046875,-7.77,14.185897875,30.29
2021-06-29 11:46:26.460937500,-55.75,34.75,4.0,84.50390625,-8.91,14.1849370625,30.29
2021-06-29 11:46:26.468750000,-56.0,35.0,4.0,84.503125,-10.05,14.18397625,30.29
2021-06-29 11:46:26.476562500,-55.75,34.75,4.0,84.50234375,-11.195,14.1830154375,30.29
2021-06-29 11:46:26.484375000,-55.5,34.5,4.0,84.5015625,-12.34,14.182054625,30.29
2021-06-29 11:46:26.492187500,-55.25,34.25,4.0,84.50078125,-13.530000000000001,14.1810938125,30.29
2021-06-29 11:46:26.500000000,-55.0,34.0,4.0,84.5,-14.72,14.180133,30.29
2021-06-29 11:46:26.507812500,-55.0,34.0,4.0,84.49921875,-15.920000000000002,14.179932812499999,30.29
2021-06-29 11:46:26.515625000,-55.0,34.0,4.0,84.4984375,-17.12,14.179732625,30.29
2021-06-29 11:46:26.523437500,-55.0,34.0,4.0,84.49765625,-18.18,14.179532437499999,30.29
2021-06-29 11:46:26.531250000,-55.0,34.0,4.0,84.496875,-19.24,14.17933225,30.29
2021-06-29 11:46:26.539062500,-55.0,34.25,4.0,84.49609375,-19.92,14.179132062499999,30.29
2021-06-29 11:46:26.546875000,-55.0,34.5,4.0,84.4953125,-20.6,14.178931875,30.29
2021-06-29 11:46:26.554687500,-55.0,34.75,4.0,84.49453125,-20.59,14.1787316875,30.29
2021-06-29 11:46:26.562500000,-55.0,35.0,4.0,84.49375,-20.58,14.1785315,30.29
2021-06-29 11:46:26.570312500,-55.0,34.75,3.75,84.49296875,-19.595,14.1783313125,30.29
2021-06-29 11:46:26.578125000,-55.0,34.5,3.5,84.4921875,-18.61,14.178131125,30.29
2021-06-29 11:46:26.585937500,-55.0,34.25,3.25,84.49140625,-16.515,14.1779309375,30.29
2021-06-29 11:46:26.593750000,-55.0,34.0,3.0,84.490625,-14.42,14.17773075,30.29
2021-06-29 11:46:26.601562500,-55.0,34.0,3.25,84.48984375,-11.27,14.1775305625,30.29
2021-06-29 11:46:26.609375000,-55.0,34.0,3.5,84.4890625,-8.12,14.177330375,30.29
2021-06-29 11:46:26.617187500,-55.0,34.0,3.75,84.48828125,-4.205,14.1771301875,30.29
2021-06-29 11:46:26.625000000,-55.0,34.0,4.0,84.4875,-0.29,14.176929999999999,30.29
2021-06-29 11:46:26.632812500,-55.25,34.25,4.0,84.48671875,3.9499999999999993,14.1767298125,30.29
2021-06-29 11:46:26.640625000,-55.5,34.5,4.0,84.4859375,8.19,14.176529624999999,30.29
2021-06-29 11:46:26.648437500,-55.75,34.75,4.0,84.48515625,12.265,14.1763294375,30.29
2021-06-29 11:46:26.656250000,-56.0,35.0,4.0,84.484375,16.34,14.176129249999999,30.29
2021-06-29 11:46:26.664062500,-55.75,34.75,4.0,84.48359375,19.865000000000002,14.1759290625,30.29
2021-06-29 11:46:26.671875000,-55.5,34.5,4.0,84.4828125,23.39,14.175728874999999,30.29
2021-06-29 11:46:26.679687500,-55.25,34.25,4.0,84.48203125,26.155,14.1755286875,30.29
2021-06-29 11:46:26.687500000,-55.0,34.0,4.0,84.48125,28.92,14.175328499999999,30.29
2021-06-29 11:46:26.695312500,-55.0,34.25,4.0,84.48046875,30.905,14.1751283125,30.29
2021-06-29 11:46:26.703125000,-55.0,34.5,4.0,84.4796875,32.89,14.174928125,30.29
2021-06-29 11:46:26.710937500,-55.0,34.75,4.0,84.47890625,34.18,14.1747279375,30.29
2021-06-29 11:46:26.718750000,-55.0,35.0,4.0,84.478125,35.47,14.17452775,30.29
2021-06-29 11:46:26.726562500,-55.0,34.75,4.0,84.47734375,36.155,14.1743275625,30.29
2021-06-29 11:46:26.734375000,-55.0,34.5,4.0,84.4765625,36.84,14.174127375,30.29
2021-06-29 11:46:26.742187500,-55.0,34.25,4.0,84.47578125,36.94,14.1739271875,30.29
2021-06-29 11:46:26.750000000,-55.0,34.0,4.0,84.475,37.04,14.173727,30.29
2021-06-29 11:46:26.757812500,-55.0,34.0,4.0,84.47421875,36.525,14.174167375,30.29
2021-06-29 11:46:26.765625000,-55.0,34.0,4.0,84.4734375,36.01,14.17460775,30.29
2021-06-29 11:46:26.773437500,-55.0,34.0,4.0,84.47265625,34.83,14.175048125,30.29
2021-06-29 11:46:26.781250000,-55.0,34.0,4.0,84.471875,33.65,14.1754885,30.29
2021-06-29 11:46:26.789062500,-55.0,34.0,4.0,84.47109375000001,31.875,14.175928875,30.29
2021-06-29 11:46:26.796875000,-55.0,34.0,4.0,84.4703125,30.1,14.176369249999999,30.29
2021-06-29 11:46:26.804687500,-55.0,34.0,4.0,84.46953125,27.950000000000003,14.176809624999999,30.29
2021-06-29 11:46:26.812500000,-55.0,34.0,4.0,84.46875,25.8,14.177249999999999,30.29
2021-06-29 11:46:26.820312500,-55.0,34.25,4.25,84.46796875,23.615000000000002,14.177690375,30.29
2021-06-29 11:46:26.828125000,-55.0,34.5,4.5,84.46718750000001,21.43,14.17813075,30.29
2021-06-29 11:46:26.835937500,-55.0,34.75,4.75,84.46640625,19.564999999999998,14.178571125,30.29
2021-06-29 11:46:26.843750000,-55.0,35.0,5.0,84.465625,17.7,14.1790115,30.29
2021-06-29 11:46:26.851562500,-55.0,35.0,4.75,84.46484375,16.445,14.179451875,30.29
2021-06-29 11:46:26.859375000,-55.0,35.0,4.5,84.4640625,15.19,14.17989225,30.29
2021-06-29 11:46:26.867187500,-55.0,35.0,4.25,84.46328125000001,14.695,14.180332625,30.29
2021-06-29 11:46:26.875000000,-55.0,35.0,4.0,84.4625,14.2,14.180772999999999,30.29
2021-06-29 11:46:26.882812500,-55.0,35.0,4.0,84.46171875,14.5,14.181213374999999,30.29
2021-06-29 11:46:26.890625000,-55.0,35.0,4.0,84.4609375,14.8,14.181653749999999,30.29
2021-06-29 11:46:26.898437500,-55.0,35.0,4.0,84.46015625,15.855,14.182094124999999,30.29
2021-06-29 11:46:26.906250000,-55.0,35.0,4.0,84.45937500000001,16.91,14.1825345,30.29
2021-06-29 11:46:26.914062500,-55.0,34.75,4.0,84.45859375,18.615000000000002,14.182974875,30.29
2021-06-29 11:46:26.921875000,-55.0,34.5,4.0,84.4578125,20.32,14.18341525,30.29
2021-06-29 11:46:26.929687500,-55.0,34.25,4.0,84.45703125,22.525,14.183855625,30.29
2021-06-29 11:46:26.937500000,-55.0,34.0,4.0,84.45625,24.73,14.184296,30.29
2021-06-29 11:46:26.945312500,-55.0,34.25,4.0,84.45546875000001,27.225,14.184736375,30.29
2021-06-29 11:46:26.953125000,-55.0,34.5,4.0,84.4546875,29.72,14.18517675,30.29
2021-06-29 11:46:26.960937500,-55.0,34.75,4.0,84.45390625,32.245000000000005,14.185617124999998,30.29
2021-06-29 11:46:26.968750000,-55.0,35.0,4.0,84.453125,34.77,14.186057499999999,30.29
2021-06-29 11:46:26.976562500,-55.0,35.0,4.0,84.45234375,37.1,14.186497874999999,30.29
2021-06-29 11:46:26.984375000,-55.0,35.0,4.0,84.45156250000001,39.43,14.186938249999999,30.29
2021-06-29 11:46:26.992187500,-55.0,35.0,4.0,84.45078125,41.39,14.187378625,30.29
2021-06-29 11:46:27.000000000,-55.0,35.0,4.0,84.45,43.35,14.187819,30.29
2021-06-29 11:46:27.007812500,-55.0,35.0,4.0,84.45,44.894999999999996,14.18741865625,30.290625
2021-06-29 11:46:27.015625000,-55.0,35.0,4.0,84.45,46.44,14.1870183125,30.291249999999998
2021-06-29 11:46:27.023437500,-55.0,35.0,4.0,84.45,47.595,14.18661796875,30.291874999999997
2021-06-29 11:46:27.031250000,-55.0,35.0,4.0,84.45,48.75,14.186217625,30.2925
2021-06-29 11:46:27.039062500,-55.0,34.75,4.0,84.45,49.555,14.18581728125,30.293125
2021-06-29 11:46:27.046875000,-55.0,34.5,4.0,84.45,50.36,14.1854169375,30.29375
2021-06-29 11:46:27.054687500,-55.0,34.25,4.0,84.45,50.8,14.18501659375,30.294375
2021-06-29 11:46:27.062500000,-55.0,34.0,4.0,84.45,51.24,14.18461625,30.294999999999998
2021-06-29 11:46:27.070312500,-55.0,34.0,4.0,84.45,51.22,14.18421590625,30.295624999999998
2021-06-29 11:46:27.078125000,-55.0,34.0,4.0,84.45,51.2,14.1838155625,30.29625
2021-06-29 11:46:27.085937500,-55.0,34.0,4.0,84.45,50.605000000000004,14.18341521875,30.296875
2021-06-29 11:46:27.093750000,-55.0,34.0,4.0,84.45,50.01,14.183014875,30.2975
2021-06-29 11:46:27.101562500,-55.0,34.25,4.0,84.45,48.724999999999994,14.18261453125,30.298125
2021-06-29 11:46:27.109375000,-55.0,34.5,4.0,84.45,47.44,14.1822141875,30.29875
2021-06-29 11:46:27.117187500,-55.0,34.75,4.0,84.45,45.45,14.18181384375,30.299374999999998
2021-06-29 11:46:27.125000000,-55.0,35.0,4.0,84.45,43.46,14.1814135,30.299999999999997
2021-06-29 11:46:27.132812500,-55.0,34.75,4.0,84.45,40.78,14.18101315625,30.300625
2021-06-29 11:46:27.140625000,-55.0,34.5,4.0,84.45,38.1,14.1806128125,30.30125
2021-06-29 11:46:27.148437500,-55.0,34.25,4.0,84.45,34.77,14.18021246875,30.301875
2021-06-29 11:46:27.156250000,-55.0,34.0,4.0,84.45,31.44,14.179812125,30.3025
2021-06-29 11:46:27.164062500,-55.0,34.25,4.0,84.45,27.445,14.17941178125,30.303124999999998
2021-06-29 11:46:27.171875000,-55.0,34.5,4.0,84.45,23.45,14.1790114375,30.303749999999997
2021-06-29 11:46:27.179687500,-55.0,34.75,4.0,84.45,18.74,14.17861109375,30.304375
2021-06-29 11:46:27.187500000,-55.0,35.0,4.0,84.45,14.03,14.17821075,30.305
2021-06-29 11:46:27.195312500,-55.0,35.0,4.0,84.45,8.62,14.17781040625,30.305625
2021-06-29 11:46:27.203125000,-55.0,35.0,4.0,84.45,3.21,14.1774100625,30.30625
2021-06-29 11:46:27.210937500,-55.0,35.0,4.0,84.45,-2.7399999999999993,14.17700971875,30.306874999999998
2021-06-29 11:46:27.218750000,-55.0,35.0,4.0,84.45,-8.69,14.176609375,30.307499999999997
2021-06-29 11:46:27.226562500,-55.0,35.0,4.0,84.45,-14.794999999999998,14.17620903125,30.308125
2021-06-29 11:46:27.234375000,-55.0,35.0,4.0,84.45,-20.9,14.1758086875,30.30875
2021-06-29 11:46:27.242187500,-55.0,35.0,4.0,84.45,-26.585,14.17540834375,30.309375
2021-06-29 11:46:27.250000000,-55.0,35.0,4.0,84.45,-32.27,14.175008,30.31
2021-06-29 11:46:27.257812500,-55.0,34.75,4.0,84.45,-36.86,14.17468775,30.31
2021-06-29 11:46:27.265625000,-55.0,34.5,4.0,84.45,-41.45,14.1743675,30.31
2021-06-29 11:46:27.273437500,-55.0,34.25,4.0,84.45,-44.41,14.17404725,30.31
2021-06-29 11:46:27.281250000,-55.0,34.0,4.0,84.45,-47.37,14.173727,30.31
2021-06-29 11:46:27.289062500,-55.0,34.0,3.75,84.45,-48.435,14.17340675,30.31
2021-06-29 11:46:27.296875000,-55.0,34.0,3.5,84.45,-49.5,14.1730865,30.31
2021-06-29 11:46:27.304687500,-55.0,34.0,3.25,84.45,-48.785,14.17276625,30.31
2021-06-29 11:46:27.312500000,-55.0,34.0,3.0,84.45,-48.07,14.172446,30.31
2021-06-29 11:46:27.320312500,-55.0,34.25,3.0,84.45,-45.980000000000004,14.17212575,30.31
2021-06-29 11:46:27.328125000,-55.0,34.5,3.0,84.45,-43.89,14.1718055,30.31
2021-06-29 11:46:27.335937500,-55.0,34.75,3.0,84.45,-40.980000000000004,14.17148525,30.31
2021-06-29 11:46:27.343750000,-55.0,35.0,3.0,84.45,-38.07,14.171165,30.31
2021-06-29 11:46:27.351562500,-55.0,34.75,3.0,84.45,-34.865,14.17084475,30.31
2021-06-29 11:46:27.359375000,-55.0,34.5,3.0,84.45,-31.66,14.170524499999999,30.31
2021-06-29 11:46:27.367187500,-55.0,34.25,3.0,84.45,-28.54,14.17020425,30.31
2021-06-29 11:46:27.375000000,-55.0,34.0,3.0,84.45,-25.42,14.169884,30.31
2021-06-29 11:46:27.382812500,-55.0,34.0,3.25,84.45,-22.590000000000003,14.16956375,30.31
2021-06-29 11:46:27.390625000,-55.0,34.0,3.5,84.45,-19.76,14.1692435,30.31
2021-06-29 11:46:27.398437500,-55.0,34.0,3.75,84.45,-17.305,14.168923249999999,30.31
2021-06-29 11:46:27.406250000,-55.0,34.0,4.0,84.45,-14.85,14.168603,30.31
2021-06-29 11:46:27.414062500,-55.0,34.25,3.75,84.45,-12.8,14.16828275,30.31
2021-06-29 11:46:27.421875000,-55.0,34.5,3.5,84.45,-10.75,14.1679625,30.31
2021-06-29 11:46:27.429687500,-55.0,34.75,3.25,84.45,-9.115,14.16764225,30.31
2021-06-29 11:46:27.437500000,-55.0,35.0,3.0,84.45,-7.48,14.167321999999999,30.31
2021-06-29 11:46:27.445312500,-55.0,35.0,3.0,84.45,-6.235,14.167001749999999,30.31
2021-06-29 11:46:27.453125000,-55.0,35.0,3.0,84.45,-4.99,14.1666815,30.31
2021-06-29 11:46:27.460937500,-55.0,35.0,3.0,84.45,-4.05,14.16636125,30.31
2021-06-29 11:46:27.468750000,-55.0,35.0,3.0,84.45,-3.11,14.166041,30.31
2021-06-29 11:46:27.476562500,-55.0,34.75,3.0,84.45,-2.35,14.16572075,30.31
2021-06-29 11:46:27.484375000,-55.0,34.5,3.0,84.45,-1.59,14.165400499999999,30.31
2021-06-29 11:46:27.492187500,-55.0,34.25,3.0,84.45,-0.8350000000000001,14.165080249999999,30.31
2021-06-29 11:46:27.500000000,-55.0,34.0,3.0,84.45,-0.08,14.16476,30.31
2021-06-29 11:46:27.507812500,-55.0,34.0,3.0,84.45,0.795,14.165440562499999,30.31
2021-06-29 11:46:27.515625000,-55.0,34.0,3.0,84.45,1.67,14.166121125,30.31
2021-06-29 11:46:27.523437500,-55.0,34.0,3.0,84.45,2.745,14.1668016875,30.31
2021-06-29 11:46:27.531250000,-55.0,34.0,3.0,84.45,3.82,14.167482249999999,30.31
2021-06-29 11:46:27.539062500,-55.0,34.25,3.0,84.45,5.09,14.1681628125,30.31
2021-06-29 11:46:27.546875000,-55.0,34.5,3.0,84.45,6.36,14.168843375,30.31
2021-06-29 11:46:27.554687500,-55.0,34.75,3.0,84.45,7.745000000000001,14.1695239375,30.31
2021-06-29 11:46:27.562500000,-55.0,35.0,3.0,84.45,9.13,14.1702045,30.31
2021-06-29 11:46:27.570312500,-55.0,34.75,3.25,84.45,10.505,14.1708850625,30.31
2021-06-29 11:46:27.578125000,-55.0,34.5,3.5,84.45,11.88,14.171565625,30.31
2021-06-29 11:46:27.585937500,-55.0,34.25,3.75,84.45,13.15,14.172246187499999,30.31
2021-06-29 11:46:27.593750000,-55.0,34.0,4.0,84.45,14.42,14.17292675,30.31
2021-06-29 11:46:27.601562500,-55.0,34.25,3.75,84.45,15.555,14.1736073125,30.31
2021-06-29 11:46:27.609375000,-55.0,34.5,3.5,84.45,16.69,14.174287875,30.31
2021-06-29 11:46:27.617187500,-55.0,34.75,3.25,84.45,17.745,14.1749684375,30.31
2021-06-29 11:46:27.625000000,-55.0,35.0,3.0,84.45,18.8,14.175649,30.31
2021-06-29 11:46:27.632812500,-55.0,35.0,3.0,84.45,19.925,14.1763295625,30.31
2021-06-29 11:46:27.640625000,-55.0,35.0,3.0,84.45,21.05,14.177010125,30.31
2021-06-29 11:46:27.648437500,-55.0,35.0,3.0,84.45,22.41,14.1776906875,30.31
2021-06-29 11:46:27.656250000,-55.0,35.0,3.0,84.45,23.77,14.17837125,30.31
2021-06-29 11:46:27.664062500,-55.0,34.75,3.0,84.45,25.5,14.179051812500001,30.31
2021-06-29 11:46:27.671875000,-55.0,34.5,3.0,84.45,27.23,14.179732375,30.31
2021-06-29 11:46:27.679687500,-55.0,34.25,3.0,84.45,29.32,14.1804129375,30.31
2021-06-29 11:46:27.687500000,-55.0,34.0,3.0,84.45,31.41,14.1810935,30.31
2021-06-29 11:46:27.695312500,-55.25,34.0,3.0,84.45,33.765,14.1817740625,30.31
2021-06-29 11:46:27.703125000,-55.5,34.0,3.0,84.45,36.12,14.182454625,30.31
2021-06-29 11:46:27.710937500,-55.75,34.0,3.0,84.45,38.54,14.1831351875,30.31
2021-06-29 11:46:27.718750000,-56.0,34.0,3.0,84.45,40.96,14.18381575,30.31
2021-06-29 11:46:27.726562500,-55.75,34.25,3.0,84.45,43.245000000000005,14.1844963125,30.31
2021-06-29 11:46:27.734375000,-55.5,34.5,3.0,84.45,45.53,14.185176875,30.31
2021-06-29 11:46:27.742187500,-55.25,34.75,3.0,84.45,47.525000000000006,14.185857437500001,30.31
2021-06-29 11:46:27.750000000,-55.0,35.0,3.0,84.45,49.52,14.186538,30.31
2021-06-29 11:46:27.757812500,-55.0,34.75,3.0,84.45,51.16,14.18729865625,30.31
2021-06-29 11:46:27.765625000,-55.0,34.5,3.0,84.45,52.8,14.1880593125,30.31
2021-06-29 11:46:27.773437500,-55.0,34.25,3.0,84.45,54.099999999999994,14.18881996875,30.31
2021-06-29 11:46:27.781250000,-55.0,34.0,3.0,84.45,55.4,14.189580625000001,30.31
2021-06-29 11:46:27.789062500,-55.0,34.25,3.0,84.45,56.405,14.190341281250001,30.31
2021-06-29 11:46:27.796875000,-55.0,34.5,3.0,84.45,57.41,14.191101937500001,30.31
2021-06-29 11:46:27.804687500,-55.0,34.75,3.0,84.45,58.19499999999999,14.19186259375,30.31
2021-06-29 11:46:27.812500000,-55.0,35.0,3.0,84.45,58.98,14.19262325,30.31
2021-06-29 11:46:27.820312500,-55.25,35.0,3.0,84.45,59.584999999999994,14.19338390625,30.31
2021-06-29 11:46:27.828125000,-55.5,35.0,3.0,84.45,60.19,14.1941445625,30.31
2021-06-29 11:46:27.835937500,-55.75,35.0,3.0,84.45,60.629999999999995,14.19490521875,30.31
2021-06-29 11:46:27.843750000,-56.0,35.0,3.0,84.45,61.07,14.195665875,30.31
2021-06-29 11:46:27.851562500,-55.75,34.75,3.0,84.45,61.269999999999996,14.196426531250001,30.31
2021-06-29 11:46:27.859375000,-55.5,34.5,3.0,84.45,61.47,14.1971871875,30.31
2021-06-29 11:46:27.867187500,-55.25,34.25,3.0,84.45,61.26,14.19794784375,30.31
2021-06-29 11:46:27.875000000,-55.0,34.0,3.0,84.45,61.05,14.1987085,30.31
2021-06-29 11:46:27.882812500,-55.0,34.0,3.0,84.45,60.17,14.19946915625,30.31
2021-06-29 11:46:27.890625000,-55.0,34.0,3.0,84.45,59.29,14.2002298125,30.31
2021-06-29 11:46:27.898437500,-55.0,34.0,3.0,84.45,57.45,14.20099046875,30.31
2021-06-29 11:46:27.906250000,-55.0,34.0,3.0,84.45,55.61,14.201751125000001,30.31
2021-06-29 11:46:27.914062500,-55.25,34.25,3.0,84.45,52.620000000000005,14.202511781250001,30.31
2021-06-29 11:46:27.921875000,-55.5,34.5,3.0,84.45,49.63,14.2032724375,30.31
2021-06-29 11:46:27.929687500,-55.75,34.75,3.0,84.45,45.510000000000005,14.20403309375,30.31
2021-06-29 11:46:27.937500000,-56.0,35.0,3.0,84.45,41.39,14.20479375,30.31
2021-06-29 11:46:27.945312500,-55.75,34.75,3.0,84.45,36.445,14.20555440625,30.31
2021-06-29 11:46:27.953125000,-55.5,34.5,3.0,84.45,31.5,14.2063150625,30.31
2021-06-29 11:46:27.960937500,-55.25,34.25,3.0,84.45,26.29,14.20707571875,30.31
2021-06-29 11:46:27.968750000,-55.0,34.0,3.0,84.45,21.08,14.207836375,30.31
2021-06-29 11:46:27.976562500,-55.0,34.0,3.0,84.45,16.259999999999998,14.208597031250001,30.31
2021-06-29 11:46:27.984375000,-55.0,34.0,3.0,84.45,11.44,14.2093576875,30.31
2021-06-29 11:46:27.992187500,-55.0,34.0,3.0,84.45,7.615,14.21011834375,30.31
2021-06-29 11:46:28.000000000,-55.0,34.0,3.0,84.45,3.79,14.210879,30.31
2021-06-29 11:46:28.007812500,-55.25,34.25,3.0,84.449765625,1.3200000000000003,14.2099181875,30.310624999999998
2021-06-29 11:46:28.015625000,-55.5,34.5,3.0,84.44953125,-1.15,14.208957375,30.311249999999998
2021-06-29 11:46:28.023437500,-55.75,34.75,3.0,84.449296875,-2.2249999999999996,14.2079965625,30.311874999999997
2021-06-29 11:46:28.031250000,-56.0,35.0,3.0,84.4490625,-3.3,14.20703575,30.3125
2021-06-29 11:46:28.039062500,-55.75,35.0,3.0,84.448828125,-3.21,14.2060749375,30.313125
2021-06-29 11:46:28.046875000,-55.5,35.0,3.0,84.44859375,-3.12,14.205114125,30.31375
2021-06-29 11:46:28.054687500,-55.25,35.0,3.0,84.44835937500001,-2.245,14.2041533125,30.314375
2021-06-29 11:46:28.062500000,-55.0,35.0,3.0,84.448125,-1.37,14.2031925,30.314999999999998
2021-06-29 11:46:28.070312500,-55.25,34.75,3.0,84.447890625,-0.1100000000000001,14.2022316875,30.315624999999997
2021-06-29 11:46:28.078125000,-55.5,34.5,3.0,84.44765625000001,1.15,14.201270875,30.31625
2021-06-29 11:46:28.085937500,-55.75,34.25,3.0,84.447421875,2.5149999999999997,14.2003100625,30.316875
2021-06-29 11:46:28.093750000,-56.0,34.0,3.0,84.4471875,3.88,14.199349250000001,30.3175
2021-06-29 11:46:28.101562500,-55.75,34.0,3.0,84.44695312500001,5.21,14.1983884375,30.318125
2021-06-29 11:46:28.109375000,-55.5,34.0,3.0,84.44671875,6.54,14.197427625,30.318749999999998
2021-06-29 11:46:28.117187500,-55.25,34.0,3.0,84.446484375,7.77,14.1964668125,30.319374999999997
2021-06-29 11:46:28.125000000,-55.0,34.0,3.0,84.44625,9.0,14.195506,30.32
2021-06-29 11:46:28.132812500,-55.0,34.25,3.0,84.446015625,10.105,14.1945451875,30.320625
2021-06-29 11:46:28.140625000,-55.0,34.5,3.0,84.44578125,11.21,14.193584375,30.32125
2021-06-29 11:46:28.148437500,-55.0,34.75,3.0,84.445546875,12.14,14.1926235625,30.321875
2021-06-29 11:46:28.156250000,-55.0,35.0,3.0,84.4453125,13.07,14.191662749999999,30.322499999999998
2021-06-29 11:46:28.164062500,-55.25,35.0,3.0,84.44507812500001,13.76,14.1907019375,30.323124999999997
2021-06-29 11:46:28.171875000,-55.5,35.0,3.0,84.44484375,14.45,14.189741125,30.323749999999997
2021-06-29 11:46:28.179687500,-55.75,35.0,3.0,84.444609375,14.835,14.1887803125,30.324375
2021-06-29 11:46:28.187500000,-56.0,35.0,3.0,84.44437500000001,15.22,14.1878195,30.325
2021-06-29 11:46:28.195312500,-56.0,34.75,3.0,84.444140625,15.315000000000001,14.1868586875,30.325625
2021-06-29 11:46:28.203125000,-56.0,34.5,3.0,84.44390625,15.41,14.185897875,30.326249999999998
2021-06-29 11:46:28.210937500,-56.0,34.25,3.0,84.443671875,15.265,14.1849370625,30.326874999999998
2021-06-29 11:46:28.218750000,-56.0,34.0,3.0,84.4434375,15.12,14.18397625,30.327499999999997
2021-06-29 11:46:28.226562500,-55.75,34.0,3.0,84.443203125,14.82,14.1830154375,30.328125
2021-06-29 11:46:28.234375000,-55.5,34.0,3.0,84.44296875,14.52,14.182054625,30.32875
2021-06-29 11:46:28.242187500,-55.25,34.0,3.0,84.442734375,14.149999999999999,14.1810938125,30.329375
2021-06-29 11:46:28.250000000,-55.0,34.0,3.0,84.4425,13.78,14.180133,30.33
2021-06-29 11:46:28.257812500,-55.0,34.0,3.0,84.442265625,13.415,14.18069346875,30.33
2021-06-29 11:46:28.265625000,-55.0,34.0,3.0,84.44203125,13.05,14.1812539375,30.33
2021-06-29 11:46:28.273437500,-55.0,34.0,3.0,84.44179687500001,12.74,14.18181440625,30.33
2021-06-29 11:46:28.281250000,-55.0,34.0,3.0,84.4415625,12.43,14.182374874999999,30.33
2021-06-29 11:46:28.289062500,-55.0,34.0,3.0,84.441328125,12.215,14.18293534375,30.33
2021-06-29 11:46:28.296875000,-55.0,34.0,3.0,84.44109375000001,12.0,14.1834958125,30.33
2021-06-29 11:46:28.304687500,-55.0,34.0,3.0,84.440859375,11.915,14.18405628125,30.33
2021-06-29 11:46:28.312500000,-55.0,34.0,3.0,84.440625,11.83,14.18461675,30.33
2021-06-29 11:46:28.320312500,-55.25,34.0,3.0,84.440390625,11.885,14.185177218749999,30.33
2021-06-29 11:46:28.328125000,-55.5,34.0,3.0,84.44015625,11.94,14.1857376875,30.33
2021-06-29 11:46:28.335937500,-55.75,34.0,3.0,84.439921875,12.085,14.18629815625,30.33
2021-06-29 11:46:28.343750000,-56.0,34.0,3.0,84.4396875,12.23,14.186858625,30.33
2021-06-29 11:46:28.351562500,-55.75,34.0,3.0,84.439453125,12.375,14.18741909375,30.33
2021-06-29 11:46:28.359375000,-55.5,34.0,3.0,84.43921875000001,12.52,14.187979562499999,30.33
2021-06-29 11:46:28.367187500,-55.25,34.0,3.0,84.438984375,12.555,14.18854003125,30.33
2021-06-29 11:46:28.375000000,-55.0,34.0,3.0,84.43875,12.59,14.189100499999999,30.33
2021-06-29 11:46:28.382812500,-55.0,34.0,3.0,84.43851562500001,12.425,14.18966096875,30.33
2021-06-29 11:46:28.390625000,-55.0,34.0,3.0,84.43828125,12.26,14.1902214375,30.33
2021-06-29 11:46:28.398437500,-55.0,34.0,3.0,84.438046875,11.85,14.190781906249999,30.33
2021-06-29 11:46:28.406250000,-55.0,34.0,3.0,84.4378125,11.44,14.191342375,30.33
2021-06-29 11:46:28.414062500,-55.25,34.0,3.0,84.437578125,10.785,14.191902843749999,30.33
2021-06-29 11:46:28.421875000,-55.5,34.0,3.0,84.43734375,10.13,14.1924633125,30.33
2021-06-29 11:46:28.429687500,-55.75,34.0,3.0,84.437109375,9.260000000000002,14.19302378125,30.33
2021-06-29 11:46:28.437500000,-56.0,34.0,3.0,84.436875,8.39,14.193584249999999,30.33
2021-06-29 11:46:28.445312500,-56.0,34.0,3.0,84.436640625,7.34,14.19414471875,30.33
2021-06-29 11:46:28.453125000,-56.0,34.0,3.0,84.43640625,6.29,14.194705187499999,30.33
2021-06-29 11:46:28.460937500,-56.0,34.0,3.0,84.436171875,5.11,14.19526565625,30.33
2021-06-29 11:46:28.468750000,-56.0,34.0,3.0,84.43593750000001,3.93,14.195826125,30.33
2021-06-29 11:46:28.476562500,-55.75,34.0,3.0,84.435703125,2.7,14.196386593749999,30.33
2021-06-29 11:46:28.484375000,-55.5,34.0,3.0,84.43546875,1.47,14.1969470625,30.33
2021-06-29 11:46:28.492187500,-55.25,34.0,3.0,84.43523437500001,0.27,14.197507531249999,30.33
2021-06-29 11:46:28.500000000,-55.0,34.0,3.0,84.435,-0.93,14.198068,30.33
2021-06-29 11:46:28.507812500,-55.0,34.0,3.0,84.434765625,-1.9849999999999999,14.198508375,30.33
2021-06-29 11:46:28.515625000,-55.0,34.0,3.0,84.43453125,-3.04,14.19894875,30.33
2021-06-29 11:46:28.523437500,-55.0,34.0,3.0,84.434296875,-3.86,14.199389125,30.33
2021-06-29 11:46:28.531250000,-55.0,34.0,3.0,84.4340625,-4.68,14.1998295,30.33
2021-06-29 11:46:28.539062500,-55.0,34.0,3.0,84.433828125,-5.26,14.200269875,30.33
2021-06-29 11:46:28.546875000,-55.0,34.0,3.0,84.43359375,-5.84,14.20071025,30.33
2021-06-29 11:46:28.554687500,-55.0,34.0,3.0,84.43335937500001,-6.24,14.201150625,30.33
2021-06-29 11:46:28.562500000,-55.0,34.0,3.0,84.433125,-6.64,14.201591,30.33
2021-06-29 11:46:28.570312500,-55.0,34.25,3.0,84.432890625,-7.025,14.202031374999999,30.33
2021-06-29 11:46:28.578125000,-55.0,34.5,3.0,84.43265625000001,-7.41,14.202471749999999,30.33
2021-06-29 11:46:28.585937500,-55.0,34.75,3.0,84.432421875,-7.95,14.202912125,30.33
2021-06-29 11:46:28.593750000,-55.0,35.0,3.0,84.4321875,-8.49,14.2033525,30.33
2021-06-29 11:46:28.601562500,-55.0,34.75,3.0,84.431953125,-9.31,14.203792875,30.33
2021-06-29 11:46:28.609375000,-55.0,34.5,3.0,84.43171875,-10.13,14.20423325,30.33
2021-06-29 11:46:28.617187500,-55.0,34.25,3.0,84.431484375,-11.245000000000001,14.204673625,30.33
2021-06-29 11:46:28.625000000,-55.0,34.0,3.0,84.43125,-12.36,14.205114,30.33
2021-06-29 11:46:28.632812500,-55.25,34.0,3.0,84.431015625,-13.625,14.205554375,30.33
2021-06-29 11:46:28.640625000,-55.5,34.0,3.0,84.43078125,-14.89,14.20599475,30.33
2021-06-29 11:46:28.648437500,-55.75,34.0,3.0,84.430546875,-16.064999999999998,14.206435125,30.33
2021-06-29 11:46:28.656250000,-56.0,34.0,3.0,84.4303125,-17.24,14.2068755,30.33
2021-06-29 11:46:28.664062500,-56.0,34.0,3.0,84.43007812500001,-18.02,14.207315875,30.33
2021-06-29 11:46:28.671875000,-56.0,34.0,3.0,84.42984375,-18.8,14.207756250000001,30.33
2021-06-29 11:46:28.679687500,-56.0,34.0,3.0,84.429609375,-18.955,14.208196625000001,30.33
2021-06-29 11:46:28.687500000,-56.0,34.0,3.0,84.42937500000001,-19.11,14.208637,30.33
2021-06-29 11:46:28.695312500,-55.75,34.0,3.0,84.429140625,-18.494999999999997,14.209077375,30.33
2021-06-29 11:46:28.703125000,-55.5,34.0,3.0,84.42890625,-17.88,14.20951775,30.33
2021-06-29 11:46:28.710937500,-55.25,34.0,3.0,84.428671875,-16.53,14.209958125,30.33
2021-06-29 11:46:28.718750000,-55.0,34.0,3.0,84.4284375,-15.18,14.2103985,30.33
2021-06-29 11:46:28.726562500,-55.25,34.0,3.0,84.428203125,-13.225,14.210838875,30.33
2021-06-29 11:46:28.734375000,-55.5,34.0,3.0,84.42796875,-11.27,14.21127925,30.33
2021-06-29 11:46:28.742187500,-55.75,34.0,3.0,84.427734375,-8.94,14.211719625,30.33
2021-06-29 11:46:28.750000000,-56.0,34.0,3.0,84.42750000000001,-6.61,14.21216,30.33
2021-06-29 11:46:28.757812500,-56.0,34.0,3.0,84.427265625,-4.135,14.21211996875,30.33
2021-06-29 11:46:28.765625000,-56.0,34.0,3.0,84.42703125,-1.66,14.2120799375,30.33
2021-06-29 11:46:28.773437500,-56.0,34.0,3.0,84.42679687500001,0.7350000000000001,14.21203990625,30.33
2021-06-29 11:46:28.781250000,-56.0,34.0,3.0,84.4265625,3.13,14.211999875,30.33
2021-06-29 11:46:28.789062500,-55.75,34.0,3.0,84.426328125,5.279999999999999,14.21195984375,30.33
2021-06-29 11:46:28.796875000,-55.5,34.0,3.0,84.42609375,7.43,14.211919812500001,30.33
2021-06-29 11:46:28.804687500,-55.25,34.0,3.0,84.425859375,9.24,14.211879781250001,30.33
2021-06-29 11:46:28.812500000,-55.0,34.0,3.0,84.425625,11.05,14.211839750000001,30.33
2021-06-29 11:46:28.820312500,-55.25,34.0,3.0,84.425390625,12.510000000000002,14.211799718750001,30.33
2021-06-29 11:46:28.828125000,-55.5,34.0,3.0,84.42515625,13.97,14.2117596875,30.33
2021-06-29 11:46:28.835937500,-55.75,34.0,3.0,84.424921875,15.09,14.21171965625,30.33
2021-06-29 11:46:28.843750000,-56.0,34.0,3.0,84.4246875,16.21,14.211679625,30.33
2021-06-29 11:46:28.851562500,-56.0,34.0,3.0,84.424453125,17.02,14.21163959375,30.33
2021-06-29 11:46:28.859375000,-56.0,34.0,3.0,84.42421875000001,17.83,14.2115995625,30.33
2021-06-29 11:46:28.867187500,-56.0,34.0,3.0,84.423984375,18.369999999999997,14.21155953125,30.33
2021-06-29 11:46:28.875000000,-56.0,34.0,3.0,84.42375,18.91,14.211519500000001,30.33
2021-06-29 11:46:28.882812500,-56.0,34.0,3.0,84.42351562500001,19.17,14.211479468750001,30.33
2021-06-29 11:46:28.890625000,-56.0,34.0,3.0,84.42328125,19.43,14.211439437500001,30.33
2021-06-29 11:46:28.898437500,-56.0,34.0,3.0,84.423046875,19.42,14.21139940625,30.33
2021-06-29 11:46:28.906250000,-56.0,34.0,3.0,84.4228125,19.41,14.211359375,30.33
2021-06-29 11:46:28.914062500,-56.0,34.0,3.0,84.422578125,19.155,14.21131934375,30.33
2021-06-29 11:46:28.921875000,-56.0,34.0,3.0,84.42234375,18.9,14.2112793125,30.33
2021-06-29 11:46:28.929687500,-56.0,34.0,3.0,84.422109375,18.435,14.21123928125,30.33
2021-06-29 11:46:28.937500000,-56.0,34.0,3.0,84.421875,17.97,14.21119925,30.33
2021-06-29 11:46:28.945312500,-55.75,34.0,3.0,84.421640625,17.36,14.21115921875,30.33
2021-06-29 11:46:28.953125000,-55.5,34.0,3.0,84.42140625,16.75,14.2111191875,30.33
2021-06-29 11:46:28.960937500,-55.25,34.0,3.0,84.421171875,16.07,14.211079156250001,30.33
2021-06-29 11:46:28.968750000,-55.0,34.0,3.0,84.42093750000001,15.39,14.211039125000001,30.33
2021-06-29 11:46:28.976562500,-55.25,34.0,3.0,84.420703125,14.690000000000001,14.21099909375,30.33
2021-06-29 11:46:28.984375000,-55.5,34.0,3.0,84.42046875,13.99,14.2109590625,30.33
2021-06-29 11:46:28.992187500,-55.75,34.0,3.0,84.420234375,13.3,14.21091903125,30.33
2021-06-29 11:46:29.000000000,-56.0,34.0,3.0,84.42,12.61,14.210879,30.33
2021-06-29 11:46:29.007812500,-55.75,34.0,3.0,84.4196875,11.995000000000001,14.21011834375,30.329375
2021-06-29 11:46:29.015625000,-55.5,34.0,3.0,84.419375,11.38,14.2093576875,30.32875
2021-06-29 11:46:29.023437500,-55.25,34.0,3.0,84.4190625,10.88,14.208597031250001,30.328125
2021-06-29 11:46:29.031250000,-55.0,34.0,3.0,84.41875,10.38,14.207836375,30.327499999999997
2021-06-29 11:46:29.039062500,-55.0,34.0,3.0,84.4184375,10.05,14.20707571875,30.326874999999998
2021-06-29 11:46:29.046875000,-55.0,34.0,3.0,84.418125,9.72,14.2063150625,30.326249999999998
2021-06-29 11:46:29.054687500,-55.0,34.0,3.0,84.4178125,9.58,14.20555440625,30.325625
2021-06-29 11:46:29.062500000,-55.0,34.0,3.0,84.4175,9.44,14.20479375,30.325
2021-06-29 11:46:29.070312500,-55.25,34.0,3.0,84.4171875,9.44,14.20403309375,30.324375
2021-06-29 11:46:29.078125000,-55.5,34.0,3.0,84.416875,9.44,14.2032724375,30.323749999999997
2021-06-29 11:46:29.085937500,-55.75,34.0,3.0,84.4165625,9.48,14.202511781250001,30.323124999999997
2021-06-29 11:46:29.093750000,-56.0,34.0,3.0,84.41625,9.52,14.201751125000001,30.322499999999998
2021-06-29 11:46:29.101562500,-56.0,34.0,2.75,84.4159375,9.475,14.20099046875,30.321875
2021-06-29 11:46:29.109375000,-56.0,34.0,2.5,84.415625,9.43,14.2002298125,30.32125
2021-06-29 11:46:29.117187500,-56.0,34.0,2.25,84.4153125,9.195,14.19946915625,30.320625
2021-06-29 11:46:29.125000000,-56.0,34.0,2.0,84.415,8.96,14.1987085,30.32
2021-06-29 11:46:29.132812500,-55.75,34.0,2.5,84.4146875,8.505,14.19794784375,30.319374999999997
2021-06-29 11:46:29.140625000,-55.5,34.0,3.0,84.414375,8.05,14.1971871875,30.318749999999998
2021-06-29 11:46:29.148437500,-55.25,34.0,3.5,84.4140625,7.405,14.196426531250001,30.318125
2021-06-29 11:46:29.156250000,-55.0,34.0,4.0,84.41375000000001,6.76,14.195665875,30.3175
2021-06-29 11:46:29.164062500,-55.0,34.0,4.0,84.4134375,6.005,14.19490521875,30.316875
2021-06-29 11:46:29.171875000,-55.0,34.0,4.0,84.413125,5.25,14.1941445625,30.31625
2021-06-29 11:46:29.179687500,-55.0,34.0,4.0,84.4128125,4.465,14.19338390625,30.315624999999997
2021-06-29 11:46:29.187500000,-55.0,34.0,4.0,84.4125,3.68,14.19262325,30.314999999999998
2021-06-29 11:46:29.195312500,-55.25,34.0,3.75,84.4121875,2.9450000000000003,14.19186259375,30.314375
2021-06-29 11:46:29.203125000,-55.5,34.0,3.5,84.411875,2.21,14.191101937500001,30.31375
2021-06-29 11:46:29.210937500,-55.75,34.0,3.25,84.4115625,1.585,14.190341281250001,30.313125
2021-06-29 11:46:29.218750000,-56.0,34.0,3.0,84.41125,0.96,14.189580625000001,30.3125
2021-06-29 11:46:29.226562500,-55.75,34.0,3.25,84.4109375,0.495,14.18881996875,30.311874999999997
2021-06-29 11:46:29.234375000,-55.5,34.0,3.5,84.410625,0.03,14.1880593125,30.311249999999998
2021-06-29 11:46:29.242187500,-55.25,34.0,3.75,84.4103125,-0.265,14.18729865625,30.310624999999998
2021-06-29 11:46:29.250000000,-55.0,34.0,4.0,84.41,-0.56,14.186538,30.31
2021-06-29 11:46:29.257812500,-55.0,34.0,4.0,84.4096875,-0.7250000000000001,14.186297781250001,30.31
2021-06-29 11:46:29.265625000,-55.0,34.0,4.0,84.409375,-0.89,14.1860575625,30.31
2021-06-29 11:46:29.273437500,-55.0,34.0,4.0,84.4090625,-1.06,14.185817343750001,30.31
2021-06-29 11:46:29.281250000,-55.0,34.0,4.0,84.40875,-1.23,14.185577125,30.31
2021-06-29 11:46:29.289062500,-55.25,34.0,3.75,84.4084375,-1.5699999999999998,14.18533690625,30.31
2021-06-29 11:46:29.296875000,-55.5,34.0,3.5,84.408125,-1.91,14.1850966875,30.31
2021-06-29 11:46:29.304687500,-55.75,34.0,3.25,84.4078125,-2.545,14.18485646875,30.31
2021-06-29 11:46:29.312500000,-56.0,34.0,3.0,84.4075,-3.18,14.184616250000001,30.31
2021-06-29 11:46:29.320312500,-55.75,34.25,3.0,84.4071875,-4.115,14.18437603125,30.31
2021-06-29 11:46:29.328125000,-55.5,34.5,3.0,84.406875,-5.05,14.184135812500001,30.31
2021-06-29 11:46:29.335937500,-55.25,34.75,3.0,84.40656249999999,-6.109999999999999,14.18389559375,30.31
2021-06-29 11:46:29.343750000,-55.0,35.0,3.0,84.40625,-7.17,14.183655375,30.31
2021-06-29 11:46:29.351562500,-55.0,34.75,3.0,84.4059375,-8.08,14.18341515625,30.31
2021-06-29 11:46:29.359375000,-55.0,34.5,3.0,84.405625,-8.99,14.1831749375,30.31
2021-06-29 11:46:29.367187500,-55.0,34.25,3.0,84.4053125,-9.445,14.18293471875,30.31
2021-06-29 11:46:29.375000000,-55.0,34.0,3.0,84.405,-9.9,14.1826945,30.31
2021-06-29 11:46:29.382812500,-55.0,33.75,3.0,84.4046875,-9.73,14.182454281250001,30.31
2021-06-29 11:46:29.390625000,-55.0,33.5,3.0,84.404375,-9.56,14.1822140625,30.31
2021-06-29 11:46:29.398437500,-55.0,33.25,3.0,84.4040625,-8.735,14.18197384375,30.31
2021-06-29 11:46:29.406250000,-55.0,33.0,3.0,84.40375,-7.91,14.181733625,30.31
2021-06-29 11:46:29.414062500,-55.25,33.25,3.0,84.4034375,-6.58,14.18149340625,30.31
2021-06-29 11:46:29.421875000,-55.5,33.5,3.0,84.403125,-5.25,14.1812531875,30.31
2021-06-29 11:46:29.429687500,-55.75,33.75,3.0,84.4028125,-3.635,14.18101296875,30.31
2021-06-29 11:46:29.437500000,-56.0,34.0,3.0,84.4025,-2.02,14.18077275,30.31
2021-06-29 11:46:29.445312500,-56.0,34.0,3.0,84.4021875,-0.345,14.18053253125,30.31
2021-06-29 11:46:29.453125000,-56.0,34.0,3.0,84.401875,1.33,14.1802923125,30.31
2021-06-29 11:46:29.460937500,-56.0,34.0,3.0,84.4015625,2.9,14.18005209375,30.31
2021-06-29 11:46:29.468750000,-56.0,34.0,3.0,84.40125,4.47,14.179811875,30.31
2021-06-29 11:46:29.476562500,-55.75,34.0,3.0,84.4009375,5.835,14.17957165625,30.31
2021-06-29 11:46:29.484375000,-55.5,34.0,3.0,84.400625,7.2,14.1793314375,30.31
2021-06-29 11:46:29.492187500,-55.25,34.0,3.0,84.4003125,8.290000000000001,14.17909121875,30.31
2021-06-29 11:46:29.500000000,-55.0,34.0,3.0,84.4,9.38,14.178851,30.31
2021-06-29 11:46:29.507812500,-55.25,34.0,3.0,84.3996875,10.16,14.17853075,30.31
2021-06-29 11:46:29.515625000,-55.5,34.0,3.0,84.39937499999999,10.94,14.1782105,30.31
2021-06-29 11:46:29.523437500,-55.75,34.0,3.0,84.3990625,11.370000000000001,14.177890249999999,30.31
2021-06-29 11:46:29.531250000,-56.0,34.0,3.0,84.39874999999999,11.8,14.17757,30.31
2021-06-29 11:46:29.539062500,-56.0,34.0,3.25,84.3984375,11.885000000000002,14.17724975,30.31
2021-06-29 11:46:29.546875000,-56.0,34.0,3.5,84.398125,11.97,14.1769295,30.31
2021-06-29 11:46:29.554687500,-56.0,34.0,3.75,84.3978125,11.765,14.17660925,30.31
2021-06-29 11:46:29.562500000,-56.0,34.0,4.0,84.3975,11.56,14.176289,30.31
2021-06-29 11:46:29.570312500,-55.75,34.0,3.75,84.3971875,11.175,14.17596875,30.31
2021-06-29 11:46:29.578125000,-55.5,34.0,3.5,84.396875,10.79,14.1756485,30.31
2021-06-29 11:46:29.585937500,-55.25,34.0,3.25,84.3965625,10.385,14.17532825,30.31
2021-06-29 11:46:29.593750000,-55.0,34.0,3.0,84.39625,9.98,14.175008,30.31
2021-06-29 11:46:29.601562500,-55.25,34.0,3.25,84.3959375,9.725000000000001,14.17468775,30.31
2021-06-29 11:46:29.609375000,-55.5,34.0,3.5,84.395625,9.47,14.174367499999999,30.31
2021-06-29 11:46:29.617187500,-55.75,34.0,3.75,84.3953125,9.48,14.17404725,30.31
2021-06-29 11:46:29.625000000,-56.0,34.0,4.0,84.395,9.49,14.173727,30.31
2021-06-29 11:46:29.632812500,-56.0,34.0,3.75,84.3946875,9.785,14.17340675,30.31
2021-06-29 11:46:29.640625000,-56.0,34.0,3.5,84.394375,10.08,14.1730865,30.31
2021-06-29 11:46:29.648437500,-56.0,34.0,3.25,84.3940625,10.575,14.172766249999999,30.31
2021-06-29 11:46:29.656250000,-56.0,34.0,3.0,84.39375,11.07,14.172445999999999,30.31
2021-06-29 11:46:29.664062500,-55.75,34.0,3.0,84.3934375,11.620000000000001,14.17212575,30.31
2021-06-29 11:46:29.671875000,-55.5,34.0,3.0,84.393125,12.17,14.1718055,30.31
2021-06-29 11:46:29.679687500,-55.25,34.0,3.0,84.39281249999999,12.620000000000001,14.17148525,30.31
2021-06-29 11:46:29.687500000,-55.0,34.0,3.0,84.3925,13.07,14.171164999999998,30.31
2021-06-29 11:46:29.695312500,-55.25,34.0,3.25,84.39218749999999,13.3,14.170844749999999,30.31
2021-06-29 11:46:29.703125000,-55.5,34.0,3.5,84.391875,13.53,14.170524499999999,30.31
2021-06-29 11:46:29.710937500,-55.75,34.0,3.75,84.39156249999999,13.489999999999998,14.17020425,30.31
2021-06-29 11:46:29.718750000,-56.0,34.0,4.0,84.39125,13.45,14.169884,30.31
2021-06-29 11:46:29.726562500,-55.75,34.0,3.75,84.39093749999999,13.145,14.16956375,30.31
2021-06-29 11:46:29.734375000,-55.5,34.0,3.5,84.390625,12.84,14.169243499999999,30.31
2021-06-29 11:46:29.742187500,-55.25,34.0,3.25,84.3903125,12.309999999999999,14.168923249999999,30.31
2021-06-29 11:46:29.750000000,-55.0,34.0,3.0,84.39,11.78,14.168603,30.31
2021-06-29 11:46:29.757812500,-55.0,34.0,3.0,84.3896875,11.09,14.167682187499999,30.31
2021-06-29 11:46:29.765625000,-55.0,34.0,3.0,84.389375,10.4,14.166761375,30.31
2021-06-29 11:46:29.773437500,-55.0,34.0,3.0,84.3890625,9.58,14.1658405625,30.31
2021-06-29 11:46:29.781250000,-55.0,34.0,3.0,84.38875,8.76,14.16491975,30.31
2021-06-29 11:46:29.789062500,-55.25,34.0,3.0,84.3884375,7.85,14.163998937499999,30.31
2021-06-29 11:46:29.796875000,-55.5,34.0,3.0,84.388125,6.94,14.163078124999998,30.31
2021-06-29 11:46:29.804687500,-55.75,34.0,3.0,84.3878125,5.960000000000001,14.1621573125,30.31
2021-06-29 11:46:29.812500000,-56.0,34.0,3.0,84.3875,4.98,14.1612365,30.31
2021-06-29 11:46:29.820312500,-56.0,34.0,3.25,84.3871875,3.955,14.160315687499999,30.31
2021-06-29 11:46:29.828125000,-56.0,34.0,3.5,84.386875,2.93,14.159394875,30.31
2021-06-29 11:46:29.835937500,-56.0,34.0,3.75,84.3865625,1.8900000000000001,14.1584740625,30.31
2021-06-29 11:46:29.843750000,-56.0,34.0,4.0,84.38624999999999,0.85,14.15755325,30.31
2021-06-29 11:46:29.851562500,-56.0,34.0,3.75,84.3859375,-0.17000000000000004,14.156632437499999,30.31
2021-06-29 11:46:29.859375000,-56.0,34.0,3.5,84.38562499999999,-1.19,14.155711624999999,30.31
2021-06-29 11:46:29.867187500,-56.0,34.0,3.25,84.3853125,-2.16,14.1547908125,30.31
2021-06-29 11:46:29.875000000,-56.0,34.0,3.0,84.38499999999999,-3.13,14.15387,30.31
2021-06-29 11:46:29.882812500,-56.0,34.0,3.0,84.3846875,-4.02,14.152949187499999,30.31
2021-06-29 11:46:29.890625000,-56.0,34.0,3.0,84.38437499999999,-4.91,14.152028375,30.31
2021-06-29 11:46:29.898437500,-56.0,34.0,3.0,84.3840625,-5.73,14.1511075625,30.31
2021-06-29 11:46:29.906250000,-56.0,34.0,3.0,84.38374999999999,-6.55,14.15018675,30.31
2021-06-29 11:46:29.914062500,-56.0,34.0,3.0,84.3834375,-7.345000000000001,14.1492659375,30.31
2021-06-29 11:46:29.921875000,-56.0,34.0,3.0,84.38312499999999,-8.14,14.148345124999999,30.31
2021-06-29 11:46:29.929687500,-56.0,34.0,3.0,84.3828125,-8.955,14.1474243125,30.31
2021-06-29 11:46:29.937500000,-56.0,34.0,3.0,84.3825,-9.77,14.1465035,30.31
2021-06-29 11:46:29.945312500,-55.75,34.0,3.0,84.3821875,-10.620000000000001,14.1455826875,30.31
2021-06-29 11:46:29.953125000,-55.5,34.0,3.0,84.381875,-11.47,14.144661875,30.31
2021-06-29 11:46:29.960937500,-55.25,34.0,3.0,84.3815625,-12.350000000000001,14.1437410625,30.31
2021-06-29 11:46:29.968750000,-55.0,34.0,3.0,84.38125,-13.23,14.14282025,30.31
2021-06-29 11:46:29.976562500,-55.25,34.0,3.0,84.3809375,-14.065000000000001,14.1418994375,30.31
2021-06-29 11:46:29.984375000,-55.5,34.0,3.0,84.380625,-14.9,14.140978624999999,30.31
2021-06-29 11:46:29.992187500,-55.75,34.0,3.0,84.3803125,-15.625,14.1400578125,30.31
2021-06-29 11:46:30.000000000,-56.0,34.0,3.0,84.38,-16.35,14.139137,30.31
2021-06-29 11:46:30.007812500,-55.75,34.0,3.0,84.379921875,-16.905,14.138936812499999,30.31
2021-06-29 11:46:30.015625000,-55.5,34.0,3.0,84.37984374999999,-17.46,14.138736625,30.31
2021-06-29 11:46:30.023437500,-55.25,34.0,3.0,84.37976562499999,-17.795,14.138536437499999,30.31
2021-06-29 11:46:30.031250000,-55.0,34.0,3.0,84.37968749999999,-18.13,14.13833625,30.31
2021-06-29 11:46:30.039062500,-55.25,34.0,3.0,84.379609375,-18.25,14.1381360625,30.31
2021-06-29 11:46:30.046875000,-55.5,34.0,3.0,84.37953125,-18.37,14.137935875,30.31
2021-06-29 11:46:30.054687500,-55.75,34.0,3.0,84.379453125,-18.255000000000003,14.1377356875,30.31
2021-06-29 11:46:30.062500000,-56.0,34.0,3.0,84.379375,-18.14,14.1375355,30.31
2021-06-29 11:46:30.070312500,-55.75,34.0,3.0,84.379296875,-17.79,14.1373353125,30.31
2021-06-29 11:46:30.078125000,-55.5,34.0,3.0,84.37921874999999,-17.44,14.137135125,30.31
2021-06-29 11:46:30.085937500,-55.25,34.0,3.0,84.37914062499999,-16.845,14.1369349375,30.31
2021-06-29 11:46:30.093750000,-55.0,34.0,3.0,84.3790625,-16.25,14.13673475,30.31
2021-06-29 11:46:30.101562500,-55.25,34.0,3.0,84.378984375,-15.43,14.1365345625,30.31
2021-06-29 11:46:30.109375000,-55.5,34.0,3.0,84.37890625,-14.61,14.136334375,30.31
2021-06-29 11:46:30.117187500,-55.75,34.0,3.0,84.378828125,-13.605,14.1361341875,30.31
2021-06-29 11:46:30.125000000,-56.0,34.0,3.0,84.37875,-12.6,14.135933999999999,30.31
2021-06-29 11:46:30.132812500,-56.0,34.0,3.0,84.378671875,-11.495000000000001,14.1357338125,30.31
2021-06-29 11:46:30.140625000,-56.0,34.0,3.0,84.37859375,-10.39,14.135533624999999,30.31
2021-06-29 11:46:30.148437500,-56.0,34.0,3.0,84.37851562499999,-9.295,14.1353334375,30.31
2021-06-29 11:46:30.156250000,-56.0,34.0,3.0,84.37843749999999,-8.2,14.135133249999999,30.31
2021-06-29 11:46:30.164062500,-55.75,34.0,3.0,84.378359375,-7.195,14.1349330625,30.31
2021-06-29 11:46:30.171875000,-55.5,34.0,3.0,84.37828125,-6.19,14.134732875,30.31
2021-06-29 11:46:30.179687500,-55.25,34.0,3.0,84.378203125,-5.32,14.1345326875,30.31
2021-06-29 11:46:30.187500000,-55.0,34.0,3.0,84.378125,-4.45,14.1343325,30.31
2021-06-29 11:46:30.195312500,-55.0,34.0,3.0,84.378046875,-3.715,14.1341323125,30.31
2021-06-29 11:46:30.203125000,-55.0,34.0,3.0,84.37796875,-2.98,14.133932125,30.31
2021-06-29 11:46:30.210937500,-55.0,34.0,3.0,84.37789062499999,-2.34,14.1337319375,30.31
2021-06-29 11:46:30.218750000,-55.0,34.0,3.0,84.3778125,-1.7,14.13353175,30.31
2021-06-29 11:46:30.226562500,-55.25,34.0,3.0,84.377734375,-1.08,14.1333315625,30.31
2021-06-29 11:46:30.234375000,-55.5,34.0,3.0,84.37765625,-0.46,14.133131375,30.31
2021-06-29 11:46:30.242187500,-55.75,34.0,3.0,84.377578125,0.19,14.1329311875,30.31
2021-06-29 11:46:30.250000000,-56.0,34.0,3.0,84.3775,0.84,14.132731,30.31
2021-06-29 11:46:30.257812500,-55.75,34.0,3.0,84.377421875,1.52,14.132170562499999,30.31
2021-06-29 11:46:30.265625000,-55.5,34.0,3.0,84.37734375,2.2,14.131610125,30.31
2021-06-29 11:46:30.273437500,-55.25,34.0,3.0,84.37726562499999,2.87,14.1310496875,30.31
2021-06-29 11:46:30.281250000,-55.0,34.0,3.0,84.37718749999999,3.54,14.13048925,30.31
2021-06-29 11:46:30.289062500,-55.25,34.0,3.0,84.377109375,4.125,14.1299288125,30.31
2021-06-29 11:46:30.296875000,-55.5,34.0,3.0,84.37703125,4.71,14.129368375,30.31
2021-06-29 11:46:30.304687500,-55.75,34.0,3.0,84.376953125,5.16,14.1288079375,30.31
2021-06-29 11:46:30.312500000,-56.0,34.0,3.0,84.376875,5.61,14.1282475,30.31
2021-06-29 11:46:30.320312500,-55.75,34.0,3.0,84.376796875,5.890000000000001,14.1276870625,30.31
2021-06-29 11:46:30.328125000,-55.5,34.0,3.0,84.37671875,6.17,14.127126624999999,30.31
2021-06-29 11:46:30.335937500,-55.25,34.0,3.0,84.376640625,6.285,14.1265661875,30.31
2021-06-29 11:46:30.343750000,-55.0,34.0,3.0,84.3765625,6.4,14.12600575,30.31
2021-06-29 11:46:30.351562500,-55.0,34.0,3.0,84.376484375,6.37,14.1254453125,30.31
2021-06-29 11:46:30.359375000,-55.0,34.0,3.0,84.37640625,6.34,14.124884875,30.31
2021-06-29 11:46:30.367187500,-55.0,34.0,3.0,84.376328125,6.135,14.1243244375,30.31
2021-06-29 11:46:30.375000000,-55.0,34.0,3.0,84.37625,5.93,14.123764,30.31
2021-06-29 11:46:30.382812500,-55.0,34.0,3.0,84.376171875,5.48,14.123203562499999,30.31
2021-06-29 11:46:30.390625000,-55.0,34.0,3.0,84.37609375,5.03,14.122643125,30.31
2021-06-29 11:46:30.398437500,-55.0,34.0,3.0,84.376015625,4.245,14.122082687499999,30.31
2021-06-29 11:46:30.406250000,-55.0,34.0,3.0,84.37593749999999,3.46,14.12152225,30.31
2021-06-29 11:46:30.414062500,-55.0,34.0,3.0,84.375859375,2.295,14.1209618125,30.31
2021-06-29 11:46:30.421875000,-55.0,34.0,3.0,84.37578125,1.13,14.120401375,30.31
2021-06-29 11:46:30.429687500,-55.0,34.0,3.0,84.375703125,-0.3999999999999999,14.1198409375,30.31
2021-06-29 11:46:30.437500000,-55.0,34.0,3.0,84.375625,-1.93,14.119280499999999,30.31
2021-06-29 11:46:30.445312500,-55.0,34.0,3.0,84.375546875,-3.7350000000000003,14.1187200625,30.31
2021-06-29 11:46:30.453125000,-55.0,34.0,3.0,84.37546875,-5.54,14.118159624999999,30.31
2021-06-29 11:46:30.460937500,-55.0,34.0,3.0,84.375390625,-7.48,14.1175991875,30.31
2021-06-29 11:46:30.468750000,-55.0,34.0,3.0,84.3753125,-9.42,14.117038749999999,30.31
2021-06-29 11:46:30.476562500,-55.0,34.0,3.0,84.375234375,-11.375,14.1164783125,30.31
2021-06-29 11:46:30.484375000,-55.0,34.0,3.0,84.37515625,-13.33,14.115917875,30.31
2021-06-29 11:46:30.492187500,-55.0,34.0,3.0,84.375078125,-15.235,14.1153574375,30.31
2021-06-29 11:46:30.500000000,-55.0,34.0,3.0,84.375,-17.14,14.114797,30.31
2021-06-29 11:46:30.507812500,-55.0,34.0,3.0,84.374921875,-18.97,14.114716906249999,30.31
2021-06-29 11:46:30.515625000,-55.0,34.0,3.0,84.37484375,-20.8,14.114636812499999,30.31
2021-06-29 11:46:30.523437500,-55.0,34.0,3.0,84.374765625,-22.545,14.11455671875,30.31
2021-06-29 11:46:30.531250000,-55.0,34.0,3.0,84.3746875,-24.29,14.114476625,30.31
2021-06-29 11:46:30.539062500,-55.0,34.0,3.0,84.374609375,-25.9,14.11439653125,30.31
2021-06-29 11:46:30.546875000,-55.0,34.0,3.0,84.37453125,-27.51,14.1143164375,30.31
2021-06-29 11:46:30.554687500,-55.0,34.0,3.0,84.374453125,-28.880000000000003,14.11423634375,30.31
2021-06-29 11:46:30.562500000,-55.0,34.0,3.0,84.374375,-30.25,14.11415625,30.31
2021-06-29 11:46:30.570312500,-55.25,34.0,3.0,84.374296875,-31.26,14.11407615625,30.31
2021-06-29 11:46:30.578125000,-55.5,34.0,3.0,84.37421875,-32.27,14.1139960625,30.31
2021-06-29 11:46:30.585937500,-55.75,34.0,3.0,84.374140625,-32.835,14.11391596875,30.31
2021-06-29 11:46:30.593750000,-56.0,34.0,3.0,84.37406250000001,-33.4,14.113835875,30.31
2021-06-29 11:46:30.601562500,-56.0,34.0,3.0,84.373984375,-33.51,14.11375578125,30.31
2021-06-29 11:46:30.609375000,-56.0,34.0,3.0,84.37390625,-33.62,14.1136756875,30.31
2021-06-29 11:46:30.617187500,-56.0,34.0,3.0,84.373828125,-33.375,14.11359559375,30.31
2021-06-29 11:46:30.625000000,-56.0,34.0,3.0,84.37375,-33.13,14.1135155,30.31
2021-06-29 11:46:30.632812500,-55.75,34.0,3.0,84.373671875,-32.685,14.11343540625,30.31
2021-06-29 11:46:30.640625000,-55.5,34.0,3.0,84.37359375,-32.24,14.1133553125,30.31
2021-06-29 11:46:30.648437500,-55.25,34.0,3.0,84.373515625,-31.795,14.113275218750001,30.31
2021-06-29 11:46:30.656250000,-55.0,34.0,3.0,84.3734375,-31.35,14.113195125,30.31
2021-06-29 11:46:30.664062500,-55.0,34.0,3.0,84.373359375,-31.04,14.11311503125,30.31
2021-06-29 11:46:30.671875000,-55.0,34.0,3.0,84.37328125,-30.73,14.1130349375,30.31
2021-06-29 11:46:30.679687500,-55.0,34.0,3.0,84.373203125,-30.630000000000003,14.11295484375,30.31
2021-06-29 11:46:30.687500000,-55.0,34.0,3.0,84.373125,-30.53,14.11287475,30.31
2021-06-29 11:46:30.695312500,-55.0,34.0,3.0,84.373046875,-30.595,14.112794656250001,30.31
2021-06-29 11:46:30.703125000,-55.0,34.0,3.0,84.37296875,-30.66,14.1127145625,30.31
2021-06-29 11:46:30.710937500,-55.0,34.0,3.0,84.372890625,-30.79,14.11263446875,30.31
2021-06-29 11:46:30.718750000,-55.0,34.0,3.0,84.37281250000001,-30.92,14.112554375,30.31
2021-06-29 11:46:30.726562500,-55.0,34.0,3.0,84.37273437500001,-30.96,14.11247428125,30.31
2021-06-29 11:46:30.734375000,-55.0,34.0,3.0,84.37265625,-31.0,14.112394187500001,30.31
2021-06-29 11:46:30.742187500,-55.0,34.0,3.0,84.372578125,-30.785,14.112314093750001,30.31
2021-06-29 11:46:30.750000000,-55.0,34.0,3.0,84.3725,-30.57,14.112234,30.31
2021-06-29 11:46:30.757812500,-55.0,34.0,3.0,84.372421875,-29.990000000000002,14.1105525625,30.31
2021-06-29 11:46:30.765625000,-55.0,34.0,3.0,84.37234375,-29.41,14.108871125,30.31
2021-06-29 11:46:30.773437500,-55.0,34.0,3.0,84.372265625,-28.395,14.1071896875,30.31
2021-06-29 11:46:30.781250000,-55.0,34.0,3.0,84.3721875,-27.38,14.10550825,30.31
2021-06-29 11:46:30.789062500,-55.0,34.25,3.0,84.37210937500001,-25.924999999999997,14.103826812500001,30.31
2021-06-29 11:46:30.796875000,-55.0,34.5,3.0,84.37203125,-24.47,14.102145375000001,30.31
2021-06-29 11:46:30.804687500,-55.0,34.75,3.0,84.371953125,-22.625,14.1004639375,30.31
2021-06-29 11:46:30.812500000,-55.0,35.0,3.0,84.371875,-20.78,14.0987825,30.31
2021-06-29 11:46:30.820312500,-55.0,34.75,3.0,84.371796875,-18.625,14.0971010625,30.31
2021-06-29 11:46:30.828125000,-55.0,34.5,3.0,84.37171875,-16.47,14.095419625,30.31
2021-06-29 11:46:30.835937500,-55.0,34.25,3.0,84.371640625,-14.09,14.0937381875,30.31
2021-06-29 11:46:30.843750000,-55.0,34.0,3.0,84.37156250000001,-11.71,14.092056750000001,30.31
2021-06-29 11:46:30.851562500,-55.0,34.0,3.0,84.37148437500001,-9.215,14.0903753125,30.31
2021-06-29 11:46:30.859375000,-55.0,34.0,3.0,84.37140625,-6.72,14.088693875,30.31
2021-06-29 11:46:30.867187500,-55.0,34.0,3.0,84.371328125,-4.205,14.0870124375,30.31
2021-06-29 11:46:30.875000000,-55.0,34.0,3.0,84.37125,-1.69,14.085331,30.31
2021-06-29 11:46:30.882812500,-55.0,34.0,3.0,84.371171875,0.7600000000000002,14.0836495625,30.31
2021-06-29 11:46:30.890625000,-55.0,34.0,3.0,84.37109375,3.21,14.081968125,30.31
2021-06-29 11:46:30.898437500,-55.0,34.0,3.0,84.371015625,5.529999999999999,14.0802866875,30.31
2021-06-29 11:46:30.906250000,-55.0,34.0,3.0,84.3709375,7.85,14.078605249999999,30.31
2021-06-29 11:46:30.914062500,-55.0,34.0,3.0,84.37085937500001,10.035,14.0769238125,30.31
2021-06-29 11:46:30.921875000,-55.0,34.0,3.0,84.37078125000001,12.22,14.075242375,30.31
2021-06-29 11:46:30.929687500,-55.0,34.0,3.0,84.370703125,14.285,14.0735609375,30.31
2021-06-29 11:46:30.937500000,-55.0,34.0,3.0,84.370625,16.35,14.0718795,30.31
2021-06-29 11:46:30.945312500,-55.0,34.0,3.0,84.370546875,18.325000000000003,14.0701980625,30.31
2021-06-29 11:46:30.953125000,-55.0,34.0,3.0,84.37046875,20.3,14.068516624999999,30.31
2021-06-29 11:46:30.960937500,-55.0,34.0,3.0,84.370390625,22.205,14.066835187499999,30.31
2021-06-29 11:46:30.968750000,-55.0,34.0,3.0,84.37031250000001,24.11,14.06515375,30.31
2021-06-29 11:46:30.976562500,-55.0,34.25,3.0,84.37023437500001,25.935000000000002,14.0634723125,30.31
2021-06-29 11:46:30.984375000,-55.0,34.5,3.0,84.37015625000001,27.76,14.061790875,30.31
2021-06-29 11:46:30.992187500,-55.0,34.75,3.0,84.370078125,29.475,14.0601094375,30.31
2021-06-29 11:46:31.000000000,-55.0,35.0,3.0,84.37,31.19,14.058428,30.31
2021-06-29 11:46:31.007812500,-55.25,35.0,3.0,84.37,32.77,14.058428,30.31
2021-06-29 11:46:31.015625000,-55.5,35.0,3.0,84.37,34.35,14.058428,30.31
2021-06-29 11:46:31.023437500,-55.75,35.0,3.0,84.37,35.775000000000006,14.058428,30.31
2021-06-29 11:46:31.031250000,-56.0,35.0,3.0,84.37,37.2,14.058428,30.31
2021-06-29 11:46:31.039062500,-56.0,34.75,3.0,84.37,38.455,14.058428,30.31
2021-06-29 11:46:31.046875000,-56.0,34.5,3.0,84.37,39.71,14.058428,30.31
2021-06-29 11:46:31.054687500,-56.0,34.25,3.0,84.37,40.81,14.058428,30.31
2021-06-29 11:46:31.062500000,-56.0,34.0,3.0,84.37,41.91,14.058428,30.31
2021-06-29 11:46:31.070312500,-56.0,34.0,3.0,84.37,42.84,14.058428,30.31
2021-06-29 11:46:31.078125000,-56.0,34.0,3.0,84.37,43.77,14.058428,30.31
2021-06-29 11:46:31.085937500,-56.0,34.0,3.0,84.37,44.495000000000005,14.058428,30.31
2021-06-29 11:46:31.093750000,-56.0,34.0,3.0,84.37,45.22,14.058428,30.31
2021-06-29 11:46:31.101562500,-55.75,34.0,3.0,84.37,45.695,14.058428,30.31
2021-06-29 11:46:31.109375000,-55.5,34.0,3.0,84.37,46.17,14.058428,30.31
2021-06-29 11:46:31.117187500,-55.25,34.0,3.0,84.37,46.345,14.058428,30.31
2021-06-29 11:46:31.125000000,-55.0,34.0,3.0,84.37,46.52,14.058428,30.31
2021-06-29 11:46:31.132812500,-55.0,34.0,3.0,84.37,46.370000000000005,14.058428,30.31
2021-06-29 11:46:31.140625000,-55.0,34.0,3.0,84.37,46.22,14.058428,30.31
2021-06-29 11:46:31.148437500,-55.0,34.0,3.0,84.37,45.695,14.058428,30.31
2021-06-29 11:46:31.156250000,-55.0,34.0,3.0,84.37,45.17,14.058428,30.31
2021-06-29 11:46:31.164062500,-55.0,34.0,3.0,84.37,44.235,14.058428,30.31
2021-06-29 11:46:31.171875000,-55.0,34.0,3.0,84.37,43.3,14.058428,30.31
2021-06-29 11:46:31.179687500,-55.0,34.0,3.0,84.37,41.87,14.058428,30.31
2021-06-29 11:46:31.187500000,-55.0,34.0,3.0,84.37,40.44,14.058428,30.31
2021-06-29 11:46:31.195312500,-55.25,34.0,3.0,84.37,38.44,14.058428,30.31
2021-06-29 11:46:31.203125000,-55.5,34.0,3.0,84.37,36.44,14.058428,30.31
2021-06-29 11:46:31.210937500,-55.75,34.0,3.0,84.37,33.795,14.058428,30.31
2021-06-29 11:46:31.218750000,-56.0,34.0,3.0,84.37,31.15,14.058428,30.31
2021-06-29 11:46:31.226562500,-55.75,34.0,3.0,84.37,27.875,14.058428,30.31
2021-06-29 11:46:31.234375000,-55.5,34.0,3.0,84.37,24.6,14.058428,30.31
2021-06-29 11:46:31.242187500,-55.25,34.0,3.0,84.37,20.810000000000002,14.058428,30.31
2021-06-29 11:46:31.250000000,-55.0,34.0,3.0,84.37,17.02,14.058428,30.31
2021-06-29 11:46:31.257812500,-55.0,34.0,3.0,84.37,12.94,14.057146906249999,30.31
2021-06-29 11:46:31.265625000,-55.0,34.0,3.0,84.37,8.86,14.055865812499999,30.31
2021-06-29 11:46:31.273437500,-55.0,34.0,3.0,84.37,4.77,14.05458471875,30.31
2021-06-29 11:46:31.281250000,-55.0,34.0,3.0,84.37,0.68,14.053303625,30.31
2021-06-29 11:46:31.289062500,-55.25,34.0,3.0,84.37,-3.13,14.05202253125,30.31
2021-06-29 11:46:31.296875000,-55.5,34.0,3.0,84.37,-6.94,14.0507414375,30.31
2021-06-29 11:46:31.304687500,-55.75,34.0,3.0,84.37,-10.25,14.049460343749999,30.31
2021-06-29 11:46:31.312500000,-56.0,34.0,3.0,84.37,-13.56,14.04817925,30.31
2021-06-29 11:46:31.320312500,-56.0,34.0,3.0,84.37,-16.240000000000002,14.04689815625,30.31
2021-06-29 11:46:31.328125000,-56.0,34.0,3.0,84.37,-18.92,14.0456170625,30.31
2021-06-29 11:46:31.335937500,-56.0,34.0,3.0,84.37,-20.950000000000003,14.04433596875,30.31
2021-06-29 11:46:31.343750000,-56.0,34.0,3.0,84.37,-22.98,14.043054875,30.31
2021-06-29 11:46:31.351562500,-56.0,34.0,3.0,84.37,-24.395,14.041773781249999,30.31
2021-06-29 11:46:31.359375000,-56.0,34.0,3.0,84.37,-25.81,14.0404926875,30.31
2021-06-29 11:46:31.367187500,-56.0,34.0,3.0,84.37,-26.7,14.03921159375,30.31
2021-06-29 11:46:31.375000000,-56.0,34.0,3.0,84.37,-27.59,14.0379305,30.31
2021-06-29 11:46:31.382812500,-55.75,34.0,3.0,84.37,-28.075,14.03664940625,30.31
2021-06-29 11:46:31.390625000,-55.5,34.0,3.0,84.37,-28.56,14.0353683125,30.31
2021-06-29 11:46:31.398437500,-55.25,34.0,3.0,84.37,-28.77,14.03408721875,30.31
2021-06-29 11:46:31.406250000,-55.0,34.0,3.0,84.37,-28.98,14.032806125,30.31
2021-06-29 11:46:31.414062500,-55.0,34.0,3.0,84.37,-29.045,14.03152503125,30.31
2021-06-29 11:46:31.421875000,-55.0,34.0,3.0,84.37,-29.11,14.0302439375,30.31
2021-06-29 11:46:31.429687500,-55.0,34.0,3.0,84.37,-29.145,14.02896284375,30.31
2021-06-29 11:46:31.437500000,-55.0,34.0,3.0,84.37,-29.18,14.02768175,30.31
2021-06-29 11:46:31.445312500,-55.0,34.0,3.0,84.37,-29.25,14.02640065625,30.31
2021-06-29 11:46:31.453125000,-55.0,34.0,3.0,84.37,-29.32,14.0251195625,30.31
2021-06-29 11:46:31.460937500,-55.0,34.0,3.0,84.37,-29.43,14.02383846875,30.31
2021-06-29 11:46:31.468750000,-55.0,34.0,3.0,84.37,-29.54,14.022557375,30.31
2021-06-29 11:46:31.476562500,-55.25,34.0,3.0,84.37,-29.634999999999998,14.02127628125,30.31
2021-06-29 11:46:31.484375000,-55.5,34.0,3.0,84.37,-29.73,14.019995187500001,30.31
2021-06-29 11:46:31.492187500,-55.75,34.0,3.0,84.37,-29.705,14.01871409375,30.31
2021-06-29 11:46:31.500000000,-56.0,34.0,3.0,84.37,-29.68,14.017433,30.31
2021-06-29 11:46:31.507812500,-55.75,34.0,3.0,84.37,-29.45,14.01771325,30.31
2021-06-29 11:46:31.515625000,-55.5,34.0,3.0,84.37,-29.22,14.017993500000001,30.31
2021-06-29 11:46:31.523437500,-55.25,34.0,3.0,84.37,-28.715,14.01827375,30.31
2021-06-29 11:46:31.531250000,-55.0,34.0,3.0,84.37,-28.21,14.018554,30.31
2021-06-29 11:46:31.539062500,-55.0,34.0,3.0,84.37,-27.425,14.018834250000001,30.31
2021-06-29 11:46:31.546875000,-55.0,34.0,3.0,84.37,-26.64,14.0191145,30.31
2021-06-29 11:46:31.554687500,-55.0,34.0,3.0,84.37,-25.62,14.01939475,30.31
2021-06-29 11:46:31.562500000,-55.0,34.0,3.0,84.37,-24.6,14.019675,30.31
2021-06-29 11:46:31.570312500,-55.25,34.0,3.0,84.37,-23.405,14.01995525,30.31
2021-06-29 11:46:31.578125000,-55.5,34.0,3.0,84.37,-22.21,14.0202355,30.31
2021-06-29 11:46:31.585937500,-55.75,34.0,3.0,84.37,-20.94,14.02051575,30.31
2021-06-29 11:46:31.593750000,-56.0,34.0,3.0,84.37,-19.67,14.020796,30.31
2021-06-29 11:46:31.601562500,-56.0,34.0,3.0,84.37,-18.415,14.02107625,30.31
2021-06-29 11:46:31.609375000,-56.0,34.0,3.0,84.37,-17.16,14.0213565,30.31
2021-06-29 11:46:31.617187500,-56.0,34.0,3.0,84.37,-15.98,14.02163675,30.31
2021-06-29 11:46:31.625000000,-56.0,34.0,3.0,84.37,-14.8,14.021917,30.31
2021-06-29 11:46:31.632812500,-55.75,34.0,3.0,84.37,-13.735,14.02219725,30.31
2021-06-29 11:46:31.640625000,-55.5,34.0,3.0,84.37,-12.67,14.0224775,30.31
2021-06-29 11:46:31.648437500,-55.25,34.0,3.0,84.37,-11.725,14.02275775,30.31
2021-06-29 11:46:31.656250000,-55.0,34.0,3.0,84.37,-10.78,14.023038,30.31
2021-06-29 11:46:31.664062500,-55.0,34.0,3.0,84.37,-9.965,14.02331825,30.31
2021-06-29 11:46:31.671875000,-55.0,34.0,3.0,84.37,-9.15,14.0235985,30.31
2021-06-29 11:46:31.679687500,-55.0,34.0,3.0,84.37,-8.455,14.02387875,30.31
2021-06-29 11:46:31.687500000,-55.0,34.0,3.0,84.37,-7.76,14.024159000000001,30.31
2021-06-29 11:46:31.695312500,-55.25,34.0,3.0,84.37,-7.195,14.02443925,30.31
2021-06-29 11:46:31.703125000,-55.5,34.0,3.0,84.37,-6.63,14.0247195,30.31
2021-06-29 11:46:31.710937500,-55.75,34.0,3.0,84.37,-6.1850000000000005,14.02499975,30.31
2021-06-29 11:46:31.718750000,-56.0,34.0,3.0,84.37,-5.74,14.02528,30.31
2021-06-29 11:46:31.726562500,-55.75,34.0,3.0,84.37,-5.405,14.02556025,30.31
2021-06-29 11:46:31.734375000,-55.5,34.0,3.0,84.37,-5.07,14.0258405,30.31
2021-06-29 11:46:31.742187500,-55.25,34.0,3.0,84.37,-4.795,14.02612075,30.31
2021-06-29 11:46:31.750000000,-55.0,34.0,3.0,84.37,-4.52,14.026401,30.31
2021-06-29 11:46:31.757812500,-55.0,34.0,3.0,84.37,-4.245,14.02564034375,30.31
2021-06-29 11:46:31.765625000,-55.0,34.0,3.0,84.37,-3.97,14.0248796875,30.31
2021-06-29 11:46:31.773437500,-55.0,34.0,3.0,84.37,-3.62,14.02411903125,30.31
2021-06-29 11:46:31.781250000,-55.0,34.0,3.0,84.37,-3.27,14.023358375,30.31
2021-06-29 11:46:31.789062500,-55.25,34.0,3.0,84.37,-2.81,14.02259771875,30.31
2021-06-29 11:46:31.796875000,-55.5,34.0,3.0,84.37,-2.35,14.0218370625,30.31
2021-06-29 11:46:31.804687500,-55.75,34.0,3.0,84.37,-1.795,14.02107640625,30.31
2021-06-29 11:46:31.812500000,-56.0,34.0,3.0,84.37,-1.24,14.02031575,30.31
2021-06-29 11:46:31.820312500,-55.75,34.0,3.0,84.37,-0.64,14.01955509375,30.31
2021-06-29 11:46:31.828125000,-55.5,34.0,3.0,84.37,-0.04,14.0187944375,30.31
2021-06-29 11:46:31.835937500,-55.25,34.0,3.0,84.37,0.505,14.01803378125,30.31
2021-06-29 11:46:31.843750000,-55.0,34.0,3.0,84.37,1.05,14.017273125,30.31
2021-06-29 11:46:31.851562500,-55.0,34.0,3.0,84.37,1.46,14.01651246875,30.31
2021-06-29 11:46:31.859375000,-55.0,34.0,3.0,84.37,1.87,14.0157518125,30.31
2021-06-29 11:46:31.867187500,-55.0,34.0,3.0,84.37,2.0949999999999998,14.01499115625,30.31
2021-06-29 11:46:31.875000000,-55.0,34.0,3.0,84.37,2.32,14.0142305,30.31
2021-06-29 11:46:31.882812500,-55.25,34.0,3.0,84.37,2.36,14.01346984375,30.31
2021-06-29 11:46:31.890625000,-55.5,34.0,3.0,84.37,2.4,14.0127091875,30.31
2021-06-29 11:46:31.898437500,-55.75,34.0,3.0,84.37,2.315,14.01194853125,30.31
2021-06-29 11:46:31.906250000,-56.0,34.0,3.0,84.37,2.23,14.011187875000001,30.31
2021-06-29 11:46:31.914062500,-55.75,34.0,3.0,84.37,2.0549999999999997,14.01042721875,30.31
2021-06-29 11:46:31.921875000,-55.5,34.0,3.0,84.37,1.88,14.0096665625,30.31
2021-06-29 11:46:31.929687500,-55.25,34.0,3.0,84.37,1.665,14.00890590625,30.31
2021-06-29 11:46:31.937500000,-55.0,34.0,3.0,84.37,1.45,14.00814525,30.31
2021-06-29 11:46:31.945312500,-55.25,34.0,3.0,84.37,1.2,14.00738459375,30.31
2021-06-29 11:46:31.953125000,-55.5,34.0,3.0,84.37,0.95,14.0066239375,30.31
2021-06-29 11:46:31.960937500,-55.75,34.0,3.0,84.37,0.665,14.00586328125,30.31
2021-06-29 11:46:31.968750000,-56.0,34.0,3.0,84.37,0.38,14.005102625,30.31
2021-06-29 11:46:31.976562500,-55.75,34.0,3.0,84.37,0.06,14.00434196875,30.31
2021-06-29 11:46:31.984375000,-55.5,34.0,3.0,84.37,-0.26,14.0035813125,30.31
2021-06-29 11:46:31.992187500,-55.25,34.0,3.0,84.37,-0.595,14.00282065625,30.31
2021-06-29 11:46:32.000000000,-55.0,34.0,3.0,84.37,-0.93,14.00206,30.31
2021-06-29 11:46:32.007812500,-55.25,34.0,3.0,84.37,-1.28,14.001819781250001,30.311249999999998
2021-06-29 11:46:32.015625000,-55.5,34.0,3.0,84.37,-1.63,14.0015795625,30.3125
2021-06-29 11:46:32.023437500,-55.75,34.0,3.0,84.37,-2.0,14.00133934375,30.31375
2021-06-29 11:46:32.031250000,-56.0,34.0,3.0,84.37,-2.37,14.001099125,30.314999999999998
2021-06-29 11:46:32.039062500,-56.0,34.0,3.0,84.37,-2.755,14.00085890625,30.31625
2021-06-29 11:46:32.046875000,-56.0,34.0,3.0,84.37,-3.14,14.0006186875,30.3175
2021-06-29 11:46:32.054687500,-56.0,34.0,3.0,84.37,-3.56,14.00037846875,30.318749999999998
2021-06-29 11:46:32.062500000,-56.0,34.0,3.0,84.37,-3.98,14.00013825,30.32
2021-06-29 11:46:32.070312500,-56.0,34.0,3.0,84.37,-4.39,13.99989803125,30.32125
2021-06-29 11:46:32.078125000,-56.0,34.0,3.0,84.37,-4.8,13.9996578125,30.322499999999998
2021-06-29 11:46:32.085937500,-56.0,34.0,3.0,84.37,-5.154999999999999,13.99941759375,30.32375
2021-06-29 11:46:32.093750000,-56.0,34.0,3.0,84.37,-5.51,13.999177375,30.325
2021-06-29 11:46:32.101562500,-56.0,34.0,3.0,84.37,-5.77,13.99893715625,30.326249999999998
2021-06-29 11:46:32.109375000,-56.0,34.0,3.0,84.37,-6.03,13.9986969375,30.3275
2021-06-29 11:46:32.117187500,-56.0,34.0,3.0,84.37,-6.1850000000000005,13.998456718749999,30.32875
2021-06-29 11:46:32.125000000,-56.0,34.0,3.0,84.37,-6.34,13.9982165,30.33
2021-06-29 11:46:32.132812500,-55.75,34.0,3.0,84.37,-6.42,13.99797628125,30.33125
2021-06-29 11:46:32.140625000,-55.5,34.0,3.0,84.37,-6.5,13.9977360625,30.3325
2021-06-29 11:46:32.148437500,-55.25,34.0,3.0,84.37,-6.57,13.99749584375,30.333750000000002
2021-06-29 11:46:32.156250000,-55.0,34.0,3.0,84.37,-6.64,13.997255625,30.335
2021-06-29 11:46:32.164062500,-55.0,34.0,3.0,84.37,-6.779999999999999,13.99701540625,30.33625
2021-06-29 11:46:32.171875000,-55.0,34.0,3.0,84.37,-6.92,13.996775187499999,30.337500000000002
2021-06-29 11:46:32.179687500,-55.0,34.0,3.0,84.37,-7.16,13.99653496875,30.33875
2021-06-29 11:46:32.187500000,-55.0,34.0,3.0,84.37,-7.4,13.99629475,30.34
2021-06-29 11:46:32.195312500,-55.25,34.0,3.0,84.37,-7.735,13.99605453125,30.341250000000002
2021-06-29 11:46:32.203125000,-55.5,34.0,3.0,84.37,-8.07,13.9958143125,30.3425
2021-06-29 11:46:32.210937500,-55.75,34.0,3.0,84.37,-8.435,13.99557409375,30.34375
2021-06-29 11:46:32.218750000,-56.0,34.0,3.0,84.37,-8.8,13.995333875,30.345000000000002
2021-06-29 11:46:32.226562500,-55.75,34.0,3.0,84.37,-9.100000000000001,13.995093656249999,30.34625
2021-06-29 11:46:32.234375000,-55.5,34.0,3.0,84.37,-9.4,13.9948534375,30.3475
2021-06-29 11:46:32.242187500,-55.25,34.0,3.0,84.37,-9.56,13.994613218749999,30.348750000000003
2021-06-29 11:46:32.250000000,-55.0,34.0,3.0,84.37,-9.72,13.994373,30.35
2021-06-29 11:46:32.257812500,-55.0,34.0,3.0,84.37,-9.675,13.9940126875,30.35
2021-06-29 11:46:32.265625000,-55.0,34.0,3.0,84.37,-9.63,13.993652375,30.35
2021-06-29 11:46:32.273437500,-55.0,34.0,3.0,84.37,-9.350000000000001,13.9932920625,30.35
2021-06-29 11:46:32.281250000,-55.0,34.0,3.0,84.37,-9.07,13.99293175,30.35
2021-06-29 11:46:32.289062500,-55.25,34.0,3.0,84.37,-8.555,13.9925714375,30.35
2021-06-29 11:46:32.296875000,-55.5,34.0,3.0,84.37,-8.04,13.992211124999999,30.35
2021-06-29 11:46:32.304687500,-55.75,34.0,3.0,84.37,-7.34,13.9918508125,30.35
2021-06-29 11:46:32.312500000,-56.0,34.0,3.0,84.37,-6.64,13.9914905,30.35
2021-06-29 11:46:32.320312500,-56.0,34.0,3.0,84.37,-5.82,13.9911301875,30.35
2021-06-29 11:46:32.328125000,-56.0,34.0,3.0,84.37,-5.0,13.990769875,30.35
2021-06-29 11:46:32.335937500,-56.0,34.0,3.0,84.37,-4.16,13.9904095625,30.35
2021-06-29 11:46:32.343750000,-56.0,34.0,3.0,84.37,-3.32,13.99004925,30.35
2021-06-29 11:46:32.351562500,-55.75,34.0,2.75,84.37,-2.53,13.9896889375,30.35
2021-06-29 11:46:32.359375000,-55.5,34.0,2.5,84.37,-1.74,13.989328625,30.35
2021-06-29 11:46:32.367187500,-55.25,34.0,2.25,84.37,-1.065,13.9889683125,30.35
2021-06-29 11:46:32.375000000,-55.0,34.0,2.0,84.37,-0.39,13.988608,30.35
2021-06-29 11:46:32.382812500,-55.0,34.0,2.25,84.37,0.135,13.9882476875,30.35
2021-06-29 11:46:32.390625000,-55.0,34.0,2.5,84.37,0.66,13.987887375,30.35
2021-06-29 11:46:32.398437500,-55.0,34.0,2.75,84.37,1.025,13.9875270625,30.35
2021-06-29 11:46:32.406250000,-55.0,34.0,3.0,84.37,1.39,13.98716675,30.35
2021-06-29 11:46:32.414062500,-55.25,34.0,3.0,84.37,1.615,13.9868064375,30.35
2021-06-29 11:46:32.421875000,-55.5,34.0,3.0,84.37,1.84,13.986446125,30.35
2021-06-29 11:46:32.429687500,-55.75,34.0,3.0,84.37,1.96,13.9860858125,30.35
2021-06-29 11:46:32.437500000,-56.0,34.0,3.0,84.37,2.08,13.985725500000001,30.35
2021-06-29 11:46:32.445312500,-56.0,34.0,3.0,84.37,2.125,13.985365187500001,30.35
2021-06-29 11:46:32.453125000,-56.0,34.0,3.0,84.37,2.17,13.985004875000001,30.35
2021-06-29 11:46:32.460937500,-56.0,34.0,3.0,84.37,2.19,13.9846445625,30.35
2021-06-29 11:46:32.468750000,-56.0,34.0,3.0,84.37,2.21,13.98428425,30.35
2021-06-29 11:46:32.476562500,-56.0,34.0,3.0,84.37,2.23,13.9839239375,30.35
2021-06-29 11:46:32.484375000,-56.0,34.0,3.0,84.37,2.25,13.983563625,30.35
2021-06-29 11:46:32.492187500,-56.0,34.0,3.0,84.37,2.2800000000000002,13.9832033125,30.35
2021-06-29 11:46:32.500000000,-56.0,34.0,3.0,84.37,2.31,13.982843,30.35
2021-06-29 11:46:32.507812500,-56.0,34.0,3.0,84.37,2.34,13.98324334375,30.35
2021-06-29 11:46:32.515625000,-56.0,34.0,3.0,84.37,2.37,13.9836436875,30.35
2021-06-29 11:46:32.523437500,-56.0,34.0,3.0,84.37,2.4050000000000002,13.98404403125,30.35
2021-06-29 11:46:32.531250000,-56.0,34.0,3.0,84.37,2.44,13.984444375,30.35
2021-06-29 11:46:32.539062500,-56.0,34.0,3.0,84.37,2.4699999999999998,13.98484471875,30.35
2021-06-29 11:46:32.546875000,-56.0,34.0,3.0,84.37,2.5,13.9852450625,30.35
2021-06-29 11:46:32.554687500,-56.0,34.0,3.0,84.37,2.525,13.98564540625,30.35
2021-06-29 11:46:32.562500000,-56.0,34.0,3.0,84.37,2.55,13.98604575,30.35
2021-06-29 11:46:32.570312500,-55.75,34.0,3.0,84.37,2.58,13.98644609375,30.35
2021-06-29 11:46:32.578125000,-55.5,34.0,3.0,84.37,2.61,13.9868464375,30.35
2021-06-29 11:46:32.585937500,-55.25,34.0,3.0,84.37,2.635,13.98724678125,30.35
2021-06-29 11:46:32.593750000,-55.0,34.0,3.0,84.37,2.66,13.987647125,30.35
2021-06-29 11:46:32.601562500,-55.0,34.0,3.0,84.37,2.68,13.98804746875,30.35
2021-06-29 11:46:32.609375000,-55.0,34.0,3.0,84.37,2.7,13.9884478125,30.35
2021-06-29 11:46:32.617187500,-55.0,34.0,3.0,84.37,2.7,13.98884815625,30.35
2021-06-29 11:46:32.625000000,-55.0,34.0,3.0,84.37,2.7,13.9892485,30.35
2021-06-29 11:46:32.632812500,-55.25,34.0,3.0,84.37,2.6900000000000004,13.98964884375,30.35
2021-06-29 11:46:32.640625000,-55.5,34.0,3.0,84.37,2.68,13.9900491875,30.35
2021-06-29 11:46:32.648437500,-55.75,34.0,3.0,84.37,2.6900000000000004,13.99044953125,30.35
2021-06-29 11:46:32.656250000,-56.0,34.0,3.0,84.37,2.7,13.990849875,30.35
2021-06-29 11:46:32.664062500,-55.75,34.0,3.0,84.37,2.74,13.99125021875,30.35
2021-06-29 11:46:32.671875000,-55.5,34.0,3.0,84.37,2.78,13.9916505625,30.35
2021-06-29 11:46:32.679687500,-55.25,34.0,3.0,84.37,2.83,13.99205090625,30.35
2021-06-29 11:46:32.687500000,-55.0,34.0,3.0,84.37,2.88,13.99245125,30.35
2021-06-29 11:46:32.695312500,-55.0,34.0,3.0,84.37,2.895,13.99285159375,30.35
2021-06-29 11:46:32.703125000,-55.0,34.0,3.0,84.37,2.91,13.9932519375,30.35
2021-06-29 11:46:32.710937500,-55.0,34.0,3.0,84.37,2.81,13.99365228125,30.35
2021-06-29 11:46:32.718750000,-55.0,34.0,3.0,84.37,2.71,13.994052625,30.35
2021-06-29 11:46:32.726562500,-55.25,34.0,3.0,84.37,2.44,13.99445296875,30.35
2021-06-29 11:46:32.734375000,-55.5,34.0,3.0,84.37,2.17,13.9948533125,30.35
2021-06-29 11:46:32.742187500,-55.75,34.0,3.0,84.37,1.7349999999999999,13.99525365625,30.35
2021-06-29 11:46:32.750000000,-56.0,34.0,3.0,84.37,1.3,13.995654,30.35
2021-06-29 11:46:32.757812500,-56.0,34.0,3.0,84.37,0.755,13.99537378125,30.35
2021-06-29 11:46:32.765625000,-56.0,34.0,3.0,84.37,0.21,13.9950935625,30.35
2021-06-29 11:46:32.773437500,-56.0,34.0,3.0,84.37,-0.3400000000000001,13.99481334375,30.35
2021-06-29 11:46:32.781250000,-56.0,34.0,3.0,84.37,-0.89,13.994533125,30.35
2021-06-29 11:46:32.789062500,-55.75,34.0,3.0,84.37,-1.355,13.99425290625,30.35
2021-06-29 11:46:32.796875000,-55.5,34.0,3.0,84.37,-1.82,13.9939726875,30.35
2021-06-29 11:46:32.804687500,-55.25,34.0,3.0,84.37,-2.165,13.99369246875,30.35
2021-06-29 11:46:32.812500000,-55.0,34.0,3.0,84.37,-2.51,13.99341225,30.35
2021-06-29 11:46:32.820312500,-55.25,34.0,3.0,84.37,-2.74,13.99313203125,30.35
2021-06-29 11:46:32.828125000,-55.5,34.0,3.0,84.37,-2.97,13.9928518125,30.35
2021-06-29 11:46:32.835937500,-55.75,34.0,3.0,84.37,-3.125,13.99257159375,30.35
2021-06-29 11:46:32.843750000,-56.0,34.0,3.0,84.37,-3.28,13.992291375,30.35
2021-06-29 11:46:32.851562500,-55.75,34.0,3.0,84.37,-3.425,13.99201115625,30.35
2021-06-29 11:46:32.859375000,-55.5,34.0,3.0,84.37,-3.57,13.9917309375,30.35
2021-06-29 11:46:32.867187500,-55.25,34.0,3.0,84.37,-3.73,13.99145071875,30.35
2021-06-29 11:46:32.875000000,-55.0,34.0,3.0,84.37,-3.89,13.991170499999999,30.35
2021-06-29 11:46:32.882812500,-55.25,34.0,3.0,84.37,-4.075,13.99089028125,30.35
2021-06-29 11:46:32.890625000,-55.5,34.0,3.0,84.37,-4.26,13.9906100625,30.35
2021-06-29 11:46:32.898437500,-55.75,34.0,3.0,84.37,-4.46,13.99032984375,30.35
2021-06-29 11:46:32.906250000,-56.0,34.0,3.0,84.37,-4.66,13.990049625,30.35
2021-06-29 11:46:32.914062500,-56.0,34.0,3.0,84.37,-4.859999999999999,13.98976940625,30.35
2021-06-29 11:46:32.921875000,-56.0,34.0,3.0,84.37,-5.06,13.9894891875,30.35
2021-06-29 11:46:32.929687500,-56.0,34.0,3.0,84.37,-5.234999999999999,13.98920896875,30.35
2021-06-29 11:46:32.937500000,-56.0,34.0,3.0,84.37,-5.41,13.98892875,30.35
2021-06-29 11:46:32.945312500,-56.0,34.0,2.75,84.37,-5.5649999999999995,13.98864853125,30.35
2021-06-29 11:46:32.953125000,-56.0,34.0,2.5,84.37,-5.72,13.9883683125,30.35
2021-06-29 11:46:32.960937500,-56.0,34.0,2.25,84.37,-5.8149999999999995,13.98808809375,30.35
2021-06-29 11:46:32.968750000,-56.0,34.0,2.0,84.37,-5.91,13.987807875,30.35
2021-06-29 11:46:32.976562500,-56.0,34.0,2.0,84.37,-5.890000000000001,13.98752765625,30.35
2021-06-29 11:46:32.984375000,-56.0,34.0,2.0,84.37,-5.87,13.9872474375,30.35
2021-06-29 11:46:32.992187500,-56.0,34.0,2.0,84.37,-5.6899999999999995,13.98696721875,30.35
2021-06-29 11:46:33.000000000,-56.0,34.0,2.0,84.37,-5.51,13.986687,30.35
2021-06-29 11:46:33.007812500,-55.75,34.0,2.0,84.370390625,-5.14,13.98680709375,30.35
2021-06-29 11:46:33.015625000,-55.5,34.0,2.0,84.37078125000001,-4.77,13.9869271875,30.35
2021-06-29 11:46:33.023437500,-55.25,34.0,2.0,84.371171875,-4.245,13.98704728125,30.35
2021-06-29 11:46:33.031250000,-55.0,34.0,2.0,84.37156250000001,-3.72,13.987167375,30.35
2021-06-29 11:46:33.039062500,-55.25,34.0,2.25,84.371953125,-3.12,13.987287468749999,30.35
2021-06-29 11:46:33.046875000,-55.5,34.0,2.5,84.37234375,-2.52,13.9874075625,30.35
2021-06-29 11:46:33.054687500,-55.75,34.0,2.75,84.37273437500001,-1.925,13.98752765625,30.35
2021-06-29 11:46:33.062500000,-56.0,34.0,3.0,84.373125,-1.33,13.98764775,30.35
2021-06-29 11:46:33.070312500,-55.75,34.0,3.0,84.37351562500001,-0.79,13.98776784375,30.35
2021-06-29 11:46:33.078125000,-55.5,34.0,3.0,84.37390625,-0.25,13.9878879375,30.35
2021-06-29 11:46:33.085937500,-55.25,34.0,3.0,84.374296875,0.24,13.98800803125,30.35
2021-06-29 11:46:33.093750000,-55.0,34.0,3.0,84.37468750000001,0.73,13.988128125,30.35
2021-06-29 11:46:33.101562500,-55.25,34.0,3.0,84.375078125,1.24,13.98824821875,30.35
2021-06-29 11:46:33.109375000,-55.5,34.0,3.0,84.37546875000001,1.75,13.9883683125,30.35
2021-06-29 11:46:33.117187500,-55.75,34.0,3.0,84.375859375,2.35,13.98848840625,30.35
2021-06-29 11:46:33.125000000,-56.0,34.0,3.0,84.37625,2.95,13.9886085,30.35
2021-06-29 11:46:33.132812500,-56.0,34.0,3.0,84.37664062500001,3.64,13.98872859375,30.35
2021-06-29 11:46:33.140625000,-56.0,34.0,3.0,84.37703125,4.33,13.988848687499999,30.35
2021-06-29 11:46:33.148437500,-56.0,34.0,3.0,84.37742187500001,5.045,13.98896878125,30.35
2021-06-29 11:46:33.156250000,-56.0,34.0,3.0,84.3778125,5.76,13.989088875,30.35
2021-06-29 11:46:33.164062500,-55.75,34.0,2.75,84.378203125,6.38,13.989208968749999,30.35
2021-06-29 11:46:33.171875000,-55.5,34.0,2.5,84.37859375000001,7.0,13.9893290625,30.35
2021-06-29 11:46:33.179687500,-55.25,34.0,2.25,84.378984375,7.404999999999999,13.98944915625,30.35
2021-06-29 11:46:33.187500000,-55.0,34.0,2.0,84.37937500000001,7.81,13.989569249999999,30.35
2021-06-29 11:46:33.195312500,-55.25,34.0,2.25,84.379765625,7.955,13.98968934375,30.35
2021-06-29 11:46:33.203125000,-55.5,34.0,2.5,84.38015625,8.1,13.9898094375,30.35
2021-06-29 11:46:33.210937500,-55.75,34.0,2.75,84.38054687500001,8.04,13.98992953125,30.35
2021-06-29 11:46:33.218750000,-56.0,34.0,3.0,84.3809375,7.98,13.990049625,30.35
2021-06-29 11:46:33.226562500,-56.0,34.0,3.0,84.38132812500001,7.835000000000001,13.99016971875,30.35
2021-06-29 11:46:33.234375000,-56.0,34.0,3.0,84.38171875,7.69,13.9902898125,30.35
2021-06-29 11:46:33.242187500,-56.0,34.0,3.0,84.382109375,7.57,13.99040990625,30.35
2021-06-29 11:46:33.250000000,-56.0,34.0,3.0,84.38250000000001,7.45,13.99053,30.35
2021-06-29 11:46:33.257812500,-56.0,34.0,3.0,84.382890625,7.405,13.99024975,30.35
2021-06-29 11:46:33.265625000,-56.0,34.0,3.0,84.38328125000001,7.36,13.989969499999999,30.35
2021-06-29 11:46:33.273437500,-56.0,34.0,3.0,84.383671875,7.355,13.98968925,30.35
2021-06-29 11:46:33.281250000,-56.0,34.0,3.0,84.3840625,7.35,13.989409,30.35
2021-06-29 11:46:33.289062500,-56.0,34.0,3.0,84.38445312500001,7.3149999999999995,13.989128749999999,30.35
2021-06-29 11:46:33.296875000,-56.0,34.0,3.0,84.38484375,7.28,13.9888485,30.35
2021-06-29 11:46:33.304687500,-56.0,34.0,3.0,84.38523437500001,7.165,13.98856825,30.35
2021-06-29 11:46:33.312500000,-56.0,34.0,3.0,84.385625,7.05,13.988288,30.35
2021-06-29 11:46:33.320312500,-55.75,34.0,3.0,84.386015625,6.85,13.98800775,30.35
2021-06-29 11:46:33.328125000,-55.5,34.0,3.0,84.38640625000001,6.65,13.9877275,30.35
2021-06-29 11:46:33.335937500,-55.25,34.0,3.0,84.386796875,6.4,13.98744725,30.35
2021-06-29 11:46:33.343750000,-55.0,34.0,3.0,84.38718750000001,6.15,13.987167,30.35
2021-06-29 11:46:33.351562500,-55.0,34.0,2.75,84.387578125,5.915,13.98688675,30.35
2021-06-29 11:46:33.359375000,-55.0,34.0,2.5,84.38796875,5.68,13.9866065,30.35
2021-06-29 11:46:33.367187500,-55.0,34.0,2.25,84.38835937500001,5.48,13.98632625,30.35
2021-06-29 11:46:33.375000000,-55.0,34.0,2.0,84.38875,5.28,13.986046,30.35
2021-06-29 11:46:33.382812500,-55.25,34.0,2.0,84.38914062500001,5.12,13.98576575,30.35
2021-06-29 11:46:33.390625000,-55.5,34.0,2.0,84.38953125,4.96,13.9854855,30.35
2021-06-29 11:46:33.398437500,-55.75,34.0,2.0,84.389921875,4.795,13.98520525,30.35
2021-06-29 11:46:33.406250000,-56.0,34.0,2.0,84.39031250000001,4.63,13.984925,30.35
2021-06-29 11:46:33.414062500,-55.75,34.0,2.0,84.390703125,4.449999999999999,13.98464475,30.35
2021-06-29 11:46:33.421875000,-55.5,34.0,2.0,84.39109375000001,4.27,13.9843645,30.35
2021-06-29 11:46:33.429687500,-55.25,34.0,2.0,84.391484375,4.0649999999999995,13.98408425,30.35
2021-06-29 11:46:33.437500000,-55.0,34.0,2.0,84.391875,3.86,13.983804,30.35
2021-06-29 11:46:33.445312500,-55.25,34.0,2.25,84.39226562500001,3.65,13.98352375,30.35
2021-06-29 11:46:33.453125000,-55.5,34.0,2.5,84.39265625,3.44,13.9832435,30.35
2021-06-29 11:46:33.460937500,-55.75,34.0,2.75,84.39304687500001,3.2649999999999997,13.982963250000001,30.35
2021-06-29 11:46:33.468750000,-56.0,34.0,3.0,84.3934375,3.09,13.982683,30.35
2021-06-29 11:46:33.476562500,-56.0,34.0,3.0,84.393828125,2.9749999999999996,13.98240275,30.35
2021-06-29 11:46:33.484375000,-56.0,34.0,3.0,84.39421875000001,2.86,13.982122500000001,30.35
2021-06-29 11:46:33.492187500,-56.0,34.0,3.0,84.394609375,2.82,13.98184225,30.35
2021-06-29 11:46:33.500000000,-56.0,34.0,3.0,84.39500000000001,2.78,13.981562,30.35
2021-06-29 11:46:33.507812500,-56.0,34.0,2.75,84.395390625,2.8049999999999997,13.98152196875,30.35
2021-06-29 11:46:33.515625000,-56.0,34.0,2.5,84.39578125,2.83,13.9814819375,30.35
2021-06-29 11:46:33.523437500,-56.0,34.0,2.25,84.39617187500001,2.8600000000000003,13.98144190625,30.35
2021-06-29 11:46:33.531250000,-56.0,34.0,2.0,84.3965625,2.89,13.981401875,30.35
2021-06-29 11:46:33.539062500,-56.0,34.0,2.0,84.396953125,2.85,13.98136184375,30.35
2021-06-29 11:46:33.546875000,-56.0,34.0,2.0,84.39734375,2.81,13.981321812500001,30.35
2021-06-29 11:46:33.554687500,-56.0,34.0,2.0,84.397734375,2.63,13.98128178125,30.35
2021-06-29 11:46:33.562500000,-56.0,34.0,2.0,84.39812500000001,2.45,13.98124175,30.35
2021-06-29 11:46:33.570312500,-56.0,34.0,2.0,84.398515625,2.095,13.98120171875,30.35
2021-06-29 11:46:33.578125000,-56.0,34.0,2.0,84.39890625,1.74,13.9811616875,30.35
2021-06-29 11:46:33.585937500,-56.0,34.0,2.0,84.399296875,1.245,13.98112165625,30.35
2021-06-29 11:46:33.593750000,-56.0,34.0,2.0,84.3996875,0.75,13.981081625,30.35
2021-06-29 11:46:33.601562500,-56.0,34.0,2.0,84.40007812500001,0.19999999999999996,13.98104159375,30.35
2021-06-29 11:46:33.609375000,-56.0,34.0,2.0,84.40046875,-0.35,13.9810015625,30.35
2021-06-29 11:46:33.617187500,-56.0,34.0,2.0,84.400859375,-0.88,13.98096153125,30.35
2021-06-29 11:46:33.625000000,-56.0,34.0,2.0,84.40125,-1.41,13.980921500000001,30.35
2021-06-29 11:46:33.632812500,-55.75,34.0,2.25,84.401640625,-1.8849999999999998,13.98088146875,30.35
2021-06-29 11:46:33.640625000,-55.5,34.0,2.5,84.40203125000001,-2.36,13.9808414375,30.35
2021-06-29 11:46:33.648437500,-55.25,34.0,2.75,84.402421875,-2.825,13.98080140625,30.35
2021-06-29 11:46:33.656250000,-55.0,34.0,3.0,84.4028125,-3.29,13.980761375,30.35
2021-06-29 11:46:33.664062500,-55.25,34.0,2.75,84.403203125,-3.83,13.98072134375,30.35
2021-06-29 11:46:33.671875000,-55.5,34.0,2.5,84.40359375,-4.37,13.9806813125,30.35
2021-06-29 11:46:33.679687500,-55.75,34.0,2.25,84.40398437500001,-5.025,13.98064128125,30.35
2021-06-29 11:46:33.687500000,-56.0,34.0,2.0,84.404375,-5.68,13.98060125,30.35
2021-06-29 11:46:33.695312500,-56.0,34.0,2.0,84.404765625,-6.445,13.98056121875,30.35
2021-06-29 11:46:33.703125000,-56.0,34.0,2.0,84.40515625,-7.21,13.980521187499999,30.35
2021-06-29 11:46:33.710937500,-56.0,34.0,2.0,84.405546875,-7.975,13.98048115625,30.35
2021-06-29 11:46:33.718750000,-56.0,34.0,2.0,84.40593750000001,-8.74,13.980441125,30.35
2021-06-29 11:46:33.726562500,-56.0,34.0,2.0,84.406328125,-9.344999999999999,13.98040109375,30.35
2021-06-29 11:46:33.734375000,-56.0,34.0,2.0,84.40671875,-9.95,13.9803610625,30.35
2021-06-29 11:46:33.742187500,-56.0,34.0,2.0,84.407109375,-10.29,13.98032103125,30.35
2021-06-29 11:46:33.750000000,-56.0,34.0,2.0,84.4075,-10.63,13.980281,30.35
2021-06-29 11:46:33.757812500,-56.0,34.0,2.0,84.40789062500001,-10.65,13.9799206875,30.35
2021-06-29 11:46:33.765625000,-56.0,34.0,2.0,84.40828125,-10.67,13.979560375,30.35
2021-06-29 11:46:33.773437500,-56.0,34.0,2.0,84.408671875,-10.385,13.9792000625,30.35
2021-06-29 11:46:33.781250000,-56.0,34.0,2.0,84.4090625,-10.1,13.978839749999999,30.35
2021-06-29 11:46:33.789062500,-56.0,34.0,2.0,84.409453125,-9.585,13.978479437499999,30.35
2021-06-29 11:46:33.796875000,-56.0,34.0,2.0,84.40984375000001,-9.07,13.978119125,30.35
2021-06-29 11:46:33.804687500,-56.0,34.0,2.0,84.410234375,-8.38,13.9777588125,30.35
2021-06-29 11:46:33.812500000,-56.0,34.0,2.0,84.410625,-7.69,13.9773985,30.35
2021-06-29 11:46:33.820312500,-56.0,34.0,2.0,84.411015625,-6.87,13.9770381875,30.35
2021-06-29 11:46:33.828125000,-56.0,34.0,2.0,84.41140625,-6.05,13.976677875,30.35
2021-06-29 11:46:33.835937500,-56.0,34.0,2.0,84.41179687500001,-5.154999999999999,13.9763175625,30.35
2021-06-29 11:46:33.843750000,-56.0,34.0,2.0,84.4121875,-4.26,13.97595725,30.35
2021-06-29 11:46:33.851562500,-56.0,34.0,2.0,84.412578125,-3.36,13.975596937499999,30.35
2021-06-29 11:46:33.859375000,-56.0,34.0,2.0,84.41296875,-2.46,13.975236624999999,30.35
2021-06-29 11:46:33.867187500,-56.0,34.0,2.0,84.413359375,-1.615,13.9748763125,30.35
2021-06-29 11:46:33.875000000,-56.0,34.0,2.0,84.41375000000001,-0.77,13.974516,30.35
2021-06-29 11:46:33.882812500,-55.75,34.0,2.0,84.414140625,-0.050000000000000044,13.9741556875,30.35
2021-06-29 11:46:33.890625000,-55.5,34.0,2.0,84.41453125,0.67,13.973795375,30.35
2021-06-29 11:46:33.898437500,-55.25,34.0,2.0,84.414921875,1.2400000000000002,13.9734350625,30.35
2021-06-29 11:46:33.906250000,-55.0,34.0,2.0,84.4153125,1.81,13.973074749999999,30.35
2021-06-29 11:46:33.914062500,-55.0,34.0,2.0,84.41570312500001,2.25,13.972714437499999,30.35
2021-06-29 11:46:33.921875000,-55.0,34.0,2.0,84.41609375,2.69,13.972354124999999,30.35
2021-06-29 11:46:33.929687500,-55.0,34.0,2.0,84.416484375,3.04,13.9719938125,30.35
2021-06-29 11:46:33.937500000,-55.0,34.0,2.0,84.416875,3.39,13.9716335,30.35
2021-06-29 11:46:33.945312500,-55.0,34.0,2.0,84.417265625,3.675,13.9712731875,30.35
2021-06-29 11:46:33.953125000,-55.0,34.0,2.0,84.41765625000001,3.96,13.970912875,30.35
2021-06-29 11:46:33.960937500,-55.0,34.0,2.0,84.418046875,4.18,13.9705525625,30.35
2021-06-29 11:46:33.968750000,-55.0,34.0,2.0,84.4184375,4.4,13.97019225,30.35
2021-06-29 11:46:33.976562500,-55.0,34.0,2.0,84.418828125,4.53,13.969831937499999,30.35
2021-06-29 11:46:33.984375000,-55.0,34.0,2.0,84.41921875,4.66,13.969471624999999,30.35
2021-06-29 11:46:33.992187500,-55.0,34.0,2.0,84.41960937500001,4.6899999999999995,13.969111312499999,30.35
