TimeStamp,empatica.acc.x,empatica.acc.y,empatica.acc.z,empatica.hr,empatica.bvp,empatica.eda,empatica.temp
2021-06-23 16:34:30.265625000,-36.0,5.0,53.0,82.2965625,-70.71,0.68049,30.93
2021-06-23 16:34:30.273437500,-36.0,5.0,53.0,82.29734375,-69.095,0.68049,30.93
2021-06-23 16:34:30.281250000,-36.0,5.0,53.0,82.298125,-67.48,0.68049,30.93
2021-06-23 16:34:30.289062500,-36.0,5.0,53.0,82.29890625,-63.325,0.68049,30.93
2021-06-23 16:34:30.296875000,-36.0,5.0,53.0,82.2996875,-59.17,0.68049,30.93
2021-06-23 16:34:30.304687500,-36.0,5.0,53.0,82.30046875,-53.2,0.68049,30.93
2021-06-23 16:34:30.312500000,-36.0,5.0,53.0,82.30125,-47.23,0.68049,30.93
2021-06-23 16:34:30.320312500,-36.0,5.0,53.0,82.30203125,-40.51,0.68049,30.93
2021-06-23 16:34:30.328125000,-36.0,5.0,53.0,82.3028125,-33.79,0.68049,30.93
2021-06-23 16:34:30.335937500,-36.0,5.0,53.0,82.30359375,-27.32,0.68049,30.93
2021-06-23 16:34:30.343750000,-36.0,5.0,53.0,82.304375,-20.85,0.68049,30.93
2021-06-23 16:34:30.351562500,-36.0,5.0,53.0,82.30515625,-15.215,0.68049,30.93
2021-06-23 16:34:30.359375000,-36.0,5.0,53.0,82.3059375,-9.58,0.68049,30.93
2021-06-23 16:34:30.367187500,-36.0,5.0,53.0,82.30671875,-4.85,0.68049,30.93
2021-06-23 16:34:30.375000000,-36.0,5.0,53.0,82.3075,-0.12,0.68049,30.93
2021-06-23 16:34:30.382812500,-36.0,5.0,53.0,82.30828125,3.9849999999999994,0.68049,30.93
2021-06-23 16:34:30.390625000,-36.0,5.0,53.0,82.3090625,8.09,0.68049,30.93
2021-06-23 16:34:30.398437500,-36.0,5.0,53.0,82.30984375,11.875,0.68049,30.93
2021-06-23 16:34:30.406250000,-36.0,5.0,53.0,82.310625,15.66,0.68049,30.93
2021-06-23 16:34:30.414062500,-36.0,5.0,53.0,82.31140625,19.21,0.68049,30.93
2021-06-23 16:34:30.421875000,-36.0,5.0,53.0,82.3121875,22.76,0.68049,30.93
2021-06-23 16:34:30.429687500,-36.0,5.0,53.0,82.31296875,25.895000000000003,0.68049,30.93
2021-06-23 16:34:30.437500000,-36.0,5.0,53.0,82.31375,29.03,0.68049,30.93
2021-06-23 16:34:30.445312500,-36.0,5.0,53.0,82.31453125,31.425,0.68049,30.93
2021-06-23 16:34:30.453125000,-36.0,5.0,53.0,82.3153125,33.82,0.68049,30.93
2021-06-23 16:34:30.460937500,-36.0,5.0,53.0,82.31609375,35.305,0.68049,30.93
2021-06-23 16:34:30.468750000,-36.0,5.0,53.0,82.316875,36.79,0.68049,30.93
2021-06-23 16:34:30.476562500,-36.25,5.0,53.0,82.31765625,37.44,0.68049,30.93
2021-06-23 16:34:30.484375000,-36.5,5.0,53.0,82.3184375,38.09,0.68049,30.93
2021-06-23 16:34:30.492187500,-36.75,5.0,53.0,82.31921875,38.230000000000004,0.68049,30.93
2021-06-23 16:34:30.500000000,-37.0,5.0,53.0,82.32,38.37,0.68049,30.93
2021-06-23 16:34:30.507812500,-37.0,5.0,53.0,82.32078125,38.43,0.6804099375,30.93
2021-06-23 16:34:30.515625000,-37.0,5.0,53.0,82.3215625,38.49,0.6803298750000001,30.93
2021-06-23 16:34:30.523437500,-37.0,5.0,53.0,82.32234375,38.78,0.6802498125,30.93
2021-06-23 16:34:30.531250000,-37.0,5.0,53.0,82.323125,39.07,0.68016975,30.93
2021-06-23 16:34:30.539062500,-36.75,5.0,53.0,82.32390625000001,39.67,0.6800896875,30.93
2021-06-23 16:34:30.546875000,-36.5,5.0,53.0,82.3246875,40.27,0.6800096250000001,30.93
2021-06-23 16:34:30.554687500,-36.25,5.0,53.0,82.32546875,41.065,0.6799295625,30.93
2021-06-23 16:34:30.562500000,-36.0,5.0,53.0,82.32625,41.86,0.6798495,30.93
2021-06-23 16:34:30.570312500,-36.0,5.0,53.0,82.32703125,42.614999999999995,0.6797694375000001,30.93
2021-06-23 16:34:30.578125000,-36.0,5.0,53.0,82.32781250000001,43.37,0.679689375,30.93
2021-06-23 16:34:30.585937500,-36.0,5.0,53.0,82.32859375,43.864999999999995,0.6796093125,30.93
2021-06-23 16:34:30.593750000,-36.0,5.0,53.0,82.329375,44.36,0.67952925,30.93
2021-06-23 16:34:30.601562500,-36.0,5.0,53.0,82.33015625,44.475,0.6794491875,30.93
2021-06-23 16:34:30.609375000,-36.0,5.0,53.0,82.3309375,44.59,0.679369125,30.93
2021-06-23 16:34:30.617187500,-36.0,5.0,53.0,82.33171875000001,44.365,0.6792890625,30.93
2021-06-23 16:34:30.625000000,-36.0,5.0,53.0,82.3325,44.14,0.679209,30.93
2021-06-23 16:34:30.632812500,-36.0,5.0,53.0,82.33328125,43.675,0.6791289375,30.93
2021-06-23 16:34:30.640625000,-36.0,5.0,53.0,82.3340625,43.21,0.679048875,30.93
2021-06-23 16:34:30.648437500,-36.0,5.0,53.0,82.33484375,42.620000000000005,0.6789688125,30.93
2021-06-23 16:34:30.656250000,-36.0,5.0,53.0,82.33562500000001,42.03,0.67888875,30.93
2021-06-23 16:34:30.664062500,-36.0,5.0,53.0,82.33640625,41.345,0.6788086875,30.93
2021-06-23 16:34:30.671875000,-36.0,5.0,53.0,82.3371875,40.66,0.678728625,30.93
2021-06-23 16:34:30.679687500,-36.0,5.0,53.0,82.33796875,39.81999999999999,0.6786485624999999,30.93
2021-06-23 16:34:30.687500000,-36.0,5.0,53.0,82.33875,38.98,0.6785685,30.93
2021-06-23 16:34:30.695312500,-36.0,5.0,53.0,82.33953125000001,37.86,0.6784884375,30.93
2021-06-23 16:34:30.703125000,-36.0,5.0,53.0,82.3403125,36.74,0.678408375,30.93
2021-06-23 16:34:30.710937500,-36.0,5.0,53.0,82.34109375,35.21,0.6783283125,30.93
2021-06-23 16:34:30.718750000,-36.0,5.0,53.0,82.341875,33.68,0.67824825,30.93
2021-06-23 16:34:30.726562500,-36.0,5.0,53.0,82.34265625,31.689999999999998,0.6781681875,30.93
2021-06-23 16:34:30.734375000,-36.0,5.0,53.0,82.34343750000001,29.7,0.6780881249999999,30.93
2021-06-23 16:34:30.742187500,-36.0,5.0,53.0,82.34421875,27.314999999999998,0.6780080625,30.93
2021-06-23 16:34:30.750000000,-36.0,5.0,53.0,82.345,24.93,0.677928,30.93
2021-06-23 16:34:30.757812500,-36.0,5.0,53.0,82.34578125,22.305,0.6779680312499999,30.93
2021-06-23 16:34:30.765625000,-36.0,5.0,53.0,82.3465625,19.68,0.6780080625,30.93
2021-06-23 16:34:30.773437500,-36.0,5.0,53.0,82.34734375000001,17.005,0.67804809375,30.93
2021-06-23 16:34:30.781250000,-36.0,5.0,53.0,82.348125,14.33,0.6780881249999999,30.93
2021-06-23 16:34:30.789062500,-36.0,5.0,53.0,82.34890625,11.775,0.67812815625,30.93
2021-06-23 16:34:30.796875000,-36.0,5.0,53.0,82.3496875,9.22,0.6781681875,30.93
2021-06-23 16:34:30.804687500,-36.0,5.0,53.0,82.35046875,6.865,0.6782082187499999,30.93
2021-06-23 16:34:30.812500000,-36.0,5.0,53.0,82.35125000000001,4.51,0.67824825,30.93
2021-06-23 16:34:30.820312500,-36.0,5.0,53.0,82.35203125,2.355,0.67828828125,30.93
2021-06-23 16:34:30.828125000,-36.0,5.0,53.0,82.3528125,0.2,0.6783283124999999,30.93
2021-06-23 16:34:30.835937500,-36.0,5.0,53.0,82.35359375,-1.805,0.67836834375,30.93
2021-06-23 16:34:30.843750000,-36.0,5.0,53.0,82.354375,-3.81,0.678408375,30.93
2021-06-23 16:34:30.851562500,-36.0,5.0,53.0,82.35515625000001,-5.74,0.6784484062499999,30.93
2021-06-23 16:34:30.859375000,-36.0,5.0,53.0,82.35593750000001,-7.67,0.6784884375,30.93
2021-06-23 16:34:30.867187500,-36.0,5.0,53.0,82.35671875,-9.620000000000001,0.67852846875,30.93
2021-06-23 16:34:30.875000000,-36.0,5.0,53.0,82.3575,-11.57,0.6785684999999999,30.93
2021-06-23 16:34:30.882812500,-36.0,5.0,53.0,82.35828125,-13.620000000000001,0.67860853125,30.93
2021-06-23 16:34:30.890625000,-36.0,5.0,53.0,82.35906250000001,-15.67,0.6786485624999999,30.93
2021-06-23 16:34:30.898437500,-36.0,5.0,53.0,82.35984375000001,-17.95,0.67868859375,30.93
2021-06-23 16:34:30.906250000,-36.0,5.0,53.0,82.360625,-20.23,0.678728625,30.93
2021-06-23 16:34:30.914062500,-36.0,5.0,53.0,82.36140625,-22.884999999999998,0.6787686562499999,30.93
2021-06-23 16:34:30.921875000,-36.0,5.0,53.0,82.3621875,-25.54,0.6788086875,30.93
2021-06-23 16:34:30.929687500,-36.0,5.0,53.0,82.36296875000001,-28.68,0.67884871875,30.93
2021-06-23 16:34:30.937500000,-36.0,5.0,53.0,82.36375000000001,-31.82,0.6788887499999999,30.93
2021-06-23 16:34:30.945312500,-36.0,5.0,53.0,82.36453125,-35.44,0.67892878125,30.93
2021-06-23 16:34:30.953125000,-36.0,5.0,53.0,82.3653125,-39.06,0.6789688125,30.93
2021-06-23 16:34:30.960937500,-36.0,5.0,53.0,82.36609375,-42.955,0.6790088437499999,30.93
2021-06-23 16:34:30.968750000,-36.0,5.0,53.0,82.36687500000001,-46.85,0.679048875,30.93
2021-06-23 16:34:30.976562500,-36.0,5.0,53.0,82.36765625000001,-50.555,0.67908890625,30.93
2021-06-23 16:34:30.984375000,-36.0,5.0,53.0,82.3684375,-54.26,0.6791289374999999,30.93
2021-06-23 16:34:30.992187500,-36.0,5.0,53.0,82.36921875,-57.144999999999996,0.67916896875,30.93
2021-06-23 16:34:31.000000000,-36.0,5.0,53.0,82.37,-60.03,0.679209,30.93
2021-06-23 16:34:31.007812500,-36.0,5.0,53.0,82.37085937500001,-61.425,0.6791289374999999,30.929375
2021-06-23 16:34:31.015625000,-36.0,5.0,53.0,82.37171875,-62.82,0.679048875,30.92875
2021-06-23 16:34:31.023437500,-36.0,5.0,53.0,82.372578125,-62.245000000000005,0.6789688125,30.928125
2021-06-23 16:34:31.031250000,-36.0,5.0,53.0,82.37343750000001,-61.67,0.6788887499999999,30.9275
2021-06-23 16:34:31.039062500,-36.0,5.0,53.0,82.374296875,-58.985,0.6788086875,30.926875
2021-06-23 16:34:31.046875000,-36.0,5.0,53.0,82.37515625,-56.3,0.678728625,30.92625
2021-06-23 16:34:31.054687500,-36.0,5.0,53.0,82.37601562500001,-51.795,0.6786485624999999,30.925625
2021-06-23 16:34:31.062500000,-36.0,5.0,53.0,82.376875,-47.29,0.6785684999999999,30.925
2021-06-23 16:34:31.070312500,-36.0,5.0,53.0,82.377734375,-41.59,0.6784884375,30.924375
2021-06-23 16:34:31.078125000,-36.0,5.0,53.0,82.37859375000001,-35.89,0.678408375,30.92375
2021-06-23 16:34:31.085937500,-36.0,5.0,53.0,82.379453125,-29.740000000000002,0.6783283124999999,30.923125
2021-06-23 16:34:31.093750000,-36.0,5.0,53.0,82.3803125,-23.59,0.67824825,30.9225
2021-06-23 16:34:31.101562500,-36.0,5.0,53.0,82.381171875,-17.64,0.6781681875,30.921875
2021-06-23 16:34:31.109375000,-36.0,5.0,53.0,82.38203125000001,-11.69,0.6780881249999999,30.92125
2021-06-23 16:34:31.117187500,-36.0,5.0,53.0,82.382890625,-6.335,0.6780080625,30.920625
2021-06-23 16:34:31.125000000,-36.0,5.0,53.0,82.38375,-0.98,0.677928,30.92
2021-06-23 16:34:31.132812500,-36.0,5.0,53.0,82.38460937500001,3.6700000000000004,0.6778479374999999,30.919375
2021-06-23 16:34:31.140625000,-36.0,5.0,53.0,82.38546875,8.32,0.677767875,30.91875
2021-06-23 16:34:31.148437500,-36.0,5.0,53.0,82.386328125,12.33,0.6776878125,30.918125
2021-06-23 16:34:31.156250000,-36.0,5.0,53.0,82.38718750000001,16.34,0.67760775,30.9175
2021-06-23 16:34:31.164062500,-36.0,5.0,53.0,82.388046875,19.83,0.6775276875,30.916875
2021-06-23 16:34:31.171875000,-36.0,5.0,53.0,82.38890625,23.32,0.677447625,30.91625
2021-06-23 16:34:31.179687500,-36.0,5.0,53.0,82.38976562500001,26.32,0.6773675625,30.915625
2021-06-23 16:34:31.187500000,-36.0,5.0,53.0,82.390625,29.32,0.6772875,30.915
2021-06-23 16:34:31.195312500,-36.0,5.0,53.0,82.391484375,31.775,0.6772074375,30.914375
2021-06-23 16:34:31.203125000,-36.0,5.0,53.0,82.39234375000001,34.23,0.677127375,30.91375
2021-06-23 16:34:31.210937500,-36.0,5.0,53.0,82.393203125,36.06,0.6770473124999999,30.913125
2021-06-23 16:34:31.218750000,-36.0,5.0,53.0,82.3940625,37.89,0.67696725,30.9125
2021-06-23 16:34:31.226562500,-36.0,5.0,53.0,82.39492187500001,39.06,0.6768871875,30.911875
2021-06-23 16:34:31.234375000,-36.0,5.0,53.0,82.39578125,40.23,0.676807125,30.91125
2021-06-23 16:34:31.242187500,-36.0,5.0,53.0,82.396640625,40.83,0.6767270625,30.910625
2021-06-23 16:34:31.250000000,-36.0,5.0,53.0,82.39750000000001,41.43,0.676647,30.91
2021-06-23 16:34:31.257812500,-36.0,5.0,53.0,82.398359375,41.67,0.676647,30.91
2021-06-23 16:34:31.265625000,-36.0,5.0,53.0,82.39921875,41.91,0.676647,30.91
2021-06-23 16:34:31.273437500,-36.0,5.0,53.0,82.40007812500001,42.025,0.676647,30.91
2021-06-23 16:34:31.281250000,-36.0,5.0,53.0,82.4009375,42.14,0.676647,30.91
2021-06-23 16:34:31.289062500,-36.0,5.0,53.0,82.401796875,42.32,0.676647,30.91
2021-06-23 16:34:31.296875000,-36.0,5.0,53.0,82.40265625,42.5,0.676647,30.91
2021-06-23 16:34:31.304687500,-36.0,5.0,53.0,82.40351562500001,42.825,0.676647,30.91
2021-06-23 16:34:31.312500000,-36.0,5.0,53.0,82.404375,43.15,0.676647,30.91
2021-06-23 16:34:31.320312500,-36.0,5.0,53.0,82.405234375,43.59,0.676647,30.91
2021-06-23 16:34:31.328125000,-36.0,5.0,53.0,82.40609375000001,44.03,0.676647,30.91
2021-06-23 16:34:31.335937500,-36.0,5.0,53.0,82.406953125,44.475,0.676647,30.91
2021-06-23 16:34:31.343750000,-36.0,5.0,53.0,82.4078125,44.92,0.676647,30.91
2021-06-23 16:34:31.351562500,-36.0,5.0,53.0,82.40867187500001,45.260000000000005,0.676647,30.91
2021-06-23 16:34:31.359375000,-36.0,5.0,53.0,82.40953125,45.6,0.676647,30.91
2021-06-23 16:34:31.367187500,-36.0,5.0,53.0,82.410390625,45.769999999999996,0.676647,30.91
2021-06-23 16:34:31.375000000,-36.0,5.0,53.0,82.41125000000001,45.94,0.676647,30.91
2021-06-23 16:34:31.382812500,-36.0,5.0,53.0,82.412109375,45.89,0.676647,30.91
2021-06-23 16:34:31.390625000,-36.0,5.0,53.0,82.41296875,45.84,0.676647,30.91
2021-06-23 16:34:31.398437500,-36.0,5.0,53.0,82.41382812500001,45.565,0.676647,30.91
2021-06-23 16:34:31.406250000,-36.0,5.0,53.0,82.4146875,45.29,0.676647,30.91
2021-06-23 16:34:31.414062500,-36.0,5.0,53.0,82.415546875,44.765,0.676647,30.91
2021-06-23 16:34:31.421875000,-36.0,5.0,53.0,82.41640625000001,44.24,0.676647,30.91
2021-06-23 16:34:31.429687500,-36.0,5.0,53.0,82.417265625,43.43,0.676647,30.91
2021-06-23 16:34:31.437500000,-36.0,5.0,53.0,82.418125,42.62,0.676647,30.91
2021-06-23 16:34:31.445312500,-36.0,5.0,53.0,82.41898437500001,41.5,0.676647,30.91
2021-06-23 16:34:31.453125000,-36.0,5.0,53.0,82.41984375,40.38,0.676647,30.91
2021-06-23 16:34:31.460937500,-36.0,5.0,53.0,82.420703125,38.96,0.676647,30.91
2021-06-23 16:34:31.468750000,-36.0,5.0,53.0,82.42156250000001,37.54,0.676647,30.91
2021-06-23 16:34:31.476562500,-36.0,5.0,53.0,82.422421875,35.879999999999995,0.676647,30.91
2021-06-23 16:34:31.484375000,-36.0,5.0,53.0,82.42328125,34.22,0.676647,30.91
2021-06-23 16:34:31.492187500,-36.0,5.0,53.0,82.424140625,32.41,0.676647,30.91
2021-06-23 16:34:31.500000000,-36.0,5.0,53.0,82.42500000000001,30.6,0.676647,30.91
2021-06-23 16:34:31.507812500,-36.0,5.0,53.0,82.425859375,28.715,0.67660696875,30.91
2021-06-23 16:34:31.515625000,-36.0,5.0,53.0,82.42671875,26.83,0.6765669375,30.91
2021-06-23 16:34:31.523437500,-36.0,5.0,53.0,82.42757812500001,24.884999999999998,0.67652690625,30.91
2021-06-23 16:34:31.531250000,-36.0,5.0,53.0,82.4284375,22.94,0.676486875,30.91
2021-06-23 16:34:31.539062500,-36.0,5.0,53.0,82.429296875,20.92,0.67644684375,30.91
2021-06-23 16:34:31.546875000,-36.0,5.0,53.0,82.43015625000001,18.9,0.6764068125,30.91
2021-06-23 16:34:31.554687500,-36.0,5.0,53.0,82.431015625,16.775,0.67636678125,30.91
2021-06-23 16:34:31.562500000,-36.0,5.0,53.0,82.431875,14.65,0.67632675,30.91
2021-06-23 16:34:31.570312500,-36.0,5.0,53.0,82.43273437500001,12.435,0.67628671875,30.91
2021-06-23 16:34:31.578125000,-36.0,5.0,53.0,82.43359375,10.22,0.6762466875,30.91
2021-06-23 16:34:31.585937500,-36.0,5.0,53.0,82.434453125,7.9750000000000005,0.67620665625,30.91
2021-06-23 16:34:31.593750000,-36.0,5.0,53.0,82.43531250000001,5.73,0.676166625,30.91
2021-06-23 16:34:31.601562500,-36.0,5.0,53.0,82.436171875,3.5450000000000004,0.6761265937500001,30.91
2021-06-23 16:34:31.609375000,-36.0,5.0,53.0,82.43703125,1.36,0.6760865625,30.91
2021-06-23 16:34:31.617187500,-36.0,5.0,53.0,82.43789062500001,-0.7150000000000001,0.67604653125,30.91
2021-06-23 16:34:31.625000000,-36.0,5.0,53.0,82.43875,-2.79,0.6760065,30.91
2021-06-23 16:34:31.632812500,-36.0,5.0,53.0,82.439609375,-4.775,0.67596646875,30.91
2021-06-23 16:34:31.640625000,-36.0,5.0,53.0,82.44046875000001,-6.76,0.6759264375,30.91
2021-06-23 16:34:31.648437500,-36.0,5.0,53.0,82.441328125,-8.76,0.67588640625,30.91
2021-06-23 16:34:31.656250000,-36.0,5.0,53.0,82.4421875,-10.76,0.675846375,30.91
2021-06-23 16:34:31.664062500,-36.0,5.0,53.0,82.44304687500001,-12.915,0.67580634375,30.91
2021-06-23 16:34:31.671875000,-36.0,5.0,53.0,82.44390625,-15.07,0.6757663125,30.91
2021-06-23 16:34:31.679687500,-36.0,5.0,53.0,82.444765625,-17.535,0.67572628125,30.91
2021-06-23 16:34:31.687500000,-36.0,5.0,53.0,82.445625,-20.0,0.67568625,30.91
2021-06-23 16:34:31.695312500,-36.0,5.0,53.0,82.446484375,-22.869999999999997,0.67564621875,30.91
2021-06-23 16:34:31.703125000,-36.0,5.0,53.0,82.44734375,-25.74,0.6756061875,30.91
2021-06-23 16:34:31.710937500,-36.0,5.0,53.0,82.448203125,-29.025,0.67556615625,30.91
2021-06-23 16:34:31.718750000,-36.0,5.0,53.0,82.44906250000001,-32.31,0.675526125,30.91
2021-06-23 16:34:31.726562500,-36.0,5.0,53.0,82.449921875,-35.885000000000005,0.67548609375,30.91
2021-06-23 16:34:31.734375000,-36.0,5.0,53.0,82.45078125,-39.46,0.6754460625,30.91
2021-06-23 16:34:31.742187500,-36.0,5.0,53.0,82.45164062500001,-43.025000000000006,0.67540603125,30.91
2021-06-23 16:34:31.750000000,-36.0,5.0,53.0,82.4525,-46.59,0.675366,30.91
2021-06-23 16:34:31.757812500,-36.0,5.0,53.0,82.453359375,-49.69,0.675366,30.91
2021-06-23 16:34:31.765625000,-36.0,5.0,53.0,82.45421875000001,-52.79,0.675366,30.91
2021-06-23 16:34:31.773437500,-36.0,5.0,53.0,82.455078125,-54.835,0.675366,30.91
2021-06-23 16:34:31.781250000,-36.0,5.0,53.0,82.4559375,-56.88,0.675366,30.91
2021-06-23 16:34:31.789062500,-36.0,5.0,53.0,82.45679687500001,-57.325,0.675366,30.91
2021-06-23 16:34:31.796875000,-36.0,5.0,53.0,82.45765625,-57.77,0.675366,30.91
2021-06-23 16:34:31.804687500,-36.0,5.0,53.0,82.458515625,-56.3,0.675366,30.91
2021-06-23 16:34:31.812500000,-36.0,5.0,53.0,82.45937500000001,-54.83,0.675366,30.91
2021-06-23 16:34:31.820312500,-36.0,5.0,53.0,82.460234375,-51.480000000000004,0.675366,30.91
2021-06-23 16:34:31.828125000,-36.0,5.0,53.0,82.46109375,-48.13,0.675366,30.91
2021-06-23 16:34:31.835937500,-36.0,5.0,53.0,82.46195312500001,-43.335,0.675366,30.91
2021-06-23 16:34:31.843750000,-36.0,5.0,53.0,82.4628125,-38.54,0.675366,30.91
2021-06-23 16:34:31.851562500,-36.0,5.0,53.0,82.463671875,-32.975,0.675366,30.91
2021-06-23 16:34:31.859375000,-36.0,5.0,53.0,82.46453125000001,-27.41,0.675366,30.91
2021-06-23 16:34:31.867187500,-36.0,5.0,53.0,82.465390625,-21.765,0.675366,30.91
2021-06-23 16:34:31.875000000,-36.0,5.0,53.0,82.46625,-16.12,0.675366,30.91
2021-06-23 16:34:31.882812500,-36.0,5.0,53.0,82.467109375,-10.925,0.675366,30.91
2021-06-23 16:34:31.890625000,-36.0,5.0,53.0,82.46796875,-5.73,0.675366,30.91
2021-06-23 16:34:31.898437500,-36.0,5.0,53.0,82.468828125,-1.255,0.675366,30.91
2021-06-23 16:34:31.906250000,-36.0,5.0,53.0,82.4696875,3.22,0.675366,30.91
2021-06-23 16:34:31.914062500,-36.0,5.0,53.0,82.47054687500001,6.945,0.675366,30.91
2021-06-23 16:34:31.921875000,-36.0,5.0,53.0,82.47140625,10.67,0.675366,30.91
2021-06-23 16:34:31.929687500,-36.0,5.0,53.0,82.472265625,13.715,0.675366,30.91
2021-06-23 16:34:31.937500000,-36.0,5.0,53.0,82.47312500000001,16.76,0.675366,30.91
2021-06-23 16:34:31.945312500,-36.0,5.0,53.0,82.473984375,19.185000000000002,0.675366,30.91
2021-06-23 16:34:31.953125000,-36.0,5.0,53.0,82.47484375,21.61,0.675366,30.91
2021-06-23 16:34:31.960937500,-36.0,5.0,53.0,82.47570312500001,23.465,0.675366,30.91
2021-06-23 16:34:31.968750000,-36.0,5.0,53.0,82.4765625,25.32,0.675366,30.91
2021-06-23 16:34:31.976562500,-36.0,5.0,53.0,82.477421875,26.595,0.675366,30.91
2021-06-23 16:34:31.984375000,-36.0,5.0,53.0,82.47828125000001,27.87,0.675366,30.91
2021-06-23 16:34:31.992187500,-36.0,5.0,53.0,82.479140625,28.625,0.675366,30.91
2021-06-23 16:34:32.000000000,-36.0,5.0,53.0,82.48,29.38,0.675366,30.91
2021-06-23 16:34:32.007812500,-36.0,5.0,53.0,82.480390625,29.725,0.67524590625,30.91
2021-06-23 16:34:32.015625000,-36.0,5.0,53.0,82.48078125,30.07,0.6751258125,30.91
2021-06-23 16:34:32.023437500,-36.0,5.0,53.0,82.481171875,30.18,0.67500571875,30.91
2021-06-23 16:34:32.031250000,-36.0,5.0,53.0,82.48156250000001,30.29,0.674885625,30.91
2021-06-23 16:34:32.039062500,-36.0,5.0,53.0,82.481953125,30.36,0.67476553125,30.91
2021-06-23 16:34:32.046875000,-36.0,5.0,53.0,82.48234375,30.43,0.6746454375000001,30.91
2021-06-23 16:34:32.054687500,-36.0,5.0,53.0,82.482734375,30.595,0.6745253437500001,30.91
2021-06-23 16:34:32.062500000,-36.0,5.0,53.0,82.483125,30.76,0.67440525,30.91
2021-06-23 16:34:32.070312500,-36.0,5.0,53.0,82.48351562500001,31.07,0.67428515625,30.91
2021-06-23 16:34:32.078125000,-36.0,5.0,53.0,82.48390625,31.38,0.6741650625,30.91
2021-06-23 16:34:32.085937500,-36.0,5.0,53.0,82.484296875,31.775,0.67404496875,30.91
2021-06-23 16:34:32.093750000,-36.0,5.0,53.0,82.4846875,32.17,0.673924875,30.91
2021-06-23 16:34:32.101562500,-36.0,5.0,53.0,82.485078125,32.54,0.67380478125,30.91
2021-06-23 16:34:32.109375000,-36.0,5.0,53.0,82.48546875000001,32.91,0.6736846875,30.91
2021-06-23 16:34:32.117187500,-36.0,5.0,53.0,82.485859375,33.129999999999995,0.67356459375,30.91
2021-06-23 16:34:32.125000000,-36.0,5.0,53.0,82.48625,33.35,0.6734445,30.91
2021-06-23 16:34:32.132812500,-36.0,5.0,53.0,82.486640625,33.34,0.67332440625,30.91
2021-06-23 16:34:32.140625000,-36.0,5.0,53.0,82.48703125,33.33,0.6732043125,30.91
2021-06-23 16:34:32.148437500,-36.0,5.0,53.0,82.48742187500001,33.05,0.67308421875,30.91
2021-06-23 16:34:32.156250000,-36.0,5.0,53.0,82.4878125,32.77,0.672964125,30.91
2021-06-23 16:34:32.164062500,-36.0,5.0,53.0,82.488203125,32.265,0.67284403125,30.91
2021-06-23 16:34:32.171875000,-36.0,5.0,53.0,82.48859375,31.76,0.6727239375,30.91
2021-06-23 16:34:32.179687500,-36.0,5.0,53.0,82.488984375,31.08,0.67260384375,30.91
2021-06-23 16:34:32.187500000,-36.0,5.0,53.0,82.48937500000001,30.4,0.67248375,30.91
2021-06-23 16:34:32.195312500,-36.0,5.0,53.0,82.489765625,29.64,0.6723636562499999,30.91
2021-06-23 16:34:32.203125000,-36.0,5.0,53.0,82.49015625,28.88,0.6722435625,30.91
2021-06-23 16:34:32.210937500,-36.0,5.0,53.0,82.490546875,28.055,0.67212346875,30.91
2021-06-23 16:34:32.218750000,-36.0,5.0,53.0,82.4909375,27.23,0.672003375,30.91
2021-06-23 16:34:32.226562500,-36.0,5.0,53.0,82.49132812500001,26.33,0.67188328125,30.91
2021-06-23 16:34:32.234375000,-36.0,5.0,53.0,82.49171875,25.43,0.6717631875,30.91
2021-06-23 16:34:32.242187500,-36.0,5.0,53.0,82.492109375,24.384999999999998,0.67164309375,30.91
2021-06-23 16:34:32.250000000,-36.0,5.0,53.0,82.4925,23.34,0.671523,30.91
2021-06-23 16:34:32.257812500,-36.0,5.0,53.0,82.492890625,22.064999999999998,0.6716831249999999,30.91
2021-06-23 16:34:32.265625000,-36.0,5.0,53.0,82.49328125000001,20.79,0.67184325,30.91
2021-06-23 16:34:32.273437500,-36.0,5.0,53.0,82.493671875,19.189999999999998,0.672003375,30.91
2021-06-23 16:34:32.281250000,-36.0,5.0,53.0,82.4940625,17.59,0.6721635,30.91
2021-06-23 16:34:32.289062500,-36.0,5.0,53.0,82.494453125,15.67,0.672323625,30.91
2021-06-23 16:34:32.296875000,-36.0,5.0,53.0,82.49484375,13.75,0.6724837499999999,30.91
2021-06-23 16:34:32.304687500,-36.0,5.0,53.0,82.49523437500001,11.575,0.672643875,30.91
2021-06-23 16:34:32.312500000,-36.0,5.0,53.0,82.495625,9.4,0.672804,30.91
2021-06-23 16:34:32.320312500,-36.0,5.0,53.0,82.496015625,7.12,0.672964125,30.91
2021-06-23 16:34:32.328125000,-36.0,5.0,53.0,82.49640625,4.84,0.67312425,30.91
2021-06-23 16:34:32.335937500,-36.0,5.0,53.0,82.496796875,2.6149999999999998,0.6732843749999999,30.91
2021-06-23 16:34:32.343750000,-36.0,5.0,53.0,82.49718750000001,0.39,0.6734445,30.91
2021-06-23 16:34:32.351562500,-36.0,5.0,53.0,82.497578125,-1.6549999999999998,0.673604625,30.91
2021-06-23 16:34:32.359375000,-36.0,5.0,53.0,82.49796875,-3.7,0.67376475,30.91
2021-06-23 16:34:32.367187500,-36.0,5.0,53.0,82.498359375,-5.545,0.673924875,30.91
2021-06-23 16:34:32.375000000,-36.0,5.0,53.0,82.49875,-7.39,0.674085,30.91
2021-06-23 16:34:32.382812500,-36.0,5.0,53.0,82.49914062500001,-9.105,0.674245125,30.91
2021-06-23 16:34:32.390625000,-36.0,5.0,53.0,82.49953125,-10.82,0.67440525,30.91
2021-06-23 16:34:32.398437500,-36.0,5.0,53.0,82.499921875,-12.545,0.674565375,30.91
2021-06-23 16:34:32.406250000,-36.0,5.0,53.0,82.5003125,-14.27,0.6747255,30.91
2021-06-23 16:34:32.414062500,-36.0,5.0,53.0,82.500703125,-16.134999999999998,0.674885625,30.91
2021-06-23 16:34:32.421875000,-36.0,5.0,53.0,82.50109375000001,-18.0,0.67504575,30.91
2021-06-23 16:34:32.429687500,-36.0,5.0,53.0,82.501484375,-20.115000000000002,0.675205875,30.91
2021-06-23 16:34:32.437500000,-36.0,5.0,53.0,82.501875,-22.23,0.675366,30.91
2021-06-23 16:34:32.445312500,-36.0,5.0,53.0,82.502265625,-24.66,0.675526125,30.91
2021-06-23 16:34:32.453125000,-36.0,5.0,53.0,82.50265625,-27.09,0.67568625,30.91
2021-06-23 16:34:32.460937500,-36.0,5.0,53.0,82.50304687500001,-29.840000000000003,0.675846375,30.91
2021-06-23 16:34:32.468750000,-36.0,5.0,53.0,82.5034375,-32.59,0.6760065,30.91
2021-06-23 16:34:32.476562500,-36.0,5.0,53.0,82.503828125,-35.585,0.676166625,30.91
2021-06-23 16:34:32.484375000,-36.0,5.0,53.0,82.50421875,-38.58,0.67632675,30.91
2021-06-23 16:34:32.492187500,-36.0,5.0,53.0,82.504609375,-41.595,0.676486875,30.91
2021-06-23 16:34:32.500000000,-36.0,5.0,53.0,82.505,-44.61,0.676647,30.91
2021-06-23 16:34:32.507812500,-36.0,5.0,53.0,82.505390625,-47.245000000000005,0.6765669375,30.91
2021-06-23 16:34:32.515625000,-36.0,5.0,53.0,82.50578125,-49.88,0.676486875,30.91
2021-06-23 16:34:32.523437500,-36.0,5.0,53.0,82.506171875,-51.63,0.6764068125,30.91
2021-06-23 16:34:32.531250000,-36.0,5.0,53.0,82.5065625,-53.38,0.67632675,30.91
2021-06-23 16:34:32.539062500,-36.0,5.0,53.0,82.506953125,-53.730000000000004,0.6762466875,30.91
2021-06-23 16:34:32.546875000,-36.0,5.0,53.0,82.50734375,-54.08,0.676166625,30.91
2021-06-23 16:34:32.554687500,-36.0,5.0,53.0,82.507734375,-52.724999999999994,0.6760865625,30.91
2021-06-23 16:34:32.562500000,-36.0,5.0,53.0,82.508125,-51.37,0.6760065,30.91
2021-06-23 16:34:32.570312500,-36.0,5.0,53.0,82.508515625,-48.32,0.6759264375,30.91
2021-06-23 16:34:32.578125000,-36.0,5.0,53.0,82.50890625,-45.27,0.675846375,30.91
2021-06-23 16:34:32.585937500,-36.0,5.0,53.0,82.509296875,-40.900000000000006,0.6757663125,30.91
2021-06-23 16:34:32.593750000,-36.0,5.0,53.0,82.5096875,-36.53,0.67568625,30.91
2021-06-23 16:34:32.601562500,-36.0,5.0,53.0,82.510078125,-31.44,0.6756061875,30.91
2021-06-23 16:34:32.609375000,-36.0,5.0,53.0,82.51046875,-26.35,0.675526125,30.91
2021-06-23 16:34:32.617187500,-36.0,5.0,53.0,82.510859375,-21.195,0.6754460625,30.91
2021-06-23 16:34:32.625000000,-36.0,5.0,53.0,82.51125,-16.04,0.675366,30.91
2021-06-23 16:34:32.632812500,-36.0,5.0,53.0,82.511640625,-11.325,0.6752859375,30.91
2021-06-23 16:34:32.640625000,-36.0,5.0,53.0,82.51203125,-6.61,0.6752058750000001,30.91
2021-06-23 16:34:32.648437500,-36.0,5.0,53.0,82.512421875,-2.6050000000000004,0.6751258125,30.91
2021-06-23 16:34:32.656250000,-36.0,5.0,53.0,82.5128125,1.4,0.67504575,30.91
2021-06-23 16:34:32.664062500,-36.0,5.0,53.0,82.513203125,4.675000000000001,0.6749656875000001,30.91
2021-06-23 16:34:32.671875000,-36.0,5.0,53.0,82.51359375,7.95,0.674885625,30.91
2021-06-23 16:34:32.679687500,-36.0,5.0,53.0,82.513984375,10.63,0.6748055625,30.91
2021-06-23 16:34:32.687500000,-36.0,5.0,53.0,82.514375,13.31,0.6747255000000001,30.91
2021-06-23 16:34:32.695312500,-36.0,5.0,53.0,82.514765625,15.575,0.6746454375000001,30.91
2021-06-23 16:34:32.703125000,-36.0,5.0,53.0,82.51515625,17.84,0.674565375,30.91
2021-06-23 16:34:32.710937500,-36.0,5.0,53.0,82.515546875,19.79,0.6744853125,30.91
2021-06-23 16:34:32.718750000,-36.0,5.0,53.0,82.5159375,21.74,0.6744052500000001,30.91
2021-06-23 16:34:32.726562500,-36.0,5.0,53.0,82.516328125,23.384999999999998,0.6743251875,30.91
2021-06-23 16:34:32.734375000,-36.0,5.0,53.0,82.51671875,25.03,0.674245125,30.91
2021-06-23 16:34:32.742187500,-36.0,5.0,53.0,82.517109375,26.310000000000002,0.6741650625000001,30.91
2021-06-23 16:34:32.750000000,-36.0,5.0,53.0,82.5175,27.59,0.674085,30.91
2021-06-23 16:34:32.757812500,-36.0,5.0,53.0,82.517890625,28.445,0.6741650625000001,30.91
2021-06-23 16:34:32.765625000,-36.0,5.0,53.0,82.51828125,29.3,0.674245125,30.91
2021-06-23 16:34:32.773437500,-36.0,5.0,53.0,82.518671875,29.745,0.6743251875,30.91
2021-06-23 16:34:32.781250000,-36.0,5.0,53.0,82.5190625,30.19,0.6744052500000001,30.91
2021-06-23 16:34:32.789062500,-36.0,5.0,53.0,82.519453125,30.355,0.6744853125,30.91
2021-06-23 16:34:32.796875000,-36.0,5.0,53.0,82.51984375,30.52,0.674565375,30.91
2021-06-23 16:34:32.804687500,-36.0,5.0,53.0,82.520234375,30.59,0.6746454375000001,30.91
2021-06-23 16:34:32.812500000,-36.0,5.0,53.0,82.520625,30.66,0.6747255000000001,30.91
2021-06-23 16:34:32.820312500,-36.0,5.0,53.0,82.521015625,30.785,0.6748055625,30.91
2021-06-23 16:34:32.828125000,-36.0,5.0,53.0,82.52140625,30.91,0.674885625,30.91
2021-06-23 16:34:32.835937500,-36.0,5.0,53.0,82.521796875,31.145,0.6749656875000001,30.91
2021-06-23 16:34:32.843750000,-36.0,5.0,53.0,82.5221875,31.38,0.67504575,30.91
2021-06-23 16:34:32.851562500,-36.0,5.0,53.0,82.522578125,31.634999999999998,0.6751258125,30.91
2021-06-23 16:34:32.859375000,-36.0,5.0,53.0,82.52296875,31.89,0.6752058750000001,30.91
2021-06-23 16:34:32.867187500,-36.0,5.0,53.0,82.523359375,32.015,0.6752859375,30.91
2021-06-23 16:34:32.875000000,-36.0,5.0,53.0,82.52375,32.14,0.675366,30.91
2021-06-23 16:34:32.882812500,-36.0,5.0,53.0,82.524140625,31.995,0.6754460625,30.91
2021-06-23 16:34:32.890625000,-36.0,5.0,53.0,82.52453125,31.85,0.675526125,30.91
2021-06-23 16:34:32.898437500,-36.0,5.0,53.0,82.524921875,31.42,0.6756061875,30.91
2021-06-23 16:34:32.906250000,-36.0,5.0,53.0,82.5253125,30.99,0.67568625,30.91
2021-06-23 16:34:32.914062500,-36.0,5.0,53.0,82.525703125,30.345,0.6757663125,30.91
2021-06-23 16:34:32.921875000,-36.0,5.0,53.0,82.52609375,29.7,0.675846375,30.91
2021-06-23 16:34:32.929687500,-36.0,5.0,53.0,82.526484375,28.965,0.6759264375,30.91
2021-06-23 16:34:32.937500000,-36.0,5.0,53.0,82.526875,28.23,0.6760065,30.91
2021-06-23 16:34:32.945312500,-36.0,5.0,52.75,82.527265625,27.48,0.6760865625,30.91
2021-06-23 16:34:32.953125000,-36.0,5.0,52.5,82.52765625,26.73,0.676166625,30.91
2021-06-23 16:34:32.960937500,-36.0,5.0,52.25,82.528046875,25.96,0.6762466875,30.91
2021-06-23 16:34:32.968750000,-36.0,5.0,52.0,82.5284375,25.19,0.67632675,30.91
2021-06-23 16:34:32.976562500,-36.0,5.0,52.25,82.528828125,24.315,0.6764068125,30.91
2021-06-23 16:34:32.984375000,-36.0,5.0,52.5,82.52921875,23.44,0.676486875,30.91
2021-06-23 16:34:32.992187500,-36.0,5.0,52.75,82.529609375,22.355,0.6765669375,30.91
2021-06-23 16:34:33.000000000,-36.0,5.0,53.0,82.53,21.27,0.676647,30.91
2021-06-23 16:34:33.007812500,-36.0,5.0,53.0,82.530390625,19.92,0.67668703125,30.910625
2021-06-23 16:34:33.015625000,-36.0,5.0,53.0,82.53078125,18.57,0.6767270625,30.91125
2021-06-23 16:34:33.023437500,-36.0,5.0,53.0,82.531171875,16.965,0.67676709375,30.911875
2021-06-23 16:34:33.031250000,-36.0,5.0,53.0,82.5315625,15.36,0.676807125,30.9125
2021-06-23 16:34:33.039062500,-36.0,5.0,53.0,82.531953125,13.555,0.67684715625,30.913125
2021-06-23 16:34:33.046875000,-36.0,5.0,53.0,82.53234375,11.75,0.6768871875,30.91375
2021-06-23 16:34:33.054687500,-36.0,5.0,53.0,82.532734375,9.83,0.67692721875,30.914375
2021-06-23 16:34:33.062500000,-36.0,5.0,53.0,82.533125,7.91,0.67696725,30.915
2021-06-23 16:34:33.070312500,-36.0,5.0,53.0,82.533515625,5.94,0.67700728125,30.915625
2021-06-23 16:34:33.078125000,-36.0,5.0,53.0,82.53390625,3.97,0.6770473124999999,30.91625
2021-06-23 16:34:33.085937500,-36.0,5.0,53.0,82.534296875,1.9650000000000003,0.67708734375,30.916875
2021-06-23 16:34:33.093750000,-36.0,5.0,53.0,82.5346875,-0.04,0.677127375,30.9175
2021-06-23 16:34:33.101562500,-36.0,5.0,53.0,82.535078125,-2.06,0.6771674062499999,30.918125
2021-06-23 16:34:33.109375000,-36.0,5.0,53.0,82.53546875,-4.08,0.6772074375,30.91875
2021-06-23 16:34:33.117187500,-36.0,5.0,53.0,82.535859375,-6.12,0.67724746875,30.919375
2021-06-23 16:34:33.125000000,-36.0,5.0,53.0,82.53625,-8.16,0.6772875,30.92
2021-06-23 16:34:33.132812500,-36.0,5.0,53.0,82.536640625,-10.175,0.67732753125,30.920625
2021-06-23 16:34:33.140625000,-36.0,5.0,53.0,82.53703125,-12.19,0.6773675625,30.92125
2021-06-23 16:34:33.148437500,-36.0,5.0,53.0,82.537421875,-14.14,0.67740759375,30.921875
2021-06-23 16:34:33.156250000,-36.0,5.0,53.0,82.5378125,-16.09,0.677447625,30.9225
2021-06-23 16:34:33.164062500,-36.0,5.0,53.0,82.538203125,-17.925,0.67748765625,30.923125
2021-06-23 16:34:33.171875000,-36.0,5.0,53.0,82.53859375,-19.76,0.6775276875,30.92375
2021-06-23 16:34:33.179687500,-36.0,5.0,53.0,82.538984375,-21.490000000000002,0.67756771875,30.924375
2021-06-23 16:34:33.187500000,-36.0,5.0,53.0,82.539375,-23.22,0.67760775,30.925
2021-06-23 16:34:33.195312500,-36.0,5.0,53.0,82.539765625,-24.939999999999998,0.67764778125,30.925625
2021-06-23 16:34:33.203125000,-36.0,5.0,53.0,82.54015625,-26.66,0.6776878125,30.92625
2021-06-23 16:34:33.210937500,-36.0,5.0,53.0,82.540546875,-28.57,0.67772784375,30.926875
2021-06-23 16:34:33.218750000,-36.0,5.0,53.0,82.5409375,-30.48,0.677767875,30.9275
2021-06-23 16:34:33.226562500,-36.0,5.0,53.0,82.541328125,-32.77,0.67780790625,30.928125
2021-06-23 16:34:33.234375000,-36.0,5.0,53.0,82.54171875,-35.06,0.6778479374999999,30.92875
2021-06-23 16:34:33.242187500,-36.0,5.0,53.0,82.542109375,-37.805,0.67788796875,30.929375
2021-06-23 16:34:33.250000000,-36.0,5.0,53.0,82.5425,-40.55,0.677928,30.93
2021-06-23 16:34:33.257812500,-36.0,5.0,53.0,82.542890625,-43.599999999999994,0.677767875,30.93
2021-06-23 16:34:33.265625000,-36.0,5.0,53.0,82.54328125,-46.65,0.67760775,30.93
2021-06-23 16:34:33.273437500,-36.0,5.0,53.0,82.543671875,-49.614999999999995,0.677447625,30.93
2021-06-23 16:34:33.281250000,-36.0,5.0,53.0,82.5440625,-52.58,0.6772874999999999,30.93
2021-06-23 16:34:33.289062500,-36.0,5.0,53.0,82.544453125,-54.875,0.677127375,30.93
2021-06-23 16:34:33.296875000,-36.0,5.0,53.0,82.54484375,-57.17,0.67696725,30.93
2021-06-23 16:34:33.304687500,-36.0,5.0,53.0,82.545234375,-58.21,0.676807125,30.93
2021-06-23 16:34:33.312500000,-36.0,5.0,53.0,82.545625,-59.25,0.676647,30.93
2021-06-23 16:34:33.320312500,-36.0,5.0,53.0,82.546015625,-58.66,0.6764868749999999,30.93
2021-06-23 16:34:33.328125000,-36.0,5.0,53.0,82.54640625,-58.07,0.67632675,30.93
2021-06-23 16:34:33.335937500,-36.0,5.0,53.0,82.546796875,-55.785,0.676166625,30.93
2021-06-23 16:34:33.343750000,-36.0,5.0,53.0,82.5471875,-53.5,0.6760065,30.93
2021-06-23 16:34:33.351562500,-36.0,5.0,53.0,82.547578125,-49.79,0.675846375,30.93
2021-06-23 16:34:33.359375000,-36.0,5.0,53.0,82.54796875,-46.08,0.6756862499999999,30.93
2021-06-23 16:34:33.367187500,-36.0,5.0,53.0,82.548359375,-41.44,0.675526125,30.93
2021-06-23 16:34:33.375000000,-36.0,5.0,53.0,82.54875,-36.8,0.6753659999999999,30.93
2021-06-23 16:34:33.382812500,-36.0,5.0,53.0,82.549140625,-31.799999999999997,0.675205875,30.93
2021-06-23 16:34:33.390625000,-36.0,5.0,53.0,82.54953125,-26.8,0.67504575,30.93
2021-06-23 16:34:33.398437500,-36.0,5.0,53.0,82.549921875,-21.915,0.6748856249999999,30.93
2021-06-23 16:34:33.406250000,-36.0,5.0,53.0,82.5503125,-17.03,0.6747255,30.93
2021-06-23 16:34:33.414062500,-36.0,5.0,53.0,82.550703125,-12.580000000000002,0.6745653749999999,30.93
2021-06-23 16:34:33.421875000,-36.0,5.0,53.0,82.55109375,-8.13,0.67440525,30.93
2021-06-23 16:34:33.429687500,-36.0,5.0,53.0,82.551484375,-4.245000000000001,0.674245125,30.93
2021-06-23 16:34:33.437500000,-36.0,5.0,53.0,82.551875,-0.36,0.6740849999999999,30.93
2021-06-23 16:34:33.445312500,-36.0,5.0,53.0,82.552265625,2.9450000000000003,0.673924875,30.93
2021-06-23 16:34:33.453125000,-36.0,5.0,53.0,82.55265625,6.25,0.6737647499999999,30.93
2021-06-23 16:34:33.460937500,-36.0,5.0,53.0,82.553046875,9.045,0.673604625,30.93
2021-06-23 16:34:33.468750000,-36.0,5.0,53.0,82.5534375,11.84,0.6734445,30.93
2021-06-23 16:34:33.476562500,-36.0,5.0,53.0,82.553828125,14.215,0.6732843749999999,30.93
2021-06-23 16:34:33.484375000,-36.0,5.0,53.0,82.55421875,16.59,0.67312425,30.93
2021-06-23 16:34:33.492187500,-36.0,5.0,53.0,82.554609375,18.59,0.6729641249999999,30.93
2021-06-23 16:34:33.500000000,-36.0,5.0,53.0,82.555,20.59,0.672804,30.93
2021-06-23 16:34:33.507812500,-36.0,5.0,53.0,82.555390625,22.255000000000003,0.6728840625,30.93
2021-06-23 16:34:33.515625000,-36.0,5.0,53.0,82.55578125,23.92,0.6729641249999999,30.93
2021-06-23 16:34:33.523437500,-36.0,5.0,53.0,82.556171875,25.255000000000003,0.6730441875,30.93
2021-06-23 16:34:33.531250000,-36.0,5.0,53.0,82.5565625,26.59,0.67312425,30.93
2021-06-23 16:34:33.539062500,-36.0,5.0,53.0,82.55695312499999,27.595,0.6732043125,30.93
2021-06-23 16:34:33.546875000,-36.0,5.0,53.0,82.55734375,28.6,0.6732843749999999,30.93
2021-06-23 16:34:33.554687500,-36.0,5.0,53.0,82.557734375,29.28,0.6733644375,30.93
2021-06-23 16:34:33.562500000,-36.0,5.0,53.0,82.558125,29.96,0.6734445,30.93
2021-06-23 16:34:33.570312500,-36.0,5.0,53.0,82.558515625,30.325000000000003,0.6735245624999999,30.93
2021-06-23 16:34:33.578125000,-36.0,5.0,53.0,82.55890624999999,30.69,0.673604625,30.93
2021-06-23 16:34:33.585937500,-36.0,5.0,53.0,82.559296875,30.75,0.6736846875,30.93
2021-06-23 16:34:33.593750000,-36.0,5.0,53.0,82.5596875,30.81,0.67376475,30.93
2021-06-23 16:34:33.601562500,-36.0,5.0,53.0,82.560078125,30.615000000000002,0.6738448125,30.93
2021-06-23 16:34:33.609375000,-36.0,5.0,53.0,82.56046875,30.42,0.673924875,30.93
2021-06-23 16:34:33.617187500,-36.0,5.0,53.0,82.56085937499999,30.03,0.6740049375,30.93
2021-06-23 16:34:33.625000000,-36.0,5.0,53.0,82.56125,29.64,0.674085,30.93
2021-06-23 16:34:33.632812500,-36.0,5.0,53.0,82.561640625,29.155,0.6741650625,30.93
2021-06-23 16:34:33.640625000,-36.0,5.0,53.0,82.56203125,28.67,0.674245125,30.93
2021-06-23 16:34:33.648437500,-36.0,5.0,53.0,82.562421875,28.21,0.6743251875,30.93
2021-06-23 16:34:33.656250000,-36.0,5.0,53.0,82.56281249999999,27.75,0.67440525,30.93
2021-06-23 16:34:33.664062500,-36.0,5.0,53.0,82.563203125,27.395,0.6744853125,30.93
2021-06-23 16:34:33.671875000,-36.0,5.0,53.0,82.56359375,27.04,0.674565375,30.93
2021-06-23 16:34:33.679687500,-36.0,5.0,53.0,82.563984375,26.82,0.6746454375000001,30.93
2021-06-23 16:34:33.687500000,-36.0,5.0,53.0,82.564375,26.6,0.6747255,30.93
2021-06-23 16:34:33.695312500,-36.0,5.0,53.0,82.56476562499999,26.465,0.6748055625,30.93
2021-06-23 16:34:33.703125000,-36.0,5.0,53.0,82.56515625,26.33,0.674885625,30.93
2021-06-23 16:34:33.710937500,-36.0,5.0,53.0,82.565546875,26.159999999999997,0.6749656875,30.93
2021-06-23 16:34:33.718750000,-36.0,5.0,53.0,82.5659375,25.99,0.67504575,30.93
2021-06-23 16:34:33.726562500,-36.0,5.0,53.0,82.566328125,25.659999999999997,0.6751258125,30.93
2021-06-23 16:34:33.734375000,-36.0,5.0,53.0,82.56671874999999,25.33,0.6752058750000001,30.93
2021-06-23 16:34:33.742187500,-36.0,5.0,53.0,82.567109375,24.75,0.6752859375,30.93
2021-06-23 16:34:33.750000000,-36.0,5.0,53.0,82.5675,24.17,0.675366,30.93
2021-06-23 16:34:33.757812500,-36.0,5.0,53.0,82.567890625,23.295,0.67516584375,30.93
2021-06-23 16:34:33.765625000,-36.0,5.0,53.0,82.56828125,22.42,0.6749656875000001,30.93
2021-06-23 16:34:33.773437500,-36.0,5.0,53.0,82.56867187499999,21.265,0.67476553125,30.93
2021-06-23 16:34:33.781250000,-36.0,5.0,53.0,82.5690625,20.11,0.674565375,30.93
2021-06-23 16:34:33.789062500,-36.0,5.0,53.0,82.569453125,18.715,0.67436521875,30.93
2021-06-23 16:34:33.796875000,-36.0,5.0,53.0,82.56984375,17.32,0.6741650625,30.93
2021-06-23 16:34:33.804687500,-36.0,5.0,53.0,82.570234375,15.745000000000001,0.67396490625,30.93
2021-06-23 16:34:33.812500000,-36.0,5.0,53.0,82.57062499999999,14.17,0.67376475,30.93
2021-06-23 16:34:33.820312500,-36.0,5.0,53.0,82.571015625,12.485,0.67356459375,30.93
2021-06-23 16:34:33.828125000,-36.0,5.0,53.0,82.57140625,10.8,0.6733644375000001,30.93
2021-06-23 16:34:33.835937500,-36.0,5.0,53.0,82.571796875,9.095,0.67316428125,30.93
2021-06-23 16:34:33.843750000,-36.0,5.0,53.0,82.5721875,7.39,0.672964125,30.93
2021-06-23 16:34:33.851562500,-36.0,5.0,53.0,82.57257812499999,5.744999999999999,0.67276396875,30.93
2021-06-23 16:34:33.859375000,-36.0,5.0,53.0,82.57296875,4.1,0.6725638125,30.93
2021-06-23 16:34:33.867187500,-36.0,5.0,53.0,82.573359375,2.58,0.67236365625,30.93
2021-06-23 16:34:33.875000000,-36.0,5.0,53.0,82.57375,1.06,0.6721635,30.93
2021-06-23 16:34:33.882812500,-36.0,5.0,53.0,82.574140625,-0.33999999999999986,0.67196334375,30.93
2021-06-23 16:34:33.890625000,-36.0,5.0,53.0,82.57453124999999,-1.74,0.6717631875000001,30.93
2021-06-23 16:34:33.898437500,-36.0,5.0,53.0,82.574921875,-3.075,0.67156303125,30.93
2021-06-23 16:34:33.906250000,-36.0,5.0,53.0,82.5753125,-4.41,0.671362875,30.93
2021-06-23 16:34:33.914062500,-36.0,5.0,53.0,82.575703125,-5.775,0.67116271875,30.93
2021-06-23 16:34:33.921875000,-36.0,5.0,53.0,82.57609375,-7.14,0.6709625625,30.93
2021-06-23 16:34:33.929687500,-36.0,5.0,53.0,82.57648437499999,-8.615,0.67076240625,30.93
2021-06-23 16:34:33.937500000,-36.0,5.0,53.0,82.576875,-10.09,0.67056225,30.93
2021-06-23 16:34:33.945312500,-36.0,5.0,53.0,82.577265625,-11.715,0.67036209375,30.93
2021-06-23 16:34:33.953125000,-36.0,5.0,53.0,82.57765625,-13.34,0.6701619375000001,30.93
2021-06-23 16:34:33.960937500,-36.0,5.0,53.0,82.578046875,-15.105,0.66996178125,30.93
2021-06-23 16:34:33.968750000,-36.0,5.0,53.0,82.57843749999999,-16.87,0.669761625,30.93
2021-06-23 16:34:33.976562500,-36.0,5.0,53.0,82.578828125,-18.69,0.66956146875,30.93
2021-06-23 16:34:33.984375000,-36.0,5.0,53.0,82.57921875,-20.51,0.6693613125,30.93
2021-06-23 16:34:33.992187500,-36.0,5.0,53.0,82.579609375,-22.345,0.66916115625,30.93
2021-06-23 16:34:34.000000000,-36.0,5.0,53.0,82.58,-24.18,0.668961,30.93
2021-06-23 16:34:34.007812500,-36.0,5.0,53.0,82.5803125,-26.015,0.66900103125,30.929375
2021-06-23 16:34:34.015625000,-36.0,5.0,53.0,82.580625,-27.85,0.6690410625000001,30.92875
2021-06-23 16:34:34.023437500,-36.0,5.0,53.0,82.5809375,-29.745,0.66908109375,30.928125
2021-06-23 16:34:34.031250000,-36.0,5.0,53.0,82.58125,-31.64,0.669121125,30.9275
2021-06-23 16:34:34.039062500,-36.0,5.0,53.0,82.5815625,-33.665,0.66916115625,30.926875
2021-06-23 16:34:34.046875000,-36.0,5.0,53.0,82.581875,-35.69,0.6692011875,30.92625
2021-06-23 16:34:34.054687500,-36.0,5.0,53.0,82.5821875,-37.86,0.66924121875,30.925625
2021-06-23 16:34:34.062500000,-36.0,5.0,53.0,82.5825,-40.03,0.66928125,30.925
2021-06-23 16:34:34.070312500,-36.0,5.0,53.0,82.5828125,-42.2,0.66932128125,30.924375
2021-06-23 16:34:34.078125000,-36.0,5.0,53.0,82.583125,-44.37,0.6693613125,30.92375
2021-06-23 16:34:34.085937500,-36.0,5.0,53.0,82.5834375,-46.205,0.66940134375,30.923125
2021-06-23 16:34:34.093750000,-36.0,5.0,53.0,82.58375,-48.04,0.669441375,30.9225
2021-06-23 16:34:34.101562500,-36.0,5.0,53.0,82.5840625,-49.09,0.66948140625,30.921875
2021-06-23 16:34:34.109375000,-36.0,5.0,53.0,82.584375,-50.14,0.6695214375,30.92125
2021-06-23 16:34:34.117187500,-36.0,5.0,53.0,82.5846875,-49.955,0.66956146875,30.920625
2021-06-23 16:34:34.125000000,-36.0,5.0,53.0,82.585,-49.77,0.6696015,30.92
2021-06-23 16:34:34.132812500,-36.0,5.0,53.0,82.5853125,-48.135000000000005,0.66964153125,30.919375
2021-06-23 16:34:34.140625000,-36.0,5.0,53.0,82.585625,-46.5,0.6696815625,30.91875
2021-06-23 16:34:34.148437500,-36.0,5.0,53.0,82.5859375,-43.519999999999996,0.6697215937500001,30.918125
2021-06-23 16:34:34.156250000,-36.0,5.0,53.0,82.58624999999999,-40.54,0.669761625,30.9175
2021-06-23 16:34:34.164062500,-36.0,5.0,53.0,82.5865625,-36.635,0.66980165625,30.916875
2021-06-23 16:34:34.171875000,-36.0,5.0,53.0,82.586875,-32.73,0.6698416875000001,30.91625
2021-06-23 16:34:34.179687500,-36.0,5.0,53.0,82.5871875,-28.49,0.66988171875,30.915625
2021-06-23 16:34:34.187500000,-36.0,5.0,53.0,82.5875,-24.25,0.66992175,30.915
2021-06-23 16:34:34.195312500,-36.0,5.0,53.0,82.5878125,-20.189999999999998,0.66996178125,30.914375
2021-06-23 16:34:34.203125000,-36.0,5.0,53.0,82.588125,-16.13,0.6700018125,30.91375
2021-06-23 16:34:34.210937500,-36.0,5.0,53.0,82.5884375,-12.55,0.67004184375,30.913125
2021-06-23 16:34:34.218750000,-36.0,5.0,53.0,82.58875,-8.97,0.670081875,30.9125
2021-06-23 16:34:34.226562500,-36.0,5.0,53.0,82.5890625,-5.905,0.67012190625,30.911875
2021-06-23 16:34:34.234375000,-36.0,5.0,53.0,82.589375,-2.84,0.6701619375,30.91125
2021-06-23 16:34:34.242187500,-36.0,5.0,53.0,82.5896875,-0.16000000000000014,0.67020196875,30.910625
2021-06-23 16:34:34.250000000,-36.0,5.0,53.0,82.59,2.52,0.670242,30.91
2021-06-23 16:34:34.257812500,-36.0,5.0,53.0,82.5903125,4.960000000000001,0.6701619375,30.91
2021-06-23 16:34:34.265625000,-36.0,5.0,53.0,82.590625,7.4,0.670081875,30.91
2021-06-23 16:34:34.273437500,-36.0,5.0,53.0,82.5909375,9.645,0.6700018125,30.91
2021-06-23 16:34:34.281250000,-36.0,5.0,53.0,82.59125,11.89,0.66992175,30.91
2021-06-23 16:34:34.289062500,-36.0,5.0,53.0,82.5915625,13.86,0.6698416875000001,30.91
2021-06-23 16:34:34.296875000,-36.0,5.0,53.0,82.591875,15.83,0.669761625,30.91
2021-06-23 16:34:34.304687500,-36.0,5.0,53.0,82.5921875,17.39,0.6696815625,30.91
2021-06-23 16:34:34.312500000,-36.0,5.0,53.0,82.5925,18.95,0.6696015,30.91
2021-06-23 16:34:34.320312500,-36.0,5.0,53.0,82.5928125,19.985,0.6695214375,30.91
2021-06-23 16:34:34.328125000,-36.0,5.0,53.0,82.593125,21.02,0.669441375,30.91
2021-06-23 16:34:34.335937500,-36.0,5.0,53.0,82.59343750000001,21.5,0.6693613125,30.91
2021-06-23 16:34:34.343750000,-36.0,5.0,53.0,82.59375,21.98,0.66928125,30.91
2021-06-23 16:34:34.351562500,-36.0,5.0,53.0,82.5940625,22.02,0.6692011875,30.91
2021-06-23 16:34:34.359375000,-36.0,5.0,53.0,82.594375,22.06,0.669121125,30.91
2021-06-23 16:34:34.367187500,-36.0,5.0,53.0,82.5946875,21.835,0.6690410625000001,30.91
2021-06-23 16:34:34.375000000,-36.0,5.0,53.0,82.595,21.61,0.668961,30.91
2021-06-23 16:34:34.382812500,-36.0,5.0,53.0,82.5953125,21.33,0.6688809375,30.91
2021-06-23 16:34:34.390625000,-36.0,5.0,53.0,82.595625,21.05,0.6688008750000001,30.91
2021-06-23 16:34:34.398437500,-36.0,5.0,53.0,82.5959375,20.9,0.6687208125,30.91
2021-06-23 16:34:34.406250000,-36.0,5.0,53.0,82.59625,20.75,0.66864075,30.91
2021-06-23 16:34:34.414062500,-36.0,5.0,53.0,82.5965625,20.810000000000002,0.6685606875000001,30.91
2021-06-23 16:34:34.421875000,-36.0,5.0,53.0,82.596875,20.87,0.668480625,30.91
2021-06-23 16:34:34.429687500,-36.0,5.0,53.0,82.5971875,21.134999999999998,0.6684005625,30.91
2021-06-23 16:34:34.437500000,-36.0,5.0,53.0,82.5975,21.4,0.6683205000000001,30.91
2021-06-23 16:34:34.445312500,-36.0,5.0,53.0,82.5978125,21.785,0.6682404375000001,30.91
2021-06-23 16:34:34.453125000,-36.0,5.0,53.0,82.598125,22.17,0.668160375,30.91
2021-06-23 16:34:34.460937500,-36.0,5.0,53.0,82.5984375,22.55,0.6680803125,30.91
2021-06-23 16:34:34.468750000,-36.0,5.0,53.0,82.59875,22.93,0.6680002500000001,30.91
2021-06-23 16:34:34.476562500,-36.0,5.0,53.0,82.5990625,23.2,0.6679201875,30.91
2021-06-23 16:34:34.484375000,-36.0,5.0,53.0,82.599375,23.47,0.667840125,30.91
2021-06-23 16:34:34.492187500,-36.0,5.0,53.0,82.5996875,23.57,0.6677600625000001,30.91
2021-06-23 16:34:34.500000000,-36.0,5.0,53.0,82.6,23.67,0.66768,30.91
2021-06-23 16:34:34.507812500,-36.0,5.0,53.0,82.6003125,23.54,0.66780009375,30.91
2021-06-23 16:34:34.515625000,-36.0,5.0,53.0,82.60062500000001,23.41,0.6679201875,30.91
2021-06-23 16:34:34.523437500,-36.0,5.0,53.0,82.6009375,23.015,0.66804028125,30.91
2021-06-23 16:34:34.531250000,-36.0,5.0,53.0,82.60125000000001,22.62,0.668160375,30.91
2021-06-23 16:34:34.539062500,-36.0,5.0,53.0,82.6015625,21.925,0.66828046875,30.91
2021-06-23 16:34:34.546875000,-36.0,5.0,53.0,82.601875,21.23,0.6684005625,30.91
2021-06-23 16:34:34.554687500,-36.0,5.0,53.0,82.6021875,20.21,0.66852065625,30.91
2021-06-23 16:34:34.562500000,-36.0,5.0,53.0,82.6025,19.19,0.66864075,30.91
2021-06-23 16:34:34.570312500,-36.0,5.0,53.0,82.6028125,17.875,0.66876084375,30.91
2021-06-23 16:34:34.578125000,-36.0,5.0,53.0,82.603125,16.56,0.6688809375,30.91
2021-06-23 16:34:34.585937500,-36.0,5.0,53.0,82.6034375,15.035,0.66900103125,30.91
2021-06-23 16:34:34.593750000,-36.0,5.0,53.0,82.60375,13.51,0.669121125,30.91
2021-06-23 16:34:34.601562500,-36.0,5.0,53.0,82.6040625,11.899999999999999,0.66924121875,30.91
2021-06-23 16:34:34.609375000,-36.0,5.0,53.0,82.604375,10.29,0.6693613125,30.91
2021-06-23 16:34:34.617187500,-36.0,5.0,53.0,82.6046875,8.725,0.66948140625,30.91
2021-06-23 16:34:34.625000000,-36.0,5.0,53.0,82.605,7.16,0.6696015,30.91
2021-06-23 16:34:34.632812500,-36.0,5.0,53.0,82.6053125,5.705,0.6697215937500001,30.91
2021-06-23 16:34:34.640625000,-36.0,5.0,53.0,82.605625,4.25,0.6698416875000001,30.91
2021-06-23 16:34:34.648437500,-36.0,5.0,53.0,82.6059375,2.92,0.66996178125,30.91
2021-06-23 16:34:34.656250000,-36.0,5.0,53.0,82.60625,1.59,0.670081875,30.91
2021-06-23 16:34:34.664062500,-36.0,5.0,53.0,82.6065625,0.33000000000000007,0.67020196875,30.91
2021-06-23 16:34:34.671875000,-36.0,5.0,53.0,82.606875,-0.93,0.6703220625,30.91
2021-06-23 16:34:34.679687500,-36.0,5.0,53.0,82.60718750000001,-2.195,0.67044215625,30.91
2021-06-23 16:34:34.687500000,-36.0,5.0,53.0,82.6075,-3.46,0.67056225,30.91
2021-06-23 16:34:34.695312500,-36.0,5.0,53.0,82.60781250000001,-4.805,0.67068234375,30.91
2021-06-23 16:34:34.703125000,-36.0,5.0,53.0,82.608125,-6.15,0.6708024375,30.91
2021-06-23 16:34:34.710937500,-36.0,5.0,53.0,82.60843750000001,-7.605,0.67092253125,30.91
2021-06-23 16:34:34.718750000,-36.0,5.0,53.0,82.60875,-9.06,0.671042625,30.91
2021-06-23 16:34:34.726562500,-36.0,5.0,53.0,82.60906250000001,-10.605,0.67116271875,30.91
2021-06-23 16:34:34.734375000,-36.0,5.0,53.0,82.609375,-12.15,0.6712828125,30.91
2021-06-23 16:34:34.742187500,-36.0,5.0,53.0,82.6096875,-13.735,0.67140290625,30.91
2021-06-23 16:34:34.750000000,-36.0,5.0,53.0,82.61,-15.32,0.671523,30.91
2021-06-23 16:34:34.757812500,-36.0,5.0,53.0,82.6103125,-16.905,0.67132284375,30.91
2021-06-23 16:34:34.765625000,-36.0,5.0,53.0,82.610625,-18.49,0.6711226875,30.91
2021-06-23 16:34:34.773437500,-36.0,5.0,53.0,82.6109375,-20.07,0.67092253125,30.91
2021-06-23 16:34:34.781250000,-36.0,5.0,53.0,82.61125,-21.65,0.670722375,30.91
2021-06-23 16:34:34.789062500,-36.0,5.0,53.0,82.6115625,-23.27,0.67052221875,30.91
2021-06-23 16:34:34.796875000,-36.0,5.0,53.0,82.611875,-24.89,0.6703220624999999,30.91
2021-06-23 16:34:34.804687500,-36.0,5.0,53.0,82.6121875,-26.655,0.67012190625,30.91
2021-06-23 16:34:34.812500000,-36.0,5.0,53.0,82.6125,-28.42,0.66992175,30.91
2021-06-23 16:34:34.820312500,-36.0,5.0,53.0,82.6128125,-30.415,0.66972159375,30.91
2021-06-23 16:34:34.828125000,-36.0,5.0,53.0,82.613125,-32.41,0.6695214375,30.91
2021-06-23 16:34:34.835937500,-36.0,5.0,53.0,82.6134375,-34.614999999999995,0.66932128125,30.91
2021-06-23 16:34:34.843750000,-36.0,5.0,53.0,82.61375000000001,-36.82,0.669121125,30.91
2021-06-23 16:34:34.851562500,-36.0,5.0,53.0,82.6140625,-39.045,0.66892096875,30.91
2021-06-23 16:34:34.859375000,-36.0,5.0,53.0,82.61437500000001,-41.27,0.6687208124999999,30.91
2021-06-23 16:34:34.867187500,-36.0,5.0,53.0,82.6146875,-43.14,0.66852065625,30.91
2021-06-23 16:34:34.875000000,-36.0,5.0,53.0,82.61500000000001,-45.01,0.6683205,30.91
2021-06-23 16:34:34.882812500,-36.0,5.0,53.0,82.6153125,-46.065,0.66812034375,30.91
2021-06-23 16:34:34.890625000,-36.0,5.0,53.0,82.61562500000001,-47.12,0.6679201875,30.91
2021-06-23 16:34:34.898437500,-36.0,5.0,53.0,82.6159375,-46.959999999999994,0.66772003125,30.91
2021-06-23 16:34:34.906250000,-36.0,5.0,53.0,82.61625000000001,-46.8,0.667519875,30.91
2021-06-23 16:34:34.914062500,-36.0,5.0,53.0,82.6165625,-45.235,0.66731971875,30.91
2021-06-23 16:34:34.921875000,-36.0,5.0,53.0,82.61687500000001,-43.67,0.6671195624999999,30.91
2021-06-23 16:34:34.929687500,-36.0,5.0,53.0,82.6171875,-40.8,0.66691940625,30.91
2021-06-23 16:34:34.937500000,-36.0,5.0,53.0,82.6175,-37.93,0.66671925,30.91
2021-06-23 16:34:34.945312500,-36.0,5.0,53.0,82.6178125,-34.12,0.66651909375,30.91
2021-06-23 16:34:34.953125000,-36.0,5.0,53.0,82.618125,-30.31,0.6663189375,30.91
2021-06-23 16:34:34.960937500,-36.0,5.0,53.0,82.6184375,-26.055,0.66611878125,30.91
2021-06-23 16:34:34.968750000,-36.0,5.0,53.0,82.61875,-21.8,0.665918625,30.91
2021-06-23 16:34:34.976562500,-36.0,5.0,53.0,82.6190625,-17.6,0.66571846875,30.91
2021-06-23 16:34:34.984375000,-36.0,5.0,53.0,82.619375,-13.4,0.6655183124999999,30.91
2021-06-23 16:34:34.992187500,-36.0,5.0,53.0,82.6196875,-9.595,0.66531815625,30.91
2021-06-23 16:34:35.000000000,-36.0,5.0,53.0,82.62,-5.79,0.665118,30.91
2021-06-23 16:34:35.007812500,-36.0,5.0,53.0,82.620078125,-2.545,0.66523809375,30.909375
2021-06-23 16:34:35.015625000,-36.0,5.0,53.0,82.62015625000001,0.7,0.6653581875,30.90875
2021-06-23 16:34:35.023437500,-36.0,5.0,53.0,82.62023437500001,3.3549999999999995,0.66547828125,30.908125000000002
2021-06-23 16:34:35.031250000,-36.0,5.0,53.0,82.62031250000001,6.01,0.665598375,30.9075
2021-06-23 16:34:35.039062500,-36.0,5.0,53.0,82.620390625,8.129999999999999,0.66571846875,30.906875
2021-06-23 16:34:35.046875000,-36.0,5.0,53.0,82.62046875,10.25,0.6658385625,30.90625
2021-06-23 16:34:35.054687500,-36.0,5.0,53.0,82.620546875,11.875,0.66595865625,30.905625
2021-06-23 16:34:35.062500000,-36.0,5.0,53.0,82.620625,13.5,0.66607875,30.905
2021-06-23 16:34:35.070312500,-36.0,5.0,53.0,82.620703125,14.64,0.66619884375,30.904375
2021-06-23 16:34:35.078125000,-36.0,5.0,53.0,82.62078125000001,15.78,0.6663189375,30.90375
2021-06-23 16:34:35.085937500,-36.0,5.0,53.0,82.62085937500001,16.425,0.66643903125,30.903125
2021-06-23 16:34:35.093750000,-36.0,5.0,53.0,82.6209375,17.07,0.666559125,30.9025
2021-06-23 16:34:35.101562500,-36.0,5.0,53.0,82.621015625,17.259999999999998,0.66667921875,30.901875
2021-06-23 16:34:35.109375000,-36.0,5.0,53.0,82.62109375,17.45,0.6667993125,30.90125
2021-06-23 16:34:35.117187500,-36.0,5.0,53.0,82.621171875,17.305,0.66691940625,30.900625
2021-06-23 16:34:35.125000000,-36.0,5.0,53.0,82.62125,17.16,0.6670395,30.9
2021-06-23 16:34:35.132812500,-36.0,5.0,53.0,82.621328125,16.875,0.66715959375,30.899375
2021-06-23 16:34:35.140625000,-36.0,5.0,53.0,82.62140625,16.59,0.6672796875,30.89875
2021-06-23 16:34:35.148437500,-36.0,5.0,53.0,82.62148437500001,16.380000000000003,0.66739978125,30.898125
2021-06-23 16:34:35.156250000,-36.0,5.0,53.0,82.62156250000001,16.17,0.667519875,30.8975
2021-06-23 16:34:35.164062500,-36.0,5.0,53.0,82.621640625,16.200000000000003,0.66763996875,30.896875
2021-06-23 16:34:35.171875000,-36.0,5.0,53.0,82.62171875,16.23,0.6677600625,30.896250000000002
2021-06-23 16:34:35.179687500,-36.0,5.0,53.0,82.621796875,16.560000000000002,0.66788015625,30.895625
2021-06-23 16:34:35.187500000,-36.0,5.0,53.0,82.621875,16.89,0.66800025,30.895
2021-06-23 16:34:35.195312500,-36.0,5.0,53.0,82.621953125,17.485,0.6681203437500001,30.894375
2021-06-23 16:34:35.203125000,-36.0,5.0,53.0,82.62203125,18.08,0.6682404375000001,30.89375
2021-06-23 16:34:35.210937500,-36.0,5.0,53.0,82.62210937500001,18.814999999999998,0.6683605312500001,30.893125
2021-06-23 16:34:35.218750000,-36.0,5.0,53.0,82.6221875,19.55,0.668480625,30.892500000000002
2021-06-23 16:34:35.226562500,-36.0,5.0,53.0,82.622265625,20.28,0.66860071875,30.891875
2021-06-23 16:34:35.234375000,-36.0,5.0,53.0,82.62234375,21.01,0.6687208125,30.89125
2021-06-23 16:34:35.242187500,-36.0,5.0,53.0,82.622421875,21.560000000000002,0.66884090625,30.890625
2021-06-23 16:34:35.250000000,-36.0,5.0,53.0,82.6225,22.11,0.668961,30.89
2021-06-23 16:34:35.257812500,-36.0,5.0,53.0,82.622578125,22.325,0.66876084375,30.89
2021-06-23 16:34:35.265625000,-36.0,5.0,53.0,82.62265625,22.54,0.6685606875000001,30.89
2021-06-23 16:34:35.273437500,-36.0,5.0,53.0,82.62273437500001,22.29,0.6683605312500001,30.89
2021-06-23 16:34:35.281250000,-36.0,5.0,53.0,82.62281250000001,22.04,0.668160375,30.89
2021-06-23 16:34:35.289062500,-36.0,5.0,53.0,82.622890625,21.255,0.66796021875,30.89
2021-06-23 16:34:35.296875000,-36.0,5.0,53.0,82.62296875,20.47,0.6677600625,30.89
2021-06-23 16:34:35.304687500,-36.0,5.0,53.0,82.623046875,19.17,0.6675599062500001,30.89
2021-06-23 16:34:35.312500000,-36.0,5.0,53.0,82.623125,17.87,0.66735975,30.89
2021-06-23 16:34:35.320312500,-36.0,5.0,53.0,82.623203125,16.17,0.66715959375,30.89
2021-06-23 16:34:35.328125000,-36.0,5.0,53.0,82.62328125,14.47,0.6669594375000001,30.89
2021-06-23 16:34:35.335937500,-36.0,5.0,53.0,82.623359375,12.575,0.6667592812500001,30.89
2021-06-23 16:34:35.343750000,-36.0,5.0,53.0,82.6234375,10.68,0.666559125,30.89
2021-06-23 16:34:35.351562500,-36.0,5.0,53.0,82.623515625,8.77,0.66635896875,30.89
2021-06-23 16:34:35.359375000,-36.0,5.0,53.0,82.62359375,6.86,0.6661588125,30.89
2021-06-23 16:34:35.367187500,-36.0,5.0,53.0,82.623671875,5.055,0.6659586562500001,30.89
2021-06-23 16:34:35.375000000,-36.0,5.0,53.0,82.62375,3.25,0.6657585,30.89
2021-06-23 16:34:35.382812500,-36.0,5.0,53.0,82.623828125,1.565,0.66555834375,30.89
2021-06-23 16:34:35.390625000,-36.0,5.0,53.0,82.62390625,-0.12,0.6653581875000001,30.89
2021-06-23 16:34:35.398437500,-36.0,5.0,53.0,82.623984375,-1.725,0.6651580312500001,30.89
2021-06-23 16:34:35.406250000,-36.0,5.0,53.0,82.62406250000001,-3.33,0.664957875,30.89
2021-06-23 16:34:35.414062500,-36.0,5.0,53.0,82.624140625,-4.92,0.66475771875,30.89
2021-06-23 16:34:35.421875000,-36.0,5.0,53.0,82.62421875,-6.51,0.6645575625,30.89
2021-06-23 16:34:35.429687500,-36.0,5.0,53.0,82.624296875,-8.07,0.6643574062500001,30.89
2021-06-23 16:34:35.437500000,-36.0,5.0,53.0,82.624375,-9.63,0.66415725,30.89
2021-06-23 16:34:35.445312500,-36.0,5.0,53.0,82.624453125,-11.120000000000001,0.66395709375,30.89
2021-06-23 16:34:35.453125000,-36.0,5.0,53.0,82.62453125,-12.61,0.6637569375000001,30.89
2021-06-23 16:34:35.460937500,-36.0,5.0,53.0,82.624609375,-13.969999999999999,0.6635567812500001,30.89
2021-06-23 16:34:35.468750000,-36.0,5.0,53.0,82.6246875,-15.33,0.663356625,30.89
2021-06-23 16:34:35.476562500,-36.0,5.0,53.0,82.624765625,-16.53,0.66315646875,30.89
2021-06-23 16:34:35.484375000,-36.0,5.0,53.0,82.62484375,-17.73,0.6629563125,30.89
2021-06-23 16:34:35.492187500,-36.0,5.0,53.0,82.624921875,-18.82,0.6627561562500001,30.89
2021-06-23 16:34:35.500000000,-36.0,5.0,53.0,82.625,-19.91,0.662556,30.89
2021-06-23 16:34:35.507812500,-36.0,5.0,53.0,82.625078125,-20.975,0.6626360625000001,30.89
2021-06-23 16:34:35.515625000,-36.0,5.0,53.0,82.62515625,-22.04,0.662716125,30.89
2021-06-23 16:34:35.523437500,-36.0,5.0,53.0,82.625234375,-23.22,0.6627961875,30.89
2021-06-23 16:34:35.531250000,-36.0,5.0,53.0,82.6253125,-24.4,0.6628762500000001,30.89
2021-06-23 16:34:35.539062500,-36.0,5.0,53.0,82.625390625,-25.805,0.6629563125,30.89
2021-06-23 16:34:35.546875000,-36.0,5.0,53.0,82.62546875,-27.21,0.663036375,30.89
2021-06-23 16:34:35.554687500,-36.0,5.0,53.0,82.625546875,-28.915,0.6631164375,30.89
2021-06-23 16:34:35.562500000,-36.0,5.0,53.0,82.625625,-30.62,0.6631965,30.89
2021-06-23 16:34:35.570312500,-36.0,5.0,53.0,82.625703125,-32.645,0.6632765625,30.89
2021-06-23 16:34:35.578125000,-36.0,5.0,53.0,82.62578125,-34.67,0.663356625,30.89
2021-06-23 16:34:35.585937500,-36.0,5.0,53.0,82.625859375,-36.93,0.6634366875000001,30.89
2021-06-23 16:34:35.593750000,-36.0,5.0,53.0,82.62593749999999,-39.19,0.66351675,30.89
2021-06-23 16:34:35.601562500,-36.0,5.0,53.0,82.626015625,-41.44,0.6635968125,30.89
2021-06-23 16:34:35.609375000,-36.0,5.0,53.0,82.62609375,-43.69,0.663676875,30.89
2021-06-23 16:34:35.617187500,-36.0,5.0,53.0,82.626171875,-45.57,0.6637569375,30.89
2021-06-23 16:34:35.625000000,-36.0,5.0,53.0,82.62625,-47.45,0.663837,30.89
2021-06-23 16:34:35.632812500,-36.0,5.0,53.0,82.626328125,-48.53,0.6639170625,30.89
2021-06-23 16:34:35.640625000,-36.0,5.0,53.0,82.62640625,-49.61,0.663997125,30.89
2021-06-23 16:34:35.648437500,-36.0,5.0,53.0,82.626484375,-49.51,0.6640771875,30.89
2021-06-23 16:34:35.656250000,-36.0,5.0,53.0,82.6265625,-49.41,0.66415725,30.89
2021-06-23 16:34:35.664062500,-36.0,5.0,53.0,82.626640625,-47.959999999999994,0.6642373125,30.89
2021-06-23 16:34:35.671875000,-36.0,5.0,53.0,82.62671875,-46.51,0.664317375,30.89
2021-06-23 16:34:35.679687500,-36.0,5.0,53.0,82.626796875,-43.79,0.6643974375,30.89
2021-06-23 16:34:35.687500000,-36.0,5.0,53.0,82.626875,-41.07,0.6644775,30.89
2021-06-23 16:34:35.695312500,-36.0,5.0,53.0,82.626953125,-37.43,0.6645575625,30.89
2021-06-23 16:34:35.703125000,-36.0,5.0,53.0,82.62703125,-33.79,0.664637625,30.89
2021-06-23 16:34:35.710937500,-36.0,5.0,53.0,82.627109375,-29.695,0.6647176875,30.89
2021-06-23 16:34:35.718750000,-36.0,5.0,53.0,82.62718749999999,-25.6,0.66479775,30.89
2021-06-23 16:34:35.726562500,-36.0,5.0,53.0,82.62726562499999,-21.535,0.6648778125,30.89
2021-06-23 16:34:35.734375000,-36.0,5.0,53.0,82.62734375,-17.47,0.664957875,30.89
2021-06-23 16:34:35.742187500,-36.0,5.0,53.0,82.627421875,-13.785,0.6650379375,30.89
2021-06-23 16:34:35.750000000,-36.0,5.0,53.0,82.6275,-10.1,0.665118,30.89
2021-06-23 16:34:35.757812500,-36.0,5.0,53.0,82.627578125,-6.965,0.664997875,30.89
2021-06-23 16:34:35.765625000,-36.0,5.0,53.0,82.62765625,-3.83,0.66487775,30.89
2021-06-23 16:34:35.773437500,-36.0,5.0,53.0,82.627734375,-1.2800000000000002,0.664757625,30.89
2021-06-23 16:34:35.781250000,-36.0,5.0,53.0,82.6278125,1.27,0.6646375,30.89
2021-06-23 16:34:35.789062500,-36.0,5.0,53.0,82.62789062499999,3.315,0.664517375,30.89
2021-06-23 16:34:35.796875000,-36.0,5.0,53.0,82.62796875,5.36,0.6643972499999999,30.89
2021-06-23 16:34:35.804687500,-36.0,5.0,53.0,82.628046875,7.0,0.664277125,30.89
2021-06-23 16:34:35.812500000,-36.0,5.0,53.0,82.628125,8.64,0.664157,30.89
2021-06-23 16:34:35.820312500,-36.0,5.0,53.0,82.628203125,9.955,0.664036875,30.89
2021-06-23 16:34:35.828125000,-36.0,5.0,53.0,82.62828125,11.27,0.66391675,30.89
2021-06-23 16:34:35.835937500,-36.0,5.0,53.0,82.628359375,12.32,0.663796625,30.89
2021-06-23 16:34:35.843750000,-36.0,5.0,53.0,82.62843749999999,13.37,0.6636765,30.89
2021-06-23 16:34:35.851562500,-36.0,5.0,53.0,82.62851562499999,14.17,0.663556375,30.89
2021-06-23 16:34:35.859375000,-36.0,5.0,53.0,82.62859375,14.97,0.66343625,30.89
2021-06-23 16:34:35.867187500,-36.0,5.0,53.0,82.628671875,15.545000000000002,0.663316125,30.89
2021-06-23 16:34:35.875000000,-36.0,5.0,53.0,82.62875,16.12,0.663196,30.89
2021-06-23 16:34:35.882812500,-36.0,5.0,53.0,82.628828125,16.490000000000002,0.663075875,30.89
2021-06-23 16:34:35.890625000,-36.0,5.0,53.0,82.62890625,16.86,0.6629557500000001,30.89
2021-06-23 16:34:35.898437500,-36.0,5.0,53.0,82.628984375,17.064999999999998,0.662835625,30.89
2021-06-23 16:34:35.906250000,-36.0,5.0,53.0,82.6290625,17.27,0.6627155,30.89
2021-06-23 16:34:35.914062500,-36.0,5.0,53.0,82.62914062499999,17.38,0.662595375,30.89
2021-06-23 16:34:35.921875000,-36.0,5.0,53.0,82.62921874999999,17.49,0.66247525,30.89
2021-06-23 16:34:35.929687500,-36.0,5.0,53.0,82.629296875,17.575,0.662355125,30.89
2021-06-23 16:34:35.937500000,-36.0,5.0,53.0,82.629375,17.66,0.662235,30.89
2021-06-23 16:34:35.945312500,-36.0,5.0,53.0,82.629453125,17.78,0.662114875,30.89
2021-06-23 16:34:35.953125000,-36.0,5.0,53.0,82.62953125,17.9,0.6619947500000001,30.89
2021-06-23 16:34:35.960937500,-36.0,5.0,53.0,82.629609375,18.085,0.661874625,30.89
2021-06-23 16:34:35.968750000,-36.0,5.0,53.0,82.62968749999999,18.27,0.6617545,30.89
2021-06-23 16:34:35.976562500,-36.0,5.0,53.0,82.62976562499999,18.490000000000002,0.661634375,30.89
2021-06-23 16:34:35.984375000,-36.0,5.0,53.0,82.62984374999999,18.71,0.66151425,30.89
2021-06-23 16:34:35.992187500,-36.0,5.0,53.0,82.629921875,18.884999999999998,0.661394125,30.89
2021-06-23 16:34:36.000000000,-36.0,5.0,53.0,82.63,19.06,0.661274,30.89
2021-06-23 16:34:36.007812500,-36.0,5.0,53.0,82.63,19.085,0.661394125,30.89125
2021-06-23 16:34:36.015625000,-36.0,5.0,53.0,82.63,19.11,0.66151425,30.892500000000002
2021-06-23 16:34:36.023437500,-36.0,5.0,53.0,82.63,18.895,0.661634375,30.89375
2021-06-23 16:34:36.031250000,-36.0,5.0,53.0,82.63,18.68,0.6617545,30.895
2021-06-23 16:34:36.039062500,-36.0,5.0,53.0,82.63,18.17,0.661874625,30.896250000000002
2021-06-23 16:34:36.046875000,-36.0,5.0,53.0,82.63,17.66,0.6619947500000001,30.8975
2021-06-23 16:34:36.054687500,-36.0,5.0,53.0,82.63,16.895,0.662114875,30.89875
2021-06-23 16:34:36.062500000,-36.0,5.0,53.0,82.63,16.13,0.662235,30.9
2021-06-23 16:34:36.070312500,-36.0,5.0,53.0,82.63,15.175,0.662355125,30.90125
2021-06-23 16:34:36.078125000,-36.0,5.0,53.0,82.63,14.22,0.66247525,30.9025
2021-06-23 16:34:36.085937500,-36.0,5.0,53.0,82.63,13.165,0.662595375,30.90375
2021-06-23 16:34:36.093750000,-36.0,5.0,53.0,82.63,12.11,0.6627155,30.905
2021-06-23 16:34:36.101562500,-36.0,5.0,53.0,82.63,11.02,0.662835625,30.90625
2021-06-23 16:34:36.109375000,-36.0,5.0,53.0,82.63,9.93,0.6629557500000001,30.9075
2021-06-23 16:34:36.117187500,-36.0,5.0,53.0,82.63,8.81,0.663075875,30.90875
2021-06-23 16:34:36.125000000,-36.0,5.0,53.0,82.63,7.69,0.663196,30.91
2021-06-23 16:34:36.132812500,-36.0,5.0,53.0,82.63,6.5,0.663316125,30.91125
2021-06-23 16:34:36.140625000,-36.0,5.0,53.0,82.63,5.31,0.66343625,30.9125
2021-06-23 16:34:36.148437500,-36.0,5.0,53.0,82.63,4.015,0.663556375,30.91375
2021-06-23 16:34:36.156250000,-36.0,5.0,53.0,82.63,2.72,0.6636765,30.915
2021-06-23 16:34:36.164062500,-36.0,5.0,53.0,82.63,1.32,0.663796625,30.91625
2021-06-23 16:34:36.171875000,-36.0,5.0,53.0,82.63,-0.08,0.66391675,30.9175
2021-06-23 16:34:36.179687500,-36.0,5.0,53.0,82.63,-1.54,0.664036875,30.91875
2021-06-23 16:34:36.187500000,-36.0,5.0,53.0,82.63,-3.0,0.664157,30.92
2021-06-23 16:34:36.195312500,-36.0,5.0,53.0,82.63,-4.45,0.664277125,30.92125
2021-06-23 16:34:36.203125000,-36.0,5.0,53.0,82.63,-5.9,0.6643972499999999,30.9225
2021-06-23 16:34:36.210937500,-36.0,5.0,53.0,82.63,-7.3,0.664517375,30.92375
2021-06-23 16:34:36.218750000,-36.0,5.0,53.0,82.63,-8.7,0.6646375,30.925
2021-06-23 16:34:36.226562500,-36.0,5.0,53.0,82.63,-10.05,0.664757625,30.92625
2021-06-23 16:34:36.234375000,-36.0,5.0,53.0,82.63,-11.4,0.66487775,30.9275
2021-06-23 16:34:36.242187500,-36.0,5.0,53.0,82.63,-12.76,0.664997875,30.92875
2021-06-23 16:34:36.250000000,-36.0,5.0,53.0,82.63,-14.12,0.665118,30.93
2021-06-23 16:34:36.257812500,-36.0,5.0,53.0,82.63,-15.54,0.6649178125,30.93
2021-06-23 16:34:36.265625000,-36.0,5.0,53.0,82.63,-16.96,0.664717625,30.93
2021-06-23 16:34:36.273437500,-36.0,5.0,53.0,82.63,-18.495,0.6645174375,30.93
2021-06-23 16:34:36.281250000,-36.0,5.0,53.0,82.63,-20.03,0.66431725,30.93
2021-06-23 16:34:36.289062500,-36.0,5.0,53.0,82.63,-21.700000000000003,0.6641170625,30.93
2021-06-23 16:34:36.296875000,-36.0,5.0,53.0,82.63,-23.37,0.663916875,30.93
2021-06-23 16:34:36.304687500,-36.0,5.0,53.0,82.63,-25.195,0.6637166875,30.93
2021-06-23 16:34:36.312500000,-36.0,5.0,53.0,82.63,-27.02,0.6635165,30.93
2021-06-23 16:34:36.320312500,-36.0,5.0,53.0,82.63,-29.03,0.6633163125,30.93
2021-06-23 16:34:36.328125000,-36.0,5.0,53.0,82.63,-31.04,0.663116125,30.93
2021-06-23 16:34:36.335937500,-36.0,5.0,53.0,82.63,-33.25,0.6629159375,30.93
2021-06-23 16:34:36.343750000,-36.0,5.0,53.0,82.63,-35.46,0.6627157499999999,30.93
2021-06-23 16:34:36.351562500,-36.0,5.0,53.0,82.63,-37.84,0.6625155625,30.93
2021-06-23 16:34:36.359375000,-36.0,5.0,53.0,82.63,-40.22,0.6623153749999999,30.93
2021-06-23 16:34:36.367187500,-36.0,5.0,53.0,82.63,-42.61,0.6621151875,30.93
2021-06-23 16:34:36.375000000,-36.0,5.0,53.0,82.63,-45.0,0.661915,30.93
2021-06-23 16:34:36.382812500,-36.0,5.0,53.0,82.63,-47.114999999999995,0.6617148125,30.93
2021-06-23 16:34:36.390625000,-36.0,5.0,53.0,82.63,-49.23,0.661514625,30.93
2021-06-23 16:34:36.398437500,-36.0,5.0,53.0,82.63,-50.675,0.6613144375,30.93
2021-06-23 16:34:36.406250000,-36.0,5.0,53.0,82.63,-52.12,0.66111425,30.93
2021-06-23 16:34:36.414062500,-36.0,5.0,53.0,82.63,-52.504999999999995,0.6609140625,30.93
2021-06-23 16:34:36.421875000,-36.0,5.0,53.0,82.63,-52.89,0.660713875,30.93
2021-06-23 16:34:36.429687500,-36.0,5.0,53.0,82.63,-51.96,0.6605136875,30.93
2021-06-23 16:34:36.437500000,-36.0,5.0,53.0,82.63,-51.03,0.6603135,30.93
2021-06-23 16:34:36.445312500,-36.0,5.0,53.0,82.63,-48.760000000000005,0.6601133124999999,30.93
2021-06-23 16:34:36.453125000,-36.0,5.0,53.0,82.63,-46.49,0.659913125,30.93
2021-06-23 16:34:36.460937500,-36.0,5.0,53.0,82.63,-43.11,0.6597129374999999,30.93
2021-06-23 16:34:36.468750000,-36.0,5.0,53.0,82.63,-39.73,0.65951275,30.93
2021-06-23 16:34:36.476562500,-36.0,5.0,53.0,82.63,-35.67,0.6593125624999999,30.93
2021-06-23 16:34:36.484375000,-36.0,5.0,53.0,82.63,-31.61,0.659112375,30.93
2021-06-23 16:34:36.492187500,-36.0,5.0,53.0,82.63,-27.34,0.6589121874999999,30.93
2021-06-23 16:34:36.500000000,-36.0,5.0,53.0,82.63,-23.07,0.658712,30.93
2021-06-23 16:34:36.507812500,-36.0,5.0,53.0,82.63,-19.015,0.6587920625,30.93
2021-06-23 16:34:36.515625000,-36.0,5.0,53.0,82.63,-14.96,0.6588721249999999,30.93
2021-06-23 16:34:36.523437500,-36.0,5.0,53.0,82.63,-11.365,0.6589521875,30.93
2021-06-23 16:34:36.531250000,-36.0,5.0,53.0,82.63,-7.77,0.65903225,30.93
2021-06-23 16:34:36.539062500,-36.0,5.0,53.0,82.63,-4.72,0.6591123125,30.93
2021-06-23 16:34:36.546875000,-36.0,5.0,53.0,82.63,-1.67,0.6591923749999999,30.93
2021-06-23 16:34:36.554687500,-36.0,5.0,53.0,82.63,0.8700000000000001,0.6592724375,30.93
2021-06-23 16:34:36.562500000,-36.0,5.0,53.0,82.63,3.41,0.6593525,30.93
2021-06-23 16:34:36.570312500,-36.0,5.0,53.0,82.63,5.505,0.6594325624999999,30.93
2021-06-23 16:34:36.578125000,-36.0,5.0,53.0,82.63,7.6,0.659512625,30.93
2021-06-23 16:34:36.585937500,-36.0,5.0,53.0,82.63,9.29,0.6595926875,30.93
2021-06-23 16:34:36.593750000,-36.0,5.0,53.0,82.63,10.98,0.65967275,30.93
2021-06-23 16:34:36.601562500,-36.0,5.0,53.0,82.63,12.275,0.6597528125,30.93
2021-06-23 16:34:36.609375000,-36.0,5.0,53.0,82.63,13.57,0.659832875,30.93
2021-06-23 16:34:36.617187500,-36.0,5.0,53.0,82.63,14.475000000000001,0.6599129375,30.93
2021-06-23 16:34:36.625000000,-36.0,5.0,53.0,82.63,15.38,0.659993,30.93
2021-06-23 16:34:36.632812500,-36.0,5.0,53.0,82.63,15.955000000000002,0.6600730625,30.93
2021-06-23 16:34:36.640625000,-36.0,5.0,53.0,82.63,16.53,0.660153125,30.93
2021-06-23 16:34:36.648437500,-36.0,5.0,53.0,82.63,16.880000000000003,0.6602331875,30.93
2021-06-23 16:34:36.656250000,-36.0,5.0,53.0,82.63,17.23,0.66031325,30.93
2021-06-23 16:34:36.664062500,-36.0,5.0,53.0,82.63,17.5,0.6603933125,30.93
2021-06-23 16:34:36.671875000,-36.0,5.0,53.0,82.63,17.77,0.660473375,30.93
2021-06-23 16:34:36.679687500,-36.0,5.0,53.0,82.63,18.08,0.6605534375000001,30.93
2021-06-23 16:34:36.687500000,-36.0,5.0,53.0,82.63,18.39,0.6606335,30.93
2021-06-23 16:34:36.695312500,-36.0,5.0,53.0,82.63,18.785,0.6607135625,30.93
2021-06-23 16:34:36.703125000,-36.0,5.0,53.0,82.63,19.18,0.660793625,30.93
2021-06-23 16:34:36.710937500,-36.0,5.0,53.0,82.63,19.615000000000002,0.6608736875,30.93
2021-06-23 16:34:36.718750000,-36.0,5.0,53.0,82.63,20.05,0.66095375,30.93
2021-06-23 16:34:36.726562500,-36.0,5.0,53.0,82.63,20.445,0.6610338125,30.93
2021-06-23 16:34:36.734375000,-36.0,5.0,53.0,82.63,20.84,0.6611138750000001,30.93
2021-06-23 16:34:36.742187500,-36.0,5.0,53.0,82.63,21.075,0.6611939375,30.93
2021-06-23 16:34:36.750000000,-36.0,5.0,53.0,82.63,21.31,0.661274,30.93
2021-06-23 16:34:36.757812500,-36.0,5.0,53.0,82.63,21.34,0.6611939375,30.93
2021-06-23 16:34:36.765625000,-36.0,5.0,53.0,82.63,21.37,0.6611138750000001,30.93
2021-06-23 16:34:36.773437500,-36.0,5.0,53.0,82.63,21.200000000000003,0.6610338125,30.93
2021-06-23 16:34:36.781250000,-36.0,5.0,53.0,82.63,21.03,0.66095375,30.93
2021-06-23 16:34:36.789062500,-36.0,5.0,53.0,82.63,20.705,0.6608736875,30.93
2021-06-23 16:34:36.796875000,-36.0,5.0,53.0,82.63,20.38,0.660793625,30.93
2021-06-23 16:34:36.804687500,-36.0,5.0,53.0,82.63,19.97,0.6607135625,30.93
2021-06-23 16:34:36.812500000,-36.0,5.0,53.0,82.63,19.56,0.6606335,30.93
2021-06-23 16:34:36.820312500,-36.0,5.0,53.0,82.63,19.085,0.6605534375000001,30.93
2021-06-23 16:34:36.828125000,-36.0,5.0,53.0,82.63,18.61,0.660473375,30.93
2021-06-23 16:34:36.835937500,-36.0,5.0,53.0,82.63,18.07,0.6603933125,30.93
2021-06-23 16:34:36.843750000,-36.0,5.0,53.0,82.63,17.53,0.66031325,30.93
2021-06-23 16:34:36.851562500,-36.0,5.0,53.0,82.63,16.865000000000002,0.6602331875,30.93
2021-06-23 16:34:36.859375000,-36.0,5.0,53.0,82.63,16.2,0.660153125,30.93
2021-06-23 16:34:36.867187500,-36.0,5.0,53.0,82.63,15.355,0.6600730625,30.93
2021-06-23 16:34:36.875000000,-36.0,5.0,53.0,82.63,14.51,0.659993,30.93
2021-06-23 16:34:36.882812500,-36.0,5.0,53.0,82.63,13.445,0.6599129375,30.93
2021-06-23 16:34:36.890625000,-36.0,5.0,53.0,82.63,12.38,0.659832875,30.93
2021-06-23 16:34:36.898437500,-36.0,5.0,53.0,82.63,11.100000000000001,0.6597528125,30.93
2021-06-23 16:34:36.906250000,-36.0,5.0,53.0,82.63,9.82,0.65967275,30.93
2021-06-23 16:34:36.914062500,-36.0,5.0,53.0,82.63,8.370000000000001,0.6595926875,30.93
2021-06-23 16:34:36.921875000,-36.0,5.0,53.0,82.63,6.92,0.659512625,30.93
2021-06-23 16:34:36.929687500,-36.0,5.0,53.0,82.63,5.37,0.6594325624999999,30.93
2021-06-23 16:34:36.937500000,-36.0,5.0,53.0,82.63,3.82,0.6593525,30.93
2021-06-23 16:34:36.945312500,-36.0,5.0,53.0,82.63,2.2249999999999996,0.6592724375,30.93
2021-06-23 16:34:36.953125000,-36.0,5.0,53.0,82.63,0.63,0.6591923749999999,30.93
2021-06-23 16:34:36.960937500,-36.0,5.0,53.0,82.63,-0.975,0.6591123125,30.93
2021-06-23 16:34:36.968750000,-36.0,5.0,53.0,82.63,-2.58,0.65903225,30.93
2021-06-23 16:34:36.976562500,-36.0,5.0,53.0,82.63,-4.165,0.6589521875,30.93
2021-06-23 16:34:36.984375000,-36.0,5.0,53.0,82.63,-5.75,0.6588721249999999,30.93
2021-06-23 16:34:36.992187500,-36.0,5.0,53.0,82.63,-7.305,0.6587920625,30.93
2021-06-23 16:34:37.000000000,-36.0,5.0,53.0,82.63,-8.86,0.658712,30.93
2021-06-23 16:34:37.007812500,-36.0,5.0,53.0,82.629921875,-10.36,0.6587920625,30.92875
2021-06-23 16:34:37.015625000,-36.0,5.0,53.0,82.62984374999999,-11.86,0.6588721249999999,30.9275
2021-06-23 16:34:37.023437500,-36.0,5.0,53.0,82.62976562499999,-13.274999999999999,0.6589521875,30.92625
2021-06-23 16:34:37.031250000,-36.0,5.0,53.0,82.62968749999999,-14.69,0.65903225,30.925
2021-06-23 16:34:37.039062500,-36.0,5.0,53.0,82.629609375,-16.009999999999998,0.6591123125,30.92375
2021-06-23 16:34:37.046875000,-36.0,5.0,53.0,82.62953125,-17.33,0.6591923749999999,30.9225
2021-06-23 16:34:37.054687500,-36.0,5.0,53.0,82.629453125,-18.58,0.6592724375,30.92125
2021-06-23 16:34:37.062500000,-36.0,5.0,53.0,82.629375,-19.83,0.6593525,30.92
2021-06-23 16:34:37.070312500,-36.0,5.0,53.0,82.629296875,-21.09,0.6594325624999999,30.91875
2021-06-23 16:34:37.078125000,-36.0,5.0,53.0,82.62921874999999,-22.35,0.659512625,30.9175
2021-06-23 16:34:37.085937500,-36.0,5.0,53.0,82.62914062499999,-23.770000000000003,0.6595926875,30.91625
2021-06-23 16:34:37.093750000,-36.0,5.0,53.0,82.6290625,-25.19,0.65967275,30.915
2021-06-23 16:34:37.101562500,-36.0,5.0,53.0,82.628984375,-26.92,0.6597528125,30.91375
2021-06-23 16:34:37.109375000,-36.0,5.0,53.0,82.62890625,-28.65,0.659832875,30.9125
2021-06-23 16:34:37.117187500,-36.0,5.0,53.0,82.628828125,-30.82,0.6599129375,30.91125
2021-06-23 16:34:37.125000000,-36.0,5.0,53.0,82.62875,-32.99,0.659993,30.91
2021-06-23 16:34:37.132812500,-36.0,5.0,53.0,82.628671875,-35.58,0.6600730625,30.90875
2021-06-23 16:34:37.140625000,-36.0,5.0,53.0,82.62859375,-38.17,0.660153125,30.9075
2021-06-23 16:34:37.148437500,-36.0,5.0,53.0,82.62851562499999,-40.965,0.6602331875,30.90625
2021-06-23 16:34:37.156250000,-36.0,5.0,53.0,82.62843749999999,-43.76,0.66031325,30.905
2021-06-23 16:34:37.164062500,-36.0,5.0,53.0,82.628359375,-46.33,0.6603933125,30.90375
2021-06-23 16:34:37.171875000,-36.0,5.0,53.0,82.62828125,-48.9,0.660473375,30.9025
2021-06-23 16:34:37.179687500,-36.0,5.0,53.0,82.628203125,-50.705,0.6605534375000001,30.90125
2021-06-23 16:34:37.187500000,-36.0,5.0,53.0,82.628125,-52.51,0.6606335,30.9
2021-06-23 16:34:37.195312500,-36.0,5.0,53.0,82.628046875,-53.03,0.6607135625,30.89875
2021-06-23 16:34:37.203125000,-36.0,5.0,53.0,82.62796875,-53.55,0.660793625,30.8975
2021-06-23 16:34:37.210937500,-36.0,5.0,53.0,82.62789062499999,-52.504999999999995,0.6608736875,30.896250000000002
2021-06-23 16:34:37.218750000,-36.0,5.0,53.0,82.6278125,-51.46,0.66095375,30.895
2021-06-23 16:34:37.226562500,-36.0,5.0,53.0,82.627734375,-48.89,0.6610338125,30.89375
2021-06-23 16:34:37.234375000,-36.0,5.0,53.0,82.62765625,-46.32,0.6611138750000001,30.892500000000002
2021-06-23 16:34:37.242187500,-36.0,5.0,53.0,82.627578125,-42.58,0.6611939375,30.89125
2021-06-23 16:34:37.250000000,-36.0,5.0,53.0,82.6275,-38.84,0.661274,30.89
2021-06-23 16:34:37.257812500,-36.0,5.0,53.0,82.627421875,-34.485,0.6612339687500001,30.89
2021-06-23 16:34:37.265625000,-36.0,5.0,53.0,82.62734375,-30.13,0.6611939375,30.89
2021-06-23 16:34:37.273437500,-36.0,5.0,53.0,82.62726562499999,-25.729999999999997,0.66115390625,30.89
2021-06-23 16:34:37.281250000,-36.0,5.0,53.0,82.62718749999999,-21.33,0.6611138750000001,30.89
2021-06-23 16:34:37.289062500,-36.0,5.0,53.0,82.627109375,-17.285,0.66107384375,30.89
2021-06-23 16:34:37.296875000,-36.0,5.0,53.0,82.62703125,-13.24,0.6610338125,30.89
2021-06-23 16:34:37.304687500,-36.0,5.0,53.0,82.626953125,-9.725,0.6609937812500001,30.89
2021-06-23 16:34:37.312500000,-36.0,5.0,53.0,82.626875,-6.21,0.66095375,30.89
2021-06-23 16:34:37.320312500,-36.0,5.0,53.0,82.626796875,-3.23,0.66091371875,30.89
2021-06-23 16:34:37.328125000,-36.0,5.0,53.0,82.62671875,-0.25,0.6608736875000001,30.89
2021-06-23 16:34:37.335937500,-36.0,5.0,53.0,82.626640625,2.28,0.66083365625,30.89
2021-06-23 16:34:37.343750000,-36.0,5.0,53.0,82.6265625,4.81,0.660793625,30.89
2021-06-23 16:34:37.351562500,-36.0,5.0,53.0,82.626484375,6.9399999999999995,0.6607535937500001,30.89
2021-06-23 16:34:37.359375000,-36.0,5.0,53.0,82.62640625,9.07,0.6607135625,30.89
2021-06-23 16:34:37.367187500,-36.0,5.0,53.0,82.626328125,10.8,0.6606735312500001,30.89
2021-06-23 16:34:37.375000000,-36.0,5.0,53.0,82.62625,12.53,0.6606335000000001,30.89
2021-06-23 16:34:37.382812500,-36.0,5.0,53.0,82.626171875,13.825,0.66059346875,30.89
2021-06-23 16:34:37.390625000,-36.0,5.0,53.0,82.62609375,15.12,0.6605534375000001,30.89
2021-06-23 16:34:37.398437500,-36.0,5.0,53.0,82.626015625,15.969999999999999,0.66051340625,30.89
2021-06-23 16:34:37.406250000,-36.0,5.0,53.0,82.62593749999999,16.82,0.660473375,30.89
2021-06-23 16:34:37.414062500,-36.0,5.0,53.0,82.625859375,17.28,0.6604333437500001,30.89
2021-06-23 16:34:37.421875000,-36.0,5.0,53.0,82.62578125,17.74,0.6603933125,30.89
2021-06-23 16:34:37.429687500,-36.0,5.0,53.0,82.625703125,17.935,0.66035328125,30.89
2021-06-23 16:34:37.437500000,-36.0,5.0,53.0,82.625625,18.13,0.6603132500000001,30.89
2021-06-23 16:34:37.445312500,-36.0,5.0,53.0,82.625546875,18.215,0.66027321875,30.89
2021-06-23 16:34:37.453125000,-36.0,5.0,53.0,82.62546875,18.3,0.6602331875,30.89
2021-06-23 16:34:37.460937500,-36.0,5.0,53.0,82.625390625,18.41,0.6601931562500001,30.89
2021-06-23 16:34:37.468750000,-36.0,5.0,53.0,82.6253125,18.52,0.660153125,30.89
2021-06-23 16:34:37.476562500,-36.0,5.0,53.0,82.625234375,18.73,0.66011309375,30.89
2021-06-23 16:34:37.484375000,-36.0,5.0,53.0,82.62515625,18.94,0.6600730625000001,30.89
2021-06-23 16:34:37.492187500,-36.0,5.0,53.0,82.625078125,19.240000000000002,0.66003303125,30.89
2021-06-23 16:34:37.500000000,-36.0,5.0,53.0,82.625,19.54,0.659993,30.89
2021-06-23 16:34:37.507812500,-36.0,5.0,53.0,82.624921875,19.86,0.6601131250000001,30.89
2021-06-23 16:34:37.515625000,-36.0,5.0,53.0,82.62484375,20.18,0.6602332500000001,30.89
2021-06-23 16:34:37.523437500,-36.0,5.0,53.0,82.624765625,20.415,0.660353375,30.89
2021-06-23 16:34:37.531250000,-36.0,5.0,53.0,82.6246875,20.65,0.6604735,30.89
2021-06-23 16:34:37.539062500,-36.0,5.0,53.0,82.624609375,20.72,0.6605936250000001,30.89
2021-06-23 16:34:37.546875000,-36.0,5.0,53.0,82.62453125,20.79,0.66071375,30.89
2021-06-23 16:34:37.554687500,-36.0,5.0,53.0,82.624453125,20.674999999999997,0.660833875,30.89
2021-06-23 16:34:37.562500000,-36.0,5.0,53.0,82.624375,20.56,0.660954,30.89
2021-06-23 16:34:37.570312500,-36.0,5.0,53.0,82.624296875,20.31,0.6610741250000001,30.89
2021-06-23 16:34:37.578125000,-36.0,5.0,53.0,82.62421875,20.06,0.6611942500000001,30.89
2021-06-23 16:34:37.585937500,-36.0,5.0,53.0,82.624140625,19.759999999999998,0.661314375,30.89
2021-06-23 16:34:37.593750000,-36.0,5.0,53.0,82.62406250000001,19.46,0.6614345,30.89
2021-06-23 16:34:37.601562500,-36.0,5.0,53.0,82.623984375,19.17,0.6615546250000001,30.89
2021-06-23 16:34:37.609375000,-36.0,5.0,53.0,82.62390625,18.88,0.66167475,30.89
2021-06-23 16:34:37.617187500,-36.0,5.0,53.0,82.623828125,18.59,0.661794875,30.89
2021-06-23 16:34:37.625000000,-36.0,5.0,53.0,82.62375,18.3,0.661915,30.89
2021-06-23 16:34:37.632812500,-36.0,5.0,53.0,82.623671875,17.9,0.6620351250000001,30.89
2021-06-23 16:34:37.640625000,-36.0,5.0,53.0,82.62359375,17.5,0.6621552500000001,30.89
2021-06-23 16:34:37.648437500,-36.0,5.0,53.0,82.623515625,16.810000000000002,0.662275375,30.89
2021-06-23 16:34:37.656250000,-36.0,5.0,53.0,82.6234375,16.12,0.6623955,30.89
2021-06-23 16:34:37.664062500,-36.0,5.0,53.0,82.623359375,14.98,0.662515625,30.89
2021-06-23 16:34:37.671875000,-36.0,5.0,53.0,82.62328125,13.84,0.66263575,30.89
2021-06-23 16:34:37.679687500,-36.0,5.0,53.0,82.623203125,12.175,0.662755875,30.89
2021-06-23 16:34:37.687500000,-36.0,5.0,53.0,82.623125,10.51,0.662876,30.89
2021-06-23 16:34:37.695312500,-36.0,5.0,53.0,82.623046875,8.39,0.662996125,30.89
2021-06-23 16:34:37.703125000,-36.0,5.0,53.0,82.62296875,6.27,0.6631162500000001,30.89
2021-06-23 16:34:37.710937500,-36.0,5.0,53.0,82.622890625,3.905,0.663236375,30.89
2021-06-23 16:34:37.718750000,-36.0,5.0,53.0,82.62281250000001,1.54,0.6633565,30.89
2021-06-23 16:34:37.726562500,-36.0,5.0,53.0,82.62273437500001,-0.7850000000000001,0.663476625,30.89
2021-06-23 16:34:37.734375000,-36.0,5.0,53.0,82.62265625,-3.11,0.66359675,30.89
2021-06-23 16:34:37.742187500,-36.0,5.0,53.0,82.622578125,-5.16,0.663716875,30.89
2021-06-23 16:34:37.750000000,-36.0,5.0,53.0,82.6225,-7.21,0.663837,30.89
2021-06-23 16:34:37.757812500,-36.0,5.0,53.0,82.622421875,-8.88,0.66387703125,30.89
2021-06-23 16:34:37.765625000,-36.0,5.0,53.0,82.62234375,-10.55,0.6639170625,30.89
2021-06-23 16:34:37.773437500,-36.0,5.0,53.0,82.622265625,-11.91,0.66395709375,30.89
2021-06-23 16:34:37.781250000,-36.0,5.0,53.0,82.6221875,-13.27,0.663997125,30.89
2021-06-23 16:34:37.789062500,-36.0,5.0,53.0,82.62210937500001,-14.504999999999999,0.66403715625,30.89
2021-06-23 16:34:37.796875000,-36.0,5.0,53.0,82.62203125,-15.74,0.6640771875,30.89
2021-06-23 16:34:37.804687500,-36.0,5.0,53.0,82.621953125,-17.105,0.66411721875,30.89
2021-06-23 16:34:37.812500000,-36.0,5.0,53.0,82.621875,-18.47,0.66415725,30.89
2021-06-23 16:34:37.820312500,-36.0,5.0,53.0,82.621796875,-20.174999999999997,0.66419728125,30.89
2021-06-23 16:34:37.828125000,-36.0,5.0,53.0,82.62171875,-21.88,0.6642373125,30.89
2021-06-23 16:34:37.835937500,-36.0,5.0,53.0,82.621640625,-24.025,0.66427734375,30.89
2021-06-23 16:34:37.843750000,-36.0,5.0,53.0,82.62156250000001,-26.17,0.664317375,30.89
2021-06-23 16:34:37.851562500,-36.0,5.0,53.0,82.62148437500001,-28.745,0.66435740625,30.89
2021-06-23 16:34:37.859375000,-36.0,5.0,53.0,82.62140625,-31.32,0.6643974375,30.89
2021-06-23 16:34:37.867187500,-36.0,5.0,53.0,82.621328125,-34.165,0.66443746875,30.89
2021-06-23 16:34:37.875000000,-36.0,5.0,53.0,82.62125,-37.01,0.6644775,30.89
2021-06-23 16:34:37.882812500,-36.0,5.0,53.0,82.621171875,-39.849999999999994,0.66451753125,30.89
2021-06-23 16:34:37.890625000,-36.0,5.0,53.0,82.62109375,-42.69,0.6645575625,30.89
2021-06-23 16:34:37.898437500,-36.0,5.0,53.0,82.621015625,-45.144999999999996,0.66459759375,30.89
2021-06-23 16:34:37.906250000,-36.0,5.0,53.0,82.6209375,-47.6,0.664637625,30.89
2021-06-23 16:34:37.914062500,-36.0,5.0,53.0,82.62085937500001,-49.265,0.66467765625,30.89
2021-06-23 16:34:37.921875000,-36.0,5.0,53.0,82.62078125000001,-50.93,0.6647176875,30.89
2021-06-23 16:34:37.929687500,-36.0,5.0,53.0,82.620703125,-51.415,0.66475771875,30.89
2021-06-23 16:34:37.937500000,-36.0,5.0,53.0,82.620625,-51.9,0.66479775,30.89
2021-06-23 16:34:37.945312500,-36.0,5.0,53.0,82.620546875,-50.980000000000004,0.66483778125,30.89
2021-06-23 16:34:37.953125000,-36.0,5.0,53.0,82.62046875,-50.06,0.6648778125,30.89
2021-06-23 16:34:37.960937500,-36.0,5.0,53.0,82.620390625,-47.7,0.66491784375,30.89
2021-06-23 16:34:37.968750000,-36.0,5.0,53.0,82.62031250000001,-45.34,0.664957875,30.89
2021-06-23 16:34:37.976562500,-36.0,5.0,53.0,82.62023437500001,-41.765,0.66499790625,30.89
2021-06-23 16:34:37.984375000,-36.0,5.0,53.0,82.62015625000001,-38.19,0.6650379375,30.89
2021-06-23 16:34:37.992187500,-36.0,5.0,53.0,82.620078125,-33.825,0.66507796875,30.89
2021-06-23 16:34:38.000000000,-36.0,5.0,53.0,82.62,-29.46,0.665118,30.89
2021-06-23 16:34:38.007812500,-36.0,5.0,53.0,82.62,-24.810000000000002,0.6651980625,30.89
2021-06-23 16:34:38.015625000,-36.0,5.0,53.0,82.62,-20.16,0.6652781249999999,30.89
2021-06-23 16:34:38.023437500,-36.0,5.0,53.0,82.62,-15.66,0.6653581875,30.89
2021-06-23 16:34:38.031250000,-36.0,5.0,53.0,82.62,-11.16,0.66543825,30.89
2021-06-23 16:34:38.039062500,-36.0,5.0,53.0,82.62,-7.105,0.6655183125,30.89
2021-06-23 16:34:38.046875000,-36.0,5.0,53.0,82.62,-3.05,0.665598375,30.89
2021-06-23 16:34:38.054687500,-36.0,5.0,53.0,82.62,0.43500000000000005,0.6656784375,30.89
2021-06-23 16:34:38.062500000,-36.0,5.0,53.0,82.62,3.92,0.6657585,30.89
2021-06-23 16:34:38.070312500,-36.0,5.0,53.0,82.62,6.84,0.6658385625,30.89
2021-06-23 16:34:38.078125000,-36.0,5.0,53.0,82.62,9.76,0.665918625,30.89
2021-06-23 16:34:38.085937500,-36.0,5.0,53.0,82.62,12.125,0.6659986875,30.89
2021-06-23 16:34:38.093750000,-36.0,5.0,53.0,82.62,14.49,0.66607875,30.89
2021-06-23 16:34:38.101562500,-36.0,5.0,53.0,82.62,16.315,0.6661588125,30.89
2021-06-23 16:34:38.109375000,-36.0,5.0,53.0,82.62,18.14,0.666238875,30.89
2021-06-23 16:34:38.117187500,-36.0,5.0,53.0,82.62,19.4,0.6663189375,30.89
2021-06-23 16:34:38.125000000,-36.0,5.0,53.0,82.62,20.66,0.666399,30.89
2021-06-23 16:34:38.132812500,-36.0,5.0,53.0,82.62,21.34,0.6664790625,30.89
2021-06-23 16:34:38.140625000,-36.0,5.0,53.0,82.62,22.02,0.666559125,30.89
2021-06-23 16:34:38.148437500,-36.0,5.0,53.0,82.62,22.185000000000002,0.6666391875000001,30.89
2021-06-23 16:34:38.156250000,-36.0,5.0,53.0,82.62,22.35,0.66671925,30.89
2021-06-23 16:34:38.164062500,-36.0,5.0,53.0,82.62,22.145000000000003,0.6667993125,30.89
2021-06-23 16:34:38.171875000,-36.0,5.0,53.0,82.62,21.94,0.666879375,30.89
2021-06-23 16:34:38.179687500,-36.0,5.0,53.0,82.62,21.595,0.6669594375000001,30.89
2021-06-23 16:34:38.187500000,-36.0,5.0,53.0,82.62,21.25,0.6670395,30.89
2021-06-23 16:34:38.195312500,-36.0,5.0,53.0,82.62,20.994999999999997,0.6671195625,30.89
2021-06-23 16:34:38.203125000,-36.0,5.0,53.0,82.62,20.74,0.6671996250000001,30.89
2021-06-23 16:34:38.210937500,-36.0,5.0,53.0,82.62,20.744999999999997,0.6672796875,30.89
2021-06-23 16:34:38.218750000,-36.0,5.0,53.0,82.62,20.75,0.66735975,30.89
2021-06-23 16:34:38.226562500,-36.0,5.0,53.0,82.62,21.05,0.6674398125000001,30.89
2021-06-23 16:34:38.234375000,-36.0,5.0,53.0,82.62,21.35,0.6675198750000001,30.89
2021-06-23 16:34:38.242187500,-36.0,5.0,53.0,82.62,21.865000000000002,0.6675999375,30.89
2021-06-23 16:34:38.250000000,-36.0,5.0,53.0,82.62,22.38,0.66768,30.89
2021-06-23 16:34:38.257812500,-36.0,5.0,53.0,82.62,22.935,0.6677600625000001,30.89
2021-06-23 16:34:38.265625000,-36.0,5.0,53.0,82.62,23.49,0.667840125,30.89
2021-06-23 16:34:38.273437500,-36.0,5.0,53.0,82.62,23.89,0.6679201875,30.89
2021-06-23 16:34:38.281250000,-36.0,5.0,53.0,82.62,24.29,0.6680002500000001,30.89
2021-06-23 16:34:38.289062500,-36.0,5.0,53.0,82.62,24.4,0.6680803125,30.89
2021-06-23 16:34:38.296875000,-36.0,5.0,53.0,82.62,24.51,0.668160375,30.89
2021-06-23 16:34:38.304687500,-36.0,5.0,53.0,82.62,24.28,0.6682404375000001,30.89
2021-06-23 16:34:38.312500000,-36.0,5.0,53.0,82.62,24.05,0.6683205000000001,30.89
2021-06-23 16:34:38.320312500,-36.0,5.0,53.0,82.62,23.53,0.6684005625,30.89
2021-06-23 16:34:38.328125000,-36.0,5.0,53.0,82.62,23.01,0.668480625,30.89
2021-06-23 16:34:38.335937500,-36.0,5.0,53.0,82.62,22.315,0.6685606875000001,30.89
2021-06-23 16:34:38.343750000,-36.0,5.0,53.0,82.62,21.62,0.66864075,30.89
2021-06-23 16:34:38.351562500,-36.0,5.0,53.0,82.62,20.855,0.6687208125,30.89
2021-06-23 16:34:38.359375000,-36.0,5.0,53.0,82.62,20.09,0.6688008750000001,30.89
2021-06-23 16:34:38.367187500,-36.0,5.0,53.0,82.62,19.285,0.6688809375,30.89
2021-06-23 16:34:38.375000000,-36.0,5.0,53.0,82.62,18.48,0.668961,30.89
2021-06-23 16:34:38.382812500,-36.0,5.0,53.0,82.62,17.585,0.6690410625000001,30.89
2021-06-23 16:34:38.390625000,-36.0,5.0,53.0,82.62,16.69,0.669121125,30.89
2021-06-23 16:34:38.398437500,-36.0,5.0,53.0,82.62,15.585,0.6692011875,30.89
2021-06-23 16:34:38.406250000,-36.0,5.0,53.0,82.62,14.48,0.66928125,30.89
2021-06-23 16:34:38.414062500,-36.0,5.0,53.0,82.62,13.05,0.6693613125,30.89
2021-06-23 16:34:38.421875000,-36.0,5.0,53.0,82.62,11.62,0.669441375,30.89
2021-06-23 16:34:38.429687500,-36.0,5.0,53.0,82.62,9.8,0.6695214375,30.89
2021-06-23 16:34:38.437500000,-36.0,5.0,53.0,82.62,7.98,0.6696015,30.89
2021-06-23 16:34:38.445312500,-36.25,5.0,53.0,82.62,5.8100000000000005,0.6696815625,30.89
2021-06-23 16:34:38.453125000,-36.5,5.0,53.0,82.62,3.64,0.669761625,30.89
2021-06-23 16:34:38.460937500,-36.75,5.0,53.0,82.62,1.2600000000000002,0.6698416875000001,30.89
2021-06-23 16:34:38.468750000,-37.0,5.0,53.0,82.62,-1.12,0.66992175,30.89
2021-06-23 16:34:38.476562500,-36.75,5.0,53.0,82.62,-3.535,0.6700018125,30.89
2021-06-23 16:34:38.484375000,-36.5,5.0,53.0,82.62,-5.95,0.670081875,30.89
2021-06-23 16:34:38.492187500,-36.25,5.0,53.0,82.62,-8.24,0.6701619375,30.89
2021-06-23 16:34:38.500000000,-36.0,5.0,53.0,82.62,-10.53,0.670242,30.89
2021-06-23 16:34:38.507812500,-36.0,5.0,53.0,82.62,-12.61,0.6703220625,30.89
2021-06-23 16:34:38.515625000,-36.0,5.0,53.0,82.62,-14.69,0.670402125,30.89
2021-06-23 16:34:38.523437500,-36.0,5.0,53.0,82.62,-16.56,0.6704821875,30.89
2021-06-23 16:34:38.531250000,-36.0,5.0,53.0,82.62,-18.43,0.67056225,30.89
2021-06-23 16:34:38.539062500,-36.0,5.0,53.0,82.62,-20.18,0.6706423125,30.89
2021-06-23 16:34:38.546875000,-36.0,5.0,53.0,82.62,-21.93,0.670722375,30.89
2021-06-23 16:34:38.554687500,-36.0,5.0,53.0,82.62,-23.7,0.6708024375,30.89
2021-06-23 16:34:38.562500000,-36.0,5.0,53.0,82.62,-25.47,0.6708825,30.89
2021-06-23 16:34:38.570312500,-36.0,5.0,53.0,82.62,-27.435,0.6709625625,30.89
2021-06-23 16:34:38.578125000,-36.0,5.0,53.0,82.62,-29.4,0.671042625,30.89
2021-06-23 16:34:38.585937500,-36.0,5.0,53.0,82.62,-31.7,0.6711226875,30.89
2021-06-23 16:34:38.593750000,-36.0,5.0,53.0,82.62,-34.0,0.67120275,30.89
2021-06-23 16:34:38.601562500,-36.0,5.0,53.0,82.62,-36.730000000000004,0.6712828125,30.89
2021-06-23 16:34:38.609375000,-36.0,5.0,53.0,82.62,-39.46,0.671362875,30.89
2021-06-23 16:34:38.617187500,-36.0,5.0,53.0,82.62,-42.6,0.6714429375,30.89
2021-06-23 16:34:38.625000000,-36.0,5.0,53.0,82.62,-45.74,0.671523,30.89
2021-06-23 16:34:38.632812500,-36.0,5.0,52.75,82.62,-49.115,0.6716030625,30.89
2021-06-23 16:34:38.640625000,-36.0,5.0,52.5,82.62,-52.49,0.6716831249999999,30.89
2021-06-23 16:34:38.648437500,-36.0,5.0,52.25,82.62,-55.71,0.6717631875,30.89
2021-06-23 16:34:38.656250000,-36.0,5.0,52.0,82.62,-58.93,0.67184325,30.89
2021-06-23 16:34:38.664062500,-36.0,5.0,52.25,82.62,-61.47,0.6719233124999999,30.89
2021-06-23 16:34:38.671875000,-36.0,5.0,52.5,82.62,-64.01,0.672003375,30.89
2021-06-23 16:34:38.679687500,-36.0,5.0,52.75,82.62,-65.285,0.6720834375,30.89
2021-06-23 16:34:38.687500000,-36.0,5.0,53.0,82.62,-66.56,0.6721634999999999,30.89
2021-06-23 16:34:38.695312500,-36.0,5.0,53.0,82.62,-66.1,0.6722435625,30.89
2021-06-23 16:34:38.703125000,-36.0,5.0,53.0,82.62,-65.64,0.672323625,30.89
2021-06-23 16:34:38.710937500,-36.0,5.0,53.0,82.62,-63.254999999999995,0.6724036875,30.89
2021-06-23 16:34:38.718750000,-36.0,5.0,53.0,82.62,-60.87,0.6724837499999999,30.89
2021-06-23 16:34:38.726562500,-36.0,5.0,53.0,82.62,-56.745,0.6725638125,30.89
2021-06-23 16:34:38.734375000,-36.0,5.0,53.0,82.62,-52.62,0.672643875,30.89
2021-06-23 16:34:38.742187500,-36.0,5.0,53.0,82.62,-47.25,0.6727239374999999,30.89
2021-06-23 16:34:38.750000000,-36.0,5.0,53.0,82.62,-41.88,0.672804,30.89
2021-06-23 16:34:38.757812500,-36.0,5.0,53.0,82.62,-35.96,0.6728440312499999,30.89
2021-06-23 16:34:38.765625000,-36.0,5.0,53.0,82.62,-30.04,0.6728840625,30.89
2021-06-23 16:34:38.773437500,-36.0,5.0,53.0,82.62,-24.23,0.67292409375,30.89
2021-06-23 16:34:38.781250000,-36.0,5.0,53.0,82.62,-18.42,0.672964125,30.89
2021-06-23 16:34:38.789062500,-36.0,5.0,53.0,82.62,-13.195,0.67300415625,30.89
2021-06-23 16:34:38.796875000,-36.0,5.0,53.0,82.62,-7.97,0.6730441875,30.89
2021-06-23 16:34:38.804687500,-36.0,5.0,53.0,82.62,-3.545,0.67308421875,30.89
2021-06-23 16:34:38.812500000,-36.0,5.0,53.0,82.62,0.88,0.67312425,30.89
2021-06-23 16:34:38.820312500,-36.0,5.0,53.0,82.62,4.515000000000001,0.6731642812499999,30.89
2021-06-23 16:34:38.828125000,-36.0,5.0,53.0,82.62,8.15,0.6732043125,30.89
2021-06-23 16:34:38.835937500,-36.0,5.0,53.0,82.62,11.14,0.67324434375,30.89
2021-06-23 16:34:38.843750000,-36.0,5.0,53.0,82.62,14.13,0.6732843749999999,30.89
2021-06-23 16:34:38.851562500,-36.0,5.0,53.0,82.62,16.62,0.67332440625,30.89
2021-06-23 16:34:38.859375000,-36.0,5.0,53.0,82.62,19.11,0.6733644375,30.89
2021-06-23 16:34:38.867187500,-36.0,5.0,53.0,82.62,21.165,0.67340446875,30.89
2021-06-23 16:34:38.875000000,-36.0,5.0,53.0,82.62,23.22,0.6734445,30.89
2021-06-23 16:34:38.882812500,-36.0,5.0,53.0,82.62,24.85,0.67348453125,30.89
2021-06-23 16:34:38.890625000,-36.0,5.0,53.0,82.62,26.48,0.6735245625,30.89
2021-06-23 16:34:38.898437500,-36.0,5.0,53.0,82.62,27.68,0.67356459375,30.89
2021-06-23 16:34:38.906250000,-36.0,5.0,53.0,82.62,28.88,0.6736046250000001,30.89
2021-06-23 16:34:38.914062500,-36.0,5.0,53.0,82.62,29.68,0.67364465625,30.89
2021-06-23 16:34:38.921875000,-36.0,5.0,53.0,82.62,30.48,0.6736846875,30.89
2021-06-23 16:34:38.929687500,-36.0,5.0,53.0,82.62,30.98,0.6737247187500001,30.89
2021-06-23 16:34:38.937500000,-36.0,5.0,53.0,82.62,31.48,0.67376475,30.89
2021-06-23 16:34:38.945312500,-36.0,5.0,53.0,82.62,31.82,0.67380478125,30.89
2021-06-23 16:34:38.953125000,-36.0,5.0,53.0,82.62,32.16,0.6738448125000001,30.89
2021-06-23 16:34:38.960937500,-36.0,5.0,53.0,82.62,32.489999999999995,0.67388484375,30.89
2021-06-23 16:34:38.968750000,-36.0,5.0,53.0,82.62,32.82,0.673924875,30.89
2021-06-23 16:34:38.976562500,-36.0,5.0,53.0,82.62,33.245000000000005,0.67396490625,30.89
2021-06-23 16:34:38.984375000,-36.0,5.0,53.0,82.62,33.67,0.6740049375,30.89
2021-06-23 16:34:38.992187500,-36.0,5.0,53.0,82.62,34.230000000000004,0.6740449687500001,30.89
2021-06-23 16:34:39.000000000,-36.0,5.0,53.0,82.62,34.79,0.674085,30.89
2021-06-23 16:34:39.007812500,-36.0,5.0,53.0,82.61984375,35.44,0.6741650625000001,30.890625
2021-06-23 16:34:39.015625000,-36.0,5.0,53.0,82.6196875,36.09,0.674245125,30.89125
2021-06-23 16:34:39.023437500,-36.0,5.0,53.0,82.61953125000001,36.74,0.6743251875,30.891875
2021-06-23 16:34:39.031250000,-36.0,5.0,53.0,82.619375,37.39,0.6744052500000001,30.892500000000002
2021-06-23 16:34:39.039062500,-36.0,5.0,53.0,82.61921875,37.935,0.6744853125,30.893125
2021-06-23 16:34:39.046875000,-36.0,5.0,53.0,82.6190625,38.48,0.674565375,30.89375
2021-06-23 16:34:39.054687500,-36.0,5.0,53.0,82.61890625000001,38.81,0.6746454375000001,30.894375
2021-06-23 16:34:39.062500000,-36.0,5.0,53.0,82.61875,39.14,0.6747255000000001,30.895
2021-06-23 16:34:39.070312500,-36.0,5.0,53.0,82.61859375,39.155,0.6748055625,30.895625
2021-06-23 16:34:39.078125000,-36.0,5.0,53.0,82.6184375,39.17,0.674885625,30.896250000000002
2021-06-23 16:34:39.085937500,-36.0,5.0,53.0,82.61828125000001,38.835,0.6749656875000001,30.896875
2021-06-23 16:34:39.093750000,-36.0,5.0,53.0,82.618125,38.5,0.67504575,30.8975
2021-06-23 16:34:39.101562500,-36.0,5.0,53.0,82.61796875,37.8,0.6751258125,30.898125
2021-06-23 16:34:39.109375000,-36.0,5.0,53.0,82.6178125,37.1,0.6752058750000001,30.89875
2021-06-23 16:34:39.117187500,-36.0,5.0,53.0,82.61765625000001,36.065,0.6752859375,30.899375
2021-06-23 16:34:39.125000000,-36.0,5.0,53.0,82.6175,35.03,0.675366,30.9
2021-06-23 16:34:39.132812500,-36.0,5.0,53.0,82.61734375,33.71,0.6754460625,30.900625
2021-06-23 16:34:39.140625000,-36.0,5.0,53.0,82.6171875,32.39,0.675526125,30.90125
2021-06-23 16:34:39.148437500,-36.0,5.0,53.0,82.61703125,30.83,0.6756061875,30.901875
2021-06-23 16:34:39.156250000,-36.0,5.0,53.0,82.61687500000001,29.27,0.67568625,30.9025
2021-06-23 16:34:39.164062500,-36.0,5.0,53.0,82.61671875,27.485,0.6757663125,30.903125
2021-06-23 16:34:39.171875000,-36.0,5.0,53.0,82.6165625,25.7,0.675846375,30.90375
2021-06-23 16:34:39.179687500,-36.0,5.0,53.0,82.61640625,23.7,0.6759264375,30.904375
2021-06-23 16:34:39.187500000,-36.0,5.0,53.0,82.61625000000001,21.7,0.6760065,30.905
2021-06-23 16:34:39.195312500,-36.0,5.0,53.0,82.61609375,19.490000000000002,0.6760865625,30.905625
2021-06-23 16:34:39.203125000,-36.0,5.0,53.0,82.6159375,17.28,0.676166625,30.90625
2021-06-23 16:34:39.210937500,-36.0,5.0,53.0,82.61578125,14.915000000000001,0.6762466875,30.906875
2021-06-23 16:34:39.218750000,-36.0,5.0,53.0,82.61562500000001,12.55,0.67632675,30.9075
2021-06-23 16:34:39.226562500,-36.0,5.0,53.0,82.61546875,10.11,0.6764068125,30.908125000000002
2021-06-23 16:34:39.234375000,-36.0,5.0,53.0,82.6153125,7.67,0.676486875,30.90875
2021-06-23 16:34:39.242187500,-36.0,5.0,53.0,82.61515625,5.265,0.6765669375,30.909375
2021-06-23 16:34:39.250000000,-36.0,5.0,53.0,82.61500000000001,2.86,0.676647,30.91
2021-06-23 16:34:39.257812500,-36.0,5.0,53.0,82.61484375,0.5749999999999997,0.67660696875,30.91
2021-06-23 16:34:39.265625000,-36.0,5.0,53.0,82.6146875,-1.71,0.6765669375,30.91
2021-06-23 16:34:39.273437500,-36.0,5.0,53.0,82.61453125,-3.825,0.67652690625,30.91
2021-06-23 16:34:39.281250000,-36.0,5.0,53.0,82.614375,-5.94,0.676486875,30.91
2021-06-23 16:34:39.289062500,-36.0,5.0,53.0,82.61421875,-7.92,0.67644684375,30.91
2021-06-23 16:34:39.296875000,-36.0,5.0,53.0,82.6140625,-9.9,0.6764068125,30.91
2021-06-23 16:34:39.304687500,-36.0,5.0,53.0,82.61390625,-11.815000000000001,0.67636678125,30.91
2021-06-23 16:34:39.312500000,-36.0,5.0,53.0,82.61375,-13.73,0.67632675,30.91
2021-06-23 16:34:39.320312500,-36.0,5.0,53.0,82.61359375,-15.71,0.67628671875,30.91
2021-06-23 16:34:39.328125000,-36.0,5.0,53.0,82.6134375,-17.69,0.6762466875,30.91
2021-06-23 16:34:39.335937500,-36.0,5.0,53.0,82.61328125,-19.875,0.67620665625,30.91
2021-06-23 16:34:39.343750000,-36.0,5.0,53.0,82.613125,-22.06,0.676166625,30.91
2021-06-23 16:34:39.351562500,-36.0,5.0,53.0,82.61296875000001,-24.59,0.6761265937500001,30.91
2021-06-23 16:34:39.359375000,-36.0,5.0,53.0,82.6128125,-27.12,0.6760865625,30.91
2021-06-23 16:34:39.367187500,-36.0,5.0,53.0,82.61265625,-30.1,0.67604653125,30.91
2021-06-23 16:34:39.375000000,-36.0,5.0,53.0,82.6125,-33.08,0.6760065,30.91
2021-06-23 16:34:39.382812500,-36.0,5.0,53.0,82.61234375,-36.495,0.67596646875,30.91
2021-06-23 16:34:39.390625000,-36.0,5.0,53.0,82.6121875,-39.91,0.6759264375,30.91
2021-06-23 16:34:39.398437500,-36.0,5.0,53.0,82.61203125,-43.595,0.67588640625,30.91
2021-06-23 16:34:39.406250000,-36.0,5.0,53.0,82.611875,-47.28,0.675846375,30.91
2021-06-23 16:34:39.414062500,-36.0,5.0,53.0,82.61171875,-50.870000000000005,0.67580634375,30.91
2021-06-23 16:34:39.421875000,-36.0,5.0,53.0,82.6115625,-54.46,0.6757663125,30.91
2021-06-23 16:34:39.429687500,-36.0,5.0,53.0,82.61140625,-57.415,0.67572628125,30.91
2021-06-23 16:34:39.437500000,-36.0,5.0,53.0,82.61125,-60.37,0.67568625,30.91
2021-06-23 16:34:39.445312500,-36.0,5.0,53.0,82.61109375,-62.105000000000004,0.67564621875,30.91
2021-06-23 16:34:39.453125000,-36.0,5.0,53.0,82.6109375,-63.84,0.6756061875,30.91
2021-06-23 16:34:39.460937500,-36.0,5.0,53.0,82.61078125,-63.855000000000004,0.67556615625,30.91
2021-06-23 16:34:39.468750000,-36.0,5.0,53.0,82.610625,-63.87,0.675526125,30.91
2021-06-23 16:34:39.476562500,-36.0,5.0,53.0,82.61046875,-61.945,0.67548609375,30.91
2021-06-23 16:34:39.484375000,-36.0,5.0,53.0,82.6103125,-60.02,0.6754460625,30.91
2021-06-23 16:34:39.492187500,-36.0,5.0,53.0,82.61015625,-56.28,0.67540603125,30.91
2021-06-23 16:34:39.500000000,-36.0,5.0,53.0,82.61,-52.54,0.675366,30.91
2021-06-23 16:34:39.507812500,-36.0,5.0,53.0,82.60984375,-47.43,0.6754460625,30.91
2021-06-23 16:34:39.515625000,-36.0,5.0,53.0,82.60968749999999,-42.32,0.675526125,30.91
2021-06-23 16:34:39.523437500,-36.0,5.0,53.0,82.60953125,-36.5,0.6756061875,30.91
2021-06-23 16:34:39.531250000,-36.0,5.0,53.0,82.609375,-30.68,0.67568625,30.91
2021-06-23 16:34:39.539062500,-36.0,5.0,53.0,82.60921875,-24.785,0.6757663125,30.91
2021-06-23 16:34:39.546875000,-36.0,5.0,53.0,82.6090625,-18.89,0.675846375,30.91
2021-06-23 16:34:39.554687500,-36.0,5.0,53.0,82.60890625,-13.425,0.6759264375,30.91
2021-06-23 16:34:39.562500000,-36.0,5.0,53.0,82.60875,-7.96,0.6760065,30.91
2021-06-23 16:34:39.570312500,-36.0,5.0,53.0,82.60859375,-3.1900000000000004,0.6760865625,30.91
2021-06-23 16:34:39.578125000,-36.0,5.0,53.0,82.6084375,1.58,0.676166625,30.91
2021-06-23 16:34:39.585937500,-36.0,5.0,53.0,82.60828125,5.595,0.6762466875,30.91
2021-06-23 16:34:39.593750000,-36.0,5.0,53.0,82.608125,9.61,0.67632675,30.91
2021-06-23 16:34:39.601562500,-36.0,5.0,53.0,82.60796875,12.93,0.6764068125,30.91
2021-06-23 16:34:39.609375000,-36.0,5.0,53.0,82.6078125,16.25,0.676486875,30.91
2021-06-23 16:34:39.617187500,-36.0,5.0,53.0,82.60765625,18.955,0.6765669375,30.91
2021-06-23 16:34:39.625000000,-36.0,5.0,53.0,82.6075,21.66,0.676647,30.91
2021-06-23 16:34:39.632812500,-36.0,5.0,53.0,82.60734375,23.775,0.6767270625,30.91
2021-06-23 16:34:39.640625000,-36.0,5.0,53.0,82.6071875,25.89,0.676807125,30.91
2021-06-23 16:34:39.648437500,-36.0,5.0,53.0,82.60703124999999,27.425,0.6768871875,30.91
2021-06-23 16:34:39.656250000,-36.0,5.0,53.0,82.606875,28.96,0.67696725,30.91
2021-06-23 16:34:39.664062500,-36.0,5.0,53.0,82.60671875,29.925,0.6770473124999999,30.91
2021-06-23 16:34:39.671875000,-36.0,5.0,53.0,82.6065625,30.89,0.677127375,30.91
2021-06-23 16:34:39.679687500,-36.0,5.0,53.0,82.60640624999999,31.365000000000002,0.6772074375,30.91
2021-06-23 16:34:39.687500000,-36.0,5.0,53.0,82.60625,31.84,0.6772875,30.91
2021-06-23 16:34:39.695312500,-36.0,5.0,53.0,82.60609375,32.02,0.6773675625,30.91
2021-06-23 16:34:39.703125000,-36.0,5.0,53.0,82.6059375,32.2,0.677447625,30.91
2021-06-23 16:34:39.710937500,-36.0,5.0,53.0,82.60578124999999,32.325,0.6775276875,30.91
2021-06-23 16:34:39.718750000,-36.0,5.0,53.0,82.605625,32.45,0.67760775,30.91
2021-06-23 16:34:39.726562500,-36.0,5.0,53.0,82.60546875,32.730000000000004,0.6776878125,30.91
2021-06-23 16:34:39.734375000,-36.0,5.0,53.0,82.6053125,33.01,0.677767875,30.91
2021-06-23 16:34:39.742187500,-36.0,5.0,53.0,82.60515625,33.565,0.6778479374999999,30.91
2021-06-23 16:34:39.750000000,-36.0,5.0,53.0,82.60499999999999,34.12,0.677928,30.91
2021-06-23 16:34:39.757812500,-36.0,5.0,53.0,82.60484375,34.894999999999996,0.6778479374999999,30.91
2021-06-23 16:34:39.765625000,-36.0,5.0,53.0,82.6046875,35.67,0.677767875,30.91
2021-06-23 16:34:39.773437500,-36.0,5.0,53.0,82.60453125,36.485,0.6776878125,30.91
2021-06-23 16:34:39.781250000,-36.0,5.0,53.0,82.60437499999999,37.3,0.67760775,30.91
2021-06-23 16:34:39.789062500,-36.0,5.0,53.0,82.60421875,37.935,0.6775276875,30.91
2021-06-23 16:34:39.796875000,-36.0,5.0,53.0,82.6040625,38.57,0.677447625,30.91
2021-06-23 16:34:39.804687500,-36.0,5.0,53.0,82.60390625,38.845,0.6773675625,30.91
2021-06-23 16:34:39.812500000,-36.0,5.0,53.0,82.60374999999999,39.12,0.6772875,30.91
2021-06-23 16:34:39.820312500,-36.0,5.0,53.0,82.60359375,38.985,0.6772074375,30.91
2021-06-23 16:34:39.828125000,-36.0,5.0,53.0,82.6034375,38.85,0.677127375,30.91
2021-06-23 16:34:39.835937500,-36.0,5.0,53.0,82.60328125,38.394999999999996,0.6770473124999999,30.91
2021-06-23 16:34:39.843750000,-36.0,5.0,53.0,82.60312499999999,37.94,0.67696725,30.91
2021-06-23 16:34:39.851562500,-36.0,5.0,53.0,82.60296875,37.3,0.6768871875,30.91
2021-06-23 16:34:39.859375000,-36.0,5.0,53.0,82.6028125,36.66,0.676807125,30.91
2021-06-23 16:34:39.867187500,-36.0,5.0,53.0,82.60265625,35.955,0.6767270625,30.91
2021-06-23 16:34:39.875000000,-36.0,5.0,53.0,82.60249999999999,35.25,0.676647,30.91
2021-06-23 16:34:39.882812500,-36.0,5.0,53.0,82.60234374999999,34.480000000000004,0.6765669375,30.91
2021-06-23 16:34:39.890625000,-36.0,5.0,53.0,82.6021875,33.71,0.676486875,30.91
2021-06-23 16:34:39.898437500,-36.0,5.0,53.0,82.60203125,32.76,0.6764068125,30.91
2021-06-23 16:34:39.906250000,-36.0,5.0,53.0,82.60187499999999,31.81,0.67632675,30.91
2021-06-23 16:34:39.914062500,-36.0,5.0,53.0,82.60171874999999,30.490000000000002,0.6762466875,30.91
2021-06-23 16:34:39.921875000,-36.0,5.0,53.0,82.6015625,29.17,0.676166625,30.91
2021-06-23 16:34:39.929687500,-36.0,5.0,53.0,82.60140625,27.355,0.6760865625,30.91
2021-06-23 16:34:39.937500000,-36.0,5.0,53.0,82.60125,25.54,0.6760065,30.91
2021-06-23 16:34:39.945312500,-36.0,5.0,53.0,82.60109374999999,23.240000000000002,0.6759264375,30.91
2021-06-23 16:34:39.953125000,-36.0,5.0,53.0,82.6009375,20.94,0.675846375,30.91
2021-06-23 16:34:39.960937500,-36.0,5.0,53.0,82.60078125,18.335,0.6757663125,30.91
2021-06-23 16:34:39.968750000,-36.0,5.0,53.0,82.600625,15.73,0.67568625,30.91
2021-06-23 16:34:39.976562500,-36.0,5.0,53.0,82.60046874999999,13.125,0.6756061875,30.91
2021-06-23 16:34:39.984375000,-36.0,5.0,53.0,82.6003125,10.52,0.675526125,30.91
2021-06-23 16:34:39.992187500,-36.0,5.0,53.0,82.60015625,8.184999999999999,0.6754460625,30.91
2021-06-23 16:34:40.000000000,-36.0,5.0,53.0,82.6,5.85,0.675366,30.91
2021-06-23 16:34:40.007812500,-36.0,5.0,53.0,82.59984374999999,3.9399999999999995,0.67548609375,30.909375
2021-06-23 16:34:40.015625000,-36.0,5.0,53.0,82.59968749999999,2.03,0.6756061875,30.90875
2021-06-23 16:34:40.023437500,-36.0,5.0,53.0,82.59953125,0.4949999999999999,0.67572628125,30.908125000000002
2021-06-23 16:34:40.031250000,-36.0,5.0,53.0,82.599375,-1.04,0.675846375,30.9075
2021-06-23 16:34:40.039062500,-36.0,5.0,53.0,82.59921874999999,-2.41,0.67596646875,30.906875
2021-06-23 16:34:40.046875000,-36.0,5.0,53.0,82.59906249999999,-3.78,0.6760865625,30.90625
2021-06-23 16:34:40.054687500,-36.0,5.0,53.0,82.59890625,-5.285,0.67620665625,30.905625
2021-06-23 16:34:40.062500000,-36.0,5.0,53.0,82.59875,-6.79,0.67632675,30.905
2021-06-23 16:34:40.070312500,-36.0,5.0,53.0,82.59859374999999,-8.69,0.67644684375,30.904375
2021-06-23 16:34:40.078125000,-36.0,5.0,53.0,82.59843749999999,-10.59,0.6765669375,30.90375
2021-06-23 16:34:40.085937500,-36.0,5.0,53.0,82.59828125,-13.02,0.67668703125,30.903125
2021-06-23 16:34:40.093750000,-36.0,5.0,53.0,82.598125,-15.45,0.676807125,30.9025
2021-06-23 16:34:40.101562500,-36.0,5.0,53.0,82.59796874999999,-18.424999999999997,0.67692721875,30.901875
2021-06-23 16:34:40.109375000,-36.0,5.0,53.0,82.59781249999999,-21.4,0.6770473124999999,30.90125
2021-06-23 16:34:40.117187500,-36.0,5.0,53.0,82.59765625,-24.77,0.6771674062499999,30.900625
2021-06-23 16:34:40.125000000,-36.0,5.0,53.0,82.5975,-28.14,0.6772875,30.9
2021-06-23 16:34:40.132812500,-36.0,5.0,53.0,82.59734375,-31.655,0.67740759375,30.899375
2021-06-23 16:34:40.140625000,-36.0,5.0,53.0,82.59718749999999,-35.17,0.6775276875,30.89875
2021-06-23 16:34:40.148437500,-36.0,5.0,53.0,82.59703125,-38.44,0.67764778125,30.898125
2021-06-23 16:34:40.156250000,-36.0,5.0,53.0,82.596875,-41.71,0.677767875,30.8975
2021-06-23 16:34:40.164062500,-36.0,5.0,53.0,82.59671875,-44.254999999999995,0.67788796875,30.896875
2021-06-23 16:34:40.171875000,-36.0,5.0,53.0,82.59656249999999,-46.8,0.6780080625,30.896250000000002
2021-06-23 16:34:40.179687500,-36.0,5.0,53.0,82.59640625,-48.11,0.67812815625,30.895625
2021-06-23 16:34:40.187500000,-36.0,5.0,53.0,82.59625,-49.42,0.67824825,30.895
2021-06-23 16:34:40.195312500,-36.0,5.0,53.0,82.59609375,-49.07,0.67836834375,30.894375
2021-06-23 16:34:40.203125000,-36.0,5.0,53.0,82.59593749999999,-48.72,0.6784884375,30.89375
2021-06-23 16:34:40.210937500,-36.0,5.0,53.0,82.59578125,-46.535,0.67860853125,30.893125
2021-06-23 16:34:40.218750000,-36.0,5.0,53.0,82.595625,-44.35,0.678728625,30.892500000000002
2021-06-23 16:34:40.226562500,-36.0,5.0,53.0,82.59546875,-40.455,0.67884871875,30.891875
2021-06-23 16:34:40.234375000,-36.0,5.0,53.0,82.59531249999999,-36.56,0.6789688125,30.89125
2021-06-23 16:34:40.242187500,-36.0,5.0,53.0,82.59515625,-31.4,0.67908890625,30.890625
2021-06-23 16:34:40.250000000,-36.0,5.0,53.0,82.595,-26.24,0.679209,30.89
2021-06-23 16:34:40.257812500,-36.0,5.0,53.0,82.59484375,-20.424999999999997,0.6790088437499999,30.89
2021-06-23 16:34:40.265625000,-36.0,5.0,53.0,82.59468749999999,-14.61,0.6788086874999999,30.89
2021-06-23 16:34:40.273437500,-36.0,5.0,53.0,82.59453124999999,-8.785,0.67860853125,30.89
2021-06-23 16:34:40.281250000,-36.0,5.0,53.0,82.594375,-2.96,0.678408375,30.89
2021-06-23 16:34:40.289062500,-36.0,5.0,53.0,82.59421875,2.3999999999999995,0.6782082187499999,30.89
2021-06-23 16:34:40.296875000,-36.0,5.0,53.0,82.59406249999999,7.76,0.6780080625,30.89
2021-06-23 16:34:40.304687500,-36.0,5.0,53.0,82.59390624999999,12.36,0.67780790625,30.89
2021-06-23 16:34:40.312500000,-36.0,5.0,53.0,82.59375,16.96,0.67760775,30.89
2021-06-23 16:34:40.320312500,-36.0,5.0,53.0,82.59359375,20.68,0.6774075937499999,30.89
2021-06-23 16:34:40.328125000,-36.0,5.0,53.0,82.5934375,24.4,0.6772074374999999,30.89
2021-06-23 16:34:40.335937500,-36.0,5.0,53.0,82.59328124999999,27.229999999999997,0.67700728125,30.89
2021-06-23 16:34:40.343750000,-36.0,5.0,53.0,82.593125,30.06,0.676807125,30.89
2021-06-23 16:34:40.351562500,-36.0,5.0,53.0,82.59296875,31.990000000000002,0.6766069687499999,30.89
2021-06-23 16:34:40.359375000,-36.0,5.0,53.0,82.5928125,33.92,0.6764068125,30.89
2021-06-23 16:34:40.367187500,-36.0,5.0,53.0,82.59265624999999,34.97,0.67620665625,30.89
2021-06-23 16:34:40.375000000,-36.0,5.0,53.0,82.5925,36.02,0.6760065,30.89
2021-06-23 16:34:40.382812500,-36.0,5.0,53.0,82.59234375,36.245000000000005,0.6758063437499999,30.89
2021-06-23 16:34:40.390625000,-36.0,5.0,53.0,82.5921875,36.47,0.6756061874999999,30.89
2021-06-23 16:34:40.398437500,-36.0,5.0,53.0,82.59203124999999,36.025,0.67540603125,30.89
2021-06-23 16:34:40.406250000,-36.0,5.0,53.0,82.591875,35.58,0.675205875,30.89
2021-06-23 16:34:40.414062500,-36.0,5.0,53.0,82.59171875,34.745,0.6750057187499999,30.89
2021-06-23 16:34:40.421875000,-36.0,5.0,53.0,82.5915625,33.91,0.6748055625,30.89
2021-06-23 16:34:40.429687500,-36.0,5.0,53.0,82.59140624999999,33.045,0.67460540625,30.89
2021-06-23 16:34:40.437500000,-36.0,5.0,53.0,82.59125,32.18,0.67440525,30.89
2021-06-23 16:34:40.445312500,-36.0,5.0,53.0,82.59109375,31.615000000000002,0.6742050937499999,30.89
2021-06-23 16:34:40.453125000,-36.0,5.0,53.0,82.5909375,31.05,0.6740049374999999,30.89
2021-06-23 16:34:40.460937500,-36.0,5.0,53.0,82.59078124999999,31.009999999999998,0.67380478125,30.89
2021-06-23 16:34:40.468750000,-36.0,5.0,53.0,82.590625,30.97,0.673604625,30.89
2021-06-23 16:34:40.476562500,-36.0,5.0,53.0,82.59046875,31.47,0.6734044687499999,30.89
2021-06-23 16:34:40.484375000,-36.0,5.0,53.0,82.5903125,31.97,0.6732043125,30.89
2021-06-23 16:34:40.492187500,-36.0,5.0,53.0,82.59015624999999,32.805,0.67300415625,30.89
2021-06-23 16:34:40.500000000,-36.0,5.0,53.0,82.59,33.64,0.672804,30.89
2021-06-23 16:34:40.507812500,-36.0,5.0,53.0,82.58984375,34.5,0.672804,30.89
2021-06-23 16:34:40.515625000,-36.0,5.0,53.0,82.5896875,35.36,0.672804,30.89
2021-06-23 16:34:40.523437500,-36.0,5.0,53.0,82.58953125,35.92,0.672804,30.89
2021-06-23 16:34:40.531250000,-36.0,5.0,53.0,82.58937499999999,36.48,0.672804,30.89
2021-06-23 16:34:40.539062500,-36.0,5.0,53.0,82.58921875,36.53,0.672804,30.89
2021-06-23 16:34:40.546875000,-36.0,5.0,53.0,82.5890625,36.58,0.672804,30.89
2021-06-23 16:34:40.554687500,-36.0,5.0,53.0,82.58890625,36.085,0.672804,30.89
2021-06-23 16:34:40.562500000,-36.0,5.0,53.0,82.58874999999999,35.59,0.672804,30.89
2021-06-23 16:34:40.570312500,-36.0,5.0,53.0,82.58859375,34.665000000000006,0.672804,30.89
2021-06-23 16:34:40.578125000,-36.0,5.0,53.0,82.5884375,33.74,0.672804,30.89
2021-06-23 16:34:40.585937500,-36.0,5.0,53.0,82.58828125,32.55,0.672804,30.89
2021-06-23 16:34:40.593750000,-36.0,5.0,53.0,82.58812499999999,31.36,0.672804,30.89
2021-06-23 16:34:40.601562500,-36.0,5.0,53.0,82.58796875,30.025,0.672804,30.89
2021-06-23 16:34:40.609375000,-36.0,5.0,53.0,82.5878125,28.69,0.672804,30.89
2021-06-23 16:34:40.617187500,-36.0,5.0,53.0,82.58765625,27.240000000000002,0.672804,30.89
2021-06-23 16:34:40.625000000,-36.0,5.0,53.0,82.58749999999999,25.79,0.672804,30.89
2021-06-23 16:34:40.632812500,-36.0,5.0,53.0,82.58734375,24.165,0.672804,30.89
2021-06-23 16:34:40.640625000,-36.0,5.0,53.0,82.5871875,22.54,0.672804,30.89
2021-06-23 16:34:40.648437500,-36.0,5.0,53.0,82.58703125,20.66,0.672804,30.89
2021-06-23 16:34:40.656250000,-36.0,5.0,53.0,82.58687499999999,18.78,0.672804,30.89
2021-06-23 16:34:40.664062500,-36.0,5.0,53.0,82.58671875,16.625,0.672804,30.89
2021-06-23 16:34:40.671875000,-36.0,5.0,53.0,82.5865625,14.47,0.672804,30.89
2021-06-23 16:34:40.679687500,-36.0,5.0,53.0,82.58640625,12.095,0.672804,30.89
2021-06-23 16:34:40.687500000,-36.0,5.0,53.0,82.58624999999999,9.72,0.672804,30.89
2021-06-23 16:34:40.695312500,-36.0,5.0,53.0,82.58609375,7.255000000000001,0.672804,30.89
2021-06-23 16:34:40.703125000,-36.0,5.0,53.0,82.5859375,4.79,0.672804,30.89
2021-06-23 16:34:40.710937500,-36.0,5.0,53.0,82.58578125,2.3850000000000002,0.672804,30.89
2021-06-23 16:34:40.718750000,-36.0,5.0,53.0,82.585625,-0.02,0.672804,30.89
2021-06-23 16:34:40.726562500,-36.0,5.0,53.0,82.58546875,-2.265,0.672804,30.89
2021-06-23 16:34:40.734375000,-36.0,5.0,53.0,82.5853125,-4.51,0.672804,30.89
2021-06-23 16:34:40.742187500,-36.0,5.0,53.0,82.58515625,-6.54,0.672804,30.89
2021-06-23 16:34:40.750000000,-36.0,5.0,53.0,82.585,-8.57,0.672804,30.89
2021-06-23 16:34:40.757812500,-36.0,5.0,53.0,82.58484374999999,-10.440000000000001,0.6727239374999999,30.89
2021-06-23 16:34:40.765625000,-36.0,5.0,53.0,82.5846875,-12.31,0.672643875,30.89
2021-06-23 16:34:40.773437500,-36.0,5.0,53.0,82.58453125,-14.125,0.6725638125,30.89
2021-06-23 16:34:40.781250000,-36.0,5.0,53.0,82.584375,-15.94,0.6724837499999999,30.89
2021-06-23 16:34:40.789062500,-36.0,5.0,53.0,82.58421874999999,-17.875,0.6724036875,30.89
2021-06-23 16:34:40.796875000,-36.0,5.0,53.0,82.5840625,-19.81,0.672323625,30.89
2021-06-23 16:34:40.804687500,-36.0,5.0,53.0,82.58390625,-22.035,0.6722435625,30.89
2021-06-23 16:34:40.812500000,-36.0,5.0,53.0,82.58375,-24.26,0.6721634999999999,30.89
2021-06-23 16:34:40.820312500,-36.0,5.0,53.0,82.58359374999999,-26.93,0.6720834375,30.89
2021-06-23 16:34:40.828125000,-36.0,5.0,53.0,82.5834375,-29.6,0.672003375,30.89
2021-06-23 16:34:40.835937500,-36.0,5.0,53.0,82.58328125,-32.760000000000005,0.6719233124999999,30.89
2021-06-23 16:34:40.843750000,-36.0,5.0,53.0,82.583125,-35.92,0.67184325,30.89
2021-06-23 16:34:40.851562500,-36.0,5.0,53.0,82.58296874999999,-39.43,0.6717631875,30.89
2021-06-23 16:34:40.859375000,-36.0,5.0,53.0,82.5828125,-42.94,0.6716831249999999,30.89
2021-06-23 16:34:40.867187500,-36.0,5.0,53.0,82.58265625,-46.455,0.6716030625,30.89
2021-06-23 16:34:40.875000000,-36.0,5.0,53.0,82.5825,-49.97,0.671523,30.89
2021-06-23 16:34:40.882812500,-36.0,5.0,53.0,82.58234374999999,-52.965,0.6714429375,30.89
2021-06-23 16:34:40.890625000,-36.0,5.0,53.0,82.5821875,-55.96,0.671362875,30.89
2021-06-23 16:34:40.898437500,-36.0,5.0,53.0,82.58203125,-57.84,0.6712828125,30.89
2021-06-23 16:34:40.906250000,-36.0,5.0,53.0,82.581875,-59.72,0.67120275,30.89
2021-06-23 16:34:40.914062500,-36.0,5.0,53.0,82.58171875,-59.95,0.6711226875,30.89
2021-06-23 16:34:40.921875000,-36.0,5.0,53.0,82.5815625,-60.18,0.671042625,30.89
2021-06-23 16:34:40.929687500,-36.0,5.0,53.0,82.58140625,-58.485,0.6709625625,30.89
2021-06-23 16:34:40.937500000,-36.0,5.0,53.0,82.58125,-56.79,0.6708825,30.89
2021-06-23 16:34:40.945312500,-36.0,5.0,53.0,82.58109375,-53.215,0.6708024375,30.89
2021-06-23 16:34:40.953125000,-36.0,5.0,53.0,82.5809375,-49.64,0.670722375,30.89
2021-06-23 16:34:40.960937500,-36.0,5.0,53.0,82.58078125,-44.57,0.6706423125,30.89
2021-06-23 16:34:40.968750000,-36.0,5.0,53.0,82.580625,-39.5,0.67056225,30.89
2021-06-23 16:34:40.976562500,-36.0,5.0,53.0,82.58046875,-33.54,0.6704821875,30.89
2021-06-23 16:34:40.984375000,-36.0,5.0,53.0,82.5803125,-27.58,0.670402125,30.89
2021-06-23 16:34:40.992187500,-36.0,5.0,53.0,82.58015625,-21.41,0.6703220625,30.89
2021-06-23 16:34:41.000000000,-36.0,5.0,53.0,82.58,-15.24,0.670242,30.89
2021-06-23 16:34:41.007812500,-36.0,5.0,53.0,82.58,-9.41,0.67020196875,30.890625
2021-06-23 16:34:41.015625000,-36.0,5.0,53.0,82.58,-3.58,0.6701619375,30.89125
2021-06-23 16:34:41.023437500,-36.0,5.0,53.0,82.58,1.5649999999999995,0.67012190625,30.891875
2021-06-23 16:34:41.031250000,-36.0,5.0,53.0,82.58,6.71,0.670081875,30.892500000000002
2021-06-23 16:34:41.039062500,-36.0,5.0,53.0,82.58,11.05,0.67004184375,30.893125
2021-06-23 16:34:41.046875000,-36.0,5.0,53.0,82.58,15.39,0.6700018125,30.89375
2021-06-23 16:34:41.054687500,-36.0,5.0,53.0,82.58,18.97,0.66996178125,30.894375
2021-06-23 16:34:41.062500000,-36.0,5.0,53.0,82.58,22.55,0.66992175,30.895
2021-06-23 16:34:41.070312500,-36.0,5.0,53.0,82.58,25.445,0.66988171875,30.895625
2021-06-23 16:34:41.078125000,-36.0,5.0,53.0,82.58,28.34,0.6698416875000001,30.896250000000002
2021-06-23 16:34:41.085937500,-36.0,5.0,53.0,82.58,30.57,0.66980165625,30.896875
2021-06-23 16:34:41.093750000,-36.0,5.0,53.0,82.58,32.8,0.669761625,30.8975
2021-06-23 16:34:41.101562500,-36.0,5.0,53.0,82.58,34.349999999999994,0.6697215937500001,30.898125
2021-06-23 16:34:41.109375000,-36.0,5.0,53.0,82.58,35.9,0.6696815625,30.89875
2021-06-23 16:34:41.117187500,-36.0,5.0,53.0,82.58,36.765,0.66964153125,30.899375
2021-06-23 16:34:41.125000000,-36.0,5.0,53.0,82.58,37.63,0.6696015,30.9
2021-06-23 16:34:41.132812500,-36.0,5.0,53.0,82.58,37.86,0.66956146875,30.900625
2021-06-23 16:34:41.140625000,-36.0,5.0,53.0,82.58,38.09,0.6695214375,30.90125
2021-06-23 16:34:41.148437500,-36.0,5.0,53.0,82.58,37.900000000000006,0.66948140625,30.901875
2021-06-23 16:34:41.156250000,-36.0,5.0,53.0,82.58,37.71,0.669441375,30.9025
2021-06-23 16:34:41.164062500,-36.0,5.0,53.0,82.58,37.355000000000004,0.66940134375,30.903125
2021-06-23 16:34:41.171875000,-36.0,5.0,53.0,82.58,37.0,0.6693613125,30.90375
2021-06-23 16:34:41.179687500,-36.0,5.0,53.0,82.58,36.739999999999995,0.66932128125,30.904375
2021-06-23 16:34:41.187500000,-36.0,5.0,53.0,82.58,36.48,0.66928125,30.905
2021-06-23 16:34:41.195312500,-36.0,5.0,53.0,82.58,36.48,0.66924121875,30.905625
2021-06-23 16:34:41.203125000,-36.0,5.0,53.0,82.58,36.48,0.6692011875,30.90625
2021-06-23 16:34:41.210937500,-36.0,5.0,53.0,82.58,36.739999999999995,0.66916115625,30.906875
2021-06-23 16:34:41.218750000,-36.0,5.0,53.0,82.58,37.0,0.669121125,30.9075
2021-06-23 16:34:41.226562500,-36.0,5.0,53.0,82.58,37.4,0.66908109375,30.908125000000002
2021-06-23 16:34:41.234375000,-36.0,5.0,53.0,82.58,37.8,0.6690410625000001,30.90875
2021-06-23 16:34:41.242187500,-36.0,5.0,53.0,82.58,38.17,0.66900103125,30.909375
2021-06-23 16:34:41.250000000,-36.0,5.0,53.0,82.58,38.54,0.668961,30.91
2021-06-23 16:34:41.257812500,-36.0,5.0,53.0,82.58,38.71,0.668961,30.91
2021-06-23 16:34:41.265625000,-36.0,5.0,53.0,82.58,38.88,0.668961,30.91
2021-06-23 16:34:41.273437500,-36.0,5.0,53.0,82.58,38.75,0.668961,30.91
2021-06-23 16:34:41.281250000,-36.0,5.0,53.0,82.58,38.62,0.668961,30.91
2021-06-23 16:34:41.289062500,-36.0,5.0,53.0,82.58,38.165,0.668961,30.91
2021-06-23 16:34:41.296875000,-36.0,5.0,53.0,82.58,37.71,0.668961,30.91
2021-06-23 16:34:41.304687500,-36.0,5.0,53.0,82.58,36.985,0.668961,30.91
2021-06-23 16:34:41.312500000,-36.0,5.0,53.0,82.58,36.26,0.668961,30.91
2021-06-23 16:34:41.320312500,-36.0,5.0,53.0,82.58,35.349999999999994,0.668961,30.91
2021-06-23 16:34:41.328125000,-36.0,5.0,53.0,82.58,34.44,0.668961,30.91
2021-06-23 16:34:41.335937500,-36.0,5.0,53.0,82.58,33.435,0.668961,30.91
2021-06-23 16:34:41.343750000,-36.0,5.0,53.0,82.58,32.43,0.668961,30.91
2021-06-23 16:34:41.351562500,-36.0,5.0,53.0,82.58,31.365000000000002,0.668961,30.91
2021-06-23 16:34:41.359375000,-36.0,5.0,53.0,82.58,30.3,0.668961,30.91
2021-06-23 16:34:41.367187500,-36.0,5.0,53.0,82.58,29.134999999999998,0.668961,30.91
2021-06-23 16:34:41.375000000,-36.0,5.0,53.0,82.58,27.97,0.668961,30.91
2021-06-23 16:34:41.382812500,-36.0,5.0,53.0,82.58,26.604999999999997,0.668961,30.91
2021-06-23 16:34:41.390625000,-36.0,5.0,53.0,82.58,25.24,0.668961,30.91
2021-06-23 16:34:41.398437500,-36.0,5.0,53.0,82.58,23.57,0.668961,30.91
2021-06-23 16:34:41.406250000,-36.0,5.0,53.0,82.58,21.9,0.668961,30.91
2021-06-23 16:34:41.414062500,-36.0,5.0,53.0,82.58,19.9,0.668961,30.91
2021-06-23 16:34:41.421875000,-36.0,5.0,53.0,82.58,17.9,0.668961,30.91
2021-06-23 16:34:41.429687500,-36.0,5.0,53.0,82.58,15.634999999999998,0.668961,30.91
