TimeStamp,empatica.acc.x,empatica.acc.y,empatica.acc.z,empatica.hr,empatica.bvp,empatica.eda,empatica.temp
2021-06-23 16:18:12.789062500,-34.0,6.0,54.0,86.44835937500001,-40.815,0.60767215625,31.95
2021-06-23 16:18:12.796875000,-34.0,6.0,54.0,86.44953125,-33.86,0.6077121875,31.95
2021-06-23 16:18:12.804687500,-34.0,6.0,54.0,86.450703125,-26.799999999999997,0.60775221875,31.95
2021-06-23 16:18:12.812500000,-34.0,6.0,54.0,86.451875,-19.74,0.60779225,31.95
2021-06-23 16:18:12.820312500,-34.0,6.0,54.0,86.453046875,-13.145,0.60783228125,31.95
2021-06-23 16:18:12.828125000,-34.0,6.0,54.0,86.45421875000001,-6.55,0.6078723125,31.95
2021-06-23 16:18:12.835937500,-34.0,6.0,54.0,86.455390625,-0.6799999999999997,0.60791234375,31.95
2021-06-23 16:18:12.843750000,-34.0,6.0,54.0,86.4565625,5.19,0.607952375,31.95
2021-06-23 16:18:12.851562500,-34.0,6.0,54.0,86.457734375,10.285,0.60799240625,31.95
2021-06-23 16:18:12.859375000,-34.0,6.0,54.0,86.45890625,15.38,0.6080324375,31.95
2021-06-23 16:18:12.867187500,-34.0,6.0,54.0,86.46007812500001,19.740000000000002,0.60807246875,31.95
2021-06-23 16:18:12.875000000,-34.0,6.0,54.0,86.46125,24.1,0.6081125000000001,31.95
2021-06-23 16:18:12.882812500,-34.0,6.0,54.0,86.462421875,27.685000000000002,0.60815253125,31.95
2021-06-23 16:18:12.890625000,-34.0,6.0,54.0,86.46359375,31.27,0.6081925625,31.95
2021-06-23 16:18:12.898437500,-34.0,6.0,54.0,86.464765625,33.99,0.60823259375,31.95
2021-06-23 16:18:12.906250000,-34.0,6.0,54.0,86.46593750000001,36.71,0.608272625,31.95
2021-06-23 16:18:12.914062500,-34.0,6.0,54.0,86.467109375,38.46,0.60831265625,31.95
2021-06-23 16:18:12.921875000,-34.0,6.0,54.0,86.46828125,40.21,0.6083526875,31.95
2021-06-23 16:18:12.929687500,-34.0,6.0,54.0,86.469453125,41.004999999999995,0.60839271875,31.95
2021-06-23 16:18:12.937500000,-34.0,6.0,54.0,86.470625,41.8,0.60843275,31.95
2021-06-23 16:18:12.945312500,-34.0,6.0,54.0,86.47179687500001,41.834999999999994,0.60847278125,31.95
2021-06-23 16:18:12.953125000,-34.0,6.0,54.0,86.47296875,41.87,0.6085128125,31.95
2021-06-23 16:18:12.960937500,-34.0,6.0,54.0,86.474140625,41.47,0.60855284375,31.95
2021-06-23 16:18:12.968750000,-34.0,6.0,54.0,86.4753125,41.07,0.608592875,31.95
2021-06-23 16:18:12.976562500,-34.0,6.0,54.0,86.476484375,40.55,0.60863290625,31.95
2021-06-23 16:18:12.984375000,-34.0,6.0,54.0,86.47765625000001,40.03,0.6086729375,31.95
2021-06-23 16:18:12.992187500,-34.0,6.0,54.0,86.478828125,39.605000000000004,0.60871296875,31.95
2021-06-23 16:18:13.000000000,-34.0,6.0,54.0,86.48,39.18,0.608753,31.95
2021-06-23 16:18:13.007812500,-34.0,6.0,54.0,86.48109375,38.875,0.6089931875,31.950625
2021-06-23 16:18:13.015625000,-34.0,6.0,54.0,86.48218750000001,38.57,0.609233375,31.951249999999998
2021-06-23 16:18:13.023437500,-34.0,6.0,54.0,86.48328125,38.29,0.6094735625,31.951874999999998
2021-06-23 16:18:13.031250000,-34.0,6.0,54.0,86.484375,38.01,0.6097137499999999,31.9525
2021-06-23 16:18:13.039062500,-34.0,6.0,54.0,86.48546875000001,37.629999999999995,0.6099539374999999,31.953125
2021-06-23 16:18:13.046875000,-34.0,6.0,54.0,86.4865625,37.25,0.610194125,31.95375
2021-06-23 16:18:13.054687500,-34.0,6.0,54.0,86.48765625,36.695,0.6104343125,31.954375
2021-06-23 16:18:13.062500000,-34.0,6.0,54.0,86.48875000000001,36.14,0.6106745,31.955
2021-06-23 16:18:13.070312500,-34.0,6.0,54.0,86.48984375,35.445,0.6109146875,31.955624999999998
2021-06-23 16:18:13.078125000,-34.0,6.0,54.0,86.4909375,34.75,0.611154875,31.95625
2021-06-23 16:18:13.085937500,-34.0,6.0,54.0,86.49203125000001,33.989999999999995,0.6113950625,31.956875
2021-06-23 16:18:13.093750000,-34.0,6.0,54.0,86.493125,33.23,0.61163525,31.9575
2021-06-23 16:18:13.101562500,-34.0,6.0,54.0,86.49421875,32.48,0.6118754375,31.958125
2021-06-23 16:18:13.109375000,-34.0,6.0,54.0,86.4953125,31.73,0.6121156249999999,31.95875
2021-06-23 16:18:13.117187500,-34.0,6.0,54.0,86.49640625,30.990000000000002,0.6123558124999999,31.959374999999998
2021-06-23 16:18:13.125000000,-34.0,6.0,54.0,86.4975,30.25,0.6125959999999999,31.96
2021-06-23 16:18:13.132812500,-34.0,6.0,54.0,86.49859375,29.42,0.6128361875,31.960625
2021-06-23 16:18:13.140625000,-34.0,6.0,54.0,86.49968750000001,28.59,0.613076375,31.96125
2021-06-23 16:18:13.148437500,-34.0,6.0,54.0,86.50078125,27.465,0.6133165625,31.961875
2021-06-23 16:18:13.156250000,-34.0,6.0,54.0,86.501875,26.34,0.61355675,31.9625
2021-06-23 16:18:13.164062500,-34.0,6.0,54.0,86.50296875000001,24.7,0.6137969375,31.963124999999998
2021-06-23 16:18:13.171875000,-34.0,6.0,54.0,86.5040625,23.06,0.614037125,31.963749999999997
2021-06-23 16:18:13.179687500,-34.0,6.0,54.0,86.50515625,20.729999999999997,0.6142773125,31.964375
2021-06-23 16:18:13.187500000,-34.0,6.0,54.0,86.50625000000001,18.4,0.6145174999999999,31.965
2021-06-23 16:18:13.195312500,-34.0,6.25,54.0,86.50734375,15.36,0.6147576874999999,31.965625
2021-06-23 16:18:13.203125000,-34.0,6.5,54.0,86.5084375,12.32,0.6149978749999999,31.96625
2021-06-23 16:18:13.210937500,-34.0,6.75,54.0,86.50953125000001,8.72,0.6152380625,31.966874999999998
2021-06-23 16:18:13.218750000,-34.0,7.0,54.0,86.510625,5.12,0.61547825,31.967499999999998
2021-06-23 16:18:13.226562500,-34.0,6.75,54.0,86.51171875,1.2800000000000002,0.6157184375,31.968125
2021-06-23 16:18:13.234375000,-34.0,6.5,54.0,86.51281250000001,-2.56,0.615958625,31.96875
2021-06-23 16:18:13.242187500,-34.0,6.25,54.0,86.51390625,-6.27,0.6161988125,31.969375
2021-06-23 16:18:13.250000000,-34.0,6.0,54.0,86.515,-9.98,0.616439,31.97
2021-06-23 16:18:13.257812500,-34.25,6.0,54.0,86.51609375000001,-13.27,0.61663915625,31.97
2021-06-23 16:18:13.265625000,-34.5,6.0,54.0,86.5171875,-16.56,0.6168393125,31.97
2021-06-23 16:18:13.273437500,-34.75,6.0,54.0,86.51828125,-19.299999999999997,0.6170394687499999,31.97
2021-06-23 16:18:13.281250000,-35.0,6.0,54.0,86.51937500000001,-22.04,0.617239625,31.97
2021-06-23 16:18:13.289062500,-34.75,6.0,54.0,86.52046875,-24.314999999999998,0.61743978125,31.97
2021-06-23 16:18:13.296875000,-34.5,6.0,54.0,86.5215625,-26.59,0.6176399374999999,31.97
2021-06-23 16:18:13.304687500,-34.25,6.0,54.0,86.52265625,-28.64,0.6178400937499999,31.97
2021-06-23 16:18:13.312500000,-34.0,6.0,54.0,86.52375,-30.69,0.61804025,31.97
2021-06-23 16:18:13.320312500,-33.75,6.0,54.0,86.52484375,-32.84,0.61824040625,31.97
2021-06-23 16:18:13.328125000,-33.5,6.0,54.0,86.5259375,-34.99,0.6184405625,31.97
2021-06-23 16:18:13.335937500,-33.25,6.0,54.0,86.52703125000001,-37.55,0.6186407187499999,31.97
2021-06-23 16:18:13.343750000,-33.0,6.0,54.0,86.528125,-40.11,0.618840875,31.97
2021-06-23 16:18:13.351562500,-33.25,6.0,54.0,86.52921875,-43.269999999999996,0.61904103125,31.97
2021-06-23 16:18:13.359375000,-33.5,6.0,54.0,86.53031250000001,-46.43,0.6192411874999999,31.97
2021-06-23 16:18:13.367187500,-33.75,6.0,54.0,86.53140625,-50.165,0.6194413437499999,31.97
2021-06-23 16:18:13.375000000,-34.0,6.0,54.0,86.5325,-53.9,0.6196415,31.97
2021-06-23 16:18:13.382812500,-34.0,6.0,54.0,86.53359375000001,-57.9,0.61984165625,31.97
2021-06-23 16:18:13.390625000,-34.0,6.0,54.0,86.5346875,-61.9,0.6200418125,31.97
2021-06-23 16:18:13.398437500,-34.0,6.0,54.0,86.53578125,-65.55,0.6202419687499999,31.97
2021-06-23 16:18:13.406250000,-34.0,6.0,54.0,86.53687500000001,-69.2,0.620442125,31.97
2021-06-23 16:18:13.414062500,-34.0,6.0,54.0,86.53796875,-71.69,0.62064228125,31.97
2021-06-23 16:18:13.421875000,-34.0,6.0,54.0,86.5390625,-74.18,0.6208424374999999,31.97
2021-06-23 16:18:13.429687500,-34.0,6.0,54.0,86.54015625000001,-74.715,0.6210425937499999,31.97
2021-06-23 16:18:13.437500000,-34.0,6.0,54.0,86.54125,-75.25,0.62124275,31.97
2021-06-23 16:18:13.445312500,-34.0,6.0,54.0,86.54234375,-73.33,0.62144290625,31.97
2021-06-23 16:18:13.453125000,-34.0,6.0,54.0,86.54343750000001,-71.41,0.6216430625,31.97
2021-06-23 16:18:13.460937500,-34.0,6.0,54.0,86.54453125,-67.035,0.6218432187499999,31.97
2021-06-23 16:18:13.468750000,-34.0,6.0,54.0,86.545625,-62.66,0.622043375,31.97
2021-06-23 16:18:13.476562500,-34.0,6.0,54.0,86.54671875000001,-56.37,0.62224353125,31.97
2021-06-23 16:18:13.484375000,-34.0,6.0,54.0,86.5478125,-50.08,0.6224436874999999,31.97
2021-06-23 16:18:13.492187500,-34.0,6.0,54.0,86.54890625,-42.785,0.6226438437499999,31.97
2021-06-23 16:18:13.500000000,-34.0,6.0,54.0,86.55000000000001,-35.49,0.622844,31.97
2021-06-23 16:18:13.507812500,-34.0,6.0,54.0,86.55109375,-28.12,0.6232443125,31.97
2021-06-23 16:18:13.515625000,-34.0,6.0,54.0,86.5521875,-20.75,0.623644625,31.97
2021-06-23 16:18:13.523437500,-34.0,6.0,54.0,86.55328125,-14.02,0.6240449375,31.97
2021-06-23 16:18:13.531250000,-34.0,6.0,54.0,86.55437500000001,-7.29,0.62444525,31.97
2021-06-23 16:18:13.539062500,-34.0,6.0,54.0,86.55546875,-1.545,0.6248455625,31.97
2021-06-23 16:18:13.546875000,-34.0,6.0,54.0,86.5565625,4.2,0.625245875,31.97
2021-06-23 16:18:13.554687500,-34.0,6.0,54.0,86.55765625000001,8.965,0.6256461875,31.97
2021-06-23 16:18:13.562500000,-34.0,6.0,54.0,86.55875,13.73,0.6260465,31.97
2021-06-23 16:18:13.570312500,-34.0,6.0,54.0,86.55984375,17.66,0.6264468125,31.97
2021-06-23 16:18:13.578125000,-34.0,6.0,54.0,86.56093750000001,21.59,0.626847125,31.97
2021-06-23 16:18:13.585937500,-34.0,6.0,54.0,86.56203125,24.825,0.6272474375,31.97
2021-06-23 16:18:13.593750000,-34.0,6.0,54.0,86.563125,28.06,0.62764775,31.97
2021-06-23 16:18:13.601562500,-34.0,6.0,54.0,86.56421875000001,30.65,0.6280480625,31.97
2021-06-23 16:18:13.609375000,-34.0,6.0,54.0,86.5653125,33.24,0.628448375,31.97
2021-06-23 16:18:13.617187500,-34.0,6.0,54.0,86.56640625,35.16,0.6288486875,31.97
2021-06-23 16:18:13.625000000,-34.0,6.0,54.0,86.56750000000001,37.08,0.629249,31.97
2021-06-23 16:18:13.632812500,-34.0,6.0,54.25,86.56859375,38.33,0.6296493125,31.97
2021-06-23 16:18:13.640625000,-34.0,6.0,54.5,86.5696875,39.58,0.6300496250000001,31.97
2021-06-23 16:18:13.648437500,-34.0,6.0,54.75,86.57078125000001,40.22,0.6304499375,31.97
2021-06-23 16:18:13.656250000,-34.0,6.0,55.0,86.571875,40.86,0.6308502500000001,31.97
2021-06-23 16:18:13.664062500,-34.0,6.0,54.75,86.57296875,41.045,0.6312505625,31.97
2021-06-23 16:18:13.671875000,-34.0,6.0,54.5,86.57406250000001,41.23,0.6316508750000001,31.97
2021-06-23 16:18:13.679687500,-34.0,6.0,54.25,86.57515625,41.144999999999996,0.6320511875,31.97
2021-06-23 16:18:13.687500000,-34.0,6.0,54.0,86.57625,41.06,0.6324515,31.97
2021-06-23 16:18:13.695312500,-34.0,6.0,54.0,86.57734375000001,40.85,0.6328518125,31.97
2021-06-23 16:18:13.703125000,-34.0,6.0,54.0,86.5784375,40.64,0.633252125,31.97
2021-06-23 16:18:13.710937500,-34.0,6.0,54.0,86.57953125,40.355000000000004,0.6336524375,31.97
2021-06-23 16:18:13.718750000,-34.0,6.0,54.0,86.580625,40.07,0.63405275,31.97
2021-06-23 16:18:13.726562500,-34.0,6.0,54.0,86.58171875000001,39.67,0.6344530625,31.97
2021-06-23 16:18:13.734375000,-34.0,6.0,54.0,86.5828125,39.27,0.634853375,31.97
2021-06-23 16:18:13.742187500,-34.0,6.0,54.0,86.58390625,38.7,0.6352536875,31.97
2021-06-23 16:18:13.750000000,-34.0,6.0,54.0,86.58500000000001,38.13,0.635654,31.97
2021-06-23 16:18:13.757812500,-34.0,6.0,54.0,86.58609375,37.36,0.63569403125,31.97
2021-06-23 16:18:13.765625000,-34.0,6.0,54.0,86.5871875,36.59,0.6357340625000001,31.97
2021-06-23 16:18:13.773437500,-34.0,6.0,54.0,86.58828125000001,35.67,0.63577409375,31.97
2021-06-23 16:18:13.781250000,-34.0,6.0,54.0,86.589375,34.75,0.635814125,31.97
2021-06-23 16:18:13.789062500,-34.0,6.0,54.0,86.59046875,33.815,0.6358541562500001,31.97
2021-06-23 16:18:13.796875000,-34.0,6.0,54.0,86.59156250000001,32.88,0.6358941875,31.97
2021-06-23 16:18:13.804687500,-34.0,6.0,54.0,86.59265625,32.055,0.63593421875,31.97
2021-06-23 16:18:13.812500000,-34.0,6.0,54.0,86.59375,31.23,0.6359742500000001,31.97
2021-06-23 16:18:13.820312500,-34.0,6.0,54.0,86.59484375000001,30.575000000000003,0.63601428125,31.97
2021-06-23 16:18:13.828125000,-34.0,6.0,54.0,86.5959375,29.92,0.6360543125,31.97
2021-06-23 16:18:13.835937500,-34.0,6.0,54.0,86.59703125,29.380000000000003,0.6360943437500001,31.97
2021-06-23 16:18:13.843750000,-34.0,6.0,54.0,86.59812500000001,28.84,0.636134375,31.97
2021-06-23 16:18:13.851562500,-34.0,6.0,54.0,86.59921875,28.244999999999997,0.63617440625,31.97
2021-06-23 16:18:13.859375000,-34.0,6.0,54.0,86.6003125,27.65,0.6362144375000001,31.97
2021-06-23 16:18:13.867187500,-34.0,6.0,54.0,86.60140625000001,26.74,0.63625446875,31.97
2021-06-23 16:18:13.875000000,-34.0,6.0,54.0,86.6025,25.83,0.6362945,31.97
2021-06-23 16:18:13.882812500,-34.0,6.0,54.0,86.60359375,24.38,0.6363345312500001,31.97
2021-06-23 16:18:13.890625000,-34.0,6.0,54.0,86.60468750000001,22.93,0.6363745625,31.97
2021-06-23 16:18:13.898437500,-34.0,6.0,54.0,86.60578125,20.78,0.6364145937500001,31.97
2021-06-23 16:18:13.906250000,-34.0,6.0,54.0,86.606875,18.63,0.636454625,31.97
2021-06-23 16:18:13.914062500,-34.0,6.0,54.0,86.60796875,15.79,0.63649465625,31.97
2021-06-23 16:18:13.921875000,-34.0,6.0,54.0,86.60906250000001,12.95,0.6365346875000001,31.97
2021-06-23 16:18:13.929687500,-34.0,6.0,54.0,86.61015625,9.594999999999999,0.63657471875,31.97
2021-06-23 16:18:13.937500000,-34.0,6.0,54.0,86.61125,6.24,0.63661475,31.97
2021-06-23 16:18:13.945312500,-34.0,6.0,54.0,86.61234375000001,2.6500000000000004,0.6366547812500001,31.97
2021-06-23 16:18:13.953125000,-34.0,6.0,54.0,86.6134375,-0.94,0.6366948125,31.97
2021-06-23 16:18:13.960937500,-34.0,6.0,54.0,86.61453125,-4.4350000000000005,0.63673484375,31.97
2021-06-23 16:18:13.968750000,-34.0,6.0,54.0,86.61562500000001,-7.93,0.6367748750000001,31.97
2021-06-23 16:18:13.976562500,-34.0,6.0,54.0,86.61671875,-11.1,0.63681490625,31.97
2021-06-23 16:18:13.984375000,-34.0,6.0,54.0,86.6178125,-14.27,0.6368549375,31.97
2021-06-23 16:18:13.992187500,-34.0,6.0,54.0,86.61890625000001,-17.055,0.6368949687500001,31.97
2021-06-23 16:18:14.000000000,-34.0,6.0,54.0,86.62,-19.84,0.636935,31.97
2021-06-23 16:18:14.007812500,-34.0,6.0,54.0,86.62085937500001,-22.355,0.637095125,31.969375
2021-06-23 16:18:14.015625000,-34.0,6.0,54.0,86.62171875,-24.87,0.63725525,31.96875
2021-06-23 16:18:14.023437500,-34.0,6.0,54.0,86.622578125,-27.37,0.637415375,31.968125
2021-06-23 16:18:14.031250000,-34.0,6.0,54.0,86.62343750000001,-29.87,0.6375755000000001,31.967499999999998
2021-06-23 16:18:14.039062500,-34.0,6.0,54.0,86.624296875,-32.645,0.637735625,31.966874999999998
2021-06-23 16:18:14.046875000,-34.0,6.0,54.0,86.62515625,-35.42,0.63789575,31.96625
2021-06-23 16:18:14.054687500,-34.0,6.0,54.0,86.62601562500001,-38.67,0.638055875,31.965625
2021-06-23 16:18:14.062500000,-34.0,6.0,54.0,86.626875,-41.92,0.638216,31.965
2021-06-23 16:18:14.070312500,-34.0,6.0,54.0,86.627734375,-45.650000000000006,0.6383761250000001,31.964375
2021-06-23 16:18:14.078125000,-34.0,6.0,54.0,86.62859375000001,-49.38,0.63853625,31.963749999999997
2021-06-23 16:18:14.085937500,-34.0,6.0,54.0,86.629453125,-53.370000000000005,0.638696375,31.963124999999998
2021-06-23 16:18:14.093750000,-34.0,6.0,54.0,86.6303125,-57.36,0.6388565,31.9625
2021-06-23 16:18:14.101562500,-34.0,6.0,54.0,86.631171875,-61.155,0.639016625,31.961875
2021-06-23 16:18:14.109375000,-34.0,6.0,54.0,86.63203125000001,-64.95,0.6391767500000001,31.96125
2021-06-23 16:18:14.117187500,-34.0,6.0,54.0,86.632890625,-67.88499999999999,0.639336875,31.960625
2021-06-23 16:18:14.125000000,-34.0,6.0,54.0,86.63375,-70.82,0.639497,31.96
2021-06-23 16:18:14.132812500,-34.0,6.0,54.0,86.63460937500001,-72.215,0.639657125,31.959374999999998
2021-06-23 16:18:14.140625000,-34.0,6.0,54.0,86.63546875,-73.61,0.63981725,31.95875
2021-06-23 16:18:14.148437500,-34.0,6.0,54.0,86.636328125,-72.91499999999999,0.6399773750000001,31.958125
2021-06-23 16:18:14.156250000,-34.0,6.0,54.0,86.63718750000001,-72.22,0.6401375,31.9575
2021-06-23 16:18:14.164062500,-34.0,6.0,54.0,86.638046875,-69.235,0.6402976250000001,31.956875
2021-06-23 16:18:14.171875000,-34.0,6.0,54.0,86.63890625,-66.25,0.64045775,31.95625
2021-06-23 16:18:14.179687500,-34.0,6.0,54.0,86.63976562500001,-61.215,0.640617875,31.955624999999998
2021-06-23 16:18:14.187500000,-34.0,6.0,54.0,86.640625,-56.18,0.6407780000000001,31.955
2021-06-23 16:18:14.195312500,-34.0,6.0,54.0,86.641484375,-49.72,0.640938125,31.954375
2021-06-23 16:18:14.203125000,-34.0,6.0,54.0,86.64234375000001,-43.26,0.6410982500000001,31.95375
2021-06-23 16:18:14.210937500,-34.0,6.0,54.0,86.643203125,-36.21,0.641258375,31.953125
2021-06-23 16:18:14.218750000,-34.0,6.0,54.0,86.6440625,-29.16,0.6414185,31.9525
2021-06-23 16:18:14.226562500,-34.0,6.0,54.0,86.64492187500001,-22.285,0.6415786250000001,31.951874999999998
2021-06-23 16:18:14.234375000,-34.0,6.0,54.0,86.64578125,-15.41,0.64173875,31.951249999999998
2021-06-23 16:18:14.242187500,-34.0,6.0,54.0,86.646640625,-9.225,0.6418988750000001,31.950625
2021-06-23 16:18:14.250000000,-34.0,6.0,54.0,86.64750000000001,-3.04,0.642059,31.95
2021-06-23 16:18:14.257812500,-33.75,6.0,54.0,86.648359375,2.2399999999999993,0.6418988750000001,31.95
2021-06-23 16:18:14.265625000,-33.5,6.0,54.0,86.64921875,7.52,0.64173875,31.95
2021-06-23 16:18:14.273437500,-33.25,6.0,54.0,86.65007812500001,11.855,0.6415786250000001,31.95
2021-06-23 16:18:14.281250000,-33.0,6.0,54.0,86.6509375,16.19,0.6414185,31.95
2021-06-23 16:18:14.289062500,-33.25,6.0,54.0,86.651796875,19.64,0.641258375,31.95
2021-06-23 16:18:14.296875000,-33.5,6.0,54.0,86.65265625,23.09,0.6410982500000001,31.95
2021-06-23 16:18:14.304687500,-33.75,6.0,54.0,86.65351562500001,25.68,0.640938125,31.95
2021-06-23 16:18:14.312500000,-34.0,6.0,54.0,86.654375,28.27,0.6407780000000001,31.95
2021-06-23 16:18:14.320312500,-34.0,6.0,54.0,86.655234375,30.005,0.640617875,31.95
2021-06-23 16:18:14.328125000,-34.0,6.0,54.0,86.65609375000001,31.74,0.64045775,31.95
2021-06-23 16:18:14.335937500,-34.0,6.0,54.0,86.656953125,32.705,0.6402976250000001,31.95
2021-06-23 16:18:14.343750000,-34.0,6.0,54.0,86.6578125,33.67,0.6401375,31.95
2021-06-23 16:18:14.351562500,-34.0,6.0,54.0,86.65867187500001,34.045,0.6399773750000001,31.95
2021-06-23 16:18:14.359375000,-34.0,6.0,54.0,86.65953125,34.42,0.63981725,31.95
2021-06-23 16:18:14.367187500,-34.0,6.0,54.0,86.660390625,34.455,0.639657125,31.95
2021-06-23 16:18:14.375000000,-34.0,6.0,54.0,86.66125000000001,34.49,0.639497,31.95
2021-06-23 16:18:14.382812500,-34.0,6.0,54.0,86.662109375,34.415000000000006,0.639336875,31.95
2021-06-23 16:18:14.390625000,-34.0,6.0,54.0,86.66296875,34.34,0.6391767500000001,31.95
2021-06-23 16:18:14.398437500,-34.0,6.0,54.0,86.66382812500001,34.285,0.639016625,31.95
2021-06-23 16:18:14.406250000,-34.0,6.0,54.0,86.6646875,34.23,0.6388565,31.95
2021-06-23 16:18:14.414062500,-34.0,6.0,54.25,86.665546875,34.215,0.638696375,31.95
2021-06-23 16:18:14.421875000,-34.0,6.0,54.5,86.66640625000001,34.2,0.63853625,31.95
2021-06-23 16:18:14.429687500,-34.0,6.0,54.75,86.667265625,34.14,0.6383761250000001,31.95
2021-06-23 16:18:14.437500000,-34.0,6.0,55.0,86.668125,34.08,0.638216,31.95
2021-06-23 16:18:14.445312500,-34.0,6.0,54.75,86.66898437500001,33.885,0.638055875,31.95
2021-06-23 16:18:14.453125000,-34.0,6.0,54.5,86.66984375,33.69,0.63789575,31.95
2021-06-23 16:18:14.460937500,-34.0,6.0,54.25,86.670703125,33.3,0.637735625,31.95
2021-06-23 16:18:14.468750000,-34.0,6.0,54.0,86.67156250000001,32.91,0.6375755000000001,31.95
2021-06-23 16:18:14.476562500,-34.0,6.0,54.0,86.672421875,32.33,0.637415375,31.95
2021-06-23 16:18:14.484375000,-34.0,6.0,54.0,86.67328125,31.75,0.63725525,31.95
2021-06-23 16:18:14.492187500,-34.0,6.0,54.0,86.674140625,31.045,0.637095125,31.95
2021-06-23 16:18:14.500000000,-34.0,6.0,54.0,86.67500000000001,30.34,0.636935,31.95
2021-06-23 16:18:14.507812500,-34.0,6.0,54.0,86.675859375,29.58,0.636935,31.95
2021-06-23 16:18:14.515625000,-34.0,6.0,54.0,86.67671875,28.82,0.636935,31.95
2021-06-23 16:18:14.523437500,-34.0,6.0,54.0,86.67757812500001,28.060000000000002,0.636935,31.95
2021-06-23 16:18:14.531250000,-34.0,6.0,54.0,86.6784375,27.3,0.636935,31.95
2021-06-23 16:18:14.539062500,-34.0,6.0,54.0,86.679296875,26.525,0.636935,31.95
2021-06-23 16:18:14.546875000,-34.0,6.0,54.0,86.68015625000001,25.75,0.636935,31.95
2021-06-23 16:18:14.554687500,-34.0,6.0,54.0,86.681015625,24.86,0.636935,31.95
2021-06-23 16:18:14.562500000,-34.0,6.0,54.0,86.681875,23.97,0.636935,31.95
2021-06-23 16:18:14.570312500,-34.0,6.0,54.0,86.68273437500001,22.83,0.636935,31.95
2021-06-23 16:18:14.578125000,-34.0,6.0,54.0,86.68359375,21.69,0.636935,31.95
2021-06-23 16:18:14.585937500,-34.0,6.0,54.0,86.684453125,20.155,0.636935,31.95
2021-06-23 16:18:14.593750000,-34.0,6.0,54.0,86.68531250000001,18.62,0.636935,31.95
2021-06-23 16:18:14.601562500,-34.0,6.0,54.0,86.686171875,16.625,0.636935,31.95
2021-06-23 16:18:14.609375000,-34.0,6.0,54.0,86.68703125,14.63,0.636935,31.95
2021-06-23 16:18:14.617187500,-34.0,6.0,54.0,86.68789062500001,12.25,0.636935,31.95
2021-06-23 16:18:14.625000000,-34.0,6.0,54.0,86.68875,9.87,0.636935,31.95
2021-06-23 16:18:14.632812500,-34.0,6.0,54.0,86.689609375,7.279999999999999,0.636935,31.95
2021-06-23 16:18:14.640625000,-34.0,6.0,54.0,86.69046875000001,4.69,0.636935,31.95
2021-06-23 16:18:14.648437500,-34.0,6.0,54.0,86.691328125,2.085,0.636935,31.95
2021-06-23 16:18:14.656250000,-34.0,6.0,54.0,86.6921875,-0.52,0.636935,31.95
2021-06-23 16:18:14.664062500,-34.0,6.0,54.0,86.69304687500001,-3.015,0.636935,31.95
2021-06-23 16:18:14.671875000,-34.0,6.0,54.0,86.69390625,-5.51,0.636935,31.95
2021-06-23 16:18:14.679687500,-34.0,6.0,54.0,86.694765625,-7.915,0.636935,31.95
2021-06-23 16:18:14.687500000,-34.0,6.0,54.0,86.695625,-10.32,0.636935,31.95
2021-06-23 16:18:14.695312500,-34.0,6.0,54.0,86.696484375,-12.805,0.636935,31.95
2021-06-23 16:18:14.703125000,-34.0,6.0,54.0,86.69734375,-15.29,0.636935,31.95
2021-06-23 16:18:14.710937500,-34.0,6.0,54.0,86.698203125,-18.095,0.636935,31.95
2021-06-23 16:18:14.718750000,-34.0,6.0,54.0,86.69906250000001,-20.9,0.636935,31.95
2021-06-23 16:18:14.726562500,-34.0,6.0,54.0,86.699921875,-24.215,0.636935,31.95
2021-06-23 16:18:14.734375000,-34.0,6.0,54.0,86.70078125,-27.53,0.636935,31.95
2021-06-23 16:18:14.742187500,-34.0,6.0,54.0,86.70164062500001,-31.395,0.636935,31.95
2021-06-23 16:18:14.750000000,-34.0,6.0,54.0,86.7025,-35.26,0.636935,31.95
2021-06-23 16:18:14.757812500,-34.0,6.0,54.0,86.703359375,-39.51,0.6368549375,31.95
2021-06-23 16:18:14.765625000,-34.0,6.0,54.0,86.70421875000001,-43.76,0.6367748750000001,31.95
2021-06-23 16:18:14.773437500,-34.0,6.0,54.0,86.705078125,-48.015,0.6366948125,31.95
2021-06-23 16:18:14.781250000,-34.0,6.0,54.0,86.7059375,-52.27,0.63661475,31.95
2021-06-23 16:18:14.789062500,-34.0,6.0,54.0,86.70679687500001,-55.97,0.6365346875,31.95
2021-06-23 16:18:14.796875000,-34.0,6.0,54.0,86.70765625,-59.67,0.636454625,31.95
2021-06-23 16:18:14.804687500,-34.0,6.0,54.0,86.708515625,-62.15,0.6363745625,31.95
2021-06-23 16:18:14.812500000,-34.0,6.0,54.0,86.70937500000001,-64.63,0.6362945,31.95
2021-06-23 16:18:14.820312500,-34.0,6.0,54.0,86.710234375,-65.28,0.6362144375000001,31.95
2021-06-23 16:18:14.828125000,-34.0,6.0,54.0,86.71109375,-65.93,0.636134375,31.95
2021-06-23 16:18:14.835937500,-34.0,6.0,54.0,86.71195312500001,-64.385,0.6360543125,31.95
2021-06-23 16:18:14.843750000,-34.0,6.0,54.0,86.7128125,-62.84,0.63597425,31.95
2021-06-23 16:18:14.851562500,-34.0,6.0,54.0,86.713671875,-59.11,0.6358941875,31.95
2021-06-23 16:18:14.859375000,-34.0,6.0,54.0,86.71453125000001,-55.38,0.635814125,31.95
2021-06-23 16:18:14.867187500,-34.0,6.0,54.0,86.715390625,-49.894999999999996,0.6357340625,31.95
2021-06-23 16:18:14.875000000,-34.0,6.0,54.0,86.71625,-44.41,0.6356539999999999,31.95
2021-06-23 16:18:14.882812500,-34.0,6.0,54.0,86.717109375,-37.91,0.6355739375,31.95
2021-06-23 16:18:14.890625000,-34.0,6.0,54.0,86.71796875,-31.41,0.635493875,31.95
2021-06-23 16:18:14.898437500,-34.0,6.0,54.0,86.718828125,-24.735,0.6354138125,31.95
2021-06-23 16:18:14.906250000,-34.0,6.0,54.0,86.7196875,-18.06,0.63533375,31.95
2021-06-23 16:18:14.914062500,-34.0,6.0,54.0,86.72054687500001,-11.879999999999999,0.6352536875,31.95
2021-06-23 16:18:14.921875000,-34.0,6.0,54.0,86.72140625,-5.7,0.635173625,31.95
2021-06-23 16:18:14.929687500,-34.0,6.0,54.0,86.722265625,-0.4300000000000006,0.6350935624999999,31.95
2021-06-23 16:18:14.937500000,-34.0,6.0,54.0,86.72312500000001,4.84,0.6350135,31.95
2021-06-23 16:18:14.945312500,-34.0,6.0,54.0,86.723984375,9.065,0.6349334375,31.95
2021-06-23 16:18:14.953125000,-34.0,6.0,54.0,86.72484375,13.29,0.6348533749999999,31.95
2021-06-23 16:18:14.960937500,-34.0,6.0,54.0,86.72570312500001,16.490000000000002,0.6347733125,31.95
2021-06-23 16:18:14.968750000,-34.0,6.0,54.0,86.7265625,19.69,0.63469325,31.95
2021-06-23 16:18:14.976562500,-34.0,6.0,54.0,86.727421875,21.92,0.6346131875,31.95
2021-06-23 16:18:14.984375000,-34.0,6.0,54.0,86.72828125000001,24.15,0.6345331249999999,31.95
2021-06-23 16:18:14.992187500,-34.0,6.0,54.0,86.729140625,25.445,0.6344530625,31.95
2021-06-23 16:18:15.000000000,-34.0,6.0,54.0,86.73,26.74,0.634373,31.95
2021-06-23 16:18:15.007812500,-34.0,6.0,54.0,86.73078125,27.165,0.6342929374999999,31.95
2021-06-23 16:18:15.015625000,-34.0,6.0,54.0,86.73156250000001,27.59,0.634212875,31.95
2021-06-23 16:18:15.023437500,-34.0,6.0,54.0,86.73234375,27.305,0.6341328125,31.95
2021-06-23 16:18:15.031250000,-34.0,6.0,54.0,86.733125,27.02,0.6340527499999999,31.95
2021-06-23 16:18:15.039062500,-34.0,6.0,54.0,86.73390625,26.29,0.6339726875,31.95
2021-06-23 16:18:15.046875000,-34.0,6.0,54.0,86.7346875,25.56,0.633892625,31.95
2021-06-23 16:18:15.054687500,-34.0,6.0,54.0,86.73546875000001,24.695,0.6338125625,31.95
2021-06-23 16:18:15.062500000,-34.0,6.0,54.0,86.73625,23.83,0.6337325,31.95
2021-06-23 16:18:15.070312500,-33.75,6.0,54.0,86.73703125,23.085,0.6336524375,31.95
2021-06-23 16:18:15.078125000,-33.5,6.0,54.0,86.7378125,22.34,0.633572375,31.95
2021-06-23 16:18:15.085937500,-33.25,6.0,54.0,86.73859375,21.8,0.6334923124999999,31.95
2021-06-23 16:18:15.093750000,-33.0,6.0,54.0,86.73937500000001,21.26,0.63341225,31.95
2021-06-23 16:18:15.101562500,-33.25,6.0,54.0,86.74015625,20.83,0.6333321875,31.95
2021-06-23 16:18:15.109375000,-33.5,6.0,54.0,86.7409375,20.4,0.6332521249999999,31.95
2021-06-23 16:18:15.117187500,-33.75,6.0,54.0,86.74171875,19.86,0.6331720625,31.95
2021-06-23 16:18:15.125000000,-34.0,6.0,54.0,86.7425,19.32,0.633092,31.95
2021-06-23 16:18:15.132812500,-34.0,6.0,54.0,86.74328125000001,18.439999999999998,0.6330119375,31.95
2021-06-23 16:18:15.140625000,-34.0,6.0,54.0,86.7440625,17.56,0.632931875,31.95
2021-06-23 16:18:15.148437500,-34.0,6.0,54.0,86.74484375,16.24,0.6328518125,31.95
2021-06-23 16:18:15.156250000,-34.0,6.0,54.0,86.745625,14.92,0.63277175,31.95
2021-06-23 16:18:15.164062500,-34.0,6.0,54.0,86.74640625,13.245000000000001,0.6326916875,31.95
2021-06-23 16:18:15.171875000,-34.0,6.0,54.0,86.74718750000001,11.57,0.632611625,31.95
2021-06-23 16:18:15.179687500,-34.0,6.0,54.0,86.74796875,9.775,0.6325315625,31.95
2021-06-23 16:18:15.187500000,-34.0,6.0,54.0,86.74875,7.98,0.6324514999999999,31.95
2021-06-23 16:18:15.195312500,-34.0,6.0,54.0,86.74953125,6.375,0.6323714375,31.95
2021-06-23 16:18:15.203125000,-34.0,6.0,54.0,86.7503125,4.77,0.632291375,31.95
2021-06-23 16:18:15.210937500,-34.0,6.0,54.0,86.75109375000001,3.5599999999999996,0.6322113125,31.95
2021-06-23 16:18:15.218750000,-34.0,6.0,54.0,86.751875,2.35,0.63213125,31.95
2021-06-23 16:18:15.226562500,-34.0,6.0,54.0,86.75265625,1.55,0.6320511875,31.95
2021-06-23 16:18:15.234375000,-34.0,6.0,54.0,86.7534375,0.75,0.631971125,31.95
2021-06-23 16:18:15.242187500,-34.0,6.0,54.0,86.75421875,0.10999999999999999,0.6318910625,31.95
2021-06-23 16:18:15.250000000,-34.0,6.0,54.0,86.755,-0.53,0.631811,31.95
2021-06-23 16:18:15.257812500,-34.0,6.0,54.0,86.75578125,-1.395,0.6317309375,31.95
2021-06-23 16:18:15.265625000,-34.0,6.0,54.0,86.7565625,-2.26,0.6316508750000001,31.95
2021-06-23 16:18:15.273437500,-34.0,6.0,54.0,86.75734375,-3.725,0.6315708125,31.95
2021-06-23 16:18:15.281250000,-34.0,6.0,54.0,86.758125,-5.19,0.63149075,31.95
2021-06-23 16:18:15.289062500,-34.0,6.0,54.0,86.75890625,-7.415000000000001,0.6314106875,31.95
2021-06-23 16:18:15.296875000,-34.0,6.0,54.0,86.7596875,-9.64,0.631330625,31.95
2021-06-23 16:18:15.304687500,-34.0,6.0,54.0,86.76046875,-12.47,0.6312505625,31.95
2021-06-23 16:18:15.312500000,-34.0,6.0,54.0,86.76125,-15.3,0.6311705,31.95
2021-06-23 16:18:15.320312500,-34.0,6.0,54.0,86.76203125,-18.314999999999998,0.6310904375,31.95
2021-06-23 16:18:15.328125000,-34.0,6.0,54.0,86.7628125,-21.33,0.631010375,31.95
2021-06-23 16:18:15.335937500,-34.0,6.0,54.0,86.76359375,-23.97,0.6309303125,31.95
2021-06-23 16:18:15.343750000,-34.0,6.0,54.0,86.764375,-26.61,0.63085025,31.95
2021-06-23 16:18:15.351562500,-34.0,6.0,54.0,86.76515625,-28.439999999999998,0.6307701875,31.95
2021-06-23 16:18:15.359375000,-34.0,6.0,54.0,86.7659375,-30.27,0.630690125,31.95
2021-06-23 16:18:15.367187500,-34.0,6.0,54.0,86.76671875,-31.11,0.6306100625,31.95
2021-06-23 16:18:15.375000000,-34.0,6.0,54.0,86.7675,-31.95,0.63053,31.95
2021-06-23 16:18:15.382812500,-34.0,6.0,54.0,86.76828125,-31.985,0.6304499375,31.95
2021-06-23 16:18:15.390625000,-34.0,6.0,54.0,86.7690625,-32.02,0.630369875,31.95
2021-06-23 16:18:15.398437500,-34.0,6.0,54.0,86.76984375,-31.695,0.6302898124999999,31.95
2021-06-23 16:18:15.406250000,-34.0,6.0,54.0,86.770625,-31.37,0.63020975,31.95
2021-06-23 16:18:15.414062500,-34.0,6.0,54.0,86.77140625,-31.265,0.6301296875,31.95
2021-06-23 16:18:15.421875000,-34.0,6.0,54.0,86.7721875,-31.16,0.630049625,31.95
2021-06-23 16:18:15.429687500,-34.0,6.0,54.0,86.77296875,-31.775,0.6299695624999999,31.95
2021-06-23 16:18:15.437500000,-34.0,6.0,54.0,86.77375,-32.39,0.6298895,31.95
2021-06-23 16:18:15.445312500,-34.0,6.0,54.0,86.77453125,-33.955,0.6298094375,31.95
2021-06-23 16:18:15.453125000,-34.0,6.0,54.0,86.7753125,-35.52,0.6297293749999999,31.95
2021-06-23 16:18:15.460937500,-34.0,6.0,54.0,86.77609375,-37.875,0.6296493125,31.95
2021-06-23 16:18:15.468750000,-34.0,6.0,54.0,86.776875,-40.23,0.62956925,31.95
2021-06-23 16:18:15.476562500,-34.0,6.0,54.0,86.77765625,-42.765,0.6294891874999999,31.95
2021-06-23 16:18:15.484375000,-34.0,6.0,54.0,86.7784375,-45.3,0.6294091249999999,31.95
2021-06-23 16:18:15.492187500,-34.0,6.0,54.0,86.77921875,-47.06,0.6293290625,31.95
2021-06-23 16:18:15.500000000,-34.0,6.0,54.0,86.78,-48.82,0.629249,31.95
2021-06-23 16:18:15.507812500,-34.0,6.0,54.0,86.78078125,-48.705,0.6290488437499999,31.95
2021-06-23 16:18:15.515625000,-34.0,6.0,54.0,86.7815625,-48.59,0.6288486874999999,31.95
2021-06-23 16:18:15.523437500,-34.0,6.0,54.0,86.78234375,-45.68000000000001,0.62864853125,31.95
2021-06-23 16:18:15.531250000,-34.0,6.0,54.0,86.783125,-42.77,0.628448375,31.95
2021-06-23 16:18:15.539062500,-34.0,6.0,54.0,86.78390625,-36.730000000000004,0.6282482187499999,31.95
2021-06-23 16:18:15.546875000,-34.0,6.0,54.0,86.7846875,-30.69,0.6280480625,31.95
2021-06-23 16:18:15.554687500,-34.0,6.0,54.0,86.78546875,-21.955000000000002,0.62784790625,31.95
2021-06-23 16:18:15.562500000,-34.0,6.0,54.0,86.78625,-13.22,0.62764775,31.95
2021-06-23 16:18:15.570312500,-34.0,6.0,54.0,86.78703125,-2.985000000000001,0.6274475937499999,31.95
2021-06-23 16:18:15.578125000,-34.0,6.0,54.0,86.7878125,7.25,0.6272474374999999,31.95
2021-06-23 16:18:15.585937500,-34.0,6.0,54.0,86.78859375,17.384999999999998,0.62704728125,31.95
2021-06-23 16:18:15.593750000,-34.0,6.0,54.0,86.789375,27.52,0.626847125,31.95
2021-06-23 16:18:15.601562500,-34.0,6.0,54.0,86.79015625,36.06,0.6266469687499999,31.95
2021-06-23 16:18:15.609375000,-34.0,6.0,54.0,86.7909375,44.6,0.6264468125,31.95
2021-06-23 16:18:15.617187500,-34.0,6.0,54.0,86.79171875,50.635000000000005,0.62624665625,31.95
2021-06-23 16:18:15.625000000,-34.0,6.0,54.0,86.7925,56.67,0.6260465,31.95
2021-06-23 16:18:15.632812500,-34.0,6.0,54.0,86.79328125,60.09,0.6258463437499999,31.95
2021-06-23 16:18:15.640625000,-34.0,6.0,54.0,86.7940625,63.51,0.6256461874999999,31.95
2021-06-23 16:18:15.648437500,-34.0,6.0,54.0,86.79484375,64.865,0.62544603125,31.95
2021-06-23 16:18:15.656250000,-34.0,6.0,54.0,86.795625,66.22,0.625245875,31.95
2021-06-23 16:18:15.664062500,-34.0,6.0,54.0,86.79640625,66.345,0.6250457187499999,31.95
2021-06-23 16:18:15.671875000,-34.0,6.0,54.0,86.7971875,66.47,0.6248455625,31.95
2021-06-23 16:18:15.679687500,-34.0,6.0,54.0,86.79796875,66.075,0.62464540625,31.95
2021-06-23 16:18:15.687500000,-34.0,6.0,54.0,86.79875,65.68,0.62444525,31.95
2021-06-23 16:18:15.695312500,-34.0,6.0,54.0,86.79953125,65.13,0.6242450937499999,31.95
2021-06-23 16:18:15.703125000,-34.0,6.0,54.0,86.8003125,64.58,0.6240449374999999,31.95
2021-06-23 16:18:15.710937500,-34.0,6.0,54.0,86.80109375,63.905,0.62384478125,31.95
2021-06-23 16:18:15.718750000,-34.0,6.0,54.0,86.801875,63.23,0.623644625,31.95
2021-06-23 16:18:15.726562500,-34.0,6.0,54.0,86.80265625,62.36,0.6234444687499999,31.95
2021-06-23 16:18:15.734375000,-34.0,6.0,54.0,86.8034375,61.49,0.6232443125,31.95
2021-06-23 16:18:15.742187500,-34.0,6.0,54.0,86.80421875,60.435,0.62304415625,31.95
2021-06-23 16:18:15.750000000,-34.0,6.0,54.0,86.805,59.38,0.622844,31.95
2021-06-23 16:18:15.757812500,-34.0,6.0,54.0,86.80578125,58.325,0.62296409375,31.95
2021-06-23 16:18:15.765625000,-34.0,6.0,54.0,86.8065625,57.27,0.6230841874999999,31.95
2021-06-23 16:18:15.773437500,-34.0,6.0,54.0,86.80734375,56.43000000000001,0.6232042812499999,31.95
2021-06-23 16:18:15.781250000,-34.0,6.0,54.0,86.808125,55.59,0.6233243749999999,31.95
2021-06-23 16:18:15.789062500,-34.0,6.0,54.0,86.80890624999999,55.065,0.6234444687499999,31.95
2021-06-23 16:18:15.796875000,-34.0,6.0,54.0,86.8096875,54.54,0.6235645624999999,31.95
2021-06-23 16:18:15.804687500,-34.0,6.0,54.0,86.81046875,54.235,0.6236846562499999,31.95
2021-06-23 16:18:15.812500000,-34.0,6.0,54.0,86.81125,53.93,0.6238047499999999,31.95
2021-06-23 16:18:15.820312500,-34.25,6.0,54.0,86.81203125,53.58,0.62392484375,31.95
2021-06-23 16:18:15.828125000,-34.5,6.0,54.0,86.81281249999999,53.23,0.6240449375,31.95
2021-06-23 16:18:15.835937500,-34.75,6.0,54.0,86.81359375,52.59,0.62416503125,31.95
2021-06-23 16:18:15.843750000,-35.0,6.0,54.0,86.814375,51.95,0.624285125,31.95
2021-06-23 16:18:15.851562500,-34.75,6.0,54.0,86.81515625,50.91,0.62440521875,31.95
2021-06-23 16:18:15.859375000,-34.5,6.0,54.0,86.8159375,49.87,0.6245253125,31.95
2021-06-23 16:18:15.867187500,-34.25,6.0,54.0,86.81671874999999,48.535,0.62464540625,31.95
2021-06-23 16:18:15.875000000,-34.0,6.0,54.0,86.8175,47.2,0.6247655,31.95
2021-06-23 16:18:15.882812500,-34.0,6.0,54.0,86.81828125,45.785,0.62488559375,31.95
2021-06-23 16:18:15.890625000,-34.0,6.0,54.0,86.8190625,44.37,0.6250056875,31.95
2021-06-23 16:18:15.898437500,-34.0,6.0,54.0,86.81984375,43.099999999999994,0.62512578125,31.95
2021-06-23 16:18:15.906250000,-34.0,6.0,54.0,86.82062499999999,41.83,0.625245875,31.95
2021-06-23 16:18:15.914062500,-34.0,6.0,54.0,86.82140625,40.754999999999995,0.62536596875,31.95
2021-06-23 16:18:15.921875000,-34.0,6.0,54.0,86.8221875,39.68,0.6254860624999999,31.95
2021-06-23 16:18:15.929687500,-34.0,6.0,54.0,86.82296875,38.644999999999996,0.6256061562499999,31.95
2021-06-23 16:18:15.937500000,-34.0,6.0,54.0,86.82375,37.61,0.62572625,31.95
2021-06-23 16:18:15.945312500,-34.0,6.0,54.0,86.82453124999999,36.34,0.62584634375,31.95
2021-06-23 16:18:15.953125000,-34.0,6.0,54.0,86.8253125,35.07,0.6259664375,31.95
2021-06-23 16:18:15.960937500,-34.0,6.0,54.0,86.82609375,33.265,0.62608653125,31.95
2021-06-23 16:18:15.968750000,-34.0,6.0,54.0,86.826875,31.46,0.626206625,31.95
2021-06-23 16:18:15.976562500,-34.0,6.25,54.0,86.82765625,28.975,0.62632671875,31.95
2021-06-23 16:18:15.984375000,-34.0,6.5,54.0,86.82843749999999,26.49,0.6264468125,31.95
2021-06-23 16:18:15.992187500,-34.0,6.75,54.0,86.82921875,23.395,0.62656690625,31.95
2021-06-23 16:18:16.000000000,-34.0,7.0,54.0,86.83,20.3,0.626687,31.95
2021-06-23 16:18:16.007812500,-34.0,6.75,54.0,86.8309375,16.86,0.626526875,31.95
2021-06-23 16:18:16.015625000,-34.0,6.5,54.0,86.831875,13.42,0.62636675,31.95
2021-06-23 16:18:16.023437500,-34.0,6.25,54.0,86.8328125,10.004999999999999,0.626206625,31.95
2021-06-23 16:18:16.031250000,-34.0,6.0,54.0,86.83375,6.59,0.6260465,31.95
2021-06-23 16:18:16.039062500,-34.0,6.0,54.0,86.8346875,3.515,0.625886375,31.95
2021-06-23 16:18:16.046875000,-34.0,6.0,54.0,86.835625,0.44,0.62572625,31.95
2021-06-23 16:18:16.054687500,-34.0,6.0,54.0,86.8365625,-2.165,0.625566125,31.95
2021-06-23 16:18:16.062500000,-34.0,6.0,54.0,86.8375,-4.77,0.625406,31.95
2021-06-23 16:18:16.070312500,-34.0,6.0,54.0,86.8384375,-6.995,0.625245875,31.95
2021-06-23 16:18:16.078125000,-34.0,6.0,54.0,86.839375,-9.22,0.62508575,31.95
2021-06-23 16:18:16.085937500,-34.0,6.0,54.0,86.8403125,-11.34,0.624925625,31.95
2021-06-23 16:18:16.093750000,-34.0,6.0,54.0,86.84125,-13.46,0.6247655,31.95
2021-06-23 16:18:16.101562500,-34.0,6.0,54.0,86.8421875,-15.860000000000001,0.624605375,31.95
2021-06-23 16:18:16.109375000,-34.0,6.0,54.0,86.843125,-18.26,0.62444525,31.95
2021-06-23 16:18:16.117187500,-34.0,6.0,54.0,86.84406249999999,-21.25,0.624285125,31.95
2021-06-23 16:18:16.125000000,-34.0,6.0,54.0,86.845,-24.24,0.624125,31.95
2021-06-23 16:18:16.132812500,-34.0,6.0,54.0,86.8459375,-27.955,0.623964875,31.95
2021-06-23 16:18:16.140625000,-34.0,6.0,54.0,86.846875,-31.67,0.62380475,31.95
2021-06-23 16:18:16.148437500,-34.0,6.0,54.0,86.8478125,-35.95,0.623644625,31.95
2021-06-23 16:18:16.156250000,-34.0,6.0,54.0,86.84875,-40.23,0.6234845,31.95
2021-06-23 16:18:16.164062500,-34.0,6.0,54.0,86.8496875,-44.61,0.6233243749999999,31.95
2021-06-23 16:18:16.171875000,-34.0,6.0,54.0,86.850625,-48.99,0.62316425,31.95
2021-06-23 16:18:16.179687500,-34.0,6.0,54.0,86.8515625,-52.755,0.623004125,31.95
2021-06-23 16:18:16.187500000,-34.0,6.0,54.0,86.85249999999999,-56.52,0.622844,31.95
2021-06-23 16:18:16.195312500,-34.0,6.0,54.0,86.8534375,-58.86,0.622683875,31.95
2021-06-23 16:18:16.203125000,-34.0,6.0,54.0,86.854375,-61.2,0.6225237499999999,31.95
2021-06-23 16:18:16.210937500,-34.0,6.0,54.0,86.8553125,-61.46,0.622363625,31.95
2021-06-23 16:18:16.218750000,-34.0,6.0,54.0,86.85625,-61.72,0.6222035,31.95
2021-06-23 16:18:16.226562500,-34.0,6.0,54.0,86.8571875,-59.599999999999994,0.622043375,31.95
2021-06-23 16:18:16.234375000,-34.0,6.0,54.0,86.858125,-57.48,0.62188325,31.95
2021-06-23 16:18:16.242187500,-34.0,6.0,54.0,86.8590625,-53.15,0.6217231249999999,31.95
2021-06-23 16:18:16.250000000,-34.0,6.0,54.0,86.86,-48.82,0.621563,31.95
2021-06-23 16:18:16.257812500,-34.0,6.0,54.0,86.8609375,-42.879999999999995,0.6214829374999999,31.95
2021-06-23 16:18:16.265625000,-34.0,6.0,54.0,86.861875,-36.94,0.621402875,31.95
2021-06-23 16:18:16.273437500,-34.0,6.0,54.0,86.8628125,-30.214999999999996,0.6213228125,31.95
2021-06-23 16:18:16.281250000,-34.0,6.0,54.0,86.86375,-23.49,0.62124275,31.95
2021-06-23 16:18:16.289062500,-34.0,6.0,54.0,86.8646875,-16.79,0.6211626875,31.95
2021-06-23 16:18:16.296875000,-34.0,6.0,54.0,86.865625,-10.09,0.621082625,31.95
2021-06-23 16:18:16.304687500,-34.0,6.0,54.0,86.8665625,-3.9800000000000004,0.6210025625,31.95
2021-06-23 16:18:16.312500000,-34.0,6.0,54.0,86.8675,2.13,0.6209225,31.95
2021-06-23 16:18:16.320312500,-34.0,6.0,54.0,86.8684375,7.38,0.6208424375,31.95
2021-06-23 16:18:16.328125000,-34.0,6.0,54.0,86.869375,12.63,0.620762375,31.95
2021-06-23 16:18:16.335937500,-34.0,6.0,54.0,86.8703125,16.990000000000002,0.6206823124999999,31.95
2021-06-23 16:18:16.343750000,-34.0,6.0,54.0,86.87125,21.35,0.62060225,31.95
2021-06-23 16:18:16.351562500,-34.0,6.0,54.0,86.8721875,24.895000000000003,0.6205221875,31.95
2021-06-23 16:18:16.359375000,-34.0,6.0,54.0,86.873125,28.44,0.620442125,31.95
2021-06-23 16:18:16.367187500,-34.0,6.0,54.0,86.8740625,31.244999999999997,0.6203620625,31.95
2021-06-23 16:18:16.375000000,-34.0,6.0,54.0,86.875,34.05,0.620282,31.95
2021-06-23 16:18:16.382812500,-34.0,6.0,54.0,86.8759375,36.135,0.6202019375,31.95
2021-06-23 16:18:16.390625000,-34.0,6.0,54.0,86.876875,38.22,0.620121875,31.95
2021-06-23 16:18:16.398437500,-34.0,6.0,54.0,86.8778125,39.585,0.6200418125,31.95
2021-06-23 16:18:16.406250000,-34.0,6.0,54.0,86.87875,40.95,0.61996175,31.95
2021-06-23 16:18:16.414062500,-34.0,6.0,54.0,86.8796875,41.655,0.6198816875000001,31.95
2021-06-23 16:18:16.421875000,-34.0,6.0,54.0,86.880625,42.36,0.619801625,31.95
2021-06-23 16:18:16.429687500,-34.0,6.0,54.0,86.8815625,42.525,0.6197215625,31.95
2021-06-23 16:18:16.437500000,-34.0,6.0,54.0,86.8825,42.69,0.6196415,31.95
2021-06-23 16:18:16.445312500,-34.0,6.0,54.0,86.8834375,42.51,0.6195614375,31.95
2021-06-23 16:18:16.453125000,-34.0,6.0,54.0,86.884375,42.33,0.619481375,31.95
2021-06-23 16:18:16.460937500,-34.0,6.0,54.0,86.8853125,41.989999999999995,0.6194013125,31.95
2021-06-23 16:18:16.468750000,-34.0,6.0,54.0,86.88625,41.65,0.61932125,31.95
2021-06-23 16:18:16.476562500,-34.0,6.0,54.0,86.8871875,41.29,0.6192411875,31.95
2021-06-23 16:18:16.484375000,-34.0,6.0,54.0,86.888125,40.93,0.619161125,31.95
2021-06-23 16:18:16.492187500,-34.0,6.0,54.0,86.8890625,40.585,0.6190810625000001,31.95
2021-06-23 16:18:16.500000000,-34.0,6.0,54.0,86.89,40.24,0.619001,31.95
2021-06-23 16:18:16.507812500,-34.0,6.0,54.0,86.8909375,39.855000000000004,0.61888090625,31.95
2021-06-23 16:18:16.515625000,-34.0,6.0,54.0,86.891875,39.47,0.6187608125,31.95
2021-06-23 16:18:16.523437500,-34.0,6.0,54.0,86.8928125,38.955,0.61864071875,31.95
2021-06-23 16:18:16.531250000,-34.0,6.0,54.0,86.89375,38.44,0.618520625,31.95
2021-06-23 16:18:16.539062500,-33.75,6.0,54.0,86.8946875,37.709999999999994,0.61840053125,31.95
2021-06-23 16:18:16.546875000,-33.5,6.0,54.0,86.895625,36.98,0.6182804375000001,31.95
2021-06-23 16:18:16.554687500,-33.25,6.0,54.0,86.8965625,36.04,0.6181603437500001,31.95
2021-06-23 16:18:16.562500000,-33.0,6.0,54.0,86.89750000000001,35.1,0.61804025,31.95
2021-06-23 16:18:16.570312500,-33.25,6.0,54.0,86.8984375,34.03,0.61792015625,31.95
2021-06-23 16:18:16.578125000,-33.5,6.0,54.0,86.899375,32.96,0.6178000625,31.95
2021-06-23 16:18:16.585937500,-33.75,6.0,54.0,86.9003125,31.880000000000003,0.61767996875,31.95
2021-06-23 16:18:16.593750000,-34.0,6.0,54.0,86.90125,30.8,0.617559875,31.95
2021-06-23 16:18:16.601562500,-34.0,6.0,54.0,86.9021875,29.795,0.61743978125,31.95
2021-06-23 16:18:16.609375000,-34.0,6.0,54.0,86.903125,28.79,0.6173196875,31.95
2021-06-23 16:18:16.617187500,-34.0,6.0,54.0,86.9040625,27.83,0.61719959375,31.95
2021-06-23 16:18:16.625000000,-34.0,6.0,54.0,86.905,26.87,0.6170795,31.95
2021-06-23 16:18:16.632812500,-34.0,6.0,54.0,86.90593750000001,25.785,0.61695940625,31.95
2021-06-23 16:18:16.640625000,-34.0,6.0,54.0,86.906875,24.7,0.6168393125,31.95
2021-06-23 16:18:16.648437500,-34.0,6.0,54.0,86.9078125,23.255,0.61671921875,31.95
2021-06-23 16:18:16.656250000,-34.0,6.0,54.0,86.90875,21.81,0.616599125,31.95
2021-06-23 16:18:16.664062500,-34.0,6.0,54.0,86.9096875,19.82,0.61647903125,31.95
2021-06-23 16:18:16.671875000,-34.0,6.0,54.0,86.910625,17.83,0.6163589375,31.95
2021-06-23 16:18:16.679687500,-34.0,6.0,54.0,86.9115625,15.254999999999999,0.61623884375,31.95
2021-06-23 16:18:16.687500000,-34.0,6.0,54.0,86.9125,12.68,0.61611875,31.95
2021-06-23 16:18:16.695312500,-34.0,6.0,54.0,86.9134375,9.67,0.6159986562499999,31.95
2021-06-23 16:18:16.703125000,-34.0,6.0,54.0,86.914375,6.66,0.6158785625,31.95
2021-06-23 16:18:16.710937500,-34.0,6.0,54.0,86.9153125,3.52,0.61575846875,31.95
2021-06-23 16:18:16.718750000,-34.0,6.0,54.0,86.91625,0.38,0.615638375,31.95
2021-06-23 16:18:16.726562500,-34.0,6.0,54.0,86.9171875,-2.565,0.61551828125,31.95
2021-06-23 16:18:16.734375000,-34.0,6.0,54.0,86.918125,-5.51,0.6153981875,31.95
2021-06-23 16:18:16.742187500,-34.0,6.0,54.0,86.9190625,-8.05,0.61527809375,31.95
2021-06-23 16:18:16.750000000,-34.0,6.0,54.0,86.92,-10.59,0.615158,31.95
2021-06-23 16:18:16.757812500,-34.0,6.0,54.0,86.92093750000001,-12.71,0.6150779375,31.95
2021-06-23 16:18:16.765625000,-34.0,6.0,54.0,86.921875,-14.83,0.614997875,31.95
2021-06-23 16:18:16.773437500,-34.0,6.0,54.0,86.9228125,-16.72,0.6149178125,31.95
2021-06-23 16:18:16.781250000,-34.0,6.0,54.0,86.92375,-18.61,0.61483775,31.95
2021-06-23 16:18:16.789062500,-34.0,6.0,54.0,86.9246875,-20.54,0.6147576875,31.95
2021-06-23 16:18:16.796875000,-34.0,6.0,54.0,86.925625,-22.47,0.614677625,31.95
2021-06-23 16:18:16.804687500,-34.0,6.0,54.0,86.9265625,-24.740000000000002,0.6145975625,31.95
2021-06-23 16:18:16.812500000,-34.0,6.0,54.0,86.92750000000001,-27.01,0.6145175,31.95
2021-06-23 16:18:16.820312500,-34.0,6.0,54.0,86.9284375,-29.814999999999998,0.6144374375,31.95
2021-06-23 16:18:16.828125000,-34.0,6.0,54.0,86.92937500000001,-32.62,0.614357375,31.95
2021-06-23 16:18:16.835937500,-34.0,6.0,54.0,86.9303125,-35.995,0.6142773125,31.95
2021-06-23 16:18:16.843750000,-34.0,6.0,54.0,86.93125,-39.37,0.61419725,31.95
2021-06-23 16:18:16.851562500,-34.0,6.0,54.0,86.9321875,-43.165,0.6141171875,31.95
2021-06-23 16:18:16.859375000,-34.0,6.0,54.0,86.933125,-46.96,0.614037125,31.95
2021-06-23 16:18:16.867187500,-34.0,6.0,54.0,86.9340625,-50.8,0.6139570625,31.95
2021-06-23 16:18:16.875000000,-34.0,6.0,54.0,86.935,-54.64,0.613877,31.95
2021-06-23 16:18:16.882812500,-34.0,6.0,54.0,86.93593750000001,-57.95,0.6137969375,31.95
2021-06-23 16:18:16.890625000,-34.0,6.0,54.0,86.936875,-61.26,0.613716875,31.95
2021-06-23 16:18:16.898437500,-34.0,6.0,54.0,86.9378125,-63.375,0.6136368125,31.95
2021-06-23 16:18:16.906250000,-34.0,6.0,54.0,86.93875,-65.49,0.61355675,31.95
2021-06-23 16:18:16.914062500,-34.0,6.0,54.0,86.9396875,-65.775,0.6134766875000001,31.95
2021-06-23 16:18:16.921875000,-34.0,6.0,54.0,86.940625,-66.06,0.613396625,31.95
2021-06-23 16:18:16.929687500,-34.0,6.0,54.0,86.9415625,-64.13,0.6133165625,31.95
2021-06-23 16:18:16.937500000,-34.0,6.0,54.0,86.9425,-62.2,0.6132365,31.95
2021-06-23 16:18:16.945312500,-34.0,6.0,54.0,86.9434375,-58.09,0.6131564375,31.95
2021-06-23 16:18:16.953125000,-34.0,6.0,54.0,86.94437500000001,-53.98,0.613076375,31.95
2021-06-23 16:18:16.960937500,-34.0,6.0,54.0,86.9453125,-48.15,0.6129963125,31.95
2021-06-23 16:18:16.968750000,-34.0,6.0,54.0,86.94625,-42.32,0.61291625,31.95
2021-06-23 16:18:16.976562500,-34.0,6.0,54.0,86.9471875,-35.56,0.6128361875,31.95
2021-06-23 16:18:16.984375000,-34.0,6.0,54.0,86.948125,-28.8,0.612756125,31.95
2021-06-23 16:18:16.992187500,-34.0,6.0,54.0,86.9490625,-21.965,0.6126760625000001,31.95
2021-06-23 16:18:17.000000000,-34.0,6.0,54.0,86.95,-15.13,0.612596,31.95
2021-06-23 16:18:17.007812500,-33.75,6.0,54.0,86.950625,-8.91,0.612596,31.951249999999998
2021-06-23 16:18:17.015625000,-33.5,6.0,54.0,86.95125,-2.69,0.612596,31.9525
2021-06-23 16:18:17.023437500,-33.25,6.0,54.0,86.951875,2.5500000000000003,0.612596,31.95375
2021-06-23 16:18:17.031250000,-33.0,6.0,54.0,86.9525,7.79,0.612596,31.955
2021-06-23 16:18:17.039062500,-33.25,6.0,54.0,86.953125,11.975000000000001,0.612596,31.95625
2021-06-23 16:18:17.046875000,-33.5,6.0,54.0,86.95375,16.16,0.612596,31.9575
2021-06-23 16:18:17.054687500,-33.75,6.0,54.0,86.954375,19.41,0.612596,31.95875
2021-06-23 16:18:17.062500000,-34.0,6.0,54.0,86.955,22.66,0.612596,31.96
2021-06-23 16:18:17.070312500,-34.0,6.0,54.0,86.955625,25.105,0.612596,31.96125
2021-06-23 16:18:17.078125000,-34.0,6.0,54.0,86.95625,27.55,0.612596,31.9625
2021-06-23 16:18:17.085937500,-34.0,6.0,54.0,86.956875,29.265,0.612596,31.963749999999997
2021-06-23 16:18:17.093750000,-34.0,6.0,54.0,86.9575,30.98,0.612596,31.965
2021-06-23 16:18:17.101562500,-34.0,6.0,54.0,86.95812500000001,31.979999999999997,0.612596,31.96625
2021-06-23 16:18:17.109375000,-34.0,6.0,54.0,86.95875000000001,32.98,0.612596,31.967499999999998
2021-06-23 16:18:17.117187500,-34.0,6.0,54.0,86.95937500000001,33.3,0.612596,31.96875
2021-06-23 16:18:17.125000000,-34.0,6.0,54.0,86.96000000000001,33.62,0.612596,31.97
2021-06-23 16:18:17.132812500,-34.0,6.0,54.0,86.96062500000001,33.41,0.612596,31.971249999999998
2021-06-23 16:18:17.140625000,-34.0,6.0,54.0,86.96125,33.2,0.612596,31.9725
2021-06-23 16:18:17.148437500,-34.0,6.0,54.0,86.961875,32.685,0.612596,31.97375
2021-06-23 16:18:17.156250000,-34.0,6.0,54.0,86.9625,32.17,0.612596,31.974999999999998
2021-06-23 16:18:17.164062500,-34.0,6.0,54.0,86.963125,31.6,0.612596,31.97625
2021-06-23 16:18:17.171875000,-34.0,6.0,54.0,86.96375,31.03,0.612596,31.9775
2021-06-23 16:18:17.179687500,-34.0,6.0,54.0,86.964375,30.58,0.612596,31.978749999999998
2021-06-23 16:18:17.187500000,-34.0,6.0,54.0,86.965,30.13,0.612596,31.979999999999997
2021-06-23 16:18:17.195312500,-34.0,6.0,54.0,86.965625,29.85,0.612596,31.98125
2021-06-23 16:18:17.203125000,-34.0,6.0,54.0,86.96625,29.57,0.612596,31.982499999999998
2021-06-23 16:18:17.210937500,-34.0,6.0,54.0,86.966875,29.375,0.612596,31.983749999999997
2021-06-23 16:18:17.218750000,-34.0,6.0,54.0,86.9675,29.18,0.612596,31.985
2021-06-23 16:18:17.226562500,-34.0,6.0,54.0,86.968125,28.945,0.612596,31.98625
2021-06-23 16:18:17.234375000,-34.0,6.0,54.0,86.96875,28.71,0.612596,31.987499999999997
2021-06-23 16:18:17.242187500,-34.0,6.0,54.0,86.969375,28.36,0.612596,31.98875
2021-06-23 16:18:17.250000000,-34.0,6.0,54.0,86.97,28.01,0.612596,31.99
2021-06-23 16:18:17.257812500,-34.0,6.0,54.0,86.970625,27.54,0.6126760625000001,31.99
2021-06-23 16:18:17.265625000,-34.0,6.0,54.0,86.97125,27.07,0.612756125,31.99
2021-06-23 16:18:17.273437500,-34.0,6.0,54.0,86.971875,26.535,0.6128361875,31.99
2021-06-23 16:18:17.281250000,-34.0,6.0,54.0,86.9725,26.0,0.61291625,31.99
2021-06-23 16:18:17.289062500,-34.0,6.0,54.0,86.973125,25.439999999999998,0.6129963125,31.99
2021-06-23 16:18:17.296875000,-34.0,6.0,54.0,86.97375,24.88,0.613076375,31.99
2021-06-23 16:18:17.304687500,-34.0,6.0,54.0,86.97437500000001,24.244999999999997,0.6131564375,31.99
2021-06-23 16:18:17.312500000,-34.0,6.0,54.0,86.97500000000001,23.61,0.6132365,31.99
2021-06-23 16:18:17.320312500,-34.0,6.0,54.0,86.97562500000001,22.759999999999998,0.6133165625,31.99
2021-06-23 16:18:17.328125000,-34.0,6.0,54.0,86.97625000000001,21.91,0.613396625,31.99
2021-06-23 16:18:17.335937500,-34.0,6.0,54.0,86.976875,20.675,0.6134766875000001,31.99
2021-06-23 16:18:17.343750000,-34.0,6.0,54.0,86.9775,19.44,0.61355675,31.99
2021-06-23 16:18:17.351562500,-34.0,6.0,54.0,86.978125,17.71,0.6136368125,31.99
2021-06-23 16:18:17.359375000,-34.0,6.0,54.0,86.97875,15.98,0.613716875,31.99
2021-06-23 16:18:17.367187500,-34.0,6.0,54.0,86.979375,13.775,0.6137969375,31.99
2021-06-23 16:18:17.375000000,-34.0,6.0,54.0,86.98,11.57,0.613877,31.99
2021-06-23 16:18:17.382812500,-34.0,6.0,54.0,86.980625,9.075,0.6139570625,31.99
2021-06-23 16:18:17.390625000,-34.0,6.0,54.0,86.98125,6.58,0.614037125,31.99
2021-06-23 16:18:17.398437500,-34.0,6.0,54.0,86.981875,4.025,0.6141171875,31.99
2021-06-23 16:18:17.406250000,-34.0,6.0,54.0,86.9825,1.47,0.61419725,31.99
2021-06-23 16:18:17.414062500,-34.0,6.0,54.0,86.983125,-0.9349999999999998,0.6142773125,31.99
2021-06-23 16:18:17.421875000,-34.0,6.0,54.0,86.98375,-3.34,0.614357375,31.99
2021-06-23 16:18:17.429687500,-34.0,6.0,54.0,86.984375,-5.525,0.6144374375,31.99
2021-06-23 16:18:17.437500000,-34.0,6.0,54.0,86.985,-7.71,0.6145175,31.99
2021-06-23 16:18:17.445312500,-34.0,6.0,54.0,86.985625,-9.765,0.6145975625,31.99
2021-06-23 16:18:17.453125000,-34.0,6.0,54.0,86.98625,-11.82,0.614677625,31.99
2021-06-23 16:18:17.460937500,-34.0,6.0,54.0,86.986875,-13.95,0.6147576875,31.99
2021-06-23 16:18:17.468750000,-34.0,6.0,54.0,86.9875,-16.08,0.61483775,31.99
2021-06-23 16:18:17.476562500,-34.0,6.0,54.0,86.988125,-18.54,0.6149178125,31.99
2021-06-23 16:18:17.484375000,-34.0,6.0,54.0,86.98875,-21.0,0.614997875,31.99
2021-06-23 16:18:17.492187500,-34.0,6.0,54.0,86.989375,-23.95,0.6150779375,31.99
2021-06-23 16:18:17.500000000,-34.0,6.0,54.0,86.99000000000001,-26.9,0.615158,31.99
2021-06-23 16:18:17.507812500,-34.0,6.0,54.0,86.99062500000001,-30.375,0.61511796875,31.99
2021-06-23 16:18:17.515625000,-34.0,6.0,54.0,86.99125000000001,-33.85,0.6150779375,31.99
2021-06-23 16:18:17.523437500,-34.0,6.0,54.0,86.99187500000001,-37.650000000000006,0.61503790625,31.99
2021-06-23 16:18:17.531250000,-34.0,6.0,54.0,86.9925,-41.45,0.614997875,31.99
2021-06-23 16:18:17.539062500,-34.0,6.0,54.0,86.993125,-45.155,0.61495784375,31.99
2021-06-23 16:18:17.546875000,-34.0,6.0,54.0,86.99375,-48.86,0.6149178125,31.99
2021-06-23 16:18:17.554687500,-34.0,6.0,54.0,86.994375,-51.85,0.61487778125,31.99
2021-06-23 16:18:17.562500000,-34.0,6.0,54.0,86.995,-54.84,0.61483775,31.99
2021-06-23 16:18:17.570312500,-34.0,6.0,54.0,86.995625,-56.44,0.61479771875,31.99
2021-06-23 16:18:17.578125000,-34.0,6.0,54.0,86.99625,-58.04,0.6147576875,31.99
2021-06-23 16:18:17.585937500,-34.0,6.0,54.0,86.996875,-57.685,0.61471765625,31.99
2021-06-23 16:18:17.593750000,-34.0,6.0,54.0,86.9975,-57.33,0.614677625,31.99
2021-06-23 16:18:17.601562500,-34.0,6.0,54.0,86.998125,-54.765,0.61463759375,31.99
2021-06-23 16:18:17.609375000,-34.0,6.0,54.0,86.99875,-52.2,0.6145975625,31.99
2021-06-23 16:18:17.617187500,-34.0,6.0,54.0,86.999375,-47.625,0.61455753125,31.99
2021-06-23 16:18:17.625000000,-34.0,6.0,54.0,87.0,-43.05,0.6145175,31.99
2021-06-23 16:18:17.632812500,-34.0,6.0,54.0,87.000625,-37.06,0.61447746875,31.99
2021-06-23 16:18:17.640625000,-34.0,6.0,54.0,87.00125,-31.07,0.6144374375,31.99
2021-06-23 16:18:17.648437500,-34.0,6.0,54.0,87.001875,-24.495,0.6143974062499999,31.99
2021-06-23 16:18:17.656250000,-34.0,6.0,54.0,87.0025,-17.92,0.614357375,31.99
2021-06-23 16:18:17.664062500,-34.0,6.0,54.0,87.003125,-11.59,0.61431734375,31.99
2021-06-23 16:18:17.671875000,-34.0,6.0,54.0,87.00375,-5.26,0.6142773125,31.99
2021-06-23 16:18:17.679687500,-34.0,6.0,54.0,87.004375,0.2400000000000002,0.61423728125,31.99
2021-06-23 16:18:17.687500000,-34.0,6.0,54.0,87.005,5.74,0.61419725,31.99
2021-06-23 16:18:17.695312500,-34.0,6.0,54.0,87.005625,10.17,0.61415721875,31.99
2021-06-23 16:18:17.703125000,-34.0,6.0,54.0,87.00625000000001,14.6,0.6141171875,31.99
2021-06-23 16:18:17.710937500,-34.0,6.0,54.0,87.00687500000001,18.02,0.61407715625,31.99
2021-06-23 16:18:17.718750000,-34.0,6.0,54.0,87.00750000000001,21.44,0.614037125,31.99
2021-06-23 16:18:17.726562500,-34.0,6.0,54.0,87.008125,24.045,0.61399709375,31.99
2021-06-23 16:18:17.734375000,-34.0,6.0,54.0,87.00875,26.65,0.6139570625,31.99
2021-06-23 16:18:17.742187500,-34.0,6.0,54.0,87.009375,28.645,0.61391703125,31.99
2021-06-23 16:18:17.750000000,-34.0,6.0,54.0,87.01,30.64,0.613877,31.99
2021-06-23 16:18:17.757812500,-34.0,6.0,54.0,87.010625,32.155,0.614037125,31.99
2021-06-23 16:18:17.765625000,-34.0,6.0,54.0,87.01125,33.67,0.61419725,31.99
2021-06-23 16:18:17.773437500,-34.0,6.0,54.0,87.011875,34.75,0.614357375,31.99
2021-06-23 16:18:17.781250000,-34.0,6.0,54.0,87.0125,35.83,0.6145175,31.99
2021-06-23 16:18:17.789062500,-34.0,6.0,54.0,87.013125,36.515,0.614677625,31.99
2021-06-23 16:18:17.796875000,-34.0,6.0,54.0,87.01375,37.2,0.61483775,31.99
2021-06-23 16:18:17.804687500,-34.0,6.0,54.0,87.014375,37.545,0.614997875,31.99
2021-06-23 16:18:17.812500000,-34.0,6.0,54.0,87.015,37.89,0.615158,31.99
2021-06-23 16:18:17.820312500,-34.0,6.0,54.0,87.015625,38.004999999999995,0.615318125,31.99
2021-06-23 16:18:17.828125000,-34.0,6.0,54.0,87.01625,38.12,0.61547825,31.99
2021-06-23 16:18:17.835937500,-34.0,6.0,54.0,87.016875,38.09,0.615638375,31.99
2021-06-23 16:18:17.843750000,-34.0,6.0,54.0,87.0175,38.06,0.6157985,31.99
2021-06-23 16:18:17.851562500,-34.0,6.0,54.0,87.018125,37.91,0.615958625,31.99
2021-06-23 16:18:17.859375000,-34.0,6.0,54.0,87.01875,37.76,0.61611875,31.99
2021-06-23 16:18:17.867187500,-34.0,6.0,54.0,87.019375,37.474999999999994,0.616278875,31.99
2021-06-23 16:18:17.875000000,-34.0,6.0,54.0,87.02,37.19,0.616439,31.99
2021-06-23 16:18:17.882812500,-34.0,6.0,54.0,87.020625,36.695,0.616599125,31.99
2021-06-23 16:18:17.890625000,-34.0,6.0,54.0,87.02125,36.2,0.61675925,31.99
2021-06-23 16:18:17.898437500,-34.0,6.0,54.0,87.021875,35.455,0.616919375,31.99
2021-06-23 16:18:17.906250000,-34.0,6.0,54.0,87.02250000000001,34.71,0.6170795,31.99
2021-06-23 16:18:17.914062500,-34.0,6.0,54.0,87.02312500000001,33.74,0.6172396250000001,31.99
2021-06-23 16:18:17.921875000,-34.0,6.0,54.0,87.02375,32.77,0.61739975,31.99
2021-06-23 16:18:17.929687500,-34.0,6.0,54.0,87.024375,31.695,0.617559875,31.99
2021-06-23 16:18:17.937500000,-34.0,6.0,54.0,87.025,30.62,0.61772,31.99
2021-06-23 16:18:17.945312500,-34.0,6.0,54.0,87.025625,29.565,0.617880125,31.99
2021-06-23 16:18:17.953125000,-34.0,6.0,54.0,87.02625,28.51,0.6180402500000001,31.99
2021-06-23 16:18:17.960937500,-34.0,6.0,54.0,87.026875,27.57,0.618200375,31.99
2021-06-23 16:18:17.968750000,-34.0,6.0,54.0,87.0275,26.63,0.6183605,31.99
2021-06-23 16:18:17.976562500,-34.0,6.0,54.0,87.028125,25.785,0.618520625,31.99
2021-06-23 16:18:17.984375000,-34.0,6.0,54.0,87.02875,24.94,0.61868075,31.99
2021-06-23 16:18:17.992187500,-34.0,6.0,54.0,87.029375,24.035,0.6188408750000001,31.99
2021-06-23 16:18:18.000000000,-34.0,6.0,54.0,87.03,23.13,0.619001,31.99
2021-06-23 16:18:18.007812500,-34.0,6.0,54.0,87.030546875,21.955,0.61912109375,31.989375
2021-06-23 16:18:18.015625000,-34.0,6.0,54.0,87.03109375,20.78,0.6192411875,31.98875
2021-06-23 16:18:18.023437500,-34.0,6.0,54.0,87.031640625,19.16,0.61936128125,31.988125
2021-06-23 16:18:18.031250000,-34.0,6.0,54.0,87.0321875,17.54,0.619481375,31.987499999999997
2021-06-23 16:18:18.039062500,-34.0,6.0,54.0,87.032734375,15.37,0.61960146875,31.986874999999998
2021-06-23 16:18:18.046875000,-34.0,6.0,54.0,87.03328125,13.2,0.6197215625,31.98625
2021-06-23 16:18:18.054687500,-34.0,6.0,54.0,87.033828125,10.57,0.61984165625,31.985625
2021-06-23 16:18:18.062500000,-34.0,6.0,54.0,87.034375,7.94,0.61996175,31.985
2021-06-23 16:18:18.070312500,-34.0,6.0,54.0,87.034921875,5.03,0.62008184375,31.984375
2021-06-23 16:18:18.078125000,-34.0,6.0,54.0,87.03546875,2.12,0.6202019375,31.983749999999997
2021-06-23 16:18:18.085937500,-34.0,6.0,54.0,87.036015625,-0.7999999999999998,0.62032203125,31.983124999999998
2021-06-23 16:18:18.093750000,-34.0,6.0,54.0,87.0365625,-3.72,0.620442125,31.982499999999998
2021-06-23 16:18:18.101562500,-34.0,6.0,54.0,87.037109375,-6.42,0.62056221875,31.981875
2021-06-23 16:18:18.109375000,-34.0,6.0,54.0,87.03765625,-9.12,0.6206823124999999,31.98125
2021-06-23 16:18:18.117187500,-34.0,6.0,54.0,87.038203125,-11.469999999999999,0.6208024062499999,31.980625
2021-06-23 16:18:18.125000000,-34.0,6.0,54.0,87.03875,-13.82,0.6209225,31.979999999999997
2021-06-23 16:18:18.132812500,-34.0,6.0,54.0,87.039296875,-15.855,0.62104259375,31.979374999999997
2021-06-23 16:18:18.140625000,-34.0,6.0,54.0,87.03984375,-17.89,0.6211626875,31.978749999999998
2021-06-23 16:18:18.148437500,-34.0,6.0,54.0,87.040390625,-19.795,0.62128278125,31.978125
2021-06-23 16:18:18.156250000,-34.0,6.0,54.0,87.0409375,-21.7,0.621402875,31.9775
2021-06-23 16:18:18.164062500,-34.0,6.0,54.0,87.041484375,-23.775,0.62152296875,31.976875
2021-06-23 16:18:18.171875000,-34.0,6.0,54.0,87.04203125,-25.85,0.6216430625,31.97625
2021-06-23 16:18:18.179687500,-34.0,6.0,54.0,87.042578125,-28.405,0.62176315625,31.975624999999997
2021-06-23 16:18:18.187500000,-34.0,6.0,54.0,87.043125,-30.96,0.62188325,31.974999999999998
2021-06-23 16:18:18.195312500,-34.0,6.0,54.0,87.043671875,-34.165,0.62200334375,31.974375
2021-06-23 16:18:18.203125000,-34.0,6.0,54.0,87.04421875,-37.37,0.6221234375,31.97375
2021-06-23 16:18:18.210937500,-34.0,6.0,54.0,87.044765625,-41.135,0.62224353125,31.973125
2021-06-23 16:18:18.218750000,-34.0,6.0,54.0,87.0453125,-44.9,0.622363625,31.9725
2021-06-23 16:18:18.226562500,-34.0,6.0,54.0,87.045859375,-48.815,0.62248371875,31.971874999999997
2021-06-23 16:18:18.234375000,-34.0,6.0,54.0,87.04640625,-52.73,0.6226038125,31.971249999999998
2021-06-23 16:18:18.242187500,-34.0,6.0,54.0,87.046953125,-56.095,0.62272390625,31.970625
2021-06-23 16:18:18.250000000,-34.0,6.0,54.0,87.0475,-59.46,0.622844,31.97
2021-06-23 16:18:18.257812500,-34.0,6.0,54.0,87.048046875,-61.49,0.62304415625,31.97
2021-06-23 16:18:18.265625000,-34.0,6.0,54.0,87.04859375,-63.52,0.6232443125,31.97
2021-06-23 16:18:18.273437500,-34.0,6.0,54.0,87.04914062499999,-63.595,0.6234444687499999,31.97
2021-06-23 16:18:18.281250000,-34.0,6.0,54.0,87.0496875,-63.67,0.623644625,31.97
2021-06-23 16:18:18.289062500,-34.0,6.0,54.0,87.050234375,-61.55,0.62384478125,31.97
2021-06-23 16:18:18.296875000,-34.0,6.0,54.0,87.05078125,-59.43,0.6240449374999999,31.97
2021-06-23 16:18:18.304687500,-34.0,6.0,54.0,87.051328125,-55.335,0.6242450937499999,31.97
2021-06-23 16:18:18.312500000,-34.0,6.0,54.0,87.051875,-51.24,0.62444525,31.97
2021-06-23 16:18:18.320312500,-34.0,6.0,54.0,87.052421875,-45.8,0.62464540625,31.97
2021-06-23 16:18:18.328125000,-34.0,6.0,54.0,87.05296875,-40.36,0.6248455625,31.97
2021-06-23 16:18:18.335937500,-34.0,6.0,54.0,87.053515625,-34.37,0.6250457187499999,31.97
2021-06-23 16:18:18.343750000,-34.0,6.0,54.0,87.0540625,-28.38,0.625245875,31.97
2021-06-23 16:18:18.351562500,-34.0,6.0,54.0,87.054609375,-22.564999999999998,0.62544603125,31.97
2021-06-23 16:18:18.359375000,-34.0,6.0,54.0,87.05515625,-16.75,0.6256461874999999,31.97
2021-06-23 16:18:18.367187500,-34.0,6.0,54.0,87.055703125,-11.585,0.6258463437499999,31.97
2021-06-23 16:18:18.375000000,-34.0,6.0,54.0,87.05625,-6.42,0.6260465,31.97
2021-06-23 16:18:18.382812500,-34.0,6.0,54.0,87.056796875,-2.08,0.62624665625,31.97
2021-06-23 16:18:18.390625000,-34.0,6.0,54.0,87.05734375,2.26,0.6264468125,31.97
2021-06-23 16:18:18.398437500,-34.0,6.0,54.0,87.057890625,5.82,0.6266469687499999,31.97
2021-06-23 16:18:18.406250000,-34.0,6.0,54.0,87.0584375,9.38,0.626847125,31.97
2021-06-23 16:18:18.414062500,-34.0,6.0,54.0,87.058984375,12.29,0.62704728125,31.97
2021-06-23 16:18:18.421875000,-34.0,6.0,54.0,87.05953124999999,15.2,0.6272474374999999,31.97
2021-06-23 16:18:18.429687500,-34.0,6.0,54.0,87.060078125,17.59,0.6274475937499999,31.97
2021-06-23 16:18:18.437500000,-34.0,6.0,54.0,87.060625,19.98,0.62764775,31.97
2021-06-23 16:18:18.445312500,-34.0,6.25,54.0,87.061171875,21.925,0.62784790625,31.97
2021-06-23 16:18:18.453125000,-34.0,6.5,54.0,87.06171875,23.87,0.6280480625,31.97
2021-06-23 16:18:18.460937500,-34.0,6.75,54.0,87.062265625,25.425,0.6282482187499999,31.97
2021-06-23 16:18:18.468750000,-34.0,7.0,54.0,87.06281249999999,26.98,0.628448375,31.97
2021-06-23 16:18:18.476562500,-34.0,6.75,54.0,87.063359375,28.22,0.62864853125,31.97
2021-06-23 16:18:18.484375000,-34.0,6.5,54.0,87.06390625,29.46,0.6288486874999999,31.97
2021-06-23 16:18:18.492187500,-34.0,6.25,54.0,87.064453125,30.47,0.6290488437499999,31.97
2021-06-23 16:18:18.500000000,-34.0,6.0,54.0,87.065,31.48,0.629249,31.97
2021-06-23 16:18:18.507812500,-34.0,6.0,54.0,87.065546875,32.345,0.6292890312499999,31.97
2021-06-23 16:18:18.515625000,-34.0,6.0,54.0,87.06609375,33.21,0.6293290625,31.97
2021-06-23 16:18:18.523437500,-34.0,6.0,54.0,87.06664062499999,33.965,0.6293690937499999,31.97
2021-06-23 16:18:18.531250000,-34.0,6.0,54.0,87.0671875,34.72,0.629409125,31.97
2021-06-23 16:18:18.539062500,-34.0,6.0,54.0,87.067734375,35.34,0.62944915625,31.97
2021-06-23 16:18:18.546875000,-34.0,6.0,54.0,87.06828125,35.96,0.6294891874999999,31.97
2021-06-23 16:18:18.554687500,-34.0,6.0,54.0,87.068828125,36.370000000000005,0.62952921875,31.97
2021-06-23 16:18:18.562500000,-34.0,6.0,54.0,87.069375,36.78,0.62956925,31.97
2021-06-23 16:18:18.570312500,-34.0,6.0,54.0,87.06992187499999,36.875,0.6296092812499999,31.97
2021-06-23 16:18:18.578125000,-34.0,6.0,54.0,87.07046875,36.97,0.6296493125,31.97
2021-06-23 16:18:18.585937500,-34.0,6.0,54.0,87.071015625,36.695,0.62968934375,31.97
2021-06-23 16:18:18.593750000,-34.0,6.0,54.0,87.0715625,36.42,0.6297293749999999,31.97
2021-06-23 16:18:18.601562500,-34.0,6.0,54.0,87.072109375,35.769999999999996,0.62976940625,31.97
2021-06-23 16:18:18.609375000,-34.0,6.0,54.0,87.07265625,35.12,0.6298094375,31.97
2021-06-23 16:18:18.617187500,-34.0,6.0,54.0,87.07320312499999,34.19,0.62984946875,31.97
2021-06-23 16:18:18.625000000,-34.0,6.0,54.0,87.07374999999999,33.26,0.6298895,31.97
2021-06-23 16:18:18.632812500,-34.0,6.25,54.0,87.074296875,32.19,0.62992953125,31.97
2021-06-23 16:18:18.640625000,-34.0,6.5,54.0,87.07484375,31.12,0.6299695625,31.97
2021-06-23 16:18:18.648437500,-34.0,6.75,54.0,87.075390625,30.075000000000003,0.63000959375,31.97
2021-06-23 16:18:18.656250000,-34.0,7.0,54.0,87.0759375,29.03,0.6300496250000001,31.97
2021-06-23 16:18:18.664062500,-34.0,6.75,54.0,87.07648437499999,28.11,0.63008965625,31.97
2021-06-23 16:18:18.671875000,-34.0,6.5,54.0,87.07703124999999,27.19,0.6301296875,31.97
2021-06-23 16:18:18.679687500,-34.0,6.25,54.0,87.077578125,26.36,0.63016971875,31.97
2021-06-23 16:18:18.687500000,-34.0,6.0,54.0,87.078125,25.53,0.63020975,31.97
2021-06-23 16:18:18.695312500,-34.0,6.0,54.0,87.078671875,24.625,0.63024978125,31.97
2021-06-23 16:18:18.703125000,-34.0,6.0,54.0,87.07921875,23.72,0.6302898125,31.97
2021-06-23 16:18:18.710937500,-34.0,6.0,54.0,87.079765625,22.490000000000002,0.63032984375,31.97
2021-06-23 16:18:18.718750000,-34.0,6.0,54.0,87.08031249999999,21.26,0.630369875,31.97
2021-06-23 16:18:18.726562500,-34.0,6.0,54.0,87.080859375,19.485,0.63040990625,31.97
2021-06-23 16:18:18.734375000,-34.0,6.0,54.0,87.08140625,17.71,0.6304499375,31.97
2021-06-23 16:18:18.742187500,-34.0,6.0,54.0,87.081953125,15.31,0.6304899687500001,31.97
2021-06-23 16:18:18.750000000,-34.0,6.0,54.0,87.0825,12.91,0.63053,31.97
2021-06-23 16:18:18.757812500,-34.0,6.0,54.0,87.083046875,10.02,0.63057003125,31.97
2021-06-23 16:18:18.765625000,-34.0,6.0,54.0,87.08359374999999,7.13,0.6306100625000001,31.97
2021-06-23 16:18:18.773437500,-34.0,6.0,54.0,87.08414062499999,4.01,0.63065009375,31.97
2021-06-23 16:18:18.781250000,-34.0,6.0,54.0,87.0846875,0.89,0.630690125,31.97
2021-06-23 16:18:18.789062500,-34.0,6.0,54.0,87.085234375,-2.1149999999999998,0.6307301562500001,31.97
2021-06-23 16:18:18.796875000,-34.0,6.0,54.0,87.08578125,-5.12,0.6307701875,31.97
2021-06-23 16:18:18.804687500,-34.0,6.0,54.0,87.086328125,-7.765000000000001,0.63081021875,31.97
2021-06-23 16:18:18.812500000,-34.0,6.0,54.0,87.08687499999999,-10.41,0.6308502500000001,31.97
2021-06-23 16:18:18.820312500,-34.0,6.0,54.0,87.08742187499999,-12.61,0.63089028125,31.97
2021-06-23 16:18:18.828125000,-34.0,6.0,54.0,87.08796875,-14.81,0.6309303125,31.97
2021-06-23 16:18:18.835937500,-34.0,6.0,54.0,87.088515625,-16.67,0.63097034375,31.97
2021-06-23 16:18:18.843750000,-34.0,6.0,54.0,87.0890625,-18.53,0.631010375,31.97
2021-06-23 16:18:18.851562500,-34.0,6.0,54.0,87.089609375,-20.265,0.63105040625,31.97
2021-06-23 16:18:18.859375000,-34.0,6.0,54.0,87.09015624999999,-22.0,0.6310904375,31.97
2021-06-23 16:18:18.867187500,-34.0,6.0,54.0,87.09070312499999,-23.86,0.63113046875,31.97
2021-06-23 16:18:18.875000000,-34.0,6.0,54.0,87.09125,-25.72,0.6311705000000001,31.97
2021-06-23 16:18:18.882812500,-34.0,6.0,54.0,87.091796875,-27.92,0.63121053125,31.97
2021-06-23 16:18:18.890625000,-34.0,6.0,54.0,87.09234375,-30.12,0.6312505625,31.97
2021-06-23 16:18:18.898437500,-34.0,6.0,54.0,87.092890625,-32.755,0.6312905937500001,31.97
2021-06-23 16:18:18.906250000,-34.0,6.0,54.0,87.0934375,-35.39,0.631330625,31.97
2021-06-23 16:18:18.914062500,-34.0,6.0,54.0,87.09398437499999,-38.385000000000005,0.63137065625,31.97
2021-06-23 16:18:18.921875000,-34.0,6.0,54.0,87.09453124999999,-41.38,0.6314106875000001,31.97
2021-06-23 16:18:18.929687500,-34.0,6.0,54.0,87.095078125,-44.45,0.63145071875,31.97
2021-06-23 16:18:18.937500000,-34.0,6.0,54.0,87.095625,-47.52,0.63149075,31.97
2021-06-23 16:18:18.945312500,-34.0,6.0,54.0,87.096171875,-50.165000000000006,0.6315307812500001,31.97
2021-06-23 16:18:18.953125000,-34.0,6.0,54.0,87.09671875,-52.81,0.6315708125,31.97
2021-06-23 16:18:18.960937500,-34.0,6.0,54.0,87.09726562499999,-54.41,0.63161084375,31.97
2021-06-23 16:18:18.968750000,-34.0,6.0,54.0,87.09781249999999,-56.01,0.6316508750000001,31.97
2021-06-23 16:18:18.976562500,-34.0,6.0,54.0,87.098359375,-56.0,0.63169090625,31.97
2021-06-23 16:18:18.984375000,-34.0,6.0,54.0,87.09890625,-55.99,0.6317309375,31.97
2021-06-23 16:18:18.992187500,-34.0,6.0,54.0,87.099453125,-54.035,0.63177096875,31.97
2021-06-23 16:18:19.000000000,-34.0,6.0,54.0,87.1,-52.08,0.631811,31.97
2021-06-23 16:18:19.007812500,-34.0,6.0,54.0,87.10039062499999,-48.254999999999995,0.6317309375,31.969375
2021-06-23 16:18:19.015625000,-34.0,6.0,54.0,87.10078125,-44.43,0.6316508750000001,31.96875
2021-06-23 16:18:19.023437500,-34.0,6.0,54.0,87.10117187499999,-39.215,0.6315708125,31.968125
2021-06-23 16:18:19.031250000,-34.0,6.0,54.0,87.1015625,-34.0,0.63149075,31.967499999999998
2021-06-23 16:18:19.039062500,-34.0,6.0,54.0,87.101953125,-28.115000000000002,0.6314106875,31.966874999999998
2021-06-23 16:18:19.046875000,-34.0,6.0,54.0,87.10234374999999,-22.23,0.631330625,31.96625
2021-06-23 16:18:19.054687500,-34.0,6.0,54.0,87.102734375,-16.425,0.6312505625,31.965625
2021-06-23 16:18:19.062500000,-34.0,6.0,54.0,87.10312499999999,-10.62,0.6311705,31.965
2021-06-23 16:18:19.070312500,-34.0,6.0,54.0,87.103515625,-5.444999999999999,0.6310904375,31.964375
2021-06-23 16:18:19.078125000,-34.0,6.0,54.0,87.10390625,-0.27,0.631010375,31.963749999999997
2021-06-23 16:18:19.085937500,-34.0,6.0,54.0,87.10429687499999,4.055,0.6309303125,31.963124999999998
2021-06-23 16:18:19.093750000,-34.0,6.0,54.0,87.1046875,8.38,0.63085025,31.9625
2021-06-23 16:18:19.101562500,-34.0,6.0,54.0,87.10507812499999,11.86,0.6307701875,31.961875
2021-06-23 16:18:19.109375000,-34.0,6.0,54.0,87.10546875,15.34,0.630690125,31.96125
2021-06-23 16:18:19.117187500,-34.0,6.0,54.0,87.105859375,18.1,0.6306100625,31.960625
2021-06-23 16:18:19.125000000,-34.0,6.0,54.0,87.10624999999999,20.86,0.63053,31.96
2021-06-23 16:18:19.132812500,-34.0,6.0,54.0,87.106640625,22.990000000000002,0.6304499375,31.959374999999998
2021-06-23 16:18:19.140625000,-34.0,6.0,54.0,87.10703124999999,25.12,0.630369875,31.95875
2021-06-23 16:18:19.148437500,-34.0,6.0,54.0,87.107421875,26.64,0.6302898124999999,31.958125
2021-06-23 16:18:19.156250000,-34.0,6.0,54.0,87.1078125,28.16,0.63020975,31.9575
2021-06-23 16:18:19.164062500,-34.0,6.0,54.0,87.108203125,29.015,0.6301296875,31.956875
2021-06-23 16:18:19.171875000,-34.0,6.0,54.0,87.10859375,29.87,0.630049625,31.95625
2021-06-23 16:18:19.179687500,-34.0,6.0,54.0,87.10898437499999,30.075000000000003,0.6299695624999999,31.955624999999998
2021-06-23 16:18:19.187500000,-34.0,6.0,54.0,87.109375,30.28,0.6298895,31.955
2021-06-23 16:18:19.195312500,-34.0,6.0,54.0,87.109765625,29.96,0.6298094375,31.954375
2021-06-23 16:18:19.203125000,-34.0,6.0,54.0,87.11015625,29.64,0.6297293749999999,31.95375
2021-06-23 16:18:19.210937500,-34.0,6.0,54.0,87.110546875,29.03,0.6296493125,31.953125
2021-06-23 16:18:19.218750000,-34.0,6.0,54.0,87.11093749999999,28.42,0.62956925,31.9525
2021-06-23 16:18:19.226562500,-34.0,6.0,54.0,87.111328125,27.785,0.6294891874999999,31.951874999999998
2021-06-23 16:18:19.234375000,-34.0,6.0,54.0,87.11171875,27.15,0.6294091249999999,31.951249999999998
2021-06-23 16:18:19.242187500,-34.0,6.0,54.0,87.112109375,26.645,0.6293290625,31.950625
2021-06-23 16:18:19.250000000,-34.0,6.0,54.0,87.1125,26.14,0.629249,31.95
2021-06-23 16:18:19.257812500,-34.0,6.0,54.0,87.11289062499999,25.785,0.62920896875,31.95
2021-06-23 16:18:19.265625000,-34.0,6.0,54.0,87.11328125,25.43,0.6291689374999999,31.95
2021-06-23 16:18:19.273437500,-34.0,6.0,54.0,87.113671875,25.085,0.62912890625,31.95
2021-06-23 16:18:19.281250000,-34.0,6.0,54.0,87.1140625,24.74,0.629088875,31.95
2021-06-23 16:18:19.289062500,-34.0,6.0,54.0,87.114453125,24.24,0.6290488437499999,31.95
2021-06-23 16:18:19.296875000,-34.0,6.0,54.0,87.11484374999999,23.74,0.6290088125,31.95
2021-06-23 16:18:19.304687500,-34.0,6.0,54.0,87.115234375,22.985,0.62896878125,31.95
2021-06-23 16:18:19.312500000,-34.0,6.0,54.0,87.115625,22.23,0.6289287499999999,31.95
2021-06-23 16:18:19.320312500,-34.0,6.0,54.0,87.116015625,21.255000000000003,0.62888871875,31.95
2021-06-23 16:18:19.328125000,-34.0,6.0,54.0,87.11640625,20.28,0.6288486875,31.95
2021-06-23 16:18:19.335937500,-34.0,6.0,54.0,87.11679687499999,19.215,0.6288086562499999,31.95
2021-06-23 16:18:19.343750000,-34.0,6.0,54.0,87.1171875,18.15,0.628768625,31.95
2021-06-23 16:18:19.351562500,-34.0,6.0,54.0,87.117578125,17.13,0.62872859375,31.95
2021-06-23 16:18:19.359375000,-34.0,6.0,54.0,87.11796875,16.11,0.6286885624999999,31.95
2021-06-23 16:18:19.367187500,-34.0,6.0,54.0,87.118359375,15.165,0.62864853125,31.95
2021-06-23 16:18:19.375000000,-34.0,6.0,54.0,87.11875,14.22,0.6286084999999999,31.95
2021-06-23 16:18:19.382812500,-34.0,6.0,54.0,87.119140625,13.260000000000002,0.6285684687499999,31.95
2021-06-23 16:18:19.390625000,-34.0,6.0,54.0,87.11953125,12.3,0.6285284375,31.95
2021-06-23 16:18:19.398437500,-34.0,6.0,54.0,87.119921875,11.15,0.6284884062499999,31.95
2021-06-23 16:18:19.406250000,-34.0,6.0,54.0,87.1203125,10.0,0.628448375,31.95
2021-06-23 16:18:19.414062500,-34.0,6.0,54.0,87.120703125,8.515,0.62840834375,31.95
2021-06-23 16:18:19.421875000,-34.0,6.0,54.0,87.12109375,7.03,0.6283683124999999,31.95
2021-06-23 16:18:19.429687500,-34.0,6.0,54.0,87.121484375,5.205,0.62832828125,31.95
2021-06-23 16:18:19.437500000,-34.0,6.0,54.0,87.121875,3.38,0.62828825,31.95
2021-06-23 16:18:19.445312500,-34.0,6.0,54.0,87.122265625,1.3399999999999999,0.6282482187499999,31.95
2021-06-23 16:18:19.453125000,-34.0,6.0,54.0,87.12265625,-0.7,0.6282081875,31.95
2021-06-23 16:18:19.460937500,-34.0,6.0,54.0,87.123046875,-2.755,0.62816815625,31.95
2021-06-23 16:18:19.468750000,-34.0,6.0,54.0,87.1234375,-4.81,0.6281281249999999,31.95
2021-06-23 16:18:19.476562500,-34.0,6.25,54.0,87.123828125,-6.705,0.62808809375,31.95
2021-06-23 16:18:19.484375000,-34.0,6.5,54.0,87.12421875,-8.6,0.6280480625,31.95
2021-06-23 16:18:19.492187500,-34.0,6.75,54.0,87.124609375,-10.27,0.6280080312499999,31.95
2021-06-23 16:18:19.500000000,-34.0,7.0,54.0,87.125,-11.94,0.627968,31.95
2021-06-23 16:18:19.507812500,-34.0,6.75,54.0,87.125390625,-13.445,0.62792796875,31.95
2021-06-23 16:18:19.515625000,-34.0,6.5,54.0,87.12578125,-14.95,0.6278879374999999,31.95
2021-06-23 16:18:19.523437500,-34.0,6.25,54.0,87.126171875,-16.435000000000002,0.62784790625,31.95
2021-06-23 16:18:19.531250000,-34.0,6.0,54.0,87.1265625,-17.92,0.627807875,31.95
2021-06-23 16:18:19.539062500,-34.0,6.0,54.0,87.126953125,-19.585,0.6277678437499999,31.95
2021-06-23 16:18:19.546875000,-34.0,6.0,54.0,87.12734375,-21.25,0.6277278125,31.95
2021-06-23 16:18:19.554687500,-34.0,6.0,54.0,87.127734375,-23.25,0.62768778125,31.95
2021-06-23 16:18:19.562500000,-34.0,6.0,54.0,87.128125,-25.25,0.62764775,31.95
2021-06-23 16:18:19.570312500,-34.0,6.0,54.0,87.128515625,-27.685000000000002,0.62760771875,31.95
2021-06-23 16:18:19.578125000,-34.0,6.0,54.0,87.12890625,-30.12,0.6275676875,31.95
2021-06-23 16:18:19.585937500,-34.0,6.0,54.0,87.129296875,-32.955,0.62752765625,31.95
2021-06-23 16:18:19.593750000,-34.0,6.0,54.0,87.1296875,-35.79,0.627487625,31.95
2021-06-23 16:18:19.601562500,-34.0,6.0,54.0,87.130078125,-38.82,0.62744759375,31.95
2021-06-23 16:18:19.609375000,-34.0,6.0,54.0,87.13046875,-41.85,0.6274075625,31.95
2021-06-23 16:18:19.617187500,-34.0,6.0,54.0,87.130859375,-44.685,0.62736753125,31.95
2021-06-23 16:18:19.625000000,-34.0,6.0,54.0,87.13125,-47.52,0.6273275,31.95
2021-06-23 16:18:19.632812500,-34.0,6.0,54.0,87.131640625,-49.620000000000005,0.62728746875,31.95
2021-06-23 16:18:19.640625000,-34.0,6.0,54.0,87.13203125,-51.72,0.6272474375,31.95
2021-06-23 16:18:19.648437500,-34.0,6.0,54.0,87.132421875,-52.5,0.6272074062499999,31.95
2021-06-23 16:18:19.656250000,-34.0,6.0,54.0,87.1328125,-53.28,0.627167375,31.95
2021-06-23 16:18:19.664062500,-34.0,6.0,54.0,87.13320312500001,-52.31,0.62712734375,31.95
2021-06-23 16:18:19.671875000,-34.0,6.0,54.0,87.13359375,-51.34,0.6270873124999999,31.95
2021-06-23 16:18:19.679687500,-34.0,6.0,54.0,87.133984375,-48.505,0.62704728125,31.95
2021-06-23 16:18:19.687500000,-34.0,6.0,54.0,87.134375,-45.67,0.62700725,31.95
2021-06-23 16:18:19.695312500,-34.0,6.0,54.0,87.134765625,-41.235,0.6269672187499999,31.95
2021-06-23 16:18:19.703125000,-34.0,6.0,54.0,87.13515625000001,-36.8,0.6269271875,31.95
2021-06-23 16:18:19.710937500,-34.0,6.0,54.0,87.135546875,-31.375,0.62688715625,31.95
2021-06-23 16:18:19.718750000,-34.0,6.0,54.0,87.1359375,-25.95,0.626847125,31.95
2021-06-23 16:18:19.726562500,-34.0,6.0,54.0,87.136328125,-20.255,0.62680709375,31.95
2021-06-23 16:18:19.734375000,-34.0,6.0,54.0,87.13671875,-14.56,0.6267670625,31.95
2021-06-23 16:18:19.742187500,-34.0,6.0,54.0,87.13710937500001,-9.25,0.62672703125,31.95
2021-06-23 16:18:19.750000000,-34.0,6.0,54.0,87.1375,-3.94,0.626687,31.95
2021-06-23 16:18:19.757812500,-34.0,6.0,54.0,87.137890625,0.5799999999999996,0.6264468125,31.95
2021-06-23 16:18:19.765625000,-34.0,6.0,54.0,87.13828125,5.1,0.626206625,31.95
2021-06-23 16:18:19.773437500,-34.0,6.0,54.0,87.138671875,8.71,0.6259664375,31.95
2021-06-23 16:18:19.781250000,-34.0,6.0,54.0,87.13906250000001,12.32,0.62572625,31.95
2021-06-23 16:18:19.789062500,-34.0,6.0,54.0,87.139453125,15.095,0.6254860625,31.95
2021-06-23 16:18:19.796875000,-34.0,6.0,54.0,87.13984375,17.87,0.625245875,31.95
2021-06-23 16:18:19.804687500,-34.0,6.0,54.0,87.140234375,19.94,0.6250056875,31.95
2021-06-23 16:18:19.812500000,-34.0,6.0,54.0,87.140625,22.01,0.6247655,31.95
2021-06-23 16:18:19.820312500,-34.0,6.0,54.0,87.14101562500001,23.47,0.6245253125,31.95
2021-06-23 16:18:19.828125000,-34.0,6.0,54.0,87.14140625,24.93,0.624285125,31.95
2021-06-23 16:18:19.835937500,-34.0,6.0,54.0,87.141796875,25.805,0.6240449375,31.95
2021-06-23 16:18:19.843750000,-34.0,6.0,54.0,87.1421875,26.68,0.62380475,31.95
2021-06-23 16:18:19.851562500,-34.0,6.0,54.0,87.142578125,26.994999999999997,0.6235645625,31.95
2021-06-23 16:18:19.859375000,-34.0,6.0,54.0,87.14296875000001,27.31,0.623324375,31.95
2021-06-23 16:18:19.867187500,-34.0,6.0,54.0,87.143359375,27.165,0.6230841875,31.95
2021-06-23 16:18:19.875000000,-34.0,6.0,54.0,87.14375000000001,27.02,0.622844,31.95
2021-06-23 16:18:19.882812500,-34.0,6.0,54.0,87.144140625,26.59,0.6226038125,31.95
2021-06-23 16:18:19.890625000,-34.0,6.0,54.0,87.14453125,26.16,0.622363625,31.95
2021-06-23 16:18:19.898437500,-34.0,6.0,54.0,87.14492187500001,25.64,0.6221234375,31.95
2021-06-23 16:18:19.906250000,-34.0,6.0,54.0,87.1453125,25.12,0.62188325,31.95
2021-06-23 16:18:19.914062500,-34.0,6.0,54.0,87.14570312500001,24.665,0.6216430625,31.95
2021-06-23 16:18:19.921875000,-34.0,6.0,54.0,87.14609375,24.21,0.621402875,31.95
2021-06-23 16:18:19.929687500,-34.0,6.0,54.0,87.146484375,23.86,0.6211626875,31.95
2021-06-23 16:18:19.937500000,-34.0,6.0,54.0,87.14687500000001,23.51,0.6209225,31.95
2021-06-23 16:18:19.945312500,-34.0,6.0,54.0,87.147265625,23.205,0.6206823125,31.95
2021-06-23 16:18:19.953125000,-34.0,6.0,54.0,87.14765625000001,22.9,0.6204421250000001,31.95
2021-06-23 16:18:19.960937500,-34.0,6.0,54.0,87.148046875,22.53,0.6202019375,31.95
2021-06-23 16:18:19.968750000,-34.0,6.0,54.0,87.1484375,22.16,0.61996175,31.95
2021-06-23 16:18:19.976562500,-34.0,6.0,54.0,87.14882812500001,21.66,0.6197215625,31.95
2021-06-23 16:18:19.984375000,-34.0,6.0,54.0,87.14921875,21.16,0.619481375,31.95
2021-06-23 16:18:19.992187500,-34.0,6.0,54.0,87.14960937500001,20.53,0.6192411875,31.95
2021-06-23 16:18:20.000000000,-34.0,6.0,54.0,87.15,19.9,0.619001,31.95
2021-06-23 16:18:20.007812500,-34.0,6.0,54.0,87.150390625,19.229999999999997,0.61904103125,31.949375
2021-06-23 16:18:20.015625000,-34.0,6.0,54.0,87.15078125000001,18.56,0.6190810625000001,31.94875
2021-06-23 16:18:20.023437500,-34.0,6.0,54.0,87.151171875,17.95,0.61912109375,31.948125
2021-06-23 16:18:20.031250000,-34.0,6.0,54.0,87.15156250000001,17.34,0.619161125,31.947499999999998
2021-06-23 16:18:20.039062500,-34.0,6.0,54.0,87.151953125,16.8,0.61920115625,31.946875
2021-06-23 16:18:20.046875000,-34.0,6.0,54.0,87.15234375,16.26,0.6192411875,31.94625
2021-06-23 16:18:20.054687500,-34.0,6.0,54.0,87.15273437500001,15.71,0.61928121875,31.945625
2021-06-23 16:18:20.062500000,-34.0,6.0,54.0,87.153125,15.16,0.61932125,31.945
2021-06-23 16:18:20.070312500,-34.0,6.0,54.0,87.15351562500001,14.41,0.61936128125,31.944375
2021-06-23 16:18:20.078125000,-34.0,6.0,54.0,87.15390625,13.66,0.6194013125,31.943749999999998
2021-06-23 16:18:20.085937500,-34.0,6.0,54.0,87.154296875,12.5,0.61944134375,31.943125
2021-06-23 16:18:20.093750000,-34.0,6.0,54.0,87.15468750000001,11.34,0.619481375,31.9425
2021-06-23 16:18:20.101562500,-34.0,6.0,54.0,87.155078125,9.64,0.61952140625,31.941875
2021-06-23 16:18:20.109375000,-34.0,6.0,54.0,87.15546875000001,7.94,0.6195614375,31.94125
2021-06-23 16:18:20.117187500,-34.0,6.0,54.0,87.155859375,5.705,0.61960146875,31.940625
2021-06-23 16:18:20.125000000,-34.0,6.0,54.0,87.15625,3.47,0.6196415,31.939999999999998
2021-06-23 16:18:20.132812500,-34.0,6.0,54.0,87.15664062500001,0.8650000000000002,0.61968153125,31.939375
2021-06-23 16:18:20.140625000,-34.0,6.0,54.0,87.15703125,-1.74,0.6197215625,31.93875
2021-06-23 16:18:20.148437500,-34.0,6.0,54.0,87.15742187500001,-4.4399999999999995,0.6197615937500001,31.938125
2021-06-23 16:18:20.156250000,-34.0,6.0,54.0,87.1578125,-7.14,0.619801625,31.9375
2021-06-23 16:18:20.164062500,-34.0,6.0,54.0,87.158203125,-9.665,0.61984165625,31.936875
2021-06-23 16:18:20.171875000,-34.0,6.0,54.0,87.15859375000001,-12.19,0.6198816875000001,31.93625
2021-06-23 16:18:20.179687500,-34.0,6.0,54.0,87.158984375,-14.355,0.61992171875,31.935624999999998
2021-06-23 16:18:20.187500000,-34.0,6.0,54.0,87.15937500000001,-16.52,0.61996175,31.935
2021-06-23 16:18:20.195312500,-34.0,6.0,54.0,87.159765625,-18.299999999999997,0.62000178125,31.934375
2021-06-23 16:18:20.203125000,-34.0,6.0,54.0,87.16015625,-20.08,0.6200418125,31.93375
2021-06-23 16:18:20.210937500,-34.0,6.0,54.0,87.16054687500001,-21.595,0.62008184375,31.933125
2021-06-23 16:18:20.218750000,-34.0,6.0,54.0,87.1609375,-23.11,0.620121875,31.9325
2021-06-23 16:18:20.226562500,-34.0,6.0,54.0,87.16132812500001,-24.575,0.62016190625,31.931874999999998
2021-06-23 16:18:20.234375000,-34.0,6.0,54.0,87.16171875,-26.04,0.6202019375,31.93125
2021-06-23 16:18:20.242187500,-34.0,6.0,54.0,87.162109375,-27.715,0.62024196875,31.930625
2021-06-23 16:18:20.250000000,-34.0,6.0,54.0,87.16250000000001,-29.39,0.620282,31.93
2021-06-23 16:18:20.257812500,-34.0,6.0,54.0,87.162890625,-31.475,0.62024196875,31.93
2021-06-23 16:18:20.265625000,-34.0,6.0,54.0,87.16328125000001,-33.56,0.6202019375,31.93
2021-06-23 16:18:20.273437500,-34.0,6.0,54.0,87.163671875,-36.135000000000005,0.62016190625,31.93
2021-06-23 16:18:20.281250000,-34.0,6.0,54.0,87.1640625,-38.71,0.620121875,31.93
2021-06-23 16:18:20.289062500,-34.0,6.0,54.0,87.16445312500001,-41.675,0.62008184375,31.93
2021-06-23 16:18:20.296875000,-34.0,6.0,54.0,87.16484375,-44.64,0.6200418125,31.93
2021-06-23 16:18:20.304687500,-34.0,6.0,54.0,87.16523437500001,-47.629999999999995,0.62000178125,31.93
2021-06-23 16:18:20.312500000,-34.0,6.0,54.0,87.165625,-50.62,0.61996175,31.93
2021-06-23 16:18:20.320312500,-34.0,6.0,54.0,87.166015625,-53.07,0.61992171875,31.93
2021-06-23 16:18:20.328125000,-34.0,6.0,54.0,87.16640625000001,-55.52,0.6198816875000001,31.93
2021-06-23 16:18:20.335937500,-34.0,6.0,54.0,87.166796875,-56.78,0.61984165625,31.93
2021-06-23 16:18:20.343750000,-34.0,6.0,54.0,87.16718750000001,-58.04,0.619801625,31.93
2021-06-23 16:18:20.351562500,-34.0,6.0,54.0,87.167578125,-57.58,0.6197615937500001,31.93
2021-06-23 16:18:20.359375000,-34.0,6.0,54.0,87.16796875,-57.12,0.6197215625,31.93
2021-06-23 16:18:20.367187500,-34.0,6.0,54.0,87.16835937500001,-54.72,0.61968153125,31.93
2021-06-23 16:18:20.375000000,-34.0,6.0,54.0,87.16875,-52.32,0.6196415,31.93
2021-06-23 16:18:20.382812500,-34.0,6.0,54.0,87.16914062500001,-48.2,0.61960146875,31.93
2021-06-23 16:18:20.390625000,-34.0,6.0,54.0,87.16953125,-44.08,0.6195614375,31.93
2021-06-23 16:18:20.398437500,-34.0,6.0,54.0,87.169921875,-38.815,0.61952140625,31.93
2021-06-23 16:18:20.406250000,-34.0,6.0,54.0,87.17031250000001,-33.55,0.619481375,31.93
2021-06-23 16:18:20.414062500,-34.0,6.0,54.0,87.170703125,-27.884999999999998,0.61944134375,31.93
2021-06-23 16:18:20.421875000,-34.0,6.0,54.0,87.17109375000001,-22.22,0.6194013125,31.93
2021-06-23 16:18:20.429687500,-34.0,6.0,54.0,87.171484375,-16.835,0.61936128125,31.93
2021-06-23 16:18:20.437500000,-34.0,6.0,54.0,87.171875,-11.45,0.61932125,31.93
2021-06-23 16:18:20.445312500,-34.0,6.0,54.0,87.17226562500001,-6.739999999999999,0.61928121875,31.93
2021-06-23 16:18:20.453125000,-34.0,6.0,54.0,87.17265625,-2.03,0.6192411875,31.93
2021-06-23 16:18:20.460937500,-34.0,6.0,54.0,87.17304687500001,1.85,0.61920115625,31.93
2021-06-23 16:18:20.468750000,-34.0,6.0,54.0,87.1734375,5.73,0.619161125,31.93
2021-06-23 16:18:20.476562500,-34.0,6.0,54.0,87.173828125,8.855,0.61912109375,31.93
2021-06-23 16:18:20.484375000,-34.0,6.0,54.0,87.17421875000001,11.98,0.6190810625000001,31.93
2021-06-23 16:18:20.492187500,-34.0,6.0,54.0,87.174609375,14.450000000000001,0.61904103125,31.93
2021-06-23 16:18:20.500000000,-34.0,6.0,54.0,87.17500000000001,16.92,0.619001,31.93
2021-06-23 16:18:20.507812500,-34.0,6.0,54.0,87.175390625,18.810000000000002,0.61888090625,31.93
2021-06-23 16:18:20.515625000,-34.0,6.0,54.0,87.17578125,20.7,0.6187608125,31.93
2021-06-23 16:18:20.523437500,-34.0,6.0,54.0,87.17617187500001,22.005,0.61864071875,31.93
2021-06-23 16:18:20.531250000,-34.0,6.0,54.0,87.1765625,23.31,0.618520625,31.93
2021-06-23 16:18:20.539062500,-34.25,6.0,54.0,87.176953125,24.064999999999998,0.61840053125,31.93
2021-06-23 16:18:20.546875000,-34.5,6.0,54.0,87.17734375,24.82,0.6182804375000001,31.93
2021-06-23 16:18:20.554687500,-34.75,6.0,54.0,87.177734375,25.085,0.6181603437500001,31.93
2021-06-23 16:18:20.562500000,-35.0,6.0,54.0,87.17812500000001,25.35,0.61804025,31.93
2021-06-23 16:18:20.570312500,-34.75,6.0,54.0,87.178515625,25.265,0.61792015625,31.93
2021-06-23 16:18:20.578125000,-34.5,6.0,54.0,87.17890625,25.18,0.6178000625,31.93
2021-06-23 16:18:20.585937500,-34.25,6.0,54.0,87.179296875,24.915,0.61767996875,31.93
2021-06-23 16:18:20.593750000,-34.0,6.0,54.0,87.1796875,24.65,0.617559875,31.93
2021-06-23 16:18:20.601562500,-34.0,6.0,54.0,87.18007812500001,24.33,0.61743978125,31.93
2021-06-23 16:18:20.609375000,-34.0,6.0,54.0,87.18046875,24.01,0.6173196875,31.93
2021-06-23 16:18:20.617187500,-34.0,6.0,54.0,87.180859375,23.68,0.61719959375,31.93
2021-06-23 16:18:20.625000000,-34.0,6.0,54.0,87.18125,23.35,0.6170795,31.93
2021-06-23 16:18:20.632812500,-34.0,6.0,54.0,87.181640625,22.98,0.61695940625,31.93
2021-06-23 16:18:20.640625000,-34.0,6.0,54.0,87.18203125000001,22.61,0.6168393125,31.93
2021-06-23 16:18:20.648437500,-34.0,6.0,54.0,87.182421875,22.134999999999998,0.61671921875,31.93
2021-06-23 16:18:20.656250000,-34.0,6.0,54.0,87.1828125,21.66,0.616599125,31.93
2021-06-23 16:18:20.664062500,-34.0,6.0,54.0,87.183203125,21.04,0.61647903125,31.93
2021-06-23 16:18:20.671875000,-34.0,6.0,54.0,87.18359375,20.42,0.6163589375,31.93
2021-06-23 16:18:20.679687500,-34.0,6.0,54.0,87.18398437500001,19.685000000000002,0.61623884375,31.93
2021-06-23 16:18:20.687500000,-34.0,6.0,54.0,87.184375,18.95,0.61611875,31.93
2021-06-23 16:18:20.695312500,-34.0,6.0,54.0,87.184765625,18.174999999999997,0.6159986562499999,31.93
2021-06-23 16:18:20.703125000,-34.0,6.0,54.0,87.18515625,17.4,0.6158785625,31.93
2021-06-23 16:18:20.710937500,-34.0,6.0,54.0,87.185546875,16.7,0.61575846875,31.93
2021-06-23 16:18:20.718750000,-34.0,6.0,54.0,87.18593750000001,16.0,0.615638375,31.93
2021-06-23 16:18:20.726562500,-34.0,6.0,54.0,87.186328125,15.42,0.61551828125,31.93
2021-06-23 16:18:20.734375000,-34.0,6.0,54.0,87.18671875,14.84,0.6153981875,31.93
2021-06-23 16:18:20.742187500,-34.0,6.0,54.0,87.187109375,14.365,0.61527809375,31.93
2021-06-23 16:18:20.750000000,-34.0,6.0,54.0,87.1875,13.89,0.615158,31.93
2021-06-23 16:18:20.757812500,-34.0,6.0,54.0,87.18789062500001,13.395,0.61511796875,31.93
2021-06-23 16:18:20.765625000,-34.0,6.0,54.0,87.18828125,12.9,0.6150779375,31.93
2021-06-23 16:18:20.773437500,-34.0,6.0,54.0,87.188671875,12.195,0.61503790625,31.93
2021-06-23 16:18:20.781250000,-34.0,6.0,54.0,87.1890625,11.49,0.614997875,31.93
2021-06-23 16:18:20.789062500,-34.0,6.0,54.0,87.189453125,10.395,0.61495784375,31.93
2021-06-23 16:18:20.796875000,-34.0,6.0,54.0,87.18984375000001,9.3,0.6149178125,31.93
2021-06-23 16:18:20.804687500,-34.0,6.0,54.0,87.190234375,7.7250000000000005,0.61487778125,31.93
2021-06-23 16:18:20.812500000,-34.0,6.0,54.0,87.190625,6.15,0.61483775,31.93
2021-06-23 16:18:20.820312500,-34.0,6.0,54.0,87.191015625,4.13,0.61479771875,31.93
2021-06-23 16:18:20.828125000,-34.0,6.0,54.0,87.19140625,2.11,0.6147576875,31.93
2021-06-23 16:18:20.835937500,-34.0,6.0,54.0,87.19179687500001,-0.17000000000000037,0.61471765625,31.93
2021-06-23 16:18:20.843750000,-34.0,6.0,54.0,87.1921875,-2.45,0.614677625,31.93
2021-06-23 16:18:20.851562500,-34.0,6.0,54.0,87.192578125,-4.745,0.61463759375,31.93
2021-06-23 16:18:20.859375000,-34.0,6.0,54.0,87.19296875,-7.04,0.6145975625,31.93
2021-06-23 16:18:20.867187500,-34.0,6.0,54.0,87.193359375,-9.15,0.61455753125,31.93
2021-06-23 16:18:20.875000000,-34.0,6.0,54.0,87.19375000000001,-11.26,0.6145175,31.93
2021-06-23 16:18:20.882812500,-34.0,6.0,54.0,87.194140625,-13.1,0.61447746875,31.93
2021-06-23 16:18:20.890625000,-34.0,6.0,54.0,87.19453125,-14.94,0.6144374375,31.93
2021-06-23 16:18:20.898437500,-34.0,6.0,54.0,87.194921875,-16.59,0.6143974062499999,31.93
2021-06-23 16:18:20.906250000,-34.0,6.0,54.0,87.1953125,-18.24,0.614357375,31.93
2021-06-23 16:18:20.914062500,-34.0,6.0,54.0,87.19570312500001,-19.895,0.61431734375,31.93
2021-06-23 16:18:20.921875000,-34.0,6.0,54.0,87.19609375,-21.55,0.6142773125,31.93
2021-06-23 16:18:20.929687500,-34.0,6.0,54.0,87.196484375,-23.435000000000002,0.61423728125,31.93
2021-06-23 16:18:20.937500000,-34.0,6.0,54.0,87.196875,-25.32,0.61419725,31.93
2021-06-23 16:18:20.945312500,-34.0,6.0,54.0,87.197265625,-27.605,0.61415721875,31.93
2021-06-23 16:18:20.953125000,-34.0,6.0,54.0,87.19765625000001,-29.89,0.6141171875,31.93
2021-06-23 16:18:20.960937500,-34.0,6.0,54.0,87.198046875,-32.595,0.61407715625,31.93
2021-06-23 16:18:20.968750000,-34.0,6.0,54.0,87.1984375,-35.3,0.614037125,31.93
2021-06-23 16:18:20.976562500,-34.0,6.0,54.0,87.198828125,-38.239999999999995,0.61399709375,31.93
2021-06-23 16:18:20.984375000,-34.0,6.0,54.0,87.19921875,-41.18,0.6139570625,31.93
2021-06-23 16:18:20.992187500,-34.0,6.0,54.0,87.19960937500001,-43.935,0.61391703125,31.93
2021-06-23 16:18:21.000000000,-34.0,6.0,54.0,87.2,-46.69,0.613877,31.93
2021-06-23 16:18:21.007812500,-34.0,6.0,54.0,87.200390625,-48.715,0.61391703125,31.93
2021-06-23 16:18:21.015625000,-34.0,6.0,54.0,87.20078125,-50.74,0.6139570625,31.93
2021-06-23 16:18:21.023437500,-34.0,6.0,54.0,87.201171875,-51.45,0.61399709375,31.93
2021-06-23 16:18:21.031250000,-34.0,6.0,54.0,87.20156250000001,-52.16,0.614037125,31.93
2021-06-23 16:18:21.039062500,-34.0,6.0,54.0,87.201953125,-51.15,0.61407715625,31.93
2021-06-23 16:18:21.046875000,-34.0,6.0,54.0,87.20234375,-50.14,0.6141171875,31.93
2021-06-23 16:18:21.054687500,-34.0,6.0,54.0,87.202734375,-47.315,0.61415721875,31.93
2021-06-23 16:18:21.062500000,-34.0,6.0,54.0,87.203125,-44.49,0.61419725,31.93
2021-06-23 16:18:21.070312500,-34.0,6.0,54.0,87.20351562500001,-40.155,0.61423728125,31.93
2021-06-23 16:18:21.078125000,-34.0,6.0,54.0,87.20390625,-35.82,0.6142773125,31.93
2021-06-23 16:18:21.085937500,-34.0,6.0,54.0,87.204296875,-30.62,0.61431734375,31.93
2021-06-23 16:18:21.093750000,-34.0,6.0,54.0,87.2046875,-25.42,0.614357375,31.93
2021-06-23 16:18:21.101562500,-34.0,6.0,54.0,87.205078125,-20.1,0.6143974062499999,31.93
2021-06-23 16:18:21.109375000,-34.0,6.0,54.0,87.20546875000001,-14.78,0.6144374375,31.93
2021-06-23 16:18:21.117187500,-34.0,6.0,54.0,87.205859375,-9.959999999999999,0.61447746875,31.93
2021-06-23 16:18:21.125000000,-34.0,6.0,54.0,87.20625,-5.14,0.6145175,31.93
2021-06-23 16:18:21.132812500,-34.0,6.0,54.0,87.206640625,-1.1349999999999998,0.61455753125,31.93
2021-06-23 16:18:21.140625000,-34.0,6.0,54.0,87.20703125,2.87,0.6145975625,31.93
2021-06-23 16:18:21.148437500,-34.0,6.0,54.0,87.20742187500001,6.0649999999999995,0.61463759375,31.93
2021-06-23 16:18:21.156250000,-34.0,6.0,54.0,87.2078125,9.26,0.614677625,31.93
2021-06-23 16:18:21.164062500,-34.0,6.0,54.0,87.208203125,11.85,0.61471765625,31.93
2021-06-23 16:18:21.171875000,-34.0,6.0,54.0,87.20859375,14.44,0.6147576875,31.93
2021-06-23 16:18:21.179687500,-34.0,6.0,54.0,87.208984375,16.61,0.61479771875,31.93
2021-06-23 16:18:21.187500000,-34.0,6.0,54.0,87.20937500000001,18.78,0.61483775,31.93
2021-06-23 16:18:21.195312500,-34.0,6.0,54.0,87.209765625,20.605,0.61487778125,31.93
2021-06-23 16:18:21.203125000,-34.0,6.0,54.0,87.21015625,22.43,0.6149178125,31.93
2021-06-23 16:18:21.210937500,-34.0,6.0,54.0,87.210546875,23.85,0.61495784375,31.93
2021-06-23 16:18:21.218750000,-34.0,6.0,54.0,87.2109375,25.27,0.614997875,31.93
2021-06-23 16:18:21.226562500,-34.0,6.0,54.0,87.21132812500001,26.18,0.61503790625,31.93
2021-06-23 16:18:21.234375000,-34.0,6.0,54.0,87.21171875,27.09,0.6150779375,31.93
2021-06-23 16:18:21.242187500,-34.0,6.0,54.0,87.212109375,27.46,0.61511796875,31.93
2021-06-23 16:18:21.250000000,-34.0,6.0,54.0,87.2125,27.83,0.615158,31.93
2021-06-23 16:18:21.257812500,-34.0,6.0,54.0,87.212890625,27.759999999999998,0.61503790625,31.93
2021-06-23 16:18:21.265625000,-34.0,6.0,54.0,87.21328125000001,27.69,0.6149178125,31.93
2021-06-23 16:18:21.273437500,-34.0,6.0,54.0,87.213671875,27.355,0.61479771875,31.93
2021-06-23 16:18:21.281250000,-34.0,6.0,54.0,87.2140625,27.02,0.614677625,31.93
2021-06-23 16:18:21.289062500,-34.0,6.0,54.0,87.214453125,26.6,0.61455753125,31.93
2021-06-23 16:18:21.296875000,-34.0,6.0,54.0,87.21484375,26.18,0.6144374375,31.93
2021-06-23 16:18:21.304687500,-34.0,6.0,54.0,87.21523437500001,25.765,0.61431734375,31.93
2021-06-23 16:18:21.312500000,-34.0,6.0,54.0,87.215625,25.35,0.61419725,31.93
2021-06-23 16:18:21.320312500,-34.0,6.0,54.0,87.216015625,24.950000000000003,0.61407715625,31.93
2021-06-23 16:18:21.328125000,-34.0,6.0,54.0,87.21640625,24.55,0.6139570625,31.93
2021-06-23 16:18:21.335937500,-34.0,6.0,54.0,87.216796875,24.12,0.61383696875,31.93
2021-06-23 16:18:21.343750000,-34.0,6.0,54.0,87.21718750000001,23.69,0.613716875,31.93
2021-06-23 16:18:21.351562500,-34.0,6.0,54.0,87.217578125,23.18,0.6135967812500001,31.93
2021-06-23 16:18:21.359375000,-34.0,6.0,54.0,87.21796875,22.67,0.6134766875000001,31.93
2021-06-23 16:18:21.367187500,-34.0,6.0,54.0,87.218359375,22.08,0.6133565937500001,31.93
2021-06-23 16:18:21.375000000,-34.0,6.0,54.0,87.21875,21.49,0.6132365,31.93
2021-06-23 16:18:21.382812500,-34.0,6.0,54.0,87.21914062500001,20.854999999999997,0.61311640625,31.93
2021-06-23 16:18:21.390625000,-34.0,6.0,54.0,87.21953125,20.22,0.6129963125,31.93
2021-06-23 16:18:21.398437500,-34.0,6.0,54.0,87.219921875,19.53,0.61287621875,31.93
2021-06-23 16:18:21.406250000,-34.0,6.0,54.0,87.2203125,18.84,0.612756125,31.93
2021-06-23 16:18:21.414062500,-34.0,6.0,54.0,87.220703125,18.04,0.61263603125,31.93
2021-06-23 16:18:21.421875000,-34.0,6.0,54.0,87.22109375000001,17.24,0.6125159375,31.93
2021-06-23 16:18:21.429687500,-34.0,6.0,54.0,87.221484375,16.23,0.61239584375,31.93
2021-06-23 16:18:21.437500000,-34.0,6.0,54.0,87.221875,15.22,0.61227575,31.93
2021-06-23 16:18:21.445312500,-34.0,6.0,54.0,87.222265625,13.935,0.61215565625,31.93
2021-06-23 16:18:21.453125000,-34.0,6.0,54.0,87.22265625,12.65,0.6120355625,31.93
2021-06-23 16:18:21.460937500,-34.0,6.0,54.0,87.22304687500001,11.07,0.61191546875,31.93
2021-06-23 16:18:21.468750000,-34.0,6.0,54.0,87.2234375,9.49,0.611795375,31.93
2021-06-23 16:18:21.476562500,-34.0,6.0,54.0,87.223828125,7.720000000000001,0.61167528125,31.93
2021-06-23 16:18:21.484375000,-34.0,6.0,54.0,87.22421875,5.95,0.6115551875,31.93
2021-06-23 16:18:21.492187500,-34.0,6.0,54.0,87.224609375,4.15,0.61143509375,31.93
2021-06-23 16:18:21.500000000,-34.0,6.0,54.0,87.225,2.35,0.611315,31.93
2021-06-23 16:18:21.507812500,-34.0,6.0,54.0,87.225390625,0.655,0.611315,31.93
2021-06-23 16:18:21.515625000,-34.0,6.0,54.0,87.22578125,-1.04,0.611315,31.93
2021-06-23 16:18:21.523437500,-34.0,6.0,54.0,87.226171875,-2.585,0.611315,31.93
2021-06-23 16:18:21.531250000,-34.0,6.0,54.0,87.2265625,-4.13,0.611315,31.93
2021-06-23 16:18:21.539062500,-34.0,6.0,54.0,87.226953125,-5.640000000000001,0.611315,31.93
2021-06-23 16:18:21.546875000,-34.0,6.0,54.0,87.22734375,-7.15,0.611315,31.93
2021-06-23 16:18:21.554687500,-34.0,6.0,54.0,87.227734375,-8.815000000000001,0.611315,31.93
2021-06-23 16:18:21.562500000,-34.0,6.0,54.0,87.228125,-10.48,0.611315,31.93
2021-06-23 16:18:21.570312500,-34.0,6.0,54.0,87.228515625,-12.504999999999999,0.611315,31.93
2021-06-23 16:18:21.578125000,-34.0,6.0,54.0,87.22890625,-14.53,0.611315,31.93
2021-06-23 16:18:21.585937500,-34.0,6.0,54.0,87.229296875,-17.05,0.611315,31.93
2021-06-23 16:18:21.593750000,-34.0,6.0,54.0,87.2296875,-19.57,0.611315,31.93
2021-06-23 16:18:21.601562500,-34.0,6.0,54.0,87.230078125,-22.61,0.611315,31.93
2021-06-23 16:18:21.609375000,-34.0,6.0,54.0,87.23046875,-25.65,0.611315,31.93
2021-06-23 16:18:21.617187500,-34.0,6.0,54.0,87.230859375,-29.099999999999998,0.611315,31.93
2021-06-23 16:18:21.625000000,-34.0,6.0,54.0,87.23125,-32.55,0.611315,31.93
2021-06-23 16:18:21.632812500,-34.0,6.0,54.0,87.231640625,-36.18,0.611315,31.93
2021-06-23 16:18:21.640625000,-34.0,6.0,54.0,87.23203125,-39.81,0.611315,31.93
2021-06-23 16:18:21.648437500,-34.0,6.0,54.0,87.232421875,-43.275000000000006,0.611315,31.93
2021-06-23 16:18:21.656250000,-34.0,6.0,54.0,87.2328125,-46.74,0.611315,31.93
2021-06-23 16:18:21.664062500,-34.0,6.0,54.0,87.233203125,-49.585,0.611315,31.93
2021-06-23 16:18:21.671875000,-34.0,6.0,54.0,87.23359375,-52.43,0.611315,31.93
2021-06-23 16:18:21.679687500,-34.0,6.0,54.0,87.233984375,-54.144999999999996,0.611315,31.93
2021-06-23 16:18:21.687500000,-34.0,6.0,54.0,87.234375,-55.86,0.611315,31.93
2021-06-23 16:18:21.695312500,-34.0,6.0,54.0,87.234765625,-55.985,0.611315,31.93
2021-06-23 16:18:21.703125000,-34.0,6.0,54.0,87.23515625,-56.11,0.611315,31.93
2021-06-23 16:18:21.710937500,-34.0,6.0,54.0,87.235546875,-54.415,0.611315,31.93
2021-06-23 16:18:21.718750000,-34.0,6.0,54.0,87.2359375,-52.72,0.611315,31.93
2021-06-23 16:18:21.726562500,-34.0,6.0,54.0,87.236328125,-49.295,0.611315,31.93
2021-06-23 16:18:21.734375000,-34.0,6.0,54.0,87.23671875,-45.87,0.611315,31.93
2021-06-23 16:18:21.742187500,-34.0,6.0,54.0,87.237109375,-41.14,0.611315,31.93
2021-06-23 16:18:21.750000000,-34.0,6.0,54.0,87.2375,-36.41,0.611315,31.93
2021-06-23 16:18:21.757812500,-34.0,6.0,54.0,87.237890625,-31.019999999999996,0.6112349375,31.93
2021-06-23 16:18:21.765625000,-34.0,6.0,54.0,87.23828125,-25.63,0.6111548750000001,31.93
2021-06-23 16:18:21.773437500,-34.0,6.0,54.0,87.238671875,-20.275,0.6110748125000001,31.93
2021-06-23 16:18:21.781250000,-34.0,6.0,54.0,87.2390625,-14.92,0.61099475,31.93
2021-06-23 16:18:21.789062500,-34.0,6.0,54.0,87.239453125,-10.120000000000001,0.6109146875,31.93
2021-06-23 16:18:21.796875000,-34.0,6.0,54.0,87.23984375,-5.32,0.6108346250000001,31.93
2021-06-23 16:18:21.804687500,-34.0,6.0,54.0,87.240234375,-1.3450000000000002,0.6107545625,31.93
2021-06-23 16:18:21.812500000,-34.0,6.0,54.0,87.240625,2.63,0.6106745,31.93
2021-06-23 16:18:21.820312500,-34.0,6.0,54.0,87.241015625,5.77,0.6105944375000001,31.93
2021-06-23 16:18:21.828125000,-34.0,6.0,54.0,87.24140625,8.91,0.610514375,31.93
2021-06-23 16:18:21.835937500,-34.0,6.0,54.0,87.241796875,11.344999999999999,0.6104343125,31.93
2021-06-23 16:18:21.843750000,-34.0,6.0,54.0,87.2421875,13.78,0.61035425,31.93
2021-06-23 16:18:21.851562500,-34.0,6.0,54.0,87.242578125,15.655000000000001,0.6102741875000001,31.93
2021-06-23 16:18:21.859375000,-34.0,6.0,54.0,87.24296875,17.53,0.610194125,31.93
2021-06-23 16:18:21.867187500,-34.0,6.0,54.0,87.243359375,18.93,0.6101140625,31.93
2021-06-23 16:18:21.875000000,-34.0,6.0,54.0,87.24375,20.33,0.610034,31.93
2021-06-23 16:18:21.882812500,-34.0,6.0,54.0,87.244140625,21.265,0.6099539375,31.93
2021-06-23 16:18:21.890625000,-34.0,6.0,54.0,87.24453125,22.2,0.609873875,31.93
2021-06-23 16:18:21.898437500,-34.0,6.0,54.0,87.244921875,22.65,0.6097938125,31.93
2021-06-23 16:18:21.906250000,-34.0,6.0,54.0,87.2453125,23.1,0.60971375,31.93
2021-06-23 16:18:21.914062500,-34.0,6.0,54.0,87.245703125,23.085,0.6096336875,31.93
2021-06-23 16:18:21.921875000,-34.0,6.0,54.0,87.24609375,23.07,0.609553625,31.93
2021-06-23 16:18:21.929687500,-34.0,6.0,54.0,87.246484375,22.68,0.6094735625,31.93
2021-06-23 16:18:21.937500000,-34.0,6.0,54.0,87.246875,22.29,0.6093935,31.93
2021-06-23 16:18:21.945312500,-34.0,6.0,54.0,87.247265625,21.674999999999997,0.6093134375,31.93
2021-06-23 16:18:21.953125000,-34.0,6.0,54.0,87.24765625,21.06,0.609233375,31.93
2021-06-23 16:18:21.960937500,-34.0,6.0,54.0,87.248046875,20.369999999999997,0.6091533125,31.93
2021-06-23 16:18:21.968750000,-34.0,6.0,54.0,87.2484375,19.68,0.60907325,31.93
2021-06-23 16:18:21.976562500,-34.0,6.0,54.0,87.248828125,19.035,0.6089931875,31.93
2021-06-23 16:18:21.984375000,-34.0,6.0,54.0,87.24921875,18.39,0.6089131249999999,31.93
2021-06-23 16:18:21.992187500,-34.0,6.0,54.0,87.249609375,17.865000000000002,0.6088330625,31.93
2021-06-23 16:18:22.000000000,-34.0,6.0,54.0,87.25,17.34,0.608753,31.93
2021-06-23 16:18:22.007812500,-34.0,6.0,54.0,87.250546875,16.95,0.6088330625,31.93
2021-06-23 16:18:22.015625000,-34.0,6.0,54.0,87.25109375,16.56,0.6089131249999999,31.93
2021-06-23 16:18:22.023437500,-34.0,6.0,54.0,87.251640625,16.299999999999997,0.6089931875,31.93
2021-06-23 16:18:22.031250000,-34.0,6.0,54.0,87.2521875,16.04,0.60907325,31.93
2021-06-23 16:18:22.039062500,-34.0,6.0,54.0,87.252734375,15.875,0.6091533125,31.93
2021-06-23 16:18:22.046875000,-34.0,6.0,54.0,87.25328125,15.71,0.609233375,31.93
2021-06-23 16:18:22.054687500,-34.0,6.0,54.0,87.253828125,15.555,0.6093134375,31.93
2021-06-23 16:18:22.062500000,-34.0,6.0,54.0,87.254375,15.4,0.6093935,31.93
2021-06-23 16:18:22.070312500,-34.0,6.25,54.0,87.254921875,15.125,0.6094735625,31.93
2021-06-23 16:18:22.078125000,-34.0,6.5,54.0,87.25546875,14.85,0.609553625,31.93
2021-06-23 16:18:22.085937500,-34.0,6.75,54.0,87.256015625,14.285,0.6096336875,31.93
2021-06-23 16:18:22.093750000,-34.0,7.0,54.0,87.2565625,13.72,0.60971375,31.93
2021-06-23 16:18:22.101562500,-34.0,6.75,54.0,87.257109375,12.73,0.6097938125,31.93
2021-06-23 16:18:22.109375000,-34.0,6.5,54.0,87.25765625,11.74,0.609873875,31.93
2021-06-23 16:18:22.117187500,-34.0,6.25,54.0,87.258203125,10.27,0.6099539375,31.93
2021-06-23 16:18:22.125000000,-34.0,6.0,54.0,87.25874999999999,8.8,0.610034,31.93
2021-06-23 16:18:22.132812500,-34.0,6.0,54.0,87.259296875,6.92,0.6101140625,31.93
2021-06-23 16:18:22.140625000,-34.0,6.0,54.0,87.25984375,5.04,0.610194125,31.93
2021-06-23 16:18:22.148437500,-34.0,6.0,54.0,87.260390625,2.935,0.6102741875000001,31.93
2021-06-23 16:18:22.156250000,-34.0,6.0,54.0,87.2609375,0.83,0.61035425,31.93
2021-06-23 16:18:22.164062500,-34.0,6.0,54.0,87.261484375,-1.33,0.6104343125,31.93
2021-06-23 16:18:22.171875000,-34.0,6.0,54.0,87.26203124999999,-3.49,0.610514375,31.93
2021-06-23 16:18:22.179687500,-34.0,6.0,54.0,87.262578125,-5.5649999999999995,0.6105944375000001,31.93
2021-06-23 16:18:22.187500000,-34.0,6.0,54.0,87.263125,-7.64,0.6106745,31.93
2021-06-23 16:18:22.195312500,-34.0,6.0,54.0,87.263671875,-9.605,0.6107545625,31.93
2021-06-23 16:18:22.203125000,-34.0,6.0,54.0,87.26421875,-11.57,0.6108346250000001,31.93
2021-06-23 16:18:22.210937500,-34.0,6.0,54.0,87.264765625,-13.469999999999999,0.6109146875,31.93
2021-06-23 16:18:22.218750000,-34.0,6.0,54.0,87.2653125,-15.37,0.61099475,31.93
2021-06-23 16:18:22.226562500,-34.0,6.0,54.0,87.265859375,-17.31,0.6110748125000001,31.93
2021-06-23 16:18:22.234375000,-34.0,6.0,54.0,87.26640625,-19.25,0.6111548750000001,31.93
2021-06-23 16:18:22.242187500,-34.0,6.0,54.0,87.266953125,-21.32,0.6112349375,31.93
2021-06-23 16:18:22.250000000,-34.0,6.0,54.0,87.2675,-23.39,0.611315,31.93
2021-06-23 16:18:22.257812500,-34.0,6.0,54.0,87.268046875,-25.665,0.6112749687500001,31.93
2021-06-23 16:18:22.265625000,-34.0,6.0,54.0,87.26859375,-27.94,0.6112349375,31.93
2021-06-23 16:18:22.273437500,-34.0,6.0,54.0,87.26914062499999,-30.435000000000002,0.6111949062500001,31.93
2021-06-23 16:18:22.281250000,-34.0,6.0,54.0,87.2696875,-32.93,0.611154875,31.93
2021-06-23 16:18:22.289062500,-34.0,6.0,54.0,87.270234375,-35.545,0.61111484375,31.93
2021-06-23 16:18:22.296875000,-34.0,6.0,54.0,87.27078125,-38.16,0.6110748125000001,31.93
2021-06-23 16:18:22.304687500,-34.0,6.0,54.0,87.271328125,-40.66,0.61103478125,31.93
2021-06-23 16:18:22.312500000,-34.0,6.0,54.0,87.271875,-43.16,0.61099475,31.93
2021-06-23 16:18:22.320312500,-34.0,6.0,54.0,87.27242187499999,-45.15,0.6109547187500001,31.93
2021-06-23 16:18:22.328125000,-34.0,6.0,54.0,87.27296875,-47.14,0.6109146875,31.93
2021-06-23 16:18:22.335937500,-34.0,6.0,54.0,87.273515625,-48.15,0.61087465625,31.93
2021-06-23 16:18:22.343750000,-34.0,6.0,54.0,87.2740625,-49.16,0.6108346250000001,31.93
2021-06-23 16:18:22.351562500,-34.0,6.0,54.0,87.274609375,-48.785,0.61079459375,31.93
2021-06-23 16:18:22.359375000,-34.0,6.0,54.0,87.27515625,-48.41,0.6107545625,31.93
2021-06-23 16:18:22.367187500,-34.0,6.0,54.0,87.27570312499999,-46.44499999999999,0.61071453125,31.93
2021-06-23 16:18:22.375000000,-34.0,6.0,54.0,87.27625,-44.48,0.6106745,31.93
2021-06-23 16:18:22.382812500,-34.0,6.0,54.0,87.276796875,-41.035,0.61063446875,31.93
2021-06-23 16:18:22.390625000,-34.0,6.0,54.0,87.27734375,-37.59,0.6105944375,31.93
2021-06-23 16:18:22.398437500,-34.0,6.0,54.0,87.277890625,-33.07,0.61055440625,31.93
2021-06-23 16:18:22.406250000,-34.0,6.0,54.0,87.2784375,-28.55,0.6105143749999999,31.93
2021-06-23 16:18:22.414062500,-34.0,6.0,54.0,87.278984375,-23.545,0.61047434375,31.93
2021-06-23 16:18:22.421875000,-34.0,6.0,54.0,87.27953124999999,-18.54,0.6104343125,31.93
2021-06-23 16:18:22.429687500,-34.0,6.0,54.0,87.280078125,-13.62,0.61039428125,31.93
2021-06-23 16:18:22.437500000,-34.0,6.0,54.0,87.280625,-8.7,0.61035425,31.93
2021-06-23 16:18:22.445312500,-34.0,6.0,54.0,87.281171875,-4.305,0.61031421875,31.93
2021-06-23 16:18:22.453125000,-34.0,6.0,54.0,87.28171875,0.09,0.6102741875,31.93
2021-06-23 16:18:22.460937500,-34.0,6.0,54.0,87.282265625,3.7399999999999998,0.61023415625,31.93
2021-06-23 16:18:22.468750000,-34.0,6.0,54.0,87.28281249999999,7.39,0.610194125,31.93
2021-06-23 16:18:22.476562500,-34.0,6.0,54.0,87.283359375,10.29,0.61015409375,31.93
2021-06-23 16:18:22.484375000,-34.0,6.0,54.0,87.28390625,13.19,0.6101140625,31.93
2021-06-23 16:18:22.492187500,-34.0,6.0,54.0,87.284453125,15.434999999999999,0.6100740312499999,31.93
2021-06-23 16:18:22.500000000,-34.0,6.0,54.0,87.285,17.68,0.610034,31.93
2021-06-23 16:18:22.507812500,-34.0,6.0,54.0,87.285546875,19.395,0.61023415625,31.93
2021-06-23 16:18:22.515625000,-34.0,6.0,54.0,87.28609374999999,21.11,0.6104343125,31.93
2021-06-23 16:18:22.523437500,-34.0,6.0,54.0,87.28664062499999,22.365000000000002,0.6106344687499999,31.93
2021-06-23 16:18:22.531250000,-34.0,6.0,54.0,87.2871875,23.62,0.610834625,31.93
2021-06-23 16:18:22.539062500,-34.0,6.0,54.0,87.287734375,24.465,0.61103478125,31.93
2021-06-23 16:18:22.546875000,-34.0,6.0,54.0,87.28828125,25.31,0.6112349374999999,31.93
2021-06-23 16:18:22.554687500,-34.0,6.0,54.0,87.288828125,25.75,0.6114350937499999,31.93
2021-06-23 16:18:22.562500000,-34.0,6.0,54.0,87.28937499999999,26.19,0.61163525,31.93
2021-06-23 16:18:22.570312500,-34.0,6.0,54.0,87.28992187499999,26.259999999999998,0.61183540625,31.93
2021-06-23 16:18:22.578125000,-34.0,6.0,54.0,87.29046875,26.33,0.6120355625,31.93
2021-06-23 16:18:22.585937500,-34.0,6.0,54.0,87.291015625,26.104999999999997,0.6122357187499999,31.93
2021-06-23 16:18:22.593750000,-34.0,6.0,54.0,87.2915625,25.88,0.612435875,31.93
2021-06-23 16:18:22.601562500,-34.0,6.0,54.0,87.292109375,25.47,0.61263603125,31.93
2021-06-23 16:18:22.609375000,-34.0,6.0,54.0,87.29265625,25.06,0.6128361874999999,31.93
2021-06-23 16:18:22.617187500,-34.0,6.0,54.0,87.29320312499999,24.56,0.6130363437499999,31.93
2021-06-23 16:18:22.625000000,-34.0,6.0,54.0,87.29374999999999,24.06,0.6132365,31.93
2021-06-23 16:18:22.632812500,-34.0,6.0,54.0,87.294296875,23.56,0.61343665625,31.93
2021-06-23 16:18:22.640625000,-34.0,6.0,54.0,87.29484375,23.06,0.6136368125,31.93
2021-06-23 16:18:22.648437500,-34.0,6.0,54.0,87.295390625,22.575,0.6138369687499999,31.93
2021-06-23 16:18:22.656250000,-34.0,6.0,54.0,87.2959375,22.09,0.614037125,31.93
2021-06-23 16:18:22.664062500,-34.0,6.0,54.0,87.29648437499999,21.605,0.61423728125,31.93
2021-06-23 16:18:22.671875000,-34.0,6.0,54.0,87.29703124999999,21.12,0.6144374374999999,31.93
2021-06-23 16:18:22.679687500,-34.0,6.0,54.0,87.297578125,20.595,0.6146375937499999,31.93
2021-06-23 16:18:22.687500000,-34.0,6.0,54.0,87.298125,20.07,0.61483775,31.93
2021-06-23 16:18:22.695312500,-34.0,6.0,54.0,87.298671875,19.46,0.61503790625,31.93
2021-06-23 16:18:22.703125000,-34.0,6.0,54.0,87.29921875,18.85,0.6152380625,31.93
2021-06-23 16:18:22.710937500,-34.0,6.0,54.0,87.29976562499999,18.125,0.6154382187499999,31.93
2021-06-23 16:18:22.718750000,-34.0,6.0,54.0,87.30031249999999,17.4,0.615638375,31.93
2021-06-23 16:18:22.726562500,-34.0,6.0,54.0,87.300859375,16.509999999999998,0.61583853125,31.93
2021-06-23 16:18:22.734375000,-34.0,6.0,54.0,87.30140625,15.62,0.6160386874999999,31.93
2021-06-23 16:18:22.742187500,-34.0,6.0,54.0,87.301953125,14.515,0.6162388437499999,31.93
2021-06-23 16:18:22.750000000,-34.0,6.0,54.0,87.3025,13.41,0.616439,31.93
2021-06-23 16:18:22.757812500,-34.0,6.0,54.0,87.30304687499999,12.02,0.616278875,31.93
2021-06-23 16:18:22.765625000,-34.0,6.0,54.0,87.30359374999999,10.63,0.6161187499999999,31.93
2021-06-23 16:18:22.773437500,-34.0,6.0,54.0,87.30414062499999,8.935,0.615958625,31.93
2021-06-23 16:18:22.781250000,-34.0,6.0,54.0,87.3046875,7.24,0.6157984999999999,31.93
2021-06-23 16:18:22.789062500,-34.0,6.0,54.0,87.305234375,5.255,0.615638375,31.93
2021-06-23 16:18:22.796875000,-34.0,6.0,54.0,87.30578125,3.27,0.61547825,31.93
2021-06-23 16:18:22.804687500,-34.0,6.0,54.0,87.306328125,1.1,0.6153181249999999,31.93
2021-06-23 16:18:22.812500000,-34.0,6.0,54.0,87.30687499999999,-1.07,0.615158,31.93
2021-06-23 16:18:22.820312500,-34.0,6.0,54.0,87.30742187499999,-3.2699999999999996,0.614997875,31.93
2021-06-23 16:18:22.828125000,-34.0,6.0,54.0,87.30796875,-5.47,0.61483775,31.93
2021-06-23 16:18:22.835937500,-34.0,6.0,54.0,87.308515625,-7.5649999999999995,0.614677625,31.93
2021-06-23 16:18:22.843750000,-34.0,6.0,54.0,87.3090625,-9.66,0.6145175,31.93
2021-06-23 16:18:22.851562500,-34.0,6.0,54.0,87.309609375,-11.59,0.614357375,31.93
2021-06-23 16:18:22.859375000,-34.0,6.0,54.0,87.31015624999999,-13.52,0.61419725,31.93
2021-06-23 16:18:22.867187500,-34.0,6.0,54.0,87.31070312499999,-15.34,0.614037125,31.93
2021-06-23 16:18:22.875000000,-34.0,6.0,54.0,87.31125,-17.16,0.613877,31.93
2021-06-23 16:18:22.882812500,-34.0,6.0,54.0,87.311796875,-19.064999999999998,0.613716875,31.93
2021-06-23 16:18:22.890625000,-34.0,6.0,54.0,87.31234375,-20.97,0.61355675,31.93
2021-06-23 16:18:22.898437500,-34.0,6.0,54.0,87.312890625,-23.21,0.613396625,31.93
2021-06-23 16:18:22.906250000,-34.0,6.0,54.0,87.31343749999999,-25.45,0.6132365,31.93
2021-06-23 16:18:22.914062500,-34.0,6.0,54.0,87.31398437499999,-28.25,0.613076375,31.93
2021-06-23 16:18:22.921875000,-34.0,6.0,54.0,87.31453124999999,-31.05,0.61291625,31.93
2021-06-23 16:18:22.929687500,-34.0,6.0,54.0,87.315078125,-34.46,0.612756125,31.93
2021-06-23 16:18:22.937500000,-34.0,6.0,54.0,87.315625,-37.87,0.612596,31.93
2021-06-23 16:18:22.945312500,-34.0,6.0,54.0,87.316171875,-41.69,0.6124358750000001,31.93
2021-06-23 16:18:22.953125000,-34.0,6.0,54.0,87.31671874999999,-45.51,0.61227575,31.93
2021-06-23 16:18:22.960937500,-34.0,6.0,54.0,87.31726562499999,-49.269999999999996,0.612115625,31.93
2021-06-23 16:18:22.968750000,-34.0,6.0,54.0,87.31781249999999,-53.03,0.6119555000000001,31.93
2021-06-23 16:18:22.976562500,-34.0,6.0,54.0,87.318359375,-56.06,0.611795375,31.93
2021-06-23 16:18:22.984375000,-34.0,6.0,54.0,87.31890625,-59.09,0.6116352500000001,31.93
2021-06-23 16:18:22.992187500,-34.0,6.0,54.0,87.319453125,-60.69,0.611475125,31.93
2021-06-23 16:18:23.000000000,-34.0,6.0,54.0,87.32,-62.29,0.611315,31.93
2021-06-23 16:18:23.007812500,-34.0,6.0,54.0,87.32062499999999,-61.955,0.61135503125,31.93125
2021-06-23 16:18:23.015625000,-34.0,6.0,54.0,87.32124999999999,-61.62,0.6113950625000001,31.9325
2021-06-23 16:18:23.023437500,-34.0,6.0,54.0,87.32187499999999,-59.195,0.61143509375,31.93375
2021-06-23 16:18:23.031250000,-34.0,6.0,54.0,87.32249999999999,-56.77,0.611475125,31.935
2021-06-23 16:18:23.039062500,-34.0,6.0,54.0,87.32312499999999,-52.510000000000005,0.6115151562500001,31.93625
2021-06-23 16:18:23.046875000,-34.0,6.0,54.0,87.32374999999999,-48.25,0.6115551875,31.9375
2021-06-23 16:18:23.054687500,-34.0,6.0,54.0,87.32437499999999,-42.769999999999996,0.61159521875,31.93875
2021-06-23 16:18:23.062500000,-34.0,6.0,54.0,87.32499999999999,-37.29,0.6116352500000001,31.939999999999998
2021-06-23 16:18:23.070312500,-34.0,6.0,54.0,87.32562499999999,-31.325,0.61167528125,31.94125
2021-06-23 16:18:23.078125000,-34.0,6.0,54.0,87.32624999999999,-25.36,0.6117153125,31.9425
2021-06-23 16:18:23.085937500,-34.0,6.0,54.0,87.326875,-19.62,0.6117553437500001,31.943749999999998
2021-06-23 16:18:23.093750000,-34.0,6.0,54.0,87.3275,-13.88,0.611795375,31.945
2021-06-23 16:18:23.101562500,-34.0,6.0,54.0,87.328125,-8.845,0.61183540625,31.94625
2021-06-23 16:18:23.109375000,-34.0,6.0,54.0,87.32875,-3.81,0.6118754375000001,31.947499999999998
2021-06-23 16:18:23.117187500,-34.0,6.0,54.0,87.329375,0.3299999999999996,0.61191546875,31.94875
2021-06-23 16:18:23.125000000,-34.0,6.0,54.0,87.33,4.47,0.6119555000000001,31.95
2021-06-23 16:18:23.132812500,-34.0,6.0,54.0,87.330625,7.734999999999999,0.6119955312500001,31.951249999999998
2021-06-23 16:18:23.140625000,-34.0,6.0,54.0,87.33125,11.0,0.6120355625,31.9525
2021-06-23 16:18:23.148437500,-34.0,6.0,54.0,87.331875,13.565,0.6120755937500001,31.95375
2021-06-23 16:18:23.156250000,-34.0,6.0,54.0,87.3325,16.13,0.612115625,31.955
2021-06-23 16:18:23.164062500,-34.0,6.0,54.0,87.333125,18.174999999999997,0.61215565625,31.95625
2021-06-23 16:18:23.171875000,-34.0,6.0,54.0,87.33375,20.22,0.6121956875000001,31.9575
2021-06-23 16:18:23.179687500,-34.0,6.0,54.0,87.334375,21.875,0.61223571875,31.95875
2021-06-23 16:18:23.187500000,-34.0,6.0,54.0,87.335,23.53,0.61227575,31.96
2021-06-23 16:18:23.195312500,-34.0,6.0,54.0,87.335625,24.84,0.6123157812500001,31.96125
2021-06-23 16:18:23.203125000,-34.0,6.0,54.0,87.33624999999999,26.15,0.6123558125,31.9625
2021-06-23 16:18:23.210937500,-34.0,6.0,54.0,87.33687499999999,27.11,0.61239584375,31.963749999999997
2021-06-23 16:18:23.218750000,-34.0,6.0,54.0,87.33749999999999,28.07,0.6124358750000001,31.965
2021-06-23 16:18:23.226562500,-34.0,6.0,54.0,87.33812499999999,28.655,0.61247590625,31.96625
2021-06-23 16:18:23.234375000,-34.0,6.0,54.0,87.33874999999999,29.24,0.6125159375,31.967499999999998
2021-06-23 16:18:23.242187500,-34.0,6.0,54.0,87.33937499999999,29.46,0.6125559687500001,31.96875
2021-06-23 16:18:23.250000000,-34.0,6.0,54.0,87.34,29.68,0.612596,31.97
2021-06-23 16:18:23.257812500,-34.0,6.0,54.0,87.340625,29.57,0.61247590625,31.97
2021-06-23 16:18:23.265625000,-34.0,6.0,54.0,87.34125,29.46,0.6123558125,31.97
2021-06-23 16:18:23.273437500,-34.0,6.0,54.0,87.341875,29.11,0.61223571875,31.97
2021-06-23 16:18:23.281250000,-34.0,6.0,54.0,87.3425,28.76,0.612115625,31.97
2021-06-23 16:18:23.289062500,-34.0,6.0,54.0,87.343125,28.255000000000003,0.6119955312500001,31.97
2021-06-23 16:18:23.296875000,-34.0,6.0,54.0,87.34375,27.75,0.6118754375000001,31.97
2021-06-23 16:18:23.304687500,-34.0,6.0,54.0,87.344375,27.185000000000002,0.6117553437500001,31.97
2021-06-23 16:18:23.312500000,-34.0,6.0,54.0,87.345,26.62,0.61163525,31.97
2021-06-23 16:18:23.320312500,-34.0,6.0,54.0,87.345625,26.065,0.61151515625,31.97
2021-06-23 16:18:23.328125000,-34.0,6.0,54.0,87.34625,25.51,0.6113950625,31.97
2021-06-23 16:18:23.335937500,-34.0,6.0,54.0,87.346875,25.005000000000003,0.61127496875,31.97
2021-06-23 16:18:23.343750000,-34.0,6.0,54.0,87.3475,24.5,0.611154875,31.97
2021-06-23 16:18:23.351562500,-34.0,6.0,54.0,87.348125,24.07,0.61103478125,31.97
2021-06-23 16:18:23.359375000,-34.0,6.0,54.0,87.34875,23.64,0.6109146875,31.97
2021-06-23 16:18:23.367187500,-34.0,6.0,54.0,87.349375,23.25,0.61079459375,31.97
2021-06-23 16:18:23.375000000,-34.0,6.0,54.0,87.35,22.86,0.6106745,31.97
2021-06-23 16:18:23.382812500,-34.0,6.0,54.0,87.350625,22.42,0.61055440625,31.97
2021-06-23 16:18:23.390625000,-34.0,6.0,54.0,87.35125,21.98,0.6104343125,31.97
2021-06-23 16:18:23.398437500,-34.0,6.0,54.0,87.35187499999999,21.325000000000003,0.61031421875,31.97
2021-06-23 16:18:23.406250000,-34.0,6.0,54.0,87.35249999999999,20.67,0.610194125,31.97
2021-06-23 16:18:23.414062500,-34.0,6.0,54.0,87.35312499999999,19.62,0.61007403125,31.97
2021-06-23 16:18:23.421875000,-34.0,6.0,54.0,87.35375,18.57,0.6099539375,31.97
2021-06-23 16:18:23.429687500,-34.0,6.0,54.0,87.354375,16.985,0.60983384375,31.97
2021-06-23 16:18:23.437500000,-34.0,6.0,54.0,87.355,15.4,0.60971375,31.97
2021-06-23 16:18:23.445312500,-34.0,6.0,54.0,87.355625,13.26,0.60959365625,31.97
2021-06-23 16:18:23.453125000,-34.0,6.0,54.0,87.35625,11.12,0.6094735625,31.97
2021-06-23 16:18:23.460937500,-34.0,6.0,54.0,87.356875,8.55,0.60935346875,31.97
2021-06-23 16:18:23.468750000,-34.0,6.0,54.0,87.3575,5.98,0.609233375,31.97
2021-06-23 16:18:23.476562500,-34.0,6.0,54.0,87.358125,3.2600000000000002,0.60911328125,31.97
2021-06-23 16:18:23.484375000,-34.0,6.0,54.0,87.35875,0.54,0.6089931875,31.97
2021-06-23 16:18:23.492187500,-34.0,6.0,54.0,87.359375,-2.005,0.60887309375,31.97
2021-06-23 16:18:23.500000000,-34.0,6.0,54.0,87.36,-4.55,0.608753,31.97
2021-06-23 16:18:23.507812500,-34.0,6.0,54.0,87.360625,-6.654999999999999,0.608753,31.97
2021-06-23 16:18:23.515625000,-34.0,6.0,54.0,87.36125,-8.76,0.608753,31.97
2021-06-23 16:18:23.523437500,-34.0,6.0,54.0,87.361875,-10.325,0.608753,31.97
2021-06-23 16:18:23.531250000,-34.0,6.0,54.0,87.3625,-11.89,0.608753,31.97
2021-06-23 16:18:23.539062500,-34.0,6.0,54.0,87.363125,-13.04,0.608753,31.97
2021-06-23 16:18:23.546875000,-34.0,6.0,54.0,87.36375,-14.19,0.608753,31.97
2021-06-23 16:18:23.554687500,-34.0,6.0,54.0,87.364375,-15.259999999999998,0.608753,31.97
2021-06-23 16:18:23.562500000,-34.0,6.0,54.0,87.365,-16.33,0.608753,31.97
2021-06-23 16:18:23.570312500,-34.0,6.0,54.0,87.365625,-17.75,0.608753,31.97
2021-06-23 16:18:23.578125000,-34.0,6.0,54.0,87.36625,-19.17,0.608753,31.97
2021-06-23 16:18:23.585937500,-34.0,6.0,54.0,87.36687500000001,-21.305,0.608753,31.97
2021-06-23 16:18:23.593750000,-34.0,6.0,54.0,87.3675,-23.44,0.608753,31.97
2021-06-23 16:18:23.601562500,-34.0,6.0,54.0,87.368125,-26.4,0.608753,31.97
2021-06-23 16:18:23.609375000,-34.0,6.0,54.0,87.36875,-29.36,0.608753,31.97
2021-06-23 16:18:23.617187500,-34.0,6.0,54.0,87.369375,-32.92,0.608753,31.97
2021-06-23 16:18:23.625000000,-34.0,6.0,54.0,87.37,-36.48,0.608753,31.97
2021-06-23 16:18:23.632812500,-34.0,6.0,54.0,87.370625,-40.08,0.608753,31.97
2021-06-23 16:18:23.640625000,-34.0,6.0,54.0,87.37125,-43.68,0.608753,31.97
2021-06-23 16:18:23.648437500,-34.0,6.0,54.0,87.371875,-46.575,0.608753,31.97
2021-06-23 16:18:23.656250000,-34.0,6.0,54.0,87.3725,-49.47,0.608753,31.97
2021-06-23 16:18:23.664062500,-33.75,6.0,54.0,87.373125,-50.95,0.608753,31.97
2021-06-23 16:18:23.671875000,-33.5,6.0,54.0,87.37375,-52.43,0.608753,31.97
2021-06-23 16:18:23.679687500,-33.25,6.0,54.0,87.374375,-52.07,0.608753,31.97
2021-06-23 16:18:23.687500000,-33.0,6.0,54.0,87.375,-51.71,0.608753,31.97
2021-06-23 16:18:23.695312500,-33.25,6.0,54.0,87.375625,-49.45,0.608753,31.97
2021-06-23 16:18:23.703125000,-33.5,6.0,54.0,87.37625,-47.19,0.608753,31.97
2021-06-23 16:18:23.710937500,-33.75,6.0,54.0,87.376875,-43.36,0.608753,31.97
2021-06-23 16:18:23.718750000,-34.0,6.0,54.0,87.3775,-39.53,0.608753,31.97
2021-06-23 16:18:23.726562500,-34.0,6.0,54.0,87.378125,-34.705,0.608753,31.97
