TimeStamp,empatica.acc.x,empatica.acc.y,empatica.acc.z,empatica.hr,empatica.bvp,empatica.eda,empatica.temp
2021-06-28 10:23:27.406250000,-64.0,4.0,-11.0,67.6996875,6.97,4.594753,32.99
2021-06-28 10:23:27.414062500,-64.0,4.0,-11.0,67.699296875,6.09,4.5938722499999995,32.99
2021-06-28 10:23:27.421875000,-64.0,4.0,-11.0,67.69890625,5.21,4.5929915,32.99
2021-06-28 10:23:27.429687500,-64.0,4.0,-11.0,67.698515625,4.27,4.59211075,32.99
2021-06-28 10:23:27.437500000,-64.0,4.0,-11.0,67.698125,3.33,4.5912299999999995,32.99
2021-06-28 10:23:27.445312500,-63.75,4.0,-11.0,67.697734375,2.325,4.59034925,32.99
2021-06-28 10:23:27.453125000,-63.5,4.0,-11.0,67.69734375,1.32,4.5894685,32.99
2021-06-28 10:23:27.460937500,-63.25,4.0,-11.0,67.696953125,0.2649999999999999,4.588587749999999,32.99
2021-06-28 10:23:27.468750000,-63.0,4.0,-11.0,67.6965625,-0.79,4.587707,32.99
2021-06-28 10:23:27.476562500,-63.25,4.0,-11.25,67.696171875,-1.845,4.58682625,32.99
2021-06-28 10:23:27.484375000,-63.5,4.0,-11.5,67.69578125,-2.9,4.585945499999999,32.99
2021-06-28 10:23:27.492187500,-63.75,4.0,-11.75,67.695390625,-3.9000000000000004,4.58506475,32.99
2021-06-28 10:23:27.500000000,-64.0,4.0,-12.0,67.695,-4.9,4.584184,32.99
2021-06-28 10:23:27.507812500,-64.0,4.0,-12.25,67.694609375,-5.805,4.5838236875,32.99
2021-06-28 10:23:27.515625000,-64.0,4.0,-12.5,67.69421875,-6.71,4.583463375,32.99
2021-06-28 10:23:27.523437500,-64.0,4.0,-12.75,67.693828125,-7.5,4.583103062499999,32.99
2021-06-28 10:23:27.531250000,-64.0,4.0,-13.0,67.6934375,-8.29,4.5827427499999995,32.99
2021-06-28 10:23:27.539062500,-64.0,4.0,-12.75,67.69304687500001,-8.989999999999998,4.5823824375,32.99
2021-06-28 10:23:27.546875000,-64.0,4.0,-12.5,67.69265625,-9.69,4.582022125,32.99
2021-06-28 10:23:27.554687500,-64.0,4.0,-12.25,67.692265625,-10.39,4.581661812499999,32.99
2021-06-28 10:23:27.562500000,-64.0,4.0,-12.0,67.691875,-11.09,4.5813014999999995,32.99
2021-06-28 10:23:27.570312500,-63.75,4.0,-11.75,67.691484375,-11.870000000000001,4.5809411875,32.99
2021-06-28 10:23:27.578125000,-63.5,4.0,-11.5,67.69109375000001,-12.65,4.580580875,32.99
2021-06-28 10:23:27.585937500,-63.25,4.0,-11.25,67.690703125,-13.594999999999999,4.5802205625,32.99
2021-06-28 10:23:27.593750000,-63.0,4.0,-11.0,67.6903125,-14.54,4.579860249999999,32.99
2021-06-28 10:23:27.601562500,-63.0,4.0,-11.0,67.689921875,-15.67,4.5794999375,32.99
2021-06-28 10:23:27.609375000,-63.0,4.0,-11.0,67.68953125,-16.8,4.579139625,32.99
2021-06-28 10:23:27.617187500,-63.0,4.0,-11.0,67.68914062500001,-18.095,4.5787793125,32.99
2021-06-28 10:23:27.625000000,-63.0,4.0,-11.0,67.68875,-19.39,4.578419,32.99
2021-06-28 10:23:27.632812500,-63.25,4.0,-11.25,67.688359375,-20.75,4.5780586875,32.99
2021-06-28 10:23:27.640625000,-63.5,4.0,-11.5,67.68796875,-22.11,4.577698375,32.99
2021-06-28 10:23:27.648437500,-63.75,4.0,-11.75,67.687578125,-23.4,4.5773380625,32.99
2021-06-28 10:23:27.656250000,-64.0,4.0,-12.0,67.68718750000001,-24.69,4.57697775,32.99
2021-06-28 10:23:27.664062500,-64.0,4.0,-12.0,67.686796875,-25.740000000000002,4.5766174374999995,32.99
2021-06-28 10:23:27.671875000,-64.0,4.0,-12.0,67.68640625,-26.79,4.576257125,32.99
2021-06-28 10:23:27.679687500,-64.0,4.0,-12.0,67.686015625,-27.415,4.5758968125,32.99
2021-06-28 10:23:27.687500000,-64.0,4.0,-12.0,67.685625,-28.04,4.5755365,32.99
2021-06-28 10:23:27.695312500,-64.0,4.0,-12.0,67.68523437500001,-28.085,4.5751761875,32.99
2021-06-28 10:23:27.703125000,-64.0,4.0,-12.0,67.68484375,-28.13,4.574815875,32.99
2021-06-28 10:23:27.710937500,-64.0,4.0,-12.0,67.684453125,-27.494999999999997,4.5744555625,32.99
2021-06-28 10:23:27.718750000,-64.0,4.0,-12.0,67.6840625,-26.86,4.57409525,32.99
2021-06-28 10:23:27.726562500,-63.75,4.0,-12.0,67.683671875,-25.54,4.5737349375,32.99
2021-06-28 10:23:27.734375000,-63.5,4.0,-12.0,67.68328125000001,-24.22,4.573374625,32.99
2021-06-28 10:23:27.742187500,-63.25,4.0,-12.0,67.682890625,-22.325,4.5730143125,32.99
2021-06-28 10:23:27.750000000,-63.0,4.0,-12.0,67.6825,-20.43,4.572654,32.99
2021-06-28 10:23:27.757812500,-63.25,4.0,-12.0,67.682109375,-18.15,4.57165315625,32.99
2021-06-28 10:23:27.765625000,-63.5,4.0,-12.0,67.68171875,-15.87,4.5706523125,32.99
2021-06-28 10:23:27.773437500,-63.75,4.0,-12.0,67.68132812500001,-13.415,4.56965146875,32.99
2021-06-28 10:23:27.781250000,-64.0,4.0,-12.0,67.6809375,-10.96,4.568650625,32.99
2021-06-28 10:23:27.789062500,-64.0,4.0,-12.0,67.680546875,-8.51,4.56764978125,32.99
2021-06-28 10:23:27.796875000,-64.0,4.0,-12.0,67.68015625,-6.06,4.5666489375,32.99
2021-06-28 10:23:27.804687500,-64.0,4.0,-12.0,67.679765625,-3.7299999999999995,4.56564809375,32.99
2021-06-28 10:23:27.812500000,-64.0,4.0,-12.0,67.67937500000001,-1.4,4.56464725,32.99
2021-06-28 10:23:27.820312500,-64.0,4.0,-12.0,67.678984375,0.77,4.56364640625,32.99
2021-06-28 10:23:27.828125000,-64.0,4.0,-12.0,67.67859375,2.94,4.5626455625,32.99
2021-06-28 10:23:27.835937500,-64.0,4.0,-12.0,67.678203125,4.935,4.56164471875,32.99
2021-06-28 10:23:27.843750000,-64.0,4.0,-12.0,67.6778125,6.93,4.560643875,32.99
2021-06-28 10:23:27.851562500,-64.0,4.0,-12.0,67.67742187500001,8.735,4.55964303125,32.99
2021-06-28 10:23:27.859375000,-64.0,4.0,-12.0,67.67703125,10.54,4.5586421875,32.99
2021-06-28 10:23:27.867187500,-64.0,4.0,-12.0,67.676640625,12.105,4.55764134375,32.99
2021-06-28 10:23:27.875000000,-64.0,4.0,-12.0,67.67625,13.67,4.5566405,32.99
2021-06-28 10:23:27.882812500,-64.0,4.0,-12.0,67.675859375,14.945,4.5556396562499994,32.99
2021-06-28 10:23:27.890625000,-64.0,4.0,-12.0,67.67546875000001,16.22,4.5546388124999995,32.99
2021-06-28 10:23:27.898437500,-64.0,4.0,-12.0,67.675078125,17.17,4.5536379687499995,32.99
2021-06-28 10:23:27.906250000,-64.0,4.0,-12.0,67.6746875,18.12,4.5526371249999995,32.99
2021-06-28 10:23:27.914062500,-64.0,4.0,-12.0,67.674296875,18.735,4.5516362812499995,32.99
2021-06-28 10:23:27.921875000,-64.0,4.0,-12.0,67.67390625,19.35,4.5506354374999995,32.99
2021-06-28 10:23:27.929687500,-64.0,4.0,-12.0,67.67351562500001,19.65,4.54963459375,32.99
2021-06-28 10:23:27.937500000,-64.0,4.0,-12.0,67.673125,19.95,4.54863375,32.99
2021-06-28 10:23:27.945312500,-63.75,4.0,-12.0,67.672734375,19.955,4.54763290625,32.99
2021-06-28 10:23:27.953125000,-63.5,4.0,-12.0,67.67234375,19.96,4.5466320625,32.99
2021-06-28 10:23:27.960937500,-63.25,4.0,-12.0,67.671953125,19.71,4.54563121875,32.99
2021-06-28 10:23:27.968750000,-63.0,4.0,-12.0,67.67156250000001,19.46,4.544630375,32.99
2021-06-28 10:23:27.976562500,-63.25,4.0,-12.0,67.671171875,19.02,4.54362953125,32.99
2021-06-28 10:23:27.984375000,-63.5,4.0,-12.0,67.67078125,18.58,4.5426286875,32.99
2021-06-28 10:23:27.992187500,-63.75,4.0,-12.0,67.670390625,18.045,4.54162784375,32.99
2021-06-28 10:23:28.000000000,-64.0,4.0,-12.0,67.67,17.51,4.540627,32.99
2021-06-28 10:23:28.007812500,-64.0,4.0,-12.0,67.6696875,17.020000000000003,4.540506875,32.99
2021-06-28 10:23:28.015625000,-64.0,4.0,-12.0,67.669375,16.53,4.54038675,32.99
2021-06-28 10:23:28.023437500,-64.0,4.0,-12.0,67.6690625,16.2,4.540266625,32.99
2021-06-28 10:23:28.031250000,-64.0,4.0,-12.0,67.66875,15.87,4.5401465,32.99
2021-06-28 10:23:28.039062500,-64.0,4.0,-12.0,67.6684375,15.774999999999999,4.540026375,32.99
2021-06-28 10:23:28.046875000,-64.0,4.0,-12.0,67.668125,15.68,4.53990625,32.99
2021-06-28 10:23:28.054687500,-64.0,4.0,-12.0,67.6678125,15.79,4.539786125,32.99
2021-06-28 10:23:28.062500000,-64.0,4.0,-12.0,67.6675,15.9,4.5396659999999995,32.99
2021-06-28 10:23:28.070312500,-64.0,4.0,-12.0,67.6671875,16.115,4.539545875,32.99
2021-06-28 10:23:28.078125000,-64.0,4.0,-12.0,67.666875,16.33,4.5394257499999995,32.99
2021-06-28 10:23:28.085937500,-64.0,4.0,-12.0,67.6665625,16.53,4.539305625,32.99
2021-06-28 10:23:28.093750000,-64.0,4.0,-12.0,67.66625,16.73,4.539185499999999,32.99
2021-06-28 10:23:28.101562500,-64.0,4.0,-12.0,67.6659375,16.82,4.539065375,32.99
2021-06-28 10:23:28.109375000,-64.0,4.0,-12.0,67.665625,16.91,4.538945249999999,32.99
2021-06-28 10:23:28.117187500,-64.0,4.0,-12.0,67.6653125,16.84,4.538825125,32.99
2021-06-28 10:23:28.125000000,-64.0,4.0,-12.0,67.665,16.77,4.538705,32.99
2021-06-28 10:23:28.132812500,-63.75,4.0,-12.0,67.6646875,16.555,4.538584875,32.99
2021-06-28 10:23:28.140625000,-63.5,4.0,-12.0,67.664375,16.34,4.53846475,32.99
2021-06-28 10:23:28.148437500,-63.25,4.0,-12.0,67.6640625,16.02,4.538344625,32.99
2021-06-28 10:23:28.156250000,-63.0,4.0,-12.0,67.66375000000001,15.7,4.5382245,32.99
2021-06-28 10:23:28.164062500,-63.25,4.0,-12.0,67.6634375,15.295,4.538104375,32.99
2021-06-28 10:23:28.171875000,-63.5,4.0,-12.0,67.663125,14.89,4.53798425,32.99
2021-06-28 10:23:28.179687500,-63.75,4.0,-12.0,67.6628125,14.415,4.537864125,32.99
2021-06-28 10:23:28.187500000,-64.0,4.0,-12.0,67.6625,13.94,4.537744,32.99
2021-06-28 10:23:28.195312500,-64.0,4.0,-11.75,67.6621875,13.375,4.5376238749999995,32.99
2021-06-28 10:23:28.203125000,-64.0,4.0,-11.5,67.661875,12.81,4.53750375,32.99
2021-06-28 10:23:28.210937500,-64.0,4.0,-11.25,67.6615625,12.14,4.5373836249999995,32.99
2021-06-28 10:23:28.218750000,-64.0,4.0,-11.0,67.66125,11.47,4.5372635,32.99
2021-06-28 10:23:28.226562500,-64.0,4.0,-11.0,67.6609375,10.66,4.537143374999999,32.99
2021-06-28 10:23:28.234375000,-64.0,4.0,-11.0,67.660625,9.85,4.53702325,32.99
2021-06-28 10:23:28.242187500,-64.0,4.0,-11.0,67.6603125,8.91,4.536903124999999,32.99
2021-06-28 10:23:28.250000000,-64.0,4.0,-11.0,67.66,7.97,4.536783,32.99
2021-06-28 10:23:28.257812500,-64.0,4.0,-11.0,67.6596875,6.925,4.53602234375,32.99
2021-06-28 10:23:28.265625000,-64.0,4.0,-11.0,67.659375,5.88,4.5352616875,32.99
2021-06-28 10:23:28.273437500,-64.0,4.0,-11.0,67.6590625,4.78,4.53450103125,32.99
2021-06-28 10:23:28.281250000,-64.0,4.0,-11.0,67.65875,3.68,4.533740375,32.99
2021-06-28 10:23:28.289062500,-64.0,4.0,-10.75,67.6584375,2.59,4.53297971875,32.99
2021-06-28 10:23:28.296875000,-64.0,4.0,-10.5,67.658125,1.5,4.532219062499999,32.99
2021-06-28 10:23:28.304687500,-64.0,4.0,-10.25,67.6578125,0.45999999999999996,4.53145840625,32.99
2021-06-28 10:23:28.312500000,-64.0,4.0,-10.0,67.6575,-0.58,4.53069775,32.99
2021-06-28 10:23:28.320312500,-64.5,4.25,-9.75,67.6571875,-1.5549999999999997,4.52993709375,32.99
2021-06-28 10:23:28.328125000,-65.0,4.5,-9.5,67.656875,-2.53,4.5291764375,32.99
2021-06-28 10:23:28.335937500,-65.5,4.75,-9.25,67.65656249999999,-3.45,4.52841578125,32.99
2021-06-28 10:23:28.343750000,-66.0,5.0,-9.0,67.65625,-4.37,4.527655125,32.99
2021-06-28 10:23:28.351562500,-65.5,4.75,-9.25,67.6559375,-5.255,4.52689446875,32.99
2021-06-28 10:23:28.359375000,-65.0,4.5,-9.5,67.655625,-6.14,4.5261338124999995,32.99
2021-06-28 10:23:28.367187500,-64.5,4.25,-9.75,67.6553125,-6.97,4.52537315625,32.99
2021-06-28 10:23:28.375000000,-64.0,4.0,-10.0,67.655,-7.8,4.5246125,32.99
2021-06-28 10:23:28.382812500,-64.0,4.25,-9.75,67.6546875,-8.56,4.52385184375,32.99
2021-06-28 10:23:28.390625000,-64.0,4.5,-9.5,67.654375,-9.32,4.5230911875,32.99
2021-06-28 10:23:28.398437500,-64.0,4.75,-9.25,67.6540625,-9.985,4.52233053125,32.99
2021-06-28 10:23:28.406250000,-64.0,5.0,-9.0,67.65375,-10.65,4.521569875,32.99
2021-06-28 10:23:28.414062500,-64.0,4.75,-9.0,67.6534375,-11.235,4.52080921875,32.99
2021-06-28 10:23:28.421875000,-64.0,4.5,-9.0,67.653125,-11.82,4.5200485624999995,32.99
2021-06-28 10:23:28.429687500,-64.0,4.25,-9.0,67.6528125,-12.379999999999999,4.51928790625,32.99
2021-06-28 10:23:28.437500000,-64.0,4.0,-9.0,67.6525,-12.94,4.51852725,32.99
2021-06-28 10:23:28.445312500,-64.0,4.0,-9.25,67.6521875,-13.545,4.51776659375,32.99
2021-06-28 10:23:28.453125000,-64.0,4.0,-9.5,67.651875,-14.15,4.5170059375000005,32.99
2021-06-28 10:23:28.460937500,-64.0,4.0,-9.75,67.6515625,-14.855,4.51624528125,32.99
2021-06-28 10:23:28.468750000,-64.0,4.0,-10.0,67.65125,-15.56,4.515484625,32.99
2021-06-28 10:23:28.476562500,-64.0,4.0,-10.25,67.6509375,-16.37,4.51472396875,32.99
2021-06-28 10:23:28.484375000,-64.0,4.0,-10.5,67.650625,-17.18,4.5139633125,32.99
2021-06-28 10:23:28.492187500,-64.0,4.0,-10.75,67.6503125,-18.1,4.51320265625,32.99
2021-06-28 10:23:28.500000000,-64.0,4.0,-11.0,67.65,-19.02,4.512442,32.99
2021-06-28 10:23:28.507812500,-64.0,4.0,-11.25,67.6496875,-20.060000000000002,4.513162625,32.99
2021-06-28 10:23:28.515625000,-64.0,4.0,-11.5,67.64937499999999,-21.1,4.51388325,32.99
2021-06-28 10:23:28.523437500,-64.0,4.0,-11.75,67.6490625,-22.305,4.514603875,32.99
2021-06-28 10:23:28.531250000,-64.0,4.0,-12.0,67.64874999999999,-23.51,4.5153245,32.99
2021-06-28 10:23:28.539062500,-64.0,4.0,-12.0,67.6484375,-24.9,4.516045125,32.99
2021-06-28 10:23:28.546875000,-64.0,4.0,-12.0,67.648125,-26.29,4.51676575,32.99
2021-06-28 10:23:28.554687500,-64.0,4.0,-12.0,67.6478125,-27.835,4.517486375,32.99
2021-06-28 10:23:28.562500000,-64.0,4.0,-12.0,67.6475,-29.38,4.518207,32.99
2021-06-28 10:23:28.570312500,-64.0,4.0,-12.0,67.6471875,-30.905,4.518927625,32.99
2021-06-28 10:23:28.578125000,-64.0,4.0,-12.0,67.646875,-32.43,4.51964825,32.99
2021-06-28 10:23:28.585937500,-64.0,4.0,-12.0,67.6465625,-33.66,4.520368875,32.99
2021-06-28 10:23:28.593750000,-64.0,4.0,-12.0,67.64625,-34.89,4.5210895,32.99
2021-06-28 10:23:28.601562500,-63.75,4.0,-12.0,67.6459375,-35.510000000000005,4.521810125,32.99
2021-06-28 10:23:28.609375000,-63.5,4.0,-12.0,67.645625,-36.13,4.5225307500000005,32.99
2021-06-28 10:23:28.617187500,-63.25,4.0,-12.0,67.6453125,-35.91,4.523251375,32.99
2021-06-28 10:23:28.625000000,-63.0,4.0,-12.0,67.645,-35.69,4.5239720000000005,32.99
2021-06-28 10:23:28.632812500,-63.25,4.0,-12.0,67.6446875,-34.56,4.524692625,32.99
2021-06-28 10:23:28.640625000,-63.5,4.0,-12.0,67.644375,-33.43,4.52541325,32.99
2021-06-28 10:23:28.648437500,-63.75,4.0,-12.0,67.6440625,-31.52,4.526133875,32.99
2021-06-28 10:23:28.656250000,-64.0,4.0,-12.0,67.64375,-29.61,4.5268545,32.99
2021-06-28 10:23:28.664062500,-64.0,4.0,-12.25,67.6434375,-27.155,4.527575125,32.99
2021-06-28 10:23:28.671875000,-64.0,4.0,-12.5,67.643125,-24.7,4.52829575,32.99
2021-06-28 10:23:28.679687500,-64.0,4.0,-12.75,67.64281249999999,-22.005,4.529016375,32.99
2021-06-28 10:23:28.687500000,-64.0,4.0,-13.0,67.6425,-19.31,4.529737,32.99
2021-06-28 10:23:28.695312500,-64.0,4.0,-12.75,67.64218749999999,-16.619999999999997,4.530457625,32.99
2021-06-28 10:23:28.703125000,-64.0,4.0,-12.5,67.641875,-13.93,4.53117825,32.99
2021-06-28 10:23:28.710937500,-64.0,4.0,-12.25,67.64156249999999,-11.41,4.531898875,32.99
2021-06-28 10:23:28.718750000,-64.0,4.0,-12.0,67.64125,-8.89,4.5326195,32.99
2021-06-28 10:23:28.726562500,-63.75,4.0,-12.0,67.64093749999999,-6.630000000000001,4.5333401250000005,32.99
2021-06-28 10:23:28.734375000,-63.5,4.0,-12.0,67.640625,-4.37,4.53406075,32.99
2021-06-28 10:23:28.742187500,-63.25,4.0,-12.0,67.6403125,-2.4050000000000002,4.534781375000001,32.99
2021-06-28 10:23:28.750000000,-63.0,4.0,-12.0,67.64,-0.44,4.535502,32.99
2021-06-28 10:23:28.757812500,-63.25,4.0,-12.0,67.6396875,1.24,4.5351416875,32.99
2021-06-28 10:23:28.765625000,-63.5,4.0,-12.0,67.639375,2.92,4.534781375,32.99
2021-06-28 10:23:28.773437500,-63.75,4.0,-12.0,67.6390625,4.335,4.5344210625,32.99
2021-06-28 10:23:28.781250000,-64.0,4.0,-12.0,67.63875,5.75,4.53406075,32.99
2021-06-28 10:23:28.789062500,-64.0,4.0,-12.0,67.6384375,6.915,4.5337004375,32.99
2021-06-28 10:23:28.796875000,-64.0,4.0,-12.0,67.638125,8.08,4.5333401250000005,32.99
2021-06-28 10:23:28.804687500,-64.0,4.0,-12.0,67.6378125,9.0,4.5329798125,32.99
2021-06-28 10:23:28.812500000,-64.0,4.0,-12.0,67.6375,9.92,4.5326195,32.99
2021-06-28 10:23:28.820312500,-64.0,4.0,-12.25,67.6371875,10.615,4.5322591875,32.99
2021-06-28 10:23:28.828125000,-64.0,4.0,-12.5,67.636875,11.31,4.5318988749999995,32.99
2021-06-28 10:23:28.835937500,-64.0,4.0,-12.75,67.6365625,11.805,4.5315385625,32.99
2021-06-28 10:23:28.843750000,-64.0,4.0,-13.0,67.63624999999999,12.3,4.53117825,32.99
2021-06-28 10:23:28.851562500,-63.75,4.0,-12.75,67.6359375,12.645,4.5308179375,32.99
2021-06-28 10:23:28.859375000,-63.5,4.0,-12.5,67.63562499999999,12.99,4.530457625,32.99
2021-06-28 10:23:28.867187500,-63.25,4.0,-12.25,67.6353125,13.24,4.5300973125,32.99
2021-06-28 10:23:28.875000000,-63.0,4.0,-12.0,67.63499999999999,13.49,4.529737,32.99
2021-06-28 10:23:28.882812500,-63.25,4.0,-12.25,67.6346875,13.695,4.5293766875,32.99
2021-06-28 10:23:28.890625000,-63.5,4.0,-12.5,67.63437499999999,13.9,4.529016374999999,32.99
2021-06-28 10:23:28.898437500,-63.75,4.0,-12.75,67.6340625,14.085,4.5286560625,32.99
2021-06-28 10:23:28.906250000,-64.0,4.0,-13.0,67.63374999999999,14.27,4.52829575,32.99
2021-06-28 10:23:28.914062500,-64.0,4.0,-13.0,67.6334375,14.415,4.5279354375,32.99
2021-06-28 10:23:28.921875000,-64.0,4.0,-13.0,67.63312499999999,14.56,4.527575125,32.99
2021-06-28 10:23:28.929687500,-64.0,4.0,-13.0,67.6328125,14.645,4.5272148125,32.99
2021-06-28 10:23:28.937500000,-64.0,4.0,-13.0,67.6325,14.73,4.5268545,32.99
2021-06-28 10:23:28.945312500,-63.75,4.0,-13.0,67.6321875,14.735,4.5264941875,32.99
2021-06-28 10:23:28.953125000,-63.5,4.0,-13.0,67.631875,14.74,4.526133874999999,32.99
2021-06-28 10:23:28.960937500,-63.25,4.0,-13.0,67.6315625,14.685,4.5257735624999995,32.99
2021-06-28 10:23:28.968750000,-63.0,4.0,-13.0,67.63125,14.63,4.52541325,32.99
2021-06-28 10:23:28.976562500,-63.0,4.0,-12.75,67.6309375,14.565000000000001,4.5250529375,32.99
2021-06-28 10:23:28.984375000,-63.0,4.0,-12.5,67.630625,14.5,4.524692625,32.99
2021-06-28 10:23:28.992187500,-63.0,4.0,-12.25,67.6303125,14.485,4.5243323124999995,32.99
2021-06-28 10:23:29.000000000,-63.0,4.0,-12.0,67.63,14.47,4.523972,32.99
2021-06-28 10:23:29.007812500,-63.25,4.0,-12.25,67.63,14.54,4.523291406249999,32.99
2021-06-28 10:23:29.015625000,-63.5,4.0,-12.5,67.63,14.61,4.5226108125,32.99
2021-06-28 10:23:29.023437500,-63.75,4.0,-12.75,67.63,14.745000000000001,4.52193021875,32.99
2021-06-28 10:23:29.031250000,-64.0,4.0,-13.0,67.63,14.88,4.521249624999999,32.99
2021-06-28 10:23:29.039062500,-64.0,4.0,-13.0,67.63,15.035,4.52056903125,32.99
2021-06-28 10:23:29.046875000,-64.0,4.0,-13.0,67.63,15.19,4.5198884375,32.99
2021-06-28 10:23:29.054687500,-64.0,4.0,-13.0,67.63,15.285,4.519207843749999,32.99
2021-06-28 10:23:29.062500000,-64.0,4.0,-13.0,67.63,15.38,4.51852725,32.99
2021-06-28 10:23:29.070312500,-64.0,4.0,-13.0,67.63,15.34,4.51784665625,32.99
2021-06-28 10:23:29.078125000,-64.0,4.0,-13.0,67.63,15.3,4.517166062499999,32.99
2021-06-28 10:23:29.085937500,-64.0,4.0,-13.0,67.63,15.095,4.51648546875,32.99
2021-06-28 10:23:29.093750000,-64.0,4.0,-13.0,67.63,14.89,4.515804875,32.99
2021-06-28 10:23:29.101562500,-63.75,4.0,-12.75,67.63,14.525,4.515124281249999,32.99
2021-06-28 10:23:29.109375000,-63.5,4.0,-12.5,67.63,14.16,4.5144436875,32.99
2021-06-28 10:23:29.117187500,-63.25,4.0,-12.25,67.63,13.690000000000001,4.51376309375,32.99
2021-06-28 10:23:29.125000000,-63.0,4.0,-12.0,67.63,13.22,4.513082499999999,32.99
2021-06-28 10:23:29.132812500,-63.25,4.0,-12.25,67.63,12.725000000000001,4.51240190625,32.99
2021-06-28 10:23:29.140625000,-63.5,4.0,-12.5,67.63,12.23,4.5117213125,32.99
2021-06-28 10:23:29.148437500,-63.75,4.0,-12.75,67.63,11.795,4.51104071875,32.99
2021-06-28 10:23:29.156250000,-64.0,4.0,-13.0,67.63,11.36,4.510360125,32.99
2021-06-28 10:23:29.164062500,-64.0,4.0,-13.0,67.63,11.04,4.50967953125,32.99
2021-06-28 10:23:29.171875000,-64.0,4.0,-13.0,67.63,10.72,4.5089989375,32.99
2021-06-28 10:23:29.179687500,-64.0,4.0,-13.0,67.63,10.510000000000002,4.50831834375,32.99
2021-06-28 10:23:29.187500000,-64.0,4.0,-13.0,67.63,10.3,4.50763775,32.99
2021-06-28 10:23:29.195312500,-64.0,4.0,-13.0,67.63,10.165,4.50695715625,32.99
2021-06-28 10:23:29.203125000,-64.0,4.0,-13.0,67.63,10.03,4.5062765625,32.99
2021-06-28 10:23:29.210937500,-64.0,4.0,-13.0,67.63,9.879999999999999,4.50559596875,32.99
2021-06-28 10:23:29.218750000,-64.0,4.0,-13.0,67.63,9.73,4.504915375,32.99
2021-06-28 10:23:29.226562500,-64.0,4.0,-12.75,67.63,9.5,4.50423478125,32.99
2021-06-28 10:23:29.234375000,-64.0,4.0,-12.5,67.63,9.27,4.5035541875,32.99
2021-06-28 10:23:29.242187500,-64.0,4.0,-12.25,67.63,8.915,4.50287359375,32.99
2021-06-28 10:23:29.250000000,-64.0,4.0,-12.0,67.63,8.56,4.502193,32.99
2021-06-28 10:23:29.257812500,-63.75,4.0,-12.25,67.63,8.07,4.50171259375,32.99
2021-06-28 10:23:29.265625000,-63.5,4.0,-12.5,67.63,7.58,4.5012321875,32.99
2021-06-28 10:23:29.273437500,-63.25,4.0,-12.75,67.63,6.995,4.50075178125,32.99
2021-06-28 10:23:29.281250000,-63.0,4.0,-13.0,67.63,6.41,4.5002713750000005,32.99
2021-06-28 10:23:29.289062500,-63.25,4.0,-13.0,67.63,5.775,4.49979096875,32.99
2021-06-28 10:23:29.296875000,-63.5,4.0,-13.0,67.63,5.14,4.4993105625,32.99
2021-06-28 10:23:29.304687500,-63.75,4.0,-13.0,67.63,4.505,4.49883015625,32.99
2021-06-28 10:23:29.312500000,-64.0,4.0,-13.0,67.63,3.87,4.49834975,32.99
2021-06-28 10:23:29.320312500,-63.75,4.0,-12.75,67.63,3.245,4.49786934375,32.99
2021-06-28 10:23:29.328125000,-63.5,4.0,-12.5,67.63,2.62,4.4973889375,32.99
2021-06-28 10:23:29.335937500,-63.25,4.0,-12.25,67.63,2.01,4.49690853125,32.99
2021-06-28 10:23:29.343750000,-63.0,4.0,-12.0,67.63,1.4,4.4964281249999996,32.99
2021-06-28 10:23:29.351562500,-63.0,4.0,-12.0,67.63,0.7949999999999999,4.49594771875,32.99
2021-06-28 10:23:29.359375000,-63.0,4.0,-12.0,67.63,0.19,4.4954673125,32.99
2021-06-28 10:23:29.367187500,-63.0,4.0,-12.0,67.63,-0.44,4.49498690625,32.99
2021-06-28 10:23:29.375000000,-63.0,4.0,-12.0,67.63,-1.07,4.4945065,32.99
2021-06-28 10:23:29.382812500,-63.25,4.0,-12.25,67.63,-1.7200000000000002,4.49402609375,32.99
2021-06-28 10:23:29.390625000,-63.5,4.0,-12.5,67.63,-2.37,4.4935456875,32.99
2021-06-28 10:23:29.398437500,-63.75,4.0,-12.75,67.63,-3.04,4.49306528125,32.99
2021-06-28 10:23:29.406250000,-64.0,4.0,-13.0,67.63,-3.71,4.492584875,32.99
2021-06-28 10:23:29.414062500,-64.0,4.0,-13.0,67.63,-4.390000000000001,4.49210446875,32.99
2021-06-28 10:23:29.421875000,-64.0,4.0,-13.0,67.63,-5.07,4.4916240625,32.99
2021-06-28 10:23:29.429687500,-64.0,4.0,-13.0,67.63,-5.76,4.49114365625,32.99
2021-06-28 10:23:29.437500000,-64.0,4.0,-13.0,67.63,-6.45,4.49066325,32.99
2021-06-28 10:23:29.445312500,-63.75,4.0,-12.75,67.63,-7.175000000000001,4.4901828437499995,32.99
2021-06-28 10:23:29.453125000,-63.5,4.0,-12.5,67.63,-7.9,4.4897024375,32.99
2021-06-28 10:23:29.460937500,-63.25,4.0,-12.25,67.63,-8.695,4.48922203125,32.99
2021-06-28 10:23:29.468750000,-63.0,4.0,-12.0,67.63,-9.49,4.488741624999999,32.99
2021-06-28 10:23:29.476562500,-63.0,4.0,-12.0,67.63,-10.379999999999999,4.48826121875,32.99
2021-06-28 10:23:29.484375000,-63.0,4.0,-12.0,67.63,-11.27,4.4877808125,32.99
2021-06-28 10:23:29.492187500,-63.0,4.0,-12.0,67.63,-12.274999999999999,4.48730040625,32.99
2021-06-28 10:23:29.500000000,-63.0,4.0,-12.0,67.63,-13.28,4.48682,32.99
2021-06-28 10:23:29.507812500,-63.25,4.0,-12.25,67.63,-14.370000000000001,4.4864196875,32.99
2021-06-28 10:23:29.515625000,-63.5,4.0,-12.5,67.63,-15.46,4.486019375,32.99
2021-06-28 10:23:29.523437500,-63.75,4.0,-12.75,67.63,-16.61,4.4856190625,32.99
2021-06-28 10:23:29.531250000,-64.0,4.0,-13.0,67.63,-17.76,4.48521875,32.99
2021-06-28 10:23:29.539062500,-64.0,4.0,-13.0,67.63,-18.91,4.4848184374999995,32.99
2021-06-28 10:23:29.546875000,-64.0,4.0,-13.0,67.63,-20.06,4.4844181249999995,32.99
2021-06-28 10:23:29.554687500,-64.0,4.0,-13.0,67.63,-21.14,4.484017812499999,32.99
2021-06-28 10:23:29.562500000,-64.0,4.0,-13.0,67.63,-22.22,4.483617499999999,32.99
2021-06-28 10:23:29.570312500,-63.75,4.0,-13.0,67.63,-23.13,4.4832171875,32.99
2021-06-28 10:23:29.578125000,-63.5,4.0,-13.0,67.63,-24.04,4.482816875,32.99
2021-06-28 10:23:29.585937500,-63.25,4.0,-13.0,67.63,-24.64,4.4824165625,32.99
2021-06-28 10:23:29.593750000,-63.0,4.0,-13.0,67.63,-25.24,4.48201625,32.99
2021-06-28 10:23:29.601562500,-63.0,4.0,-12.75,67.63,-25.365,4.4816159375,32.99
2021-06-28 10:23:29.609375000,-63.0,4.0,-12.5,67.63,-25.49,4.481215625,32.99
2021-06-28 10:23:29.617187500,-63.0,4.0,-12.25,67.63,-25.015,4.4808153125,32.99
2021-06-28 10:23:29.625000000,-63.0,4.0,-12.0,67.63,-24.54,4.480415,32.99
2021-06-28 10:23:29.632812500,-63.25,4.0,-12.25,67.63,-23.424999999999997,4.4800146875,32.99
2021-06-28 10:23:29.640625000,-63.5,4.0,-12.5,67.63,-22.31,4.479614375,32.99
2021-06-28 10:23:29.648437500,-63.75,4.0,-12.75,67.63,-20.645,4.4792140625,32.99
2021-06-28 10:23:29.656250000,-64.0,4.0,-13.0,67.63,-18.98,4.47881375,32.99
2021-06-28 10:23:29.664062500,-63.75,4.0,-12.75,67.63,-16.95,4.4784134374999995,32.99
2021-06-28 10:23:29.671875000,-63.5,4.0,-12.5,67.63,-14.92,4.4780131249999995,32.99
2021-06-28 10:23:29.679687500,-63.25,4.0,-12.25,67.63,-12.754999999999999,4.477612812499999,32.99
2021-06-28 10:23:29.687500000,-63.0,4.0,-12.0,67.63,-10.59,4.4772125,32.99
2021-06-28 10:23:29.695312500,-63.25,4.0,-12.0,67.63,-8.475,4.4768121875,32.99
2021-06-28 10:23:29.703125000,-63.5,4.0,-12.0,67.63,-6.36,4.476411875,32.99
2021-06-28 10:23:29.710937500,-63.75,4.0,-12.0,67.63,-4.3950000000000005,4.4760115625,32.99
2021-06-28 10:23:29.718750000,-64.0,4.0,-12.0,67.63,-2.43,4.47561125,32.99
2021-06-28 10:23:29.726562500,-64.0,4.0,-12.25,67.63,-0.6300000000000001,4.4752109375,32.99
2021-06-28 10:23:29.734375000,-64.0,4.0,-12.5,67.63,1.17,4.474810625,32.99
2021-06-28 10:23:29.742187500,-64.0,4.0,-12.75,67.63,2.815,4.4744103125,32.99
2021-06-28 10:23:29.750000000,-64.0,4.0,-13.0,67.63,4.46,4.47401,32.99
2021-06-28 10:23:29.757812500,-64.0,4.0,-12.75,67.63,5.955,4.47405,32.99
2021-06-28 10:23:29.765625000,-64.0,4.0,-12.5,67.63,7.45,4.4740899999999995,32.99
2021-06-28 10:23:29.773437500,-64.0,4.0,-12.25,67.63,8.755,4.47413,32.99
2021-06-28 10:23:29.781250000,-64.0,4.0,-12.0,67.63,10.06,4.47417,32.99
2021-06-28 10:23:29.789062500,-64.0,4.0,-12.0,67.63,11.100000000000001,4.47421,32.99
2021-06-28 10:23:29.796875000,-64.0,4.0,-12.0,67.63,12.14,4.47425,32.99
2021-06-28 10:23:29.804687500,-64.0,4.0,-12.0,67.63,12.865,4.47429,32.99
2021-06-28 10:23:29.812500000,-64.0,4.0,-12.0,67.63,13.59,4.47433,32.99
2021-06-28 10:23:29.820312500,-64.0,4.0,-12.0,67.63,13.96,4.4743699999999995,32.99
2021-06-28 10:23:29.828125000,-64.0,4.0,-12.0,67.63,14.33,4.47441,32.99
2021-06-28 10:23:29.835937500,-64.0,4.0,-12.0,67.63,14.39,4.47445,32.99
2021-06-28 10:23:29.843750000,-64.0,4.0,-12.0,67.63,14.45,4.47449,32.99
2021-06-28 10:23:29.851562500,-63.75,4.0,-12.25,67.63,14.274999999999999,4.47453,32.99
2021-06-28 10:23:29.859375000,-63.5,4.0,-12.5,67.63,14.1,4.47457,32.99
2021-06-28 10:23:29.867187500,-63.25,4.0,-12.75,67.63,13.805,4.47461,32.99
2021-06-28 10:23:29.875000000,-63.0,4.0,-13.0,67.63,13.51,4.4746500000000005,32.99
2021-06-28 10:23:29.882812500,-63.25,4.0,-12.75,67.63,13.205,4.47469,32.99
2021-06-28 10:23:29.890625000,-63.5,4.0,-12.5,67.63,12.9,4.47473,32.99
2021-06-28 10:23:29.898437500,-63.75,4.0,-12.25,67.63,12.68,4.47477,32.99
2021-06-28 10:23:29.906250000,-64.0,4.0,-12.0,67.63,12.46,4.47481,32.99
2021-06-28 10:23:29.914062500,-64.0,4.0,-12.0,67.63,12.36,4.47485,32.99
2021-06-28 10:23:29.921875000,-64.0,4.0,-12.0,67.63,12.26,4.47489,32.99
2021-06-28 10:23:29.929687500,-64.0,4.0,-12.0,67.63,12.29,4.4749300000000005,32.99
2021-06-28 10:23:29.937500000,-64.0,4.0,-12.0,67.63,12.32,4.47497,32.99
2021-06-28 10:23:29.945312500,-63.75,4.0,-12.0,67.63,12.43,4.47501,32.99
2021-06-28 10:23:29.953125000,-63.5,4.0,-12.0,67.63,12.54,4.47505,32.99
2021-06-28 10:23:29.960937500,-63.25,4.0,-12.0,67.63,12.684999999999999,4.47509,32.99
2021-06-28 10:23:29.968750000,-63.0,4.0,-12.0,67.63,12.83,4.47513,32.99
2021-06-28 10:23:29.976562500,-63.25,4.0,-12.0,67.63,12.965,4.47517,32.99
2021-06-28 10:23:29.984375000,-63.5,4.0,-12.0,67.63,13.1,4.475210000000001,32.99
2021-06-28 10:23:29.992187500,-63.75,4.0,-12.0,67.63,13.18,4.47525,32.99
2021-06-28 10:23:30.000000000,-64.0,4.0,-12.0,67.63,13.26,4.47529,32.99
2021-06-28 10:23:30.007812500,-63.75,4.0,-12.0,67.6303125,13.274999999999999,4.47464946875,32.99
2021-06-28 10:23:30.015625000,-63.5,4.0,-12.0,67.630625,13.29,4.4740089375,32.99
2021-06-28 10:23:30.023437500,-63.25,4.0,-12.0,67.6309375,13.219999999999999,4.4733684062500005,32.99
2021-06-28 10:23:30.031250000,-63.0,4.0,-12.0,67.63125,13.15,4.472727875,32.99
2021-06-28 10:23:30.039062500,-63.25,4.0,-12.0,67.6315625,12.995000000000001,4.47208734375,32.99
2021-06-28 10:23:30.046875000,-63.5,4.0,-12.0,67.631875,12.84,4.4714468125,32.99
2021-06-28 10:23:30.054687500,-63.75,4.0,-12.0,67.6321875,12.59,4.47080628125,32.99
2021-06-28 10:23:30.062500000,-64.0,4.0,-12.0,67.6325,12.34,4.47016575,32.99
2021-06-28 10:23:30.070312500,-64.0,4.0,-12.0,67.6328125,12.004999999999999,4.46952521875,32.99
2021-06-28 10:23:30.078125000,-64.0,4.0,-12.0,67.63312499999999,11.67,4.4688846875,32.99
2021-06-28 10:23:30.085937500,-64.0,4.0,-12.0,67.6334375,11.275,4.46824415625,32.99
2021-06-28 10:23:30.093750000,-64.0,4.0,-12.0,67.63374999999999,10.88,4.467603625,32.99
2021-06-28 10:23:30.101562500,-64.0,4.0,-12.0,67.6340625,10.45,4.46696309375,32.99
2021-06-28 10:23:30.109375000,-64.0,4.0,-12.0,67.63437499999999,10.02,4.4663225625,32.99
2021-06-28 10:23:30.117187500,-64.0,4.0,-12.0,67.6346875,9.565,4.46568203125,32.99
2021-06-28 10:23:30.125000000,-64.0,4.0,-12.0,67.63499999999999,9.11,4.4650415,32.99
2021-06-28 10:23:30.132812500,-64.0,4.0,-12.0,67.6353125,8.645,4.46440096875,32.99
2021-06-28 10:23:30.140625000,-64.0,4.0,-12.0,67.63562499999999,8.18,4.4637604374999995,32.99
2021-06-28 10:23:30.148437500,-64.0,4.0,-12.0,67.6359375,7.695,4.46311990625,32.99
2021-06-28 10:23:30.156250000,-64.0,4.0,-12.0,67.63624999999999,7.21,4.462479375,32.99
2021-06-28 10:23:30.164062500,-64.0,4.0,-12.0,67.6365625,6.715,4.46183884375,32.99
2021-06-28 10:23:30.171875000,-64.0,4.0,-12.0,67.636875,6.22,4.4611983125,32.99
2021-06-28 10:23:30.179687500,-64.0,4.0,-12.0,67.6371875,5.715,4.4605577812499995,32.99
2021-06-28 10:23:30.187500000,-64.0,4.0,-12.0,67.6375,5.21,4.45991725,32.99
2021-06-28 10:23:30.195312500,-63.75,4.0,-12.0,67.6378125,4.7,4.45927671875,32.99
2021-06-28 10:23:30.203125000,-63.5,4.0,-12.0,67.638125,4.19,4.4586361875,32.99
2021-06-28 10:23:30.210937500,-63.25,4.0,-12.0,67.6384375,3.67,4.45799565625,32.99
2021-06-28 10:23:30.218750000,-63.0,4.0,-12.0,67.63875,3.15,4.457355124999999,32.99
2021-06-28 10:23:30.226562500,-63.25,4.0,-12.0,67.6390625,2.605,4.456714593749999,32.99
2021-06-28 10:23:30.234375000,-63.5,4.0,-12.0,67.639375,2.06,4.4560740625,32.99
2021-06-28 10:23:30.242187500,-63.75,4.0,-12.0,67.6396875,1.465,4.45543353125,32.99
2021-06-28 10:23:30.250000000,-64.0,4.0,-12.0,67.64,0.87,4.454793,32.99
2021-06-28 10:23:30.257812500,-64.0,4.0,-12.0,67.6403125,0.21999999999999997,4.454712906249999,32.99
2021-06-28 10:23:30.265625000,-64.0,4.0,-12.0,67.640625,-0.43,4.4546328125,32.99
2021-06-28 10:23:30.273437500,-64.0,4.0,-12.0,67.64093749999999,-1.11,4.45455271875,32.99
2021-06-28 10:23:30.281250000,-64.0,4.0,-12.0,67.64125,-1.79,4.454472624999999,32.99
2021-06-28 10:23:30.289062500,-64.0,4.0,-12.0,67.64156249999999,-2.46,4.45439253125,32.99
2021-06-28 10:23:30.296875000,-64.0,4.0,-12.0,67.641875,-3.13,4.4543124375,32.99
2021-06-28 10:23:30.304687500,-64.0,4.0,-12.0,67.64218749999999,-3.735,4.454232343749999,32.99
2021-06-28 10:23:30.312500000,-64.0,4.0,-12.0,67.6425,-4.34,4.45415225,32.99
2021-06-28 10:23:30.320312500,-64.0,4.0,-12.0,67.64281249999999,-4.855,4.45407215625,32.99
2021-06-28 10:23:30.328125000,-64.0,4.0,-12.0,67.643125,-5.37,4.453992062499999,32.99
2021-06-28 10:23:30.335937500,-64.0,4.0,-12.0,67.6434375,-5.8149999999999995,4.45391196875,32.99
2021-06-28 10:23:30.343750000,-64.0,4.0,-12.0,67.64375,-6.26,4.453831875,32.99
2021-06-28 10:23:30.351562500,-63.75,4.0,-12.0,67.6440625,-6.675,4.453751781249999,32.99
2021-06-28 10:23:30.359375000,-63.5,4.0,-12.0,67.644375,-7.09,4.4536716875,32.99
2021-06-28 10:23:30.367187500,-63.25,4.0,-12.0,67.6446875,-7.529999999999999,4.45359159375,32.99
2021-06-28 10:23:30.375000000,-63.0,4.0,-12.0,67.645,-7.97,4.453511499999999,32.99
2021-06-28 10:23:30.382812500,-63.25,4.0,-12.0,67.6453125,-8.47,4.45343140625,32.99
2021-06-28 10:23:30.390625000,-63.5,4.0,-12.0,67.645625,-8.97,4.4533513125,32.99
2021-06-28 10:23:30.398437500,-63.75,4.0,-12.0,67.6459375,-9.530000000000001,4.45327121875,32.99
2021-06-28 10:23:30.406250000,-64.0,4.0,-12.0,67.64625,-10.09,4.453191125,32.99
2021-06-28 10:23:30.414062500,-64.0,4.0,-12.0,67.6465625,-10.69,4.45311103125,32.99
2021-06-28 10:23:30.421875000,-64.0,4.0,-12.0,67.646875,-11.29,4.4530309375,32.99
2021-06-28 10:23:30.429687500,-64.0,4.0,-12.0,67.6471875,-11.905,4.45295084375,32.99
2021-06-28 10:23:30.437500000,-64.0,4.0,-12.0,67.6475,-12.52,4.45287075,32.99
2021-06-28 10:23:30.445312500,-63.75,4.0,-12.0,67.6478125,-13.115,4.45279065625,32.99
2021-06-28 10:23:30.453125000,-63.5,4.0,-12.0,67.648125,-13.71,4.4527105625,32.99
2021-06-28 10:23:30.460937500,-63.25,4.0,-12.0,67.6484375,-14.245000000000001,4.45263046875,32.99
2021-06-28 10:23:30.468750000,-63.0,4.0,-12.0,67.64874999999999,-14.78,4.452550375,32.99
2021-06-28 10:23:30.476562500,-63.25,4.0,-12.0,67.6490625,-15.225,4.45247028125,32.99
2021-06-28 10:23:30.484375000,-63.5,4.0,-12.0,67.64937499999999,-15.67,4.4523901875,32.99
2021-06-28 10:23:30.492187500,-63.75,4.0,-12.0,67.6496875,-16.015,4.45231009375,32.99
2021-06-28 10:23:30.500000000,-64.0,4.0,-12.0,67.65,-16.36,4.45223,32.99
2021-06-28 10:23:30.507812500,-63.75,4.0,-12.0,67.6503125,-16.634999999999998,4.452069875,32.99
2021-06-28 10:23:30.515625000,-63.5,4.0,-12.0,67.650625,-16.91,4.45190975,32.99
2021-06-28 10:23:30.523437500,-63.25,4.0,-12.0,67.6509375,-17.18,4.451749625,32.99
2021-06-28 10:23:30.531250000,-63.0,4.0,-12.0,67.65125,-17.45,4.4515895,32.99
2021-06-28 10:23:30.539062500,-63.0,4.0,-12.0,67.6515625,-17.805,4.451429375,32.99
2021-06-28 10:23:30.546875000,-63.0,4.0,-12.0,67.651875,-18.16,4.45126925,32.99
2021-06-28 10:23:30.554687500,-63.0,4.0,-12.0,67.6521875,-18.685000000000002,4.451109125,32.99
2021-06-28 10:23:30.562500000,-63.0,4.0,-12.0,67.6525,-19.21,4.450949,32.99
2021-06-28 10:23:30.570312500,-63.25,4.0,-12.0,67.6528125,-19.93,4.450788875,32.99
2021-06-28 10:23:30.578125000,-63.5,4.0,-12.0,67.653125,-20.65,4.45062875,32.99
2021-06-28 10:23:30.585937500,-63.75,4.0,-12.0,67.6534375,-21.53,4.450468625,32.99
2021-06-28 10:23:30.593750000,-64.0,4.0,-12.0,67.65375,-22.41,4.4503085,32.99
2021-06-28 10:23:30.601562500,-64.0,4.0,-12.0,67.6540625,-23.310000000000002,4.450148375,32.99
2021-06-28 10:23:30.609375000,-64.0,4.0,-12.0,67.654375,-24.21,4.44998825,32.99
2021-06-28 10:23:30.617187500,-64.0,4.0,-12.0,67.6546875,-24.945,4.449828125,32.99
2021-06-28 10:23:30.625000000,-64.0,4.0,-12.0,67.655,-25.68,4.449668,32.99
2021-06-28 10:23:30.632812500,-64.0,4.0,-12.0,67.6553125,-26.05,4.449507875,32.99
2021-06-28 10:23:30.640625000,-64.0,4.0,-12.0,67.655625,-26.42,4.44934775,32.99
2021-06-28 10:23:30.648437500,-64.0,4.0,-12.0,67.6559375,-26.26,4.4491876249999995,32.99
2021-06-28 10:23:30.656250000,-64.0,4.0,-12.0,67.65625,-26.1,4.4490275,32.99
2021-06-28 10:23:30.664062500,-64.0,4.0,-12.0,67.65656249999999,-25.32,4.448867375,32.99
2021-06-28 10:23:30.671875000,-64.0,4.0,-12.0,67.656875,-24.54,4.44870725,32.99
2021-06-28 10:23:30.679687500,-64.0,4.0,-12.0,67.6571875,-23.145,4.448547125,32.99
2021-06-28 10:23:30.687500000,-64.0,4.0,-12.0,67.6575,-21.75,4.448387,32.99
2021-06-28 10:23:30.695312500,-64.0,4.0,-12.0,67.6578125,-19.845,4.448226875,32.99
2021-06-28 10:23:30.703125000,-64.0,4.0,-12.0,67.658125,-17.94,4.44806675,32.99
2021-06-28 10:23:30.710937500,-64.0,4.0,-12.0,67.6584375,-15.695,4.447906625,32.99
2021-06-28 10:23:30.718750000,-64.0,4.0,-12.0,67.65875,-13.45,4.4477465,32.99
2021-06-28 10:23:30.726562500,-64.0,4.0,-12.0,67.6590625,-11.055,4.447586375,32.99
2021-06-28 10:23:30.734375000,-64.0,4.0,-12.0,67.659375,-8.66,4.4474262499999995,32.99
2021-06-28 10:23:30.742187500,-64.0,4.0,-12.0,67.6596875,-6.325,4.447266125,32.99
2021-06-28 10:23:30.750000000,-64.0,4.0,-12.0,67.66,-3.99,4.447106,32.99
2021-06-28 10:23:30.757812500,-63.75,4.0,-12.0,67.6603125,-1.8600000000000003,4.446945875,32.99
2021-06-28 10:23:30.765625000,-63.5,4.0,-12.0,67.660625,0.27,4.44678575,32.99
2021-06-28 10:23:30.773437500,-63.25,4.0,-12.0,67.6609375,2.09,4.446625625,32.99
2021-06-28 10:23:30.781250000,-63.0,4.0,-12.0,67.66125,3.91,4.4464654999999995,32.99
2021-06-28 10:23:30.789062500,-63.0,4.0,-12.0,67.6615625,5.385,4.446305375,32.99
2021-06-28 10:23:30.796875000,-63.0,4.0,-12.0,67.661875,6.86,4.44614525,32.99
2021-06-28 10:23:30.804687500,-63.0,4.0,-12.0,67.6621875,8.02,4.445985125,32.99
2021-06-28 10:23:30.812500000,-63.0,4.0,-12.0,67.6625,9.18,4.445825,32.99
2021-06-28 10:23:30.820312500,-63.25,4.0,-12.0,67.6628125,10.07,4.445664875,32.99
2021-06-28 10:23:30.828125000,-63.5,4.0,-12.0,67.663125,10.96,4.44550475,32.99
2021-06-28 10:23:30.835937500,-63.75,4.0,-12.0,67.6634375,11.635000000000002,4.445344625,32.99
2021-06-28 10:23:30.843750000,-64.0,4.0,-12.0,67.66375000000001,12.31,4.4451845,32.99
2021-06-28 10:23:30.851562500,-64.0,4.0,-12.0,67.6640625,12.8,4.445024375,32.99
2021-06-28 10:23:30.859375000,-64.0,4.0,-12.0,67.664375,13.29,4.44486425,32.99
2021-06-28 10:23:30.867187500,-64.0,4.0,-12.0,67.6646875,13.6,4.444704125,32.99
2021-06-28 10:23:30.875000000,-64.0,4.0,-12.0,67.665,13.91,4.4445440000000005,32.99
2021-06-28 10:23:30.882812500,-64.0,4.0,-12.0,67.6653125,14.04,4.444383875,32.99
2021-06-28 10:23:30.890625000,-64.0,4.0,-12.0,67.665625,14.17,4.44422375,32.99
2021-06-28 10:23:30.898437500,-64.0,4.0,-12.0,67.6659375,14.135,4.444063625,32.99
2021-06-28 10:23:30.906250000,-64.0,4.0,-12.0,67.66625,14.1,4.4439035,32.99
2021-06-28 10:23:30.914062500,-64.0,4.0,-12.0,67.6665625,13.95,4.443743375,32.99
2021-06-28 10:23:30.921875000,-64.0,4.0,-12.0,67.666875,13.8,4.4435832500000005,32.99
2021-06-28 10:23:30.929687500,-64.0,4.0,-12.0,67.6671875,13.605,4.443423125,32.99
2021-06-28 10:23:30.937500000,-64.0,4.0,-12.0,67.6675,13.41,4.443263,32.99
2021-06-28 10:23:30.945312500,-64.0,4.0,-12.0,67.6678125,13.235,4.443102875,32.99
2021-06-28 10:23:30.953125000,-64.0,4.0,-12.0,67.668125,13.06,4.44294275,32.99
2021-06-28 10:23:30.960937500,-64.0,4.0,-12.0,67.6684375,12.940000000000001,4.442782625,32.99
2021-06-28 10:23:30.968750000,-64.0,4.0,-12.0,67.66875,12.82,4.442622500000001,32.99
2021-06-28 10:23:30.976562500,-63.75,4.0,-12.0,67.6690625,12.77,4.442462375,32.99
2021-06-28 10:23:30.984375000,-63.5,4.0,-12.0,67.669375,12.72,4.44230225,32.99
2021-06-28 10:23:30.992187500,-63.25,4.0,-12.0,67.6696875,12.725000000000001,4.442142125,32.99
2021-06-28 10:23:31.000000000,-63.0,4.0,-12.0,67.67,12.73,4.441982,32.99
2021-06-28 10:23:31.007812500,-63.25,4.0,-12.0,67.670078125,12.795,4.441861875000001,32.989375
2021-06-28 10:23:31.015625000,-63.5,4.0,-12.0,67.67015625,12.86,4.44174175,32.98875
2021-06-28 10:23:31.023437500,-63.75,4.0,-12.0,67.670234375,12.995000000000001,4.441621625000001,32.988125000000004
2021-06-28 10:23:31.031250000,-64.0,4.0,-12.0,67.67031250000001,13.13,4.4415015,32.987500000000004
2021-06-28 10:23:31.039062500,-64.0,4.0,-12.0,67.670390625,13.315000000000001,4.441381375000001,32.986875000000005
2021-06-28 10:23:31.046875000,-64.0,4.0,-12.0,67.67046875,13.5,4.44126125,32.98625
2021-06-28 10:23:31.054687500,-64.0,4.0,-12.0,67.670546875,13.715,4.441141125000001,32.985625
2021-06-28 10:23:31.062500000,-64.0,4.0,-12.0,67.670625,13.93,4.441021,32.985
2021-06-28 10:23:31.070312500,-64.0,4.0,-12.0,67.670703125,14.085,4.4409008750000005,32.984375
2021-06-28 10:23:31.078125000,-64.0,4.0,-12.0,67.67078125,14.24,4.44078075,32.98375
2021-06-28 10:23:31.085937500,-64.0,4.0,-12.0,67.670859375,14.245000000000001,4.4406606250000005,32.983125
2021-06-28 10:23:31.093750000,-64.0,4.0,-12.0,67.67093750000001,14.25,4.4405405,32.9825
2021-06-28 10:23:31.101562500,-64.0,4.0,-12.0,67.671015625,14.055,4.440420375,32.981875
2021-06-28 10:23:31.109375000,-64.0,4.0,-12.0,67.67109375,13.86,4.44030025,32.98125
2021-06-28 10:23:31.117187500,-64.0,4.0,-12.0,67.671171875,13.46,4.440180125,32.980625
2021-06-28 10:23:31.125000000,-64.0,4.0,-12.0,67.67125,13.06,4.440060000000001,32.980000000000004
2021-06-28 10:23:31.132812500,-64.0,4.0,-12.0,67.671328125,12.504999999999999,4.439939875,32.979375
2021-06-28 10:23:31.140625000,-64.0,4.0,-12.0,67.67140625,11.95,4.439819750000001,32.97875
2021-06-28 10:23:31.148437500,-64.0,4.0,-12.0,67.671484375,11.335,4.439699625,32.978125
2021-06-28 10:23:31.156250000,-64.0,4.0,-12.0,67.67156250000001,10.72,4.439579500000001,32.9775
2021-06-28 10:23:31.164062500,-64.0,4.0,-12.0,67.67164062500001,10.115,4.439459375,32.976875
2021-06-28 10:23:31.171875000,-64.0,4.0,-12.0,67.67171875,9.51,4.439339250000001,32.97625
2021-06-28 10:23:31.179687500,-64.0,4.0,-12.0,67.671796875,8.955,4.439219125,32.975625
2021-06-28 10:23:31.187500000,-64.0,4.0,-12.0,67.671875,8.4,4.439099000000001,32.975
2021-06-28 10:23:31.195312500,-63.75,4.0,-12.0,67.671953125,7.895,4.438978875,32.974375
2021-06-28 10:23:31.203125000,-63.5,4.0,-12.0,67.67203125,7.39,4.4388587500000005,32.97375
2021-06-28 10:23:31.210937500,-63.25,4.0,-12.0,67.672109375,6.904999999999999,4.438738625,32.973124999999996
2021-06-28 10:23:31.218750000,-63.0,4.0,-12.0,67.6721875,6.42,4.4386185000000005,32.9725
2021-06-28 10:23:31.226562500,-63.25,4.0,-12.0,67.67226562500001,5.915,4.438498375,32.971875
2021-06-28 10:23:31.234375000,-63.5,4.0,-12.0,67.67234375,5.41,4.43837825,32.97125
2021-06-28 10:23:31.242187500,-63.75,4.0,-12.0,67.672421875,4.859999999999999,4.438258125,32.970625
2021-06-28 10:23:31.250000000,-64.0,4.0,-12.0,67.6725,4.31,4.438138,32.97
2021-06-28 10:23:31.257812500,-63.75,4.0,-12.0,67.672578125,3.715,4.4379778750000005,32.97
2021-06-28 10:23:31.265625000,-63.5,4.0,-12.0,67.67265625,3.12,4.437817750000001,32.97
2021-06-28 10:23:31.273437500,-63.25,4.0,-12.0,67.672734375,2.495,4.437657625,32.97
2021-06-28 10:23:31.281250000,-63.0,4.0,-12.0,67.6728125,1.87,4.4374975,32.97
2021-06-28 10:23:31.289062500,-63.25,4.0,-12.0,67.67289062500001,1.235,4.437337375,32.97
2021-06-28 10:23:31.296875000,-63.5,4.0,-12.0,67.67296875000001,0.6,4.43717725,32.97
2021-06-28 10:23:31.304687500,-63.75,4.0,-12.0,67.673046875,-0.025000000000000022,4.437017125000001,32.97
2021-06-28 10:23:31.312500000,-64.0,4.0,-12.0,67.673125,-0.65,4.436857,32.97
2021-06-28 10:23:31.320312500,-64.0,4.0,-12.0,67.673203125,-1.2600000000000002,4.436696875,32.97
2021-06-28 10:23:31.328125000,-64.0,4.0,-12.0,67.67328125,-1.87,4.43653675,32.97
2021-06-28 10:23:31.335937500,-64.0,4.0,-12.0,67.673359375,-2.45,4.436376625,32.97
2021-06-28 10:23:31.343750000,-64.0,4.0,-12.0,67.6734375,-3.03,4.4362165000000005,32.97
2021-06-28 10:23:31.351562500,-64.0,4.0,-12.0,67.67351562500001,-3.5700000000000003,4.436056375000001,32.97
2021-06-28 10:23:31.359375000,-64.0,4.0,-12.0,67.67359375000001,-4.11,4.43589625,32.97
2021-06-28 10:23:31.367187500,-64.0,4.0,-12.0,67.673671875,-4.595000000000001,4.435736125,32.97
2021-06-28 10:23:31.375000000,-64.0,4.0,-12.0,67.67375,-5.08,4.435576,32.97
2021-06-28 10:23:31.382812500,-64.0,4.0,-12.0,67.673828125,-5.49,4.435415875,32.97
2021-06-28 10:23:31.390625000,-64.0,4.0,-12.0,67.67390625,-5.9,4.4352557500000005,32.97
2021-06-28 10:23:31.398437500,-64.0,4.0,-12.0,67.673984375,-6.25,4.435095625,32.97
2021-06-28 10:23:31.406250000,-64.0,4.0,-12.0,67.6740625,-6.6,4.4349355,32.97
2021-06-28 10:23:31.414062500,-63.75,4.0,-12.0,67.674140625,-6.904999999999999,4.434775375,32.97
2021-06-28 10:23:31.421875000,-63.5,4.0,-12.0,67.67421875000001,-7.21,4.43461525,32.97
2021-06-28 10:23:31.429687500,-63.25,4.0,-12.0,67.67429687500001,-7.535,4.434455125,32.97
2021-06-28 10:23:31.437500000,-63.0,4.0,-12.0,67.674375,-7.86,4.4342950000000005,32.97
2021-06-28 10:23:31.445312500,-63.25,4.0,-12.0,67.674453125,-8.255,4.434134875,32.97
2021-06-28 10:23:31.453125000,-63.5,4.0,-12.0,67.67453125,-8.65,4.43397475,32.97
2021-06-28 10:23:31.460937500,-63.75,4.0,-12.0,67.674609375,-9.155000000000001,4.433814625,32.97
2021-06-28 10:23:31.468750000,-64.0,4.0,-12.0,67.6746875,-9.66,4.4336545,32.97
2021-06-28 10:23:31.476562500,-64.0,4.0,-12.0,67.674765625,-10.275,4.433494375,32.97
2021-06-28 10:23:31.484375000,-64.0,4.0,-12.0,67.67484375000001,-10.89,4.43333425,32.97
2021-06-28 10:23:31.492187500,-64.0,4.0,-12.0,67.67492187500001,-11.59,4.433174125,32.97
2021-06-28 10:23:31.500000000,-64.0,4.0,-12.0,67.67500000000001,-12.29,4.433014,32.97
2021-06-28 10:23:31.507812500,-63.75,4.0,-12.0,67.675078125,-13.035,4.43273378125,32.97
2021-06-28 10:23:31.515625000,-63.5,4.0,-12.0,67.67515625,-13.78,4.4324535625,32.97
2021-06-28 10:23:31.523437500,-63.25,4.0,-12.0,67.675234375,-14.58,4.43217334375,32.97
2021-06-28 10:23:31.531250000,-63.0,4.0,-12.0,67.6753125,-15.38,4.431893125,32.97
2021-06-28 10:23:31.539062500,-63.25,4.0,-12.0,67.675390625,-16.26,4.43161290625,32.97
2021-06-28 10:23:31.546875000,-63.5,4.0,-12.0,67.67546875000001,-17.14,4.4313326875,32.97
2021-06-28 10:23:31.554687500,-63.75,4.0,-12.0,67.67554687500001,-18.105,4.43105246875,32.97
2021-06-28 10:23:31.562500000,-64.0,4.0,-12.0,67.67562500000001,-19.07,4.43077225,32.97
2021-06-28 10:23:31.570312500,-64.0,4.0,-12.0,67.675703125,-20.08,4.43049203125,32.97
2021-06-28 10:23:31.578125000,-64.0,4.0,-12.0,67.67578125,-21.09,4.4302118125,32.97
2021-06-28 10:23:31.585937500,-64.0,4.0,-12.0,67.675859375,-22.0,4.42993159375,32.97
2021-06-28 10:23:31.593750000,-64.0,4.0,-12.0,67.6759375,-22.91,4.429651375,32.97
2021-06-28 10:23:31.601562500,-64.0,4.0,-12.0,67.676015625,-23.515,4.42937115625,32.97
2021-06-28 10:23:31.609375000,-64.0,4.0,-12.0,67.67609375,-24.12,4.4290909375,32.97
2021-06-28 10:23:31.617187500,-64.0,4.0,-12.0,67.67617187500001,-24.215,4.42881071875,32.97
2021-06-28 10:23:31.625000000,-64.0,4.0,-12.0,67.67625000000001,-24.31,4.4285305,32.97
2021-06-28 10:23:31.632812500,-64.0,4.0,-12.0,67.67632812500001,-23.77,4.4282502812499995,32.97
2021-06-28 10:23:31.640625000,-64.0,4.0,-12.0,67.67640625,-23.23,4.4279700625,32.97
2021-06-28 10:23:31.648437500,-64.0,4.0,-12.0,67.676484375,-22.060000000000002,4.42768984375,32.97
2021-06-28 10:23:31.656250000,-64.0,4.0,-12.0,67.6765625,-20.89,4.427409625,32.97
2021-06-28 10:23:31.664062500,-64.0,4.0,-12.0,67.676640625,-19.200000000000003,4.42712940625,32.97
2021-06-28 10:23:31.671875000,-64.0,4.0,-12.0,67.67671875,-17.51,4.4268491875,32.97
2021-06-28 10:23:31.679687500,-64.0,4.0,-12.0,67.67679687500001,-15.505,4.42656896875,32.97
2021-06-28 10:23:31.687500000,-64.0,4.0,-12.0,67.67687500000001,-13.5,4.426288749999999,32.97
2021-06-28 10:23:31.695312500,-64.0,4.0,-12.0,67.67695312500001,-11.385,4.42600853125,32.97
2021-06-28 10:23:31.703125000,-64.0,4.0,-12.0,67.67703125,-9.27,4.4257283124999995,32.97
2021-06-28 10:23:31.710937500,-64.0,4.0,-12.0,67.677109375,-7.199999999999999,4.42544809375,32.97
2021-06-28 10:23:31.718750000,-64.0,4.0,-12.0,67.6771875,-5.13,4.425167875,32.97
2021-06-28 10:23:31.726562500,-63.75,4.0,-12.0,67.677265625,-3.19,4.42488765625,32.97
2021-06-28 10:23:31.734375000,-63.5,4.0,-12.0,67.67734375,-1.25,4.4246074375,32.97
2021-06-28 10:23:31.742187500,-63.25,4.0,-12.0,67.67742187500001,0.52,4.42432721875,32.97
2021-06-28 10:23:31.750000000,-63.0,4.0,-12.0,67.67750000000001,2.29,4.424047,32.97
2021-06-28 10:23:31.757812500,-63.25,4.0,-12.0,67.67757812500001,3.8850000000000002,4.42414746875,32.97
2021-06-28 10:23:31.765625000,-63.5,4.0,-12.0,67.67765625000001,5.48,4.4242479375,32.97
2021-06-28 10:23:31.773437500,-63.75,4.0,-12.0,67.677734375,6.88,4.42434840625,32.97
2021-06-28 10:23:31.781250000,-64.0,4.0,-12.0,67.6778125,8.28,4.4244488749999995,32.97
2021-06-28 10:23:31.789062500,-64.0,4.0,-12.0,67.677890625,9.46,4.42454934375,32.97
2021-06-28 10:23:31.796875000,-64.0,4.0,-12.0,67.67796875,10.64,4.4246498125,32.97
2021-06-28 10:23:31.804687500,-64.0,4.0,-12.0,67.678046875,11.575,4.42475028125,32.97
2021-06-28 10:23:31.812500000,-64.0,4.0,-12.0,67.67812500000001,12.51,4.42485075,32.97
2021-06-28 10:23:31.820312500,-64.0,4.0,-12.0,67.67820312500001,13.205,4.4249512187499995,32.97
2021-06-28 10:23:31.828125000,-64.0,4.0,-12.0,67.67828125000001,13.9,4.4250516875,32.97
2021-06-28 10:23:31.835937500,-64.0,4.0,-12.0,67.678359375,14.375,4.42515215625,32.97
2021-06-28 10:23:31.843750000,-64.0,4.0,-12.0,67.6784375,14.85,4.425252625,32.97
2021-06-28 10:23:31.851562500,-64.0,4.0,-12.0,67.678515625,15.145,4.42535309375,32.97
2021-06-28 10:23:31.859375000,-64.0,4.0,-12.0,67.67859375,15.44,4.4254535624999995,32.97
2021-06-28 10:23:31.867187500,-64.0,4.0,-12.0,67.678671875,15.59,4.42555403125,32.97
2021-06-28 10:23:31.875000000,-64.0,4.0,-12.0,67.67875000000001,15.74,4.4256545,32.97
2021-06-28 10:23:31.882812500,-64.0,4.0,-12.0,67.67882812500001,15.77,4.42575496875,32.97
2021-06-28 10:23:31.890625000,-64.0,4.0,-12.0,67.67890625000001,15.8,4.4258554375,32.97
2021-06-28 10:23:31.898437500,-64.0,4.0,-12.0,67.67898437500001,15.73,4.42595590625,32.97
2021-06-28 10:23:31.906250000,-64.0,4.0,-12.0,67.6790625,15.66,4.426056375,32.97
2021-06-28 10:23:31.914062500,-64.0,4.0,-12.0,67.679140625,15.5,4.426156843749999,32.97
2021-06-28 10:23:31.921875000,-64.0,4.0,-12.0,67.67921875,15.34,4.4262573125,32.97
2021-06-28 10:23:31.929687500,-64.0,4.0,-12.0,67.679296875,15.129999999999999,4.42635778125,32.97
2021-06-28 10:23:31.937500000,-64.0,4.0,-12.0,67.67937500000001,14.92,4.42645825,32.97
2021-06-28 10:23:31.945312500,-64.0,4.0,-12.0,67.67945312500001,14.68,4.42655871875,32.97
2021-06-28 10:23:31.953125000,-64.0,4.0,-12.0,67.67953125000001,14.44,4.426659187499999,32.97
2021-06-28 10:23:31.960937500,-64.0,4.0,-12.0,67.67960937500001,14.225,4.42675965625,32.97
2021-06-28 10:23:31.968750000,-64.0,4.0,-12.0,67.6796875,14.01,4.426860125,32.97
2021-06-28 10:23:31.976562500,-64.0,4.0,-12.0,67.679765625,13.84,4.42696059375,32.97
2021-06-28 10:23:31.984375000,-64.0,4.0,-12.0,67.67984375,13.67,4.4270610625,32.97
2021-06-28 10:23:31.992187500,-64.0,4.0,-12.0,67.679921875,13.555,4.4271615312499994,32.97
2021-06-28 10:23:32.000000000,-64.0,4.0,-12.0,67.68,13.44,4.427262,32.97
2021-06-28 10:23:32.007812500,-64.0,4.0,-12.0,67.680390625,13.375,4.42686165625,32.97
2021-06-28 10:23:32.015625000,-64.0,4.0,-12.0,67.68078125000001,13.31,4.4264613125,32.97
2021-06-28 10:23:32.023437500,-64.0,4.0,-12.0,67.681171875,13.280000000000001,4.42606096875,32.97
2021-06-28 10:23:32.031250000,-64.0,4.0,-12.0,67.68156250000001,13.25,4.425660625,32.97
2021-06-28 10:23:32.039062500,-64.0,4.0,-12.0,67.681953125,13.23,4.42526028125,32.97
2021-06-28 10:23:32.046875000,-64.0,4.0,-12.0,67.68234375,13.21,4.4248599375,32.97
2021-06-28 10:23:32.054687500,-64.0,4.0,-12.0,67.68273437500001,13.170000000000002,4.42445959375,32.97
2021-06-28 10:23:32.062500000,-64.0,4.0,-12.0,67.683125,13.13,4.42405925,32.97
2021-06-28 10:23:32.070312500,-64.0,4.0,-12.0,67.68351562500001,13.025,4.42365890625,32.97
2021-06-28 10:23:32.078125000,-64.0,4.0,-12.0,67.68390625,12.92,4.4232585625,32.97
2021-06-28 10:23:32.085937500,-64.0,4.0,-12.0,67.684296875,12.68,4.42285821875,32.97
2021-06-28 10:23:32.093750000,-64.0,4.0,-12.0,67.68468750000001,12.44,4.422457875,32.97
2021-06-28 10:23:32.101562500,-64.0,4.0,-12.0,67.685078125,12.045,4.42205753125,32.97
2021-06-28 10:23:32.109375000,-64.0,4.0,-12.0,67.68546875000001,11.65,4.4216571875,32.97
2021-06-28 10:23:32.117187500,-64.0,4.0,-12.0,67.685859375,11.09,4.42125684375,32.97
2021-06-28 10:23:32.125000000,-64.0,4.0,-12.0,67.68625,10.53,4.420856499999999,32.97
2021-06-28 10:23:32.132812500,-64.0,4.0,-12.0,67.68664062500001,9.875,4.420456156249999,32.97
2021-06-28 10:23:32.140625000,-64.0,4.0,-12.0,67.68703125,9.22,4.420055812499999,32.97
2021-06-28 10:23:32.148437500,-64.0,4.0,-12.0,67.68742187500001,8.545,4.419655468749999,32.97
2021-06-28 10:23:32.156250000,-64.0,4.0,-12.0,67.6878125,7.87,4.419255124999999,32.97
2021-06-28 10:23:32.164062500,-64.0,4.0,-12.0,67.688203125,7.255,4.418854781249999,32.97
2021-06-28 10:23:32.171875000,-64.0,4.0,-12.0,67.68859375000001,6.64,4.418454437499999,32.97
2021-06-28 10:23:32.179687500,-64.0,4.0,-12.0,67.688984375,6.1,4.4180540937499995,32.97
2021-06-28 10:23:32.187500000,-64.0,4.0,-12.0,67.68937500000001,5.56,4.4176537499999995,32.97
2021-06-28 10:23:32.195312500,-63.75,4.0,-12.0,67.689765625,5.07,4.4172534062499995,32.97
2021-06-28 10:23:32.203125000,-63.5,4.0,-12.0,67.69015625,4.58,4.4168530624999995,32.97
2021-06-28 10:23:32.210937500,-63.25,4.0,-12.0,67.69054687500001,4.08,4.41645271875,32.97
2021-06-28 10:23:32.218750000,-63.0,4.0,-12.0,67.6909375,3.58,4.416052375,32.97
2021-06-28 10:23:32.226562500,-63.25,4.0,-12.0,67.69132812500001,3.01,4.41565203125,32.97
2021-06-28 10:23:32.234375000,-63.5,4.0,-12.0,67.69171875,2.44,4.4152516875,32.97
2021-06-28 10:23:32.242187500,-63.75,4.0,-12.0,67.692109375,1.78,4.41485134375,32.97
2021-06-28 10:23:32.250000000,-64.0,4.0,-12.0,67.69250000000001,1.12,4.414451,32.97
2021-06-28 10:23:32.257812500,-64.0,4.0,-12.0,67.692890625,0.385,4.414290875,32.97
2021-06-28 10:23:32.265625000,-64.0,4.0,-12.0,67.69328125000001,-0.35,4.41413075,32.97
2021-06-28 10:23:32.273437500,-64.0,4.0,-12.0,67.693671875,-1.12,4.413970625,32.97
2021-06-28 10:23:32.281250000,-64.0,4.0,-12.0,67.6940625,-1.89,4.413810499999999,32.97
2021-06-28 10:23:32.289062500,-63.75,4.0,-12.0,67.69445312500001,-2.64,4.413650375,32.97
2021-06-28 10:23:32.296875000,-63.5,4.0,-12.0,67.69484375,-3.39,4.41349025,32.97
2021-06-28 10:23:32.304687500,-63.25,4.0,-12.0,67.69523437500001,-4.075,4.413330125,32.97
2021-06-28 10:23:32.312500000,-63.0,4.0,-12.0,67.695625,-4.76,4.41317,32.97
2021-06-28 10:23:32.320312500,-63.25,4.0,-12.0,67.696015625,-5.335,4.413009875,32.97
2021-06-28 10:23:32.328125000,-63.5,4.0,-12.0,67.69640625000001,-5.91,4.4128497499999995,32.97
2021-06-28 10:23:32.335937500,-63.75,4.0,-12.0,67.696796875,-6.37,4.412689625,32.97
2021-06-28 10:23:32.343750000,-64.0,4.0,-12.0,67.69718750000001,-6.83,4.4125295,32.97
2021-06-28 10:23:32.351562500,-64.0,4.0,-12.0,67.697578125,-7.18,4.412369375,32.97
2021-06-28 10:23:32.359375000,-64.0,4.0,-12.0,67.69796875,-7.53,4.41220925,32.97
2021-06-28 10:23:32.367187500,-64.0,4.0,-12.0,67.69835937500001,-7.8100000000000005,4.412049125,32.97
2021-06-28 10:23:32.375000000,-64.0,4.0,-12.0,67.69875,-8.09,4.411889,32.97
2021-06-28 10:23:32.382812500,-64.0,4.0,-12.0,67.69914062500001,-8.355,4.411728875,32.97
2021-06-28 10:23:32.390625000,-64.0,4.0,-12.0,67.69953125,-8.62,4.41156875,32.97
2021-06-28 10:23:32.398437500,-64.0,4.0,-12.0,67.699921875,-8.91,4.411408625,32.97
2021-06-28 10:23:32.406250000,-64.0,4.0,-12.0,67.70031250000001,-9.2,4.4112485,32.97
2021-06-28 10:23:32.414062500,-64.0,4.0,-12.0,67.700703125,-9.52,4.411088375,32.97
2021-06-28 10:23:32.421875000,-64.0,4.0,-12.0,67.70109375000001,-9.84,4.41092825,32.97
2021-06-28 10:23:32.429687500,-64.0,4.0,-12.0,67.701484375,-10.19,4.410768125,32.97
2021-06-28 10:23:32.437500000,-64.0,4.0,-12.0,67.701875,-10.54,4.410608,32.97
2021-06-28 10:23:32.445312500,-64.0,4.0,-12.0,67.70226562500001,-10.925,4.410447875,32.97
2021-06-28 10:23:32.453125000,-64.0,4.0,-12.0,67.70265625,-11.31,4.41028775,32.97
2021-06-28 10:23:32.460937500,-64.0,4.0,-12.0,67.70304687500001,-11.754999999999999,4.410127625,32.97
2021-06-28 10:23:32.468750000,-64.0,4.0,-12.0,67.7034375,-12.2,4.4099675000000005,32.97
2021-06-28 10:23:32.476562500,-63.75,4.0,-12.0,67.703828125,-12.77,4.409807375,32.97
2021-06-28 10:23:32.484375000,-63.5,4.0,-12.0,67.70421875000001,-13.34,4.40964725,32.97
2021-06-28 10:23:32.492187500,-63.25,4.0,-12.0,67.704609375,-14.08,4.409487125,32.97
2021-06-28 10:23:32.500000000,-63.0,4.0,-12.0,67.70500000000001,-14.82,4.409327,32.97
2021-06-28 10:23:32.507812500,-63.25,4.0,-12.0,67.705390625,-15.74,4.409006718750001,32.97
2021-06-28 10:23:32.515625000,-63.5,4.0,-12.0,67.70578125,-16.66,4.4086864375,32.97
2021-06-28 10:23:32.523437500,-63.75,4.0,-12.0,67.70617187500001,-17.685000000000002,4.4083661562500005,32.97
2021-06-28 10:23:32.531250000,-64.0,4.0,-12.0,67.7065625,-18.71,4.408045875,32.97
2021-06-28 10:23:32.539062500,-64.0,4.0,-12.0,67.706953125,-19.745,4.40772559375,32.97
2021-06-28 10:23:32.546875000,-64.0,4.0,-12.0,67.70734375,-20.78,4.4074053125,32.97
2021-06-28 10:23:32.554687500,-64.0,4.0,-12.0,67.707734375,-21.700000000000003,4.40708503125,32.97
2021-06-28 10:23:32.562500000,-64.0,4.0,-12.0,67.70812500000001,-22.62,4.406764750000001,32.97
2021-06-28 10:23:32.570312500,-64.0,4.0,-12.0,67.708515625,-23.32,4.40644446875,32.97
2021-06-28 10:23:32.578125000,-64.0,4.0,-12.0,67.70890625,-24.02,4.406124187500001,32.97
2021-06-28 10:23:32.585937500,-64.0,4.0,-12.0,67.709296875,-24.42,4.40580390625,32.97
2021-06-28 10:23:32.593750000,-64.0,4.0,-12.0,67.7096875,-24.82,4.4054836250000005,32.97
2021-06-28 10:23:32.601562500,-64.0,4.0,-12.0,67.71007812500001,-24.86,4.40516334375,32.97
2021-06-28 10:23:32.609375000,-64.0,4.0,-12.0,67.71046875,-24.9,4.4048430625,32.97
2021-06-28 10:23:32.617187500,-64.0,4.0,-12.0,67.710859375,-24.525,4.40452278125,32.97
2021-06-28 10:23:32.625000000,-64.0,4.0,-12.0,67.71125,-24.15,4.4042025,32.97
2021-06-28 10:23:32.632812500,-64.0,4.0,-12.0,67.711640625,-23.325,4.403882218750001,32.97
2021-06-28 10:23:32.640625000,-64.0,4.0,-12.0,67.71203125000001,-22.5,4.4035619375,32.97
2021-06-28 10:23:32.648437500,-64.0,4.0,-12.0,67.712421875,-21.215,4.4032416562500005,32.97
2021-06-28 10:23:32.656250000,-64.0,4.0,-12.0,67.7128125,-19.93,4.402921375,32.97
2021-06-28 10:23:32.664062500,-64.0,4.0,-12.0,67.713203125,-18.23,4.40260109375,32.97
2021-06-28 10:23:32.671875000,-64.0,4.0,-12.0,67.71359375,-16.53,4.4022808125,32.97
2021-06-28 10:23:32.679687500,-64.0,4.0,-12.0,67.71398437500001,-14.535,4.40196053125,32.97
2021-06-28 10:23:32.687500000,-64.0,4.0,-12.0,67.714375,-12.54,4.40164025,32.97
2021-06-28 10:23:32.695312500,-63.75,4.0,-12.0,67.714765625,-10.41,4.40131996875,32.97
2021-06-28 10:23:32.703125000,-63.5,4.0,-12.0,67.71515625,-8.28,4.400999687500001,32.97
2021-06-28 10:23:32.710937500,-63.25,4.0,-12.0,67.715546875,-6.185,4.40067940625,32.97
2021-06-28 10:23:32.718750000,-63.0,4.0,-12.0,67.71593750000001,-4.09,4.4003591250000005,32.97
2021-06-28 10:23:32.726562500,-63.25,4.0,-12.0,67.716328125,-2.165,4.40003884375,32.97
2021-06-28 10:23:32.734375000,-63.5,4.0,-12.0,67.71671875,-0.24,4.3997185625,32.97
2021-06-28 10:23:32.742187500,-63.75,4.0,-12.0,67.717109375,1.445,4.39939828125,32.97
2021-06-28 10:23:32.750000000,-64.0,4.0,-12.0,67.7175,3.13,4.399078,32.97
2021-06-28 10:23:32.757812500,-64.0,4.0,-12.0,67.71789062500001,4.55,4.39927815625,32.97
2021-06-28 10:23:32.765625000,-64.0,4.0,-12.0,67.71828125,5.97,4.3994783125,32.97
2021-06-28 10:23:32.773437500,-64.0,4.0,-12.0,67.718671875,7.17,4.39967846875,32.97
2021-06-28 10:23:32.781250000,-64.0,4.0,-12.0,67.7190625,8.37,4.399878625,32.97
2021-06-28 10:23:32.789062500,-64.0,4.0,-12.0,67.719453125,9.379999999999999,4.40007878125,32.97
2021-06-28 10:23:32.796875000,-64.0,4.0,-12.0,67.71984375000001,10.39,4.4002789375,32.97
2021-06-28 10:23:32.804687500,-64.0,4.0,-12.0,67.720234375,11.24,4.4004790937500005,32.97
2021-06-28 10:23:32.812500000,-64.0,4.0,-12.0,67.720625,12.09,4.4006792500000005,32.97
2021-06-28 10:23:32.820312500,-64.0,4.0,-12.0,67.721015625,12.75,4.4008794062500005,32.97
2021-06-28 10:23:32.828125000,-64.0,4.0,-12.0,67.72140625,13.41,4.4010795625000005,32.97
2021-06-28 10:23:32.835937500,-64.0,4.0,-12.0,67.72179687500001,13.82,4.401279718750001,32.97
2021-06-28 10:23:32.843750000,-64.0,4.0,-12.0,67.7221875,14.23,4.401479875000001,32.97
2021-06-28 10:23:32.851562500,-64.0,4.0,-12.0,67.722578125,14.36,4.401680031250001,32.97
2021-06-28 10:23:32.859375000,-64.0,4.0,-12.0,67.72296875,14.49,4.401880187500001,32.97
2021-06-28 10:23:32.867187500,-64.0,4.0,-12.0,67.723359375,14.344999999999999,4.402080343750001,32.97
2021-06-28 10:23:32.875000000,-64.0,4.0,-12.0,67.72375000000001,14.2,4.4022805,32.97
2021-06-28 10:23:32.882812500,-64.0,4.0,-12.25,67.724140625,13.879999999999999,4.40248065625,32.97
2021-06-28 10:23:32.890625000,-64.0,4.0,-12.5,67.72453125,13.56,4.4026808125,32.97
2021-06-28 10:23:32.898437500,-64.0,4.0,-12.75,67.724921875,13.18,4.40288096875,32.97
2021-06-28 10:23:32.906250000,-64.0,4.0,-13.0,67.7253125,12.8,4.403081125,32.97
2021-06-28 10:23:32.914062500,-63.75,4.0,-12.75,67.72570312500001,12.485,4.40328128125,32.97
2021-06-28 10:23:32.921875000,-63.5,4.0,-12.5,67.72609375,12.17,4.4034814375,32.97
2021-06-28 10:23:32.929687500,-63.25,4.0,-12.25,67.726484375,11.969999999999999,4.40368159375,32.97
2021-06-28 10:23:32.937500000,-63.0,4.0,-12.0,67.726875,11.77,4.40388175,32.97
2021-06-28 10:23:32.945312500,-63.25,4.0,-12.0,67.727265625,11.68,4.40408190625,32.97
2021-06-28 10:23:32.953125000,-63.5,4.0,-12.0,67.72765625000001,11.59,4.4042820625,32.97
2021-06-28 10:23:32.960937500,-63.75,4.0,-12.0,67.728046875,11.545,4.40448221875,32.97
2021-06-28 10:23:32.968750000,-64.0,4.0,-12.0,67.7284375,11.5,4.404682375,32.97
2021-06-28 10:23:32.976562500,-64.0,4.0,-12.0,67.728828125,11.46,4.40488253125,32.97
2021-06-28 10:23:32.984375000,-64.0,4.0,-12.0,67.72921875,11.42,4.4050826875,32.97
2021-06-28 10:23:32.992187500,-64.0,4.0,-12.0,67.72960937500001,11.365,4.40528284375,32.97
2021-06-28 10:23:33.000000000,-64.0,4.0,-12.0,67.73,11.31,4.405483,32.97
2021-06-28 10:23:33.007812500,-64.0,4.0,-12.0,67.730390625,11.260000000000002,4.405322875,32.97
2021-06-28 10:23:33.015625000,-64.0,4.0,-12.0,67.73078125,11.21,4.405162750000001,32.97
2021-06-28 10:23:33.023437500,-64.0,4.0,-12.0,67.731171875,11.18,4.405002625,32.97
2021-06-28 10:23:33.031250000,-64.0,4.0,-12.0,67.73156250000001,11.15,4.4048425,32.97
2021-06-28 10:23:33.039062500,-63.75,4.0,-12.0,67.731953125,11.129999999999999,4.404682375,32.97
2021-06-28 10:23:33.046875000,-63.5,4.0,-12.0,67.73234375,11.11,4.40452225,32.97
2021-06-28 10:23:33.054687500,-63.25,4.0,-12.0,67.732734375,11.065,4.4043621250000005,32.97
2021-06-28 10:23:33.062500000,-63.0,4.0,-12.0,67.733125,11.02,4.404202,32.97
2021-06-28 10:23:33.070312500,-63.25,4.0,-12.0,67.73351562500001,10.905,4.404041875,32.97
2021-06-28 10:23:33.078125000,-63.5,4.0,-12.0,67.73390625,10.79,4.40388175,32.97
2021-06-28 10:23:33.085937500,-63.75,4.0,-12.0,67.734296875,10.575,4.403721625,32.97
2021-06-28 10:23:33.093750000,-64.0,4.0,-12.0,67.7346875,10.36,4.4035615,32.97
2021-06-28 10:23:33.101562500,-64.0,4.0,-12.0,67.735078125,10.03,4.4034013750000005,32.97
2021-06-28 10:23:33.109375000,-64.0,4.0,-12.0,67.73546875000001,9.7,4.40324125,32.97
2021-06-28 10:23:33.117187500,-64.0,4.0,-12.0,67.735859375,9.285,4.403081125,32.97
2021-06-28 10:23:33.125000000,-64.0,4.0,-12.0,67.73625,8.87,4.402921,32.97
2021-06-28 10:23:33.132812500,-63.75,4.0,-12.0,67.736640625,8.41,4.402760875,32.97
2021-06-28 10:23:33.140625000,-63.5,4.0,-12.0,67.73703125,7.95,4.40260075,32.97
2021-06-28 10:23:33.148437500,-63.25,4.0,-12.0,67.73742187500001,7.470000000000001,4.402440625,32.97
2021-06-28 10:23:33.156250000,-63.0,4.0,-12.0,67.7378125,6.99,4.4022805,32.97
2021-06-28 10:23:33.164062500,-63.25,4.0,-12.0,67.738203125,6.5,4.402120375,32.97
2021-06-28 10:23:33.171875000,-63.5,4.0,-12.0,67.73859375,6.01,4.40196025,32.97
2021-06-28 10:23:33.179687500,-63.75,4.0,-12.0,67.738984375,5.495,4.401800125,32.97
2021-06-28 10:23:33.187500000,-64.0,4.0,-12.0,67.73937500000001,4.98,4.40164,32.97
2021-06-28 10:23:33.195312500,-64.0,4.0,-12.0,67.739765625,4.390000000000001,4.401479875,32.97
2021-06-28 10:23:33.203125000,-64.0,4.0,-12.0,67.74015625,3.8,4.40131975,32.97
2021-06-28 10:23:33.210937500,-64.0,4.0,-12.0,67.740546875,3.115,4.401159625,32.97
2021-06-28 10:23:33.218750000,-64.0,4.0,-12.0,67.7409375,2.43,4.4009995,32.97
2021-06-28 10:23:33.226562500,-64.0,4.0,-12.0,67.74132812500001,1.655,4.400839375,32.97
2021-06-28 10:23:33.234375000,-64.0,4.0,-12.0,67.74171875,0.88,4.40067925,32.97
2021-06-28 10:23:33.242187500,-64.0,4.0,-12.0,67.742109375,0.06500000000000006,4.400519125,32.97
2021-06-28 10:23:33.250000000,-64.0,4.0,-12.0,67.7425,-0.75,4.400359,32.97
2021-06-28 10:23:33.257812500,-64.0,4.0,-12.0,67.742890625,-1.51,4.40063925,32.97
2021-06-28 10:23:33.265625000,-64.0,4.0,-12.0,67.74328125000001,-2.27,4.4009195,32.97
2021-06-28 10:23:33.273437500,-64.0,4.0,-12.0,67.743671875,-2.885,4.40119975,32.97
2021-06-28 10:23:33.281250000,-64.0,4.0,-12.0,67.7440625,-3.5,4.40148,32.97
2021-06-28 10:23:33.289062500,-64.0,4.0,-12.25,67.744453125,-3.925,4.40176025,32.97
2021-06-28 10:23:33.296875000,-64.0,4.0,-12.5,67.74484375,-4.35,4.4020405,32.97
2021-06-28 10:23:33.304687500,-64.0,4.0,-12.75,67.74523437500001,-4.605,4.40232075,32.97
2021-06-28 10:23:33.312500000,-64.0,4.0,-13.0,67.745625,-4.86,4.402601,32.97
2021-06-28 10:23:33.320312500,-64.0,4.0,-12.75,67.746015625,-5.02,4.40288125,32.97
2021-06-28 10:23:33.328125000,-64.0,4.0,-12.5,67.74640625,-5.18,4.4031615,32.97
2021-06-28 10:23:33.335937500,-64.0,4.0,-12.25,67.746796875,-5.33,4.40344175,32.97
2021-06-28 10:23:33.343750000,-64.0,4.0,-12.0,67.74718750000001,-5.48,4.403722,32.97
2021-06-28 10:23:33.351562500,-63.75,4.0,-11.75,67.747578125,-5.68,4.4040022500000005,32.97
2021-06-28 10:23:33.359375000,-63.5,4.0,-11.5,67.74796875,-5.88,4.4042825,32.97
2021-06-28 10:23:33.367187500,-63.25,4.0,-11.25,67.748359375,-6.13,4.40456275,32.97
2021-06-28 10:23:33.375000000,-63.0,4.0,-11.0,67.74875,-6.38,4.404843,32.97
2021-06-28 10:23:33.382812500,-63.25,4.0,-11.25,67.74914062500001,-6.665,4.40512325,32.97
2021-06-28 10:23:33.390625000,-63.5,4.0,-11.5,67.74953125,-6.95,4.4054035,32.97
2021-06-28 10:23:33.398437500,-63.75,4.0,-11.75,67.749921875,-7.265000000000001,4.40568375,32.97
2021-06-28 10:23:33.406250000,-64.0,4.0,-12.0,67.7503125,-7.58,4.405964,32.97
2021-06-28 10:23:33.414062500,-64.0,4.0,-12.0,67.750703125,-7.93,4.40624425,32.97
2021-06-28 10:23:33.421875000,-64.0,4.0,-12.0,67.75109375000001,-8.28,4.4065245,32.97
2021-06-28 10:23:33.429687500,-64.0,4.0,-12.0,67.751484375,-8.715,4.40680475,32.97
2021-06-28 10:23:33.437500000,-64.0,4.0,-12.0,67.751875,-9.15,4.407085,32.97
2021-06-28 10:23:33.445312500,-64.0,4.0,-12.0,67.752265625,-9.68,4.40736525,32.97
2021-06-28 10:23:33.453125000,-64.0,4.0,-12.0,67.75265625,-10.21,4.4076455,32.97
2021-06-28 10:23:33.460937500,-64.0,4.0,-12.0,67.75304687500001,-10.825,4.40792575,32.97
2021-06-28 10:23:33.468750000,-64.0,4.0,-12.0,67.7534375,-11.44,4.408206,32.97
2021-06-28 10:23:33.476562500,-63.75,4.0,-12.0,67.753828125,-12.08,4.40848625,32.97
2021-06-28 10:23:33.484375000,-63.5,4.0,-12.0,67.75421875,-12.72,4.4087665000000005,32.97
2021-06-28 10:23:33.492187500,-63.25,4.0,-12.0,67.754609375,-13.31,4.40904675,32.97
2021-06-28 10:23:33.500000000,-63.0,4.0,-12.0,67.755,-13.9,4.409327,32.97
2021-06-28 10:23:33.507812500,-63.25,4.0,-12.0,67.755390625,-14.39,4.408806562500001,32.97
2021-06-28 10:23:33.515625000,-63.5,4.0,-12.0,67.75578125,-14.88,4.408286125,32.97
2021-06-28 10:23:33.523437500,-63.75,4.0,-12.0,67.756171875,-15.27,4.4077656875,32.97
2021-06-28 10:23:33.531250000,-64.0,4.0,-12.0,67.7565625,-15.66,4.40724525,32.97
2021-06-28 10:23:33.539062500,-64.0,4.0,-12.0,67.756953125,-16.009999999999998,4.4067248125,32.97
2021-06-28 10:23:33.546875000,-64.0,4.0,-12.0,67.75734375,-16.36,4.406204375000001,32.97
2021-06-28 10:23:33.554687500,-64.0,4.0,-12.0,67.757734375,-16.744999999999997,4.4056839375,32.97
2021-06-28 10:23:33.562500000,-64.0,4.0,-12.0,67.758125,-17.13,4.4051635000000005,32.97
2021-06-28 10:23:33.570312500,-63.75,4.0,-12.0,67.758515625,-17.65,4.4046430625,32.97
2021-06-28 10:23:33.578125000,-63.5,4.0,-12.0,67.75890625,-18.17,4.404122625,32.97
2021-06-28 10:23:33.585937500,-63.25,4.0,-12.0,67.759296875,-18.865000000000002,4.403602187500001,32.97
2021-06-28 10:23:33.593750000,-63.0,4.0,-12.0,67.7596875,-19.56,4.40308175,32.97
2021-06-28 10:23:33.601562500,-63.25,4.0,-12.0,67.760078125,-20.445,4.4025613125000005,32.97
2021-06-28 10:23:33.609375000,-63.5,4.0,-12.0,67.76046875,-21.33,4.402040875,32.97
2021-06-28 10:23:33.617187500,-63.75,4.0,-12.0,67.760859375,-22.31,4.4015204375,32.97
2021-06-28 10:23:33.625000000,-64.0,4.0,-12.0,67.76125,-23.29,4.401,32.97
2021-06-28 10:23:33.632812500,-64.0,4.0,-12.0,67.761640625,-24.225,4.4004795625,32.97
2021-06-28 10:23:33.640625000,-64.0,4.0,-12.0,67.76203125,-25.16,4.3999591250000005,32.97
2021-06-28 10:23:33.648437500,-64.0,4.0,-12.0,67.762421875,-25.845,4.3994386875,32.97
2021-06-28 10:23:33.656250000,-64.0,4.0,-12.0,67.7628125,-26.53,4.39891825,32.97
2021-06-28 10:23:33.664062500,-64.0,4.0,-12.0,67.763203125,-26.765,4.3983978125,32.97
2021-06-28 10:23:33.671875000,-64.0,4.0,-12.0,67.76359375,-27.0,4.397877375,32.97
2021-06-28 10:23:33.679687500,-64.0,4.0,-12.0,67.763984375,-26.65,4.397356937500001,32.97
2021-06-28 10:23:33.687500000,-64.0,4.0,-12.0,67.764375,-26.3,4.3968365,32.97
2021-06-28 10:23:33.695312500,-64.0,4.0,-12.0,67.764765625,-25.345,4.3963160625,32.97
2021-06-28 10:23:33.703125000,-64.0,4.0,-12.0,67.76515625,-24.39,4.395795625,32.97
2021-06-28 10:23:33.710937500,-64.0,4.0,-12.0,67.765546875,-22.92,4.3952751875,32.97
2021-06-28 10:23:33.718750000,-64.0,4.0,-12.0,67.7659375,-21.45,4.394754750000001,32.97
2021-06-28 10:23:33.726562500,-64.0,4.0,-12.0,67.766328125,-19.67,4.3942343125,32.97
2021-06-28 10:23:33.734375000,-64.0,4.0,-12.0,67.76671875,-17.89,4.393713875,32.97
2021-06-28 10:23:33.742187500,-64.0,4.0,-12.0,67.767109375,-16.0,4.3931934375,32.97
2021-06-28 10:23:33.750000000,-64.0,4.0,-12.0,67.7675,-14.11,4.392673,32.97
2021-06-28 10:23:33.757812500,-64.0,4.0,-12.0,67.767890625,-12.27,4.392673,32.97
2021-06-28 10:23:33.765625000,-64.0,4.0,-12.0,67.76828125,-10.43,4.392673,32.97
2021-06-28 10:23:33.773437500,-64.0,4.0,-12.0,67.768671875,-8.7,4.392673,32.97
2021-06-28 10:23:33.781250000,-64.0,4.0,-12.0,67.7690625,-6.97,4.392673,32.97
2021-06-28 10:23:33.789062500,-64.0,4.0,-12.0,67.769453125,-5.33,4.392673,32.97
2021-06-28 10:23:33.796875000,-64.0,4.0,-12.0,67.76984375,-3.69,4.392673,32.97
2021-06-28 10:23:33.804687500,-64.0,4.0,-12.0,67.770234375,-2.0949999999999998,4.392673,32.97
2021-06-28 10:23:33.812500000,-64.0,4.0,-12.0,67.770625,-0.5,4.392673,32.97
2021-06-28 10:23:33.820312500,-63.75,4.0,-12.0,67.771015625,1.06,4.392673,32.97
2021-06-28 10:23:33.828125000,-63.5,4.0,-12.0,67.77140625,2.62,4.392673,32.97
2021-06-28 10:23:33.835937500,-63.25,4.0,-12.0,67.771796875,4.115,4.392673,32.97
2021-06-28 10:23:33.843750000,-63.0,4.0,-12.0,67.7721875,5.61,4.392673,32.97
2021-06-28 10:23:33.851562500,-63.25,4.0,-12.0,67.772578125,6.945,4.392673,32.97
2021-06-28 10:23:33.859375000,-63.5,4.0,-12.0,67.77296875,8.28,4.392673,32.97
2021-06-28 10:23:33.867187500,-63.75,4.0,-12.0,67.773359375,9.379999999999999,4.392673,32.97
2021-06-28 10:23:33.875000000,-64.0,4.0,-12.0,67.77375,10.48,4.392673,32.97
2021-06-28 10:23:33.882812500,-64.0,4.0,-12.0,67.774140625,11.31,4.392673,32.97
2021-06-28 10:23:33.890625000,-64.0,4.0,-12.0,67.77453125,12.14,4.392673,32.97
2021-06-28 10:23:33.898437500,-64.0,4.0,-12.0,67.774921875,12.705,4.392673,32.97
2021-06-28 10:23:33.906250000,-64.0,4.0,-12.0,67.7753125,13.27,4.392673,32.97
2021-06-28 10:23:33.914062500,-63.75,4.0,-12.0,67.775703125,13.629999999999999,4.392673,32.97
2021-06-28 10:23:33.921875000,-63.5,4.0,-12.0,67.77609375,13.99,4.392673,32.97
2021-06-28 10:23:33.929687500,-63.25,4.0,-12.0,67.776484375,14.190000000000001,4.392673,32.97
2021-06-28 10:23:33.937500000,-63.0,4.0,-12.0,67.776875,14.39,4.392673,32.97
2021-06-28 10:23:33.945312500,-63.0,4.0,-11.75,67.777265625,14.465,4.392673,32.97
2021-06-28 10:23:33.953125000,-63.0,4.0,-11.5,67.77765625,14.54,4.392673,32.97
2021-06-28 10:23:33.960937500,-63.0,4.0,-11.25,67.778046875,14.5,4.392673,32.97
2021-06-28 10:23:33.968750000,-63.0,4.0,-11.0,67.7784375,14.46,4.392673,32.97
2021-06-28 10:23:33.976562500,-63.25,4.0,-11.25,67.778828125,14.32,4.392673,32.97
2021-06-28 10:23:33.984375000,-63.5,4.0,-11.5,67.77921875,14.18,4.392673,32.97
2021-06-28 10:23:33.992187500,-63.75,4.0,-11.75,67.779609375,13.975,4.392673,32.97
2021-06-28 10:23:34.000000000,-64.0,4.0,-12.0,67.78,13.77,4.392673,32.97
2021-06-28 10:23:34.007812500,-64.0,4.0,-12.0,67.780390625,13.555,4.392352718750001,32.97
2021-06-28 10:23:34.015625000,-64.0,4.0,-12.0,67.78078125,13.34,4.3920324375,32.97
2021-06-28 10:23:34.023437500,-64.0,4.0,-12.0,67.781171875,13.175,4.3917121562500006,32.97
2021-06-28 10:23:34.031250000,-64.0,4.0,-12.0,67.7815625,13.01,4.391391875,32.97
2021-06-28 10:23:34.039062500,-63.75,4.0,-11.75,67.781953125,12.93,4.3910715937500004,32.97
2021-06-28 10:23:34.046875000,-63.5,4.0,-11.5,67.78234375,12.85,4.3907513125,32.97
2021-06-28 10:23:34.054687500,-63.25,4.0,-11.25,67.782734375,12.879999999999999,4.39043103125,32.97
2021-06-28 10:23:34.062500000,-63.0,4.0,-11.0,67.783125,12.91,4.39011075,32.97
2021-06-28 10:23:34.070312500,-63.25,4.0,-11.25,67.783515625,13.035,4.38979046875,32.97
2021-06-28 10:23:34.078125000,-63.5,4.0,-11.5,67.78390625,13.16,4.389470187500001,32.97
2021-06-28 10:23:34.085937500,-63.75,4.0,-11.75,67.784296875,13.365,4.38914990625,32.97
2021-06-28 10:23:34.093750000,-64.0,4.0,-12.0,67.7846875,13.57,4.3888296250000005,32.97
2021-06-28 10:23:34.101562500,-64.0,4.0,-12.0,67.785078125,13.785,4.38850934375,32.97
2021-06-28 10:23:34.109375000,-64.0,4.0,-12.0,67.78546875,14.0,4.3881890625,32.97
2021-06-28 10:23:34.117187500,-64.0,4.0,-12.0,67.785859375,14.175,4.38786878125,32.97
2021-06-28 10:23:34.125000000,-64.0,4.0,-12.0,67.78625,14.35,4.3875485,32.97
2021-06-28 10:23:34.132812500,-64.0,4.0,-12.0,67.786640625,14.399999999999999,4.387228218750001,32.97
2021-06-28 10:23:34.140625000,-64.0,4.0,-12.0,67.78703125,14.45,4.3869079375,32.97
2021-06-28 10:23:34.148437500,-64.0,4.0,-12.0,67.787421875,14.32,4.386587656250001,32.97
2021-06-28 10:23:34.156250000,-64.0,4.0,-12.0,67.7878125,14.19,4.386267375,32.97
2021-06-28 10:23:34.164062500,-64.0,4.0,-12.0,67.788203125,13.870000000000001,4.3859470937500005,32.97
2021-06-28 10:23:34.171875000,-64.0,4.0,-12.0,67.78859375,13.55,4.3856268125,32.97
2021-06-28 10:23:34.179687500,-64.0,4.0,-12.0,67.788984375,13.075,4.38530653125,32.97
2021-06-28 10:23:34.187500000,-64.0,4.0,-12.0,67.789375,12.6,4.384986250000001,32.97
2021-06-28 10:23:34.195312500,-64.0,4.0,-12.0,67.789765625,12.055,4.38466596875,32.97
2021-06-28 10:23:34.203125000,-64.0,4.0,-12.0,67.79015625,11.51,4.384345687500001,32.97
2021-06-28 10:23:34.210937500,-64.0,4.0,-12.0,67.790546875,10.98,4.38402540625,32.97
2021-06-28 10:23:34.218750000,-64.0,4.0,-12.0,67.7909375,10.45,4.3837051250000005,32.97
2021-06-28 10:23:34.226562500,-64.0,4.0,-12.0,67.791328125,10.0,4.38338484375,32.97
2021-06-28 10:23:34.234375000,-64.0,4.0,-12.0,67.79171875,9.55,4.3830645625,32.97
2021-06-28 10:23:34.242187500,-64.0,4.0,-12.0,67.792109375,9.18,4.38274428125,32.97
2021-06-28 10:23:34.250000000,-64.0,4.0,-12.0,67.7925,8.81,4.382424,32.97
2021-06-28 10:23:34.257812500,-64.0,4.0,-12.0,67.792890625,8.475000000000001,4.38202365625,32.97
2021-06-28 10:23:34.265625000,-64.0,4.0,-12.0,67.79328125,8.14,4.3816233125,32.97
2021-06-28 10:23:34.273437500,-64.0,4.0,-12.0,67.793671875,7.765000000000001,4.38122296875,32.97
2021-06-28 10:23:34.281250000,-64.0,4.0,-12.0,67.7940625,7.39,4.380822625,32.97
2021-06-28 10:23:34.289062500,-64.0,4.0,-12.0,67.794453125,6.915,4.38042228125,32.97
2021-06-28 10:23:34.296875000,-64.0,4.0,-12.0,67.79484375,6.44,4.3800219375000005,32.97
2021-06-28 10:23:34.304687500,-64.0,4.0,-12.0,67.795234375,5.855,4.3796215937500005,32.97
2021-06-28 10:23:34.312500000,-64.0,4.0,-12.0,67.795625,5.27,4.3792212500000005,32.97
2021-06-28 10:23:34.320312500,-64.0,4.0,-12.0,67.796015625,4.609999999999999,4.3788209062500005,32.97
2021-06-28 10:23:34.328125000,-64.0,4.0,-12.0,67.79640625,3.95,4.378420562500001,32.97
2021-06-28 10:23:34.335937500,-64.0,4.0,-12.0,67.796796875,3.29,4.378020218750001,32.97
2021-06-28 10:23:34.343750000,-64.0,4.0,-12.0,67.7971875,2.63,4.377619875000001,32.97
2021-06-28 10:23:34.351562500,-64.0,4.0,-12.0,67.797578125,2.045,4.377219531250001,32.97
2021-06-28 10:23:34.359375000,-64.0,4.0,-12.0,67.79796875,1.46,4.376819187500001,32.97
2021-06-28 10:23:34.367187500,-64.0,4.0,-12.0,67.798359375,0.97,4.376418843750001,32.97
2021-06-28 10:23:34.375000000,-64.0,4.0,-12.0,67.79875,0.48,4.376018500000001,32.97
2021-06-28 10:23:34.382812500,-64.0,4.0,-12.0,67.799140625,0.06999999999999995,4.37561815625,32.97
2021-06-28 10:23:34.390625000,-64.0,4.0,-12.0,67.79953125,-0.34,4.3752178125,32.97
2021-06-28 10:23:34.398437500,-64.0,4.0,-12.0,67.799921875,-0.7250000000000001,4.37481746875,32.97
2021-06-28 10:23:34.406250000,-64.0,4.0,-12.0,67.8003125,-1.11,4.374417125,32.97
2021-06-28 10:23:34.414062500,-64.0,4.0,-12.0,67.800703125,-1.53,4.37401678125,32.97
2021-06-28 10:23:34.421875000,-64.0,4.0,-12.0,67.80109375,-1.95,4.3736164375,32.97
2021-06-28 10:23:34.429687500,-64.0,4.0,-12.0,67.801484375,-2.415,4.37321609375,32.97
2021-06-28 10:23:34.437500000,-64.0,4.0,-12.0,67.801875,-2.88,4.37281575,32.97
2021-06-28 10:23:34.445312500,-64.0,4.0,-12.0,67.802265625,-3.38,4.37241540625,32.97
2021-06-28 10:23:34.453125000,-64.0,4.0,-12.0,67.80265625,-3.88,4.3720150625,32.97
2021-06-28 10:23:34.460937500,-64.0,4.0,-12.0,67.803046875,-4.37,4.37161471875,32.97
2021-06-28 10:23:34.468750000,-64.0,4.0,-12.0,67.8034375,-4.86,4.371214375,32.97
2021-06-28 10:23:34.476562500,-64.0,4.0,-12.0,67.803828125,-5.355,4.37081403125,32.97
2021-06-28 10:23:34.484375000,-64.0,4.0,-12.0,67.80421875,-5.85,4.3704136875,32.97
2021-06-28 10:23:34.492187500,-64.0,4.0,-12.0,67.804609375,-6.39,4.37001334375,32.97
2021-06-28 10:23:34.500000000,-64.0,4.0,-12.0,67.805,-6.93,4.369613,32.97
2021-06-28 10:23:34.507812500,-63.75,4.0,-12.0,67.805390625,-7.635,4.36893240625,32.97
2021-06-28 10:23:34.515625000,-63.5,4.0,-12.0,67.80578125,-8.34,4.3682518125000005,32.97
2021-06-28 10:23:34.523437500,-63.25,4.0,-12.0,67.806171875,-9.315,4.36757121875,32.97
2021-06-28 10:23:34.531250000,-63.0,4.0,-12.0,67.8065625,-10.29,4.366890625,32.97
2021-06-28 10:23:34.539062500,-63.25,4.0,-12.0,67.80695312499999,-11.585,4.3662100312500005,32.97
2021-06-28 10:23:34.546875000,-63.5,4.0,-12.0,67.80734375,-12.88,4.3655294375,32.97
2021-06-28 10:23:34.554687500,-63.75,4.0,-12.0,67.807734375,-14.445,4.36484884375,32.97
2021-06-28 10:23:34.562500000,-64.0,4.0,-12.0,67.808125,-16.01,4.3641682500000005,32.97
2021-06-28 10:23:34.570312500,-64.0,4.0,-12.0,67.808515625,-17.68,4.36348765625,32.97
2021-06-28 10:23:34.578125000,-64.0,4.0,-12.0,67.80890624999999,-19.35,4.3628070625,32.97
2021-06-28 10:23:34.585937500,-64.0,4.0,-12.0,67.809296875,-20.875,4.36212646875,32.97
2021-06-28 10:23:34.593750000,-64.0,4.0,-12.0,67.8096875,-22.4,4.361445875,32.97
2021-06-28 10:23:34.601562500,-64.0,4.0,-12.0,67.810078125,-23.525,4.36076528125,32.97
2021-06-28 10:23:34.609375000,-64.0,4.0,-12.0,67.81046875,-24.65,4.3600846875,32.97
2021-06-28 10:23:34.617187500,-64.0,4.0,-12.0,67.81085937499999,-25.17,4.35940409375,32.97
2021-06-28 10:23:34.625000000,-64.0,4.0,-12.0,67.81125,-25.69,4.3587235,32.97
2021-06-28 10:23:34.632812500,-64.0,4.0,-12.0,67.811640625,-25.495,4.35804290625,32.97
2021-06-28 10:23:34.640625000,-64.0,4.0,-12.0,67.81203125,-25.3,4.3573623125,32.97
2021-06-28 10:23:34.648437500,-64.0,4.0,-12.0,67.812421875,-24.39,4.35668171875,32.97
2021-06-28 10:23:34.656250000,-64.0,4.0,-12.0,67.81281249999999,-23.48,4.356001125,32.97
2021-06-28 10:23:34.664062500,-64.0,4.0,-12.0,67.813203125,-21.96,4.35532053125,32.97
2021-06-28 10:23:34.671875000,-64.0,4.0,-12.0,67.81359375,-20.44,4.3546399375,32.97
2021-06-28 10:23:34.679687500,-64.0,4.0,-12.0,67.813984375,-18.48,4.35395934375,32.97
2021-06-28 10:23:34.687500000,-64.0,4.0,-12.0,67.814375,-16.52,4.353278749999999,32.97
2021-06-28 10:23:34.695312500,-64.0,4.0,-12.0,67.81476562499999,-14.344999999999999,4.35259815625,32.97
2021-06-28 10:23:34.703125000,-64.0,4.0,-12.0,67.81515625,-12.17,4.3519175625,32.97
2021-06-28 10:23:34.710937500,-64.0,4.0,-12.0,67.815546875,-9.975,4.351236968749999,32.97
2021-06-28 10:23:34.718750000,-64.0,4.0,-12.0,67.8159375,-7.78,4.350556375,32.97
2021-06-28 10:23:34.726562500,-64.0,4.0,-12.0,67.816328125,-5.720000000000001,4.34987578125,32.97
2021-06-28 10:23:34.734375000,-64.0,4.0,-12.0,67.81671874999999,-3.66,4.3491951874999994,32.97
2021-06-28 10:23:34.742187500,-64.0,4.0,-12.0,67.817109375,-1.81,4.34851459375,32.97
2021-06-28 10:23:34.750000000,-64.0,4.0,-12.0,67.8175,0.04,4.347834,32.97
2021-06-28 10:23:34.757812500,-64.0,4.0,-12.0,67.817890625,1.68,4.34771390625,32.97
2021-06-28 10:23:34.765625000,-64.0,4.0,-12.0,67.81828125,3.32,4.3475938124999995,32.97
2021-06-28 10:23:34.773437500,-64.0,4.0,-12.0,67.81867187499999,4.79,4.34747371875,32.97
2021-06-28 10:23:34.781250000,-64.0,4.0,-12.0,67.8190625,6.26,4.347353625,32.97
2021-06-28 10:23:34.789062500,-64.0,4.0,-12.0,67.819453125,7.57,4.34723353125,32.97
2021-06-28 10:23:34.796875000,-64.0,4.0,-12.0,67.81984375,8.88,4.3471134375,32.97
2021-06-28 10:23:34.804687500,-64.0,4.0,-12.0,67.820234375,10.015,4.3469933437499995,32.97
2021-06-28 10:23:34.812500000,-64.0,4.0,-12.0,67.82062499999999,11.15,4.34687325,32.97
2021-06-28 10:23:34.820312500,-64.0,4.0,-12.0,67.821015625,12.055,4.34675315625,32.97
2021-06-28 10:23:34.828125000,-64.0,4.0,-12.0,67.82140625,12.96,4.3466330625,32.97
2021-06-28 10:23:34.835937500,-64.0,4.0,-12.0,67.821796875,13.57,4.34651296875,32.97
2021-06-28 10:23:34.843750000,-64.0,4.0,-12.0,67.8221875,14.18,4.346392874999999,32.97
2021-06-28 10:23:34.851562500,-64.0,4.0,-12.0,67.82257812499999,14.5,4.34627278125,32.97
2021-06-28 10:23:34.859375000,-64.0,4.0,-12.0,67.82296875,14.82,4.3461526875,32.97
2021-06-28 10:23:34.867187500,-64.0,4.0,-12.0,67.823359375,14.905000000000001,4.3460325937499995,32.97
2021-06-28 10:23:34.875000000,-64.0,4.0,-12.0,67.82375,14.99,4.3459125,32.97
2021-06-28 10:23:34.882812500,-64.0,4.0,-12.0,67.824140625,14.95,4.34579240625,32.97
2021-06-28 10:23:34.890625000,-64.0,4.0,-12.0,67.82453124999999,14.91,4.3456723125,32.97
2021-06-28 10:23:34.898437500,-64.0,4.0,-12.0,67.824921875,14.844999999999999,4.34555221875,32.97
2021-06-28 10:23:34.906250000,-64.0,4.0,-12.0,67.8253125,14.78,4.345432125,32.97
2021-06-28 10:23:34.914062500,-64.0,4.0,-11.75,67.825703125,14.73,4.34531203125,32.97
2021-06-28 10:23:34.921875000,-64.0,4.0,-11.5,67.82609375,14.68,4.3451919375,32.97
2021-06-28 10:23:34.929687500,-64.0,4.0,-11.25,67.82648437499999,14.629999999999999,4.3450718437499996,32.97
2021-06-28 10:23:34.937500000,-64.0,4.0,-11.0,67.826875,14.58,4.34495175,32.97
2021-06-28 10:23:34.945312500,-64.0,4.0,-11.25,67.827265625,14.504999999999999,4.34483165625,32.97
2021-06-28 10:23:34.953125000,-64.0,4.0,-11.5,67.82765625,14.43,4.3447115625,32.97
2021-06-28 10:23:34.960937500,-64.0,4.0,-11.75,67.828046875,14.32,4.34459146875,32.97
2021-06-28 10:23:34.968750000,-64.0,4.0,-12.0,67.82843749999999,14.21,4.3444713749999995,32.97
2021-06-28 10:23:34.976562500,-64.0,4.0,-12.0,67.828828125,14.115,4.34435128125,32.97
2021-06-28 10:23:34.984375000,-64.0,4.0,-12.0,67.82921875,14.02,4.3442311875,32.97
2021-06-28 10:23:34.992187500,-64.0,4.0,-12.0,67.829609375,13.99,4.34411109375,32.97
2021-06-28 10:23:35.000000000,-64.0,4.0,-12.0,67.83,13.96,4.343991,32.97
2021-06-28 10:23:35.007812500,-64.0,4.0,-12.0,67.83039062499999,14.035,4.34383084375,32.97
2021-06-28 10:23:35.015625000,-64.0,4.0,-12.0,67.83078125,14.11,4.3436706874999995,32.97
2021-06-28 10:23:35.023437500,-64.0,4.0,-12.0,67.831171875,14.265,4.34351053125,32.97
2021-06-28 10:23:35.031250000,-64.0,4.0,-12.0,67.8315625,14.42,4.343350375,32.97
2021-06-28 10:23:35.039062500,-64.0,4.0,-12.0,67.831953125,14.559999999999999,4.34319021875,32.97
2021-06-28 10:23:35.046875000,-64.0,4.0,-12.0,67.83234374999999,14.7,4.3430300625000005,32.97
2021-06-28 10:23:35.054687500,-64.0,4.0,-12.0,67.832734375,14.7,4.34286990625,32.97
2021-06-28 10:23:35.062500000,-64.0,4.0,-12.0,67.833125,14.7,4.34270975,32.97
2021-06-28 10:23:35.070312500,-64.0,4.0,-12.0,67.833515625,14.465,4.34254959375,32.97
2021-06-28 10:23:35.078125000,-64.0,4.0,-12.0,67.83390625,14.23,4.3423894375,32.97
2021-06-28 10:23:35.085937500,-64.0,4.0,-12.0,67.83429687499999,13.745000000000001,4.34222928125,32.97
2021-06-28 10:23:35.093750000,-64.0,4.0,-12.0,67.8346875,13.26,4.342069125,32.97
2021-06-28 10:23:35.101562500,-64.0,4.0,-12.0,67.835078125,12.61,4.34190896875,32.97
2021-06-28 10:23:35.109375000,-64.0,4.0,-12.0,67.83546875,11.96,4.3417488125000006,32.97
2021-06-28 10:23:35.117187500,-64.0,4.0,-12.0,67.835859375,11.275,4.34158865625,32.97
2021-06-28 10:23:35.125000000,-64.0,4.0,-12.0,67.83624999999999,10.59,4.3414285,32.97
2021-06-28 10:23:35.132812500,-64.0,4.0,-12.0,67.836640625,10.004999999999999,4.34126834375,32.97
2021-06-28 10:23:35.140625000,-64.0,4.0,-12.0,67.83703125,9.42,4.3411081875,32.97
2021-06-28 10:23:35.148437500,-64.0,4.0,-12.0,67.837421875,8.995000000000001,4.34094803125,32.97
2021-06-28 10:23:35.156250000,-64.0,4.0,-12.0,67.8378125,8.57,4.340787875,32.97
2021-06-28 10:23:35.164062500,-64.0,4.0,-12.0,67.83820312499999,8.280000000000001,4.34062771875,32.97
2021-06-28 10:23:35.171875000,-64.0,4.0,-12.0,67.83859375,7.99,4.340467562500001,32.97
2021-06-28 10:23:35.179687500,-64.0,4.0,-12.0,67.838984375,7.74,4.34030740625,32.97
2021-06-28 10:23:35.187500000,-64.0,4.0,-12.0,67.839375,7.49,4.34014725,32.97
2021-06-28 10:23:35.195312500,-64.0,4.0,-12.0,67.839765625,7.165,4.3399870937500005,32.97
2021-06-28 10:23:35.203125000,-64.0,4.0,-12.0,67.84015624999999,6.84,4.3398269375,32.97
2021-06-28 10:23:35.210937500,-64.0,4.0,-12.0,67.840546875,6.365,4.33966678125,32.97
2021-06-28 10:23:35.218750000,-64.0,4.0,-12.0,67.8409375,5.89,4.339506625,32.97
2021-06-28 10:23:35.226562500,-64.0,4.0,-12.0,67.841328125,5.26,4.3393464687500005,32.97
2021-06-28 10:23:35.234375000,-64.0,4.0,-12.0,67.84171875,4.63,4.339186312500001,32.97
2021-06-28 10:23:35.242187500,-64.0,4.0,-12.0,67.84210937499999,3.88,4.33902615625,32.97
2021-06-28 10:23:35.250000000,-64.0,4.0,-12.0,67.8425,3.13,4.338866,32.97
2021-06-28 10:23:35.257812500,-64.0,4.0,-12.0,67.842890625,2.3449999999999998,4.3391062187500005,32.97
2021-06-28 10:23:35.265625000,-64.0,4.0,-12.0,67.84328125,1.56,4.339346437500001,32.97
2021-06-28 10:23:35.273437500,-64.0,4.0,-12.0,67.843671875,0.79,4.339586656250001,32.97
2021-06-28 10:23:35.281250000,-64.0,4.0,-12.0,67.84406249999999,0.02,4.339826875,32.97
2021-06-28 10:23:35.289062500,-64.0,4.0,-12.0,67.844453125,-0.69,4.34006709375,32.97
2021-06-28 10:23:35.296875000,-64.0,4.0,-12.0,67.84484375,-1.4,4.3403073125,32.97
2021-06-28 10:23:35.304687500,-64.0,4.0,-12.0,67.845234375,-2.06,4.34054753125,32.97
2021-06-28 10:23:35.312500000,-64.0,4.0,-12.0,67.845625,-2.72,4.3407877500000005,32.97
2021-06-28 10:23:35.320312500,-64.0,4.0,-12.0,67.84601562499999,-3.34,4.341027968750001,32.97
2021-06-28 10:23:35.328125000,-64.0,4.0,-12.0,67.84640625,-3.96,4.3412681875,32.97
2021-06-28 10:23:35.335937500,-64.0,4.0,-12.0,67.846796875,-4.545,4.34150840625,32.97
2021-06-28 10:23:35.343750000,-64.0,4.0,-12.0,67.8471875,-5.13,4.341748625,32.97
2021-06-28 10:23:35.351562500,-63.75,4.0,-11.75,67.847578125,-5.6850000000000005,4.34198884375,32.97
2021-06-28 10:23:35.359375000,-63.5,4.0,-11.5,67.84796874999999,-6.24,4.3422290625,32.97
2021-06-28 10:23:35.367187500,-63.25,4.0,-11.25,67.848359375,-6.755,4.3424692812500005,32.97
2021-06-28 10:23:35.375000000,-63.0,4.0,-11.0,67.84875,-7.27,4.3427095,32.97
2021-06-28 10:23:35.382812500,-63.25,4.0,-11.25,67.849140625,-7.7299999999999995,4.34294971875,32.97
2021-06-28 10:23:35.390625000,-63.5,4.0,-11.5,67.84953125,-8.19,4.3431899375,32.97
2021-06-28 10:23:35.398437500,-63.75,4.0,-11.75,67.84992187499999,-8.594999999999999,4.34343015625,32.97
2021-06-28 10:23:35.406250000,-64.0,4.0,-12.0,67.8503125,-9.0,4.343670375,32.97
2021-06-28 10:23:35.414062500,-64.0,4.0,-12.0,67.850703125,-9.375,4.34391059375,32.97
2021-06-28 10:23:35.421875000,-64.0,4.0,-12.0,67.85109375,-9.75,4.344150812500001,32.97
2021-06-28 10:23:35.429687500,-64.0,4.0,-12.0,67.851484375,-10.14,4.34439103125,32.97
2021-06-28 10:23:35.437500000,-64.0,4.0,-12.0,67.85187499999999,-10.53,4.34463125,32.97
2021-06-28 10:23:35.445312500,-64.0,4.0,-12.0,67.852265625,-11.004999999999999,4.34487146875,32.97
2021-06-28 10:23:35.453125000,-64.0,4.0,-12.0,67.85265625,-11.48,4.3451116875,32.97
2021-06-28 10:23:35.460937500,-64.0,4.0,-12.0,67.853046875,-12.095,4.34535190625,32.97
2021-06-28 10:23:35.468750000,-64.0,4.0,-12.0,67.8534375,-12.71,4.3455921250000005,32.97
2021-06-28 10:23:35.476562500,-64.0,4.0,-12.0,67.85382812499999,-13.515,4.34583234375,32.97
2021-06-28 10:23:35.484375000,-64.0,4.0,-12.0,67.85421875,-14.32,4.3460725625,32.97
2021-06-28 10:23:35.492187500,-64.0,4.0,-12.0,67.854609375,-15.32,4.34631278125,32.97
2021-06-28 10:23:35.500000000,-64.0,4.0,-12.0,67.85499999999999,-16.32,4.346553,32.97
2021-06-28 10:23:35.507812500,-64.0,4.0,-11.75,67.855390625,-17.495,4.34811434375,32.97
2021-06-28 10:23:35.515625000,-64.0,4.0,-11.5,67.85578124999999,-18.67,4.3496756875,32.97
2021-06-28 10:23:35.523437500,-64.0,4.0,-11.25,67.856171875,-19.96,4.35123703125,32.97
2021-06-28 10:23:35.531250000,-64.0,4.0,-11.0,67.8565625,-21.25,4.352798375,32.97
2021-06-28 10:23:35.539062500,-63.75,4.0,-11.0,67.85695312499999,-22.545,4.3543597187500005,32.97
2021-06-28 10:23:35.546875000,-63.5,4.0,-11.0,67.85734375,-23.84,4.3559210625,32.97
2021-06-28 10:23:35.554687500,-63.25,4.0,-11.0,67.85773437499999,-24.975,4.35748240625,32.97
2021-06-28 10:23:35.562500000,-63.0,4.0,-11.0,67.858125,-26.11,4.35904375,32.97
2021-06-28 10:23:35.570312500,-63.25,4.0,-11.25,67.858515625,-26.89,4.36060509375,32.97
2021-06-28 10:23:35.578125000,-63.5,4.0,-11.5,67.85890624999999,-27.67,4.3621664375,32.97
2021-06-28 10:23:35.585937500,-63.75,4.0,-11.75,67.859296875,-27.885,4.36372778125,32.97
2021-06-28 10:23:35.593750000,-64.0,4.0,-12.0,67.85968749999999,-28.1,4.365289125,32.97
2021-06-28 10:23:35.601562500,-64.0,4.0,-12.0,67.860078125,-27.595,4.36685046875,32.97
2021-06-28 10:23:35.609375000,-64.0,4.0,-12.0,67.86046875,-27.09,4.3684118125,32.97
2021-06-28 10:23:35.617187500,-64.0,4.0,-12.0,67.86085937499999,-25.845,4.36997315625,32.97
2021-06-28 10:23:35.625000000,-64.0,4.0,-12.0,67.86125,-24.6,4.3715345,32.97
2021-06-28 10:23:35.632812500,-63.75,4.0,-12.0,67.86164062499999,-22.735,4.37309584375,32.97
2021-06-28 10:23:35.640625000,-63.5,4.0,-12.0,67.86203125,-20.87,4.3746571875,32.97
2021-06-28 10:23:35.648437500,-63.25,4.0,-12.0,67.862421875,-18.6,4.37621853125,32.97
2021-06-28 10:23:35.656250000,-63.0,4.0,-12.0,67.86281249999999,-16.33,4.377779875,32.97
2021-06-28 10:23:35.664062500,-63.25,4.0,-11.75,67.863203125,-13.905,4.3793412187500005,32.97
2021-06-28 10:23:35.671875000,-63.5,4.0,-11.5,67.86359374999999,-11.48,4.3809025625,32.97
2021-06-28 10:23:35.679687500,-63.75,4.0,-11.25,67.863984375,-9.095,4.38246390625,32.97
2021-06-28 10:23:35.687500000,-64.0,4.0,-11.0,67.864375,-6.71,4.3840252500000005,32.97
2021-06-28 10:23:35.695312500,-64.0,4.0,-11.25,67.86476562499999,-4.465,4.38558659375,32.97
2021-06-28 10:23:35.703125000,-64.0,4.0,-11.5,67.86515625,-2.22,4.3871479375,32.97
2021-06-28 10:23:35.710937500,-64.0,4.0,-11.75,67.86554687499999,-0.14500000000000002,4.38870928125,32.97
2021-06-28 10:23:35.718750000,-64.0,4.0,-12.0,67.8659375,1.93,4.390270625,32.97
2021-06-28 10:23:35.726562500,-64.0,4.0,-12.0,67.866328125,3.825,4.39183196875,32.97
2021-06-28 10:23:35.734375000,-64.0,4.0,-12.0,67.86671874999999,5.72,4.3933933125,32.97
2021-06-28 10:23:35.742187500,-64.0,4.0,-12.0,67.867109375,7.414999999999999,4.39495465625,32.97
2021-06-28 10:23:35.750000000,-64.0,4.0,-12.0,67.86749999999999,9.11,4.396516,32.97
2021-06-28 10:23:35.757812500,-64.0,4.0,-12.0,67.867890625,10.55,4.39919828125,32.97
2021-06-28 10:23:35.765625000,-64.0,4.0,-12.0,67.86828125,11.99,4.4018805625,32.97
2021-06-28 10:23:35.773437500,-64.0,4.0,-12.0,67.86867187499999,13.115,4.40456284375,32.97
2021-06-28 10:23:35.781250000,-64.0,4.0,-12.0,67.8690625,14.24,4.407245125,32.97
2021-06-28 10:23:35.789062500,-64.0,4.0,-12.25,67.86945312499999,15.02,4.4099274062500005,32.97
2021-06-28 10:23:35.796875000,-64.0,4.0,-12.5,67.86984375,15.8,4.4126096875,32.97
2021-06-28 10:23:35.804687500,-64.0,4.0,-12.75,67.870234375,16.240000000000002,4.41529196875,32.97
2021-06-28 10:23:35.812500000,-64.0,4.0,-13.0,67.87062499999999,16.68,4.41797425,32.97
2021-06-28 10:23:35.820312500,-64.0,4.0,-13.0,67.871015625,16.805,4.42065653125,32.97
2021-06-28 10:23:35.828125000,-64.0,4.0,-13.0,67.87140624999999,16.93,4.4233388125,32.97
2021-06-28 10:23:35.835937500,-64.0,4.0,-13.0,67.871796875,16.8,4.42602109375,32.97
2021-06-28 10:23:35.843750000,-64.0,4.0,-13.0,67.8721875,16.67,4.428703375,32.97
2021-06-28 10:23:35.851562500,-63.75,4.0,-12.75,67.87257812499999,16.35,4.43138565625,32.97
2021-06-28 10:23:35.859375000,-63.5,4.0,-12.5,67.87296875,16.03,4.4340679375,32.97
2021-06-28 10:23:35.867187500,-63.25,4.0,-12.25,67.87335937499999,15.625,4.43675021875,32.97
2021-06-28 10:23:35.875000000,-63.0,4.0,-12.0,67.87375,15.22,4.439432500000001,32.97
2021-06-28 10:23:35.882812500,-63.0,4.0,-12.0,67.874140625,14.850000000000001,4.44211478125,32.97
2021-06-28 10:23:35.890625000,-63.0,4.0,-12.0,67.87453124999999,14.48,4.4447970625,32.97
2021-06-28 10:23:35.898437500,-63.0,4.0,-12.0,67.874921875,14.245000000000001,4.44747934375,32.97
2021-06-28 10:23:35.906250000,-63.0,4.0,-12.0,67.87531249999999,14.01,4.450161625,32.97
2021-06-28 10:23:35.914062500,-63.25,4.0,-12.25,67.875703125,13.995000000000001,4.45284390625,32.97
2021-06-28 10:23:35.921875000,-63.5,4.0,-12.5,67.87609375,13.98,4.4555261875,32.97
2021-06-28 10:23:35.929687500,-63.75,4.0,-12.75,67.87648437499999,14.165,4.4582084687500005,32.97
2021-06-28 10:23:35.937500000,-64.0,4.0,-13.0,67.876875,14.35,4.46089075,32.97
2021-06-28 10:23:35.945312500,-64.0,4.0,-13.0,67.87726562499999,14.67,4.46357303125,32.97
2021-06-28 10:23:35.953125000,-64.0,4.0,-13.0,67.87765625,14.99,4.4662553125,32.97
2021-06-28 10:23:35.960937500,-64.0,4.0,-13.0,67.878046875,15.325,4.46893759375,32.97
2021-06-28 10:23:35.968750000,-64.0,4.0,-13.0,67.87843749999999,15.66,4.471619875,32.97
2021-06-28 10:23:35.976562500,-63.75,4.0,-12.75,67.878828125,15.9,4.47430215625,32.97
2021-06-28 10:23:35.984375000,-63.5,4.0,-12.5,67.87921874999999,16.14,4.4769844375000005,32.97
2021-06-28 10:23:35.992187500,-63.25,4.0,-12.25,67.879609375,16.225,4.47966671875,32.97
2021-06-28 10:23:36.000000000,-63.0,4.0,-12.0,67.88,16.31,4.482349,32.97
2021-06-28 10:23:36.007812500,-63.0,4.0,-12.25,67.87953125,16.240000000000002,4.48479109375,32.97
2021-06-28 10:23:36.015625000,-63.0,4.0,-12.5,67.87906249999999,16.17,4.4872331875,32.97
2021-06-28 10:23:36.023437500,-63.0,4.0,-12.75,67.87859375,15.96,4.48967528125,32.97
2021-06-28 10:23:36.031250000,-63.0,4.0,-13.0,67.878125,15.75,4.492117375,32.97
2021-06-28 10:23:36.039062500,-63.25,4.0,-13.0,67.87765625,15.43,4.49455946875,32.97
2021-06-28 10:23:36.046875000,-63.5,4.0,-13.0,67.87718749999999,15.11,4.4970015625,32.97
2021-06-28 10:23:36.054687500,-63.75,4.0,-13.0,67.87671875,14.69,4.49944365625,32.97
2021-06-28 10:23:36.062500000,-64.0,4.0,-13.0,67.87625,14.27,4.50188575,32.97
2021-06-28 10:23:36.070312500,-64.0,4.0,-13.0,67.87578124999999,13.765,4.50432784375,32.97
2021-06-28 10:23:36.078125000,-64.0,4.0,-13.0,67.87531249999999,13.26,4.5067699375,32.97
2021-06-28 10:23:36.085937500,-64.0,4.0,-13.0,67.87484375,12.67,4.50921203125,32.97
2021-06-28 10:23:36.093750000,-64.0,4.0,-13.0,67.874375,12.08,4.511654125,32.97
2021-06-28 10:23:36.101562500,-64.0,4.0,-13.0,67.87390624999999,11.425,4.51409621875,32.97
2021-06-28 10:23:36.109375000,-64.0,4.0,-13.0,67.8734375,10.77,4.5165383125,32.97
2021-06-28 10:23:36.117187500,-64.0,4.0,-13.0,67.87296875,10.09,4.51898040625,32.97
2021-06-28 10:23:36.125000000,-64.0,4.0,-13.0,67.8725,9.41,4.5214225,32.97
2021-06-28 10:23:36.132812500,-63.75,4.0,-12.75,67.87203124999999,8.719999999999999,4.52386459375,32.97
2021-06-28 10:23:36.140625000,-63.5,4.0,-12.5,67.8715625,8.03,4.5263066875,32.97
2021-06-28 10:23:36.148437500,-63.25,4.0,-12.25,67.87109375,7.359999999999999,4.52874878125,32.97
2021-06-28 10:23:36.156250000,-63.0,4.0,-12.0,67.87062499999999,6.69,4.531190875,32.97
2021-06-28 10:23:36.164062500,-63.25,4.0,-12.0,67.87015625,6.050000000000001,4.53363296875,32.97
2021-06-28 10:23:36.171875000,-63.5,4.0,-12.0,67.8696875,5.41,4.5360750625,32.97
2021-06-28 10:23:36.179687500,-63.75,4.0,-12.0,67.86921875,4.795,4.53851715625,32.97
2021-06-28 10:23:36.187500000,-64.0,4.0,-12.0,67.86874999999999,4.18,4.54095925,32.97
2021-06-28 10:23:36.195312500,-64.0,4.0,-12.25,67.86828125,3.57,4.543401343749999,32.97
2021-06-28 10:23:36.203125000,-64.0,4.0,-12.5,67.8678125,2.96,4.545843437499999,32.97
2021-06-28 10:23:36.210937500,-64.0,4.0,-12.75,67.86734374999999,2.335,4.5482855312499995,32.97
2021-06-28 10:23:36.218750000,-64.0,4.0,-13.0,67.866875,1.71,4.5507276249999995,32.97
2021-06-28 10:23:36.226562500,-64.0,4.0,-13.0,67.86640625,1.0699999999999998,4.5531697187499995,32.97
2021-06-28 10:23:36.234375000,-64.0,4.0,-13.0,67.8659375,0.43,4.5556118125,32.97
2021-06-28 10:23:36.242187500,-64.0,4.0,-13.0,67.86546874999999,-0.22000000000000003,4.55805390625,32.97
2021-06-28 10:23:36.250000000,-64.0,4.0,-13.0,67.865,-0.87,4.560496,32.97
2021-06-28 10:23:36.257812500,-63.75,4.0,-12.75,67.86453125,-1.4849999999999999,4.562377625,32.97
2021-06-28 10:23:36.265625000,-63.5,4.0,-12.5,67.86406249999999,-2.1,4.564259249999999,32.97
2021-06-28 10:23:36.273437500,-63.25,4.0,-12.25,67.86359374999999,-2.635,4.566140874999999,32.97
2021-06-28 10:23:36.281250000,-63.0,4.0,-12.0,67.863125,-3.17,4.5680225,32.97
2021-06-28 10:23:36.289062500,-63.25,4.0,-12.0,67.86265625,-3.61,4.569904125,32.97
2021-06-28 10:23:36.296875000,-63.5,4.0,-12.0,67.86218749999999,-4.05,4.57178575,32.97
2021-06-28 10:23:36.304687500,-63.75,4.0,-12.0,67.86171875,-4.41,4.573667374999999,32.97
2021-06-28 10:23:36.312500000,-64.0,4.0,-12.0,67.86125,-4.77,4.575549,32.97
2021-06-28 10:23:36.320312500,-63.75,4.0,-12.25,67.86078124999999,-5.105,4.577430625,32.97
2021-06-28 10:23:36.328125000,-63.5,4.0,-12.5,67.86031249999999,-5.44,4.579312249999999,32.97
2021-06-28 10:23:36.335937500,-63.25,4.0,-12.75,67.85984375,-5.83,4.581193874999999,32.97
2021-06-28 10:23:36.343750000,-63.0,4.0,-13.0,67.859375,-6.22,4.5830755,32.97
2021-06-28 10:23:36.351562500,-63.25,4.0,-13.0,67.85890624999999,-6.715,4.584957125,32.97
2021-06-28 10:23:36.359375000,-63.5,4.0,-13.0,67.8584375,-7.21,4.58683875,32.97
2021-06-28 10:23:36.367187500,-63.75,4.0,-13.0,67.85796875,-7.85,4.588720374999999,32.97
2021-06-28 10:23:36.375000000,-64.0,4.0,-13.0,67.85749999999999,-8.49,4.590602,32.97
2021-06-28 10:23:36.382812500,-64.0,4.0,-13.0,67.85703124999999,-9.24,4.592483625,32.97
2021-06-28 10:23:36.390625000,-64.0,4.0,-13.0,67.8565625,-9.99,4.594365249999999,32.97
2021-06-28 10:23:36.398437500,-64.0,4.0,-13.0,67.85609375,-10.795,4.596246874999999,32.97
2021-06-28 10:23:36.406250000,-64.0,4.0,-13.0,67.85562499999999,-11.6,4.5981285,32.97
2021-06-28 10:23:36.414062500,-63.75,4.0,-12.75,67.85515625,-12.365,4.600010125,32.97
2021-06-28 10:23:36.421875000,-63.5,4.0,-12.5,67.8546875,-13.13,4.60189175,32.97
2021-06-28 10:23:36.429687500,-63.25,4.0,-12.25,67.85421875,-13.780000000000001,4.603773374999999,32.97
2021-06-28 10:23:36.437500000,-63.0,4.0,-12.0,67.85374999999999,-14.43,4.605655,32.97
2021-06-28 10:23:36.445312500,-63.0,4.0,-12.0,67.85328125,-14.92,4.607536625,32.97
2021-06-28 10:23:36.453125000,-63.0,4.0,-12.0,67.8528125,-15.41,4.609418249999999,32.97
2021-06-28 10:23:36.460937500,-63.0,4.0,-12.0,67.85234374999999,-15.765,4.611299874999999,32.97
2021-06-28 10:23:36.468750000,-63.0,4.0,-12.0,67.85187499999999,-16.12,4.6131815,32.97
2021-06-28 10:23:36.476562500,-63.0,4.0,-12.25,67.85140625,-16.42,4.615063125,32.97
2021-06-28 10:23:36.484375000,-63.0,4.0,-12.5,67.8509375,-16.72,4.61694475,32.97
2021-06-28 10:23:36.492187500,-63.0,4.0,-12.75,67.85046874999999,-17.095,4.618826374999999,32.97
2021-06-28 10:23:36.500000000,-63.0,4.0,-13.0,67.85,-17.47,4.620708,32.97
2021-06-28 10:23:36.507812500,-63.0,4.0,-13.0,67.84953125,-18.025,4.62182896875,32.97
2021-06-28 10:23:36.515625000,-63.0,4.0,-13.0,67.84906249999999,-18.58,4.6229499375,32.97
2021-06-28 10:23:36.523437500,-63.0,4.0,-13.0,67.84859374999999,-19.384999999999998,4.624070906249999,32.97
2021-06-28 10:23:36.531250000,-63.0,4.0,-13.0,67.848125,-20.19,4.625191875,32.97
2021-06-28 10:23:36.539062500,-63.0,4.0,-12.75,67.84765625,-21.200000000000003,4.62631284375,32.97
2021-06-28 10:23:36.546875000,-63.0,4.0,-12.5,67.84718749999999,-22.21,4.6274338125,32.97
2021-06-28 10:23:36.554687500,-63.0,4.0,-12.25,67.84671875,-23.3,4.628554781249999,32.97
2021-06-28 10:23:36.562500000,-63.0,4.0,-12.0,67.84625,-24.39,4.62967575,32.97
2021-06-28 10:23:36.570312500,-63.0,4.0,-12.0,67.84578124999999,-25.35,4.63079671875,32.97
2021-06-28 10:23:36.578125000,-63.0,4.0,-12.0,67.84531249999999,-26.31,4.6319176875,32.97
2021-06-28 10:23:36.585937500,-63.0,4.0,-12.0,67.84484375,-26.905,4.633038656249999,32.97
2021-06-28 10:23:36.593750000,-63.0,4.0,-12.0,67.844375,-27.5,4.634159625,32.97
2021-06-28 10:23:36.601562500,-63.25,4.0,-12.25,67.84390624999999,-27.54,4.63528059375,32.97
2021-06-28 10:23:36.609375000,-63.5,4.0,-12.5,67.8434375,-27.58,4.6364015625,32.97
2021-06-28 10:23:36.617187500,-63.75,4.0,-12.75,67.84296875,-26.945,4.637522531249999,32.97
2021-06-28 10:23:36.625000000,-64.0,4.0,-13.0,67.8425,-26.31,4.6386435,32.97
2021-06-28 10:23:36.632812500,-64.0,4.0,-13.0,67.84203124999999,-25.005,4.63976446875,32.97
2021-06-28 10:23:36.640625000,-64.0,4.0,-13.0,67.8415625,-23.7,4.6408854375,32.97
2021-06-28 10:23:36.648437500,-64.0,4.0,-13.0,67.84109375,-21.83,4.642006406249999,32.97
2021-06-28 10:23:36.656250000,-64.0,4.0,-13.0,67.84062499999999,-19.96,4.643127375,32.97
2021-06-28 10:23:36.664062500,-63.75,4.0,-13.0,67.84015624999999,-17.745,4.64424834375,32.97
2021-06-28 10:23:36.671875000,-63.5,4.0,-13.0,67.8396875,-15.53,4.6453693125,32.97
2021-06-28 10:23:36.679687500,-63.25,4.0,-13.0,67.83921875,-13.215,4.646490281249999,32.97
2021-06-28 10:23:36.687500000,-63.0,4.0,-13.0,67.83874999999999,-10.9,4.64761125,32.97
2021-06-28 10:23:36.695312500,-63.25,4.0,-13.0,67.83828125,-8.690000000000001,4.64873221875,32.97
2021-06-28 10:23:36.703125000,-63.5,4.0,-13.0,67.8378125,-6.48,4.6498531875,32.97
2021-06-28 10:23:36.710937500,-63.75,4.0,-13.0,67.83734374999999,-4.485,4.650974156249999,32.97
2021-06-28 10:23:36.718750000,-64.0,4.0,-13.0,67.83687499999999,-2.49,4.652095125,32.97
2021-06-28 10:23:36.726562500,-63.75,4.0,-12.75,67.83640625,-0.7200000000000002,4.65321609375,32.97
2021-06-28 10:23:36.734375000,-63.5,4.0,-12.5,67.8359375,1.05,4.6543370625,32.97
2021-06-28 10:23:36.742187500,-63.25,4.0,-12.25,67.83546874999999,2.635,4.655458031249999,32.97
2021-06-28 10:23:36.750000000,-63.0,4.0,-12.0,67.835,4.22,4.656579,32.97
2021-06-28 10:23:36.757812500,-63.0,4.0,-12.25,67.83453125,5.6850000000000005,4.65661903125,32.97
2021-06-28 10:23:36.765625000,-63.0,4.0,-12.5,67.83406249999999,7.15,4.6566590625,32.97
2021-06-28 10:23:36.773437500,-63.0,4.0,-12.75,67.83359374999999,8.504999999999999,4.6566990937499995,32.97
2021-06-28 10:23:36.781250000,-63.0,4.0,-13.0,67.833125,9.86,4.656739125,32.97
2021-06-28 10:23:36.789062500,-63.25,4.0,-13.0,67.83265625,11.055,4.65677915625,32.97
2021-06-28 10:23:36.796875000,-63.5,4.0,-13.0,67.83218749999999,12.25,4.6568191875,32.97
2021-06-28 10:23:36.804687500,-63.75,4.0,-13.0,67.83171875,13.219999999999999,4.65685921875,32.97
2021-06-28 10:23:36.812500000,-64.0,4.0,-13.0,67.83125,14.19,4.65689925,32.97
2021-06-28 10:23:36.820312500,-64.0,4.0,-13.0,67.83078124999999,14.875,4.65693928125,32.97
2021-06-28 10:23:36.828125000,-64.0,4.0,-13.0,67.83031249999999,15.56,4.6569793125,32.97
2021-06-28 10:23:36.835937500,-64.0,4.0,-13.0,67.82984375,15.940000000000001,4.65701934375,32.97
2021-06-28 10:23:36.843750000,-64.0,4.0,-13.0,67.829375,16.32,4.657059375,32.97
2021-06-28 10:23:36.851562500,-63.75,4.0,-13.0,67.82890624999999,16.41,4.65709940625,32.97
2021-06-28 10:23:36.859375000,-63.5,4.0,-13.0,67.82843749999999,16.5,4.6571394375,32.97
2021-06-28 10:23:36.867187500,-63.25,4.0,-13.0,67.82796875,16.369999999999997,4.65717946875,32.97
2021-06-28 10:23:36.875000000,-63.0,4.0,-13.0,67.82749999999999,16.24,4.6572195,32.97
2021-06-28 10:23:36.882812500,-63.0,4.0,-13.0,67.82703124999999,15.959999999999999,4.65725953125,32.97
2021-06-28 10:23:36.890625000,-63.0,4.0,-13.0,67.8265625,15.68,4.6572995625,32.97
2021-06-28 10:23:36.898437500,-63.0,4.0,-13.0,67.82609375,15.35,4.65733959375,32.97
2021-06-28 10:23:36.906250000,-63.0,4.0,-13.0,67.82562499999999,15.02,4.657379625,32.97
2021-06-28 10:23:36.914062500,-63.25,4.0,-13.0,67.82515624999999,14.719999999999999,4.65741965625,32.97
2021-06-28 10:23:36.921875000,-63.5,4.0,-13.0,67.8246875,14.42,4.6574596875,32.97
2021-06-28 10:23:36.929687500,-63.75,4.0,-13.0,67.82421875,14.225,4.6574997187500005,32.97
2021-06-28 10:23:36.937500000,-64.0,4.0,-13.0,67.82374999999999,14.03,4.65753975,32.97
2021-06-28 10:23:36.945312500,-64.0,4.0,-13.0,67.82328125,13.965,4.65757978125,32.97
2021-06-28 10:23:36.953125000,-64.0,4.0,-13.0,67.8228125,13.9,4.6576198125,32.97
2021-06-28 10:23:36.960937500,-64.0,4.0,-13.0,67.82234374999999,13.940000000000001,4.65765984375,32.97
2021-06-28 10:23:36.968750000,-64.0,4.0,-13.0,67.82187499999999,13.98,4.6576998750000005,32.97
2021-06-28 10:23:36.976562500,-64.0,4.0,-13.0,67.82140625,14.075,4.657739906250001,32.97
2021-06-28 10:23:36.984375000,-64.0,4.0,-13.0,67.8209375,14.17,4.6577799375,32.97
2021-06-28 10:23:36.992187500,-64.0,4.0,-13.0,67.82046874999999,14.254999999999999,4.65781996875,32.97
2021-06-28 10:23:37.000000000,-64.0,4.0,-13.0,67.82,14.34,4.65786,32.97
2021-06-28 10:23:37.007812500,-63.75,4.0,-13.0,67.81906249999999,14.405000000000001,4.657539718750001,32.9709375
2021-06-28 10:23:37.015625000,-63.5,4.0,-13.0,67.818125,14.47,4.6572194375,32.971875
2021-06-28 10:23:37.023437500,-63.25,4.0,-13.0,67.81718749999999,14.535,4.656899156250001,32.972812499999996
2021-06-28 10:23:37.031250000,-63.0,4.0,-13.0,67.81625,14.6,4.656578875,32.973749999999995
2021-06-28 10:23:37.039062500,-63.25,4.0,-13.0,67.81531249999999,14.705,4.6562585937500005,32.9746875
2021-06-28 10:23:37.046875000,-63.5,4.0,-13.0,67.814375,14.81,4.6559383125,32.975625
2021-06-28 10:23:37.054687500,-63.75,4.0,-13.0,67.81343749999999,14.96,4.65561803125,32.9765625
2021-06-28 10:23:37.062500000,-64.0,4.0,-13.0,67.8125,15.11,4.655297750000001,32.9775
2021-06-28 10:23:37.070312500,-64.0,4.0,-13.0,67.8115625,15.245000000000001,4.65497746875,32.9784375
2021-06-28 10:23:37.078125000,-64.0,4.0,-13.0,67.81062499999999,15.38,4.654657187500001,32.979375
2021-06-28 10:23:37.085937500,-64.0,4.0,-13.0,67.8096875,15.395,4.65433690625,32.9803125
2021-06-28 10:23:37.093750000,-64.0,4.0,-13.0,67.80874999999999,15.41,4.654016625000001,32.98125
2021-06-28 10:23:37.101562500,-63.75,4.0,-12.75,67.8078125,15.2,4.65369634375,32.9821875
2021-06-28 10:23:37.109375000,-63.5,4.0,-12.5,67.80687499999999,14.99,4.6533760625000005,32.983125
2021-06-28 10:23:37.117187500,-63.25,4.0,-12.25,67.8059375,14.515,4.65305578125,32.9840625
2021-06-28 10:23:37.125000000,-63.0,4.0,-12.0,67.80499999999999,14.04,4.6527355,32.985
2021-06-28 10:23:37.132812500,-63.0,4.0,-12.25,67.8040625,13.335,4.652415218750001,32.9859375
2021-06-28 10:23:37.140625000,-63.0,4.0,-12.5,67.803125,12.63,4.6520949375,32.986875
2021-06-28 10:23:37.148437500,-63.0,4.0,-12.75,67.80218749999999,11.775,4.651774656250001,32.9878125
2021-06-28 10:23:37.156250000,-63.0,4.0,-13.0,67.80125,10.92,4.651454375,32.988749999999996
2021-06-28 10:23:37.164062500,-63.25,4.0,-13.0,67.80031249999999,10.04,4.6511340937500005,32.9896875
2021-06-28 10:23:37.171875000,-63.5,4.0,-13.0,67.799375,9.16,4.6508138125,32.990625
2021-06-28 10:23:37.179687500,-63.75,4.0,-13.0,67.79843749999999,8.34,4.65049353125,32.9915625
2021-06-28 10:23:37.187500000,-64.0,4.0,-13.0,67.7975,7.52,4.65017325,32.9925
2021-06-28 10:23:37.195312500,-64.0,4.0,-13.0,67.7965625,6.8,4.64985296875,32.9934375
2021-06-28 10:23:37.203125000,-64.0,4.0,-13.0,67.795625,6.08,4.649532687500001,32.994375
2021-06-28 10:23:37.210937500,-64.0,4.0,-13.0,67.7946875,5.475,4.64921240625,32.9953125
2021-06-28 10:23:37.218750000,-64.0,4.0,-13.0,67.79374999999999,4.87,4.648892125000001,32.99625
2021-06-28 10:23:37.226562500,-63.75,4.0,-13.0,67.7928125,4.365,4.64857184375,32.9971875
2021-06-28 10:23:37.234375000,-63.5,4.0,-13.0,67.79187499999999,3.86,4.6482515625000005,32.998125
2021-06-28 10:23:37.242187500,-63.25,4.0,-13.0,67.7909375,3.445,4.64793128125,32.9990625
2021-06-28 10:23:37.250000000,-63.0,4.0,-13.0,67.78999999999999,3.03,4.647611,33.0
2021-06-28 10:23:37.257812500,-63.25,4.0,-13.0,67.7890625,2.675,4.6465300625,33.0
2021-06-28 10:23:37.265625000,-63.5,4.0,-13.0,67.788125,2.32,4.645449125000001,33.0
2021-06-28 10:23:37.273437500,-63.75,4.0,-13.0,67.7871875,2.02,4.6443681875000005,33.0
2021-06-28 10:23:37.281250000,-64.0,4.0,-13.0,67.78625,1.72,4.64328725,33.0
2021-06-28 10:23:37.289062500,-64.0,4.0,-13.0,67.78531249999999,1.455,4.6422063125,33.0
2021-06-28 10:23:37.296875000,-64.0,4.0,-13.0,67.784375,1.19,4.6411253750000006,33.0
2021-06-28 10:23:37.304687500,-64.0,4.0,-13.0,67.78343749999999,0.925,4.6400444375,33.0
2021-06-28 10:23:37.312500000,-64.0,4.0,-13.0,67.7825,0.66,4.6389635,33.0
2021-06-28 10:23:37.320312500,-64.0,4.0,-13.0,67.78156249999999,0.375,4.637882562500001,33.0
2021-06-28 10:23:37.328125000,-64.0,4.0,-13.0,67.780625,0.09,4.636801625,33.0
2021-06-28 10:23:37.335937500,-64.0,4.0,-13.0,67.7796875,-0.23500000000000001,4.6357206875,33.0
2021-06-28 10:23:37.343750000,-64.0,4.0,-13.0,67.77875,-0.56,4.63463975,33.0
2021-06-28 10:23:37.351562500,-64.0,4.0,-13.0,67.7778125,-0.9400000000000001,4.6335588125000005,33.0
2021-06-28 10:23:37.359375000,-64.0,4.0,-13.0,67.77687499999999,-1.32,4.632477875,33.0
2021-06-28 10:23:37.367187500,-64.0,4.0,-13.0,67.7759375,-1.7650000000000001,4.6313969375,33.0
2021-06-28 10:23:37.375000000,-64.0,4.0,-13.0,67.77499999999999,-2.21,4.6303160000000005,33.0
2021-06-28 10:23:37.382812500,-63.75,4.0,-12.75,67.7740625,-2.69,4.6292350625,33.0
2021-06-28 10:23:37.390625000,-63.5,4.0,-12.5,67.773125,-3.17,4.628154125,33.0
2021-06-28 10:23:37.398437500,-63.25,4.0,-12.25,67.7721875,-3.67,4.6270731875,33.0
2021-06-28 10:23:37.406250000,-63.0,4.0,-12.0,67.77125,-4.17,4.62599225,33.0
2021-06-28 10:23:37.414062500,-63.25,4.0,-12.0,67.7703125,-4.65,4.6249113125,33.0
2021-06-28 10:23:37.421875000,-63.5,4.0,-12.0,67.769375,-5.13,4.623830375,33.0
2021-06-28 10:23:37.429687500,-63.75,4.0,-12.0,67.76843749999999,-5.57,4.6227494375,33.0
2021-06-28 10:23:37.437500000,-64.0,4.0,-12.0,67.7675,-6.01,4.6216685,33.0
2021-06-28 10:23:37.445312500,-64.0,4.0,-12.0,67.76656249999999,-6.415,4.6205875625,33.0
2021-06-28 10:23:37.453125000,-64.0,4.0,-12.0,67.765625,-6.82,4.619506625,33.0
2021-06-28 10:23:37.460937500,-64.0,4.0,-12.0,67.7646875,-7.215,4.6184256875,33.0
2021-06-28 10:23:37.468750000,-64.0,4.0,-12.0,67.76375,-7.61,4.61734475,33.0
2021-06-28 10:23:37.476562500,-64.0,4.0,-12.0,67.7628125,-8.025,4.6162638125,33.0
2021-06-28 10:23:37.484375000,-64.0,4.0,-12.0,67.761875,-8.44,4.6151828749999995,33.0
2021-06-28 10:23:37.492187500,-64.0,4.0,-12.0,67.7609375,-8.91,4.6141019375,33.0
2021-06-28 10:23:37.500000000,-64.0,4.0,-12.0,67.75999999999999,-9.38,4.613021,33.0
2021-06-28 10:23:37.507812500,-63.75,4.0,-12.0,67.7590625,-9.920000000000002,4.6121402499999995,33.0
2021-06-28 10:23:37.515625000,-63.5,4.0,-12.0,67.75812499999999,-10.46,4.6112595,33.0
2021-06-28 10:23:37.523437500,-63.25,4.0,-12.0,67.7571875,-11.095,4.61037875,33.0
2021-06-28 10:23:37.531250000,-63.0,4.0,-12.0,67.75625,-11.73,4.609498,33.0
2021-06-28 10:23:37.539062500,-63.25,4.0,-12.0,67.7553125,-12.465,4.60861725,33.0
2021-06-28 10:23:37.546875000,-63.5,4.0,-12.0,67.754375,-13.2,4.6077365,33.0
2021-06-28 10:23:37.554687500,-63.75,4.0,-12.0,67.7534375,-14.05,4.60685575,33.0
2021-06-28 10:23:37.562500000,-64.0,4.0,-12.0,67.7525,-14.9,4.605975,33.0
2021-06-28 10:23:37.570312500,-64.0,4.0,-12.0,67.7515625,-15.84,4.60509425,33.0
2021-06-28 10:23:37.578125000,-64.0,4.0,-12.0,67.750625,-16.78,4.6042135,33.0
2021-06-28 10:23:37.585937500,-64.0,4.0,-12.0,67.7496875,-17.735,4.60333275,33.0
2021-06-28 10:23:37.593750000,-64.0,4.0,-12.0,67.74875,-18.69,4.6024519999999995,33.0
2021-06-28 10:23:37.601562500,-64.0,4.0,-12.0,67.7478125,-19.509999999999998,4.60157125,33.0
2021-06-28 10:23:37.609375000,-64.0,4.0,-12.0,67.746875,-20.33,4.6006905,33.0
2021-06-28 10:23:37.617187500,-64.0,4.0,-12.0,67.7459375,-20.83,4.59980975,33.0
2021-06-28 10:23:37.625000000,-64.0,4.0,-12.0,67.745,-21.33,4.598929,33.0
2021-06-28 10:23:37.632812500,-64.0,4.0,-12.0,67.7440625,-21.335,4.59804825,33.0
2021-06-28 10:23:37.640625000,-64.0,4.0,-12.0,67.743125,-21.34,4.5971675,33.0
2021-06-28 10:23:37.648437500,-64.0,4.0,-12.0,67.7421875,-20.765,4.59628675,33.0
2021-06-28 10:23:37.656250000,-64.0,4.0,-12.0,67.74125,-20.19,4.5954060000000005,33.0
2021-06-28 10:23:37.664062500,-64.0,4.0,-11.75,67.7403125,-19.060000000000002,4.59452525,33.0
2021-06-28 10:23:37.671875000,-64.0,4.0,-11.5,67.739375,-17.93,4.5936445,33.0
2021-06-28 10:23:37.679687500,-64.0,4.0,-11.25,67.7384375,-16.405,4.5927637500000005,33.0
2021-06-28 10:23:37.687500000,-64.0,4.0,-11.0,67.7375,-14.88,4.591883,33.0
2021-06-28 10:23:37.695312500,-64.0,4.0,-11.25,67.7365625,-13.170000000000002,4.59100225,33.0
2021-06-28 10:23:37.703125000,-64.0,4.0,-11.5,67.735625,-11.46,4.5901215,33.0
2021-06-28 10:23:37.710937500,-64.0,4.0,-11.75,67.7346875,-9.765,4.58924075,33.0
2021-06-28 10:23:37.718750000,-64.0,4.0,-12.0,67.73375,-8.07,4.58836,33.0
2021-06-28 10:23:37.726562500,-64.0,4.0,-11.75,67.7328125,-6.52,4.58747925,33.0
2021-06-28 10:23:37.734375000,-64.0,4.0,-11.5,67.731875,-4.97,4.5865985,33.0
2021-06-28 10:23:37.742187500,-64.0,4.0,-11.25,67.7309375,-3.5949999999999998,4.585717750000001,33.0
2021-06-28 10:23:37.750000000,-64.0,4.0,-11.0,67.73,-2.22,4.584837,33.0
2021-06-28 10:23:37.757812500,-64.0,4.0,-11.0,67.7290625,-0.98,4.583515875000001,33.0
2021-06-28 10:23:37.765625000,-64.0,4.0,-11.0,67.728125,0.26,4.58219475,33.0
2021-06-28 10:23:37.773437500,-64.0,4.0,-11.0,67.7271875,1.405,4.580873625000001,33.0
2021-06-28 10:23:37.781250000,-64.0,4.0,-11.0,67.72625000000001,2.55,4.5795525,33.0
2021-06-28 10:23:37.789062500,-64.0,4.0,-11.0,67.7253125,3.61,4.5782313750000005,33.0
2021-06-28 10:23:37.796875000,-64.0,4.0,-11.0,67.724375,4.67,4.57691025,33.0
2021-06-28 10:23:37.804687500,-64.0,4.0,-11.0,67.7234375,5.595,4.5755891250000005,33.0
2021-06-28 10:23:37.812500000,-64.0,4.0,-11.0,67.7225,6.52,4.574268,33.0
2021-06-28 10:23:37.820312500,-64.0,4.0,-11.25,67.7215625,7.225,4.572946875,33.0
2021-06-28 10:23:37.828125000,-64.0,4.0,-11.5,67.720625,7.93,4.57162575,33.0
2021-06-28 10:23:37.835937500,-64.0,4.0,-11.75,67.7196875,8.36,4.570304625,33.0
2021-06-28 10:23:37.843750000,-64.0,4.0,-12.0,67.71875,8.79,4.5689835,33.0
2021-06-28 10:23:37.851562500,-64.0,4.0,-11.75,67.71781250000001,8.91,4.567662375,33.0
2021-06-28 10:23:37.859375000,-64.0,4.0,-11.5,67.716875,9.03,4.56634125,33.0
2021-06-28 10:23:37.867187500,-64.0,4.0,-11.25,67.7159375,8.905,4.565020125,33.0
2021-06-28 10:23:37.875000000,-64.0,4.0,-11.0,67.715,8.78,4.563699,33.0
2021-06-28 10:23:37.882812500,-64.0,4.0,-11.0,67.7140625,8.51,4.562377875,33.0
2021-06-28 10:23:37.890625000,-64.0,4.0,-11.0,67.713125,8.24,4.5610567500000005,33.0
2021-06-28 10:23:37.898437500,-64.0,4.0,-11.0,67.7121875,7.955,4.559735625,33.0
2021-06-28 10:23:37.906250000,-64.0,4.0,-11.0,67.71125,7.67,4.5584145000000005,33.0
2021-06-28 10:23:37.914062500,-64.0,4.0,-11.0,67.7103125,7.495,4.557093375,33.0
2021-06-28 10:23:37.921875000,-64.0,4.0,-11.0,67.70937500000001,7.32,4.55577225,33.0
2021-06-28 10:23:37.929687500,-64.0,4.0,-11.0,67.7084375,7.325,4.554451125,33.0
2021-06-28 10:23:37.937500000,-64.0,4.0,-11.0,67.7075,7.33,4.55313,33.0
2021-06-28 10:23:37.945312500,-64.0,4.0,-10.75,67.7065625,7.53,4.551808875,33.0
2021-06-28 10:23:37.953125000,-64.0,4.0,-10.5,67.705625,7.73,4.55048775,33.0
2021-06-28 10:23:37.960937500,-64.0,4.0,-10.25,67.7046875,8.07,4.549166625,33.0
2021-06-28 10:23:37.968750000,-64.0,4.0,-10.0,67.70375,8.41,4.5478455,33.0
2021-06-28 10:23:37.976562500,-64.0,4.0,-10.25,67.70281250000001,8.81,4.546524375,33.0
2021-06-28 10:23:37.984375000,-64.0,4.0,-10.5,67.701875,9.21,4.54520325,33.0
2021-06-28 10:23:37.992187500,-64.0,4.0,-10.75,67.70093750000001,9.59,4.543882125,33.0
2021-06-28 10:23:38.000000000,-64.0,4.0,-11.0,67.7,9.97,4.542561,33.0
2021-06-28 10:23:38.007812500,-64.0,4.0,-10.75,67.69898437500001,10.27,4.54200053125,32.9984375
2021-06-28 10:23:38.015625000,-64.0,4.0,-10.5,67.69796875,10.57,4.5414400625,32.996875
2021-06-28 10:23:38.023437500,-64.0,4.0,-10.25,67.69695312500001,10.76,4.54087959375,32.9953125
2021-06-28 10:23:38.031250000,-64.0,4.0,-10.0,67.6959375,10.95,4.540319125,32.99375
2021-06-28 10:23:38.039062500,-64.0,4.0,-10.0,67.694921875,11.045,4.53975865625,32.9921875
2021-06-28 10:23:38.046875000,-64.0,4.0,-10.0,67.69390625,11.14,4.5391981875,32.990625
2021-06-28 10:23:38.054687500,-64.0,4.0,-10.0,67.692890625,11.16,4.5386377187499996,32.9890625
2021-06-28 10:23:38.062500000,-64.0,4.0,-10.0,67.691875,11.18,4.53807725,32.9875
2021-06-28 10:23:38.070312500,-64.0,4.0,-10.0,67.690859375,11.135,4.53751678125,32.9859375
2021-06-28 10:23:38.078125000,-64.0,4.0,-10.0,67.68984375000001,11.09,4.5369563125,32.984375
2021-06-28 10:23:38.085937500,-64.0,4.0,-10.0,67.688828125,11.004999999999999,4.53639584375,32.9828125
2021-06-28 10:23:38.093750000,-64.0,4.0,-10.0,67.6878125,10.92,4.535835375,32.98125
2021-06-28 10:23:38.101562500,-64.0,4.0,-10.0,67.686796875,10.780000000000001,4.53527490625,32.979687500000004
2021-06-28 10:23:38.109375000,-64.0,4.0,-10.0,67.68578125,10.64,4.5347144375,32.978125
2021-06-28 10:23:38.117187500,-64.0,4.0,-10.0,67.684765625,10.43,4.53415396875,32.9765625
2021-06-28 10:23:38.125000000,-64.0,4.0,-10.0,67.68375,10.22,4.5335935,32.975
2021-06-28 10:23:38.132812500,-64.0,4.0,-10.25,67.682734375,9.915,4.53303303125,32.9734375
2021-06-28 10:23:38.140625000,-64.0,4.0,-10.5,67.68171875,9.61,4.5324725625,32.971875000000004
2021-06-28 10:23:38.148437500,-64.0,4.0,-10.75,67.68070312500001,9.184999999999999,4.53191209375,32.9703125
2021-06-28 10:23:38.156250000,-64.0,4.0,-11.0,67.6796875,8.76,4.531351625,32.96875
2021-06-28 10:23:38.164062500,-64.0,4.0,-11.0,67.678671875,8.2,4.530791156249999,32.9671875
2021-06-28 10:23:38.171875000,-64.0,4.0,-11.0,67.67765625,7.64,4.5302306875,32.965625
2021-06-28 10:23:38.179687500,-64.0,4.0,-11.0,67.676640625,6.96,4.52967021875,32.964062500000004
2021-06-28 10:23:38.187500000,-64.0,4.0,-11.0,67.675625,6.28,4.52910975,32.962500000000006
2021-06-28 10:23:38.195312500,-64.0,4.0,-10.75,67.674609375,5.535,4.52854928125,32.9609375
2021-06-28 10:23:38.203125000,-64.0,4.0,-10.5,67.67359375,4.79,4.527988812499999,32.959375
2021-06-28 10:23:38.210937500,-64.0,4.0,-10.25,67.672578125,4.005,4.52742834375,32.9578125
2021-06-28 10:23:38.218750000,-64.0,4.0,-10.0,67.67156250000001,3.22,4.526867875,32.956250000000004
2021-06-28 10:23:38.226562500,-64.0,4.0,-10.0,67.670546875,2.435,4.52630740625,32.954687500000006
2021-06-28 10:23:38.234375000,-64.0,4.0,-10.0,67.66953125,1.65,4.525746937499999,32.953125
2021-06-28 10:23:38.242187500,-64.0,4.0,-10.0,67.668515625,0.875,4.525186468749999,32.9515625
2021-06-28 10:23:38.250000000,-64.0,4.0,-10.0,67.6675,0.1,4.524626,32.95
2021-06-28 10:23:38.257812500,-64.0,4.0,-10.0,67.666484375,-0.655,4.523745218749999,32.95
2021-06-28 10:23:38.265625000,-64.0,4.0,-10.0,67.66546875,-1.41,4.5228644375,32.95
2021-06-28 10:23:38.273437500,-64.0,4.0,-10.0,67.664453125,-2.135,4.52198365625,32.95
2021-06-28 10:23:38.281250000,-64.0,4.0,-10.0,67.6634375,-2.86,4.5211028749999995,32.95
2021-06-28 10:23:38.289062500,-64.0,4.0,-10.25,67.662421875,-3.505,4.520222093749999,32.95
2021-06-28 10:23:38.296875000,-64.0,4.0,-10.5,67.66140625,-4.15,4.5193413125,32.95
2021-06-28 10:23:38.304687500,-64.0,4.0,-10.75,67.660390625,-4.67,4.51846053125,32.95
2021-06-28 10:23:38.312500000,-64.0,4.0,-11.0,67.659375,-5.19,4.5175797499999994,32.95
2021-06-28 10:23:38.320312500,-64.0,4.0,-10.75,67.658359375,-5.585000000000001,4.51669896875,32.95
2021-06-28 10:23:38.328125000,-64.0,4.0,-10.5,67.65734375,-5.98,4.5158181875,32.95
