TimeStamp,empatica.acc.x,empatica.acc.y,empatica.acc.z,empatica.hr,empatica.bvp,empatica.eda,empatica.temp
2021-06-23 15:17:07.742187500,29.0,-1.25,55.0,126.68515625,-25.03,0.5360071875,32.59
2021-06-23 15:17:07.750000000,29.0,-1.0,55.0,126.685,-20.99,0.535767,32.59
2021-06-23 15:17:07.757812500,29.0,-1.0,55.0,126.68484375,-15.145,0.535927125,32.59
2021-06-23 15:17:07.765625000,29.0,-1.0,55.0,126.68468750000001,-9.3,0.53608725,32.59
2021-06-23 15:17:07.773437500,29.0,-1.0,55.0,126.68453125,-2.6400000000000006,0.536247375,32.59
2021-06-23 15:17:07.781250000,29.0,-1.0,55.0,126.684375,4.02,0.5364075,32.59
2021-06-23 15:17:07.789062500,29.0,-1.25,55.0,126.68421875,10.42,0.536567625,32.59
2021-06-23 15:17:07.796875000,29.0,-1.5,55.0,126.68406250000001,16.82,0.53672775,32.59
2021-06-23 15:17:07.804687500,29.0,-1.75,55.0,126.68390625,22.075,0.536887875,32.59
2021-06-23 15:17:07.812500000,29.0,-2.0,55.0,126.68375,27.33,0.537048,32.59
2021-06-23 15:17:07.820312500,29.0,-2.0,55.0,126.68359375,31.02,0.537208125,32.59
2021-06-23 15:17:07.828125000,29.0,-2.0,55.0,126.68343750000001,34.71,0.53736825,32.59
2021-06-23 15:17:07.835937500,29.0,-2.0,55.0,126.68328125000001,36.845,0.537528375,32.59
2021-06-23 15:17:07.843750000,29.0,-2.0,55.0,126.683125,38.98,0.5376885,32.59
2021-06-23 15:17:07.851562500,29.0,-1.75,55.0,126.68296875,39.894999999999996,0.537848625,32.59
2021-06-23 15:17:07.859375000,29.0,-1.5,55.0,126.68281250000001,40.81,0.53800875,32.59
2021-06-23 15:17:07.867187500,29.0,-1.25,55.0,126.68265625000001,40.91,0.538168875,32.59
2021-06-23 15:17:07.875000000,29.0,-1.0,55.0,126.6825,41.01,0.5383290000000001,32.59
2021-06-23 15:17:07.882812500,29.0,-1.25,55.0,126.68234375,40.599999999999994,0.538489125,32.59
2021-06-23 15:17:07.890625000,29.0,-1.5,55.0,126.68218750000001,40.19,0.53864925,32.59
2021-06-23 15:17:07.898437500,29.0,-1.75,55.0,126.68203125000001,39.405,0.538809375,32.59
2021-06-23 15:17:07.906250000,29.0,-2.0,55.0,126.681875,38.62,0.5389695,32.59
2021-06-23 15:17:07.914062500,29.0,-2.0,55.0,126.68171875,37.474999999999994,0.5391296250000001,32.59
2021-06-23 15:17:07.921875000,29.0,-2.0,55.0,126.68156250000001,36.33,0.53928975,32.59
2021-06-23 15:17:07.929687500,29.0,-2.0,55.0,126.68140625000001,34.815,0.539449875,32.59
2021-06-23 15:17:07.937500000,29.0,-2.0,55.0,126.68125,33.3,0.53961,32.59
2021-06-23 15:17:07.945312500,29.0,-2.0,55.0,126.68109375,31.49,0.539770125,32.59
2021-06-23 15:17:07.953125000,29.0,-2.0,55.0,126.68093750000001,29.68,0.5399302500000001,32.59
2021-06-23 15:17:07.960937500,29.0,-2.0,55.0,126.68078125000001,27.765,0.540090375,32.59
2021-06-23 15:17:07.968750000,29.0,-2.0,55.0,126.680625,25.85,0.5402505,32.59
2021-06-23 15:17:07.976562500,29.0,-2.0,55.0,126.68046875,24.055,0.540410625,32.59
2021-06-23 15:17:07.984375000,29.0,-2.0,55.0,126.68031250000001,22.26,0.54057075,32.59
2021-06-23 15:17:07.992187500,29.0,-2.0,55.0,126.68015625000001,20.79,0.540730875,32.59
2021-06-23 15:17:08.000000000,29.0,-2.0,55.0,126.68,19.32,0.540891,32.59
2021-06-23 15:17:08.007812500,29.0,-2.0,55.0,126.679921875,18.215,0.54077090625,32.59
2021-06-23 15:17:08.015625000,29.0,-2.0,55.0,126.67984375,17.11,0.5406508125,32.59
2021-06-23 15:17:08.023437500,29.0,-2.0,55.0,126.679765625,16.259999999999998,0.54053071875,32.59
2021-06-23 15:17:08.031250000,29.0,-2.0,55.0,126.6796875,15.41,0.540410625,32.59
2021-06-23 15:17:08.039062500,29.0,-2.0,55.0,126.67960937500001,14.58,0.54029053125,32.59
2021-06-23 15:17:08.046875000,29.0,-2.0,55.0,126.67953125000001,13.75,0.5401704375,32.59
2021-06-23 15:17:08.054687500,29.0,-2.0,55.0,126.67945312500001,12.68,0.54005034375,32.59
2021-06-23 15:17:08.062500000,29.0,-2.0,55.0,126.67937500000001,11.61,0.5399302500000001,32.59
2021-06-23 15:17:08.070312500,29.0,-1.75,55.0,126.679296875,10.07,0.53981015625,32.59
2021-06-23 15:17:08.078125000,29.0,-1.5,55.0,126.67921875,8.53,0.5396900625,32.59
2021-06-23 15:17:08.085937500,29.0,-1.25,55.0,126.679140625,6.375,0.53956996875,32.59
2021-06-23 15:17:08.093750000,29.0,-1.0,55.0,126.6790625,4.22,0.539449875,32.59
2021-06-23 15:17:08.101562500,29.0,-1.25,55.0,126.67898437500001,1.37,0.53932978125,32.59
2021-06-23 15:17:08.109375000,29.0,-1.5,55.0,126.67890625000001,-1.48,0.5392096875,32.59
2021-06-23 15:17:08.117187500,29.0,-1.75,55.0,126.67882812500001,-4.965,0.53908959375,32.59
2021-06-23 15:17:08.125000000,29.0,-2.0,55.0,126.67875000000001,-8.45,0.5389695,32.59
2021-06-23 15:17:08.132812500,29.0,-1.75,55.0,126.678671875,-12.33,0.53884940625,32.59
2021-06-23 15:17:08.140625000,29.0,-1.5,55.0,126.67859375,-16.21,0.5387293125,32.59
2021-06-23 15:17:08.148437500,29.0,-1.25,55.0,126.678515625,-20.035,0.53860921875,32.59
2021-06-23 15:17:08.156250000,29.0,-1.0,55.0,126.6784375,-23.86,0.538489125,32.59
2021-06-23 15:17:08.164062500,29.0,-1.25,55.0,126.678359375,-26.945,0.53836903125,32.59
2021-06-23 15:17:08.171875000,29.0,-1.5,55.0,126.67828125000001,-30.03,0.5382489375,32.59
2021-06-23 15:17:08.179687500,29.0,-1.75,55.0,126.67820312500001,-31.635,0.53812884375,32.59
2021-06-23 15:17:08.187500000,29.0,-2.0,55.0,126.67812500000001,-33.24,0.5380087499999999,32.59
2021-06-23 15:17:08.195312500,29.0,-1.75,55.0,126.678046875,-32.8,0.5378886562499999,32.59
2021-06-23 15:17:08.203125000,29.0,-1.5,55.0,126.67796875,-32.36,0.5377685624999999,32.59
2021-06-23 15:17:08.210937500,29.0,-1.25,55.0,126.677890625,-29.7,0.5376484687499999,32.59
2021-06-23 15:17:08.218750000,29.0,-1.0,55.0,126.6778125,-27.04,0.537528375,32.59
2021-06-23 15:17:08.226562500,29.0,-1.0,55.0,126.677734375,-22.505,0.53740828125,32.59
2021-06-23 15:17:08.234375000,29.0,-1.0,55.0,126.67765625000001,-17.97,0.5372881875,32.59
2021-06-23 15:17:08.242187500,29.0,-1.0,55.0,126.67757812500001,-12.309999999999999,0.53716809375,32.59
2021-06-23 15:17:08.250000000,29.0,-1.0,55.0,126.67750000000001,-6.65,0.537048,32.59
2021-06-23 15:17:08.257812500,29.0,-1.25,55.0,126.67742187500001,-0.7850000000000001,0.53700796875,32.59
2021-06-23 15:17:08.265625000,29.0,-1.5,55.0,126.67734375,5.08,0.5369679374999999,32.59
2021-06-23 15:17:08.273437500,29.0,-1.75,55.0,126.677265625,10.36,0.53692790625,32.59
2021-06-23 15:17:08.281250000,29.0,-2.0,55.0,126.6771875,15.64,0.536887875,32.59
2021-06-23 15:17:08.289062500,29.0,-2.0,55.0,126.677109375,19.85,0.5368478437499999,32.59
2021-06-23 15:17:08.296875000,29.0,-2.0,55.0,126.67703125,24.06,0.5368078125,32.59
2021-06-23 15:17:08.304687500,29.0,-2.0,55.0,126.67695312500001,27.02,0.53676778125,32.59
2021-06-23 15:17:08.312500000,29.0,-2.0,55.0,126.67687500000001,29.98,0.53672775,32.59
2021-06-23 15:17:08.320312500,29.0,-1.75,55.0,126.67679687500001,31.67,0.53668771875,32.59
2021-06-23 15:17:08.328125000,29.0,-1.5,55.0,126.67671875,33.36,0.5366476875,32.59
2021-06-23 15:17:08.335937500,29.0,-1.25,55.0,126.676640625,33.795,0.53660765625,32.59
2021-06-23 15:17:08.343750000,29.0,-1.0,55.0,126.6765625,34.23,0.536567625,32.59
2021-06-23 15:17:08.351562500,29.0,-1.25,55.0,126.676484375,33.425,0.53652759375,32.59
2021-06-23 15:17:08.359375000,29.0,-1.5,55.0,126.67640625,32.62,0.5364875625,32.59
2021-06-23 15:17:08.367187500,29.0,-1.75,55.0,126.67632812500001,30.674999999999997,0.53644753125,32.59
2021-06-23 15:17:08.375000000,29.0,-2.0,55.0,126.67625000000001,28.73,0.5364074999999999,32.59
2021-06-23 15:17:08.382812500,29.0,-2.0,55.0,126.67617187500001,25.905,0.53636746875,32.59
2021-06-23 15:17:08.390625000,29.0,-2.0,55.0,126.67609375,23.08,0.5363274375,32.59
2021-06-23 15:17:08.398437500,29.0,-2.0,55.0,126.676015625,19.86,0.5362874062499999,32.59
2021-06-23 15:17:08.406250000,29.0,-2.0,55.0,126.6759375,16.64,0.536247375,32.59
2021-06-23 15:17:08.414062500,29.0,-1.75,55.0,126.675859375,13.575,0.53620734375,32.59
2021-06-23 15:17:08.421875000,29.0,-1.5,55.0,126.67578125,10.51,0.5361673124999999,32.59
2021-06-23 15:17:08.429687500,29.0,-1.25,55.0,126.675703125,8.094999999999999,0.53612728125,32.59
2021-06-23 15:17:08.437500000,29.0,-1.0,55.0,126.67562500000001,5.68,0.53608725,32.59
2021-06-23 15:17:08.445312500,29.0,-1.25,55.0,126.67554687500001,4.135,0.5360472187499999,32.59
2021-06-23 15:17:08.453125000,29.0,-1.5,55.0,126.67546875000001,2.59,0.5360071875,32.59
2021-06-23 15:17:08.460937500,29.0,-1.75,55.0,126.675390625,1.8199999999999998,0.53596715625,32.59
2021-06-23 15:17:08.468750000,29.0,-2.0,55.0,126.6753125,1.05,0.535927125,32.59
2021-06-23 15:17:08.476562500,29.0,-1.75,55.0,126.675234375,0.745,0.53588709375,32.59
2021-06-23 15:17:08.484375000,29.0,-1.5,55.0,126.67515625,0.44,0.5358470625,32.59
2021-06-23 15:17:08.492187500,29.0,-1.25,55.0,126.675078125,0.195,0.53580703125,32.59
2021-06-23 15:17:08.500000000,29.0,-1.0,55.0,126.67500000000001,-0.05,0.535767,32.59
2021-06-23 15:17:08.507812500,29.0,-1.25,55.0,126.67492187500001,-0.52,0.53568690625,32.59
2021-06-23 15:17:08.515625000,29.0,-1.5,55.0,126.67484375000001,-0.99,0.5356068125,32.59
2021-06-23 15:17:08.523437500,29.0,-1.75,55.0,126.674765625,-1.8250000000000002,0.53552671875,32.59
2021-06-23 15:17:08.531250000,29.0,-2.0,55.0,126.6746875,-2.66,0.535446625,32.59
2021-06-23 15:17:08.539062500,29.0,-1.75,55.0,126.674609375,-3.895,0.53536653125,32.59
2021-06-23 15:17:08.546875000,29.0,-1.5,55.0,126.67453125,-5.13,0.5352864375,32.59
2021-06-23 15:17:08.554687500,29.0,-1.25,55.0,126.674453125,-6.77,0.53520634375,32.59
2021-06-23 15:17:08.562500000,29.0,-1.0,55.0,126.674375,-8.41,0.53512625,32.59
2021-06-23 15:17:08.570312500,29.0,-1.25,55.0,126.67429687500001,-10.525,0.53504615625,32.59
2021-06-23 15:17:08.578125000,29.0,-1.5,55.0,126.67421875000001,-12.64,0.5349660625,32.59
2021-06-23 15:17:08.585937500,29.0,-1.75,55.0,126.674140625,-15.32,0.53488596875,32.59
2021-06-23 15:17:08.593750000,29.0,-2.0,55.0,126.6740625,-18.0,0.534805875,32.59
2021-06-23 15:17:08.601562500,29.0,-2.0,55.0,126.673984375,-21.235,0.53472578125,32.59
2021-06-23 15:17:08.609375000,29.0,-2.0,55.0,126.67390625,-24.47,0.5346456875,32.59
2021-06-23 15:17:08.617187500,29.0,-2.0,55.0,126.673828125,-27.96,0.53456559375,32.59
2021-06-23 15:17:08.625000000,29.0,-2.0,55.0,126.67375,-31.45,0.5344855,32.59
2021-06-23 15:17:08.632812500,29.0,-2.0,55.0,126.673671875,-34.56,0.53440540625,32.59
2021-06-23 15:17:08.640625000,29.0,-2.0,55.0,126.67359375000001,-37.67,0.5343253125,32.59
2021-06-23 15:17:08.648437500,29.0,-2.0,55.0,126.67351562500001,-39.515,0.53424521875,32.59
2021-06-23 15:17:08.656250000,29.0,-2.0,55.0,126.6734375,-41.36,0.534165125,32.59
2021-06-23 15:17:08.664062500,29.0,-2.0,55.0,126.673359375,-41.11,0.53408503125,32.59
2021-06-23 15:17:08.671875000,29.0,-2.0,55.0,126.67328125,-40.86,0.5340049375,32.59
2021-06-23 15:17:08.679687500,29.0,-2.0,55.0,126.673203125,-38.085,0.53392484375,32.59
2021-06-23 15:17:08.687500000,29.0,-2.0,55.0,126.673125,-35.31,0.53384475,32.59
2021-06-23 15:17:08.695312500,29.0,-1.75,55.0,126.673046875,-30.235,0.53376465625,32.59
2021-06-23 15:17:08.703125000,29.0,-1.5,55.0,126.67296875000001,-25.16,0.5336845625,32.59
2021-06-23 15:17:08.710937500,29.0,-1.25,55.0,126.67289062500001,-18.655,0.53360446875,32.59
2021-06-23 15:17:08.718750000,29.0,-1.0,55.0,126.6728125,-12.15,0.533524375,32.59
2021-06-23 15:17:08.726562500,29.0,-1.25,55.0,126.672734375,-5.44,0.53344428125,32.59
2021-06-23 15:17:08.734375000,29.0,-1.5,55.0,126.67265625,1.27,0.5333641875,32.59
2021-06-23 15:17:08.742187500,29.0,-1.75,55.0,126.672578125,7.040000000000001,0.53328409375,32.59
2021-06-23 15:17:08.750000000,29.0,-2.0,55.0,126.6725,12.81,0.533204,32.59
2021-06-23 15:17:08.757812500,29.0,-2.0,55.0,126.672421875,16.95,0.53316396875,32.59
2021-06-23 15:17:08.765625000,29.0,-2.0,55.0,126.67234375,21.09,0.5331239375,32.59
2021-06-23 15:17:08.773437500,29.0,-2.0,55.0,126.67226562500001,23.45,0.53308390625,32.59
2021-06-23 15:17:08.781250000,29.0,-2.0,55.0,126.6721875,25.81,0.5330438750000001,32.59
2021-06-23 15:17:08.789062500,29.0,-1.75,55.0,126.672109375,26.674999999999997,0.53300384375,32.59
2021-06-23 15:17:08.796875000,29.0,-1.5,55.0,126.67203125,27.54,0.5329638125,32.59
2021-06-23 15:17:08.804687500,29.0,-1.25,55.0,126.671953125,27.34,0.5329237812500001,32.59
2021-06-23 15:17:08.812500000,29.0,-1.0,55.0,126.671875,27.14,0.53288375,32.59
2021-06-23 15:17:08.820312500,29.0,-1.25,55.0,126.671796875,26.195,0.53284371875,32.59
2021-06-23 15:17:08.828125000,29.0,-1.5,55.0,126.67171875,25.25,0.5328036875000001,32.59
2021-06-23 15:17:08.835937500,29.0,-1.75,55.0,126.67164062500001,23.71,0.53276365625,32.59
2021-06-23 15:17:08.843750000,29.0,-2.0,55.0,126.67156250000001,22.17,0.532723625,32.59
2021-06-23 15:17:08.851562500,29.0,-2.0,55.0,126.671484375,20.11,0.5326835937500001,32.59
2021-06-23 15:17:08.859375000,29.0,-2.0,55.0,126.67140625,18.05,0.5326435625,32.59
2021-06-23 15:17:08.867187500,29.0,-2.0,55.0,126.671328125,15.595,0.53260353125,32.59
2021-06-23 15:17:08.875000000,29.0,-2.0,55.0,126.67125,13.14,0.5325635,32.59
2021-06-23 15:17:08.882812500,29.0,-2.0,55.0,126.671171875,10.56,0.53252346875,32.59
2021-06-23 15:17:08.890625000,29.0,-2.0,55.0,126.67109375,7.98,0.5324834375,32.59
2021-06-23 15:17:08.898437500,29.0,-2.0,55.0,126.671015625,5.640000000000001,0.53244340625,32.59
2021-06-23 15:17:08.906250000,29.0,-2.0,55.0,126.67093750000001,3.3,0.532403375,32.59
2021-06-23 15:17:08.914062500,29.0,-2.0,55.0,126.670859375,1.5099999999999998,0.53236334375,32.59
2021-06-23 15:17:08.921875000,29.0,-2.0,55.0,126.67078125,-0.28,0.5323233125,32.59
2021-06-23 15:17:08.929687500,29.0,-2.0,55.0,126.670703125,-1.41,0.53228328125,32.59
2021-06-23 15:17:08.937500000,29.0,-2.0,55.0,126.670625,-2.54,0.5322432500000001,32.59
2021-06-23 15:17:08.945312500,29.0,-1.75,55.0,126.670546875,-3.135,0.53220321875,32.59
2021-06-23 15:17:08.953125000,29.0,-1.5,55.0,126.67046875,-3.73,0.5321631875,32.59
2021-06-23 15:17:08.960937500,29.0,-1.25,55.0,126.670390625,-4.105,0.5321231562500001,32.59
2021-06-23 15:17:08.968750000,29.0,-1.0,55.0,126.67031250000001,-4.48,0.532083125,32.59
2021-06-23 15:17:08.976562500,29.0,-1.25,55.0,126.670234375,-5.01,0.53204309375,32.59
2021-06-23 15:17:08.984375000,29.0,-1.5,55.0,126.67015625,-5.54,0.5320030625000001,32.59
2021-06-23 15:17:08.992187500,29.0,-1.75,55.0,126.670078125,-6.5,0.53196303125,32.59
2021-06-23 15:17:09.000000000,29.0,-2.0,55.0,126.67,-7.46,0.531923,32.59
2021-06-23 15:17:09.007812500,29.0,-2.0,55.0,126.66984375,-8.955,0.53196303125,32.590625
2021-06-23 15:17:09.015625000,29.0,-2.0,55.0,126.6696875,-10.45,0.5320030625000001,32.59125
2021-06-23 15:17:09.023437500,29.0,-2.0,55.0,126.66953125,-12.434999999999999,0.53204309375,32.591875
2021-06-23 15:17:09.031250000,29.0,-2.0,55.0,126.669375,-14.42,0.532083125,32.5925
2021-06-23 15:17:09.039062500,29.0,-2.0,55.0,126.66921875,-16.78,0.5321231562500001,32.593125
2021-06-23 15:17:09.046875000,29.0,-2.0,55.0,126.6690625,-19.14,0.5321631875,32.59375
2021-06-23 15:17:09.054687500,29.0,-2.0,55.0,126.66890625,-21.755000000000003,0.53220321875,32.594375
2021-06-23 15:17:09.062500000,29.0,-2.0,55.0,126.66875,-24.37,0.5322432500000001,32.595
2021-06-23 15:17:09.070312500,29.0,-2.0,55.0,126.66859375,-27.12,0.53228328125,32.595625000000005
2021-06-23 15:17:09.078125000,29.0,-2.0,55.0,126.6684375,-29.87,0.5323233125,32.596250000000005
2021-06-23 15:17:09.085937500,29.0,-2.0,55.0,126.66828125,-32.56,0.53236334375,32.596875000000004
2021-06-23 15:17:09.093750000,29.0,-2.0,55.0,126.668125,-35.25,0.532403375,32.597500000000004
2021-06-23 15:17:09.101562500,29.0,-2.0,55.0,126.66796875,-37.55,0.53244340625,32.598125
2021-06-23 15:17:09.109375000,29.0,-2.0,55.0,126.6678125,-39.85,0.5324834375,32.59875
2021-06-23 15:17:09.117187500,29.0,-2.0,55.0,126.66765625000001,-41.269999999999996,0.53252346875,32.599375
2021-06-23 15:17:09.125000000,29.0,-2.0,55.0,126.6675,-42.69,0.5325635,32.6
2021-06-23 15:17:09.132812500,29.0,-1.75,55.0,126.66734375,-42.7,0.53260353125,32.600625
2021-06-23 15:17:09.140625000,29.0,-1.5,55.0,126.6671875,-42.71,0.5326435625,32.60125
2021-06-23 15:17:09.148437500,29.0,-1.25,55.0,126.66703125000001,-40.96,0.5326835937500001,32.601875
2021-06-23 15:17:09.156250000,29.0,-1.0,55.0,126.666875,-39.21,0.532723625,32.6025
2021-06-23 15:17:09.164062500,29.0,-1.0,55.0,126.66671875,-35.715,0.53276365625,32.603125
2021-06-23 15:17:09.171875000,29.0,-1.0,55.0,126.6665625,-32.22,0.5328036875000001,32.60375
2021-06-23 15:17:09.179687500,29.0,-1.0,55.0,126.66640625000001,-27.415,0.53284371875,32.604375
2021-06-23 15:17:09.187500000,29.0,-1.0,55.0,126.66625,-22.61,0.53288375,32.605000000000004
2021-06-23 15:17:09.195312500,29.25,-1.25,55.0,126.66609375,-17.259999999999998,0.5329237812500001,32.605625
2021-06-23 15:17:09.203125000,29.5,-1.5,55.0,126.6659375,-11.91,0.5329638125,32.60625
2021-06-23 15:17:09.210937500,29.75,-1.75,55.0,126.66578125000001,-6.825,0.53300384375,32.606875
2021-06-23 15:17:09.218750000,30.0,-2.0,55.0,126.665625,-1.74,0.5330438750000001,32.6075
2021-06-23 15:17:09.226562500,29.75,-2.0,55.0,126.66546875,2.4699999999999998,0.53308390625,32.608125
2021-06-23 15:17:09.234375000,29.5,-2.0,55.0,126.6653125,6.68,0.5331239375,32.60875
2021-06-23 15:17:09.242187500,29.25,-2.0,55.0,126.66515625000001,9.735,0.53316396875,32.609375
2021-06-23 15:17:09.250000000,29.0,-2.0,55.0,126.665,12.79,0.533204,32.61
2021-06-23 15:17:09.257812500,29.0,-1.75,55.0,126.66484375,14.725,0.53308390625,32.61
2021-06-23 15:17:09.265625000,29.0,-1.5,55.0,126.6646875,16.66,0.5329638125,32.61
2021-06-23 15:17:09.273437500,29.0,-1.25,55.0,126.66453125,17.67,0.53284371875,32.61
2021-06-23 15:17:09.281250000,29.0,-1.0,55.0,126.664375,18.68,0.532723625,32.61
2021-06-23 15:17:09.289062500,29.25,-1.25,55.0,126.66421875,18.965,0.53260353125,32.61
2021-06-23 15:17:09.296875000,29.5,-1.5,55.0,126.6640625,19.25,0.5324834375,32.61
2021-06-23 15:17:09.304687500,29.75,-1.75,55.0,126.66390625,18.92,0.53236334375,32.61
2021-06-23 15:17:09.312500000,30.0,-2.0,55.0,126.66375000000001,18.59,0.5322432500000001,32.61
2021-06-23 15:17:09.320312500,29.75,-1.75,55.0,126.66359375,17.72,0.53212315625,32.61
2021-06-23 15:17:09.328125000,29.5,-1.5,55.0,126.6634375,16.85,0.5320030625,32.61
2021-06-23 15:17:09.335937500,29.25,-1.25,55.0,126.66328125,15.525,0.53188296875,32.61
2021-06-23 15:17:09.343750000,29.0,-1.0,55.0,126.66312500000001,14.2,0.531762875,32.61
2021-06-23 15:17:09.351562500,29.0,-1.25,55.0,126.66296875,12.575,0.53164278125,32.61
2021-06-23 15:17:09.359375000,29.0,-1.5,55.0,126.6628125,10.95,0.5315226875,32.61
2021-06-23 15:17:09.367187500,29.0,-1.75,55.0,126.66265625,9.27,0.53140259375,32.61
2021-06-23 15:17:09.375000000,29.0,-2.0,55.0,126.66250000000001,7.59,0.5312825,32.61
2021-06-23 15:17:09.382812500,29.0,-1.75,55.0,126.66234375,6.085,0.53116240625,32.61
2021-06-23 15:17:09.390625000,29.0,-1.5,55.0,126.6621875,4.58,0.5310423125,32.61
2021-06-23 15:17:09.398437500,29.0,-1.25,55.0,126.66203125,3.435,0.53092221875,32.61
2021-06-23 15:17:09.406250000,29.0,-1.0,55.0,126.66187500000001,2.29,0.530802125,32.61
2021-06-23 15:17:09.414062500,29.0,-1.0,55.0,126.66171875,1.55,0.53068203125,32.61
2021-06-23 15:17:09.421875000,29.0,-1.0,55.0,126.6615625,0.81,0.5305619375,32.61
2021-06-23 15:17:09.429687500,29.0,-1.0,55.0,126.66140625,0.45,0.53044184375,32.61
2021-06-23 15:17:09.437500000,29.0,-1.0,55.0,126.66125000000001,0.09,0.5303217499999999,32.61
2021-06-23 15:17:09.445312500,29.0,-1.0,55.0,126.66109375,-0.0050000000000000044,0.5302016562499999,32.61
2021-06-23 15:17:09.453125000,29.0,-1.0,55.0,126.6609375,-0.1,0.5300815624999999,32.61
2021-06-23 15:17:09.460937500,29.0,-1.0,55.0,126.66078125,-0.07500000000000001,0.5299614687499999,32.61
2021-06-23 15:17:09.468750000,29.0,-1.0,55.0,126.66062500000001,-0.05,0.529841375,32.61
2021-06-23 15:17:09.476562500,29.0,-1.0,55.0,126.66046875,-0.135,0.52972128125,32.61
2021-06-23 15:17:09.484375000,29.0,-1.0,55.0,126.6603125,-0.22,0.5296011875,32.61
2021-06-23 15:17:09.492187500,29.0,-1.0,55.0,126.66015625,-0.705,0.52948109375,32.61
2021-06-23 15:17:09.500000000,29.0,-1.0,55.0,126.66,-1.19,0.529361,32.61
2021-06-23 15:17:09.507812500,29.0,-1.25,55.0,126.65984375000001,-2.42,0.52932096875,32.61
2021-06-23 15:17:09.515625000,29.0,-1.5,55.0,126.6596875,-3.65,0.5292809374999999,32.61
2021-06-23 15:17:09.523437500,29.0,-1.75,55.0,126.65953125,-5.904999999999999,0.52924090625,32.61
2021-06-23 15:17:09.531250000,29.0,-2.0,55.0,126.659375,-8.16,0.529200875,32.61
2021-06-23 15:17:09.539062500,29.0,-2.0,55.0,126.65921875000001,-11.440000000000001,0.5291608437499999,32.61
2021-06-23 15:17:09.546875000,29.0,-2.0,55.0,126.6590625,-14.72,0.5291208125,32.61
2021-06-23 15:17:09.554687500,29.0,-2.0,55.0,126.65890625,-18.665,0.52908078125,32.61
2021-06-23 15:17:09.562500000,29.0,-2.0,55.0,126.65875,-22.61,0.52904075,32.61
2021-06-23 15:17:09.570312500,29.0,-2.0,55.0,126.65859375000001,-26.465,0.52900071875,32.61
2021-06-23 15:17:09.578125000,29.0,-2.0,55.0,126.6584375,-30.32,0.5289606875,32.61
2021-06-23 15:17:09.585937500,29.0,-2.0,55.0,126.65828125,-33.144999999999996,0.52892065625,32.61
2021-06-23 15:17:09.593750000,29.0,-2.0,55.0,126.658125,-35.97,0.528880625,32.61
2021-06-23 15:17:09.601562500,29.0,-1.75,55.0,126.65796875000001,-36.95,0.52884059375,32.61
2021-06-23 15:17:09.609375000,29.0,-1.5,55.0,126.6578125,-37.93,0.5288005625,32.61
2021-06-23 15:17:09.617187500,29.0,-1.25,55.0,126.65765625,-36.68,0.52876053125,32.61
2021-06-23 15:17:09.625000000,29.0,-1.0,55.0,126.6575,-35.43,0.5287204999999999,32.61
2021-06-23 15:17:09.632812500,29.0,-1.0,55.0,126.65734375000001,-32.135,0.52868046875,32.61
2021-06-23 15:17:09.640625000,29.0,-1.0,55.0,126.6571875,-28.84,0.5286404375,32.61
2021-06-23 15:17:09.648437500,29.0,-1.0,55.0,126.65703125,-24.14,0.5286004062499999,32.61
2021-06-23 15:17:09.656250000,29.0,-1.0,55.0,126.656875,-19.44,0.528560375,32.61
2021-06-23 15:17:09.664062500,29.0,-1.25,55.0,126.65671875000001,-14.175,0.52852034375,32.61
2021-06-23 15:17:09.671875000,29.0,-1.5,55.0,126.6565625,-8.91,0.5284803124999999,32.61
2021-06-23 15:17:09.679687500,29.0,-1.75,55.0,126.65640625,-3.825,0.52844028125,32.61
2021-06-23 15:17:09.687500000,29.0,-2.0,55.0,126.65625,1.26,0.52840025,32.61
2021-06-23 15:17:09.695312500,29.0,-2.0,55.0,126.65609375000001,5.6899999999999995,0.5283602187499999,32.61
2021-06-23 15:17:09.703125000,29.0,-2.0,55.0,126.65593750000001,10.12,0.5283201875,32.61
2021-06-23 15:17:09.710937500,29.0,-2.0,55.0,126.65578125,13.695,0.52828015625,32.61
2021-06-23 15:17:09.718750000,29.0,-2.0,55.0,126.655625,17.27,0.528240125,32.61
2021-06-23 15:17:09.726562500,29.0,-1.75,55.0,126.65546875000001,19.95,0.52820009375,32.61
2021-06-23 15:17:09.734375000,29.0,-1.5,55.0,126.65531250000001,22.63,0.5281600625,32.61
2021-06-23 15:17:09.742187500,29.0,-1.25,55.0,126.65515625,24.439999999999998,0.52812003125,32.61
2021-06-23 15:17:09.750000000,29.0,-1.0,55.0,126.655,26.25,0.52808,32.61
2021-06-23 15:17:09.757812500,29.0,-1.0,55.0,126.65484375,27.189999999999998,0.5279999375,32.61
2021-06-23 15:17:09.765625000,29.0,-1.0,55.0,126.65468750000001,28.13,0.527919875,32.61
2021-06-23 15:17:09.773437500,29.0,-1.0,55.0,126.65453125,28.244999999999997,0.5278398125,32.61
2021-06-23 15:17:09.781250000,29.0,-1.0,55.0,126.654375,28.36,0.52775975,32.61
2021-06-23 15:17:09.789062500,29.0,-1.25,55.0,126.65421875,27.72,0.5276796875,32.61
2021-06-23 15:17:09.796875000,29.0,-1.5,55.0,126.65406250000001,27.08,0.527599625,32.61
2021-06-23 15:17:09.804687500,29.0,-1.75,55.0,126.65390625,25.86,0.5275195625,32.61
2021-06-23 15:17:09.812500000,29.0,-2.0,55.0,126.65375,24.64,0.5274395000000001,32.61
2021-06-23 15:17:09.820312500,29.0,-2.0,55.0,126.65359375,23.08,0.5273594375,32.61
2021-06-23 15:17:09.828125000,29.0,-2.0,55.0,126.65343750000001,21.52,0.527279375,32.61
2021-06-23 15:17:09.835937500,29.0,-2.0,55.0,126.65328125,19.865000000000002,0.5271993125,32.61
2021-06-23 15:17:09.843750000,29.0,-2.0,55.0,126.653125,18.21,0.52711925,32.61
2021-06-23 15:17:09.851562500,29.0,-1.75,55.0,126.65296875,16.675,0.5270391875,32.61
2021-06-23 15:17:09.859375000,29.0,-1.5,55.0,126.65281250000001,15.14,0.526959125,32.61
2021-06-23 15:17:09.867187500,29.0,-1.25,55.0,126.65265625,13.89,0.5268790625,32.61
2021-06-23 15:17:09.875000000,29.0,-1.0,55.0,126.6525,12.64,0.526799,32.61
2021-06-23 15:17:09.882812500,29.0,-1.25,55.0,126.65234375,11.74,0.5267189375,32.61
2021-06-23 15:17:09.890625000,29.0,-1.5,55.0,126.65218750000001,10.84,0.5266388750000001,32.61
2021-06-23 15:17:09.898437500,29.0,-1.75,55.0,126.65203125000001,10.254999999999999,0.5265588125,32.61
2021-06-23 15:17:09.906250000,29.0,-2.0,55.0,126.651875,9.67,0.52647875,32.61
2021-06-23 15:17:09.914062500,29.0,-2.0,55.0,126.65171875,9.275,0.5263986875000001,32.61
2021-06-23 15:17:09.921875000,29.0,-2.0,55.0,126.65156250000001,8.88,0.526318625,32.61
2021-06-23 15:17:09.929687500,29.0,-2.0,55.0,126.65140625000001,8.475000000000001,0.5262385625,32.61
2021-06-23 15:17:09.937500000,29.0,-2.0,55.0,126.65125,8.07,0.5261585,32.61
2021-06-23 15:17:09.945312500,29.0,-2.0,55.0,126.65109375,7.42,0.5260784375,32.61
2021-06-23 15:17:09.953125000,29.0,-2.0,55.0,126.65093750000001,6.77,0.525998375,32.61
2021-06-23 15:17:09.960937500,29.0,-2.0,55.0,126.65078125000001,5.66,0.5259183125,32.61
2021-06-23 15:17:09.968750000,29.0,-2.0,55.0,126.650625,4.55,0.5258382500000001,32.61
2021-06-23 15:17:09.976562500,29.0,-2.0,55.0,126.65046875,2.82,0.5257581875,32.61
2021-06-23 15:17:09.984375000,29.0,-2.0,55.0,126.65031250000001,1.09,0.525678125,32.61
2021-06-23 15:17:09.992187500,29.0,-2.0,55.0,126.65015625000001,-1.3299999999999998,0.5255980625000001,32.61
2021-06-23 15:17:10.000000000,29.0,-2.0,55.0,126.65,-3.75,0.525518,32.61
2021-06-23 15:17:10.007812500,29.0,-2.0,55.0,126.64984375,-6.805,0.52555803125,32.61
2021-06-23 15:17:10.015625000,29.0,-2.0,55.0,126.6496875,-9.86,0.5255980625000001,32.61
2021-06-23 15:17:10.023437500,29.0,-2.0,55.0,126.64953125000001,-13.355,0.52563809375,32.61
2021-06-23 15:17:10.031250000,29.0,-2.0,55.0,126.649375,-16.85,0.525678125,32.61
2021-06-23 15:17:10.039062500,29.0,-2.0,55.0,126.64921875,-20.395000000000003,0.5257181562500001,32.61
2021-06-23 15:17:10.046875000,29.0,-2.0,55.0,126.6490625,-23.94,0.5257581875,32.61
2021-06-23 15:17:10.054687500,29.0,-2.0,55.0,126.64890625000001,-26.945,0.52579821875,32.61
2021-06-23 15:17:10.062500000,29.0,-2.0,55.0,126.64875,-29.95,0.5258382500000001,32.61
2021-06-23 15:17:10.070312500,29.0,-2.0,55.0,126.64859375,-31.695,0.52587828125,32.61
2021-06-23 15:17:10.078125000,29.0,-2.0,55.0,126.6484375,-33.44,0.5259183125,32.61
2021-06-23 15:17:10.085937500,29.0,-2.0,55.0,126.64828125000001,-33.275,0.5259583437500001,32.61
2021-06-23 15:17:10.093750000,29.0,-2.0,55.0,126.64812500000001,-33.11,0.525998375,32.61
2021-06-23 15:17:10.101562500,29.0,-2.0,55.0,126.64796875,-30.685000000000002,0.52603840625,32.61
2021-06-23 15:17:10.109375000,29.0,-2.0,55.0,126.6478125,-28.26,0.5260784375,32.61
2021-06-23 15:17:10.117187500,29.0,-2.0,55.0,126.64765625000001,-23.72,0.52611846875,32.61
2021-06-23 15:17:10.125000000,29.0,-2.0,55.0,126.64750000000001,-19.18,0.5261585,32.61
2021-06-23 15:17:10.132812500,29.0,-2.0,55.0,126.64734375,-13.2,0.52619853125,32.61
2021-06-23 15:17:10.140625000,29.0,-2.0,55.0,126.6471875,-7.22,0.5262385625,32.61
2021-06-23 15:17:10.148437500,29.0,-2.0,55.0,126.64703125,-0.8549999999999995,0.5262785937500001,32.61
2021-06-23 15:17:10.156250000,29.0,-2.0,55.0,126.64687500000001,5.51,0.526318625,32.61
2021-06-23 15:17:10.164062500,29.0,-2.0,55.0,126.64671875,11.16,0.52635865625,32.61
2021-06-23 15:17:10.171875000,29.0,-2.0,55.0,126.6465625,16.81,0.5263986875000001,32.61
2021-06-23 15:17:10.179687500,29.0,-2.0,55.0,126.64640625,20.93,0.52643871875,32.61
2021-06-23 15:17:10.187500000,29.0,-2.0,55.0,126.64625000000001,25.05,0.52647875,32.61
2021-06-23 15:17:10.195312500,29.0,-1.75,55.0,126.64609375,27.325000000000003,0.5265187812500001,32.61
2021-06-23 15:17:10.203125000,29.0,-1.5,55.0,126.6459375,29.6,0.5265588125,32.61
2021-06-23 15:17:10.210937500,29.0,-1.25,55.0,126.64578125,30.18,0.52659884375,32.61
2021-06-23 15:17:10.218750000,29.0,-1.0,55.0,126.64562500000001,30.76,0.5266388750000001,32.61
2021-06-23 15:17:10.226562500,29.0,-1.0,55.0,126.64546875,30.095,0.52667890625,32.61
2021-06-23 15:17:10.234375000,29.0,-1.0,55.0,126.6453125,29.43,0.5267189375,32.61
2021-06-23 15:17:10.242187500,29.0,-1.0,55.0,126.64515625,28.035,0.5267589687500001,32.61
2021-06-23 15:17:10.250000000,29.0,-1.0,55.0,126.64500000000001,26.64,0.526799,32.61
2021-06-23 15:17:10.257812500,29.0,-1.25,55.0,126.64484375,24.895,0.5267189375,32.61
2021-06-23 15:17:10.265625000,29.0,-1.5,55.0,126.6446875,23.15,0.5266388750000001,32.61
2021-06-23 15:17:10.273437500,29.0,-1.75,55.0,126.64453125,21.285,0.5265588125,32.61
2021-06-23 15:17:10.281250000,29.0,-2.0,55.0,126.644375,19.42,0.52647875,32.61
2021-06-23 15:17:10.289062500,29.0,-2.0,55.0,126.64421875000001,17.555,0.5263986875,32.61
2021-06-23 15:17:10.296875000,29.0,-2.0,55.0,126.6440625,15.69,0.526318625,32.61
2021-06-23 15:17:10.304687500,29.0,-2.0,55.0,126.64390625,13.975,0.5262385625,32.61
2021-06-23 15:17:10.312500000,29.0,-2.0,55.0,126.64375,12.26,0.5261585,32.61
2021-06-23 15:17:10.320312500,29.0,-1.75,55.0,126.64359375000001,10.870000000000001,0.5260784375,32.61
2021-06-23 15:17:10.328125000,29.0,-1.5,55.0,126.6434375,9.48,0.525998375,32.61
2021-06-23 15:17:10.335937500,29.0,-1.25,55.0,126.64328125,8.615,0.5259183125,32.61
2021-06-23 15:17:10.343750000,29.0,-1.0,55.0,126.643125,7.75,0.52583825,32.61
2021-06-23 15:17:10.351562500,29.0,-1.25,55.0,126.64296875000001,7.48,0.5257581875,32.61
2021-06-23 15:17:10.359375000,29.0,-1.5,55.0,126.6428125,7.21,0.525678125,32.61
2021-06-23 15:17:10.367187500,29.0,-1.75,55.0,126.64265625,7.4350000000000005,0.5255980625,32.61
2021-06-23 15:17:10.375000000,29.0,-2.0,55.0,126.6425,7.66,0.5255179999999999,32.61
2021-06-23 15:17:10.382812500,29.0,-2.0,55.0,126.64234375,8.075,0.5254379375,32.61
2021-06-23 15:17:10.390625000,29.0,-2.0,55.0,126.6421875,8.49,0.525357875,32.61
2021-06-23 15:17:10.398437500,29.0,-2.0,55.0,126.64203125,8.719999999999999,0.5252778124999999,32.61
2021-06-23 15:17:10.406250000,29.0,-2.0,55.0,126.641875,8.95,0.52519775,32.61
2021-06-23 15:17:10.414062500,29.0,-2.0,55.0,126.64171875,8.67,0.5251176875,32.61
2021-06-23 15:17:10.421875000,29.0,-2.0,55.0,126.6415625,8.39,0.525037625,32.61
2021-06-23 15:17:10.429687500,29.0,-2.0,55.0,126.64140625,7.4350000000000005,0.5249575624999999,32.61
2021-06-23 15:17:10.437500000,29.0,-2.0,55.0,126.64125,6.48,0.5248775,32.61
2021-06-23 15:17:10.445312500,29.0,-2.0,55.0,126.64109375,4.84,0.5247974375,32.61
2021-06-23 15:17:10.453125000,29.0,-2.0,55.0,126.6409375,3.2,0.5247173749999999,32.61
2021-06-23 15:17:10.460937500,29.0,-2.0,55.0,126.64078125,0.9550000000000001,0.5246373125,32.61
2021-06-23 15:17:10.468750000,29.0,-2.0,55.0,126.640625,-1.29,0.52455725,32.61
2021-06-23 15:17:10.476562500,29.0,-2.0,55.0,126.64046875,-4.029999999999999,0.5244771874999999,32.61
2021-06-23 15:17:10.484375000,29.0,-2.0,55.0,126.64031250000001,-6.77,0.5243971249999999,32.61
2021-06-23 15:17:10.492187500,29.0,-2.0,55.0,126.64015625,-9.875,0.5243170625,32.61
2021-06-23 15:17:10.500000000,29.0,-2.0,55.0,126.64,-12.98,0.524237,32.61
2021-06-23 15:17:10.507812500,29.0,-2.0,55.0,126.63984375,-16.245,0.5243170625,32.61
2021-06-23 15:17:10.515625000,29.0,-2.0,55.0,126.6396875,-19.51,0.5243971249999999,32.61
2021-06-23 15:17:10.523437500,29.0,-2.0,55.0,126.63953125,-22.54,0.5244771874999999,32.61
2021-06-23 15:17:10.531250000,29.0,-2.0,55.0,126.639375,-25.57,0.52455725,32.61
2021-06-23 15:17:10.539062500,29.0,-2.0,55.0,126.63921875,-27.805,0.5246373125,32.61
2021-06-23 15:17:10.546875000,29.0,-2.0,55.0,126.6390625,-30.04,0.5247173749999999,32.61
2021-06-23 15:17:10.554687500,29.0,-2.0,55.0,126.63890625,-30.884999999999998,0.5247974375,32.61
2021-06-23 15:17:10.562500000,29.0,-2.0,55.0,126.63875,-31.73,0.5248775,32.61
2021-06-23 15:17:10.570312500,29.0,-2.0,55.0,126.63859375,-30.759999999999998,0.5249575624999999,32.61
2021-06-23 15:17:10.578125000,29.0,-2.0,55.0,126.6384375,-29.79,0.525037625,32.61
2021-06-23 15:17:10.585937500,29.0,-2.0,55.0,126.63828125,-27.009999999999998,0.5251176875,32.61
2021-06-23 15:17:10.593750000,29.0,-2.0,55.0,126.638125,-24.23,0.52519775,32.61
2021-06-23 15:17:10.601562500,29.0,-2.0,55.0,126.63796875,-20.095,0.5252778124999999,32.61
2021-06-23 15:17:10.609375000,29.0,-2.0,55.0,126.6378125,-15.96,0.525357875,32.61
2021-06-23 15:17:10.617187500,29.0,-2.0,55.0,126.63765625,-11.22,0.5254379375,32.61
2021-06-23 15:17:10.625000000,29.0,-2.0,55.0,126.6375,-6.48,0.5255179999999999,32.61
2021-06-23 15:17:10.632812500,29.0,-2.0,55.0,126.63734375,-1.915,0.5255980625,32.61
2021-06-23 15:17:10.640625000,29.0,-2.0,55.0,126.6371875,2.65,0.525678125,32.61
2021-06-23 15:17:10.648437500,29.0,-2.0,55.0,126.63703124999999,6.475,0.5257581875,32.61
2021-06-23 15:17:10.656250000,29.0,-2.0,55.0,126.636875,10.3,0.52583825,32.61
2021-06-23 15:17:10.664062500,29.0,-2.0,55.0,126.63671875,13.15,0.5259183125,32.61
2021-06-23 15:17:10.671875000,29.0,-2.0,55.0,126.6365625,16.0,0.525998375,32.61
2021-06-23 15:17:10.679687500,29.0,-2.0,55.0,126.63640625,17.884999999999998,0.5260784375,32.61
2021-06-23 15:17:10.687500000,29.0,-2.0,55.0,126.63625,19.77,0.5261585,32.61
2021-06-23 15:17:10.695312500,28.75,-1.75,55.0,126.63609375,20.759999999999998,0.5262385625,32.61
2021-06-23 15:17:10.703125000,28.5,-1.5,55.0,126.6359375,21.75,0.526318625,32.61
2021-06-23 15:17:10.710937500,28.25,-1.25,55.0,126.63578125,21.884999999999998,0.5263986875,32.61
2021-06-23 15:17:10.718750000,28.0,-1.0,55.0,126.635625,22.02,0.52647875,32.61
2021-06-23 15:17:10.726562500,28.25,-1.25,55.0,126.63546875,21.28,0.5265588125,32.61
2021-06-23 15:17:10.734375000,28.5,-1.5,55.0,126.6353125,20.54,0.5266388750000001,32.61
2021-06-23 15:17:10.742187500,28.75,-1.75,55.0,126.63515625,18.96,0.5267189375,32.61
2021-06-23 15:17:10.750000000,29.0,-2.0,55.0,126.63499999999999,17.38,0.526799,32.61
2021-06-23 15:17:10.757812500,29.0,-2.0,55.0,126.63484375,15.17,0.52663884375,32.61
2021-06-23 15:17:10.765625000,29.0,-2.0,55.0,126.6346875,12.96,0.5264786875,32.61
2021-06-23 15:17:10.773437500,29.0,-2.0,55.0,126.63453125,10.485,0.52631853125,32.61
2021-06-23 15:17:10.781250000,29.0,-2.0,55.0,126.63437499999999,8.01,0.5261583750000001,32.61
2021-06-23 15:17:10.789062500,29.0,-1.75,55.0,126.63421875,5.71,0.52599821875,32.61
2021-06-23 15:17:10.796875000,29.0,-1.5,55.0,126.6340625,3.41,0.5258380625,32.61
2021-06-23 15:17:10.804687500,29.0,-1.25,55.0,126.63390625,1.6500000000000001,0.52567790625,32.61
2021-06-23 15:17:10.812500000,29.0,-1.0,55.0,126.63374999999999,-0.11,0.52551775,32.61
2021-06-23 15:17:10.820312500,29.0,-1.0,55.0,126.63359375,-1.1700000000000002,0.52535759375,32.61
2021-06-23 15:17:10.828125000,29.0,-1.0,55.0,126.6334375,-2.23,0.5251974375,32.61
2021-06-23 15:17:10.835937500,29.0,-1.0,55.0,126.63328125,-2.67,0.52503728125,32.61
2021-06-23 15:17:10.843750000,29.0,-1.0,55.0,126.63312499999999,-3.11,0.5248771249999999,32.61
2021-06-23 15:17:10.851562500,29.0,-1.25,55.0,126.63296875,-3.16,0.52471696875,32.61
2021-06-23 15:17:10.859375000,29.0,-1.5,55.0,126.6328125,-3.21,0.5245568125,32.61
2021-06-23 15:17:10.867187500,29.0,-1.75,55.0,126.63265625,-3.17,0.52439665625,32.61
2021-06-23 15:17:10.875000000,29.0,-2.0,55.0,126.6325,-3.13,0.5242365,32.61
2021-06-23 15:17:10.882812500,29.0,-2.0,55.0,126.63234374999999,-3.235,0.52407634375,32.61
2021-06-23 15:17:10.890625000,29.0,-2.0,55.0,126.6321875,-3.34,0.5239161875,32.61
2021-06-23 15:17:10.898437500,29.0,-2.0,55.0,126.63203125,-3.755,0.52375603125,32.61
2021-06-23 15:17:10.906250000,29.0,-2.0,55.0,126.631875,-4.17,0.523595875,32.61
2021-06-23 15:17:10.914062500,29.0,-2.0,55.0,126.63171874999999,-4.99,0.52343571875,32.61
2021-06-23 15:17:10.921875000,29.0,-2.0,55.0,126.6315625,-5.81,0.5232755625,32.61
2021-06-23 15:17:10.929687500,29.0,-2.0,55.0,126.63140625,-7.115,0.52311540625,32.61
2021-06-23 15:17:10.937500000,29.0,-2.0,55.0,126.63125,-8.42,0.52295525,32.61
2021-06-23 15:17:10.945312500,29.0,-1.75,55.0,126.63109374999999,-10.295,0.52279509375,32.61
2021-06-23 15:17:10.953125000,29.0,-1.5,55.0,126.6309375,-12.17,0.5226349375,32.61
2021-06-23 15:17:10.960937500,29.0,-1.25,55.0,126.63078125,-14.655000000000001,0.52247478125,32.61
2021-06-23 15:17:10.968750000,29.0,-1.0,55.0,126.630625,-17.14,0.5223146249999999,32.61
2021-06-23 15:17:10.976562500,29.0,-1.25,55.0,126.63046874999999,-20.130000000000003,0.5221544687499999,32.61
2021-06-23 15:17:10.984375000,29.0,-1.5,55.0,126.6303125,-23.12,0.5219943125,32.61
2021-06-23 15:17:10.992187500,29.0,-1.75,55.0,126.63015625,-26.265,0.52183415625,32.61
2021-06-23 15:17:11.000000000,29.0,-2.0,55.0,126.63,-29.41,0.521674,32.61
2021-06-23 15:17:11.007812500,29.0,-2.0,55.0,126.629921875,-32.1,0.5217140625,32.61
2021-06-23 15:17:11.015625000,29.0,-2.0,55.0,126.62984374999999,-34.79,0.521754125,32.61
2021-06-23 15:17:11.023437500,29.0,-2.0,55.0,126.62976562499999,-36.3,0.5217941875,32.61
2021-06-23 15:17:11.031250000,29.0,-2.0,55.0,126.62968749999999,-37.81,0.5218342499999999,32.61
2021-06-23 15:17:11.039062500,29.0,-2.0,55.0,126.629609375,-37.545,0.5218743124999999,32.61
2021-06-23 15:17:11.046875000,29.0,-2.0,55.0,126.62953125,-37.28,0.5219143749999999,32.61
2021-06-23 15:17:11.054687500,29.0,-2.0,55.0,126.629453125,-35.045,0.5219544374999999,32.61
2021-06-23 15:17:11.062500000,29.0,-2.0,55.0,126.629375,-32.81,0.5219944999999999,32.61
2021-06-23 15:17:11.070312500,29.0,-2.0,55.0,126.629296875,-28.880000000000003,0.5220345625,32.61
2021-06-23 15:17:11.078125000,29.0,-2.0,55.0,126.62921874999999,-24.95,0.522074625,32.61
2021-06-23 15:17:11.085937500,29.0,-2.0,55.0,126.62914062499999,-20.035,0.5221146875,32.61
2021-06-23 15:17:11.093750000,29.0,-2.0,55.0,126.6290625,-15.12,0.52215475,32.61
2021-06-23 15:17:11.101562500,28.75,-2.0,55.0,126.628984375,-10.04,0.5221948125,32.61
2021-06-23 15:17:11.109375000,28.5,-2.0,55.0,126.62890625,-4.96,0.522234875,32.61
2021-06-23 15:17:11.117187500,28.25,-2.0,55.0,126.628828125,-0.4249999999999998,0.5222749375,32.61
2021-06-23 15:17:11.125000000,28.0,-2.0,55.0,126.62875,4.11,0.522315,32.61
2021-06-23 15:17:11.132812500,28.25,-2.0,55.0,126.628671875,7.720000000000001,0.5223550625,32.61
2021-06-23 15:17:11.140625000,28.5,-2.0,55.0,126.62859375,11.33,0.522395125,32.61
2021-06-23 15:17:11.148437500,28.75,-2.0,55.0,126.62851562499999,13.91,0.5224351875,32.61
2021-06-23 15:17:11.156250000,29.0,-2.0,55.0,126.62843749999999,16.49,0.52247525,32.61
2021-06-23 15:17:11.164062500,29.0,-1.75,55.0,126.628359375,18.085,0.5225153124999999,32.61
2021-06-23 15:17:11.171875000,29.0,-1.5,55.0,126.62828125,19.68,0.5225553749999999,32.61
2021-06-23 15:17:11.179687500,29.0,-1.25,55.0,126.628203125,20.32,0.5225954374999999,32.61
2021-06-23 15:17:11.187500000,29.0,-1.0,55.0,126.628125,20.96,0.5226355,32.61
2021-06-23 15:17:11.195312500,29.0,-1.25,55.0,126.628046875,20.630000000000003,0.5226755625,32.61
2021-06-23 15:17:11.203125000,29.0,-1.5,55.0,126.62796875,20.3,0.522715625,32.61
2021-06-23 15:17:11.210937500,29.0,-1.75,55.0,126.62789062499999,19.0,0.5227556875,32.61
2021-06-23 15:17:11.218750000,29.0,-2.0,55.0,126.6278125,17.7,0.52279575,32.61
2021-06-23 15:17:11.226562500,29.0,-2.0,55.0,126.627734375,15.545,0.5228358125,32.61
2021-06-23 15:17:11.234375000,29.0,-2.0,55.0,126.62765625,13.39,0.522875875,32.61
2021-06-23 15:17:11.242187500,29.0,-2.0,55.0,126.627578125,10.68,0.5229159375,32.61
2021-06-23 15:17:11.250000000,29.0,-2.0,55.0,126.6275,7.97,0.522956,32.61
2021-06-23 15:17:11.257812500,29.0,-2.0,55.0,126.627421875,5.135,0.522956,32.61
2021-06-23 15:17:11.265625000,29.0,-2.0,55.0,126.62734375,2.3,0.522956,32.61
2021-06-23 15:17:11.273437500,29.0,-2.0,55.0,126.62726562499999,-0.2450000000000001,0.522956,32.61
2021-06-23 15:17:11.281250000,29.0,-2.0,55.0,126.62718749999999,-2.79,0.522956,32.61
2021-06-23 15:17:11.289062500,28.75,-2.0,55.0,126.627109375,-4.77,0.522956,32.61
2021-06-23 15:17:11.296875000,28.5,-2.0,55.0,126.62703125,-6.75,0.522956,32.61
2021-06-23 15:17:11.304687500,28.25,-2.0,55.0,126.626953125,-8.08,0.522956,32.61
2021-06-23 15:17:11.312500000,28.0,-2.0,55.0,126.626875,-9.41,0.522956,32.61
2021-06-23 15:17:11.320312500,28.25,-2.0,55.0,126.626796875,-10.190000000000001,0.522956,32.61
2021-06-23 15:17:11.328125000,28.5,-2.0,55.0,126.62671875,-10.97,0.522956,32.61
2021-06-23 15:17:11.335937500,28.75,-2.0,55.0,126.626640625,-11.42,0.522956,32.61
2021-06-23 15:17:11.343750000,29.0,-2.0,55.0,126.6265625,-11.87,0.522956,32.61
2021-06-23 15:17:11.351562500,29.0,-2.0,55.0,126.626484375,-12.239999999999998,0.522956,32.61
2021-06-23 15:17:11.359375000,29.0,-2.0,55.0,126.62640625,-12.61,0.522956,32.61
2021-06-23 15:17:11.367187500,29.0,-2.0,55.0,126.626328125,-13.155,0.522956,32.61
2021-06-23 15:17:11.375000000,29.0,-2.0,55.0,126.62625,-13.7,0.522956,32.61
2021-06-23 15:17:11.382812500,29.0,-2.0,55.0,126.626171875,-14.614999999999998,0.522956,32.61
2021-06-23 15:17:11.390625000,29.0,-2.0,55.0,126.62609375,-15.53,0.522956,32.61
2021-06-23 15:17:11.398437500,29.0,-2.0,55.0,126.626015625,-17.005,0.522956,32.61
2021-06-23 15:17:11.406250000,29.0,-2.0,55.0,126.62593749999999,-18.48,0.522956,32.61
2021-06-23 15:17:11.414062500,29.0,-2.0,55.0,126.625859375,-20.59,0.522956,32.61
2021-06-23 15:17:11.421875000,29.0,-2.0,55.0,126.62578125,-22.7,0.522956,32.61
2021-06-23 15:17:11.429687500,29.0,-2.0,55.0,126.625703125,-25.4,0.522956,32.61
2021-06-23 15:17:11.437500000,29.0,-2.0,55.0,126.625625,-28.1,0.522956,32.61
2021-06-23 15:17:11.445312500,29.0,-2.0,55.0,126.625546875,-31.135,0.522956,32.61
2021-06-23 15:17:11.453125000,29.0,-2.0,55.0,126.62546875,-34.17,0.522956,32.61
2021-06-23 15:17:11.460937500,29.0,-2.0,55.0,126.625390625,-37.06,0.522956,32.61
2021-06-23 15:17:11.468750000,29.0,-2.0,55.0,126.6253125,-39.95,0.522956,32.61
2021-06-23 15:17:11.476562500,29.0,-2.0,55.0,126.625234375,-42.06,0.522956,32.61
2021-06-23 15:17:11.484375000,29.0,-2.0,55.0,126.62515625,-44.17,0.522956,32.61
2021-06-23 15:17:11.492187500,29.0,-2.0,55.0,126.625078125,-44.89,0.522956,32.61
2021-06-23 15:17:11.500000000,29.0,-2.0,55.0,126.625,-45.61,0.522956,32.61
2021-06-23 15:17:11.507812500,29.0,-2.0,55.0,126.624921875,-44.519999999999996,0.522835875,32.61
2021-06-23 15:17:11.515625000,29.0,-2.0,55.0,126.62484375,-43.43,0.5227157499999999,32.61
2021-06-23 15:17:11.523437500,29.0,-2.0,55.0,126.624765625,-40.5,0.522595625,32.61
2021-06-23 15:17:11.531250000,29.0,-2.0,55.0,126.6246875,-37.57,0.5224755,32.61
2021-06-23 15:17:11.539062500,29.0,-2.0,55.0,126.624609375,-33.18,0.522355375,32.61
2021-06-23 15:17:11.546875000,29.0,-2.0,55.0,126.62453125,-28.79,0.52223525,32.61
2021-06-23 15:17:11.554687500,29.0,-2.0,55.0,126.624453125,-23.65,0.522115125,32.61
2021-06-23 15:17:11.562500000,29.0,-2.0,55.0,126.624375,-18.51,0.521995,32.61
2021-06-23 15:17:11.570312500,29.0,-2.0,55.0,126.624296875,-13.440000000000001,0.521874875,32.61
2021-06-23 15:17:11.578125000,29.0,-2.0,55.0,126.62421875,-8.37,0.5217547499999999,32.61
2021-06-23 15:17:11.585937500,29.0,-2.0,55.0,126.624140625,-4.05,0.521634625,32.61
2021-06-23 15:17:11.593750000,29.0,-2.0,55.0,126.62406250000001,0.27,0.5215145,32.61
2021-06-23 15:17:11.601562500,29.0,-2.0,55.0,126.623984375,3.48,0.521394375,32.61
2021-06-23 15:17:11.609375000,29.0,-2.0,55.0,126.62390625,6.69,0.52127425,32.61
2021-06-23 15:17:11.617187500,29.0,-2.0,55.0,126.623828125,8.78,0.521154125,32.61
2021-06-23 15:17:11.625000000,29.0,-2.0,55.0,126.62375,10.87,0.521034,32.61
2021-06-23 15:17:11.632812500,29.0,-2.0,55.0,126.623671875,12.065,0.520913875,32.61
2021-06-23 15:17:11.640625000,29.0,-2.0,55.0,126.62359375,13.26,0.5207937499999999,32.61
2021-06-23 15:17:11.648437500,29.0,-2.0,55.0,126.623515625,13.85,0.520673625,32.61
2021-06-23 15:17:11.656250000,29.0,-2.0,55.0,126.6234375,14.44,0.5205535,32.61
2021-06-23 15:17:11.664062500,29.0,-2.0,55.0,126.623359375,14.64,0.520433375,32.61
2021-06-23 15:17:11.671875000,29.0,-2.0,55.0,126.62328125,14.84,0.5203132500000001,32.61
2021-06-23 15:17:11.679687500,29.0,-2.0,55.0,126.623203125,14.7,0.520193125,32.61
2021-06-23 15:17:11.687500000,29.0,-2.0,55.0,126.623125,14.56,0.520073,32.61
2021-06-23 15:17:11.695312500,29.0,-2.0,55.0,126.623046875,14.030000000000001,0.519952875,32.61
2021-06-23 15:17:11.703125000,29.0,-2.0,55.0,126.62296875,13.5,0.51983275,32.61
2021-06-23 15:17:11.710937500,29.0,-2.0,55.0,126.622890625,12.530000000000001,0.519712625,32.61
2021-06-23 15:17:11.718750000,29.0,-2.0,55.0,126.62281250000001,11.56,0.5195925,32.61
2021-06-23 15:17:11.726562500,29.0,-2.0,55.0,126.62273437500001,10.21,0.519472375,32.61
2021-06-23 15:17:11.734375000,29.0,-2.0,55.0,126.62265625,8.86,0.5193522500000001,32.61
2021-06-23 15:17:11.742187500,29.0,-2.0,55.0,126.622578125,7.35,0.519232125,32.61
2021-06-23 15:17:11.750000000,29.0,-2.0,55.0,126.6225,5.84,0.519112,32.61
2021-06-23 15:17:11.757812500,29.0,-1.75,55.0,126.622421875,4.455,0.519232125,32.61
2021-06-23 15:17:11.765625000,29.0,-1.5,55.0,126.62234375,3.07,0.5193522500000001,32.61
2021-06-23 15:17:11.773437500,29.0,-1.25,55.0,126.622265625,2.07,0.519472375,32.61
2021-06-23 15:17:11.781250000,29.0,-1.0,55.0,126.6221875,1.07,0.5195925,32.61
2021-06-23 15:17:11.789062500,29.0,-1.0,55.0,126.62210937500001,0.525,0.519712625,32.61
2021-06-23 15:17:11.796875000,29.0,-1.0,55.0,126.62203125,-0.02,0.51983275,32.61
2021-06-23 15:17:11.804687500,29.0,-1.0,55.0,126.621953125,-0.22499999999999998,0.519952875,32.61
2021-06-23 15:17:11.812500000,29.0,-1.0,55.0,126.621875,-0.43,0.520073,32.61
2021-06-23 15:17:11.820312500,29.0,-1.25,55.25,126.621796875,-0.575,0.520193125,32.61
2021-06-23 15:17:11.828125000,29.0,-1.5,55.5,126.62171875,-0.72,0.5203132500000001,32.61
2021-06-23 15:17:11.835937500,29.0,-1.75,55.75,126.621640625,-1.105,0.520433375,32.61
2021-06-23 15:17:11.843750000,29.0,-2.0,56.0,126.62156250000001,-1.49,0.5205535,32.61
2021-06-23 15:17:11.851562500,29.0,-2.0,55.75,126.62148437500001,-2.31,0.520673625,32.61
2021-06-23 15:17:11.859375000,29.0,-2.0,55.5,126.62140625,-3.13,0.5207937499999999,32.61
2021-06-23 15:17:11.867187500,29.0,-2.0,55.25,126.621328125,-4.465,0.520913875,32.61
2021-06-23 15:17:11.875000000,29.0,-2.0,55.0,126.62125,-5.8,0.521034,32.61
2021-06-23 15:17:11.882812500,29.0,-2.0,54.75,126.621171875,-7.615,0.521154125,32.61
2021-06-23 15:17:11.890625000,29.0,-2.0,54.5,126.62109375,-9.43,0.52127425,32.61
2021-06-23 15:17:11.898437500,29.0,-2.0,54.25,126.621015625,-11.66,0.521394375,32.61
2021-06-23 15:17:11.906250000,29.0,-2.0,54.0,126.6209375,-13.89,0.5215145,32.61
2021-06-23 15:17:11.914062500,29.0,-2.0,54.25,126.62085937500001,-16.43,0.521634625,32.61
2021-06-23 15:17:11.921875000,29.0,-2.0,54.5,126.62078125000001,-18.97,0.5217547499999999,32.61
2021-06-23 15:17:11.929687500,29.0,-2.0,54.75,126.620703125,-21.625,0.521874875,32.61
2021-06-23 15:17:11.937500000,29.0,-2.0,55.0,126.620625,-24.28,0.521995,32.61
2021-06-23 15:17:11.945312500,29.0,-2.0,55.0,126.620546875,-26.68,0.522115125,32.61
2021-06-23 15:17:11.953125000,29.0,-2.0,55.0,126.62046875,-29.08,0.52223525,32.61
2021-06-23 15:17:11.960937500,29.0,-2.0,55.0,126.620390625,-30.68,0.522355375,32.61
2021-06-23 15:17:11.968750000,29.0,-2.0,55.0,126.62031250000001,-32.28,0.5224755,32.61
2021-06-23 15:17:11.976562500,29.0,-2.0,55.0,126.62023437500001,-32.475,0.522595625,32.61
2021-06-23 15:17:11.984375000,29.0,-2.0,55.0,126.62015625000001,-32.67,0.5227157499999999,32.61
2021-06-23 15:17:11.992187500,29.0,-2.0,55.0,126.620078125,-31.035,0.522835875,32.61
2021-06-23 15:17:12.000000000,29.0,-2.0,55.0,126.62,-29.4,0.522956,32.61
2021-06-23 15:17:12.007812500,29.0,-2.0,55.0,126.61984375,-25.869999999999997,0.52279584375,32.61
2021-06-23 15:17:12.015625000,29.0,-2.0,55.0,126.6196875,-22.34,0.5226356875,32.61
2021-06-23 15:17:12.023437500,29.0,-2.0,55.0,126.61953125000001,-17.325,0.52247553125,32.61
2021-06-23 15:17:12.031250000,29.0,-2.0,55.0,126.619375,-12.31,0.522315375,32.61
2021-06-23 15:17:12.039062500,29.0,-2.0,55.0,126.61921875,-6.5600000000000005,0.52215521875,32.61
2021-06-23 15:17:12.046875000,29.0,-2.0,55.0,126.6190625,-0.81,0.5219950624999999,32.61
2021-06-23 15:17:12.054687500,29.0,-2.0,55.0,126.61890625000001,4.825000000000001,0.52183490625,32.61
2021-06-23 15:17:12.062500000,29.0,-2.0,55.0,126.61875,10.46,0.52167475,32.61
2021-06-23 15:17:12.070312500,29.0,-2.0,55.0,126.61859375,15.290000000000001,0.52151459375,32.61
2021-06-23 15:17:12.078125000,29.0,-2.0,55.0,126.6184375,20.12,0.5213544375,32.61
2021-06-23 15:17:12.085937500,29.0,-2.0,55.0,126.61828125000001,23.770000000000003,0.52119428125,32.61
2021-06-23 15:17:12.093750000,29.0,-2.0,55.0,126.618125,27.42,0.521034125,32.61
2021-06-23 15:17:12.101562500,29.0,-2.0,55.0,126.61796875,29.805,0.52087396875,32.61
2021-06-23 15:17:12.109375000,29.0,-2.0,55.0,126.6178125,32.19,0.5207138125,32.61
2021-06-23 15:17:12.117187500,29.0,-2.0,55.0,126.61765625000001,33.445,0.52055365625,32.61
2021-06-23 15:17:12.125000000,29.0,-2.0,55.0,126.6175,34.7,0.5203935,32.61
2021-06-23 15:17:12.132812500,29.0,-2.0,55.0,126.61734375,35.045,0.52023334375,32.61
2021-06-23 15:17:12.140625000,29.0,-2.0,55.0,126.6171875,35.39,0.5200731875,32.61
2021-06-23 15:17:12.148437500,29.0,-2.0,55.0,126.61703125,35.05,0.51991303125,32.61
2021-06-23 15:17:12.156250000,29.0,-2.0,55.0,126.61687500000001,34.71,0.519752875,32.61
2021-06-23 15:17:12.164062500,29.0,-2.0,55.0,126.61671875,33.894999999999996,0.51959271875,32.61
2021-06-23 15:17:12.171875000,29.0,-2.0,55.0,126.6165625,33.08,0.5194325625,32.61
2021-06-23 15:17:12.179687500,29.0,-2.0,55.0,126.61640625,31.994999999999997,0.51927240625,32.61
2021-06-23 15:17:12.187500000,29.0,-2.0,55.0,126.61625000000001,30.91,0.51911225,32.61
2021-06-23 15:17:12.195312500,29.0,-2.0,55.0,126.61609375,29.755000000000003,0.5189520937500001,32.61
2021-06-23 15:17:12.203125000,29.0,-2.0,55.0,126.6159375,28.6,0.5187919375000001,32.61
2021-06-23 15:17:12.210937500,29.0,-2.0,55.0,126.61578125,27.505000000000003,0.51863178125,32.61
2021-06-23 15:17:12.218750000,29.0,-2.0,55.0,126.61562500000001,26.41,0.518471625,32.61
2021-06-23 15:17:12.226562500,29.0,-2.0,55.0,126.61546875,25.47,0.51831146875,32.61
2021-06-23 15:17:12.234375000,29.0,-2.0,55.0,126.6153125,24.53,0.5181513125,32.61
2021-06-23 15:17:12.242187500,29.0,-2.0,55.0,126.61515625,23.700000000000003,0.51799115625,32.61
2021-06-23 15:17:12.250000000,29.0,-2.0,55.0,126.61500000000001,22.87,0.517831,32.61
2021-06-23 15:17:12.257812500,29.0,-2.0,55.0,126.61484375,22.045,0.51787103125,32.61
2021-06-23 15:17:12.265625000,29.0,-2.0,55.0,126.6146875,21.22,0.5179110625000001,32.61
2021-06-23 15:17:12.273437500,29.0,-2.0,55.0,126.61453125,20.21,0.51795109375,32.61
2021-06-23 15:17:12.281250000,29.0,-2.0,55.0,126.614375,19.2,0.517991125,32.61
2021-06-23 15:17:12.289062500,29.0,-2.0,55.0,126.61421875,17.785,0.5180311562500001,32.61
2021-06-23 15:17:12.296875000,29.0,-2.0,55.0,126.6140625,16.37,0.5180711875,32.61
2021-06-23 15:17:12.304687500,29.0,-2.0,55.0,126.61390625,14.39,0.51811121875,32.61
2021-06-23 15:17:12.312500000,29.0,-2.0,55.0,126.61375,12.41,0.5181512500000001,32.61
2021-06-23 15:17:12.320312500,29.0,-2.0,55.0,126.61359375,9.76,0.51819128125,32.61
2021-06-23 15:17:12.328125000,29.0,-2.0,55.0,126.6134375,7.11,0.5182313125,32.61
2021-06-23 15:17:12.335937500,29.0,-2.0,55.0,126.61328125,3.795,0.5182713437500001,32.61
2021-06-23 15:17:12.343750000,29.0,-2.0,55.0,126.613125,0.48,0.518311375,32.61
2021-06-23 15:17:12.351562500,29.0,-1.75,55.0,126.61296875000001,-3.405,0.51835140625,32.61
2021-06-23 15:17:12.359375000,29.0,-1.5,55.0,126.6128125,-7.29,0.5183914375,32.61
2021-06-23 15:17:12.367187500,29.0,-1.25,55.0,126.61265625,-11.57,0.51843146875,32.61
2021-06-23 15:17:12.375000000,29.0,-1.0,55.0,126.6125,-15.85,0.5184715,32.61
2021-06-23 15:17:12.382812500,29.0,-1.25,55.0,126.61234375,-20.29,0.51851153125,32.61
2021-06-23 15:17:12.390625000,29.0,-1.5,55.0,126.6121875,-24.73,0.5185515625,32.61
2021-06-23 15:17:12.398437500,29.0,-1.75,55.0,126.61203125,-29.020000000000003,0.5185915937500001,32.61
2021-06-23 15:17:12.406250000,29.0,-2.0,55.0,126.611875,-33.31,0.518631625,32.61
2021-06-23 15:17:12.414062500,29.0,-2.0,55.0,126.61171875,-37.005,0.51867165625,32.61
2021-06-23 15:17:12.421875000,29.0,-2.0,55.0,126.6115625,-40.7,0.5187116875000001,32.61
2021-06-23 15:17:12.429687500,29.0,-2.0,55.0,126.61140625,-43.225,0.51875171875,32.61
2021-06-23 15:17:12.437500000,29.0,-2.0,55.0,126.61125,-45.75,0.51879175,32.61
2021-06-23 15:17:12.445312500,29.0,-2.0,55.25,126.61109375,-46.504999999999995,0.5188317812500001,32.61
2021-06-23 15:17:12.453125000,29.0,-2.0,55.5,126.6109375,-47.26,0.5188718125,32.61
2021-06-23 15:17:12.460937500,29.0,-2.0,55.75,126.61078125,-45.8,0.51891184375,32.61
2021-06-23 15:17:12.468750000,29.0,-2.0,56.0,126.610625,-44.34,0.5189518750000001,32.61
2021-06-23 15:17:12.476562500,28.75,-2.0,55.75,126.61046875,-40.63,0.51899190625,32.61
2021-06-23 15:17:12.484375000,28.5,-2.0,55.5,126.6103125,-36.92,0.5190319375,32.61
2021-06-23 15:17:12.492187500,28.25,-2.0,55.25,126.61015625,-31.415,0.5190719687500001,32.61
2021-06-23 15:17:12.500000000,28.0,-2.0,55.0,126.61,-25.91,0.519112,32.61
2021-06-23 15:17:12.507812500,28.25,-2.0,55.0,126.60984375,-19.545,0.5190319375,32.61
2021-06-23 15:17:12.515625000,28.5,-2.0,55.0,126.60968749999999,-13.18,0.5189518750000001,32.61
2021-06-23 15:17:12.523437500,28.75,-2.0,55.0,126.60953125,-7.075,0.5188718125,32.61
2021-06-23 15:17:12.531250000,29.0,-2.0,55.0,126.609375,-0.97,0.51879175,32.61
2021-06-23 15:17:12.539062500,28.75,-2.0,55.0,126.60921875,3.91,0.5187116875,32.61
2021-06-23 15:17:12.546875000,28.5,-2.0,55.0,126.6090625,8.79,0.518631625,32.61
2021-06-23 15:17:12.554687500,28.25,-2.0,55.0,126.60890625,11.93,0.5185515625,32.61
2021-06-23 15:17:12.562500000,28.0,-2.0,55.0,126.60875,15.07,0.5184715,32.61
2021-06-23 15:17:12.570312500,28.25,-2.0,55.0,126.60859375,16.435000000000002,0.5183914375,32.61
2021-06-23 15:17:12.578125000,28.5,-2.0,55.0,126.6084375,17.8,0.518311375,32.61
2021-06-23 15:17:12.585937500,28.75,-2.0,55.0,126.60828125,17.78,0.5182313125,32.61
2021-06-23 15:17:12.593750000,29.0,-2.0,55.0,126.608125,17.76,0.51815125,32.61
2021-06-23 15:17:12.601562500,29.0,-2.0,55.0,126.60796875,16.855,0.5180711875,32.61
2021-06-23 15:17:12.609375000,29.0,-2.0,55.0,126.6078125,15.95,0.517991125,32.61
2021-06-23 15:17:12.617187500,29.0,-2.0,55.0,126.60765625,14.575,0.5179110625,32.61
2021-06-23 15:17:12.625000000,29.0,-2.0,55.0,126.6075,13.2,0.5178309999999999,32.61
2021-06-23 15:17:12.632812500,29.0,-2.0,55.0,126.60734375,11.575,0.5177509375,32.61
2021-06-23 15:17:12.640625000,29.0,-2.0,55.0,126.6071875,9.95,0.517670875,32.61
2021-06-23 15:17:12.648437500,29.0,-2.0,55.0,126.60703124999999,8.175,0.5175908124999999,32.61
2021-06-23 15:17:12.656250000,29.0,-2.0,55.0,126.606875,6.4,0.51751075,32.61
2021-06-23 15:17:12.664062500,29.0,-2.0,55.0,126.60671875,4.54,0.5174306875,32.61
2021-06-23 15:17:12.671875000,29.0,-2.0,55.0,126.6065625,2.68,0.517350625,32.61
2021-06-23 15:17:12.679687500,29.0,-2.0,55.0,126.60640624999999,0.9000000000000001,0.5172705624999999,32.61
2021-06-23 15:17:12.687500000,29.0,-2.0,55.0,126.60625,-0.88,0.5171905,32.61
2021-06-23 15:17:12.695312500,29.0,-2.0,55.0,126.60609375,-2.38,0.5171104375,32.61
2021-06-23 15:17:12.703125000,29.0,-2.0,55.0,126.6059375,-3.88,0.5170303749999999,32.61
2021-06-23 15:17:12.710937500,29.0,-2.0,55.0,126.60578124999999,-4.949999999999999,0.5169503125,32.61
2021-06-23 15:17:12.718750000,29.0,-2.0,55.0,126.605625,-6.02,0.51687025,32.61
2021-06-23 15:17:12.726562500,29.0,-2.0,55.0,126.60546875,-6.654999999999999,0.5167901874999999,32.61
2021-06-23 15:17:12.734375000,29.0,-2.0,55.0,126.6053125,-7.29,0.5167101249999999,32.61
2021-06-23 15:17:12.742187500,29.0,-2.0,55.0,126.60515625,-7.695,0.5166300625,32.61
2021-06-23 15:17:12.750000000,29.0,-2.0,55.0,126.60499999999999,-8.1,0.51655,32.61
2021-06-23 15:17:12.757812500,29.0,-2.0,55.0,126.60484375,-8.575,0.5165900312499999,32.61
2021-06-23 15:17:12.765625000,29.0,-2.0,55.0,126.6046875,-9.05,0.5166300625,32.61
2021-06-23 15:17:12.773437500,29.0,-2.0,55.0,126.60453125,-9.870000000000001,0.51667009375,32.61
2021-06-23 15:17:12.781250000,29.0,-2.0,55.0,126.60437499999999,-10.69,0.5167101249999999,32.61
2021-06-23 15:17:12.789062500,29.0,-2.0,55.0,126.60421875,-11.965,0.51675015625,32.61
2021-06-23 15:17:12.796875000,29.0,-2.0,55.0,126.6040625,-13.24,0.5167901874999999,32.61
2021-06-23 15:17:12.804687500,29.0,-2.0,55.0,126.60390625,-14.940000000000001,0.51683021875,32.61
2021-06-23 15:17:12.812500000,29.0,-2.0,55.0,126.60374999999999,-16.64,0.51687025,32.61
2021-06-23 15:17:12.820312500,29.0,-2.0,55.0,126.60359375,-18.65,0.5169102812499999,32.61
2021-06-23 15:17:12.828125000,29.0,-2.0,55.0,126.6034375,-20.66,0.5169503125,32.61
2021-06-23 15:17:12.835937500,29.0,-2.0,55.0,126.60328125,-22.895,0.51699034375,32.61
2021-06-23 15:17:12.843750000,29.0,-2.0,55.0,126.60312499999999,-25.13,0.517030375,32.61
2021-06-23 15:17:12.851562500,29.0,-2.0,55.0,126.60296875,-27.585,0.51707040625,32.61
2021-06-23 15:17:12.859375000,29.0,-2.0,55.0,126.6028125,-30.04,0.5171104375,32.61
2021-06-23 15:17:12.867187500,29.0,-2.0,55.0,126.60265625,-32.66,0.51715046875,32.61
2021-06-23 15:17:12.875000000,29.0,-2.0,55.0,126.60249999999999,-35.28,0.5171905,32.61
2021-06-23 15:17:12.882812500,29.0,-2.0,55.0,126.60234374999999,-37.875,0.51723053125,32.61
2021-06-23 15:17:12.890625000,29.0,-2.0,55.0,126.6021875,-40.47,0.5172705625,32.61
2021-06-23 15:17:12.898437500,29.0,-2.0,55.0,126.60203125,-42.61,0.51731059375,32.61
2021-06-23 15:17:12.906250000,29.0,-2.0,55.0,126.60187499999999,-44.75,0.517350625,32.61
2021-06-23 15:17:12.914062500,29.0,-2.0,55.0,126.60171874999999,-45.83,0.51739065625,32.61
2021-06-23 15:17:12.921875000,29.0,-2.0,55.0,126.6015625,-46.91,0.5174306875,32.61
2021-06-23 15:17:12.929687500,29.0,-2.0,55.0,126.60140625,-46.375,0.5174707187500001,32.61
2021-06-23 15:17:12.937500000,29.0,-2.0,55.0,126.60125,-45.84,0.51751075,32.61
2021-06-23 15:17:12.945312500,29.0,-2.0,55.0,126.60109374999999,-43.44,0.51755078125,32.61
2021-06-23 15:17:12.953125000,29.0,-2.0,55.0,126.6009375,-41.04,0.5175908125,32.61
2021-06-23 15:17:12.960937500,29.0,-2.0,55.0,126.60078125,-36.945,0.51763084375,32.61
2021-06-23 15:17:12.968750000,29.0,-2.0,55.0,126.600625,-32.85,0.5176708750000001,32.61
2021-06-23 15:17:12.976562500,29.0,-2.0,55.0,126.60046874999999,-27.625,0.51771090625,32.61
2021-06-23 15:17:12.984375000,29.0,-2.0,55.0,126.6003125,-22.4,0.5177509375,32.61
2021-06-23 15:17:12.992187500,29.0,-2.0,55.0,126.60015625,-16.81,0.5177909687500001,32.61
2021-06-23 15:17:13.000000000,29.0,-2.0,55.0,126.6,-11.22,0.517831,32.61
2021-06-23 15:17:13.007812500,29.0,-2.0,55.0,126.59984374999999,-5.955,0.5176708750000001,32.61
2021-06-23 15:17:13.015625000,29.0,-2.0,55.0,126.59968749999999,-0.69,0.51751075,32.61
2021-06-23 15:17:13.023437500,29.0,-2.0,55.0,126.59953125,3.775,0.5173506250000001,32.61
2021-06-23 15:17:13.031250000,29.0,-2.0,55.0,126.599375,8.24,0.5171905,32.61
2021-06-23 15:17:13.039062500,28.75,-2.0,55.0,126.59921874999999,11.67,0.517030375,32.61
2021-06-23 15:17:13.046875000,28.5,-2.0,55.0,126.59906249999999,15.1,0.5168702500000001,32.61
2021-06-23 15:17:13.054687500,28.25,-2.0,55.0,126.59890625,17.39,0.516710125,32.61
2021-06-23 15:17:13.062500000,28.0,-2.0,55.0,126.59875,19.68,0.5165500000000001,32.61
2021-06-23 15:17:13.070312500,28.25,-2.0,55.0,126.59859374999999,20.765,0.516389875,32.61
2021-06-23 15:17:13.078125000,28.5,-2.0,55.0,126.59843749999999,21.85,0.51622975,32.61
2021-06-23 15:17:13.085937500,28.75,-2.0,55.0,126.59828125,21.66,0.5160696250000001,32.61
2021-06-23 15:17:13.093750000,29.0,-2.0,55.0,126.598125,21.47,0.5159095,32.61
2021-06-23 15:17:13.101562500,29.0,-2.0,55.0,126.59796874999999,20.03,0.5157493750000001,32.61
2021-06-23 15:17:13.109375000,29.0,-2.0,55.0,126.59781249999999,18.59,0.51558925,32.61
2021-06-23 15:17:13.117187500,29.0,-2.0,55.0,126.59765625,16.115000000000002,0.515429125,32.61
2021-06-23 15:17:13.125000000,29.0,-2.0,55.0,126.5975,13.64,0.515269,32.61
2021-06-23 15:17:13.132812500,29.0,-2.0,55.0,126.59734375,10.540000000000001,0.515108875,32.61
2021-06-23 15:17:13.140625000,29.0,-2.0,55.0,126.59718749999999,7.44,0.5149487500000001,32.61
2021-06-23 15:17:13.148437500,29.0,-2.0,55.0,126.59703125,4.2700000000000005,0.514788625,32.61
2021-06-23 15:17:13.156250000,29.0,-2.0,55.0,126.596875,1.1,0.5146285,32.61
2021-06-23 15:17:13.164062500,29.0,-2.0,55.0,126.59671875,-1.6400000000000001,0.514468375,32.61
2021-06-23 15:17:13.171875000,29.0,-2.0,55.0,126.59656249999999,-4.38,0.51430825,32.61
2021-06-23 15:17:13.179687500,29.0,-2.0,55.0,126.59640625,-6.380000000000001,0.5141481250000001,32.61
2021-06-23 15:17:13.187500000,29.0,-2.0,55.0,126.59625,-8.38,0.513988,32.61
2021-06-23 15:17:13.195312500,29.0,-1.75,55.0,126.59609375,-9.620000000000001,0.513827875,32.61
2021-06-23 15:17:13.203125000,29.0,-1.5,55.0,126.59593749999999,-10.86,0.51366775,32.61
2021-06-23 15:17:13.210937500,29.0,-1.25,55.0,126.59578125,-11.524999999999999,0.513507625,32.61
2021-06-23 15:17:13.218750000,29.0,-1.0,55.0,126.595625,-12.19,0.5133475000000001,32.61
2021-06-23 15:17:13.226562500,29.0,-1.25,55.0,126.59546875,-12.594999999999999,0.513187375,32.61
2021-06-23 15:17:13.234375000,29.0,-1.5,55.0,126.59531249999999,-13.0,0.51302725,32.61
2021-06-23 15:17:13.242187500,29.0,-1.75,55.0,126.59515625,-13.42,0.512867125,32.61
2021-06-23 15:17:13.250000000,29.0,-2.0,55.0,126.595,-13.84,0.512707,32.61
2021-06-23 15:17:13.257812500,29.0,-2.0,55.0,126.59484375,-14.45,0.51282709375,32.61
2021-06-23 15:17:13.265625000,29.0,-2.0,55.0,126.59468749999999,-15.06,0.5129471875,32.61
2021-06-23 15:17:13.273437500,29.0,-2.0,55.0,126.59453124999999,-15.96,0.51306728125,32.61
2021-06-23 15:17:13.281250000,29.0,-2.0,55.0,126.594375,-16.86,0.513187375,32.61
2021-06-23 15:17:13.289062500,29.0,-2.0,55.0,126.59421875,-18.145,0.51330746875,32.61
2021-06-23 15:17:13.296875000,29.0,-2.0,55.0,126.59406249999999,-19.43,0.5134275625,32.61
2021-06-23 15:17:13.304687500,29.0,-2.0,55.0,126.59390624999999,-21.235,0.51354765625,32.61
2021-06-23 15:17:13.312500000,29.0,-2.0,55.0,126.59375,-23.04,0.51366775,32.61
2021-06-23 15:17:13.320312500,29.0,-2.0,55.0,126.59359375,-25.515,0.51378784375,32.61
2021-06-23 15:17:13.328125000,29.0,-2.0,55.0,126.5934375,-27.99,0.5139079375,32.61
2021-06-23 15:17:13.335937500,29.0,-2.0,55.0,126.59328124999999,-31.15,0.51402803125,32.61
2021-06-23 15:17:13.343750000,29.0,-2.0,55.0,126.593125,-34.31,0.514148125,32.61
2021-06-23 15:17:13.351562500,29.0,-2.0,55.0,126.59296875,-37.91,0.51426821875,32.61
2021-06-23 15:17:13.359375000,29.0,-2.0,55.0,126.5928125,-41.51,0.5143883125,32.61
2021-06-23 15:17:13.367187500,29.0,-2.0,55.0,126.59265624999999,-44.959999999999994,0.5145084062499999,32.61
2021-06-23 15:17:13.375000000,29.0,-2.0,55.0,126.5925,-48.41,0.5146284999999999,32.61
2021-06-23 15:17:13.382812500,29.0,-2.0,55.0,126.59234375,-50.879999999999995,0.51474859375,32.61
2021-06-23 15:17:13.390625000,29.0,-2.0,55.0,126.5921875,-53.35,0.5148686875,32.61
2021-06-23 15:17:13.398437500,29.0,-2.0,55.0,126.59203124999999,-54.04,0.51498878125,32.61
2021-06-23 15:17:13.406250000,29.0,-2.0,55.0,126.591875,-54.73,0.515108875,32.61
2021-06-23 15:17:13.414062500,29.0,-2.0,55.0,126.59171875,-53.18,0.51522896875,32.61
2021-06-23 15:17:13.421875000,29.0,-2.0,55.0,126.5915625,-51.63,0.5153490625,32.61
2021-06-23 15:17:13.429687500,29.0,-2.0,55.0,126.59140624999999,-47.965,0.51546915625,32.61
2021-06-23 15:17:13.437500000,29.0,-2.0,55.0,126.59125,-44.3,0.51558925,32.61
2021-06-23 15:17:13.445312500,29.0,-2.0,55.0,126.59109375,-39.209999999999994,0.51570934375,32.61
2021-06-23 15:17:13.453125000,29.0,-2.0,55.0,126.5909375,-34.12,0.5158294375,32.61
2021-06-23 15:17:13.460937500,29.0,-2.0,55.0,126.59078124999999,-28.63,0.51594953125,32.61
2021-06-23 15:17:13.468750000,29.0,-2.0,55.0,126.590625,-23.14,0.516069625,32.61
2021-06-23 15:17:13.476562500,29.0,-2.0,55.0,126.59046875,-18.205,0.51618971875,32.61
2021-06-23 15:17:13.484375000,29.0,-2.0,55.0,126.5903125,-13.27,0.5163098125,32.61
2021-06-23 15:17:13.492187500,29.0,-2.0,55.0,126.59015624999999,-9.49,0.51642990625,32.61
2021-06-23 15:17:13.500000000,29.0,-2.0,55.0,126.59,-5.71,0.51655,32.61
2021-06-23 15:17:13.507812500,29.0,-2.0,55.0,126.58984375,-3.21,0.51655,32.61
2021-06-23 15:17:13.515625000,29.0,-2.0,55.0,126.5896875,-0.71,0.51655,32.61
2021-06-23 15:17:13.523437500,29.0,-2.0,55.0,126.58953125,0.71,0.51655,32.61
2021-06-23 15:17:13.531250000,29.0,-2.0,55.0,126.58937499999999,2.13,0.51655,32.61
2021-06-23 15:17:13.539062500,29.0,-1.75,55.0,126.58921875,2.76,0.51655,32.61
2021-06-23 15:17:13.546875000,29.0,-1.5,55.0,126.5890625,3.39,0.51655,32.61
2021-06-23 15:17:13.554687500,29.0,-1.25,55.0,126.58890625,3.425,0.51655,32.61
2021-06-23 15:17:13.562500000,29.0,-1.0,55.0,126.58874999999999,3.46,0.51655,32.61
2021-06-23 15:17:13.570312500,29.0,-1.25,55.0,126.58859375,2.95,0.51655,32.61
2021-06-23 15:17:13.578125000,29.0,-1.5,55.0,126.5884375,2.44,0.51655,32.61
2021-06-23 15:17:13.585937500,29.0,-1.75,55.0,126.58828125,1.42,0.51655,32.61
2021-06-23 15:17:13.593750000,29.0,-2.0,55.0,126.58812499999999,0.4,0.51655,32.61
2021-06-23 15:17:13.601562500,29.0,-2.0,55.0,126.58796875,-0.9799999999999999,0.51655,32.61
2021-06-23 15:17:13.609375000,29.0,-2.0,55.0,126.5878125,-2.36,0.51655,32.61
2021-06-23 15:17:13.617187500,29.0,-2.0,55.0,126.58765625,-3.755,0.51655,32.61
2021-06-23 15:17:13.625000000,29.0,-2.0,55.0,126.58749999999999,-5.15,0.51655,32.61
2021-06-23 15:17:13.632812500,29.0,-2.0,55.0,126.58734375,-6.105,0.51655,32.61
2021-06-23 15:17:13.640625000,29.0,-2.0,55.0,126.5871875,-7.06,0.51655,32.61
2021-06-23 15:17:13.648437500,29.0,-2.0,55.0,126.58703125,-7.17,0.51655,32.61
2021-06-23 15:17:13.656250000,29.0,-2.0,55.0,126.58687499999999,-7.28,0.51655,32.61
2021-06-23 15:17:13.664062500,29.0,-2.0,55.0,126.58671875,-6.375,0.51655,32.61
2021-06-23 15:17:13.671875000,29.0,-2.0,55.0,126.5865625,-5.47,0.51655,32.61
2021-06-23 15:17:13.679687500,29.0,-2.0,55.0,126.58640625,-3.6999999999999997,0.51655,32.61
2021-06-23 15:17:13.687500000,29.0,-2.0,55.0,126.58624999999999,-1.93,0.51655,32.61
2021-06-23 15:17:13.695312500,29.0,-2.0,55.0,126.58609375,0.2550000000000001,0.51655,32.61
2021-06-23 15:17:13.703125000,29.0,-2.0,55.0,126.5859375,2.44,0.51655,32.61
2021-06-23 15:17:13.710937500,29.0,-2.0,55.0,126.58578125,4.405,0.51655,32.61
2021-06-23 15:17:13.718750000,29.0,-2.0,55.0,126.585625,6.37,0.51655,32.61
2021-06-23 15:17:13.726562500,29.0,-2.0,55.0,126.58546875,7.475,0.51655,32.61
2021-06-23 15:17:13.734375000,29.0,-2.0,55.0,126.5853125,8.58,0.51655,32.61
2021-06-23 15:17:13.742187500,29.0,-2.0,55.0,126.58515625,8.335,0.51655,32.61
2021-06-23 15:17:13.750000000,29.0,-2.0,55.0,126.585,8.09,0.51655,32.61
2021-06-23 15:17:13.757812500,29.0,-2.0,55.0,126.58484374999999,6.225,0.51642990625,32.61
2021-06-23 15:17:13.765625000,29.0,-2.0,55.0,126.5846875,4.36,0.5163098125,32.61
2021-06-23 15:17:13.773437500,29.0,-2.0,55.0,126.58453125,0.8600000000000003,0.51618971875,32.61
2021-06-23 15:17:13.781250000,29.0,-2.0,55.0,126.584375,-2.64,0.516069625,32.61
2021-06-23 15:17:13.789062500,29.0,-2.0,55.0,126.58421874999999,-7.535,0.51594953125,32.61
2021-06-23 15:17:13.796875000,29.0,-2.0,55.0,126.5840625,-12.43,0.5158294375,32.61
2021-06-23 15:17:13.804687500,29.0,-2.0,55.0,126.58390625,-18.244999999999997,0.51570934375,32.61
2021-06-23 15:17:13.812500000,29.0,-2.0,55.0,126.58375,-24.06,0.51558925,32.61
2021-06-23 15:17:13.820312500,29.0,-2.0,55.0,126.58359374999999,-30.089999999999996,0.51546915625,32.61
2021-06-23 15:17:13.828125000,29.0,-2.0,55.0,126.5834375,-36.12,0.5153490625,32.61
2021-06-23 15:17:13.835937500,29.0,-2.0,55.0,126.58328125,-41.47,0.51522896875,32.61
2021-06-23 15:17:13.843750000,29.0,-2.0,55.0,126.583125,-46.82,0.515108875,32.61
2021-06-23 15:17:13.851562500,29.0,-2.0,55.0,126.58296874999999,-50.555,0.51498878125,32.61
2021-06-23 15:17:13.859375000,29.0,-2.0,55.0,126.5828125,-54.29,0.5148686875,32.61
2021-06-23 15:17:13.867187500,29.0,-2.0,55.0,126.58265625,-55.620000000000005,0.51474859375,32.61
2021-06-23 15:17:13.875000000,29.0,-2.0,55.0,126.5825,-56.95,0.5146284999999999,32.61
2021-06-23 15:17:13.882812500,29.0,-1.75,55.0,126.58234374999999,-55.45,0.5145084062499999,32.61
2021-06-23 15:17:13.890625000,29.0,-1.5,55.0,126.5821875,-53.95,0.5143883125,32.61
2021-06-23 15:17:13.898437500,29.0,-1.25,55.0,126.58203125,-49.755,0.51426821875,32.61
2021-06-23 15:17:13.906250000,29.0,-1.0,55.0,126.581875,-45.56,0.514148125,32.61
2021-06-23 15:17:13.914062500,29.0,-1.25,55.0,126.58171875,-39.34,0.51402803125,32.61
2021-06-23 15:17:13.921875000,29.0,-1.5,55.0,126.5815625,-33.12,0.5139079375,32.61
2021-06-23 15:17:13.929687500,29.0,-1.75,55.0,126.58140625,-25.88,0.51378784375,32.61
2021-06-23 15:17:13.937500000,29.0,-2.0,55.0,126.58125,-18.64,0.51366775,32.61
2021-06-23 15:17:13.945312500,29.0,-2.0,55.0,126.58109375,-11.46,0.51354765625,32.61
2021-06-23 15:17:13.953125000,29.0,-2.0,55.0,126.5809375,-4.28,0.5134275625,32.61
2021-06-23 15:17:13.960937500,29.0,-2.0,55.0,126.58078125,1.9999999999999991,0.51330746875,32.61
2021-06-23 15:17:13.968750000,29.0,-2.0,55.0,126.580625,8.28,0.513187375,32.61
2021-06-23 15:17:13.976562500,29.0,-2.0,55.0,126.58046875,13.204999999999998,0.51306728125,32.61
2021-06-23 15:17:13.984375000,29.0,-2.0,55.0,126.5803125,18.13,0.5129471875,32.61
2021-06-23 15:17:13.992187500,29.0,-2.0,55.0,126.58015625,21.555,0.51282709375,32.61
2021-06-23 15:17:14.000000000,29.0,-2.0,55.0,126.58,24.98,0.512707,32.61
2021-06-23 15:17:14.007812500,29.0,-2.0,55.0,126.579921875,26.995,0.51274703125,32.609375
2021-06-23 15:17:14.015625000,29.0,-2.0,55.0,126.57984375,29.01,0.5127870625000001,32.60875
2021-06-23 15:17:14.023437500,29.0,-2.0,55.0,126.579765625,29.765,0.51282709375,32.608125
2021-06-23 15:17:14.031250000,29.0,-2.0,55.0,126.57968749999999,30.52,0.512867125,32.6075
2021-06-23 15:17:14.039062500,29.0,-2.0,55.0,126.579609375,30.21,0.51290715625,32.606875
2021-06-23 15:17:14.046875000,29.0,-2.0,55.0,126.57953125,29.9,0.5129471875,32.60625
2021-06-23 15:17:14.054687500,29.0,-2.0,55.0,126.579453125,28.755,0.51298721875,32.605625
2021-06-23 15:17:14.062500000,29.0,-2.0,55.0,126.579375,27.61,0.51302725,32.605000000000004
2021-06-23 15:17:14.070312500,29.0,-2.0,55.0,126.579296875,25.924999999999997,0.51306728125,32.604375
2021-06-23 15:17:14.078125000,29.0,-2.0,55.0,126.57921875,24.24,0.5131073125,32.60375
2021-06-23 15:17:14.085937500,29.0,-2.0,55.0,126.579140625,22.369999999999997,0.51314734375,32.603125
2021-06-23 15:17:14.093750000,29.0,-2.0,55.0,126.57906249999999,20.5,0.513187375,32.6025
2021-06-23 15:17:14.101562500,29.0,-2.0,55.0,126.578984375,18.77,0.51322740625,32.601875
2021-06-23 15:17:14.109375000,29.0,-2.0,55.0,126.57890625,17.04,0.5132674375,32.60125
2021-06-23 15:17:14.117187500,29.0,-2.0,55.0,126.578828125,15.66,0.51330746875,32.600625
2021-06-23 15:17:14.125000000,29.0,-2.0,55.0,126.57875,14.28,0.5133475000000001,32.6
2021-06-23 15:17:14.132812500,29.0,-2.0,55.0,126.578671875,13.295,0.51338753125,32.599375
2021-06-23 15:17:14.140625000,29.0,-2.0,55.0,126.57859375,12.31,0.5134275625,32.59875
2021-06-23 15:17:14.148437500,29.0,-2.0,55.0,126.578515625,11.605,0.5134675937500001,32.598125
2021-06-23 15:17:14.156250000,29.0,-2.0,55.0,126.57843749999999,10.9,0.513507625,32.597500000000004
2021-06-23 15:17:14.164062500,29.0,-2.0,55.0,126.57835937499999,10.29,0.51354765625,32.596875000000004
2021-06-23 15:17:14.171875000,29.0,-2.0,55.0,126.57828125,9.68,0.5135876875000001,32.596250000000005
2021-06-23 15:17:14.179687500,29.0,-2.0,55.0,126.578203125,8.975,0.51362771875,32.595625000000005
2021-06-23 15:17:14.187500000,29.0,-2.0,55.0,126.578125,8.27,0.51366775,32.595
2021-06-23 15:17:14.195312500,29.0,-2.0,55.0,126.578046875,7.324999999999999,0.51370778125,32.594375
2021-06-23 15:17:14.203125000,29.0,-2.0,55.0,126.57796875,6.38,0.5137478125,32.59375
2021-06-23 15:17:14.210937500,29.0,-2.0,55.0,126.577890625,5.109999999999999,0.51378784375,32.593125
2021-06-23 15:17:14.218750000,29.0,-2.0,55.0,126.5778125,3.84,0.513827875,32.5925
2021-06-23 15:17:14.226562500,29.0,-2.0,55.0,126.57773437499999,2.16,0.51386790625,32.591875
2021-06-23 15:17:14.234375000,29.0,-2.0,55.0,126.57765625,0.48,0.5139079375,32.59125
2021-06-23 15:17:14.242187500,29.0,-2.0,55.0,126.577578125,-1.75,0.51394796875,32.590625
2021-06-23 15:17:14.250000000,29.0,-2.0,55.0,126.5775,-3.98,0.513988,32.59
2021-06-23 15:17:14.257812500,29.0,-2.0,55.0,126.577421875,-6.865,0.5137878125,32.59
2021-06-23 15:17:14.265625000,29.0,-2.0,55.0,126.57734375,-9.75,0.513587625,32.59
2021-06-23 15:17:14.273437500,29.0,-2.0,55.0,126.577265625,-13.31,0.5133874375,32.59
2021-06-23 15:17:14.281250000,29.0,-2.0,55.0,126.5771875,-16.87,0.51318725,32.59
2021-06-23 15:17:14.289062500,29.0,-2.0,55.0,126.57710937499999,-20.855,0.5129870625,32.59
2021-06-23 15:17:14.296875000,29.0,-2.0,55.0,126.57703124999999,-24.84,0.512786875,32.59
2021-06-23 15:17:14.304687500,29.0,-2.0,55.0,126.576953125,-28.659999999999997,0.5125866875,32.59
2021-06-23 15:17:14.312500000,29.0,-2.0,55.0,126.576875,-32.48,0.5123865,32.59
2021-06-23 15:17:14.320312500,28.75,-2.0,55.0,126.576796875,-35.325,0.5121863125,32.59
2021-06-23 15:17:14.328125000,28.5,-2.0,55.0,126.57671875,-38.17,0.511986125,32.59
2021-06-23 15:17:14.335937500,28.25,-2.0,55.0,126.576640625,-39.165,0.5117859375,32.59
2021-06-23 15:17:14.343750000,28.0,-2.0,55.0,126.5765625,-40.16,0.51158575,32.59
2021-06-23 15:17:14.351562500,28.25,-2.0,55.0,126.57648437499999,-38.72,0.5113855625,32.59
2021-06-23 15:17:14.359375000,28.5,-2.0,55.0,126.57640624999999,-37.28,0.5111853749999999,32.59
2021-06-23 15:17:14.367187500,28.75,-2.0,55.0,126.576328125,-33.315,0.5109851875,32.59
2021-06-23 15:17:14.375000000,29.0,-2.0,55.0,126.57625,-29.35,0.510785,32.59
2021-06-23 15:17:14.382812500,29.0,-2.0,55.0,126.576171875,-23.375,0.5105848125,32.59
2021-06-23 15:17:14.390625000,29.0,-2.0,55.0,126.57609375,-17.4,0.510384625,32.59
2021-06-23 15:17:14.398437500,29.0,-2.0,55.0,126.576015625,-10.344999999999999,0.5101844375,32.59
2021-06-23 15:17:14.406250000,29.0,-2.0,55.0,126.5759375,-3.29,0.50998425,32.59
2021-06-23 15:17:14.414062500,29.0,-2.0,55.0,126.575859375,3.8,0.5097840625,32.59
2021-06-23 15:17:14.421875000,29.0,-2.0,55.0,126.57578124999999,10.89,0.509583875,32.59
2021-06-23 15:17:14.429687500,29.0,-2.0,55.0,126.57570312499999,17.145,0.5093836875,32.59
2021-06-23 15:17:14.437500000,29.0,-2.0,55.0,126.575625,23.4,0.5091835,32.59
2021-06-23 15:17:14.445312500,29.0,-2.0,55.0,126.575546875,28.34,0.5089833125,32.59
2021-06-23 15:17:14.453125000,29.0,-2.0,55.0,126.57546875,33.28,0.508783125,32.59
2021-06-23 15:17:14.460937500,29.0,-2.0,55.0,126.575390625,36.765,0.5085829374999999,32.59
2021-06-23 15:17:14.468750000,29.0,-2.0,55.0,126.5753125,40.25,0.50838275,32.59
2021-06-23 15:17:14.476562500,29.0,-1.75,55.0,126.575234375,42.370000000000005,0.5081825624999999,32.59
2021-06-23 15:17:14.484375000,29.0,-1.5,55.0,126.57515624999999,44.49,0.507982375,32.59
2021-06-23 15:17:14.492187500,29.0,-1.25,55.0,126.57507812499999,45.415000000000006,0.5077821874999999,32.59
2021-06-23 15:17:14.500000000,29.0,-1.0,55.0,126.57499999999999,46.34,0.507582,32.59
2021-06-23 15:17:14.507812500,29.0,-1.25,55.0,126.574921875,46.24,0.5076620937499999,32.59
2021-06-23 15:17:14.515625000,29.0,-1.5,55.0,126.57484375,46.14,0.5077421875,32.59
2021-06-23 15:17:14.523437500,29.0,-1.75,55.0,126.574765625,45.2,0.50782228125,32.59
2021-06-23 15:17:14.531250000,29.0,-2.0,55.0,126.5746875,44.26,0.507902375,32.59
2021-06-23 15:17:14.539062500,29.0,-2.0,55.0,126.574609375,42.739999999999995,0.50798246875,32.59
2021-06-23 15:17:14.546875000,29.0,-2.0,55.0,126.57453124999999,41.22,0.5080625624999999,32.59
2021-06-23 15:17:14.554687500,29.0,-2.0,55.0,126.57445312499999,39.43,0.50814265625,32.59
2021-06-23 15:17:14.562500000,29.0,-2.0,55.0,126.57437499999999,37.64,0.50822275,32.59
2021-06-23 15:17:14.570312500,29.0,-2.0,55.0,126.574296875,35.894999999999996,0.50830284375,32.59
2021-06-23 15:17:14.578125000,29.0,-2.0,55.0,126.57421875,34.15,0.5083829375,32.59
2021-06-23 15:17:14.585937500,29.0,-2.0,55.0,126.574140625,32.685,0.5084630312499999,32.59
2021-06-23 15:17:14.593750000,29.0,-2.0,55.0,126.5740625,31.22,0.508543125,32.59
2021-06-23 15:17:14.601562500,29.0,-2.0,55.0,126.573984375,30.09,0.5086232187499999,32.59
2021-06-23 15:17:14.609375000,29.0,-2.0,55.0,126.57390625,28.96,0.5087033125,32.59
2021-06-23 15:17:14.617187500,29.0,-2.0,55.0,126.57382812499999,28.07,0.50878340625,32.59
2021-06-23 15:17:14.625000000,29.0,-2.0,55.0,126.57374999999999,27.18,0.5088634999999999,32.59
2021-06-23 15:17:14.632812500,29.0,-2.0,55.0,126.57367187499999,26.325,0.50894359375,32.59
2021-06-23 15:17:14.640625000,29.0,-2.0,55.0,126.57359375,25.47,0.5090236874999999,32.59
2021-06-23 15:17:14.648437500,29.0,-2.0,55.0,126.573515625,24.45,0.50910378125,32.59
2021-06-23 15:17:14.656250000,29.0,-2.0,55.0,126.5734375,23.43,0.509183875,32.59
2021-06-23 15:17:14.664062500,29.0,-2.0,55.0,126.573359375,22.1,0.50926396875,32.59
2021-06-23 15:17:14.671875000,29.0,-2.0,55.0,126.57328125,20.77,0.5093440625,32.59
2021-06-23 15:17:14.679687500,29.0,-2.0,55.0,126.57320312499999,19.07,0.5094241562499999,32.59
2021-06-23 15:17:14.687500000,29.0,-2.0,55.0,126.57312499999999,17.37,0.50950425,32.59
2021-06-23 15:17:14.695312500,28.75,-2.0,55.0,126.57304687499999,15.295000000000002,0.50958434375,32.59
2021-06-23 15:17:14.703125000,28.5,-2.0,55.0,126.57296875,13.22,0.5096644375,32.59
2021-06-23 15:17:14.710937500,28.25,-2.0,55.0,126.572890625,10.715,0.50974453125,32.59
2021-06-23 15:17:14.718750000,28.0,-2.0,55.0,126.5728125,8.21,0.5098246249999999,32.59
2021-06-23 15:17:14.726562500,28.25,-2.0,55.0,126.572734375,5.15,0.50990471875,32.59
2021-06-23 15:17:14.734375000,28.5,-2.0,55.0,126.57265625,2.09,0.5099848124999999,32.59
2021-06-23 15:17:14.742187500,28.75,-2.0,55.0,126.57257812499999,-1.6550000000000002,0.51006490625,32.59
2021-06-23 15:17:14.750000000,29.0,-2.0,55.0,126.57249999999999,-5.4,0.510145,32.59
2021-06-23 15:17:14.757812500,29.0,-2.0,55.0,126.57242187499999,-9.815000000000001,0.51006490625,32.59
2021-06-23 15:17:14.765625000,29.0,-2.0,55.0,126.57234374999999,-14.23,0.5099848124999999,32.59
2021-06-23 15:17:14.773437500,29.0,-2.0,55.0,126.572265625,-18.990000000000002,0.50990471875,32.59
2021-06-23 15:17:14.781250000,29.0,-2.0,55.0,126.5721875,-23.75,0.5098246249999999,32.59
2021-06-23 15:17:14.789062500,29.0,-2.0,55.0,126.572109375,-28.125,0.50974453125,32.59
2021-06-23 15:17:14.796875000,29.0,-2.0,55.0,126.57203125,-32.5,0.5096644375,32.59
2021-06-23 15:17:14.804687500,29.0,-2.0,55.0,126.571953125,-35.489999999999995,0.50958434375,32.59
2021-06-23 15:17:14.812500000,29.0,-2.0,55.0,126.57187499999999,-38.48,0.50950425,32.59
2021-06-23 15:17:14.820312500,29.0,-2.0,55.0,126.57179687499999,-39.08,0.5094241562499999,32.59
2021-06-23 15:17:14.828125000,29.0,-2.0,55.0,126.57171874999999,-39.68,0.5093440625,32.59
2021-06-23 15:17:14.835937500,29.0,-2.0,55.0,126.571640625,-37.305,0.50926396875,32.59
2021-06-23 15:17:14.843750000,29.0,-2.0,55.0,126.5715625,-34.93,0.509183875,32.59
2021-06-23 15:17:14.851562500,29.0,-2.0,55.0,126.571484375,-29.675,0.50910378125,32.59
2021-06-23 15:17:14.859375000,29.0,-2.0,55.0,126.57140625,-24.42,0.5090236874999999,32.59
2021-06-23 15:17:14.867187500,29.0,-2.0,55.0,126.571328125,-17.09,0.50894359375,32.59
2021-06-23 15:17:14.875000000,29.0,-2.0,55.0,126.57124999999999,-9.76,0.5088634999999999,32.59
2021-06-23 15:17:14.882812500,29.0,-2.0,55.0,126.57117187499999,-1.6199999999999992,0.50878340625,32.59
2021-06-23 15:17:14.890625000,29.0,-2.0,55.0,126.57109374999999,6.52,0.5087033125,32.59
2021-06-23 15:17:14.898437500,29.0,-2.0,55.0,126.57101562499999,14.15,0.5086232187499999,32.59
2021-06-23 15:17:14.906250000,29.0,-2.0,55.0,126.5709375,21.78,0.508543125,32.59
2021-06-23 15:17:14.914062500,28.75,-2.0,55.0,126.570859375,27.935000000000002,0.5084630312499999,32.59
2021-06-23 15:17:14.921875000,28.5,-2.0,55.0,126.57078125,34.09,0.5083829375,32.59
2021-06-23 15:17:14.929687500,28.25,-2.0,55.0,126.570703125,38.30500000000001,0.50830284375,32.59
2021-06-23 15:17:14.937500000,28.0,-2.0,55.0,126.57062499999999,42.52,0.50822275,32.59
2021-06-23 15:17:14.945312500,28.25,-2.0,55.0,126.57054687499999,44.795,0.50814265625,32.59
2021-06-23 15:17:14.953125000,28.5,-2.0,55.0,126.57046874999999,47.07,0.5080625624999999,32.59
2021-06-23 15:17:14.960937500,28.75,-2.0,55.0,126.57039062499999,47.71,0.50798246875,32.59
2021-06-23 15:17:14.968750000,29.0,-2.0,55.0,126.5703125,48.35,0.507902375,32.59
2021-06-23 15:17:14.976562500,29.0,-2.0,55.0,126.570234375,47.760000000000005,0.50782228125,32.59
2021-06-23 15:17:14.984375000,29.0,-2.0,55.0,126.57015625,47.17,0.5077421875,32.59
2021-06-23 15:17:14.992187500,29.0,-2.0,55.0,126.570078125,45.765,0.5076620937499999,32.59
2021-06-23 15:17:15.000000000,29.0,-2.0,55.0,126.57,44.36,0.507582,32.59
2021-06-23 15:17:15.007812500,29.0,-2.0,55.0,126.56984374999999,42.535,0.5076220312499999,32.59
2021-06-23 15:17:15.015625000,29.0,-2.0,55.0,126.56968749999999,40.71,0.5076620625,32.59
2021-06-23 15:17:15.023437500,29.0,-2.0,55.0,126.56953125,38.82,0.50770209375,32.59
2021-06-23 15:17:15.031250000,29.0,-2.0,55.0,126.569375,36.93,0.5077421249999999,32.59
2021-06-23 15:17:15.039062500,29.0,-2.0,55.0,126.56921874999999,35.25,0.50778215625,32.59
2021-06-23 15:17:15.046875000,29.0,-2.0,55.0,126.56906249999999,33.57,0.5078221875,32.59
2021-06-23 15:17:15.054687500,29.0,-2.0,55.0,126.56890625,32.225,0.5078622187499999,32.59
2021-06-23 15:17:15.062500000,29.0,-2.0,55.0,126.56875,30.88,0.50790225,32.59
2021-06-23 15:17:15.070312500,29.0,-2.0,55.0,126.56859374999999,29.83,0.50794228125,32.59
2021-06-23 15:17:15.078125000,29.0,-2.0,55.0,126.56843749999999,28.78,0.5079823124999999,32.59
2021-06-23 15:17:15.085937500,29.0,-2.0,55.0,126.56828125,27.85,0.50802234375,32.59
2021-06-23 15:17:15.093750000,29.0,-2.0,55.0,126.568125,26.92,0.508062375,32.59
2021-06-23 15:17:15.101562500,29.0,-2.0,55.0,126.56796874999999,25.905,0.5081024062499999,32.59
2021-06-23 15:17:15.109375000,29.0,-2.0,55.0,126.56781249999999,24.89,0.5081424375,32.59
2021-06-23 15:17:15.117187500,29.0,-2.0,55.0,126.56765625,23.62,0.50818246875,32.59
2021-06-23 15:17:15.125000000,29.0,-2.0,55.0,126.5675,22.35,0.5082225,32.59
2021-06-23 15:17:15.132812500,29.0,-2.0,55.0,126.56734374999999,20.770000000000003,0.50826253125,32.59
2021-06-23 15:17:15.140625000,29.0,-2.0,55.0,126.56718749999999,19.19,0.5083025624999999,32.59
2021-06-23 15:17:15.148437500,29.0,-2.0,55.0,126.56703125,17.32,0.50834259375,32.59
2021-06-23 15:17:15.156250000,29.0,-2.0,55.0,126.566875,15.45,0.508382625,32.59
2021-06-23 15:17:15.164062500,29.0,-2.0,55.0,126.56671874999999,13.305,0.5084226562499999,32.59
2021-06-23 15:17:15.171875000,29.0,-2.0,55.0,126.56656249999999,11.16,0.5084626875,32.59
2021-06-23 15:17:15.179687500,29.0,-2.0,55.0,126.56640625,8.71,0.50850271875,32.59
2021-06-23 15:17:15.187500000,29.0,-2.0,55.0,126.56625,6.26,0.5085427499999999,32.59
2021-06-23 15:17:15.195312500,28.75,-2.0,55.0,126.56609375,3.38,0.50858278125,32.59
2021-06-23 15:17:15.203125000,28.5,-2.0,55.0,126.56593749999999,0.5,0.5086228125,32.59
2021-06-23 15:17:15.210937500,28.25,-2.0,55.0,126.56578125,-2.945,0.5086628437499999,32.59
2021-06-23 15:17:15.218750000,28.0,-2.0,55.0,126.565625,-6.39,0.508702875,32.59
2021-06-23 15:17:15.226562500,28.25,-2.0,55.0,126.56546875,-10.465,0.50874290625,32.59
2021-06-23 15:17:15.234375000,28.5,-2.0,55.0,126.56531249999999,-14.54,0.5087829374999999,32.59
2021-06-23 15:17:15.242187500,28.75,-2.0,55.0,126.56515625,-19.055,0.50882296875,32.59
2021-06-23 15:17:15.250000000,29.0,-2.0,55.0,126.565,-23.57,0.508863,32.59
2021-06-23 15:17:15.257812500,29.0,-2.0,55.0,126.56484375,-28.01,0.5087829374999999,32.59
2021-06-23 15:17:15.265625000,29.0,-2.0,55.0,126.56468749999999,-32.45,0.508702875,32.59
2021-06-23 15:17:15.273437500,29.0,-2.0,55.0,126.56453124999999,-36.0,0.5086228125,32.59
2021-06-23 15:17:15.281250000,29.0,-2.0,55.0,126.564375,-39.55,0.5085427499999999,32.59
2021-06-23 15:17:15.289062500,28.75,-2.0,55.0,126.56421875,-41.269999999999996,0.5084626875,32.59
2021-06-23 15:17:15.296875000,28.5,-2.0,55.0,126.56406249999999,-42.99,0.508382625,32.59
2021-06-23 15:17:15.304687500,28.25,-2.0,55.0,126.56390624999999,-42.135000000000005,0.5083025624999999,32.59
2021-06-23 15:17:15.312500000,28.0,-2.0,55.0,126.56375,-41.28,0.5082225,32.59
2021-06-23 15:17:15.320312500,28.0,-2.0,55.0,126.56359375,-37.585,0.5081424375,32.59
2021-06-23 15:17:15.328125000,28.0,-2.0,55.0,126.56343749999999,-33.89,0.508062375,32.59
2021-06-23 15:17:15.335937500,28.0,-2.0,55.0,126.56328124999999,-27.725,0.5079823124999999,32.59
2021-06-23 15:17:15.343750000,28.0,-2.0,55.0,126.563125,-21.56,0.50790225,32.59
2021-06-23 15:17:15.351562500,28.25,-2.0,55.0,126.56296875,-13.875,0.5078221875,32.59
2021-06-23 15:17:15.359375000,28.5,-2.0,55.0,126.56281249999999,-6.19,0.5077421249999999,32.59
2021-06-23 15:17:15.367187500,28.75,-2.0,55.0,126.56265624999999,1.7849999999999993,0.5076620625,32.59
2021-06-23 15:17:15.375000000,29.0,-2.0,55.0,126.5625,9.76,0.507582,32.59
2021-06-23 15:17:15.382812500,29.0,-2.0,55.0,126.56234375,16.875,0.5075019374999999,32.59
2021-06-23 15:17:15.390625000,29.0,-2.0,55.0,126.5621875,23.99,0.507421875,32.59
2021-06-23 15:17:15.398437500,29.0,-2.0,55.0,126.56203124999999,29.485,0.5073418125,32.59
2021-06-23 15:17:15.406250000,29.0,-2.0,55.0,126.561875,34.98,0.50726175,32.59
2021-06-23 15:17:15.414062500,29.0,-2.0,55.0,126.56171875,38.555,0.5071816875,32.59
2021-06-23 15:17:15.421875000,29.0,-2.0,55.0,126.5615625,42.13,0.507101625,32.59
2021-06-23 15:17:15.429687500,29.0,-2.0,55.0,126.56140624999999,43.85,0.5070215625,32.59
2021-06-23 15:17:15.437500000,29.0,-2.0,55.0,126.56125,45.57,0.5069414999999999,32.59
2021-06-23 15:17:15.445312500,29.0,-2.0,55.0,126.56109375,45.67,0.5068614375,32.59
2021-06-23 15:17:15.453125000,29.0,-2.0,55.0,126.5609375,45.77,0.506781375,32.59
2021-06-23 15:17:15.460937500,29.0,-2.0,55.0,126.56078124999999,44.52,0.5067013125,32.59
2021-06-23 15:17:15.468750000,29.0,-2.0,55.0,126.560625,43.27,0.50662125,32.59
2021-06-23 15:17:15.476562500,29.0,-2.0,55.0,126.56046875,40.91,0.5065411875,32.59
2021-06-23 15:17:15.484375000,29.0,-2.0,55.0,126.5603125,38.55,0.506461125,32.59
2021-06-23 15:17:15.492187500,29.0,-2.0,55.0,126.56015624999999,35.379999999999995,0.5063810625,32.59
2021-06-23 15:17:15.500000000,29.0,-2.0,55.0,126.56,32.21,0.506301,32.59
2021-06-23 15:17:15.507812500,29.0,-2.0,55.0,126.55984375,28.615000000000002,0.50634103125,32.59
2021-06-23 15:17:15.515625000,29.0,-2.0,55.0,126.5596875,25.02,0.5063810625,32.59
2021-06-23 15:17:15.523437500,29.0,-2.0,55.0,126.55953124999999,21.485,0.50642109375,32.59
2021-06-23 15:17:15.531250000,29.0,-2.0,55.0,126.55937499999999,17.95,0.506461125,32.59
2021-06-23 15:17:15.539062500,29.0,-2.0,55.0,126.55921875,14.94,0.50650115625,32.59
2021-06-23 15:17:15.546875000,29.0,-2.0,55.0,126.5590625,11.93,0.5065411875,32.59
2021-06-23 15:17:15.554687500,29.0,-2.0,55.0,126.55890624999999,9.765,0.50658121875,32.59
2021-06-23 15:17:15.562500000,29.0,-2.0,55.0,126.55874999999999,7.6,0.50662125,32.59
2021-06-23 15:17:15.570312500,29.0,-2.0,55.0,126.55859375,6.35,0.50666128125,32.59
2021-06-23 15:17:15.578125000,29.0,-2.0,55.0,126.5584375,5.1,0.5067013125,32.59
2021-06-23 15:17:15.585937500,29.0,-2.0,55.0,126.55828125,4.5649999999999995,0.50674134375,32.59
2021-06-23 15:17:15.593750000,29.0,-2.0,55.0,126.55812499999999,4.03,0.506781375,32.59
2021-06-23 15:17:15.601562500,29.0,-2.0,55.0,126.55796875,3.8150000000000004,0.5068214062499999,32.59
2021-06-23 15:17:15.609375000,29.0,-2.0,55.0,126.5578125,3.6,0.5068614375,32.59
2021-06-23 15:17:15.617187500,29.0,-2.0,55.0,126.55765625,3.265,0.50690146875,32.59
2021-06-23 15:17:15.625000000,29.0,-2.0,55.0,126.55749999999999,2.93,0.5069414999999999,32.59
2021-06-23 15:17:15.632812500,28.75,-2.0,55.0,126.55734375,2.1,0.50698153125,32.59
2021-06-23 15:17:15.640625000,28.5,-2.0,55.0,126.5571875,1.27,0.5070215625,32.59
2021-06-23 15:17:15.648437500,28.25,-2.0,55.0,126.55703125,-0.30499999999999994,0.50706159375,32.59
2021-06-23 15:17:15.656250000,28.0,-2.0,55.0,126.55687499999999,-1.88,0.507101625,32.59
2021-06-23 15:17:15.664062500,28.25,-2.0,55.0,126.55671875,-4.365,0.50714165625,32.59
2021-06-23 15:17:15.671875000,28.5,-2.0,55.0,126.5565625,-6.85,0.5071816875,32.59
2021-06-23 15:17:15.679687500,28.75,-2.0,55.0,126.55640625,-10.32,0.50722171875,32.59
2021-06-23 15:17:15.687500000,29.0,-2.0,55.0,126.55624999999999,-13.79,0.50726175,32.59
2021-06-23 15:17:15.695312500,29.0,-2.0,55.0,126.55609375,-18.205,0.50730178125,32.59
2021-06-23 15:17:15.703125000,29.0,-2.0,55.0,126.5559375,-22.62,0.5073418125,32.59
2021-06-23 15:17:15.710937500,29.0,-2.0,55.0,126.55578125,-27.705,0.50738184375,32.59
2021-06-23 15:17:15.718750000,29.0,-2.0,55.0,126.55562499999999,-32.79,0.507421875,32.59
2021-06-23 15:17:15.726562500,29.0,-2.0,55.0,126.55546875,-37.925,0.50746190625,32.59
2021-06-23 15:17:15.734375000,29.0,-2.0,55.0,126.5553125,-43.06,0.5075019374999999,32.59
2021-06-23 15:17:15.742187500,29.0,-2.0,55.0,126.55515625,-47.325,0.50754196875,32.59
2021-06-23 15:17:15.750000000,29.0,-2.0,55.0,126.55499999999999,-51.59,0.507582,32.59
2021-06-23 15:17:15.757812500,28.75,-2.0,55.0,126.55484374999999,-53.92,0.507582,32.59
2021-06-23 15:17:15.765625000,28.5,-2.0,55.0,126.5546875,-56.25,0.507582,32.59
2021-06-23 15:17:15.773437500,28.25,-2.0,55.0,126.55453125,-55.765,0.507582,32.59
2021-06-23 15:17:15.781250000,28.0,-2.0,55.0,126.554375,-55.28,0.507582,32.59
2021-06-23 15:17:15.789062500,28.25,-2.0,55.0,126.55421874999999,-51.655,0.507582,32.59
2021-06-23 15:17:15.796875000,28.5,-2.0,55.0,126.5540625,-48.03,0.507582,32.59
2021-06-23 15:17:15.804687500,28.75,-2.0,55.0,126.55390625,-41.66,0.507582,32.59
2021-06-23 15:17:15.812500000,29.0,-2.0,55.0,126.55375,-35.29,0.507582,32.59
2021-06-23 15:17:15.820312500,29.0,-2.0,55.0,126.55359374999999,-27.185,0.507582,32.59
2021-06-23 15:17:15.828125000,29.0,-2.0,55.0,126.5534375,-19.08,0.507582,32.59
2021-06-23 15:17:15.835937500,29.0,-2.0,55.0,126.55328125,-10.544999999999998,0.507582,32.59
2021-06-23 15:17:15.843750000,29.0,-2.0,55.0,126.553125,-2.01,0.507582,32.59
2021-06-23 15:17:15.851562500,29.0,-2.0,55.0,126.55296874999999,5.795,0.507582,32.59
2021-06-23 15:17:15.859375000,29.0,-2.0,55.0,126.5528125,13.6,0.507582,32.59
2021-06-23 15:17:15.867187500,29.0,-2.0,55.0,126.55265625,19.935,0.507582,32.59
2021-06-23 15:17:15.875000000,29.0,-2.0,55.0,126.5525,26.27,0.507582,32.59
2021-06-23 15:17:15.882812500,29.0,-2.0,55.0,126.55234374999999,30.884999999999998,0.507582,32.59
2021-06-23 15:17:15.890625000,29.0,-2.0,55.0,126.5521875,35.5,0.507582,32.59
2021-06-23 15:17:15.898437500,29.0,-2.0,55.0,126.55203125,38.495000000000005,0.507582,32.59
2021-06-23 15:17:15.906250000,29.0,-2.0,55.0,126.551875,41.49,0.507582,32.59
2021-06-23 15:17:15.914062500,29.0,-2.0,55.0,126.55171874999999,43.035,0.507582,32.59
2021-06-23 15:17:15.921875000,29.0,-2.0,55.0,126.5515625,44.58,0.507582,32.59
2021-06-23 15:17:15.929687500,29.0,-2.0,55.0,126.55140625,44.805,0.507582,32.59
2021-06-23 15:17:15.937500000,29.0,-2.0,55.0,126.55125,45.03,0.507582,32.59
2021-06-23 15:17:15.945312500,29.0,-2.0,55.0,126.55109374999999,44.0,0.507582,32.59
2021-06-23 15:17:15.953125000,29.0,-2.0,55.0,126.5509375,42.97,0.507582,32.59
2021-06-23 15:17:15.960937500,29.0,-2.0,55.0,126.55078125,40.815,0.507582,32.59
2021-06-23 15:17:15.968750000,29.0,-2.0,55.0,126.550625,38.66,0.507582,32.59
2021-06-23 15:17:15.976562500,29.0,-2.0,55.0,126.55046875,35.675,0.507582,32.59
2021-06-23 15:17:15.984375000,29.0,-2.0,55.0,126.5503125,32.69,0.507582,32.59
2021-06-23 15:17:15.992187500,29.0,-2.0,55.0,126.55015625,29.35,0.507582,32.59
2021-06-23 15:17:16.000000000,29.0,-2.0,55.0,126.55,26.01,0.507582,32.59
2021-06-23 15:17:16.007812500,29.0,-2.0,55.0,126.54984375,22.885,0.507421875,32.59
2021-06-23 15:17:16.015625000,29.0,-2.0,55.0,126.54968749999999,19.76,0.50726175,32.59
2021-06-23 15:17:16.023437500,29.0,-2.0,55.0,126.54953125,17.305,0.507101625,32.59
2021-06-23 15:17:16.031250000,29.0,-2.0,55.0,126.549375,14.85,0.5069414999999999,32.59
2021-06-23 15:17:16.039062500,29.0,-2.0,55.0,126.54921875,13.27,0.506781375,32.59
2021-06-23 15:17:16.046875000,29.0,-2.0,55.0,126.54906249999999,11.69,0.50662125,32.59
2021-06-23 15:17:16.054687500,29.0,-2.0,55.0,126.54890625,10.870000000000001,0.506461125,32.59
2021-06-23 15:17:16.062500000,29.0,-2.0,55.0,126.54875,10.05,0.506301,32.59
2021-06-23 15:17:16.070312500,29.0,-2.0,55.0,126.54859375,9.635000000000002,0.5061408749999999,32.59
2021-06-23 15:17:16.078125000,29.0,-2.0,55.0,126.54843749999999,9.22,0.50598075,32.59
2021-06-23 15:17:16.085937500,29.0,-2.0,55.0,126.54828125,8.775,0.505820625,32.59
2021-06-23 15:17:16.093750000,29.0,-2.0,55.0,126.548125,8.33,0.5056605,32.59
2021-06-23 15:17:16.101562500,29.0,-2.0,55.0,126.54796875,7.484999999999999,0.505500375,32.59
2021-06-23 15:17:16.109375000,29.0,-2.0,55.0,126.54781249999999,6.64,0.5053402499999999,32.59
2021-06-23 15:17:16.117187500,29.0,-2.0,55.0,126.54765625,5.16,0.505180125,32.59
2021-06-23 15:17:16.125000000,29.0,-2.0,55.0,126.5475,3.68,0.50502,32.59
2021-06-23 15:17:16.132812500,29.0,-2.0,55.0,126.54734375,1.475,0.504859875,32.59
2021-06-23 15:17:16.140625000,29.0,-2.0,55.0,126.54718749999999,-0.73,0.50469975,32.59
2021-06-23 15:17:16.148437500,29.0,-2.0,55.0,126.54703125,-3.6750000000000003,0.5045396249999999,32.59
2021-06-23 15:17:16.156250000,29.0,-2.0,55.0,126.546875,-6.62,0.5043795,32.59
2021-06-23 15:17:16.164062500,29.0,-2.0,55.0,126.54671875,-10.265,0.5042193749999999,32.59
2021-06-23 15:17:16.171875000,29.0,-2.0,55.0,126.5465625,-13.91,0.50405925,32.59
2021-06-23 15:17:16.179687500,29.0,-2.0,55.0,126.54640625,-18.07,0.503899125,32.59
2021-06-23 15:17:16.187500000,29.0,-2.0,55.0,126.54625,-22.23,0.5037389999999999,32.59
2021-06-23 15:17:16.195312500,29.0,-2.0,55.0,126.54609375,-26.5,0.503578875,32.59
2021-06-23 15:17:16.203125000,29.0,-2.0,55.0,126.5459375,-30.77,0.5034187499999999,32.59
2021-06-23 15:17:16.210937500,29.0,-2.0,55.0,126.54578125,-34.445,0.503258625,32.59
2021-06-23 15:17:16.218750000,29.0,-2.0,55.0,126.545625,-38.12,0.5030985,32.59
2021-06-23 15:17:16.226562500,29.0,-2.0,55.0,126.54546875,-40.32,0.5029383749999999,32.59
2021-06-23 15:17:16.234375000,29.0,-2.0,55.0,126.5453125,-42.52,0.50277825,32.59
2021-06-23 15:17:16.242187500,29.0,-2.0,55.0,126.54515625,-42.405,0.5026181249999999,32.59
2021-06-23 15:17:16.250000000,29.0,-2.0,55.0,126.545,-42.29,0.502458,32.59
2021-06-23 15:17:16.257812500,29.0,-2.0,55.0,126.54484375,-39.4,0.50257809375,32.59
2021-06-23 15:17:16.265625000,29.0,-2.0,55.0,126.5446875,-36.51,0.5026981875,32.59
2021-06-23 15:17:16.273437500,29.0,-2.0,55.0,126.54453124999999,-30.979999999999997,0.5028182812499999,32.59
2021-06-23 15:17:16.281250000,29.0,-2.0,55.0,126.544375,-25.45,0.5029383749999999,32.59
2021-06-23 15:17:16.289062500,29.0,-1.75,55.0,126.54421875,-18.03,0.5030584687499999,32.59
2021-06-23 15:17:16.296875000,29.0,-1.5,55.0,126.5440625,-10.61,0.5031785624999999,32.59
2021-06-23 15:17:16.304687500,29.0,-1.25,55.0,126.54390624999999,-2.455,0.5032986562499999,32.59
2021-06-23 15:17:16.312500000,29.0,-1.0,55.0,126.54375,5.7,0.50341875,32.59
2021-06-23 15:17:16.320312500,29.0,-1.25,55.0,126.54359375,13.41,0.50353884375,32.59
2021-06-23 15:17:16.328125000,29.0,-1.5,55.0,126.5434375,21.12,0.5036589375,32.59
2021-06-23 15:17:16.335937500,29.0,-1.75,55.0,126.54328124999999,27.465000000000003,0.50377903125,32.59
2021-06-23 15:17:16.343750000,29.0,-2.0,55.0,126.543125,33.81,0.503899125,32.59
2021-06-23 15:17:16.351562500,29.0,-2.0,55.0,126.54296875,38.335,0.50401921875,32.59
2021-06-23 15:17:16.359375000,29.0,-2.0,55.0,126.5428125,42.86,0.5041393125,32.59
2021-06-23 15:17:16.367187500,29.0,-2.0,55.0,126.54265625,45.5,0.50425940625,32.59
2021-06-23 15:17:16.375000000,29.0,-2.0,55.0,126.5425,48.14,0.5043795,32.59
2021-06-23 15:17:16.382812500,29.0,-2.0,55.0,126.54234375,49.095,0.50449959375,32.59
2021-06-23 15:17:16.390625000,29.0,-2.0,55.0,126.5421875,50.05,0.5046196875,32.59
2021-06-23 15:17:16.398437500,29.0,-2.0,55.0,126.54203125,49.605,0.50473978125,32.59
2021-06-23 15:17:16.406250000,29.0,-2.0,55.0,126.541875,49.16,0.504859875,32.59
2021-06-23 15:17:16.414062500,29.0,-2.0,55.0,126.54171875,47.599999999999994,0.50497996875,32.59
2021-06-23 15:17:16.421875000,29.0,-2.0,55.0,126.5415625,46.04,0.5051000625,32.59
2021-06-23 15:17:16.429687500,29.0,-2.0,55.0,126.54140625,43.64,0.5052201562499999,32.59
2021-06-23 15:17:16.437500000,29.0,-2.0,55.0,126.54125,41.24,0.5053402499999999,32.59
2021-06-23 15:17:16.445312500,29.0,-2.0,55.0,126.54109375,38.33,0.50546034375,32.59
2021-06-23 15:17:16.453125000,29.0,-2.0,55.0,126.5409375,35.42,0.5055804375,32.59
2021-06-23 15:17:16.460937500,29.0,-2.0,55.0,126.54078125,32.41,0.50570053125,32.59
2021-06-23 15:17:16.468750000,29.0,-2.0,55.0,126.540625,29.4,0.505820625,32.59
2021-06-23 15:17:16.476562500,29.0,-2.0,55.0,126.54046875,26.744999999999997,0.50594071875,32.59
2021-06-23 15:17:16.484375000,29.0,-2.0,55.0,126.5403125,24.09,0.5060608125,32.59
2021-06-23 15:17:16.492187500,29.0,-2.0,55.0,126.54015625,22.195,0.50618090625,32.59
2021-06-23 15:17:16.500000000,29.0,-2.0,55.0,126.53999999999999,20.3,0.506301,32.59
2021-06-23 15:17:16.507812500,29.0,-1.75,55.0,126.53984375,19.36,0.5060608125,32.59
2021-06-23 15:17:16.515625000,29.0,-1.5,55.0,126.5396875,18.42,0.505820625,32.59
2021-06-23 15:17:16.523437500,29.0,-1.25,55.0,126.53953125,18.355,0.5055804375,32.59
2021-06-23 15:17:16.531250000,29.0,-1.0,55.0,126.53937499999999,18.29,0.50534025,32.59
2021-06-23 15:17:16.539062500,29.0,-1.25,55.0,126.53921875,18.725,0.5051000625,32.59
2021-06-23 15:17:16.546875000,29.0,-1.5,55.0,126.5390625,19.16,0.504859875,32.59
2021-06-23 15:17:16.554687500,29.0,-1.75,55.0,126.53890625,19.545,0.5046196875,32.59
2021-06-23 15:17:16.562500000,29.0,-2.0,55.0,126.53875,19.93,0.5043795,32.59
2021-06-23 15:17:16.570312500,29.0,-2.0,55.0,126.53859375,19.740000000000002,0.5041393125,32.59
2021-06-23 15:17:16.578125000,29.0,-2.0,55.0,126.5384375,19.55,0.503899125,32.59
2021-06-23 15:17:16.585937500,29.0,-2.0,55.0,126.53828125,18.395,0.5036589375,32.59
2021-06-23 15:17:16.593750000,29.0,-2.0,55.0,126.538125,17.24,0.50341875,32.59
2021-06-23 15:17:16.601562500,29.0,-2.0,55.0,126.53796875,14.985,0.5031785625,32.59
2021-06-23 15:17:16.609375000,29.0,-2.0,55.0,126.5378125,12.73,0.5029383749999999,32.59
2021-06-23 15:17:16.617187500,29.0,-2.0,55.0,126.53765625,9.39,0.5026981875,32.59
2021-06-23 15:17:16.625000000,29.0,-2.0,55.0,126.5375,6.05,0.502458,32.59
2021-06-23 15:17:16.632812500,29.0,-2.0,55.0,126.53734375,1.7800000000000002,0.5022178125,32.59
2021-06-23 15:17:16.640625000,29.0,-2.0,55.0,126.5371875,-2.49,0.501977625,32.59
2021-06-23 15:17:16.648437500,29.0,-2.0,55.0,126.53703125,-7.4350000000000005,0.5017374375,32.59
2021-06-23 15:17:16.656250000,29.0,-2.0,55.0,126.536875,-12.38,0.50149725,32.59
2021-06-23 15:17:16.664062500,29.0,-2.0,55.0,126.53671875,-17.555,0.5012570625,32.59
2021-06-23 15:17:16.671875000,29.0,-2.0,55.0,126.5365625,-22.73,0.501016875,32.59
2021-06-23 15:17:16.679687500,29.0,-2.0,55.0,126.53640625,-27.439999999999998,0.5007766874999999,32.59
2021-06-23 15:17:16.687500000,29.0,-2.0,55.0,126.53625,-32.15,0.5005364999999999,32.59
2021-06-23 15:17:16.695312500,29.0,-2.0,55.0,126.53609375,-35.465,0.5002963125,32.59
2021-06-23 15:17:16.703125000,29.0,-2.0,55.0,126.5359375,-38.78,0.500056125,32.59
2021-06-23 15:17:16.710937500,29.0,-2.0,55.0,126.53578125,-39.735,0.4998159375,32.59
2021-06-23 15:17:16.718750000,29.0,-2.0,55.0,126.535625,-40.69,0.49957575,32.59
2021-06-23 15:17:16.726562500,29.0,-2.0,55.0,126.53546875,-38.635,0.4993355625,32.59
2021-06-23 15:17:16.734375000,29.0,-2.0,55.0,126.5353125,-36.58,0.49909537499999995,32.59
2021-06-23 15:17:16.742187500,29.0,-2.0,55.0,126.53515625,-31.494999999999997,0.49885518749999996,32.59
2021-06-23 15:17:16.750000000,29.0,-2.0,55.0,126.535,-26.41,0.498615,32.59
2021-06-23 15:17:16.757812500,29.0,-2.0,55.0,126.53484375,-19.009999999999998,0.498775125,32.59
2021-06-23 15:17:16.765625000,29.0,-2.0,55.0,126.5346875,-11.61,0.49893525,32.59
2021-06-23 15:17:16.773437500,29.0,-2.0,55.0,126.53453125,-3.1500000000000004,0.499095375,32.59
2021-06-23 15:17:16.781250000,29.0,-2.0,55.0,126.534375,5.31,0.49925549999999996,32.59
2021-06-23 15:17:16.789062500,29.0,-2.0,55.0,126.53421875,13.415,0.499415625,32.59
2021-06-23 15:17:16.796875000,29.0,-2.0,55.0,126.5340625,21.52,0.49957575,32.59
2021-06-23 15:17:16.804687500,29.0,-2.0,55.0,126.53390625,28.15,0.499735875,32.59
2021-06-23 15:17:16.812500000,29.0,-2.0,55.0,126.53375,34.78,0.499896,32.59
2021-06-23 15:17:16.820312500,29.0,-2.0,55.0,126.53359375,39.355000000000004,0.500056125,32.59
2021-06-23 15:17:16.828125000,29.0,-2.0,55.0,126.5334375,43.93,0.50021625,32.59
2021-06-23 15:17:16.835937500,29.0,-2.0,55.0,126.53328125,46.445,0.500376375,32.59
2021-06-23 15:17:16.843750000,29.0,-2.0,55.0,126.533125,48.96,0.5005365,32.59
2021-06-23 15:17:16.851562500,29.0,-2.0,55.0,126.53296875,49.769999999999996,0.500696625,32.59
2021-06-23 15:17:16.859375000,29.0,-2.0,55.0,126.5328125,50.58,0.50085675,32.59
2021-06-23 15:17:16.867187500,29.0,-2.0,55.0,126.53265625,50.144999999999996,0.501016875,32.59
2021-06-23 15:17:16.875000000,29.0,-2.0,55.0,126.5325,49.71,0.501177,32.59
2021-06-23 15:17:16.882812500,29.0,-2.0,55.0,126.53234375,48.415,0.501337125,32.59
2021-06-23 15:17:16.890625000,29.0,-2.0,55.0,126.5321875,47.12,0.50149725,32.59
2021-06-23 15:17:16.898437500,29.0,-2.0,55.0,126.53203125,45.235,0.5016573750000001,32.59
2021-06-23 15:17:16.906250000,29.0,-2.0,55.0,126.531875,43.35,0.5018175,32.59
2021-06-23 15:17:16.914062500,29.0,-2.0,55.0,126.53171875,41.08,0.501977625,32.59
2021-06-23 15:17:16.921875000,29.0,-2.0,55.0,126.5315625,38.81,0.50213775,32.59
2021-06-23 15:17:16.929687500,29.0,-2.0,55.0,126.53140625,36.355000000000004,0.502297875,32.59
2021-06-23 15:17:16.937500000,29.0,-2.0,55.0,126.53125,33.9,0.5024580000000001,32.59
2021-06-23 15:17:16.945312500,29.0,-2.0,55.0,126.53109375,31.505,0.502618125,32.59
2021-06-23 15:17:16.953125000,29.0,-2.0,55.0,126.53093750000001,29.11,0.50277825,32.59
2021-06-23 15:17:16.960937500,29.0,-2.0,55.0,126.53078125,27.035,0.502938375,32.59
2021-06-23 15:17:16.968750000,29.0,-2.0,55.0,126.530625,24.96,0.5030985,32.59
2021-06-23 15:17:16.976562500,29.0,-2.0,55.0,126.53046875,23.405,0.5032586250000001,32.59
2021-06-23 15:17:16.984375000,29.0,-2.0,55.0,126.53031250000001,21.85,0.50341875,32.59
2021-06-23 15:17:16.992187500,29.0,-2.0,55.0,126.53015625,20.93,0.5035788750000001,32.59
2021-06-23 15:17:17.000000000,29.0,-2.0,55.0,126.53,20.01,0.503739,32.59
2021-06-23 15:17:17.007812500,29.0,-2.0,55.0,126.529921875,19.695,0.50353884375,32.590625
2021-06-23 15:17:17.015625000,29.0,-2.0,55.0,126.52984375,19.38,0.5033386875,32.59125
2021-06-23 15:17:17.023437500,29.0,-2.0,55.0,126.529765625,19.490000000000002,0.5031385312500001,32.591875
2021-06-23 15:17:17.031250000,29.0,-2.0,55.0,126.5296875,19.6,0.502938375,32.5925
2021-06-23 15:17:17.039062500,29.0,-2.0,55.0,126.529609375,19.835,0.50273821875,32.593125
2021-06-23 15:17:17.046875000,29.0,-2.0,55.0,126.52953125,20.07,0.5025380625,32.59375
2021-06-23 15:17:17.054687500,29.0,-2.0,55.0,126.529453125,20.035,0.5023379062500001,32.594375
2021-06-23 15:17:17.062500000,29.0,-2.0,55.0,126.529375,20.0,0.50213775,32.595
2021-06-23 15:17:17.070312500,29.0,-2.0,55.0,126.529296875,19.275,0.50193759375,32.595625000000005
2021-06-23 15:17:17.078125000,29.0,-2.0,55.0,126.52921875,18.55,0.5017374375,32.596250000000005
2021-06-23 15:17:17.085937500,29.0,-2.0,55.0,126.529140625,16.8,0.5015372812500001,32.596875000000004
2021-06-23 15:17:17.093750000,29.0,-2.0,55.0,126.5290625,15.05,0.501337125,32.597500000000004
2021-06-23 15:17:17.101562500,29.0,-2.0,55.0,126.52898437500001,12.095,0.50113696875,32.598125
2021-06-23 15:17:17.109375000,29.0,-2.0,55.0,126.52890625,9.14,0.5009368125,32.59875
2021-06-23 15:17:17.117187500,29.0,-2.0,55.0,126.528828125,5.04,0.5007366562500001,32.599375
2021-06-23 15:17:17.125000000,29.0,-2.0,55.0,126.52875,0.94,0.5005365,32.6
2021-06-23 15:17:17.132812500,29.0,-2.0,55.0,126.528671875,-3.935,0.50033634375,32.600625
2021-06-23 15:17:17.140625000,29.0,-2.0,55.0,126.52859375,-8.81,0.5001361875,32.60125
2021-06-23 15:17:17.148437500,29.0,-2.0,55.0,126.528515625,-13.844999999999999,0.49993603125,32.601875
2021-06-23 15:17:17.156250000,29.0,-2.0,55.0,126.5284375,-18.88,0.499735875,32.6025
2021-06-23 15:17:17.164062500,28.75,-2.0,55.0,126.528359375,-23.244999999999997,0.49953571875,32.603125
2021-06-23 15:17:17.171875000,28.5,-2.0,55.0,126.52828125,-27.61,0.4993355625,32.60375
2021-06-23 15:17:17.179687500,28.25,-2.0,55.0,126.528203125,-30.44,0.49913540625,32.604375
2021-06-23 15:17:17.187500000,28.0,-2.0,55.0,126.528125,-33.27,0.49893525,32.605000000000004
2021-06-23 15:17:17.195312500,28.25,-2.0,55.0,126.528046875,-33.855000000000004,0.49873509375,32.605625
2021-06-23 15:17:17.203125000,28.5,-2.0,55.0,126.52796875,-34.44,0.4985349375,32.60625
2021-06-23 15:17:17.210937500,28.75,-2.0,55.0,126.527890625,-32.415,0.49833478125,32.606875
2021-06-23 15:17:17.218750000,29.0,-2.0,55.0,126.5278125,-30.39,0.498134625,32.6075
2021-06-23 15:17:17.226562500,29.0,-2.0,55.0,126.527734375,-25.89,0.49793446875,32.608125
2021-06-23 15:17:17.234375000,29.0,-2.0,55.0,126.52765625,-21.39,0.4977343125,32.60875
2021-06-23 15:17:17.242187500,29.0,-2.0,55.0,126.527578125,-15.035,0.49753415625,32.609375
2021-06-23 15:17:17.250000000,29.0,-2.0,55.0,126.5275,-8.68,0.497334,32.61
2021-06-23 15:17:17.257812500,29.0,-2.0,55.0,126.527421875,-1.4350000000000005,0.49745409375,32.61
2021-06-23 15:17:17.265625000,29.0,-2.0,55.0,126.52734375,5.81,0.4975741875,32.61
2021-06-23 15:17:17.273437500,29.0,-2.0,55.0,126.527265625,12.879999999999999,0.49769428125,32.61
2021-06-23 15:17:17.281250000,29.0,-2.0,55.0,126.5271875,19.95,0.497814375,32.61
2021-06-23 15:17:17.289062500,29.0,-2.0,55.0,126.527109375,25.965,0.49793446874999997,32.61
2021-06-23 15:17:17.296875000,29.0,-2.0,55.0,126.52703125,31.98,0.4980545625,32.61
2021-06-23 15:17:17.304687500,29.0,-2.0,55.0,126.526953125,36.38,0.49817465625,32.61
2021-06-23 15:17:17.312500000,29.0,-2.0,55.0,126.526875,40.78,0.49829475,32.61
2021-06-23 15:17:17.320312500,29.0,-2.0,55.0,126.526796875,43.400000000000006,0.49841484375,32.61
2021-06-23 15:17:17.328125000,29.0,-2.0,55.0,126.52671875,46.02,0.4985349375,32.61
2021-06-23 15:17:17.335937500,29.0,-2.0,55.0,126.526640625,46.995000000000005,0.49865503125,32.61
2021-06-23 15:17:17.343750000,29.0,-2.0,55.0,126.5265625,47.97,0.498775125,32.61
2021-06-23 15:17:17.351562500,29.0,-2.0,55.0,126.526484375,47.585,0.49889521875,32.61
2021-06-23 15:17:17.359375000,29.0,-2.0,55.0,126.52640625,47.2,0.4990153125,32.61
2021-06-23 15:17:17.367187500,29.0,-2.0,55.0,126.526328125,45.775000000000006,0.49913540624999997,32.61
2021-06-23 15:17:17.375000000,29.0,-2.0,55.0,126.52625,44.35,0.49925549999999996,32.61
2021-06-23 15:17:17.382812500,29.0,-2.0,55.0,126.526171875,42.205,0.49937559375,32.61
2021-06-23 15:17:17.390625000,29.0,-2.0,55.0,126.52609375,40.06,0.4994956875,32.61
2021-06-23 15:17:17.398437500,29.0,-2.0,55.0,126.526015625,37.480000000000004,0.49961578125,32.61
2021-06-23 15:17:17.406250000,29.0,-2.0,55.0,126.5259375,34.9,0.499735875,32.61
2021-06-23 15:17:17.414062500,29.0,-2.0,55.0,126.525859375,32.205,0.49985596875,32.61
2021-06-23 15:17:17.421875000,29.0,-2.0,55.0,126.52578125,29.51,0.4999760625,32.61
2021-06-23 15:17:17.429687500,29.0,-2.0,55.0,126.52570312499999,27.035,0.50009615625,32.61
2021-06-23 15:17:17.437500000,29.0,-2.0,55.0,126.525625,24.56,0.50021625,32.61
2021-06-23 15:17:17.445312500,28.75,-2.0,55.0,126.525546875,22.634999999999998,0.50033634375,32.61
2021-06-23 15:17:17.453125000,28.5,-2.0,55.0,126.52546875,20.71,0.5004564375,32.61
2021-06-23 15:17:17.460937500,28.25,-2.0,55.0,126.525390625,19.565,0.50057653125,32.61
2021-06-23 15:17:17.468750000,28.0,-2.0,55.0,126.5253125,18.42,0.500696625,32.61
2021-06-23 15:17:17.476562500,28.25,-2.0,55.0,126.525234375,18.08,0.50081671875,32.61
2021-06-23 15:17:17.484375000,28.5,-2.0,55.0,126.52515625,17.74,0.5009368125,32.61
2021-06-23 15:17:17.492187500,28.75,-2.0,55.0,126.525078125,17.985,0.50105690625,32.61
2021-06-23 15:17:17.500000000,29.0,-2.0,55.0,126.525,18.23,0.501177,32.61
2021-06-23 15:17:17.507812500,29.0,-2.0,55.0,126.524921875,18.665,0.5010969375,32.61
2021-06-23 15:17:17.515625000,29.0,-2.0,55.0,126.52484375,19.1,0.501016875,32.61
2021-06-23 15:17:17.523437500,29.0,-2.0,55.0,126.524765625,19.245,0.5009368125,32.61
2021-06-23 15:17:17.531250000,29.0,-2.0,55.0,126.5246875,19.39,0.50085675,32.61
2021-06-23 15:17:17.539062500,28.75,-2.0,55.0,126.524609375,18.845,0.5007766874999999,32.61
2021-06-23 15:17:17.546875000,28.5,-2.0,55.0,126.52453125,18.3,0.500696625,32.61
2021-06-23 15:17:17.554687500,28.25,-2.0,55.0,126.524453125,16.82,0.5006165625,32.61
2021-06-23 15:17:17.562500000,28.0,-2.0,55.0,126.52437499999999,15.34,0.5005364999999999,32.61
2021-06-23 15:17:17.570312500,28.25,-2.0,55.0,126.524296875,12.85,0.5004564375,32.61
2021-06-23 15:17:17.578125000,28.5,-2.0,55.0,126.52421875,10.36,0.500376375,32.61
2021-06-23 15:17:17.585937500,28.75,-2.0,55.0,126.524140625,6.935,0.5002963125,32.61
2021-06-23 15:17:17.593750000,29.0,-2.0,55.0,126.5240625,3.51,0.50021625,32.61
2021-06-23 15:17:17.601562500,29.0,-2.0,55.0,126.523984375,-0.6500000000000004,0.5001361875,32.61
2021-06-23 15:17:17.609375000,29.0,-2.0,55.0,126.52390625,-4.81,0.500056125,32.61
2021-06-23 15:17:17.617187500,29.0,-2.0,55.0,126.523828125,-9.370000000000001,0.4999760625,32.61
2021-06-23 15:17:17.625000000,29.0,-2.0,55.0,126.52374999999999,-13.93,0.499896,32.61
2021-06-23 15:17:17.632812500,28.75,-2.0,55.0,126.52367187499999,-18.36,0.4998159375,32.61
2021-06-23 15:17:17.640625000,28.5,-2.0,55.0,126.52359375,-22.79,0.499735875,32.61
2021-06-23 15:17:17.648437500,28.25,-2.0,55.0,126.523515625,-26.36,0.49965581249999996,32.61
2021-06-23 15:17:17.656250000,28.0,-2.0,55.0,126.5234375,-29.93,0.49957575,32.61
2021-06-23 15:17:17.664062500,28.25,-2.0,55.0,126.523359375,-31.86,0.49949568749999995,32.61
2021-06-23 15:17:17.671875000,28.5,-2.0,55.0,126.52328125,-33.79,0.499415625,32.61
2021-06-23 15:17:17.679687500,28.75,-2.0,55.0,126.523203125,-33.455,0.4993355625,32.61
2021-06-23 15:17:17.687500000,29.0,-2.0,55.0,126.523125,-33.12,0.49925549999999996,32.61
2021-06-23 15:17:17.695312500,29.0,-2.0,55.0,126.52304687499999,-30.299999999999997,0.4991754375,32.61
2021-06-23 15:17:17.703125000,29.0,-2.0,55.0,126.52296875,-27.48,0.49909537499999995,32.61
2021-06-23 15:17:17.710937500,29.0,-2.0,55.0,126.522890625,-22.5,0.4990153125,32.61
2021-06-23 15:17:17.718750000,29.0,-2.0,55.0,126.5228125,-17.52,0.49893525,32.61
2021-06-23 15:17:17.726562500,29.0,-2.0,55.0,126.522734375,-11.195,0.49885518749999996,32.61
2021-06-23 15:17:17.734375000,29.0,-2.0,55.0,126.52265625,-4.87,0.498775125,32.61
2021-06-23 15:17:17.742187500,29.0,-2.0,55.0,126.522578125,1.71,0.49869506249999995,32.61
2021-06-23 15:17:17.750000000,29.0,-2.0,55.0,126.5225,8.29,0.498615,32.61
2021-06-23 15:17:17.757812500,29.0,-2.0,55.0,126.52242187499999,14.1,0.49865503125,32.61
2021-06-23 15:17:17.765625000,29.0,-2.0,55.0,126.52234374999999,19.91,0.49869506249999995,32.61
2021-06-23 15:17:17.773437500,29.0,-2.0,55.0,126.522265625,24.225,0.49873509374999997,32.61
2021-06-23 15:17:17.781250000,29.0,-2.0,55.0,126.5221875,28.54,0.498775125,32.61
2021-06-23 15:17:17.789062500,29.0,-2.0,55.0,126.522109375,31.07,0.49881515625,32.61
2021-06-23 15:17:17.796875000,29.0,-2.0,55.0,126.52203125,33.6,0.49885518749999996,32.61
2021-06-23 15:17:17.804687500,29.0,-2.0,55.0,126.521953125,34.42,0.49889521875,32.61
2021-06-23 15:17:17.812500000,29.0,-2.0,55.0,126.521875,35.24,0.49893525,32.61
2021-06-23 15:17:17.820312500,29.0,-2.0,55.0,126.52179687499999,34.67,0.49897528124999996,32.61
2021-06-23 15:17:17.828125000,29.0,-2.0,55.0,126.52171874999999,34.1,0.4990153125,32.61
2021-06-23 15:17:17.835937500,29.0,-2.0,55.0,126.521640625,32.525,0.49905534375,32.61
2021-06-23 15:17:17.843750000,29.0,-2.0,55.0,126.5215625,30.95,0.499095375,32.61
2021-06-23 15:17:17.851562500,29.0,-2.0,55.0,126.521484375,28.740000000000002,0.49913540624999997,32.61
2021-06-23 15:17:17.859375000,29.0,-2.0,55.0,126.52140625,26.53,0.4991754375,32.61
2021-06-23 15:17:17.867187500,29.0,-2.0,55.0,126.521328125,23.98,0.49921546875,32.61
2021-06-23 15:17:17.875000000,29.0,-2.0,55.0,126.52125,21.43,0.49925549999999996,32.61
2021-06-23 15:17:17.882812500,29.0,-2.0,55.0,126.521171875,18.795,0.49929553125,32.61
2021-06-23 15:17:17.890625000,29.0,-2.0,55.0,126.52109374999999,16.16,0.4993355625,32.61
2021-06-23 15:17:17.898437500,29.0,-2.0,55.0,126.52101562499999,13.66,0.49937559375,32.61
2021-06-23 15:17:17.906250000,29.0,-2.0,55.0,126.5209375,11.16,0.499415625,32.61
2021-06-23 15:17:17.914062500,29.0,-2.0,55.0,126.520859375,9.015,0.49945565625,32.61
2021-06-23 15:17:17.921875000,29.0,-2.0,55.0,126.52078125,6.87,0.4994956875,32.61
2021-06-23 15:17:17.929687500,29.0,-2.0,55.0,126.520703125,5.23,0.49953571875,32.61
2021-06-23 15:17:17.937500000,29.0,-2.0,55.0,126.520625,3.59,0.49957575,32.61
2021-06-23 15:17:17.945312500,29.0,-2.0,55.0,126.520546875,2.5149999999999997,0.49961578125,32.61
2021-06-23 15:17:17.953125000,29.0,-2.0,55.0,126.52046874999999,1.44,0.4996558125,32.61
2021-06-23 15:17:17.960937500,29.0,-2.0,55.0,126.52039062499999,0.835,0.49969584375,32.61
2021-06-23 15:17:17.968750000,29.0,-2.0,55.0,126.5203125,0.23,0.499735875,32.61
2021-06-23 15:17:17.976562500,29.0,-2.0,55.0,126.520234375,-0.11500000000000002,0.49977590625,32.61
2021-06-23 15:17:17.984375000,29.0,-2.0,55.0,126.52015625,-0.46,0.49981593750000003,32.61
2021-06-23 15:17:17.992187500,29.0,-2.0,55.0,126.520078125,-0.815,0.49985596875,32.61
2021-06-23 15:17:18.000000000,29.0,-2.0,55.0,126.52,-1.17,0.499896,32.61
2021-06-23 15:17:18.007812500,29.0,-2.0,55.0,126.51984374999999,-1.795,0.49985596875,32.609375
2021-06-23 15:17:18.015625000,29.0,-2.0,55.0,126.51968749999999,-2.42,0.49981593750000003,32.60875
2021-06-23 15:17:18.023437500,29.0,-2.0,55.0,126.51953125,-3.46,0.49977590625,32.608125
2021-06-23 15:17:18.031250000,29.0,-2.0,55.0,126.519375,-4.5,0.499735875,32.6075
2021-06-23 15:17:18.039062500,29.0,-2.0,55.0,126.51921875,-6.08,0.49969584375,32.606875
2021-06-23 15:17:18.046875000,29.0,-2.0,55.0,126.51906249999999,-7.66,0.4996558125,32.60625
2021-06-23 15:17:18.054687500,29.0,-2.0,55.0,126.51890625,-9.844999999999999,0.49961578125,32.605625
2021-06-23 15:17:18.062500000,29.0,-2.0,55.0,126.51875,-12.03,0.49957575,32.605000000000004
2021-06-23 15:17:18.070312500,29.0,-2.0,55.0,126.51859375,-14.864999999999998,0.49953571875,32.604375
2021-06-23 15:17:18.078125000,29.0,-2.0,55.0,126.51843749999999,-17.7,0.4994956875,32.60375
2021-06-23 15:17:18.085937500,29.0,-2.0,55.0,126.51828125,-21.1,0.49945565625,32.603125
2021-06-23 15:17:18.093750000,29.0,-2.0,55.0,126.518125,-24.5,0.499415625,32.6025
2021-06-23 15:17:18.101562500,29.0,-2.0,55.0,126.51796875,-28.17,0.49937559375,32.601875
2021-06-23 15:17:18.109375000,29.0,-2.0,55.0,126.51781249999999,-31.84,0.4993355625,32.60125
2021-06-23 15:17:18.117187500,29.0,-2.0,55.0,126.51765625,-35.195,0.49929553125,32.600625
2021-06-23 15:17:18.125000000,29.0,-2.0,55.0,126.5175,-38.55,0.49925549999999996,32.6
2021-06-23 15:17:18.132812500,29.0,-2.0,55.0,126.51734375,-40.79,0.49921546875,32.599375
2021-06-23 15:17:18.140625000,29.0,-2.0,55.0,126.51718749999999,-43.03,0.4991754375,32.59875
2021-06-23 15:17:18.148437500,29.0,-2.0,55.0,126.51703125,-43.41,0.49913540624999997,32.598125
2021-06-23 15:17:18.156250000,29.0,-2.0,55.0,126.516875,-43.79,0.499095375,32.597500000000004
2021-06-23 15:17:18.164062500,29.0,-2.0,55.0,126.51671875,-41.879999999999995,0.49905534375,32.596875000000004
2021-06-23 15:17:18.171875000,29.0,-2.0,55.0,126.51656249999999,-39.97,0.4990153125,32.596250000000005
2021-06-23 15:17:18.179687500,29.0,-2.0,55.0,126.51640625,-35.915,0.49897528124999996,32.595625000000005
2021-06-23 15:17:18.187500000,29.0,-2.0,55.0,126.51625,-31.86,0.49893525,32.595
2021-06-23 15:17:18.195312500,29.0,-2.0,55.0,126.51609375,-26.335,0.49889521875,32.594375
2021-06-23 15:17:18.203125000,29.0,-2.0,55.0,126.51593749999999,-20.81,0.49885518749999996,32.59375
2021-06-23 15:17:18.210937500,29.0,-2.0,55.0,126.51578125,-14.82,0.49881515625,32.593125
2021-06-23 15:17:18.218750000,29.0,-2.0,55.0,126.515625,-8.83,0.498775125,32.5925
2021-06-23 15:17:18.226562500,29.0,-2.0,55.0,126.51546875,-3.365,0.49873509374999997,32.591875
2021-06-23 15:17:18.234375000,29.0,-2.0,55.0,126.5153125,2.1,0.49869506249999995,32.59125
2021-06-23 15:17:18.242187500,29.0,-2.0,55.0,126.51515625,6.355,0.49865503125,32.590625
2021-06-23 15:17:18.250000000,29.0,-2.0,55.0,126.515,10.61,0.498615,32.59
2021-06-23 15:17:18.257812500,28.75,-2.0,55.0,126.51484375,13.39,0.49853490624999997,32.59
2021-06-23 15:17:18.265625000,28.5,-2.0,55.0,126.5146875,16.17,0.49845481249999996,32.59
2021-06-23 15:17:18.273437500,28.25,-2.0,55.0,126.51453124999999,17.545,0.49837471875,32.59
2021-06-23 15:17:18.281250000,28.0,-2.0,55.0,126.514375,18.92,0.498294625,32.59
2021-06-23 15:17:18.289062500,28.25,-2.0,55.0,126.51421875,19.135,0.49821453125,32.59
2021-06-23 15:17:18.296875000,28.5,-2.0,55.0,126.5140625,19.35,0.49813443749999997,32.59
2021-06-23 15:17:18.304687500,28.75,-2.0,55.0,126.51390624999999,18.645000000000003,0.49805434374999996,32.59
2021-06-23 15:17:18.312500000,29.0,-2.0,55.0,126.51375,17.94,0.49797424999999995,32.59
2021-06-23 15:17:18.320312500,29.0,-2.0,55.0,126.51359375,16.5,0.49789415625,32.59
2021-06-23 15:17:18.328125000,29.0,-2.0,55.0,126.5134375,15.06,0.4978140625,32.59
2021-06-23 15:17:18.335937500,29.0,-2.0,55.0,126.51328124999999,13.055,0.49773396875,32.59
2021-06-23 15:17:18.343750000,29.0,-2.0,55.0,126.513125,11.05,0.49765387499999997,32.59
2021-06-23 15:17:18.351562500,29.0,-2.0,55.0,126.51296875,8.690000000000001,0.49757378124999996,32.59
2021-06-23 15:17:18.359375000,29.0,-2.0,55.0,126.5128125,6.33,0.4974936875,32.59
2021-06-23 15:17:18.367187500,29.0,-2.0,55.0,126.51265624999999,3.915,0.49741359375,32.59
2021-06-23 15:17:18.375000000,29.0,-2.0,55.0,126.5125,1.5,0.4973335,32.59
2021-06-23 15:17:18.382812500,28.75,-2.0,55.0,126.51234375,-0.665,0.49725340625,32.59
2021-06-23 15:17:18.390625000,28.5,-2.0,55.0,126.5121875,-2.83,0.49717331249999996,32.59
2021-06-23 15:17:18.398437500,28.25,-2.0,55.0,126.51203124999999,-4.505,0.49709321875,32.59
2021-06-23 15:17:18.406250000,28.0,-2.0,55.0,126.511875,-6.18,0.497013125,32.59
2021-06-23 15:17:18.414062500,28.25,-2.0,55.0,126.51171875,-7.295,0.49693303125,32.59
2021-06-23 15:17:18.421875000,28.5,-2.0,55.0,126.5115625,-8.41,0.4968529375,32.59
2021-06-23 15:17:18.429687500,28.75,-2.0,55.0,126.51140625,-9.06,0.49677284374999997,32.59
2021-06-23 15:17:18.437500000,29.0,-2.0,55.0,126.51125,-9.71,0.49669275,32.59
2021-06-23 15:17:18.445312500,29.0,-2.0,55.0,126.51109375,-10.11,0.49661265625,32.59
2021-06-23 15:17:18.453125000,29.0,-2.0,55.0,126.5109375,-10.51,0.4965325625,32.59
2021-06-23 15:17:18.460937500,29.0,-2.0,55.0,126.51078125,-10.905000000000001,0.49645246875,32.59
2021-06-23 15:17:18.468750000,29.0,-2.0,55.0,126.510625,-11.3,0.496372375,32.59
2021-06-23 15:17:18.476562500,29.0,-2.0,55.0,126.51046875,-11.88,0.49629228124999997,32.59
2021-06-23 15:17:18.484375000,29.0,-2.0,55.0,126.5103125,-12.46,0.4962121875,32.59
2021-06-23 15:17:18.492187500,29.0,-2.0,55.0,126.51015625,-13.375,0.49613209375,32.59
2021-06-23 15:17:18.500000000,29.0,-2.0,55.0,126.50999999999999,-14.29,0.496052,32.59
2021-06-23 15:17:18.507812500,29.0,-2.0,55.0,126.50984375,-15.69,0.496052,32.59
2021-06-23 15:17:18.515625000,29.0,-2.0,55.0,126.5096875,-17.09,0.496052,32.59
