TimeStamp,empatica.acc.x,empatica.acc.y,empatica.acc.z,empatica.hr,empatica.bvp,empatica.eda,empatica.temp
2021-06-23 15:24:32.257812500,61.75,-4.0,14.0,125.19484375,16.67,0.12685578125,32.66
2021-06-23 15:24:32.265625000,61.5,-4.0,14.0,125.1946875,19.78,0.1266155625,32.66
2021-06-23 15:24:32.273437500,61.25,-4.0,14.0,125.19453125,22.155,0.12637534374999998,32.66
2021-06-23 15:24:32.281250000,61.0,-4.0,14.0,125.19437500000001,24.53,0.126135125,32.66
2021-06-23 15:24:32.289062500,61.25,-3.75,13.75,125.19421875,25.86,0.12589490625,32.66
2021-06-23 15:24:32.296875000,61.5,-3.5,13.5,125.1940625,27.19,0.1256546875,32.66
2021-06-23 15:24:32.304687500,61.75,-3.25,13.25,125.19390625,27.475,0.12541446874999998,32.66
2021-06-23 15:24:32.312500000,62.0,-3.0,13.0,125.19375000000001,27.76,0.12517425,32.66
2021-06-23 15:24:32.320312500,62.0,-3.0,13.25,125.19359375,27.19,0.12493403125,32.66
2021-06-23 15:24:32.328125000,62.0,-3.0,13.5,125.1934375,26.62,0.12469381249999999,32.66
2021-06-23 15:24:32.335937500,62.0,-3.0,13.75,125.19328125,25.445,0.12445359375,32.66
2021-06-23 15:24:32.343750000,62.0,-3.0,14.0,125.19312500000001,24.27,0.12421337499999999,32.66
2021-06-23 15:24:32.351562500,62.0,-3.25,13.75,125.19296875,22.695,0.12397315625,32.66
2021-06-23 15:24:32.359375000,62.0,-3.5,13.5,125.1928125,21.12,0.12373293749999999,32.66
2021-06-23 15:24:32.367187500,62.0,-3.75,13.25,125.19265625,19.3,0.12349271875,32.66
2021-06-23 15:24:32.375000000,62.0,-4.0,13.0,125.19250000000001,17.48,0.12325249999999999,32.66
2021-06-23 15:24:32.382812500,62.0,-3.75,13.0,125.19234375,15.57,0.12301228125,32.66
2021-06-23 15:24:32.390625000,62.0,-3.5,13.0,125.1921875,13.66,0.1227720625,32.66
2021-06-23 15:24:32.398437500,62.0,-3.25,13.0,125.19203125,11.82,0.12253184375,32.66
2021-06-23 15:24:32.406250000,62.0,-3.0,13.0,125.19187500000001,9.98,0.122291625,32.66
2021-06-23 15:24:32.414062500,62.0,-3.25,13.25,125.19171875,8.42,0.12205140625,32.66
2021-06-23 15:24:32.421875000,62.0,-3.5,13.5,125.1915625,6.86,0.1218111875,32.66
2021-06-23 15:24:32.429687500,62.0,-3.75,13.75,125.19140625,5.74,0.12157096875,32.66
2021-06-23 15:24:32.437500000,62.0,-4.0,14.0,125.19125000000001,4.62,0.12133075,32.66
2021-06-23 15:24:32.445312500,62.0,-4.0,14.0,125.19109375000001,4.04,0.12109053125,32.66
2021-06-23 15:24:32.453125000,62.0,-4.0,14.0,125.1909375,3.46,0.1208503125,32.66
2021-06-23 15:24:32.460937500,62.0,-4.0,14.0,125.19078125,3.3899999999999997,0.12061009375,32.66
2021-06-23 15:24:32.468750000,62.0,-4.0,14.0,125.19062500000001,3.32,0.120369875,32.66
2021-06-23 15:24:32.476562500,62.0,-4.0,14.0,125.19046875000001,3.625,0.12012965625,32.66
2021-06-23 15:24:32.484375000,62.0,-4.0,14.0,125.1903125,3.93,0.1198894375,32.66
2021-06-23 15:24:32.492187500,62.0,-4.0,14.0,125.19015625,4.405,0.11964921875000001,32.66
2021-06-23 15:24:32.500000000,62.0,-4.0,14.0,125.19,4.88,0.119409,32.66
2021-06-23 15:24:32.507812500,62.0,-4.0,14.0,125.18984375000001,5.295,0.1194890625,32.66
2021-06-23 15:24:32.515625000,62.0,-4.0,14.0,125.1896875,5.71,0.119569125,32.66
2021-06-23 15:24:32.523437500,62.0,-4.0,14.0,125.18953125,5.84,0.1196491875,32.66
2021-06-23 15:24:32.531250000,62.0,-4.0,14.0,125.189375,5.97,0.11972925,32.66
2021-06-23 15:24:32.539062500,61.75,-3.75,14.0,125.18921875000001,5.6,0.1198093125,32.66
2021-06-23 15:24:32.546875000,61.5,-3.5,14.0,125.1890625,5.23,0.119889375,32.66
2021-06-23 15:24:32.554687500,61.25,-3.25,14.0,125.18890625,4.24,0.1199694375,32.66
2021-06-23 15:24:32.562500000,61.0,-3.0,14.0,125.18875,3.25,0.1200495,32.66
2021-06-23 15:24:32.570312500,61.25,-3.0,14.0,125.18859375000001,1.585,0.1201295625,32.66
2021-06-23 15:24:32.578125000,61.5,-3.0,14.0,125.1884375,-0.08,0.120209625,32.66
2021-06-23 15:24:32.585937500,61.75,-3.0,14.0,125.18828125,-2.295,0.1202896875,32.66
2021-06-23 15:24:32.593750000,62.0,-3.0,14.0,125.188125,-4.51,0.12036975,32.66
2021-06-23 15:24:32.601562500,61.75,-3.25,14.0,125.18796875000001,-7.01,0.1204498125,32.66
2021-06-23 15:24:32.609375000,61.5,-3.5,14.0,125.1878125,-9.51,0.120529875,32.66
2021-06-23 15:24:32.617187500,61.25,-3.75,14.0,125.18765625,-11.86,0.1206099375,32.66
2021-06-23 15:24:32.625000000,61.0,-4.0,14.0,125.1875,-14.21,0.12068999999999999,32.66
2021-06-23 15:24:32.632812500,61.25,-3.75,14.0,125.18734375000001,-15.915000000000001,0.1207700625,32.66
2021-06-23 15:24:32.640625000,61.5,-3.5,14.0,125.18718750000001,-17.62,0.120850125,32.66
2021-06-23 15:24:32.648437500,61.75,-3.25,14.0,125.18703125,-18.275,0.1209301875,32.66
2021-06-23 15:24:32.656250000,62.0,-3.0,14.0,125.186875,-18.93,0.12101025,32.66
2021-06-23 15:24:32.664062500,62.0,-3.0,14.0,125.18671875000001,-18.295,0.12109031249999999,32.66
2021-06-23 15:24:32.671875000,62.0,-3.0,14.0,125.18656250000001,-17.66,0.121170375,32.66
2021-06-23 15:24:32.679687500,62.0,-3.0,14.0,125.18640625,-15.79,0.1212504375,32.66
2021-06-23 15:24:32.687500000,62.0,-3.0,14.0,125.18625,-13.92,0.1213305,32.66
2021-06-23 15:24:32.695312500,62.0,-3.0,13.75,125.18609375000001,-11.105,0.1214105625,32.66
2021-06-23 15:24:32.703125000,62.0,-3.0,13.5,125.18593750000001,-8.29,0.12149062499999999,32.66
2021-06-23 15:24:32.710937500,62.0,-3.0,13.25,125.18578125,-5.0,0.1215706875,32.66
2021-06-23 15:24:32.718750000,62.0,-3.0,13.0,125.185625,-1.71,0.12165075,32.66
2021-06-23 15:24:32.726562500,62.0,-3.25,13.25,125.18546875000001,1.585,0.1217308125,32.66
2021-06-23 15:24:32.734375000,62.0,-3.5,13.5,125.18531250000001,4.88,0.121810875,32.66
2021-06-23 15:24:32.742187500,62.0,-3.75,13.75,125.18515625,7.8100000000000005,0.12189093749999999,32.66
2021-06-23 15:24:32.750000000,62.0,-4.0,14.0,125.185,10.74,0.121971,32.66
2021-06-23 15:24:32.757812500,62.0,-4.0,14.0,125.18484375,13.09,0.12201103125,32.66
2021-06-23 15:24:32.765625000,62.0,-4.0,14.0,125.18468750000001,15.44,0.1220510625,32.66
2021-06-23 15:24:32.773437500,62.0,-4.0,14.0,125.18453125,17.15,0.12209109374999999,32.66
2021-06-23 15:24:32.781250000,62.0,-4.0,14.0,125.184375,18.86,0.122131125,32.66
2021-06-23 15:24:32.789062500,62.0,-3.75,14.0,125.18421875,19.97,0.12217115625,32.66
2021-06-23 15:24:32.796875000,62.0,-3.5,14.0,125.18406250000001,21.08,0.1222111875,32.66
2021-06-23 15:24:32.804687500,62.0,-3.25,14.0,125.18390625,21.655,0.12225121875,32.66
2021-06-23 15:24:32.812500000,62.0,-3.0,14.0,125.18375,22.23,0.12229124999999999,32.66
2021-06-23 15:24:32.820312500,61.75,-3.25,14.0,125.18359375,22.365000000000002,0.12233128124999999,32.66
2021-06-23 15:24:32.828125000,61.5,-3.5,14.0,125.18343750000001,22.5,0.1223713125,32.66
2021-06-23 15:24:32.835937500,61.25,-3.75,14.0,125.18328125000001,22.305,0.12241134375,32.66
2021-06-23 15:24:32.843750000,61.0,-4.0,14.0,125.183125,22.11,0.122451375,32.66
2021-06-23 15:24:32.851562500,61.25,-3.75,14.0,125.18296875,21.68,0.12249140625,32.66
2021-06-23 15:24:32.859375000,61.5,-3.5,14.0,125.18281250000001,21.25,0.12253143749999999,32.66
2021-06-23 15:24:32.867187500,61.75,-3.25,14.0,125.18265625000001,20.71,0.12257146875,32.66
2021-06-23 15:24:32.875000000,62.0,-3.0,14.0,125.1825,20.17,0.1226115,32.66
2021-06-23 15:24:32.882812500,62.0,-3.0,14.0,125.18234375,19.61,0.12265153125,32.66
2021-06-23 15:24:32.890625000,62.0,-3.0,14.0,125.18218750000001,19.05,0.1226915625,32.66
2021-06-23 15:24:32.898437500,62.0,-3.0,14.0,125.18203125000001,18.52,0.12273159374999999,32.66
2021-06-23 15:24:32.906250000,62.0,-3.0,14.0,125.181875,17.99,0.122771625,32.66
2021-06-23 15:24:32.914062500,61.75,-3.0,14.0,125.18171875,17.5,0.12281165625,32.66
2021-06-23 15:24:32.921875000,61.5,-3.0,14.0,125.18156250000001,17.01,0.1228516875,32.66
2021-06-23 15:24:32.929687500,61.25,-3.0,14.0,125.18140625000001,16.555,0.12289171875,32.66
2021-06-23 15:24:32.937500000,61.0,-3.0,14.0,125.18125,16.1,0.12293175,32.66
2021-06-23 15:24:32.945312500,61.25,-3.0,14.0,125.18109375,15.635000000000002,0.12297178125,32.66
2021-06-23 15:24:32.953125000,61.5,-3.0,14.0,125.18093750000001,15.17,0.1230118125,32.66
2021-06-23 15:24:32.960937500,61.75,-3.0,14.0,125.18078125000001,14.66,0.12305184375,32.66
2021-06-23 15:24:32.968750000,62.0,-3.0,14.0,125.180625,14.15,0.123091875,32.66
2021-06-23 15:24:32.976562500,62.0,-3.0,14.0,125.18046875,13.530000000000001,0.12313190625,32.66
2021-06-23 15:24:32.984375000,62.0,-3.0,14.0,125.18031250000001,12.91,0.1231719375,32.66
2021-06-23 15:24:32.992187500,62.0,-3.0,14.0,125.18015625000001,12.09,0.12321196875,32.66
2021-06-23 15:24:33.000000000,62.0,-3.0,14.0,125.18,11.27,0.123252,32.66
2021-06-23 15:24:33.007812500,61.75,-3.25,14.0,125.179921875,10.125,0.1231719375,32.66
2021-06-23 15:24:33.015625000,61.5,-3.5,14.0,125.17984375,8.98,0.123091875,32.66
2021-06-23 15:24:33.023437500,61.25,-3.75,14.0,125.179765625,7.380000000000001,0.1230118125,32.66
2021-06-23 15:24:33.031250000,61.0,-4.0,14.0,125.1796875,5.78,0.12293175,32.66
2021-06-23 15:24:33.039062500,61.25,-3.75,14.0,125.17960937500001,3.66,0.1228516875,32.66
2021-06-23 15:24:33.046875000,61.5,-3.5,14.0,125.17953125000001,1.54,0.122771625,32.66
2021-06-23 15:24:33.054687500,61.75,-3.25,14.0,125.17945312500001,-1.0350000000000001,0.1226915625,32.66
2021-06-23 15:24:33.062500000,62.0,-3.0,14.0,125.17937500000001,-3.61,0.1226115,32.66
2021-06-23 15:24:33.070312500,61.75,-3.0,14.0,125.179296875,-6.404999999999999,0.1225314375,32.66
2021-06-23 15:24:33.078125000,61.5,-3.0,14.0,125.17921875,-9.2,0.122451375,32.66
2021-06-23 15:24:33.085937500,61.25,-3.0,14.0,125.179140625,-11.825,0.1223713125,32.66
2021-06-23 15:24:33.093750000,61.0,-3.0,14.0,125.1790625,-14.45,0.12229125,32.66
2021-06-23 15:24:33.101562500,61.25,-3.25,14.0,125.17898437500001,-16.445,0.1222111875,32.66
2021-06-23 15:24:33.109375000,61.5,-3.5,14.0,125.17890625000001,-18.44,0.12213112500000001,32.66
2021-06-23 15:24:33.117187500,61.75,-3.75,14.0,125.17882812500001,-19.415,0.1220510625,32.66
2021-06-23 15:24:33.125000000,62.0,-4.0,14.0,125.17875000000001,-20.39,0.121971,32.66
2021-06-23 15:24:33.132812500,62.0,-4.0,14.0,125.178671875,-20.14,0.1218909375,32.66
2021-06-23 15:24:33.140625000,62.0,-4.0,14.0,125.17859375,-19.89,0.121810875,32.66
2021-06-23 15:24:33.148437500,62.0,-4.0,14.0,125.178515625,-18.47,0.12173081250000001,32.66
2021-06-23 15:24:33.156250000,62.0,-4.0,14.0,125.1784375,-17.05,0.12165075,32.66
2021-06-23 15:24:33.164062500,62.0,-3.75,13.75,125.178359375,-14.735,0.12157068750000001,32.66
2021-06-23 15:24:33.171875000,62.0,-3.5,13.5,125.17828125000001,-12.42,0.121490625,32.66
2021-06-23 15:24:33.179687500,62.0,-3.25,13.25,125.17820312500001,-9.61,0.1214105625,32.66
2021-06-23 15:24:33.187500000,62.0,-3.0,13.0,125.17812500000001,-6.8,0.12133050000000001,32.66
2021-06-23 15:24:33.195312500,61.75,-3.25,13.25,125.178046875,-3.9,0.1212504375,32.66
2021-06-23 15:24:33.203125000,61.5,-3.5,13.5,125.17796875,-1.0,0.12117037500000001,32.66
2021-06-23 15:24:33.210937500,61.25,-3.75,13.75,125.177890625,1.685,0.1210903125,32.66
2021-06-23 15:24:33.218750000,61.0,-4.0,14.0,125.1778125,4.37,0.12101025,32.66
2021-06-23 15:24:33.226562500,61.25,-3.75,14.0,125.177734375,6.67,0.12093018750000001,32.66
2021-06-23 15:24:33.234375000,61.5,-3.5,14.0,125.17765625000001,8.97,0.120850125,32.66
2021-06-23 15:24:33.242187500,61.75,-3.25,14.0,125.17757812500001,10.805,0.12077006250000001,32.66
2021-06-23 15:24:33.250000000,62.0,-3.0,14.0,125.17750000000001,12.64,0.12069,32.66
2021-06-23 15:24:33.257812500,62.0,-3.0,14.0,125.17742187500001,13.975000000000001,0.120810125,32.66
2021-06-23 15:24:33.265625000,62.0,-3.0,14.0,125.17734375,15.31,0.12093025,32.66
2021-06-23 15:24:33.273437500,62.0,-3.0,14.0,125.177265625,16.13,0.121050375,32.66
2021-06-23 15:24:33.281250000,62.0,-3.0,14.0,125.1771875,16.95,0.1211705,32.66
2021-06-23 15:24:33.289062500,61.75,-3.0,14.0,125.177109375,17.255,0.121290625,32.66
2021-06-23 15:24:33.296875000,61.5,-3.0,14.0,125.17703125,17.56,0.12141075000000001,32.66
2021-06-23 15:24:33.304687500,61.25,-3.0,14.0,125.17695312500001,17.395,0.12153087500000001,32.66
2021-06-23 15:24:33.312500000,61.0,-3.0,14.0,125.17687500000001,17.23,0.12165100000000001,32.66
2021-06-23 15:24:33.320312500,61.25,-3.0,14.0,125.17679687500001,16.695,0.12177112500000001,32.66
2021-06-23 15:24:33.328125000,61.5,-3.0,14.0,125.17671875,16.16,0.12189125,32.66
2021-06-23 15:24:33.335937500,61.75,-3.0,14.0,125.176640625,15.395,0.122011375,32.66
2021-06-23 15:24:33.343750000,62.0,-3.0,14.0,125.1765625,14.63,0.1221315,32.66
2021-06-23 15:24:33.351562500,62.0,-3.25,14.0,125.176484375,13.780000000000001,0.122251625,32.66
2021-06-23 15:24:33.359375000,62.0,-3.5,14.0,125.17640625,12.93,0.12237175,32.66
2021-06-23 15:24:33.367187500,62.0,-3.75,14.0,125.17632812500001,12.094999999999999,0.122491875,32.66
2021-06-23 15:24:33.375000000,62.0,-4.0,14.0,125.17625000000001,11.26,0.122612,32.66
2021-06-23 15:24:33.382812500,61.75,-3.75,14.0,125.17617187500001,10.495000000000001,0.12273212500000001,32.66
2021-06-23 15:24:33.390625000,61.5,-3.5,14.0,125.17609375,9.73,0.12285225000000001,32.66
2021-06-23 15:24:33.398437500,61.25,-3.25,14.0,125.176015625,9.030000000000001,0.12297237500000001,32.66
2021-06-23 15:24:33.406250000,61.0,-3.0,14.0,125.1759375,8.33,0.12309250000000001,32.66
2021-06-23 15:24:33.414062500,61.0,-3.25,14.0,125.175859375,7.695,0.123212625,32.66
2021-06-23 15:24:33.421875000,61.0,-3.5,14.0,125.17578125,7.06,0.12333275,32.66
2021-06-23 15:24:33.429687500,61.0,-3.75,14.0,125.175703125,6.505,0.123452875,32.66
2021-06-23 15:24:33.437500000,61.0,-4.0,14.0,125.17562500000001,5.95,0.123573,32.66
2021-06-23 15:24:33.445312500,61.25,-3.75,14.0,125.17554687500001,5.465,0.123693125,32.66
2021-06-23 15:24:33.453125000,61.5,-3.5,14.0,125.17546875000001,4.98,0.12381325,32.66
2021-06-23 15:24:33.460937500,61.75,-3.25,14.0,125.175390625,4.545,0.12393337500000001,32.66
2021-06-23 15:24:33.468750000,62.0,-3.0,14.0,125.1753125,4.11,0.12405350000000001,32.66
2021-06-23 15:24:33.476562500,62.0,-3.0,14.0,125.175234375,3.64,0.12417362500000001,32.66
2021-06-23 15:24:33.484375000,62.0,-3.0,14.0,125.17515625,3.17,0.12429375000000001,32.66
2021-06-23 15:24:33.492187500,62.0,-3.0,14.0,125.175078125,2.515,0.12441387500000001,32.66
2021-06-23 15:24:33.500000000,62.0,-3.0,14.0,125.17500000000001,1.86,0.124534,32.66
2021-06-23 15:24:33.507812500,62.0,-3.0,14.0,125.17492187500001,0.89,0.1243338125,32.66
2021-06-23 15:24:33.515625000,62.0,-3.0,14.0,125.17484375000001,-0.08,0.12413362500000001,32.66
2021-06-23 15:24:33.523437500,62.0,-3.0,14.0,125.174765625,-1.425,0.12393343750000001,32.66
2021-06-23 15:24:33.531250000,62.0,-3.0,14.0,125.1746875,-2.77,0.12373325,32.66
2021-06-23 15:24:33.539062500,61.75,-3.0,14.0,125.174609375,-4.42,0.1235330625,32.66
2021-06-23 15:24:33.546875000,61.5,-3.0,14.0,125.17453125,-6.07,0.12333287500000001,32.66
2021-06-23 15:24:33.554687500,61.25,-3.0,14.0,125.174453125,-7.78,0.1231326875,32.66
2021-06-23 15:24:33.562500000,61.0,-3.0,14.0,125.174375,-9.49,0.1229325,32.66
2021-06-23 15:24:33.570312500,61.0,-3.25,14.0,125.17429687500001,-10.93,0.12273231250000001,32.66
2021-06-23 15:24:33.578125000,61.0,-3.5,14.0,125.17421875000001,-12.37,0.122532125,32.66
2021-06-23 15:24:33.585937500,61.0,-3.75,14.0,125.174140625,-13.184999999999999,0.1223319375,32.66
2021-06-23 15:24:33.593750000,61.0,-4.0,14.0,125.1740625,-14.0,0.12213175,32.66
2021-06-23 15:24:33.601562500,61.25,-3.75,14.0,125.173984375,-13.95,0.12193156250000001,32.66
2021-06-23 15:24:33.609375000,61.5,-3.5,14.0,125.17390625,-13.9,0.121731375,32.66
2021-06-23 15:24:33.617187500,61.75,-3.25,14.0,125.173828125,-12.925,0.1215311875,32.66
2021-06-23 15:24:33.625000000,62.0,-3.0,14.0,125.17375,-11.95,0.121331,32.66
2021-06-23 15:24:33.632812500,62.0,-3.0,14.0,125.173671875,-10.195,0.1211308125,32.66
2021-06-23 15:24:33.640625000,62.0,-3.0,14.0,125.17359375000001,-8.44,0.120930625,32.66
2021-06-23 15:24:33.648437500,62.0,-3.0,14.0,125.17351562500001,-6.18,0.1207304375,32.66
2021-06-23 15:24:33.656250000,62.0,-3.0,14.0,125.1734375,-3.92,0.12053025,32.66
2021-06-23 15:24:33.664062500,62.0,-3.0,13.75,125.173359375,-1.52,0.1203300625,32.66
2021-06-23 15:24:33.671875000,62.0,-3.0,13.5,125.17328125,0.88,0.120129875,32.66
2021-06-23 15:24:33.679687500,62.0,-3.0,13.25,125.173203125,3.085,0.11992968749999999,32.66
2021-06-23 15:24:33.687500000,62.0,-3.0,13.0,125.173125,5.29,0.1197295,32.66
2021-06-23 15:24:33.695312500,62.0,-3.25,13.25,125.173046875,7.0649999999999995,0.1195293125,32.66
2021-06-23 15:24:33.703125000,62.0,-3.5,13.5,125.17296875000001,8.84,0.119329125,32.66
2021-06-23 15:24:33.710937500,62.0,-3.75,13.75,125.17289062500001,10.07,0.1191289375,32.66
2021-06-23 15:24:33.718750000,62.0,-4.0,14.0,125.1728125,11.3,0.11892875,32.66
2021-06-23 15:24:33.726562500,62.0,-4.0,14.0,125.172734375,11.965,0.1187285625,32.66
2021-06-23 15:24:33.734375000,62.0,-4.0,14.0,125.17265625,12.63,0.11852837499999999,32.66
2021-06-23 15:24:33.742187500,62.0,-4.0,14.0,125.172578125,12.79,0.1183281875,32.66
2021-06-23 15:24:33.750000000,62.0,-4.0,14.0,125.1725,12.95,0.118128,32.66
2021-06-23 15:24:33.757812500,61.75,-3.75,14.0,125.172421875,12.705,0.1182080625,32.66
2021-06-23 15:24:33.765625000,61.5,-3.5,14.0,125.17234375,12.46,0.118288125,32.66
2021-06-23 15:24:33.773437500,61.25,-3.25,14.0,125.17226562500001,11.935,0.1183681875,32.66
2021-06-23 15:24:33.781250000,61.0,-3.0,14.0,125.1721875,11.41,0.11844825,32.66
2021-06-23 15:24:33.789062500,61.25,-3.0,14.0,125.172109375,10.725,0.1185283125,32.66
2021-06-23 15:24:33.796875000,61.5,-3.0,14.0,125.17203125,10.04,0.118608375,32.66
2021-06-23 15:24:33.804687500,61.75,-3.0,14.0,125.171953125,9.309999999999999,0.1186884375,32.66
2021-06-23 15:24:33.812500000,62.0,-3.0,14.0,125.171875,8.58,0.1187685,32.66
2021-06-23 15:24:33.820312500,62.0,-3.25,14.0,125.171796875,7.895,0.1188485625,32.66
2021-06-23 15:24:33.828125000,62.0,-3.5,14.0,125.17171875,7.21,0.118928625,32.66
2021-06-23 15:24:33.835937500,62.0,-3.75,14.0,125.17164062500001,6.62,0.1190086875,32.66
2021-06-23 15:24:33.843750000,62.0,-4.0,14.0,125.17156250000001,6.03,0.11908875,32.66
2021-06-23 15:24:33.851562500,62.0,-4.0,14.0,125.171484375,5.525,0.1191688125,32.66
2021-06-23 15:24:33.859375000,62.0,-4.0,14.0,125.17140625,5.02,0.119248875,32.66
2021-06-23 15:24:33.867187500,62.0,-4.0,14.0,125.171328125,4.574999999999999,0.1193289375,32.66
2021-06-23 15:24:33.875000000,62.0,-4.0,14.0,125.17125,4.13,0.119409,32.66
2021-06-23 15:24:33.882812500,62.0,-3.75,14.0,125.171171875,3.7249999999999996,0.1194890625,32.66
2021-06-23 15:24:33.890625000,62.0,-3.5,14.0,125.17109375,3.32,0.119569125,32.66
2021-06-23 15:24:33.898437500,62.0,-3.25,14.0,125.171015625,2.95,0.1196491875,32.66
2021-06-23 15:24:33.906250000,62.0,-3.0,14.0,125.17093750000001,2.58,0.11972925000000001,32.66
2021-06-23 15:24:33.914062500,62.0,-3.0,14.0,125.170859375,2.2800000000000002,0.1198093125,32.66
2021-06-23 15:24:33.921875000,62.0,-3.0,14.0,125.17078125,1.98,0.119889375,32.66
2021-06-23 15:24:33.929687500,62.0,-3.0,14.0,125.170703125,1.755,0.1199694375,32.66
2021-06-23 15:24:33.937500000,62.0,-3.0,14.0,125.170625,1.53,0.1200495,32.66
2021-06-23 15:24:33.945312500,61.75,-3.25,14.0,125.170546875,1.355,0.12012956250000001,32.66
2021-06-23 15:24:33.953125000,61.5,-3.5,14.0,125.17046875,1.18,0.120209625,32.66
2021-06-23 15:24:33.960937500,61.25,-3.75,14.0,125.170390625,0.965,0.1202896875,32.66
2021-06-23 15:24:33.968750000,61.0,-4.0,14.0,125.17031250000001,0.75,0.12036975,32.66
2021-06-23 15:24:33.976562500,61.25,-3.75,14.0,125.170234375,0.355,0.1204498125,32.66
2021-06-23 15:24:33.984375000,61.5,-3.5,14.0,125.17015625,-0.04,0.12052987500000001,32.66
2021-06-23 15:24:33.992187500,61.75,-3.25,14.0,125.170078125,-0.77,0.1206099375,32.66
2021-06-23 15:24:34.000000000,62.0,-3.0,14.0,125.17,-1.5,0.12069,32.66
2021-06-23 15:24:34.007812500,62.0,-3.25,14.0,125.17,-2.615,0.12064996875,32.66
2021-06-23 15:24:34.015625000,62.0,-3.5,14.0,125.17,-3.73,0.1206099375,32.66
2021-06-23 15:24:34.023437500,62.0,-3.75,14.0,125.17,-5.165,0.12056990625000001,32.66
2021-06-23 15:24:34.031250000,62.0,-4.0,14.0,125.17,-6.6,0.12052987500000001,32.66
2021-06-23 15:24:34.039062500,61.75,-3.75,14.0,125.17,-8.129999999999999,0.12048984375,32.66
2021-06-23 15:24:34.046875000,61.5,-3.5,14.0,125.17,-9.66,0.1204498125,32.66
2021-06-23 15:24:34.054687500,61.25,-3.25,14.0,125.17,-10.95,0.12040978125,32.66
2021-06-23 15:24:34.062500000,61.0,-3.0,14.0,125.17,-12.24,0.12036975,32.66
2021-06-23 15:24:34.070312500,61.25,-3.25,14.0,125.17,-12.940000000000001,0.12032971875000001,32.66
2021-06-23 15:24:34.078125000,61.5,-3.5,14.0,125.17,-13.64,0.1202896875,32.66
2021-06-23 15:24:34.085937500,61.75,-3.75,14.0,125.17,-13.495000000000001,0.12024965625,32.66
2021-06-23 15:24:34.093750000,62.0,-4.0,14.0,125.17,-13.35,0.120209625,32.66
2021-06-23 15:24:34.101562500,61.75,-4.0,14.0,125.17,-12.325,0.12016959375,32.66
2021-06-23 15:24:34.109375000,61.5,-4.0,14.0,125.17,-11.3,0.12012956250000001,32.66
2021-06-23 15:24:34.117187500,61.25,-4.0,14.0,125.17,-9.555,0.12008953125,32.66
2021-06-23 15:24:34.125000000,61.0,-4.0,14.0,125.17,-7.81,0.1200495,32.66
2021-06-23 15:24:34.132812500,61.0,-3.75,14.0,125.17,-5.71,0.12000946875,32.66
2021-06-23 15:24:34.140625000,61.0,-3.5,14.0,125.17,-3.61,0.1199694375,32.66
2021-06-23 15:24:34.148437500,61.0,-3.25,14.0,125.17,-1.5550000000000002,0.11992940625000001,32.66
2021-06-23 15:24:34.156250000,61.0,-3.0,14.0,125.17,0.5,0.119889375,32.66
2021-06-23 15:24:34.164062500,61.0,-3.25,14.0,125.17,2.17,0.11984934375,32.66
2021-06-23 15:24:34.171875000,61.0,-3.5,14.0,125.17,3.84,0.1198093125,32.66
2021-06-23 15:24:34.179687500,61.0,-3.75,14.0,125.17,4.945,0.11976928125,32.66
2021-06-23 15:24:34.187500000,61.0,-4.0,14.0,125.17,6.05,0.11972925000000001,32.66
2021-06-23 15:24:34.195312500,61.25,-3.75,14.0,125.17,6.58,0.11968921875,32.66
2021-06-23 15:24:34.203125000,61.5,-3.5,14.0,125.17,7.11,0.1196491875,32.66
2021-06-23 15:24:34.210937500,61.75,-3.25,14.0,125.17,7.1850000000000005,0.11960915625,32.66
2021-06-23 15:24:34.218750000,62.0,-3.0,14.0,125.17,7.26,0.119569125,32.66
2021-06-23 15:24:34.226562500,62.0,-3.0,14.0,125.17,7.035,0.11952909375,32.66
2021-06-23 15:24:34.234375000,62.0,-3.0,14.0,125.17,6.81,0.1194890625,32.66
2021-06-23 15:24:34.242187500,62.0,-3.0,14.0,125.17,6.425,0.11944903125,32.66
2021-06-23 15:24:34.250000000,62.0,-3.0,14.0,125.17,6.04,0.119409,32.66
2021-06-23 15:24:34.257812500,62.0,-3.0,14.0,125.17,5.605,0.11936896875,32.66
2021-06-23 15:24:34.265625000,62.0,-3.0,14.0,125.17,5.17,0.1193289375,32.66
2021-06-23 15:24:34.273437500,62.0,-3.0,14.0,125.17,4.72,0.11928890625,32.66
2021-06-23 15:24:34.281250000,62.0,-3.0,14.0,125.17,4.27,0.119248875,32.66
2021-06-23 15:24:34.289062500,62.0,-3.25,14.0,125.17,3.8499999999999996,0.11920884375,32.66
2021-06-23 15:24:34.296875000,62.0,-3.5,14.0,125.17,3.43,0.1191688125,32.66
2021-06-23 15:24:34.304687500,62.0,-3.75,14.0,125.17,3.0700000000000003,0.11912878125,32.66
2021-06-23 15:24:34.312500000,62.0,-4.0,14.0,125.17,2.71,0.11908875,32.66
2021-06-23 15:24:34.320312500,62.0,-4.0,14.0,125.17,2.44,0.11904871875,32.66
2021-06-23 15:24:34.328125000,62.0,-4.0,14.0,125.17,2.17,0.1190086875,32.66
2021-06-23 15:24:34.335937500,62.0,-4.0,14.0,125.17,2.005,0.11896865625,32.66
2021-06-23 15:24:34.343750000,62.0,-4.0,14.0,125.17,1.84,0.118928625,32.66
2021-06-23 15:24:34.351562500,62.0,-4.0,14.0,125.17,1.7850000000000001,0.11888859375,32.66
2021-06-23 15:24:34.359375000,62.0,-4.0,14.0,125.17,1.73,0.1188485625,32.66
2021-06-23 15:24:34.367187500,62.0,-4.0,14.0,125.17,1.7650000000000001,0.11880853125,32.66
2021-06-23 15:24:34.375000000,62.0,-4.0,14.0,125.17,1.8,0.1187685,32.66
2021-06-23 15:24:34.382812500,62.0,-4.0,14.0,125.17,1.8900000000000001,0.11872846875,32.66
2021-06-23 15:24:34.390625000,62.0,-4.0,14.0,125.17,1.98,0.1186884375,32.66
2021-06-23 15:24:34.398437500,62.0,-4.0,14.0,125.17,2.0549999999999997,0.11864840625,32.66
2021-06-23 15:24:34.406250000,62.0,-4.0,14.0,125.17,2.13,0.118608375,32.66
2021-06-23 15:24:34.414062500,62.0,-3.75,14.0,125.17,2.0949999999999998,0.11856834375,32.66
2021-06-23 15:24:34.421875000,62.0,-3.5,14.0,125.17,2.06,0.1185283125,32.66
2021-06-23 15:24:34.429687500,62.0,-3.25,14.0,125.17,1.83,0.11848828125,32.66
2021-06-23 15:24:34.437500000,62.0,-3.0,14.0,125.17,1.6,0.11844825,32.66
2021-06-23 15:24:34.445312500,62.0,-3.0,14.0,125.17,1.09,0.11840821875,32.66
2021-06-23 15:24:34.453125000,62.0,-3.0,14.0,125.17,0.58,0.1183681875,32.66
2021-06-23 15:24:34.460937500,62.0,-3.0,14.0,125.17,-0.2300000000000001,0.11832815625,32.66
2021-06-23 15:24:34.468750000,62.0,-3.0,14.0,125.17,-1.04,0.118288125,32.66
2021-06-23 15:24:34.476562500,62.0,-3.0,14.0,125.17,-2.105,0.11824809374999999,32.66
2021-06-23 15:24:34.484375000,62.0,-3.0,14.0,125.17,-3.17,0.1182080625,32.66
2021-06-23 15:24:34.492187500,62.0,-3.0,14.0,125.17,-4.415,0.11816803125,32.66
2021-06-23 15:24:34.500000000,62.0,-3.0,14.0,125.17,-5.66,0.118128,32.66
2021-06-23 15:24:34.507812500,62.0,-3.0,14.0,125.17,-6.9350000000000005,0.118288125,32.66
2021-06-23 15:24:34.515625000,62.0,-3.0,14.0,125.17,-8.21,0.11844824999999999,32.66
2021-06-23 15:24:34.523437500,62.0,-3.0,14.0,125.17,-9.335,0.118608375,32.66
2021-06-23 15:24:34.531250000,62.0,-3.0,14.0,125.17,-10.46,0.1187685,32.66
2021-06-23 15:24:34.539062500,62.0,-3.0,14.0,125.17,-11.22,0.118928625,32.66
2021-06-23 15:24:34.546875000,62.0,-3.0,14.0,125.17,-11.98,0.11908875,32.66
2021-06-23 15:24:34.554687500,62.0,-3.0,14.0,125.17,-12.17,0.119248875,32.66
2021-06-23 15:24:34.562500000,62.0,-3.0,14.0,125.17,-12.36,0.119409,32.66
2021-06-23 15:24:34.570312500,62.0,-3.0,14.0,125.17,-11.84,0.119569125,32.66
2021-06-23 15:24:34.578125000,62.0,-3.0,14.0,125.17,-11.32,0.11972925,32.66
2021-06-23 15:24:34.585937500,62.0,-3.0,14.0,125.17,-10.07,0.11988937499999999,32.66
2021-06-23 15:24:34.593750000,62.0,-3.0,14.0,125.17,-8.82,0.1200495,32.66
2021-06-23 15:24:34.601562500,62.0,-3.0,14.0,125.17,-6.99,0.120209625,32.66
2021-06-23 15:24:34.609375000,62.0,-3.0,14.0,125.17,-5.16,0.12036975,32.66
2021-06-23 15:24:34.617187500,62.0,-3.0,14.0,125.17,-3.0700000000000003,0.120529875,32.66
2021-06-23 15:24:34.625000000,62.0,-3.0,14.0,125.17,-0.98,0.12068999999999999,32.66
2021-06-23 15:24:34.632812500,62.0,-3.25,14.0,125.17,1.0050000000000001,0.120850125,32.66
2021-06-23 15:24:34.640625000,62.0,-3.5,14.0,125.17,2.99,0.12101025,32.66
2021-06-23 15:24:34.648437500,62.0,-3.75,14.0,125.17,4.54,0.121170375,32.66
2021-06-23 15:24:34.656250000,62.0,-4.0,14.0,125.17,6.09,0.1213305,32.66
2021-06-23 15:24:34.664062500,62.0,-3.75,14.0,125.17,7.005,0.121490625,32.66
2021-06-23 15:24:34.671875000,62.0,-3.5,14.0,125.17,7.92,0.12165075,32.66
2021-06-23 15:24:34.679687500,62.0,-3.25,14.0,125.17,8.16,0.121810875,32.66
2021-06-23 15:24:34.687500000,62.0,-3.0,14.0,125.17,8.4,0.121971,32.66
2021-06-23 15:24:34.695312500,61.75,-3.0,14.0,125.17,8.075,0.12213112500000001,32.66
2021-06-23 15:24:34.703125000,61.5,-3.0,14.0,125.17,7.75,0.12229125,32.66
2021-06-23 15:24:34.710937500,61.25,-3.0,14.0,125.17,7.05,0.122451375,32.66
2021-06-23 15:24:34.718750000,61.0,-3.0,14.0,125.17,6.35,0.1226115,32.66
2021-06-23 15:24:34.726562500,61.25,-3.0,14.0,125.17,5.455,0.122771625,32.66
2021-06-23 15:24:34.734375000,61.5,-3.0,14.0,125.17,4.56,0.12293175,32.66
2021-06-23 15:24:34.742187500,61.75,-3.0,14.0,125.17,3.6399999999999997,0.123091875,32.66
2021-06-23 15:24:34.750000000,62.0,-3.0,14.0,125.17,2.72,0.123252,32.66
2021-06-23 15:24:34.757812500,62.0,-3.0,14.0,125.17,1.9000000000000001,0.12305184375,32.66
2021-06-23 15:24:34.765625000,62.0,-3.0,14.0,125.17,1.08,0.1228516875,32.66
2021-06-23 15:24:34.773437500,62.0,-3.0,14.0,125.17,0.43000000000000005,0.12265153125,32.66
2021-06-23 15:24:34.781250000,62.0,-3.0,14.0,125.17,-0.22,0.122451375,32.66
2021-06-23 15:24:34.789062500,62.0,-3.0,13.75,125.17,-0.66,0.12225121875,32.66
2021-06-23 15:24:34.796875000,62.0,-3.0,13.5,125.17,-1.1,0.1220510625,32.66
2021-06-23 15:24:34.804687500,62.0,-3.0,13.25,125.17,-1.355,0.12185090625,32.66
2021-06-23 15:24:34.812500000,62.0,-3.0,13.0,125.17,-1.61,0.12165075,32.66
2021-06-23 15:24:34.820312500,61.75,-3.0,13.25,125.17,-1.715,0.12145059375,32.66
2021-06-23 15:24:34.828125000,61.5,-3.0,13.5,125.17,-1.82,0.1212504375,32.66
2021-06-23 15:24:34.835937500,61.25,-3.0,13.75,125.17,-1.85,0.12105028125,32.66
2021-06-23 15:24:34.843750000,61.0,-3.0,14.0,125.17,-1.88,0.120850125,32.66
2021-06-23 15:24:34.851562500,61.25,-3.0,14.0,125.17,-1.9,0.12064996875,32.66
2021-06-23 15:24:34.859375000,61.5,-3.0,14.0,125.17,-1.92,0.1204498125,32.66
2021-06-23 15:24:34.867187500,61.75,-3.0,14.0,125.17,-1.9749999999999999,0.12024965625,32.66
2021-06-23 15:24:34.875000000,62.0,-3.0,14.0,125.17,-2.03,0.1200495,32.66
2021-06-23 15:24:34.882812500,62.0,-3.0,14.0,125.17,-2.16,0.11984934375,32.66
2021-06-23 15:24:34.890625000,62.0,-3.0,14.0,125.17,-2.29,0.1196491875,32.66
2021-06-23 15:24:34.898437500,62.0,-3.0,14.0,125.17,-2.535,0.11944903125,32.66
2021-06-23 15:24:34.906250000,62.0,-3.0,14.0,125.17,-2.78,0.119248875,32.66
2021-06-23 15:24:34.914062500,62.0,-3.0,14.0,125.17,-3.17,0.11904871875,32.66
2021-06-23 15:24:34.921875000,62.0,-3.0,14.0,125.17,-3.56,0.1188485625,32.66
2021-06-23 15:24:34.929687500,62.0,-3.0,14.0,125.17,-4.135,0.11864840625,32.66
2021-06-23 15:24:34.937500000,62.0,-3.0,14.0,125.17,-4.71,0.11844825,32.66
2021-06-23 15:24:34.945312500,61.75,-3.0,14.0,125.17,-5.470000000000001,0.11824809375,32.66
2021-06-23 15:24:34.953125000,61.5,-3.0,14.0,125.17,-6.23,0.1180479375,32.66
2021-06-23 15:24:34.960937500,61.25,-3.0,14.0,125.17,-7.135,0.11784778125,32.66
2021-06-23 15:24:34.968750000,61.0,-3.0,14.0,125.17,-8.04,0.117647625,32.66
2021-06-23 15:24:34.976562500,61.25,-3.0,14.0,125.17,-9.0,0.11744746875,32.66
2021-06-23 15:24:34.984375000,61.5,-3.0,14.0,125.17,-9.96,0.1172473125,32.66
2021-06-23 15:24:34.992187500,61.75,-3.0,14.0,125.17,-10.805,0.11704715625,32.66
2021-06-23 15:24:35.000000000,62.0,-3.0,14.0,125.17,-11.65,0.116847,32.66
2021-06-23 15:24:35.007812500,62.0,-3.25,14.0,125.17,-12.190000000000001,0.11704715625,32.6596875
2021-06-23 15:24:35.015625000,62.0,-3.5,14.0,125.17,-12.73,0.1172473125,32.659375
2021-06-23 15:24:35.023437500,62.0,-3.75,14.0,125.17,-12.81,0.11744746875,32.6590625
2021-06-23 15:24:35.031250000,62.0,-4.0,14.0,125.17,-12.89,0.117647625,32.65875
2021-06-23 15:24:35.039062500,62.0,-3.75,14.0,125.17,-12.415,0.11784778125,32.6584375
2021-06-23 15:24:35.046875000,62.0,-3.5,14.0,125.17,-11.94,0.1180479375,32.658125
2021-06-23 15:24:35.054687500,62.0,-3.25,14.0,125.17,-10.93,0.11824809375,32.6578125
2021-06-23 15:24:35.062500000,62.0,-3.0,14.0,125.17,-9.92,0.11844825,32.6575
2021-06-23 15:24:35.070312500,62.0,-3.0,13.75,125.17,-8.515,0.11864840625,32.6571875
2021-06-23 15:24:35.078125000,62.0,-3.0,13.5,125.17,-7.11,0.1188485625,32.656875
2021-06-23 15:24:35.085937500,62.0,-3.0,13.25,125.17,-5.505,0.11904871875,32.6565625
2021-06-23 15:24:35.093750000,62.0,-3.0,13.0,125.17,-3.9,0.119248875,32.65625
2021-06-23 15:24:35.101562500,62.0,-3.0,13.25,125.17,-2.355,0.11944903125,32.6559375
2021-06-23 15:24:35.109375000,62.0,-3.0,13.5,125.17,-0.81,0.1196491875,32.655625
2021-06-23 15:24:35.117187500,62.0,-3.0,13.75,125.17,0.44499999999999984,0.11984934375,32.6553125
2021-06-23 15:24:35.125000000,62.0,-3.0,14.0,125.17,1.7,0.1200495,32.655
2021-06-23 15:24:35.132812500,62.0,-3.0,14.0,125.17,2.4899999999999998,0.12024965625,32.654687499999994
2021-06-23 15:24:35.140625000,62.0,-3.0,14.0,125.17,3.28,0.1204498125,32.654374999999995
2021-06-23 15:24:35.148437500,62.0,-3.0,14.0,125.17,3.55,0.12064996875,32.654062499999995
2021-06-23 15:24:35.156250000,62.0,-3.0,14.0,125.17,3.82,0.120850125,32.653749999999995
2021-06-23 15:24:35.164062500,62.0,-3.25,14.0,125.17,3.635,0.12105028125,32.653437499999995
2021-06-23 15:24:35.171875000,62.0,-3.5,14.0,125.17,3.45,0.1212504375,32.653124999999996
2021-06-23 15:24:35.179687500,62.0,-3.75,14.0,125.17,2.9400000000000004,0.12145059375,32.652812499999996
2021-06-23 15:24:35.187500000,62.0,-4.0,14.0,125.17,2.43,0.12165075,32.652499999999996
2021-06-23 15:24:35.195312500,62.0,-3.75,14.0,125.17,1.79,0.12185090625,32.6521875
2021-06-23 15:24:35.203125000,62.0,-3.5,14.0,125.17,1.15,0.1220510625,32.651875
2021-06-23 15:24:35.210937500,62.0,-3.25,14.0,125.17,0.51,0.12225121875,32.6515625
2021-06-23 15:24:35.218750000,62.0,-3.0,14.0,125.17,-0.13,0.122451375,32.65125
2021-06-23 15:24:35.226562500,62.0,-3.25,14.0,125.17,-0.6900000000000001,0.12265153125,32.6509375
2021-06-23 15:24:35.234375000,62.0,-3.5,14.0,125.17,-1.25,0.1228516875,32.650625
2021-06-23 15:24:35.242187500,62.0,-3.75,14.0,125.17,-1.715,0.12305184375,32.6503125
2021-06-23 15:24:35.250000000,62.0,-4.0,14.0,125.17,-2.18,0.123252,32.65
2021-06-23 15:24:35.257812500,62.0,-4.0,14.0,125.17,-2.575,0.123091875,32.65
2021-06-23 15:24:35.265625000,62.0,-4.0,14.0,125.17,-2.97,0.12293175,32.65
2021-06-23 15:24:35.273437500,62.0,-4.0,14.0,125.17,-3.295,0.122771625,32.65
2021-06-23 15:24:35.281250000,62.0,-4.0,14.0,125.17,-3.62,0.1226115,32.65
2021-06-23 15:24:35.289062500,62.0,-4.0,14.0,125.17,-3.88,0.122451375,32.65
2021-06-23 15:24:35.296875000,62.0,-4.0,14.0,125.17,-4.14,0.12229125,32.65
2021-06-23 15:24:35.304687500,62.0,-4.0,14.0,125.17,-4.32,0.122131125,32.65
2021-06-23 15:24:35.312500000,62.0,-4.0,14.0,125.17,-4.5,0.121971,32.65
2021-06-23 15:24:35.320312500,62.0,-3.75,14.0,125.17,-4.625,0.121810875,32.65
2021-06-23 15:24:35.328125000,62.0,-3.5,14.0,125.17,-4.75,0.12165075,32.65
2021-06-23 15:24:35.335937500,62.0,-3.25,14.0,125.17,-4.855,0.121490625,32.65
2021-06-23 15:24:35.343750000,62.0,-3.0,14.0,125.17,-4.96,0.1213305,32.65
2021-06-23 15:24:35.351562500,62.0,-3.0,14.0,125.17,-5.105,0.121170375,32.65
2021-06-23 15:24:35.359375000,62.0,-3.0,14.0,125.17,-5.25,0.12101025,32.65
2021-06-23 15:24:35.367187500,62.0,-3.0,14.0,125.17,-5.470000000000001,0.120850125,32.65
2021-06-23 15:24:35.375000000,62.0,-3.0,14.0,125.17,-5.69,0.12068999999999999,32.65
2021-06-23 15:24:35.382812500,62.0,-3.0,14.0,125.17,-5.995,0.120529875,32.65
2021-06-23 15:24:35.390625000,62.0,-3.0,14.0,125.17,-6.3,0.12036975,32.65
2021-06-23 15:24:35.398437500,62.0,-3.0,14.0,125.17,-6.67,0.120209625,32.65
2021-06-23 15:24:35.406250000,62.0,-3.0,14.0,125.17,-7.04,0.1200495,32.65
2021-06-23 15:24:35.414062500,62.0,-3.0,14.0,125.17,-7.484999999999999,0.11988937499999999,32.65
2021-06-23 15:24:35.421875000,62.0,-3.0,14.0,125.17,-7.93,0.11972925,32.65
2021-06-23 15:24:35.429687500,62.0,-3.0,14.0,125.17,-8.49,0.119569125,32.65
2021-06-23 15:24:35.437500000,62.0,-3.0,14.0,125.17,-9.05,0.119409,32.65
2021-06-23 15:24:35.445312500,62.0,-3.25,14.0,125.17,-9.75,0.119248875,32.65
2021-06-23 15:24:35.453125000,62.0,-3.5,14.0,125.17,-10.45,0.11908875,32.65
2021-06-23 15:24:35.460937500,62.0,-3.75,14.0,125.17,-11.28,0.118928625,32.65
2021-06-23 15:24:35.468750000,62.0,-4.0,14.0,125.17,-12.11,0.1187685,32.65
2021-06-23 15:24:35.476562500,62.0,-3.75,14.0,125.17,-12.96,0.118608375,32.65
2021-06-23 15:24:35.484375000,62.0,-3.5,14.0,125.17,-13.81,0.11844824999999999,32.65
2021-06-23 15:24:35.492187500,62.0,-3.25,14.0,125.17,-14.48,0.118288125,32.65
2021-06-23 15:24:35.500000000,62.0,-3.0,14.0,125.17,-15.15,0.118128,32.65
2021-06-23 15:24:35.507812500,62.0,-3.25,14.0,125.17,-15.415,0.118288125,32.65
2021-06-23 15:24:35.515625000,62.0,-3.5,14.0,125.17,-15.68,0.11844824999999999,32.65
2021-06-23 15:24:35.523437500,62.0,-3.75,14.0,125.17,-15.370000000000001,0.118608375,32.65
2021-06-23 15:24:35.531250000,62.0,-4.0,14.0,125.17,-15.06,0.1187685,32.65
2021-06-23 15:24:35.539062500,62.0,-3.75,14.0,125.17,-14.125,0.118928625,32.65
2021-06-23 15:24:35.546875000,62.0,-3.5,14.0,125.17,-13.19,0.11908875,32.65
2021-06-23 15:24:35.554687500,62.0,-3.25,14.0,125.17,-11.745000000000001,0.119248875,32.65
2021-06-23 15:24:35.562500000,62.0,-3.0,14.0,125.17,-10.3,0.119409,32.65
2021-06-23 15:24:35.570312500,62.0,-3.0,14.0,125.17,-8.600000000000001,0.119569125,32.65
2021-06-23 15:24:35.578125000,62.0,-3.0,14.0,125.17,-6.9,0.11972925,32.65
2021-06-23 15:24:35.585937500,62.0,-3.0,14.0,125.17,-5.26,0.11988937499999999,32.65
2021-06-23 15:24:35.593750000,62.0,-3.0,14.0,125.17,-3.62,0.1200495,32.65
2021-06-23 15:24:35.601562500,62.0,-3.25,14.0,125.17,-2.34,0.120209625,32.65
2021-06-23 15:24:35.609375000,62.0,-3.5,14.0,125.17,-1.06,0.12036975,32.65
2021-06-23 15:24:35.617187500,62.0,-3.75,14.0,125.17,-0.33499999999999996,0.120529875,32.65
2021-06-23 15:24:35.625000000,62.0,-4.0,14.0,125.17,0.39,0.12068999999999999,32.65
2021-06-23 15:24:35.632812500,62.0,-3.75,14.0,125.17,0.505,0.120850125,32.65
2021-06-23 15:24:35.640625000,62.0,-3.5,14.0,125.17,0.62,0.12101025,32.65
2021-06-23 15:24:35.648437500,62.0,-3.25,14.0,125.17,0.22499999999999998,0.121170375,32.65
2021-06-23 15:24:35.656250000,62.0,-3.0,14.0,125.17,-0.17,0.1213305,32.65
2021-06-23 15:24:35.664062500,62.0,-3.0,14.0,125.17,-0.8750000000000001,0.121490625,32.65
2021-06-23 15:24:35.671875000,62.0,-3.0,14.0,125.17,-1.58,0.12165075,32.65
2021-06-23 15:24:35.679687500,62.0,-3.0,14.0,125.17,-2.39,0.121810875,32.65
2021-06-23 15:24:35.687500000,62.0,-3.0,14.0,125.17,-3.2,0.121971,32.65
2021-06-23 15:24:35.695312500,62.0,-3.25,14.0,125.17,-3.935,0.12213112500000001,32.65
2021-06-23 15:24:35.703125000,62.0,-3.5,14.0,125.17,-4.67,0.12229125,32.65
2021-06-23 15:24:35.710937500,62.0,-3.75,14.0,125.17,-5.24,0.122451375,32.65
2021-06-23 15:24:35.718750000,62.0,-4.0,14.0,125.17,-5.81,0.1226115,32.65
2021-06-23 15:24:35.726562500,62.0,-3.75,14.0,125.17,-6.1899999999999995,0.122771625,32.65
2021-06-23 15:24:35.734375000,62.0,-3.5,14.0,125.17,-6.57,0.12293175,32.65
2021-06-23 15:24:35.742187500,62.0,-3.25,14.0,125.17,-6.79,0.123091875,32.65
2021-06-23 15:24:35.750000000,62.0,-3.0,14.0,125.17,-7.01,0.123252,32.65
2021-06-23 15:24:35.757812500,61.75,-3.25,14.0,125.17,-7.105,0.12313190625,32.65
2021-06-23 15:24:35.765625000,61.5,-3.5,14.0,125.17,-7.2,0.1230118125,32.65
2021-06-23 15:24:35.773437500,61.25,-3.75,14.0,125.17,-7.215,0.12289171875,32.65
2021-06-23 15:24:35.781250000,61.0,-4.0,14.0,125.17,-7.23,0.122771625,32.65
2021-06-23 15:24:35.789062500,61.0,-3.75,14.0,125.17,-7.205,0.12265153125,32.65
2021-06-23 15:24:35.796875000,61.0,-3.5,14.0,125.17,-7.18,0.1225314375,32.65
2021-06-23 15:24:35.804687500,61.0,-3.25,14.0,125.17,-7.165,0.12241134375,32.65
2021-06-23 15:24:35.812500000,61.0,-3.0,14.0,125.17,-7.15,0.12229125,32.65
2021-06-23 15:24:35.820312500,61.25,-3.0,14.0,125.17,-7.19,0.12217115625,32.65
2021-06-23 15:24:35.828125000,61.5,-3.0,14.0,125.17,-7.23,0.1220510625,32.65
2021-06-23 15:24:35.835937500,61.75,-3.0,14.0,125.17,-7.35,0.12193096875000001,32.65
2021-06-23 15:24:35.843750000,62.0,-3.0,14.0,125.17,-7.47,0.121810875,32.65
2021-06-23 15:24:35.851562500,62.0,-3.0,14.0,125.17,-7.665,0.12169078125,32.65
2021-06-23 15:24:35.859375000,62.0,-3.0,14.0,125.17,-7.86,0.1215706875,32.65
2021-06-23 15:24:35.867187500,62.0,-3.0,14.0,125.17,-8.095,0.12145059375,32.65
2021-06-23 15:24:35.875000000,62.0,-3.0,14.0,125.17,-8.33,0.12133050000000001,32.65
2021-06-23 15:24:35.882812500,61.75,-3.25,14.0,125.17,-8.565000000000001,0.12121040625,32.65
2021-06-23 15:24:35.890625000,61.5,-3.5,14.0,125.17,-8.8,0.1210903125,32.65
2021-06-23 15:24:35.898437500,61.25,-3.75,14.0,125.17,-9.045,0.12097021875,32.65
2021-06-23 15:24:35.906250000,61.0,-4.0,14.0,125.17,-9.29,0.120850125,32.65
2021-06-23 15:24:35.914062500,61.0,-3.75,14.0,125.17,-9.594999999999999,0.12073003125,32.65
2021-06-23 15:24:35.921875000,61.0,-3.5,14.0,125.17,-9.9,0.1206099375,32.65
2021-06-23 15:24:35.929687500,61.0,-3.25,14.0,125.17,-10.355,0.12048984375,32.65
2021-06-23 15:24:35.937500000,61.0,-3.0,14.0,125.17,-10.81,0.12036975,32.65
2021-06-23 15:24:35.945312500,61.25,-3.0,14.0,125.17,-11.440000000000001,0.12024965625,32.65
2021-06-23 15:24:35.953125000,61.5,-3.0,14.0,125.17,-12.07,0.1201295625,32.65
2021-06-23 15:24:35.960937500,61.75,-3.0,14.0,125.17,-12.825,0.12000946875,32.65
2021-06-23 15:24:35.968750000,62.0,-3.0,14.0,125.17,-13.58,0.119889375,32.65
2021-06-23 15:24:35.976562500,62.0,-3.0,14.0,125.17,-14.275,0.11976928125,32.65
2021-06-23 15:24:35.984375000,62.0,-3.0,14.0,125.17,-14.97,0.1196491875,32.65
2021-06-23 15:24:35.992187500,62.0,-3.0,14.0,125.17,-15.365,0.11952909375,32.65
2021-06-23 15:24:36.000000000,62.0,-3.0,14.0,125.17,-15.76,0.119409,32.65
2021-06-23 15:24:36.007812500,62.0,-3.25,14.0,125.17,-15.655000000000001,0.1194890625,32.6503125
2021-06-23 15:24:36.015625000,62.0,-3.5,14.0,125.17,-15.55,0.119569125,32.650625
2021-06-23 15:24:36.023437500,62.0,-3.75,14.0,125.17,-14.86,0.1196491875,32.6509375
2021-06-23 15:24:36.031250000,62.0,-4.0,14.0,125.17,-14.17,0.11972925,32.65125
2021-06-23 15:24:36.039062500,62.0,-4.0,14.0,125.17,-12.995000000000001,0.1198093125,32.6515625
2021-06-23 15:24:36.046875000,62.0,-4.0,14.0,125.17,-11.82,0.119889375,32.651875
2021-06-23 15:24:36.054687500,62.0,-4.0,14.0,125.17,-10.405000000000001,0.1199694375,32.6521875
2021-06-23 15:24:36.062500000,62.0,-4.0,14.0,125.17,-8.99,0.1200495,32.652499999999996
2021-06-23 15:24:36.070312500,62.0,-3.75,14.0,125.17,-7.640000000000001,0.1201295625,32.652812499999996
2021-06-23 15:24:36.078125000,62.0,-3.5,14.0,125.17,-6.29,0.120209625,32.653124999999996
2021-06-23 15:24:36.085937500,62.0,-3.25,14.0,125.17,-5.27,0.1202896875,32.653437499999995
2021-06-23 15:24:36.093750000,62.0,-3.0,14.0,125.17,-4.25,0.12036975,32.653749999999995
2021-06-23 15:24:36.101562500,62.0,-3.0,14.0,125.17,-3.675,0.1204498125,32.654062499999995
2021-06-23 15:24:36.109375000,62.0,-3.0,14.0,125.17,-3.1,0.120529875,32.654374999999995
2021-06-23 15:24:36.117187500,62.0,-3.0,14.0,125.17,-2.95,0.1206099375,32.654687499999994
2021-06-23 15:24:36.125000000,62.0,-3.0,14.0,125.17,-2.8,0.12068999999999999,32.655
2021-06-23 15:24:36.132812500,62.0,-3.0,14.0,125.17,-2.95,0.1207700625,32.6553125
2021-06-23 15:24:36.140625000,62.0,-3.0,14.0,125.17,-3.1,0.120850125,32.655625
2021-06-23 15:24:36.148437500,62.0,-3.0,14.0,125.17,-3.395,0.1209301875,32.6559375
2021-06-23 15:24:36.156250000,62.0,-3.0,14.0,125.17,-3.69,0.12101025,32.65625
2021-06-23 15:24:36.164062500,62.0,-3.0,14.0,125.17,-4.005,0.12109031249999999,32.6565625
2021-06-23 15:24:36.171875000,62.0,-3.0,14.0,125.17,-4.32,0.121170375,32.656875
2021-06-23 15:24:36.179687500,62.0,-3.0,14.0,125.17,-4.58,0.1212504375,32.6571875
2021-06-23 15:24:36.187500000,62.0,-3.0,14.0,125.17,-4.84,0.1213305,32.6575
2021-06-23 15:24:36.195312500,62.0,-3.0,14.0,125.17,-5.005,0.1214105625,32.6578125
2021-06-23 15:24:36.203125000,62.0,-3.0,14.0,125.17,-5.17,0.12149062499999999,32.658125
2021-06-23 15:24:36.210937500,62.0,-3.0,14.0,125.17,-5.24,0.1215706875,32.6584375
2021-06-23 15:24:36.218750000,62.0,-3.0,14.0,125.17,-5.31,0.12165075,32.65875
2021-06-23 15:24:36.226562500,62.0,-3.0,14.0,125.17,-5.279999999999999,0.1217308125,32.6590625
2021-06-23 15:24:36.234375000,62.0,-3.0,14.0,125.17,-5.25,0.121810875,32.659375
2021-06-23 15:24:36.242187500,62.0,-3.0,14.0,125.17,-5.145,0.12189093749999999,32.6596875
2021-06-23 15:24:36.250000000,62.0,-3.0,14.0,125.17,-5.04,0.121971,32.66
2021-06-23 15:24:36.257812500,61.75,-3.0,14.0,125.17,-4.885,0.12201103125,32.66
2021-06-23 15:24:36.265625000,61.5,-3.0,14.0,125.17,-4.73,0.1220510625,32.66
2021-06-23 15:24:36.273437500,61.25,-3.0,14.0,125.17,-4.58,0.12209109374999999,32.66
2021-06-23 15:24:36.281250000,61.0,-3.0,14.0,125.17,-4.43,0.122131125,32.66
2021-06-23 15:24:36.289062500,61.25,-3.0,14.0,125.17,-4.35,0.12217115625,32.66
2021-06-23 15:24:36.296875000,61.5,-3.0,14.0,125.17,-4.27,0.1222111875,32.66
2021-06-23 15:24:36.304687500,61.75,-3.0,14.0,125.17,-4.3,0.12225121875,32.66
2021-06-23 15:24:36.312500000,62.0,-3.0,14.0,125.17,-4.33,0.12229124999999999,32.66
2021-06-23 15:24:36.320312500,62.0,-3.0,14.0,125.17,-4.465,0.12233128124999999,32.66
2021-06-23 15:24:36.328125000,62.0,-3.0,14.0,125.17,-4.6,0.1223713125,32.66
2021-06-23 15:24:36.335937500,62.0,-3.0,14.0,125.17,-4.81,0.12241134375,32.66
2021-06-23 15:24:36.343750000,62.0,-3.0,14.0,125.17,-5.02,0.122451375,32.66
2021-06-23 15:24:36.351562500,62.0,-3.0,14.0,125.17,-5.255,0.12249140625,32.66
2021-06-23 15:24:36.359375000,62.0,-3.0,14.0,125.17,-5.49,0.12253143749999999,32.66
2021-06-23 15:24:36.367187500,62.0,-3.0,14.0,125.17,-5.735,0.12257146875,32.66
2021-06-23 15:24:36.375000000,62.0,-3.0,14.0,125.17,-5.98,0.1226115,32.66
2021-06-23 15:24:36.382812500,62.0,-3.0,14.0,125.17,-6.235,0.12265153125,32.66
2021-06-23 15:24:36.390625000,62.0,-3.0,14.0,125.17,-6.49,0.1226915625,32.66
2021-06-23 15:24:36.398437500,62.0,-3.0,14.0,125.17,-6.795,0.12273159374999999,32.66
2021-06-23 15:24:36.406250000,62.0,-3.0,14.0,125.17,-7.1,0.122771625,32.66
2021-06-23 15:24:36.414062500,62.0,-3.0,14.0,125.17,-7.475,0.12281165625,32.66
2021-06-23 15:24:36.421875000,62.0,-3.0,14.0,125.17,-7.85,0.1228516875,32.66
2021-06-23 15:24:36.429687500,62.0,-3.0,14.0,125.17,-8.24,0.12289171875,32.66
2021-06-23 15:24:36.437500000,62.0,-3.0,14.0,125.17,-8.63,0.12293175,32.66
2021-06-23 15:24:36.445312500,62.0,-3.0,14.0,125.17,-8.91,0.12297178125,32.66
2021-06-23 15:24:36.453125000,62.0,-3.0,14.0,125.17,-9.19,0.1230118125,32.66
2021-06-23 15:24:36.460937500,62.0,-3.0,14.0,125.17,-9.2,0.12305184375,32.66
2021-06-23 15:24:36.468750000,62.0,-3.0,14.0,125.17,-9.21,0.123091875,32.66
2021-06-23 15:24:36.476562500,62.0,-3.0,14.0,125.17,-8.8,0.12313190625,32.66
2021-06-23 15:24:36.484375000,62.0,-3.0,14.0,125.17,-8.39,0.1231719375,32.66
2021-06-23 15:24:36.492187500,62.0,-3.0,14.0,125.17,-7.5200000000000005,0.12321196875,32.66
2021-06-23 15:24:36.500000000,62.0,-3.0,14.0,125.17,-6.65,0.123252,32.66
2021-06-23 15:24:36.507812500,62.0,-3.0,14.0,125.17,-5.405,0.123091875,32.66
2021-06-23 15:24:36.515625000,62.0,-3.0,14.0,125.17,-4.16,0.12293175,32.66
2021-06-23 15:24:36.523437500,62.0,-3.0,14.0,125.17,-2.75,0.122771625,32.66
2021-06-23 15:24:36.531250000,62.0,-3.0,14.0,125.17,-1.34,0.1226115,32.66
2021-06-23 15:24:36.539062500,62.0,-3.0,14.0,125.17,-0.030000000000000027,0.122451375,32.66
2021-06-23 15:24:36.546875000,62.0,-3.0,14.0,125.17,1.28,0.12229125,32.66
2021-06-23 15:24:36.554687500,62.0,-3.0,14.0,125.17,2.245,0.122131125,32.66
2021-06-23 15:24:36.562500000,62.0,-3.0,14.0,125.17,3.21,0.121971,32.66
2021-06-23 15:24:36.570312500,62.0,-3.25,14.0,125.17,3.695,0.121810875,32.66
2021-06-23 15:24:36.578125000,62.0,-3.5,14.0,125.17,4.18,0.12165075,32.66
2021-06-23 15:24:36.585937500,62.0,-3.75,14.0,125.17,4.154999999999999,0.121490625,32.66
2021-06-23 15:24:36.593750000,62.0,-4.0,14.0,125.17,4.13,0.1213305,32.66
2021-06-23 15:24:36.601562500,61.75,-3.75,14.0,125.17,3.69,0.121170375,32.66
2021-06-23 15:24:36.609375000,61.5,-3.5,14.0,125.17,3.25,0.12101025,32.66
2021-06-23 15:24:36.617187500,61.25,-3.25,14.0,125.17,2.555,0.120850125,32.66
2021-06-23 15:24:36.625000000,61.0,-3.0,14.0,125.17,1.86,0.12068999999999999,32.66
2021-06-23 15:24:36.632812500,61.0,-3.0,14.0,125.17,1.08,0.120529875,32.66
2021-06-23 15:24:36.640625000,61.0,-3.0,14.0,125.17,0.3,0.12036975,32.66
2021-06-23 15:24:36.648437500,61.0,-3.0,14.0,125.17,-0.415,0.120209625,32.66
2021-06-23 15:24:36.656250000,61.0,-3.0,14.0,125.17,-1.13,0.1200495,32.66
2021-06-23 15:24:36.664062500,61.25,-3.0,14.0,125.17,-1.7,0.11988937499999999,32.66
2021-06-23 15:24:36.671875000,61.5,-3.0,14.0,125.17,-2.27,0.11972925,32.66
2021-06-23 15:24:36.679687500,61.75,-3.0,14.0,125.17,-2.675,0.119569125,32.66
2021-06-23 15:24:36.687500000,62.0,-3.0,14.0,125.17,-3.08,0.119409,32.66
2021-06-23 15:24:36.695312500,62.0,-3.25,14.0,125.17,-3.3200000000000003,0.119248875,32.66
2021-06-23 15:24:36.703125000,62.0,-3.5,14.0,125.17,-3.56,0.11908875,32.66
2021-06-23 15:24:36.710937500,62.0,-3.75,14.0,125.17,-3.66,0.118928625,32.66
2021-06-23 15:24:36.718750000,62.0,-4.0,14.0,125.17,-3.76,0.1187685,32.66
2021-06-23 15:24:36.726562500,62.0,-3.75,14.0,125.17,-3.7199999999999998,0.118608375,32.66
2021-06-23 15:24:36.734375000,62.0,-3.5,14.0,125.17,-3.68,0.11844824999999999,32.66
2021-06-23 15:24:36.742187500,62.0,-3.25,14.0,125.17,-3.495,0.118288125,32.66
2021-06-23 15:24:36.750000000,62.0,-3.0,14.0,125.17,-3.31,0.118128,32.66
2021-06-23 15:24:36.757812500,62.0,-3.0,14.0,125.17,-3.0,0.1183281875,32.66
2021-06-23 15:24:36.765625000,62.0,-3.0,14.0,125.17,-2.69,0.11852837499999999,32.66
2021-06-23 15:24:36.773437500,62.0,-3.0,14.0,125.17,-2.295,0.1187285625,32.66
2021-06-23 15:24:36.781250000,62.0,-3.0,14.0,125.17,-1.9,0.11892875,32.66
2021-06-23 15:24:36.789062500,62.0,-3.0,14.0,125.17,-1.52,0.1191289375,32.66
2021-06-23 15:24:36.796875000,62.0,-3.0,14.0,125.17,-1.14,0.119329125,32.66
2021-06-23 15:24:36.804687500,62.0,-3.0,14.0,125.17,-0.8999999999999999,0.1195293125,32.66
2021-06-23 15:24:36.812500000,62.0,-3.0,14.0,125.17,-0.66,0.1197295,32.66
2021-06-23 15:24:36.820312500,62.0,-3.0,14.0,125.17,-0.67,0.11992968749999999,32.66
2021-06-23 15:24:36.828125000,62.0,-3.0,14.0,125.17,-0.68,0.120129875,32.66
2021-06-23 15:24:36.835937500,62.0,-3.0,14.0,125.17,-0.9950000000000001,0.1203300625,32.66
2021-06-23 15:24:36.843750000,62.0,-3.0,14.0,125.17,-1.31,0.12053025,32.66
2021-06-23 15:24:36.851562500,62.0,-3.25,14.0,125.17,-1.91,0.1207304375,32.66
2021-06-23 15:24:36.859375000,62.0,-3.5,14.0,125.17,-2.51,0.120930625,32.66
2021-06-23 15:24:36.867187500,62.0,-3.75,14.0,125.17,-3.3049999999999997,0.1211308125,32.66
2021-06-23 15:24:36.875000000,62.0,-4.0,14.0,125.17,-4.1,0.121331,32.66
2021-06-23 15:24:36.882812500,61.75,-3.75,14.0,125.17,-4.955,0.1215311875,32.66
2021-06-23 15:24:36.890625000,61.5,-3.5,14.0,125.17,-5.81,0.121731375,32.66
2021-06-23 15:24:36.898437500,61.25,-3.25,14.0,125.17,-6.58,0.12193156250000001,32.66
2021-06-23 15:24:36.906250000,61.0,-3.0,14.0,125.17,-7.35,0.12213175,32.66
2021-06-23 15:24:36.914062500,61.25,-3.0,14.0,125.17,-7.905,0.1223319375,32.66
2021-06-23 15:24:36.921875000,61.5,-3.0,14.0,125.17,-8.46,0.122532125,32.66
2021-06-23 15:24:36.929687500,61.75,-3.0,14.0,125.17,-8.7,0.1227323125,32.66
2021-06-23 15:24:36.937500000,62.0,-3.0,14.0,125.17,-8.94,0.1229325,32.66
2021-06-23 15:24:36.945312500,62.0,-3.25,14.0,125.17,-8.79,0.1231326875,32.66
2021-06-23 15:24:36.953125000,62.0,-3.5,14.0,125.17,-8.64,0.12333287500000001,32.66
2021-06-23 15:24:36.960937500,62.0,-3.75,14.0,125.17,-8.06,0.1235330625,32.66
2021-06-23 15:24:36.968750000,62.0,-4.0,14.0,125.17,-7.48,0.12373325,32.66
2021-06-23 15:24:36.976562500,61.75,-3.75,14.0,125.17,-6.5,0.12393343750000001,32.66
2021-06-23 15:24:36.984375000,61.5,-3.5,14.0,125.17,-5.52,0.12413362500000001,32.66
2021-06-23 15:24:36.992187500,61.25,-3.25,14.0,125.17,-4.25,0.1243338125,32.66
2021-06-23 15:24:37.000000000,61.0,-3.0,14.0,125.17,-2.98,0.124534,32.66
2021-06-23 15:24:37.007812500,61.25,-3.0,14.0,125.170234375,-1.595,0.1243338125,32.66
2021-06-23 15:24:37.015625000,61.5,-3.0,14.0,125.17046875,-0.21,0.12413362500000001,32.66
2021-06-23 15:24:37.023437500,61.75,-3.0,14.0,125.170703125,1.08,0.12393343750000001,32.66
2021-06-23 15:24:37.031250000,62.0,-3.0,14.0,125.17093750000001,2.37,0.12373325,32.66
2021-06-23 15:24:37.039062500,61.75,-3.0,14.0,125.171171875,3.37,0.1235330625,32.66
2021-06-23 15:24:37.046875000,61.5,-3.0,14.0,125.17140625,4.37,0.12333287500000001,32.66
2021-06-23 15:24:37.054687500,61.25,-3.0,14.0,125.171640625,4.965,0.1231326875,32.66
2021-06-23 15:24:37.062500000,61.0,-3.0,14.0,125.171875,5.56,0.1229325,32.66
2021-06-23 15:24:37.070312500,61.25,-3.25,14.0,125.172109375,5.71,0.12273231250000001,32.66
2021-06-23 15:24:37.078125000,61.5,-3.5,14.0,125.17234375,5.86,0.122532125,32.66
2021-06-23 15:24:37.085937500,61.75,-3.75,14.0,125.172578125,5.630000000000001,0.1223319375,32.66
2021-06-23 15:24:37.093750000,62.0,-4.0,14.0,125.1728125,5.4,0.12213175,32.66
2021-06-23 15:24:37.101562500,62.0,-3.75,14.0,125.173046875,4.895,0.12193156250000001,32.66
2021-06-23 15:24:37.109375000,62.0,-3.5,14.0,125.17328125,4.39,0.121731375,32.66
2021-06-23 15:24:37.117187500,62.0,-3.25,14.0,125.17351562500001,3.7249999999999996,0.1215311875,32.66
2021-06-23 15:24:37.125000000,62.0,-3.0,14.0,125.17375,3.06,0.121331,32.66
2021-06-23 15:24:37.132812500,62.0,-3.25,14.0,125.173984375,2.3,0.1211308125,32.66
2021-06-23 15:24:37.140625000,62.0,-3.5,14.0,125.17421875000001,1.54,0.120930625,32.66
2021-06-23 15:24:37.148437500,62.0,-3.75,14.0,125.174453125,0.72,0.1207304375,32.66
2021-06-23 15:24:37.156250000,62.0,-4.0,14.0,125.1746875,-0.1,0.12053025,32.66
2021-06-23 15:24:37.164062500,62.0,-4.0,14.0,125.174921875,-0.975,0.1203300625,32.66
2021-06-23 15:24:37.171875000,62.0,-4.0,14.0,125.17515625,-1.85,0.120129875,32.66
2021-06-23 15:24:37.179687500,62.0,-4.0,14.0,125.175390625,-2.74,0.11992968749999999,32.66
2021-06-23 15:24:37.187500000,62.0,-4.0,14.0,125.175625,-3.63,0.1197295,32.66
2021-06-23 15:24:37.195312500,62.0,-4.0,14.0,125.175859375,-4.48,0.1195293125,32.66
2021-06-23 15:24:37.203125000,62.0,-4.0,14.0,125.17609375,-5.33,0.119329125,32.66
2021-06-23 15:24:37.210937500,62.0,-4.0,14.0,125.176328125,-6.025,0.1191289375,32.66
2021-06-23 15:24:37.218750000,62.0,-4.0,14.0,125.1765625,-6.72,0.11892875,32.66
2021-06-23 15:24:37.226562500,62.0,-3.75,14.0,125.17679687500001,-7.16,0.1187285625,32.66
2021-06-23 15:24:37.234375000,62.0,-3.5,14.0,125.17703125,-7.6,0.11852837499999999,32.66
2021-06-23 15:24:37.242187500,62.0,-3.25,14.0,125.177265625,-7.74,0.1183281875,32.66
2021-06-23 15:24:37.250000000,62.0,-3.0,14.0,125.17750000000001,-7.88,0.118128,32.66
2021-06-23 15:24:37.257812500,62.0,-3.0,13.75,125.177734375,-7.795,0.11824809374999999,32.66
2021-06-23 15:24:37.265625000,62.0,-3.0,13.5,125.17796875,-7.71,0.1183681875,32.66
2021-06-23 15:24:37.273437500,62.0,-3.0,13.25,125.178203125,-7.555,0.11848828125,32.66
2021-06-23 15:24:37.281250000,62.0,-3.0,13.0,125.1784375,-7.4,0.118608375,32.66
2021-06-23 15:24:37.289062500,62.0,-3.0,13.25,125.178671875,-7.385,0.11872846875,32.66
2021-06-23 15:24:37.296875000,62.0,-3.0,13.5,125.17890625,-7.37,0.11884856249999999,32.66
2021-06-23 15:24:37.304687500,62.0,-3.0,13.75,125.179140625,-7.65,0.11896865625,32.66
2021-06-23 15:24:37.312500000,62.0,-3.0,14.0,125.17937500000001,-7.93,0.11908875,32.66
2021-06-23 15:24:37.320312500,62.0,-3.25,14.0,125.179609375,-8.565,0.11920884375,32.66
2021-06-23 15:24:37.328125000,62.0,-3.5,14.0,125.17984375,-9.2,0.1193289375,32.66
2021-06-23 15:24:37.335937500,62.0,-3.75,14.0,125.18007812500001,-10.12,0.11944903124999999,32.66
2021-06-23 15:24:37.343750000,62.0,-4.0,14.0,125.1803125,-11.04,0.119569125,32.66
2021-06-23 15:24:37.351562500,62.0,-3.75,14.0,125.180546875,-12.094999999999999,0.11968921874999999,32.66
2021-06-23 15:24:37.359375000,62.0,-3.5,14.0,125.18078125,-13.15,0.1198093125,32.66
2021-06-23 15:24:37.367187500,62.0,-3.25,14.0,125.181015625,-14.185,0.11992940625,32.66
2021-06-23 15:24:37.375000000,62.0,-3.0,14.0,125.18125,-15.22,0.1200495,32.66
2021-06-23 15:24:37.382812500,61.75,-3.25,14.0,125.181484375,-16.09,0.12016959375,32.66
2021-06-23 15:24:37.390625000,61.5,-3.5,14.0,125.18171875,-16.96,0.12028968749999999,32.66
2021-06-23 15:24:37.398437500,61.25,-3.75,14.0,125.181953125,-17.560000000000002,0.12040978125,32.66
2021-06-23 15:24:37.406250000,61.0,-4.0,14.0,125.1821875,-18.16,0.120529875,32.66
2021-06-23 15:24:37.414062500,61.25,-4.0,13.75,125.182421875,-18.395,0.12064996875,32.66
2021-06-23 15:24:37.421875000,61.5,-4.0,13.5,125.18265625000001,-18.63,0.1207700625,32.66
2021-06-23 15:24:37.429687500,61.75,-4.0,13.25,125.182890625,-18.4,0.12089015624999999,32.66
2021-06-23 15:24:37.437500000,62.0,-4.0,13.0,125.183125,-18.17,0.12101025,32.66
2021-06-23 15:24:37.445312500,62.0,-3.75,13.25,125.18335937500001,-17.415,0.12113034375,32.66
2021-06-23 15:24:37.453125000,62.0,-3.5,13.5,125.18359375,-16.66,0.1212504375,32.66
2021-06-23 15:24:37.460937500,62.0,-3.25,13.75,125.183828125,-15.370000000000001,0.12137053125,32.66
2021-06-23 15:24:37.468750000,62.0,-3.0,14.0,125.1840625,-14.08,0.12149062499999999,32.66
2021-06-23 15:24:37.476562500,62.0,-3.0,14.0,125.184296875,-12.395,0.12161071875,32.66
2021-06-23 15:24:37.484375000,62.0,-3.0,14.0,125.18453125,-10.71,0.1217308125,32.66
2021-06-23 15:24:37.492187500,62.0,-3.0,14.0,125.184765625,-8.88,0.12185090625,32.66
2021-06-23 15:24:37.500000000,62.0,-3.0,14.0,125.185,-7.05,0.121971,32.66
2021-06-23 15:24:37.507812500,62.0,-3.0,14.0,125.18523437500001,-5.395,0.12201103125,32.66
2021-06-23 15:24:37.515625000,62.0,-3.0,14.0,125.18546875,-3.74,0.1220510625,32.66
2021-06-23 15:24:37.523437500,62.0,-3.0,14.0,125.185703125,-2.545,0.12209109374999999,32.66
2021-06-23 15:24:37.531250000,62.0,-3.0,14.0,125.18593750000001,-1.35,0.122131125,32.66
2021-06-23 15:24:37.539062500,61.75,-3.25,14.0,125.186171875,-0.75,0.12217115625,32.66
2021-06-23 15:24:37.546875000,61.5,-3.5,14.0,125.18640625,-0.15,0.1222111875,32.66
2021-06-23 15:24:37.554687500,61.25,-3.75,14.0,125.186640625,-0.105,0.12225121875,32.66
2021-06-23 15:24:37.562500000,61.0,-4.0,14.0,125.186875,-0.06,0.12229124999999999,32.66
2021-06-23 15:24:37.570312500,61.0,-4.0,14.0,125.187109375,-0.37999999999999995,0.12233128124999999,32.66
2021-06-23 15:24:37.578125000,61.0,-4.0,14.0,125.18734375,-0.7,0.1223713125,32.66
2021-06-23 15:24:37.585937500,61.0,-4.0,14.0,125.187578125,-1.145,0.12241134375,32.66
2021-06-23 15:24:37.593750000,61.0,-4.0,14.0,125.1878125,-1.59,0.122451375,32.66
2021-06-23 15:24:37.601562500,61.25,-4.0,14.0,125.188046875,-1.9649999999999999,0.12249140625,32.66
2021-06-23 15:24:37.609375000,61.5,-4.0,14.0,125.18828125,-2.34,0.12253143749999999,32.66
2021-06-23 15:24:37.617187500,61.75,-4.0,14.0,125.18851562500001,-2.57,0.12257146875,32.66
2021-06-23 15:24:37.625000000,62.0,-4.0,14.0,125.18875,-2.8,0.1226115,32.66
2021-06-23 15:24:37.632812500,61.75,-3.75,14.0,125.188984375,-2.925,0.12265153125,32.66
2021-06-23 15:24:37.640625000,61.5,-3.5,14.0,125.18921875000001,-3.05,0.1226915625,32.66
2021-06-23 15:24:37.648437500,61.25,-3.25,14.0,125.189453125,-3.155,0.12273159374999999,32.66
2021-06-23 15:24:37.656250000,61.0,-3.0,14.0,125.1896875,-3.26,0.122771625,32.66
2021-06-23 15:24:37.664062500,61.25,-3.25,14.0,125.189921875,-3.425,0.12281165625,32.66
2021-06-23 15:24:37.671875000,61.5,-3.5,14.0,125.19015625,-3.59,0.1228516875,32.66
2021-06-23 15:24:37.679687500,61.75,-3.75,14.0,125.190390625,-3.84,0.12289171875,32.66
2021-06-23 15:24:37.687500000,62.0,-4.0,14.0,125.190625,-4.09,0.12293175,32.66
2021-06-23 15:24:37.695312500,62.0,-4.0,14.0,125.190859375,-4.395,0.12297178125,32.66
2021-06-23 15:24:37.703125000,62.0,-4.0,14.0,125.19109375000001,-4.7,0.1230118125,32.66
2021-06-23 15:24:37.710937500,62.0,-4.0,14.0,125.191328125,-5.0,0.12305184375,32.66
2021-06-23 15:24:37.718750000,62.0,-4.0,14.0,125.1915625,-5.3,0.123091875,32.66
2021-06-23 15:24:37.726562500,61.75,-3.75,14.0,125.19179687500001,-5.54,0.12313190625,32.66
2021-06-23 15:24:37.734375000,61.5,-3.5,14.0,125.19203125,-5.78,0.1231719375,32.66
2021-06-23 15:24:37.742187500,61.25,-3.25,14.0,125.192265625,-5.945,0.12321196875,32.66
2021-06-23 15:24:37.750000000,61.0,-3.0,14.0,125.1925,-6.11,0.123252,32.66
2021-06-23 15:24:37.757812500,61.25,-3.25,14.0,125.192734375,-6.205,0.123091875,32.66
2021-06-23 15:24:37.765625000,61.5,-3.5,14.0,125.19296875,-6.3,0.12293175,32.66
2021-06-23 15:24:37.773437500,61.75,-3.75,14.0,125.193203125,-6.345,0.122771625,32.66
2021-06-23 15:24:37.781250000,62.0,-4.0,14.0,125.1934375,-6.39,0.1226115,32.66
2021-06-23 15:24:37.789062500,62.0,-4.0,14.0,125.193671875,-6.41,0.122451375,32.66
2021-06-23 15:24:37.796875000,62.0,-4.0,14.0,125.19390625,-6.43,0.12229125,32.66
2021-06-23 15:24:37.804687500,62.0,-4.0,14.0,125.194140625,-6.46,0.122131125,32.66
2021-06-23 15:24:37.812500000,62.0,-4.0,14.0,125.19437500000001,-6.49,0.121971,32.66
2021-06-23 15:24:37.820312500,61.75,-3.75,14.0,125.194609375,-6.57,0.121810875,32.66
2021-06-23 15:24:37.828125000,61.5,-3.5,14.0,125.19484375,-6.65,0.12165075,32.66
2021-06-23 15:24:37.835937500,61.25,-3.25,14.0,125.19507812500001,-6.825,0.121490625,32.66
2021-06-23 15:24:37.843750000,61.0,-3.0,14.0,125.1953125,-7.0,0.1213305,32.66
2021-06-23 15:24:37.851562500,61.0,-3.25,14.0,125.195546875,-7.295,0.121170375,32.66
2021-06-23 15:24:37.859375000,61.0,-3.5,14.0,125.19578125,-7.59,0.12101025,32.66
2021-06-23 15:24:37.867187500,61.0,-3.75,14.0,125.196015625,-7.99,0.120850125,32.66
2021-06-23 15:24:37.875000000,61.0,-4.0,14.0,125.19625,-8.39,0.12068999999999999,32.66
2021-06-23 15:24:37.882812500,61.25,-3.75,14.0,125.196484375,-8.825,0.120529875,32.66
2021-06-23 15:24:37.890625000,61.5,-3.5,14.0,125.19671875,-9.26,0.12036975,32.66
2021-06-23 15:24:37.898437500,61.75,-3.25,14.0,125.19695312500001,-9.58,0.120209625,32.66
2021-06-23 15:24:37.906250000,62.0,-3.0,14.0,125.1971875,-9.9,0.1200495,32.66
2021-06-23 15:24:37.914062500,62.0,-3.0,14.0,125.197421875,-9.95,0.11988937499999999,32.66
2021-06-23 15:24:37.921875000,62.0,-3.0,14.0,125.19765625000001,-10.0,0.11972925,32.66
2021-06-23 15:24:37.929687500,62.0,-3.0,14.0,125.197890625,-9.635,0.119569125,32.66
2021-06-23 15:24:37.937500000,62.0,-3.0,14.0,125.198125,-9.27,0.119409,32.66
2021-06-23 15:24:37.945312500,62.0,-3.25,14.0,125.19835937500001,-8.465,0.119248875,32.66
2021-06-23 15:24:37.953125000,62.0,-3.5,14.0,125.19859375,-7.66,0.11908875,32.66
2021-06-23 15:24:37.960937500,62.0,-3.75,14.0,125.198828125,-6.5,0.118928625,32.66
2021-06-23 15:24:37.968750000,62.0,-4.0,14.0,125.1990625,-5.34,0.1187685,32.66
2021-06-23 15:24:37.976562500,62.0,-3.75,14.0,125.199296875,-4.03,0.118608375,32.66
2021-06-23 15:24:37.984375000,62.0,-3.5,14.0,125.19953125,-2.72,0.11844824999999999,32.66
2021-06-23 15:24:37.992187500,62.0,-3.25,14.0,125.199765625,-1.51,0.118288125,32.66
2021-06-23 15:24:38.000000000,62.0,-3.0,14.0,125.2,-0.3,0.118128,32.66
2021-06-23 15:24:38.007812500,62.0,-3.25,14.0,125.20015625,0.605,0.118128,32.6596875
2021-06-23 15:24:38.015625000,62.0,-3.5,14.0,125.20031250000001,1.51,0.118128,32.659375
2021-06-23 15:24:38.023437500,62.0,-3.75,14.0,125.20046875,2.005,0.118128,32.6590625
2021-06-23 15:24:38.031250000,62.0,-4.0,14.0,125.200625,2.5,0.118128,32.65875
2021-06-23 15:24:38.039062500,61.75,-3.75,14.0,125.20078125,2.5949999999999998,0.118128,32.6584375
2021-06-23 15:24:38.046875000,61.5,-3.5,14.0,125.20093750000001,2.69,0.118128,32.658125
2021-06-23 15:24:38.054687500,61.25,-3.25,14.0,125.20109375,2.49,0.118128,32.6578125
2021-06-23 15:24:38.062500000,61.0,-3.0,14.0,125.20125,2.29,0.118128,32.6575
2021-06-23 15:24:38.070312500,61.25,-3.0,14.0,125.20140625,1.925,0.118128,32.6571875
2021-06-23 15:24:38.078125000,61.5,-3.0,14.0,125.20156250000001,1.56,0.118128,32.656875
2021-06-23 15:24:38.085937500,61.75,-3.0,14.0,125.20171875,1.17,0.118128,32.6565625
2021-06-23 15:24:38.093750000,62.0,-3.0,14.0,125.201875,0.78,0.118128,32.65625
2021-06-23 15:24:38.101562500,62.0,-3.25,14.0,125.20203125,0.45,0.118128,32.6559375
2021-06-23 15:24:38.109375000,62.0,-3.5,14.0,125.20218750000001,0.12,0.118128,32.655625
2021-06-23 15:24:38.117187500,62.0,-3.75,14.0,125.20234375,-0.11000000000000001,0.118128,32.6553125
2021-06-23 15:24:38.125000000,62.0,-4.0,14.0,125.2025,-0.34,0.118128,32.655
2021-06-23 15:24:38.132812500,62.0,-4.0,14.0,125.20265625,-0.475,0.118128,32.654687499999994
2021-06-23 15:24:38.140625000,62.0,-4.0,14.0,125.20281250000001,-0.61,0.118128,32.654374999999995
2021-06-23 15:24:38.148437500,62.0,-4.0,14.0,125.20296875,-0.715,0.118128,32.654062499999995
2021-06-23 15:24:38.156250000,62.0,-4.0,14.0,125.203125,-0.82,0.118128,32.653749999999995
2021-06-23 15:24:38.164062500,61.75,-4.0,14.0,125.20328125,-0.94,0.118128,32.653437499999995
2021-06-23 15:24:38.171875000,61.5,-4.0,14.0,125.2034375,-1.06,0.118128,32.653124999999996
2021-06-23 15:24:38.179687500,61.25,-4.0,14.0,125.20359375,-1.24,0.118128,32.652812499999996
2021-06-23 15:24:38.187500000,61.0,-4.0,14.0,125.20375,-1.42,0.118128,32.652499999999996
2021-06-23 15:24:38.195312500,61.25,-3.75,14.0,125.20390625,-1.6549999999999998,0.118128,32.6521875
2021-06-23 15:24:38.203125000,61.5,-3.5,14.0,125.2040625,-1.89,0.118128,32.651875
2021-06-23 15:24:38.210937500,61.75,-3.25,14.0,125.20421875,-2.135,0.118128,32.6515625
2021-06-23 15:24:38.218750000,62.0,-3.0,14.0,125.204375,-2.38,0.118128,32.65125
2021-06-23 15:24:38.226562500,62.0,-3.0,14.0,125.20453125,-2.57,0.118128,32.6509375
2021-06-23 15:24:38.234375000,62.0,-3.0,14.0,125.2046875,-2.76,0.118128,32.650625
2021-06-23 15:24:38.242187500,62.0,-3.0,14.0,125.20484375,-2.88,0.118128,32.6503125
2021-06-23 15:24:38.250000000,62.0,-3.0,14.0,125.205,-3.0,0.118128,32.65
2021-06-23 15:24:38.257812500,62.0,-3.25,14.0,125.20515625,-3.075,0.11808796875,32.65
2021-06-23 15:24:38.265625000,62.0,-3.5,14.0,125.2053125,-3.15,0.11804793749999999,32.65
2021-06-23 15:24:38.273437500,62.0,-3.75,14.0,125.20546875000001,-3.27,0.11800790625,32.65
2021-06-23 15:24:38.281250000,62.0,-4.0,14.0,125.205625,-3.39,0.117967875,32.65
2021-06-23 15:24:38.289062500,61.75,-4.0,14.0,125.20578125,-3.665,0.11792784375,32.65
2021-06-23 15:24:38.296875000,61.5,-4.0,14.0,125.2059375,-3.94,0.1178878125,32.65
2021-06-23 15:24:38.304687500,61.25,-4.0,14.0,125.20609375000001,-4.455,0.11784778125,32.65
2021-06-23 15:24:38.312500000,61.0,-4.0,14.0,125.20625,-4.97,0.11780775,32.65
2021-06-23 15:24:38.320312500,61.25,-3.75,14.0,125.20640625,-5.74,0.11776771875,32.65
2021-06-23 15:24:38.328125000,61.5,-3.5,14.0,125.2065625,-6.51,0.1177276875,32.65
2021-06-23 15:24:38.335937500,61.75,-3.25,14.0,125.20671875000001,-7.4799999999999995,0.11768765625,32.65
2021-06-23 15:24:38.343750000,62.0,-3.0,14.0,125.206875,-8.45,0.117647625,32.65
2021-06-23 15:24:38.351562500,62.0,-3.0,14.0,125.20703125,-9.504999999999999,0.11760759375,32.65
2021-06-23 15:24:38.359375000,62.0,-3.0,14.0,125.2071875,-10.56,0.1175675625,32.65
2021-06-23 15:24:38.367187500,62.0,-3.0,14.0,125.20734375,-11.510000000000002,0.11752753125,32.65
2021-06-23 15:24:38.375000000,62.0,-3.0,14.0,125.2075,-12.46,0.1174875,32.65
2021-06-23 15:24:38.382812500,62.0,-3.25,14.0,125.20765625,-13.11,0.11744746875,32.65
2021-06-23 15:24:38.390625000,62.0,-3.5,14.0,125.2078125,-13.76,0.1174074375,32.65
2021-06-23 15:24:38.398437500,62.0,-3.75,14.0,125.20796875,-13.91,0.11736740625,32.65
2021-06-23 15:24:38.406250000,62.0,-4.0,14.0,125.208125,-14.06,0.117327375,32.65
2021-06-23 15:24:38.414062500,62.0,-3.75,14.0,125.20828125,-13.595,0.11728734375000001,32.65
2021-06-23 15:24:38.421875000,62.0,-3.5,14.0,125.2084375,-13.13,0.1172473125,32.65
2021-06-23 15:24:38.429687500,62.0,-3.25,14.0,125.20859375,-12.085,0.11720728125,32.65
2021-06-23 15:24:38.437500000,62.0,-3.0,14.0,125.20875,-11.04,0.11716725,32.65
2021-06-23 15:24:38.445312500,62.0,-3.0,14.0,125.20890625,-9.605,0.11712721875,32.65
2021-06-23 15:24:38.453125000,62.0,-3.0,14.0,125.2090625,-8.17,0.11708718750000001,32.65
2021-06-23 15:24:38.460937500,62.0,-3.0,14.0,125.20921875,-6.640000000000001,0.11704715625,32.65
2021-06-23 15:24:38.468750000,62.0,-3.0,14.0,125.209375,-5.11,0.117007125,32.65
2021-06-23 15:24:38.476562500,62.0,-3.25,14.0,125.20953125,-3.79,0.11696709375,32.65
2021-06-23 15:24:38.484375000,62.0,-3.5,14.0,125.2096875,-2.47,0.11692706250000001,32.65
2021-06-23 15:24:38.492187500,62.0,-3.75,14.0,125.20984375,-1.5550000000000002,0.11688703125000001,32.65
2021-06-23 15:24:38.500000000,62.0,-4.0,14.0,125.21000000000001,-0.64,0.116847,32.65
2021-06-23 15:24:38.507812500,62.0,-4.0,14.0,125.21015625,-0.17500000000000004,0.11692706250000001,32.65
2021-06-23 15:24:38.515625000,62.0,-4.0,14.0,125.2103125,0.29,0.117007125,32.65
2021-06-23 15:24:38.523437500,62.0,-4.0,14.0,125.21046875,0.405,0.11708718750000001,32.65
2021-06-23 15:24:38.531250000,62.0,-4.0,14.0,125.21062500000001,0.52,0.11716725,32.65
2021-06-23 15:24:38.539062500,62.0,-4.0,14.0,125.21078125,0.44,0.1172473125,32.65
2021-06-23 15:24:38.546875000,62.0,-4.0,14.0,125.2109375,0.36,0.11732737500000001,32.65
2021-06-23 15:24:38.554687500,62.0,-4.0,14.0,125.21109375,0.19,0.1174074375,32.65
2021-06-23 15:24:38.562500000,62.0,-4.0,14.0,125.21125,0.02,0.11748750000000001,32.65
2021-06-23 15:24:38.570312500,61.75,-4.0,14.0,125.21140625,-0.20500000000000002,0.1175675625,32.65
2021-06-23 15:24:38.578125000,61.5,-4.0,14.0,125.2115625,-0.43,0.117647625,32.65
2021-06-23 15:24:38.585937500,61.25,-4.0,14.0,125.21171875,-0.7350000000000001,0.11772768750000001,32.65
2021-06-23 15:24:38.593750000,61.0,-4.0,14.0,125.211875,-1.04,0.11780775,32.65
2021-06-23 15:24:38.601562500,61.25,-3.75,14.0,125.21203125,-1.44,0.11788781250000001,32.65
2021-06-23 15:24:38.609375000,61.5,-3.5,14.0,125.2121875,-1.84,0.117967875,32.65
2021-06-23 15:24:38.617187500,61.75,-3.25,14.0,125.21234375,-2.315,0.1180479375,32.65
2021-06-23 15:24:38.625000000,62.0,-3.0,14.0,125.2125,-2.79,0.11812800000000001,32.65
2021-06-23 15:24:38.632812500,62.0,-3.25,14.0,125.21265625,-3.25,0.1182080625,32.65
2021-06-23 15:24:38.640625000,62.0,-3.5,14.0,125.2128125,-3.71,0.11828812500000001,32.65
2021-06-23 15:24:38.648437500,62.0,-3.75,14.0,125.21296875,-4.0600000000000005,0.1183681875,32.65
2021-06-23 15:24:38.656250000,62.0,-4.0,14.0,125.213125,-4.41,0.11844825,32.65
2021-06-23 15:24:38.664062500,61.75,-4.0,14.0,125.21328125,-4.57,0.1185283125,32.65
2021-06-23 15:24:38.671875000,61.5,-4.0,14.0,125.2134375,-4.73,0.118608375,32.65
2021-06-23 15:24:38.679687500,61.25,-4.0,14.0,125.21359375,-4.695,0.11868843750000001,32.65
2021-06-23 15:24:38.687500000,61.0,-4.0,14.0,125.21375,-4.66,0.1187685,32.65
2021-06-23 15:24:38.695312500,61.0,-4.0,14.0,125.21390625,-4.48,0.1188485625,32.65
2021-06-23 15:24:38.703125000,61.0,-4.0,14.0,125.2140625,-4.3,0.118928625,32.65
2021-06-23 15:24:38.710937500,61.0,-4.0,14.0,125.21421875,-4.06,0.1190086875,32.65
2021-06-23 15:24:38.718750000,61.0,-4.0,14.0,125.214375,-3.82,0.11908875000000001,32.65
2021-06-23 15:24:38.726562500,61.25,-4.0,14.0,125.21453125,-3.625,0.1191688125,32.65
2021-06-23 15:24:38.734375000,61.5,-4.0,14.0,125.2146875,-3.43,0.119248875,32.65
2021-06-23 15:24:38.742187500,61.75,-4.0,14.0,125.21484375,-3.375,0.1193289375,32.65
2021-06-23 15:24:38.750000000,62.0,-4.0,14.0,125.215,-3.32,0.119409,32.65
2021-06-23 15:24:38.757812500,61.75,-3.75,14.0,125.21515625,-3.4749999999999996,0.11936896875,32.65
2021-06-23 15:24:38.765625000,61.5,-3.5,14.0,125.2153125,-3.63,0.1193289375,32.65
2021-06-23 15:24:38.773437500,61.25,-3.25,14.0,125.21546875,-4.04,0.11928890625,32.65
2021-06-23 15:24:38.781250000,61.0,-3.0,14.0,125.215625,-4.45,0.119248875,32.65
2021-06-23 15:24:38.789062500,61.25,-3.25,14.0,125.21578125,-5.125,0.11920884375,32.65
2021-06-23 15:24:38.796875000,61.5,-3.5,14.0,125.2159375,-5.8,0.1191688125,32.65
2021-06-23 15:24:38.804687500,61.75,-3.75,14.0,125.21609375,-6.6850000000000005,0.11912878125,32.65
2021-06-23 15:24:38.812500000,62.0,-4.0,14.0,125.21625,-7.57,0.11908875,32.65
2021-06-23 15:24:38.820312500,62.0,-3.75,14.0,125.21640625,-8.59,0.11904871875,32.65
2021-06-23 15:24:38.828125000,62.0,-3.5,14.0,125.2165625,-9.61,0.1190086875,32.65
2021-06-23 15:24:38.835937500,62.0,-3.25,14.0,125.21671875,-10.620000000000001,0.11896865625,32.65
2021-06-23 15:24:38.843750000,62.0,-3.0,14.0,125.216875,-11.63,0.118928625,32.65
2021-06-23 15:24:38.851562500,62.0,-3.25,14.0,125.21703125,-12.440000000000001,0.11888859375,32.65
2021-06-23 15:24:38.859375000,62.0,-3.5,14.0,125.2171875,-13.25,0.1188485625,32.65
2021-06-23 15:24:38.867187500,62.0,-3.75,14.0,125.21734375,-13.665,0.11880853125,32.65
2021-06-23 15:24:38.875000000,62.0,-4.0,14.0,125.2175,-14.08,0.1187685,32.65
2021-06-23 15:24:38.882812500,62.0,-4.0,14.0,125.21765625,-13.940000000000001,0.11872846875,32.65
2021-06-23 15:24:38.890625000,62.0,-4.0,14.0,125.2178125,-13.8,0.1186884375,32.65
2021-06-23 15:24:38.898437500,62.0,-4.0,14.0,125.21796875,-13.04,0.11864840625,32.65
2021-06-23 15:24:38.906250000,62.0,-4.0,14.0,125.218125,-12.28,0.118608375,32.65
2021-06-23 15:24:38.914062500,62.0,-4.0,14.0,125.21828125,-10.985,0.11856834375,32.65
2021-06-23 15:24:38.921875000,62.0,-4.0,14.0,125.2184375,-9.69,0.1185283125,32.65
2021-06-23 15:24:38.929687500,62.0,-4.0,14.0,125.21859375,-8.09,0.11848828125,32.65
2021-06-23 15:24:38.937500000,62.0,-4.0,14.0,125.21875,-6.49,0.11844825,32.65
2021-06-23 15:24:38.945312500,62.0,-4.0,14.0,125.21890625,-4.91,0.11840821875,32.65
2021-06-23 15:24:38.953125000,62.0,-4.0,14.0,125.21906249999999,-3.33,0.1183681875,32.65
2021-06-23 15:24:38.960937500,62.0,-4.0,14.0,125.21921875,-2.045,0.11832815625,32.65
2021-06-23 15:24:38.968750000,62.0,-4.0,14.0,125.219375,-0.76,0.118288125,32.65
2021-06-23 15:24:38.976562500,62.0,-4.0,14.0,125.21953125,0.06000000000000005,0.11824809374999999,32.65
2021-06-23 15:24:38.984375000,62.0,-4.0,14.0,125.21968749999999,0.88,0.1182080625,32.65
2021-06-23 15:24:38.992187500,62.0,-4.0,14.0,125.21984375,1.245,0.11816803125,32.65
2021-06-23 15:24:39.000000000,62.0,-4.0,14.0,125.22,1.61,0.118128,32.65
2021-06-23 15:24:39.007812500,61.75,-4.0,14.0,125.22,1.645,0.11824809374999999,32.649375
2021-06-23 15:24:39.015625000,61.5,-4.0,14.0,125.22,1.68,0.1183681875,32.64875
2021-06-23 15:24:39.023437500,61.25,-4.0,14.0,125.22,1.5499999999999998,0.11848828125,32.648125
2021-06-23 15:24:39.031250000,61.0,-4.0,14.0,125.22,1.42,0.118608375,32.6475
2021-06-23 15:24:39.039062500,61.25,-3.75,14.0,125.22,1.245,0.11872846875,32.646875
2021-06-23 15:24:39.046875000,61.5,-3.5,14.0,125.22,1.07,0.11884856249999999,32.64625
2021-06-23 15:24:39.054687500,61.75,-3.25,14.0,125.22,0.8700000000000001,0.11896865625,32.645625
2021-06-23 15:24:39.062500000,62.0,-3.0,14.0,125.22,0.67,0.11908875,32.644999999999996
2021-06-23 15:24:39.070312500,62.0,-3.0,14.0,125.22,0.42000000000000004,0.11920884375,32.644375
2021-06-23 15:24:39.078125000,62.0,-3.0,14.0,125.22,0.17,0.1193289375,32.64375
2021-06-23 15:24:39.085937500,62.0,-3.0,14.0,125.22,-0.16,0.11944903124999999,32.643125
2021-06-23 15:24:39.093750000,62.0,-3.0,14.0,125.22,-0.49,0.119569125,32.6425
2021-06-23 15:24:39.101562500,62.0,-3.25,14.0,125.22,-0.85,0.11968921874999999,32.641875
2021-06-23 15:24:39.109375000,62.0,-3.5,14.0,125.22,-1.21,0.1198093125,32.64125
2021-06-23 15:24:39.117187500,62.0,-3.75,14.0,125.22,-1.53,0.11992940625,32.640625
2021-06-23 15:24:39.125000000,62.0,-4.0,14.0,125.22,-1.85,0.1200495,32.64
2021-06-23 15:24:39.132812500,61.75,-4.0,14.0,125.22,-2.0300000000000002,0.12016959375,32.639375
2021-06-23 15:24:39.140625000,61.5,-4.0,14.0,125.22,-2.21,0.12028968749999999,32.63875
2021-06-23 15:24:39.148437500,61.25,-4.0,14.0,125.22,-2.2199999999999998,0.12040978125,32.638125
2021-06-23 15:24:39.156250000,61.0,-4.0,14.0,125.22,-2.23,0.120529875,32.6375
2021-06-23 15:24:39.164062500,61.25,-3.75,14.0,125.22,-2.125,0.12064996875,32.636875
2021-06-23 15:24:39.171875000,61.5,-3.5,14.0,125.22,-2.02,0.1207700625,32.636250000000004
2021-06-23 15:24:39.179687500,61.75,-3.25,14.0,125.22,-1.92,0.12089015624999999,32.635625000000005
2021-06-23 15:24:39.187500000,62.0,-3.0,14.0,125.22,-1.82,0.12101025,32.635000000000005
2021-06-23 15:24:39.195312500,62.0,-3.25,14.0,125.22,-1.8450000000000002,0.12113034375,32.634375
2021-06-23 15:24:39.203125000,62.0,-3.5,14.0,125.22,-1.87,0.1212504375,32.63375
2021-06-23 15:24:39.210937500,62.0,-3.75,14.0,125.22,-2.075,0.12137053125,32.633125
2021-06-23 15:24:39.218750000,62.0,-4.0,14.0,125.22,-2.28,0.12149062499999999,32.6325
2021-06-23 15:24:39.226562500,62.0,-4.0,14.0,125.22,-2.6799999999999997,0.12161071875,32.631875
2021-06-23 15:24:39.234375000,62.0,-4.0,14.0,125.22,-3.08,0.1217308125,32.63125
2021-06-23 15:24:39.242187500,62.0,-4.0,14.0,125.22,-3.625,0.12185090625,32.630625
2021-06-23 15:24:39.250000000,62.0,-4.0,14.0,125.22,-4.17,0.121971,32.63
2021-06-23 15:24:39.257812500,62.0,-4.0,14.0,125.22,-4.85,0.12205109374999999,32.63
2021-06-23 15:24:39.265625000,62.0,-4.0,14.0,125.22,-5.53,0.1221311875,32.63
2021-06-23 15:24:39.273437500,62.0,-4.0,14.0,125.22,-6.35,0.12221128125,32.63
2021-06-23 15:24:39.281250000,62.0,-4.0,14.0,125.22,-7.17,0.122291375,32.63
2021-06-23 15:24:39.289062500,61.75,-4.0,14.0,125.22,-8.175,0.12237146875,32.63
2021-06-23 15:24:39.296875000,61.5,-4.0,14.0,125.22,-9.18,0.1224515625,32.63
2021-06-23 15:24:39.304687500,61.25,-4.0,14.0,125.22,-10.33,0.12253165625,32.63
2021-06-23 15:24:39.312500000,61.0,-4.0,14.0,125.22,-11.48,0.12261174999999999,32.63
2021-06-23 15:24:39.320312500,61.25,-3.75,14.0,125.22,-12.635,0.12269184375,32.63
2021-06-23 15:24:39.328125000,61.5,-3.5,14.0,125.22,-13.79,0.1227719375,32.63
2021-06-23 15:24:39.335937500,61.75,-3.25,14.0,125.22,-14.7,0.12285203125,32.63
2021-06-23 15:24:39.343750000,62.0,-3.0,14.0,125.22,-15.61,0.122932125,32.63
2021-06-23 15:24:39.351562500,62.0,-3.0,14.0,125.22,-15.985,0.12301221875,32.63
2021-06-23 15:24:39.359375000,62.0,-3.0,14.0,125.22,-16.36,0.1230923125,32.63
2021-06-23 15:24:39.367187500,62.0,-3.0,14.0,125.22,-15.985,0.12317240625,32.63
2021-06-23 15:24:39.375000000,62.0,-3.0,14.0,125.22,-15.61,0.1232525,32.63
2021-06-23 15:24:39.382812500,62.0,-3.0,14.0,125.22,-14.455,0.12333259375,32.63
2021-06-23 15:24:39.390625000,62.0,-3.0,14.0,125.22,-13.3,0.1234126875,32.63
2021-06-23 15:24:39.398437500,62.0,-3.0,14.0,125.22,-11.530000000000001,0.12349278125,32.63
2021-06-23 15:24:39.406250000,62.0,-3.0,14.0,125.22,-9.76,0.123572875,32.63
2021-06-23 15:24:39.414062500,61.75,-3.0,14.0,125.22,-7.699999999999999,0.12365296875000001,32.63
2021-06-23 15:24:39.421875000,61.5,-3.0,14.0,125.22,-5.64,0.1237330625,32.63
2021-06-23 15:24:39.429687500,61.25,-3.0,14.0,125.22,-3.655,0.12381315625,32.63
2021-06-23 15:24:39.437500000,61.0,-3.0,14.0,125.22,-1.67,0.12389325000000001,32.63
2021-06-23 15:24:39.445312500,61.0,-3.0,14.0,125.22,-0.03499999999999992,0.12397334375,32.63
2021-06-23 15:24:39.453125000,61.0,-3.0,14.0,125.22,1.6,0.1240534375,32.63
2021-06-23 15:24:39.460937500,61.0,-3.0,14.0,125.22,2.725,0.12413353125,32.63
2021-06-23 15:24:39.468750000,61.0,-3.0,14.0,125.22,3.85,0.12421362500000001,32.63
2021-06-23 15:24:39.476562500,61.0,-3.25,14.0,125.22,4.46,0.12429371875,32.63
2021-06-23 15:24:39.484375000,61.0,-3.5,14.0,125.22,5.07,0.1243738125,32.63
2021-06-23 15:24:39.492187500,61.0,-3.75,14.0,125.22,5.26,0.12445390625000001,32.63
2021-06-23 15:24:39.500000000,61.0,-4.0,14.0,125.22,5.45,0.124534,32.63
2021-06-23 15:24:39.507812500,61.25,-4.0,14.0,125.22,5.345000000000001,0.12429378125000001,32.63
2021-06-23 15:24:39.515625000,61.5,-4.0,14.0,125.22,5.24,0.1240535625,32.63
2021-06-23 15:24:39.523437500,61.75,-4.0,14.0,125.22,4.965,0.12381334375,32.63
2021-06-23 15:24:39.531250000,62.0,-4.0,14.0,125.22,4.69,0.123573125,32.63
2021-06-23 15:24:39.539062500,62.0,-4.0,14.0,125.22,4.34,0.12333290625000001,32.63
2021-06-23 15:24:39.546875000,62.0,-4.0,14.0,125.22,3.99,0.1230926875,32.63
2021-06-23 15:24:39.554687500,62.0,-4.0,14.0,125.22,3.63,0.12285246875,32.63
2021-06-23 15:24:39.562500000,62.0,-4.0,14.0,125.22,3.27,0.12261225,32.63
2021-06-23 15:24:39.570312500,62.0,-4.0,14.0,125.22,2.935,0.12237203125000001,32.63
2021-06-23 15:24:39.578125000,62.0,-4.0,14.0,125.22,2.6,0.1221318125,32.63
2021-06-23 15:24:39.585937500,62.0,-4.0,14.0,125.22,2.325,0.12189159375,32.63
2021-06-23 15:24:39.593750000,62.0,-4.0,14.0,125.22,2.05,0.121651375,32.63
2021-06-23 15:24:39.601562500,62.0,-4.0,14.0,125.22,1.875,0.12141115625000001,32.63
2021-06-23 15:24:39.609375000,62.0,-4.0,14.0,125.22,1.7,0.1211709375,32.63
2021-06-23 15:24:39.617187500,62.0,-4.0,14.0,125.22,1.655,0.12093071875,32.63
2021-06-23 15:24:39.625000000,62.0,-4.0,14.0,125.22,1.61,0.1206905,32.63
2021-06-23 15:24:39.632812500,61.75,-3.75,14.0,125.22,1.695,0.12045028125000001,32.63
2021-06-23 15:24:39.640625000,61.5,-3.5,14.0,125.22,1.78,0.1202100625,32.63
2021-06-23 15:24:39.648437500,61.25,-3.25,14.0,125.22,1.96,0.11996984375,32.63
2021-06-23 15:24:39.656250000,61.0,-3.0,14.0,125.22,2.14,0.119729625,32.63
2021-06-23 15:24:39.664062500,61.0,-3.0,14.0,125.22,2.335,0.11948940625000001,32.63
2021-06-23 15:24:39.671875000,61.0,-3.0,14.0,125.22,2.53,0.1192491875,32.63
2021-06-23 15:24:39.679687500,61.0,-3.0,14.0,125.22,2.6449999999999996,0.11900896875,32.63
2021-06-23 15:24:39.687500000,61.0,-3.0,14.0,125.22,2.76,0.11876875,32.63
2021-06-23 15:24:39.695312500,61.25,-3.0,14.0,125.22,2.7,0.11852853125000001,32.63
2021-06-23 15:24:39.703125000,61.5,-3.0,14.0,125.22,2.64,0.1182883125,32.63
2021-06-23 15:24:39.710937500,61.75,-3.0,14.0,125.22,2.355,0.11804809375,32.63
2021-06-23 15:24:39.718750000,62.0,-3.0,14.0,125.22,2.07,0.117807875,32.63
2021-06-23 15:24:39.726562500,62.0,-3.25,14.0,125.22,1.545,0.11756765625000001,32.63
2021-06-23 15:24:39.734375000,62.0,-3.5,14.0,125.22,1.02,0.1173274375,32.63
2021-06-23 15:24:39.742187500,62.0,-3.75,14.0,125.22,0.26,0.11708721875,32.63
2021-06-23 15:24:39.750000000,62.0,-4.0,14.0,125.22,-0.5,0.116847,32.63
2021-06-23 15:24:39.757812500,62.0,-4.0,14.0,125.22,-1.47,0.11704715625,32.63
2021-06-23 15:24:39.765625000,62.0,-4.0,14.0,125.22,-2.44,0.1172473125,32.63
2021-06-23 15:24:39.773437500,62.0,-4.0,14.0,125.22,-3.585,0.11744746875,32.63
2021-06-23 15:24:39.781250000,62.0,-4.0,14.0,125.22,-4.73,0.117647625,32.63
2021-06-23 15:24:39.789062500,61.75,-3.75,14.0,125.22,-5.965,0.11784778125,32.63
2021-06-23 15:24:39.796875000,61.5,-3.5,14.0,125.22,-7.2,0.1180479375,32.63
2021-06-23 15:24:39.804687500,61.25,-3.25,14.0,125.22,-8.375,0.11824809375,32.63
2021-06-23 15:24:39.812500000,61.0,-3.0,14.0,125.22,-9.55,0.11844825,32.63
2021-06-23 15:24:39.820312500,61.25,-3.0,14.0,125.22,-10.43,0.11864840625,32.63
2021-06-23 15:24:39.828125000,61.5,-3.0,14.0,125.22,-11.31,0.1188485625,32.63
2021-06-23 15:24:39.835937500,61.75,-3.0,14.0,125.22,-11.635000000000002,0.11904871875,32.63
2021-06-23 15:24:39.843750000,62.0,-3.0,14.0,125.22,-11.96,0.119248875,32.63
2021-06-23 15:24:39.851562500,62.0,-3.25,14.0,125.22,-11.510000000000002,0.11944903125,32.63
2021-06-23 15:24:39.859375000,62.0,-3.5,14.0,125.22,-11.06,0.1196491875,32.63
2021-06-23 15:24:39.867187500,62.0,-3.75,14.0,125.22,-9.785,0.11984934375,32.63
2021-06-23 15:24:39.875000000,62.0,-4.0,14.0,125.22,-8.51,0.1200495,32.63
2021-06-23 15:24:39.882812500,61.75,-3.75,13.75,125.22,-6.57,0.12024965625,32.63
2021-06-23 15:24:39.890625000,61.5,-3.5,13.5,125.22,-4.63,0.1204498125,32.63
2021-06-23 15:24:39.898437500,61.25,-3.25,13.25,125.22,-2.36,0.12064996875,32.63
2021-06-23 15:24:39.906250000,61.0,-3.0,13.0,125.22,-0.09,0.120850125,32.63
2021-06-23 15:24:39.914062500,61.25,-3.0,13.25,125.22,2.105,0.12105028125,32.63
2021-06-23 15:24:39.921875000,61.5,-3.0,13.5,125.22,4.3,0.1212504375,32.63
2021-06-23 15:24:39.929687500,61.75,-3.0,13.75,125.22,6.09,0.12145059375,32.63
2021-06-23 15:24:39.937500000,62.0,-3.0,14.0,125.22,7.88,0.12165075,32.63
2021-06-23 15:24:39.945312500,61.75,-3.0,14.0,125.22,9.12,0.12185090625,32.63
2021-06-23 15:24:39.953125000,61.5,-3.0,14.0,125.22,10.36,0.1220510625,32.63
2021-06-23 15:24:39.960937500,61.25,-3.0,14.0,125.22,11.07,0.12225121875,32.63
2021-06-23 15:24:39.968750000,61.0,-3.0,14.0,125.22,11.78,0.122451375,32.63
2021-06-23 15:24:39.976562500,61.25,-3.0,14.0,125.22,12.11,0.12265153125,32.63
2021-06-23 15:24:39.984375000,61.5,-3.0,14.0,125.22,12.44,0.1228516875,32.63
2021-06-23 15:24:39.992187500,61.75,-3.0,14.0,125.22,12.55,0.12305184375,32.63
2021-06-23 15:24:40.000000000,62.0,-3.0,14.0,125.22,12.66,0.123252,32.63
2021-06-23 15:24:40.007812500,62.0,-3.25,14.0,125.22,12.629999999999999,0.12305184375,32.630625
2021-06-23 15:24:40.015625000,62.0,-3.5,14.0,125.22,12.6,0.1228516875,32.63125
2021-06-23 15:24:40.023437500,62.0,-3.75,14.0,125.22,12.42,0.12265153125,32.631875
2021-06-23 15:24:40.031250000,62.0,-4.0,14.0,125.22,12.24,0.122451375,32.6325
2021-06-23 15:24:40.039062500,61.75,-4.0,14.0,125.22,11.86,0.12225121875,32.633125
2021-06-23 15:24:40.046875000,61.5,-4.0,14.0,125.22,11.48,0.1220510625,32.63375
2021-06-23 15:24:40.054687500,61.25,-4.0,14.0,125.22,10.879999999999999,0.12185090625,32.634375
2021-06-23 15:24:40.062500000,61.0,-4.0,14.0,125.22,10.28,0.12165075,32.635000000000005
2021-06-23 15:24:40.070312500,61.0,-4.0,14.0,125.22,9.489999999999998,0.12145059375,32.635625000000005
2021-06-23 15:24:40.078125000,61.0,-4.0,14.0,125.22,8.7,0.1212504375,32.636250000000004
2021-06-23 15:24:40.085937500,61.0,-4.0,14.0,125.22,7.834999999999999,0.12105028125,32.636875
2021-06-23 15:24:40.093750000,61.0,-4.0,14.0,125.22,6.97,0.120850125,32.6375
2021-06-23 15:24:40.101562500,61.0,-4.0,14.0,125.22,6.18,0.12064996875,32.638125
2021-06-23 15:24:40.109375000,61.0,-4.0,14.0,125.22,5.39,0.1204498125,32.63875
2021-06-23 15:24:40.117187500,61.0,-4.0,14.0,125.22,4.77,0.12024965625,32.639375
2021-06-23 15:24:40.125000000,61.0,-4.0,14.0,125.22,4.15,0.1200495,32.64
2021-06-23 15:24:40.132812500,61.0,-3.75,14.25,125.22,3.7300000000000004,0.11984934375,32.640625
2021-06-23 15:24:40.140625000,61.0,-3.5,14.5,125.22,3.31,0.1196491875,32.64125
2021-06-23 15:24:40.148437500,61.0,-3.25,14.75,125.22,3.06,0.11944903125,32.641875
2021-06-23 15:24:40.156250000,61.0,-3.0,15.0,125.22,2.81,0.119248875,32.6425
2021-06-23 15:24:40.164062500,61.0,-3.0,15.0,125.22,2.64,0.11904871875,32.643125
2021-06-23 15:24:40.171875000,61.0,-3.0,15.0,125.22,2.47,0.1188485625,32.64375
2021-06-23 15:24:40.179687500,61.0,-3.0,15.0,125.22,2.305,0.11864840625,32.644375
2021-06-23 15:24:40.187500000,61.0,-3.0,15.0,125.22,2.14,0.11844825,32.644999999999996
2021-06-23 15:24:40.195312500,61.25,-3.0,14.75,125.22,1.905,0.11824809375,32.645625
2021-06-23 15:24:40.203125000,61.5,-3.0,14.5,125.22,1.67,0.1180479375,32.64625
2021-06-23 15:24:40.210937500,61.75,-3.0,14.25,125.22,1.33,0.11784778125,32.646875
2021-06-23 15:24:40.218750000,62.0,-3.0,14.0,125.22,0.99,0.117647625,32.6475
2021-06-23 15:24:40.226562500,61.75,-3.25,14.0,125.22,0.515,0.11744746875,32.648125
2021-06-23 15:24:40.234375000,61.5,-3.5,14.0,125.22,0.04,0.1172473125,32.64875
2021-06-23 15:24:40.242187500,61.25,-3.75,14.0,125.22,-0.59,0.11704715625,32.649375
2021-06-23 15:24:40.250000000,61.0,-4.0,14.0,125.22,-1.22,0.116847,32.65
2021-06-23 15:24:40.257812500,61.25,-4.0,14.0,125.22,-2.025,0.11696709375,32.65
2021-06-23 15:24:40.265625000,61.5,-4.0,14.0,125.22,-2.83,0.11708718750000001,32.65
2021-06-23 15:24:40.273437500,61.75,-4.0,14.0,125.22,-3.77,0.11720728125,32.65
2021-06-23 15:24:40.281250000,62.0,-4.0,14.0,125.22,-4.71,0.11732737500000001,32.65
2021-06-23 15:24:40.289062500,61.75,-4.0,14.0,125.22,-5.66,0.11744746875,32.65
2021-06-23 15:24:40.296875000,61.5,-4.0,14.0,125.22,-6.61,0.1175675625,32.65
2021-06-23 15:24:40.304687500,61.25,-4.0,14.0,125.22,-7.345000000000001,0.11768765625000001,32.65
2021-06-23 15:24:40.312500000,61.0,-4.0,14.0,125.22,-8.08,0.11780775,32.65
2021-06-23 15:24:40.320312500,61.0,-3.5,14.0,125.22,-8.34,0.11792784375000001,32.65
2021-06-23 15:24:40.328125000,61.0,-3.0,14.0,125.22,-8.6,0.1180479375,32.65
2021-06-23 15:24:40.335937500,61.0,-2.5,14.0,125.22,-8.17,0.11816803125,32.65
2021-06-23 15:24:40.343750000,61.0,-2.0,14.0,125.22,-7.74,0.11828812500000001,32.65
2021-06-23 15:24:40.351562500,61.25,-2.5,14.0,125.22,-6.550000000000001,0.11840821875,32.65
2021-06-23 15:24:40.359375000,61.5,-3.0,14.0,125.22,-5.36,0.11852831250000001,32.65
2021-06-23 15:24:40.367187500,61.75,-3.5,14.0,125.22,-3.545,0.11864840625,32.65
2021-06-23 15:24:40.375000000,62.0,-4.0,14.0,125.22,-1.73,0.1187685,32.65
2021-06-23 15:24:40.382812500,62.0,-4.0,14.0,125.22,0.3999999999999999,0.11888859375000001,32.65
2021-06-23 15:24:40.390625000,62.0,-4.0,14.0,125.22,2.53,0.1190086875,32.65
2021-06-23 15:24:40.398437500,62.0,-4.0,14.0,125.22,4.615,0.11912878125000001,32.65
2021-06-23 15:24:40.406250000,62.0,-4.0,14.0,125.22,6.7,0.119248875,32.65
2021-06-23 15:24:40.414062500,62.0,-4.0,13.75,125.22,8.395,0.11936896875000001,32.65
2021-06-23 15:24:40.421875000,62.0,-4.0,13.5,125.22,10.09,0.1194890625,32.65
2021-06-23 15:24:40.429687500,62.0,-4.0,13.25,125.22,11.215,0.11960915625,32.65
2021-06-23 15:24:40.437500000,62.0,-4.0,13.0,125.22,12.34,0.11972925000000001,32.65
2021-06-23 15:24:40.445312500,62.0,-3.75,13.0,125.22,12.895,0.11984934375,32.65
2021-06-23 15:24:40.453125000,62.0,-3.5,13.0,125.22,13.45,0.11996943750000001,32.65
2021-06-23 15:24:40.460937500,62.0,-3.25,13.0,125.22,13.555,0.12008953125,32.65
2021-06-23 15:24:40.468750000,62.0,-3.0,13.0,125.22,13.66,0.120209625,32.65
2021-06-23 15:24:40.476562500,62.0,-3.25,13.0,125.22,13.525,0.12032971875000001,32.65
2021-06-23 15:24:40.484375000,62.0,-3.5,13.0,125.22,13.39,0.1204498125,32.65
2021-06-23 15:24:40.492187500,62.0,-3.75,13.0,125.22,13.190000000000001,0.12056990625000001,32.65
2021-06-23 15:24:40.500000000,62.0,-4.0,13.0,125.22,12.99,0.12069,32.65
2021-06-23 15:24:40.507812500,62.0,-3.75,13.0,125.22,12.82,0.1206099375,32.65
2021-06-23 15:24:40.515625000,62.0,-3.5,13.0,125.22,12.65,0.12052987500000001,32.65
2021-06-23 15:24:40.523437500,62.0,-3.25,13.0,125.22,12.52,0.1204498125,32.65
2021-06-23 15:24:40.531250000,62.0,-3.0,13.0,125.22,12.39,0.12036975,32.65
2021-06-23 15:24:40.539062500,62.25,-3.0,12.75,125.22,12.245000000000001,0.1202896875,32.65
2021-06-23 15:24:40.546875000,62.5,-3.0,12.5,125.22,12.1,0.120209625,32.65
2021-06-23 15:24:40.554687500,62.75,-3.0,12.25,125.22,11.86,0.12012956250000001,32.65
2021-06-23 15:24:40.562500000,63.0,-3.0,12.0,125.22,11.62,0.1200495,32.65
2021-06-23 15:24:40.570312500,62.75,-3.25,12.0,125.22,11.23,0.1199694375,32.65
2021-06-23 15:24:40.578125000,62.5,-3.5,12.0,125.22,10.84,0.119889375,32.65
2021-06-23 15:24:40.585937500,62.25,-3.75,12.0,125.22,10.32,0.1198093125,32.65
2021-06-23 15:24:40.593750000,62.0,-4.0,12.0,125.22,9.8,0.11972925000000001,32.65
2021-06-23 15:24:40.601562500,62.0,-4.0,12.0,125.22,9.225000000000001,0.1196491875,32.65
2021-06-23 15:24:40.609375000,62.0,-4.0,12.0,125.22,8.65,0.119569125,32.65
2021-06-23 15:24:40.617187500,62.0,-4.0,12.0,125.22,8.120000000000001,0.1194890625,32.65
2021-06-23 15:24:40.625000000,62.0,-4.0,12.0,125.22,7.59,0.119409,32.65
2021-06-23 15:24:40.632812500,62.0,-4.0,12.0,125.22,7.195,0.1193289375,32.65
2021-06-23 15:24:40.640625000,62.0,-4.0,12.0,125.22,6.8,0.119248875,32.65
2021-06-23 15:24:40.648437500,62.0,-4.0,12.0,125.22,6.58,0.1191688125,32.65
2021-06-23 15:24:40.656250000,62.0,-4.0,12.0,125.22,6.36,0.11908875,32.65
2021-06-23 15:24:40.664062500,62.0,-4.0,12.25,125.22,6.265000000000001,0.1190086875,32.65
2021-06-23 15:24:40.671875000,62.0,-4.0,12.5,125.22,6.17,0.118928625,32.65
2021-06-23 15:24:40.679687500,62.0,-4.0,12.75,125.22,6.095,0.1188485625,32.65
2021-06-23 15:24:40.687500000,62.0,-4.0,13.0,125.22,6.02,0.1187685,32.65
2021-06-23 15:24:40.695312500,62.0,-4.0,13.0,125.22,5.81,0.1186884375,32.65
2021-06-23 15:24:40.703125000,62.0,-4.0,13.0,125.22,5.6,0.118608375,32.65
2021-06-23 15:24:40.710937500,62.0,-4.0,13.0,125.22,5.135,0.1185283125,32.65
2021-06-23 15:24:40.718750000,62.0,-4.0,13.0,125.22,4.67,0.11844825,32.65
2021-06-23 15:24:40.726562500,62.0,-4.0,13.0,125.22,3.855,0.1183681875,32.65
2021-06-23 15:24:40.734375000,62.0,-4.0,13.0,125.22,3.04,0.118288125,32.65
2021-06-23 15:24:40.742187500,62.0,-4.0,13.0,125.22,1.8900000000000001,0.1182080625,32.65
2021-06-23 15:24:40.750000000,62.0,-4.0,13.0,125.22,0.74,0.118128,32.65
2021-06-23 15:24:40.757812500,61.75,-4.0,13.0,125.22,-0.6199999999999999,0.11808796875,32.65
2021-06-23 15:24:40.765625000,61.5,-4.0,13.0,125.22,-1.98,0.11804793749999999,32.65
2021-06-23 15:24:40.773437500,61.25,-4.0,13.0,125.22,-3.325,0.11800790625,32.65
2021-06-23 15:24:40.781250000,61.0,-4.0,13.0,125.22,-4.67,0.117967875,32.65
2021-06-23 15:24:40.789062500,61.0,-4.0,13.25,125.22,-5.68,0.11792784375,32.65
2021-06-23 15:24:40.796875000,61.0,-4.0,13.5,125.22,-6.69,0.1178878125,32.65
2021-06-23 15:24:40.804687500,61.0,-4.0,13.75,125.22,-7.050000000000001,0.11784778125,32.65
2021-06-23 15:24:40.812500000,61.0,-4.0,14.0,125.22,-7.41,0.11780775,32.65
2021-06-23 15:24:40.820312500,61.25,-4.0,14.0,125.22,-6.885,0.11776771875,32.65
2021-06-23 15:24:40.828125000,61.5,-4.0,14.0,125.22,-6.36,0.1177276875,32.65
2021-06-23 15:24:40.835937500,61.75,-4.0,14.0,125.22,-4.925000000000001,0.11768765625,32.65
2021-06-23 15:24:40.843750000,62.0,-4.0,14.0,125.22,-3.49,0.117647625,32.65
2021-06-23 15:24:40.851562500,62.0,-3.75,14.0,125.22,-1.3450000000000002,0.11760759375,32.65
2021-06-23 15:24:40.859375000,62.0,-3.5,14.0,125.22,0.8,0.1175675625,32.65
2021-06-23 15:24:40.867187500,62.0,-3.25,14.0,125.22,3.2800000000000002,0.11752753125,32.65
2021-06-23 15:24:40.875000000,62.0,-3.0,14.0,125.22,5.76,0.1174875,32.65
2021-06-23 15:24:40.882812500,61.75,-3.0,14.0,125.22,8.155000000000001,0.11744746875,32.65
2021-06-23 15:24:40.890625000,61.5,-3.0,14.0,125.22,10.55,0.1174074375,32.65
2021-06-23 15:24:40.898437500,61.25,-3.0,14.0,125.22,12.510000000000002,0.11736740625,32.65
2021-06-23 15:24:40.906250000,61.0,-3.0,14.0,125.22,14.47,0.117327375,32.65
2021-06-23 15:24:40.914062500,61.0,-3.0,14.0,125.22,15.835,0.11728734375000001,32.65
2021-06-23 15:24:40.921875000,61.0,-3.0,14.0,125.22,17.2,0.1172473125,32.65
2021-06-23 15:24:40.929687500,61.0,-3.0,14.0,125.22,17.975,0.11720728125,32.65
2021-06-23 15:24:40.937500000,61.0,-3.0,14.0,125.22,18.75,0.11716725,32.65
2021-06-23 15:24:40.945312500,61.0,-3.25,14.0,125.22,19.02,0.11712721875,32.65
2021-06-23 15:24:40.953125000,61.0,-3.5,14.0,125.22,19.29,0.11708718750000001,32.65
2021-06-23 15:24:40.960937500,61.0,-3.75,14.0,125.22,19.165,0.11704715625,32.65
2021-06-23 15:24:40.968750000,61.0,-4.0,14.0,125.22,19.04,0.117007125,32.65
2021-06-23 15:24:40.976562500,61.0,-4.0,14.0,125.22,18.555,0.11696709375,32.65
2021-06-23 15:24:40.984375000,61.0,-4.0,14.0,125.22,18.07,0.11692706250000001,32.65
2021-06-23 15:24:40.992187500,61.0,-4.0,14.0,125.22,17.22,0.11688703125000001,32.65
2021-06-23 15:24:41.000000000,61.0,-4.0,14.0,125.22,16.37,0.116847,32.65
2021-06-23 15:24:41.007812500,61.0,-4.0,14.25,125.21984375,15.190000000000001,0.117007125,32.65
2021-06-23 15:24:41.015625000,61.0,-4.0,14.5,125.21968749999999,14.01,0.11716725,32.65
2021-06-23 15:24:41.023437500,61.0,-4.0,14.75,125.21953125,12.575,0.11732737500000001,32.65
2021-06-23 15:24:41.031250000,61.0,-4.0,15.0,125.219375,11.14,0.11748750000000001,32.65
2021-06-23 15:24:41.039062500,61.0,-4.0,14.75,125.21921875,9.635000000000002,0.117647625,32.65
2021-06-23 15:24:41.046875000,61.0,-4.0,14.5,125.21906249999999,8.13,0.11780775,32.65
2021-06-23 15:24:41.054687500,61.0,-4.0,14.25,125.21890625,6.775,0.117967875,32.65
2021-06-23 15:24:41.062500000,61.0,-4.0,14.0,125.21875,5.42,0.11812800000000001,32.65
2021-06-23 15:24:41.070312500,61.0,-4.0,14.0,125.21859375,4.39,0.11828812500000001,32.65
2021-06-23 15:24:41.078125000,61.0,-4.0,14.0,125.2184375,3.36,0.11844825,32.65
2021-06-23 15:24:41.085937500,61.0,-4.0,14.0,125.21828125,2.7249999999999996,0.118608375,32.65
2021-06-23 15:24:41.093750000,61.0,-4.0,14.0,125.218125,2.09,0.1187685,32.65
2021-06-23 15:24:41.101562500,61.25,-4.0,14.0,125.21796875,1.835,0.118928625,32.65
2021-06-23 15:24:41.109375000,61.5,-4.0,14.0,125.2178125,1.58,0.11908875000000001,32.65
2021-06-23 15:24:41.117187500,61.75,-4.0,14.0,125.21765625,1.585,0.119248875,32.65
2021-06-23 15:24:41.125000000,62.0,-4.0,14.0,125.2175,1.59,0.119409,32.65
2021-06-23 15:24:41.132812500,61.75,-4.0,14.25,125.21734375,1.73,0.119569125,32.65
2021-06-23 15:24:41.140625000,61.5,-4.0,14.5,125.2171875,1.87,0.11972925,32.65
2021-06-23 15:24:41.148437500,61.25,-4.0,14.75,125.21703125,2.02,0.119889375,32.65
2021-06-23 15:24:41.156250000,61.0,-4.0,15.0,125.216875,2.17,0.1200495,32.65
2021-06-23 15:24:41.164062500,61.0,-4.0,15.0,125.21671875,2.24,0.120209625,32.65
2021-06-23 15:24:41.171875000,61.0,-4.0,15.0,125.2165625,2.31,0.12036975,32.65
2021-06-23 15:24:41.179687500,61.0,-4.0,15.0,125.21640625,2.225,0.120529875,32.65
2021-06-23 15:24:41.187500000,61.0,-4.0,15.0,125.21625,2.14,0.12068999999999999,32.65
2021-06-23 15:24:41.195312500,61.0,-3.75,14.75,125.21609375,1.895,0.120850125,32.65
2021-06-23 15:24:41.203125000,61.0,-3.5,14.5,125.2159375,1.65,0.12101025,32.65
2021-06-23 15:24:41.210937500,61.0,-3.25,14.25,125.21578125,1.2999999999999998,0.121170375,32.65
2021-06-23 15:24:41.218750000,61.0,-3.0,14.0,125.215625,0.95,0.1213305,32.65
2021-06-23 15:24:41.226562500,61.25,-3.0,14.0,125.21546875,0.61,0.12149062499999999,32.65
2021-06-23 15:24:41.234375000,61.5,-3.0,14.0,125.2153125,0.27,0.12165075,32.65
2021-06-23 15:24:41.242187500,61.75,-3.0,14.0,125.21515625,0.1,0.121810875,32.65
2021-06-23 15:24:41.250000000,62.0,-3.0,14.0,125.215,-0.07,0.121971,32.65
2021-06-23 15:24:41.257812500,61.75,-3.25,14.0,125.21484375,0.08000000000000002,0.12177084375,32.65
2021-06-23 15:24:41.265625000,61.5,-3.5,14.0,125.2146875,0.23,0.1215706875,32.65
2021-06-23 15:24:41.273437500,61.25,-3.75,14.0,125.21453125,0.77,0.12137053125,32.65
2021-06-23 15:24:41.281250000,61.0,-4.0,14.0,125.214375,1.31,0.121170375,32.65
2021-06-23 15:24:41.289062500,61.0,-4.0,14.0,125.21421875,2.2199999999999998,0.12097021875,32.65
2021-06-23 15:24:41.296875000,61.0,-4.0,14.0,125.2140625,3.13,0.1207700625,32.65
2021-06-23 15:24:41.304687500,61.0,-4.0,14.0,125.21390625,4.3149999999999995,0.12056990625,32.65
2021-06-23 15:24:41.312500000,61.0,-4.0,14.0,125.21375,5.5,0.12036975,32.65
2021-06-23 15:24:41.320312500,61.25,-4.0,14.0,125.21359375,6.8,0.12016959375,32.65
2021-06-23 15:24:41.328125000,61.5,-4.0,14.0,125.2134375,8.1,0.1199694375,32.65
2021-06-23 15:24:41.335937500,61.75,-4.0,14.0,125.21328125,9.34,0.11976928125,32.65
2021-06-23 15:24:41.343750000,62.0,-4.0,14.0,125.213125,10.58,0.119569125,32.65
2021-06-23 15:24:41.351562500,61.75,-4.0,14.0,125.21296875,11.629999999999999,0.11936896875,32.65
2021-06-23 15:24:41.359375000,61.5,-4.0,14.0,125.2128125,12.68,0.1191688125,32.65
2021-06-23 15:24:41.367187500,61.25,-4.0,14.0,125.21265625,13.45,0.11896865625,32.65
2021-06-23 15:24:41.375000000,61.0,-4.0,14.0,125.2125,14.22,0.1187685,32.65
2021-06-23 15:24:41.382812500,61.25,-4.0,14.0,125.21234375,14.685,0.11856834375,32.65
2021-06-23 15:24:41.390625000,61.5,-4.0,14.0,125.2121875,15.15,0.1183681875,32.65
2021-06-23 15:24:41.398437500,61.75,-4.0,14.0,125.21203125,15.335,0.11816803125,32.65
2021-06-23 15:24:41.406250000,62.0,-4.0,14.0,125.211875,15.52,0.117967875,32.65
2021-06-23 15:24:41.414062500,61.75,-4.0,14.25,125.21171875,15.5,0.11776771875,32.65
2021-06-23 15:24:41.421875000,61.5,-4.0,14.5,125.2115625,15.48,0.1175675625,32.65
2021-06-23 15:24:41.429687500,61.25,-4.0,14.75,125.21140625,15.325,0.11736740625,32.65
2021-06-23 15:24:41.437500000,61.0,-4.0,15.0,125.21125,15.17,0.11716725,32.65
2021-06-23 15:24:41.445312500,61.0,-4.0,15.0,125.21109375,14.885,0.11696709375,32.65
2021-06-23 15:24:41.453125000,61.0,-4.0,15.0,125.2109375,14.6,0.1167669375,32.65
2021-06-23 15:24:41.460937500,61.0,-4.0,15.0,125.21078125,14.18,0.11656678125,32.65
2021-06-23 15:24:41.468750000,61.0,-4.0,15.0,125.21062500000001,13.76,0.116366625,32.65
2021-06-23 15:24:41.476562500,61.0,-4.0,14.75,125.21046875,13.205,0.11616646875,32.65
2021-06-23 15:24:41.484375000,61.0,-4.0,14.5,125.2103125,12.65,0.1159663125,32.65
2021-06-23 15:24:41.492187500,61.0,-4.0,14.25,125.21015625,12.055,0.11576615625,32.65
2021-06-23 15:24:41.500000000,61.0,-4.0,14.0,125.21000000000001,11.46,0.115566,32.65
2021-06-23 15:24:41.507812500,61.0,-4.0,14.0,125.20984375,11.09,0.115726125,32.65
2021-06-23 15:24:41.515625000,61.0,-4.0,14.0,125.2096875,10.72,0.11588625,32.65
2021-06-23 15:24:41.523437500,61.0,-4.0,14.0,125.20953125,10.92,0.11604637500000001,32.65
2021-06-23 15:24:41.531250000,61.0,-4.0,14.0,125.209375,11.12,0.1162065,32.65
2021-06-23 15:24:41.539062500,61.25,-4.0,14.0,125.20921875,12.225,0.116366625,32.65
2021-06-23 15:24:41.546875000,61.5,-4.0,14.0,125.2090625,13.33,0.11652675,32.65
2021-06-23 15:24:41.554687500,61.75,-4.0,14.0,125.20890625,15.485,0.11668687500000001,32.65
2021-06-23 15:24:41.562500000,62.0,-4.0,14.0,125.20875,17.64,0.116847,32.65
2021-06-23 15:24:41.570312500,61.75,-4.0,14.0,125.20859375,20.740000000000002,0.117007125,32.65
2021-06-23 15:24:41.578125000,61.5,-4.0,14.0,125.2084375,23.84,0.11716725,32.65
2021-06-23 15:24:41.585937500,61.25,-4.0,14.0,125.20828125,27.48,0.117327375,32.65
2021-06-23 15:24:41.593750000,61.0,-4.0,14.0,125.208125,31.12,0.11748750000000001,32.65
2021-06-23 15:24:41.601562500,61.25,-4.0,14.0,125.20796875,34.765,0.117647625,32.65
2021-06-23 15:24:41.609375000,61.5,-4.0,14.0,125.2078125,38.41,0.11780775,32.65
2021-06-23 15:24:41.617187500,61.75,-4.0,14.0,125.20765625,41.5,0.117967875,32.65
2021-06-23 15:24:41.625000000,62.0,-4.0,14.0,125.2075,44.59,0.11812800000000001,32.65
2021-06-23 15:24:41.632812500,62.0,-4.0,14.0,125.20734375,46.66,0.11828812500000001,32.65
2021-06-23 15:24:41.640625000,62.0,-4.0,14.0,125.2071875,48.73,0.11844825,32.65
2021-06-23 15:24:41.648437500,62.0,-4.0,14.0,125.20703125,49.465,0.118608375,32.65
2021-06-23 15:24:41.656250000,62.0,-4.0,14.0,125.206875,50.2,0.1187685,32.65
2021-06-23 15:24:41.664062500,62.0,-4.0,14.0,125.20671875000001,49.45,0.11892862500000001,32.65
2021-06-23 15:24:41.671875000,62.0,-4.0,14.0,125.2065625,48.7,0.11908875000000001,32.65
2021-06-23 15:24:41.679687500,62.0,-4.0,14.0,125.20640625,46.425,0.119248875,32.65
2021-06-23 15:24:41.687500000,62.0,-4.0,14.0,125.20625,44.15,0.119409,32.65
2021-06-23 15:24:41.695312500,62.0,-4.0,14.0,125.20609375000001,40.465,0.119569125,32.65
2021-06-23 15:24:41.703125000,62.0,-4.0,14.0,125.2059375,36.78,0.11972925000000001,32.65
2021-06-23 15:24:41.710937500,62.0,-4.0,14.0,125.20578125,31.94,0.119889375,32.65
2021-06-23 15:24:41.718750000,62.0,-4.0,14.0,125.205625,27.1,0.1200495,32.65
2021-06-23 15:24:41.726562500,62.0,-4.0,14.0,125.20546875000001,21.565,0.120209625,32.65
2021-06-23 15:24:41.734375000,62.0,-4.0,14.0,125.2053125,16.03,0.12036975000000001,32.65
2021-06-23 15:24:41.742187500,62.0,-4.0,14.0,125.20515625,10.435,0.12052987500000001,32.65
2021-06-23 15:24:41.750000000,62.0,-4.0,14.0,125.205,4.84,0.12069,32.65
2021-06-23 15:24:41.757812500,61.75,-4.0,14.0,125.20484375,-0.05000000000000071,0.12048984375,32.65
2021-06-23 15:24:41.765625000,61.5,-4.0,14.0,125.2046875,-4.94,0.1202896875,32.65
2021-06-23 15:24:41.773437500,61.25,-4.0,14.0,125.20453125,-8.39,0.12008953125,32.65
2021-06-23 15:24:41.781250000,61.0,-4.0,14.0,125.204375,-11.84,0.119889375,32.65
2021-06-23 15:24:41.789062500,61.0,-4.0,14.0,125.20421875,-13.309999999999999,0.11968921875,32.65
2021-06-23 15:24:41.796875000,61.0,-4.0,14.0,125.2040625,-14.78,0.1194890625,32.65
2021-06-23 15:24:41.804687500,61.0,-4.0,14.0,125.20390625,-14.1,0.11928890625,32.65
2021-06-23 15:24:41.812500000,61.0,-4.0,14.0,125.20375,-13.42,0.11908875000000001,32.65
2021-06-23 15:24:41.820312500,61.0,-4.0,14.0,125.20359375,-10.855,0.11888859375000001,32.65
2021-06-23 15:24:41.828125000,61.0,-4.0,14.0,125.2034375,-8.29,0.11868843750000001,32.65
2021-06-23 15:24:41.835937500,61.0,-4.0,14.0,125.20328125,-4.489999999999999,0.11848828125000001,32.65
2021-06-23 15:24:41.843750000,61.0,-4.0,14.0,125.203125,-0.69,0.11828812500000001,32.65
2021-06-23 15:24:41.851562500,61.25,-4.0,14.0,125.20296875,3.4949999999999997,0.11808796875000001,32.65
2021-06-23 15:24:41.859375000,61.5,-4.0,14.0,125.20281250000001,7.68,0.11788781250000001,32.65
2021-06-23 15:24:41.867187500,61.75,-4.0,14.0,125.20265625,11.44,0.11768765625000001,32.65
2021-06-23 15:24:41.875000000,62.0,-4.0,14.0,125.2025,15.2,0.1174875,32.65
2021-06-23 15:24:41.882812500,61.75,-4.0,14.0,125.20234375,17.97,0.11728734375,32.65
2021-06-23 15:24:41.890625000,61.5,-4.0,14.0,125.20218750000001,20.74,0.1170871875,32.65
2021-06-23 15:24:41.898437500,61.25,-4.0,14.0,125.20203125,22.29,0.11688703125,32.65
2021-06-23 15:24:41.906250000,61.0,-4.0,14.0,125.201875,23.84,0.116686875,32.65
2021-06-23 15:24:41.914062500,61.0,-4.0,14.0,125.20171875,24.23,0.11648671875,32.65
2021-06-23 15:24:41.921875000,61.0,-4.0,14.0,125.20156250000001,24.62,0.1162865625,32.65
2021-06-23 15:24:41.929687500,61.0,-4.0,14.0,125.20140625,24.12,0.11608640625,32.65
2021-06-23 15:24:41.937500000,61.0,-4.0,14.0,125.20125,23.62,0.11588625,32.65
2021-06-23 15:24:41.945312500,61.0,-4.0,14.0,125.20109375,22.560000000000002,0.11568609375,32.65
2021-06-23 15:24:41.953125000,61.0,-4.0,14.0,125.20093750000001,21.5,0.1154859375,32.65
2021-06-23 15:24:41.960937500,61.0,-4.0,14.0,125.20078125,20.185000000000002,0.11528578125,32.65
2021-06-23 15:24:41.968750000,61.0,-4.0,14.0,125.200625,18.87,0.115085625,32.65
2021-06-23 15:24:41.976562500,61.0,-4.0,14.0,125.20046875,17.495,0.11488546875,32.65
2021-06-23 15:24:41.984375000,61.0,-4.0,14.0,125.20031250000001,16.12,0.1146853125,32.65
2021-06-23 15:24:41.992187500,61.0,-4.0,14.0,125.20015625,14.77,0.11448515625,32.65
2021-06-23 15:24:42.000000000,61.0,-4.0,14.0,125.2,13.42,0.114285,32.65
2021-06-23 15:24:42.007812500,61.25,-4.0,14.0,125.199765625,12.025,0.11432503125,32.65
2021-06-23 15:24:42.015625000,61.5,-4.0,14.0,125.19953125,10.63,0.1143650625,32.65
2021-06-23 15:24:42.023437500,61.75,-4.0,14.0,125.199296875,9.035,0.11440509374999999,32.65
2021-06-23 15:24:42.031250000,62.0,-4.0,14.0,125.1990625,7.44,0.114445125,32.65
2021-06-23 15:24:42.039062500,61.75,-4.0,14.0,125.198828125,5.445,0.11448515625,32.65
2021-06-23 15:24:42.046875000,61.5,-4.0,14.0,125.19859375,3.45,0.1145251875,32.65
2021-06-23 15:24:42.054687500,61.25,-4.0,14.0,125.19835937500001,0.9050000000000002,0.11456521875,32.65
2021-06-23 15:24:42.062500000,61.0,-4.0,14.0,125.198125,-1.64,0.11460524999999999,32.65
2021-06-23 15:24:42.070312500,61.25,-4.0,14.25,125.197890625,-4.74,0.11464528125,32.65
2021-06-23 15:24:42.078125000,61.5,-4.0,14.5,125.19765625000001,-7.84,0.1146853125,32.65
2021-06-23 15:24:42.085937500,61.75,-4.0,14.75,125.197421875,-11.325,0.11472534375,32.65
2021-06-23 15:24:42.093750000,62.0,-4.0,15.0,125.1971875,-14.81,0.114765375,32.65
2021-06-23 15:24:42.101562500,61.75,-4.0,14.75,125.19695312500001,-18.35,0.11480540625,32.65
2021-06-23 15:24:42.109375000,61.5,-4.0,14.5,125.19671875,-21.89,0.1148454375,32.65
2021-06-23 15:24:42.117187500,61.25,-4.0,14.25,125.196484375,-25.105,0.11488546875,32.65
2021-06-23 15:24:42.125000000,61.0,-4.0,14.0,125.19625,-28.32,0.1149255,32.65
2021-06-23 15:24:42.132812500,61.0,-4.0,14.25,125.196015625,-30.905,0.11496553125,32.65
2021-06-23 15:24:42.140625000,61.0,-4.0,14.5,125.19578125,-33.49,0.1150055625,32.65
2021-06-23 15:24:42.148437500,61.0,-4.0,14.75,125.195546875,-35.295,0.11504559375,32.65
2021-06-23 15:24:42.156250000,61.0,-4.0,15.0,125.1953125,-37.1,0.115085625,32.65
2021-06-23 15:24:42.164062500,61.0,-4.0,14.75,125.19507812500001,-38.175,0.11512565625,32.65
2021-06-23 15:24:42.171875000,61.0,-4.0,14.5,125.19484375,-39.25,0.1151656875,32.65
2021-06-23 15:24:42.179687500,61.0,-4.0,14.25,125.194609375,-39.8,0.11520571875,32.65
2021-06-23 15:24:42.187500000,61.0,-4.0,14.0,125.19437500000001,-40.35,0.11524575000000001,32.65
2021-06-23 15:24:42.195312500,61.25,-4.0,14.0,125.194140625,-40.629999999999995,0.11528578125,32.65
2021-06-23 15:24:42.203125000,61.5,-4.0,14.0,125.19390625,-40.91,0.1153258125,32.65
2021-06-23 15:24:42.210937500,61.75,-4.0,14.0,125.193671875,-41.099999999999994,0.11536584375,32.65
2021-06-23 15:24:42.218750000,62.0,-4.0,14.0,125.1934375,-41.29,0.115405875,32.65
2021-06-23 15:24:42.226562500,61.75,-4.0,14.25,125.193203125,-41.425,0.11544590625000001,32.65
2021-06-23 15:24:42.234375000,61.5,-4.0,14.5,125.19296875,-41.56,0.1154859375,32.65
2021-06-23 15:24:42.242187500,61.25,-4.0,14.75,125.192734375,-41.525000000000006,0.11552596875,32.65
2021-06-23 15:24:42.250000000,61.0,-4.0,15.0,125.1925,-41.49,0.115566,32.65
2021-06-23 15:24:42.257812500,61.0,-3.25,14.75,125.192265625,-41.105000000000004,0.11568609375,32.65
2021-06-23 15:24:42.265625000,61.0,-2.5,14.5,125.19203125,-40.72,0.1158061875,32.65
2021-06-23 15:24:42.273437500,61.0,-1.75,14.25,125.19179687500001,-39.83,0.11592628125,32.65
2021-06-23 15:24:42.281250000,61.0,-1.0,14.0,125.1915625,-38.94,0.11604637500000001,32.65
2021-06-23 15:24:42.289062500,61.0,-1.75,14.0,125.191328125,-37.480000000000004,0.11616646875,32.65
2021-06-23 15:24:42.296875000,61.0,-2.5,14.0,125.19109375000001,-36.02,0.1162865625,32.65
2021-06-23 15:24:42.304687500,61.0,-3.25,14.0,125.190859375,-34.07,0.11640665625,32.65
2021-06-23 15:24:42.312500000,61.0,-4.0,14.0,125.190625,-32.12,0.11652675,32.65
2021-06-23 15:24:42.320312500,61.0,-4.0,14.25,125.190390625,-29.835,0.11664684375,32.65
2021-06-23 15:24:42.328125000,61.0,-4.0,14.5,125.19015625,-27.55,0.1167669375,32.65
2021-06-23 15:24:42.335937500,61.0,-4.0,14.75,125.189921875,-25.16,0.11688703125,32.65
2021-06-23 15:24:42.343750000,61.0,-4.0,15.0,125.1896875,-22.77,0.117007125,32.65
2021-06-23 15:24:42.351562500,61.25,-4.0,14.75,125.189453125,-20.515,0.11712721875,32.65
2021-06-23 15:24:42.359375000,61.5,-4.0,14.5,125.18921875000001,-18.26,0.1172473125,32.65
2021-06-23 15:24:42.367187500,61.75,-4.0,14.25,125.188984375,-16.36,0.11736740625,32.65
2021-06-23 15:24:42.375000000,62.0,-4.0,14.0,125.18875,-14.46,0.1174875,32.65
2021-06-23 15:24:42.382812500,61.75,-4.0,14.0,125.18851562500001,-13.115,0.11760759375,32.65
2021-06-23 15:24:42.390625000,61.5,-4.0,14.0,125.18828125,-11.77,0.1177276875,32.65
2021-06-23 15:24:42.398437500,61.25,-4.0,14.0,125.188046875,-11.105,0.11784778125,32.65
2021-06-23 15:24:42.406250000,61.0,-4.0,14.0,125.1878125,-10.44,0.117967875,32.65
2021-06-23 15:24:42.414062500,61.25,-3.75,14.0,125.187578125,-10.489999999999998,0.11808796875000001,32.65
2021-06-23 15:24:42.421875000,61.5,-3.5,14.0,125.18734375,-10.54,0.1182080625,32.65
2021-06-23 15:24:42.429687500,61.75,-3.25,14.0,125.187109375,-11.219999999999999,0.11832815625,32.65
2021-06-23 15:24:42.437500000,62.0,-3.0,14.0,125.186875,-11.9,0.11844825,32.65
2021-06-23 15:24:42.445312500,62.0,-3.25,14.0,125.186640625,-13.025,0.11856834375,32.65
2021-06-23 15:24:42.453125000,62.0,-3.5,14.0,125.18640625,-14.15,0.11868843750000001,32.65
2021-06-23 15:24:42.460937500,62.0,-3.75,14.0,125.186171875,-15.445,0.11880853125,32.65
2021-06-23 15:24:42.468750000,62.0,-4.0,14.0,125.18593750000001,-16.74,0.118928625,32.65
2021-06-23 15:24:42.476562500,62.0,-4.0,14.0,125.185703125,-17.895,0.11904871875,32.65
2021-06-23 15:24:42.484375000,62.0,-4.0,14.0,125.18546875,-19.05,0.1191688125,32.65
2021-06-23 15:24:42.492187500,62.0,-4.0,14.0,125.18523437500001,-19.8,0.11928890625,32.65
2021-06-23 15:24:42.500000000,62.0,-4.0,14.0,125.185,-20.55,0.119409,32.65
2021-06-23 15:24:42.507812500,61.75,-4.0,14.0,125.184765625,-20.689999999999998,0.119248875,32.65
2021-06-23 15:24:42.515625000,61.5,-4.0,14.0,125.18453125,-20.83,0.11908875000000001,32.65
2021-06-23 15:24:42.523437500,61.25,-4.0,14.0,125.184296875,-20.28,0.118928625,32.65
2021-06-23 15:24:42.531250000,61.0,-4.0,14.0,125.1840625,-19.73,0.1187685,32.65
2021-06-23 15:24:42.539062500,61.0,-4.0,14.25,125.183828125,-18.495,0.118608375,32.65
2021-06-23 15:24:42.546875000,61.0,-4.0,14.5,125.18359375,-17.26,0.11844825,32.65
2021-06-23 15:24:42.554687500,61.0,-4.0,14.75,125.18335937500001,-15.475000000000001,0.118288125,32.65
2021-06-23 15:24:42.562500000,61.0,-4.0,15.0,125.183125,-13.69,0.118128,32.65
2021-06-23 15:24:42.570312500,61.0,-4.0,14.75,125.182890625,-11.55,0.117967875,32.65
2021-06-23 15:24:42.578125000,61.0,-4.0,14.5,125.18265625000001,-9.41,0.11780775,32.65
2021-06-23 15:24:42.585937500,61.0,-4.0,14.25,125.182421875,-7.1850000000000005,0.117647625,32.65
2021-06-23 15:24:42.593750000,61.0,-4.0,14.0,125.1821875,-4.96,0.1174875,32.65
2021-06-23 15:24:42.601562500,61.0,-4.0,14.0,125.181953125,-2.94,0.117327375,32.65
2021-06-23 15:24:42.609375000,61.0,-4.0,14.0,125.18171875,-0.92,0.11716725,32.65
2021-06-23 15:24:42.617187500,61.0,-4.0,14.0,125.181484375,0.6249999999999999,0.117007125,32.65
2021-06-23 15:24:42.625000000,61.0,-4.0,14.0,125.18125,2.17,0.116847,32.65
2021-06-23 15:24:42.632812500,61.0,-4.0,14.25,125.181015625,3.0300000000000002,0.116686875,32.65
2021-06-23 15:24:42.640625000,61.0,-4.0,14.5,125.18078125,3.89,0.11652675,32.65
2021-06-23 15:24:42.648437500,61.0,-4.0,14.75,125.180546875,3.9699999999999998,0.116366625,32.65
2021-06-23 15:24:42.656250000,61.0,-4.0,15.0,125.1803125,4.05,0.1162065,32.65
2021-06-23 15:24:42.664062500,61.25,-3.75,14.75,125.18007812500001,3.395,0.116046375,32.65
2021-06-23 15:24:42.671875000,61.5,-3.5,14.5,125.17984375,2.74,0.11588625,32.65
2021-06-23 15:24:42.679687500,61.75,-3.25,14.25,125.179609375,1.5650000000000002,0.115726125,32.65
2021-06-23 15:24:42.687500000,62.0,-3.0,14.0,125.17937500000001,0.39,0.115566,32.65
2021-06-23 15:24:42.695312500,62.0,-3.25,14.0,125.179140625,-0.945,0.11540587499999999,32.65
2021-06-23 15:24:42.703125000,62.0,-3.5,14.0,125.17890625,-2.28,0.11524575,32.65
2021-06-23 15:24:42.710937500,62.0,-3.75,14.0,125.178671875,-3.365,0.115085625,32.65
2021-06-23 15:24:42.718750000,62.0,-4.0,14.0,125.1784375,-4.45,0.1149255,32.65
2021-06-23 15:24:42.726562500,62.0,-4.0,14.0,125.178203125,-4.91,0.114765375,32.65
2021-06-23 15:24:42.734375000,62.0,-4.0,14.0,125.17796875,-5.37,0.11460524999999999,32.65
2021-06-23 15:24:42.742187500,62.0,-4.0,14.0,125.177734375,-4.970000000000001,0.114445125,32.65
2021-06-23 15:24:42.750000000,62.0,-4.0,14.0,125.17750000000001,-4.57,0.114285,32.65
2021-06-23 15:24:42.757812500,62.25,-3.75,14.5,125.177265625,-3.3,0.114445125,32.65
2021-06-23 15:24:42.765625000,62.5,-3.5,15.0,125.17703125,-2.03,0.11460524999999999,32.65
2021-06-23 15:24:42.773437500,62.75,-3.25,15.5,125.17679687500001,-0.07999999999999985,0.114765375,32.65
2021-06-23 15:24:42.781250000,63.0,-3.0,16.0,125.1765625,1.87,0.1149255,32.65
2021-06-23 15:24:42.789062500,62.75,-3.25,15.75,125.176328125,4.140000000000001,0.115085625,32.65
2021-06-23 15:24:42.796875000,62.5,-3.5,15.5,125.17609375,6.41,0.11524575,32.65
2021-06-23 15:24:42.804687500,62.25,-3.75,15.25,125.175859375,8.58,0.115405875,32.65
2021-06-23 15:24:42.812500000,62.0,-4.0,15.0,125.175625,10.75,0.115566,32.65
2021-06-23 15:24:42.820312500,61.75,-4.0,15.0,125.175390625,12.45,0.115726125,32.65
2021-06-23 15:24:42.828125000,61.5,-4.0,15.0,125.17515625,14.15,0.11588625,32.65
2021-06-23 15:24:42.835937500,61.25,-4.0,15.0,125.174921875,15.114999999999998,0.116046375,32.65
2021-06-23 15:24:42.843750000,61.0,-4.0,15.0,125.1746875,16.08,0.1162065,32.65
2021-06-23 15:24:42.851562500,61.0,-4.0,15.0,125.174453125,16.21,0.116366625,32.65
2021-06-23 15:24:42.859375000,61.0,-4.0,15.0,125.17421875000001,16.34,0.11652675,32.65
2021-06-23 15:24:42.867187500,61.0,-4.0,15.0,125.173984375,15.684999999999999,0.116686875,32.65
2021-06-23 15:24:42.875000000,61.0,-4.0,15.0,125.17375,15.03,0.116847,32.65
2021-06-23 15:24:42.882812500,61.0,-3.5,15.0,125.17351562500001,13.745000000000001,0.117007125,32.65
2021-06-23 15:24:42.890625000,61.0,-3.0,15.0,125.17328125,12.46,0.11716725,32.65
2021-06-23 15:24:42.898437500,61.0,-2.5,15.0,125.173046875,10.74,0.117327375,32.65
2021-06-23 15:24:42.906250000,61.0,-2.0,15.0,125.1728125,9.02,0.1174875,32.65
2021-06-23 15:24:42.914062500,61.0,-2.75,14.75,125.172578125,7.0649999999999995,0.117647625,32.65
2021-06-23 15:24:42.921875000,61.0,-3.5,14.5,125.17234375,5.11,0.11780775,32.65
2021-06-23 15:24:42.929687500,61.0,-4.25,14.25,125.172109375,3.06,0.117967875,32.65
2021-06-23 15:24:42.937500000,61.0,-5.0,14.0,125.171875,1.01,0.118128,32.65
2021-06-23 15:24:42.945312500,61.0,-4.5,14.25,125.171640625,-1.0399999999999998,0.118288125,32.65
2021-06-23 15:24:42.953125000,61.0,-4.0,14.5,125.17140625,-3.09,0.11844825,32.65
2021-06-23 15:24:42.960937500,61.0,-3.5,14.75,125.171171875,-5.07,0.118608375,32.65
2021-06-23 15:24:42.968750000,61.0,-3.0,15.0,125.17093750000001,-7.05,0.1187685,32.65
2021-06-23 15:24:42.976562500,61.0,-3.25,15.0,125.170703125,-8.88,0.118928625,32.65
2021-06-23 15:24:42.984375000,61.0,-3.5,15.0,125.17046875,-10.71,0.11908875000000001,32.65
2021-06-23 15:24:42.992187500,61.0,-3.75,15.0,125.170234375,-12.29,0.119248875,32.65
2021-06-23 15:24:43.000000000,61.0,-4.0,15.0,125.17,-13.87,0.119409,32.65
2021-06-23 15:24:43.007812500,61.0,-3.75,15.25,125.1696875,-15.07,0.119248875,32.649375
2021-06-23 15:24:43.015625000,61.0,-3.5,15.5,125.169375,-16.27,0.11908875000000001,32.64875
2021-06-23 15:24:43.023437500,61.0,-3.25,15.75,125.1690625,-16.994999999999997,0.118928625,32.648125
2021-06-23 15:24:43.031250000,61.0,-3.0,16.0,125.16875,-17.72,0.1187685,32.6475
2021-06-23 15:24:43.039062500,61.0,-3.0,15.75,125.1684375,-17.915,0.118608375,32.646875
2021-06-23 15:24:43.046875000,61.0,-3.0,15.5,125.168125,-18.11,0.11844825,32.64625
2021-06-23 15:24:43.054687500,61.0,-3.0,15.25,125.1678125,-17.810000000000002,0.118288125,32.645625
2021-06-23 15:24:43.062500000,61.0,-3.0,15.0,125.1675,-17.51,0.118128,32.644999999999996
2021-06-23 15:24:43.070312500,61.25,-3.25,15.0,125.1671875,-16.78,0.117967875,32.644375
2021-06-23 15:24:43.078125000,61.5,-3.5,15.0,125.166875,-16.05,0.11780775,32.64375
2021-06-23 15:24:43.085937500,61.75,-3.75,15.0,125.1665625,-15.015,0.117647625,32.643125
2021-06-23 15:24:43.093750000,62.0,-4.0,15.0,125.16625,-13.98,0.1174875,32.6425
2021-06-23 15:24:43.101562500,62.0,-4.0,14.75,125.1659375,-12.79,0.117327375,32.641875
2021-06-23 15:24:43.109375000,62.0,-4.0,14.5,125.165625,-11.6,0.11716725,32.64125
2021-06-23 15:24:43.117187500,62.0,-4.0,14.25,125.1653125,-10.475,0.117007125,32.640625
2021-06-23 15:24:43.125000000,62.0,-4.0,14.0,125.165,-9.35,0.116847,32.64
2021-06-23 15:24:43.132812500,62.0,-4.0,14.0,125.1646875,-8.51,0.116686875,32.639375
2021-06-23 15:24:43.140625000,62.0,-4.0,14.0,125.164375,-7.67,0.11652675,32.63875
2021-06-23 15:24:43.148437500,62.0,-4.0,14.0,125.1640625,-7.3,0.116366625,32.638125
2021-06-23 15:24:43.156250000,62.0,-4.0,14.0,125.16375000000001,-6.93,0.1162065,32.6375
2021-06-23 15:24:43.164062500,61.75,-4.0,14.0,125.1634375,-7.0600000000000005,0.116046375,32.636875
2021-06-23 15:24:43.171875000,61.5,-4.0,14.0,125.163125,-7.19,0.11588625,32.636250000000004
2021-06-23 15:24:43.179687500,61.25,-4.0,14.0,125.1628125,-7.609999999999999,0.115726125,32.635625000000005
2021-06-23 15:24:43.187500000,61.0,-4.0,14.0,125.1625,-8.03,0.115566,32.635000000000005
2021-06-23 15:24:43.195312500,61.0,-4.0,14.0,125.1621875,-8.335,0.11540587499999999,32.634375
2021-06-23 15:24:43.203125000,61.0,-4.0,14.0,125.161875,-8.64,0.11524575,32.63375
2021-06-23 15:24:43.210937500,61.0,-4.0,14.0,125.1615625,-8.325,0.115085625,32.633125
2021-06-23 15:24:43.218750000,61.0,-4.0,14.0,125.16125,-8.01,0.1149255,32.6325
2021-06-23 15:24:43.226562500,61.0,-4.0,14.25,125.1609375,-6.74,0.114765375,32.631875
2021-06-23 15:24:43.234375000,61.0,-4.0,14.5,125.160625,-5.47,0.11460524999999999,32.63125
2021-06-23 15:24:43.242187500,61.0,-4.0,14.75,125.1603125,-3.175,0.114445125,32.630625
2021-06-23 15:24:43.250000000,61.0,-4.0,15.0,125.16,-0.88,0.114285,32.63
2021-06-23 15:24:43.257812500,61.0,-4.0,14.75,125.1596875,2.13,0.114445125,32.63
2021-06-23 15:24:43.265625000,61.0,-4.0,14.5,125.159375,5.14,0.11460524999999999,32.63
2021-06-23 15:24:43.273437500,61.0,-4.0,14.25,125.1590625,8.355,0.114765375,32.63
2021-06-23 15:24:43.281250000,61.0,-4.0,14.0,125.15875,11.57,0.1149255,32.63
2021-06-23 15:24:43.289062500,61.0,-4.0,14.25,125.1584375,14.435,0.115085625,32.63
2021-06-23 15:24:43.296875000,61.0,-4.0,14.5,125.158125,17.3,0.11524575,32.63
2021-06-23 15:24:43.304687500,61.0,-4.0,14.75,125.1578125,19.405,0.115405875,32.63
2021-06-23 15:24:43.312500000,61.0,-4.0,15.0,125.1575,21.51,0.115566,32.63
2021-06-23 15:24:43.320312500,61.25,-4.0,15.0,125.1571875,22.705,0.115726125,32.63
2021-06-23 15:24:43.328125000,61.5,-4.0,15.0,125.156875,23.9,0.11588625,32.63
2021-06-23 15:24:43.335937500,61.75,-4.0,15.0,125.15656249999999,24.265,0.116046375,32.63
2021-06-23 15:24:43.343750000,62.0,-4.0,15.0,125.15625,24.63,0.1162065,32.63
2021-06-23 15:24:43.351562500,61.75,-3.75,15.0,125.1559375,24.375,0.116366625,32.63
2021-06-23 15:24:43.359375000,61.5,-3.5,15.0,125.155625,24.12,0.11652675,32.63
2021-06-23 15:24:43.367187500,61.25,-3.25,15.0,125.1553125,23.515,0.116686875,32.63
2021-06-23 15:24:43.375000000,61.0,-3.0,15.0,125.155,22.91,0.116847,32.63
2021-06-23 15:24:43.382812500,61.0,-3.25,14.75,125.1546875,22.225,0.117007125,32.63
2021-06-23 15:24:43.390625000,61.0,-3.5,14.5,125.154375,21.54,0.11716725,32.63
2021-06-23 15:24:43.398437500,61.0,-3.75,14.25,125.1540625,21.0,0.117327375,32.63
2021-06-23 15:24:43.406250000,61.0,-4.0,14.0,125.15375,20.46,0.1174875,32.63
2021-06-23 15:24:43.414062500,61.0,-4.0,14.0,125.1534375,20.195,0.117647625,32.63
2021-06-23 15:24:43.421875000,61.0,-4.0,14.0,125.153125,19.93,0.11780775,32.63
