TimeStamp,empatica.acc.x,empatica.acc.y,empatica.acc.z,empatica.hr,empatica.bvp,empatica.eda,empatica.temp
2021-06-23 15:25:14.203125000,60.0,-3.0,20.0,124.8959375,5.86,0.10115375,32.6025
2021-06-23 15:25:14.210937500,60.0,-3.0,20.0,124.89578125,5.605,0.100993625,32.60375
2021-06-23 15:25:14.218750000,60.0,-3.0,20.0,124.89562500000001,5.35,0.1008335,32.605
2021-06-23 15:25:14.226562500,60.0,-3.0,20.0,124.89546875,5.045,0.10067337500000001,32.60625
2021-06-23 15:25:14.234375000,60.0,-3.0,20.0,124.8953125,4.74,0.10051325,32.6075
2021-06-23 15:25:14.242187500,60.0,-3.0,20.0,124.89515625,4.29,0.100353125,32.60875
2021-06-23 15:25:14.250000000,60.0,-3.0,20.0,124.89500000000001,3.84,0.100193,32.61
2021-06-23 15:25:14.257812500,60.0,-3.0,20.0,124.89484375,3.125,0.10039315625,32.61
2021-06-23 15:25:14.265625000,60.0,-3.0,20.0,124.8946875,2.41,0.1005933125,32.61
2021-06-23 15:25:14.273437500,60.0,-3.0,20.0,124.89453125,1.335,0.10079346875,32.61
2021-06-23 15:25:14.281250000,60.0,-3.0,20.0,124.894375,0.26,0.100993625,32.61
2021-06-23 15:25:14.289062500,60.0,-3.0,20.0,124.89421875000001,-1.2550000000000001,0.10119378125,32.61
2021-06-23 15:25:14.296875000,60.0,-3.0,20.0,124.8940625,-2.77,0.1013939375,32.61
2021-06-23 15:25:14.304687500,60.0,-3.0,20.0,124.89390625,-4.73,0.10159409375,32.61
2021-06-23 15:25:14.312500000,60.0,-3.0,20.0,124.89375,-6.69,0.10179425,32.61
2021-06-23 15:25:14.320312500,60.0,-3.0,20.0,124.89359375000001,-8.965,0.10199440625,32.61
2021-06-23 15:25:14.328125000,60.0,-3.0,20.0,124.8934375,-11.24,0.1021945625,32.61
2021-06-23 15:25:14.335937500,60.0,-3.0,20.0,124.89328125,-13.555,0.10239471875,32.61
2021-06-23 15:25:14.343750000,60.0,-3.0,20.0,124.893125,-15.87,0.102594875,32.61
2021-06-23 15:25:14.351562500,60.0,-3.0,20.0,124.89296875000001,-17.78,0.10279503125,32.61
2021-06-23 15:25:14.359375000,60.0,-3.0,20.0,124.8928125,-19.69,0.1029951875,32.61
2021-06-23 15:25:14.367187500,60.0,-3.0,20.0,124.89265625,-20.740000000000002,0.10319534375,32.61
2021-06-23 15:25:14.375000000,60.0,-3.0,20.0,124.8925,-21.79,0.1033955,32.61
2021-06-23 15:25:14.382812500,60.0,-3.0,20.0,124.89234375,-21.61,0.10359565625,32.61
2021-06-23 15:25:14.390625000,60.0,-3.0,20.0,124.8921875,-21.43,0.1037958125,32.61
2021-06-23 15:25:14.398437500,60.0,-3.0,20.0,124.89203125,-19.9,0.10399596875,32.61
2021-06-23 15:25:14.406250000,60.0,-3.0,20.0,124.891875,-18.37,0.104196125,32.61
2021-06-23 15:25:14.414062500,60.0,-3.0,20.0,124.89171875,-15.68,0.10439628125,32.61
2021-06-23 15:25:14.421875000,60.0,-3.0,20.0,124.8915625,-12.99,0.1045964375,32.61
2021-06-23 15:25:14.429687500,60.0,-3.0,20.0,124.89140625,-9.605,0.10479659375,32.61
2021-06-23 15:25:14.437500000,60.0,-3.0,20.0,124.89125,-6.22,0.10499675,32.61
2021-06-23 15:25:14.445312500,60.0,-3.0,20.0,124.89109375,-2.7199999999999998,0.10519690625,32.61
2021-06-23 15:25:14.453125000,60.0,-3.0,20.0,124.8909375,0.78,0.1053970625,32.61
2021-06-23 15:25:14.460937500,60.0,-3.0,20.0,124.89078125,3.8899999999999997,0.10559721875,32.61
2021-06-23 15:25:14.468750000,60.0,-3.0,20.0,124.890625,7.0,0.105797375,32.61
2021-06-23 15:25:14.476562500,60.0,-3.0,20.0,124.89046875,9.379999999999999,0.10599753125,32.61
2021-06-23 15:25:14.484375000,60.0,-3.0,20.0,124.89031250000001,11.76,0.1061976875,32.61
2021-06-23 15:25:14.492187500,60.0,-3.0,20.0,124.89015625,13.325,0.10639784375,32.61
2021-06-23 15:25:14.500000000,60.0,-3.0,20.0,124.89,14.89,0.106598,32.61
2021-06-23 15:25:14.507812500,60.0,-3.0,20.0,124.88984375,15.735,0.106437875,32.61
2021-06-23 15:25:14.515625000,60.0,-3.0,20.0,124.8896875,16.58,0.10627775,32.61
2021-06-23 15:25:14.523437500,60.0,-3.0,20.0,124.88953125,16.89,0.106117625,32.61
2021-06-23 15:25:14.531250000,60.0,-3.0,20.0,124.889375,17.2,0.1059575,32.61
2021-06-23 15:25:14.539062500,60.0,-3.0,19.75,124.88921875,17.14,0.105797375,32.61
2021-06-23 15:25:14.546875000,60.0,-3.0,19.5,124.8890625,17.08,0.10563725,32.61
2021-06-23 15:25:14.554687500,60.0,-3.0,19.25,124.88890625,16.75,0.10547712499999999,32.61
2021-06-23 15:25:14.562500000,60.0,-3.0,19.0,124.88875,16.42,0.105317,32.61
2021-06-23 15:25:14.570312500,60.0,-3.0,19.25,124.88859375,15.855,0.105156875,32.61
2021-06-23 15:25:14.578125000,60.0,-3.0,19.5,124.8884375,15.29,0.10499675,32.61
2021-06-23 15:25:14.585937500,60.0,-3.0,19.75,124.88828125,14.5,0.104836625,32.61
2021-06-23 15:25:14.593750000,60.0,-3.0,20.0,124.888125,13.71,0.10467649999999999,32.61
2021-06-23 15:25:14.601562500,60.0,-3.0,20.0,124.88796875,12.71,0.104516375,32.61
2021-06-23 15:25:14.609375000,60.0,-3.0,20.0,124.8878125,11.71,0.10435625,32.61
2021-06-23 15:25:14.617187500,60.0,-3.0,20.0,124.88765625,10.58,0.104196125,32.61
2021-06-23 15:25:14.625000000,60.0,-3.0,20.0,124.8875,9.45,0.10403599999999999,32.61
2021-06-23 15:25:14.632812500,60.0,-3.0,20.0,124.88734375,8.305,0.10387587499999999,32.61
2021-06-23 15:25:14.640625000,60.0,-3.0,20.0,124.8871875,7.16,0.10371575,32.61
2021-06-23 15:25:14.648437500,60.0,-3.0,20.0,124.88703124999999,6.115,0.103555625,32.61
2021-06-23 15:25:14.656250000,60.0,-3.0,20.0,124.886875,5.07,0.1033955,32.61
2021-06-23 15:25:14.664062500,60.0,-3.0,20.0,124.88671875,4.220000000000001,0.10323537499999999,32.61
2021-06-23 15:25:14.671875000,60.0,-3.0,20.0,124.8865625,3.37,0.10307525,32.61
2021-06-23 15:25:14.679687500,60.0,-3.0,20.0,124.88640625,2.745,0.102915125,32.61
2021-06-23 15:25:14.687500000,60.0,-3.0,20.0,124.88625,2.12,0.102755,32.61
2021-06-23 15:25:14.695312500,60.0,-3.0,20.0,124.88609375,1.67,0.102594875,32.61
2021-06-23 15:25:14.703125000,60.0,-3.0,20.0,124.8859375,1.22,0.10243474999999999,32.61
2021-06-23 15:25:14.710937500,60.0,-3.0,20.0,124.88578125,0.83,0.102274625,32.61
2021-06-23 15:25:14.718750000,60.0,-3.0,20.0,124.885625,0.44,0.1021145,32.61
2021-06-23 15:25:14.726562500,60.0,-3.0,20.0,124.88546875,-0.034999999999999976,0.101954375,32.61
2021-06-23 15:25:14.734375000,60.0,-3.0,20.0,124.8853125,-0.51,0.10179424999999999,32.61
2021-06-23 15:25:14.742187500,60.0,-3.0,20.0,124.88515625,-1.25,0.10163412499999999,32.61
2021-06-23 15:25:14.750000000,60.0,-3.0,20.0,124.88499999999999,-1.99,0.101474,32.61
2021-06-23 15:25:14.757812500,60.0,-3.0,20.0,124.88484375,-3.125,0.1015540625,32.61
2021-06-23 15:25:14.765625000,60.0,-3.0,20.0,124.8846875,-4.26,0.10163412499999999,32.61
2021-06-23 15:25:14.773437500,60.0,-3.0,20.0,124.88453125,-5.925,0.1017141875,32.61
2021-06-23 15:25:14.781250000,60.0,-3.0,20.0,124.88437499999999,-7.59,0.10179425,32.61
2021-06-23 15:25:14.789062500,60.0,-3.0,20.0,124.88421875,-9.79,0.1018743125,32.61
2021-06-23 15:25:14.796875000,60.0,-3.0,20.0,124.8840625,-11.99,0.101954375,32.61
2021-06-23 15:25:14.804687500,60.0,-3.0,20.0,124.88390625,-14.620000000000001,0.10203443749999999,32.61
2021-06-23 15:25:14.812500000,60.0,-3.0,20.0,124.88374999999999,-17.25,0.1021145,32.61
2021-06-23 15:25:14.820312500,60.0,-3.0,20.0,124.88359375,-20.009999999999998,0.1021945625,32.61
2021-06-23 15:25:14.828125000,60.0,-3.0,20.0,124.8834375,-22.77,0.102274625,32.61
2021-06-23 15:25:14.835937500,60.0,-3.0,20.0,124.88328125,-25.195,0.1023546875,32.61
2021-06-23 15:25:14.843750000,60.0,-3.0,20.0,124.88312499999999,-27.62,0.10243474999999999,32.61
2021-06-23 15:25:14.851562500,60.0,-3.0,20.0,124.88296875,-29.175,0.1025148125,32.61
2021-06-23 15:25:14.859375000,60.0,-3.0,20.0,124.8828125,-30.73,0.102594875,32.61
2021-06-23 15:25:14.867187500,60.0,-3.0,20.0,124.88265625,-30.950000000000003,0.1026749375,32.61
2021-06-23 15:25:14.875000000,60.0,-3.0,20.0,124.8825,-31.17,0.102755,32.61
2021-06-23 15:25:14.882812500,60.0,-3.0,20.0,124.88234374999999,-29.86,0.1028350625,32.61
2021-06-23 15:25:14.890625000,60.0,-3.0,20.0,124.8821875,-28.55,0.102915125,32.61
2021-06-23 15:25:14.898437500,60.0,-3.0,20.0,124.88203125,-25.845,0.1029951875,32.61
2021-06-23 15:25:14.906250000,60.0,-3.0,20.0,124.881875,-23.14,0.10307525000000001,32.61
2021-06-23 15:25:14.914062500,60.0,-3.0,20.0,124.88171874999999,-19.5,0.1031553125,32.61
2021-06-23 15:25:14.921875000,60.0,-3.0,20.0,124.8815625,-15.86,0.103235375,32.61
2021-06-23 15:25:14.929687500,60.0,-3.0,20.0,124.88140625,-11.925,0.1033154375,32.61
2021-06-23 15:25:14.937500000,60.0,-3.0,20.0,124.88125,-7.99,0.1033955,32.61
2021-06-23 15:25:14.945312500,60.0,-3.0,20.0,124.88109374999999,-4.375,0.1034755625,32.61
2021-06-23 15:25:14.953125000,60.0,-3.0,20.0,124.8809375,-0.76,0.103555625,32.61
2021-06-23 15:25:14.960937500,60.0,-3.0,20.0,124.88078125,2.1049999999999995,0.1036356875,32.61
2021-06-23 15:25:14.968750000,60.0,-3.0,20.0,124.880625,4.97,0.10371575,32.61
2021-06-23 15:25:14.976562500,60.0,-3.0,20.0,124.88046874999999,6.925000000000001,0.1037958125,32.61
2021-06-23 15:25:14.984375000,60.0,-3.0,20.0,124.8803125,8.88,0.103875875,32.61
2021-06-23 15:25:14.992187500,60.0,-3.0,20.0,124.88015625,9.985,0.1039559375,32.61
2021-06-23 15:25:15.000000000,60.0,-3.0,20.0,124.88,11.09,0.104036,32.61
2021-06-23 15:25:15.007812500,60.0,-3.0,20.0,124.879921875,11.51,0.10391590625000001,32.609375
2021-06-23 15:25:15.015625000,60.0,-3.0,20.0,124.87984374999999,11.93,0.1037958125,32.60875
2021-06-23 15:25:15.023437500,60.0,-3.0,20.0,124.87976562499999,11.86,0.10367571875,32.608125
2021-06-23 15:25:15.031250000,60.0,-3.0,20.0,124.87968749999999,11.79,0.103555625,32.6075
2021-06-23 15:25:15.039062500,60.0,-3.0,20.0,124.879609375,11.364999999999998,0.10343553125,32.606875
2021-06-23 15:25:15.046875000,60.0,-3.0,20.0,124.87953125,10.94,0.10331543750000001,32.60625
2021-06-23 15:25:15.054687500,60.0,-3.0,20.0,124.879453125,10.274999999999999,0.10319534375,32.605625
2021-06-23 15:25:15.062500000,60.0,-3.0,20.0,124.879375,9.61,0.10307525000000001,32.605000000000004
2021-06-23 15:25:15.070312500,60.0,-3.0,20.0,124.879296875,8.785,0.10295515625,32.604375
2021-06-23 15:25:15.078125000,60.0,-3.0,20.0,124.87921874999999,7.96,0.1028350625,32.60375
2021-06-23 15:25:15.085937500,60.0,-3.0,20.0,124.87914062499999,7.085,0.10271496875000001,32.603125
2021-06-23 15:25:15.093750000,60.0,-3.0,20.0,124.8790625,6.21,0.102594875,32.6025
2021-06-23 15:25:15.101562500,60.0,-3.0,20.0,124.878984375,5.37,0.10247478125000001,32.601875
2021-06-23 15:25:15.109375000,60.0,-3.0,20.0,124.87890625,4.53,0.1023546875,32.60125
2021-06-23 15:25:15.117187500,60.0,-3.0,20.0,124.878828125,3.83,0.10223459375,32.600625
2021-06-23 15:25:15.125000000,60.0,-3.0,20.0,124.87875,3.13,0.1021145,32.6
2021-06-23 15:25:15.132812500,60.0,-3.0,20.0,124.878671875,2.62,0.10199440625,32.599375
2021-06-23 15:25:15.140625000,60.0,-3.0,20.0,124.87859375,2.11,0.10187431250000001,32.59875
2021-06-23 15:25:15.148437500,60.0,-3.0,20.0,124.87851562499999,1.7999999999999998,0.10175421875,32.598125
2021-06-23 15:25:15.156250000,60.0,-3.0,20.0,124.87843749999999,1.49,0.101634125,32.597500000000004
2021-06-23 15:25:15.164062500,60.0,-3.0,20.0,124.878359375,1.3399999999999999,0.10151403125,32.596875000000004
2021-06-23 15:25:15.171875000,60.0,-3.0,20.0,124.87828125,1.19,0.1013939375,32.596250000000005
2021-06-23 15:25:15.179687500,60.0,-3.0,20.0,124.878203125,1.125,0.10127384375000001,32.595625000000005
2021-06-23 15:25:15.187500000,60.0,-3.0,20.0,124.878125,1.06,0.10115375,32.595
2021-06-23 15:25:15.195312500,60.0,-3.0,20.0,124.878046875,0.97,0.10103365625,32.594375
2021-06-23 15:25:15.203125000,60.0,-3.0,20.0,124.87796875,0.88,0.1009135625,32.59375
2021-06-23 15:25:15.210937500,60.0,-3.0,20.0,124.87789062499999,0.665,0.10079346875,32.593125
2021-06-23 15:25:15.218750000,60.0,-3.0,20.0,124.8778125,0.45,0.10067337500000001,32.5925
2021-06-23 15:25:15.226562500,60.0,-3.0,20.0,124.877734375,0.020000000000000018,0.10055328125,32.591875
2021-06-23 15:25:15.234375000,60.0,-3.0,20.0,124.87765625,-0.41,0.1004331875,32.59125
2021-06-23 15:25:15.242187500,60.0,-3.0,20.0,124.877578125,-1.165,0.10031309375,32.590625
2021-06-23 15:25:15.250000000,60.0,-3.0,20.0,124.8775,-1.92,0.100193,32.59
2021-06-23 15:25:15.257812500,60.0,-3.0,20.0,124.877421875,-3.08,0.100193,32.59
2021-06-23 15:25:15.265625000,60.0,-3.0,20.0,124.87734375,-4.24,0.100193,32.59
2021-06-23 15:25:15.273437500,60.0,-3.0,20.0,124.87726562499999,-5.85,0.100193,32.59
2021-06-23 15:25:15.281250000,60.0,-3.0,20.0,124.87718749999999,-7.46,0.100193,32.59
2021-06-23 15:25:15.289062500,60.0,-3.0,20.0,124.877109375,-9.425,0.100193,32.59
2021-06-23 15:25:15.296875000,60.0,-3.0,20.0,124.87703125,-11.39,0.100193,32.59
2021-06-23 15:25:15.304687500,60.0,-3.0,20.0,124.876953125,-13.455,0.100193,32.59
2021-06-23 15:25:15.312500000,60.0,-3.0,20.0,124.876875,-15.52,0.100193,32.59
2021-06-23 15:25:15.320312500,60.0,-3.0,20.0,124.876796875,-17.244999999999997,0.100193,32.59
2021-06-23 15:25:15.328125000,60.0,-3.0,20.0,124.87671875,-18.97,0.100193,32.59
2021-06-23 15:25:15.335937500,60.0,-3.0,20.0,124.876640625,-19.82,0.100193,32.59
2021-06-23 15:25:15.343750000,60.0,-3.0,20.0,124.8765625,-20.67,0.100193,32.59
2021-06-23 15:25:15.351562500,60.0,-3.0,20.0,124.876484375,-20.21,0.100193,32.59
2021-06-23 15:25:15.359375000,60.0,-3.0,20.0,124.87640625,-19.75,0.100193,32.59
2021-06-23 15:25:15.367187500,60.0,-3.0,20.0,124.876328125,-17.82,0.100193,32.59
2021-06-23 15:25:15.375000000,60.0,-3.0,20.0,124.87625,-15.89,0.100193,32.59
2021-06-23 15:25:15.382812500,60.0,-3.0,20.0,124.876171875,-12.690000000000001,0.100193,32.59
2021-06-23 15:25:15.390625000,60.0,-3.0,20.0,124.87609375,-9.49,0.100193,32.59
2021-06-23 15:25:15.398437500,60.0,-3.0,20.0,124.876015625,-5.53,0.100193,32.59
2021-06-23 15:25:15.406250000,60.0,-3.0,20.0,124.87593749999999,-1.57,0.100193,32.59
2021-06-23 15:25:15.414062500,60.0,-3.0,20.0,124.875859375,2.494999999999999,0.100193,32.59
2021-06-23 15:25:15.421875000,60.0,-3.0,20.0,124.87578125,6.56,0.100193,32.59
2021-06-23 15:25:15.429687500,60.0,-3.0,20.0,124.875703125,10.16,0.100193,32.59
2021-06-23 15:25:15.437500000,60.0,-3.0,20.0,124.875625,13.76,0.100193,32.59
2021-06-23 15:25:15.445312500,60.0,-3.0,20.0,124.875546875,16.555,0.100193,32.59
2021-06-23 15:25:15.453125000,60.0,-3.0,20.0,124.87546875,19.35,0.100193,32.59
2021-06-23 15:25:15.460937500,60.0,-3.0,20.0,124.875390625,21.245,0.100193,32.59
2021-06-23 15:25:15.468750000,60.0,-3.0,20.0,124.8753125,23.14,0.100193,32.59
2021-06-23 15:25:15.476562500,60.0,-3.0,20.0,124.875234375,24.215,0.100193,32.59
2021-06-23 15:25:15.484375000,60.0,-3.0,20.0,124.87515625,25.29,0.100193,32.59
2021-06-23 15:25:15.492187500,60.0,-3.0,20.0,124.875078125,25.685,0.100193,32.59
2021-06-23 15:25:15.500000000,60.0,-3.0,20.0,124.875,26.08,0.100193,32.59
2021-06-23 15:25:15.507812500,60.0,-3.0,20.0,124.874921875,25.935,0.100353125,32.59
2021-06-23 15:25:15.515625000,60.0,-3.0,20.0,124.87484375,25.79,0.10051325,32.59
2021-06-23 15:25:15.523437500,60.0,-3.0,20.0,124.874765625,25.195,0.10067337500000001,32.59
2021-06-23 15:25:15.531250000,60.0,-3.0,20.0,124.8746875,24.6,0.1008335,32.59
2021-06-23 15:25:15.539062500,60.0,-3.0,20.0,124.874609375,23.66,0.100993625,32.59
2021-06-23 15:25:15.546875000,60.0,-3.0,20.0,124.87453125,22.72,0.10115375,32.59
2021-06-23 15:25:15.554687500,60.0,-3.0,20.0,124.874453125,21.53,0.101313875,32.59
2021-06-23 15:25:15.562500000,60.0,-3.0,20.0,124.874375,20.34,0.10147400000000001,32.59
2021-06-23 15:25:15.570312500,60.0,-3.0,20.0,124.874296875,19.03,0.101634125,32.59
2021-06-23 15:25:15.578125000,60.0,-3.0,20.0,124.87421875,17.72,0.10179425,32.59
2021-06-23 15:25:15.585937500,60.0,-3.0,20.0,124.874140625,16.425,0.101954375,32.59
2021-06-23 15:25:15.593750000,60.0,-3.0,20.0,124.87406250000001,15.13,0.1021145,32.59
2021-06-23 15:25:15.601562500,60.0,-3.0,20.0,124.873984375,13.96,0.102274625,32.59
2021-06-23 15:25:15.609375000,60.0,-3.0,20.0,124.87390625,12.79,0.10243475,32.59
2021-06-23 15:25:15.617187500,60.0,-3.0,20.0,124.873828125,11.835,0.102594875,32.59
2021-06-23 15:25:15.625000000,60.0,-3.0,20.0,124.87375,10.88,0.102755,32.59
2021-06-23 15:25:15.632812500,60.0,-3.0,20.0,124.873671875,10.155000000000001,0.102915125,32.59
2021-06-23 15:25:15.640625000,60.0,-3.0,20.0,124.87359375,9.43,0.10307525,32.59
2021-06-23 15:25:15.648437500,60.0,-3.0,20.0,124.873515625,8.905000000000001,0.103235375,32.59
2021-06-23 15:25:15.656250000,60.0,-3.0,20.0,124.8734375,8.38,0.1033955,32.59
2021-06-23 15:25:15.664062500,60.0,-3.0,20.0,124.873359375,7.960000000000001,0.103555625,32.59
2021-06-23 15:25:15.671875000,60.0,-3.0,20.0,124.87328125,7.54,0.10371575,32.59
2021-06-23 15:25:15.679687500,60.0,-3.0,20.0,124.873203125,7.085,0.10387587499999999,32.59
2021-06-23 15:25:15.687500000,60.0,-3.0,20.0,124.873125,6.63,0.10403599999999999,32.59
2021-06-23 15:25:15.695312500,60.0,-3.0,20.0,124.873046875,5.98,0.104196125,32.59
2021-06-23 15:25:15.703125000,60.0,-3.0,20.0,124.87296875,5.33,0.10435625,32.59
2021-06-23 15:25:15.710937500,60.0,-3.0,20.0,124.872890625,4.34,0.104516375,32.59
2021-06-23 15:25:15.718750000,60.0,-3.0,20.0,124.87281250000001,3.35,0.10467649999999999,32.59
2021-06-23 15:25:15.726562500,60.0,-3.0,20.0,124.87273437500001,1.915,0.10483662499999999,32.59
2021-06-23 15:25:15.734375000,60.0,-3.0,20.0,124.87265625,0.48,0.10499675,32.59
2021-06-23 15:25:15.742187500,60.0,-3.0,20.0,124.872578125,-1.46,0.105156875,32.59
2021-06-23 15:25:15.750000000,60.0,-3.0,20.0,124.8725,-3.4,0.105317,32.59
2021-06-23 15:25:15.757812500,60.0,-3.0,20.0,124.872421875,-5.775,0.105156875,32.59
2021-06-23 15:25:15.765625000,60.0,-3.0,20.0,124.87234375,-8.15,0.10499675,32.59
2021-06-23 15:25:15.773437500,60.0,-3.0,20.0,124.872265625,-10.77,0.10483662499999999,32.59
2021-06-23 15:25:15.781250000,60.0,-3.0,20.0,124.8721875,-13.39,0.10467649999999999,32.59
2021-06-23 15:25:15.789062500,60.0,-3.0,20.0,124.87210937500001,-15.89,0.104516375,32.59
2021-06-23 15:25:15.796875000,60.0,-3.0,20.0,124.87203125,-18.39,0.10435625,32.59
2021-06-23 15:25:15.804687500,60.0,-3.0,20.0,124.871953125,-20.3,0.104196125,32.59
2021-06-23 15:25:15.812500000,60.0,-3.0,20.0,124.871875,-22.21,0.10403599999999999,32.59
2021-06-23 15:25:15.820312500,60.0,-3.0,20.0,124.871796875,-23.025,0.10387587499999999,32.59
2021-06-23 15:25:15.828125000,60.0,-3.0,20.0,124.87171875,-23.84,0.10371575,32.59
2021-06-23 15:25:15.835937500,60.0,-3.0,20.0,124.871640625,-23.244999999999997,0.103555625,32.59
2021-06-23 15:25:15.843750000,60.0,-3.0,20.0,124.87156250000001,-22.65,0.1033955,32.59
2021-06-23 15:25:15.851562500,60.0,-3.0,20.0,124.87148437500001,-20.595,0.103235375,32.59
2021-06-23 15:25:15.859375000,60.0,-3.0,20.0,124.87140625,-18.54,0.10307525,32.59
2021-06-23 15:25:15.867187500,60.0,-3.0,20.0,124.871328125,-15.32,0.102915125,32.59
2021-06-23 15:25:15.875000000,60.0,-3.0,20.0,124.87125,-12.1,0.102755,32.59
2021-06-23 15:25:15.882812500,60.0,-3.0,20.0,124.871171875,-8.275,0.102594875,32.59
2021-06-23 15:25:15.890625000,60.0,-3.0,20.0,124.87109375,-4.45,0.10243475,32.59
2021-06-23 15:25:15.898437500,60.0,-3.0,20.0,124.871015625,-0.6600000000000001,0.102274625,32.59
2021-06-23 15:25:15.906250000,60.0,-3.0,20.0,124.8709375,3.13,0.1021145,32.59
2021-06-23 15:25:15.914062500,60.0,-3.0,20.0,124.87085937500001,6.365,0.101954375,32.59
2021-06-23 15:25:15.921875000,60.0,-3.0,20.0,124.87078125000001,9.6,0.10179425,32.59
2021-06-23 15:25:15.929687500,60.0,-3.0,20.0,124.870703125,11.98,0.101634125,32.59
2021-06-23 15:25:15.937500000,60.0,-3.0,20.0,124.870625,14.36,0.10147400000000001,32.59
2021-06-23 15:25:15.945312500,60.0,-3.0,20.0,124.870546875,15.85,0.101313875,32.59
2021-06-23 15:25:15.953125000,60.0,-3.0,20.0,124.87046875,17.34,0.10115375,32.59
2021-06-23 15:25:15.960937500,60.0,-3.0,20.0,124.870390625,18.1,0.100993625,32.59
2021-06-23 15:25:15.968750000,60.0,-3.0,20.0,124.87031250000001,18.86,0.1008335,32.59
2021-06-23 15:25:15.976562500,60.0,-3.0,20.0,124.87023437500001,19.085,0.10067337500000001,32.59
2021-06-23 15:25:15.984375000,60.0,-3.0,20.0,124.87015625000001,19.31,0.10051325,32.59
2021-06-23 15:25:15.992187500,60.0,-3.0,20.0,124.870078125,19.16,0.100353125,32.59
2021-06-23 15:25:16.000000000,60.0,-3.0,20.0,124.87,19.01,0.100193,32.59
2021-06-23 15:25:16.007812500,60.0,-3.0,20.0,124.86984375,18.585,0.10027306250000001,32.59
2021-06-23 15:25:16.015625000,60.0,-3.0,20.0,124.8696875,18.16,0.100353125,32.59
2021-06-23 15:25:16.023437500,60.0,-3.0,20.0,124.86953125000001,17.505000000000003,0.1004331875,32.59
2021-06-23 15:25:16.031250000,60.0,-3.0,20.0,124.869375,16.85,0.10051325,32.59
2021-06-23 15:25:16.039062500,60.0,-3.0,20.0,124.86921875,16.02,0.1005933125,32.59
2021-06-23 15:25:16.046875000,60.0,-3.0,20.0,124.8690625,15.19,0.10067337500000001,32.59
2021-06-23 15:25:16.054687500,60.0,-3.0,20.0,124.86890625000001,14.26,0.1007534375,32.59
2021-06-23 15:25:16.062500000,60.0,-3.0,20.0,124.86875,13.33,0.1008335,32.59
2021-06-23 15:25:16.070312500,60.0,-3.0,19.75,124.86859375,12.41,0.1009135625,32.59
2021-06-23 15:25:16.078125000,60.0,-3.0,19.5,124.8684375,11.49,0.100993625,32.59
2021-06-23 15:25:16.085937500,60.0,-3.0,19.25,124.86828125000001,10.690000000000001,0.10107368750000001,32.59
2021-06-23 15:25:16.093750000,60.0,-3.0,19.0,124.868125,9.89,0.10115375,32.59
2021-06-23 15:25:16.101562500,60.0,-3.0,19.25,124.86796875,9.254999999999999,0.1012338125,32.59
2021-06-23 15:25:16.109375000,60.0,-3.0,19.5,124.8678125,8.62,0.101313875,32.59
2021-06-23 15:25:16.117187500,60.0,-3.0,19.75,124.86765625000001,8.12,0.1013939375,32.59
2021-06-23 15:25:16.125000000,60.0,-3.0,20.0,124.8675,7.62,0.10147400000000001,32.59
2021-06-23 15:25:16.132812500,60.0,-3.0,20.0,124.86734375,7.175000000000001,0.1015540625,32.59
2021-06-23 15:25:16.140625000,60.0,-3.0,20.0,124.8671875,6.73,0.101634125,32.59
2021-06-23 15:25:16.148437500,60.0,-3.0,20.0,124.86703125,6.220000000000001,0.1017141875,32.59
2021-06-23 15:25:16.156250000,60.0,-3.0,20.0,124.86687500000001,5.71,0.10179425,32.59
2021-06-23 15:25:16.164062500,60.0,-3.0,19.75,124.86671875,5.025,0.1018743125,32.59
2021-06-23 15:25:16.171875000,60.0,-3.0,19.5,124.8665625,4.34,0.101954375,32.59
2021-06-23 15:25:16.179687500,60.0,-3.0,19.25,124.86640625,3.3899999999999997,0.1020344375,32.59
2021-06-23 15:25:16.187500000,60.0,-3.0,19.0,124.86625000000001,2.44,0.1021145,32.59
2021-06-23 15:25:16.195312500,60.0,-3.0,19.25,124.86609375,1.145,0.1021945625,32.59
2021-06-23 15:25:16.203125000,60.0,-3.0,19.5,124.8659375,-0.15,0.102274625,32.59
2021-06-23 15:25:16.210937500,60.0,-3.0,19.75,124.86578125,-1.845,0.1023546875,32.59
2021-06-23 15:25:16.218750000,60.0,-3.0,20.0,124.86562500000001,-3.54,0.10243475,32.59
2021-06-23 15:25:16.226562500,60.0,-3.0,20.0,124.86546875,-5.654999999999999,0.1025148125,32.59
2021-06-23 15:25:16.234375000,60.0,-3.0,20.0,124.8653125,-7.77,0.102594875,32.59
2021-06-23 15:25:16.242187500,60.0,-3.0,20.0,124.86515625,-10.21,0.1026749375,32.59
2021-06-23 15:25:16.250000000,60.0,-3.0,20.0,124.86500000000001,-12.65,0.102755,32.59
2021-06-23 15:25:16.257812500,60.0,-3.0,20.0,124.86484375,-15.175,0.10271496875,32.59
2021-06-23 15:25:16.265625000,60.0,-3.0,20.0,124.8646875,-17.7,0.1026749375,32.59
2021-06-23 15:25:16.273437500,60.0,-3.0,20.0,124.86453125,-19.91,0.10263490625,32.59
2021-06-23 15:25:16.281250000,60.0,-3.0,20.0,124.864375,-22.12,0.102594875,32.59
2021-06-23 15:25:16.289062500,60.0,-3.0,20.0,124.86421875,-23.585,0.10255484375,32.59
2021-06-23 15:25:16.296875000,60.0,-3.0,20.0,124.8640625,-25.05,0.1025148125,32.59
2021-06-23 15:25:16.304687500,60.0,-3.0,20.0,124.86390625,-25.39,0.10247478125,32.59
2021-06-23 15:25:16.312500000,60.0,-3.0,20.0,124.86375,-25.73,0.10243474999999999,32.59
2021-06-23 15:25:16.320312500,60.0,-3.0,20.0,124.86359375,-24.765,0.10239471875,32.59
2021-06-23 15:25:16.328125000,60.0,-3.0,20.0,124.8634375,-23.8,0.1023546875,32.59
2021-06-23 15:25:16.335937500,60.0,-3.0,20.0,124.86328125,-21.6,0.10231465625,32.59
2021-06-23 15:25:16.343750000,60.0,-3.0,20.0,124.863125,-19.4,0.102274625,32.59
2021-06-23 15:25:16.351562500,60.0,-2.75,20.0,124.86296875000001,-16.259999999999998,0.10223459374999999,32.59
2021-06-23 15:25:16.359375000,60.0,-2.5,20.0,124.8628125,-13.12,0.1021945625,32.59
2021-06-23 15:25:16.367187500,60.0,-2.25,20.0,124.86265625,-9.475,0.10215453125,32.59
2021-06-23 15:25:16.375000000,60.0,-2.0,20.0,124.8625,-5.83,0.1021145,32.59
2021-06-23 15:25:16.382812500,60.0,-2.25,19.75,124.86234375,-2.12,0.10207446875,32.59
2021-06-23 15:25:16.390625000,60.0,-2.5,19.5,124.8621875,1.59,0.10203443749999999,32.59
2021-06-23 15:25:16.398437500,60.0,-2.75,19.25,124.86203125,4.965,0.10199440625,32.59
2021-06-23 15:25:16.406250000,60.0,-3.0,19.0,124.861875,8.34,0.101954375,32.59
2021-06-23 15:25:16.414062500,60.0,-3.0,19.25,124.86171875,11.129999999999999,0.10191434375,32.59
2021-06-23 15:25:16.421875000,60.0,-3.0,19.5,124.8615625,13.92,0.1018743125,32.59
2021-06-23 15:25:16.429687500,60.0,-3.0,19.75,124.86140625,15.985,0.10183428124999999,32.59
2021-06-23 15:25:16.437500000,60.0,-3.0,20.0,124.86125,18.05,0.10179425,32.59
2021-06-23 15:25:16.445312500,60.0,-3.0,20.0,124.86109375,19.355,0.10175421875,32.59
2021-06-23 15:25:16.453125000,60.0,-3.0,20.0,124.8609375,20.66,0.1017141875,32.59
2021-06-23 15:25:16.460937500,60.0,-3.0,20.0,124.86078125,21.244999999999997,0.10167415625,32.59
2021-06-23 15:25:16.468750000,60.0,-3.0,20.0,124.860625,21.83,0.10163412499999999,32.59
2021-06-23 15:25:16.476562500,60.0,-3.0,20.0,124.86046875,21.775,0.10159409374999999,32.59
2021-06-23 15:25:16.484375000,60.0,-3.0,20.0,124.8603125,21.72,0.1015540625,32.59
2021-06-23 15:25:16.492187500,60.0,-3.0,20.0,124.86015625,21.13,0.10151403125,32.59
2021-06-23 15:25:16.500000000,60.0,-3.0,20.0,124.86,20.54,0.101474,32.59
2021-06-23 15:25:16.507812500,60.0,-3.0,19.75,124.85984375,19.545,0.1015540625,32.59
2021-06-23 15:25:16.515625000,60.0,-3.0,19.5,124.85968749999999,18.55,0.10163412499999999,32.59
2021-06-23 15:25:16.523437500,60.0,-3.0,19.25,124.85953125,17.3,0.1017141875,32.59
2021-06-23 15:25:16.531250000,60.0,-3.0,19.0,124.859375,16.05,0.10179425,32.59
2021-06-23 15:25:16.539062500,60.0,-3.0,19.25,124.85921875,14.73,0.1018743125,32.59
2021-06-23 15:25:16.546875000,60.0,-3.0,19.5,124.8590625,13.41,0.101954375,32.59
2021-06-23 15:25:16.554687500,60.0,-3.0,19.75,124.85890625,12.2,0.10203443749999999,32.59
2021-06-23 15:25:16.562500000,60.0,-3.0,20.0,124.85875,10.99,0.1021145,32.59
2021-06-23 15:25:16.570312500,60.0,-3.0,19.75,124.85859375,10.055,0.1021945625,32.59
2021-06-23 15:25:16.578125000,60.0,-3.0,19.5,124.8584375,9.12,0.102274625,32.59
2021-06-23 15:25:16.585937500,60.0,-3.0,19.25,124.85828125,8.524999999999999,0.1023546875,32.59
2021-06-23 15:25:16.593750000,60.0,-3.0,19.0,124.858125,7.93,0.10243474999999999,32.59
2021-06-23 15:25:16.601562500,60.0,-2.75,19.0,124.85796875,7.645,0.1025148125,32.59
2021-06-23 15:25:16.609375000,60.0,-2.5,19.0,124.8578125,7.36,0.102594875,32.59
2021-06-23 15:25:16.617187500,60.0,-2.25,19.0,124.85765625,7.225,0.1026749375,32.59
2021-06-23 15:25:16.625000000,60.0,-2.0,19.0,124.8575,7.09,0.102755,32.59
2021-06-23 15:25:16.632812500,60.0,-2.25,19.0,124.85734375,6.890000000000001,0.1028350625,32.59
2021-06-23 15:25:16.640625000,60.0,-2.5,19.0,124.8571875,6.69,0.102915125,32.59
2021-06-23 15:25:16.648437500,60.0,-2.75,19.0,124.85703124999999,6.2,0.1029951875,32.59
2021-06-23 15:25:16.656250000,60.0,-3.0,19.0,124.856875,5.71,0.10307525000000001,32.59
2021-06-23 15:25:16.664062500,60.0,-3.0,19.25,124.85671875,4.775,0.1031553125,32.59
2021-06-23 15:25:16.671875000,60.0,-3.0,19.5,124.8565625,3.84,0.103235375,32.59
2021-06-23 15:25:16.679687500,60.0,-3.0,19.75,124.85640624999999,2.37,0.1033154375,32.59
2021-06-23 15:25:16.687500000,60.0,-3.0,20.0,124.85625,0.9,0.1033955,32.59
2021-06-23 15:25:16.695312500,60.0,-3.0,20.0,124.85609375,-1.0749999999999997,0.1034755625,32.59
2021-06-23 15:25:16.703125000,60.0,-3.0,20.0,124.8559375,-3.05,0.103555625,32.59
2021-06-23 15:25:16.710937500,60.0,-3.0,20.0,124.85578124999999,-5.42,0.1036356875,32.59
2021-06-23 15:25:16.718750000,60.0,-3.0,20.0,124.855625,-7.79,0.10371575,32.59
2021-06-23 15:25:16.726562500,60.0,-3.0,20.0,124.85546875,-10.345,0.1037958125,32.59
2021-06-23 15:25:16.734375000,60.0,-3.0,20.0,124.8553125,-12.9,0.103875875,32.59
2021-06-23 15:25:16.742187500,60.0,-3.0,20.0,124.85515625,-15.344999999999999,0.1039559375,32.59
2021-06-23 15:25:16.750000000,60.0,-3.0,20.0,124.85499999999999,-17.79,0.104036,32.59
2021-06-23 15:25:16.757812500,60.0,-3.0,20.0,124.85484375,-19.744999999999997,0.10391590625000001,32.59
2021-06-23 15:25:16.765625000,60.0,-3.0,20.0,124.8546875,-21.7,0.1037958125,32.59
2021-06-23 15:25:16.773437500,60.0,-3.0,20.0,124.85453125,-22.78,0.10367571875,32.59
2021-06-23 15:25:16.781250000,60.0,-3.0,20.0,124.85437499999999,-23.86,0.103555625,32.59
2021-06-23 15:25:16.789062500,60.0,-3.0,20.0,124.85421875,-23.755,0.10343553125,32.59
2021-06-23 15:25:16.796875000,60.0,-3.0,20.0,124.8540625,-23.65,0.10331543750000001,32.59
2021-06-23 15:25:16.804687500,60.0,-3.0,20.0,124.85390625,-22.2,0.10319534375,32.59
2021-06-23 15:25:16.812500000,60.0,-3.0,20.0,124.85374999999999,-20.75,0.10307525000000001,32.59
2021-06-23 15:25:16.820312500,60.0,-3.0,19.75,124.85359375,-18.05,0.10295515625,32.59
2021-06-23 15:25:16.828125000,60.0,-3.0,19.5,124.8534375,-15.35,0.1028350625,32.59
2021-06-23 15:25:16.835937500,60.0,-3.0,19.25,124.85328125,-11.74,0.10271496875000001,32.59
2021-06-23 15:25:16.843750000,60.0,-3.0,19.0,124.85312499999999,-8.13,0.102594875,32.59
2021-06-23 15:25:16.851562500,60.0,-3.0,19.25,124.85296875,-4.16,0.10247478125000001,32.59
2021-06-23 15:25:16.859375000,60.0,-3.0,19.5,124.8528125,-0.19,0.1023546875,32.59
2021-06-23 15:25:16.867187500,60.0,-3.0,19.75,124.85265625,3.5450000000000004,0.10223459375,32.59
2021-06-23 15:25:16.875000000,60.0,-3.0,20.0,124.85249999999999,7.28,0.1021145,32.59
2021-06-23 15:25:16.882812500,60.0,-3.0,20.0,124.85234374999999,10.290000000000001,0.10199440625,32.59
2021-06-23 15:25:16.890625000,60.0,-3.0,20.0,124.8521875,13.3,0.10187431250000001,32.59
2021-06-23 15:25:16.898437500,60.0,-3.0,20.0,124.85203125,15.345,0.10175421875,32.59
2021-06-23 15:25:16.906250000,60.0,-3.0,20.0,124.85187499999999,17.39,0.101634125,32.59
2021-06-23 15:25:16.914062500,60.0,-3.0,20.0,124.85171874999999,18.490000000000002,0.10151403125,32.59
2021-06-23 15:25:16.921875000,60.0,-3.0,20.0,124.8515625,19.59,0.1013939375,32.59
2021-06-23 15:25:16.929687500,60.0,-3.0,20.0,124.85140625,19.965,0.10127384375000001,32.59
2021-06-23 15:25:16.937500000,60.0,-3.0,20.0,124.85125,20.34,0.10115375,32.59
2021-06-23 15:25:16.945312500,60.0,-3.0,20.0,124.85109374999999,20.259999999999998,0.10103365625,32.59
2021-06-23 15:25:16.953125000,60.0,-3.0,20.0,124.8509375,20.18,0.1009135625,32.59
2021-06-23 15:25:16.960937500,60.0,-3.0,20.0,124.85078125,19.845,0.10079346875,32.59
2021-06-23 15:25:16.968750000,60.0,-3.0,20.0,124.850625,19.51,0.10067337500000001,32.59
2021-06-23 15:25:16.976562500,60.0,-3.0,20.0,124.85046874999999,19.01,0.10055328125,32.59
2021-06-23 15:25:16.984375000,60.0,-3.0,20.0,124.8503125,18.51,0.1004331875,32.59
2021-06-23 15:25:16.992187500,60.0,-3.0,20.0,124.85015625,17.85,0.10031309375,32.59
2021-06-23 15:25:17.000000000,60.0,-3.0,20.0,124.85,17.19,0.100193,32.59
2021-06-23 15:25:17.007812500,60.0,-3.0,20.0,124.84984374999999,16.39,0.100193,32.59
2021-06-23 15:25:17.015625000,60.0,-3.0,20.0,124.84968749999999,15.59,0.100193,32.59
2021-06-23 15:25:17.023437500,60.0,-3.0,20.0,124.84953125,14.719999999999999,0.100193,32.59
2021-06-23 15:25:17.031250000,60.0,-3.0,20.0,124.849375,13.85,0.100193,32.59
2021-06-23 15:25:17.039062500,60.0,-3.0,20.0,124.84921874999999,13.030000000000001,0.100193,32.59
2021-06-23 15:25:17.046875000,60.0,-3.0,20.0,124.84906249999999,12.21,0.100193,32.59
2021-06-23 15:25:17.054687500,60.0,-3.0,20.0,124.84890625,11.535,0.100193,32.59
2021-06-23 15:25:17.062500000,60.0,-3.0,20.0,124.84875,10.86,0.100193,32.59
2021-06-23 15:25:17.070312500,60.0,-3.0,20.0,124.84859374999999,10.379999999999999,0.100193,32.59
2021-06-23 15:25:17.078125000,60.0,-3.0,20.0,124.84843749999999,9.9,0.100193,32.59
2021-06-23 15:25:17.085937500,60.0,-3.0,20.0,124.84828125,9.56,0.100193,32.59
2021-06-23 15:25:17.093750000,60.0,-3.0,20.0,124.848125,9.22,0.100193,32.59
2021-06-23 15:25:17.101562500,60.0,-3.0,20.0,124.84796874999999,8.93,0.100193,32.59
2021-06-23 15:25:17.109375000,60.0,-3.0,20.0,124.84781249999999,8.64,0.100193,32.59
2021-06-23 15:25:17.117187500,60.0,-3.0,20.0,124.84765625,8.295,0.100193,32.59
2021-06-23 15:25:17.125000000,60.0,-3.0,20.0,124.8475,7.95,0.100193,32.59
2021-06-23 15:25:17.132812500,60.0,-3.0,20.0,124.84734375,7.475,0.100193,32.59
2021-06-23 15:25:17.140625000,60.0,-3.0,20.0,124.84718749999999,7.0,0.100193,32.59
2021-06-23 15:25:17.148437500,60.0,-3.0,20.0,124.84703125,6.32,0.100193,32.59
2021-06-23 15:25:17.156250000,60.0,-3.0,20.0,124.846875,5.64,0.100193,32.59
2021-06-23 15:25:17.164062500,60.0,-3.0,20.0,124.84671875,4.635,0.100193,32.59
2021-06-23 15:25:17.171875000,60.0,-3.0,20.0,124.84656249999999,3.63,0.100193,32.59
2021-06-23 15:25:17.179687500,60.0,-3.0,20.0,124.84640625,2.19,0.100193,32.59
2021-06-23 15:25:17.187500000,60.0,-3.0,20.0,124.84625,0.75,0.100193,32.59
2021-06-23 15:25:17.195312500,60.0,-3.0,20.0,124.84609375,-1.215,0.100193,32.59
2021-06-23 15:25:17.203125000,60.0,-3.0,20.0,124.84593749999999,-3.18,0.100193,32.59
2021-06-23 15:25:17.210937500,60.0,-3.0,20.0,124.84578125,-5.6,0.100193,32.59
2021-06-23 15:25:17.218750000,60.0,-3.0,20.0,124.845625,-8.02,0.100193,32.59
2021-06-23 15:25:17.226562500,60.0,-3.0,20.0,124.84546875,-10.649999999999999,0.100193,32.59
2021-06-23 15:25:17.234375000,60.0,-3.0,20.0,124.84531249999999,-13.28,0.100193,32.59
2021-06-23 15:25:17.242187500,60.0,-3.0,20.0,124.84515625,-15.684999999999999,0.100193,32.59
2021-06-23 15:25:17.250000000,60.0,-3.0,20.0,124.845,-18.09,0.100193,32.59
2021-06-23 15:25:17.257812500,60.0,-3.0,20.0,124.84484375,-19.72,0.1004331875,32.59
2021-06-23 15:25:17.265625000,60.0,-3.0,20.0,124.84468749999999,-21.35,0.10067337500000001,32.59
2021-06-23 15:25:17.273437500,60.0,-3.0,20.0,124.84453124999999,-21.745,0.1009135625,32.59
2021-06-23 15:25:17.281250000,60.0,-3.0,20.0,124.844375,-22.14,0.10115375,32.59
2021-06-23 15:25:17.289062500,60.0,-3.0,20.0,124.84421875,-21.060000000000002,0.1013939375,32.59
2021-06-23 15:25:17.296875000,60.0,-3.0,20.0,124.84406249999999,-19.98,0.101634125,32.59
2021-06-23 15:25:17.304687500,60.0,-3.0,20.0,124.84390624999999,-17.509999999999998,0.10187431250000001,32.59
2021-06-23 15:25:17.312500000,60.0,-3.0,20.0,124.84375,-15.04,0.1021145,32.59
2021-06-23 15:25:17.320312500,60.0,-3.0,20.0,124.84359375,-11.605,0.1023546875,32.59
2021-06-23 15:25:17.328125000,60.0,-3.0,20.0,124.8434375,-8.17,0.102594875,32.59
2021-06-23 15:25:17.335937500,60.0,-3.0,20.0,124.84328124999999,-4.37,0.1028350625,32.59
2021-06-23 15:25:17.343750000,60.0,-3.0,20.0,124.843125,-0.57,0.10307525000000001,32.59
2021-06-23 15:25:17.351562500,60.0,-3.0,20.0,124.84296875,2.95,0.10331543750000001,32.59
2021-06-23 15:25:17.359375000,60.0,-3.0,20.0,124.8428125,6.47,0.103555625,32.59
2021-06-23 15:25:17.367187500,60.0,-3.0,20.0,124.84265624999999,9.24,0.1037958125,32.59
2021-06-23 15:25:17.375000000,60.0,-3.0,20.0,124.8425,12.01,0.104036,32.59
2021-06-23 15:25:17.382812500,60.0,-3.0,20.0,124.84234375,13.79,0.1042761875,32.59
2021-06-23 15:25:17.390625000,60.0,-3.0,20.0,124.8421875,15.57,0.10451637500000001,32.59
2021-06-23 15:25:17.398437500,60.0,-3.0,20.0,124.84203124999999,16.380000000000003,0.1047565625,32.59
2021-06-23 15:25:17.406250000,60.0,-3.0,20.0,124.841875,17.19,0.10499675,32.59
2021-06-23 15:25:17.414062500,60.0,-3.0,20.0,124.84171875,17.19,0.1052369375,32.59
2021-06-23 15:25:17.421875000,60.0,-3.0,20.0,124.8415625,17.19,0.105477125,32.59
2021-06-23 15:25:17.429687500,60.0,-3.0,20.0,124.84140624999999,16.615000000000002,0.10571731250000001,32.59
2021-06-23 15:25:17.437500000,60.0,-3.0,20.0,124.84125,16.04,0.10595750000000001,32.59
2021-06-23 15:25:17.445312500,60.0,-3.0,20.0,124.84109375,15.105,0.1061976875,32.59
2021-06-23 15:25:17.453125000,60.0,-3.0,20.0,124.8409375,14.17,0.106437875,32.59
2021-06-23 15:25:17.460937500,60.0,-3.0,20.0,124.84078124999999,13.055,0.1066780625,32.59
2021-06-23 15:25:17.468750000,60.0,-3.0,20.0,124.840625,11.94,0.10691825,32.59
2021-06-23 15:25:17.476562500,60.0,-3.0,20.0,124.84046875,10.795,0.10715843750000001,32.59
2021-06-23 15:25:17.484375000,60.0,-3.0,20.0,124.8403125,9.65,0.107398625,32.59
2021-06-23 15:25:17.492187500,60.0,-3.0,20.0,124.84015624999999,8.6,0.1076388125,32.59
2021-06-23 15:25:17.500000000,60.0,-3.0,20.0,124.84,7.55,0.107879,32.59
2021-06-23 15:25:17.507812500,60.0,-3.0,20.0,124.83984375,6.695,0.1076388125,32.59
2021-06-23 15:25:17.515625000,60.0,-3.0,20.0,124.8396875,5.84,0.107398625,32.59
2021-06-23 15:25:17.523437500,60.0,-3.0,20.0,124.83953125,5.245,0.10715843750000001,32.59
2021-06-23 15:25:17.531250000,60.0,-3.0,20.0,124.83937499999999,4.65,0.10691825,32.59
2021-06-23 15:25:17.539062500,60.0,-3.0,20.0,124.83921875,4.34,0.1066780625,32.59
2021-06-23 15:25:17.546875000,60.0,-3.0,20.0,124.8390625,4.03,0.106437875,32.59
2021-06-23 15:25:17.554687500,60.0,-3.0,20.0,124.83890625,3.95,0.1061976875,32.59
2021-06-23 15:25:17.562500000,60.0,-3.0,20.0,124.83874999999999,3.87,0.10595750000000001,32.59
2021-06-23 15:25:17.570312500,60.0,-3.0,20.0,124.83859375,3.91,0.10571731250000001,32.59
2021-06-23 15:25:17.578125000,60.0,-3.0,20.0,124.8384375,3.95,0.105477125,32.59
2021-06-23 15:25:17.585937500,60.0,-3.0,20.0,124.83828125,3.98,0.1052369375,32.59
2021-06-23 15:25:17.593750000,60.0,-3.0,20.0,124.83812499999999,4.01,0.10499675,32.59
2021-06-23 15:25:17.601562500,60.0,-3.0,20.0,124.83796875,3.88,0.1047565625,32.59
2021-06-23 15:25:17.609375000,60.0,-3.0,20.0,124.8378125,3.75,0.10451637500000001,32.59
2021-06-23 15:25:17.617187500,60.0,-3.0,20.0,124.83765625,3.3449999999999998,0.1042761875,32.59
2021-06-23 15:25:17.625000000,60.0,-3.0,20.0,124.83749999999999,2.94,0.104036,32.59
2021-06-23 15:25:17.632812500,60.0,-3.0,20.0,124.83734375,2.19,0.1037958125,32.59
2021-06-23 15:25:17.640625000,60.0,-3.0,20.0,124.8371875,1.44,0.103555625,32.59
2021-06-23 15:25:17.648437500,60.0,-3.0,20.0,124.83703125,0.345,0.10331543750000001,32.59
2021-06-23 15:25:17.656250000,60.0,-3.0,20.0,124.83687499999999,-0.75,0.10307525000000001,32.59
2021-06-23 15:25:17.664062500,60.0,-3.0,20.0,124.83671875,-2.16,0.1028350625,32.59
2021-06-23 15:25:17.671875000,60.0,-3.0,20.0,124.8365625,-3.57,0.102594875,32.59
2021-06-23 15:25:17.679687500,60.0,-3.0,20.0,124.83640625,-5.225,0.1023546875,32.59
2021-06-23 15:25:17.687500000,60.0,-3.0,20.0,124.83624999999999,-6.88,0.1021145,32.59
2021-06-23 15:25:17.695312500,60.0,-3.0,20.0,124.83609375,-8.68,0.10187431250000001,32.59
2021-06-23 15:25:17.703125000,60.0,-3.0,20.0,124.8359375,-10.48,0.101634125,32.59
2021-06-23 15:25:17.710937500,60.0,-3.0,20.0,124.83578125,-12.27,0.1013939375,32.59
2021-06-23 15:25:17.718750000,60.0,-3.0,20.0,124.835625,-14.06,0.10115375,32.59
2021-06-23 15:25:17.726562500,60.0,-3.0,20.0,124.83546875,-15.605,0.1009135625,32.59
2021-06-23 15:25:17.734375000,60.0,-3.0,20.0,124.8353125,-17.15,0.10067337500000001,32.59
2021-06-23 15:25:17.742187500,60.0,-3.0,20.0,124.83515625,-18.13,0.1004331875,32.59
2021-06-23 15:25:17.750000000,60.0,-3.0,20.0,124.835,-19.11,0.100193,32.59
2021-06-23 15:25:17.757812500,60.0,-3.0,20.0,124.83484374999999,-19.21,0.10031309375,32.59
2021-06-23 15:25:17.765625000,60.0,-3.0,20.0,124.8346875,-19.31,0.1004331875,32.59
2021-06-23 15:25:17.773437500,60.0,-3.0,20.0,124.83453125,-18.335,0.10055328125,32.59
2021-06-23 15:25:17.781250000,60.0,-3.0,20.0,124.834375,-17.36,0.10067337500000001,32.59
2021-06-23 15:25:17.789062500,60.0,-3.0,20.0,124.83421874999999,-15.335,0.10079346875,32.59
2021-06-23 15:25:17.796875000,60.0,-3.0,20.0,124.8340625,-13.31,0.1009135625,32.59
2021-06-23 15:25:17.804687500,60.0,-3.0,20.0,124.83390625,-10.530000000000001,0.10103365625,32.59
2021-06-23 15:25:17.812500000,60.0,-3.0,20.0,124.83375,-7.75,0.10115375,32.59
2021-06-23 15:25:17.820312500,60.0,-3.0,20.0,124.83359374999999,-4.695,0.10127384375000001,32.59
2021-06-23 15:25:17.828125000,60.0,-3.0,20.0,124.8334375,-1.64,0.1013939375,32.59
2021-06-23 15:25:17.835937500,60.0,-3.0,20.0,124.83328125,1.1849999999999998,0.10151403125,32.59
2021-06-23 15:25:17.843750000,60.0,-3.0,20.0,124.833125,4.01,0.101634125,32.59
2021-06-23 15:25:17.851562500,60.0,-3.0,20.0,124.83296874999999,6.24,0.10175421875,32.59
2021-06-23 15:25:17.859375000,60.0,-3.0,20.0,124.8328125,8.47,0.10187431250000001,32.59
2021-06-23 15:25:17.867187500,60.0,-3.0,20.0,124.83265625,9.975000000000001,0.10199440625,32.59
2021-06-23 15:25:17.875000000,60.0,-3.0,20.0,124.8325,11.48,0.1021145,32.59
2021-06-23 15:25:17.882812500,60.0,-3.0,20.0,124.83234374999999,12.355,0.10223459375,32.59
2021-06-23 15:25:17.890625000,60.0,-3.0,20.0,124.8321875,13.23,0.1023546875,32.59
2021-06-23 15:25:17.898437500,60.0,-3.0,20.0,124.83203125,13.67,0.10247478125000001,32.59
2021-06-23 15:25:17.906250000,60.0,-3.0,20.0,124.831875,14.11,0.102594875,32.59
2021-06-23 15:25:17.914062500,60.0,-2.75,20.0,124.83171875,14.335,0.10271496875000001,32.59
2021-06-23 15:25:17.921875000,60.0,-2.5,20.0,124.8315625,14.56,0.1028350625,32.59
2021-06-23 15:25:17.929687500,60.0,-2.25,20.0,124.83140625,14.675,0.10295515625,32.59
2021-06-23 15:25:17.937500000,60.0,-2.0,20.0,124.83125,14.79,0.10307525000000001,32.59
2021-06-23 15:25:17.945312500,60.0,-2.25,20.0,124.83109375,14.815,0.10319534375,32.59
2021-06-23 15:25:17.953125000,60.0,-2.5,20.0,124.8309375,14.84,0.10331543750000001,32.59
2021-06-23 15:25:17.960937500,60.0,-2.75,20.0,124.83078125,14.73,0.10343553125,32.59
2021-06-23 15:25:17.968750000,60.0,-3.0,20.0,124.830625,14.62,0.103555625,32.59
2021-06-23 15:25:17.976562500,60.0,-3.0,20.0,124.83046875,14.34,0.10367571875,32.59
2021-06-23 15:25:17.984375000,60.0,-3.0,20.0,124.8303125,14.06,0.1037958125,32.59
2021-06-23 15:25:17.992187500,60.0,-3.0,20.0,124.83015625,13.635000000000002,0.10391590625000001,32.59
2021-06-23 15:25:18.000000000,60.0,-3.0,20.0,124.83,13.21,0.104036,32.59
2021-06-23 15:25:18.007812500,60.0,-3.0,20.0,124.829921875,12.725000000000001,0.10391590625000001,32.589375000000004
2021-06-23 15:25:18.015625000,60.0,-3.0,20.0,124.82984375,12.24,0.1037958125,32.588750000000005
2021-06-23 15:25:18.023437500,60.0,-3.0,20.0,124.829765625,11.82,0.10367571875,32.588125000000005
2021-06-23 15:25:18.031250000,60.0,-3.0,20.0,124.82968749999999,11.4,0.103555625,32.587500000000006
2021-06-23 15:25:18.039062500,60.0,-3.0,20.0,124.829609375,11.100000000000001,0.10343553125,32.586875000000006
2021-06-23 15:25:18.046875000,60.0,-3.0,20.0,124.82953125,10.8,0.10331543750000001,32.58625
2021-06-23 15:25:18.054687500,60.0,-3.0,20.0,124.829453125,10.620000000000001,0.10319534375,32.585625
2021-06-23 15:25:18.062500000,60.0,-3.0,20.0,124.829375,10.44,0.10307525000000001,32.585
2021-06-23 15:25:18.070312500,60.0,-3.0,20.0,124.829296875,10.29,0.10295515625,32.584375
2021-06-23 15:25:18.078125000,60.0,-3.0,20.0,124.82921875,10.14,0.1028350625,32.58375
2021-06-23 15:25:18.085937500,60.0,-3.0,20.0,124.829140625,9.9,0.10271496875000001,32.583125
2021-06-23 15:25:18.093750000,60.0,-3.0,20.0,124.82906249999999,9.66,0.102594875,32.5825
2021-06-23 15:25:18.101562500,60.0,-3.0,20.0,124.828984375,9.26,0.10247478125000001,32.581875000000004
2021-06-23 15:25:18.109375000,60.0,-3.0,20.0,124.82890625,8.86,0.1023546875,32.581250000000004
2021-06-23 15:25:18.117187500,60.0,-3.0,20.0,124.828828125,8.26,0.10223459375,32.580625000000005
2021-06-23 15:25:18.125000000,60.0,-3.0,20.0,124.82875,7.66,0.1021145,32.58
2021-06-23 15:25:18.132812500,60.0,-3.0,20.0,124.828671875,6.845000000000001,0.10199440625,32.579375
2021-06-23 15:25:18.140625000,60.0,-3.0,20.0,124.82859375,6.03,0.10187431250000001,32.57875
2021-06-23 15:25:18.148437500,60.0,-3.0,20.0,124.828515625,4.95,0.10175421875,32.578125
2021-06-23 15:25:18.156250000,60.0,-3.0,20.0,124.82843749999999,3.87,0.101634125,32.5775
2021-06-23 15:25:18.164062500,60.0,-3.0,20.0,124.82835937499999,2.44,0.10151403125,32.576875
2021-06-23 15:25:18.171875000,60.0,-3.0,20.0,124.82828125,1.01,0.1013939375,32.57625
2021-06-23 15:25:18.179687500,60.0,-3.0,20.0,124.828203125,-0.8200000000000001,0.10127384375000001,32.575625
2021-06-23 15:25:18.187500000,60.0,-3.0,20.0,124.828125,-2.65,0.10115375,32.575
2021-06-23 15:25:18.195312500,60.0,-3.0,20.0,124.828046875,-4.775,0.10103365625,32.574375
2021-06-23 15:25:18.203125000,60.0,-3.0,20.0,124.82796875,-6.9,0.1009135625,32.573750000000004
2021-06-23 15:25:18.210937500,60.0,-3.0,20.0,124.827890625,-8.965,0.10079346875,32.573125
2021-06-23 15:25:18.218750000,60.0,-3.0,20.0,124.8278125,-11.03,0.10067337500000001,32.5725
2021-06-23 15:25:18.226562500,60.0,-3.0,20.0,124.82773437499999,-12.485,0.10055328125,32.571875
2021-06-23 15:25:18.234375000,60.0,-3.0,20.0,124.82765625,-13.94,0.1004331875,32.57125
2021-06-23 15:25:18.242187500,60.0,-3.0,20.0,124.827578125,-14.25,0.10031309375,32.570625
2021-06-23 15:25:18.250000000,60.0,-3.0,20.0,124.8275,-14.56,0.100193,32.57
2021-06-23 15:25:18.257812500,60.0,-3.0,20.0,124.827421875,-13.440000000000001,0.10031309375,32.57
2021-06-23 15:25:18.265625000,60.0,-3.0,20.0,124.82734375,-12.32,0.1004331875,32.57
2021-06-23 15:25:18.273437500,60.0,-3.0,20.0,124.827265625,-9.905000000000001,0.10055328125,32.57
2021-06-23 15:25:18.281250000,60.0,-3.0,20.0,124.8271875,-7.49,0.10067337500000001,32.57
2021-06-23 15:25:18.289062500,60.0,-3.0,20.0,124.82710937499999,-4.300000000000001,0.10079346875,32.57
2021-06-23 15:25:18.296875000,60.0,-3.0,20.0,124.82703124999999,-1.11,0.1009135625,32.57
2021-06-23 15:25:18.304687500,60.0,-3.0,20.0,124.826953125,2.175,0.10103365625,32.57
2021-06-23 15:25:18.312500000,60.0,-3.0,20.0,124.826875,5.46,0.10115375,32.57
2021-06-23 15:25:18.320312500,60.0,-3.0,20.0,124.826796875,8.225,0.10127384375000001,32.57
2021-06-23 15:25:18.328125000,60.0,-3.0,20.0,124.82671875,10.99,0.1013939375,32.57
2021-06-23 15:25:18.335937500,60.0,-3.0,20.0,124.826640625,12.925,0.10151403125,32.57
2021-06-23 15:25:18.343750000,60.0,-3.0,20.0,124.8265625,14.86,0.101634125,32.57
2021-06-23 15:25:18.351562500,60.0,-3.0,20.0,124.82648437499999,15.92,0.10175421875,32.57
2021-06-23 15:25:18.359375000,60.0,-3.0,20.0,124.82640624999999,16.98,0.10187431250000001,32.57
2021-06-23 15:25:18.367187500,60.0,-3.0,20.0,124.826328125,17.335,0.10199440625,32.57
2021-06-23 15:25:18.375000000,60.0,-3.0,20.0,124.82625,17.69,0.1021145,32.57
2021-06-23 15:25:18.382812500,60.0,-3.0,20.0,124.826171875,17.55,0.10223459375,32.57
2021-06-23 15:25:18.390625000,60.0,-3.0,20.0,124.82609375,17.41,0.1023546875,32.57
2021-06-23 15:25:18.398437500,60.0,-3.0,20.0,124.826015625,16.955,0.10247478125000001,32.57
2021-06-23 15:25:18.406250000,60.0,-3.0,20.0,124.8259375,16.5,0.102594875,32.57
2021-06-23 15:25:18.414062500,60.0,-3.0,20.0,124.825859375,15.84,0.10271496875000001,32.57
2021-06-23 15:25:18.421875000,60.0,-3.0,20.0,124.82578124999999,15.18,0.1028350625,32.57
2021-06-23 15:25:18.429687500,60.0,-3.0,20.0,124.82570312499999,14.42,0.10295515625,32.57
2021-06-23 15:25:18.437500000,60.0,-3.0,20.0,124.825625,13.66,0.10307525000000001,32.57
2021-06-23 15:25:18.445312500,60.0,-3.0,20.0,124.825546875,12.89,0.10319534375,32.57
2021-06-23 15:25:18.453125000,60.0,-3.0,20.0,124.82546875,12.12,0.10331543750000001,32.57
2021-06-23 15:25:18.460937500,60.0,-3.0,20.0,124.825390625,11.425,0.10343553125,32.57
2021-06-23 15:25:18.468750000,60.0,-3.0,20.0,124.8253125,10.73,0.103555625,32.57
2021-06-23 15:25:18.476562500,60.0,-3.0,20.0,124.825234375,10.129999999999999,0.10367571875,32.57
2021-06-23 15:25:18.484375000,60.0,-3.0,20.0,124.82515624999999,9.53,0.1037958125,32.57
2021-06-23 15:25:18.492187500,60.0,-3.0,20.0,124.82507812499999,9.01,0.10391590625000001,32.57
2021-06-23 15:25:18.500000000,60.0,-3.0,20.0,124.82499999999999,8.49,0.104036,32.57
2021-06-23 15:25:18.507812500,60.0,-3.0,20.0,124.824921875,8.004999999999999,0.103875875,32.57
2021-06-23 15:25:18.515625000,60.0,-3.0,20.0,124.82484375,7.52,0.10371575000000001,32.57
2021-06-23 15:25:18.523437500,60.0,-3.0,20.0,124.824765625,7.02,0.103555625,32.57
2021-06-23 15:25:18.531250000,60.0,-3.0,20.0,124.8246875,6.52,0.1033955,32.57
2021-06-23 15:25:18.539062500,60.0,-3.0,20.0,124.824609375,5.98,0.103235375,32.57
2021-06-23 15:25:18.546875000,60.0,-3.0,20.0,124.82453124999999,5.44,0.10307525000000001,32.57
2021-06-23 15:25:18.554687500,60.0,-3.0,20.0,124.82445312499999,4.84,0.102915125,32.57
2021-06-23 15:25:18.562500000,60.0,-3.0,20.0,124.82437499999999,4.24,0.102755,32.57
2021-06-23 15:25:18.570312500,60.0,-3.0,20.0,124.824296875,3.59,0.102594875,32.57
2021-06-23 15:25:18.578125000,60.0,-3.0,20.0,124.82421875,2.94,0.10243475,32.57
2021-06-23 15:25:18.585937500,60.0,-3.0,20.0,124.824140625,2.225,0.10227462500000001,32.57
2021-06-23 15:25:18.593750000,60.0,-3.0,20.0,124.8240625,1.51,0.1021145,32.57
2021-06-23 15:25:18.601562500,60.0,-3.0,20.0,124.823984375,0.72,0.101954375,32.57
2021-06-23 15:25:18.609375000,60.0,-3.0,20.0,124.82390625,-0.07,0.10179425,32.57
2021-06-23 15:25:18.617187500,60.0,-3.0,20.0,124.82382812499999,-0.9749999999999999,0.101634125,32.57
2021-06-23 15:25:18.625000000,60.0,-3.0,20.0,124.82374999999999,-1.88,0.10147400000000001,32.57
2021-06-23 15:25:18.632812500,60.0,-3.0,20.0,124.82367187499999,-2.925,0.101313875,32.57
2021-06-23 15:25:18.640625000,60.0,-3.0,20.0,124.82359375,-3.97,0.10115375,32.57
2021-06-23 15:25:18.648437500,60.0,-3.0,20.0,124.823515625,-5.17,0.100993625,32.57
2021-06-23 15:25:18.656250000,60.0,-3.0,20.0,124.8234375,-6.37,0.1008335,32.57
2021-06-23 15:25:18.664062500,60.0,-3.0,20.0,124.823359375,-7.665000000000001,0.100673375,32.57
2021-06-23 15:25:18.671875000,60.0,-3.0,20.0,124.82328125,-8.96,0.10051325,32.57
2021-06-23 15:25:18.679687500,60.0,-3.0,20.0,124.82320312499999,-10.205,0.100353125,32.57
2021-06-23 15:25:18.687500000,60.0,-3.0,20.0,124.82312499999999,-11.45,0.100193,32.57
2021-06-23 15:25:18.695312500,60.0,-3.0,20.0,124.82304687499999,-12.39,0.100032875,32.57
2021-06-23 15:25:18.703125000,60.0,-3.0,20.0,124.82296875,-13.33,0.09987275,32.57
2021-06-23 15:25:18.710937500,60.0,-3.0,20.0,124.822890625,-13.690000000000001,0.099712625,32.57
2021-06-23 15:25:18.718750000,60.0,-3.0,20.0,124.8228125,-14.05,0.0995525,32.57
2021-06-23 15:25:18.726562500,60.0,-3.0,20.0,124.822734375,-13.63,0.099392375,32.57
2021-06-23 15:25:18.734375000,60.0,-3.0,20.0,124.82265625,-13.21,0.09923225,32.57
2021-06-23 15:25:18.742187500,60.0,-3.0,20.0,124.82257812499999,-12.015,0.099072125,32.57
2021-06-23 15:25:18.750000000,60.0,-3.0,20.0,124.82249999999999,-10.82,0.098912,32.57
2021-06-23 15:25:18.757812500,60.0,-3.0,19.75,124.82242187499999,-9.045,0.0988719375,32.57
2021-06-23 15:25:18.765625000,60.0,-3.0,19.5,124.82234374999999,-7.27,0.098831875,32.57
2021-06-23 15:25:18.773437500,60.0,-3.0,19.25,124.822265625,-5.27,0.09879181249999999,32.57
2021-06-23 15:25:18.781250000,60.0,-3.0,19.0,124.8221875,-3.27,0.09875175,32.57
2021-06-23 15:25:18.789062500,60.0,-3.0,19.0,124.822109375,-1.425,0.0987116875,32.57
2021-06-23 15:25:18.796875000,60.0,-3.0,19.0,124.82203125,0.42,0.098671625,32.57
2021-06-23 15:25:18.804687500,60.0,-3.0,19.0,124.821953125,1.8699999999999999,0.09863156249999999,32.57
2021-06-23 15:25:18.812500000,60.0,-3.0,19.0,124.82187499999999,3.32,0.0985915,32.57
2021-06-23 15:25:18.820312500,60.0,-3.0,19.25,124.82179687499999,4.295,0.0985514375,32.57
2021-06-23 15:25:18.828125000,60.0,-3.0,19.5,124.82171874999999,5.27,0.098511375,32.57
2021-06-23 15:25:18.835937500,60.0,-3.0,19.75,124.821640625,5.845,0.09847131249999999,32.57
2021-06-23 15:25:18.843750000,60.0,-3.0,20.0,124.8215625,6.42,0.09843125,32.57
2021-06-23 15:25:18.851562500,60.0,-3.0,20.0,124.821484375,6.7,0.0983911875,32.57
2021-06-23 15:25:18.859375000,60.0,-3.0,20.0,124.82140625,6.98,0.098351125,32.57
2021-06-23 15:25:18.867187500,60.0,-3.0,20.0,124.821328125,7.0600000000000005,0.09831106249999999,32.57
2021-06-23 15:25:18.875000000,60.0,-3.0,20.0,124.82124999999999,7.14,0.098271,32.57
2021-06-23 15:25:18.882812500,60.0,-3.0,19.75,124.82117187499999,7.04,0.0982309375,32.57
2021-06-23 15:25:18.890625000,60.0,-3.0,19.5,124.82109374999999,6.94,0.098190875,32.57
2021-06-23 15:25:18.898437500,60.0,-3.0,19.25,124.82101562499999,6.645,0.09815081249999999,32.57
2021-06-23 15:25:18.906250000,60.0,-3.0,19.0,124.8209375,6.35,0.09811075,32.57
2021-06-23 15:25:18.914062500,60.0,-3.0,19.25,124.820859375,5.824999999999999,0.0980706875,32.57
2021-06-23 15:25:18.921875000,60.0,-3.0,19.5,124.82078125,5.3,0.098030625,32.57
2021-06-23 15:25:18.929687500,60.0,-3.0,19.75,124.820703125,4.575,0.09799056249999999,32.57
2021-06-23 15:25:18.937500000,60.0,-3.0,20.0,124.82062499999999,3.85,0.0979505,32.57
2021-06-23 15:25:18.945312500,60.0,-3.0,19.75,124.82054687499999,3.005,0.0979104375,32.57
2021-06-23 15:25:18.953125000,60.0,-3.0,19.5,124.82046874999999,2.16,0.097870375,32.57
2021-06-23 15:25:18.960937500,60.0,-3.0,19.25,124.82039062499999,1.335,0.09783031249999999,32.57
2021-06-23 15:25:18.968750000,60.0,-3.0,19.0,124.8203125,0.51,0.09779025,32.57
2021-06-23 15:25:18.976562500,60.0,-3.0,19.0,124.820234375,-0.125,0.0977501875,32.57
2021-06-23 15:25:18.984375000,60.0,-3.0,19.0,124.82015625,-0.76,0.097710125,32.57
2021-06-23 15:25:18.992187500,60.0,-3.0,19.0,124.820078125,-1.06,0.09767006249999999,32.57
2021-06-23 15:25:19.000000000,60.0,-3.0,19.0,124.82,-1.36,0.09763,32.57
2021-06-23 15:25:19.007812500,60.0,-3.0,19.25,124.81984374999999,-1.235,0.0978301875,32.57
2021-06-23 15:25:19.015625000,60.0,-3.0,19.5,124.81968749999999,-1.11,0.09803037499999999,32.57
2021-06-23 15:25:19.023437500,60.0,-3.0,19.75,124.81953125,-0.5850000000000001,0.0982305625,32.57
2021-06-23 15:25:19.031250000,60.0,-3.0,20.0,124.819375,-0.06,0.09843075,32.57
2021-06-23 15:25:19.039062500,60.0,-3.0,19.75,124.81921874999999,0.72,0.0986309375,32.57
2021-06-23 15:25:19.046875000,60.0,-3.0,19.5,124.81906249999999,1.5,0.09883112499999999,32.57
2021-06-23 15:25:19.054687500,60.0,-3.0,19.25,124.81890625,2.315,0.0990313125,32.57
2021-06-23 15:25:19.062500000,60.0,-3.0,19.0,124.81875,3.13,0.0992315,32.57
2021-06-23 15:25:19.070312500,60.0,-3.0,19.0,124.81859374999999,3.695,0.09943168749999999,32.57
2021-06-23 15:25:19.078125000,60.0,-3.0,19.0,124.81843749999999,4.26,0.099631875,32.57
2021-06-23 15:25:19.085937500,60.0,-3.0,19.0,124.81828125,4.33,0.0998320625,32.57
2021-06-23 15:25:19.093750000,60.0,-3.0,19.0,124.818125,4.4,0.10003225,32.57
2021-06-23 15:25:19.101562500,60.0,-3.0,19.25,124.81796874999999,3.7750000000000004,0.1002324375,32.57
2021-06-23 15:25:19.109375000,60.0,-3.0,19.5,124.81781249999999,3.15,0.100432625,32.57
2021-06-23 15:25:19.117187500,60.0,-3.0,19.75,124.81765625,1.7349999999999999,0.1006328125,32.57
2021-06-23 15:25:19.125000000,60.0,-3.0,20.0,124.8175,0.32,0.100833,32.57
2021-06-23 15:25:19.132812500,60.0,-3.0,20.0,124.81734374999999,-1.825,0.1010331875,32.57
2021-06-23 15:25:19.140625000,60.0,-3.0,20.0,124.81718749999999,-3.97,0.101233375,32.57
2021-06-23 15:25:19.148437500,60.0,-3.0,20.0,124.81703125,-6.619999999999999,0.1014335625,32.57
2021-06-23 15:25:19.156250000,60.0,-3.0,20.0,124.816875,-9.27,0.10163375,32.57
2021-06-23 15:25:19.164062500,60.0,-3.0,20.0,124.81671874999999,-12.01,0.1018339375,32.57
2021-06-23 15:25:19.171875000,60.0,-3.0,20.0,124.81656249999999,-14.75,0.102034125,32.57
2021-06-23 15:25:19.179687500,60.0,-3.0,20.0,124.81640625,-17.05,0.10223431250000001,32.57
2021-06-23 15:25:19.187500000,60.0,-3.0,20.0,124.81625,-19.35,0.1024345,32.57
2021-06-23 15:25:19.195312500,60.0,-3.0,20.0,124.81609375,-20.705,0.1026346875,32.57
2021-06-23 15:25:19.203125000,60.0,-3.0,20.0,124.81593749999999,-22.06,0.102834875,32.57
2021-06-23 15:25:19.210937500,60.0,-3.0,20.0,124.81578125,-22.16,0.1030350625,32.57
2021-06-23 15:25:19.218750000,60.0,-3.0,20.0,124.815625,-22.26,0.10323525,32.57
2021-06-23 15:25:19.226562500,60.0,-3.0,20.0,124.81546875,-21.095,0.1034354375,32.57
2021-06-23 15:25:19.234375000,60.0,-3.0,20.0,124.81531249999999,-19.93,0.10363562500000001,32.57
2021-06-23 15:25:19.242187500,60.0,-3.0,20.0,124.81515625,-17.795,0.1038358125,32.57
2021-06-23 15:25:19.250000000,60.0,-3.0,20.0,124.815,-15.66,0.104036,32.57
2021-06-23 15:25:19.257812500,60.0,-3.0,20.0,124.81484375,-13.06,0.1038358125,32.57
2021-06-23 15:25:19.265625000,60.0,-3.0,20.0,124.81468749999999,-10.46,0.10363562500000001,32.57
2021-06-23 15:25:19.273437500,60.0,-3.0,20.0,124.81453124999999,-7.915000000000001,0.1034354375,32.57
2021-06-23 15:25:19.281250000,60.0,-3.0,20.0,124.814375,-5.37,0.10323525,32.57
2021-06-23 15:25:19.289062500,60.0,-3.0,20.0,124.81421875,-3.29,0.1030350625,32.57
2021-06-23 15:25:19.296875000,60.0,-3.0,20.0,124.81406249999999,-1.21,0.102834875,32.57
2021-06-23 15:25:19.304687500,60.0,-3.0,20.0,124.81390624999999,0.20000000000000018,0.1026346875,32.57
2021-06-23 15:25:19.312500000,60.0,-3.0,20.0,124.81375,1.61,0.1024345,32.57
2021-06-23 15:25:19.320312500,60.0,-3.0,20.0,124.81359375,2.335,0.10223431250000001,32.57
2021-06-23 15:25:19.328125000,60.0,-3.0,20.0,124.81343749999999,3.06,0.102034125,32.57
2021-06-23 15:25:19.335937500,60.0,-3.0,20.0,124.81328124999999,3.2199999999999998,0.1018339375,32.57
2021-06-23 15:25:19.343750000,60.0,-3.0,20.0,124.813125,3.38,0.10163375,32.57
2021-06-23 15:25:19.351562500,60.0,-2.75,20.0,124.81296875,3.1399999999999997,0.1014335625,32.57
2021-06-23 15:25:19.359375000,60.0,-2.5,20.0,124.81281249999999,2.9,0.101233375,32.57
2021-06-23 15:25:19.367187500,60.0,-2.25,20.0,124.81265624999999,2.435,0.1010331875,32.57
2021-06-23 15:25:19.375000000,60.0,-2.0,20.0,124.8125,1.97,0.100833,32.57
2021-06-23 15:25:19.382812500,60.0,-2.25,20.0,124.81234375,1.42,0.1006328125,32.57
2021-06-23 15:25:19.390625000,60.0,-2.5,20.0,124.8121875,0.87,0.100432625,32.57
2021-06-23 15:25:19.398437500,60.0,-2.75,20.0,124.81203124999999,0.36,0.1002324375,32.57
2021-06-23 15:25:19.406250000,60.0,-3.0,20.0,124.811875,-0.15,0.10003225,32.57
2021-06-23 15:25:19.414062500,60.0,-3.0,20.0,124.81171875,-0.5549999999999999,0.0998320625,32.57
2021-06-23 15:25:19.421875000,60.0,-3.0,20.0,124.8115625,-0.96,0.099631875,32.57
2021-06-23 15:25:19.429687500,60.0,-3.0,20.0,124.81140624999999,-1.185,0.0994316875,32.57
2021-06-23 15:25:19.437500000,60.0,-3.0,20.0,124.81125,-1.41,0.0992315,32.57
2021-06-23 15:25:19.445312500,60.0,-3.0,20.0,124.81109375,-1.46,0.0990313125,32.57
2021-06-23 15:25:19.453125000,60.0,-3.0,20.0,124.8109375,-1.51,0.09883112499999999,32.57
2021-06-23 15:25:19.460937500,60.0,-3.0,20.0,124.81078124999999,-1.3900000000000001,0.0986309375,32.57
2021-06-23 15:25:19.468750000,60.0,-3.0,20.0,124.810625,-1.27,0.09843075,32.57
2021-06-23 15:25:19.476562500,60.0,-3.0,20.0,124.81046875,-1.075,0.0982305625,32.57
2021-06-23 15:25:19.484375000,60.0,-3.0,20.0,124.8103125,-0.88,0.09803037499999999,32.57
2021-06-23 15:25:19.492187500,60.0,-3.0,20.0,124.81015624999999,-0.725,0.0978301875,32.57
2021-06-23 15:25:19.500000000,60.0,-3.0,20.0,124.81,-0.57,0.09763,32.57
2021-06-23 15:25:19.507812500,60.0,-3.0,20.0,124.80984375,-0.6,0.09787021874999999,32.57
2021-06-23 15:25:19.515625000,60.0,-3.0,20.0,124.8096875,-0.63,0.0981104375,32.57
2021-06-23 15:25:19.523437500,60.0,-3.0,20.0,124.80953124999999,-0.915,0.09835065625,32.57
2021-06-23 15:25:19.531250000,60.0,-3.0,20.0,124.80937499999999,-1.2,0.098590875,32.57
2021-06-23 15:25:19.539062500,60.0,-3.0,20.0,124.80921875,-1.775,0.09883109374999999,32.57
2021-06-23 15:25:19.546875000,60.0,-3.0,20.0,124.8090625,-2.35,0.0990713125,32.57
2021-06-23 15:25:19.554687500,60.0,-3.0,20.0,124.80890624999999,-3.145,0.09931153125,32.57
2021-06-23 15:25:19.562500000,60.0,-3.0,20.0,124.80874999999999,-3.94,0.09955175,32.57
2021-06-23 15:25:19.570312500,60.0,-3.0,20.0,124.80859375,-4.89,0.09979196874999999,32.57
2021-06-23 15:25:19.578125000,60.0,-3.0,20.0,124.8084375,-5.84,0.1000321875,32.57
2021-06-23 15:25:19.585937500,60.0,-3.0,20.0,124.80828125,-6.91,0.10027240625,32.57
2021-06-23 15:25:19.593750000,60.0,-3.0,20.0,124.80812499999999,-7.98,0.100512625,32.57
2021-06-23 15:25:19.601562500,60.0,-3.0,20.0,124.80796875,-9.215,0.10075284374999999,32.57
2021-06-23 15:25:19.609375000,60.0,-3.0,20.0,124.8078125,-10.45,0.1009930625,32.57
2021-06-23 15:25:19.617187500,60.0,-3.0,20.0,124.80765625,-11.895,0.10123328125,32.57
2021-06-23 15:25:19.625000000,60.0,-3.0,20.0,124.80749999999999,-13.34,0.1014735,32.57
2021-06-23 15:25:19.632812500,60.0,-3.0,20.0,124.80734375,-14.945,0.10171371874999999,32.57
2021-06-23 15:25:19.640625000,60.0,-3.0,20.0,124.8071875,-16.55,0.1019539375,32.57
2021-06-23 15:25:19.648437500,60.0,-3.0,20.0,124.80703125,-18.085,0.10219415625,32.57
2021-06-23 15:25:19.656250000,60.0,-3.0,20.0,124.80687499999999,-19.62,0.102434375,32.57
2021-06-23 15:25:19.664062500,60.0,-3.0,20.0,124.80671875,-20.72,0.10267459374999999,32.57
2021-06-23 15:25:19.671875000,60.0,-3.0,20.0,124.8065625,-21.82,0.1029148125,32.57
2021-06-23 15:25:19.679687500,60.0,-3.0,20.0,124.80640625,-22.085,0.10315503125,32.57
2021-06-23 15:25:19.687500000,60.0,-3.0,20.0,124.80624999999999,-22.35,0.10339525,32.57
2021-06-23 15:25:19.695312500,60.0,-3.0,20.0,124.80609375,-21.515,0.10363546874999999,32.57
2021-06-23 15:25:19.703125000,60.0,-3.0,20.0,124.8059375,-20.68,0.1038756875,32.57
2021-06-23 15:25:19.710937500,60.0,-3.0,20.0,124.80578125,-18.79,0.10411590625,32.57
2021-06-23 15:25:19.718750000,60.0,-3.0,20.0,124.80562499999999,-16.9,0.104356125,32.57
2021-06-23 15:25:19.726562500,60.0,-2.75,20.0,124.80546875,-14.299999999999999,0.10459634374999999,32.57
2021-06-23 15:25:19.734375000,60.0,-2.5,20.0,124.8053125,-11.7,0.1048365625,32.57
2021-06-23 15:25:19.742187500,60.0,-2.25,20.0,124.80515625,-8.934999999999999,0.10507678125,32.57
2021-06-23 15:25:19.750000000,60.0,-2.0,20.0,124.80499999999999,-6.17,0.105317,32.57
2021-06-23 15:25:19.757812500,60.0,-2.25,20.0,124.80484374999999,-3.78,0.10511684375,32.57
2021-06-23 15:25:19.765625000,60.0,-2.5,20.0,124.8046875,-1.39,0.1049166875,32.57
2021-06-23 15:25:19.773437500,60.0,-2.75,20.0,124.80453125,0.2550000000000001,0.10471653125,32.57
2021-06-23 15:25:19.781250000,60.0,-3.0,20.0,124.804375,1.9,0.104516375,32.57
2021-06-23 15:25:19.789062500,60.0,-3.0,20.0,124.80421874999999,2.6550000000000002,0.10431621875,32.57
2021-06-23 15:25:19.796875000,60.0,-3.0,20.0,124.8040625,3.41,0.1041160625,32.57
2021-06-23 15:25:19.804687500,60.0,-3.0,20.0,124.80390625,3.365,0.10391590625,32.57
2021-06-23 15:25:19.812500000,60.0,-3.0,20.0,124.80375,3.32,0.10371575,32.57
2021-06-23 15:25:19.820312500,60.0,-2.75,20.0,124.80359374999999,2.6799999999999997,0.10351559375,32.57
2021-06-23 15:25:19.828125000,60.0,-2.5,20.0,124.8034375,2.04,0.1033154375,32.57
2021-06-23 15:25:19.835937500,60.0,-2.25,20.0,124.80328125,1.025,0.10311528125,32.57
2021-06-23 15:25:19.843750000,60.0,-2.0,20.0,124.803125,0.01,0.102915125,32.57
2021-06-23 15:25:19.851562500,60.0,-2.25,20.0,124.80296874999999,-1.2,0.10271496875,32.57
2021-06-23 15:25:19.859375000,60.0,-2.5,20.0,124.8028125,-2.41,0.1025148125,32.57
2021-06-23 15:25:19.867187500,60.0,-2.75,20.0,124.80265625,-3.685,0.10231465625,32.57
2021-06-23 15:25:19.875000000,60.0,-3.0,20.0,124.8025,-4.96,0.1021145,32.57
2021-06-23 15:25:19.882812500,60.0,-3.0,20.0,124.80234374999999,-6.175,0.10191434375,32.57
2021-06-23 15:25:19.890625000,60.0,-3.0,20.0,124.8021875,-7.39,0.1017141875,32.57
2021-06-23 15:25:19.898437500,60.0,-3.0,20.0,124.80203125,-8.425,0.10151403125,32.57
2021-06-23 15:25:19.906250000,60.0,-3.0,20.0,124.801875,-9.46,0.101313875,32.57
2021-06-23 15:25:19.914062500,60.0,-3.0,20.0,124.80171874999999,-10.2,0.10111371875,32.57
2021-06-23 15:25:19.921875000,60.0,-3.0,20.0,124.8015625,-10.94,0.1009135625,32.57
2021-06-23 15:25:19.929687500,60.0,-3.0,20.0,124.80140625,-11.3,0.10071340625,32.57
2021-06-23 15:25:19.937500000,60.0,-3.0,20.0,124.80125,-11.66,0.10051325,32.57
2021-06-23 15:25:19.945312500,60.0,-3.0,20.0,124.80109374999999,-11.65,0.10031309375,32.57
2021-06-23 15:25:19.953125000,60.0,-3.0,20.0,124.8009375,-11.64,0.1001129375,32.57
2021-06-23 15:25:19.960937500,60.0,-3.0,20.0,124.80078125,-11.365,0.09991278125,32.57
2021-06-23 15:25:19.968750000,60.0,-3.0,20.0,124.800625,-11.09,0.099712625,32.57
2021-06-23 15:25:19.976562500,60.0,-3.0,20.0,124.80046875,-10.735,0.09951246875,32.57
2021-06-23 15:25:19.984375000,60.0,-3.0,20.0,124.8003125,-10.38,0.0993123125,32.57
2021-06-23 15:25:19.992187500,60.0,-3.0,20.0,124.80015625,-10.120000000000001,0.09911215625,32.57
2021-06-23 15:25:20.000000000,60.0,-3.0,20.0,124.8,-9.86,0.098912,32.57
2021-06-23 15:25:20.007812500,60.0,-3.0,20.0,124.79976562499999,-9.835,0.09895203125,32.57
2021-06-23 15:25:20.015625000,60.0,-3.0,20.0,124.79953125,-9.81,0.0989920625,32.57
2021-06-23 15:25:20.023437500,60.0,-3.0,20.0,124.799296875,-10.055,0.09903209375,32.57
2021-06-23 15:25:20.031250000,60.0,-3.0,20.0,124.79906249999999,-10.3,0.099072125,32.57
2021-06-23 15:25:20.039062500,60.0,-3.0,20.0,124.798828125,-10.8,0.09911215625,32.57
2021-06-23 15:25:20.046875000,60.0,-3.0,20.0,124.79859375,-11.3,0.0991521875,32.57
2021-06-23 15:25:20.054687500,60.0,-3.0,20.0,124.798359375,-12.030000000000001,0.09919221875,32.57
2021-06-23 15:25:20.062500000,60.0,-3.0,20.0,124.798125,-12.76,0.09923225,32.57
2021-06-23 15:25:20.070312500,60.0,-3.0,20.0,124.797890625,-13.68,0.09927228125,32.57
2021-06-23 15:25:20.078125000,60.0,-3.0,20.0,124.79765625,-14.6,0.0993123125,32.57
2021-06-23 15:25:20.085937500,60.0,-3.0,20.0,124.797421875,-15.71,0.09935234375,32.57
2021-06-23 15:25:20.093750000,60.0,-3.0,20.0,124.79718749999999,-16.82,0.099392375,32.57
2021-06-23 15:25:20.101562500,60.0,-3.0,20.0,124.796953125,-18.075,0.09943240625000001,32.57
2021-06-23 15:25:20.109375000,60.0,-3.0,20.0,124.79671875,-19.33,0.0994724375,32.57
2021-06-23 15:25:20.117187500,60.0,-3.0,20.0,124.79648437499999,-20.595,0.09951246875,32.57
2021-06-23 15:25:20.125000000,60.0,-3.0,20.0,124.79625,-21.86,0.0995525,32.57
2021-06-23 15:25:20.132812500,60.0,-3.0,20.0,124.796015625,-22.905,0.09959253125,32.57
2021-06-23 15:25:20.140625000,60.0,-3.0,20.0,124.79578124999999,-23.95,0.09963256250000001,32.57
2021-06-23 15:25:20.148437500,60.0,-3.0,20.0,124.795546875,-24.490000000000002,0.09967259375,32.57
2021-06-23 15:25:20.156250000,60.0,-3.0,20.0,124.7953125,-25.03,0.099712625,32.57
2021-06-23 15:25:20.164062500,60.0,-3.0,20.0,124.795078125,-24.805,0.09975265625,32.57
2021-06-23 15:25:20.171875000,60.0,-3.0,20.0,124.79484375,-24.58,0.0997926875,32.57
2021-06-23 15:25:20.179687500,60.0,-3.0,20.0,124.794609375,-23.485,0.09983271875000001,32.57
2021-06-23 15:25:20.187500000,60.0,-3.0,20.0,124.794375,-22.39,0.09987275000000001,32.57
2021-06-23 15:25:20.195312500,60.0,-3.0,20.0,124.794140625,-20.535,0.09991278125,32.57
2021-06-23 15:25:20.203125000,60.0,-3.0,20.0,124.79390624999999,-18.68,0.0999528125,32.57
2021-06-23 15:25:20.210937500,60.0,-3.0,20.0,124.793671875,-16.355,0.09999284375,32.57
2021-06-23 15:25:20.218750000,60.0,-3.0,20.0,124.7934375,-14.03,0.10003287500000001,32.57
2021-06-23 15:25:20.226562500,60.0,-3.0,20.0,124.79320312499999,-11.629999999999999,0.10007290625000001,32.57
2021-06-23 15:25:20.234375000,60.0,-3.0,20.0,124.79296875,-9.23,0.1001129375,32.57
2021-06-23 15:25:20.242187500,60.0,-3.0,20.0,124.792734375,-7.12,0.10015296875,32.57
2021-06-23 15:25:20.250000000,60.0,-3.0,20.0,124.79249999999999,-5.01,0.100193,32.57
2021-06-23 15:25:20.257812500,60.0,-3.0,20.0,124.792265625,-3.41,0.1004331875,32.57
2021-06-23 15:25:20.265625000,60.0,-3.0,20.0,124.79203125,-1.81,0.10067337500000001,32.57
2021-06-23 15:25:20.273437500,60.0,-3.0,20.0,124.791796875,-0.77,0.1009135625,32.57
2021-06-23 15:25:20.281250000,60.0,-3.0,20.0,124.7915625,0.27,0.10115375,32.57
2021-06-23 15:25:20.289062500,60.0,-3.0,20.0,124.79132812499999,0.84,0.1013939375,32.57
2021-06-23 15:25:20.296875000,60.0,-3.0,20.0,124.79109375,1.41,0.101634125,32.57
2021-06-23 15:25:20.304687500,60.0,-3.0,20.0,124.790859375,1.685,0.10187431250000001,32.57
2021-06-23 15:25:20.312500000,60.0,-3.0,20.0,124.79062499999999,1.96,0.1021145,32.57
2021-06-23 15:25:20.320312500,60.0,-3.0,20.0,124.790390625,2.075,0.1023546875,32.57
2021-06-23 15:25:20.328125000,60.0,-3.0,20.0,124.79015625,2.19,0.102594875,32.57
2021-06-23 15:25:20.335937500,60.0,-3.0,20.0,124.78992187499999,2.235,0.1028350625,32.57
2021-06-23 15:25:20.343750000,60.0,-3.0,20.0,124.7896875,2.28,0.10307525000000001,32.57
2021-06-23 15:25:20.351562500,60.0,-3.0,20.0,124.789453125,2.285,0.10331543750000001,32.57
2021-06-23 15:25:20.359375000,60.0,-3.0,20.0,124.78921875,2.29,0.103555625,32.57
2021-06-23 15:25:20.367187500,60.0,-3.0,20.0,124.788984375,2.26,0.1037958125,32.57
2021-06-23 15:25:20.375000000,60.0,-3.0,20.0,124.78875,2.23,0.104036,32.57
2021-06-23 15:25:20.382812500,60.0,-3.0,20.0,124.788515625,2.1550000000000002,0.1042761875,32.57
2021-06-23 15:25:20.390625000,60.0,-3.0,20.0,124.78828125,2.08,0.10451637500000001,32.57
2021-06-23 15:25:20.398437500,60.0,-3.0,20.0,124.78804687499999,1.9849999999999999,0.1047565625,32.57
2021-06-23 15:25:20.406250000,60.0,-3.0,20.0,124.7878125,1.89,0.10499675,32.57
2021-06-23 15:25:20.414062500,60.0,-3.0,20.0,124.787578125,1.7599999999999998,0.1052369375,32.57
2021-06-23 15:25:20.421875000,60.0,-3.0,20.0,124.78734374999999,1.63,0.105477125,32.57
2021-06-23 15:25:20.429687500,60.0,-3.0,20.0,124.787109375,1.47,0.10571731250000001,32.57
2021-06-23 15:25:20.437500000,60.0,-3.0,20.0,124.786875,1.31,0.10595750000000001,32.57
2021-06-23 15:25:20.445312500,60.0,-3.0,20.0,124.78664062499999,1.115,0.1061976875,32.57
2021-06-23 15:25:20.453125000,60.0,-3.0,20.0,124.78640625,0.92,0.106437875,32.57
2021-06-23 15:25:20.460937500,60.0,-3.0,20.0,124.786171875,0.6950000000000001,0.1066780625,32.57
2021-06-23 15:25:20.468750000,60.0,-3.0,20.0,124.7859375,0.47,0.10691825,32.57
2021-06-23 15:25:20.476562500,60.0,-3.0,20.0,124.785703125,0.25,0.10715843750000001,32.57
2021-06-23 15:25:20.484375000,60.0,-3.0,20.0,124.78546874999999,0.03,0.107398625,32.57
2021-06-23 15:25:20.492187500,60.0,-3.0,20.0,124.785234375,-0.13999999999999999,0.1076388125,32.57
2021-06-23 15:25:20.500000000,60.0,-3.0,20.0,124.785,-0.31,0.107879,32.57
2021-06-23 15:25:20.507812500,60.0,-3.0,20.0,124.78476562499999,-0.41000000000000003,0.1076388125,32.57
2021-06-23 15:25:20.515625000,60.0,-3.0,20.0,124.78453125,-0.51,0.107398625,32.57
2021-06-23 15:25:20.523437500,60.0,-3.0,20.0,124.784296875,-0.595,0.10715843750000001,32.57
2021-06-23 15:25:20.531250000,60.0,-3.0,20.0,124.78406249999999,-0.68,0.10691825,32.57
2021-06-23 15:25:20.539062500,60.0,-3.0,20.0,124.783828125,-0.8700000000000001,0.1066780625,32.57
2021-06-23 15:25:20.546875000,60.0,-3.0,20.0,124.78359375,-1.06,0.106437875,32.57
2021-06-23 15:25:20.554687500,60.0,-3.0,20.0,124.783359375,-1.52,0.1061976875,32.57
2021-06-23 15:25:20.562500000,60.0,-3.0,20.0,124.783125,-1.98,0.10595750000000001,32.57
2021-06-23 15:25:20.570312500,60.0,-3.0,20.0,124.782890625,-2.83,0.10571731250000001,32.57
2021-06-23 15:25:20.578125000,60.0,-3.0,20.0,124.78265625,-3.68,0.105477125,32.57
2021-06-23 15:25:20.585937500,60.0,-3.0,20.0,124.782421875,-4.92,0.1052369375,32.57
2021-06-23 15:25:20.593750000,60.0,-3.0,20.0,124.78218749999999,-6.16,0.10499675,32.57
2021-06-23 15:25:20.601562500,60.0,-3.0,20.0,124.781953125,-7.625,0.1047565625,32.57
2021-06-23 15:25:20.609375000,60.0,-3.0,20.0,124.78171875,-9.09,0.10451637500000001,32.57
2021-06-23 15:25:20.617187500,60.0,-3.0,20.0,124.78148437499999,-10.475,0.1042761875,32.57
2021-06-23 15:25:20.625000000,60.0,-3.0,20.0,124.78125,-11.86,0.104036,32.57
2021-06-23 15:25:20.632812500,60.0,-3.0,20.0,124.781015625,-12.8,0.1037958125,32.57
2021-06-23 15:25:20.640625000,60.0,-3.0,20.0,124.78078124999999,-13.74,0.103555625,32.57
2021-06-23 15:25:20.648437500,60.0,-3.0,20.0,124.780546875,-13.91,0.10331543750000001,32.57
2021-06-23 15:25:20.656250000,60.0,-3.0,20.0,124.7803125,-14.08,0.10307525000000001,32.57
2021-06-23 15:25:20.664062500,60.0,-3.0,20.0,124.780078125,-13.34,0.1028350625,32.57
2021-06-23 15:25:20.671875000,60.0,-3.0,20.0,124.77984375,-12.6,0.102594875,32.57
2021-06-23 15:25:20.679687500,60.0,-3.0,20.0,124.77960937499999,-11.02,0.1023546875,32.57
2021-06-23 15:25:20.687500000,60.0,-3.0,20.0,124.779375,-9.44,0.1021145,32.57
2021-06-23 15:25:20.695312500,60.0,-3.0,20.0,124.779140625,-7.3149999999999995,0.10187431250000001,32.57
2021-06-23 15:25:20.703125000,60.0,-3.0,20.0,124.77890624999999,-5.19,0.101634125,32.57
2021-06-23 15:25:20.710937500,60.0,-3.0,20.0,124.778671875,-2.935,0.1013939375,32.57
2021-06-23 15:25:20.718750000,60.0,-3.0,20.0,124.7784375,-0.68,0.10115375,32.57
2021-06-23 15:25:20.726562500,60.0,-3.0,20.0,124.77820312499999,1.3050000000000002,0.1009135625,32.57
2021-06-23 15:25:20.734375000,60.0,-3.0,20.0,124.77796875,3.29,0.10067337500000001,32.57
2021-06-23 15:25:20.742187500,60.0,-3.0,20.0,124.777734375,4.755,0.1004331875,32.57
2021-06-23 15:25:20.750000000,60.0,-3.0,20.0,124.7775,6.22,0.100193,32.57
2021-06-23 15:25:20.757812500,60.0,-3.0,20.0,124.777265625,7.085,0.10023303125000001,32.57
2021-06-23 15:25:20.765625000,60.0,-3.0,20.0,124.77703125,7.95,0.10027306250000001,32.57
2021-06-23 15:25:20.773437500,60.0,-3.0,20.0,124.776796875,8.31,0.10031309375,32.57
2021-06-23 15:25:20.781250000,60.0,-3.0,20.0,124.7765625,8.67,0.100353125,32.57
2021-06-23 15:25:20.789062500,60.0,-3.0,20.0,124.77632812499999,8.67,0.10039315625,32.57
2021-06-23 15:25:20.796875000,60.0,-3.0,20.0,124.77609375,8.67,0.1004331875,32.57
2021-06-23 15:25:20.804687500,60.0,-3.0,20.0,124.775859375,8.445,0.10047321875,32.57
2021-06-23 15:25:20.812500000,60.0,-3.0,20.0,124.77562499999999,8.22,0.10051325,32.57
2021-06-23 15:25:20.820312500,60.0,-3.0,20.0,124.775390625,7.8100000000000005,0.10055328125,32.57
2021-06-23 15:25:20.828125000,60.0,-3.0,20.0,124.77515625,7.4,0.1005933125,32.57
2021-06-23 15:25:20.835937500,60.0,-3.0,20.0,124.77492187499999,6.800000000000001,0.10063334375,32.57
2021-06-23 15:25:20.843750000,60.0,-3.0,20.0,124.7746875,6.2,0.100673375,32.57
2021-06-23 15:25:20.851562500,60.0,-3.0,19.75,124.774453125,5.42,0.10071340625,32.57
2021-06-23 15:25:20.859375000,60.0,-3.0,19.5,124.77421875,4.64,0.1007534375,32.57
2021-06-23 15:25:20.867187500,60.0,-3.0,19.25,124.773984375,3.7249999999999996,0.10079346875,32.57
2021-06-23 15:25:20.875000000,60.0,-3.0,19.0,124.77374999999999,2.81,0.10083349999999999,32.57
2021-06-23 15:25:20.882812500,60.0,-3.0,19.0,124.773515625,1.8900000000000001,0.10087353125,32.57
2021-06-23 15:25:20.890625000,60.0,-3.0,19.0,124.77328125,0.97,0.1009135625,32.57
2021-06-23 15:25:20.898437500,60.0,-3.0,19.0,124.77304687499999,0.17999999999999994,0.10095359375,32.57
2021-06-23 15:25:20.906250000,60.0,-3.0,19.0,124.7728125,-0.61,0.100993625,32.57
2021-06-23 15:25:20.914062500,60.0,-3.0,19.25,124.772578125,-1.19,0.10103365624999999,32.57
2021-06-23 15:25:20.921875000,60.0,-3.0,19.5,124.77234374999999,-1.77,0.1010736875,32.57
2021-06-23 15:25:20.929687500,60.0,-3.0,19.75,124.772109375,-2.13,0.10111371875,32.57
2021-06-23 15:25:20.937500000,60.0,-3.0,20.0,124.771875,-2.49,0.10115375,32.57
2021-06-23 15:25:20.945312500,60.0,-2.75,20.0,124.77164062499999,-2.6900000000000004,0.10119378125,32.57
2021-06-23 15:25:20.953125000,60.0,-2.5,20.0,124.77140625,-2.89,0.10123381249999999,32.57
2021-06-23 15:25:20.960937500,60.0,-2.25,20.0,124.771171875,-3.015,0.10127384375,32.57
2021-06-23 15:25:20.968750000,60.0,-2.0,20.0,124.7709375,-3.14,0.101313875,32.57
2021-06-23 15:25:20.976562500,60.0,-2.25,20.0,124.770703125,-3.26,0.10135390625,32.57
2021-06-23 15:25:20.984375000,60.0,-2.5,20.0,124.77046874999999,-3.38,0.10139393749999999,32.57
2021-06-23 15:25:20.992187500,60.0,-2.75,20.0,124.770234375,-3.565,0.10143396874999999,32.57
2021-06-23 15:25:21.000000000,60.0,-3.0,20.0,124.77,-3.75,0.101474,32.57
2021-06-23 15:25:21.007812500,60.0,-3.0,20.0,124.76968749999999,-4.055,0.10139393749999999,32.57
2021-06-23 15:25:21.015625000,60.0,-3.0,20.0,124.769375,-4.36,0.101313875,32.57
2021-06-23 15:25:21.023437500,60.0,-3.0,20.0,124.76906249999999,-4.880000000000001,0.10123381249999999,32.57
2021-06-23 15:25:21.031250000,60.0,-3.0,20.0,124.76875,-5.4,0.10115375,32.57
2021-06-23 15:25:21.039062500,60.0,-3.0,19.75,124.76843749999999,-6.225,0.1010736875,32.57
2021-06-23 15:25:21.046875000,60.0,-3.0,19.5,124.768125,-7.05,0.10099362499999999,32.57
2021-06-23 15:25:21.054687500,60.0,-3.0,19.25,124.76781249999999,-8.23,0.1009135625,32.57
2021-06-23 15:25:21.062500000,60.0,-3.0,19.0,124.7675,-9.41,0.10083349999999999,32.57
2021-06-23 15:25:21.070312500,60.0,-3.0,19.0,124.76718749999999,-10.870000000000001,0.1007534375,32.57
2021-06-23 15:25:21.078125000,60.0,-3.0,19.0,124.766875,-12.33,0.100673375,32.57
2021-06-23 15:25:21.085937500,60.0,-3.0,19.0,124.76656249999999,-13.84,0.10059331249999999,32.57
2021-06-23 15:25:21.093750000,60.0,-3.0,19.0,124.76625,-15.35,0.10051325,32.57
2021-06-23 15:25:21.101562500,60.0,-3.0,19.25,124.76593749999999,-16.57,0.10043318749999999,32.57
2021-06-23 15:25:21.109375000,60.0,-3.0,19.5,124.765625,-17.79,0.100353125,32.57
2021-06-23 15:25:21.117187500,60.0,-3.0,19.75,124.7653125,-18.34,0.1002730625,32.57
2021-06-23 15:25:21.125000000,60.0,-3.0,20.0,124.765,-18.89,0.100193,32.57
2021-06-23 15:25:21.132812500,60.0,-3.0,19.75,124.7646875,-18.545,0.1001129375,32.57
2021-06-23 15:25:21.140625000,60.0,-3.0,19.5,124.764375,-18.2,0.100032875,32.57
2021-06-23 15:25:21.148437500,60.0,-3.0,19.25,124.7640625,-16.925,0.0999528125,32.57
2021-06-23 15:25:21.156250000,60.0,-3.0,19.0,124.76375,-15.65,0.09987275,32.57
2021-06-23 15:25:21.164062500,60.0,-3.0,19.25,124.7634375,-13.690000000000001,0.0997926875,32.57
2021-06-23 15:25:21.171875000,60.0,-3.0,19.5,124.763125,-11.73,0.099712625,32.57
2021-06-23 15:25:21.179687500,60.0,-3.0,19.75,124.7628125,-9.46,0.0996325625,32.57
2021-06-23 15:25:21.187500000,60.0,-3.0,20.0,124.7625,-7.19,0.0995525,32.57
2021-06-23 15:25:21.195312500,60.0,-3.0,20.0,124.7621875,-5.035,0.0994724375,32.57
2021-06-23 15:25:21.203125000,60.0,-3.0,20.0,124.761875,-2.88,0.099392375,32.57
2021-06-23 15:25:21.210937500,60.0,-3.0,20.0,124.7615625,-1.125,0.0993123125,32.57
2021-06-23 15:25:21.218750000,60.0,-3.0,20.0,124.76125,0.63,0.09923225,32.57
2021-06-23 15:25:21.226562500,60.0,-3.0,19.75,124.7609375,1.875,0.0991521875,32.57
2021-06-23 15:25:21.234375000,60.0,-3.0,19.5,124.760625,3.12,0.099072125,32.57
2021-06-23 15:25:21.242187500,60.0,-3.0,19.25,124.7603125,3.89,0.0989920625,32.57
2021-06-23 15:25:21.250000000,60.0,-3.0,19.0,124.75999999999999,4.66,0.098912,32.57
2021-06-23 15:25:21.257812500,60.0,-3.0,19.25,124.7596875,5.08,0.09903209375,32.57
2021-06-23 15:25:21.265625000,60.0,-3.0,19.5,124.75937499999999,5.5,0.0991521875,32.57
2021-06-23 15:25:21.273437500,60.0,-3.0,19.75,124.7590625,5.66,0.09927228125,32.57
2021-06-23 15:25:21.281250000,60.0,-3.0,20.0,124.75874999999999,5.82,0.099392375,32.57
2021-06-23 15:25:21.289062500,60.0,-3.0,20.0,124.7584375,5.76,0.09951246875,32.57
2021-06-23 15:25:21.296875000,60.0,-3.0,20.0,124.75812499999999,5.7,0.0996325625,32.57
2021-06-23 15:25:21.304687500,60.0,-3.0,20.0,124.7578125,5.415,0.09975265625,32.57
2021-06-23 15:25:21.312500000,60.0,-3.0,20.0,124.7575,5.13,0.09987275,32.57
2021-06-23 15:25:21.320312500,60.0,-3.0,19.75,124.7571875,4.63,0.09999284375,32.57
2021-06-23 15:25:21.328125000,60.0,-3.0,19.5,124.756875,4.13,0.1001129375,32.57
2021-06-23 15:25:21.335937500,60.0,-3.0,19.25,124.7565625,3.4699999999999998,0.10023303125,32.57
2021-06-23 15:25:21.343750000,60.0,-3.0,19.0,124.75625,2.81,0.100353125,32.57
2021-06-23 15:25:21.351562500,60.0,-3.0,19.0,124.7559375,2.0949999999999998,0.10047321875,32.57
2021-06-23 15:25:21.359375000,60.0,-3.0,19.0,124.755625,1.38,0.1005933125,32.57
2021-06-23 15:25:21.367187500,60.0,-3.0,19.0,124.7553125,0.705,0.10071340625,32.57
2021-06-23 15:25:21.375000000,60.0,-3.0,19.0,124.755,0.03,0.10083349999999999,32.57
2021-06-23 15:25:21.382812500,60.0,-3.0,19.25,124.7546875,-0.535,0.10095359375,32.57
2021-06-23 15:25:21.390625000,60.0,-3.0,19.5,124.754375,-1.1,0.1010736875,32.57
2021-06-23 15:25:21.398437500,60.0,-3.0,19.75,124.7540625,-1.55,0.10119378125,32.57
2021-06-23 15:25:21.406250000,60.0,-3.0,20.0,124.75375,-2.0,0.101313875,32.57
2021-06-23 15:25:21.414062500,60.0,-2.75,19.75,124.7534375,-2.365,0.10143396875,32.57
2021-06-23 15:25:21.421875000,60.0,-2.5,19.5,124.753125,-2.73,0.1015540625,32.57
2021-06-23 15:25:21.429687500,60.0,-2.25,19.25,124.7528125,-3.035,0.10167415625,32.57
2021-06-23 15:25:21.437500000,60.0,-2.0,19.0,124.7525,-3.34,0.10179425,32.57
2021-06-23 15:25:21.445312500,60.0,-2.25,19.0,124.7521875,-3.5999999999999996,0.10191434375,32.57
2021-06-23 15:25:21.453125000,60.0,-2.5,19.0,124.751875,-3.86,0.1020344375,32.57
2021-06-23 15:25:21.460937500,60.0,-2.75,19.0,124.7515625,-4.115,0.10215453125,32.57
2021-06-23 15:25:21.468750000,60.0,-3.0,19.0,124.75125,-4.37,0.102274625,32.57
2021-06-23 15:25:21.476562500,60.0,-3.0,19.25,124.7509375,-4.6850000000000005,0.10239471875,32.57
2021-06-23 15:25:21.484375000,60.0,-3.0,19.5,124.750625,-5.0,0.1025148125,32.57
2021-06-23 15:25:21.492187500,60.0,-3.0,19.75,124.7503125,-5.484999999999999,0.10263490625,32.57
2021-06-23 15:25:21.500000000,60.0,-3.0,20.0,124.75,-5.97,0.102755,32.57
2021-06-23 15:25:21.507812500,60.0,-3.0,20.0,124.7496875,-6.734999999999999,0.1025548125,32.57
2021-06-23 15:25:21.515625000,60.0,-3.0,20.0,124.749375,-7.5,0.102354625,32.57
2021-06-23 15:25:21.523437500,60.0,-3.0,20.0,124.7490625,-8.615,0.1021544375,32.57
2021-06-23 15:25:21.531250000,60.0,-3.0,20.0,124.74875,-9.73,0.10195425,32.57
2021-06-23 15:25:21.539062500,60.0,-3.0,20.0,124.7484375,-11.145,0.1017540625,32.57
2021-06-23 15:25:21.546875000,60.0,-3.0,20.0,124.748125,-12.56,0.101553875,32.57
2021-06-23 15:25:21.554687500,60.0,-3.0,20.0,124.7478125,-14.08,0.1013536875,32.57
2021-06-23 15:25:21.562500000,60.0,-3.0,20.0,124.7475,-15.6,0.10115350000000001,32.57
2021-06-23 15:25:21.570312500,60.0,-3.0,20.0,124.7471875,-16.93,0.1009533125,32.57
2021-06-23 15:25:21.578125000,60.0,-3.0,20.0,124.746875,-18.26,0.100753125,32.57
2021-06-23 15:25:21.585937500,60.0,-3.0,20.0,124.7465625,-19.07,0.1005529375,32.57
2021-06-23 15:25:21.593750000,60.0,-3.0,20.0,124.74625,-19.88,0.10035275,32.57
2021-06-23 15:25:21.601562500,60.0,-3.0,19.75,124.7459375,-19.915,0.1001525625,32.57
2021-06-23 15:25:21.609375000,60.0,-3.0,19.5,124.745625,-19.95,0.099952375,32.57
2021-06-23 15:25:21.617187500,60.0,-3.0,19.25,124.7453125,-19.13,0.0997521875,32.57
2021-06-23 15:25:21.625000000,60.0,-3.0,19.0,124.745,-18.31,0.099552,32.57
2021-06-23 15:25:21.632812500,60.0,-3.0,19.25,124.7446875,-16.75,0.0993518125,32.57
2021-06-23 15:25:21.640625000,60.0,-3.0,19.5,124.744375,-15.19,0.09915162500000001,32.57
2021-06-23 15:25:21.648437500,60.0,-3.0,19.75,124.7440625,-13.165,0.0989514375,32.57
2021-06-23 15:25:21.656250000,60.0,-3.0,20.0,124.74375,-11.14,0.09875125,32.57
2021-06-23 15:25:21.664062500,60.0,-3.0,20.0,124.7434375,-9.05,0.09855106250000001,32.57
2021-06-23 15:25:21.671875000,60.0,-3.0,20.0,124.743125,-6.96,0.098350875,32.57
2021-06-23 15:25:21.679687500,60.0,-3.0,20.0,124.7428125,-5.18,0.0981506875,32.57
2021-06-23 15:25:21.687500000,60.0,-3.0,20.0,124.7425,-3.4,0.0979505,32.57
2021-06-23 15:25:21.695312500,60.0,-3.0,20.0,124.7421875,-2.21,0.0977503125,32.57
2021-06-23 15:25:21.703125000,60.0,-3.0,20.0,124.74187500000001,-1.02,0.097550125,32.57
2021-06-23 15:25:21.710937500,60.0,-3.0,20.0,124.7415625,-0.525,0.0973499375,32.57
2021-06-23 15:25:21.718750000,60.0,-3.0,20.0,124.74125000000001,-0.03,0.09714975,32.57
2021-06-23 15:25:21.726562500,60.0,-3.0,20.0,124.7409375,-0.18500000000000003,0.0969495625,32.57
2021-06-23 15:25:21.734375000,60.0,-3.0,20.0,124.74062500000001,-0.34,0.096749375,32.57
2021-06-23 15:25:21.742187500,60.0,-3.0,20.0,124.7403125,-0.97,0.09654918750000001,32.57
2021-06-23 15:25:21.750000000,60.0,-3.0,20.0,124.74000000000001,-1.6,0.096349,32.57
2021-06-23 15:25:21.757812500,60.0,-3.0,20.0,124.7396875,-2.475,0.09654918750000001,32.57
2021-06-23 15:25:21.765625000,60.0,-3.0,20.0,124.739375,-3.35,0.096749375,32.57
2021-06-23 15:25:21.773437500,60.0,-3.0,20.0,124.7390625,-4.285,0.0969495625,32.57
2021-06-23 15:25:21.781250000,60.0,-3.0,20.0,124.73875,-5.22,0.09714975,32.57
2021-06-23 15:25:21.789062500,60.0,-3.0,19.75,124.7384375,-6.074999999999999,0.0973499375,32.57
2021-06-23 15:25:21.796875000,60.0,-3.0,19.5,124.738125,-6.93,0.097550125,32.57
2021-06-23 15:25:21.804687500,60.0,-3.0,19.25,124.7378125,-7.655,0.0977503125,32.57
2021-06-23 15:25:21.812500000,60.0,-3.0,19.0,124.7375,-8.38,0.0979505,32.57
2021-06-23 15:25:21.820312500,60.0,-3.0,19.25,124.7371875,-8.95,0.0981506875,32.57
2021-06-23 15:25:21.828125000,60.0,-3.0,19.5,124.736875,-9.52,0.098350875,32.57
2021-06-23 15:25:21.835937500,60.0,-3.0,19.75,124.7365625,-9.925,0.09855106250000001,32.57
2021-06-23 15:25:21.843750000,60.0,-3.0,20.0,124.73625,-10.33,0.09875125,32.57
2021-06-23 15:25:21.851562500,60.0,-3.0,20.0,124.7359375,-10.559999999999999,0.0989514375,32.57
2021-06-23 15:25:21.859375000,60.0,-3.0,20.0,124.735625,-10.79,0.09915162500000001,32.57
2021-06-23 15:25:21.867187500,60.0,-3.0,20.0,124.7353125,-10.85,0.0993518125,32.57
2021-06-23 15:25:21.875000000,60.0,-3.0,20.0,124.735,-10.91,0.099552,32.57
2021-06-23 15:25:21.882812500,60.0,-2.75,20.0,124.7346875,-10.84,0.0997521875,32.57
2021-06-23 15:25:21.890625000,60.0,-2.5,20.0,124.734375,-10.77,0.099952375,32.57
2021-06-23 15:25:21.898437500,60.0,-2.25,20.0,124.73406250000001,-10.64,0.1001525625,32.57
2021-06-23 15:25:21.906250000,60.0,-2.0,20.0,124.73375,-10.51,0.10035275,32.57
2021-06-23 15:25:21.914062500,60.0,-2.25,20.0,124.73343750000001,-10.42,0.1005529375,32.57
2021-06-23 15:25:21.921875000,60.0,-2.5,20.0,124.733125,-10.33,0.100753125,32.57
2021-06-23 15:25:21.929687500,60.0,-2.75,20.0,124.73281250000001,-10.35,0.1009533125,32.57
2021-06-23 15:25:21.937500000,60.0,-3.0,20.0,124.7325,-10.37,0.10115350000000001,32.57
2021-06-23 15:25:21.945312500,60.0,-3.0,20.0,124.73218750000001,-10.545,0.1013536875,32.57
2021-06-23 15:25:21.953125000,60.0,-3.0,20.0,124.731875,-10.72,0.101553875,32.57
2021-06-23 15:25:21.960937500,60.0,-3.0,20.0,124.73156250000001,-11.085,0.1017540625,32.57
2021-06-23 15:25:21.968750000,60.0,-3.0,20.0,124.73125,-11.45,0.10195425,32.57
2021-06-23 15:25:21.976562500,60.0,-3.0,20.0,124.73093750000001,-12.055,0.1021544375,32.57
2021-06-23 15:25:21.984375000,60.0,-3.0,20.0,124.730625,-12.66,0.102354625,32.57
2021-06-23 15:25:21.992187500,60.0,-3.0,20.0,124.73031250000001,-13.575,0.1025548125,32.57
2021-06-23 15:25:22.000000000,60.0,-3.0,20.0,124.73,-14.49,0.102755,32.57
2021-06-23 15:25:22.007812500,60.0,-3.0,20.0,124.729765625,-15.795000000000002,0.102755,32.57
2021-06-23 15:25:22.015625000,60.0,-3.0,20.0,124.72953125000001,-17.1,0.102755,32.57
2021-06-23 15:25:22.023437500,60.0,-3.0,20.0,124.729296875,-18.815,0.102755,32.57
2021-06-23 15:25:22.031250000,60.0,-3.0,20.0,124.7290625,-20.53,0.102755,32.57
2021-06-23 15:25:22.039062500,60.0,-3.0,20.0,124.728828125,-22.509999999999998,0.102755,32.57
2021-06-23 15:25:22.046875000,60.0,-3.0,20.0,124.72859375,-24.49,0.102755,32.57
2021-06-23 15:25:22.054687500,60.0,-3.0,20.0,124.72835937500001,-26.405,0.102755,32.57
2021-06-23 15:25:22.062500000,60.0,-3.0,20.0,124.728125,-28.32,0.102755,32.57
2021-06-23 15:25:22.070312500,60.0,-3.0,20.0,124.727890625,-29.72,0.102755,32.57
2021-06-23 15:25:22.078125000,60.0,-3.0,20.0,124.72765625000001,-31.12,0.102755,32.57
2021-06-23 15:25:22.085937500,60.0,-3.0,20.0,124.727421875,-31.58,0.102755,32.57
2021-06-23 15:25:22.093750000,60.0,-3.0,20.0,124.7271875,-32.04,0.102755,32.57
2021-06-23 15:25:22.101562500,59.75,-3.0,20.0,124.72695312500001,-31.345,0.102755,32.57
2021-06-23 15:25:22.109375000,59.5,-3.0,20.0,124.72671875,-30.65,0.102755,32.57
2021-06-23 15:25:22.117187500,59.25,-3.0,20.0,124.726484375,-28.884999999999998,0.102755,32.57
2021-06-23 15:25:22.125000000,59.0,-3.0,20.0,124.72625000000001,-27.12,0.102755,32.57
2021-06-23 15:25:22.132812500,59.25,-3.0,20.0,124.726015625,-24.645000000000003,0.102755,32.57
2021-06-23 15:25:22.140625000,59.5,-3.0,20.0,124.72578125,-22.17,0.102755,32.57
2021-06-23 15:25:22.148437500,59.75,-3.0,20.0,124.725546875,-19.5,0.102755,32.57
2021-06-23 15:25:22.156250000,60.0,-3.0,20.0,124.7253125,-16.83,0.102755,32.57
2021-06-23 15:25:22.164062500,60.0,-3.0,20.0,124.72507812500001,-14.45,0.102755,32.57
2021-06-23 15:25:22.171875000,60.0,-3.0,20.0,124.72484375,-12.07,0.102755,32.57
2021-06-23 15:25:22.179687500,60.0,-3.0,20.0,124.724609375,-10.265,0.102755,32.57
2021-06-23 15:25:22.187500000,60.0,-3.0,20.0,124.72437500000001,-8.46,0.102755,32.57
2021-06-23 15:25:22.195312500,60.0,-3.0,20.0,124.724140625,-7.32,0.102755,32.57
2021-06-23 15:25:22.203125000,60.0,-3.0,20.0,124.72390625,-6.18,0.102755,32.57
2021-06-23 15:25:22.210937500,60.0,-3.0,20.0,124.72367187500001,-5.58,0.102755,32.57
2021-06-23 15:25:22.218750000,60.0,-3.0,20.0,124.7234375,-4.98,0.102755,32.57
2021-06-23 15:25:22.226562500,60.0,-3.0,20.0,124.723203125,-4.765000000000001,0.102755,32.57
2021-06-23 15:25:22.234375000,60.0,-3.0,20.0,124.72296875,-4.55,0.102755,32.57
2021-06-23 15:25:22.242187500,60.0,-3.0,20.0,124.722734375,-4.555,0.102755,32.57
2021-06-23 15:25:22.250000000,60.0,-3.0,20.0,124.7225,-4.56,0.102755,32.57
2021-06-23 15:25:22.257812500,60.0,-3.0,20.0,124.722265625,-4.73,0.10271496875,32.57
2021-06-23 15:25:22.265625000,60.0,-3.0,20.0,124.72203125,-4.9,0.1026749375,32.57
2021-06-23 15:25:22.273437500,60.0,-3.0,20.0,124.72179687500001,-5.215,0.10263490625,32.57
2021-06-23 15:25:22.281250000,60.0,-3.0,20.0,124.7215625,-5.53,0.102594875,32.57
2021-06-23 15:25:22.289062500,60.0,-3.0,20.0,124.721328125,-5.985,0.10255484375,32.57
2021-06-23 15:25:22.296875000,60.0,-3.0,20.0,124.72109375000001,-6.44,0.1025148125,32.57
2021-06-23 15:25:22.304687500,60.0,-3.0,20.0,124.720859375,-6.975,0.10247478125,32.57
2021-06-23 15:25:22.312500000,60.0,-3.0,20.0,124.720625,-7.51,0.10243474999999999,32.57
2021-06-23 15:25:22.320312500,60.0,-3.0,20.0,124.72039062500001,-8.02,0.10239471875,32.57
2021-06-23 15:25:22.328125000,60.0,-3.0,20.0,124.72015625,-8.53,0.1023546875,32.57
2021-06-23 15:25:22.335937500,60.0,-3.0,20.0,124.719921875,-8.885,0.10231465625,32.57
2021-06-23 15:25:22.343750000,60.0,-3.0,20.0,124.7196875,-9.24,0.102274625,32.57
2021-06-23 15:25:22.351562500,60.0,-3.0,20.0,124.719453125,-9.385,0.10223459374999999,32.57
2021-06-23 15:25:22.359375000,60.0,-3.0,20.0,124.71921875000001,-9.53,0.1021945625,32.57
2021-06-23 15:25:22.367187500,60.0,-3.0,20.0,124.718984375,-9.469999999999999,0.10215453125,32.57
2021-06-23 15:25:22.375000000,60.0,-3.0,20.0,124.71875,-9.41,0.1021145,32.57
2021-06-23 15:25:22.382812500,60.0,-3.0,20.0,124.71851562500001,-9.26,0.10207446875,32.57
2021-06-23 15:25:22.390625000,60.0,-3.0,20.0,124.71828125,-9.11,0.10203443749999999,32.57
2021-06-23 15:25:22.398437500,60.0,-3.0,20.0,124.718046875,-9.024999999999999,0.10199440625,32.57
2021-06-23 15:25:22.406250000,60.0,-3.0,20.0,124.71781250000001,-8.94,0.101954375,32.57
2021-06-23 15:25:22.414062500,60.0,-3.0,20.0,124.717578125,-9.045,0.10191434375,32.57
2021-06-23 15:25:22.421875000,60.0,-3.0,20.0,124.71734375,-9.15,0.1018743125,32.57
2021-06-23 15:25:22.429687500,60.0,-3.0,20.0,124.717109375,-9.504999999999999,0.10183428124999999,32.57
2021-06-23 15:25:22.437500000,60.0,-3.0,20.0,124.716875,-9.86,0.10179425,32.57
2021-06-23 15:25:22.445312500,60.0,-3.0,20.0,124.716640625,-10.46,0.10175421875,32.57
2021-06-23 15:25:22.453125000,60.0,-3.0,20.0,124.71640625,-11.06,0.1017141875,32.57
2021-06-23 15:25:22.460937500,60.0,-3.0,20.0,124.716171875,-11.850000000000001,0.10167415625,32.57
2021-06-23 15:25:22.468750000,60.0,-3.0,20.0,124.71593750000001,-12.64,0.10163412499999999,32.57
2021-06-23 15:25:22.476562500,60.0,-3.0,20.0,124.715703125,-13.61,0.10159409374999999,32.57
2021-06-23 15:25:22.484375000,60.0,-3.0,20.0,124.71546875,-14.58,0.1015540625,32.57
2021-06-23 15:25:22.492187500,60.0,-3.0,20.0,124.71523437500001,-15.754999999999999,0.10151403125,32.57
2021-06-23 15:25:22.500000000,60.0,-3.0,20.0,124.715,-16.93,0.101474,32.57
2021-06-23 15:25:22.507812500,60.0,-3.0,20.0,124.714765625,-18.314999999999998,0.101474,32.57
2021-06-23 15:25:22.515625000,60.0,-3.0,20.0,124.71453125000001,-19.7,0.101474,32.57
2021-06-23 15:25:22.523437500,60.0,-3.0,20.0,124.714296875,-21.22,0.101474,32.57
2021-06-23 15:25:22.531250000,60.0,-3.0,20.0,124.7140625,-22.74,0.101474,32.57
2021-06-23 15:25:22.539062500,60.0,-3.0,20.0,124.713828125,-24.13,0.101474,32.57
2021-06-23 15:25:22.546875000,60.0,-3.0,20.0,124.71359375,-25.52,0.101474,32.57
2021-06-23 15:25:22.554687500,60.0,-3.0,20.0,124.71335937500001,-26.415,0.101474,32.57
2021-06-23 15:25:22.562500000,60.0,-3.0,20.0,124.713125,-27.31,0.101474,32.57
2021-06-23 15:25:22.570312500,60.0,-3.0,20.0,124.712890625,-27.305,0.101474,32.57
2021-06-23 15:25:22.578125000,60.0,-3.0,20.0,124.71265625000001,-27.3,0.101474,32.57
2021-06-23 15:25:22.585937500,60.0,-3.0,20.0,124.712421875,-26.16,0.101474,32.57
2021-06-23 15:25:22.593750000,60.0,-3.0,20.0,124.7121875,-25.02,0.101474,32.57
2021-06-23 15:25:22.601562500,60.0,-3.0,20.0,124.71195312500001,-22.785,0.101474,32.57
2021-06-23 15:25:22.609375000,60.0,-3.0,20.0,124.71171875,-20.55,0.101474,32.57
2021-06-23 15:25:22.617187500,60.0,-3.0,20.0,124.711484375,-17.54,0.101474,32.57
2021-06-23 15:25:22.625000000,60.0,-3.0,20.0,124.71125,-14.53,0.101474,32.57
2021-06-23 15:25:22.632812500,60.0,-3.0,20.0,124.711015625,-11.25,0.101474,32.57
2021-06-23 15:25:22.640625000,60.0,-3.0,20.0,124.71078125,-7.97,0.101474,32.57
2021-06-23 15:25:22.648437500,60.0,-3.0,20.0,124.710546875,-4.91,0.101474,32.57
2021-06-23 15:25:22.656250000,60.0,-3.0,20.0,124.7103125,-1.85,0.101474,32.57
2021-06-23 15:25:22.664062500,60.0,-3.0,20.0,124.71007812500001,0.6549999999999998,0.101474,32.57
2021-06-23 15:25:22.671875000,60.0,-3.0,20.0,124.70984375,3.16,0.101474,32.57
2021-06-23 15:25:22.679687500,60.0,-3.0,20.0,124.709609375,4.984999999999999,0.101474,32.57
2021-06-23 15:25:22.687500000,60.0,-3.0,20.0,124.70937500000001,6.81,0.101474,32.57
2021-06-23 15:25:22.695312500,60.0,-3.0,20.0,124.709140625,8.015,0.101474,32.57
2021-06-23 15:25:22.703125000,60.0,-3.0,20.0,124.70890625,9.22,0.101474,32.57
2021-06-23 15:25:22.710937500,60.0,-3.0,20.0,124.70867187500001,9.940000000000001,0.101474,32.57
2021-06-23 15:25:22.718750000,60.0,-3.0,20.0,124.7084375,10.66,0.101474,32.57
2021-06-23 15:25:22.726562500,60.0,-3.0,20.0,124.708203125,11.004999999999999,0.101474,32.57
2021-06-23 15:25:22.734375000,60.0,-3.0,20.0,124.70796875,11.35,0.101474,32.57
2021-06-23 15:25:22.742187500,60.0,-3.0,20.0,124.707734375,11.375,0.101474,32.57
2021-06-23 15:25:22.750000000,60.0,-3.0,20.0,124.70750000000001,11.4,0.101474,32.57
2021-06-23 15:25:22.757812500,60.0,-3.0,20.0,124.707265625,11.15,0.10139393749999999,32.57
2021-06-23 15:25:22.765625000,60.0,-3.0,20.0,124.70703125,10.9,0.101313875,32.57
2021-06-23 15:25:22.773437500,60.0,-3.0,20.0,124.70679687500001,10.42,0.10123381249999999,32.57
2021-06-23 15:25:22.781250000,60.0,-3.0,20.0,124.7065625,9.94,0.10115375,32.57
2021-06-23 15:25:22.789062500,60.0,-3.0,20.0,124.706328125,9.315,0.1010736875,32.57
2021-06-23 15:25:22.796875000,60.0,-3.0,20.0,124.70609375000001,8.69,0.10099362499999999,32.57
2021-06-23 15:25:22.804687500,60.0,-3.0,20.0,124.705859375,8.04,0.1009135625,32.57
2021-06-23 15:25:22.812500000,60.0,-3.0,20.0,124.705625,7.39,0.10083349999999999,32.57
2021-06-23 15:25:22.820312500,60.0,-3.0,20.0,124.705390625,6.82,0.1007534375,32.57
2021-06-23 15:25:22.828125000,60.0,-3.0,20.0,124.70515625,6.25,0.100673375,32.57
2021-06-23 15:25:22.835937500,60.0,-3.0,20.0,124.704921875,5.83,0.10059331249999999,32.57
2021-06-23 15:25:22.843750000,60.0,-3.0,20.0,124.7046875,5.41,0.10051325,32.57
2021-06-23 15:25:22.851562500,60.0,-3.0,20.0,124.704453125,5.145,0.10043318749999999,32.57
2021-06-23 15:25:22.859375000,60.0,-3.0,20.0,124.70421875000001,4.88,0.100353125,32.57
2021-06-23 15:25:22.867187500,60.0,-3.0,20.0,124.703984375,4.75,0.1002730625,32.57
2021-06-23 15:25:22.875000000,60.0,-3.0,20.0,124.70375,4.62,0.100193,32.57
2021-06-23 15:25:22.882812500,60.0,-3.0,20.0,124.70351562500001,4.5600000000000005,0.1001129375,32.57
2021-06-23 15:25:22.890625000,60.0,-3.0,20.0,124.70328125,4.5,0.100032875,32.57
2021-06-23 15:25:22.898437500,60.0,-3.0,20.0,124.703046875,4.43,0.0999528125,32.57
2021-06-23 15:25:22.906250000,60.0,-3.0,20.0,124.70281250000001,4.36,0.09987275,32.57
2021-06-23 15:25:22.914062500,60.0,-3.0,20.0,124.702578125,4.18,0.0997926875,32.57
2021-06-23 15:25:22.921875000,60.0,-3.0,20.0,124.70234375,4.0,0.099712625,32.57
2021-06-23 15:25:22.929687500,60.0,-3.0,20.0,124.702109375,3.6,0.0996325625,32.57
2021-06-23 15:25:22.937500000,60.0,-3.0,20.0,124.701875,3.2,0.0995525,32.57
2021-06-23 15:25:22.945312500,60.0,-3.0,20.0,124.701640625,2.47,0.0994724375,32.57
2021-06-23 15:25:22.953125000,60.0,-3.0,20.0,124.70140625,1.74,0.099392375,32.57
2021-06-23 15:25:22.960937500,60.0,-3.0,20.0,124.701171875,0.5800000000000001,0.0993123125,32.57
2021-06-23 15:25:22.968750000,60.0,-3.0,20.0,124.70093750000001,-0.58,0.09923225,32.57
2021-06-23 15:25:22.976562500,60.0,-3.0,20.0,124.700703125,-2.1799999999999997,0.0991521875,32.57
2021-06-23 15:25:22.984375000,60.0,-3.0,20.0,124.70046875,-3.78,0.099072125,32.57
2021-06-23 15:25:22.992187500,60.0,-3.0,20.0,124.70023437500001,-5.7299999999999995,0.0989920625,32.57
2021-06-23 15:25:23.000000000,60.0,-3.0,20.0,124.7,-7.68,0.098912,32.57
2021-06-23 15:25:23.007812500,60.0,-3.0,20.0,124.699765625,-9.719999999999999,0.09903209375,32.57
2021-06-23 15:25:23.015625000,60.0,-3.0,20.0,124.69953125,-11.76,0.0991521875,32.57
2021-06-23 15:25:23.023437500,60.0,-3.0,20.0,124.699296875,-13.5,0.09927228125,32.57
2021-06-23 15:25:23.031250000,60.0,-3.0,20.0,124.6990625,-15.24,0.099392375,32.57
2021-06-23 15:25:23.039062500,60.0,-3.0,20.0,124.698828125,-16.225,0.09951246875,32.57
2021-06-23 15:25:23.046875000,60.0,-3.0,20.0,124.69859375,-17.21,0.0996325625,32.57
2021-06-23 15:25:23.054687500,60.0,-3.0,20.0,124.69835937500001,-17.09,0.09975265625,32.57
2021-06-23 15:25:23.062500000,60.0,-3.0,20.0,124.698125,-16.97,0.09987275,32.57
2021-06-23 15:25:23.070312500,60.0,-3.0,20.0,124.697890625,-15.61,0.09999284375,32.57
2021-06-23 15:25:23.078125000,60.0,-3.0,20.0,124.69765625000001,-14.25,0.1001129375,32.57
2021-06-23 15:25:23.085937500,60.0,-3.0,20.0,124.697421875,-11.815000000000001,0.10023303125,32.57
2021-06-23 15:25:23.093750000,60.0,-3.0,20.0,124.6971875,-9.38,0.100353125,32.57
2021-06-23 15:25:23.101562500,60.0,-3.0,20.0,124.69695312500001,-6.315,0.10047321875,32.57
2021-06-23 15:25:23.109375000,60.0,-3.0,20.0,124.69671875,-3.25,0.1005933125,32.57
2021-06-23 15:25:23.117187500,60.0,-3.0,20.0,124.696484375,-0.1200000000000001,0.10071340625,32.57
2021-06-23 15:25:23.125000000,60.0,-3.0,20.0,124.69625,3.01,0.10083349999999999,32.57
2021-06-23 15:25:23.132812500,60.0,-3.0,20.0,124.696015625,5.715,0.10095359375,32.57
2021-06-23 15:25:23.140625000,60.0,-3.0,20.0,124.69578125,8.42,0.1010736875,32.57
2021-06-23 15:25:23.148437500,60.0,-3.0,20.0,124.695546875,10.405000000000001,0.10119378125,32.57
2021-06-23 15:25:23.156250000,60.0,-3.0,20.0,124.6953125,12.39,0.101313875,32.57
2021-06-23 15:25:23.164062500,60.0,-3.0,20.0,124.69507812500001,13.620000000000001,0.10143396875,32.57
2021-06-23 15:25:23.171875000,60.0,-3.0,20.0,124.69484375,14.85,0.1015540625,32.57
2021-06-23 15:25:23.179687500,60.0,-3.0,20.0,124.694609375,15.489999999999998,0.10167415625,32.57
2021-06-23 15:25:23.187500000,60.0,-3.0,20.0,124.69437500000001,16.13,0.10179425,32.57
2021-06-23 15:25:23.195312500,60.0,-3.0,20.0,124.694140625,16.424999999999997,0.10191434375,32.57
2021-06-23 15:25:23.203125000,60.0,-3.0,20.0,124.69390625,16.72,0.1020344375,32.57
2021-06-23 15:25:23.210937500,60.0,-3.0,20.0,124.693671875,16.88,0.10215453125,32.57
2021-06-23 15:25:23.218750000,60.0,-3.0,20.0,124.6934375,17.04,0.102274625,32.57
2021-06-23 15:25:23.226562500,60.0,-3.0,20.0,124.693203125,17.165,0.10239471875,32.57
2021-06-23 15:25:23.234375000,60.0,-3.0,20.0,124.69296875,17.29,0.1025148125,32.57
2021-06-23 15:25:23.242187500,60.0,-3.0,20.0,124.692734375,17.384999999999998,0.10263490625,32.57
2021-06-23 15:25:23.250000000,60.0,-3.0,20.0,124.6925,17.48,0.102755,32.57
2021-06-23 15:25:23.257812500,60.0,-3.0,20.0,124.692265625,17.495,0.10263490625,32.57
2021-06-23 15:25:23.265625000,60.0,-3.0,20.0,124.69203125,17.51,0.1025148125,32.57
2021-06-23 15:25:23.273437500,60.0,-3.0,20.0,124.69179687500001,17.385,0.10239471875,32.57
2021-06-23 15:25:23.281250000,60.0,-3.0,20.0,124.6915625,17.26,0.102274625,32.57
2021-06-23 15:25:23.289062500,60.0,-3.0,20.0,124.691328125,17.005000000000003,0.10215453125,32.57
2021-06-23 15:25:23.296875000,60.0,-3.0,20.0,124.69109375000001,16.75,0.1020344375,32.57
2021-06-23 15:25:23.304687500,60.0,-3.0,20.0,124.690859375,16.405,0.10191434375,32.57
2021-06-23 15:25:23.312500000,60.0,-3.0,20.0,124.690625,16.06,0.10179425,32.57
2021-06-23 15:25:23.320312500,60.0,-3.0,20.0,124.690390625,15.709999999999999,0.10167415625,32.57
2021-06-23 15:25:23.328125000,60.0,-3.0,20.0,124.69015625,15.36,0.1015540625,32.57
2021-06-23 15:25:23.335937500,60.0,-3.0,20.0,124.689921875,15.07,0.10143396875,32.57
2021-06-23 15:25:23.343750000,60.0,-3.0,20.0,124.6896875,14.78,0.101313875,32.57
2021-06-23 15:25:23.351562500,60.0,-3.0,20.0,124.689453125,14.594999999999999,0.10119378125,32.57
2021-06-23 15:25:23.359375000,60.0,-3.0,20.0,124.68921875000001,14.41,0.1010736875,32.57
2021-06-23 15:25:23.367187500,60.0,-3.0,20.0,124.688984375,14.27,0.10095359375,32.57
2021-06-23 15:25:23.375000000,60.0,-3.0,20.0,124.68875,14.13,0.10083349999999999,32.57
2021-06-23 15:25:23.382812500,60.0,-3.0,20.0,124.68851562500001,13.935,0.10071340625,32.57
2021-06-23 15:25:23.390625000,60.0,-3.0,20.0,124.68828125,13.74,0.1005933125,32.57
2021-06-23 15:25:23.398437500,60.0,-3.0,20.0,124.688046875,13.32,0.10047321875,32.57
2021-06-23 15:25:23.406250000,60.0,-3.0,20.0,124.6878125,12.9,0.100353125,32.57
2021-06-23 15:25:23.414062500,60.0,-3.0,20.0,124.687578125,12.085,0.10023303125,32.57
2021-06-23 15:25:23.421875000,60.0,-3.0,20.0,124.68734375,11.27,0.1001129375,32.57
2021-06-23 15:25:23.429687500,60.0,-3.0,20.0,124.687109375,9.905,0.09999284375,32.57
2021-06-23 15:25:23.437500000,60.0,-3.0,20.0,124.686875,8.54,0.09987275,32.57
2021-06-23 15:25:23.445312500,60.0,-3.0,20.0,124.686640625,6.555,0.09975265625,32.57
2021-06-23 15:25:23.453125000,60.0,-3.0,20.0,124.68640625,4.57,0.0996325625,32.57
2021-06-23 15:25:23.460937500,60.0,-3.0,20.0,124.686171875,2.02,0.09951246875,32.57
2021-06-23 15:25:23.468750000,60.0,-3.0,20.0,124.68593750000001,-0.53,0.099392375,32.57
2021-06-23 15:25:23.476562500,60.0,-3.0,20.0,124.685703125,-3.42,0.09927228125,32.57
2021-06-23 15:25:23.484375000,60.0,-3.0,20.0,124.68546875,-6.31,0.0991521875,32.57
2021-06-23 15:25:23.492187500,60.0,-3.0,20.0,124.68523437500001,-9.145,0.09903209375,32.57
2021-06-23 15:25:23.500000000,60.0,-3.0,20.0,124.685,-11.98,0.098912,32.57
2021-06-23 15:25:23.507812500,60.0,-3.0,20.0,124.684765625,-14.255,0.0988719375,32.57
2021-06-23 15:25:23.515625000,60.0,-3.0,20.0,124.68453125,-16.53,0.098831875,32.57
2021-06-23 15:25:23.523437500,60.0,-3.0,20.0,124.684296875,-17.770000000000003,0.09879181249999999,32.57
2021-06-23 15:25:23.531250000,60.0,-3.0,20.0,124.6840625,-19.01,0.09875175,32.57
2021-06-23 15:25:23.539062500,60.0,-3.0,20.0,124.683828125,-18.87,0.0987116875,32.57
2021-06-23 15:25:23.546875000,60.0,-3.0,20.0,124.68359375,-18.73,0.098671625,32.57
2021-06-23 15:25:23.554687500,60.0,-3.0,20.0,124.68335937500001,-17.155,0.09863156249999999,32.57
2021-06-23 15:25:23.562500000,60.0,-3.0,20.0,124.683125,-15.58,0.0985915,32.57
2021-06-23 15:25:23.570312500,60.0,-3.0,20.0,124.682890625,-12.815000000000001,0.0985514375,32.57
2021-06-23 15:25:23.578125000,60.0,-3.0,20.0,124.68265625000001,-10.05,0.098511375,32.57
2021-06-23 15:25:23.585937500,60.0,-3.0,20.0,124.682421875,-6.575,0.09847131249999999,32.57
2021-06-23 15:25:23.593750000,60.0,-3.0,20.0,124.6821875,-3.1,0.09843125,32.57
2021-06-23 15:25:23.601562500,60.0,-3.0,20.0,124.681953125,0.49499999999999966,0.0983911875,32.57
2021-06-23 15:25:23.609375000,60.0,-3.0,20.0,124.68171875,4.09,0.098351125,32.57
2021-06-23 15:25:23.617187500,60.0,-3.0,20.0,124.681484375,7.27,0.09831106249999999,32.57
2021-06-23 15:25:23.625000000,60.0,-3.0,20.0,124.68125,10.45,0.098271,32.57
2021-06-23 15:25:23.632812500,60.0,-3.0,20.0,124.681015625,12.879999999999999,0.0982309375,32.57
2021-06-23 15:25:23.640625000,60.0,-3.0,20.0,124.68078125,15.31,0.098190875,32.57
2021-06-23 15:25:23.648437500,60.0,-3.0,20.0,124.680546875,16.875,0.09815081249999999,32.57
2021-06-23 15:25:23.656250000,60.0,-3.0,20.0,124.6803125,18.44,0.09811075,32.57
2021-06-23 15:25:23.664062500,60.0,-3.0,20.0,124.68007812500001,19.23,0.0980706875,32.57
2021-06-23 15:25:23.671875000,60.0,-3.0,20.0,124.67984375,20.02,0.098030625,32.57
2021-06-23 15:25:23.679687500,60.0,-3.0,20.0,124.679609375,20.205,0.09799056249999999,32.57
2021-06-23 15:25:23.687500000,60.0,-3.0,20.0,124.67937500000001,20.39,0.0979505,32.57
2021-06-23 15:25:23.695312500,60.0,-2.75,20.0,124.679140625,20.134999999999998,0.0979104375,32.57
2021-06-23 15:25:23.703125000,60.0,-2.5,20.0,124.67890625,19.88,0.097870375,32.57
2021-06-23 15:25:23.710937500,60.0,-2.25,20.0,124.678671875,19.314999999999998,0.09783031249999999,32.57
2021-06-23 15:25:23.718750000,60.0,-2.0,20.0,124.6784375,18.75,0.09779025,32.57
2021-06-23 15:25:23.726562500,60.0,-2.25,20.0,124.678203125,17.96,0.0977501875,32.57
2021-06-23 15:25:23.734375000,60.0,-2.5,20.0,124.67796875,17.17,0.097710125,32.57
2021-06-23 15:25:23.742187500,60.0,-2.75,20.0,124.677734375,16.23,0.09767006249999999,32.57
2021-06-23 15:25:23.750000000,60.0,-3.0,20.0,124.67750000000001,15.29,0.09763,32.57
2021-06-23 15:25:23.757812500,60.0,-3.0,20.0,124.677265625,14.305,0.097750125,32.57
2021-06-23 15:25:23.765625000,60.0,-3.0,20.0,124.67703125,13.32,0.09787024999999999,32.57
2021-06-23 15:25:23.773437500,60.0,-3.0,20.0,124.67679687500001,12.445,0.09799037499999999,32.57
2021-06-23 15:25:23.781250000,60.0,-3.0,20.0,124.6765625,11.57,0.09811049999999999,32.57
2021-06-23 15:25:23.789062500,60.0,-2.75,20.0,124.676328125,10.93,0.09823062499999999,32.57
2021-06-23 15:25:23.796875000,60.0,-2.5,20.0,124.67609375,10.29,0.09835075,32.57
2021-06-23 15:25:23.804687500,60.0,-2.25,20.0,124.675859375,9.965,0.098470875,32.57
2021-06-23 15:25:23.812500000,60.0,-2.0,20.0,124.675625,9.64,0.098591,32.57
2021-06-23 15:25:23.820312500,60.0,-2.25,20.0,124.675390625,9.585,0.098711125,32.57
2021-06-23 15:25:23.828125000,60.0,-2.5,20.0,124.67515625,9.53,0.09883125,32.57
2021-06-23 15:25:23.835937500,60.0,-2.75,20.0,124.674921875,9.605,0.098951375,32.57
2021-06-23 15:25:23.843750000,60.0,-3.0,20.0,124.6746875,9.68,0.09907149999999999,32.57
2021-06-23 15:25:23.851562500,60.0,-3.0,20.0,124.674453125,9.71,0.09919162499999999,32.57
2021-06-23 15:25:23.859375000,60.0,-3.0,20.0,124.67421875000001,9.74,0.09931174999999999,32.57
2021-06-23 15:25:23.867187500,60.0,-3.0,20.0,124.673984375,9.565000000000001,0.09943187499999999,32.57
2021-06-23 15:25:23.875000000,60.0,-3.0,20.0,124.67375,9.39,0.099552,32.57
2021-06-23 15:25:23.882812500,60.0,-3.0,20.0,124.67351562500001,8.885000000000002,0.099672125,32.57
2021-06-23 15:25:23.890625000,60.0,-3.0,20.0,124.67328125,8.38,0.09979225,32.57
2021-06-23 15:25:23.898437500,60.0,-3.0,20.0,124.673046875,7.465,0.099912375,32.57
2021-06-23 15:25:23.906250000,60.0,-3.0,20.0,124.6728125,6.55,0.1000325,32.57
2021-06-23 15:25:23.914062500,60.0,-3.0,20.0,124.672578125,5.18,0.100152625,32.57
2021-06-23 15:25:23.921875000,60.0,-3.0,20.0,124.67234375,3.81,0.10027275,32.57
2021-06-23 15:25:23.929687500,60.0,-3.0,20.0,124.672109375,1.965,0.10039287499999999,32.57
2021-06-23 15:25:23.937500000,60.0,-3.0,20.0,124.671875,0.12,0.10051299999999999,32.57
2021-06-23 15:25:23.945312500,60.0,-3.0,20.0,124.671640625,-2.135,0.10063312499999999,32.57
2021-06-23 15:25:23.953125000,60.0,-3.0,20.0,124.67140625,-4.39,0.10075324999999999,32.57
2021-06-23 15:25:23.960937500,60.0,-3.0,20.0,124.671171875,-6.84,0.100873375,32.57
2021-06-23 15:25:23.968750000,60.0,-3.0,20.0,124.67093750000001,-9.29,0.1009935,32.57
2021-06-23 15:25:23.976562500,60.0,-3.0,20.0,124.670703125,-11.555,0.101113625,32.57
2021-06-23 15:25:23.984375000,60.0,-3.0,20.0,124.67046875,-13.82,0.10123375,32.57
2021-06-23 15:25:23.992187500,60.0,-3.0,20.0,124.670234375,-15.425,0.101353875,32.57
2021-06-23 15:25:24.000000000,60.0,-3.0,20.0,124.67,-17.03,0.101474,32.57
2021-06-23 15:25:24.007812500,60.0,-3.0,20.0,124.6696875,-17.5,0.101353875,32.57
2021-06-23 15:25:24.015625000,60.0,-3.0,20.0,124.669375,-17.97,0.10123375,32.57
2021-06-23 15:25:24.023437500,60.0,-3.0,20.0,124.6690625,-17.03,0.101113625,32.57
2021-06-23 15:25:24.031250000,60.0,-3.0,20.0,124.66875,-16.09,0.1009935,32.57
2021-06-23 15:25:24.039062500,60.0,-3.0,20.0,124.6684375,-13.775,0.100873375,32.57
2021-06-23 15:25:24.046875000,60.0,-3.0,20.0,124.668125,-11.46,0.10075324999999999,32.57
2021-06-23 15:25:24.054687500,60.0,-3.0,20.0,124.6678125,-8.145,0.10063312499999999,32.57
2021-06-23 15:25:24.062500000,60.0,-3.0,20.0,124.6675,-4.83,0.10051299999999999,32.57
2021-06-23 15:25:24.070312500,60.0,-3.0,20.0,124.6671875,-1.1150000000000002,0.10039287499999999,32.57
2021-06-23 15:25:24.078125000,60.0,-3.0,20.0,124.666875,2.6,0.10027275,32.57
2021-06-23 15:25:24.085937500,60.0,-3.0,20.0,124.6665625,6.09,0.100152625,32.57
2021-06-23 15:25:24.093750000,60.0,-3.0,20.0,124.66625,9.58,0.1000325,32.57
2021-06-23 15:25:24.101562500,60.0,-3.0,20.0,124.6659375,12.375,0.099912375,32.57
2021-06-23 15:25:24.109375000,60.0,-3.0,20.0,124.665625,15.17,0.09979225,32.57
2021-06-23 15:25:24.117187500,60.0,-3.0,20.0,124.6653125,17.095,0.099672125,32.57
2021-06-23 15:25:24.125000000,60.0,-3.0,20.0,124.665,19.02,0.099552,32.57
2021-06-23 15:25:24.132812500,60.0,-3.0,20.0,124.6646875,20.14,0.09943187499999999,32.57
2021-06-23 15:25:24.140625000,60.0,-3.0,20.0,124.664375,21.26,0.09931174999999999,32.57
2021-06-23 15:25:24.148437500,60.0,-3.0,20.0,124.6640625,21.805,0.09919162499999999,32.57
2021-06-23 15:25:24.156250000,60.0,-3.0,20.0,124.66375000000001,22.35,0.09907149999999999,32.57
2021-06-23 15:25:24.164062500,60.0,-2.75,20.0,124.6634375,22.535,0.098951375,32.57
2021-06-23 15:25:24.171875000,60.0,-2.5,20.0,124.663125,22.72,0.09883125,32.57
2021-06-23 15:25:24.179687500,60.0,-2.25,20.0,124.6628125,22.65,0.098711125,32.57
2021-06-23 15:25:24.187500000,60.0,-2.0,20.0,124.6625,22.58,0.098591,32.57
2021-06-23 15:25:24.195312500,60.0,-2.25,20.0,124.6621875,22.244999999999997,0.098470875,32.57
2021-06-23 15:25:24.203125000,60.0,-2.5,20.0,124.661875,21.91,0.09835075,32.57
2021-06-23 15:25:24.210937500,60.0,-2.75,20.0,124.6615625,21.259999999999998,0.09823062499999999,32.57
2021-06-23 15:25:24.218750000,60.0,-3.0,20.0,124.66125,20.61,0.09811049999999999,32.57
2021-06-23 15:25:24.226562500,60.0,-3.0,20.0,124.6609375,19.66,0.09799037499999999,32.57
2021-06-23 15:25:24.234375000,60.0,-3.0,20.0,124.660625,18.71,0.09787024999999999,32.57
2021-06-23 15:25:24.242187500,60.0,-3.0,20.0,124.6603125,17.6,0.097750125,32.57
2021-06-23 15:25:24.250000000,60.0,-3.0,20.0,124.66,16.49,0.09763,32.57
2021-06-23 15:25:24.257812500,60.0,-3.0,20.0,124.6596875,15.43,0.09779015625,32.57
2021-06-23 15:25:24.265625000,60.0,-3.0,20.0,124.659375,14.37,0.0979503125,32.57
2021-06-23 15:25:24.273437500,60.0,-3.0,20.0,124.6590625,13.55,0.09811046875,32.57
2021-06-23 15:25:24.281250000,60.0,-3.0,20.0,124.65875,12.73,0.098270625,32.57
2021-06-23 15:25:24.289062500,60.0,-3.0,20.0,124.6584375,12.235,0.09843078125,32.57
2021-06-23 15:25:24.296875000,60.0,-3.0,20.0,124.658125,11.74,0.09859093749999999,32.57
2021-06-23 15:25:24.304687500,60.0,-3.0,20.0,124.6578125,11.52,0.09875109374999999,32.57
2021-06-23 15:25:24.312500000,60.0,-3.0,20.0,124.6575,11.3,0.09891124999999999,32.57
2021-06-23 15:25:24.320312500,60.0,-3.0,20.0,124.6571875,11.185,0.09907140625,32.57
2021-06-23 15:25:24.328125000,60.0,-3.0,20.0,124.656875,11.07,0.0992315625,32.57
2021-06-23 15:25:24.335937500,60.0,-3.0,20.0,124.65656249999999,10.86,0.09939171875,32.57
2021-06-23 15:25:24.343750000,60.0,-3.0,20.0,124.65625,10.65,0.099551875,32.57
2021-06-23 15:25:24.351562500,60.0,-3.0,20.0,124.6559375,10.195,0.09971203125,32.57
2021-06-23 15:25:24.359375000,60.0,-3.0,20.0,124.655625,9.74,0.0998721875,32.57
2021-06-23 15:25:24.367187500,60.0,-3.0,20.0,124.6553125,8.955,0.10003234375,32.57
2021-06-23 15:25:24.375000000,60.0,-3.0,20.0,124.655,8.17,0.10019249999999999,32.57
2021-06-23 15:25:24.382812500,60.0,-3.0,20.0,124.6546875,7.01,0.10035265624999999,32.57
2021-06-23 15:25:24.390625000,60.0,-3.0,20.0,124.654375,5.85,0.10051281249999999,32.57
2021-06-23 15:25:24.398437500,60.0,-3.0,20.0,124.6540625,4.29,0.10067296875,32.57
2021-06-23 15:25:24.406250000,60.0,-3.0,20.0,124.65375,2.73,0.100833125,32.57
2021-06-23 15:25:24.414062500,60.0,-3.0,20.0,124.6534375,0.76,0.10099328125,32.57
2021-06-23 15:25:24.421875000,60.0,-3.0,20.0,124.653125,-1.21,0.1011534375,32.57
2021-06-23 15:25:24.429687500,60.0,-3.0,20.0,124.6528125,-3.52,0.10131359375,32.57
2021-06-23 15:25:24.437500000,60.0,-3.0,20.0,124.6525,-5.83,0.10147375,32.57
2021-06-23 15:25:24.445312500,60.0,-3.0,20.0,124.6521875,-8.29,0.10163390625,32.57
2021-06-23 15:25:24.453125000,60.0,-3.0,20.0,124.651875,-10.75,0.1017940625,32.57
2021-06-23 15:25:24.460937500,60.0,-3.0,20.0,124.6515625,-13.0,0.10195421874999999,32.57
2021-06-23 15:25:24.468750000,60.0,-3.0,20.0,124.65125,-15.25,0.102114375,32.57
2021-06-23 15:25:24.476562500,60.0,-3.0,20.0,124.6509375,-16.814999999999998,0.10227453125,32.57
2021-06-23 15:25:24.484375000,60.0,-3.0,20.0,124.650625,-18.38,0.1024346875,32.57
2021-06-23 15:25:24.492187500,60.0,-3.0,20.0,124.6503125,-18.805,0.10259484375,32.57
2021-06-23 15:25:24.500000000,60.0,-3.0,20.0,124.65,-19.23,0.102755,32.57
2021-06-23 15:25:24.507812500,60.0,-3.0,20.0,124.6496875,-18.240000000000002,0.102755,32.57
2021-06-23 15:25:24.515625000,60.0,-3.0,20.0,124.64937499999999,-17.25,0.102755,32.57
2021-06-23 15:25:24.523437500,60.0,-3.0,20.0,124.6490625,-14.879999999999999,0.102755,32.57
2021-06-23 15:25:24.531250000,60.0,-3.0,20.0,124.64874999999999,-12.51,0.102755,32.57
2021-06-23 15:25:24.539062500,60.0,-2.75,20.0,124.6484375,-9.135,0.102755,32.57
2021-06-23 15:25:24.546875000,60.0,-2.5,20.0,124.648125,-5.76,0.102755,32.57
2021-06-23 15:25:24.554687500,60.0,-2.25,20.0,124.6478125,-1.955,0.102755,32.57
2021-06-23 15:25:24.562500000,60.0,-2.0,20.0,124.6475,1.85,0.102755,32.57
2021-06-23 15:25:24.570312500,60.0,-2.25,20.0,124.6471875,5.4399999999999995,0.102755,32.57
2021-06-23 15:25:24.578125000,60.0,-2.5,20.0,124.646875,9.03,0.102755,32.57
2021-06-23 15:25:24.585937500,60.0,-2.75,20.0,124.6465625,11.93,0.102755,32.57
2021-06-23 15:25:24.593750000,60.0,-3.0,20.0,124.64625,14.83,0.102755,32.57
2021-06-23 15:25:24.601562500,60.0,-3.0,20.0,124.6459375,16.8,0.102755,32.57
2021-06-23 15:25:24.609375000,60.0,-3.0,20.0,124.645625,18.77,0.102755,32.57
2021-06-23 15:25:24.617187500,60.0,-3.0,20.0,124.6453125,19.86,0.102755,32.57
2021-06-23 15:25:24.625000000,60.0,-3.0,20.0,124.645,20.95,0.102755,32.57
2021-06-23 15:25:24.632812500,60.0,-3.0,20.0,124.6446875,21.369999999999997,0.102755,32.57
2021-06-23 15:25:24.640625000,60.0,-3.0,20.0,124.644375,21.79,0.102755,32.57
2021-06-23 15:25:24.648437500,60.0,-3.0,20.0,124.6440625,21.775,0.102755,32.57
2021-06-23 15:25:24.656250000,60.0,-3.0,20.0,124.64375,21.76,0.102755,32.57
2021-06-23 15:25:24.664062500,60.0,-3.0,20.0,124.6434375,21.485,0.102755,32.57
2021-06-23 15:25:24.671875000,60.0,-3.0,20.0,124.643125,21.21,0.102755,32.57
2021-06-23 15:25:24.679687500,60.0,-3.0,20.0,124.64281249999999,20.73,0.102755,32.57
2021-06-23 15:25:24.687500000,60.0,-3.0,20.0,124.6425,20.25,0.102755,32.57
2021-06-23 15:25:24.695312500,60.0,-3.0,20.0,124.64218749999999,19.555,0.102755,32.57
2021-06-23 15:25:24.703125000,60.0,-3.0,20.0,124.641875,18.86,0.102755,32.57
2021-06-23 15:25:24.710937500,60.0,-3.0,20.0,124.64156249999999,17.935000000000002,0.102755,32.57
2021-06-23 15:25:24.718750000,60.0,-3.0,20.0,124.64125,17.01,0.102755,32.57
2021-06-23 15:25:24.726562500,60.0,-2.75,20.0,124.64093749999999,15.9,0.102755,32.57
2021-06-23 15:25:24.734375000,60.0,-2.5,20.0,124.640625,14.79,0.102755,32.57
2021-06-23 15:25:24.742187500,60.0,-2.25,20.0,124.6403125,13.629999999999999,0.102755,32.57
2021-06-23 15:25:24.750000000,60.0,-2.0,20.0,124.64,12.47,0.102755,32.57
2021-06-23 15:25:24.757812500,60.0,-2.25,20.0,124.6396875,11.405000000000001,0.10259484375,32.57
2021-06-23 15:25:24.765625000,60.0,-2.5,20.0,124.639375,10.34,0.1024346875,32.57
2021-06-23 15:25:24.773437500,60.0,-2.75,20.0,124.6390625,9.495000000000001,0.10227453125,32.57
2021-06-23 15:25:24.781250000,60.0,-3.0,20.0,124.63875,8.65,0.102114375,32.57
2021-06-23 15:25:24.789062500,60.0,-3.0,20.0,124.6384375,8.07,0.10195421874999999,32.57
2021-06-23 15:25:24.796875000,60.0,-3.0,20.0,124.638125,7.49,0.1017940625,32.57
2021-06-23 15:25:24.804687500,60.0,-3.0,20.0,124.6378125,7.11,0.10163390625,32.57
2021-06-23 15:25:24.812500000,60.0,-3.0,20.0,124.6375,6.73,0.10147375,32.57
2021-06-23 15:25:24.820312500,60.0,-3.0,20.0,124.6371875,6.445,0.10131359375,32.57
2021-06-23 15:25:24.828125000,60.0,-3.0,20.0,124.636875,6.16,0.1011534375,32.57
2021-06-23 15:25:24.835937500,60.0,-3.0,20.0,124.6365625,5.800000000000001,0.10099328125,32.57
2021-06-23 15:25:24.843750000,60.0,-3.0,20.0,124.63624999999999,5.44,0.100833125,32.57
2021-06-23 15:25:24.851562500,60.0,-3.0,20.0,124.6359375,4.875,0.10067296875,32.57
2021-06-23 15:25:24.859375000,60.0,-3.0,20.0,124.63562499999999,4.31,0.10051281249999999,32.57
2021-06-23 15:25:24.867187500,60.0,-3.0,20.0,124.6353125,3.415,0.10035265624999999,32.57
2021-06-23 15:25:24.875000000,60.0,-3.0,20.0,124.63499999999999,2.52,0.10019249999999999,32.57
2021-06-23 15:25:24.882812500,60.0,-3.0,20.0,124.6346875,1.21,0.10003234375,32.57
2021-06-23 15:25:24.890625000,60.0,-3.0,20.0,124.63437499999999,-0.1,0.0998721875,32.57
2021-06-23 15:25:24.898437500,60.0,-3.0,20.0,124.6340625,-1.865,0.09971203125,32.57
2021-06-23 15:25:24.906250000,60.0,-3.0,20.0,124.63374999999999,-3.63,0.099551875,32.57
2021-06-23 15:25:24.914062500,60.0,-3.0,20.0,124.6334375,-5.805,0.09939171875,32.57
2021-06-23 15:25:24.921875000,60.0,-3.0,20.0,124.63312499999999,-7.98,0.0992315625,32.57
2021-06-23 15:25:24.929687500,60.0,-3.0,20.0,124.6328125,-10.370000000000001,0.09907140625,32.57
2021-06-23 15:25:24.937500000,60.0,-3.0,20.0,124.6325,-12.76,0.09891124999999999,32.57
2021-06-23 15:25:24.945312500,60.0,-3.0,20.0,124.6321875,-14.995000000000001,0.09875109374999999,32.57
2021-06-23 15:25:24.953125000,60.0,-3.0,20.0,124.631875,-17.23,0.09859093749999999,32.57
2021-06-23 15:25:24.960937500,60.0,-3.0,20.0,124.6315625,-18.795,0.09843078124999999,32.57
2021-06-23 15:25:24.968750000,60.0,-3.0,20.0,124.63125,-20.36,0.098270625,32.57
2021-06-23 15:25:24.976562500,60.0,-3.0,20.0,124.6309375,-20.744999999999997,0.09811046875,32.57
2021-06-23 15:25:24.984375000,60.0,-3.0,20.0,124.630625,-21.13,0.0979503125,32.57
2021-06-23 15:25:24.992187500,60.0,-3.0,20.0,124.6303125,-19.96,0.09779015625,32.57
2021-06-23 15:25:25.000000000,60.0,-3.0,20.0,124.63,-18.79,0.09763,32.57
2021-06-23 15:25:25.007812500,60.0,-3.0,20.0,124.629609375,-16.04,0.097750125,32.57
2021-06-23 15:25:25.015625000,60.0,-3.0,20.0,124.62921874999999,-13.29,0.09787024999999999,32.57
2021-06-23 15:25:25.023437500,60.0,-3.0,20.0,124.628828125,-9.305,0.09799037499999999,32.57
2021-06-23 15:25:25.031250000,60.0,-3.0,20.0,124.62843749999999,-5.32,0.09811049999999999,32.57
2021-06-23 15:25:25.039062500,60.0,-3.0,20.0,124.628046875,-0.7599999999999998,0.09823062499999999,32.57
2021-06-23 15:25:25.046875000,60.0,-3.0,20.0,124.62765625,3.8,0.09835075,32.57
2021-06-23 15:25:25.054687500,60.0,-3.0,20.0,124.62726562499999,8.184999999999999,0.098470875,32.57
2021-06-23 15:25:25.062500000,60.0,-3.0,20.0,124.626875,12.57,0.098591,32.57
2021-06-23 15:25:25.070312500,60.0,-3.0,20.0,124.62648437499999,16.14,0.098711125,32.57
