TimeStamp,empatica.acc.x,empatica.acc.y,empatica.acc.z,empatica.hr,empatica.bvp,empatica.eda,empatica.temp
2021-06-23 17:26:31.007812500,-36.0,6.0,53.0,84.749609375,26.545,21.60559459375,34.309375
2021-06-23 17:26:31.015625000,-36.0,6.0,53.0,84.74921875,27.9,21.605074187499998,34.30875
2021-06-23 17:26:31.023437500,-36.0,6.0,53.0,84.748828125,28.65,21.60455378125,34.308125000000004
2021-06-23 17:26:31.031250000,-36.0,6.0,53.0,84.7484375,29.4,21.604033375,34.307500000000005
2021-06-23 17:26:31.039062500,-36.0,6.0,53.0,84.748046875,29.729999999999997,21.60351296875,34.306875000000005
2021-06-23 17:26:31.046875000,-36.0,6.0,53.0,84.74765625,30.06,21.6029925625,34.30625
2021-06-23 17:26:31.054687500,-36.0,6.0,53.0,84.747265625,30.09,21.60247215625,34.305625
2021-06-23 17:26:31.062500000,-36.0,6.0,53.0,84.746875,30.12,21.601951749999998,34.305
2021-06-23 17:26:31.070312500,-36.0,5.75,53.0,84.746484375,29.880000000000003,21.60143134375,34.304375
2021-06-23 17:26:31.078125000,-36.0,5.5,53.0,84.74609375,29.64,21.6009109375,34.30375
2021-06-23 17:26:31.085937500,-36.0,5.25,53.0,84.745703125,29.085,21.60039053125,34.303125
2021-06-23 17:26:31.093750000,-36.0,5.0,53.0,84.7453125,28.53,21.599870125,34.3025
2021-06-23 17:26:31.101562500,-36.0,5.25,53.0,84.744921875,27.630000000000003,21.59934971875,34.301875
2021-06-23 17:26:31.109375000,-36.0,5.5,53.0,84.74453125,26.73,21.5988293125,34.30125
2021-06-23 17:26:31.117187500,-36.0,5.75,53.0,84.744140625,25.54,21.59830890625,34.300625000000004
2021-06-23 17:26:31.125000000,-36.0,6.0,53.0,84.74375,24.35,21.5977885,34.3
2021-06-23 17:26:31.132812500,-36.0,6.0,53.0,84.743359375,23.020000000000003,21.59726809375,34.299375
2021-06-23 17:26:31.140625000,-36.0,6.0,53.0,84.74296875,21.69,21.5967476875,34.29875
2021-06-23 17:26:31.148437500,-36.0,6.0,53.0,84.742578125,20.425,21.596227281250002,34.298125
2021-06-23 17:26:31.156250000,-36.0,6.0,53.0,84.7421875,19.16,21.595706875,34.2975
2021-06-23 17:26:31.164062500,-36.0,5.75,53.0,84.741796875,18.11,21.59518646875,34.296875
2021-06-23 17:26:31.171875000,-36.0,5.5,53.0,84.74140625,17.06,21.5946660625,34.29625
2021-06-23 17:26:31.179687500,-36.0,5.25,53.0,84.741015625,16.265,21.59414565625,34.295625
2021-06-23 17:26:31.187500000,-36.0,5.0,53.0,84.740625,15.47,21.593625250000002,34.295
2021-06-23 17:26:31.195312500,-36.0,5.25,53.0,84.740234375,14.83,21.59310484375,34.294375
2021-06-23 17:26:31.203125000,-36.0,5.5,53.0,84.73984375,14.19,21.5925844375,34.29375
2021-06-23 17:26:31.210937500,-36.0,5.75,53.0,84.739453125,13.559999999999999,21.59206403125,34.293124999999996
2021-06-23 17:26:31.218750000,-36.0,6.0,53.0,84.7390625,12.93,21.591543625,34.2925
2021-06-23 17:26:31.226562500,-36.0,6.0,53.0,84.738671875,12.17,21.59102321875,34.291875
2021-06-23 17:26:31.234375000,-36.0,6.0,53.0,84.73828125,11.41,21.590502812500002,34.29125
2021-06-23 17:26:31.242187500,-36.0,6.0,53.0,84.737890625,10.435,21.58998240625,34.290625
2021-06-23 17:26:31.250000000,-36.0,6.0,53.0,84.7375,9.46,21.589462,34.29
2021-06-23 17:26:31.257812500,-36.0,5.75,53.0,84.737109375,8.280000000000001,21.589502,34.29
2021-06-23 17:26:31.265625000,-36.0,5.5,53.0,84.73671875,7.1,21.589542,34.29
2021-06-23 17:26:31.273437500,-36.0,5.25,53.0,84.736328125,5.765,21.589582,34.29
2021-06-23 17:26:31.281250000,-36.0,5.0,53.0,84.7359375,4.43,21.589622000000002,34.29
2021-06-23 17:26:31.289062500,-36.0,5.25,53.0,84.735546875,3.005,21.589662,34.29
2021-06-23 17:26:31.296875000,-36.0,5.5,53.0,84.73515625,1.58,21.589702,34.29
2021-06-23 17:26:31.304687500,-36.0,5.75,53.0,84.734765625,0.16000000000000014,21.589742,34.29
2021-06-23 17:26:31.312500000,-36.0,6.0,53.0,84.734375,-1.26,21.589782,34.29
2021-06-23 17:26:31.320312500,-36.0,6.0,53.0,84.733984375,-2.62,21.589822,34.29
2021-06-23 17:26:31.328125000,-36.0,6.0,53.0,84.73359375,-3.98,21.589862,34.29
2021-06-23 17:26:31.335937500,-36.0,6.0,53.0,84.733203125,-5.23,21.589902,34.29
2021-06-23 17:26:31.343750000,-36.0,6.0,53.0,84.7328125,-6.48,21.589942,34.29
2021-06-23 17:26:31.351562500,-36.0,5.75,53.0,84.732421875,-7.625,21.589982,34.29
2021-06-23 17:26:31.359375000,-36.0,5.5,53.0,84.73203125,-8.77,21.590022,34.29
2021-06-23 17:26:31.367187500,-36.0,5.25,53.0,84.731640625,-9.865,21.590062,34.29
2021-06-23 17:26:31.375000000,-36.0,5.0,53.0,84.73125,-10.96,21.590102,34.29
2021-06-23 17:26:31.382812500,-36.0,5.25,53.0,84.730859375,-12.065000000000001,21.590142,34.29
2021-06-23 17:26:31.390625000,-36.0,5.5,53.0,84.73046875,-13.17,21.590182,34.29
2021-06-23 17:26:31.398437500,-36.0,5.75,53.0,84.730078125,-14.315000000000001,21.590222,34.29
2021-06-23 17:26:31.406250000,-36.0,6.0,53.0,84.7296875,-15.46,21.590262,34.29
2021-06-23 17:26:31.414062500,-36.0,6.0,53.0,84.729296875,-16.66,21.590302,34.29
2021-06-23 17:26:31.421875000,-36.0,6.0,53.0,84.72890625,-17.86,21.590342,34.29
2021-06-23 17:26:31.429687500,-36.0,6.0,53.0,84.728515625,-19.11,21.590381999999998,34.29
2021-06-23 17:26:31.437500000,-36.0,6.0,53.0,84.728125,-20.36,21.590422,34.29
2021-06-23 17:26:31.445312500,-36.0,5.75,53.0,84.727734375,-21.665,21.590462,34.29
2021-06-23 17:26:31.453125000,-36.0,5.5,53.0,84.72734375,-22.97,21.590502,34.29
2021-06-23 17:26:31.460937500,-36.0,5.25,53.0,84.726953125,-24.395,21.590542,34.29
2021-06-23 17:26:31.468750000,-36.0,5.0,53.0,84.7265625,-25.82,21.590581999999998,34.29
2021-06-23 17:26:31.476562500,-36.0,5.25,53.0,84.726171875,-27.415,21.590622,34.29
2021-06-23 17:26:31.484375000,-36.0,5.5,53.0,84.72578125,-29.01,21.590662,34.29
2021-06-23 17:26:31.492187500,-36.0,5.75,53.0,84.725390625,-30.744999999999997,21.590702,34.29
2021-06-23 17:26:31.500000000,-36.0,6.0,53.0,84.725,-32.48,21.590742,34.29
2021-06-23 17:26:31.507812500,-36.0,5.75,53.0,84.724609375,-34.22,21.590822125,34.29
2021-06-23 17:26:31.515625000,-36.0,5.5,53.0,84.72421875,-35.96,21.59090225,34.29
2021-06-23 17:26:31.523437500,-36.0,5.25,53.0,84.723828125,-37.455,21.590982375,34.29
2021-06-23 17:26:31.531250000,-36.0,5.0,53.0,84.7234375,-38.95,21.5910625,34.29
2021-06-23 17:26:31.539062500,-36.0,5.25,53.0,84.72304687500001,-39.915000000000006,21.591142625,34.29
2021-06-23 17:26:31.546875000,-36.0,5.5,53.0,84.72265625,-40.88,21.59122275,34.29
2021-06-23 17:26:31.554687500,-36.0,5.75,53.0,84.722265625,-41.085,21.591302875,34.29
2021-06-23 17:26:31.562500000,-36.0,6.0,53.0,84.721875,-41.29,21.591383,34.29
2021-06-23 17:26:31.570312500,-36.0,6.0,53.0,84.721484375,-40.66,21.591463124999997,34.29
2021-06-23 17:26:31.578125000,-36.0,6.0,53.0,84.72109375000001,-40.03,21.591543249999997,34.29
2021-06-23 17:26:31.585937500,-36.0,6.0,53.0,84.720703125,-38.565,21.591623374999998,34.29
2021-06-23 17:26:31.593750000,-36.0,6.0,53.0,84.7203125,-37.1,21.591703499999998,34.29
2021-06-23 17:26:31.601562500,-36.0,6.0,53.0,84.719921875,-34.870000000000005,21.591783624999998,34.29
2021-06-23 17:26:31.609375000,-36.0,6.0,53.0,84.71953125,-32.64,21.591863749999998,34.29
2021-06-23 17:26:31.617187500,-36.0,6.0,53.0,84.71914062500001,-29.705,21.591943875,34.29
2021-06-23 17:26:31.625000000,-36.0,6.0,53.0,84.71875,-26.77,21.592024,34.29
2021-06-23 17:26:31.632812500,-36.0,6.0,53.0,84.718359375,-23.189999999999998,21.592104125,34.29
2021-06-23 17:26:31.640625000,-36.0,6.0,53.0,84.71796875,-19.61,21.59218425,34.29
2021-06-23 17:26:31.648437500,-36.0,6.0,53.0,84.717578125,-15.485,21.592264375,34.29
2021-06-23 17:26:31.656250000,-36.0,6.0,53.0,84.71718750000001,-11.36,21.5923445,34.29
2021-06-23 17:26:31.664062500,-36.0,6.0,53.0,84.716796875,-6.89,21.592424625,34.29
2021-06-23 17:26:31.671875000,-36.0,6.0,53.0,84.71640625,-2.42,21.59250475,34.29
2021-06-23 17:26:31.679687500,-36.0,6.0,53.0,84.716015625,2.085,21.592584875,34.29
2021-06-23 17:26:31.687500000,-36.0,6.0,53.0,84.715625,6.59,21.592664999999997,34.29
2021-06-23 17:26:31.695312500,-36.0,6.0,53.0,84.71523437500001,10.785,21.592745124999997,34.29
2021-06-23 17:26:31.703125000,-36.0,6.0,53.0,84.71484375,14.98,21.592825249999997,34.29
2021-06-23 17:26:31.710937500,-36.0,6.0,53.0,84.714453125,18.525,21.592905374999997,34.29
2021-06-23 17:26:31.718750000,-36.0,6.0,53.0,84.7140625,22.07,21.592985499999998,34.29
2021-06-23 17:26:31.726562500,-36.0,6.0,53.0,84.713671875,24.755000000000003,21.593065624999998,34.29
2021-06-23 17:26:31.734375000,-36.0,6.0,53.0,84.71328125000001,27.44,21.593145749999998,34.29
2021-06-23 17:26:31.742187500,-36.0,6.0,53.0,84.712890625,29.185000000000002,21.593225874999998,34.29
2021-06-23 17:26:31.750000000,-36.0,6.0,53.0,84.7125,30.93,21.593306,34.29
2021-06-23 17:26:31.757812500,-35.75,5.75,53.0,84.712109375,31.785,21.594146656249997,34.29
2021-06-23 17:26:31.765625000,-35.5,5.5,53.0,84.71171875,32.64,21.5949873125,34.29
2021-06-23 17:26:31.773437500,-35.25,5.25,53.0,84.71132812500001,32.74,21.595827968749997,34.29
2021-06-23 17:26:31.781250000,-35.0,5.0,53.0,84.7109375,32.84,21.596668625,34.29
2021-06-23 17:26:31.789062500,-35.25,5.25,53.0,84.710546875,32.375,21.597509281249998,34.29
2021-06-23 17:26:31.796875000,-35.5,5.5,53.0,84.71015625,31.91,21.5983499375,34.29
2021-06-23 17:26:31.804687500,-35.75,5.75,53.0,84.709765625,31.075,21.59919059375,34.29
2021-06-23 17:26:31.812500000,-36.0,6.0,53.0,84.70937500000001,30.24,21.60003125,34.29
2021-06-23 17:26:31.820312500,-36.0,6.0,53.0,84.708984375,29.215,21.60087190625,34.29
2021-06-23 17:26:31.828125000,-36.0,6.0,53.0,84.70859375,28.19,21.601712562499998,34.29
2021-06-23 17:26:31.835937500,-36.0,6.0,53.0,84.708203125,27.11,21.60255321875,34.29
2021-06-23 17:26:31.843750000,-36.0,6.0,53.0,84.7078125,26.03,21.603393875,34.29
2021-06-23 17:26:31.851562500,-36.0,5.75,53.0,84.70742187500001,24.975,21.60423453125,34.29
2021-06-23 17:26:31.859375000,-36.0,5.5,53.0,84.70703125,23.92,21.6050751875,34.29
2021-06-23 17:26:31.867187500,-36.0,5.25,53.0,84.706640625,22.92,21.60591584375,34.29
2021-06-23 17:26:31.875000000,-36.0,5.0,53.0,84.70625,21.92,21.6067565,34.29
2021-06-23 17:26:31.882812500,-36.0,5.25,53.0,84.705859375,20.945,21.607597156249998,34.29
2021-06-23 17:26:31.890625000,-36.0,5.5,53.0,84.70546875000001,19.97,21.6084378125,34.29
2021-06-23 17:26:31.898437500,-36.0,5.75,53.0,84.705078125,18.994999999999997,21.60927846875,34.29
2021-06-23 17:26:31.906250000,-36.0,6.0,53.0,84.7046875,18.02,21.610119125,34.29
2021-06-23 17:26:31.914062500,-36.0,6.0,53.0,84.704296875,17.02,21.61095978125,34.29
2021-06-23 17:26:31.921875000,-36.0,6.0,53.0,84.70390625,16.02,21.6118004375,34.29
2021-06-23 17:26:31.929687500,-36.0,6.0,53.0,84.70351562500001,14.995000000000001,21.61264109375,34.29
2021-06-23 17:26:31.937500000,-36.0,6.0,53.0,84.703125,13.97,21.61348175,34.29
2021-06-23 17:26:31.945312500,-36.0,6.0,53.0,84.702734375,12.975000000000001,21.61432240625,34.29
2021-06-23 17:26:31.953125000,-36.0,6.0,53.0,84.70234375,11.98,21.6151630625,34.29
2021-06-23 17:26:31.960937500,-36.0,6.0,53.0,84.701953125,11.065000000000001,21.61600371875,34.29
2021-06-23 17:26:31.968750000,-36.0,6.0,53.0,84.70156250000001,10.15,21.616844375,34.29
2021-06-23 17:26:31.976562500,-36.0,6.0,53.0,84.701171875,9.370000000000001,21.61768503125,34.29
2021-06-23 17:26:31.984375000,-36.0,6.0,53.0,84.70078125,8.59,21.6185256875,34.29
2021-06-23 17:26:31.992187500,-36.0,6.0,53.0,84.700390625,7.949999999999999,21.619366343750002,34.29
2021-06-23 17:26:32.000000000,-36.0,6.0,53.0,84.7,7.31,21.620207,34.29
2021-06-23 17:26:32.007812500,-36.0,6.0,53.0,84.69960937500001,6.775,21.62112771875,34.290625
2021-06-23 17:26:32.015625000,-36.0,6.0,53.0,84.69921875,6.24,21.622048437500002,34.29125
2021-06-23 17:26:32.023437500,-36.0,6.0,53.0,84.698828125,5.745,21.62296915625,34.291875
2021-06-23 17:26:32.031250000,-36.0,6.0,53.0,84.6984375,5.25,21.623889875,34.2925
2021-06-23 17:26:32.039062500,-35.75,6.0,53.0,84.698046875,4.68,21.624810593750002,34.293124999999996
2021-06-23 17:26:32.046875000,-35.5,6.0,53.0,84.69765625000001,4.11,21.6257313125,34.29375
2021-06-23 17:26:32.054687500,-35.25,6.0,53.0,84.697265625,3.3850000000000002,21.62665203125,34.294375
2021-06-23 17:26:32.062500000,-35.0,6.0,53.0,84.696875,2.66,21.62757275,34.295
2021-06-23 17:26:32.070312500,-35.0,6.0,53.0,84.696484375,1.7000000000000002,21.62849346875,34.295625
2021-06-23 17:26:32.078125000,-35.0,6.0,53.0,84.69609375,0.74,21.6294141875,34.29625
2021-06-23 17:26:32.085937500,-35.0,6.0,53.0,84.69570312500001,-0.45999999999999996,21.63033490625,34.296875
2021-06-23 17:26:32.093750000,-35.0,6.0,53.0,84.6953125,-1.66,21.631255625,34.2975
2021-06-23 17:26:32.101562500,-35.25,6.0,53.0,84.694921875,-3.0300000000000002,21.63217634375,34.298125
2021-06-23 17:26:32.109375000,-35.5,6.0,53.0,84.69453125,-4.4,21.6330970625,34.29875
2021-06-23 17:26:32.117187500,-35.75,6.0,53.0,84.694140625,-5.825,21.63401778125,34.299375
2021-06-23 17:26:32.125000000,-36.0,6.0,53.0,84.69375000000001,-7.25,21.6349385,34.3
2021-06-23 17:26:32.132812500,-36.0,6.0,53.0,84.693359375,-8.585,21.63585921875,34.300625000000004
2021-06-23 17:26:32.140625000,-36.0,6.0,53.0,84.69296875,-9.92,21.636779937500002,34.30125
2021-06-23 17:26:32.148437500,-36.0,6.0,53.0,84.692578125,-11.05,21.63770065625,34.301875
2021-06-23 17:26:32.156250000,-36.0,6.0,53.0,84.6921875,-12.18,21.638621375,34.3025
2021-06-23 17:26:32.164062500,-36.0,6.0,53.0,84.69179687500001,-13.085,21.639542093750002,34.303125
2021-06-23 17:26:32.171875000,-36.0,6.0,53.0,84.69140625,-13.99,21.6404628125,34.30375
2021-06-23 17:26:32.179687500,-36.0,6.0,53.0,84.691015625,-14.76,21.64138353125,34.304375
2021-06-23 17:26:32.187500000,-36.0,6.0,53.0,84.690625,-15.53,21.642304250000002,34.305
2021-06-23 17:26:32.195312500,-36.0,6.0,53.0,84.690234375,-16.29,21.64322496875,34.305625
2021-06-23 17:26:32.203125000,-36.0,6.0,53.0,84.68984375000001,-17.05,21.6441456875,34.30625
2021-06-23 17:26:32.210937500,-36.0,6.0,53.0,84.689453125,-17.96,21.64506640625,34.306875000000005
2021-06-23 17:26:32.218750000,-36.0,6.0,53.0,84.6890625,-18.87,21.645987125,34.307500000000005
2021-06-23 17:26:32.226562500,-36.0,6.0,53.0,84.688671875,-19.985,21.64690784375,34.308125000000004
2021-06-23 17:26:32.234375000,-36.0,6.0,53.0,84.68828125,-21.1,21.6478285625,34.30875
2021-06-23 17:26:32.242187500,-36.0,6.0,53.0,84.68789062500001,-22.35,21.64874928125,34.309375
2021-06-23 17:26:32.250000000,-36.0,6.0,53.0,84.6875,-23.6,21.64967,34.31
2021-06-23 17:26:32.257812500,-36.0,6.0,53.0,84.687109375,-24.76,21.65111115625,34.31
2021-06-23 17:26:32.265625000,-36.0,6.0,53.0,84.68671875,-25.92,21.6525523125,34.31
2021-06-23 17:26:32.273437500,-36.0,6.0,53.0,84.686328125,-26.72,21.65399346875,34.31
2021-06-23 17:26:32.281250000,-36.0,6.0,53.0,84.68593750000001,-27.52,21.655434625,34.31
2021-06-23 17:26:32.289062500,-36.0,6.0,53.0,84.685546875,-27.68,21.65687578125,34.31
2021-06-23 17:26:32.296875000,-36.0,6.0,53.0,84.68515625,-27.84,21.6583169375,34.31
2021-06-23 17:26:32.304687500,-36.0,6.0,53.0,84.684765625,-27.21,21.65975809375,34.31
2021-06-23 17:26:32.312500000,-36.0,6.0,53.0,84.684375,-26.58,21.66119925,34.31
2021-06-23 17:26:32.320312500,-36.0,6.0,53.0,84.68398437500001,-25.14,21.66264040625,34.31
2021-06-23 17:26:32.328125000,-36.0,6.0,53.0,84.68359375,-23.7,21.6640815625,34.31
2021-06-23 17:26:32.335937500,-36.0,6.0,53.0,84.683203125,-21.535,21.66552271875,34.31
2021-06-23 17:26:32.343750000,-36.0,6.0,53.0,84.6828125,-19.37,21.666963875,34.31
2021-06-23 17:26:32.351562500,-36.0,6.0,53.0,84.682421875,-16.64,21.66840503125,34.31
2021-06-23 17:26:32.359375000,-36.0,6.0,53.0,84.68203125000001,-13.91,21.6698461875,34.31
2021-06-23 17:26:32.367187500,-36.0,6.0,53.0,84.681640625,-10.775,21.67128734375,34.31
2021-06-23 17:26:32.375000000,-36.0,6.0,53.0,84.68125,-7.64,21.672728499999998,34.31
2021-06-23 17:26:32.382812500,-36.0,6.0,53.0,84.680859375,-4.255,21.67416965625,34.31
2021-06-23 17:26:32.390625000,-36.0,6.0,53.0,84.68046875,-0.87,21.6756108125,34.31
2021-06-23 17:26:32.398437500,-36.0,6.0,53.0,84.68007812500001,2.5949999999999998,21.67705196875,34.31
2021-06-23 17:26:32.406250000,-36.0,6.0,53.0,84.6796875,6.06,21.678493125,34.31
2021-06-23 17:26:32.414062500,-36.0,6.0,53.0,84.679296875,9.405,21.67993428125,34.31
2021-06-23 17:26:32.421875000,-36.0,6.0,53.0,84.67890625,12.75,21.681375437499998,34.31
2021-06-23 17:26:32.429687500,-36.0,6.0,53.0,84.678515625,15.745,21.68281659375,34.31
2021-06-23 17:26:32.437500000,-36.0,6.0,53.0,84.67812500000001,18.74,21.68425775,34.31
2021-06-23 17:26:32.445312500,-36.0,6.0,53.0,84.677734375,21.174999999999997,21.68569890625,34.31
2021-06-23 17:26:32.453125000,-36.0,6.0,53.0,84.67734375,23.61,21.6871400625,34.31
2021-06-23 17:26:32.460937500,-36.0,6.0,53.0,84.676953125,25.369999999999997,21.68858121875,34.31
2021-06-23 17:26:32.468750000,-36.0,6.0,53.0,84.6765625,27.13,21.690022374999998,34.31
2021-06-23 17:26:32.476562500,-36.0,6.0,53.0,84.67617187500001,28.240000000000002,21.69146353125,34.31
2021-06-23 17:26:32.484375000,-36.0,6.0,53.0,84.67578125,29.35,21.6929046875,34.31
2021-06-23 17:26:32.492187500,-36.0,6.0,53.0,84.675390625,29.94,21.69434584375,34.31
2021-06-23 17:26:32.500000000,-36.0,6.0,53.0,84.67500000000001,30.53,21.695787,34.31
2021-06-23 17:26:32.507812500,-35.75,6.0,53.0,84.674609375,30.78,21.6972681875,34.31
2021-06-23 17:26:32.515625000,-35.5,6.0,53.0,84.67421875000001,31.03,21.698749375,34.31
2021-06-23 17:26:32.523437500,-35.25,6.0,53.0,84.673828125,31.060000000000002,21.7002305625,34.31
2021-06-23 17:26:32.531250000,-35.0,6.0,53.0,84.6734375,31.09,21.70171175,34.31
2021-06-23 17:26:32.539062500,-35.25,6.0,53.0,84.67304687500001,30.91,21.7031929375,34.31
2021-06-23 17:26:32.546875000,-35.5,6.0,53.0,84.67265625,30.73,21.704674125,34.31
2021-06-23 17:26:32.554687500,-35.75,6.0,53.0,84.67226562500001,30.285,21.706155312499998,34.31
2021-06-23 17:26:32.562500000,-36.0,6.0,53.0,84.671875,29.84,21.7076365,34.31
2021-06-23 17:26:32.570312500,-36.0,6.0,53.0,84.671484375,29.064999999999998,21.7091176875,34.31
2021-06-23 17:26:32.578125000,-36.0,6.0,53.0,84.67109375000001,28.29,21.710598875,34.31
2021-06-23 17:26:32.585937500,-36.0,6.0,53.0,84.670703125,27.205,21.7120800625,34.31
2021-06-23 17:26:32.593750000,-36.0,6.0,53.0,84.67031250000001,26.12,21.713561249999998,34.31
2021-06-23 17:26:32.601562500,-36.0,6.0,53.0,84.669921875,24.85,21.7150424375,34.31
2021-06-23 17:26:32.609375000,-36.0,6.0,53.0,84.66953125,23.58,21.716523625,34.31
2021-06-23 17:26:32.617187500,-36.0,6.0,53.0,84.66914062500001,22.335,21.7180048125,34.31
2021-06-23 17:26:32.625000000,-36.0,6.0,53.0,84.66875,21.09,21.719486,34.31
2021-06-23 17:26:32.632812500,-36.0,6.0,53.0,84.66835937500001,20.04,21.7209671875,34.31
2021-06-23 17:26:32.640625000,-36.0,6.0,53.0,84.66796875,18.99,21.722448375,34.31
2021-06-23 17:26:32.648437500,-36.0,6.0,53.0,84.667578125,18.215,21.7239295625,34.31
2021-06-23 17:26:32.656250000,-36.0,6.0,53.0,84.66718750000001,17.44,21.72541075,34.31
2021-06-23 17:26:32.664062500,-36.0,5.75,53.0,84.666796875,16.845,21.7268919375,34.31
2021-06-23 17:26:32.671875000,-36.0,5.5,53.0,84.66640625000001,16.25,21.728373125,34.31
2021-06-23 17:26:32.679687500,-36.0,5.25,53.0,84.666015625,15.645,21.7298543125,34.31
2021-06-23 17:26:32.687500000,-36.0,5.0,53.0,84.665625,15.04,21.7313355,34.31
2021-06-23 17:26:32.695312500,-36.0,5.25,53.0,84.66523437500001,14.175,21.7328166875,34.31
2021-06-23 17:26:32.703125000,-36.0,5.5,53.0,84.66484375,13.31,21.734297875,34.31
2021-06-23 17:26:32.710937500,-36.0,5.75,53.0,84.66445312500001,12.030000000000001,21.7357790625,34.31
2021-06-23 17:26:32.718750000,-36.0,6.0,53.0,84.6640625,10.75,21.73726025,34.31
2021-06-23 17:26:32.726562500,-36.0,6.0,53.0,84.663671875,9.035,21.7387414375,34.31
2021-06-23 17:26:32.734375000,-36.0,6.0,53.0,84.66328125000001,7.32,21.740222625,34.31
2021-06-23 17:26:32.742187500,-36.0,6.0,53.0,84.662890625,5.32,21.7417038125,34.31
2021-06-23 17:26:32.750000000,-36.0,6.0,53.0,84.66250000000001,3.32,21.743185,34.31
2021-06-23 17:26:32.757812500,-36.0,6.0,53.0,84.662109375,1.2999999999999998,21.74302484375,34.31
2021-06-23 17:26:32.765625000,-36.0,6.0,53.0,84.66171875,-0.72,21.7428646875,34.31
2021-06-23 17:26:32.773437500,-36.0,6.0,53.0,84.66132812500001,-2.5300000000000002,21.742704531250002,34.31
2021-06-23 17:26:32.781250000,-36.0,6.0,53.0,84.6609375,-4.34,21.742544375,34.31
2021-06-23 17:26:32.789062500,-35.75,6.0,53.0,84.66054687500001,-5.805,21.74238421875,34.31
2021-06-23 17:26:32.796875000,-35.5,6.0,53.0,84.66015625,-7.27,21.7422240625,34.31
2021-06-23 17:26:32.804687500,-35.25,6.0,53.0,84.659765625,-8.42,21.74206390625,34.31
2021-06-23 17:26:32.812500000,-35.0,6.0,53.0,84.65937500000001,-9.57,21.74190375,34.31
2021-06-23 17:26:32.820312500,-35.25,6.0,53.0,84.658984375,-10.545,21.74174359375,34.31
2021-06-23 17:26:32.828125000,-35.5,6.0,53.0,84.65859375000001,-11.52,21.7415834375,34.31
2021-06-23 17:26:32.835937500,-35.75,6.0,53.0,84.658203125,-12.504999999999999,21.74142328125,34.31
2021-06-23 17:26:32.843750000,-36.0,6.0,53.0,84.6578125,-13.49,21.741263125,34.31
2021-06-23 17:26:32.851562500,-36.0,6.0,53.0,84.65742187500001,-14.59,21.74110296875,34.31
2021-06-23 17:26:32.859375000,-36.0,6.0,53.0,84.65703125,-15.69,21.740942812500002,34.31
2021-06-23 17:26:32.867187500,-36.0,6.0,53.0,84.65664062500001,-16.935,21.74078265625,34.31
2021-06-23 17:26:32.875000000,-36.0,6.0,53.0,84.65625,-18.18,21.7406225,34.31
2021-06-23 17:26:32.882812500,-36.0,6.0,53.0,84.655859375,-19.52,21.74046234375,34.31
2021-06-23 17:26:32.890625000,-36.0,6.0,53.0,84.65546875000001,-20.86,21.7403021875,34.31
2021-06-23 17:26:32.898437500,-36.0,6.0,53.0,84.655078125,-22.265,21.740142031250002,34.31
2021-06-23 17:26:32.906250000,-36.0,6.0,53.0,84.65468750000001,-23.67,21.739981875,34.31
2021-06-23 17:26:32.914062500,-35.75,6.0,53.0,84.654296875,-25.155,21.73982171875,34.31
2021-06-23 17:26:32.921875000,-35.5,6.0,53.0,84.65390625,-26.64,21.7396615625,34.31
2021-06-23 17:26:32.929687500,-35.25,6.0,53.0,84.65351562500001,-28.21,21.73950140625,34.31
2021-06-23 17:26:32.937500000,-35.0,6.0,53.0,84.653125,-29.78,21.739341250000003,34.31
2021-06-23 17:26:32.945312500,-35.25,6.0,53.0,84.65273437500001,-31.37,21.739181093750002,34.31
2021-06-23 17:26:32.953125000,-35.5,6.0,53.0,84.65234375,-32.96,21.7390209375,34.31
2021-06-23 17:26:32.960937500,-35.75,6.0,53.0,84.651953125,-34.394999999999996,21.73886078125,34.31
2021-06-23 17:26:32.968750000,-36.0,6.0,53.0,84.65156250000001,-35.83,21.738700625,34.31
2021-06-23 17:26:32.976562500,-36.0,6.0,53.0,84.651171875,-36.835,21.73854046875,34.31
2021-06-23 17:26:32.984375000,-36.0,6.0,53.0,84.65078125000001,-37.84,21.738380312500002,34.31
2021-06-23 17:26:32.992187500,-36.0,6.0,53.0,84.650390625,-38.165000000000006,21.73822015625,34.31
2021-06-23 17:26:33.000000000,-36.0,6.0,53.0,84.65,-38.49,21.73806,34.31
2021-06-23 17:26:33.007812500,-36.0,6.0,53.0,84.64984375,-37.99,21.737939906250002,34.309375
2021-06-23 17:26:33.015625000,-36.0,6.0,53.0,84.6496875,-37.49,21.7378198125,34.30875
2021-06-23 17:26:33.023437500,-36.0,6.0,53.0,84.64953125000001,-36.16,21.73769971875,34.308125000000004
2021-06-23 17:26:33.031250000,-36.0,6.0,53.0,84.649375,-34.83,21.737579625000002,34.307500000000005
2021-06-23 17:26:33.039062500,-36.0,6.0,53.0,84.64921875,-32.775,21.73745953125,34.306875000000005
2021-06-23 17:26:33.046875000,-36.0,6.0,53.0,84.6490625,-30.72,21.7373394375,34.30625
2021-06-23 17:26:33.054687500,-36.0,6.0,53.0,84.64890625000001,-28.064999999999998,21.737219343750002,34.305625
2021-06-23 17:26:33.062500000,-36.0,6.0,53.0,84.64875,-25.41,21.73709925,34.305
2021-06-23 17:26:33.070312500,-36.0,6.0,53.0,84.64859375,-22.22,21.73697915625,34.304375
2021-06-23 17:26:33.078125000,-36.0,6.0,53.0,84.6484375,-19.03,21.736859062500002,34.30375
2021-06-23 17:26:33.085937500,-36.0,6.0,53.0,84.64828125000001,-15.38,21.73673896875,34.303125
2021-06-23 17:26:33.093750000,-36.0,6.0,53.0,84.64812500000001,-11.73,21.736618875,34.3025
2021-06-23 17:26:33.101562500,-36.0,6.0,53.0,84.64796875,-7.71,21.736498781250003,34.301875
2021-06-23 17:26:33.109375000,-36.0,6.0,53.0,84.6478125,-3.69,21.7363786875,34.30125
2021-06-23 17:26:33.117187500,-36.0,6.0,53.0,84.64765625000001,0.5000000000000004,21.73625859375,34.300625000000004
2021-06-23 17:26:33.125000000,-36.0,6.0,53.0,84.64750000000001,4.69,21.736138500000003,34.3
2021-06-23 17:26:33.132812500,-36.0,6.0,53.0,84.64734375,8.754999999999999,21.73601840625,34.299375
2021-06-23 17:26:33.140625000,-36.0,6.0,53.0,84.6471875,12.82,21.7358983125,34.29875
2021-06-23 17:26:33.148437500,-36.0,6.0,53.0,84.64703125,16.41,21.73577821875,34.298125
2021-06-23 17:26:33.156250000,-36.0,6.0,53.0,84.64687500000001,20.0,21.735658125,34.2975
2021-06-23 17:26:33.164062500,-36.0,6.0,53.0,84.64671875,22.85,21.73553803125,34.296875
2021-06-23 17:26:33.171875000,-36.0,6.0,53.0,84.6465625,25.7,21.7354179375,34.29625
2021-06-23 17:26:33.179687500,-36.0,6.0,53.0,84.64640625,27.68,21.73529784375,34.295625
2021-06-23 17:26:33.187500000,-36.0,6.0,53.0,84.64625000000001,29.66,21.735177750000002,34.295
2021-06-23 17:26:33.195312500,-36.0,6.0,53.0,84.64609375,30.8,21.73505765625,34.294375
2021-06-23 17:26:33.203125000,-36.0,6.0,53.0,84.6459375,31.94,21.7349375625,34.29375
2021-06-23 17:26:33.210937500,-36.0,6.0,53.0,84.64578125,32.38,21.734817468750002,34.293124999999996
2021-06-23 17:26:33.218750000,-36.0,6.0,53.0,84.64562500000001,32.82,21.734697375,34.2925
2021-06-23 17:26:33.226562500,-35.75,6.0,53.0,84.64546875,32.745000000000005,21.73457728125,34.291875
2021-06-23 17:26:33.234375000,-35.5,6.0,53.0,84.6453125,32.67,21.734457187500002,34.29125
2021-06-23 17:26:33.242187500,-35.25,6.0,53.0,84.64515625,32.25,21.73433709375,34.290625
2021-06-23 17:26:33.250000000,-35.0,6.0,53.0,84.64500000000001,31.83,21.734217,34.29
2021-06-23 17:26:33.257812500,-35.25,6.0,53.0,84.64484375,31.18,21.732655781250003,34.29
2021-06-23 17:26:33.265625000,-35.5,6.0,53.0,84.6446875,30.53,21.7310945625,34.29
2021-06-23 17:26:33.273437500,-35.75,6.0,53.0,84.64453125,29.765,21.72953334375,34.29
2021-06-23 17:26:33.281250000,-36.0,6.0,53.0,84.644375,29.0,21.727972125,34.29
2021-06-23 17:26:33.289062500,-36.0,6.0,53.0,84.64421875000001,28.175,21.726410906250003,34.29
2021-06-23 17:26:33.296875000,-36.0,6.0,53.0,84.6440625,27.35,21.7248496875,34.29
2021-06-23 17:26:33.304687500,-36.0,6.0,53.0,84.64390625,26.535,21.72328846875,34.29
2021-06-23 17:26:33.312500000,-36.0,6.0,53.0,84.64375,25.72,21.72172725,34.29
2021-06-23 17:26:33.320312500,-35.75,6.0,53.0,84.64359375000001,24.95,21.720166031250002,34.29
2021-06-23 17:26:33.328125000,-35.5,6.0,53.0,84.6434375,24.18,21.7186048125,34.29
2021-06-23 17:26:33.335937500,-35.25,6.0,53.0,84.64328125,23.46,21.71704359375,34.29
2021-06-23 17:26:33.343750000,-35.0,6.0,53.0,84.643125,22.74,21.715482375,34.29
2021-06-23 17:26:33.351562500,-35.25,6.0,53.0,84.64296875000001,22.049999999999997,21.713921156250002,34.29
2021-06-23 17:26:33.359375000,-35.5,6.0,53.0,84.6428125,21.36,21.7123599375,34.29
2021-06-23 17:26:33.367187500,-35.75,6.0,53.0,84.64265625,20.655,21.71079871875,34.29
2021-06-23 17:26:33.375000000,-36.0,6.0,53.0,84.6425,19.95,21.7092375,34.29
2021-06-23 17:26:33.382812500,-36.0,6.0,53.0,84.64234375,19.155,21.707676281250002,34.29
2021-06-23 17:26:33.390625000,-36.0,6.0,53.0,84.6421875,18.36,21.7061150625,34.29
2021-06-23 17:26:33.398437500,-36.0,6.0,53.0,84.64203125,17.424999999999997,21.70455384375,34.29
2021-06-23 17:26:33.406250000,-36.0,6.0,53.0,84.641875,16.49,21.702992625,34.29
2021-06-23 17:26:33.414062500,-36.0,6.0,53.0,84.64171875,15.395,21.701431406250002,34.29
2021-06-23 17:26:33.421875000,-36.0,6.0,53.0,84.6415625,14.3,21.6998701875,34.29
2021-06-23 17:26:33.429687500,-36.0,6.0,53.0,84.64140625,13.065000000000001,21.69830896875,34.29
2021-06-23 17:26:33.437500000,-36.0,6.0,53.0,84.64125,11.83,21.69674775,34.29
2021-06-23 17:26:33.445312500,-36.0,6.0,53.0,84.64109375,10.5,21.695186531250002,34.29
2021-06-23 17:26:33.453125000,-36.0,6.0,53.0,84.6409375,9.17,21.6936253125,34.29
2021-06-23 17:26:33.460937500,-36.0,6.0,53.0,84.64078125,7.8149999999999995,21.692064093749998,34.29
2021-06-23 17:26:33.468750000,-36.0,6.0,53.0,84.640625,6.46,21.690502875,34.29
2021-06-23 17:26:33.476562500,-35.75,6.0,53.0,84.64046875,5.125,21.68894165625,34.29
2021-06-23 17:26:33.484375000,-35.5,6.0,53.0,84.64031250000001,3.79,21.6873804375,34.29
2021-06-23 17:26:33.492187500,-35.25,6.0,53.0,84.64015625,2.495,21.685819218749998,34.29
2021-06-23 17:26:33.500000000,-35.0,6.0,53.0,84.64,1.2,21.684258,34.29
2021-06-23 17:26:33.507812500,-35.0,6.0,53.0,84.63984375,-0.06500000000000017,21.684137875,34.29
2021-06-23 17:26:33.515625000,-35.0,6.0,53.0,84.6396875,-1.33,21.68401775,34.29
2021-06-23 17:26:33.523437500,-35.0,6.0,53.0,84.63953125,-2.6100000000000003,21.683897625,34.29
2021-06-23 17:26:33.531250000,-35.0,6.0,53.0,84.639375,-3.89,21.683777499999998,34.29
2021-06-23 17:26:33.539062500,-35.25,6.0,53.0,84.63921875,-5.24,21.683657375,34.29
2021-06-23 17:26:33.546875000,-35.5,6.0,53.0,84.6390625,-6.59,21.68353725,34.29
2021-06-23 17:26:33.554687500,-35.75,6.0,53.0,84.63890625,-8.02,21.683417125,34.29
2021-06-23 17:26:33.562500000,-36.0,6.0,53.0,84.63875,-9.45,21.683297,34.29
2021-06-23 17:26:33.570312500,-36.0,6.0,53.0,84.63859375,-10.965,21.683176875,34.29
2021-06-23 17:26:33.578125000,-36.0,6.0,53.0,84.6384375,-12.48,21.68305675,34.29
2021-06-23 17:26:33.585937500,-36.0,6.0,53.0,84.63828125,-14.030000000000001,21.682936625,34.29
2021-06-23 17:26:33.593750000,-36.0,6.0,53.0,84.638125,-15.58,21.6828165,34.29
2021-06-23 17:26:33.601562500,-36.0,6.0,53.0,84.63796875,-17.135,21.682696375,34.29
2021-06-23 17:26:33.609375000,-36.0,6.0,53.0,84.6378125,-18.69,21.68257625,34.29
2021-06-23 17:26:33.617187500,-36.0,6.0,53.0,84.63765625,-20.240000000000002,21.682456124999998,34.29
2021-06-23 17:26:33.625000000,-36.0,6.0,53.0,84.6375,-21.79,21.682336,34.29
2021-06-23 17:26:33.632812500,-35.75,6.0,53.0,84.63734375,-23.369999999999997,21.682215875,34.29
2021-06-23 17:26:33.640625000,-35.5,6.0,53.0,84.6371875,-24.95,21.68209575,34.29
2021-06-23 17:26:33.648437500,-35.25,6.0,53.0,84.63703124999999,-26.65,21.681975625,34.29
2021-06-23 17:26:33.656250000,-35.0,6.0,53.0,84.636875,-28.35,21.681855499999998,34.29
2021-06-23 17:26:33.664062500,-35.25,6.0,53.0,84.63671875,-30.25,21.681735375,34.29
2021-06-23 17:26:33.671875000,-35.5,6.0,53.0,84.6365625,-32.15,21.68161525,34.29
2021-06-23 17:26:33.679687500,-35.75,6.0,53.0,84.63640625,-34.239999999999995,21.681495124999998,34.29
2021-06-23 17:26:33.687500000,-36.0,6.0,53.0,84.63625,-36.33,21.681375,34.29
2021-06-23 17:26:33.695312500,-36.0,6.0,53.0,84.63609375,-38.47,21.681254875,34.29
2021-06-23 17:26:33.703125000,-36.0,6.0,53.0,84.6359375,-40.61,21.68113475,34.29
2021-06-23 17:26:33.710937500,-36.0,6.0,53.0,84.63578125,-42.480000000000004,21.681014625,34.29
2021-06-23 17:26:33.718750000,-36.0,6.0,53.0,84.635625,-44.35,21.6808945,34.29
2021-06-23 17:26:33.726562500,-35.75,5.75,53.0,84.63546875,-45.53,21.680774375,34.29
2021-06-23 17:26:33.734375000,-35.5,5.5,53.0,84.6353125,-46.71,21.68065425,34.29
2021-06-23 17:26:33.742187500,-35.25,5.25,53.0,84.63515625,-46.765,21.680534124999998,34.29
2021-06-23 17:26:33.750000000,-35.0,5.0,53.0,84.63499999999999,-46.82,21.680414,34.29
2021-06-23 17:26:33.757812500,-35.25,5.25,53.0,84.63484375,-45.525,21.678572531249998,34.29
2021-06-23 17:26:33.765625000,-35.5,5.5,53.0,84.6346875,-44.23,21.6767310625,34.29
2021-06-23 17:26:33.773437500,-35.75,5.75,53.0,84.63453125,-41.59,21.67488959375,34.29
2021-06-23 17:26:33.781250000,-36.0,6.0,53.0,84.63437499999999,-38.95,21.673048124999998,34.29
2021-06-23 17:26:33.789062500,-36.0,6.0,53.0,84.63421875,-35.245000000000005,21.67120665625,34.29
2021-06-23 17:26:33.796875000,-36.0,6.0,53.0,84.6340625,-31.54,21.6693651875,34.29
2021-06-23 17:26:33.804687500,-36.0,6.0,53.0,84.63390625,-27.195,21.667523718749997,34.29
2021-06-23 17:26:33.812500000,-36.0,6.0,53.0,84.63374999999999,-22.85,21.66568225,34.29
2021-06-23 17:26:33.820312500,-36.0,6.0,53.0,84.63359375,-18.28,21.66384078125,34.29
2021-06-23 17:26:33.828125000,-36.0,6.0,53.0,84.6334375,-13.71,21.661999312499997,34.29
2021-06-23 17:26:33.835937500,-36.0,6.0,53.0,84.63328125,-9.190000000000001,21.66015784375,34.29
2021-06-23 17:26:33.843750000,-36.0,6.0,53.0,84.63312499999999,-4.67,21.658316375,34.29
2021-06-23 17:26:33.851562500,-36.0,6.0,53.0,84.63296875,-0.3550000000000004,21.656474906249997,34.29
2021-06-23 17:26:33.859375000,-36.0,6.0,53.0,84.6328125,3.96,21.6546334375,34.29
2021-06-23 17:26:33.867187500,-36.0,6.0,53.0,84.63265625,7.995,21.652791968749998,34.29
2021-06-23 17:26:33.875000000,-36.0,6.0,53.0,84.6325,12.03,21.6509505,34.29
2021-06-23 17:26:33.882812500,-36.0,6.0,53.0,84.63234374999999,15.655000000000001,21.64910903125,34.29
2021-06-23 17:26:33.890625000,-36.0,6.0,53.0,84.6321875,19.28,21.647267562499998,34.29
2021-06-23 17:26:33.898437500,-36.0,6.0,53.0,84.63203125,22.265,21.64542609375,34.29
2021-06-23 17:26:33.906250000,-36.0,6.0,53.0,84.631875,25.25,21.643584625,34.29
2021-06-23 17:26:33.914062500,-35.75,6.0,53.0,84.63171874999999,27.34,21.641743156249998,34.29
2021-06-23 17:26:33.921875000,-35.5,6.0,53.0,84.6315625,29.43,21.6399016875,34.29
2021-06-23 17:26:33.929687500,-35.25,6.0,53.0,84.63140625,30.439999999999998,21.63806021875,34.29
2021-06-23 17:26:33.937500000,-35.0,6.0,53.0,84.63125,31.45,21.636218749999998,34.29
2021-06-23 17:26:33.945312500,-35.0,6.0,53.0,84.63109374999999,31.43,21.63437728125,34.29
2021-06-23 17:26:33.953125000,-35.0,6.0,53.0,84.6309375,31.41,21.6325358125,34.29
2021-06-23 17:26:33.960937500,-35.0,6.0,53.0,84.63078125,30.634999999999998,21.630694343749997,34.29
2021-06-23 17:26:33.968750000,-35.0,6.0,53.0,84.630625,29.86,21.628852875,34.29
2021-06-23 17:26:33.976562500,-35.25,6.0,53.0,84.63046874999999,28.740000000000002,21.62701140625,34.29
2021-06-23 17:26:33.984375000,-35.5,6.0,53.0,84.6303125,27.62,21.625169937499997,34.29
2021-06-23 17:26:33.992187500,-35.75,6.0,53.0,84.63015625,26.520000000000003,21.62332846875,34.29
2021-06-23 17:26:34.000000000,-36.0,6.0,53.0,84.63,25.42,21.621487,34.29
2021-06-23 17:26:34.007812500,-36.0,6.0,53.0,84.62976562499999,24.520000000000003,21.621607093749997,34.290625
2021-06-23 17:26:34.015625000,-36.0,6.0,53.0,84.62953125,23.62,21.6217271875,34.29125
2021-06-23 17:26:34.023437500,-36.0,6.0,53.0,84.629296875,22.855,21.621847281249998,34.291875
2021-06-23 17:26:34.031250000,-36.0,6.0,53.0,84.62906249999999,22.09,21.621967374999997,34.2925
2021-06-23 17:26:34.039062500,-36.0,6.0,53.0,84.628828125,21.275,21.62208746875,34.293124999999996
2021-06-23 17:26:34.046875000,-36.0,6.0,53.0,84.62859375,20.46,21.622207562499998,34.29375
2021-06-23 17:26:34.054687500,-36.0,6.0,53.0,84.628359375,19.435000000000002,21.62232765625,34.294375
2021-06-23 17:26:34.062500000,-36.0,6.0,53.0,84.628125,18.41,21.62244775,34.295
2021-06-23 17:26:34.070312500,-36.0,6.0,53.0,84.62789062499999,17.18,21.622567843749998,34.295625
2021-06-23 17:26:34.078125000,-36.0,6.0,53.0,84.62765625,15.95,21.6226879375,34.29625
2021-06-23 17:26:34.085937500,-36.0,6.0,53.0,84.627421875,14.684999999999999,21.62280803125,34.296875
2021-06-23 17:26:34.093750000,-36.0,6.0,53.0,84.62718749999999,13.42,21.622928125,34.2975
2021-06-23 17:26:34.101562500,-36.0,6.0,53.0,84.626953125,12.36,21.62304821875,34.298125
2021-06-23 17:26:34.109375000,-36.0,6.0,53.0,84.62671875,11.3,21.6231683125,34.29875
2021-06-23 17:26:34.117187500,-36.0,6.0,53.0,84.62648437499999,10.61,21.62328840625,34.299375
2021-06-23 17:26:34.125000000,-36.0,6.0,53.0,84.62625,9.92,21.6234085,34.3
2021-06-23 17:26:34.132812500,-36.0,6.0,53.0,84.626015625,9.57,21.62352859375,34.300625000000004
2021-06-23 17:26:34.140625000,-36.0,6.0,53.0,84.62578124999999,9.22,21.6236486875,34.30125
2021-06-23 17:26:34.148437500,-36.0,6.0,53.0,84.625546875,8.995000000000001,21.62376878125,34.301875
2021-06-23 17:26:34.156250000,-36.0,6.0,53.0,84.62531249999999,8.77,21.623888875,34.3025
2021-06-23 17:26:34.164062500,-36.0,6.0,53.0,84.625078125,8.36,21.62400896875,34.303125
2021-06-23 17:26:34.171875000,-36.0,6.0,53.0,84.62484375,7.95,21.6241290625,34.30375
2021-06-23 17:26:34.179687500,-36.0,6.0,53.0,84.62460937499999,7.115,21.624249156250002,34.304375
2021-06-23 17:26:34.187500000,-36.0,6.0,53.0,84.624375,6.28,21.62436925,34.305
2021-06-23 17:26:34.195312500,-35.75,6.0,53.0,84.624140625,4.975,21.62448934375,34.305625
2021-06-23 17:26:34.203125000,-35.5,6.0,53.0,84.62390624999999,3.67,21.624609437500002,34.30625
2021-06-23 17:26:34.210937500,-35.25,6.0,53.0,84.623671875,2.0300000000000002,21.62472953125,34.306875000000005
2021-06-23 17:26:34.218750000,-35.0,6.0,53.0,84.6234375,0.39,21.624849625000003,34.307500000000005
2021-06-23 17:26:34.226562500,-35.25,6.0,53.0,84.62320312499999,-1.335,21.624969718750002,34.308125000000004
2021-06-23 17:26:34.234375000,-35.5,6.0,53.0,84.62296875,-3.06,21.6250898125,34.30875
2021-06-23 17:26:34.242187500,-35.75,6.0,53.0,84.622734375,-4.65,21.625209906250003,34.309375
2021-06-23 17:26:34.250000000,-36.0,6.0,53.0,84.6225,-6.24,21.62533,34.31
2021-06-23 17:26:34.257812500,-36.0,6.0,53.0,84.622265625,-7.595,21.62480959375,34.31
2021-06-23 17:26:34.265625000,-36.0,6.0,53.0,84.62203124999999,-8.95,21.6242891875,34.31
2021-06-23 17:26:34.273437500,-36.0,6.0,53.0,84.621796875,-10.149999999999999,21.62376878125,34.31
2021-06-23 17:26:34.281250000,-36.0,6.0,53.0,84.6215625,-11.35,21.623248375000003,34.31
2021-06-23 17:26:34.289062500,-36.0,6.0,53.0,84.62132812499999,-12.565,21.622727968750002,34.31
2021-06-23 17:26:34.296875000,-36.0,6.0,53.0,84.62109375,-13.78,21.6222075625,34.31
2021-06-23 17:26:34.304687500,-36.0,6.0,53.0,84.620859375,-15.190000000000001,21.62168715625,34.31
2021-06-23 17:26:34.312500000,-36.0,6.0,53.0,84.62062499999999,-16.6,21.62116675,34.31
2021-06-23 17:26:34.320312500,-36.0,6.0,53.0,84.620390625,-18.315,21.62064634375,34.31
2021-06-23 17:26:34.328125000,-36.0,6.0,53.0,84.62015625,-20.03,21.620125937500003,34.31
2021-06-23 17:26:34.335937500,-36.0,6.0,53.0,84.61992187499999,-22.060000000000002,21.619605531250002,34.31
2021-06-23 17:26:34.343750000,-36.0,6.0,53.0,84.6196875,-24.09,21.619085125,34.31
2021-06-23 17:26:34.351562500,-36.0,6.0,53.0,84.61945312499999,-26.345,21.61856471875,34.31
2021-06-23 17:26:34.359375000,-36.0,6.0,53.0,84.61921875,-28.6,21.6180443125,34.31
2021-06-23 17:26:34.367187500,-36.0,6.0,53.0,84.618984375,-30.975,21.61752390625,34.31
2021-06-23 17:26:34.375000000,-36.0,6.0,53.0,84.61874999999999,-33.35,21.617003500000003,34.31
2021-06-23 17:26:34.382812500,-36.0,6.0,53.0,84.618515625,-35.705,21.616483093750002,34.31
2021-06-23 17:26:34.390625000,-36.0,6.0,53.0,84.61828125,-38.06,21.6159626875,34.31
2021-06-23 17:26:34.398437500,-36.0,6.0,53.0,84.61804687499999,-40.24,21.61544228125,34.31
2021-06-23 17:26:34.406250000,-36.0,6.0,53.0,84.6178125,-42.42,21.614921875,34.31
2021-06-23 17:26:34.414062500,-36.0,6.0,53.0,84.617578125,-44.225,21.61440146875,34.31
2021-06-23 17:26:34.421875000,-36.0,6.0,53.0,84.61734374999999,-46.03,21.6138810625,34.31
2021-06-23 17:26:34.429687500,-36.0,6.0,53.0,84.617109375,-47.21,21.613360656250002,34.31
2021-06-23 17:26:34.437500000,-36.0,6.0,53.0,84.616875,-48.39,21.61284025,34.31
2021-06-23 17:26:34.445312500,-36.0,6.0,53.0,84.61664062499999,-48.71,21.61231984375,34.31
2021-06-23 17:26:34.453125000,-36.0,6.0,53.0,84.61640625,-49.03,21.6117994375,34.31
2021-06-23 17:26:34.460937500,-36.0,6.0,53.0,84.61617187499999,-48.325,21.61127903125,34.31
2021-06-23 17:26:34.468750000,-36.0,6.0,53.0,84.6159375,-47.62,21.610758625,34.31
2021-06-23 17:26:34.476562500,-36.0,6.0,53.0,84.615703125,-45.879999999999995,21.610238218750002,34.31
2021-06-23 17:26:34.484375000,-36.0,6.0,53.0,84.61546874999999,-44.14,21.6097178125,34.31
2021-06-23 17:26:34.492187500,-36.0,6.0,53.0,84.615234375,-41.465,21.60919740625,34.31
2021-06-23 17:26:34.500000000,-36.0,6.0,53.0,84.615,-38.79,21.608677,34.31
2021-06-23 17:26:34.507812500,-36.0,6.0,53.0,84.61476562499999,-35.35,21.61215975,34.31
2021-06-23 17:26:34.515625000,-36.0,6.0,53.0,84.61453125,-31.91,21.6156425,34.31
2021-06-23 17:26:34.523437500,-36.0,6.0,53.0,84.614296875,-27.935000000000002,21.61912525,34.31
2021-06-23 17:26:34.531250000,-36.0,6.0,53.0,84.61406249999999,-23.96,21.622608,34.31
2021-06-23 17:26:34.539062500,-36.0,6.0,53.0,84.613828125,-19.64,21.62609075,34.31
2021-06-23 17:26:34.546875000,-36.0,6.0,53.0,84.61359374999999,-15.32,21.6295735,34.31
2021-06-23 17:26:34.554687500,-36.0,6.0,53.0,84.613359375,-10.885,21.63305625,34.31
2021-06-23 17:26:34.562500000,-36.0,6.0,53.0,84.613125,-6.45,21.636539,34.31
2021-06-23 17:26:34.570312500,-36.0,6.0,53.0,84.61289062499999,-2.13,21.64002175,34.31
2021-06-23 17:26:34.578125000,-36.0,6.0,53.0,84.61265625,2.19,21.6435045,34.31
2021-06-23 17:26:34.585937500,-36.0,6.0,53.0,84.612421875,6.120000000000001,21.64698725,34.31
2021-06-23 17:26:34.593750000,-36.0,6.0,53.0,84.61218749999999,10.05,21.65047,34.31
2021-06-23 17:26:34.601562500,-36.0,6.0,53.0,84.611953125,13.32,21.65395275,34.31
2021-06-23 17:26:34.609375000,-36.0,6.0,53.0,84.61171875,16.59,21.6574355,34.31
2021-06-23 17:26:34.617187500,-36.0,6.0,53.0,84.61148437499999,19.009999999999998,21.660918249999998,34.31
2021-06-23 17:26:34.625000000,-36.0,6.0,53.0,84.61125,21.43,21.664400999999998,34.31
2021-06-23 17:26:34.632812500,-36.0,5.75,53.0,84.611015625,22.935000000000002,21.66788375,34.31
2021-06-23 17:26:34.640625000,-36.0,5.5,53.0,84.61078124999999,24.44,21.6713665,34.31
2021-06-23 17:26:34.648437500,-36.0,5.25,53.0,84.610546875,25.08,21.67484925,34.31
2021-06-23 17:26:34.656250000,-36.0,5.0,53.0,84.61031249999999,25.72,21.678332,34.31
2021-06-23 17:26:34.664062500,-36.0,5.0,53.0,84.610078125,25.665,21.68181475,34.31
2021-06-23 17:26:34.671875000,-36.0,5.0,53.0,84.60984375,25.61,21.6852975,34.31
2021-06-23 17:26:34.679687500,-36.0,5.0,53.0,84.60960937499999,25.055,21.68878025,34.31
2021-06-23 17:26:34.687500000,-36.0,5.0,53.0,84.609375,24.5,21.692263,34.31
2021-06-23 17:26:34.695312500,-36.0,5.25,53.0,84.609140625,23.645,21.69574575,34.31
2021-06-23 17:26:34.703125000,-36.0,5.5,53.0,84.60890624999999,22.79,21.6992285,34.31
2021-06-23 17:26:34.710937500,-36.0,5.75,53.0,84.608671875,21.78,21.70271125,34.31
2021-06-23 17:26:34.718750000,-36.0,6.0,53.0,84.6084375,20.77,21.706194,34.31
2021-06-23 17:26:34.726562500,-36.0,6.0,53.0,84.60820312499999,19.735,21.70967675,34.31
2021-06-23 17:26:34.734375000,-36.0,6.0,53.0,84.60796875,18.7,21.7131595,34.31
2021-06-23 17:26:34.742187500,-36.0,6.0,53.0,84.60773437499999,17.735,21.71664225,34.31
2021-06-23 17:26:34.750000000,-36.0,6.0,53.0,84.60749999999999,16.77,21.720125,34.31
2021-06-23 17:26:34.757812500,-36.0,6.0,53.0,84.607265625,15.96,21.72480875,34.31
2021-06-23 17:26:34.765625000,-36.0,6.0,53.0,84.60703124999999,15.15,21.7294925,34.31
2021-06-23 17:26:34.773437500,-36.0,6.0,53.0,84.606796875,14.515,21.73417625,34.31
2021-06-23 17:26:34.781250000,-36.0,6.0,53.0,84.6065625,13.88,21.73886,34.31
2021-06-23 17:26:34.789062500,-36.0,5.75,53.0,84.60632812499999,13.365,21.74354375,34.31
2021-06-23 17:26:34.796875000,-36.0,5.5,53.0,84.60609375,12.85,21.7482275,34.31
2021-06-23 17:26:34.804687500,-36.0,5.25,53.0,84.605859375,12.325,21.75291125,34.31
2021-06-23 17:26:34.812500000,-36.0,5.0,53.0,84.60562499999999,11.8,21.757595,34.31
2021-06-23 17:26:34.820312500,-36.0,5.25,53.0,84.605390625,11.115,21.76227875,34.31
2021-06-23 17:26:34.828125000,-36.0,5.5,53.0,84.60515625,10.43,21.766962499999998,34.31
2021-06-23 17:26:34.835937500,-36.0,5.75,53.0,84.60492187499999,9.465,21.77164625,34.31
2021-06-23 17:26:34.843750000,-36.0,6.0,53.0,84.6046875,8.5,21.776329999999998,34.31
2021-06-23 17:26:34.851562500,-36.25,6.0,53.0,84.60445312499999,7.23,21.78101375,34.31
2021-06-23 17:26:34.859375000,-36.5,6.0,53.0,84.60421875,5.96,21.785697499999998,34.31
2021-06-23 17:26:34.867187500,-36.75,6.0,53.0,84.603984375,4.465,21.79038125,34.31
2021-06-23 17:26:34.875000000,-37.0,6.0,53.0,84.60374999999999,2.97,21.795065,34.31
2021-06-23 17:26:34.882812500,-36.75,6.0,53.0,84.603515625,1.385,21.79974875,34.31
2021-06-23 17:26:34.890625000,-36.5,6.0,53.0,84.60328125,-0.2,21.8044325,34.31
2021-06-23 17:26:34.898437500,-36.25,6.0,53.0,84.60304687499999,-1.7449999999999999,21.80911625,34.31
2021-06-23 17:26:34.906250000,-36.0,6.0,53.0,84.6028125,-3.29,21.8138,34.31
2021-06-23 17:26:34.914062500,-36.0,6.0,53.0,84.602578125,-4.695,21.81848375,34.31
2021-06-23 17:26:34.921875000,-36.0,6.0,53.0,84.60234374999999,-6.1,21.8231675,34.31
2021-06-23 17:26:34.929687500,-36.0,6.0,53.0,84.602109375,-7.33,21.82785125,34.31
2021-06-23 17:26:34.937500000,-36.0,6.0,53.0,84.60187499999999,-8.56,21.832535,34.31
2021-06-23 17:26:34.945312500,-36.0,6.0,53.0,84.60164062499999,-9.61,21.837218749999998,34.31
2021-06-23 17:26:34.953125000,-36.0,6.0,53.0,84.60140625,-10.66,21.8419025,34.31
2021-06-23 17:26:34.960937500,-36.0,6.0,53.0,84.60117187499999,-11.545,21.846586249999998,34.31
2021-06-23 17:26:34.968750000,-36.0,6.0,53.0,84.6009375,-12.43,21.85127,34.31
2021-06-23 17:26:34.976562500,-36.0,6.0,53.0,84.600703125,-13.2,21.855953749999998,34.31
2021-06-23 17:26:34.984375000,-36.0,6.0,53.0,84.60046874999999,-13.97,21.8606375,34.31
2021-06-23 17:26:34.992187500,-36.0,6.0,53.0,84.600234375,-14.72,21.865321249999997,34.31
2021-06-23 17:26:35.000000000,-36.0,6.0,53.0,84.6,-15.47,21.870005,34.31
2021-06-23 17:26:35.007812500,-36.0,6.0,53.0,84.59976562499999,-16.35,21.87496896875,34.309375
2021-06-23 17:26:35.015625000,-36.0,6.0,53.0,84.59953125,-17.23,21.879932937499998,34.30875
2021-06-23 17:26:35.023437500,-36.0,6.0,53.0,84.599296875,-18.405,21.88489690625,34.308125000000004
2021-06-23 17:26:35.031250000,-36.0,6.0,53.0,84.59906249999999,-19.58,21.889860875,34.307500000000005
2021-06-23 17:26:35.039062500,-36.0,5.75,53.0,84.598828125,-21.174999999999997,21.894824843749998,34.306875000000005
2021-06-23 17:26:35.046875000,-36.0,5.5,53.0,84.59859374999999,-22.77,21.8997888125,34.30625
2021-06-23 17:26:35.054687500,-36.0,5.25,53.0,84.598359375,-24.795,21.90475278125,34.305625
2021-06-23 17:26:35.062500000,-36.0,5.0,53.0,84.598125,-26.82,21.90971675,34.305
2021-06-23 17:26:35.070312500,-36.0,5.25,53.0,84.59789062499999,-29.134999999999998,21.91468071875,34.304375
2021-06-23 17:26:35.078125000,-36.0,5.5,53.0,84.59765625,-31.45,21.9196446875,34.30375
2021-06-23 17:26:35.085937500,-36.0,5.75,53.0,84.597421875,-33.8,21.92460865625,34.303125
2021-06-23 17:26:35.093750000,-36.0,6.0,53.0,84.59718749999999,-36.15,21.929572625,34.3025
2021-06-23 17:26:35.101562500,-36.0,6.0,53.0,84.596953125,-38.265,21.93453659375,34.301875
2021-06-23 17:26:35.109375000,-36.0,6.0,53.0,84.59671875,-40.38,21.9395005625,34.30125
2021-06-23 17:26:35.117187500,-36.0,6.0,53.0,84.59648437499999,-42.055,21.94446453125,34.300625000000004
2021-06-23 17:26:35.125000000,-36.0,6.0,53.0,84.59625,-43.73,21.9494285,34.3
2021-06-23 17:26:35.132812500,-36.0,6.0,53.0,84.59601562499999,-44.855,21.95439246875,34.299375
2021-06-23 17:26:35.140625000,-36.0,6.0,53.0,84.59578124999999,-45.98,21.9593564375,34.29875
2021-06-23 17:26:35.148437500,-36.0,6.0,53.0,84.595546875,-46.535,21.96432040625,34.298125
2021-06-23 17:26:35.156250000,-36.0,6.0,53.0,84.59531249999999,-47.09,21.969284375,34.2975
2021-06-23 17:26:35.164062500,-36.0,5.75,53.0,84.595078125,-47.065,21.97424834375,34.296875
2021-06-23 17:26:35.171875000,-36.0,5.5,53.0,84.59484375,-47.04,21.9792123125,34.29625
2021-06-23 17:26:35.179687500,-36.0,5.25,53.0,84.59460937499999,-46.4,21.98417628125,34.295625
2021-06-23 17:26:35.187500000,-36.0,5.0,53.0,84.594375,-45.76,21.98914025,34.295
2021-06-23 17:26:35.195312500,-36.0,5.0,53.0,84.594140625,-44.375,21.99410421875,34.294375
2021-06-23 17:26:35.203125000,-36.0,5.0,53.0,84.59390624999999,-42.99,21.9990681875,34.29375
2021-06-23 17:26:35.210937500,-36.0,5.0,53.0,84.593671875,-40.75,22.004032156250002,34.293124999999996
2021-06-23 17:26:35.218750000,-36.0,5.0,53.0,84.5934375,-38.51,22.008996125,34.2925
2021-06-23 17:26:35.226562500,-36.0,5.25,53.0,84.59320312499999,-35.375,22.01396009375,34.291875
2021-06-23 17:26:35.234375000,-36.0,5.5,53.0,84.59296875,-32.24,22.018924062500002,34.29125
2021-06-23 17:26:35.242187500,-36.0,5.75,53.0,84.59273437499999,-28.295,22.02388803125,34.290625
2021-06-23 17:26:35.250000000,-36.0,6.0,53.0,84.5925,-24.35,22.028852,34.29
2021-06-23 17:26:35.257812500,-36.0,6.0,53.0,84.592265625,-19.875,22.02877196875,34.29
2021-06-23 17:26:35.265625000,-36.0,6.0,53.0,84.59203124999999,-15.4,22.0286919375,34.29
2021-06-23 17:26:35.273437500,-36.0,6.0,53.0,84.591796875,-10.75,22.02861190625,34.29
2021-06-23 17:26:35.281250000,-36.0,6.0,53.0,84.5915625,-6.1,22.028531875,34.29
2021-06-23 17:26:35.289062500,-36.0,6.0,53.0,84.59132812499999,-1.62,22.028451843750002,34.29
2021-06-23 17:26:35.296875000,-36.0,6.0,53.0,84.59109375,2.86,22.0283718125,34.29
2021-06-23 17:26:35.304687500,-36.0,6.0,53.0,84.590859375,6.875,22.02829178125,34.29
2021-06-23 17:26:35.312500000,-36.0,6.0,53.0,84.59062499999999,10.89,22.02821175,34.29
2021-06-23 17:26:35.320312500,-36.0,6.0,53.0,84.590390625,14.280000000000001,22.02813171875,34.29
2021-06-23 17:26:35.328125000,-36.0,6.0,53.0,84.59015624999999,17.67,22.0280516875,34.29
2021-06-23 17:26:35.335937500,-36.0,6.0,53.0,84.58992187499999,20.35,22.02797165625,34.29
2021-06-23 17:26:35.343750000,-36.0,6.0,53.0,84.5896875,23.03,22.027891625000002,34.29
2021-06-23 17:26:35.351562500,-36.0,5.75,53.0,84.58945312499999,24.98,22.027811593750002,34.29
2021-06-23 17:26:35.359375000,-36.0,5.5,53.0,84.58921875,26.93,22.0277315625,34.29
2021-06-23 17:26:35.367187500,-36.0,5.25,53.0,84.588984375,28.155,22.02765153125,34.29
2021-06-23 17:26:35.375000000,-36.0,5.0,53.0,84.58874999999999,29.38,22.0275715,34.29
2021-06-23 17:26:35.382812500,-36.0,5.25,53.0,84.588515625,29.95,22.02749146875,34.29
2021-06-23 17:26:35.390625000,-36.0,5.5,53.0,84.58828125,30.52,22.0274114375,34.29
2021-06-23 17:26:35.398437500,-36.0,5.75,53.0,84.58804687499999,30.560000000000002,22.02733140625,34.29
2021-06-23 17:26:35.406250000,-36.0,6.0,53.0,84.5878125,30.6,22.027251375,34.29
2021-06-23 17:26:35.414062500,-36.25,6.0,53.0,84.587578125,30.295,22.027171343750002,34.29
2021-06-23 17:26:35.421875000,-36.5,6.0,53.0,84.58734374999999,29.99,22.0270913125,34.29
2021-06-23 17:26:35.429687500,-36.75,6.0,53.0,84.587109375,29.515,22.02701128125,34.29
2021-06-23 17:26:35.437500000,-37.0,6.0,53.0,84.58687499999999,29.04,22.02693125,34.29
2021-06-23 17:26:35.445312500,-36.75,5.75,53.0,84.58664062499999,28.515,22.02685121875,34.29
2021-06-23 17:26:35.453125000,-36.5,5.5,53.0,84.58640625,27.99,22.0267711875,34.29
2021-06-23 17:26:35.460937500,-36.25,5.25,53.0,84.58617187499999,27.455,22.02669115625,34.29
2021-06-23 17:26:35.468750000,-36.0,5.0,53.0,84.5859375,26.92,22.026611125000002,34.29
2021-06-23 17:26:35.476562500,-36.0,5.25,53.0,84.585703125,26.36,22.026531093750002,34.29
2021-06-23 17:26:35.484375000,-36.0,5.5,53.0,84.58546874999999,25.8,22.0264510625,34.29
2021-06-23 17:26:35.492187500,-36.0,5.75,53.0,84.585234375,25.18,22.02637103125,34.29
2021-06-23 17:26:35.500000000,-36.0,6.0,53.0,84.585,24.56,22.026291,34.29
2021-06-23 17:26:35.507812500,-36.0,5.75,53.0,84.58476562499999,23.9,22.02729175,34.29
2021-06-23 17:26:35.515625000,-36.0,5.5,53.0,84.58453125,23.24,22.0282925,34.29
2021-06-23 17:26:35.523437500,-36.0,5.25,53.0,84.58429687499999,22.585,22.029293250000002,34.29
2021-06-23 17:26:35.531250000,-36.0,5.0,53.0,84.58406249999999,21.93,22.030294,34.29
2021-06-23 17:26:35.539062500,-36.0,5.0,53.0,84.583828125,21.3,22.03129475,34.29
2021-06-23 17:26:35.546875000,-36.0,5.0,53.0,84.58359374999999,20.67,22.0322955,34.29
2021-06-23 17:26:35.554687500,-36.0,5.0,53.0,84.583359375,20.035,22.03329625,34.29
2021-06-23 17:26:35.562500000,-36.0,5.0,53.0,84.583125,19.4,22.034297000000002,34.29
2021-06-23 17:26:35.570312500,-36.0,5.0,53.0,84.58289062499999,18.665,22.03529775,34.29
2021-06-23 17:26:35.578125000,-36.0,5.0,53.0,84.58265625,17.93,22.0362985,34.29
2021-06-23 17:26:35.585937500,-36.0,5.0,53.0,84.582421875,16.994999999999997,22.03729925,34.29
2021-06-23 17:26:35.593750000,-36.0,5.0,53.0,84.58218749999999,16.06,22.0383,34.29
2021-06-23 17:26:35.601562500,-36.0,5.0,53.0,84.581953125,14.875,22.03930075,34.29
2021-06-23 17:26:35.609375000,-36.0,5.0,53.0,84.58171875,13.69,22.0403015,34.29
2021-06-23 17:26:35.617187500,-36.0,5.0,53.0,84.58148437499999,12.3,22.04130225,34.29
2021-06-23 17:26:35.625000000,-36.0,5.0,53.0,84.58125,10.91,22.042303,34.29
2021-06-23 17:26:35.632812500,-36.0,5.25,53.0,84.58101562499999,9.41,22.04330375,34.29
2021-06-23 17:26:35.640625000,-36.0,5.5,53.0,84.58078124999999,7.91,22.0443045,34.29
2021-06-23 17:26:35.648437500,-36.0,5.75,53.0,84.580546875,6.43,22.045305250000002,34.29
2021-06-23 17:26:35.656250000,-36.0,6.0,53.0,84.58031249999999,4.95,22.046306,34.29
2021-06-23 17:26:35.664062500,-36.25,6.0,53.0,84.580078125,3.535,22.04730675,34.29
2021-06-23 17:26:35.671875000,-36.5,6.0,53.0,84.57984375,2.12,22.0483075,34.29
2021-06-23 17:26:35.679687500,-36.75,6.0,53.0,84.57960937499999,0.74,22.04930825,34.29
2021-06-23 17:26:35.687500000,-37.0,6.0,53.0,84.579375,-0.64,22.050309,34.29
2021-06-23 17:26:35.695312500,-36.75,6.0,53.0,84.579140625,-2.09,22.05130975,34.29
2021-06-23 17:26:35.703125000,-36.5,6.0,53.0,84.57890624999999,-3.54,22.0523105,34.29
2021-06-23 17:26:35.710937500,-36.25,6.0,53.0,84.578671875,-5.165,22.05331125,34.29
2021-06-23 17:26:35.718750000,-36.0,6.0,53.0,84.57843749999999,-6.79,22.054312,34.29
2021-06-23 17:26:35.726562500,-36.0,5.75,53.0,84.57820312499999,-8.61,22.05531275,34.29
2021-06-23 17:26:35.734375000,-36.0,5.5,53.0,84.57796875,-10.43,22.0563135,34.29
2021-06-23 17:26:35.742187500,-36.0,5.25,53.0,84.57773437499999,-12.379999999999999,22.05731425,34.29
2021-06-23 17:26:35.750000000,-36.0,5.0,53.0,84.57749999999999,-14.33,22.058315,34.29
2021-06-23 17:26:35.757812500,-36.0,5.25,53.0,84.577265625,-16.275,22.05611328125,34.29
2021-06-23 17:26:35.765625000,-36.0,5.5,53.0,84.57703124999999,-18.22,22.0539115625,34.29
2021-06-23 17:26:35.773437500,-36.0,5.75,53.0,84.576796875,-20.04,22.05170984375,34.29
2021-06-23 17:26:35.781250000,-36.0,6.0,53.0,84.5765625,-21.86,22.049508125,34.29
2021-06-23 17:26:35.789062500,-36.0,6.0,53.0,84.57632812499999,-23.485,22.04730640625,34.29
2021-06-23 17:26:35.796875000,-36.0,6.0,53.0,84.57609375,-25.11,22.0451046875,34.29
2021-06-23 17:26:35.804687500,-36.0,6.0,53.0,84.575859375,-26.564999999999998,22.04290296875,34.29
2021-06-23 17:26:35.812500000,-36.0,6.0,53.0,84.57562499999999,-28.02,22.04070125,34.29
2021-06-23 17:26:35.820312500,-36.0,6.0,53.0,84.575390625,-29.38,22.03849953125,34.29
2021-06-23 17:26:35.828125000,-36.0,6.0,53.0,84.57515624999999,-30.74,22.0362978125,34.29
2021-06-23 17:26:35.835937500,-36.0,6.0,53.0,84.57492187499999,-32.06,22.03409609375,34.29
2021-06-23 17:26:35.843750000,-36.0,6.0,53.0,84.5746875,-33.38,22.031894375,34.29
2021-06-23 17:26:35.851562500,-36.0,5.75,53.0,84.57445312499999,-34.63,22.02969265625,34.29
2021-06-23 17:26:35.859375000,-36.0,5.5,53.0,84.57421875,-35.88,22.0274909375,34.29
2021-06-23 17:26:35.867187500,-36.0,5.25,53.0,84.573984375,-36.900000000000006,22.02528921875,34.29
2021-06-23 17:26:35.875000000,-36.0,5.0,53.0,84.57374999999999,-37.92,22.023087500000003,34.29
2021-06-23 17:26:35.882812500,-36.0,5.25,53.0,84.573515625,-38.42,22.02088578125,34.29
2021-06-23 17:26:35.890625000,-36.0,5.5,53.0,84.57328125,-38.92,22.0186840625,34.29
2021-06-23 17:26:35.898437500,-36.0,5.75,53.0,84.57304687499999,-38.595,22.016482343750003,34.29
2021-06-23 17:26:35.906250000,-36.0,6.0,53.0,84.5728125,-38.27,22.014280625,34.29
2021-06-23 17:26:35.914062500,-36.0,6.0,53.0,84.57257812499999,-36.875,22.01207890625,34.29
2021-06-23 17:26:35.921875000,-36.0,6.0,53.0,84.57234374999999,-35.48,22.009877187500003,34.29
2021-06-23 17:26:35.929687500,-36.0,6.0,53.0,84.572109375,-32.964999999999996,22.00767546875,34.29
2021-06-23 17:26:35.937500000,-36.0,6.0,53.0,84.57187499999999,-30.45,22.00547375,34.29
2021-06-23 17:26:35.945312500,-36.0,5.75,53.0,84.57164062499999,-26.975,22.003272031250003,34.29
2021-06-23 17:26:35.953125000,-36.0,5.5,53.0,84.57140625,-23.5,22.0010703125,34.29
2021-06-23 17:26:35.960937500,-36.0,5.25,53.0,84.57117187499999,-19.42,21.99886859375,34.29
2021-06-23 17:26:35.968750000,-36.0,5.0,53.0,84.5709375,-15.34,21.996666875000003,34.29
2021-06-23 17:26:35.976562500,-36.0,5.25,53.0,84.570703125,-11.055,21.99446515625,34.29
2021-06-23 17:26:35.984375000,-36.0,5.5,53.0,84.57046874999999,-6.77,21.9922634375,34.29
2021-06-23 17:26:35.992187500,-36.0,5.75,53.0,84.570234375,-2.635,21.990061718750002,34.29
2021-06-23 17:26:36.000000000,-36.0,6.0,53.0,84.57,1.5,21.98786,34.29
2021-06-23 17:26:36.007812500,-36.0,6.0,53.0,84.56968749999999,5.24,21.9863788125,34.290625
2021-06-23 17:26:36.015625000,-36.0,6.0,53.0,84.569375,8.98,21.984897625000002,34.29125
2021-06-23 17:26:36.023437500,-36.0,6.0,53.0,84.56906249999999,12.195,21.9834164375,34.291875
2021-06-23 17:26:36.031250000,-36.0,6.0,53.0,84.56875,15.41,21.98193525,34.2925
2021-06-23 17:26:36.039062500,-36.0,5.75,53.0,84.56843749999999,18.075,21.9804540625,34.293124999999996
2021-06-23 17:26:36.046875000,-36.0,5.5,53.0,84.568125,20.74,21.978972875,34.29375
2021-06-23 17:26:36.054687500,-36.0,5.25,53.0,84.56781249999999,22.845,21.977491687500002,34.294375
2021-06-23 17:26:36.062500000,-36.0,5.0,53.0,84.5675,24.95,21.9760105,34.295
2021-06-23 17:26:36.070312500,-36.25,5.25,53.0,84.56718749999999,26.485,21.9745293125,34.295625
2021-06-23 17:26:36.078125000,-36.5,5.5,53.0,84.566875,28.02,21.973048125000002,34.29625
2021-06-23 17:26:36.085937500,-36.75,5.75,53.0,84.56656249999999,28.985,21.9715669375,34.296875
2021-06-23 17:26:36.093750000,-37.0,6.0,53.0,84.56625,29.95,21.970085750000003,34.2975
2021-06-23 17:26:36.101562500,-36.75,6.0,53.0,84.56593749999999,30.375,21.9686045625,34.298125
2021-06-23 17:26:36.109375000,-36.5,6.0,53.0,84.565625,30.8,21.967123375,34.29875
2021-06-23 17:26:36.117187500,-36.25,6.0,53.0,84.56531249999999,30.745,21.965642187500002,34.299375
2021-06-23 17:26:36.125000000,-36.0,6.0,53.0,84.565,30.69,21.964161,34.3
2021-06-23 17:26:36.132812500,-36.0,6.0,53.0,84.56468749999999,30.285,21.9626798125,34.300625000000004
2021-06-23 17:26:36.140625000,-36.0,6.0,53.0,84.564375,29.88,21.961198625,34.30125
2021-06-23 17:26:36.148437500,-36.0,6.0,53.0,84.56406249999999,29.265,21.9597174375,34.301875
2021-06-23 17:26:36.156250000,-36.0,6.0,53.0,84.56375,28.65,21.95823625,34.3025
2021-06-23 17:26:36.164062500,-36.0,5.75,53.0,84.56343749999999,27.965,21.9567550625,34.303125
2021-06-23 17:26:36.171875000,-36.0,5.5,53.0,84.563125,27.28,21.955273875,34.30375
2021-06-23 17:26:36.179687500,-36.0,5.25,53.0,84.56281249999999,26.625,21.953792687500002,34.304375
2021-06-23 17:26:36.187500000,-36.0,5.0,53.0,84.5625,25.97,21.9523115,34.305
2021-06-23 17:26:36.195312500,-36.0,5.25,53.0,84.5621875,25.4,21.9508303125,34.305625
2021-06-23 17:26:36.203125000,-36.0,5.5,53.0,84.561875,24.83,21.949349125,34.30625
2021-06-23 17:26:36.210937500,-36.0,5.75,53.0,84.5615625,24.34,21.9478679375,34.306875000000005
2021-06-23 17:26:36.218750000,-36.0,6.0,53.0,84.56125,23.85,21.946386750000002,34.307500000000005
2021-06-23 17:26:36.226562500,-36.0,5.75,53.0,84.5609375,23.4,21.9449055625,34.308125000000004
2021-06-23 17:26:36.234375000,-36.0,5.5,53.0,84.560625,22.95,21.943424375,34.30875
2021-06-23 17:26:36.242187500,-36.0,5.25,53.0,84.5603125,22.46,21.9419431875,34.309375
2021-06-23 17:26:36.250000000,-36.0,5.0,53.0,84.56,21.97,21.940462,34.31
2021-06-23 17:26:36.257812500,-36.0,5.25,53.0,84.5596875,21.35,21.93673903125,34.31
2021-06-23 17:26:36.265625000,-36.0,5.5,53.0,84.55937499999999,20.73,21.933016062500002,34.31
2021-06-23 17:26:36.273437500,-36.0,5.75,53.0,84.5590625,19.915,21.92929309375,34.31
2021-06-23 17:26:36.281250000,-36.0,6.0,53.0,84.55874999999999,19.1,21.925570125,34.31
2021-06-23 17:26:36.289062500,-36.0,6.0,53.0,84.5584375,18.025,21.92184715625,34.31
2021-06-23 17:26:36.296875000,-36.0,6.0,53.0,84.55812499999999,16.95,21.9181241875,34.31
2021-06-23 17:26:36.304687500,-36.0,6.0,53.0,84.5578125,15.59,21.91440121875,34.31
2021-06-23 17:26:36.312500000,-36.0,6.0,53.0,84.55749999999999,14.23,21.91067825,34.31
2021-06-23 17:26:36.320312500,-36.0,5.75,53.0,84.5571875,12.645,21.90695528125,34.31
2021-06-23 17:26:36.328125000,-36.0,5.5,53.0,84.55687499999999,11.06,21.903232312500002,34.31
2021-06-23 17:26:36.335937500,-36.0,5.25,53.0,84.5565625,9.33,21.89950934375,34.31
2021-06-23 17:26:36.343750000,-36.0,5.0,53.0,84.55624999999999,7.6,21.895786375,34.31
2021-06-23 17:26:36.351562500,-36.0,5.25,53.0,84.5559375,5.869999999999999,21.89206340625,34.31
2021-06-23 17:26:36.359375000,-36.0,5.5,53.0,84.55562499999999,4.14,21.8883404375,34.31
2021-06-23 17:26:36.367187500,-36.0,5.75,53.0,84.5553125,2.535,21.88461746875,34.31
2021-06-23 17:26:36.375000000,-36.0,6.0,53.0,84.55499999999999,0.93,21.8808945,34.31
2021-06-23 17:26:36.382812500,-36.0,6.0,53.0,84.5546875,-0.505,21.87717153125,34.31
2021-06-23 17:26:36.390625000,-36.0,6.0,53.0,84.554375,-1.94,21.873448562500002,34.31
2021-06-23 17:26:36.398437500,-36.0,6.0,53.0,84.5540625,-3.2649999999999997,21.86972559375,34.31
2021-06-23 17:26:36.406250000,-36.0,6.0,53.0,84.55375,-4.59,21.866002625,34.31
2021-06-23 17:26:36.414062500,-36.0,6.0,53.0,84.5534375,-5.925,21.86227965625,34.31
2021-06-23 17:26:36.421875000,-36.0,6.0,53.0,84.553125,-7.26,21.8585566875,34.31
2021-06-23 17:26:36.429687500,-36.0,6.0,53.0,84.5528125,-8.73,21.85483371875,34.31
2021-06-23 17:26:36.437500000,-36.0,6.0,53.0,84.5525,-10.2,21.85111075,34.31
2021-06-23 17:26:36.445312500,-36.0,6.0,53.0,84.5521875,-11.855,21.84738778125,34.31
2021-06-23 17:26:36.453125000,-36.0,6.0,53.0,84.551875,-13.51,21.843664812500002,34.31
2021-06-23 17:26:36.460937500,-36.0,6.0,53.0,84.5515625,-15.294999999999998,21.83994184375,34.31
2021-06-23 17:26:36.468750000,-36.0,6.0,53.0,84.55125,-17.08,21.836218875,34.31
2021-06-23 17:26:36.476562500,-36.0,6.0,53.0,84.5509375,-18.905,21.83249590625,34.31
2021-06-23 17:26:36.484375000,-36.0,6.0,53.0,84.550625,-20.73,21.8287729375,34.31
2021-06-23 17:26:36.492187500,-36.0,6.0,53.0,84.5503125,-22.52,21.82504996875,34.31
2021-06-23 17:26:36.500000000,-36.0,6.0,53.0,84.55,-24.31,21.821327,34.31
2021-06-23 17:26:36.507812500,-36.0,6.0,53.0,84.54968749999999,-26.06,21.8195255625,34.31
2021-06-23 17:26:36.515625000,-36.0,6.0,53.0,84.549375,-27.81,21.817724125,34.31
2021-06-23 17:26:36.523437500,-36.0,6.0,53.0,84.54906249999999,-29.545,21.8159226875,34.31
2021-06-23 17:26:36.531250000,-36.0,6.0,53.0,84.54875,-31.28,21.81412125,34.31
2021-06-23 17:26:36.539062500,-36.0,6.0,53.0,84.54843749999999,-32.97,21.8123198125,34.31
2021-06-23 17:26:36.546875000,-36.0,6.0,53.0,84.548125,-34.66,21.810518375,34.31
2021-06-23 17:26:36.554687500,-36.0,6.0,53.0,84.54781249999999,-36.155,21.808716937499998,34.31
2021-06-23 17:26:36.562500000,-36.0,6.0,53.0,84.5475,-37.65,21.8069155,34.31
2021-06-23 17:26:36.570312500,-36.0,5.75,53.0,84.54718749999999,-38.665,21.8051140625,34.31
2021-06-23 17:26:36.578125000,-36.0,5.5,53.0,84.546875,-39.68,21.803312625,34.31
2021-06-23 17:26:36.585937500,-36.0,5.25,53.0,84.5465625,-39.894999999999996,21.8015111875,34.31
2021-06-23 17:26:36.593750000,-36.0,5.0,53.0,84.54625,-40.11,21.799709749999998,34.31
2021-06-23 17:26:36.601562500,-36.0,5.25,53.0,84.5459375,-39.269999999999996,21.7979083125,34.31
2021-06-23 17:26:36.609375000,-36.0,5.5,53.0,84.545625,-38.43,21.796106875,34.31
2021-06-23 17:26:36.617187500,-36.0,5.75,53.0,84.5453125,-36.475,21.7943054375,34.31
2021-06-23 17:26:36.625000000,-36.0,6.0,53.0,84.545,-34.52,21.792504,34.31
2021-06-23 17:26:36.632812500,-36.0,6.0,53.0,84.5446875,-31.565,21.790702562499998,34.31
2021-06-23 17:26:36.640625000,-36.0,6.0,53.0,84.544375,-28.61,21.788901125,34.31
2021-06-23 17:26:36.648437500,-36.0,6.0,53.0,84.5440625,-24.92,21.7870996875,34.31
2021-06-23 17:26:36.656250000,-36.0,6.0,53.0,84.54375,-21.23,21.78529825,34.31
2021-06-23 17:26:36.664062500,-36.0,6.0,53.0,84.5434375,-17.13,21.783496812499997,34.31
2021-06-23 17:26:36.671875000,-36.0,6.0,53.0,84.543125,-13.03,21.781695374999998,34.31
2021-06-23 17:26:36.679687500,-36.0,6.0,53.0,84.5428125,-8.805,21.7798939375,34.31
2021-06-23 17:26:36.687500000,-36.0,6.0,53.0,84.5425,-4.58,21.7780925,34.31
2021-06-23 17:26:36.695312500,-36.0,6.0,53.0,84.5421875,-0.46999999999999975,21.7762910625,34.31
2021-06-23 17:26:36.703125000,-36.0,6.0,53.0,84.541875,3.64,21.774489624999998,34.31
2021-06-23 17:26:36.710937500,-36.0,6.0,53.0,84.5415625,7.48,21.7726881875,34.31
2021-06-23 17:26:36.718750000,-36.0,6.0,53.0,84.54125,11.32,21.77088675,34.31
2021-06-23 17:26:36.726562500,-35.75,5.75,53.0,84.5409375,14.75,21.7690853125,34.31
2021-06-23 17:26:36.734375000,-35.5,5.5,53.0,84.540625,18.18,21.767283874999997,34.31
2021-06-23 17:26:36.742187500,-35.25,5.25,53.0,84.5403125,21.1,21.765482437499998,34.31
2021-06-23 17:26:36.750000000,-35.0,5.0,53.0,84.53999999999999,24.02,21.763681,34.31
2021-06-23 17:26:36.757812500,-35.25,5.25,53.0,84.5396875,26.35,21.762119718749997,34.31
2021-06-23 17:26:36.765625000,-35.5,5.5,53.0,84.53937499999999,28.68,21.7605584375,34.31
2021-06-23 17:26:36.773437500,-35.75,5.75,53.0,84.5390625,30.365,21.758997156249997,34.31
2021-06-23 17:26:36.781250000,-36.0,6.0,53.0,84.53875,32.05,21.757435875,34.31
2021-06-23 17:26:36.789062500,-36.0,6.0,53.0,84.5384375,33.08,21.755874593749997,34.31
2021-06-23 17:26:36.796875000,-36.0,6.0,53.0,84.538125,34.11,21.7543133125,34.31
2021-06-23 17:26:36.804687500,-36.0,6.0,53.0,84.5378125,34.515,21.752752031249997,34.31
2021-06-23 17:26:36.812500000,-36.0,6.0,53.0,84.5375,34.92,21.75119075,34.31
2021-06-23 17:26:36.820312500,-36.0,6.0,53.0,84.5371875,34.78,21.749629468749998,34.31
2021-06-23 17:26:36.828125000,-36.0,6.0,53.0,84.536875,34.64,21.7480681875,34.31
2021-06-23 17:26:36.835937500,-36.0,6.0,53.0,84.5365625,34.075,21.746506906249998,34.31
2021-06-23 17:26:36.843750000,-36.0,6.0,53.0,84.53625,33.51,21.744945625,34.31
2021-06-23 17:26:36.851562500,-36.0,6.0,53.0,84.5359375,32.65,21.743384343749998,34.31
2021-06-23 17:26:36.859375000,-36.0,6.0,53.0,84.535625,31.79,21.7418230625,34.31
2021-06-23 17:26:36.867187500,-36.0,6.0,53.0,84.5353125,30.75,21.74026178125,34.31
2021-06-23 17:26:36.875000000,-36.0,6.0,53.0,84.535,29.71,21.7387005,34.31
2021-06-23 17:26:36.882812500,-36.0,6.0,53.0,84.5346875,28.615000000000002,21.73713921875,34.31
2021-06-23 17:26:36.890625000,-36.0,6.0,53.0,84.534375,27.52,21.735577937499997,34.31
2021-06-23 17:26:36.898437500,-36.0,6.0,53.0,84.5340625,26.465,21.73401665625,34.31
2021-06-23 17:26:36.906250000,-36.0,6.0,53.0,84.53375,25.41,21.732455374999997,34.31
2021-06-23 17:26:36.914062500,-36.0,6.0,53.0,84.5334375,24.494999999999997,21.73089409375,34.31
2021-06-23 17:26:36.921875000,-36.0,6.0,53.0,84.533125,23.58,21.729332812499997,34.31
2021-06-23 17:26:36.929687500,-36.0,6.0,53.0,84.5328125,22.86,21.72777153125,34.31
2021-06-23 17:26:36.937500000,-36.0,6.0,53.0,84.5325,22.14,21.726210249999998,34.31
2021-06-23 17:26:36.945312500,-36.0,5.75,53.0,84.5321875,21.61,21.72464896875,34.31
2021-06-23 17:26:36.953125000,-36.0,5.5,53.0,84.531875,21.08,21.723087687499998,34.31
2021-06-23 17:26:36.960937500,-36.0,5.25,53.0,84.5315625,20.655,21.72152640625,34.31
2021-06-23 17:26:36.968750000,-36.0,5.0,53.0,84.53125,20.23,21.719965124999998,34.31
2021-06-23 17:26:36.976562500,-36.0,5.25,53.0,84.53093750000001,19.725,21.71840384375,34.31
2021-06-23 17:26:36.984375000,-36.0,5.5,53.0,84.530625,19.22,21.7168425625,34.31
2021-06-23 17:26:36.992187500,-36.0,5.75,53.0,84.53031250000001,18.46,21.71528128125,34.31
2021-06-23 17:26:37.000000000,-36.0,6.0,53.0,84.53,17.7,21.71372,34.31
2021-06-23 17:26:37.007812500,-35.75,6.0,53.0,84.529375,16.56,21.712398999999998,34.310625
2021-06-23 17:26:37.015625000,-35.5,6.0,53.0,84.52875,15.42,21.711078,34.31125
2021-06-23 17:26:37.023437500,-35.25,6.0,53.0,84.528125,13.940000000000001,21.709757,34.311875
2021-06-23 17:26:37.031250000,-35.0,6.0,53.0,84.5275,12.46,21.708436,34.3125
2021-06-23 17:26:37.039062500,-35.25,6.0,53.0,84.526875,10.805,21.707114999999998,34.313125
2021-06-23 17:26:37.046875000,-35.5,6.0,53.0,84.52625,9.15,21.705793999999997,34.31375
2021-06-23 17:26:37.054687500,-35.75,6.0,53.0,84.525625,7.535,21.704473,34.314375
2021-06-23 17:26:37.062500000,-36.0,6.0,53.0,84.525,5.92,21.703152,34.315
2021-06-23 17:26:37.070312500,-36.0,6.0,53.0,84.524375,4.48,21.701831,34.315625000000004
2021-06-23 17:26:37.078125000,-36.0,6.0,53.0,84.52375,3.04,21.70051,34.316250000000004
2021-06-23 17:26:37.085937500,-36.0,6.0,53.0,84.52312500000001,1.7850000000000001,21.699189,34.316875
2021-06-23 17:26:37.093750000,-36.0,6.0,53.0,84.52250000000001,0.53,21.697868,34.3175
2021-06-23 17:26:37.101562500,-36.0,6.0,53.0,84.521875,-0.6799999999999999,21.696547,34.318125
2021-06-23 17:26:37.109375000,-36.0,6.0,53.0,84.52125,-1.89,21.695225999999998,34.31875
2021-06-23 17:26:37.117187500,-36.0,6.0,53.0,84.520625,-3.2300000000000004,21.693905,34.319375
2021-06-23 17:26:37.125000000,-36.0,6.0,53.0,84.52,-4.57,21.692584,34.32
2021-06-23 17:26:37.132812500,-36.0,5.75,53.0,84.519375,-6.16,21.691263,34.320625
2021-06-23 17:26:37.140625000,-36.0,5.5,53.0,84.51875,-7.75,21.689942000000002,34.32125
2021-06-23 17:26:37.148437500,-36.0,5.25,53.0,84.518125,-9.585,21.688621,34.321875
2021-06-23 17:26:37.156250000,-36.0,5.0,53.0,84.5175,-11.42,21.6873,34.3225
2021-06-23 17:26:37.164062500,-36.0,5.25,53.0,84.516875,-13.405000000000001,21.685979,34.323125
2021-06-23 17:26:37.171875000,-36.0,5.5,53.0,84.51625,-15.39,21.684658,34.32375
2021-06-23 17:26:37.179687500,-36.0,5.75,53.0,84.515625,-17.425,21.683337,34.324374999999996
2021-06-23 17:26:37.187500000,-36.0,6.0,53.0,84.515,-19.46,21.682016,34.325
2021-06-23 17:26:37.195312500,-36.0,6.0,53.0,84.514375,-21.490000000000002,21.680695,34.325625
2021-06-23 17:26:37.203125000,-36.0,6.0,53.0,84.51375,-23.52,21.679374000000003,34.32625
2021-06-23 17:26:37.210937500,-36.0,6.0,53.0,84.513125,-25.52,21.678053000000002,34.326875
2021-06-23 17:26:37.218750000,-36.0,6.0,53.0,84.5125,-27.52,21.676732,34.3275
2021-06-23 17:26:37.226562500,-36.0,6.0,53.0,84.511875,-29.46,21.675411,34.328125
2021-06-23 17:26:37.234375000,-36.0,6.0,53.0,84.51125,-31.4,21.67409,34.32875
2021-06-23 17:26:37.242187500,-36.0,6.0,53.0,84.510625,-33.15,21.672769000000002,34.329375
2021-06-23 17:26:37.250000000,-36.0,6.0,53.0,84.51,-34.9,21.671448,34.33
2021-06-23 17:26:37.257812500,-36.0,6.0,53.0,84.509375,-36.19,21.66904603125,34.33
2021-06-23 17:26:37.265625000,-36.0,6.0,53.0,84.50875,-37.48,21.6666440625,34.33
2021-06-23 17:26:37.273437500,-36.0,6.0,53.0,84.508125,-37.995,21.66424209375,34.33
2021-06-23 17:26:37.281250000,-36.0,6.0,53.0,84.50750000000001,-38.51,21.661840125,34.33
2021-06-23 17:26:37.289062500,-36.0,6.0,53.0,84.50687500000001,-37.959999999999994,21.65943815625,34.33
2021-06-23 17:26:37.296875000,-36.0,6.0,53.0,84.50625000000001,-37.41,21.6570361875,34.33
2021-06-23 17:26:37.304687500,-36.0,6.0,53.0,84.505625,-35.66,21.65463421875,34.33
2021-06-23 17:26:37.312500000,-36.0,6.0,53.0,84.505,-33.91,21.65223225,34.33
2021-06-23 17:26:37.320312500,-36.0,6.0,53.0,84.504375,-31.005,21.64983028125,34.33
2021-06-23 17:26:37.328125000,-36.0,6.0,53.0,84.50375,-28.1,21.6474283125,34.33
2021-06-23 17:26:37.335937500,-36.0,6.0,53.0,84.503125,-24.245,21.64502634375,34.33
2021-06-23 17:26:37.343750000,-36.0,6.0,53.0,84.5025,-20.39,21.642624375,34.33
2021-06-23 17:26:37.351562500,-36.0,6.0,53.0,84.501875,-15.915,21.64022240625,34.33
2021-06-23 17:26:37.359375000,-36.0,6.0,53.0,84.50125,-11.44,21.6378204375,34.33
2021-06-23 17:26:37.367187500,-36.0,6.0,53.0,84.500625,-6.699999999999999,21.63541846875,34.33
2021-06-23 17:26:37.375000000,-36.0,6.0,53.0,84.5,-1.96,21.6330165,34.33
2021-06-23 17:26:37.382812500,-36.0,6.0,53.0,84.499375,2.71,21.63061453125,34.33
2021-06-23 17:26:37.390625000,-36.0,6.0,53.0,84.49875,7.38,21.6282125625,34.33
2021-06-23 17:26:37.398437500,-36.0,6.0,53.0,84.498125,11.684999999999999,21.62581059375,34.33
2021-06-23 17:26:37.406250000,-36.0,6.0,53.0,84.4975,15.99,21.623408625,34.33
2021-06-23 17:26:37.414062500,-36.0,6.0,53.0,84.496875,19.705000000000002,21.62100665625,34.33
2021-06-23 17:26:37.421875000,-36.0,6.0,53.0,84.49625,23.42,21.6186046875,34.33
2021-06-23 17:26:37.429687500,-36.0,6.0,53.0,84.495625,26.41,21.61620271875,34.33
2021-06-23 17:26:37.437500000,-36.0,6.0,53.0,84.495,29.4,21.61380075,34.33
2021-06-23 17:26:37.445312500,-36.0,6.0,53.0,84.494375,31.615,21.61139878125,34.33
2021-06-23 17:26:37.453125000,-36.0,6.0,53.0,84.49375,33.83,21.6089968125,34.33
2021-06-23 17:26:37.460937500,-36.0,6.0,53.0,84.493125,35.28,21.60659484375,34.33
2021-06-23 17:26:37.468750000,-36.0,6.0,53.0,84.4925,36.73,21.604192875,34.33
2021-06-23 17:26:37.476562500,-36.0,5.75,53.0,84.49187500000001,37.47,21.60179090625,34.33
2021-06-23 17:26:37.484375000,-36.0,5.5,53.0,84.49125000000001,38.21,21.5993889375,34.33
2021-06-23 17:26:37.492187500,-36.0,5.25,53.0,84.49062500000001,38.315,21.59698696875,34.33
2021-06-23 17:26:37.500000000,-36.0,5.0,53.0,84.49000000000001,38.42,21.594585,34.33
2021-06-23 17:26:37.507812500,-36.0,5.25,53.0,84.489375,37.97,21.59446490625,34.33
2021-06-23 17:26:37.515625000,-36.0,5.5,53.0,84.48875,37.52,21.594344812499997,34.33
2021-06-23 17:26:37.523437500,-36.0,5.75,53.0,84.488125,36.615,21.59422471875,34.33
2021-06-23 17:26:37.531250000,-36.0,6.0,53.0,84.4875,35.71,21.594104625,34.33
2021-06-23 17:26:37.539062500,-36.0,6.0,53.0,84.486875,34.504999999999995,21.593984531249998,34.33
2021-06-23 17:26:37.546875000,-36.0,6.0,53.0,84.48625,33.3,21.5938644375,34.33
2021-06-23 17:26:37.554687500,-36.0,6.0,53.0,84.485625,31.97,21.59374434375,34.33
2021-06-23 17:26:37.562500000,-36.0,6.0,53.0,84.485,30.64,21.593624249999998,34.33
2021-06-23 17:26:37.570312500,-36.0,6.0,53.0,84.484375,29.34,21.59350415625,34.33
2021-06-23 17:26:37.578125000,-36.0,6.0,53.0,84.48375,28.04,21.5933840625,34.33
2021-06-23 17:26:37.585937500,-36.0,6.0,53.0,84.483125,26.875,21.593263968749998,34.33
2021-06-23 17:26:37.593750000,-36.0,6.0,53.0,84.4825,25.71,21.593143875,34.33
2021-06-23 17:26:37.601562500,-36.0,5.75,53.0,84.481875,24.675,21.59302378125,34.33
2021-06-23 17:26:37.609375000,-36.0,5.5,53.0,84.48125,23.64,21.592903687499998,34.33
2021-06-23 17:26:37.617187500,-36.0,5.25,53.0,84.480625,22.655,21.59278359375,34.33
2021-06-23 17:26:37.625000000,-36.0,5.0,53.0,84.48,21.67,21.5926635,34.33
2021-06-23 17:26:37.632812500,-36.0,5.25,53.0,84.479375,20.66,21.592543406249998,34.33
2021-06-23 17:26:37.640625000,-36.0,5.5,53.0,84.47875,19.65,21.5924233125,34.33
2021-06-23 17:26:37.648437500,-36.0,5.75,53.0,84.478125,18.54,21.592303218749997,34.33
2021-06-23 17:26:37.656250000,-36.0,6.0,53.0,84.4775,17.43,21.592183125,34.33
2021-06-23 17:26:37.664062500,-36.0,6.0,53.0,84.476875,16.2,21.59206303125,34.33
2021-06-23 17:26:37.671875000,-36.0,6.0,53.0,84.47625000000001,14.97,21.591942937499997,34.33
2021-06-23 17:26:37.679687500,-36.0,6.0,53.0,84.47562500000001,13.64,21.59182284375,34.33
2021-06-23 17:26:37.687500000,-36.0,6.0,53.0,84.47500000000001,12.31,21.59170275,34.33
2021-06-23 17:26:37.695312500,-36.0,6.0,53.0,84.47437500000001,10.92,21.591582656249997,34.33
2021-06-23 17:26:37.703125000,-36.0,6.0,53.0,84.47375,9.53,21.5914625625,34.33
2021-06-23 17:26:37.710937500,-36.0,6.0,53.0,84.473125,8.115,21.59134246875,34.33
2021-06-23 17:26:37.718750000,-36.0,6.0,53.0,84.4725,6.7,21.591222374999997,34.33
2021-06-23 17:26:37.726562500,-36.0,6.0,53.0,84.471875,5.28,21.59110228125,34.33
2021-06-23 17:26:37.734375000,-36.0,6.0,53.0,84.47125,3.86,21.5909821875,34.33
2021-06-23 17:26:37.742187500,-36.0,6.0,53.0,84.470625,2.45,21.590862093749998,34.33
2021-06-23 17:26:37.750000000,-36.0,6.0,53.0,84.47,1.04,21.590742,34.33
2021-06-23 17:26:37.757812500,-36.0,6.0,53.0,84.469375,-0.355,21.588820468749997,34.33
2021-06-23 17:26:37.765625000,-36.0,6.0,53.0,84.46875,-1.75,21.5868989375,34.33
2021-06-23 17:26:37.773437500,-36.0,6.0,53.0,84.468125,-3.13,21.584977406249998,34.33
2021-06-23 17:26:37.781250000,-36.0,6.0,53.0,84.4675,-4.51,21.583055875,34.33
2021-06-23 17:26:37.789062500,-36.0,6.0,53.0,84.466875,-5.88,21.581134343749998,34.33
2021-06-23 17:26:37.796875000,-36.0,6.0,53.0,84.46625,-7.25,21.5792128125,34.33
2021-06-23 17:26:37.804687500,-36.0,6.0,53.0,84.465625,-8.64,21.577291281249998,34.33
2021-06-23 17:26:37.812500000,-36.0,6.0,53.0,84.465,-10.03,21.57536975,34.33
2021-06-23 17:26:37.820312500,-36.0,6.0,53.0,84.464375,-11.475,21.57344821875,34.33
2021-06-23 17:26:37.828125000,-36.0,6.0,53.0,84.46375,-12.92,21.5715266875,34.33
2021-06-23 17:26:37.835937500,-36.0,6.0,53.0,84.463125,-14.455,21.56960515625,34.33
2021-06-23 17:26:37.843750000,-36.0,6.0,53.0,84.4625,-15.99,21.567683625,34.33
2021-06-23 17:26:37.851562500,-36.0,6.0,53.0,84.461875,-17.65,21.56576209375,34.33
2021-06-23 17:26:37.859375000,-36.0,6.0,53.0,84.46125,-19.31,21.5638405625,34.33
2021-06-23 17:26:37.867187500,-36.0,6.0,53.0,84.46062500000001,-21.13,21.56191903125,34.33
2021-06-23 17:26:37.875000000,-36.0,6.0,53.0,84.46000000000001,-22.95,21.5599975,34.33
2021-06-23 17:26:37.882812500,-36.0,6.0,53.0,84.45937500000001,-24.92,21.55807596875,34.33
2021-06-23 17:26:37.890625000,-36.0,6.0,53.0,84.45875000000001,-26.89,21.5561544375,34.33
2021-06-23 17:26:37.898437500,-36.0,6.0,53.0,84.45812500000001,-28.955,21.55423290625,34.33
2021-06-23 17:26:37.906250000,-36.0,6.0,53.0,84.4575,-31.02,21.552311375,34.33
2021-06-23 17:26:37.914062500,-36.0,6.0,53.0,84.456875,-33.06,21.55038984375,34.33
2021-06-23 17:26:37.921875000,-36.0,6.0,53.0,84.45625,-35.1,21.5484683125,34.33
2021-06-23 17:26:37.929687500,-36.0,6.0,53.0,84.455625,-36.94,21.54654678125,34.33
2021-06-23 17:26:37.937500000,-36.0,6.0,53.0,84.455,-38.78,21.54462525,34.33
2021-06-23 17:26:37.945312500,-36.0,6.0,53.0,84.454375,-40.225,21.54270371875,34.33
2021-06-23 17:26:37.953125000,-36.0,6.0,53.0,84.45375,-41.67,21.5407821875,34.33
2021-06-23 17:26:37.960937500,-36.0,6.0,53.0,84.453125,-42.505,21.53886065625,34.33
2021-06-23 17:26:37.968750000,-36.0,6.0,53.0,84.4525,-43.34,21.536939125,34.33
2021-06-23 17:26:37.976562500,-36.0,6.0,53.0,84.451875,-43.39,21.535017593750002,34.33
2021-06-23 17:26:37.984375000,-36.0,6.0,53.0,84.45125,-43.44,21.5330960625,34.33
2021-06-23 17:26:37.992187500,-36.0,6.0,53.0,84.450625,-42.565,21.531174531250002,34.33
2021-06-23 17:26:38.000000000,-36.0,6.0,53.0,84.45,-41.69,21.529253,34.33
2021-06-23 17:26:38.007812500,-36.0,6.0,53.0,84.4490625,-39.82,21.5296133125,34.329375
2021-06-23 17:26:38.015625000,-36.0,6.0,53.0,84.448125,-37.95,21.529973625,34.32875
2021-06-23 17:26:38.023437500,-36.0,6.0,53.0,84.4471875,-35.08,21.5303339375,34.328125
2021-06-23 17:26:38.031250000,-36.0,6.0,53.0,84.44625,-32.21,21.53069425,34.3275
2021-06-23 17:26:38.039062500,-36.0,6.0,53.0,84.4453125,-28.44,21.5310545625,34.326875
2021-06-23 17:26:38.046875000,-36.0,6.0,53.0,84.44437500000001,-24.67,21.531414875,34.32625
2021-06-23 17:26:38.054687500,-36.0,6.0,53.0,84.4434375,-20.225,21.5317751875,34.325625
2021-06-23 17:26:38.062500000,-36.0,6.0,53.0,84.4425,-15.78,21.532135500000003,34.325
2021-06-23 17:26:38.070312500,-36.0,6.0,53.0,84.4415625,-10.965,21.532495812500002,34.324374999999996
2021-06-23 17:26:38.078125000,-36.0,6.0,53.0,84.440625,-6.15,21.532856125000002,34.32375
2021-06-23 17:26:38.085937500,-36.0,6.0,53.0,84.4396875,-1.3200000000000003,21.533216437500002,34.323125
2021-06-23 17:26:38.093750000,-36.0,6.0,53.0,84.43875,3.51,21.53357675,34.3225
2021-06-23 17:26:38.101562500,-36.0,6.0,53.0,84.4378125,8.055,21.5339370625,34.321875
2021-06-23 17:26:38.109375000,-36.0,6.0,53.0,84.436875,12.6,21.534297375,34.32125
2021-06-23 17:26:38.117187500,-36.0,6.0,53.0,84.43593750000001,16.63,21.5346576875,34.320625
2021-06-23 17:26:38.125000000,-36.0,6.0,53.0,84.435,20.66,21.535018,34.32
2021-06-23 17:26:38.132812500,-36.0,6.0,53.0,84.4340625,24.075,21.5353783125,34.319375
2021-06-23 17:26:38.140625000,-36.0,6.0,53.0,84.433125,27.49,21.535738625,34.31875
2021-06-23 17:26:38.148437500,-36.0,6.0,53.0,84.4321875,30.235,21.5360989375,34.318125
2021-06-23 17:26:38.156250000,-36.0,6.0,53.0,84.43125,32.98,21.53645925,34.3175
2021-06-23 17:26:38.164062500,-36.0,6.0,53.0,84.4303125,35.05,21.5368195625,34.316875
2021-06-23 17:26:38.171875000,-36.0,6.0,53.0,84.42937500000001,37.12,21.537179875,34.316250000000004
2021-06-23 17:26:38.179687500,-36.0,6.0,53.0,84.4284375,38.515,21.5375401875,34.315625000000004
2021-06-23 17:26:38.187500000,-36.0,6.0,53.0,84.42750000000001,39.91,21.5379005,34.315
2021-06-23 17:26:38.195312500,-36.0,5.75,53.0,84.4265625,40.644999999999996,21.538260812500003,34.314375
2021-06-23 17:26:38.203125000,-36.0,5.5,53.0,84.425625,41.38,21.538621125000002,34.31375
2021-06-23 17:26:38.210937500,-36.0,5.25,53.0,84.4246875,41.519999999999996,21.538981437500002,34.313125
2021-06-23 17:26:38.218750000,-36.0,5.0,53.0,84.42375,41.66,21.539341750000002,34.3125
2021-06-23 17:26:38.226562500,-36.0,5.25,53.0,84.4228125,41.3,21.5397020625,34.311875
2021-06-23 17:26:38.234375000,-36.0,5.5,53.0,84.421875,40.94,21.540062375,34.31125
2021-06-23 17:26:38.242187500,-36.0,5.75,53.0,84.42093750000001,40.205,21.5404226875,34.310625
2021-06-23 17:26:38.250000000,-36.0,6.0,53.0,84.42,39.47,21.540783,34.31
2021-06-23 17:26:38.257812500,-36.0,6.0,53.0,84.4190625,38.47,21.539942343750003,34.31
2021-06-23 17:26:38.265625000,-36.0,6.0,53.0,84.418125,37.47,21.5391016875,34.31
2021-06-23 17:26:38.273437500,-36.0,6.0,53.0,84.4171875,36.295,21.538261031250002,34.31
2021-06-23 17:26:38.281250000,-36.0,6.0,53.0,84.41625,35.12,21.537420375,34.31
2021-06-23 17:26:38.289062500,-36.0,6.0,53.0,84.4153125,33.84,21.53657971875,34.31
2021-06-23 17:26:38.296875000,-36.0,6.0,53.0,84.414375,32.56,21.5357390625,34.31
2021-06-23 17:26:38.304687500,-36.0,6.0,53.0,84.4134375,31.240000000000002,21.53489840625,34.31
2021-06-23 17:26:38.312500000,-36.0,6.0,53.0,84.4125,29.92,21.534057750000002,34.31
2021-06-23 17:26:38.320312500,-36.0,6.0,53.0,84.4115625,28.66,21.53321709375,34.31
2021-06-23 17:26:38.328125000,-36.0,6.0,53.0,84.410625,27.4,21.5323764375,34.31
2021-06-23 17:26:38.335937500,-36.0,6.0,53.0,84.4096875,26.259999999999998,21.53153578125,34.31
2021-06-23 17:26:38.343750000,-36.0,6.0,53.0,84.40875,25.12,21.530695125,34.31
2021-06-23 17:26:38.351562500,-36.0,6.0,53.0,84.4078125,24.14,21.52985446875,34.31
2021-06-23 17:26:38.359375000,-36.0,6.0,53.0,84.406875,23.16,21.5290138125,34.31
2021-06-23 17:26:38.367187500,-36.0,6.0,53.0,84.40593750000001,22.27,21.52817315625,34.31
2021-06-23 17:26:38.375000000,-36.0,6.0,53.0,84.405,21.38,21.5273325,34.31
2021-06-23 17:26:38.382812500,-36.0,6.0,53.0,84.4040625,20.424999999999997,21.52649184375,34.31
2021-06-23 17:26:38.390625000,-36.0,6.0,53.0,84.403125,19.47,21.5256511875,34.31
2021-06-23 17:26:38.398437500,-36.0,6.0,53.0,84.4021875,18.299999999999997,21.52481053125,34.31
2021-06-23 17:26:38.406250000,-36.0,6.0,53.0,84.40125,17.13,21.523969875,34.31
2021-06-23 17:26:38.414062500,-36.0,6.0,53.0,84.4003125,15.655,21.52312921875,34.31
2021-06-23 17:26:38.421875000,-36.0,6.0,53.0,84.399375,14.18,21.522288562499998,34.31
2021-06-23 17:26:38.429687500,-36.0,6.0,53.0,84.3984375,12.41,21.52144790625,34.31
2021-06-23 17:26:38.437500000,-36.0,6.0,53.0,84.39750000000001,10.64,21.520607249999998,34.31
2021-06-23 17:26:38.445312500,-36.0,6.0,53.0,84.3965625,8.71,21.51976659375,34.31
2021-06-23 17:26:38.453125000,-36.0,6.0,53.0,84.395625,6.78,21.5189259375,34.31
2021-06-23 17:26:38.460937500,-36.0,6.0,53.0,84.3946875,4.87,21.51808528125,34.31
2021-06-23 17:26:38.468750000,-36.0,6.0,53.0,84.39375,2.96,21.517244625,34.31
2021-06-23 17:26:38.476562500,-36.0,6.0,53.0,84.3928125,1.2149999999999999,21.516403968749998,34.31
2021-06-23 17:26:38.484375000,-36.0,6.0,53.0,84.391875,-0.53,21.5155633125,34.31
2021-06-23 17:26:38.492187500,-36.0,6.0,53.0,84.3909375,-2.0199999999999996,21.514722656249997,34.31
2021-06-23 17:26:38.500000000,-36.0,6.0,53.0,84.39,-3.51,21.513882,34.31
2021-06-23 17:26:38.507812500,-36.0,6.0,53.0,84.3890625,-4.74,21.51424225,34.31
2021-06-23 17:26:38.515625000,-36.0,6.0,53.0,84.388125,-5.97,21.5146025,34.31
2021-06-23 17:26:38.523437500,-36.0,6.0,53.0,84.3871875,-7.029999999999999,21.51496275,34.31
2021-06-23 17:26:38.531250000,-36.0,6.0,53.0,84.38625,-8.09,21.515323,34.31
2021-06-23 17:26:38.539062500,-36.0,6.0,53.0,84.3853125,-9.085,21.51568325,34.31
2021-06-23 17:26:38.546875000,-36.0,6.0,53.0,84.384375,-10.08,21.5160435,34.31
2021-06-23 17:26:38.554687500,-36.0,6.0,53.0,84.3834375,-11.17,21.51640375,34.31
2021-06-23 17:26:38.562500000,-36.0,6.0,53.0,84.3825,-12.26,21.516764,34.31
2021-06-23 17:26:38.570312500,-36.0,6.0,53.0,84.3815625,-13.565,21.51712425,34.31
2021-06-23 17:26:38.578125000,-36.0,6.0,53.0,84.380625,-14.87,21.5174845,34.31
2021-06-23 17:26:38.585937500,-36.0,6.0,53.0,84.3796875,-16.465,21.51784475,34.31
2021-06-23 17:26:38.593750000,-36.0,6.0,53.0,84.37875,-18.06,21.518205,34.31
2021-06-23 17:26:38.601562500,-36.0,6.0,53.0,84.3778125,-19.965,21.518565249999998,34.31
2021-06-23 17:26:38.609375000,-36.0,6.0,53.0,84.376875,-21.87,21.518925499999998,34.31
2021-06-23 17:26:38.617187500,-36.0,6.0,53.0,84.3759375,-24.020000000000003,21.519285749999998,34.31
2021-06-23 17:26:38.625000000,-36.0,6.0,53.0,84.375,-26.17,21.519646,34.31
2021-06-23 17:26:38.632812500,-36.0,6.0,53.0,84.3740625,-28.415,21.52000625,34.31
2021-06-23 17:26:38.640625000,-36.0,6.0,53.0,84.373125,-30.66,21.5203665,34.31
2021-06-23 17:26:38.648437500,-36.0,6.0,53.0,84.3721875,-32.81,21.52072675,34.31
2021-06-23 17:26:38.656250000,-36.0,6.0,53.0,84.37125,-34.96,21.521087,34.31
2021-06-23 17:26:38.664062500,-36.0,6.0,53.0,84.3703125,-36.760000000000005,21.52144725,34.31
2021-06-23 17:26:38.671875000,-36.0,6.0,53.0,84.369375,-38.56,21.5218075,34.31
2021-06-23 17:26:38.679687500,-36.0,6.0,53.0,84.3684375,-39.74,21.52216775,34.31
2021-06-23 17:26:38.687500000,-36.0,6.0,53.0,84.3675,-40.92,21.522528,34.31
2021-06-23 17:26:38.695312500,-36.0,6.0,53.0,84.3665625,-41.21,21.52288825,34.31
2021-06-23 17:26:38.703125000,-36.0,6.0,53.0,84.365625,-41.5,21.5232485,34.31
2021-06-23 17:26:38.710937500,-36.0,6.0,53.0,84.3646875,-40.685,21.52360875,34.31
2021-06-23 17:26:38.718750000,-36.0,6.0,53.0,84.36375,-39.87,21.523969,34.31
2021-06-23 17:26:38.726562500,-36.0,6.0,53.0,84.3628125,-37.834999999999994,21.52432925,34.31
2021-06-23 17:26:38.734375000,-36.0,6.0,53.0,84.361875,-35.8,21.5246895,34.31
2021-06-23 17:26:38.742187500,-36.0,6.0,53.0,84.3609375,-32.61,21.52504975,34.31
2021-06-23 17:26:38.750000000,-36.0,6.0,53.0,84.36,-29.42,21.52541,34.31
2021-06-23 17:26:38.757812500,-36.0,6.0,53.0,84.3590625,-25.29,21.524569312500002,34.31
2021-06-23 17:26:38.765625000,-36.0,6.0,53.0,84.358125,-21.16,21.523728625,34.31
2021-06-23 17:26:38.773437500,-36.0,6.0,53.0,84.3571875,-16.435000000000002,21.522887937500002,34.31
2021-06-23 17:26:38.781250000,-36.0,6.0,53.0,84.35625,-11.71,21.52204725,34.31
2021-06-23 17:26:38.789062500,-36.0,6.0,53.0,84.3553125,-6.73,21.5212065625,34.31
2021-06-23 17:26:38.796875000,-36.0,6.0,53.0,84.354375,-1.75,21.520365875,34.31
2021-06-23 17:26:38.804687500,-36.0,6.0,53.0,84.3534375,3.165,21.5195251875,34.31
2021-06-23 17:26:38.812500000,-36.0,6.0,53.0,84.35249999999999,8.08,21.5186845,34.31
2021-06-23 17:26:38.820312500,-36.0,6.0,53.0,84.3515625,12.704999999999998,21.5178438125,34.31
2021-06-23 17:26:38.828125000,-36.0,6.0,53.0,84.350625,17.33,21.517003125000002,34.31
2021-06-23 17:26:38.835937500,-36.0,6.0,53.0,84.3496875,21.49,21.5161624375,34.31
2021-06-23 17:26:38.843750000,-36.0,6.0,53.0,84.34875,25.65,21.515321750000002,34.31
2021-06-23 17:26:38.851562500,-36.0,6.0,53.0,84.3478125,29.189999999999998,21.5144810625,34.31
2021-06-23 17:26:38.859375000,-36.0,6.0,53.0,84.346875,32.73,21.513640375,34.31
2021-06-23 17:26:38.867187500,-36.0,6.0,53.0,84.3459375,35.51,21.5127996875,34.31
2021-06-23 17:26:38.875000000,-36.0,6.0,53.0,84.345,38.29,21.511959,34.31
2021-06-23 17:26:38.882812500,-36.0,6.0,53.0,84.34406249999999,40.22,21.511118312500003,34.31
2021-06-23 17:26:38.890625000,-36.0,6.0,53.0,84.343125,42.15,21.510277625,34.31
2021-06-23 17:26:38.898437500,-36.0,6.0,53.0,84.3421875,43.215,21.509436937500002,34.31
2021-06-23 17:26:38.906250000,-36.0,6.0,53.0,84.34125,44.28,21.50859625,34.31
2021-06-23 17:26:38.914062500,-36.0,6.0,53.0,84.3403125,44.57,21.5077555625,34.31
2021-06-23 17:26:38.921875000,-36.0,6.0,53.0,84.339375,44.86,21.506914875,34.31
2021-06-23 17:26:38.929687500,-36.0,6.0,53.0,84.3384375,44.53,21.5060741875,34.31
2021-06-23 17:26:38.937500000,-36.0,6.0,53.0,84.3375,44.2,21.505233500000003,34.31
2021-06-23 17:26:38.945312500,-36.0,6.0,53.0,84.3365625,43.435,21.5043928125,34.31
2021-06-23 17:26:38.953125000,-36.0,6.0,53.0,84.335625,42.67,21.503552125000002,34.31
2021-06-23 17:26:38.960937500,-36.0,6.0,53.0,84.3346875,41.63,21.5027114375,34.31
2021-06-23 17:26:38.968750000,-36.0,6.0,53.0,84.33375,40.59,21.501870750000002,34.31
2021-06-23 17:26:38.976562500,-36.0,6.0,53.0,84.3328125,39.38,21.5010300625,34.31
2021-06-23 17:26:38.984375000,-36.0,6.0,53.0,84.331875,38.17,21.500189375,34.31
2021-06-23 17:26:38.992187500,-36.0,6.0,53.0,84.3309375,36.835,21.4993486875,34.31
2021-06-23 17:26:39.000000000,-36.0,6.0,53.0,84.33,35.5,21.498508,34.31
2021-06-23 17:26:39.007812500,-36.0,6.0,53.0,84.329140625,34.075,21.492898625000002,34.310625
2021-06-23 17:26:39.015625000,-36.0,6.0,53.0,84.32828125,32.65,21.48728925,34.31125
2021-06-23 17:26:39.023437500,-36.0,6.0,53.0,84.327421875,31.16,21.481679875,34.311875
2021-06-23 17:26:39.031250000,-36.0,6.0,53.0,84.3265625,29.67,21.476070500000002,34.3125
2021-06-23 17:26:39.039062500,-36.0,6.0,53.0,84.325703125,28.175,21.470461125,34.313125
2021-06-23 17:26:39.046875000,-36.0,6.0,53.0,84.32484375,26.68,21.46485175,34.31375
2021-06-23 17:26:39.054687500,-36.0,6.0,53.0,84.323984375,25.29,21.459242375000002,34.314375
2021-06-23 17:26:39.062500000,-36.0,6.0,53.0,84.323125,23.9,21.453633,34.315
2021-06-23 17:26:39.070312500,-36.0,6.0,53.0,84.322265625,22.71,21.448023625,34.315625000000004
2021-06-23 17:26:39.078125000,-36.0,6.0,53.0,84.32140625,21.52,21.442414250000002,34.316250000000004
2021-06-23 17:26:39.085937500,-36.0,6.0,53.0,84.320546875,20.585,21.436804875,34.316875
2021-06-23 17:26:39.093750000,-36.0,6.0,53.0,84.3196875,19.65,21.4311955,34.3175
2021-06-23 17:26:39.101562500,-36.0,6.0,53.0,84.318828125,18.935,21.425586125000002,34.318125
2021-06-23 17:26:39.109375000,-36.0,6.0,53.0,84.31796874999999,18.22,21.41997675,34.31875
2021-06-23 17:26:39.117187500,-36.0,6.0,53.0,84.317109375,17.56,21.414367375,34.319375
2021-06-23 17:26:39.125000000,-36.0,6.0,53.0,84.31625,16.9,21.408758,34.32
2021-06-23 17:26:39.132812500,-36.0,6.0,53.0,84.31539062499999,16.07,21.403148625,34.320625
2021-06-23 17:26:39.140625000,-36.0,6.0,53.0,84.31453125,15.24,21.39753925,34.32125
2021-06-23 17:26:39.148437500,-36.0,6.0,53.0,84.313671875,14.02,21.391929875,34.321875
2021-06-23 17:26:39.156250000,-36.0,6.0,53.0,84.31281249999999,12.8,21.3863205,34.3225
2021-06-23 17:26:39.164062500,-36.0,6.0,53.0,84.311953125,11.095,21.380711125,34.323125
2021-06-23 17:26:39.171875000,-36.0,6.0,53.0,84.31109375,9.39,21.37510175,34.32375
2021-06-23 17:26:39.179687500,-36.0,6.0,53.0,84.310234375,7.28,21.369492375,34.324374999999996
2021-06-23 17:26:39.187500000,-36.0,6.0,53.0,84.309375,5.17,21.363883,34.325
2021-06-23 17:26:39.195312500,-36.0,6.0,53.0,84.308515625,2.88,21.358273625,34.325625
2021-06-23 17:26:39.203125000,-36.0,6.0,53.0,84.30765625,0.59,21.35266425,34.32625
2021-06-23 17:26:39.210937500,-36.0,6.0,53.0,84.306796875,-1.6,21.347054875,34.326875
2021-06-23 17:26:39.218750000,-36.0,6.0,53.0,84.3059375,-3.79,21.3414455,34.3275
2021-06-23 17:26:39.226562500,-36.0,6.0,53.0,84.305078125,-5.67,21.335836125,34.328125
2021-06-23 17:26:39.234375000,-36.0,6.0,53.0,84.30421875,-7.55,21.33022675,34.32875
2021-06-23 17:26:39.242187500,-36.0,6.0,53.0,84.303359375,-9.055,21.324617375,34.329375
2021-06-23 17:26:39.250000000,-36.0,6.0,53.0,84.3025,-10.56,21.319008,34.33
2021-06-23 17:26:39.257812500,-36.0,5.75,53.0,84.301640625,-11.745000000000001,21.3175268125,34.33
2021-06-23 17:26:39.265625000,-36.0,5.5,53.0,84.30078125,-12.93,21.316045625,34.33
2021-06-23 17:26:39.273437500,-36.0,5.25,53.0,84.299921875,-13.934999999999999,21.3145644375,34.33
2021-06-23 17:26:39.281250000,-36.0,5.0,53.0,84.2990625,-14.94,21.31308325,34.33
2021-06-23 17:26:39.289062500,-36.0,5.0,52.75,84.298203125,-15.89,21.3116020625,34.33
2021-06-23 17:26:39.296875000,-36.0,5.0,52.5,84.29734375,-16.84,21.310120875,34.33
2021-06-23 17:26:39.304687500,-36.0,5.0,52.25,84.29648437499999,-17.84,21.3086396875,34.33
2021-06-23 17:26:39.312500000,-36.0,5.0,52.0,84.295625,-18.84,21.3071585,34.33
2021-06-23 17:26:39.320312500,-36.0,5.25,52.25,84.294765625,-19.98,21.3056773125,34.33
2021-06-23 17:26:39.328125000,-36.0,5.5,52.5,84.29390624999999,-21.12,21.304196125,34.33
2021-06-23 17:26:39.335937500,-36.0,5.75,52.75,84.293046875,-22.5,21.3027149375,34.33
2021-06-23 17:26:39.343750000,-36.0,6.0,53.0,84.2921875,-23.88,21.30123375,34.33
2021-06-23 17:26:39.351562500,-36.0,6.0,53.0,84.29132812499999,-25.56,21.2997525625,34.33
2021-06-23 17:26:39.359375000,-36.0,6.0,53.0,84.29046875,-27.24,21.298271375,34.33
2021-06-23 17:26:39.367187500,-36.0,6.0,53.0,84.289609375,-29.189999999999998,21.2967901875,34.33
2021-06-23 17:26:39.375000000,-36.0,6.0,53.0,84.28875,-31.14,21.295309,34.33
2021-06-23 17:26:39.382812500,-36.0,6.0,53.0,84.287890625,-33.165,21.2938278125,34.33
2021-06-23 17:26:39.390625000,-36.0,6.0,53.0,84.28703125,-35.19,21.292346625,34.33
2021-06-23 17:26:39.398437500,-36.0,6.0,53.0,84.286171875,-36.915,21.2908654375,34.33
2021-06-23 17:26:39.406250000,-36.0,6.0,53.0,84.2853125,-38.64,21.289384249999998,34.33
2021-06-23 17:26:39.414062500,-36.0,6.0,53.0,84.284453125,-39.605000000000004,21.2879030625,34.33
2021-06-23 17:26:39.421875000,-36.0,6.0,53.0,84.28359375,-40.57,21.286421875,34.33
2021-06-23 17:26:39.429687500,-36.0,6.0,53.0,84.282734375,-40.379999999999995,21.2849406875,34.33
2021-06-23 17:26:39.437500000,-36.0,6.0,53.0,84.281875,-40.19,21.2834595,34.33
2021-06-23 17:26:39.445312500,-36.0,6.0,53.0,84.281015625,-38.66,21.281978312499998,34.33
2021-06-23 17:26:39.453125000,-36.0,6.0,53.0,84.28015625,-37.13,21.280497125,34.33
2021-06-23 17:26:39.460937500,-36.0,6.0,53.0,84.279296875,-34.295,21.2790159375,34.33
2021-06-23 17:26:39.468750000,-36.0,6.0,53.0,84.2784375,-31.46,21.27753475,34.33
2021-06-23 17:26:39.476562500,-36.0,6.0,53.0,84.277578125,-27.575000000000003,21.2760535625,34.33
2021-06-23 17:26:39.484375000,-36.0,6.0,53.0,84.27671875,-23.69,21.274572374999998,34.33
2021-06-23 17:26:39.492187500,-36.0,6.0,53.0,84.275859375,-19.095,21.2730911875,34.33
2021-06-23 17:26:39.500000000,-36.0,6.0,53.0,84.275,-14.5,21.27161,34.33
2021-06-23 17:26:39.507812500,-36.0,6.0,53.0,84.274140625,-9.56,21.27293109375,34.33
2021-06-23 17:26:39.515625000,-36.0,6.0,53.0,84.27328125,-4.62,21.2742521875,34.33
2021-06-23 17:26:39.523437500,-36.0,6.0,53.0,84.27242187499999,0.35499999999999954,21.27557328125,34.33
2021-06-23 17:26:39.531250000,-36.0,6.0,53.0,84.2715625,5.33,21.276894374999998,34.33
2021-06-23 17:26:39.539062500,-36.0,6.0,53.0,84.270703125,10.1,21.27821546875,34.33
2021-06-23 17:26:39.546875000,-36.0,6.0,53.0,84.26984374999999,14.87,21.2795365625,34.33
2021-06-23 17:26:39.554687500,-36.0,6.0,53.0,84.268984375,19.22,21.28085765625,34.33
2021-06-23 17:26:39.562500000,-36.0,6.0,53.0,84.268125,23.57,21.28217875,34.33
2021-06-23 17:26:39.570312500,-36.0,6.0,53.0,84.267265625,27.36,21.28349984375,34.33
2021-06-23 17:26:39.578125000,-36.0,6.0,53.0,84.26640625,31.15,21.284820937499997,34.33
2021-06-23 17:26:39.585937500,-36.0,6.0,53.0,84.265546875,34.28,21.286142031249998,34.33
2021-06-23 17:26:39.593750000,-36.0,6.0,53.0,84.2646875,37.41,21.287463125,34.33
2021-06-23 17:26:39.601562500,-36.0,6.0,53.0,84.263828125,39.81999999999999,21.28878421875,34.33
2021-06-23 17:26:39.609375000,-36.0,6.0,53.0,84.26296875,42.23,21.2901053125,34.33
2021-06-23 17:26:39.617187500,-36.0,6.0,53.0,84.262109375,43.885,21.29142640625,34.33
2021-06-23 17:26:39.625000000,-36.0,6.0,53.0,84.26125,45.54,21.292747499999997,34.33
2021-06-23 17:26:39.632812500,-36.0,6.0,53.0,84.260390625,46.42,21.294068593749998,34.33
2021-06-23 17:26:39.640625000,-36.0,6.0,53.0,84.25953125,47.3,21.2953896875,34.33
2021-06-23 17:26:39.648437500,-36.0,6.0,53.0,84.258671875,47.42,21.29671078125,34.33
2021-06-23 17:26:39.656250000,-36.0,6.0,53.0,84.2578125,47.54,21.298031875,34.33
2021-06-23 17:26:39.664062500,-36.0,6.0,53.0,84.256953125,46.974999999999994,21.29935296875,34.33
2021-06-23 17:26:39.671875000,-36.0,6.0,53.0,84.25609375,46.41,21.3006740625,34.33
2021-06-23 17:26:39.679687500,-36.0,6.0,53.0,84.255234375,45.33,21.301995156249998,34.33
2021-06-23 17:26:39.687500000,-36.0,6.0,53.0,84.254375,44.25,21.303316249999998,34.33
2021-06-23 17:26:39.695312500,-36.0,6.0,53.0,84.253515625,42.915,21.30463734375,34.33
2021-06-23 17:26:39.703125000,-36.0,6.0,53.0,84.25265625,41.58,21.3059584375,34.33
2021-06-23 17:26:39.710937500,-36.0,6.0,53.0,84.251796875,40.230000000000004,21.30727953125,34.33
2021-06-23 17:26:39.718750000,-36.0,6.0,53.0,84.25093749999999,38.88,21.308600625,34.33
2021-06-23 17:26:39.726562500,-36.25,6.0,53.0,84.250078125,37.68,21.309921718749997,34.33
2021-06-23 17:26:39.734375000,-36.5,6.0,53.0,84.24921875,36.48,21.311242812499998,34.33
2021-06-23 17:26:39.742187500,-36.75,6.0,53.0,84.24835937499999,35.474999999999994,21.31256390625,34.33
2021-06-23 17:26:39.750000000,-37.0,6.0,53.0,84.2475,34.47,21.313885,34.33
2021-06-23 17:26:39.757812500,-37.0,6.0,53.0,84.246640625,33.58,21.31296421875,34.33
2021-06-23 17:26:39.765625000,-37.0,6.0,53.0,84.24578125,32.69,21.312043437499998,34.33
2021-06-23 17:26:39.773437500,-37.0,6.0,53.0,84.244921875,31.799999999999997,21.31112265625,34.33
2021-06-23 17:26:39.781250000,-37.0,6.0,53.0,84.2440625,30.91,21.310201875,34.33
2021-06-23 17:26:39.789062500,-36.75,6.0,53.0,84.243203125,29.939999999999998,21.30928109375,34.33
2021-06-23 17:26:39.796875000,-36.5,6.0,53.0,84.24234375,28.97,21.3083603125,34.33
2021-06-23 17:26:39.804687500,-36.25,6.0,53.0,84.241484375,27.89,21.30743953125,34.33
2021-06-23 17:26:39.812500000,-36.0,6.0,53.0,84.240625,26.81,21.30651875,34.33
2021-06-23 17:26:39.820312500,-36.0,6.0,53.0,84.239765625,25.634999999999998,21.30559796875,34.33
2021-06-23 17:26:39.828125000,-36.0,6.0,53.0,84.23890625,24.46,21.3046771875,34.33
2021-06-23 17:26:39.835937500,-36.0,6.0,53.0,84.238046875,23.195,21.30375640625,34.33
2021-06-23 17:26:39.843750000,-36.0,6.0,53.0,84.2371875,21.93,21.302835625,34.33
2021-06-23 17:26:39.851562500,-36.0,6.0,53.0,84.236328125,20.545,21.30191484375,34.33
2021-06-23 17:26:39.859375000,-36.0,6.0,53.0,84.23546875,19.16,21.3009940625,34.33
2021-06-23 17:26:39.867187500,-36.0,6.0,53.0,84.234609375,17.64,21.30007328125,34.33
2021-06-23 17:26:39.875000000,-36.0,6.0,53.0,84.23375,16.12,21.299152499999998,34.33
2021-06-23 17:26:39.882812500,-36.25,6.0,53.0,84.232890625,14.465,21.29823171875,34.33
2021-06-23 17:26:39.890625000,-36.5,6.0,53.0,84.23203125,12.81,21.2973109375,34.33
2021-06-23 17:26:39.898437500,-36.75,6.0,53.0,84.231171875,11.08,21.29639015625,34.33
2021-06-23 17:26:39.906250000,-37.0,6.0,53.0,84.2303125,9.35,21.295469375,34.33
2021-06-23 17:26:39.914062500,-36.75,6.0,53.0,84.22945312499999,7.6,21.29454859375,34.33
2021-06-23 17:26:39.921875000,-36.5,6.0,53.0,84.22859375,5.85,21.2936278125,34.33
2021-06-23 17:26:39.929687500,-36.25,6.0,53.0,84.227734375,4.1049999999999995,21.29270703125,34.33
2021-06-23 17:26:39.937500000,-36.0,6.0,53.0,84.22687499999999,2.36,21.29178625,34.33
2021-06-23 17:26:39.945312500,-36.0,6.0,53.0,84.226015625,0.5249999999999999,21.29086546875,34.33
2021-06-23 17:26:39.953125000,-36.0,6.0,53.0,84.22515625,-1.31,21.2899446875,34.33
2021-06-23 17:26:39.960937500,-36.0,6.0,53.0,84.224296875,-3.3850000000000002,21.28902390625,34.33
2021-06-23 17:26:39.968750000,-36.0,6.0,53.0,84.2234375,-5.46,21.288103125,34.33
2021-06-23 17:26:39.976562500,-36.0,6.0,53.0,84.222578125,-7.925000000000001,21.28718234375,34.33
2021-06-23 17:26:39.984375000,-36.0,6.0,53.0,84.22171875,-10.39,21.286261562500002,34.33
2021-06-23 17:26:39.992187500,-36.0,6.0,53.0,84.220859375,-13.280000000000001,21.28534078125,34.33
2021-06-23 17:26:40.000000000,-36.0,6.0,53.0,84.22,-16.17,21.28442,34.33
2021-06-23 17:26:40.007812500,-36.25,6.0,53.0,84.21890625,-19.35,21.285460812500002,34.3303125
2021-06-23 17:26:40.015625000,-36.5,6.0,53.0,84.2178125,-22.53,21.286501625,34.330625
2021-06-23 17:26:40.023437500,-36.75,6.0,53.0,84.21671875,-25.72,21.2875424375,34.3309375
2021-06-23 17:26:40.031250000,-37.0,6.0,53.0,84.215625,-28.91,21.288583250000002,34.33125
2021-06-23 17:26:40.039062500,-36.75,6.0,53.0,84.21453125,-31.784999999999997,21.2896240625,34.3315625
2021-06-23 17:26:40.046875000,-36.5,6.0,53.0,84.2134375,-34.66,21.290664875,34.331875
2021-06-23 17:26:40.054687500,-36.25,6.0,53.0,84.21234375,-36.985,21.291705687500002,34.332187499999996
2021-06-23 17:26:40.062500000,-36.0,6.0,53.0,84.21124999999999,-39.31,21.2927465,34.332499999999996
2021-06-23 17:26:40.070312500,-36.0,6.0,53.0,84.21015625,-41.015,21.2937873125,34.3328125
2021-06-23 17:26:40.078125000,-36.0,6.0,53.0,84.2090625,-42.72,21.294828125000002,34.333125
2021-06-23 17:26:40.085937500,-36.0,6.0,53.0,84.20796874999999,-43.985,21.2958689375,34.3334375
2021-06-23 17:26:40.093750000,-36.0,6.0,53.0,84.206875,-45.25,21.29690975,34.33375
2021-06-23 17:26:40.101562500,-36.0,6.0,53.0,84.20578125,-46.4,21.297950562500002,34.3340625
2021-06-23 17:26:40.109375000,-36.0,6.0,53.0,84.2046875,-47.55,21.298991375,34.334375
2021-06-23 17:26:40.117187500,-36.0,6.0,53.0,84.20359375,-48.87,21.3000321875,34.3346875
2021-06-23 17:26:40.125000000,-36.0,6.0,53.0,84.2025,-50.19,21.301073000000002,34.335
2021-06-23 17:26:40.132812500,-36.0,6.0,53.0,84.20140625,-51.805,21.3021138125,34.3353125
2021-06-23 17:26:40.140625000,-36.0,6.0,53.0,84.2003125,-53.42,21.303154625,34.335625
2021-06-23 17:26:40.148437500,-36.0,6.0,53.0,84.19921875,-55.155,21.3041954375,34.3359375
2021-06-23 17:26:40.156250000,-36.0,6.0,53.0,84.198125,-56.89,21.30523625,34.33625
2021-06-23 17:26:40.164062500,-36.0,6.0,53.0,84.19703125,-58.29,21.3062770625,34.3365625
2021-06-23 17:26:40.171875000,-36.0,6.0,53.0,84.1959375,-59.69,21.307317875,34.336875
2021-06-23 17:26:40.179687500,-36.0,6.0,53.0,84.19484375,-60.205,21.3083586875,34.3371875
2021-06-23 17:26:40.187500000,-36.0,6.0,53.0,84.19375,-60.72,21.3093995,34.337500000000006
2021-06-23 17:26:40.195312500,-36.0,6.0,53.0,84.19265625,-59.9,21.3104403125,34.337812500000005
2021-06-23 17:26:40.203125000,-36.0,6.0,53.0,84.1915625,-59.08,21.311481125,34.338125000000005
2021-06-23 17:26:40.210937500,-36.0,6.0,53.0,84.19046875,-56.75,21.3125219375,34.338437500000005
2021-06-23 17:26:40.218750000,-36.0,6.0,53.0,84.189375,-54.42,21.31356275,34.338750000000005
2021-06-23 17:26:40.226562500,-36.0,6.0,53.0,84.18828125,-50.755,21.3146035625,34.339062500000004
2021-06-23 17:26:40.234375000,-36.0,6.0,53.0,84.1871875,-47.09,21.315644375,34.339375000000004
2021-06-23 17:26:40.242187500,-36.0,6.0,53.0,84.18609375,-42.485,21.3166851875,34.339687500000004
2021-06-23 17:26:40.250000000,-36.0,6.0,53.0,84.185,-37.88,21.317726,34.34
2021-06-23 17:26:40.257812500,-36.0,6.0,53.0,84.18390624999999,-32.77,21.31672525,34.34
2021-06-23 17:26:40.265625000,-36.0,6.0,53.0,84.1828125,-27.66,21.3157245,34.34
2021-06-23 17:26:40.273437500,-36.0,6.0,53.0,84.18171875,-22.369999999999997,21.31472375,34.34
2021-06-23 17:26:40.281250000,-36.0,6.0,53.0,84.18062499999999,-17.08,21.313723,34.34
2021-06-23 17:26:40.289062500,-36.0,6.0,53.0,84.17953125,-11.794999999999998,21.31272225,34.34
2021-06-23 17:26:40.296875000,-36.0,6.0,53.0,84.1784375,-6.51,21.3117215,34.34
2021-06-23 17:26:40.304687500,-36.0,6.0,53.0,84.17734375,-1.3650000000000002,21.31072075,34.34
2021-06-23 17:26:40.312500000,-36.0,6.0,53.0,84.17625,3.78,21.30972,34.34
2021-06-23 17:26:40.320312500,-36.0,6.0,53.0,84.17515625,8.585,21.30871925,34.34
2021-06-23 17:26:40.328125000,-36.0,6.0,53.0,84.1740625,13.39,21.3077185,34.34
2021-06-23 17:26:40.335937500,-36.0,6.0,53.0,84.17296875,17.53,21.30671775,34.34
2021-06-23 17:26:40.343750000,-36.0,6.0,53.0,84.171875,21.67,21.305717,34.34
2021-06-23 17:26:40.351562500,-36.0,6.0,53.0,84.17078125,24.78,21.304716250000002,34.34
2021-06-23 17:26:40.359375000,-36.0,6.0,53.0,84.1696875,27.89,21.3037155,34.34
2021-06-23 17:26:40.367187500,-36.0,6.0,53.0,84.16859375,29.740000000000002,21.30271475,34.34
2021-06-23 17:26:40.375000000,-36.0,6.0,53.0,84.1675,31.59,21.301714,34.34
2021-06-23 17:26:40.382812500,-36.0,6.0,53.0,84.16640625,32.225,21.30071325,34.34
2021-06-23 17:26:40.390625000,-36.0,6.0,53.0,84.1653125,32.86,21.299712500000002,34.34
2021-06-23 17:26:40.398437500,-36.0,6.0,53.0,84.16421875,32.61,21.29871175,34.34
2021-06-23 17:26:40.406250000,-36.0,6.0,53.0,84.163125,32.36,21.297711,34.34
2021-06-23 17:26:40.414062500,-36.0,6.0,53.0,84.16203125,31.715,21.29671025,34.34
2021-06-23 17:26:40.421875000,-36.0,6.0,53.0,84.1609375,31.07,21.2957095,34.34
2021-06-23 17:26:40.429687500,-36.0,6.0,53.0,84.15984375,30.495,21.29470875,34.34
2021-06-23 17:26:40.437500000,-36.0,6.0,53.0,84.15875,29.92,21.293708000000002,34.34
2021-06-23 17:26:40.445312500,-36.0,6.0,53.0,84.15765625,29.655,21.29270725,34.34
2021-06-23 17:26:40.453125000,-36.0,6.0,53.0,84.15656249999999,29.39,21.2917065,34.34
2021-06-23 17:26:40.460937500,-36.0,6.0,53.0,84.15546875,29.42,21.29070575,34.34
2021-06-23 17:26:40.468750000,-36.0,6.0,53.0,84.154375,29.45,21.289705,34.34
2021-06-23 17:26:40.476562500,-36.0,6.0,53.0,84.15328124999999,29.575,21.288704250000002,34.34
2021-06-23 17:26:40.484375000,-36.0,6.0,53.0,84.1521875,29.7,21.2877035,34.34
2021-06-23 17:26:40.492187500,-36.0,6.0,53.0,84.15109375,29.685000000000002,21.28670275,34.34
2021-06-23 17:26:40.500000000,-36.0,6.0,53.0,84.15,29.67,21.285702,34.34
2021-06-23 17:26:40.507812500,-36.0,6.0,53.0,84.14890625,29.395000000000003,21.28654265625,34.34
2021-06-23 17:26:40.515625000,-36.0,6.0,53.0,84.1478125,29.12,21.2873833125,34.34
2021-06-23 17:26:40.523437500,-36.0,6.0,53.0,84.14671875,28.615000000000002,21.28822396875,34.34
2021-06-23 17:26:40.531250000,-36.0,6.0,53.0,84.145625,28.11,21.289064625,34.34
2021-06-23 17:26:40.539062500,-36.0,6.0,53.0,84.14453125,27.505,21.28990528125,34.34
2021-06-23 17:26:40.546875000,-36.0,6.0,53.0,84.1434375,26.9,21.2907459375,34.34
2021-06-23 17:26:40.554687500,-36.0,6.0,53.0,84.14234375,26.314999999999998,21.29158659375,34.34
2021-06-23 17:26:40.562500000,-36.0,6.0,53.0,84.14125,25.73,21.29242725,34.34
2021-06-23 17:26:40.570312500,-36.0,6.0,53.0,84.14015625,25.21,21.29326790625,34.34
2021-06-23 17:26:40.578125000,-36.0,6.0,53.0,84.1390625,24.69,21.2941085625,34.34
2021-06-23 17:26:40.585937500,-36.0,6.0,53.0,84.13796875,24.14,21.29494921875,34.34
2021-06-23 17:26:40.593750000,-36.0,6.0,53.0,84.136875,23.59,21.295789875,34.34
2021-06-23 17:26:40.601562500,-36.0,6.0,53.0,84.13578125,22.8,21.29663053125,34.34
2021-06-23 17:26:40.609375000,-36.0,6.0,53.0,84.1346875,22.01,21.2974711875,34.34
2021-06-23 17:26:40.617187500,-36.0,6.0,53.0,84.13359375,20.765,21.29831184375,34.34
2021-06-23 17:26:40.625000000,-36.0,6.0,53.0,84.1325,19.52,21.299152499999998,34.34
2021-06-23 17:26:40.632812500,-36.0,6.0,53.0,84.13140625,17.689999999999998,21.29999315625,34.34
2021-06-23 17:26:40.640625000,-36.0,6.0,53.0,84.1303125,15.86,21.3008338125,34.34
2021-06-23 17:26:40.648437500,-36.0,6.0,53.0,84.12921874999999,13.465,21.30167446875,34.34
2021-06-23 17:26:40.656250000,-36.0,6.0,53.0,84.128125,11.07,21.302515125,34.34
2021-06-23 17:26:40.664062500,-36.0,6.0,53.0,84.12703125,8.355,21.30335578125,34.34
2021-06-23 17:26:40.671875000,-36.0,6.0,53.0,84.12593749999999,5.64,21.3041964375,34.34
2021-06-23 17:26:40.679687500,-36.0,6.0,53.0,84.12484375,2.965,21.30503709375,34.34
2021-06-23 17:26:40.687500000,-36.0,6.0,53.0,84.12375,0.29,21.30587775,34.34
2021-06-23 17:26:40.695312500,-36.0,6.0,53.0,84.12265624999999,-1.94,21.30671840625,34.34
2021-06-23 17:26:40.703125000,-36.0,6.0,53.0,84.1215625,-4.17,21.3075590625,34.34
2021-06-23 17:26:40.710937500,-36.0,6.0,53.0,84.12046875,-5.695,21.30839971875,34.34
2021-06-23 17:26:40.718750000,-36.0,6.0,53.0,84.119375,-7.22,21.309240374999998,34.34
2021-06-23 17:26:40.726562500,-36.0,6.0,53.0,84.11828125,-8.035,21.31008103125,34.34
2021-06-23 17:26:40.734375000,-36.0,6.0,53.0,84.1171875,-8.85,21.3109216875,34.34
2021-06-23 17:26:40.742187500,-36.0,6.0,53.0,84.11609375,-9.195,21.31176234375,34.34
2021-06-23 17:26:40.750000000,-36.0,6.0,53.0,84.115,-9.54,21.312603,34.34
2021-06-23 17:26:40.757812500,-36.0,6.0,53.0,84.11390625,-9.825,21.313443656249998,34.34
2021-06-23 17:26:40.765625000,-36.0,6.0,53.0,84.1128125,-10.11,21.3142843125,34.34
2021-06-23 17:26:40.773437500,-36.0,6.0,53.0,84.11171875,-10.715,21.31512496875,34.34
2021-06-23 17:26:40.781250000,-36.0,6.0,53.0,84.110625,-11.32,21.315965625,34.34
2021-06-23 17:26:40.789062500,-36.0,6.0,53.0,84.10953125,-12.504999999999999,21.31680628125,34.34
2021-06-23 17:26:40.796875000,-36.0,6.0,53.0,84.1084375,-13.69,21.3176469375,34.34
2021-06-23 17:26:40.804687500,-36.0,6.0,53.0,84.10734375,-15.489999999999998,21.31848759375,34.34
2021-06-23 17:26:40.812500000,-36.0,6.0,53.0,84.10625,-17.29,21.319328249999998,34.34
2021-06-23 17:26:40.820312500,-36.0,6.0,53.0,84.10515625,-19.59,21.32016890625,34.34
2021-06-23 17:26:40.828125000,-36.0,6.0,53.0,84.1040625,-21.89,21.3210095625,34.34
2021-06-23 17:26:40.835937500,-36.0,6.0,53.0,84.10296875,-24.445,21.32185021875,34.34
2021-06-23 17:26:40.843750000,-36.0,6.0,53.0,84.10187499999999,-27.0,21.322690875,34.34
2021-06-23 17:26:40.851562500,-36.0,6.0,53.0,84.10078125,-29.575,21.32353153125,34.34
2021-06-23 17:26:40.859375000,-36.0,6.0,53.0,84.0996875,-32.15,21.3243721875,34.34
2021-06-23 17:26:40.867187500,-36.0,6.0,53.0,84.09859374999999,-34.5,21.325212843750002,34.34
2021-06-23 17:26:40.875000000,-36.0,6.0,53.0,84.0975,-36.85,21.3260535,34.34
2021-06-23 17:26:40.882812500,-36.0,6.0,53.0,84.09640625,-38.745000000000005,21.32689415625,34.34
2021-06-23 17:26:40.890625000,-36.0,6.0,53.0,84.09531249999999,-40.64,21.3277348125,34.34
2021-06-23 17:26:40.898437500,-36.0,6.0,53.0,84.09421875,-41.870000000000005,21.32857546875,34.34
2021-06-23 17:26:40.906250000,-36.0,6.0,53.0,84.093125,-43.1,21.329416125,34.34
2021-06-23 17:26:40.914062500,-36.0,6.0,53.0,84.09203125,-43.480000000000004,21.33025678125,34.34
2021-06-23 17:26:40.921875000,-36.0,6.0,53.0,84.0909375,-43.86,21.331097437500002,34.34
2021-06-23 17:26:40.929687500,-36.0,6.0,53.0,84.08984375,-43.265,21.33193809375,34.34
2021-06-23 17:26:40.937500000,-36.0,6.0,53.0,84.08875,-42.67,21.332778750000003,34.34
2021-06-23 17:26:40.945312500,-36.0,6.0,53.0,84.08765625,-41.045,21.33361940625,34.34
2021-06-23 17:26:40.953125000,-36.0,6.0,53.0,84.0865625,-39.42,21.3344600625,34.34
2021-06-23 17:26:40.960937500,-36.0,6.0,53.0,84.08546875,-36.82,21.335300718750002,34.34
2021-06-23 17:26:40.968750000,-36.0,6.0,53.0,84.084375,-34.22,21.336141375,34.34
2021-06-23 17:26:40.976562500,-36.0,6.0,53.0,84.08328125,-30.78,21.336982031250002,34.34
2021-06-23 17:26:40.984375000,-36.0,6.0,53.0,84.0821875,-27.34,21.3378226875,34.34
2021-06-23 17:26:40.992187500,-36.0,6.0,53.0,84.08109375,-23.259999999999998,21.338663343750003,34.34
2021-06-23 17:26:41.000000000,-36.0,6.0,53.0,84.08,-19.18,21.339504,34.34
2021-06-23 17:26:41.007812500,-36.0,6.0,53.0,84.078828125,-14.715,21.339383906250003,34.339687500000004
2021-06-23 17:26:41.015625000,-36.0,6.0,53.0,84.07765625,-10.25,21.3392638125,34.339375000000004
2021-06-23 17:26:41.023437500,-36.0,6.0,53.0,84.07648437499999,-5.67,21.33914371875,34.339062500000004
2021-06-23 17:26:41.031250000,-36.0,6.0,53.0,84.0753125,-1.09,21.339023625000003,34.338750000000005
2021-06-23 17:26:41.039062500,-36.0,6.0,53.0,84.074140625,3.3450000000000006,21.33890353125,34.338437500000005
2021-06-23 17:26:41.046875000,-36.0,6.0,53.0,84.07296875,7.78,21.338783437500002,34.338125000000005
2021-06-23 17:26:41.054687500,-36.0,6.0,53.0,84.071796875,11.875,21.338663343750003,34.337812500000005
2021-06-23 17:26:41.062500000,-36.0,6.0,53.0,84.07062499999999,15.97,21.33854325,34.337500000000006
2021-06-23 17:26:41.070312500,-36.0,6.0,53.0,84.069453125,19.565,21.338423156250002,34.3371875
2021-06-23 17:26:41.078125000,-36.0,6.0,53.0,84.06828125,23.16,21.338303062500003,34.336875
2021-06-23 17:26:41.085937500,-36.0,6.0,53.0,84.067109375,26.18,21.33818296875,34.3365625
2021-06-23 17:26:41.093750000,-36.0,6.0,53.0,84.0659375,29.2,21.338062875000002,34.33625
2021-06-23 17:26:41.101562500,-36.0,6.0,53.0,84.06476562499999,31.575000000000003,21.337942781250003,34.3359375
2021-06-23 17:26:41.109375000,-36.0,6.0,53.0,84.06359375,33.95,21.3378226875,34.335625
2021-06-23 17:26:41.117187500,-36.0,6.0,53.0,84.062421875,35.645,21.337702593750002,34.3353125
2021-06-23 17:26:41.125000000,-36.0,6.0,53.0,84.06125,37.34,21.337582500000003,34.335
2021-06-23 17:26:41.132812500,-36.0,6.0,53.0,84.060078125,38.295,21.33746240625,34.3346875
2021-06-23 17:26:41.140625000,-36.0,6.0,53.0,84.05890624999999,39.25,21.337342312500002,34.334375
2021-06-23 17:26:41.148437500,-36.0,6.0,53.0,84.057734375,39.455,21.33722221875,34.3340625
2021-06-23 17:26:41.156250000,-36.0,6.0,53.0,84.0565625,39.66,21.337102125,34.33375
2021-06-23 17:26:41.164062500,-36.0,6.0,53.0,84.055390625,39.16,21.336982031250002,34.3334375
2021-06-23 17:26:41.171875000,-36.0,6.0,53.0,84.05421875,38.66,21.3368619375,34.333125
2021-06-23 17:26:41.179687500,-36.0,6.0,53.0,84.053046875,37.55,21.33674184375,34.3328125
2021-06-23 17:26:41.187500000,-36.0,6.0,53.0,84.051875,36.44,21.336621750000003,34.332499999999996
2021-06-23 17:26:41.195312500,-36.0,6.0,53.0,84.050703125,34.905,21.33650165625,34.332187499999996
2021-06-23 17:26:41.203125000,-36.0,6.0,53.0,84.04953125,33.37,21.3363815625,34.331875
2021-06-23 17:26:41.210937500,-36.0,6.0,53.0,84.048359375,31.604999999999997,21.336261468750003,34.3315625
2021-06-23 17:26:41.218750000,-36.0,6.0,53.0,84.0471875,29.84,21.336141375,34.33125
2021-06-23 17:26:41.226562500,-36.0,6.0,53.0,84.046015625,28.02,21.33602128125,34.3309375
2021-06-23 17:26:41.234375000,-36.0,6.0,53.0,84.04484375,26.2,21.335901187500003,34.330625
2021-06-23 17:26:41.242187500,-36.0,6.0,53.0,84.043671875,24.45,21.33578109375,34.3303125
2021-06-23 17:26:41.250000000,-36.0,6.0,53.0,84.0425,22.7,21.335661,34.33
2021-06-23 17:26:41.257812500,-36.0,6.0,53.0,84.041328125,21.064999999999998,21.334580125000002,34.33
2021-06-23 17:26:41.265625000,-36.0,6.0,53.0,84.04015625,19.43,21.333499250000003,34.33
2021-06-23 17:26:41.273437500,-36.0,6.0,53.0,84.038984375,17.895,21.332418375000003,34.33
2021-06-23 17:26:41.281250000,-36.0,6.0,53.0,84.0378125,16.36,21.3313375,34.33
2021-06-23 17:26:41.289062500,-36.0,6.0,53.0,84.036640625,14.879999999999999,21.330256625,34.33
2021-06-23 17:26:41.296875000,-36.0,6.0,53.0,84.03546875,13.4,21.32917575,34.33
2021-06-23 17:26:41.304687500,-36.0,6.0,53.0,84.034296875,11.9,21.328094875,34.33
2021-06-23 17:26:41.312500000,-36.0,6.0,53.0,84.033125,10.4,21.327014000000002,34.33
2021-06-23 17:26:41.320312500,-36.0,6.0,53.0,84.031953125,8.82,21.325933125000002,34.33
2021-06-23 17:26:41.328125000,-36.0,6.0,53.0,84.03078125,7.24,21.32485225,34.33
2021-06-23 17:26:41.335937500,-36.0,6.0,53.0,84.029609375,5.565,21.323771375,34.33
2021-06-23 17:26:41.343750000,-36.0,6.0,53.0,84.0284375,3.89,21.3226905,34.33
2021-06-23 17:26:41.351562500,-36.0,6.0,53.0,84.027265625,2.125,21.321609625,34.33
2021-06-23 17:26:41.359375000,-36.0,6.0,53.0,84.02609375,0.36,21.32052875,34.33
2021-06-23 17:26:41.367187500,-36.0,6.0,53.0,84.024921875,-1.415,21.319447875,34.33
2021-06-23 17:26:41.375000000,-36.0,6.0,53.0,84.02375,-3.19,21.318367000000002,34.33
2021-06-23 17:26:41.382812500,-36.0,6.0,53.0,84.022578125,-4.895,21.317286125,34.33
2021-06-23 17:26:41.390625000,-36.0,6.0,53.0,84.02140625,-6.6,21.31620525,34.33
2021-06-23 17:26:41.398437500,-36.0,6.0,53.0,84.020234375,-8.16,21.315124375,34.33
2021-06-23 17:26:41.406250000,-36.0,6.0,53.0,84.0190625,-9.72,21.3140435,34.33
2021-06-23 17:26:41.414062500,-36.0,6.0,53.0,84.017890625,-11.09,21.312962625,34.33
2021-06-23 17:26:41.421875000,-36.0,6.0,53.0,84.01671875,-12.46,21.31188175,34.33
2021-06-23 17:26:41.429687500,-36.0,6.0,53.0,84.015546875,-13.675,21.310800874999998,34.33
2021-06-23 17:26:41.437500000,-36.0,6.0,53.0,84.014375,-14.89,21.30972,34.33
2021-06-23 17:26:41.445312500,-36.0,6.0,53.0,84.013203125,-16.005000000000003,21.308639125,34.33
2021-06-23 17:26:41.453125000,-36.0,6.0,53.0,84.01203125,-17.12,21.30755825,34.33
2021-06-23 17:26:41.460937500,-36.0,6.0,53.0,84.010859375,-18.225,21.306477375,34.33
2021-06-23 17:26:41.468750000,-36.0,6.0,53.0,84.0096875,-19.33,21.3053965,34.33
2021-06-23 17:26:41.476562500,-36.0,6.0,53.0,84.008515625,-20.494999999999997,21.304315624999997,34.33
2021-06-23 17:26:41.484375000,-36.0,6.0,53.0,84.00734375,-21.66,21.303234749999998,34.33
2021-06-23 17:26:41.492187500,-36.0,6.0,53.0,84.006171875,-22.935000000000002,21.302153875,34.33
2021-06-23 17:26:41.500000000,-36.0,6.0,53.0,84.005,-24.21,21.301073,34.33
2021-06-23 17:26:41.507812500,-36.0,6.0,53.0,84.003828125,-25.61,21.302153875,34.33
2021-06-23 17:26:41.515625000,-36.0,6.0,53.0,84.00265625,-27.01,21.303234749999998,34.33
2021-06-23 17:26:41.523437500,-36.0,6.0,53.0,84.001484375,-28.53,21.304315624999997,34.33
2021-06-23 17:26:41.531250000,-36.0,6.0,53.0,84.0003125,-30.05,21.3053965,34.33
2021-06-23 17:26:41.539062500,-36.0,6.0,53.0,83.99914062500001,-31.685000000000002,21.306477375,34.33
2021-06-23 17:26:41.546875000,-36.0,6.0,53.0,83.99796875,-33.32,21.30755825,34.33
2021-06-23 17:26:41.554687500,-36.0,6.0,53.0,83.996796875,-35.055,21.308639125,34.33
2021-06-23 17:26:41.562500000,-36.0,6.0,53.0,83.995625,-36.79,21.30972,34.33
2021-06-23 17:26:41.570312500,-36.0,6.0,53.0,83.994453125,-38.625,21.310800874999998,34.33
2021-06-23 17:26:41.578125000,-36.0,6.0,53.0,83.99328125000001,-40.46,21.31188175,34.33
2021-06-23 17:26:41.585937500,-36.0,6.0,53.0,83.992109375,-42.33,21.312962625,34.33
2021-06-23 17:26:41.593750000,-36.0,6.0,53.0,83.9909375,-44.2,21.3140435,34.33
2021-06-23 17:26:41.601562500,-36.0,6.0,53.0,83.989765625,-45.99,21.315124375,34.33
2021-06-23 17:26:41.609375000,-36.0,6.0,53.0,83.98859375,-47.78,21.31620525,34.33
2021-06-23 17:26:41.617187500,-36.0,6.0,53.0,83.98742187500001,-49.265,21.317286125,34.33
2021-06-23 17:26:41.625000000,-36.0,6.0,53.0,83.98625,-50.75,21.318367000000002,34.33
2021-06-23 17:26:41.632812500,-36.0,6.0,53.0,83.985078125,-51.655,21.319447875,34.33
2021-06-23 17:26:41.640625000,-36.0,6.0,53.0,83.98390625,-52.56,21.32052875,34.33
2021-06-23 17:26:41.648437500,-36.0,6.0,53.0,83.982734375,-52.615,21.321609625,34.33
2021-06-23 17:26:41.656250000,-36.0,6.0,53.0,83.98156250000001,-52.67,21.3226905,34.33
2021-06-23 17:26:41.664062500,-36.0,6.0,53.0,83.980390625,-51.66,21.323771375,34.33
2021-06-23 17:26:41.671875000,-36.0,6.0,53.0,83.97921875,-50.65,21.32485225,34.33
2021-06-23 17:26:41.679687500,-36.0,6.0,53.0,83.978046875,-48.545,21.325933125000002,34.33
2021-06-23 17:26:41.687500000,-36.0,6.0,53.0,83.976875,-46.44,21.327014000000002,34.33
2021-06-23 17:26:41.695312500,-36.0,6.0,53.0,83.97570312500001,-43.315,21.328094875,34.33
2021-06-23 17:26:41.703125000,-36.0,6.0,53.0,83.97453125,-40.19,21.32917575,34.33
2021-06-23 17:26:41.710937500,-36.0,6.0,53.0,83.973359375,-36.265,21.330256625,34.33
2021-06-23 17:26:41.718750000,-36.0,6.0,53.0,83.9721875,-32.34,21.3313375,34.33
2021-06-23 17:26:41.726562500,-36.0,6.0,53.0,83.971015625,-27.875,21.332418375000003,34.33
2021-06-23 17:26:41.734375000,-36.0,6.0,53.0,83.96984375000001,-23.41,21.333499250000003,34.33
2021-06-23 17:26:41.742187500,-36.0,6.0,53.0,83.968671875,-18.665,21.334580125000002,34.33
2021-06-23 17:26:41.750000000,-36.0,6.0,53.0,83.9675,-13.92,21.335661,34.33
