TimeStamp,empatica.acc.x,empatica.acc.y,empatica.acc.z,empatica.hr,empatica.bvp,empatica.eda,empatica.temp
2021-06-23 11:20:05.554687500,-43.0,13.0,47.0,70.53664062499999,-116.525,1.22104278125,33.79
2021-06-23 11:20:05.562500000,-43.0,13.0,47.0,70.536875,-121.4,1.22100275,33.79
2021-06-23 11:20:05.570312500,-43.0,12.75,47.0,70.537109375,-127.275,1.22096271875,33.79
2021-06-23 11:20:05.578125000,-43.0,12.5,47.0,70.53734374999999,-133.15,1.2209226874999999,33.79
2021-06-23 11:20:05.585937500,-43.0,12.25,47.0,70.537578125,-139.36,1.22088265625,33.79
2021-06-23 11:20:05.593750000,-43.0,12.0,47.0,70.5378125,-145.57,1.220842625,33.79
2021-06-23 11:20:05.601562500,-43.0,12.0,47.0,70.53804687499999,-150.99,1.22080259375,33.79
2021-06-23 11:20:05.609375000,-43.0,12.0,47.0,70.53828125,-156.41,1.2207625625,33.79
2021-06-23 11:20:05.617187500,-43.0,12.0,47.0,70.538515625,-159.67000000000002,1.22072253125,33.79
2021-06-23 11:20:05.625000000,-43.0,12.0,47.0,70.53875,-162.93,1.2206825000000001,33.79
2021-06-23 11:20:05.632812500,-43.0,12.25,47.0,70.538984375,-162.79000000000002,1.22064246875,33.79
2021-06-23 11:20:05.640625000,-43.0,12.5,47.0,70.53921875,-162.65,1.2206024375,33.79
2021-06-23 11:20:05.648437500,-43.0,12.75,47.0,70.539453125,-158.37,1.22056240625,33.79
2021-06-23 11:20:05.656250000,-43.0,13.0,47.0,70.5396875,-154.09,1.220522375,33.79
2021-06-23 11:20:05.664062500,-43.0,12.75,47.0,70.53992187499999,-145.735,1.22048234375,33.79
2021-06-23 11:20:05.671875000,-43.0,12.5,47.0,70.54015625,-137.38,1.2204423125000001,33.79
2021-06-23 11:20:05.679687500,-43.0,12.25,47.0,70.540390625,-125.82,1.22040228125,33.79
2021-06-23 11:20:05.687500000,-43.0,12.0,47.0,70.54062499999999,-114.26,1.22036225,33.79
2021-06-23 11:20:05.695312500,-43.0,12.25,47.0,70.540859375,-100.91499999999999,1.22032221875,33.79
2021-06-23 11:20:05.703125000,-43.0,12.5,47.0,70.54109375,-87.57,1.2202821875,33.79
2021-06-23 11:20:05.710937500,-43.0,12.75,47.0,70.54132812499999,-74.0,1.22024215625,33.79
2021-06-23 11:20:05.718750000,-43.0,13.0,47.0,70.5415625,-60.43,1.2202021250000001,33.79
2021-06-23 11:20:05.726562500,-43.0,13.0,47.0,70.541796875,-47.9,1.22016209375,33.79
2021-06-23 11:20:05.734375000,-43.0,13.0,47.0,70.54203125,-35.37,1.2201220625,33.79
2021-06-23 11:20:05.742187500,-43.0,13.0,47.0,70.542265625,-24.64,1.22008203125,33.79
2021-06-23 11:20:05.750000000,-43.0,13.0,47.0,70.54249999999999,-13.91,1.220042,33.79
2021-06-23 11:20:05.757812500,-43.0,13.0,47.0,70.542734375,-5.215,1.2201220625,33.79
2021-06-23 11:20:05.765625000,-43.0,13.0,47.0,70.54296875,3.48,1.2202021250000001,33.79
2021-06-23 11:20:05.773437500,-43.0,13.0,47.0,70.54320312499999,10.200000000000001,1.2202821875,33.79
2021-06-23 11:20:05.781250000,-43.0,13.0,47.0,70.5434375,16.92,1.22036225,33.79
2021-06-23 11:20:05.789062500,-43.0,12.75,47.0,70.543671875,21.875,1.2204423125000001,33.79
2021-06-23 11:20:05.796875000,-43.0,12.5,47.0,70.54390624999999,26.83,1.220522375,33.79
2021-06-23 11:20:05.804687500,-43.0,12.25,47.0,70.544140625,30.154999999999998,1.2206024375,33.79
2021-06-23 11:20:05.812500000,-43.0,12.0,47.0,70.544375,33.48,1.2206825000000001,33.79
2021-06-23 11:20:05.820312500,-43.0,12.0,47.0,70.544609375,35.325,1.2207625625,33.79
2021-06-23 11:20:05.828125000,-43.0,12.0,47.0,70.54484375,37.17,1.220842625,33.79
2021-06-23 11:20:05.835937500,-43.0,12.0,47.0,70.545078125,37.730000000000004,1.2209226875,33.79
2021-06-23 11:20:05.843750000,-43.0,12.0,47.0,70.5453125,38.29,1.22100275,33.79
2021-06-23 11:20:05.851562500,-43.0,12.25,47.0,70.545546875,37.91,1.2210828125,33.79
2021-06-23 11:20:05.859375000,-43.0,12.5,47.0,70.54578124999999,37.53,1.221162875,33.79
2021-06-23 11:20:05.867187500,-43.0,12.75,47.0,70.546015625,36.715,1.2212429375,33.79
2021-06-23 11:20:05.875000000,-43.0,13.0,47.0,70.54625,35.9,1.221323,33.79
2021-06-23 11:20:05.882812500,-43.0,12.75,47.0,70.54648437499999,35.22,1.2214030625,33.79
2021-06-23 11:20:05.890625000,-43.0,12.5,47.0,70.54671875,34.54,1.221483125,33.79
2021-06-23 11:20:05.898437500,-43.0,12.25,47.0,70.546953125,34.51,1.2215631875000001,33.79
2021-06-23 11:20:05.906250000,-43.0,12.0,47.0,70.54718749999999,34.48,1.22164325,33.79
2021-06-23 11:20:05.914062500,-43.0,12.0,47.0,70.547421875,35.435,1.2217233125,33.79
2021-06-23 11:20:05.921875000,-43.0,12.0,47.0,70.54765625,36.39,1.2218033750000001,33.79
2021-06-23 11:20:05.929687500,-43.0,12.0,47.0,70.547890625,38.4,1.2218834375,33.79
2021-06-23 11:20:05.937500000,-43.0,12.0,47.0,70.548125,40.41,1.2219635,33.79
2021-06-23 11:20:05.945312500,-43.0,12.25,47.0,70.548359375,43.285,1.2220435625000001,33.79
2021-06-23 11:20:05.953125000,-43.0,12.5,47.0,70.54859375,46.16,1.222123625,33.79
2021-06-23 11:20:05.960937500,-43.0,12.75,47.0,70.548828125,49.53,1.2222036875,33.79
2021-06-23 11:20:05.968750000,-43.0,13.0,47.0,70.54906249999999,52.9,1.2222837500000001,33.79
2021-06-23 11:20:05.976562500,-43.0,13.0,47.0,70.549296875,56.31,1.2223638125,33.79
2021-06-23 11:20:05.984375000,-43.0,13.0,47.0,70.54953125,59.72,1.222443875,33.79
2021-06-23 11:20:05.992187500,-43.0,13.0,47.0,70.54976562499999,62.735,1.2225239375,33.79
2021-06-23 11:20:06.000000000,-43.0,13.0,47.0,70.55,65.75,1.222604,33.79
2021-06-23 11:20:06.007812500,-43.0,13.0,47.0,70.55015625,68.035,1.2225239375,33.789375
2021-06-23 11:20:06.015625000,-43.0,13.0,47.0,70.5503125,70.32,1.222443875,33.78875
2021-06-23 11:20:06.023437500,-43.0,13.0,47.0,70.55046875,71.645,1.2223638125,33.788125
2021-06-23 11:20:06.031250000,-43.0,13.0,47.0,70.550625,72.97,1.2222837500000001,33.7875
2021-06-23 11:20:06.039062500,-43.0,13.0,47.0,70.55078125,73.22,1.2222036875,33.786875
2021-06-23 11:20:06.046875000,-43.0,13.0,47.0,70.5509375,73.47,1.222123625,33.78625
2021-06-23 11:20:06.054687500,-43.0,13.0,47.0,70.55109374999999,72.62,1.2220435625000001,33.785625
2021-06-23 11:20:06.062500000,-43.0,13.0,47.0,70.55125,71.77,1.2219635,33.785
2021-06-23 11:20:06.070312500,-43.0,13.0,47.0,70.55140625,69.93,1.2218834375,33.784375
2021-06-23 11:20:06.078125000,-43.0,13.0,47.0,70.5515625,68.09,1.2218033750000001,33.78375
2021-06-23 11:20:06.085937500,-43.0,13.0,47.0,70.55171874999999,65.47,1.2217233125,33.783125
2021-06-23 11:20:06.093750000,-43.0,13.0,47.0,70.551875,62.85,1.22164325,33.7825
2021-06-23 11:20:06.101562500,-43.0,13.0,47.0,70.55203125,59.765,1.2215631875000001,33.781875
2021-06-23 11:20:06.109375000,-43.0,13.0,47.0,70.5521875,56.68,1.221483125,33.78125
2021-06-23 11:20:06.117187500,-43.0,13.0,47.0,70.55234374999999,53.45,1.2214030625,33.780625
2021-06-23 11:20:06.125000000,-43.0,13.0,47.0,70.5525,50.22,1.221323,33.78
2021-06-23 11:20:06.132812500,-42.75,12.75,47.0,70.55265625,47.075,1.2212429375,33.779375
2021-06-23 11:20:06.140625000,-42.5,12.5,47.0,70.5528125,43.93,1.221162875,33.77875
2021-06-23 11:20:06.148437500,-42.25,12.25,47.0,70.55296874999999,40.95,1.2210828125,33.778125
2021-06-23 11:20:06.156250000,-42.0,12.0,47.0,70.553125,37.97,1.22100275,33.7775
2021-06-23 11:20:06.164062500,-42.25,12.0,47.0,70.55328125,35.08,1.2209226875,33.776875000000004
2021-06-23 11:20:06.171875000,-42.5,12.0,47.0,70.5534375,32.19,1.220842625,33.776250000000005
2021-06-23 11:20:06.179687500,-42.75,12.0,47.0,70.55359374999999,29.255,1.2207625625,33.775625000000005
2021-06-23 11:20:06.187500000,-43.0,12.0,47.0,70.55375,26.32,1.2206825000000001,33.775000000000006
2021-06-23 11:20:06.195312500,-43.0,12.0,47.0,70.55390625,23.240000000000002,1.2206024375,33.774375
2021-06-23 11:20:06.203125000,-43.0,12.0,47.0,70.5540625,20.16,1.220522375,33.77375
2021-06-23 11:20:06.210937500,-43.0,12.0,47.0,70.55421874999999,16.965,1.2204423125000001,33.773125
2021-06-23 11:20:06.218750000,-43.0,12.0,47.0,70.554375,13.77,1.22036225,33.7725
2021-06-23 11:20:06.226562500,-43.0,12.0,47.0,70.55453125,10.625,1.2202821875,33.771875
2021-06-23 11:20:06.234375000,-43.0,12.0,47.0,70.5546875,7.48,1.2202021250000001,33.77125
2021-06-23 11:20:06.242187500,-43.0,12.0,47.0,70.55484374999999,4.6,1.2201220625,33.770625
2021-06-23 11:20:06.250000000,-43.0,12.0,47.0,70.55499999999999,1.72,1.220042,33.77
2021-06-23 11:20:06.257812500,-43.0,12.25,47.0,70.55515625,-0.7550000000000001,1.22000196875,33.77
2021-06-23 11:20:06.265625000,-43.0,12.5,47.0,70.5553125,-3.23,1.2199619375000001,33.77
2021-06-23 11:20:06.273437500,-43.0,12.75,47.0,70.55546875,-5.335000000000001,1.21992190625,33.77
2021-06-23 11:20:06.281250000,-43.0,13.0,47.0,70.55562499999999,-7.44,1.219881875,33.77
2021-06-23 11:20:06.289062500,-43.0,13.0,47.0,70.55578125,-9.375,1.21984184375,33.77
2021-06-23 11:20:06.296875000,-43.0,13.0,47.0,70.5559375,-11.31,1.2198018125,33.77
2021-06-23 11:20:06.304687500,-43.0,13.0,47.0,70.55609375,-13.46,1.2197617812500001,33.77
2021-06-23 11:20:06.312500000,-43.0,13.0,47.0,70.55624999999999,-15.61,1.2197217500000002,33.77
2021-06-23 11:20:06.320312500,-43.0,12.75,47.0,70.55640625,-18.46,1.21968171875,33.77
2021-06-23 11:20:06.328125000,-43.0,12.5,47.0,70.5565625,-21.31,1.2196416875,33.77
2021-06-23 11:20:06.335937500,-43.0,12.25,47.0,70.55671875,-25.259999999999998,1.21960165625,33.77
2021-06-23 11:20:06.343750000,-43.0,12.0,47.0,70.55687499999999,-29.21,1.219561625,33.77
2021-06-23 11:20:06.351562500,-43.0,12.25,47.0,70.55703125,-34.455,1.2195215937500001,33.77
2021-06-23 11:20:06.359375000,-43.0,12.5,47.0,70.5571875,-39.7,1.2194815625,33.77
2021-06-23 11:20:06.367187500,-43.0,12.75,47.0,70.55734375,-45.97,1.21944153125,33.77
2021-06-23 11:20:06.375000000,-43.0,13.0,47.0,70.55749999999999,-52.24,1.2194015,33.77
2021-06-23 11:20:06.382812500,-43.0,13.0,46.75,70.55765625,-58.69500000000001,1.21936146875,33.77
2021-06-23 11:20:06.390625000,-43.0,13.0,46.5,70.5578125,-65.15,1.2193214375,33.77
2021-06-23 11:20:06.398437500,-43.0,13.0,46.25,70.55796875,-70.42,1.21928140625,33.77
2021-06-23 11:20:06.406250000,-43.0,13.0,46.0,70.55812499999999,-75.69,1.219241375,33.77
2021-06-23 11:20:06.414062500,-43.0,13.0,46.25,70.55828125,-78.205,1.21920134375,33.77
2021-06-23 11:20:06.421875000,-43.0,13.0,46.5,70.5584375,-80.72,1.2191613125,33.77
2021-06-23 11:20:06.429687500,-43.0,13.0,46.75,70.55859375,-79.16499999999999,1.21912128125,33.77
2021-06-23 11:20:06.437500000,-43.0,13.0,47.0,70.55874999999999,-77.61,1.21908125,33.77
2021-06-23 11:20:06.445312500,-43.0,13.0,47.0,70.55890624999999,-71.41499999999999,1.21904121875,33.77
2021-06-23 11:20:06.453125000,-43.0,13.0,47.0,70.5590625,-65.22,1.2190011875,33.77
2021-06-23 11:20:06.460937500,-43.0,13.0,47.0,70.55921875,-54.84,1.21896115625,33.77
2021-06-23 11:20:06.468750000,-43.0,13.0,47.0,70.55937499999999,-44.46,1.218921125,33.77
2021-06-23 11:20:06.476562500,-43.0,13.0,46.75,70.55953124999999,-31.240000000000002,1.21888109375,33.77
2021-06-23 11:20:06.484375000,-43.0,13.0,46.5,70.5596875,-18.02,1.2188410625,33.77
2021-06-23 11:20:06.492187500,-43.0,13.0,46.25,70.55984375,-3.8200000000000003,1.21880103125,33.77
2021-06-23 11:20:06.500000000,-43.0,13.0,46.0,70.56,10.38,1.218761,33.77
2021-06-23 11:20:06.507812500,-43.0,13.0,46.25,70.56015624999999,23.744999999999997,1.21872096875,33.77
2021-06-23 11:20:06.515625000,-43.0,13.0,46.5,70.5603125,37.11,1.2186809375,33.77
2021-06-23 11:20:06.523437500,-43.0,13.0,46.75,70.56046875,48.335,1.2186409062499999,33.77
2021-06-23 11:20:06.531250000,-43.0,13.0,47.0,70.560625,59.56,1.218600875,33.77
2021-06-23 11:20:06.539062500,-43.0,13.0,47.0,70.56078124999999,68.025,1.21856084375,33.77
2021-06-23 11:20:06.546875000,-43.0,13.0,47.0,70.5609375,76.49,1.2185208125,33.77
2021-06-23 11:20:06.554687500,-43.0,13.0,47.0,70.56109375,82.16499999999999,1.21848078125,33.77
2021-06-23 11:20:06.562500000,-43.0,13.0,47.0,70.56125,87.84,1.21844075,33.77
2021-06-23 11:20:06.570312500,-43.0,13.0,47.0,70.56140624999999,91.025,1.21840071875,33.77
2021-06-23 11:20:06.578125000,-43.0,13.0,47.0,70.5615625,94.21,1.2183606875,33.77
2021-06-23 11:20:06.585937500,-43.0,13.0,47.0,70.56171875,95.27,1.21832065625,33.77
2021-06-23 11:20:06.593750000,-43.0,13.0,47.0,70.561875,96.33,1.218280625,33.77
2021-06-23 11:20:06.601562500,-43.0,13.0,47.0,70.56203124999999,95.565,1.21824059375,33.77
2021-06-23 11:20:06.609375000,-43.0,13.0,47.0,70.5621875,94.8,1.2182005624999999,33.77
2021-06-23 11:20:06.617187500,-43.0,13.0,47.0,70.56234375,92.435,1.21816053125,33.77
2021-06-23 11:20:06.625000000,-43.0,13.0,47.0,70.5625,90.07,1.2181205,33.77
2021-06-23 11:20:06.632812500,-43.0,12.75,47.0,70.56265624999999,86.32499999999999,1.21808046875,33.77
2021-06-23 11:20:06.640625000,-43.0,12.5,47.0,70.56281249999999,82.58,1.2180404375,33.77
2021-06-23 11:20:06.648437500,-43.0,12.25,47.0,70.56296875,77.75999999999999,1.2180004062499998,33.77
2021-06-23 11:20:06.656250000,-43.0,12.0,47.0,70.563125,72.94,1.2179603749999999,33.77
2021-06-23 11:20:06.664062500,-43.0,12.25,47.0,70.56328124999999,67.46,1.21792034375,33.77
2021-06-23 11:20:06.671875000,-43.0,12.5,47.0,70.56343749999999,61.98,1.2178803125,33.77
2021-06-23 11:20:06.679687500,-43.0,12.75,47.0,70.56359375,56.349999999999994,1.21784028125,33.77
2021-06-23 11:20:06.687500000,-43.0,13.0,47.0,70.56375,50.72,1.2178002499999998,33.77
2021-06-23 11:20:06.695312500,-43.0,13.0,47.0,70.56390624999999,45.445,1.2177602187499998,33.77
2021-06-23 11:20:06.703125000,-43.0,13.0,47.0,70.56406249999999,40.17,1.2177201874999999,33.77
2021-06-23 11:20:06.710937500,-43.0,13.0,47.0,70.56421875,35.7,1.21768015625,33.77
2021-06-23 11:20:06.718750000,-43.0,13.0,47.0,70.564375,31.23,1.217640125,33.77
2021-06-23 11:20:06.726562500,-43.0,13.0,47.0,70.56453124999999,27.85,1.21760009375,33.77
2021-06-23 11:20:06.734375000,-43.0,13.0,47.0,70.56468749999999,24.47,1.2175600624999998,33.77
2021-06-23 11:20:06.742187500,-43.0,13.0,47.0,70.56484375,22.335,1.2175200312499999,33.77
2021-06-23 11:20:06.750000000,-43.0,13.0,47.0,70.565,20.2,1.21748,33.77
2021-06-23 11:20:06.757812500,-43.0,13.0,47.0,70.56515625,19.285,1.2175600624999998,33.77
2021-06-23 11:20:06.765625000,-43.0,13.0,47.0,70.56531249999999,18.37,1.217640125,33.77
2021-06-23 11:20:06.773437500,-43.0,13.0,47.0,70.56546875,18.535,1.2177201874999999,33.77
2021-06-23 11:20:06.781250000,-43.0,13.0,47.0,70.565625,18.7,1.2178002499999998,33.77
2021-06-23 11:20:06.789062500,-43.0,13.0,47.0,70.56578125,19.685000000000002,1.2178803125,33.77
2021-06-23 11:20:06.796875000,-43.0,13.0,47.0,70.56593749999999,20.67,1.2179603749999999,33.77
2021-06-23 11:20:06.804687500,-43.0,13.0,47.0,70.56609375,22.105,1.2180404375,33.77
2021-06-23 11:20:06.812500000,-43.0,13.0,47.0,70.56625,23.54,1.2181205,33.77
2021-06-23 11:20:06.820312500,-43.0,13.0,47.0,70.56640625,25.005,1.2182005624999999,33.77
2021-06-23 11:20:06.828125000,-43.0,13.0,47.0,70.56656249999999,26.47,1.218280625,33.77
2021-06-23 11:20:06.835937500,-43.0,13.0,47.0,70.56671874999999,27.545,1.2183606875,33.77
2021-06-23 11:20:06.843750000,-43.0,13.0,47.0,70.566875,28.62,1.21844075,33.77
2021-06-23 11:20:06.851562500,-43.0,12.75,47.0,70.56703125,28.975,1.2185208125,33.77
2021-06-23 11:20:06.859375000,-43.0,12.5,47.0,70.56718749999999,29.33,1.218600875,33.77
2021-06-23 11:20:06.867187500,-43.0,12.25,47.0,70.56734374999999,28.795,1.2186809375,33.77
2021-06-23 11:20:06.875000000,-43.0,12.0,47.0,70.5675,28.26,1.218761,33.77
2021-06-23 11:20:06.882812500,-43.0,12.25,46.75,70.56765625,26.87,1.2188410625,33.77
2021-06-23 11:20:06.890625000,-43.0,12.5,46.5,70.56781249999999,25.48,1.218921125,33.77
2021-06-23 11:20:06.898437500,-43.0,12.75,46.25,70.56796874999999,23.39,1.2190011875,33.77
2021-06-23 11:20:06.906250000,-43.0,13.0,46.0,70.568125,21.3,1.21908125,33.77
2021-06-23 11:20:06.914062500,-43.0,13.0,46.25,70.56828125,18.75,1.2191613125,33.77
2021-06-23 11:20:06.921875000,-43.0,13.0,46.5,70.56843749999999,16.2,1.219241375,33.77
2021-06-23 11:20:06.929687500,-43.0,13.0,46.75,70.56859374999999,13.379999999999999,1.2193214375,33.77
2021-06-23 11:20:06.937500000,-43.0,13.0,47.0,70.56875,10.56,1.2194015,33.77
2021-06-23 11:20:06.945312500,-43.0,13.0,47.0,70.56890625,7.57,1.2194815625,33.77
2021-06-23 11:20:06.953125000,-43.0,13.0,47.0,70.56906249999999,4.58,1.219561625,33.77
2021-06-23 11:20:06.960937500,-43.0,13.0,47.0,70.56921874999999,1.4300000000000002,1.2196416875,33.77
2021-06-23 11:20:06.968750000,-43.0,13.0,47.0,70.569375,-1.72,1.2197217500000002,33.77
2021-06-23 11:20:06.976562500,-43.0,13.0,47.0,70.56953125,-5.075,1.2198018125,33.77
2021-06-23 11:20:06.984375000,-43.0,13.0,47.0,70.56968749999999,-8.43,1.219881875,33.77
2021-06-23 11:20:06.992187500,-43.0,13.0,47.0,70.56984374999999,-12.02,1.2199619375000001,33.77
2021-06-23 11:20:07.000000000,-43.0,13.0,47.0,70.57,-15.61,1.220042,33.77
2021-06-23 11:20:07.007812500,-43.0,12.75,47.0,70.570234375,-19.4,1.22000196875,33.769375000000004
2021-06-23 11:20:07.015625000,-43.0,12.5,47.0,70.57046874999999,-23.19,1.2199619375000001,33.768750000000004
2021-06-23 11:20:07.023437500,-43.0,12.25,47.0,70.570703125,-27.07,1.21992190625,33.768125000000005
2021-06-23 11:20:07.031250000,-43.0,12.0,47.0,70.5709375,-30.95,1.219881875,33.767500000000005
2021-06-23 11:20:07.039062500,-43.0,12.25,47.0,70.57117187499999,-34.74,1.21984184375,33.766875000000006
2021-06-23 11:20:07.046875000,-43.0,12.5,47.0,70.57140625,-38.53,1.2198018125,33.76625
2021-06-23 11:20:07.054687500,-43.0,12.75,47.0,70.57164062499999,-42.07,1.2197617812500001,33.765625
2021-06-23 11:20:07.062500000,-43.0,13.0,47.0,70.57187499999999,-45.61,1.2197217500000002,33.765
2021-06-23 11:20:07.070312500,-43.0,13.0,47.0,70.572109375,-48.775,1.21968171875,33.764375
2021-06-23 11:20:07.078125000,-43.0,13.0,47.0,70.57234374999999,-51.94,1.2196416875,33.76375
2021-06-23 11:20:07.085937500,-43.0,13.0,47.0,70.57257812499999,-54.775,1.21960165625,33.763125
2021-06-23 11:20:07.093750000,-43.0,13.0,47.0,70.5728125,-57.61,1.219561625,33.7625
2021-06-23 11:20:07.101562500,-43.0,12.75,47.0,70.57304687499999,-60.33,1.2195215937500001,33.761875
2021-06-23 11:20:07.109375000,-43.0,12.5,47.0,70.57328125,-63.05,1.2194815625,33.761250000000004
2021-06-23 11:20:07.117187500,-43.0,12.25,47.0,70.573515625,-66.05,1.21944153125,33.760625000000005
2021-06-23 11:20:07.125000000,-43.0,12.0,47.0,70.57374999999999,-69.05,1.2194015,33.760000000000005
2021-06-23 11:20:07.132812500,-43.0,12.0,47.0,70.573984375,-72.81,1.21936146875,33.759375
2021-06-23 11:20:07.140625000,-43.0,12.0,47.0,70.57421875,-76.57,1.2193214375,33.75875
2021-06-23 11:20:07.148437500,-43.0,12.0,47.0,70.57445312499999,-81.475,1.21928140625,33.758125
2021-06-23 11:20:07.156250000,-43.0,12.0,47.0,70.5746875,-86.38,1.219241375,33.7575
2021-06-23 11:20:07.164062500,-43.0,12.25,47.0,70.57492187499999,-92.425,1.21920134375,33.756875
2021-06-23 11:20:07.171875000,-43.0,12.5,47.0,70.57515624999999,-98.47,1.2191613125,33.75625
2021-06-23 11:20:07.179687500,-43.0,12.75,47.0,70.575390625,-105.075,1.21912128125,33.755625
2021-06-23 11:20:07.187500000,-43.0,13.0,47.0,70.57562499999999,-111.68,1.21908125,33.755
2021-06-23 11:20:07.195312500,-43.0,13.0,46.75,70.575859375,-117.61500000000001,1.21904121875,33.754375
2021-06-23 11:20:07.203125000,-43.0,13.0,46.5,70.57609375,-123.55,1.2190011875,33.753750000000004
2021-06-23 11:20:07.210937500,-43.0,13.0,46.25,70.57632812499999,-127.17500000000001,1.21896115625,33.753125
2021-06-23 11:20:07.218750000,-43.0,13.0,46.0,70.5765625,-130.8,1.218921125,33.7525
2021-06-23 11:20:07.226562500,-43.0,13.0,46.25,70.576796875,-130.505,1.21888109375,33.751875
2021-06-23 11:20:07.234375000,-43.0,13.0,46.5,70.57703124999999,-130.21,1.2188410625,33.75125
2021-06-23 11:20:07.242187500,-43.0,13.0,46.75,70.577265625,-124.99000000000001,1.21880103125,33.750625
2021-06-23 11:20:07.250000000,-43.0,13.0,47.0,70.57749999999999,-119.77,1.218761,33.75
2021-06-23 11:20:07.257812500,-43.0,13.0,47.0,70.57773437499999,-109.62,1.2186809375,33.75
2021-06-23 11:20:07.265625000,-43.0,13.0,47.0,70.57796875,-99.47,1.218600875,33.75
2021-06-23 11:20:07.273437500,-43.0,13.0,47.0,70.57820312499999,-85.43,1.2185208125,33.75
2021-06-23 11:20:07.281250000,-43.0,13.0,47.0,70.57843749999999,-71.39,1.21844075,33.75
2021-06-23 11:20:07.289062500,-43.0,12.75,47.0,70.578671875,-55.265,1.2183606875,33.75
2021-06-23 11:20:07.296875000,-43.0,12.5,47.0,70.57890624999999,-39.14,1.218280625,33.75
2021-06-23 11:20:07.304687500,-43.0,12.25,47.0,70.579140625,-22.94,1.2182005625,33.75
2021-06-23 11:20:07.312500000,-43.0,12.0,47.0,70.579375,-6.74,1.2181205,33.75
2021-06-23 11:20:07.320312500,-43.0,12.0,47.0,70.57960937499999,7.845000000000001,1.2180404375,33.75
2021-06-23 11:20:07.328125000,-43.0,12.0,47.0,70.57984375,22.43,1.217960375,33.75
2021-06-23 11:20:07.335937500,-43.0,12.0,47.0,70.580078125,34.355000000000004,1.2178803125,33.75
2021-06-23 11:20:07.343750000,-43.0,12.0,47.0,70.58031249999999,46.28,1.21780025,33.75
2021-06-23 11:20:07.351562500,-43.0,12.25,47.0,70.580546875,55.155,1.2177201875,33.75
2021-06-23 11:20:07.359375000,-43.0,12.5,47.0,70.58078124999999,64.03,1.217640125,33.75
2021-06-23 11:20:07.367187500,-43.0,12.75,47.0,70.58101562499999,69.945,1.2175600625,33.75
2021-06-23 11:20:07.375000000,-43.0,13.0,47.0,70.58125,75.86,1.2174800000000001,33.75
2021-06-23 11:20:07.382812500,-43.0,13.0,47.0,70.58148437499999,79.13,1.2173999375,33.75
2021-06-23 11:20:07.390625000,-43.0,13.0,47.0,70.58171875,82.4,1.217319875,33.75
2021-06-23 11:20:07.398437500,-43.0,13.0,47.0,70.581953125,83.41,1.2172398125,33.75
2021-06-23 11:20:07.406250000,-43.0,13.0,47.0,70.58218749999999,84.42,1.21715975,33.75
2021-06-23 11:20:07.414062500,-43.0,13.0,47.0,70.582421875,83.61,1.2170796875,33.75
2021-06-23 11:20:07.421875000,-43.0,13.0,47.0,70.58265625,82.8,1.216999625,33.75
2021-06-23 11:20:07.429687500,-43.0,13.0,47.0,70.58289062499999,80.69,1.2169195625,33.75
2021-06-23 11:20:07.437500000,-43.0,13.0,47.0,70.583125,78.58,1.2168395,33.75
2021-06-23 11:20:07.445312500,-43.0,12.75,47.0,70.583359375,75.81,1.2167594375,33.75
2021-06-23 11:20:07.453125000,-43.0,12.5,47.0,70.58359374999999,73.04,1.216679375,33.75
2021-06-23 11:20:07.460937500,-43.0,12.25,47.0,70.583828125,70.28,1.2165993125,33.75
2021-06-23 11:20:07.468750000,-43.0,12.0,47.0,70.58406249999999,67.52,1.21651925,33.75
2021-06-23 11:20:07.476562500,-43.0,12.25,47.0,70.58429687499999,65.35499999999999,1.2164391875,33.75
2021-06-23 11:20:07.484375000,-43.0,12.5,47.0,70.58453125,63.19,1.216359125,33.75
2021-06-23 11:20:07.492187500,-43.0,12.75,47.0,70.58476562499999,61.945,1.2162790625,33.75
2021-06-23 11:20:07.500000000,-43.0,13.0,47.0,70.585,60.7,1.216199,33.75
2021-06-23 11:20:07.507812500,-43.0,13.0,47.0,70.585234375,60.435,1.21603884375,33.75
2021-06-23 11:20:07.515625000,-43.0,13.0,47.0,70.58546874999999,60.17,1.2158786875,33.75
2021-06-23 11:20:07.523437500,-43.0,13.0,47.0,70.585703125,60.685,1.21571853125,33.75
2021-06-23 11:20:07.531250000,-43.0,13.0,47.0,70.5859375,61.2,1.215558375,33.75
2021-06-23 11:20:07.539062500,-43.0,13.0,47.0,70.58617187499999,62.175,1.21539821875,33.75
2021-06-23 11:20:07.546875000,-43.0,13.0,47.0,70.58640625,63.15,1.2152380625,33.75
2021-06-23 11:20:07.554687500,-43.0,13.0,47.0,70.58664062499999,64.26,1.2150779062500001,33.75
2021-06-23 11:20:07.562500000,-43.0,13.0,47.0,70.58687499999999,65.37,1.2149177500000001,33.75
2021-06-23 11:20:07.570312500,-43.0,12.75,47.0,70.587109375,66.405,1.21475759375,33.75
2021-06-23 11:20:07.578125000,-43.0,12.5,47.0,70.58734374999999,67.44,1.2145974375,33.75
2021-06-23 11:20:07.585937500,-43.0,12.25,47.0,70.587578125,68.295,1.21443728125,33.75
2021-06-23 11:20:07.593750000,-43.0,12.0,47.0,70.5878125,69.15,1.214277125,33.75
2021-06-23 11:20:07.601562500,-43.0,12.25,47.0,70.58804687499999,69.77000000000001,1.21411696875,33.75
2021-06-23 11:20:07.609375000,-43.0,12.5,47.0,70.58828125,70.39,1.2139568125,33.75
2021-06-23 11:20:07.617187500,-43.0,12.75,47.0,70.588515625,70.695,1.21379665625,33.75
2021-06-23 11:20:07.625000000,-43.0,13.0,47.0,70.58874999999999,71.0,1.2136365,33.75
2021-06-23 11:20:07.632812500,-43.0,13.0,47.0,70.588984375,70.83,1.21347634375,33.75
2021-06-23 11:20:07.640625000,-43.0,13.0,47.0,70.58921875,70.66,1.2133161875,33.75
2021-06-23 11:20:07.648437500,-43.0,13.0,47.0,70.58945312499999,69.795,1.21315603125,33.75
2021-06-23 11:20:07.656250000,-43.0,13.0,47.0,70.5896875,68.93,1.212995875,33.75
2021-06-23 11:20:07.664062500,-43.0,12.75,47.0,70.58992187499999,67.16,1.21283571875,33.75
2021-06-23 11:20:07.671875000,-43.0,12.5,47.0,70.59015624999999,65.39,1.2126755625,33.75
2021-06-23 11:20:07.679687500,-43.0,12.25,47.0,70.590390625,62.64,1.21251540625,33.75
2021-06-23 11:20:07.687500000,-43.0,12.0,47.0,70.59062499999999,59.89,1.2123552499999999,33.75
2021-06-23 11:20:07.695312500,-43.0,12.0,47.0,70.590859375,56.305,1.21219509375,33.75
2021-06-23 11:20:07.703125000,-43.0,12.0,47.0,70.59109375,52.72,1.2120349375,33.75
2021-06-23 11:20:07.710937500,-43.0,12.0,47.0,70.59132812499999,48.644999999999996,1.21187478125,33.75
2021-06-23 11:20:07.718750000,-43.0,12.0,47.0,70.5915625,44.57,1.211714625,33.75
2021-06-23 11:20:07.726562500,-43.0,12.25,47.0,70.591796875,40.455,1.21155446875,33.75
2021-06-23 11:20:07.734375000,-43.0,12.5,47.0,70.59203124999999,36.34,1.2113943125,33.75
2021-06-23 11:20:07.742187500,-43.0,12.75,47.0,70.592265625,32.54,1.21123415625,33.75
2021-06-23 11:20:07.750000000,-43.0,13.0,47.0,70.5925,28.74,1.211074,33.75
2021-06-23 11:20:07.757812500,-43.0,13.0,47.0,70.59273437499999,25.365,1.211194125,33.75
2021-06-23 11:20:07.765625000,-43.0,13.0,47.0,70.59296875,21.99,1.21131425,33.75
2021-06-23 11:20:07.773437500,-43.0,13.0,47.0,70.59320312499999,18.869999999999997,1.211434375,33.75
2021-06-23 11:20:07.781250000,-43.0,13.0,47.0,70.5934375,15.75,1.2115545,33.75
2021-06-23 11:20:07.789062500,-43.0,13.0,47.0,70.593671875,12.530000000000001,1.211674625,33.75
2021-06-23 11:20:07.796875000,-43.0,13.0,47.0,70.59390624999999,9.31,1.21179475,33.75
2021-06-23 11:20:07.804687500,-43.0,13.0,47.0,70.594140625,5.655,1.211914875,33.75
2021-06-23 11:20:07.812500000,-43.0,13.0,47.0,70.594375,2.0,1.212035,33.75
2021-06-23 11:20:07.820312500,-43.0,13.0,47.0,70.59460937499999,-2.2300000000000004,1.212155125,33.75
2021-06-23 11:20:07.828125000,-43.0,13.0,47.0,70.59484375,-6.46,1.21227525,33.75
2021-06-23 11:20:07.835937500,-43.0,13.0,47.0,70.595078125,-11.120000000000001,1.212395375,33.75
2021-06-23 11:20:07.843750000,-43.0,13.0,47.0,70.59531249999999,-15.78,1.2125154999999999,33.75
2021-06-23 11:20:07.851562500,-43.0,13.0,47.0,70.595546875,-20.505,1.2126356249999999,33.75
2021-06-23 11:20:07.859375000,-43.0,13.0,47.0,70.59578124999999,-25.23,1.21275575,33.75
2021-06-23 11:20:07.867187500,-43.0,13.0,47.0,70.59601562499999,-29.615000000000002,1.212875875,33.75
2021-06-23 11:20:07.875000000,-43.0,13.0,47.0,70.59625,-34.0,1.212996,33.75
2021-06-23 11:20:07.882812500,-43.0,13.0,47.0,70.59648437499999,-37.785,1.213116125,33.75
2021-06-23 11:20:07.890625000,-43.0,13.0,47.0,70.59671875,-41.57,1.21323625,33.75
2021-06-23 11:20:07.898437500,-43.0,13.0,47.0,70.596953125,-44.765,1.213356375,33.75
2021-06-23 11:20:07.906250000,-43.0,13.0,47.0,70.59718749999999,-47.96,1.2134765,33.75
2021-06-23 11:20:07.914062500,-43.0,13.0,47.0,70.597421875,-50.84,1.2135966249999999,33.75
2021-06-23 11:20:07.921875000,-43.0,13.0,47.0,70.59765625,-53.72,1.21371675,33.75
2021-06-23 11:20:07.929687500,-43.0,13.0,47.0,70.59789062499999,-56.739999999999995,1.213836875,33.75
2021-06-23 11:20:07.937500000,-43.0,13.0,47.0,70.598125,-59.76,1.213957,33.75
2021-06-23 11:20:07.945312500,-43.0,12.75,47.0,70.598359375,-63.44499999999999,1.214077125,33.75
2021-06-23 11:20:07.953125000,-43.0,12.5,47.0,70.59859374999999,-67.13,1.21419725,33.75
2021-06-23 11:20:07.960937500,-43.0,12.25,47.0,70.598828125,-71.91,1.214317375,33.75
2021-06-23 11:20:07.968750000,-43.0,12.0,47.0,70.59906249999999,-76.69,1.2144374999999998,33.75
2021-06-23 11:20:07.976562500,-43.0,12.25,47.0,70.599296875,-82.685,1.2145576249999999,33.75
2021-06-23 11:20:07.984375000,-43.0,12.5,47.0,70.59953125,-88.68,1.21467775,33.75
2021-06-23 11:20:07.992187500,-43.0,12.75,47.0,70.59976562499999,-95.52000000000001,1.214797875,33.75
2021-06-23 11:20:08.000000000,-43.0,13.0,47.0,70.6,-102.36,1.214918,33.75
2021-06-23 11:20:08.007812500,-43.0,13.0,47.0,70.60039062499999,-109.03999999999999,1.21475784375,33.75
2021-06-23 11:20:08.015625000,-43.0,13.0,47.0,70.60078125,-115.72,1.2145976875,33.75
2021-06-23 11:20:08.023437500,-43.0,13.0,47.0,70.60117187499999,-120.75,1.21443753125,33.75
2021-06-23 11:20:08.031250000,-43.0,13.0,47.0,70.6015625,-125.78,1.214277375,33.75
2021-06-23 11:20:08.039062500,-43.0,13.0,47.0,70.601953125,-127.49,1.21411721875,33.75
2021-06-23 11:20:08.046875000,-43.0,13.0,47.0,70.60234374999999,-129.2,1.2139570625,33.75
2021-06-23 11:20:08.054687500,-43.0,13.0,47.0,70.602734375,-126.32499999999999,1.21379690625,33.75
2021-06-23 11:20:08.062500000,-43.0,13.0,47.0,70.60312499999999,-123.45,1.21363675,33.75
2021-06-23 11:20:08.070312500,-43.0,13.0,47.0,70.603515625,-115.575,1.2134765937499998,33.75
2021-06-23 11:20:08.078125000,-43.0,13.0,47.0,70.60390625,-107.7,1.2133164374999998,33.75
2021-06-23 11:20:08.085937500,-43.0,13.0,47.0,70.60429687499999,-95.495,1.2131562812499999,33.75
2021-06-23 11:20:08.093750000,-43.0,13.0,47.0,70.6046875,-83.29,1.2129961249999999,33.75
2021-06-23 11:20:08.101562500,-43.0,13.0,47.0,70.60507812499999,-68.36,1.2128359687499999,33.75
2021-06-23 11:20:08.109375000,-43.0,13.0,47.0,70.60546875,-53.43,1.2126758125,33.75
2021-06-23 11:20:08.117187500,-43.0,13.0,47.0,70.605859375,-37.8,1.21251565625,33.75
2021-06-23 11:20:08.125000000,-43.0,13.0,47.0,70.60624999999999,-22.17,1.2123555,33.75
2021-06-23 11:20:08.132812500,-43.0,13.0,47.0,70.606640625,-7.700000000000001,1.21219534375,33.75
2021-06-23 11:20:08.140625000,-43.0,13.0,47.0,70.60703124999999,6.77,1.2120351875,33.75
2021-06-23 11:20:08.148437500,-43.0,13.0,47.0,70.607421875,18.85,1.21187503125,33.75
2021-06-23 11:20:08.156250000,-43.0,13.0,47.0,70.6078125,30.93,1.211714875,33.75
2021-06-23 11:20:08.164062500,-43.0,12.75,47.0,70.608203125,40.16,1.21155471875,33.75
2021-06-23 11:20:08.171875000,-43.0,12.5,47.0,70.60859375,49.39,1.2113945625,33.75
2021-06-23 11:20:08.179687500,-43.0,12.25,47.0,70.60898437499999,55.905,1.21123440625,33.75
2021-06-23 11:20:08.187500000,-43.0,12.0,47.0,70.609375,62.42,1.2110742499999998,33.75
2021-06-23 11:20:08.195312500,-43.0,12.25,47.0,70.609765625,66.62,1.2109140937499998,33.75
2021-06-23 11:20:08.203125000,-43.0,12.5,47.0,70.61015625,70.82,1.2107539374999998,33.75
2021-06-23 11:20:08.210937500,-43.0,12.75,47.0,70.610546875,73.12,1.2105937812499998,33.75
2021-06-23 11:20:08.218750000,-43.0,13.0,47.0,70.61093749999999,75.42,1.2104336249999998,33.75
2021-06-23 11:20:08.226562500,-43.0,13.0,47.0,70.611328125,76.13499999999999,1.2102734687499999,33.75
2021-06-23 11:20:08.234375000,-43.0,13.0,47.0,70.61171875,76.85,1.2101133124999999,33.75
2021-06-23 11:20:08.242187500,-43.0,13.0,47.0,70.612109375,76.235,1.2099531562499999,33.75
2021-06-23 11:20:08.250000000,-43.0,13.0,47.0,70.6125,75.62,1.209793,33.75
2021-06-23 11:20:08.257812500,-43.0,13.0,46.75,70.61289062499999,74.0,1.2099531562499999,33.75
2021-06-23 11:20:08.265625000,-43.0,13.0,46.5,70.61328125,72.38,1.2101133124999999,33.75
2021-06-23 11:20:08.273437500,-43.0,13.0,46.25,70.613671875,70.21000000000001,1.2102734687499999,33.75
2021-06-23 11:20:08.281250000,-43.0,13.0,46.0,70.6140625,68.04,1.2104336249999998,33.75
2021-06-23 11:20:08.289062500,-43.0,13.0,46.25,70.614453125,65.845,1.2105937812499998,33.75
2021-06-23 11:20:08.296875000,-43.0,13.0,46.5,70.61484374999999,63.65,1.2107539374999998,33.75
2021-06-23 11:20:08.304687500,-43.0,13.0,46.75,70.615234375,61.875,1.2109140937499998,33.75
2021-06-23 11:20:08.312500000,-43.0,13.0,47.0,70.615625,60.1,1.2110742499999998,33.75
2021-06-23 11:20:08.320312500,-43.0,13.0,47.0,70.616015625,58.995000000000005,1.21123440625,33.75
2021-06-23 11:20:08.328125000,-43.0,13.0,47.0,70.61640625,57.89,1.2113945625,33.75
2021-06-23 11:20:08.335937500,-43.0,13.0,47.0,70.61679687499999,57.455,1.21155471875,33.75
2021-06-23 11:20:08.343750000,-43.0,13.0,47.0,70.6171875,57.02,1.211714875,33.75
2021-06-23 11:20:08.351562500,-43.0,13.0,47.0,70.617578125,57.105000000000004,1.21187503125,33.75
2021-06-23 11:20:08.359375000,-43.0,13.0,47.0,70.61796875,57.19,1.2120351875,33.75
2021-06-23 11:20:08.367187500,-43.0,13.0,47.0,70.618359375,57.635,1.21219534375,33.75
2021-06-23 11:20:08.375000000,-43.0,13.0,47.0,70.61875,58.08,1.2123555,33.75
2021-06-23 11:20:08.382812500,-43.0,13.0,47.0,70.619140625,58.84,1.21251565625,33.75
2021-06-23 11:20:08.390625000,-43.0,13.0,47.0,70.61953125,59.6,1.2126758125,33.75
2021-06-23 11:20:08.398437500,-43.0,13.0,47.0,70.619921875,60.71,1.2128359687499999,33.75
2021-06-23 11:20:08.406250000,-43.0,13.0,47.0,70.6203125,61.82,1.2129961249999999,33.75
2021-06-23 11:20:08.414062500,-43.0,12.75,47.0,70.620703125,63.315,1.2131562812499999,33.75
2021-06-23 11:20:08.421875000,-43.0,12.5,47.0,70.62109375,64.81,1.2133164374999998,33.75
2021-06-23 11:20:08.429687500,-43.0,12.25,47.0,70.621484375,66.53999999999999,1.2134765937499998,33.75
2021-06-23 11:20:08.437500000,-43.0,12.0,47.0,70.621875,68.27,1.21363675,33.75
2021-06-23 11:20:08.445312500,-43.0,12.25,47.0,70.622265625,69.88499999999999,1.21379690625,33.75
2021-06-23 11:20:08.453125000,-43.0,12.5,47.0,70.62265625,71.5,1.2139570625,33.75
2021-06-23 11:20:08.460937500,-43.0,12.75,47.0,70.623046875,72.465,1.21411721875,33.75
2021-06-23 11:20:08.468750000,-43.0,13.0,47.0,70.6234375,73.43,1.214277375,33.75
2021-06-23 11:20:08.476562500,-43.0,13.0,47.0,70.623828125,73.26,1.21443753125,33.75
2021-06-23 11:20:08.484375000,-43.0,13.0,47.0,70.62421875,73.09,1.2145976875,33.75
2021-06-23 11:20:08.492187500,-43.0,13.0,47.0,70.624609375,71.505,1.21475784375,33.75
2021-06-23 11:20:08.500000000,-43.0,13.0,47.0,70.625,69.92,1.214918,33.75
2021-06-23 11:20:08.507812500,-43.0,13.0,47.0,70.625390625,66.975,1.21467778125,33.75
2021-06-23 11:20:08.515625000,-43.0,13.0,47.0,70.62578125,64.03,1.2144375625,33.75
2021-06-23 11:20:08.523437500,-43.0,13.0,47.0,70.626171875,60.08,1.21419734375,33.75
2021-06-23 11:20:08.531250000,-43.0,13.0,47.0,70.6265625,56.13,1.2139571249999999,33.75
2021-06-23 11:20:08.539062500,-43.0,12.75,47.0,70.626953125,51.71,1.21371690625,33.75
2021-06-23 11:20:08.546875000,-43.0,12.5,47.0,70.62734375,47.29,1.2134766875,33.75
2021-06-23 11:20:08.554687500,-43.0,12.25,47.0,70.627734375,42.89,1.21323646875,33.75
2021-06-23 11:20:08.562500000,-43.0,12.0,47.0,70.628125,38.49,1.21299625,33.75
2021-06-23 11:20:08.570312500,-43.0,12.25,47.0,70.628515625,34.395,1.2127560312499999,33.75
2021-06-23 11:20:08.578125000,-43.0,12.5,47.0,70.62890625,30.3,1.2125158125,33.75
2021-06-23 11:20:08.585937500,-43.0,12.75,47.0,70.629296875,26.55,1.21227559375,33.75
2021-06-23 11:20:08.593750000,-43.0,13.0,47.0,70.6296875,22.8,1.212035375,33.75
2021-06-23 11:20:08.601562500,-43.0,13.0,47.0,70.630078125,19.215,1.21179515625,33.75
2021-06-23 11:20:08.609375000,-43.0,13.0,47.0,70.63046875,15.63,1.2115549374999999,33.75
2021-06-23 11:20:08.617187500,-43.0,13.0,47.0,70.630859375,11.940000000000001,1.21131471875,33.75
2021-06-23 11:20:08.625000000,-43.0,13.0,47.0,70.63125,8.25,1.2110745,33.75
2021-06-23 11:20:08.632812500,-42.75,13.0,47.0,70.631640625,4.255,1.21083428125,33.75
2021-06-23 11:20:08.640625000,-42.5,13.0,47.0,70.63203125,0.26,1.2105940625,33.75
2021-06-23 11:20:08.648437500,-42.25,13.0,47.0,70.632421875,-4.05,1.2103538437499999,33.75
2021-06-23 11:20:08.656250000,-42.0,13.0,47.0,70.6328125,-8.36,1.210113625,33.75
2021-06-23 11:20:08.664062500,-42.25,13.0,47.0,70.63320312500001,-12.805,1.2098734062499998,33.75
2021-06-23 11:20:08.671875000,-42.5,13.0,47.0,70.63359375,-17.25,1.2096331875,33.75
2021-06-23 11:20:08.679687500,-42.75,13.0,47.0,70.633984375,-21.515,1.20939296875,33.75
2021-06-23 11:20:08.687500000,-43.0,13.0,47.0,70.634375,-25.78,1.2091527499999999,33.75
2021-06-23 11:20:08.695312500,-43.0,12.75,47.0,70.634765625,-29.560000000000002,1.20891253125,33.75
2021-06-23 11:20:08.703125000,-43.0,12.5,47.0,70.63515625000001,-33.34,1.2086723124999998,33.75
2021-06-23 11:20:08.710937500,-43.0,12.25,47.0,70.635546875,-36.495000000000005,1.20843209375,33.75
2021-06-23 11:20:08.718750000,-43.0,12.0,47.0,70.6359375,-39.65,1.208191875,33.75
2021-06-23 11:20:08.726562500,-43.0,12.25,47.0,70.636328125,-42.239999999999995,1.20795165625,33.75
2021-06-23 11:20:08.734375000,-43.0,12.5,47.0,70.63671875,-44.83,1.2077114375,33.75
2021-06-23 11:20:08.742187500,-43.0,12.75,47.0,70.63710937500001,-47.144999999999996,1.2074712187499999,33.75
2021-06-23 11:20:08.750000000,-43.0,13.0,47.0,70.6375,-49.46,1.207231,33.75
2021-06-23 11:20:08.757812500,-43.0,13.0,47.0,70.637890625,-51.97,1.20743115625,33.75
2021-06-23 11:20:08.765625000,-43.0,13.0,47.0,70.63828125,-54.48,1.2076313125,33.75
2021-06-23 11:20:08.773437500,-43.0,13.0,47.0,70.638671875,-57.715,1.20783146875,33.75
2021-06-23 11:20:08.781250000,-43.0,13.0,47.0,70.63906250000001,-60.95,1.2080316249999998,33.75
2021-06-23 11:20:08.789062500,-43.0,13.0,47.0,70.639453125,-65.355,1.2082317812499999,33.75
2021-06-23 11:20:08.796875000,-43.0,13.0,47.0,70.63984375,-69.76,1.2084319374999999,33.75
2021-06-23 11:20:08.804687500,-43.0,13.0,47.0,70.640234375,-75.495,1.20863209375,33.75
2021-06-23 11:20:08.812500000,-43.0,13.0,47.0,70.640625,-81.23,1.20883225,33.75
2021-06-23 11:20:08.820312500,-43.0,12.75,47.0,70.64101562500001,-87.92500000000001,1.20903240625,33.75
2021-06-23 11:20:08.828125000,-43.0,12.5,47.0,70.64140625,-94.62,1.2092325625,33.75
2021-06-23 11:20:08.835937500,-43.0,12.25,47.0,70.641796875,-101.295,1.20943271875,33.75
2021-06-23 11:20:08.843750000,-43.0,12.0,47.0,70.6421875,-107.97,1.209632875,33.75
2021-06-23 11:20:08.851562500,-43.0,12.25,47.0,70.642578125,-113.1,1.2098330312499999,33.75
2021-06-23 11:20:08.859375000,-43.0,12.5,47.0,70.64296875000001,-118.23,1.2100331874999999,33.75
2021-06-23 11:20:08.867187500,-43.0,12.75,47.0,70.643359375,-120.16,1.21023334375,33.75
2021-06-23 11:20:08.875000000,-43.0,13.0,47.0,70.64375000000001,-122.09,1.2104335,33.75
2021-06-23 11:20:08.882812500,-43.0,13.0,47.0,70.644140625,-119.53999999999999,1.21063365625,33.75
2021-06-23 11:20:08.890625000,-43.0,13.0,47.0,70.64453125,-116.99,1.2108338125,33.75
2021-06-23 11:20:08.898437500,-43.0,13.0,47.0,70.64492187500001,-109.57,1.21103396875,33.75
2021-06-23 11:20:08.906250000,-43.0,13.0,47.0,70.6453125,-102.15,1.2112341249999998,33.75
2021-06-23 11:20:08.914062500,-43.0,13.0,47.0,70.64570312500001,-90.55000000000001,1.2114342812499999,33.75
2021-06-23 11:20:08.921875000,-43.0,13.0,47.0,70.64609375,-78.95,1.2116344374999999,33.75
2021-06-23 11:20:08.929687500,-43.0,13.0,47.0,70.646484375,-64.715,1.21183459375,33.75
2021-06-23 11:20:08.937500000,-43.0,13.0,47.0,70.64687500000001,-50.48,1.21203475,33.75
2021-06-23 11:20:08.945312500,-43.0,13.0,47.0,70.647265625,-35.535,1.21223490625,33.75
2021-06-23 11:20:08.953125000,-43.0,13.0,47.0,70.64765625000001,-20.59,1.2124350625,33.75
2021-06-23 11:20:08.960937500,-43.0,13.0,47.0,70.648046875,-6.635,1.21263521875,33.75
2021-06-23 11:20:08.968750000,-43.0,13.0,47.0,70.6484375,7.32,1.212835375,33.75
2021-06-23 11:20:08.976562500,-43.0,13.0,47.0,70.64882812500001,19.15,1.2130355312499999,33.75
2021-06-23 11:20:08.984375000,-43.0,13.0,47.0,70.64921875,30.98,1.2132356874999999,33.75
2021-06-23 11:20:08.992187500,-43.0,13.0,47.0,70.64960937500001,40.205,1.21343584375,33.75
2021-06-23 11:20:09.000000000,-43.0,13.0,47.0,70.65,49.43,1.213636,33.75
2021-06-23 11:20:09.007812500,-43.0,13.0,47.0,70.65,56.019999999999996,1.21335578125,33.750625
2021-06-23 11:20:09.015625000,-43.0,13.0,47.0,70.65,62.61,1.2130755625,33.75125
2021-06-23 11:20:09.023437500,-43.0,13.0,47.0,70.65,66.75999999999999,1.2127953437499999,33.751875
2021-06-23 11:20:09.031250000,-43.0,13.0,47.0,70.65,70.91,1.212515125,33.7525
2021-06-23 11:20:09.039062500,-43.0,13.0,47.0,70.65,72.86,1.21223490625,33.753125
2021-06-23 11:20:09.046875000,-43.0,13.0,47.0,70.65,74.81,1.2119546875,33.753750000000004
2021-06-23 11:20:09.054687500,-43.0,13.0,47.0,70.65,74.87,1.2116744687499998,33.754375
2021-06-23 11:20:09.062500000,-43.0,13.0,47.0,70.65,74.93,1.21139425,33.755
2021-06-23 11:20:09.070312500,-43.0,12.75,47.0,70.65,73.5,1.21111403125,33.755625
2021-06-23 11:20:09.078125000,-43.0,12.5,47.0,70.65,72.07,1.2108338125,33.75625
2021-06-23 11:20:09.085937500,-43.0,12.25,47.0,70.65,69.74,1.21055359375,33.756875
2021-06-23 11:20:09.093750000,-43.0,12.0,47.0,70.65,67.41,1.2102733749999999,33.7575
2021-06-23 11:20:09.101562500,-43.0,12.25,47.0,70.65,64.85499999999999,1.20999315625,33.758125
2021-06-23 11:20:09.109375000,-43.0,12.5,47.0,70.65,62.3,1.2097129375,33.75875
2021-06-23 11:20:09.117187500,-43.0,12.75,47.0,70.65,60.185,1.20943271875,33.759375
2021-06-23 11:20:09.125000000,-43.0,13.0,47.0,70.65,58.07,1.2091525,33.760000000000005
2021-06-23 11:20:09.132812500,-43.0,13.0,47.0,70.65,56.83,1.20887228125,33.760625000000005
2021-06-23 11:20:09.140625000,-43.0,13.0,47.0,70.65,55.59,1.2085920625,33.761250000000004
2021-06-23 11:20:09.148437500,-43.0,13.0,47.0,70.65,55.365,1.20831184375,33.761875
2021-06-23 11:20:09.156250000,-43.0,13.0,47.0,70.65,55.14,1.208031625,33.7625
2021-06-23 11:20:09.164062500,-43.0,13.0,47.0,70.65,55.745000000000005,1.2077514062499999,33.763125
2021-06-23 11:20:09.171875000,-43.0,13.0,47.0,70.65,56.35,1.2074711875,33.76375
2021-06-23 11:20:09.179687500,-43.0,13.0,47.0,70.65,57.405,1.20719096875,33.764375
2021-06-23 11:20:09.187500000,-43.0,13.0,47.0,70.65,58.46,1.20691075,33.765
2021-06-23 11:20:09.195312500,-43.0,12.75,47.0,70.65,59.57,1.20663053125,33.765625
2021-06-23 11:20:09.203125000,-43.0,12.5,47.0,70.65,60.68,1.2063503125,33.76625
2021-06-23 11:20:09.210937500,-43.0,12.25,47.0,70.65,61.56,1.20607009375,33.766875000000006
2021-06-23 11:20:09.218750000,-43.0,12.0,47.0,70.65,62.44,1.205789875,33.767500000000005
2021-06-23 11:20:09.226562500,-43.0,12.25,47.0,70.65,63.019999999999996,1.20550965625,33.768125000000005
2021-06-23 11:20:09.234375000,-43.0,12.5,47.0,70.65,63.6,1.2052294375,33.768750000000004
2021-06-23 11:20:09.242187500,-43.0,12.75,47.0,70.65,63.935,1.20494921875,33.769375000000004
2021-06-23 11:20:09.250000000,-43.0,13.0,47.0,70.65,64.27,1.204669,33.77
2021-06-23 11:20:09.257812500,-43.0,13.0,47.0,70.65,64.455,1.2047490625,33.77
2021-06-23 11:20:09.265625000,-43.0,13.0,47.0,70.65,64.64,1.204829125,33.77
2021-06-23 11:20:09.273437500,-43.0,13.0,47.0,70.65,64.67,1.2049091875,33.77
2021-06-23 11:20:09.281250000,-43.0,13.0,47.0,70.65,64.7,1.20498925,33.77
2021-06-23 11:20:09.289062500,-43.0,13.0,47.0,70.65,64.43,1.2050693125,33.77
2021-06-23 11:20:09.296875000,-43.0,13.0,47.0,70.65,64.16,1.205149375,33.77
2021-06-23 11:20:09.304687500,-43.0,13.0,47.0,70.65,63.31999999999999,1.2052294375,33.77
2021-06-23 11:20:09.312500000,-43.0,13.0,47.0,70.65,62.48,1.2053095,33.77
2021-06-23 11:20:09.320312500,-43.0,13.0,47.0,70.65,60.834999999999994,1.2053895625,33.77
2021-06-23 11:20:09.328125000,-43.0,13.0,47.0,70.65,59.19,1.2054696249999999,33.77
2021-06-23 11:20:09.335937500,-43.0,13.0,47.0,70.65,56.629999999999995,1.2055496875,33.77
2021-06-23 11:20:09.343750000,-43.0,13.0,47.0,70.65,54.07,1.20562975,33.77
2021-06-23 11:20:09.351562500,-43.0,13.0,47.0,70.65,50.7,1.2057098124999999,33.77
2021-06-23 11:20:09.359375000,-43.0,13.0,47.0,70.65,47.33,1.205789875,33.77
2021-06-23 11:20:09.367187500,-43.0,13.0,47.0,70.65,43.455,1.2058699375,33.77
2021-06-23 11:20:09.375000000,-43.0,13.0,47.0,70.65,39.58,1.20595,33.77
2021-06-23 11:20:09.382812500,-43.0,12.75,47.0,70.65,35.59,1.2060300625,33.77
2021-06-23 11:20:09.390625000,-43.0,12.5,47.0,70.65,31.6,1.206110125,33.77
2021-06-23 11:20:09.398437500,-43.0,12.25,47.0,70.65,27.84,1.2061901875,33.77
2021-06-23 11:20:09.406250000,-43.0,12.0,47.0,70.65,24.08,1.20627025,33.77
2021-06-23 11:20:09.414062500,-43.0,12.0,47.0,70.65,20.744999999999997,1.2063503125,33.77
2021-06-23 11:20:09.421875000,-43.0,12.0,47.0,70.65,17.41,1.206430375,33.77
2021-06-23 11:20:09.429687500,-43.0,12.0,47.0,70.65,14.469999999999999,1.2065104375,33.77
2021-06-23 11:20:09.437500000,-43.0,12.0,47.0,70.65,11.53,1.2065905,33.77
2021-06-23 11:20:09.445312500,-43.0,12.25,47.0,70.65,8.785,1.2066705625,33.77
2021-06-23 11:20:09.453125000,-43.0,12.5,47.0,70.65,6.04,1.206750625,33.77
2021-06-23 11:20:09.460937500,-43.0,12.75,47.0,70.65,3.22,1.2068306874999999,33.77
2021-06-23 11:20:09.468750000,-43.0,13.0,47.0,70.65,0.4,1.20691075,33.77
2021-06-23 11:20:09.476562500,-43.0,13.0,47.0,70.65,-2.72,1.2069908125,33.77
2021-06-23 11:20:09.484375000,-43.0,13.0,47.0,70.65,-5.84,1.2070708749999999,33.77
2021-06-23 11:20:09.492187500,-43.0,13.0,47.0,70.65,-9.3,1.2071509375,33.77
2021-06-23 11:20:09.500000000,-43.0,13.0,47.0,70.65,-12.76,1.207231,33.77
2021-06-23 11:20:09.507812500,-43.0,13.0,47.0,70.65,-16.43,1.20719096875,33.77
2021-06-23 11:20:09.515625000,-43.0,13.0,47.0,70.65,-20.1,1.2071509375,33.77
2021-06-23 11:20:09.523437500,-43.0,13.0,47.0,70.65,-23.73,1.20711090625,33.77
2021-06-23 11:20:09.531250000,-43.0,13.0,47.0,70.65,-27.36,1.2070708749999999,33.77
2021-06-23 11:20:09.539062500,-43.0,12.75,47.0,70.65,-30.705,1.20703084375,33.77
2021-06-23 11:20:09.546875000,-43.0,12.5,47.0,70.65,-34.05,1.2069908125,33.77
2021-06-23 11:20:09.554687500,-43.0,12.25,47.0,70.65,-36.95,1.20695078125,33.77
2021-06-23 11:20:09.562500000,-43.0,12.0,47.0,70.65,-39.85,1.20691075,33.77
2021-06-23 11:20:09.570312500,-43.0,12.0,47.0,70.65,-42.34,1.20687071875,33.77
2021-06-23 11:20:09.578125000,-43.0,12.0,47.0,70.65,-44.83,1.2068306874999999,33.77
2021-06-23 11:20:09.585937500,-43.0,12.0,47.0,70.65,-47.095,1.20679065625,33.77
2021-06-23 11:20:09.593750000,-43.0,12.0,47.0,70.65,-49.36,1.206750625,33.77
2021-06-23 11:20:09.601562500,-43.0,12.25,47.0,70.65,-51.754999999999995,1.20671059375,33.77
2021-06-23 11:20:09.609375000,-43.0,12.5,47.0,70.65,-54.15,1.2066705625,33.77
2021-06-23 11:20:09.617187500,-43.0,12.75,47.0,70.65,-57.075,1.20663053125,33.77
2021-06-23 11:20:09.625000000,-43.0,13.0,47.0,70.65,-60.0,1.2065905,33.77
2021-06-23 11:20:09.632812500,-43.0,13.0,47.0,70.65,-63.84,1.20655046875,33.77
2021-06-23 11:20:09.640625000,-43.0,13.0,47.0,70.65,-67.68,1.2065104375,33.77
2021-06-23 11:20:09.648437500,-43.0,13.0,47.0,70.65,-72.605,1.20647040625,33.77
2021-06-23 11:20:09.656250000,-43.0,13.0,47.0,70.65,-77.53,1.206430375,33.77
2021-06-23 11:20:09.664062500,-43.0,12.75,47.0,70.65,-83.315,1.20639034375,33.77
2021-06-23 11:20:09.671875000,-43.0,12.5,47.0,70.65,-89.1,1.2063503125000001,33.77
2021-06-23 11:20:09.679687500,-43.0,12.25,47.0,70.65,-95.0,1.20631028125,33.77
2021-06-23 11:20:09.687500000,-43.0,12.0,47.0,70.65,-100.9,1.20627025,33.77
2021-06-23 11:20:09.695312500,-43.0,12.0,47.0,70.65,-105.70500000000001,1.20623021875,33.77
2021-06-23 11:20:09.703125000,-43.0,12.0,47.0,70.65,-110.51,1.2061901875,33.77
2021-06-23 11:20:09.710937500,-43.0,12.0,47.0,70.65,-112.765,1.20615015625,33.77
2021-06-23 11:20:09.718750000,-43.0,12.0,47.0,70.65,-115.02,1.2061101250000001,33.77
2021-06-23 11:20:09.726562500,-43.0,12.0,47.0,70.65,-113.525,1.20607009375,33.77
2021-06-23 11:20:09.734375000,-43.0,12.0,47.0,70.65,-112.03,1.2060300625,33.77
2021-06-23 11:20:09.742187500,-43.0,12.0,47.0,70.65,-106.255,1.20599003125,33.77
2021-06-23 11:20:09.750000000,-43.0,12.0,47.0,70.65,-100.48,1.20595,33.77
2021-06-23 11:20:09.757812500,-43.0,12.25,47.0,70.65,-90.82,1.20615015625,33.77
2021-06-23 11:20:09.765625000,-43.0,12.5,47.0,70.65,-81.16,1.2063503125000001,33.77
2021-06-23 11:20:09.773437500,-43.0,12.75,47.0,70.65,-68.85499999999999,1.2065504687500002,33.77
2021-06-23 11:20:09.781250000,-43.0,13.0,47.0,70.65,-56.55,1.2067506250000002,33.77
2021-06-23 11:20:09.789062500,-43.0,12.75,47.0,70.65,-43.29,1.20695078125,33.77
2021-06-23 11:20:09.796875000,-43.0,12.5,47.0,70.65,-30.03,1.2071509375,33.77
2021-06-23 11:20:09.804687500,-43.0,12.25,47.0,70.65,-17.425,1.20735109375,33.77
2021-06-23 11:20:09.812500000,-43.0,12.0,47.0,70.65,-4.82,1.20755125,33.77
2021-06-23 11:20:09.820312500,-43.0,12.0,47.0,70.65,6.004999999999999,1.20775140625,33.77
2021-06-23 11:20:09.828125000,-43.0,12.0,47.0,70.65,16.83,1.2079515625000001,33.77
2021-06-23 11:20:09.835937500,-43.0,12.0,47.0,70.65,25.355,1.2081517187500002,33.77
2021-06-23 11:20:09.843750000,-43.0,12.0,47.0,70.65,33.88,1.208351875,33.77
2021-06-23 11:20:09.851562500,-43.0,12.0,47.0,70.65,40.1,1.20855203125,33.77
2021-06-23 11:20:09.859375000,-43.0,12.0,47.0,70.65,46.32,1.2087521875,33.77
2021-06-23 11:20:09.867187500,-43.0,12.0,47.0,70.65,50.455,1.20895234375,33.77
2021-06-23 11:20:09.875000000,-43.0,12.0,47.0,70.65,54.59,1.2091525,33.77
2021-06-23 11:20:09.882812500,-43.0,12.25,47.0,70.65,56.93000000000001,1.20935265625,33.77
2021-06-23 11:20:09.890625000,-43.0,12.5,47.0,70.65,59.27,1.2095528125000001,33.77
2021-06-23 11:20:09.898437500,-43.0,12.75,47.0,70.65,60.08,1.2097529687500002,33.77
2021-06-23 11:20:09.906250000,-43.0,13.0,47.0,70.65,60.89,1.2099531250000002,33.77
2021-06-23 11:20:09.914062500,-43.0,12.75,47.0,70.65,60.44,1.21015328125,33.77
2021-06-23 11:20:09.921875000,-43.0,12.5,47.0,70.65,59.99,1.2103534375,33.77
2021-06-23 11:20:09.929687500,-43.0,12.25,47.0,70.65,58.66,1.21055359375,33.77
2021-06-23 11:20:09.937500000,-43.0,12.0,47.0,70.65,57.33,1.21075375,33.77
2021-06-23 11:20:09.945312500,-43.0,12.0,47.0,70.65,55.614999999999995,1.21095390625,33.77
2021-06-23 11:20:09.953125000,-43.0,12.0,47.0,70.65,53.9,1.2111540625000001,33.77
2021-06-23 11:20:09.960937500,-43.0,12.0,47.0,70.65,52.315,1.2113542187500002,33.77
2021-06-23 11:20:09.968750000,-43.0,12.0,47.0,70.65,50.73,1.211554375,33.77
2021-06-23 11:20:09.976562500,-43.0,12.0,47.0,70.65,49.68,1.21175453125,33.77
2021-06-23 11:20:09.984375000,-43.0,12.0,47.0,70.65,48.63,1.2119546875,33.77
2021-06-23 11:20:09.992187500,-43.0,12.0,47.0,70.65,48.295,1.21215484375,33.77
2021-06-23 11:20:10.000000000,-43.0,12.0,47.0,70.65,47.96,1.212355,33.77
2021-06-23 11:20:10.007812500,-43.0,12.25,47.0,70.65015625000001,48.260000000000005,1.2121148125,33.77
2021-06-23 11:20:10.015625000,-43.0,12.5,47.0,70.65031250000001,48.56,1.211874625,33.77
2021-06-23 11:20:10.023437500,-43.0,12.75,47.0,70.65046875,49.21,1.2116344375,33.77
2021-06-23 11:20:10.031250000,-43.0,13.0,47.0,70.650625,49.86,1.2113942500000001,33.77
2021-06-23 11:20:10.039062500,-43.0,12.75,47.0,70.65078125000001,50.504999999999995,1.2111540625000001,33.77
2021-06-23 11:20:10.046875000,-43.0,12.5,47.0,70.65093750000001,51.15,1.2109138750000001,33.77
2021-06-23 11:20:10.054687500,-43.0,12.25,47.0,70.65109375,51.54,1.2106736875000002,33.77
2021-06-23 11:20:10.062500000,-43.0,12.0,47.0,70.65125,51.93,1.2104335000000002,33.77
2021-06-23 11:20:10.070312500,-43.0,12.25,47.0,70.65140625000001,51.975,1.2101933125,33.77
2021-06-23 11:20:10.078125000,-43.0,12.5,47.0,70.65156250000001,52.02,1.209953125,33.77
2021-06-23 11:20:10.085937500,-43.0,12.75,47.0,70.65171875,51.83,1.2097129375,33.77
2021-06-23 11:20:10.093750000,-43.0,13.0,47.0,70.651875,51.64,1.20947275,33.77
2021-06-23 11:20:10.101562500,-43.0,13.0,47.0,70.65203125000001,51.405,1.2092325625,33.77
2021-06-23 11:20:10.109375000,-43.0,13.0,47.0,70.65218750000001,51.17,1.208992375,33.77
2021-06-23 11:20:10.117187500,-43.0,13.0,47.0,70.65234375,51.045,1.2087521875,33.77
2021-06-23 11:20:10.125000000,-43.0,13.0,47.0,70.6525,50.92,1.208512,33.77
2021-06-23 11:20:10.132812500,-43.0,12.75,47.0,70.65265625,50.875,1.2082718125,33.77
2021-06-23 11:20:10.140625000,-43.0,12.5,47.0,70.65281250000001,50.83,1.208031625,33.77
2021-06-23 11:20:10.148437500,-43.0,12.25,47.0,70.65296875,50.64,1.2077914375,33.77
2021-06-23 11:20:10.156250000,-43.0,12.0,47.0,70.653125,50.45,1.20755125,33.77
2021-06-23 11:20:10.164062500,-43.0,12.0,47.0,70.65328125,49.775000000000006,1.2073110625,33.77
2021-06-23 11:20:10.171875000,-43.0,12.0,47.0,70.65343750000001,49.1,1.207070875,33.77
2021-06-23 11:20:10.179687500,-43.0,12.0,47.0,70.65359375,47.64,1.2068306875,33.77
2021-06-23 11:20:10.187500000,-43.0,12.0,47.0,70.65375,46.18,1.2065905,33.77
2021-06-23 11:20:10.195312500,-43.0,12.0,47.0,70.65390625,43.82,1.2063503125,33.77
2021-06-23 11:20:10.203125000,-43.0,12.0,47.0,70.65406250000001,41.46,1.206110125,33.77
2021-06-23 11:20:10.210937500,-43.0,12.0,47.0,70.65421875,38.335,1.2058699375,33.77
2021-06-23 11:20:10.218750000,-43.0,12.0,47.0,70.654375,35.21,1.20562975,33.77
2021-06-23 11:20:10.226562500,-43.0,12.0,47.0,70.65453125,31.65,1.2053895625,33.77
2021-06-23 11:20:10.234375000,-43.0,12.0,47.0,70.65468750000001,28.09,1.205149375,33.77
2021-06-23 11:20:10.242187500,-43.0,12.0,47.0,70.65484375,24.505000000000003,1.2049091875,33.77
2021-06-23 11:20:10.250000000,-43.0,12.0,47.0,70.655,20.92,1.204669,33.77
2021-06-23 11:20:10.257812500,-43.0,12.0,47.0,70.65515625,17.64,1.204829125,33.77
2021-06-23 11:20:10.265625000,-43.0,12.0,47.0,70.65531250000001,14.36,1.20498925,33.77
2021-06-23 11:20:10.273437500,-43.0,12.0,47.0,70.65546875000001,11.524999999999999,1.205149375,33.77
2021-06-23 11:20:10.281250000,-43.0,12.0,47.0,70.655625,8.69,1.2053095,33.77
2021-06-23 11:20:10.289062500,-43.0,12.0,47.0,70.65578125,6.2749999999999995,1.2054696249999999,33.77
2021-06-23 11:20:10.296875000,-43.0,12.0,47.0,70.65593750000001,3.86,1.20562975,33.77
2021-06-23 11:20:10.304687500,-43.0,12.0,47.0,70.65609375000001,1.6800000000000002,1.205789875,33.77
2021-06-23 11:20:10.312500000,-43.0,12.0,47.0,70.65625,-0.5,1.20595,33.77
2021-06-23 11:20:10.320312500,-43.0,12.25,47.0,70.65640625,-2.65,1.206110125,33.77
2021-06-23 11:20:10.328125000,-43.0,12.5,47.0,70.6565625,-4.8,1.20627025,33.77
2021-06-23 11:20:10.335937500,-43.0,12.75,47.0,70.65671875000001,-7.0600000000000005,1.206430375,33.77
2021-06-23 11:20:10.343750000,-43.0,13.0,47.0,70.656875,-9.32,1.2065905,33.77
2021-06-23 11:20:10.351562500,-43.0,12.75,47.0,70.65703125,-11.7,1.206750625,33.77
2021-06-23 11:20:10.359375000,-43.0,12.5,47.0,70.6571875,-14.08,1.20691075,33.77
2021-06-23 11:20:10.367187500,-43.0,12.25,47.0,70.65734375000001,-16.485,1.2070708749999999,33.77
2021-06-23 11:20:10.375000000,-43.0,12.0,47.0,70.6575,-18.89,1.207231,33.77
2021-06-23 11:20:10.382812500,-43.0,12.0,47.0,70.65765625,-21.18,1.207391125,33.77
2021-06-23 11:20:10.390625000,-43.0,12.0,47.0,70.6578125,-23.47,1.2075512499999999,33.77
2021-06-23 11:20:10.398437500,-43.0,12.0,47.0,70.65796875000001,-25.505,1.207711375,33.77
2021-06-23 11:20:10.406250000,-43.0,12.0,47.0,70.658125,-27.54,1.2078715,33.77
2021-06-23 11:20:10.414062500,-43.0,12.0,47.0,70.65828125,-29.31,1.2080316249999998,33.77
2021-06-23 11:20:10.421875000,-43.0,12.0,47.0,70.6584375,-31.08,1.20819175,33.77
2021-06-23 11:20:10.429687500,-43.0,12.0,47.0,70.65859375000001,-32.705,1.208351875,33.77
2021-06-23 11:20:10.437500000,-43.0,12.0,47.0,70.65875,-34.33,1.2085119999999998,33.77
2021-06-23 11:20:10.445312500,-43.0,12.0,47.0,70.65890625,-36.06,1.2086721249999999,33.77
2021-06-23 11:20:10.453125000,-43.0,12.0,47.0,70.6590625,-37.79,1.20883225,33.77
2021-06-23 11:20:10.460937500,-43.0,12.0,47.0,70.65921875000001,-39.955,1.208992375,33.77
2021-06-23 11:20:10.468750000,-43.0,12.0,47.0,70.659375,-42.12,1.2091524999999999,33.77
2021-06-23 11:20:10.476562500,-43.0,12.0,47.0,70.65953125,-45.095,1.209312625,33.77
2021-06-23 11:20:10.484375000,-43.0,12.0,47.0,70.6596875,-48.07,1.20947275,33.77
2021-06-23 11:20:10.492187500,-43.0,12.0,47.0,70.65984375000001,-52.129999999999995,1.2096328749999998,33.77
2021-06-23 11:20:10.500000000,-43.0,12.0,47.0,70.66,-56.19,1.209793,33.77
2021-06-23 11:20:10.507812500,-43.0,12.0,47.0,70.66015625,-61.4,1.20955278125,33.77
2021-06-23 11:20:10.515625000,-43.0,12.0,47.0,70.6603125,-66.61,1.2093125624999999,33.77
2021-06-23 11:20:10.523437500,-43.0,12.0,47.0,70.66046875,-72.66,1.20907234375,33.77
2021-06-23 11:20:10.531250000,-43.0,12.0,47.0,70.66062500000001,-78.71,1.2088321249999998,33.77
2021-06-23 11:20:10.539062500,-43.0,12.0,46.75,70.66078125,-84.79499999999999,1.20859190625,33.77
2021-06-23 11:20:10.546875000,-43.0,12.0,46.5,70.6609375,-90.88,1.2083516875,33.77
2021-06-23 11:20:10.554687500,-43.0,12.0,46.25,70.66109375,-95.75999999999999,1.2081114687499999,33.77
2021-06-23 11:20:10.562500000,-43.0,12.0,46.0,70.66125000000001,-100.64,1.20787125,33.77
2021-06-23 11:20:10.570312500,-43.0,12.0,46.25,70.66140625,-102.925,1.2076310312499998,33.77
2021-06-23 11:20:10.578125000,-43.0,12.0,46.5,70.6615625,-105.21,1.2073908125,33.77
2021-06-23 11:20:10.585937500,-43.0,12.0,46.75,70.66171875,-103.775,1.20715059375,33.77
2021-06-23 11:20:10.593750000,-43.0,12.0,47.0,70.66187500000001,-102.34,1.2069103749999999,33.77
2021-06-23 11:20:10.601562500,-43.0,12.0,47.0,70.66203125,-96.80000000000001,1.20667015625,33.77
2021-06-23 11:20:10.609375000,-43.0,12.0,47.0,70.6621875,-91.26,1.2064299374999998,33.77
2021-06-23 11:20:10.617187500,-43.0,12.0,47.0,70.66234375,-82.14500000000001,1.20618971875,33.77
2021-06-23 11:20:10.625000000,-43.0,12.0,47.0,70.66250000000001,-73.03,1.2059495,33.77
2021-06-23 11:20:10.632812500,-43.0,12.0,47.0,70.66265625,-61.644999999999996,1.2057092812499999,33.77
2021-06-23 11:20:10.640625000,-43.0,12.0,47.0,70.6628125,-50.26,1.2054690625,33.77
2021-06-23 11:20:10.648437500,-43.0,12.0,47.0,70.66296875,-38.225,1.2052288437499998,33.77
2021-06-23 11:20:10.656250000,-43.0,12.0,47.0,70.66312500000001,-26.19,1.204988625,33.77
2021-06-23 11:20:10.664062500,-43.0,12.0,47.0,70.66328125,-14.93,1.2047484062499998,33.77
2021-06-23 11:20:10.671875000,-43.0,12.0,47.0,70.6634375,-3.67,1.2045081874999999,33.77
2021-06-23 11:20:10.679687500,-43.0,12.0,47.0,70.66359375,5.924999999999999,1.20426796875,33.77
2021-06-23 11:20:10.687500000,-43.0,12.0,47.0,70.66375000000001,15.52,1.2040277499999998,33.77
2021-06-23 11:20:10.695312500,-43.0,12.0,47.0,70.66390625,23.16,1.20378753125,33.77
2021-06-23 11:20:10.703125000,-43.0,12.0,47.0,70.6640625,30.8,1.2035473124999998,33.77
2021-06-23 11:20:10.710937500,-43.0,12.0,47.0,70.66421875,36.575,1.20330709375,33.77
2021-06-23 11:20:10.718750000,-43.0,12.0,47.0,70.664375,42.35,1.203066875,33.77
2021-06-23 11:20:10.726562500,-43.0,12.0,47.0,70.66453125,46.455,1.2028266562499998,33.77
2021-06-23 11:20:10.734375000,-43.0,12.0,47.0,70.6646875,50.56,1.2025864375,33.77
2021-06-23 11:20:10.742187500,-43.0,12.0,47.0,70.66484375,53.120000000000005,1.2023462187499998,33.77
2021-06-23 11:20:10.750000000,-43.0,12.0,47.0,70.665,55.68,1.202106,33.77
2021-06-23 11:20:10.757812500,-43.0,12.0,47.0,70.66515625000001,56.769999999999996,1.20218609375,33.77
2021-06-23 11:20:10.765625000,-43.0,12.0,47.0,70.6653125,57.86,1.2022661874999998,33.77
2021-06-23 11:20:10.773437500,-43.0,12.0,47.0,70.66546875,57.614999999999995,1.2023462812499999,33.77
2021-06-23 11:20:10.781250000,-43.0,12.0,47.0,70.665625,57.37,1.202426375,33.77
2021-06-23 11:20:10.789062500,-43.0,12.0,47.0,70.66578125000001,56.095,1.20250646875,33.77
2021-06-23 11:20:10.796875000,-43.0,12.0,47.0,70.6659375,54.82,1.2025865624999998,33.77
2021-06-23 11:20:10.804687500,-43.0,12.0,47.0,70.66609375,53.015,1.20266665625,33.77
2021-06-23 11:20:10.812500000,-43.0,12.0,47.0,70.66625,51.21,1.20274675,33.77
2021-06-23 11:20:10.820312500,-43.0,12.0,47.0,70.66640625000001,49.43,1.2028268437499998,33.77
2021-06-23 11:20:10.828125000,-43.0,12.0,47.0,70.6665625,47.65,1.2029069374999999,33.77
2021-06-23 11:20:10.835937500,-43.0,12.0,47.0,70.66671875,46.349999999999994,1.20298703125,33.77
2021-06-23 11:20:10.843750000,-43.0,12.0,47.0,70.666875,45.05,1.203067125,33.77
2021-06-23 11:20:10.851562500,-43.0,12.0,47.0,70.66703125000001,44.45,1.2031472187499999,33.77
2021-06-23 11:20:10.859375000,-43.0,12.0,47.0,70.6671875,43.85,1.2032273125,33.77
2021-06-23 11:20:10.867187500,-43.0,12.0,47.0,70.66734375,43.89,1.20330740625,33.77
2021-06-23 11:20:10.875000000,-43.0,12.0,47.0,70.6675,43.93,1.2033874999999998,33.77
2021-06-23 11:20:10.882812500,-43.0,12.0,47.0,70.66765625000001,44.370000000000005,1.20346759375,33.77
2021-06-23 11:20:10.890625000,-43.0,12.0,47.0,70.6678125,44.81,1.2035476875,33.77
2021-06-23 11:20:10.898437500,-43.0,12.0,47.0,70.66796875,45.34,1.20362778125,33.77
2021-06-23 11:20:10.906250000,-43.0,12.0,47.0,70.668125,45.87,1.2037078749999999,33.77
2021-06-23 11:20:10.914062500,-43.0,12.0,47.0,70.66828125,46.245,1.20378796875,33.77
2021-06-23 11:20:10.921875000,-43.0,12.0,47.0,70.6684375,46.62,1.2038680625,33.77
2021-06-23 11:20:10.929687500,-43.0,12.0,47.0,70.66859375,46.745,1.20394815625,33.77
2021-06-23 11:20:10.937500000,-43.0,12.0,47.0,70.66875,46.87,1.20402825,33.77
2021-06-23 11:20:10.945312500,-43.0,12.0,47.0,70.66890625,46.739999999999995,1.20410834375,33.77
2021-06-23 11:20:10.953125000,-43.0,12.0,47.0,70.6690625,46.61,1.2041884375,33.77
2021-06-23 11:20:10.960937500,-43.0,12.0,47.0,70.66921875,46.295,1.2042685312499999,33.77
2021-06-23 11:20:10.968750000,-43.0,12.0,47.0,70.669375,45.98,1.204348625,33.77
2021-06-23 11:20:10.976562500,-43.0,12.0,47.0,70.66953125,45.44499999999999,1.20442871875,33.77
2021-06-23 11:20:10.984375000,-43.0,12.0,47.0,70.6696875,44.91,1.2045088125,33.77
2021-06-23 11:20:10.992187500,-43.0,12.0,47.0,70.66984375,44.015,1.20458890625,33.77
2021-06-23 11:20:11.000000000,-43.0,12.0,47.0,70.67,43.12,1.204669,33.77
2021-06-23 11:20:11.007812500,-43.0,12.25,47.0,70.670234375,41.655,1.20470903125,33.769375000000004
2021-06-23 11:20:11.015625000,-43.0,12.5,47.0,70.67046875,40.19,1.2047490625,33.768750000000004
2021-06-23 11:20:11.023437500,-43.0,12.75,47.0,70.670703125,37.959999999999994,1.20478909375,33.768125000000005
2021-06-23 11:20:11.031250000,-43.0,13.0,47.0,70.67093750000001,35.73,1.204829125,33.767500000000005
2021-06-23 11:20:11.039062500,-43.0,12.75,47.0,70.671171875,32.685,1.20486915625,33.766875000000006
2021-06-23 11:20:11.046875000,-43.0,12.5,47.0,70.67140625,29.64,1.2049091875,33.76625
2021-06-23 11:20:11.054687500,-43.0,12.25,47.0,70.671640625,25.939999999999998,1.20494921875,33.765625
2021-06-23 11:20:11.062500000,-43.0,12.0,47.0,70.671875,22.24,1.2049892500000001,33.765
2021-06-23 11:20:11.070312500,-43.0,12.0,47.0,70.672109375,18.215,1.20502928125,33.764375
2021-06-23 11:20:11.078125000,-43.0,12.0,47.0,70.67234375,14.19,1.2050693125,33.76375
2021-06-23 11:20:11.085937500,-43.0,12.0,47.0,70.672578125,10.27,1.20510934375,33.763125
2021-06-23 11:20:11.093750000,-43.0,12.0,47.0,70.6728125,6.35,1.205149375,33.7625
2021-06-23 11:20:11.101562500,-43.0,12.0,47.0,70.673046875,2.905,1.20518940625,33.761875
2021-06-23 11:20:11.109375000,-43.0,12.0,47.0,70.67328125,-0.54,1.2052294375000001,33.761250000000004
2021-06-23 11:20:11.117187500,-43.0,12.0,47.0,70.67351562500001,-3.31,1.20526946875,33.760625000000005
2021-06-23 11:20:11.125000000,-43.0,12.0,47.0,70.67375,-6.08,1.2053095,33.760000000000005
2021-06-23 11:20:11.132812500,-43.0,12.0,47.0,70.673984375,-8.205,1.20534953125,33.759375
2021-06-23 11:20:11.140625000,-43.0,12.0,47.0,70.67421875000001,-10.33,1.2053895625,33.75875
2021-06-23 11:20:11.148437500,-43.0,12.0,47.0,70.674453125,-12.030000000000001,1.2054295937500001,33.758125
2021-06-23 11:20:11.156250000,-43.0,12.0,47.0,70.6746875,-13.73,1.205469625,33.7575
2021-06-23 11:20:11.164062500,-43.0,12.0,47.0,70.674921875,-15.355,1.20550965625,33.756875
2021-06-23 11:20:11.171875000,-43.0,12.0,47.0,70.67515625,-16.98,1.2055496875,33.75625
2021-06-23 11:20:11.179687500,-43.0,12.0,47.0,70.675390625,-18.855,1.20558971875,33.755625
2021-06-23 11:20:11.187500000,-43.0,12.0,47.0,70.675625,-20.73,1.20562975,33.755
2021-06-23 11:20:11.195312500,-43.0,12.0,47.0,70.675859375,-23.015,1.2056697812500001,33.754375
2021-06-23 11:20:11.203125000,-43.0,12.0,47.0,70.67609375,-25.3,1.2057098125,33.753750000000004
2021-06-23 11:20:11.210937500,-43.0,12.0,47.0,70.676328125,-27.93,1.20574984375,33.753125
2021-06-23 11:20:11.218750000,-43.0,12.0,47.0,70.6765625,-30.56,1.205789875,33.7525
2021-06-23 11:20:11.226562500,-43.0,12.0,47.0,70.67679687500001,-33.255,1.20582990625,33.751875
2021-06-23 11:20:11.234375000,-43.0,12.0,47.0,70.67703125,-35.95,1.2058699375000002,33.75125
2021-06-23 11:20:11.242187500,-43.0,12.0,47.0,70.677265625,-38.35,1.2059099687500001,33.750625
2021-06-23 11:20:11.250000000,-43.0,12.0,47.0,70.67750000000001,-40.75,1.20595,33.75
2021-06-23 11:20:11.257812500,-43.0,12.0,47.0,70.677734375,-42.56,1.20595,33.75
2021-06-23 11:20:11.265625000,-43.0,12.0,47.0,70.67796875,-44.37,1.20595,33.75
2021-06-23 11:20:11.273437500,-43.0,12.0,47.0,70.678203125,-45.555,1.20595,33.75
2021-06-23 11:20:11.281250000,-43.0,12.0,47.0,70.6784375,-46.74,1.20595,33.75
2021-06-23 11:20:11.289062500,-43.0,12.0,47.0,70.678671875,-47.515,1.20595,33.75
2021-06-23 11:20:11.296875000,-43.0,12.0,47.0,70.67890625,-48.29,1.20595,33.75
2021-06-23 11:20:11.304687500,-43.0,12.0,47.0,70.679140625,-49.07,1.20595,33.75
2021-06-23 11:20:11.312500000,-43.0,12.0,47.0,70.67937500000001,-49.85,1.20595,33.75
2021-06-23 11:20:11.320312500,-43.0,12.0,47.0,70.679609375,-51.120000000000005,1.20595,33.75
2021-06-23 11:20:11.328125000,-43.0,12.0,47.0,70.67984375,-52.39,1.20595,33.75
2021-06-23 11:20:11.335937500,-43.0,12.0,47.0,70.68007812500001,-54.545,1.20595,33.75
2021-06-23 11:20:11.343750000,-43.0,12.0,47.0,70.6803125,-56.7,1.20595,33.75
2021-06-23 11:20:11.351562500,-43.0,12.0,47.0,70.680546875,-59.945,1.20595,33.75
2021-06-23 11:20:11.359375000,-43.0,12.0,47.0,70.68078125,-63.19,1.20595,33.75
2021-06-23 11:20:11.367187500,-43.0,12.0,47.0,70.681015625,-67.425,1.20595,33.75
2021-06-23 11:20:11.375000000,-43.0,12.0,47.0,70.68125,-71.66,1.20595,33.75
2021-06-23 11:20:11.382812500,-43.0,12.0,47.0,70.681484375,-76.41499999999999,1.20595,33.75
2021-06-23 11:20:11.390625000,-43.0,12.0,47.0,70.68171875,-81.17,1.20595,33.75
2021-06-23 11:20:11.398437500,-43.0,12.0,47.0,70.681953125,-85.61500000000001,1.20595,33.75
2021-06-23 11:20:11.406250000,-43.0,12.0,47.0,70.6821875,-90.06,1.20595,33.75
2021-06-23 11:20:11.414062500,-43.0,12.0,47.0,70.682421875,-93.1,1.20595,33.75
2021-06-23 11:20:11.421875000,-43.0,12.0,47.0,70.68265625000001,-96.14,1.20595,33.75
2021-06-23 11:20:11.429687500,-43.0,12.0,47.0,70.682890625,-96.68,1.20595,33.75
2021-06-23 11:20:11.437500000,-43.0,12.0,47.0,70.683125,-97.22,1.20595,33.75
2021-06-23 11:20:11.445312500,-43.0,12.0,47.0,70.68335937500001,-94.485,1.20595,33.75
2021-06-23 11:20:11.453125000,-43.0,12.0,47.0,70.68359375,-91.75,1.20595,33.75
2021-06-23 11:20:11.460937500,-43.0,12.0,47.0,70.683828125,-85.61500000000001,1.20595,33.75
2021-06-23 11:20:11.468750000,-43.0,12.0,47.0,70.6840625,-79.48,1.20595,33.75
2021-06-23 11:20:11.476562500,-42.75,12.0,47.0,70.684296875,-70.53,1.20595,33.75
2021-06-23 11:20:11.484375000,-42.5,12.0,47.0,70.68453125,-61.58,1.20595,33.75
2021-06-23 11:20:11.492187500,-42.25,12.0,47.0,70.684765625,-50.980000000000004,1.20595,33.75
2021-06-23 11:20:11.500000000,-42.0,12.0,47.0,70.685,-40.38,1.20595,33.75
2021-06-23 11:20:11.507812500,-42.25,12.0,47.0,70.68523437500001,-29.51,1.2059099687500001,33.75
2021-06-23 11:20:11.515625000,-42.5,12.0,47.0,70.68546875,-18.64,1.2058699375000002,33.75
2021-06-23 11:20:11.523437500,-42.75,12.0,47.0,70.685703125,-8.67,1.20582990625,33.75
2021-06-23 11:20:11.531250000,-43.0,12.0,47.0,70.68593750000001,1.3,1.205789875,33.75
2021-06-23 11:20:11.539062500,-43.0,12.0,47.0,70.686171875,9.625,1.20574984375,33.75
2021-06-23 11:20:11.546875000,-43.0,12.0,47.0,70.68640625,17.95,1.2057098125,33.75
2021-06-23 11:20:11.554687500,-43.0,12.0,47.0,70.686640625,24.35,1.2056697812500001,33.75
2021-06-23 11:20:11.562500000,-43.0,12.0,47.0,70.686875,30.75,1.20562975,33.75
2021-06-23 11:20:11.570312500,-43.0,12.0,47.0,70.687109375,35.245000000000005,1.20558971875,33.75
2021-06-23 11:20:11.578125000,-43.0,12.0,47.0,70.68734375,39.74,1.2055496875,33.75
2021-06-23 11:20:11.585937500,-43.0,12.0,47.0,70.687578125,42.475,1.20550965625,33.75
2021-06-23 11:20:11.593750000,-43.0,12.0,47.0,70.6878125,45.21,1.205469625,33.75
2021-06-23 11:20:11.601562500,-43.0,12.0,47.0,70.688046875,46.335,1.2054295937500001,33.75
2021-06-23 11:20:11.609375000,-43.0,12.0,47.0,70.68828125,47.46,1.2053895625,33.75
2021-06-23 11:20:11.617187500,-43.0,12.0,47.0,70.68851562500001,47.144999999999996,1.20534953125,33.75
2021-06-23 11:20:11.625000000,-43.0,12.0,47.0,70.68875,46.83,1.2053095,33.75
2021-06-23 11:20:11.632812500,-43.0,12.0,47.0,70.688984375,45.379999999999995,1.20526946875,33.75
2021-06-23 11:20:11.640625000,-43.0,12.0,47.0,70.68921875000001,43.93,1.2052294375000001,33.75
2021-06-23 11:20:11.648437500,-43.0,12.0,47.0,70.689453125,41.81,1.20518940625,33.75
2021-06-23 11:20:11.656250000,-43.0,12.0,47.0,70.6896875,39.69,1.205149375,33.75
2021-06-23 11:20:11.664062500,-43.0,12.0,47.0,70.689921875,37.485,1.20510934375,33.75
2021-06-23 11:20:11.671875000,-43.0,12.0,47.0,70.69015625,35.28,1.2050693125,33.75
2021-06-23 11:20:11.679687500,-43.0,12.0,47.0,70.690390625,33.55,1.20502928125,33.75
2021-06-23 11:20:11.687500000,-43.0,12.0,47.0,70.690625,31.82,1.2049892500000001,33.75
2021-06-23 11:20:11.695312500,-43.0,12.0,47.0,70.690859375,30.93,1.20494921875,33.75
2021-06-23 11:20:11.703125000,-43.0,12.0,47.0,70.69109375000001,30.04,1.2049091875,33.75
2021-06-23 11:20:11.710937500,-43.0,12.0,47.0,70.691328125,30.08,1.20486915625,33.75
2021-06-23 11:20:11.718750000,-43.0,12.0,47.0,70.6915625,30.12,1.204829125,33.75
2021-06-23 11:20:11.726562500,-43.0,12.0,47.0,70.69179687500001,30.875,1.20478909375,33.75
2021-06-23 11:20:11.734375000,-43.0,12.0,47.0,70.69203125,31.63,1.2047490625,33.75
2021-06-23 11:20:11.742187500,-43.0,12.0,47.0,70.692265625,32.714999999999996,1.20470903125,33.75
2021-06-23 11:20:11.750000000,-43.0,12.0,47.0,70.6925,33.8,1.204669,33.75
2021-06-23 11:20:11.757812500,-43.0,12.0,47.0,70.692734375,34.855,1.20470903125,33.75
2021-06-23 11:20:11.765625000,-43.0,12.0,47.0,70.69296875,35.91,1.2047490625,33.75
2021-06-23 11:20:11.773437500,-43.0,12.0,47.0,70.693203125,36.724999999999994,1.20478909375,33.75
2021-06-23 11:20:11.781250000,-43.0,12.0,47.0,70.6934375,37.54,1.204829125,33.75
2021-06-23 11:20:11.789062500,-43.0,12.0,47.0,70.693671875,38.099999999999994,1.20486915625,33.75
2021-06-23 11:20:11.796875000,-43.0,12.0,47.0,70.69390625,38.66,1.2049091875,33.75
2021-06-23 11:20:11.804687500,-43.0,12.0,47.0,70.694140625,39.084999999999994,1.20494921875,33.75
2021-06-23 11:20:11.812500000,-43.0,12.0,47.0,70.69437500000001,39.51,1.2049892500000001,33.75
2021-06-23 11:20:11.820312500,-43.0,12.0,47.0,70.694609375,39.894999999999996,1.20502928125,33.75
2021-06-23 11:20:11.828125000,-43.0,12.0,47.0,70.69484375,40.28,1.2050693125,33.75
2021-06-23 11:20:11.835937500,-43.0,12.0,47.0,70.69507812500001,40.59,1.20510934375,33.75
2021-06-23 11:20:11.843750000,-43.0,12.0,47.0,70.6953125,40.9,1.205149375,33.75
2021-06-23 11:20:11.851562500,-43.0,12.0,47.0,70.695546875,40.93,1.20518940625,33.75
2021-06-23 11:20:11.859375000,-43.0,12.0,47.0,70.69578125,40.96,1.2052294375000001,33.75
2021-06-23 11:20:11.867187500,-43.0,12.0,47.0,70.696015625,40.39,1.20526946875,33.75
2021-06-23 11:20:11.875000000,-43.0,12.0,47.0,70.69625,39.82,1.2053095,33.75
2021-06-23 11:20:11.882812500,-43.0,12.0,47.0,70.696484375,38.379999999999995,1.20534953125,33.75
2021-06-23 11:20:11.890625000,-43.0,12.0,47.0,70.69671875,36.94,1.2053895625,33.75
2021-06-23 11:20:11.898437500,-43.0,12.0,47.0,70.69695312500001,34.545,1.2054295937500001,33.75
2021-06-23 11:20:11.906250000,-43.0,12.0,47.0,70.6971875,32.15,1.205469625,33.75
2021-06-23 11:20:11.914062500,-43.0,12.0,47.0,70.697421875,28.96,1.20550965625,33.75
2021-06-23 11:20:11.921875000,-43.0,12.0,47.0,70.69765625000001,25.77,1.2055496875,33.75
2021-06-23 11:20:11.929687500,-43.0,12.0,47.0,70.697890625,22.134999999999998,1.20558971875,33.75
2021-06-23 11:20:11.937500000,-43.0,12.0,47.0,70.698125,18.5,1.20562975,33.75
2021-06-23 11:20:11.945312500,-43.0,12.0,47.0,70.69835937500001,14.855,1.2056697812500001,33.75
2021-06-23 11:20:11.953125000,-43.0,12.0,47.0,70.69859375,11.21,1.2057098125,33.75
2021-06-23 11:20:11.960937500,-43.0,12.0,47.0,70.698828125,7.91,1.20574984375,33.75
2021-06-23 11:20:11.968750000,-43.0,12.0,47.0,70.6990625,4.61,1.205789875,33.75
2021-06-23 11:20:11.976562500,-43.0,12.0,47.0,70.699296875,1.79,1.20582990625,33.75
2021-06-23 11:20:11.984375000,-43.0,12.0,47.0,70.69953125,-1.03,1.2058699375000002,33.75
2021-06-23 11:20:11.992187500,-43.0,12.0,47.0,70.699765625,-3.4299999999999997,1.2059099687500001,33.75
2021-06-23 11:20:12.000000000,-43.0,12.0,47.0,70.7,-5.83,1.20595,33.75
2021-06-23 11:20:12.007812500,-43.0,12.25,47.0,70.69984375,-8.035,1.2059099687500001,33.75
2021-06-23 11:20:12.015625000,-43.0,12.5,47.0,70.6996875,-10.24,1.2058699375000002,33.75
2021-06-23 11:20:12.023437500,-43.0,12.75,47.0,70.69953125,-12.475000000000001,1.20582990625,33.75
2021-06-23 11:20:12.031250000,-43.0,13.0,47.0,70.699375,-14.71,1.205789875,33.75
2021-06-23 11:20:12.039062500,-43.0,12.75,47.0,70.69921875,-17.12,1.20574984375,33.75
2021-06-23 11:20:12.046875000,-43.0,12.5,47.0,70.6990625,-19.53,1.2057098125,33.75
2021-06-23 11:20:12.054687500,-43.0,12.25,47.0,70.69890625000001,-22.075000000000003,1.2056697812500001,33.75
2021-06-23 11:20:12.062500000,-43.0,12.0,47.0,70.69875,-24.62,1.20562975,33.75
2021-06-23 11:20:12.070312500,-43.0,12.0,47.0,70.69859375,-27.155,1.20558971875,33.75
2021-06-23 11:20:12.078125000,-43.0,12.0,47.0,70.6984375,-29.69,1.2055496875,33.75
2021-06-23 11:20:12.085937500,-43.0,12.0,47.0,70.69828125000001,-32.03,1.20550965625,33.75
2021-06-23 11:20:12.093750000,-43.0,12.0,47.0,70.698125,-34.37,1.205469625,33.75
2021-06-23 11:20:12.101562500,-43.0,12.0,47.0,70.69796875,-36.425,1.2054295937500001,33.75
2021-06-23 11:20:12.109375000,-43.0,12.0,47.0,70.6978125,-38.48,1.2053895625,33.75
2021-06-23 11:20:12.117187500,-43.0,12.0,47.0,70.69765625000001,-40.325,1.20534953125,33.75
2021-06-23 11:20:12.125000000,-43.0,12.0,47.0,70.6975,-42.17,1.2053095,33.75
2021-06-23 11:20:12.132812500,-43.0,12.0,47.0,70.69734375,-44.05,1.20526946875,33.75
2021-06-23 11:20:12.140625000,-43.0,12.0,47.0,70.6971875,-45.93,1.2052294375000001,33.75
2021-06-23 11:20:12.148437500,-43.0,12.0,47.0,70.69703125000001,-48.195,1.20518940625,33.75
2021-06-23 11:20:12.156250000,-43.0,12.0,47.0,70.696875,-50.46,1.205149375,33.75
2021-06-23 11:20:12.164062500,-43.0,12.0,47.0,70.69671875,-53.45,1.20510934375,33.75
2021-06-23 11:20:12.171875000,-43.0,12.0,47.0,70.6965625,-56.44,1.2050693125,33.75
2021-06-23 11:20:12.179687500,-43.0,12.0,47.0,70.69640625000001,-60.37,1.20502928125,33.75
2021-06-23 11:20:12.187500000,-43.0,12.0,47.0,70.69625,-64.3,1.2049892500000001,33.75
2021-06-23 11:20:12.195312500,-43.0,12.0,47.0,70.69609375,-69.095,1.20494921875,33.75
2021-06-23 11:20:12.203125000,-43.0,12.0,47.0,70.6959375,-73.89,1.2049091875,33.75
2021-06-23 11:20:12.210937500,-43.0,12.0,47.0,70.69578125000001,-79.14,1.20486915625,33.75
2021-06-23 11:20:12.218750000,-43.0,12.0,47.0,70.695625,-84.39,1.204829125,33.75
2021-06-23 11:20:12.226562500,-43.0,12.0,47.0,70.69546875,-89.305,1.20478909375,33.75
2021-06-23 11:20:12.234375000,-43.0,12.0,47.0,70.6953125,-94.22,1.2047490625,33.75
2021-06-23 11:20:12.242187500,-43.0,12.0,47.0,70.69515625000001,-97.78999999999999,1.20470903125,33.75
2021-06-23 11:20:12.250000000,-43.0,12.0,47.0,70.69500000000001,-101.36,1.204669,33.75
2021-06-23 11:20:12.257812500,-43.0,12.0,47.0,70.69484375,-102.535,1.204669,33.75
2021-06-23 11:20:12.265625000,-43.0,12.0,47.0,70.6946875,-103.71,1.204669,33.75
2021-06-23 11:20:12.273437500,-43.0,12.0,47.0,70.69453125,-101.76499999999999,1.204669,33.75
2021-06-23 11:20:12.281250000,-43.0,12.0,47.0,70.69437500000001,-99.82,1.204669,33.75
2021-06-23 11:20:12.289062500,-43.0,12.0,47.0,70.69421875,-94.585,1.204669,33.75
2021-06-23 11:20:12.296875000,-43.0,12.0,47.0,70.6940625,-89.35,1.204669,33.75
2021-06-23 11:20:12.304687500,-43.0,12.0,47.0,70.69390625,-81.3,1.204669,33.75
2021-06-23 11:20:12.312500000,-43.0,12.0,47.0,70.69375000000001,-73.25,1.204669,33.75
2021-06-23 11:20:12.320312500,-43.0,12.0,47.0,70.69359375,-63.375,1.204669,33.75
2021-06-23 11:20:12.328125000,-43.0,12.0,47.0,70.6934375,-53.5,1.204669,33.75
2021-06-23 11:20:12.335937500,-43.0,12.0,47.0,70.69328125,-42.97,1.204669,33.75
2021-06-23 11:20:12.343750000,-43.0,12.0,47.0,70.69312500000001,-32.44,1.204669,33.75
2021-06-23 11:20:12.351562500,-43.0,12.0,47.0,70.69296875,-22.354999999999997,1.204669,33.75
2021-06-23 11:20:12.359375000,-43.0,12.0,47.0,70.6928125,-12.27,1.204669,33.75
2021-06-23 11:20:12.367187500,-43.0,12.0,47.0,70.69265625,-3.379999999999999,1.204669,33.75
2021-06-23 11:20:12.375000000,-43.0,12.0,47.0,70.69250000000001,5.51,1.204669,33.75
2021-06-23 11:20:12.382812500,-43.0,12.0,47.0,70.69234375,12.8,1.204669,33.75
2021-06-23 11:20:12.390625000,-43.0,12.0,47.0,70.6921875,20.09,1.204669,33.75
2021-06-23 11:20:12.398437500,-43.0,12.0,47.0,70.69203125,25.65,1.204669,33.75
2021-06-23 11:20:12.406250000,-43.0,12.0,47.0,70.69187500000001,31.21,1.204669,33.75
2021-06-23 11:20:12.414062500,-43.0,12.0,47.0,70.69171875,35.065,1.204669,33.75
2021-06-23 11:20:12.421875000,-43.0,12.0,47.0,70.6915625,38.92,1.204669,33.75
2021-06-23 11:20:12.429687500,-43.0,12.0,47.0,70.69140625,41.17,1.204669,33.75
2021-06-23 11:20:12.437500000,-43.0,12.0,47.0,70.69125000000001,43.42,1.204669,33.75
2021-06-23 11:20:12.445312500,-43.0,12.0,47.0,70.69109375000001,44.2,1.204669,33.75
2021-06-23 11:20:12.453125000,-43.0,12.0,47.0,70.6909375,44.98,1.204669,33.75
2021-06-23 11:20:12.460937500,-43.0,12.0,47.0,70.69078125,44.519999999999996,1.204669,33.75
2021-06-23 11:20:12.468750000,-43.0,12.0,47.0,70.69062500000001,44.06,1.204669,33.75
2021-06-23 11:20:12.476562500,-43.0,12.25,47.0,70.69046875000001,42.67,1.204669,33.75
2021-06-23 11:20:12.484375000,-43.0,12.5,47.0,70.6903125,41.28,1.204669,33.75
2021-06-23 11:20:12.492187500,-43.0,12.75,47.0,70.69015625,39.365,1.204669,33.75
2021-06-23 11:20:12.500000000,-43.0,13.0,47.0,70.69,37.45,1.204669,33.75
2021-06-23 11:20:12.507812500,-43.0,12.75,47.0,70.68984375000001,35.46,1.20470903125,33.75
2021-06-23 11:20:12.515625000,-43.0,12.5,47.0,70.6896875,33.47,1.2047490625,33.75
2021-06-23 11:20:12.523437500,-43.0,12.25,47.0,70.68953125,31.84,1.20478909375,33.75
2021-06-23 11:20:12.531250000,-43.0,12.0,47.0,70.689375,30.21,1.204829125,33.75
2021-06-23 11:20:12.539062500,-43.0,12.0,47.0,70.68921875000001,29.245,1.20486915625,33.75
2021-06-23 11:20:12.546875000,-43.0,12.0,47.0,70.6890625,28.28,1.2049091875,33.75
2021-06-23 11:20:12.554687500,-43.0,12.0,47.0,70.68890625,28.15,1.20494921875,33.75
2021-06-23 11:20:12.562500000,-43.0,12.0,47.0,70.68875,28.02,1.2049892500000001,33.75
2021-06-23 11:20:12.570312500,-43.0,12.25,47.0,70.68859375000001,28.705,1.20502928125,33.75
2021-06-23 11:20:12.578125000,-43.0,12.5,47.0,70.6884375,29.39,1.2050693125,33.75
2021-06-23 11:20:12.585937500,-43.0,12.75,47.0,70.68828125,30.695,1.20510934375,33.75
2021-06-23 11:20:12.593750000,-43.0,13.0,47.0,70.688125,32.0,1.205149375,33.75
2021-06-23 11:20:12.601562500,-43.0,12.75,47.0,70.68796875000001,33.644999999999996,1.20518940625,33.75
2021-06-23 11:20:12.609375000,-43.0,12.5,47.0,70.6878125,35.29,1.2052294375000001,33.75
2021-06-23 11:20:12.617187500,-43.0,12.25,47.0,70.68765625,36.974999999999994,1.20526946875,33.75
2021-06-23 11:20:12.625000000,-43.0,12.0,47.0,70.6875,38.66,1.2053095,33.75
2021-06-23 11:20:12.632812500,-43.0,12.0,47.0,70.68734375000001,40.135,1.20534953125,33.75
2021-06-23 11:20:12.640625000,-43.0,12.0,47.0,70.68718750000001,41.61,1.2053895625,33.75
2021-06-23 11:20:12.648437500,-43.0,12.0,47.0,70.68703125,42.71,1.2054295937500001,33.75
2021-06-23 11:20:12.656250000,-43.0,12.0,47.0,70.686875,43.81,1.205469625,33.75
2021-06-23 11:20:12.664062500,-43.0,12.25,47.0,70.68671875000001,44.365,1.20550965625,33.75
2021-06-23 11:20:12.671875000,-43.0,12.5,47.0,70.68656250000001,44.92,1.2055496875,33.75
2021-06-23 11:20:12.679687500,-43.0,12.75,47.0,70.68640625,44.795,1.20558971875,33.75
2021-06-23 11:20:12.687500000,-43.0,13.0,47.0,70.68625,44.67,1.20562975,33.75
2021-06-23 11:20:12.695312500,-42.75,13.0,47.0,70.68609375000001,43.730000000000004,1.2056697812500001,33.75
2021-06-23 11:20:12.703125000,-42.5,13.0,47.0,70.68593750000001,42.79,1.2057098125,33.75
2021-06-23 11:20:12.710937500,-42.25,13.0,47.0,70.68578125,41.015,1.20574984375,33.75
2021-06-23 11:20:12.718750000,-42.0,13.0,47.0,70.685625,39.24,1.205789875,33.75
2021-06-23 11:20:12.726562500,-42.0,12.75,47.0,70.68546875000001,36.735,1.20582990625,33.75
2021-06-23 11:20:12.734375000,-42.0,12.5,47.0,70.68531250000001,34.23,1.2058699375000002,33.75
2021-06-23 11:20:12.742187500,-42.0,12.25,47.0,70.68515625,31.265,1.2059099687500001,33.75
2021-06-23 11:20:12.750000000,-42.0,12.0,47.0,70.685,28.3,1.20595,33.75
2021-06-23 11:20:12.757812500,-42.5,12.25,46.75,70.68484375,25.215,1.205829875,33.75
2021-06-23 11:20:12.765625000,-43.0,12.5,46.5,70.68468750000001,22.13,1.20570975,33.75
2021-06-23 11:20:12.773437500,-43.5,12.75,46.25,70.68453125,19.215,1.205589625,33.75
2021-06-23 11:20:12.781250000,-44.0,13.0,46.0,70.684375,16.3,1.2054695,33.75
2021-06-23 11:20:12.789062500,-43.75,13.0,46.25,70.68421875,13.7,1.205349375,33.75
2021-06-23 11:20:12.796875000,-43.5,13.0,46.5,70.68406250000001,11.1,1.2052292500000001,33.75
2021-06-23 11:20:12.804687500,-43.25,13.0,46.75,70.68390625,8.765,1.2051091250000001,33.75
2021-06-23 11:20:12.812500000,-43.0,13.0,47.0,70.68375,6.43,1.204989,33.75
2021-06-23 11:20:12.820312500,-42.25,13.25,46.75,70.68359375,4.154999999999999,1.204868875,33.75
2021-06-23 11:20:12.828125000,-41.5,13.5,46.5,70.68343750000001,1.88,1.20474875,33.75
2021-06-23 11:20:12.835937500,-40.75,13.75,46.25,70.68328125000001,-0.5899999999999999,1.204628625,33.75
2021-06-23 11:20:12.843750000,-40.0,14.0,46.0,70.683125,-3.06,1.2045085,33.75
2021-06-23 11:20:12.851562500,-40.5,13.75,46.5,70.68296875,-5.9350000000000005,1.204388375,33.75
2021-06-23 11:20:12.859375000,-41.0,13.5,47.0,70.68281250000001,-8.81,1.20426825,33.75
2021-06-23 11:20:12.867187500,-41.5,13.25,47.5,70.68265625000001,-12.15,1.204148125,33.75
2021-06-23 11:20:12.875000000,-42.0,13.0,48.0,70.6825,-15.49,1.204028,33.75
2021-06-23 11:20:12.882812500,-41.75,12.5,48.0,70.68234375,-19.19,1.203907875,33.75
2021-06-23 11:20:12.890625000,-41.5,12.0,48.0,70.68218750000001,-22.89,1.20378775,33.75
2021-06-23 11:20:12.898437500,-41.25,11.5,48.0,70.68203125000001,-26.68,1.203667625,33.75
2021-06-23 11:20:12.906250000,-41.0,11.0,48.0,70.681875,-30.47,1.2035475,33.75
2021-06-23 11:20:12.914062500,-41.25,11.0,48.25,70.68171875,-34.03,1.203427375,33.75
2021-06-23 11:20:12.921875000,-41.5,11.0,48.5,70.68156250000001,-37.59,1.20330725,33.75
2021-06-23 11:20:12.929687500,-41.75,11.0,48.75,70.68140625000001,-40.66,1.203187125,33.75
2021-06-23 11:20:12.937500000,-42.0,11.0,49.0,70.68125,-43.73,1.2030669999999999,33.75
2021-06-23 11:20:12.945312500,-42.25,11.0,48.75,70.68109375,-46.22,1.2029468749999999,33.75
2021-06-23 11:20:12.953125000,-42.5,11.0,48.5,70.68093750000001,-48.71,1.2028267499999998,33.75
2021-06-23 11:20:12.960937500,-42.75,11.0,48.25,70.68078125000001,-50.765,1.202706625,33.75
2021-06-23 11:20:12.968750000,-43.0,11.0,48.0,70.680625,-52.82,1.2025865,33.75
2021-06-23 11:20:12.976562500,-42.75,11.0,47.75,70.68046875,-54.83,1.202466375,33.75
2021-06-23 11:20:12.984375000,-42.5,11.0,47.5,70.68031250000001,-56.84,1.20234625,33.75
2021-06-23 11:20:12.992187500,-42.25,11.0,47.25,70.68015625000001,-59.315,1.202226125,33.75
2021-06-23 11:20:13.000000000,-42.0,11.0,47.0,70.68,-61.79,1.202106,33.75
2021-06-23 11:20:13.007812500,-42.0,11.0,47.0,70.679765625,-65.19,1.202106,33.750625
2021-06-23 11:20:13.015625000,-42.0,11.0,47.0,70.67953125000001,-68.59,1.202106,33.75125
2021-06-23 11:20:13.023437500,-42.0,11.0,47.0,70.679296875,-73.075,1.202106,33.751875
2021-06-23 11:20:13.031250000,-42.0,11.0,47.0,70.6790625,-77.56,1.202106,33.7525
2021-06-23 11:20:13.039062500,-41.75,10.75,47.5,70.67882812500001,-82.82,1.202106,33.753125
2021-06-23 11:20:13.046875000,-41.5,10.5,48.0,70.67859375,-88.08,1.202106,33.753750000000004
2021-06-23 11:20:13.054687500,-41.25,10.25,48.5,70.67835937500001,-93.285,1.202106,33.754375
2021-06-23 11:20:13.062500000,-41.0,10.0,49.0,70.67812500000001,-98.49,1.202106,33.755
2021-06-23 11:20:13.070312500,-41.0,10.0,49.0,70.677890625,-102.435,1.202106,33.755625
2021-06-23 11:20:13.078125000,-41.0,10.0,49.0,70.67765625000001,-106.38,1.202106,33.75625
2021-06-23 11:20:13.085937500,-41.0,10.0,49.0,70.67742187500001,-107.785,1.202106,33.756875
2021-06-23 11:20:13.093750000,-41.0,10.0,49.0,70.6771875,-109.19,1.202106,33.7575
2021-06-23 11:20:13.101562500,-41.25,9.75,49.0,70.67695312500001,-107.11500000000001,1.202106,33.758125
2021-06-23 11:20:13.109375000,-41.5,9.5,49.0,70.67671875,-105.04,1.202106,33.75875
2021-06-23 11:20:13.117187500,-41.75,9.25,49.0,70.676484375,-99.2,1.202106,33.759375
2021-06-23 11:20:13.125000000,-42.0,9.0,49.0,70.67625000000001,-93.36,1.202106,33.760000000000005
2021-06-23 11:20:13.132812500,-41.25,8.75,49.0,70.676015625,-84.25,1.202106,33.760625000000005
2021-06-23 11:20:13.140625000,-40.5,8.5,49.0,70.67578125,-75.14,1.202106,33.761250000000004
2021-06-23 11:20:13.148437500,-39.75,8.25,49.0,70.67554687500001,-63.894999999999996,1.202106,33.761875
2021-06-23 11:20:13.156250000,-39.0,8.0,49.0,70.6753125,-52.65,1.202106,33.7625
2021-06-23 11:20:13.164062500,-39.75,8.25,49.0,70.67507812500001,-40.695,1.202106,33.763125
2021-06-23 11:20:13.171875000,-40.5,8.5,49.0,70.67484375000001,-28.74,1.202106,33.76375
2021-06-23 11:20:13.179687500,-41.25,8.75,49.0,70.674609375,-17.36,1.202106,33.764375
2021-06-23 11:20:13.187500000,-42.0,9.0,49.0,70.67437500000001,-5.98,1.202106,33.765
2021-06-23 11:20:13.195312500,-41.25,8.75,49.0,70.674140625,3.9349999999999987,1.202106,33.765625
2021-06-23 11:20:13.203125000,-40.5,8.5,49.0,70.67390625,13.85,1.202106,33.76625
2021-06-23 11:20:13.210937500,-39.75,8.25,49.0,70.67367187500001,21.9,1.202106,33.766875000000006
2021-06-23 11:20:13.218750000,-39.0,8.0,49.0,70.6734375,29.95,1.202106,33.767500000000005
2021-06-23 11:20:13.226562500,-39.25,7.75,49.5,70.673203125,36.11,1.202106,33.768125000000005
2021-06-23 11:20:13.234375000,-39.5,7.5,50.0,70.67296875000001,42.27,1.202106,33.768750000000004
2021-06-23 11:20:13.242187500,-39.75,7.25,50.5,70.672734375,46.645,1.202106,33.769375000000004
2021-06-23 11:20:13.250000000,-40.0,7.0,51.0,70.67250000000001,51.02,1.202106,33.77
2021-06-23 11:20:13.257812500,-39.75,6.5,51.25,70.67226562500001,53.78,1.202106,33.77
2021-06-23 11:20:13.265625000,-39.5,6.0,51.5,70.67203125,56.54,1.202106,33.77
2021-06-23 11:20:13.273437500,-39.25,5.5,51.75,70.67179687500001,57.870000000000005,1.202106,33.77
2021-06-23 11:20:13.281250000,-39.0,5.0,52.0,70.67156250000001,59.2,1.202106,33.77
2021-06-23 11:20:13.289062500,-38.75,5.0,52.0,70.671328125,59.35,1.202106,33.77
2021-06-23 11:20:13.296875000,-38.5,5.0,52.0,70.67109375000001,59.5,1.202106,33.77
2021-06-23 11:20:13.304687500,-38.25,5.0,52.0,70.670859375,58.9,1.202106,33.77
2021-06-23 11:20:13.312500000,-38.0,5.0,52.0,70.670625,58.3,1.202106,33.77
2021-06-23 11:20:13.320312500,-37.75,4.75,52.25,70.67039062500001,57.47,1.202106,33.77
2021-06-23 11:20:13.328125000,-37.5,4.5,52.5,70.67015625,56.64,1.202106,33.77
2021-06-23 11:20:13.335937500,-37.25,4.25,52.75,70.669921875,56.11,1.202106,33.77
2021-06-23 11:20:13.343750000,-37.0,4.0,53.0,70.66968750000001,55.58,1.202106,33.77
2021-06-23 11:20:13.351562500,-37.25,4.0,52.75,70.669453125,55.715,1.202106,33.77
2021-06-23 11:20:13.359375000,-37.5,4.0,52.5,70.66921875000001,55.85,1.202106,33.77
2021-06-23 11:20:13.367187500,-37.75,4.0,52.25,70.66898437500001,56.760000000000005,1.202106,33.77
2021-06-23 11:20:13.375000000,-38.0,4.0,52.0,70.66875,57.67,1.202106,33.77
2021-06-23 11:20:13.382812500,-38.0,3.75,52.0,70.66851562500001,59.2,1.202106,33.77
2021-06-23 11:20:13.390625000,-38.0,3.5,52.0,70.66828125,60.73,1.202106,33.77
2021-06-23 11:20:13.398437500,-38.0,3.25,52.0,70.668046875,62.575,1.202106,33.77
2021-06-23 11:20:13.406250000,-38.0,3.0,52.0,70.66781250000001,64.42,1.202106,33.77
2021-06-23 11:20:13.414062500,-38.0,3.0,52.0,70.667578125,66.265,1.202106,33.77
2021-06-23 11:20:13.421875000,-38.0,3.0,52.0,70.66734375,68.11,1.202106,33.77
2021-06-23 11:20:13.429687500,-38.0,3.0,52.0,70.66710937500001,69.775,1.202106,33.77
2021-06-23 11:20:13.437500000,-38.0,3.0,52.0,70.666875,71.44,1.202106,33.77
2021-06-23 11:20:13.445312500,-38.5,3.25,52.0,70.666640625,72.92,1.202106,33.77
2021-06-23 11:20:13.453125000,-39.0,3.5,52.0,70.66640625000001,74.4,1.202106,33.77
2021-06-23 11:20:13.460937500,-39.5,3.75,52.0,70.666171875,75.81,1.202106,33.77
2021-06-23 11:20:13.468750000,-40.0,4.0,52.0,70.66593750000001,77.22,1.202106,33.77
2021-06-23 11:20:13.476562500,-40.25,3.75,52.5,70.66570312500001,78.66499999999999,1.202106,33.77
2021-06-23 11:20:13.484375000,-40.5,3.5,53.0,70.66546875,80.11,1.202106,33.77
2021-06-23 11:20:13.492187500,-40.75,3.25,53.5,70.66523437500001,81.625,1.202106,33.77
2021-06-23 11:20:13.500000000,-41.0,3.0,54.0,70.665,83.14,1.202106,33.77
2021-06-23 11:20:13.507812500,-39.75,3.5,53.0,70.664765625,84.59,1.202106,33.77
2021-06-23 11:20:13.515625000,-38.5,4.0,52.0,70.66453125000001,86.04,1.202106,33.77
2021-06-23 11:20:13.523437500,-37.25,4.5,51.0,70.664296875,87.2,1.202106,33.77
2021-06-23 11:20:13.531250000,-36.0,5.0,50.0,70.6640625,88.36,1.202106,33.77
2021-06-23 11:20:13.539062500,-36.5,5.0,50.25,70.66382812500001,88.995,1.202106,33.77
2021-06-23 11:20:13.546875000,-37.0,5.0,50.5,70.66359375,89.63,1.202106,33.77
2021-06-23 11:20:13.554687500,-37.5,5.0,50.75,70.66335937500001,89.63,1.202106,33.77
2021-06-23 11:20:13.562500000,-38.0,5.0,51.0,70.66312500000001,89.63,1.202106,33.77
2021-06-23 11:20:13.570312500,-38.0,4.75,51.5,70.662890625,89.03999999999999,1.202106,33.77
2021-06-23 11:20:13.578125000,-38.0,4.5,52.0,70.66265625000001,88.45,1.202106,33.77
2021-06-23 11:20:13.585937500,-38.0,4.25,52.5,70.662421875,87.48,1.202106,33.77
2021-06-23 11:20:13.593750000,-38.0,4.0,53.0,70.6621875,86.51,1.202106,33.77
2021-06-23 11:20:13.601562500,-37.75,4.0,53.0,70.66195312500001,85.45500000000001,1.202106,33.77
2021-06-23 11:20:13.609375000,-37.5,4.0,53.0,70.66171875,84.4,1.202106,33.77
2021-06-23 11:20:13.617187500,-37.25,4.0,53.0,70.661484375,83.505,1.202106,33.77
2021-06-23 11:20:13.625000000,-37.0,4.0,53.0,70.66125000000001,82.61,1.202106,33.77
2021-06-23 11:20:13.632812500,-37.0,4.0,52.75,70.661015625,82.05,1.202106,33.77
2021-06-23 11:20:13.640625000,-37.0,4.0,52.5,70.66078125,81.49,1.202106,33.77
2021-06-23 11:20:13.648437500,-37.0,4.0,52.25,70.66054687500001,81.305,1.202106,33.77
2021-06-23 11:20:13.656250000,-37.0,4.0,52.0,70.6603125,81.12,1.202106,33.77
2021-06-23 11:20:13.664062500,-37.0,4.0,52.0,70.66007812500001,81.27000000000001,1.202106,33.77
2021-06-23 11:20:13.671875000,-37.0,4.0,52.0,70.65984375000001,81.42,1.202106,33.77
2021-06-23 11:20:13.679687500,-37.0,4.0,52.0,70.659609375,81.83500000000001,1.202106,33.77
2021-06-23 11:20:13.687500000,-37.0,4.0,52.0,70.65937500000001,82.25,1.202106,33.77
2021-06-23 11:20:13.695312500,-36.75,4.0,52.0,70.659140625,82.875,1.202106,33.77
2021-06-23 11:20:13.703125000,-36.5,4.0,52.0,70.65890625,83.5,1.202106,33.77
2021-06-23 11:20:13.710937500,-36.25,4.0,52.0,70.65867187500001,84.305,1.202106,33.77
2021-06-23 11:20:13.718750000,-36.0,4.0,52.0,70.6584375,85.11,1.202106,33.77
2021-06-23 11:20:13.726562500,-36.0,4.0,52.25,70.658203125,86.14500000000001,1.202106,33.77
2021-06-23 11:20:13.734375000,-36.0,4.0,52.5,70.65796875000001,87.18,1.202106,33.77
2021-06-23 11:20:13.742187500,-36.0,4.0,52.75,70.657734375,88.515,1.202106,33.77
2021-06-23 11:20:13.750000000,-36.0,4.0,53.0,70.6575,89.85,1.202106,33.77
2021-06-23 11:20:13.757812500,-36.0,4.0,53.0,70.65726562500001,91.565,1.2019458749999998,33.77
2021-06-23 11:20:13.765625000,-36.0,4.0,53.0,70.65703125,93.28,1.20178575,33.77
2021-06-23 11:20:13.773437500,-36.0,4.0,53.0,70.65679687500001,95.42,1.201625625,33.77
2021-06-23 11:20:13.781250000,-36.0,4.0,53.0,70.6565625,97.56,1.2014654999999999,33.77
2021-06-23 11:20:13.789062500,-36.25,4.0,53.0,70.656328125,100.08500000000001,1.201305375,33.77
2021-06-23 11:20:13.796875000,-36.5,4.0,53.0,70.65609375000001,102.61,1.20114525,33.77
2021-06-23 11:20:13.804687500,-36.75,4.0,53.0,70.655859375,105.38,1.2009851249999999,33.77
2021-06-23 11:20:13.812500000,-37.0,4.0,53.0,70.655625,108.15,1.200825,33.77
2021-06-23 11:20:13.820312500,-36.75,4.0,53.0,70.65539062500001,110.96000000000001,1.200664875,33.77
2021-06-23 11:20:13.828125000,-36.5,4.0,53.0,70.65515625,113.77,1.20050475,33.77
2021-06-23 11:20:13.835937500,-36.25,4.0,53.0,70.654921875,116.37,1.2003446249999998,33.77
2021-06-23 11:20:13.843750000,-36.0,4.0,53.0,70.65468750000001,118.97,1.2001845,33.77
2021-06-23 11:20:13.851562500,-36.5,3.75,52.75,70.654453125,121.22999999999999,1.200024375,33.77
2021-06-23 11:20:13.859375000,-37.0,3.5,52.5,70.65421875000001,123.49,1.1998642499999999,33.77
2021-06-23 11:20:13.867187500,-37.5,3.25,52.25,70.65398437500001,125.445,1.199704125,33.77
2021-06-23 11:20:13.875000000,-38.0,3.0,52.0,70.65375,127.4,1.199544,33.77
2021-06-23 11:20:13.882812500,-37.5,3.25,52.25,70.65351562500001,129.335,1.1993838749999999,33.77
2021-06-23 11:20:13.890625000,-37.0,3.5,52.5,70.65328125,131.27,1.19922375,33.77
2021-06-23 11:20:13.898437500,-36.5,3.75,52.75,70.653046875,133.68,1.199063625,33.77
2021-06-23 11:20:13.906250000,-36.0,4.0,53.0,70.65281250000001,136.09,1.1989035,33.77
2021-06-23 11:20:13.914062500,-36.0,4.0,53.0,70.652578125,139.54500000000002,1.198743375,33.77
2021-06-23 11:20:13.921875000,-36.0,4.0,53.0,70.65234375,143.0,1.19858325,33.77
2021-06-23 11:20:13.929687500,-36.0,4.0,53.0,70.65210937500001,148.005,1.198423125,33.77
2021-06-23 11:20:13.937500000,-36.0,4.0,53.0,70.651875,153.01,1.1982629999999999,33.77
2021-06-23 11:20:13.945312500,-36.25,3.75,53.0,70.651640625,159.765,1.198102875,33.77
2021-06-23 11:20:13.953125000,-36.5,3.5,53.0,70.65140625000001,166.52,1.19794275,33.77
2021-06-23 11:20:13.960937500,-36.75,3.25,53.0,70.651171875,174.875,1.1977826249999999,33.77
2021-06-23 11:20:13.968750000,-37.0,3.0,53.0,70.65093750000001,183.23,1.1976225,33.77
2021-06-23 11:20:13.976562500,-36.75,3.0,53.0,70.650703125,192.57,1.197462375,33.77
2021-06-23 11:20:13.984375000,-36.5,3.0,53.0,70.65046875,201.91,1.19730225,33.77
2021-06-23 11:20:13.992187500,-36.25,3.0,53.0,70.65023437500001,211.3,1.197142125,33.77
2021-06-23 11:20:14.000000000,-36.0,3.0,53.0,70.65,220.69,1.196982,33.77
2021-06-23 11:20:14.007812500,-36.0,3.25,53.0,70.64960937500001,229.04500000000002,1.19730228125,33.77
2021-06-23 11:20:14.015625000,-36.0,3.5,53.0,70.64921875,237.4,1.1976225624999999,33.77
2021-06-23 11:20:14.023437500,-36.0,3.75,53.0,70.64882812500001,243.72500000000002,1.19794284375,33.77
2021-06-23 11:20:14.031250000,-36.0,4.0,53.0,70.6484375,250.05,1.198263125,33.77
2021-06-23 11:20:14.039062500,-36.25,3.75,52.75,70.648046875,253.65,1.19858340625,33.77
2021-06-23 11:20:14.046875000,-36.5,3.5,52.5,70.64765625000001,257.25,1.1989036875,33.77
2021-06-23 11:20:14.054687500,-36.75,3.25,52.25,70.647265625,257.9,1.19922396875,33.77
2021-06-23 11:20:14.062500000,-37.0,3.0,52.0,70.64687500000001,258.55,1.19954425,33.77
2021-06-23 11:20:14.070312500,-36.75,3.0,52.25,70.646484375,256.46500000000003,1.19986453125,33.77
2021-06-23 11:20:14.078125000,-36.5,3.0,52.5,70.64609375,254.38,1.2001848124999999,33.77
2021-06-23 11:20:14.085937500,-36.25,3.0,52.75,70.64570312500001,250.09,1.20050509375,33.77
2021-06-23 11:20:14.093750000,-36.0,3.0,53.0,70.6453125,245.8,1.200825375,33.77
2021-06-23 11:20:14.101562500,-36.25,3.0,53.0,70.64492187500001,239.995,1.20114565625,33.77
2021-06-23 11:20:14.109375000,-36.5,3.0,53.0,70.64453125,234.19,1.2014659375,33.77
2021-06-23 11:20:14.117187500,-36.75,3.0,53.0,70.644140625,227.485,1.20178621875,33.77
2021-06-23 11:20:14.125000000,-37.0,3.0,53.0,70.64375000000001,220.78,1.2021065,33.77
2021-06-23 11:20:14.132812500,-37.0,3.0,53.0,70.643359375,213.67000000000002,1.20242678125,33.77
2021-06-23 11:20:14.140625000,-37.0,3.0,53.0,70.64296875000001,206.56,1.2027470624999999,33.77
2021-06-23 11:20:14.148437500,-37.0,3.0,53.0,70.642578125,199.37,1.20306734375,33.77
2021-06-23 11:20:14.156250000,-37.0,3.0,53.0,70.6421875,192.18,1.203387625,33.77
2021-06-23 11:20:14.164062500,-37.0,3.0,53.0,70.641796875,185.135,1.20370790625,33.77
2021-06-23 11:20:14.171875000,-37.0,3.0,53.0,70.64140625,178.09,1.2040281875,33.77
2021-06-23 11:20:14.179687500,-37.0,3.0,53.0,70.64101562500001,171.35500000000002,1.20434846875,33.77
2021-06-23 11:20:14.187500000,-37.0,3.0,53.0,70.640625,164.62,1.20466875,33.77
2021-06-23 11:20:14.195312500,-36.75,3.0,53.0,70.640234375,158.315,1.20498903125,33.77
2021-06-23 11:20:14.203125000,-36.5,3.0,53.0,70.63984375,152.01,1.2053093124999998,33.77
2021-06-23 11:20:14.210937500,-36.25,3.0,53.0,70.639453125,146.11,1.20562959375,33.77
2021-06-23 11:20:14.218750000,-36.0,3.0,53.0,70.63906250000001,140.21,1.205949875,33.77
2021-06-23 11:20:14.226562500,-35.75,3.25,53.0,70.638671875,134.525,1.20627015625,33.77
2021-06-23 11:20:14.234375000,-35.5,3.5,53.0,70.63828125,128.84,1.2065904375,33.77
2021-06-23 11:20:14.242187500,-35.25,3.75,53.0,70.637890625,122.985,1.20691071875,33.77
2021-06-23 11:20:14.250000000,-35.0,4.0,53.0,70.6375,117.13,1.207231,33.77
2021-06-23 11:20:14.257812500,-35.5,3.75,52.75,70.63710937500001,110.655,1.20707084375,33.77
2021-06-23 11:20:14.265625000,-36.0,3.5,52.5,70.63671875,104.18,1.2069106875,33.77
2021-06-23 11:20:14.273437500,-36.5,3.25,52.25,70.636328125,96.73500000000001,1.20675053125,33.77
2021-06-23 11:20:14.281250000,-37.0,3.0,52.0,70.6359375,89.29,1.206590375,33.77
2021-06-23 11:20:14.289062500,-37.0,3.0,52.25,70.635546875,80.82,1.20643021875,33.77
2021-06-23 11:20:14.296875000,-37.0,3.0,52.5,70.63515625000001,72.35,1.2062700625,33.77
2021-06-23 11:20:14.304687500,-37.0,3.0,52.75,70.634765625,63.15,1.20610990625,33.77
2021-06-23 11:20:14.312500000,-37.0,3.0,53.0,70.634375,53.95,1.2059497499999998,33.77
2021-06-23 11:20:14.320312500,-37.0,3.0,53.0,70.633984375,44.56,1.2057895937499998,33.77
2021-06-23 11:20:14.328125000,-37.0,3.0,53.0,70.63359375,35.17,1.2056294374999998,33.77
2021-06-23 11:20:14.335937500,-37.0,3.0,53.0,70.63320312500001,26.17,1.2054692812499999,33.77
2021-06-23 11:20:14.343750000,-37.0,3.0,53.0,70.6328125,17.17,1.2053091249999999,33.77
2021-06-23 11:20:14.351562500,-36.75,3.0,53.0,70.632421875,8.870000000000001,1.2051489687499999,33.77
2021-06-23 11:20:14.359375000,-36.5,3.0,53.0,70.63203125,0.57,1.2049888125,33.77
2021-06-23 11:20:14.367187500,-36.25,3.0,53.0,70.631640625,-7.135,1.20482865625,33.77
2021-06-23 11:20:14.375000000,-36.0,3.0,53.0,70.63125,-14.84,1.2046685,33.77
2021-06-23 11:20:14.382812500,-36.0,3.0,53.0,70.630859375,-22.455,1.20450834375,33.77
2021-06-23 11:20:14.390625000,-36.0,3.0,53.0,70.63046875,-30.07,1.2043481875,33.77
2021-06-23 11:20:14.398437500,-36.0,3.0,53.0,70.630078125,-38.295,1.20418803125,33.77
2021-06-23 11:20:14.406250000,-36.0,3.0,53.0,70.6296875,-46.52,1.204027875,33.77
2021-06-23 11:20:14.414062500,-36.25,3.0,52.75,70.629296875,-55.91,1.20386771875,33.77
2021-06-23 11:20:14.421875000,-36.5,3.0,52.5,70.62890625,-65.3,1.2037075625,33.77
2021-06-23 11:20:14.429687500,-36.75,3.0,52.25,70.628515625,-75.985,1.20354740625,33.77
2021-06-23 11:20:14.437500000,-37.0,3.0,52.0,70.628125,-86.67,1.20338725,33.77
2021-06-23 11:20:14.445312500,-37.0,3.0,52.25,70.627734375,-98.27000000000001,1.2032270937499998,33.77
2021-06-23 11:20:14.453125000,-37.0,3.0,52.5,70.62734375,-109.87,1.2030669374999998,33.77
2021-06-23 11:20:14.460937500,-37.0,3.0,52.75,70.626953125,-121.645,1.2029067812499998,33.77
2021-06-23 11:20:14.468750000,-37.0,3.0,53.0,70.6265625,-133.42,1.2027466249999998,33.77
2021-06-23 11:20:14.476562500,-37.0,3.25,53.0,70.626171875,-144.58999999999997,1.2025864687499999,33.77
2021-06-23 11:20:14.484375000,-37.0,3.5,53.0,70.62578125,-155.76,1.2024263124999999,33.77
2021-06-23 11:20:14.492187500,-37.0,3.75,53.0,70.625390625,-165.915,1.2022661562499999,33.77
2021-06-23 11:20:14.500000000,-37.0,4.0,53.0,70.625,-176.07,1.202106,33.77
2021-06-23 11:20:14.507812500,-37.0,3.75,53.0,70.624609375,-185.34,1.2023462187499998,33.77
2021-06-23 11:20:14.515625000,-37.0,3.5,53.0,70.62421875,-194.61,1.2025864375,33.77
2021-06-23 11:20:14.523437500,-37.0,3.25,53.0,70.623828125,-203.645,1.2028266562499998,33.77
2021-06-23 11:20:14.531250000,-37.0,3.0,53.0,70.6234375,-212.68,1.203066875,33.77
2021-06-23 11:20:14.539062500,-37.0,3.0,53.0,70.623046875,-222.395,1.20330709375,33.77
2021-06-23 11:20:14.546875000,-37.0,3.0,53.0,70.62265625,-232.11,1.2035473124999998,33.77
2021-06-23 11:20:14.554687500,-37.0,3.0,53.0,70.622265625,-243.35000000000002,1.20378753125,33.77
2021-06-23 11:20:14.562500000,-37.0,3.0,53.0,70.621875,-254.59,1.2040277499999998,33.77
2021-06-23 11:20:14.570312500,-37.0,3.0,52.75,70.621484375,-267.9,1.20426796875,33.77
2021-06-23 11:20:14.578125000,-37.0,3.0,52.5,70.62109375,-281.21,1.2045081874999999,33.77
2021-06-23 11:20:14.585937500,-37.0,3.0,52.25,70.620703125,-296.65,1.2047484062499998,33.77
2021-06-23 11:20:14.593750000,-37.0,3.0,52.0,70.6203125,-312.09,1.204988625,33.77
2021-06-23 11:20:14.601562500,-37.0,3.0,52.0,70.619921875,-329.205,1.2052288437499998,33.77
2021-06-23 11:20:14.609375000,-37.0,3.0,52.0,70.61953125,-346.32,1.2054690625,33.77
2021-06-23 11:20:14.617187500,-37.0,3.0,52.0,70.619140625,-364.115,1.2057092812499999,33.77
2021-06-23 11:20:14.625000000,-37.0,3.0,52.0,70.61875,-381.91,1.2059495,33.77
2021-06-23 11:20:14.632812500,-37.0,3.25,52.25,70.618359375,-398.97,1.20618971875,33.77
2021-06-23 11:20:14.640625000,-37.0,3.5,52.5,70.61796875,-416.03,1.2064299374999998,33.77
2021-06-23 11:20:14.648437500,-37.0,3.75,52.75,70.617578125,-430.745,1.20667015625,33.77
2021-06-23 11:20:14.656250000,-37.0,4.0,53.0,70.6171875,-445.46,1.2069103749999999,33.77
2021-06-23 11:20:14.664062500,-37.0,4.0,53.0,70.61679687499999,-456.46500000000003,1.20715059375,33.77
2021-06-23 11:20:14.671875000,-37.0,4.0,53.0,70.61640625,-467.47,1.2073908125,33.77
2021-06-23 11:20:14.679687500,-37.0,4.0,53.0,70.616015625,-474.115,1.2076310312499998,33.77
2021-06-23 11:20:14.687500000,-37.0,4.0,53.0,70.615625,-480.76,1.20787125,33.77
2021-06-23 11:20:14.695312500,-37.0,3.75,52.75,70.615234375,-483.53,1.2081114687499999,33.77
2021-06-23 11:20:14.703125000,-37.0,3.5,52.5,70.61484374999999,-486.3,1.2083516875,33.77
2021-06-23 11:20:14.710937500,-37.0,3.25,52.25,70.614453125,-486.75,1.20859190625,33.77
2021-06-23 11:20:14.718750000,-37.0,3.0,52.0,70.6140625,-487.2,1.2088321249999998,33.77
2021-06-23 11:20:14.726562500,-37.0,3.25,52.0,70.613671875,-487.445,1.20907234375,33.77
2021-06-23 11:20:14.734375000,-37.0,3.5,52.0,70.61328125,-487.69,1.2093125624999999,33.77
2021-06-23 11:20:14.742187500,-37.0,3.75,52.0,70.61289062499999,-489.45,1.20955278125,33.77
2021-06-23 11:20:14.750000000,-37.0,4.0,52.0,70.6125,-491.21,1.209793,33.77
2021-06-23 11:20:14.757812500,-37.0,3.75,52.0,70.612109375,-494.86,1.209793,33.77
2021-06-23 11:20:14.765625000,-37.0,3.5,52.0,70.61171875,-498.51,1.209793,33.77
2021-06-23 11:20:14.773437500,-37.0,3.25,52.0,70.611328125,-502.71500000000003,1.209793,33.77
2021-06-23 11:20:14.781250000,-37.0,3.0,52.0,70.61093749999999,-506.92,1.209793,33.77
2021-06-23 11:20:14.789062500,-37.0,3.0,52.0,70.610546875,-509.02,1.209793,33.77
2021-06-23 11:20:14.796875000,-37.0,3.0,52.0,70.61015625,-511.12,1.209793,33.77
2021-06-23 11:20:14.804687500,-37.0,3.0,52.0,70.609765625,-508.2,1.209793,33.77
2021-06-23 11:20:14.812500000,-37.0,3.0,52.0,70.609375,-505.28,1.209793,33.77
2021-06-23 11:20:14.820312500,-37.0,3.0,52.25,70.60898437499999,-495.375,1.209793,33.77
2021-06-23 11:20:14.828125000,-37.0,3.0,52.5,70.60859375,-485.47,1.209793,33.77
2021-06-23 11:20:14.835937500,-37.0,3.0,52.75,70.608203125,-468.31500000000005,1.209793,33.77
2021-06-23 11:20:14.843750000,-37.0,3.0,53.0,70.6078125,-451.16,1.209793,33.77
2021-06-23 11:20:14.851562500,-37.0,3.25,53.0,70.607421875,-428.135,1.209793,33.77
2021-06-23 11:20:14.859375000,-37.0,3.5,53.0,70.60703124999999,-405.11,1.209793,33.77
2021-06-23 11:20:14.867187500,-37.0,3.75,53.0,70.606640625,-378.44,1.209793,33.77
2021-06-23 11:20:14.875000000,-37.0,4.0,53.0,70.60624999999999,-351.77,1.209793,33.77
2021-06-23 11:20:14.882812500,-37.0,4.0,52.75,70.605859375,-323.485,1.209793,33.77
2021-06-23 11:20:14.890625000,-37.0,4.0,52.5,70.60546875,-295.2,1.209793,33.77
2021-06-23 11:20:14.898437500,-37.0,4.0,52.25,70.60507812499999,-266.52,1.209793,33.77
2021-06-23 11:20:14.906250000,-37.0,4.0,52.0,70.6046875,-237.84,1.209793,33.77
2021-06-23 11:20:14.914062500,-37.0,4.0,52.0,70.60429687499999,-209.13,1.209793,33.77
2021-06-23 11:20:14.921875000,-37.0,4.0,52.0,70.60390625,-180.42,1.209793,33.77
2021-06-23 11:20:14.929687500,-37.0,4.0,52.0,70.603515625,-151.73,1.209793,33.77
2021-06-23 11:20:14.937500000,-37.0,4.0,52.0,70.60312499999999,-123.04,1.209793,33.77
2021-06-23 11:20:14.945312500,-37.0,3.75,52.0,70.602734375,-94.73,1.209793,33.77
2021-06-23 11:20:14.953125000,-37.0,3.5,52.0,70.60234374999999,-66.42,1.209793,33.77
2021-06-23 11:20:14.960937500,-37.0,3.25,52.0,70.601953125,-39.53,1.209793,33.77
2021-06-23 11:20:14.968750000,-37.0,3.0,52.0,70.6015625,-12.64,1.209793,33.77
2021-06-23 11:20:14.976562500,-37.0,3.25,52.0,70.60117187499999,11.370000000000001,1.209793,33.77
2021-06-23 11:20:14.984375000,-37.0,3.5,52.0,70.60078125,35.38,1.209793,33.77
2021-06-23 11:20:14.992187500,-37.0,3.75,52.0,70.60039062499999,55.19500000000001,1.209793,33.77
2021-06-23 11:20:15.000000000,-37.0,4.0,52.0,70.6,75.01,1.209793,33.77
2021-06-23 11:20:15.007812500,-37.0,3.75,52.0,70.599609375,89.98,1.2098730624999998,33.77
2021-06-23 11:20:15.015625000,-37.0,3.5,52.0,70.59921874999999,104.95,1.209953125,33.77
2021-06-23 11:20:15.023437500,-37.0,3.25,52.0,70.598828125,115.32,1.2100331874999999,33.77
2021-06-23 11:20:15.031250000,-37.0,3.0,52.0,70.59843749999999,125.69,1.21011325,33.77
2021-06-23 11:20:15.039062500,-37.0,3.25,52.0,70.598046875,132.36,1.2101933125,33.77
2021-06-23 11:20:15.046875000,-37.0,3.5,52.0,70.59765625,139.03,1.2102733749999999,33.77
2021-06-23 11:20:15.054687500,-37.0,3.75,52.0,70.59726562499999,143.065,1.2103534375,33.77
2021-06-23 11:20:15.062500000,-37.0,4.0,52.0,70.596875,147.1,1.2104335,33.77
2021-06-23 11:20:15.070312500,-37.0,4.0,52.0,70.59648437499999,149.32,1.2105135624999999,33.77
2021-06-23 11:20:15.078125000,-37.0,4.0,52.0,70.59609375,151.54,1.210593625,33.77
2021-06-23 11:20:15.085937500,-37.0,4.0,52.0,70.595703125,152.33499999999998,1.2106736875,33.77
2021-06-23 11:20:15.093750000,-37.0,4.0,52.0,70.59531249999999,153.13,1.2107537499999999,33.77
2021-06-23 11:20:15.101562500,-37.0,4.0,52.0,70.594921875,152.51,1.2108338125,33.77
2021-06-23 11:20:15.109375000,-37.0,4.0,52.0,70.59453124999999,151.89,1.210913875,33.77
2021-06-23 11:20:15.117187500,-37.0,4.0,52.0,70.594140625,149.815,1.2109939375,33.77
2021-06-23 11:20:15.125000000,-37.0,4.0,52.0,70.59375,147.74,1.211074,33.77
2021-06-23 11:20:15.132812500,-37.25,4.0,52.0,70.59335937499999,144.325,1.2111540625,33.77
2021-06-23 11:20:15.140625000,-37.5,4.0,52.0,70.59296875,140.91,1.211234125,33.77
2021-06-23 11:20:15.148437500,-37.75,4.0,52.0,70.59257812499999,136.59,1.2113141875,33.77
2021-06-23 11:20:15.156250000,-38.0,4.0,52.0,70.5921875,132.27,1.2113942500000001,33.77
2021-06-23 11:20:15.164062500,-37.75,4.0,52.0,70.591796875,127.66,1.2114743125,33.77
2021-06-23 11:20:15.171875000,-37.5,4.0,52.0,70.59140624999999,123.05,1.211554375,33.77
2021-06-23 11:20:15.179687500,-37.25,4.0,52.0,70.591015625,118.75,1.2116344375,33.77
2021-06-23 11:20:15.187500000,-37.0,4.0,52.0,70.59062499999999,114.45,1.2117145,33.77
2021-06-23 11:20:15.195312500,-37.0,4.0,52.0,70.590234375,110.755,1.2117945625,33.77
2021-06-23 11:20:15.203125000,-37.0,4.0,52.0,70.58984375,107.06,1.211874625,33.77
2021-06-23 11:20:15.210937500,-37.0,4.0,52.0,70.58945312499999,103.845,1.2119546875,33.77
2021-06-23 11:20:15.218750000,-37.0,4.0,52.0,70.5890625,100.63,1.21203475,33.77
2021-06-23 11:20:15.226562500,-37.0,4.0,52.0,70.58867187499999,97.38,1.2121148125,33.77
2021-06-23 11:20:15.234375000,-37.0,4.0,52.0,70.58828125,94.13,1.212194875,33.77
2021-06-23 11:20:15.242187500,-37.0,4.0,52.0,70.587890625,90.145,1.2122749375000001,33.77
2021-06-23 11:20:15.250000000,-37.0,4.0,52.0,70.58749999999999,86.16,1.212355,33.77
2021-06-23 11:20:15.257812500,-37.0,4.0,52.0,70.587109375,80.85499999999999,1.2120747812500001,33.77
2021-06-23 11:20:15.265625000,-37.0,4.0,52.0,70.58671874999999,75.55,1.2117945625000002,33.77
2021-06-23 11:20:15.273437500,-37.0,4.0,52.0,70.586328125,68.695,1.21151434375,33.77
2021-06-23 11:20:15.281250000,-37.0,4.0,52.0,70.5859375,61.84,1.211234125,33.77
2021-06-23 11:20:15.289062500,-37.0,4.0,52.0,70.58554687499999,53.63,1.21095390625,33.77
2021-06-23 11:20:15.296875000,-37.0,4.0,52.0,70.58515625,45.42,1.2106736875,33.77
2021-06-23 11:20:15.304687500,-37.0,4.0,52.0,70.58476562499999,36.415,1.21039346875,33.77
2021-06-23 11:20:15.312500000,-37.0,4.0,52.0,70.584375,27.41,1.21011325,33.77
2021-06-23 11:20:15.320312500,-37.0,4.0,52.25,70.583984375,18.3,1.20983303125,33.77
2021-06-23 11:20:15.328125000,-37.0,4.0,52.5,70.58359374999999,9.19,1.2095528125000001,33.77
2021-06-23 11:20:15.335937500,-37.0,4.0,52.75,70.583203125,0.6199999999999992,1.20927259375,33.77
2021-06-23 11:20:15.343750000,-37.0,4.0,53.0,70.58281249999999,-7.95,1.208992375,33.77
2021-06-23 11:20:15.351562500,-37.0,4.0,53.0,70.582421875,-15.585,1.20871215625,33.77
2021-06-23 11:20:15.359375000,-37.0,4.0,53.0,70.58203125,-23.22,1.2084319374999999,33.77
2021-06-23 11:20:15.367187500,-37.0,4.0,53.0,70.58164062499999,-29.79,1.20815171875,33.77
2021-06-23 11:20:15.375000000,-37.0,4.0,53.0,70.58125,-36.36,1.2078715,33.77
2021-06-23 11:20:15.382812500,-37.0,4.0,52.75,70.58085937499999,-41.980000000000004,1.20759128125,33.77
2021-06-23 11:20:15.390625000,-37.0,4.0,52.5,70.58046875,-47.6,1.2073110625,33.77
2021-06-23 11:20:15.398437500,-37.0,4.0,52.25,70.580078125,-52.519999999999996,1.20703084375,33.77
2021-06-23 11:20:15.406250000,-37.0,4.0,52.0,70.57968749999999,-57.44,1.206750625,33.77
2021-06-23 11:20:15.414062500,-37.0,4.0,52.0,70.579296875,-61.964999999999996,1.20647040625,33.77
2021-06-23 11:20:15.421875000,-37.0,4.0,52.0,70.57890624999999,-66.49,1.2061901874999998,33.77
2021-06-23 11:20:15.429687500,-37.0,4.0,52.0,70.578515625,-70.87,1.20590996875,33.77
2021-06-23 11:20:15.437500000,-37.0,4.0,52.0,70.578125,-75.25,1.20562975,33.77
2021-06-23 11:20:15.445312500,-37.0,4.0,52.0,70.57773437499999,-79.64500000000001,1.20534953125,33.77
2021-06-23 11:20:15.453125000,-37.0,4.0,52.0,70.57734375,-84.04,1.2050693125,33.77
2021-06-23 11:20:15.460937500,-37.0,4.0,52.0,70.57695312499999,-88.465,1.2047890937499999,33.77
2021-06-23 11:20:15.468750000,-37.0,4.0,52.0,70.5765625,-92.89,1.204508875,33.77
2021-06-23 11:20:15.476562500,-37.0,4.0,52.25,70.576171875,-97.31,1.20422865625,33.77
2021-06-23 11:20:15.484375000,-37.0,4.0,52.5,70.57578124999999,-101.73,1.2039484374999998,33.77
2021-06-23 11:20:15.492187500,-37.0,4.0,52.75,70.575390625,-106.075,1.2036682187499999,33.77
2021-06-23 11:20:15.500000000,-37.0,4.0,53.0,70.57499999999999,-110.42,1.203388,33.77
2021-06-23 11:20:15.507812500,-37.0,4.0,52.75,70.574609375,-114.64,1.203548125,33.77
2021-06-23 11:20:15.515625000,-37.0,4.0,52.5,70.57421875,-118.86,1.2037082499999998,33.77
2021-06-23 11:20:15.523437500,-37.0,4.0,52.25,70.57382812499999,-122.97999999999999,1.2038683749999999,33.77
2021-06-23 11:20:15.531250000,-37.0,4.0,52.0,70.5734375,-127.1,1.2040285,33.77
2021-06-23 11:20:15.539062500,-37.0,4.0,52.0,70.573046875,-131.18,1.204188625,33.77
2021-06-23 11:20:15.546875000,-37.0,4.0,52.0,70.57265625,-135.26,1.2043487499999999,33.77
2021-06-23 11:20:15.554687500,-37.0,4.0,52.0,70.572265625,-139.42000000000002,1.204508875,33.77
2021-06-23 11:20:15.562500000,-37.0,4.0,52.0,70.57187499999999,-143.58,1.204669,33.77
2021-06-23 11:20:15.570312500,-37.0,4.0,52.25,70.571484375,-147.95,1.2048291249999998,33.77
2021-06-23 11:20:15.578125000,-37.0,4.0,52.5,70.57109375,-152.32,1.20498925,33.77
2021-06-23 11:20:15.585937500,-37.0,4.0,52.75,70.570703125,-157.075,1.205149375,33.77
2021-06-23 11:20:15.593750000,-37.0,4.0,53.0,70.5703125,-161.83,1.2053095,33.77
2021-06-23 11:20:15.601562500,-37.0,4.0,52.75,70.56992187499999,-167.22000000000003,1.2054696249999999,33.77
2021-06-23 11:20:15.609375000,-37.0,4.0,52.5,70.56953125,-172.61,1.20562975,33.77
2021-06-23 11:20:15.617187500,-37.0,4.0,52.25,70.569140625,-178.96,1.205789875,33.77
2021-06-23 11:20:15.625000000,-37.0,4.0,52.0,70.56875,-185.31,1.20595,33.77
2021-06-23 11:20:15.632812500,-37.0,4.0,52.25,70.568359375,-192.95499999999998,1.206110125,33.77
2021-06-23 11:20:15.640625000,-37.0,4.0,52.5,70.56796874999999,-200.6,1.20627025,33.77
2021-06-23 11:20:15.648437500,-37.0,4.0,52.75,70.567578125,-209.61,1.206430375,33.77
2021-06-23 11:20:15.656250000,-37.0,4.0,53.0,70.5671875,-218.62,1.2065905,33.77
2021-06-23 11:20:15.664062500,-37.0,4.0,52.75,70.566796875,-228.55,1.206750625,33.77
2021-06-23 11:20:15.671875000,-37.0,4.0,52.5,70.56640625,-238.48,1.20691075,33.77
2021-06-23 11:20:15.679687500,-37.0,4.0,52.25,70.56601562499999,-248.20499999999998,1.207070875,33.77
2021-06-23 11:20:15.687500000,-37.0,4.0,52.0,70.565625,-257.93,1.207231,33.77
2021-06-23 11:20:15.695312500,-37.0,4.0,52.0,70.565234375,-265.695,1.207391125,33.77
2021-06-23 11:20:15.703125000,-37.0,4.0,52.0,70.56484375,-273.46,1.20755125,33.77
2021-06-23 11:20:15.710937500,-37.0,4.0,52.0,70.564453125,-277.33,1.207711375,33.77
2021-06-23 11:20:15.718750000,-37.0,4.0,52.0,70.56406249999999,-281.2,1.2078715,33.77
2021-06-23 11:20:15.726562500,-37.0,4.0,52.25,70.563671875,-279.625,1.208031625,33.77
2021-06-23 11:20:15.734375000,-37.0,4.0,52.5,70.56328125,-278.05,1.2081917500000001,33.77
2021-06-23 11:20:15.742187500,-37.0,4.0,52.75,70.562890625,-270.41499999999996,1.208351875,33.77
2021-06-23 11:20:15.750000000,-37.0,4.0,53.0,70.5625,-262.78,1.208512,33.77
2021-06-23 11:20:15.757812500,-37.0,4.0,52.75,70.56210937499999,-249.555,1.2084319375,33.77
2021-06-23 11:20:15.765625000,-37.0,4.0,52.5,70.56171875,-236.33,1.208351875,33.77
2021-06-23 11:20:15.773437500,-37.0,4.0,52.25,70.561328125,-218.835,1.2082718125,33.77
2021-06-23 11:20:15.781250000,-37.0,4.0,52.0,70.5609375,-201.34,1.2081917500000001,33.77
2021-06-23 11:20:15.789062500,-37.0,3.75,52.0,70.560546875,-181.14,1.2081116875,33.77
2021-06-23 11:20:15.796875000,-37.0,3.5,52.0,70.56015624999999,-160.94,1.208031625,33.77
2021-06-23 11:20:15.804687500,-37.0,3.25,52.0,70.559765625,-139.32,1.2079515625000001,33.77
2021-06-23 11:20:15.812500000,-37.0,3.0,52.0,70.559375,-117.7,1.2078715,33.77
2021-06-23 11:20:15.820312500,-37.0,3.25,52.0,70.558984375,-95.49000000000001,1.2077914375,33.77
2021-06-23 11:20:15.828125000,-37.0,3.5,52.0,70.55859375,-73.28,1.2077113750000001,33.77
2021-06-23 11:20:15.835937500,-37.0,3.75,52.0,70.55820312499999,-51.03,1.2076313125,33.77
2021-06-23 11:20:15.843750000,-37.0,4.0,52.0,70.5578125,-28.78,1.20755125,33.77
2021-06-23 11:20:15.851562500,-37.0,4.0,52.0,70.557421875,-7.16,1.2074711875000002,33.77
2021-06-23 11:20:15.859375000,-37.0,4.0,52.0,70.55703125,14.46,1.207391125,33.77
2021-06-23 11:20:15.867187500,-37.0,4.0,52.0,70.556640625,34.425,1.2073110625,33.77
2021-06-23 11:20:15.875000000,-37.0,4.0,52.0,70.55624999999999,54.39,1.2072310000000002,33.77
2021-06-23 11:20:15.882812500,-37.0,4.0,52.0,70.555859375,71.43,1.2071509375,33.77
2021-06-23 11:20:15.890625000,-37.0,4.0,52.0,70.55546875,88.47,1.207070875,33.77
2021-06-23 11:20:15.898437500,-37.0,4.0,52.0,70.555078125,101.55,1.2069908125,33.77
2021-06-23 11:20:15.906250000,-37.0,4.0,52.0,70.5546875,114.63,1.20691075,33.77
2021-06-23 11:20:15.914062500,-37.0,4.0,52.0,70.55429687499999,123.365,1.2068306875,33.77
2021-06-23 11:20:15.921875000,-37.0,4.0,52.0,70.55390625,132.1,1.206750625,33.77
2021-06-23 11:20:15.929687500,-37.0,4.0,52.0,70.553515625,137.01,1.2066705625,33.77
2021-06-23 11:20:15.937500000,-37.0,4.0,52.0,70.553125,141.92,1.2065905000000001,33.77
2021-06-23 11:20:15.945312500,-37.0,4.0,52.0,70.552734375,144.2,1.2065104375,33.77
2021-06-23 11:20:15.953125000,-37.0,4.0,52.0,70.55234374999999,146.48,1.206430375,33.77
2021-06-23 11:20:15.960937500,-37.0,4.0,52.0,70.551953125,147.57,1.2063503125000001,33.77
2021-06-23 11:20:15.968750000,-37.0,4.0,52.0,70.5515625,148.66,1.20627025,33.77
2021-06-23 11:20:15.976562500,-37.0,4.0,52.0,70.551171875,149.76999999999998,1.2061901875,33.77
2021-06-23 11:20:15.984375000,-37.0,4.0,52.0,70.55078125,150.88,1.2061101250000001,33.77
2021-06-23 11:20:15.992187500,-37.0,4.0,52.0,70.55039062499999,152.665,1.2060300625,33.77
2021-06-23 11:20:16.000000000,-37.0,4.0,52.0,70.55,154.45,1.20595,33.77
2021-06-23 11:20:16.007812500,-37.0,4.0,52.0,70.549453125,157.03,1.2060300625,33.77
2021-06-23 11:20:16.015625000,-37.0,4.0,52.0,70.54890625,159.61,1.2061101250000001,33.77
2021-06-23 11:20:16.023437500,-37.0,4.0,52.0,70.548359375,162.715,1.2061901875,33.77
2021-06-23 11:20:16.031250000,-37.0,4.0,52.0,70.54781249999999,165.82,1.20627025,33.77
2021-06-23 11:20:16.039062500,-37.0,4.0,52.0,70.547265625,169.07,1.2063503125000001,33.77
2021-06-23 11:20:16.046875000,-37.0,4.0,52.0,70.54671875,172.32,1.206430375,33.77
2021-06-23 11:20:16.054687500,-37.0,4.0,52.0,70.546171875,175.365,1.2065104375,33.77
2021-06-23 11:20:16.062500000,-37.0,4.0,52.0,70.545625,178.41,1.2065905000000001,33.77
2021-06-23 11:20:16.070312500,-37.0,4.0,52.25,70.545078125,181.05,1.2066705625,33.77
2021-06-23 11:20:16.078125000,-37.0,4.0,52.5,70.54453124999999,183.69,1.206750625,33.77
2021-06-23 11:20:16.085937500,-37.0,4.0,52.75,70.543984375,185.815,1.2068306875,33.77
2021-06-23 11:20:16.093750000,-37.0,4.0,53.0,70.5434375,187.94,1.20691075,33.77
2021-06-23 11:20:16.101562500,-37.0,4.0,52.75,70.542890625,189.485,1.2069908125,33.77
2021-06-23 11:20:16.109375000,-37.0,4.0,52.5,70.54234375,191.03,1.207070875,33.77
2021-06-23 11:20:16.117187500,-37.0,4.0,52.25,70.541796875,191.89499999999998,1.2071509375,33.77
2021-06-23 11:20:16.125000000,-37.0,4.0,52.0,70.54124999999999,192.76,1.2072310000000002,33.77
2021-06-23 11:20:16.132812500,-37.0,4.0,52.0,70.540703125,192.81,1.2073110625,33.77
2021-06-23 11:20:16.140625000,-37.0,4.0,52.0,70.54015625,192.86,1.207391125,33.77
2021-06-23 11:20:16.148437500,-37.0,4.0,52.0,70.539609375,191.91000000000003,1.2074711875000002,33.77
2021-06-23 11:20:16.156250000,-37.0,4.0,52.0,70.5390625,190.96,1.20755125,33.77
2021-06-23 11:20:16.164062500,-37.25,4.0,52.0,70.538515625,188.9,1.2076313125,33.77
2021-06-23 11:20:16.171875000,-37.5,4.0,52.0,70.53796875,186.84,1.2077113750000001,33.77
2021-06-23 11:20:16.179687500,-37.75,4.0,52.0,70.53742187499999,183.68,1.2077914375,33.77
2021-06-23 11:20:16.187500000,-38.0,4.0,52.0,70.536875,180.52,1.2078715,33.77
2021-06-23 11:20:16.195312500,-37.75,4.0,52.0,70.536328125,176.45499999999998,1.2079515625000001,33.77
2021-06-23 11:20:16.203125000,-37.5,4.0,52.0,70.53578125,172.39,1.208031625,33.77
2021-06-23 11:20:16.210937500,-37.25,4.0,52.0,70.535234375,167.74,1.2081116875,33.77
2021-06-23 11:20:16.218750000,-37.0,4.0,52.0,70.5346875,163.09,1.2081917500000001,33.77
2021-06-23 11:20:16.226562500,-37.0,4.0,52.0,70.53414062499999,158.15,1.2082718125,33.77
2021-06-23 11:20:16.234375000,-37.0,4.0,52.0,70.53359375,153.21,1.208351875,33.77
2021-06-23 11:20:16.242187500,-37.0,4.0,52.0,70.533046875,148.135,1.2084319375,33.77
2021-06-23 11:20:16.250000000,-37.0,4.0,52.0,70.5325,143.06,1.208512,33.77
2021-06-23 11:20:16.257812500,-37.0,4.0,52.0,70.531953125,137.82999999999998,1.2082717812500001,33.77
2021-06-23 11:20:16.265625000,-37.0,4.0,52.0,70.53140625,132.6,1.2080315625,33.77
2021-06-23 11:20:16.273437500,-37.0,4.0,52.0,70.530859375,127.07499999999999,1.20779134375,33.77
2021-06-23 11:20:16.281250000,-37.0,4.0,52.0,70.5303125,121.55,1.207551125,33.77
2021-06-23 11:20:16.289062500,-37.0,4.0,52.0,70.529765625,115.61,1.20731090625,33.77
2021-06-23 11:20:16.296875000,-37.0,4.0,52.0,70.52921875,109.67,1.2070706875000001,33.77
2021-06-23 11:20:16.304687500,-37.0,4.0,52.0,70.528671875,103.36500000000001,1.20683046875,33.77
2021-06-23 11:20:16.312500000,-37.0,4.0,52.0,70.528125,97.06,1.20659025,33.77
