TimeStamp,empatica.acc.x,empatica.acc.y,empatica.acc.z,empatica.hr,empatica.bvp,empatica.eda,empatica.temp
2021-06-21 12:06:39.398437500,-50.0,11.75,39.0,82.5703125,1.11,0.21726659375000001,28.57
2021-06-21 12:06:39.406250000,-50.0,12.0,39.0,82.56875000000001,1.36,0.217306625,28.57
2021-06-21 12:06:39.414062500,-49.75,12.0,39.5,82.5671875,1.5550000000000002,0.21734665625000002,28.57
2021-06-21 12:06:39.421875000,-49.5,12.0,40.0,82.56562500000001,1.75,0.2173866875,28.57
2021-06-21 12:06:39.429687500,-49.25,12.0,40.5,82.5640625,1.87,0.21742671875,28.57
2021-06-21 12:06:39.437500000,-49.0,12.0,41.0,82.5625,1.99,0.21746675000000001,28.57
2021-06-21 12:06:39.445312500,-48.75,12.0,41.0,82.56093750000001,2.02,0.21750678125,28.57
2021-06-21 12:06:39.453125000,-48.5,12.0,41.0,82.559375,2.05,0.21754681250000002,28.57
2021-06-21 12:06:39.460937500,-48.25,12.0,41.0,82.55781250000001,1.96,0.21758684375,28.57
2021-06-21 12:06:39.468750000,-48.0,12.0,41.0,82.55625,1.87,0.217626875,28.57
2021-06-21 12:06:39.476562500,-48.5,12.0,40.75,82.5546875,1.67,0.21766690625000001,28.57
2021-06-21 12:06:39.484375000,-49.0,12.0,40.5,82.55312500000001,1.47,0.2177069375,28.57
2021-06-21 12:06:39.492187500,-49.5,12.0,40.25,82.5515625,1.195,0.21774696875000002,28.57
2021-06-21 12:06:39.500000000,-50.0,12.0,40.0,82.55000000000001,0.92,0.217787,28.57
2021-06-21 12:06:39.507812500,-50.0,12.25,40.25,82.5484375,0.62,0.2177069375,28.57
2021-06-21 12:06:39.515625000,-50.0,12.5,40.5,82.546875,0.32,0.217626875,28.57
2021-06-21 12:06:39.523437500,-50.0,12.75,40.75,82.54531250000001,0.044999999999999984,0.21754681250000002,28.57
2021-06-21 12:06:39.531250000,-50.0,13.0,41.0,82.54375,-0.23,0.21746675000000001,28.57
2021-06-21 12:06:39.539062500,-49.5,12.75,41.25,82.5421875,-0.46499999999999997,0.2173866875,28.57
2021-06-21 12:06:39.546875000,-49.0,12.5,41.5,82.540625,-0.7,0.217306625,28.57
2021-06-21 12:06:39.554687500,-48.5,12.25,41.75,82.5390625,-0.88,0.2172265625,28.57
2021-06-21 12:06:39.562500000,-48.0,12.0,42.0,82.53750000000001,-1.06,0.21714650000000002,28.57
2021-06-21 12:06:39.570312500,-48.25,12.0,41.5,82.5359375,-1.2000000000000002,0.21706643750000001,28.57
2021-06-21 12:06:39.578125000,-48.5,12.0,41.0,82.534375,-1.34,0.216986375,28.57
2021-06-21 12:06:39.585937500,-48.75,12.0,40.5,82.5328125,-1.42,0.2169063125,28.57
2021-06-21 12:06:39.593750000,-49.0,12.0,40.0,82.53125,-1.5,0.21682625,28.57
2021-06-21 12:06:39.601562500,-49.25,12.0,40.25,82.52968750000001,-1.495,0.2167461875,28.57
2021-06-21 12:06:39.609375000,-49.5,12.0,40.5,82.528125,-1.49,0.21666612500000001,28.57
2021-06-21 12:06:39.617187500,-49.75,12.0,40.75,82.5265625,-1.37,0.2165860625,28.57
2021-06-21 12:06:39.625000000,-50.0,12.0,41.0,82.525,-1.25,0.216506,28.57
2021-06-21 12:06:39.632812500,-49.5,12.25,41.25,82.5234375,-1.02,0.2164259375,28.57
2021-06-21 12:06:39.640625000,-49.0,12.5,41.5,82.52187500000001,-0.79,0.216345875,28.57
2021-06-21 12:06:39.648437500,-48.5,12.75,41.75,82.5203125,-0.485,0.21626581250000002,28.57
2021-06-21 12:06:39.656250000,-48.0,13.0,42.0,82.51875,-0.18,0.21618575,28.57
2021-06-21 12:06:39.664062500,-47.75,12.75,41.75,82.5171875,0.125,0.2161056875,28.57
2021-06-21 12:06:39.671875000,-47.5,12.5,41.5,82.515625,0.43,0.216025625,28.57
2021-06-21 12:06:39.679687500,-47.25,12.25,41.25,82.51406250000001,0.665,0.2159455625,28.57
2021-06-21 12:06:39.687500000,-47.0,12.0,41.0,82.5125,0.9,0.2158655,28.57
2021-06-21 12:06:39.695312500,-47.75,12.0,41.0,82.5109375,1.0,0.2157854375,28.57
2021-06-21 12:06:39.703125000,-48.5,12.0,41.0,82.509375,1.1,0.215705375,28.57
2021-06-21 12:06:39.710937500,-49.25,12.0,41.0,82.5078125,1.05,0.2156253125,28.57
2021-06-21 12:06:39.718750000,-50.0,12.0,41.0,82.50625000000001,1.0,0.21554525,28.57
2021-06-21 12:06:39.726562500,-50.25,12.0,41.0,82.5046875,0.825,0.2154651875,28.57
2021-06-21 12:06:39.734375000,-50.5,12.0,41.0,82.503125,0.65,0.215385125,28.57
2021-06-21 12:06:39.742187500,-50.75,12.0,41.0,82.5015625,0.42000000000000004,0.2153050625,28.57
2021-06-21 12:06:39.750000000,-51.0,12.0,41.0,82.5,0.19,0.215225,28.57
2021-06-21 12:06:39.757812500,-50.5,12.0,41.0,82.49843750000001,-0.015000000000000013,0.2153050625,28.57
2021-06-21 12:06:39.765625000,-50.0,12.0,41.0,82.496875,-0.22,0.215385125,28.57
2021-06-21 12:06:39.773437500,-49.5,12.0,41.0,82.4953125,-0.335,0.2154651875,28.57
2021-06-21 12:06:39.781250000,-49.0,12.0,41.0,82.49375,-0.45,0.21554525,28.57
2021-06-21 12:06:39.789062500,-48.75,12.0,41.0,82.4921875,-0.44,0.2156253125,28.57
2021-06-21 12:06:39.796875000,-48.5,12.0,41.0,82.49062500000001,-0.43,0.215705375,28.57
2021-06-21 12:06:39.804687500,-48.25,12.0,41.0,82.4890625,-0.31,0.2157854375,28.57
2021-06-21 12:06:39.812500000,-48.0,12.0,41.0,82.4875,-0.19,0.2158655,28.57
2021-06-21 12:06:39.820312500,-48.5,12.25,41.0,82.4859375,-0.010000000000000009,0.2159455625,28.57
2021-06-21 12:06:39.828125000,-49.0,12.5,41.0,82.484375,0.17,0.216025625,28.57
2021-06-21 12:06:39.835937500,-49.5,12.75,41.0,82.48281250000001,0.32999999999999996,0.2161056875,28.57
2021-06-21 12:06:39.843750000,-50.0,13.0,41.0,82.48125,0.49,0.21618575,28.57
2021-06-21 12:06:39.851562500,-50.0,13.0,41.0,82.4796875,0.59,0.21626581250000002,28.57
2021-06-21 12:06:39.859375000,-50.0,13.0,41.0,82.478125,0.69,0.216345875,28.57
2021-06-21 12:06:39.867187500,-50.0,13.0,41.0,82.4765625,0.71,0.2164259375,28.57
2021-06-21 12:06:39.875000000,-50.0,13.0,41.0,82.47500000000001,0.73,0.216506,28.57
2021-06-21 12:06:39.882812500,-49.75,13.0,41.0,82.4734375,0.7050000000000001,0.2165860625,28.57
2021-06-21 12:06:39.890625000,-49.5,13.0,41.0,82.471875,0.68,0.21666612500000001,28.57
2021-06-21 12:06:39.898437500,-49.25,13.0,41.0,82.4703125,0.66,0.2167461875,28.57
2021-06-21 12:06:39.906250000,-49.0,13.0,41.0,82.46875,0.64,0.21682625,28.57
2021-06-21 12:06:39.914062500,-49.25,12.75,40.75,82.46718750000001,0.69,0.2169063125,28.57
2021-06-21 12:06:39.921875000,-49.5,12.5,40.5,82.465625,0.74,0.216986375,28.57
2021-06-21 12:06:39.929687500,-49.75,12.25,40.25,82.4640625,0.89,0.21706643750000001,28.57
2021-06-21 12:06:39.937500000,-50.0,12.0,40.0,82.4625,1.04,0.21714650000000002,28.57
2021-06-21 12:06:39.945312500,-50.0,12.0,40.0,82.4609375,1.27,0.2172265625,28.57
2021-06-21 12:06:39.953125000,-50.0,12.0,40.0,82.45937500000001,1.5,0.217306625,28.57
2021-06-21 12:06:39.960937500,-50.0,12.0,40.0,82.4578125,1.785,0.2173866875,28.57
2021-06-21 12:06:39.968750000,-50.0,12.0,40.0,82.45625,2.07,0.21746675000000001,28.57
2021-06-21 12:06:39.976562500,-49.5,12.25,40.5,82.4546875,2.3499999999999996,0.21754681250000002,28.57
2021-06-21 12:06:39.984375000,-49.0,12.5,41.0,82.453125,2.63,0.217626875,28.57
2021-06-21 12:06:39.992187500,-48.5,12.75,41.5,82.45156250000001,2.865,0.2177069375,28.57
2021-06-21 12:06:40.000000000,-48.0,13.0,42.0,82.45,3.1,0.217787,28.57
2021-06-21 12:06:40.007812500,-48.0,13.0,41.75,82.4478125,3.2750000000000004,0.2177069375,28.57
2021-06-21 12:06:40.015625000,-48.0,13.0,41.5,82.445625,3.45,0.217626875,28.57
2021-06-21 12:06:40.023437500,-48.0,13.0,41.25,82.4434375,3.56,0.21754681250000002,28.57
2021-06-21 12:06:40.031250000,-48.0,13.0,41.0,82.44125,3.67,0.21746675000000001,28.57
2021-06-21 12:06:40.039062500,-48.5,12.75,40.75,82.4390625,3.7249999999999996,0.2173866875,28.57
2021-06-21 12:06:40.046875000,-49.0,12.5,40.5,82.436875,3.78,0.217306625,28.57
2021-06-21 12:06:40.054687500,-49.5,12.25,40.25,82.43468750000001,3.795,0.2172265625,28.57
2021-06-21 12:06:40.062500000,-50.0,12.0,40.0,82.4325,3.81,0.21714650000000002,28.57
2021-06-21 12:06:40.070312500,-50.25,12.0,40.0,82.4303125,3.8,0.21706643750000001,28.57
2021-06-21 12:06:40.078125000,-50.5,12.0,40.0,82.42812500000001,3.79,0.216986375,28.57
2021-06-21 12:06:40.085937500,-50.75,12.0,40.0,82.4259375,3.795,0.2169063125,28.57
2021-06-21 12:06:40.093750000,-51.0,12.0,40.0,82.42375,3.8,0.21682625,28.57
2021-06-21 12:06:40.101562500,-50.5,12.0,40.25,82.42156250000001,3.83,0.2167461875,28.57
2021-06-21 12:06:40.109375000,-50.0,12.0,40.5,82.419375,3.86,0.21666612500000001,28.57
2021-06-21 12:06:40.117187500,-49.5,12.0,40.75,82.4171875,3.9349999999999996,0.2165860625,28.57
2021-06-21 12:06:40.125000000,-49.0,12.0,41.0,82.415,4.01,0.216506,28.57
2021-06-21 12:06:40.132812500,-48.75,12.0,41.25,82.4128125,4.115,0.2164259375,28.57
2021-06-21 12:06:40.140625000,-48.5,12.0,41.5,82.410625,4.22,0.216345875,28.57
2021-06-21 12:06:40.148437500,-48.25,12.0,41.75,82.4084375,4.33,0.21626581250000002,28.57
2021-06-21 12:06:40.156250000,-48.0,12.0,42.0,82.40625,4.44,0.21618575,28.57
2021-06-21 12:06:40.164062500,-48.5,12.0,41.5,82.40406250000001,4.53,0.2161056875,28.57
2021-06-21 12:06:40.171875000,-49.0,12.0,41.0,82.401875,4.62,0.216025625,28.57
2021-06-21 12:06:40.179687500,-49.5,12.0,40.5,82.3996875,4.6850000000000005,0.2159455625,28.57
2021-06-21 12:06:40.187500000,-50.0,12.0,40.0,82.39750000000001,4.75,0.2158655,28.57
2021-06-21 12:06:40.195312500,-50.0,12.0,40.0,82.3953125,4.8100000000000005,0.2157854375,28.57
2021-06-21 12:06:40.203125000,-50.0,12.0,40.0,82.393125,4.87,0.215705375,28.57
2021-06-21 12:06:40.210937500,-50.0,12.0,40.0,82.3909375,4.96,0.2156253125,28.57
2021-06-21 12:06:40.218750000,-50.0,12.0,40.0,82.38875,5.05,0.21554525,28.57
2021-06-21 12:06:40.226562500,-49.75,12.0,40.0,82.3865625,5.205,0.2154651875,28.57
2021-06-21 12:06:40.234375000,-49.5,12.0,40.0,82.384375,5.36,0.215385125,28.57
2021-06-21 12:06:40.242187500,-49.25,12.0,40.0,82.3821875,5.5600000000000005,0.2153050625,28.57
2021-06-21 12:06:40.250000000,-49.0,12.0,40.0,82.38,5.76,0.215225,28.57
2021-06-21 12:06:40.257812500,-49.0,12.0,40.0,82.3778125,5.949999999999999,0.2153050625,28.57
2021-06-21 12:06:40.265625000,-49.0,12.0,40.0,82.375625,6.14,0.215385125,28.57
2021-06-21 12:06:40.273437500,-49.0,12.0,40.0,82.37343750000001,6.25,0.2154651875,28.57
2021-06-21 12:06:40.281250000,-49.0,12.0,40.0,82.37125,6.36,0.21554525,28.57
2021-06-21 12:06:40.289062500,-49.0,12.25,40.25,82.3690625,6.34,0.2156253125,28.57
2021-06-21 12:06:40.296875000,-49.0,12.5,40.5,82.36687500000001,6.32,0.215705375,28.57
2021-06-21 12:06:40.304687500,-49.0,12.75,40.75,82.3646875,6.16,0.2157854375,28.57
2021-06-21 12:06:40.312500000,-49.0,13.0,41.0,82.3625,6.0,0.2158655,28.57
2021-06-21 12:06:40.320312500,-49.0,12.75,41.0,82.3603125,5.745,0.2159455625,28.57
2021-06-21 12:06:40.328125000,-49.0,12.5,41.0,82.358125,5.49,0.216025625,28.57
2021-06-21 12:06:40.335937500,-49.0,12.25,41.0,82.3559375,5.205,0.2161056875,28.57
2021-06-21 12:06:40.343750000,-49.0,12.0,41.0,82.35375,4.92,0.21618575,28.57
2021-06-21 12:06:40.351562500,-49.0,12.0,41.0,82.3515625,4.654999999999999,0.21626581250000002,28.57
2021-06-21 12:06:40.359375000,-49.0,12.0,41.0,82.34937500000001,4.39,0.216345875,28.57
2021-06-21 12:06:40.367187500,-49.0,12.0,41.0,82.3471875,4.18,0.2164259375,28.57
2021-06-21 12:06:40.375000000,-49.0,12.0,41.0,82.345,3.97,0.216506,28.57
2021-06-21 12:06:40.382812500,-49.25,12.0,40.75,82.34281250000001,3.805,0.2165860625,28.57
2021-06-21 12:06:40.390625000,-49.5,12.0,40.5,82.340625,3.64,0.21666612500000001,28.57
2021-06-21 12:06:40.398437500,-49.75,12.0,40.25,82.3384375,3.51,0.2167461875,28.57
2021-06-21 12:06:40.406250000,-50.0,12.0,40.0,82.33625,3.38,0.21682625,28.57
2021-06-21 12:06:40.414062500,-50.0,12.0,40.0,82.3340625,3.285,0.2169063125,28.57
2021-06-21 12:06:40.421875000,-50.0,12.0,40.0,82.331875,3.19,0.216986375,28.57
2021-06-21 12:06:40.429687500,-50.0,12.0,40.0,82.3296875,3.1399999999999997,0.21706643750000001,28.57
2021-06-21 12:06:40.437500000,-50.0,12.0,40.0,82.3275,3.09,0.21714650000000002,28.57
2021-06-21 12:06:40.445312500,-49.5,12.0,40.25,82.3253125,3.05,0.2172265625,28.57
2021-06-21 12:06:40.453125000,-49.0,12.0,40.5,82.323125,3.01,0.217306625,28.57
2021-06-21 12:06:40.460937500,-48.5,12.0,40.75,82.3209375,2.8949999999999996,0.2173866875,28.57
2021-06-21 12:06:40.468750000,-48.0,12.0,41.0,82.31875000000001,2.78,0.21746675000000001,28.57
2021-06-21 12:06:40.476562500,-48.25,12.0,41.0,82.3165625,2.4749999999999996,0.21754681250000002,28.57
2021-06-21 12:06:40.484375000,-48.5,12.0,41.0,82.314375,2.17,0.217626875,28.57
2021-06-21 12:06:40.492187500,-48.75,12.0,41.0,82.31218750000001,1.555,0.2177069375,28.57
2021-06-21 12:06:40.500000000,-49.0,12.0,41.0,82.31,0.94,0.217787,28.57
2021-06-21 12:06:40.507812500,-49.25,12.0,40.75,82.3078125,-0.03500000000000003,0.2178670625,28.57
2021-06-21 12:06:40.515625000,-49.5,12.0,40.5,82.305625,-1.01,0.21794712500000002,28.57
2021-06-21 12:06:40.523437500,-49.75,12.0,40.25,82.3034375,-2.255,0.2180271875,28.57
2021-06-21 12:06:40.531250000,-50.0,12.0,40.0,82.30125,-3.5,0.21810725,28.57
2021-06-21 12:06:40.539062500,-50.0,12.0,40.0,82.2990625,-4.84,0.2181873125,28.57
2021-06-21 12:06:40.546875000,-50.0,12.0,40.0,82.296875,-6.18,0.218267375,28.57
2021-06-21 12:06:40.554687500,-50.0,12.0,40.0,82.29468750000001,-7.3999999999999995,0.2183474375,28.57
2021-06-21 12:06:40.562500000,-50.0,12.0,40.0,82.2925,-8.62,0.2184275,28.57
2021-06-21 12:06:40.570312500,-49.75,12.0,40.25,82.2903125,-9.585,0.2185075625,28.57
2021-06-21 12:06:40.578125000,-49.5,12.0,40.5,82.28812500000001,-10.55,0.218587625,28.57
2021-06-21 12:06:40.585937500,-49.25,12.0,40.75,82.2859375,-11.235,0.2186676875,28.57
2021-06-21 12:06:40.593750000,-49.0,12.0,41.0,82.28375,-11.92,0.21874775,28.57
2021-06-21 12:06:40.601562500,-49.0,12.0,41.0,82.2815625,-12.4,0.2188278125,28.57
2021-06-21 12:06:40.609375000,-49.0,12.0,41.0,82.279375,-12.88,0.218907875,28.57
2021-06-21 12:06:40.617187500,-49.0,12.0,41.0,82.2771875,-13.24,0.2189879375,28.57
2021-06-21 12:06:40.625000000,-49.0,12.0,41.0,82.275,-13.6,0.21906799999999998,28.57
2021-06-21 12:06:40.632812500,-49.0,12.0,40.75,82.2728125,-13.86,0.2191480625,28.57
2021-06-21 12:06:40.640625000,-49.0,12.0,40.5,82.270625,-14.12,0.219228125,28.57
2021-06-21 12:06:40.648437500,-49.0,12.0,40.25,82.2684375,-14.2,0.2193081875,28.57
2021-06-21 12:06:40.656250000,-49.0,12.0,40.0,82.26625,-14.28,0.21938825,28.57
2021-06-21 12:06:40.664062500,-49.25,12.0,40.0,82.26406250000001,-14.075,0.21946831249999998,28.57
2021-06-21 12:06:40.671875000,-49.5,12.0,40.0,82.261875,-13.87,0.219548375,28.57
2021-06-21 12:06:40.679687500,-49.75,12.0,40.0,82.2596875,-13.335,0.2196284375,28.57
2021-06-21 12:06:40.687500000,-50.0,12.0,40.0,82.25750000000001,-12.8,0.2197085,28.57
2021-06-21 12:06:40.695312500,-50.0,12.0,40.0,82.2553125,-12.02,0.2197885625,28.57
2021-06-21 12:06:40.703125000,-50.0,12.0,40.0,82.253125,-11.24,0.21986862499999998,28.57
2021-06-21 12:06:40.710937500,-50.0,12.0,40.0,82.2509375,-10.4,0.2199486875,28.57
2021-06-21 12:06:40.718750000,-50.0,12.0,40.0,82.24875,-9.56,0.22002875,28.57
2021-06-21 12:06:40.726562500,-49.75,12.0,40.25,82.2465625,-8.865,0.2201088125,28.57
2021-06-21 12:06:40.734375000,-49.5,12.0,40.5,82.244375,-8.17,0.22018887499999998,28.57
2021-06-21 12:06:40.742187500,-49.25,12.0,40.75,82.2421875,-7.715,0.22026893749999998,28.57
2021-06-21 12:06:40.750000000,-49.0,12.0,41.0,82.24000000000001,-7.26,0.220349,28.57
2021-06-21 12:06:40.757812500,-49.0,12.0,41.0,82.2378125,-6.98,0.22026893749999998,28.57
2021-06-21 12:06:40.765625000,-49.0,12.0,41.0,82.235625,-6.7,0.22018887499999998,28.57
2021-06-21 12:06:40.773437500,-49.0,12.0,41.0,82.23343750000001,-6.425000000000001,0.2201088125,28.57
2021-06-21 12:06:40.781250000,-49.0,12.0,41.0,82.23125,-6.15,0.22002875,28.57
2021-06-21 12:06:40.789062500,-49.25,12.25,40.75,82.2290625,-5.720000000000001,0.2199486875,28.57
2021-06-21 12:06:40.796875000,-49.5,12.5,40.5,82.226875,-5.29,0.21986862499999998,28.57
2021-06-21 12:06:40.804687500,-49.75,12.75,40.25,82.2246875,-4.65,0.2197885625,28.57
2021-06-21 12:06:40.812500000,-50.0,13.0,40.0,82.2225,-4.01,0.2197085,28.57
2021-06-21 12:06:40.820312500,-50.0,12.75,40.0,82.2203125,-3.28,0.2196284375,28.57
2021-06-21 12:06:40.828125000,-50.0,12.5,40.0,82.218125,-2.55,0.219548375,28.57
2021-06-21 12:06:40.835937500,-50.0,12.25,40.0,82.2159375,-1.95,0.21946831249999998,28.57
2021-06-21 12:06:40.843750000,-50.0,12.0,40.0,82.21375,-1.35,0.21938825,28.57
2021-06-21 12:06:40.851562500,-49.75,12.0,39.75,82.2115625,-1.0550000000000002,0.2193081875,28.57
2021-06-21 12:06:40.859375000,-49.5,12.0,39.5,82.20937500000001,-0.76,0.219228125,28.57
2021-06-21 12:06:40.867187500,-49.25,12.0,39.25,82.2071875,-0.8,0.2191480625,28.57
2021-06-21 12:06:40.875000000,-49.0,12.0,39.0,82.205,-0.84,0.21906799999999998,28.57
2021-06-21 12:06:40.882812500,-49.25,12.0,39.25,82.20281250000001,-1.055,0.2189879375,28.57
2021-06-21 12:06:40.890625000,-49.5,12.0,39.5,82.200625,-1.27,0.218907875,28.57
2021-06-21 12:06:40.898437500,-49.75,12.0,39.75,82.1984375,-1.395,0.2188278125,28.57
2021-06-21 12:06:40.906250000,-50.0,12.0,40.0,82.19625,-1.52,0.21874775,28.57
2021-06-21 12:06:40.914062500,-49.75,12.25,40.25,82.1940625,-1.335,0.2186676875,28.57
2021-06-21 12:06:40.921875000,-49.5,12.5,40.5,82.191875,-1.15,0.218587625,28.57
2021-06-21 12:06:40.929687500,-49.25,12.75,40.75,82.1896875,-0.585,0.2185075625,28.57
2021-06-21 12:06:40.937500000,-49.0,13.0,41.0,82.1875,-0.02,0.2184275,28.57
2021-06-21 12:06:40.945312500,-49.0,12.75,40.75,82.1853125,0.79,0.2183474375,28.57
2021-06-21 12:06:40.953125000,-49.0,12.5,40.5,82.183125,1.6,0.218267375,28.57
2021-06-21 12:06:40.960937500,-49.0,12.25,40.25,82.1809375,2.38,0.2181873125,28.57
2021-06-21 12:06:40.968750000,-49.0,12.0,40.0,82.17875000000001,3.16,0.21810725,28.57
2021-06-21 12:06:40.976562500,-49.25,12.0,40.0,82.1765625,3.6750000000000003,0.2180271875,28.57
2021-06-21 12:06:40.984375000,-49.5,12.0,40.0,82.174375,4.19,0.21794712500000002,28.57
2021-06-21 12:06:40.992187500,-49.75,12.0,40.0,82.1721875,4.34,0.2178670625,28.57
2021-06-21 12:06:41.000000000,-50.0,12.0,40.0,82.17,4.49,0.217787,28.57
2021-06-21 12:06:41.007812500,-50.0,12.25,40.25,82.167109375,4.375,0.2178670625,28.57
2021-06-21 12:06:41.015625000,-50.0,12.5,40.5,82.16421875,4.26,0.21794712500000002,28.57
2021-06-21 12:06:41.023437500,-50.0,12.75,40.75,82.161328125,4.08,0.2180271875,28.57
2021-06-21 12:06:41.031250000,-50.0,13.0,41.0,82.1584375,3.9,0.21810725,28.57
2021-06-21 12:06:41.039062500,-49.75,12.75,41.0,82.155546875,3.835,0.2181873125,28.57
2021-06-21 12:06:41.046875000,-49.5,12.5,41.0,82.15265625,3.77,0.218267375,28.57
2021-06-21 12:06:41.054687500,-49.25,12.25,41.0,82.149765625,3.88,0.2183474375,28.57
2021-06-21 12:06:41.062500000,-49.0,12.0,41.0,82.146875,3.99,0.2184275,28.57
2021-06-21 12:06:41.070312500,-49.25,12.0,40.75,82.143984375,4.225,0.2185075625,28.57
2021-06-21 12:06:41.078125000,-49.5,12.0,40.5,82.14109375,4.46,0.218587625,28.57
2021-06-21 12:06:41.085937500,-49.75,12.0,40.25,82.138203125,4.705,0.2186676875,28.57
2021-06-21 12:06:41.093750000,-50.0,12.0,40.0,82.1353125,4.95,0.21874775,28.57
2021-06-21 12:06:41.101562500,-50.25,12.0,40.0,82.132421875,5.13,0.2188278125,28.57
2021-06-21 12:06:41.109375000,-50.5,12.0,40.0,82.12953125,5.31,0.218907875,28.57
2021-06-21 12:06:41.117187500,-50.75,12.0,40.0,82.12664062500001,5.42,0.2189879375,28.57
2021-06-21 12:06:41.125000000,-51.0,12.0,40.0,82.12375,5.53,0.21906799999999998,28.57
2021-06-21 12:06:41.132812500,-50.5,12.0,40.0,82.120859375,5.61,0.2191480625,28.57
2021-06-21 12:06:41.140625000,-50.0,12.0,40.0,82.11796875,5.69,0.219228125,28.57
2021-06-21 12:06:41.148437500,-49.5,12.0,40.0,82.115078125,5.785,0.2193081875,28.57
2021-06-21 12:06:41.156250000,-49.0,12.0,40.0,82.1121875,5.88,0.21938825,28.57
2021-06-21 12:06:41.164062500,-49.0,12.0,40.0,82.109296875,5.965,0.21946831249999998,28.57
2021-06-21 12:06:41.171875000,-49.0,12.0,40.0,82.10640625,6.05,0.219548375,28.57
2021-06-21 12:06:41.179687500,-49.0,12.0,40.0,82.103515625,6.07,0.2196284375,28.57
2021-06-21 12:06:41.187500000,-49.0,12.0,40.0,82.10062500000001,6.09,0.2197085,28.57
2021-06-21 12:06:41.195312500,-49.0,12.0,40.25,82.097734375,5.984999999999999,0.2197885625,28.57
2021-06-21 12:06:41.203125000,-49.0,12.0,40.5,82.09484375,5.88,0.21986862499999998,28.57
2021-06-21 12:06:41.210937500,-49.0,12.0,40.75,82.091953125,5.67,0.2199486875,28.57
2021-06-21 12:06:41.218750000,-49.0,12.0,41.0,82.0890625,5.46,0.22002875,28.57
2021-06-21 12:06:41.226562500,-49.0,12.25,41.25,82.086171875,5.23,0.2201088125,28.57
2021-06-21 12:06:41.234375000,-49.0,12.5,41.5,82.08328125,5.0,0.22018887499999998,28.57
2021-06-21 12:06:41.242187500,-49.0,12.75,41.75,82.080390625,4.845000000000001,0.22026893749999998,28.57
2021-06-21 12:06:41.250000000,-49.0,13.0,42.0,82.0775,4.69,0.220349,28.57
2021-06-21 12:06:41.257812500,-49.0,13.0,41.5,82.074609375,4.68,0.22030896875,28.57
2021-06-21 12:06:41.265625000,-49.0,13.0,41.0,82.07171875,4.67,0.22026893749999998,28.57
2021-06-21 12:06:41.273437500,-49.0,13.0,40.5,82.068828125,4.76,0.22022890625,28.57
2021-06-21 12:06:41.281250000,-49.0,13.0,40.0,82.0659375,4.85,0.220188875,28.57
2021-06-21 12:06:41.289062500,-49.25,12.75,40.0,82.063046875,4.91,0.22014884375,28.57
2021-06-21 12:06:41.296875000,-49.5,12.5,40.0,82.06015625,4.97,0.2201088125,28.57
2021-06-21 12:06:41.304687500,-49.75,12.25,40.0,82.057265625,4.824999999999999,0.22006878124999998,28.57
2021-06-21 12:06:41.312500000,-50.0,12.0,40.0,82.054375,4.68,0.22002875,28.57
2021-06-21 12:06:41.320312500,-50.0,12.0,40.0,82.051484375,4.2299999999999995,0.21998871875,28.57
2021-06-21 12:06:41.328125000,-50.0,12.0,40.0,82.04859375,3.78,0.2199486875,28.57
2021-06-21 12:06:41.335937500,-50.0,12.0,40.0,82.045703125,3.03,0.21990865625,28.57
2021-06-21 12:06:41.343750000,-50.0,12.0,40.0,82.0428125,2.28,0.21986862499999998,28.57
2021-06-21 12:06:41.351562500,-49.75,12.25,40.0,82.039921875,1.3599999999999999,0.21982859375,28.57
2021-06-21 12:06:41.359375000,-49.5,12.5,40.0,82.03703125,0.44,0.2197885625,28.57
2021-06-21 12:06:41.367187500,-49.25,12.75,40.0,82.034140625,-0.42,0.21974853125,28.57
2021-06-21 12:06:41.375000000,-49.0,13.0,40.0,82.03125,-1.28,0.2197085,28.57
2021-06-21 12:06:41.382812500,-49.5,13.0,40.25,82.028359375,-1.8650000000000002,0.21966846875,28.57
2021-06-21 12:06:41.390625000,-50.0,13.0,40.5,82.02546875,-2.45,0.2196284375,28.57
2021-06-21 12:06:41.398437500,-50.5,13.0,40.75,82.022578125,-2.645,0.21958840625,28.57
2021-06-21 12:06:41.406250000,-51.0,13.0,41.0,82.0196875,-2.84,0.21954837500000002,28.57
2021-06-21 12:06:41.414062500,-50.75,13.0,40.75,82.016796875,-2.67,0.21950834375,28.57
2021-06-21 12:06:41.421875000,-50.5,13.0,40.5,82.01390625,-2.5,0.2194683125,28.57
2021-06-21 12:06:41.429687500,-50.25,13.0,40.25,82.011015625,-2.11,0.21942828125,28.57
2021-06-21 12:06:41.437500000,-50.0,13.0,40.0,82.008125,-1.72,0.21938825,28.57
2021-06-21 12:06:41.445312500,-50.0,13.0,40.0,82.005234375,-1.315,0.21934821875000002,28.57
2021-06-21 12:06:41.453125000,-50.0,13.0,40.0,82.00234375,-0.91,0.2193081875,28.57
2021-06-21 12:06:41.460937500,-50.0,13.0,40.0,81.999453125,-0.645,0.21926815625,28.57
2021-06-21 12:06:41.468750000,-50.0,13.0,40.0,81.9965625,-0.38,0.219228125,28.57
2021-06-21 12:06:41.476562500,-50.0,13.0,40.0,81.993671875,-0.315,0.21918809375,28.57
2021-06-21 12:06:41.484375000,-50.0,13.0,40.0,81.99078125,-0.25,0.21914806250000002,28.57
2021-06-21 12:06:41.492187500,-50.0,13.0,40.0,81.987890625,-0.33999999999999997,0.21910803125,28.57
2021-06-21 12:06:41.500000000,-50.0,13.0,40.0,81.985,-0.43,0.219068,28.57
2021-06-21 12:06:41.507812500,-49.75,13.0,40.25,81.982109375,-0.585,0.21914806250000002,28.57
2021-06-21 12:06:41.515625000,-49.5,13.0,40.5,81.97921875,-0.74,0.21922812500000002,28.57
2021-06-21 12:06:41.523437500,-49.25,13.0,40.75,81.976328125,-0.91,0.2193081875,28.57
2021-06-21 12:06:41.531250000,-49.0,13.0,41.0,81.9734375,-1.08,0.21938825,28.57
2021-06-21 12:06:41.539062500,-49.0,13.25,41.5,81.970546875,-1.24,0.2194683125,28.57
2021-06-21 12:06:41.546875000,-49.0,13.5,42.0,81.96765625,-1.4,0.21954837500000002,28.57
2021-06-21 12:06:41.554687500,-49.0,13.75,42.5,81.964765625,-1.5699999999999998,0.2196284375,28.57
2021-06-21 12:06:41.562500000,-49.0,14.0,43.0,81.96187499999999,-1.74,0.2197085,28.57
2021-06-21 12:06:41.570312500,-48.75,14.25,42.75,81.958984375,-1.935,0.2197885625,28.57
2021-06-21 12:06:41.578125000,-48.5,14.5,42.5,81.95609375,-2.13,0.219868625,28.57
2021-06-21 12:06:41.585937500,-48.25,14.75,42.25,81.953203125,-2.32,0.21994868750000002,28.57
2021-06-21 12:06:41.593750000,-48.0,15.0,42.0,81.9503125,-2.51,0.22002875,28.57
2021-06-21 12:06:41.601562500,-47.75,14.5,41.5,81.947421875,-2.625,0.2201088125,28.57
2021-06-21 12:06:41.609375000,-47.5,14.0,41.0,81.94453125,-2.74,0.220188875,28.57
2021-06-21 12:06:41.617187500,-47.25,13.5,40.5,81.941640625,-2.7350000000000003,0.2202689375,28.57
2021-06-21 12:06:41.625000000,-47.0,13.0,40.0,81.93875,-2.73,0.22034900000000002,28.57
2021-06-21 12:06:41.632812500,-47.25,13.0,40.0,81.93585937499999,-2.6100000000000003,0.2204290625,28.57
2021-06-21 12:06:41.640625000,-47.5,13.0,40.0,81.93296875,-2.49,0.220509125,28.57
2021-06-21 12:06:41.648437500,-47.75,13.0,40.0,81.930078125,-2.3150000000000004,0.2205891875,28.57
2021-06-21 12:06:41.656250000,-48.0,13.0,40.0,81.9271875,-2.14,0.22066925,28.57
2021-06-21 12:06:41.664062500,-47.5,13.0,40.0,81.924296875,-2.02,0.2207493125,28.57
2021-06-21 12:06:41.671875000,-47.0,13.0,40.0,81.92140625,-1.9,0.220829375,28.57
2021-06-21 12:06:41.679687500,-46.5,13.0,40.0,81.918515625,-1.915,0.2209094375,28.57
2021-06-21 12:06:41.687500000,-46.0,13.0,40.0,81.915625,-1.93,0.2209895,28.57
2021-06-21 12:06:41.695312500,-46.5,13.25,40.25,81.912734375,-2.075,0.2210695625,28.57
2021-06-21 12:06:41.703125000,-47.0,13.5,40.5,81.90984375,-2.22,0.221149625,28.57
2021-06-21 12:06:41.710937500,-47.5,13.75,40.75,81.906953125,-2.435,0.2212296875,28.57
2021-06-21 12:06:41.718750000,-48.0,14.0,41.0,81.9040625,-2.65,0.22130975,28.57
2021-06-21 12:06:41.726562500,-48.25,13.75,41.25,81.901171875,-2.83,0.2213898125,28.57
2021-06-21 12:06:41.734375000,-48.5,13.5,41.5,81.89828125,-3.01,0.22146987499999998,28.57
2021-06-21 12:06:41.742187500,-48.75,13.25,41.75,81.895390625,-3.09,0.2215499375,28.57
2021-06-21 12:06:41.750000000,-49.0,13.0,42.0,81.8925,-3.17,0.22163,28.57
2021-06-21 12:06:41.757812500,-48.25,13.5,42.0,81.88960937499999,-3.135,0.22163,28.57
2021-06-21 12:06:41.765625000,-47.5,14.0,42.0,81.88671875,-3.1,0.22163,28.57
2021-06-21 12:06:41.773437500,-46.75,14.5,42.0,81.883828125,-3.01,0.22163,28.57
2021-06-21 12:06:41.781250000,-46.0,15.0,42.0,81.8809375,-2.92,0.22163,28.57
2021-06-21 12:06:41.789062500,-46.0,14.75,41.75,81.878046875,-2.825,0.22163,28.57
2021-06-21 12:06:41.796875000,-46.0,14.5,41.5,81.87515625,-2.73,0.22163,28.57
2021-06-21 12:06:41.804687500,-46.0,14.25,41.25,81.872265625,-2.67,0.22163,28.57
2021-06-21 12:06:41.812500000,-46.0,14.0,41.0,81.86937499999999,-2.61,0.22163,28.57
2021-06-21 12:06:41.820312500,-46.5,14.0,40.75,81.866484375,-2.5549999999999997,0.22163,28.57
2021-06-21 12:06:41.828125000,-47.0,14.0,40.5,81.86359374999999,-2.5,0.22163,28.57
2021-06-21 12:06:41.835937500,-47.5,14.0,40.25,81.860703125,-2.41,0.22163,28.57
2021-06-21 12:06:41.843750000,-48.0,14.0,40.0,81.8578125,-2.32,0.22163,28.57
2021-06-21 12:06:41.851562500,-48.25,14.0,40.25,81.854921875,-2.155,0.22163,28.57
2021-06-21 12:06:41.859375000,-48.5,14.0,40.5,81.85203125,-1.99,0.22163,28.57
2021-06-21 12:06:41.867187500,-48.75,14.0,40.75,81.849140625,-1.725,0.22163,28.57
2021-06-21 12:06:41.875000000,-49.0,14.0,41.0,81.84625,-1.46,0.22163,28.57
2021-06-21 12:06:41.882812500,-48.25,14.25,41.5,81.84335937499999,-1.135,0.22163,28.57
2021-06-21 12:06:41.890625000,-47.5,14.5,42.0,81.84046875,-0.81,0.22163,28.57
2021-06-21 12:06:41.898437500,-46.75,14.75,42.5,81.837578125,-0.495,0.22163,28.57
2021-06-21 12:06:41.906250000,-46.0,15.0,43.0,81.8346875,-0.18,0.22163,28.57
2021-06-21 12:06:41.914062500,-46.25,14.75,43.0,81.831796875,0.06,0.22163,28.57
2021-06-21 12:06:41.921875000,-46.5,14.5,43.0,81.82890625,0.3,0.22163,28.57
2021-06-21 12:06:41.929687500,-46.75,14.25,43.0,81.826015625,0.41000000000000003,0.22163,28.57
2021-06-21 12:06:41.937500000,-47.0,14.0,43.0,81.823125,0.52,0.22163,28.57
2021-06-21 12:06:41.945312500,-47.5,14.0,42.5,81.820234375,0.49,0.22163,28.57
2021-06-21 12:06:41.953125000,-48.0,14.0,42.0,81.81734374999999,0.46,0.22163,28.57
2021-06-21 12:06:41.960937500,-48.5,14.0,41.5,81.814453125,0.34500000000000003,0.22163,28.57
2021-06-21 12:06:41.968750000,-49.0,14.0,41.0,81.8115625,0.23,0.22163,28.57
2021-06-21 12:06:41.976562500,-49.25,14.0,41.0,81.808671875,0.10500000000000001,0.22163,28.57
2021-06-21 12:06:41.984375000,-49.5,14.0,41.0,81.80578125,-0.02,0.22163,28.57
2021-06-21 12:06:41.992187500,-49.75,14.0,41.0,81.802890625,-0.075,0.22163,28.57
2021-06-21 12:06:42.000000000,-50.0,14.0,41.0,81.8,-0.13,0.22163,28.57
2021-06-21 12:06:42.007812500,-49.5,14.0,41.0,81.79703125,-0.05500000000000001,0.221750125,28.57
2021-06-21 12:06:42.015625000,-49.0,14.0,41.0,81.7940625,0.02,0.22187025,28.57
2021-06-21 12:06:42.023437500,-48.5,14.0,41.0,81.79109375,0.21,0.221990375,28.57
2021-06-21 12:06:42.031250000,-48.0,14.0,41.0,81.788125,0.4,0.2221105,28.57
2021-06-21 12:06:42.039062500,-47.75,14.5,41.25,81.78515625,0.66,0.222230625,28.57
2021-06-21 12:06:42.046875000,-47.5,15.0,41.5,81.78218749999999,0.92,0.22235074999999999,28.57
2021-06-21 12:06:42.054687500,-47.25,15.5,41.75,81.77921875,1.18,0.22247087499999998,28.57
2021-06-21 12:06:42.062500000,-47.0,16.0,42.0,81.77625,1.44,0.22259099999999998,28.57
2021-06-21 12:06:42.070312500,-47.0,16.0,42.0,81.77328125,1.635,0.222711125,28.57
2021-06-21 12:06:42.078125000,-47.0,16.0,42.0,81.7703125,1.83,0.22283125,28.57
2021-06-21 12:06:42.085937500,-47.0,16.0,42.0,81.76734375,1.94,0.222951375,28.57
2021-06-21 12:06:42.093750000,-47.0,16.0,42.0,81.764375,2.05,0.2230715,28.57
2021-06-21 12:06:42.101562500,-47.25,15.75,42.0,81.76140625,2.075,0.223191625,28.57
2021-06-21 12:06:42.109375000,-47.5,15.5,42.0,81.7584375,2.1,0.22331175,28.57
2021-06-21 12:06:42.117187500,-47.75,15.25,42.0,81.75546874999999,2.05,0.223431875,28.57
2021-06-21 12:06:42.125000000,-48.0,15.0,42.0,81.7525,2.0,0.223552,28.57
2021-06-21 12:06:42.132812500,-47.75,14.75,42.0,81.74953125,1.8900000000000001,0.223672125,28.57
2021-06-21 12:06:42.140625000,-47.5,14.5,42.0,81.7465625,1.78,0.22379225,28.57
2021-06-21 12:06:42.148437500,-47.25,14.25,42.0,81.74359375,1.63,0.223912375,28.57
2021-06-21 12:06:42.156250000,-47.0,14.0,42.0,81.740625,1.48,0.2240325,28.57
2021-06-21 12:06:42.164062500,-47.25,14.0,41.75,81.73765625,1.305,0.224152625,28.57
2021-06-21 12:06:42.171875000,-47.5,14.0,41.5,81.73468749999999,1.13,0.22427275,28.57
2021-06-21 12:06:42.179687500,-47.75,14.0,41.25,81.73171875,0.97,0.224392875,28.57
2021-06-21 12:06:42.187500000,-48.0,14.0,41.0,81.72874999999999,0.81,0.22451300000000002,28.57
2021-06-21 12:06:42.195312500,-48.0,13.75,40.75,81.72578125,0.69,0.22463312500000002,28.57
2021-06-21 12:06:42.203125000,-48.0,13.5,40.5,81.7228125,0.57,0.22475325000000002,28.57
2021-06-21 12:06:42.210937500,-48.0,13.25,40.25,81.71984375,0.495,0.22487337500000001,28.57
2021-06-21 12:06:42.218750000,-48.0,13.0,40.0,81.716875,0.42,0.2249935,28.57
2021-06-21 12:06:42.226562500,-48.0,13.25,40.5,81.71390625,0.355,0.225113625,28.57
2021-06-21 12:06:42.234375000,-48.0,13.5,41.0,81.7109375,0.29,0.22523375,28.57
2021-06-21 12:06:42.242187500,-48.0,13.75,41.5,81.70796874999999,0.19999999999999998,0.225353875,28.57
2021-06-21 12:06:42.250000000,-48.0,14.0,42.0,81.705,0.11,0.225474,28.57
2021-06-21 12:06:42.257812500,-48.25,14.0,41.75,81.70203125,-0.015,0.22539390625,28.57
2021-06-21 12:06:42.265625000,-48.5,14.0,41.5,81.6990625,-0.14,0.22531381250000002,28.57
2021-06-21 12:06:42.273437500,-48.75,14.0,41.25,81.69609375,-0.26,0.22523371875,28.57
2021-06-21 12:06:42.281250000,-49.0,14.0,41.0,81.693125,-0.38,0.225153625,28.57
2021-06-21 12:06:42.289062500,-48.75,14.0,41.0,81.69015625,-0.46,0.22507353125000001,28.57
2021-06-21 12:06:42.296875000,-48.5,14.0,41.0,81.6871875,-0.54,0.2249934375,28.57
2021-06-21 12:06:42.304687500,-48.25,14.0,41.0,81.68421875,-0.525,0.22491334375,28.57
2021-06-21 12:06:42.312500000,-48.0,14.0,41.0,81.68125,-0.51,0.22483325,28.57
2021-06-21 12:06:42.320312500,-47.75,14.25,41.25,81.67828125,-0.4,0.22475315625,28.57
2021-06-21 12:06:42.328125000,-47.5,14.5,41.5,81.6753125,-0.29,0.2246730625,28.57
2021-06-21 12:06:42.335937500,-47.25,14.75,41.75,81.67234375,-0.145,0.22459296875,28.57
2021-06-21 12:06:42.343750000,-47.0,15.0,42.0,81.669375,0.0,0.224512875,28.57
2021-06-21 12:06:42.351562500,-47.25,15.0,42.0,81.66640625,0.13,0.22443278125,28.57
2021-06-21 12:06:42.359375000,-47.5,15.0,42.0,81.6634375,0.26,0.2243526875,28.57
2021-06-21 12:06:42.367187500,-47.75,15.0,42.0,81.66046874999999,0.33999999999999997,0.22427259375,28.57
2021-06-21 12:06:42.375000000,-48.0,15.0,42.0,81.6575,0.42,0.22419250000000002,28.57
2021-06-21 12:06:42.382812500,-48.25,14.75,41.75,81.65453125,0.45999999999999996,0.22411240625,28.57
2021-06-21 12:06:42.390625000,-48.5,14.5,41.5,81.6515625,0.5,0.2240323125,28.57
2021-06-21 12:06:42.398437500,-48.75,14.25,41.25,81.64859375,0.54,0.22395221875000001,28.57
2021-06-21 12:06:42.406250000,-49.0,14.0,41.0,81.645625,0.58,0.223872125,28.57
2021-06-21 12:06:42.414062500,-48.75,14.0,41.0,81.64265625,0.665,0.22379203125,28.57
2021-06-21 12:06:42.421875000,-48.5,14.0,41.0,81.6396875,0.75,0.2237119375,28.57
2021-06-21 12:06:42.429687500,-48.25,14.0,41.0,81.63671875,0.91,0.22363184375,28.57
2021-06-21 12:06:42.437500000,-48.0,14.0,41.0,81.63374999999999,1.07,0.22355175,28.57
2021-06-21 12:06:42.445312500,-47.5,13.75,41.25,81.63078125,1.3250000000000002,0.22347165625,28.57
2021-06-21 12:06:42.453125000,-47.0,13.5,41.5,81.6278125,1.58,0.2233915625,28.57
2021-06-21 12:06:42.460937500,-46.5,13.25,41.75,81.62484375,1.96,0.22331146875,28.57
2021-06-21 12:06:42.468750000,-46.0,13.0,42.0,81.621875,2.34,0.223231375,28.57
2021-06-21 12:06:42.476562500,-46.25,13.25,42.0,81.61890625,2.86,0.22315128125,28.57
2021-06-21 12:06:42.484375000,-46.5,13.5,42.0,81.6159375,3.38,0.2230711875,28.57
2021-06-21 12:06:42.492187500,-46.75,13.75,42.0,81.61296875,4.055,0.22299109375,28.57
2021-06-21 12:06:42.500000000,-47.0,14.0,42.0,81.61,4.73,0.222911,28.57
2021-06-21 12:06:42.507812500,-47.25,14.0,42.0,81.60703125,5.52,0.22295103125,28.57
2021-06-21 12:06:42.515625000,-47.5,14.0,42.0,81.6040625,6.31,0.2229910625,28.57
2021-06-21 12:06:42.523437500,-47.75,14.0,42.0,81.60109375,7.145,0.22303109375,28.57
2021-06-21 12:06:42.531250000,-48.0,14.0,42.0,81.598125,7.98,0.223071125,28.57
2021-06-21 12:06:42.539062500,-48.0,13.75,42.0,81.59515625,8.79,0.22311115625,28.57
2021-06-21 12:06:42.546875000,-48.0,13.5,42.0,81.5921875,9.6,0.2231511875,28.57
2021-06-21 12:06:42.554687500,-48.0,13.25,42.0,81.58921875,10.35,0.22319121875,28.57
2021-06-21 12:06:42.562500000,-48.0,13.0,42.0,81.58625,11.1,0.22323125,28.57
2021-06-21 12:06:42.570312500,-48.0,13.25,41.75,81.58328125,11.83,0.22327128125,28.57
2021-06-21 12:06:42.578125000,-48.0,13.5,41.5,81.5803125,12.56,0.2233113125,28.57
2021-06-21 12:06:42.585937500,-48.0,13.75,41.25,81.57734375,13.365,0.22335134375,28.57
2021-06-21 12:06:42.593750000,-48.0,14.0,41.0,81.574375,14.17,0.223391375,28.57
2021-06-21 12:06:42.601562500,-48.25,14.0,41.0,81.57140625,15.145,0.22343140625,28.57
2021-06-21 12:06:42.609375000,-48.5,14.0,41.0,81.5684375,16.12,0.2234714375,28.57
2021-06-21 12:06:42.617187500,-48.75,14.0,41.0,81.56546875,17.32,0.22351146875,28.57
2021-06-21 12:06:42.625000000,-49.0,14.0,41.0,81.5625,18.52,0.22355150000000001,28.57
2021-06-21 12:06:42.632812500,-49.0,14.0,41.25,81.55953125,19.91,0.22359153125,28.57
2021-06-21 12:06:42.640625000,-49.0,14.0,41.5,81.5565625,21.3,0.2236315625,28.57
2021-06-21 12:06:42.648437500,-49.0,14.0,41.75,81.55359375,22.79,0.22367159375,28.57
2021-06-21 12:06:42.656250000,-49.0,14.0,42.0,81.550625,24.28,0.223711625,28.57
2021-06-21 12:06:42.664062500,-48.5,14.0,42.0,81.54765625,25.735,0.22375165625000001,28.57
2021-06-21 12:06:42.671875000,-48.0,14.0,42.0,81.5446875,27.19,0.2237916875,28.57
2021-06-21 12:06:42.679687500,-47.5,14.0,42.0,81.54171875,28.5,0.22383171875,28.57
2021-06-21 12:06:42.687500000,-47.0,14.0,42.0,81.53875,29.81,0.22387175,28.57
2021-06-21 12:06:42.695312500,-47.0,14.0,42.0,81.53578125,30.895,0.22391178125,28.57
2021-06-21 12:06:42.703125000,-47.0,14.0,42.0,81.5328125,31.98,0.2239518125,28.57
2021-06-21 12:06:42.710937500,-47.0,14.0,42.0,81.52984375,32.805,0.22399184375,28.57
2021-06-21 12:06:42.718750000,-47.0,14.0,42.0,81.526875,33.63,0.224031875,28.57
2021-06-21 12:06:42.726562500,-47.25,14.0,41.75,81.52390625,34.175,0.22407190625,28.57
2021-06-21 12:06:42.734375000,-47.5,14.0,41.5,81.5209375,34.72,0.2241119375,28.57
2021-06-21 12:06:42.742187500,-47.75,14.0,41.25,81.51796875,34.985,0.22415196875,28.57
2021-06-21 12:06:42.750000000,-48.0,14.0,41.0,81.515,35.25,0.224192,28.57
2021-06-21 12:06:42.757812500,-48.25,14.0,41.0,81.51203125,35.225,0.22415196875,28.57
2021-06-21 12:06:42.765625000,-48.5,14.0,41.0,81.5090625,35.2,0.2241119375,28.57
2021-06-21 12:06:42.773437500,-48.75,14.0,41.0,81.50609375,34.89,0.22407190625,28.57
2021-06-21 12:06:42.781250000,-49.0,14.0,41.0,81.503125,34.58,0.224031875,28.57
2021-06-21 12:06:42.789062500,-48.75,13.75,41.0,81.50015625,34.004999999999995,0.22399184375,28.57
2021-06-21 12:06:42.796875000,-48.5,13.5,41.0,81.4971875,33.43,0.2239518125,28.57
2021-06-21 12:06:42.804687500,-48.25,13.25,41.0,81.49421875,32.655,0.22391178125,28.57
2021-06-21 12:06:42.812500000,-48.0,13.0,41.0,81.49125000000001,31.88,0.22387175,28.57
2021-06-21 12:06:42.820312500,-48.0,13.0,41.0,81.48828125,30.990000000000002,0.22383171875,28.57
2021-06-21 12:06:42.828125000,-48.0,13.0,41.0,81.4853125,30.1,0.2237916875,28.57
2021-06-21 12:06:42.835937500,-48.0,13.0,41.0,81.48234375,29.195,0.22375165625000001,28.57
2021-06-21 12:06:42.843750000,-48.0,13.0,41.0,81.479375,28.29,0.223711625,28.57
2021-06-21 12:06:42.851562500,-48.25,13.25,41.0,81.47640625,27.38,0.22367159375,28.57
2021-06-21 12:06:42.859375000,-48.5,13.5,41.0,81.4734375,26.47,0.2236315625,28.57
2021-06-21 12:06:42.867187500,-48.75,13.75,41.0,81.47046875,25.485,0.22359153125,28.57
2021-06-21 12:06:42.875000000,-49.0,14.0,41.0,81.4675,24.5,0.22355150000000001,28.57
2021-06-21 12:06:42.882812500,-48.75,14.0,41.25,81.46453125000001,23.28,0.22351146875,28.57
2021-06-21 12:06:42.890625000,-48.5,14.0,41.5,81.4615625,22.06,0.2234714375,28.57
2021-06-21 12:06:42.898437500,-48.25,14.0,41.75,81.45859375,20.45,0.22343140625,28.57
2021-06-21 12:06:42.906250000,-48.0,14.0,42.0,81.455625,18.84,0.223391375,28.57
2021-06-21 12:06:42.914062500,-47.5,13.75,42.0,81.45265625,16.775,0.22335134375,28.57
2021-06-21 12:06:42.921875000,-47.0,13.5,42.0,81.4496875,14.71,0.2233113125,28.57
2021-06-21 12:06:42.929687500,-46.5,13.25,42.0,81.44671875,12.27,0.22327128125,28.57
2021-06-21 12:06:42.937500000,-46.0,13.0,42.0,81.44375,9.83,0.22323125,28.57
2021-06-21 12:06:42.945312500,-46.75,13.5,41.75,81.44078125,7.24,0.22319121875,28.57
2021-06-21 12:06:42.953125000,-47.5,14.0,41.5,81.4378125,4.65,0.2231511875,28.57
2021-06-21 12:06:42.960937500,-48.25,14.5,41.25,81.43484375,2.1700000000000004,0.22311115625,28.57
2021-06-21 12:06:42.968750000,-49.0,15.0,41.0,81.431875,-0.31,0.223071125,28.57
2021-06-21 12:06:42.976562500,-49.0,14.75,41.0,81.42890625,-2.5050000000000003,0.22303109375,28.57
2021-06-21 12:06:42.984375000,-49.0,14.5,41.0,81.4259375,-4.7,0.2229910625,28.57
2021-06-21 12:06:42.992187500,-49.0,14.25,41.0,81.42296875,-6.58,0.22295103125,28.57
2021-06-21 12:06:43.000000000,-49.0,14.0,41.0,81.42,-8.46,0.222911,28.57
2021-06-21 12:06:43.007812500,-48.75,14.0,41.25,81.417109375,-10.09,0.22299109375,28.570625
2021-06-21 12:06:43.015625000,-48.5,14.0,41.5,81.41421875,-11.72,0.2230711875,28.57125
2021-06-21 12:06:43.023437500,-48.25,14.0,41.75,81.411328125,-13.190000000000001,0.22315128125,28.571875
2021-06-21 12:06:43.031250000,-48.0,14.0,42.0,81.4084375,-14.66,0.223231375,28.5725
2021-06-21 12:06:43.039062500,-47.75,14.0,42.25,81.405546875,-16.009999999999998,0.22331146875,28.573125
2021-06-21 12:06:43.046875000,-47.5,14.0,42.5,81.40265625,-17.36,0.2233915625,28.57375
2021-06-21 12:06:43.054687500,-47.25,14.0,42.75,81.399765625,-18.59,0.22347165625,28.574375
2021-06-21 12:06:43.062500000,-47.0,14.0,43.0,81.396875,-19.82,0.22355175,28.575
2021-06-21 12:06:43.070312500,-47.25,13.75,42.5,81.393984375,-20.905,0.22363184375,28.575625
2021-06-21 12:06:43.078125000,-47.5,13.5,42.0,81.39109375,-21.99,0.2237119375,28.57625
2021-06-21 12:06:43.085937500,-47.75,13.25,41.5,81.388203125,-22.985,0.22379203125,28.576875
2021-06-21 12:06:43.093750000,-48.0,13.0,41.0,81.3853125,-23.98,0.223872125,28.5775
2021-06-21 12:06:43.101562500,-48.5,13.25,41.0,81.382421875,-24.97,0.22395221875000001,28.578125
2021-06-21 12:06:43.109375000,-49.0,13.5,41.0,81.37953125,-25.96,0.2240323125,28.57875
2021-06-21 12:06:43.117187500,-49.5,13.75,41.0,81.37664062500001,-27.005000000000003,0.22411240625,28.579375
2021-06-21 12:06:43.125000000,-50.0,14.0,41.0,81.37375,-28.05,0.22419250000000002,28.58
2021-06-21 12:06:43.132812500,-49.5,13.75,41.25,81.370859375,-29.1,0.22427259375,28.580625
2021-06-21 12:06:43.140625000,-49.0,13.5,41.5,81.36796875,-30.15,0.2243526875,28.58125
2021-06-21 12:06:43.148437500,-48.5,13.25,41.75,81.365078125,-31.049999999999997,0.22443278125,28.581875
2021-06-21 12:06:43.156250000,-48.0,13.0,42.0,81.3621875,-31.95,0.224512875,28.5825
2021-06-21 12:06:43.164062500,-47.75,13.0,42.0,81.359296875,-32.47,0.22459296875,28.583125
2021-06-21 12:06:43.171875000,-47.5,13.0,42.0,81.35640625,-32.99,0.2246730625,28.58375
2021-06-21 12:06:43.179687500,-47.25,13.0,42.0,81.353515625,-33.0,0.22475315625,28.584375
2021-06-21 12:06:43.187500000,-47.0,13.0,42.0,81.35062500000001,-33.01,0.22483325,28.585
2021-06-21 12:06:43.195312500,-47.0,13.25,41.75,81.347734375,-32.535,0.22491334375,28.585625
2021-06-21 12:06:43.203125000,-47.0,13.5,41.5,81.34484375,-32.06,0.2249934375,28.58625
2021-06-21 12:06:43.210937500,-47.0,13.75,41.25,81.341953125,-31.29,0.22507353125000001,28.586875
2021-06-21 12:06:43.218750000,-47.0,14.0,41.0,81.3390625,-30.52,0.225153625,28.5875
2021-06-21 12:06:43.226562500,-47.75,14.0,41.0,81.336171875,-29.73,0.22523371875,28.588125
2021-06-21 12:06:43.234375000,-48.5,14.0,41.0,81.33328125,-28.94,0.22531381250000002,28.58875
2021-06-21 12:06:43.242187500,-49.25,14.0,41.0,81.330390625,-28.325000000000003,0.22539390625,28.589375
2021-06-21 12:06:43.250000000,-50.0,14.0,41.0,81.3275,-27.71,0.225474,28.59
2021-06-21 12:06:43.257812500,-49.75,14.0,41.0,81.324609375,-27.305,0.22543393750000001,28.59
2021-06-21 12:06:43.265625000,-49.5,14.0,41.0,81.32171875,-26.9,0.22539387500000002,28.59
2021-06-21 12:06:43.273437500,-49.25,14.0,41.0,81.318828125,-26.604999999999997,0.2253538125,28.59
2021-06-21 12:06:43.281250000,-49.0,14.0,41.0,81.3159375,-26.31,0.22531375,28.59
2021-06-21 12:06:43.289062500,-48.5,14.0,41.25,81.313046875,-25.97,0.2252736875,28.59
2021-06-21 12:06:43.296875000,-48.0,14.0,41.5,81.31015625,-25.63,0.225233625,28.59
2021-06-21 12:06:43.304687500,-47.5,14.0,41.75,81.307265625,-25.125,0.2251935625,28.59
2021-06-21 12:06:43.312500000,-47.0,14.0,42.0,81.304375,-24.62,0.2251535,28.59
2021-06-21 12:06:43.320312500,-47.25,14.0,42.0,81.301484375,-23.915,0.2251134375,28.59
2021-06-21 12:06:43.328125000,-47.5,14.0,42.0,81.29859375,-23.21,0.22507337500000002,28.59
2021-06-21 12:06:43.335937500,-47.75,14.0,42.0,81.295703125,-22.345,0.2250333125,28.59
2021-06-21 12:06:43.343750000,-48.0,14.0,42.0,81.2928125,-21.48,0.22499325,28.59
2021-06-21 12:06:43.351562500,-48.0,14.0,41.75,81.289921875,-20.515,0.2249531875,28.59
2021-06-21 12:06:43.359375000,-48.0,14.0,41.5,81.28703125,-19.55,0.224913125,28.59
2021-06-21 12:06:43.367187500,-48.0,14.0,41.25,81.284140625,-18.509999999999998,0.2248730625,28.59
2021-06-21 12:06:43.375000000,-48.0,14.0,41.0,81.28125,-17.47,0.224833,28.59
2021-06-21 12:06:43.382812500,-48.25,14.0,41.0,81.278359375,-16.369999999999997,0.2247929375,28.59
2021-06-21 12:06:43.390625000,-48.5,14.0,41.0,81.27546875,-15.27,0.22475287500000002,28.59
2021-06-21 12:06:43.398437500,-48.75,14.0,41.0,81.272578125,-14.14,0.2247128125,28.59
2021-06-21 12:06:43.406250000,-49.0,14.0,41.0,81.2696875,-13.01,0.22467275,28.59
2021-06-21 12:06:43.414062500,-49.0,14.0,41.25,81.266796875,-11.93,0.2246326875,28.59
2021-06-21 12:06:43.421875000,-49.0,14.0,41.5,81.26390625,-10.85,0.224592625,28.59
2021-06-21 12:06:43.429687500,-49.0,14.0,41.75,81.261015625,-9.93,0.2245525625,28.59
2021-06-21 12:06:43.437500000,-49.0,14.0,42.0,81.258125,-9.01,0.2245125,28.59
2021-06-21 12:06:43.445312500,-48.75,14.0,42.0,81.255234375,-8.344999999999999,0.2244724375,28.59
2021-06-21 12:06:43.453125000,-48.5,14.0,42.0,81.25234375,-7.68,0.22443237500000002,28.59
2021-06-21 12:06:43.460937500,-48.25,14.0,42.0,81.249453125,-7.279999999999999,0.2243923125,28.59
2021-06-21 12:06:43.468750000,-48.0,14.0,42.0,81.2465625,-6.88,0.22435225,28.59
2021-06-21 12:06:43.476562500,-48.0,13.75,41.75,81.243671875,-6.675,0.2243121875,28.59
2021-06-21 12:06:43.484375000,-48.0,13.5,41.5,81.24078125,-6.47,0.224272125,28.59
2021-06-21 12:06:43.492187500,-48.0,13.25,41.25,81.237890625,-6.33,0.2242320625,28.59
2021-06-21 12:06:43.500000000,-48.0,13.0,41.0,81.235,-6.19,0.224192,28.59
2021-06-21 12:06:43.507812500,-48.0,13.25,41.0,81.232109375,-5.985,0.22427209375,28.59
2021-06-21 12:06:43.515625000,-48.0,13.5,41.0,81.22921875,-5.78,0.2243521875,28.59
2021-06-21 12:06:43.523437500,-48.0,13.75,41.0,81.226328125,-5.445,0.22443228125,28.59
2021-06-21 12:06:43.531250000,-48.0,14.0,41.0,81.2234375,-5.11,0.22451237500000001,28.59
2021-06-21 12:06:43.539062500,-48.0,14.0,41.25,81.220546875,-4.66,0.22459246875,28.59
2021-06-21 12:06:43.546875000,-48.0,14.0,41.5,81.21765625,-4.21,0.2246725625,28.59
2021-06-21 12:06:43.554687500,-48.0,14.0,41.75,81.214765625,-3.725,0.22475265625000002,28.59
2021-06-21 12:06:43.562500000,-48.0,14.0,42.0,81.21187499999999,-3.24,0.22483275,28.59
2021-06-21 12:06:43.570312500,-48.0,14.0,41.75,81.208984375,-2.81,0.22491284375,28.59
2021-06-21 12:06:43.578125000,-48.0,14.0,41.5,81.20609375,-2.38,0.22499293750000002,28.59
2021-06-21 12:06:43.585937500,-48.0,14.0,41.25,81.203203125,-2.075,0.22507303125,28.59
2021-06-21 12:06:43.593750000,-48.0,14.0,41.0,81.2003125,-1.77,0.225153125,28.59
2021-06-21 12:06:43.601562500,-48.0,13.75,41.0,81.197421875,-1.62,0.22523321875000002,28.59
2021-06-21 12:06:43.609375000,-48.0,13.5,41.0,81.19453125,-1.47,0.2253133125,28.59
2021-06-21 12:06:43.617187500,-48.0,13.25,41.0,81.191640625,-1.475,0.22539340625,28.59
2021-06-21 12:06:43.625000000,-48.0,13.0,41.0,81.18875,-1.48,0.2254735,28.59
2021-06-21 12:06:43.632812500,-48.0,13.25,41.0,81.18585937499999,-1.62,0.22555359375,28.59
2021-06-21 12:06:43.640625000,-48.0,13.5,41.0,81.18296875,-1.76,0.2256336875,28.59
2021-06-21 12:06:43.648437500,-48.0,13.75,41.0,81.180078125,-1.975,0.22571378125,28.59
2021-06-21 12:06:43.656250000,-48.0,14.0,41.0,81.1771875,-2.19,0.225793875,28.59
2021-06-21 12:06:43.664062500,-48.0,13.75,41.0,81.174296875,-2.38,0.22587396875000001,28.59
2021-06-21 12:06:43.671875000,-48.0,13.5,41.0,81.17140625,-2.57,0.2259540625,28.59
2021-06-21 12:06:43.679687500,-48.0,13.25,41.0,81.168515625,-2.63,0.22603415625,28.59
2021-06-21 12:06:43.687500000,-48.0,13.0,41.0,81.165625,-2.69,0.22611425000000002,28.59
2021-06-21 12:06:43.695312500,-48.0,13.25,41.25,81.162734375,-2.525,0.22619434375,28.59
2021-06-21 12:06:43.703125000,-48.0,13.5,41.5,81.15984375,-2.36,0.2262744375,28.59
2021-06-21 12:06:43.710937500,-48.0,13.75,41.75,81.156953125,-1.96,0.22635453125000002,28.59
2021-06-21 12:06:43.718750000,-48.0,14.0,42.0,81.1540625,-1.56,0.226434625,28.59
2021-06-21 12:06:43.726562500,-48.0,14.0,41.75,81.151171875,-1.0150000000000001,0.22651471875,28.59
2021-06-21 12:06:43.734375000,-48.0,14.0,41.5,81.14828125,-0.47,0.22659481250000002,28.59
2021-06-21 12:06:43.742187500,-48.0,14.0,41.25,81.145390625,0.09000000000000008,0.22667490625,28.59
2021-06-21 12:06:43.750000000,-48.0,14.0,41.0,81.1425,0.65,0.226755,28.59
2021-06-21 12:06:43.757812500,-48.25,13.75,41.0,81.13960937499999,1.09,0.226755,28.59
2021-06-21 12:06:43.765625000,-48.5,13.5,41.0,81.13671875,1.53,0.226755,28.59
2021-06-21 12:06:43.773437500,-48.75,13.25,41.0,81.133828125,1.815,0.226755,28.59
2021-06-21 12:06:43.781250000,-49.0,13.0,41.0,81.1309375,2.1,0.226755,28.59
2021-06-21 12:06:43.789062500,-48.75,13.25,41.0,81.128046875,2.29,0.226755,28.59
2021-06-21 12:06:43.796875000,-48.5,13.5,41.0,81.12515625,2.48,0.226755,28.59
2021-06-21 12:06:43.804687500,-48.25,13.75,41.0,81.122265625,2.675,0.226755,28.59
2021-06-21 12:06:43.812500000,-48.0,14.0,41.0,81.11937499999999,2.87,0.226755,28.59
2021-06-21 12:06:43.820312500,-48.0,13.75,41.25,81.116484375,3.135,0.226755,28.59
2021-06-21 12:06:43.828125000,-48.0,13.5,41.5,81.11359374999999,3.4,0.226755,28.59
2021-06-21 12:06:43.835937500,-48.0,13.25,41.75,81.110703125,3.685,0.226755,28.59
2021-06-21 12:06:43.843750000,-48.0,13.0,42.0,81.1078125,3.97,0.226755,28.59
2021-06-21 12:06:43.851562500,-48.0,13.25,41.75,81.104921875,4.13,0.226755,28.59
2021-06-21 12:06:43.859375000,-48.0,13.5,41.5,81.10203125,4.29,0.226755,28.59
2021-06-21 12:06:43.867187500,-48.0,13.75,41.25,81.099140625,4.1850000000000005,0.226755,28.59
2021-06-21 12:06:43.875000000,-48.0,14.0,41.0,81.09625,4.08,0.226755,28.59
2021-06-21 12:06:43.882812500,-48.25,13.75,40.75,81.09335937499999,3.63,0.226755,28.59
2021-06-21 12:06:43.890625000,-48.5,13.5,40.5,81.09046875,3.18,0.226755,28.59
2021-06-21 12:06:43.898437500,-48.75,13.25,40.25,81.087578125,2.47,0.226755,28.59
2021-06-21 12:06:43.906250000,-49.0,13.0,40.0,81.0846875,1.76,0.226755,28.59
2021-06-21 12:06:43.914062500,-49.25,13.0,40.0,81.081796875,0.99,0.226755,28.59
2021-06-21 12:06:43.921875000,-49.5,13.0,40.0,81.07890625,0.22,0.226755,28.59
2021-06-21 12:06:43.929687500,-49.75,13.0,40.0,81.076015625,-0.395,0.226755,28.59
2021-06-21 12:06:43.937500000,-50.0,13.0,40.0,81.073125,-1.01,0.226755,28.59
2021-06-21 12:06:43.945312500,-49.5,13.25,40.5,81.070234375,-1.315,0.226755,28.59
2021-06-21 12:06:43.953125000,-49.0,13.5,41.0,81.06734374999999,-1.62,0.226755,28.59
2021-06-21 12:06:43.960937500,-48.5,13.75,41.5,81.064453125,-1.59,0.226755,28.59
2021-06-21 12:06:43.968750000,-48.0,14.0,42.0,81.0615625,-1.56,0.226755,28.59
2021-06-21 12:06:43.976562500,-47.75,14.0,42.0,81.058671875,-1.275,0.226755,28.59
2021-06-21 12:06:43.984375000,-47.5,14.0,42.0,81.05578125,-0.99,0.226755,28.59
2021-06-21 12:06:43.992187500,-47.25,14.0,42.0,81.052890625,-0.5800000000000001,0.226755,28.59
2021-06-21 12:06:44.000000000,-47.0,14.0,42.0,81.05,-0.17,0.226755,28.59
2021-06-21 12:06:44.007812500,-47.25,14.0,41.75,81.047421875,0.25,0.22667490625,28.589375
2021-06-21 12:06:44.015625000,-47.5,14.0,41.5,81.04484375,0.67,0.22659481250000002,28.58875
2021-06-21 12:06:44.023437500,-47.75,14.0,41.25,81.042265625,1.0050000000000001,0.22651471875,28.588125
2021-06-21 12:06:44.031250000,-48.0,14.0,41.0,81.0396875,1.34,0.226434625,28.5875
2021-06-21 12:06:44.039062500,-48.5,13.75,41.0,81.037109375,1.545,0.22635453125000002,28.586875
2021-06-21 12:06:44.046875000,-49.0,13.5,41.0,81.03453125,1.75,0.2262744375,28.58625
2021-06-21 12:06:44.054687500,-49.5,13.25,41.0,81.031953125,1.79,0.22619434375,28.585625
2021-06-21 12:06:44.062500000,-50.0,13.0,41.0,81.029375,1.83,0.22611425000000002,28.585
2021-06-21 12:06:44.070312500,-49.75,13.25,41.0,81.026796875,1.695,0.22603415625,28.584375
2021-06-21 12:06:44.078125000,-49.5,13.5,41.0,81.02421875,1.56,0.2259540625,28.58375
2021-06-21 12:06:44.085937500,-49.25,13.75,41.0,81.021640625,1.275,0.22587396875000001,28.583125
2021-06-21 12:06:44.093750000,-49.0,14.0,41.0,81.0190625,0.99,0.225793875,28.5825
2021-06-21 12:06:44.101562500,-48.75,14.0,41.25,81.01648437499999,0.62,0.22571378125,28.581875
2021-06-21 12:06:44.109375000,-48.5,14.0,41.5,81.01390624999999,0.25,0.2256336875,28.58125
2021-06-21 12:06:44.117187500,-48.25,14.0,41.75,81.01132812499999,-0.08499999999999996,0.22555359375,28.580625
2021-06-21 12:06:44.125000000,-48.0,14.0,42.0,81.00874999999999,-0.42,0.2254735,28.58
2021-06-21 12:06:44.132812500,-48.25,13.75,41.75,81.00617187499999,-0.605,0.22539340625,28.579375
2021-06-21 12:06:44.140625000,-48.5,13.5,41.5,81.00359375,-0.79,0.2253133125,28.57875
2021-06-21 12:06:44.148437500,-48.75,13.25,41.25,81.001015625,-0.76,0.22523321875000002,28.578125
2021-06-21 12:06:44.156250000,-49.0,13.0,41.0,80.9984375,-0.73,0.225153125,28.5775
2021-06-21 12:06:44.164062500,-49.0,13.0,40.75,80.995859375,-0.46499999999999997,0.22507303125,28.576875
2021-06-21 12:06:44.171875000,-49.0,13.0,40.5,80.99328125,-0.2,0.22499293750000002,28.57625
2021-06-21 12:06:44.179687500,-49.0,13.0,40.25,80.990703125,0.21500000000000002,0.22491284375,28.575625
2021-06-21 12:06:44.187500000,-49.0,13.0,40.0,80.988125,0.63,0.22483275,28.575
2021-06-21 12:06:44.195312500,-49.0,13.25,40.25,80.985546875,1.07,0.22475265625000002,28.574375
2021-06-21 12:06:44.203125000,-49.0,13.5,40.5,80.98296875,1.51,0.2246725625,28.57375
2021-06-21 12:06:44.210937500,-49.0,13.75,40.75,80.980390625,1.83,0.22459246875,28.573125
2021-06-21 12:06:44.218750000,-49.0,14.0,41.0,80.9778125,2.15,0.22451237500000001,28.5725
2021-06-21 12:06:44.226562500,-48.75,14.0,41.25,80.975234375,2.24,0.22443228125,28.571875
2021-06-21 12:06:44.234375000,-48.5,14.0,41.5,80.97265625,2.33,0.2243521875,28.57125
2021-06-21 12:06:44.242187500,-48.25,14.0,41.75,80.970078125,2.1799999999999997,0.22427209375,28.570625
2021-06-21 12:06:44.250000000,-48.0,14.0,42.0,80.9675,2.03,0.224192,28.57
2021-06-21 12:06:44.257812500,-47.75,14.0,41.75,80.964921875,1.73,0.224312125,28.57
2021-06-21 12:06:44.265625000,-47.5,14.0,41.5,80.96234375,1.43,0.22443225,28.57
2021-06-21 12:06:44.273437500,-47.25,14.0,41.25,80.959765625,1.14,0.224552375,28.57
2021-06-21 12:06:44.281250000,-47.0,14.0,41.0,80.9571875,0.85,0.2246725,28.57
2021-06-21 12:06:44.289062500,-47.5,13.75,41.0,80.954609375,0.6799999999999999,0.224792625,28.57
2021-06-21 12:06:44.296875000,-48.0,13.5,41.0,80.95203125,0.51,0.22491275,28.57
2021-06-21 12:06:44.304687500,-48.5,13.25,41.0,80.94945312499999,0.485,0.225032875,28.57
2021-06-21 12:06:44.312500000,-49.0,13.0,41.0,80.94687499999999,0.46,0.225153,28.57
2021-06-21 12:06:44.320312500,-49.0,13.0,41.0,80.94429687499999,0.46499999999999997,0.225273125,28.57
2021-06-21 12:06:44.328125000,-49.0,13.0,41.0,80.94171874999999,0.47,0.22539325,28.57
2021-06-21 12:06:44.335937500,-49.0,13.0,41.0,80.939140625,0.315,0.225513375,28.57
2021-06-21 12:06:44.343750000,-49.0,13.0,41.0,80.9365625,0.16,0.2256335,28.57
2021-06-21 12:06:44.351562500,-49.0,13.0,41.0,80.933984375,-0.29000000000000004,0.22575362499999999,28.57
2021-06-21 12:06:44.359375000,-49.0,13.0,41.0,80.93140625,-0.74,0.22587374999999998,28.57
2021-06-21 12:06:44.367187500,-49.0,13.0,41.0,80.928828125,-1.4649999999999999,0.22599387499999998,28.57
2021-06-21 12:06:44.375000000,-49.0,13.0,41.0,80.92625,-2.19,0.22611399999999998,28.57
2021-06-21 12:06:44.382812500,-48.75,13.25,41.0,80.923671875,-2.995,0.226234125,28.57
2021-06-21 12:06:44.390625000,-48.5,13.5,41.0,80.92109375,-3.8,0.22635425,28.57
2021-06-21 12:06:44.398437500,-48.25,13.75,41.0,80.918515625,-4.385,0.226474375,28.57
2021-06-21 12:06:44.406250000,-48.0,14.0,41.0,80.9159375,-4.97,0.2265945,28.57
2021-06-21 12:06:44.414062500,-48.0,14.0,41.25,80.913359375,-5.074999999999999,0.226714625,28.57
2021-06-21 12:06:44.421875000,-48.0,14.0,41.5,80.91078125,-5.18,0.22683475,28.57
2021-06-21 12:06:44.429687500,-48.0,14.0,41.75,80.908203125,-4.744999999999999,0.226954875,28.57
2021-06-21 12:06:44.437500000,-48.0,14.0,42.0,80.905625,-4.31,0.227075,28.57
2021-06-21 12:06:44.445312500,-48.25,13.75,41.75,80.903046875,-3.4699999999999998,0.227195125,28.57
2021-06-21 12:06:44.453125000,-48.5,13.5,41.5,80.90046875,-2.63,0.22731525,28.57
2021-06-21 12:06:44.460937500,-48.75,13.25,41.25,80.897890625,-1.6949999999999998,0.227435375,28.57
2021-06-21 12:06:44.468750000,-49.0,13.0,41.0,80.8953125,-0.76,0.2275555,28.57
2021-06-21 12:06:44.476562500,-49.0,13.0,41.0,80.892734375,-0.025000000000000022,0.227675625,28.57
2021-06-21 12:06:44.484375000,-49.0,13.0,41.0,80.89015625,0.71,0.22779575,28.57
2021-06-21 12:06:44.492187500,-49.0,13.0,41.0,80.887578125,1.055,0.227915875,28.57
2021-06-21 12:06:44.500000000,-49.0,13.0,41.0,80.88499999999999,1.4,0.228036,28.57
2021-06-21 12:06:44.507812500,-49.0,13.25,41.0,80.88242187499999,1.335,0.227915875,28.57
2021-06-21 12:06:44.515625000,-49.0,13.5,41.0,80.87984374999999,1.27,0.22779575,28.57
2021-06-21 12:06:44.523437500,-49.0,13.75,41.0,80.87726562499999,0.9199999999999999,0.227675625,28.57
2021-06-21 12:06:44.531250000,-49.0,14.0,41.0,80.8746875,0.57,0.2275555,28.57
2021-06-21 12:06:44.539062500,-48.75,13.75,41.0,80.872109375,0.10999999999999999,0.227435375,28.57
2021-06-21 12:06:44.546875000,-48.5,13.5,41.0,80.86953125,-0.35,0.22731525,28.57
2021-06-21 12:06:44.554687500,-48.25,13.25,41.0,80.866953125,-0.76,0.227195125,28.57
2021-06-21 12:06:44.562500000,-48.0,13.0,41.0,80.864375,-1.17,0.227075,28.57
2021-06-21 12:06:44.570312500,-48.0,13.25,41.0,80.861796875,-1.44,0.226954875,28.57
2021-06-21 12:06:44.578125000,-48.0,13.5,41.0,80.85921875,-1.71,0.22683475,28.57
2021-06-21 12:06:44.585937500,-48.0,13.75,41.0,80.856640625,-1.815,0.226714625,28.57
2021-06-21 12:06:44.593750000,-48.0,14.0,41.0,80.8540625,-1.92,0.2265945,28.57
2021-06-21 12:06:44.601562500,-48.25,14.0,41.0,80.851484375,-1.88,0.226474375,28.57
2021-06-21 12:06:44.609375000,-48.5,14.0,41.0,80.84890625,-1.84,0.22635425,28.57
2021-06-21 12:06:44.617187500,-48.75,14.0,41.0,80.846328125,-1.695,0.226234125,28.57
2021-06-21 12:06:44.625000000,-49.0,14.0,41.0,80.84375,-1.55,0.22611399999999998,28.57
2021-06-21 12:06:44.632812500,-48.75,13.75,41.0,80.841171875,-1.335,0.22599387499999998,28.57
2021-06-21 12:06:44.640625000,-48.5,13.5,41.0,80.83859375,-1.12,0.22587374999999998,28.57
2021-06-21 12:06:44.648437500,-48.25,13.25,41.0,80.836015625,-0.885,0.22575362499999999,28.57
2021-06-21 12:06:44.656250000,-48.0,13.0,41.0,80.8334375,-0.65,0.2256335,28.57
2021-06-21 12:06:44.664062500,-48.0,13.0,41.0,80.830859375,-0.44,0.225513375,28.57
2021-06-21 12:06:44.671875000,-48.0,13.0,41.0,80.82828125,-0.23,0.22539325,28.57
2021-06-21 12:06:44.679687500,-48.0,13.0,41.0,80.825703125,-0.1,0.225273125,28.57
2021-06-21 12:06:44.687500000,-48.0,13.0,41.0,80.823125,0.03,0.225153,28.57
2021-06-21 12:06:44.695312500,-48.0,13.0,41.0,80.820546875,0.045,0.225032875,28.57
2021-06-21 12:06:44.703125000,-48.0,13.0,41.0,80.81796874999999,0.06,0.22491275,28.57
2021-06-21 12:06:44.710937500,-48.0,13.0,41.0,80.81539062499999,-0.05500000000000001,0.224792625,28.57
2021-06-21 12:06:44.718750000,-48.0,13.0,41.0,80.81281249999999,-0.17,0.2246725,28.57
2021-06-21 12:06:44.726562500,-48.0,13.0,41.0,80.810234375,-0.395,0.224552375,28.57
2021-06-21 12:06:44.734375000,-48.0,13.0,41.0,80.80765625,-0.62,0.22443225,28.57
2021-06-21 12:06:44.742187500,-48.0,13.0,41.0,80.805078125,-0.9099999999999999,0.224312125,28.57
2021-06-21 12:06:44.750000000,-48.0,13.0,41.0,80.8025,-1.2,0.224192,28.57
2021-06-21 12:06:44.757812500,-48.25,13.25,41.0,80.799921875,-1.47,0.22427209375,28.57
2021-06-21 12:06:44.765625000,-48.5,13.5,41.0,80.79734375,-1.74,0.2243521875,28.57
2021-06-21 12:06:44.773437500,-48.75,13.75,41.0,80.794765625,-1.94,0.22443228125,28.57
2021-06-21 12:06:44.781250000,-49.0,14.0,41.0,80.7921875,-2.14,0.22451237500000001,28.57
2021-06-21 12:06:44.789062500,-48.75,14.0,41.0,80.789609375,-2.26,0.22459246875,28.57
2021-06-21 12:06:44.796875000,-48.5,14.0,41.0,80.78703125,-2.38,0.2246725625,28.57
2021-06-21 12:06:44.804687500,-48.25,14.0,41.0,80.784453125,-2.45,0.22475265625000002,28.57
2021-06-21 12:06:44.812500000,-48.0,14.0,41.0,80.781875,-2.52,0.22483275,28.57
2021-06-21 12:06:44.820312500,-48.0,13.75,41.0,80.779296875,-2.645,0.22491284375,28.57
2021-06-21 12:06:44.828125000,-48.0,13.5,41.0,80.77671875,-2.77,0.22499293750000002,28.57
2021-06-21 12:06:44.835937500,-48.0,13.25,41.0,80.774140625,-3.045,0.22507303125,28.57
2021-06-21 12:06:44.843750000,-48.0,13.0,41.0,80.7715625,-3.32,0.225153125,28.57
2021-06-21 12:06:44.851562500,-48.25,13.25,41.0,80.768984375,-3.7800000000000002,0.22523321875000002,28.57
2021-06-21 12:06:44.859375000,-48.5,13.5,41.0,80.76640625,-4.24,0.2253133125,28.57
2021-06-21 12:06:44.867187500,-48.75,13.75,41.0,80.763828125,-4.825,0.22539340625,28.57
2021-06-21 12:06:44.875000000,-49.0,14.0,41.0,80.76125,-5.41,0.2254735,28.57
2021-06-21 12:06:44.882812500,-48.75,14.0,41.25,80.758671875,-5.965,0.22555359375,28.57
2021-06-21 12:06:44.890625000,-48.5,14.0,41.5,80.75609375,-6.52,0.2256336875,28.57
2021-06-21 12:06:44.898437500,-48.25,14.0,41.75,80.753515625,-6.84,0.22571378125,28.57
2021-06-21 12:06:44.906250000,-48.0,14.0,42.0,80.75093749999999,-7.16,0.225793875,28.57
2021-06-21 12:06:44.914062500,-48.0,14.0,41.75,80.74835937499999,-7.1,0.22587396875000001,28.57
2021-06-21 12:06:44.921875000,-48.0,14.0,41.5,80.74578125,-7.04,0.2259540625,28.57
2021-06-21 12:06:44.929687500,-48.0,14.0,41.25,80.743203125,-6.575,0.22603415625,28.57
2021-06-21 12:06:44.937500000,-48.0,14.0,41.0,80.740625,-6.11,0.22611425000000002,28.57
2021-06-21 12:06:44.945312500,-48.0,14.0,41.0,80.738046875,-5.35,0.22619434375,28.57
2021-06-21 12:06:44.953125000,-48.0,14.0,41.0,80.73546875,-4.59,0.2262744375,28.57
2021-06-21 12:06:44.960937500,-48.0,14.0,41.0,80.732890625,-3.755,0.22635453125000002,28.57
2021-06-21 12:06:44.968750000,-48.0,14.0,41.0,80.7303125,-2.92,0.226434625,28.57
2021-06-21 12:06:44.976562500,-48.0,13.75,41.0,80.727734375,-2.215,0.22651471875,28.57
2021-06-21 12:06:44.984375000,-48.0,13.5,41.0,80.72515625,-1.51,0.22659481250000002,28.57
2021-06-21 12:06:44.992187500,-48.0,13.25,41.0,80.722578125,-1.06,0.22667490625,28.57
2021-06-21 12:06:45.000000000,-48.0,13.0,41.0,80.72,-0.61,0.226755,28.57
2021-06-21 12:06:45.007812500,-48.25,13.25,41.0,80.71734375,-0.42,0.22671496875000002,28.57
2021-06-21 12:06:45.015625000,-48.5,13.5,41.0,80.7146875,-0.23,0.2266749375,28.57
2021-06-21 12:06:45.023437500,-48.75,13.75,41.0,80.71203125,-0.195,0.22663490625000002,28.57
2021-06-21 12:06:45.031250000,-49.0,14.0,41.0,80.709375,-0.16,0.226594875,28.57
2021-06-21 12:06:45.039062500,-49.0,13.75,41.25,80.70671875,-0.14500000000000002,0.22655484375,28.57
2021-06-21 12:06:45.046875000,-49.0,13.5,41.5,80.70406249999999,-0.13,0.22651481250000002,28.57
2021-06-21 12:06:45.054687500,-49.0,13.25,41.75,80.70140625,-0.015,0.22647478125,28.57
2021-06-21 12:06:45.062500000,-49.0,13.0,42.0,80.69875,0.1,0.22643475000000002,28.57
2021-06-21 12:06:45.070312500,-48.75,13.25,41.75,80.69609375,0.35,0.22639471875,28.57
2021-06-21 12:06:45.078125000,-48.5,13.5,41.5,80.6934375,0.6,0.2263546875,28.57
2021-06-21 12:06:45.085937500,-48.25,13.75,41.25,80.69078125,0.97,0.22631465625000002,28.57
2021-06-21 12:06:45.093750000,-48.0,14.0,41.0,80.688125,1.34,0.226274625,28.57
2021-06-21 12:06:45.101562500,-48.0,14.0,41.0,80.68546875,1.7400000000000002,0.22623459375000002,28.57
2021-06-21 12:06:45.109375000,-48.0,14.0,41.0,80.6828125,2.14,0.2261945625,28.57
2021-06-21 12:06:45.117187500,-48.0,14.0,41.0,80.68015625,2.505,0.22615453125,28.57
2021-06-21 12:06:45.125000000,-48.0,14.0,41.0,80.6775,2.87,0.2261145,28.57
2021-06-21 12:06:45.132812500,-48.0,13.75,41.0,80.67484375,3.115,0.22607446875,28.57
2021-06-21 12:06:45.140625000,-48.0,13.5,41.0,80.67218749999999,3.36,0.22603443750000002,28.57
2021-06-21 12:06:45.148437500,-48.0,13.25,41.0,80.66953124999999,3.4749999999999996,0.22599440625,28.57
2021-06-21 12:06:45.156250000,-48.0,13.0,41.0,80.666875,3.59,0.225954375,28.57
2021-06-21 12:06:45.164062500,-48.25,13.0,40.75,80.66421875,3.585,0.22591434375,28.57
2021-06-21 12:06:45.171875000,-48.5,13.0,40.5,80.6615625,3.58,0.2258743125,28.57
2021-06-21 12:06:45.179687500,-48.75,13.0,40.25,80.65890625,3.505,0.22583428125000002,28.57
2021-06-21 12:06:45.187500000,-49.0,13.0,40.0,80.65625,3.43,0.22579425,28.57
2021-06-21 12:06:45.195312500,-48.75,13.25,40.25,80.65359375,3.33,0.22575421875,28.57
2021-06-21 12:06:45.203125000,-48.5,13.5,40.5,80.6509375,3.23,0.2257141875,28.57
2021-06-21 12:06:45.210937500,-48.25,13.75,40.75,80.64828125,3.16,0.22567415625,28.57
2021-06-21 12:06:45.218750000,-48.0,14.0,41.0,80.645625,3.09,0.22563412500000002,28.57
2021-06-21 12:06:45.226562500,-47.75,14.0,41.25,80.64296875,3.075,0.22559409375,28.57
2021-06-21 12:06:45.234375000,-47.5,14.0,41.5,80.6403125,3.06,0.2255540625,28.57
2021-06-21 12:06:45.242187500,-47.25,14.0,41.75,80.63765624999999,3.09,0.22551403125,28.57
2021-06-21 12:06:45.250000000,-47.0,14.0,42.0,80.63499999999999,3.12,0.225474,28.57
2021-06-21 12:06:45.257812500,-47.25,14.0,42.0,80.63234375,3.165,0.2255540625,28.57
2021-06-21 12:06:45.265625000,-47.5,14.0,42.0,80.6296875,3.21,0.22563412500000002,28.57
2021-06-21 12:06:45.273437500,-47.75,14.0,42.0,80.62703125,3.24,0.2257141875,28.57
2021-06-21 12:06:45.281250000,-48.0,14.0,42.0,80.624375,3.27,0.22579425,28.57
2021-06-21 12:06:45.289062500,-48.0,14.0,41.75,80.62171875,3.275,0.2258743125,28.57
2021-06-21 12:06:45.296875000,-48.0,14.0,41.5,80.6190625,3.28,0.225954375,28.57
2021-06-21 12:06:45.304687500,-48.0,14.0,41.25,80.61640625,3.285,0.2260344375,28.57
2021-06-21 12:06:45.312500000,-48.0,14.0,41.0,80.61375,3.29,0.2261145,28.57
2021-06-21 12:06:45.320312500,-48.25,14.0,41.0,80.61109375,3.365,0.2261945625,28.57
2021-06-21 12:06:45.328125000,-48.5,14.0,41.0,80.6084375,3.44,0.226274625,28.57
2021-06-21 12:06:45.335937500,-48.75,14.0,41.0,80.60578124999999,3.6399999999999997,0.2263546875,28.57
2021-06-21 12:06:45.343750000,-49.0,14.0,41.0,80.60312499999999,3.84,0.22643475,28.57
2021-06-21 12:06:45.351562500,-48.75,14.0,41.0,80.60046875,4.1899999999999995,0.2265148125,28.57
2021-06-21 12:06:45.359375000,-48.5,14.0,41.0,80.5978125,4.54,0.226594875,28.57
2021-06-21 12:06:45.367187500,-48.25,14.0,41.0,80.59515625,4.98,0.2266749375,28.57
2021-06-21 12:06:45.375000000,-48.0,14.0,41.0,80.5925,5.42,0.22675499999999998,28.57
2021-06-21 12:06:45.382812500,-48.0,13.75,41.0,80.58984375,5.8100000000000005,0.2268350625,28.57
2021-06-21 12:06:45.390625000,-48.0,13.5,41.0,80.5871875,6.2,0.226915125,28.57
2021-06-21 12:06:45.398437500,-48.0,13.25,41.0,80.58453125,6.395,0.2269951875,28.57
2021-06-21 12:06:45.406250000,-48.0,13.0,41.0,80.581875,6.59,0.22707525,28.57
2021-06-21 12:06:45.414062500,-48.0,13.25,41.0,80.57921875,6.47,0.22715531249999998,28.57
2021-06-21 12:06:45.421875000,-48.0,13.5,41.0,80.5765625,6.35,0.227235375,28.57
2021-06-21 12:06:45.429687500,-48.0,13.75,41.0,80.57390625,5.93,0.2273154375,28.57
2021-06-21 12:06:45.437500000,-48.0,14.0,41.0,80.57124999999999,5.51,0.2273955,28.57
2021-06-21 12:06:45.445312500,-48.25,14.0,41.0,80.56859374999999,4.91,0.2274755625,28.57
2021-06-21 12:06:45.453125000,-48.5,14.0,41.0,80.5659375,4.31,0.22755562499999998,28.57
2021-06-21 12:06:45.460937500,-48.75,14.0,41.0,80.56328125,3.7199999999999998,0.2276356875,28.57
2021-06-21 12:06:45.468750000,-49.0,14.0,41.0,80.560625,3.13,0.22771575,28.57
2021-06-21 12:06:45.476562500,-48.75,14.0,41.25,80.55796875,2.7199999999999998,0.2277958125,28.57
2021-06-21 12:06:45.484375000,-48.5,14.0,41.5,80.5553125,2.31,0.22787587499999998,28.57
2021-06-21 12:06:45.492187500,-48.25,14.0,41.75,80.55265625,2.145,0.22795593749999998,28.57
2021-06-21 12:06:45.500000000,-48.0,14.0,42.0,80.55,1.98,0.228036,28.57
2021-06-21 12:06:45.507812500,-48.0,14.0,41.75,80.54734375,2.0149999999999997,0.22795593749999998,28.57
2021-06-21 12:06:45.515625000,-48.0,14.0,41.5,80.5446875,2.05,0.22787587499999998,28.57
2021-06-21 12:06:45.523437500,-48.0,14.0,41.25,80.54203125,2.135,0.2277958125,28.57
2021-06-21 12:06:45.531250000,-48.0,14.0,41.0,80.53937499999999,2.22,0.22771575,28.57
2021-06-21 12:06:45.539062500,-48.25,13.75,41.0,80.53671874999999,2.225,0.2276356875,28.57
2021-06-21 12:06:45.546875000,-48.5,13.5,41.0,80.53406249999999,2.23,0.22755562499999998,28.57
2021-06-21 12:06:45.554687500,-48.75,13.25,41.0,80.53140625,2.075,0.2274755625,28.57
2021-06-21 12:06:45.562500000,-49.0,13.0,41.0,80.52875,1.92,0.2273955,28.57
2021-06-21 12:06:45.570312500,-48.75,13.25,41.0,80.52609375,1.6099999999999999,0.2273154375,28.57
2021-06-21 12:06:45.578125000,-48.5,13.5,41.0,80.5234375,1.3,0.227235375,28.57
2021-06-21 12:06:45.585937500,-48.25,13.75,41.0,80.52078125,0.915,0.22715531249999998,28.57
2021-06-21 12:06:45.593750000,-48.0,14.0,41.0,80.518125,0.53,0.22707525,28.57
2021-06-21 12:06:45.601562500,-48.25,14.0,41.0,80.51546875,0.16500000000000004,0.2269951875,28.57
2021-06-21 12:06:45.609375000,-48.5,14.0,41.0,80.5128125,-0.2,0.226915125,28.57
2021-06-21 12:06:45.617187500,-48.75,14.0,41.0,80.51015625,-0.47500000000000003,0.2268350625,28.57
2021-06-21 12:06:45.625000000,-49.0,14.0,41.0,80.5075,-0.75,0.22675499999999998,28.57
2021-06-21 12:06:45.632812500,-49.0,14.0,41.0,80.50484374999999,-0.935,0.2266749375,28.57
2021-06-21 12:06:45.640625000,-49.0,14.0,41.0,80.50218749999999,-1.12,0.226594875,28.57
2021-06-21 12:06:45.648437500,-49.0,14.0,41.0,80.49953124999999,-1.2400000000000002,0.2265148125,28.57
2021-06-21 12:06:45.656250000,-49.0,14.0,41.0,80.496875,-1.36,0.22643475,28.57
2021-06-21 12:06:45.664062500,-48.75,14.0,41.25,80.49421875,-1.465,0.2263546875,28.57
2021-06-21 12:06:45.671875000,-48.5,14.0,41.5,80.4915625,-1.57,0.226274625,28.57
2021-06-21 12:06:45.679687500,-48.25,14.0,41.75,80.48890625,-1.675,0.2261945625,28.57
2021-06-21 12:06:45.687500000,-48.0,14.0,42.0,80.48625,-1.78,0.2261145,28.57
2021-06-21 12:06:45.695312500,-48.0,13.75,41.75,80.48359375,-1.87,0.2260344375,28.57
2021-06-21 12:06:45.703125000,-48.0,13.5,41.5,80.4809375,-1.96,0.225954375,28.57
2021-06-21 12:06:45.710937500,-48.0,13.25,41.25,80.47828125,-2.005,0.2258743125,28.57
2021-06-21 12:06:45.718750000,-48.0,13.0,41.0,80.475625,-2.05,0.22579425,28.57
2021-06-21 12:06:45.726562500,-48.25,13.25,40.75,80.47296874999999,-2.035,0.2257141875,28.57
2021-06-21 12:06:45.734375000,-48.5,13.5,40.5,80.47031249999999,-2.02,0.22563412500000002,28.57
2021-06-21 12:06:45.742187500,-48.75,13.75,40.25,80.46765624999999,-1.9300000000000002,0.2255540625,28.57
2021-06-21 12:06:45.750000000,-49.0,14.0,40.0,80.465,-1.84,0.225474,28.57
2021-06-21 12:06:45.757812500,-48.75,14.0,40.5,80.46234375,-1.695,0.22551403125,28.57
2021-06-21 12:06:45.765625000,-48.5,14.0,41.0,80.4596875,-1.55,0.2255540625,28.57
2021-06-21 12:06:45.773437500,-48.25,14.0,41.5,80.45703125,-1.385,0.22559409375,28.57
2021-06-21 12:06:45.781250000,-48.0,14.0,42.0,80.454375,-1.22,0.22563412500000002,28.57
2021-06-21 12:06:45.789062500,-48.0,14.0,42.0,80.45171875,-1.05,0.22567415625,28.57
2021-06-21 12:06:45.796875000,-48.0,14.0,42.0,80.4490625,-0.88,0.2257141875,28.57
2021-06-21 12:06:45.804687500,-48.0,14.0,42.0,80.44640625,-0.72,0.22575421875,28.57
2021-06-21 12:06:45.812500000,-48.0,14.0,42.0,80.44375,-0.56,0.22579425,28.57
2021-06-21 12:06:45.820312500,-48.0,14.0,42.0,80.44109375,-0.41500000000000004,0.22583428125000002,28.57
2021-06-21 12:06:45.828125000,-48.0,14.0,42.0,80.43843749999999,-0.27,0.2258743125,28.57
2021-06-21 12:06:45.835937500,-48.0,14.0,42.0,80.43578124999999,-0.135,0.22591434375,28.57
2021-06-21 12:06:45.843750000,-48.0,14.0,42.0,80.43312499999999,0.0,0.225954375,28.57
2021-06-21 12:06:45.851562500,-47.75,14.0,42.0,80.43046875,0.13,0.22599440625,28.57
2021-06-21 12:06:45.859375000,-47.5,14.0,42.0,80.4278125,0.26,0.22603443750000002,28.57
2021-06-21 12:06:45.867187500,-47.25,14.0,42.0,80.42515625,0.4,0.22607446875,28.57
2021-06-21 12:06:45.875000000,-47.0,14.0,42.0,80.4225,0.54,0.2261145,28.57
2021-06-21 12:06:45.882812500,-47.25,14.0,41.5,80.41984375,0.7150000000000001,0.22615453125,28.57
2021-06-21 12:06:45.890625000,-47.5,14.0,41.0,80.4171875,0.89,0.2261945625,28.57
2021-06-21 12:06:45.898437500,-47.75,14.0,40.5,80.41453125,1.135,0.22623459375000002,28.57
2021-06-21 12:06:45.906250000,-48.0,14.0,40.0,80.411875,1.38,0.226274625,28.57
2021-06-21 12:06:45.914062500,-48.5,13.75,40.0,80.40921875,1.6949999999999998,0.22631465625000002,28.57
2021-06-21 12:06:45.921875000,-49.0,13.5,40.0,80.40656249999999,2.01,0.2263546875,28.57
2021-06-21 12:06:45.929687500,-49.5,13.25,40.0,80.40390624999999,2.365,0.22639471875,28.57
2021-06-21 12:06:45.937500000,-50.0,13.0,40.0,80.40124999999999,2.72,0.22643475000000002,28.57
2021-06-21 12:06:45.945312500,-49.75,13.25,40.25,80.39859374999999,3.04,0.22647478125,28.57
2021-06-21 12:06:45.953125000,-49.5,13.5,40.5,80.3959375,3.36,0.22651481250000002,28.57
2021-06-21 12:06:45.960937500,-49.25,13.75,40.75,80.39328125,3.565,0.22655484375,28.57
2021-06-21 12:06:45.968750000,-49.0,14.0,41.0,80.390625,3.77,0.226594875,28.57
2021-06-21 12:06:45.976562500,-48.75,14.0,41.25,80.38796875,3.815,0.22663490625000002,28.57
2021-06-21 12:06:45.984375000,-48.5,14.0,41.5,80.3853125,3.86,0.2266749375,28.57
2021-06-21 12:06:45.992187500,-48.25,14.0,41.75,80.38265625,3.75,0.22671496875000002,28.57
2021-06-21 12:06:46.000000000,-48.0,14.0,42.0,80.38,3.64,0.226755,28.57
2021-06-21 12:06:46.007812500,-47.75,14.0,42.0,80.37781249999999,3.45,0.22671496875000002,28.57
2021-06-21 12:06:46.015625000,-47.5,14.0,42.0,80.375625,3.26,0.2266749375,28.57
2021-06-21 12:06:46.023437500,-47.25,14.0,42.0,80.3734375,3.105,0.22663490625000002,28.57
2021-06-21 12:06:46.031250000,-47.0,14.0,42.0,80.37124999999999,2.95,0.226594875,28.57
2021-06-21 12:06:46.039062500,-47.5,14.0,41.75,80.3690625,2.915,0.22655484375,28.57
2021-06-21 12:06:46.046875000,-48.0,14.0,41.5,80.366875,2.88,0.22651481250000002,28.57
2021-06-21 12:06:46.054687500,-48.5,14.0,41.25,80.3646875,3.005,0.22647478125,28.57
2021-06-21 12:06:46.062500000,-49.0,14.0,41.0,80.3625,3.13,0.22643475000000002,28.57
2021-06-21 12:06:46.070312500,-49.25,14.0,41.0,80.36031249999999,3.36,0.22639471875,28.57
2021-06-21 12:06:46.078125000,-49.5,14.0,41.0,80.358125,3.59,0.2263546875,28.57
2021-06-21 12:06:46.085937500,-49.75,14.0,41.0,80.3559375,3.8249999999999997,0.22631465625000002,28.57
2021-06-21 12:06:46.093750000,-50.0,14.0,41.0,80.35374999999999,4.06,0.226274625,28.57
2021-06-21 12:06:46.101562500,-49.5,14.0,41.0,80.3515625,4.195,0.22623459375000002,28.57
2021-06-21 12:06:46.109375000,-49.0,14.0,41.0,80.349375,4.33,0.2261945625,28.57
2021-06-21 12:06:46.117187500,-48.5,14.0,41.0,80.34718749999999,4.32,0.22615453125,28.57
2021-06-21 12:06:46.125000000,-48.0,14.0,41.0,80.345,4.31,0.2261145,28.57
2021-06-21 12:06:46.132812500,-47.75,14.0,41.0,80.3428125,4.199999999999999,0.22607446875,28.57
2021-06-21 12:06:46.140625000,-47.5,14.0,41.0,80.34062499999999,4.09,0.22603443750000002,28.57
2021-06-21 12:06:46.148437500,-47.25,14.0,41.0,80.3384375,3.995,0.22599440625,28.57
2021-06-21 12:06:46.156250000,-47.0,14.0,41.0,80.33624999999999,3.9,0.225954375,28.57
2021-06-21 12:06:46.164062500,-47.25,14.0,41.0,80.3340625,3.94,0.22591434375,28.57
2021-06-21 12:06:46.171875000,-47.5,14.0,41.0,80.331875,3.98,0.2258743125,28.57
2021-06-21 12:06:46.179687500,-47.75,14.0,41.0,80.32968749999999,4.2,0.22583428125000002,28.57
2021-06-21 12:06:46.187500000,-48.0,14.0,41.0,80.3275,4.42,0.22579425,28.57
2021-06-21 12:06:46.195312500,-48.0,14.0,41.0,80.3253125,4.734999999999999,0.22575421875,28.57
2021-06-21 12:06:46.203125000,-48.0,14.0,41.0,80.32312499999999,5.05,0.2257141875,28.57
2021-06-21 12:06:46.210937500,-48.0,14.0,41.0,80.3209375,5.29,0.22567415625,28.57
2021-06-21 12:06:46.218750000,-48.0,14.0,41.0,80.31875,5.53,0.22563412500000002,28.57
2021-06-21 12:06:46.226562500,-48.25,14.0,41.0,80.31656249999999,5.5,0.22559409375,28.57
2021-06-21 12:06:46.234375000,-48.5,14.0,41.0,80.314375,5.47,0.2255540625,28.57
2021-06-21 12:06:46.242187500,-48.75,14.0,41.0,80.3121875,5.0600000000000005,0.22551403125,28.57
2021-06-21 12:06:46.250000000,-49.0,14.0,41.0,80.31,4.65,0.225474,28.57
2021-06-21 12:06:46.257812500,-48.75,14.0,41.0,80.3078125,3.89,0.225474,28.57
2021-06-21 12:06:46.265625000,-48.5,14.0,41.0,80.30562499999999,3.13,0.225474,28.57
2021-06-21 12:06:46.273437500,-48.25,14.0,41.0,80.3034375,2.185,0.225474,28.57
2021-06-21 12:06:46.281250000,-48.0,14.0,41.0,80.30125,1.24,0.225474,28.57
2021-06-21 12:06:46.289062500,-48.0,14.0,41.0,80.29906249999999,0.33499999999999996,0.225474,28.57
2021-06-21 12:06:46.296875000,-48.0,14.0,41.0,80.296875,-0.57,0.225474,28.57
2021-06-21 12:06:46.304687500,-48.0,14.0,41.0,80.2946875,-1.225,0.225474,28.57
2021-06-21 12:06:46.312500000,-48.0,14.0,41.0,80.29249999999999,-1.88,0.225474,28.57
2021-06-21 12:06:46.320312500,-48.25,14.0,41.0,80.2903125,-2.17,0.225474,28.57
2021-06-21 12:06:46.328125000,-48.5,14.0,41.0,80.288125,-2.46,0.225474,28.57
2021-06-21 12:06:46.335937500,-48.75,14.0,41.0,80.28593749999999,-2.4,0.225474,28.57
2021-06-21 12:06:46.343750000,-49.0,14.0,41.0,80.28375,-2.34,0.225474,28.57
2021-06-21 12:06:46.351562500,-48.75,14.0,41.0,80.28156249999999,-2.0549999999999997,0.225474,28.57
2021-06-21 12:06:46.359375000,-48.5,14.0,41.0,80.279375,-1.77,0.225474,28.57
2021-06-21 12:06:46.367187500,-48.25,14.0,41.0,80.2771875,-1.4300000000000002,0.225474,28.57
2021-06-21 12:06:46.375000000,-48.0,14.0,41.0,80.27499999999999,-1.09,0.225474,28.57
2021-06-21 12:06:46.382812500,-48.25,14.0,41.0,80.2728125,-0.8800000000000001,0.225474,28.57
2021-06-21 12:06:46.390625000,-48.5,14.0,41.0,80.270625,-0.67,0.225474,28.57
2021-06-21 12:06:46.398437500,-48.75,14.0,41.0,80.26843749999999,-0.7150000000000001,0.225474,28.57
2021-06-21 12:06:46.406250000,-49.0,14.0,41.0,80.26625,-0.76,0.225474,28.57
2021-06-21 12:06:46.414062500,-48.75,14.0,41.0,80.2640625,-1.0899999999999999,0.225474,28.57
2021-06-21 12:06:46.421875000,-48.5,14.0,41.0,80.26187499999999,-1.42,0.225474,28.57
2021-06-21 12:06:46.429687500,-48.25,14.0,41.0,80.2596875,-1.9649999999999999,0.225474,28.57
2021-06-21 12:06:46.437500000,-48.0,14.0,41.0,80.2575,-2.51,0.225474,28.57
2021-06-21 12:06:46.445312500,-48.0,14.0,41.0,80.25531249999999,-3.0949999999999998,0.225474,28.57
2021-06-21 12:06:46.453125000,-48.0,14.0,41.0,80.253125,-3.68,0.225474,28.57
2021-06-21 12:06:46.460937500,-48.0,14.0,41.0,80.25093749999999,-4.12,0.225474,28.57
2021-06-21 12:06:46.468750000,-48.0,14.0,41.0,80.24875,-4.56,0.225474,28.57
2021-06-21 12:06:46.476562500,-48.0,14.0,41.0,80.2465625,-4.699999999999999,0.225474,28.57
2021-06-21 12:06:46.484375000,-48.0,14.0,41.0,80.24437499999999,-4.84,0.225474,28.57
2021-06-21 12:06:46.492187500,-48.0,14.0,41.0,80.2421875,-4.645,0.225474,28.57
2021-06-21 12:06:46.500000000,-48.0,14.0,41.0,80.24,-4.45,0.225474,28.57
2021-06-21 12:06:46.507812500,-48.0,14.0,41.0,80.23781249999999,-4.0,0.22543393750000001,28.57
2021-06-21 12:06:46.515625000,-48.0,14.0,41.0,80.235625,-3.55,0.22539387500000002,28.57
2021-06-21 12:06:46.523437500,-48.0,14.0,41.0,80.2334375,-3.0149999999999997,0.2253538125,28.57
2021-06-21 12:06:46.531250000,-48.0,14.0,41.0,80.23124999999999,-2.48,0.22531375,28.57
2021-06-21 12:06:46.539062500,-48.0,14.0,41.0,80.2290625,-2.035,0.2252736875,28.57
2021-06-21 12:06:46.546875000,-48.0,14.0,41.0,80.22687499999999,-1.59,0.225233625,28.57
2021-06-21 12:06:46.554687500,-48.0,14.0,41.0,80.2246875,-1.3450000000000002,0.2251935625,28.57
2021-06-21 12:06:46.562500000,-48.0,14.0,41.0,80.2225,-1.1,0.2251535,28.57
2021-06-21 12:06:46.570312500,-48.0,14.0,41.25,80.22031249999999,-1.0950000000000002,0.2251134375,28.57
2021-06-21 12:06:46.578125000,-48.0,14.0,41.5,80.218125,-1.09,0.22507337500000002,28.57
2021-06-21 12:06:46.585937500,-48.0,14.0,41.75,80.2159375,-1.27,0.2250333125,28.57
2021-06-21 12:06:46.593750000,-48.0,14.0,42.0,80.21374999999999,-1.45,0.22499325,28.57
2021-06-21 12:06:46.601562500,-48.0,14.0,41.75,80.2115625,-1.72,0.2249531875,28.57
2021-06-21 12:06:46.609375000,-48.0,14.0,41.5,80.209375,-1.99,0.224913125,28.57
2021-06-21 12:06:46.617187500,-48.0,14.0,41.25,80.20718749999999,-2.24,0.2248730625,28.57
2021-06-21 12:06:46.625000000,-48.0,14.0,41.0,80.205,-2.49,0.224833,28.57
2021-06-21 12:06:46.632812500,-48.25,14.0,41.0,80.2028125,-2.6550000000000002,0.2247929375,28.57
2021-06-21 12:06:46.640625000,-48.5,14.0,41.0,80.20062499999999,-2.82,0.22475287500000002,28.57
2021-06-21 12:06:46.648437500,-48.75,14.0,41.0,80.1984375,-2.865,0.2247128125,28.57
2021-06-21 12:06:46.656250000,-49.0,14.0,41.0,80.19624999999999,-2.91,0.22467275,28.57
2021-06-21 12:06:46.664062500,-48.75,14.0,41.0,80.1940625,-2.85,0.2246326875,28.57
2021-06-21 12:06:46.671875000,-48.5,14.0,41.0,80.191875,-2.79,0.224592625,28.57
2021-06-21 12:06:46.679687500,-48.25,14.0,41.0,80.18968749999999,-2.665,0.2245525625,28.57
2021-06-21 12:06:46.687500000,-48.0,14.0,41.0,80.1875,-2.54,0.2245125,28.57
2021-06-21 12:06:46.695312500,-48.0,14.0,41.0,80.1853125,-2.39,0.2244724375,28.57
2021-06-21 12:06:46.703125000,-48.0,14.0,41.0,80.18312499999999,-2.24,0.22443237500000002,28.57
2021-06-21 12:06:46.710937500,-48.0,14.0,41.0,80.1809375,-2.06,0.2243923125,28.57
2021-06-21 12:06:46.718750000,-48.0,14.0,41.0,80.17875,-1.88,0.22435225,28.57
2021-06-21 12:06:46.726562500,-48.0,13.75,41.0,80.17656249999999,-1.6749999999999998,0.2243121875,28.57
2021-06-21 12:06:46.734375000,-48.0,13.5,41.0,80.174375,-1.47,0.224272125,28.57
2021-06-21 12:06:46.742187500,-48.0,13.25,41.0,80.17218749999999,-1.225,0.2242320625,28.57
2021-06-21 12:06:46.750000000,-48.0,13.0,41.0,80.16999999999999,-0.98,0.224192,28.57
2021-06-21 12:06:46.757812500,-48.25,13.25,41.0,80.1678125,-0.705,0.22427209375,28.57
2021-06-21 12:06:46.765625000,-48.5,13.5,41.0,80.16562499999999,-0.43,0.2243521875,28.57
2021-06-21 12:06:46.773437500,-48.75,13.75,41.0,80.1634375,-0.16999999999999998,0.22443228125,28.57
2021-06-21 12:06:46.781250000,-49.0,14.0,41.0,80.16125,0.09,0.22451237500000001,28.57
2021-06-21 12:06:46.789062500,-48.75,14.0,41.0,80.15906249999999,0.28,0.22459246875,28.57
2021-06-21 12:06:46.796875000,-48.5,14.0,41.0,80.156875,0.47,0.2246725625,28.57
2021-06-21 12:06:46.804687500,-48.25,14.0,41.0,80.1546875,0.54,0.22475265625000002,28.57
2021-06-21 12:06:46.812500000,-48.0,14.0,41.0,80.15249999999999,0.61,0.22483275,28.57
2021-06-21 12:06:46.820312500,-48.0,14.0,41.0,80.1503125,0.5700000000000001,0.22491284375,28.57
2021-06-21 12:06:46.828125000,-48.0,14.0,41.0,80.148125,0.53,0.22499293750000002,28.57
2021-06-21 12:06:46.835937500,-48.0,14.0,41.0,80.14593749999999,0.42500000000000004,0.22507303125,28.57
2021-06-21 12:06:46.843750000,-48.0,14.0,41.0,80.14375,0.32,0.225153125,28.57
2021-06-21 12:06:46.851562500,-48.0,14.0,41.0,80.14156249999999,0.20500000000000002,0.22523321875000002,28.57
2021-06-21 12:06:46.859375000,-48.0,14.0,41.0,80.139375,0.09,0.2253133125,28.57
2021-06-21 12:06:46.867187500,-48.0,14.0,41.0,80.1371875,0.015,0.22539340625,28.57
2021-06-21 12:06:46.875000000,-48.0,14.0,41.0,80.13499999999999,-0.06,0.2254735,28.57
2021-06-21 12:06:46.882812500,-48.25,14.0,41.0,80.1328125,-0.08,0.22555359375,28.57
2021-06-21 12:06:46.890625000,-48.5,14.0,41.0,80.130625,-0.1,0.2256336875,28.57
2021-06-21 12:06:46.898437500,-48.75,14.0,41.0,80.12843749999999,-0.07500000000000001,0.22571378125,28.57
2021-06-21 12:06:46.906250000,-49.0,14.0,41.0,80.12625,-0.05,0.225793875,28.57
2021-06-21 12:06:46.914062500,-48.75,14.0,41.0,80.1240625,0.0,0.22587396875000001,28.57
2021-06-21 12:06:46.921875000,-48.5,14.0,41.0,80.12187499999999,0.05,0.2259540625,28.57
2021-06-21 12:06:46.929687500,-48.25,14.0,41.0,80.1196875,0.12000000000000001,0.22603415625,28.57
2021-06-21 12:06:46.937500000,-48.0,14.0,41.0,80.11749999999999,0.19,0.22611425000000002,28.57
2021-06-21 12:06:46.945312500,-48.0,14.0,41.0,80.11531249999999,0.28500000000000003,0.22619434375,28.57
2021-06-21 12:06:46.953125000,-48.0,14.0,41.0,80.113125,0.38,0.2262744375,28.57
2021-06-21 12:06:46.960937500,-48.0,14.0,41.0,80.11093749999999,0.47000000000000003,0.22635453125000002,28.57
2021-06-21 12:06:46.968750000,-48.0,14.0,41.0,80.10875,0.56,0.226434625,28.57
2021-06-21 12:06:46.976562500,-48.25,13.75,41.0,80.1065625,0.6200000000000001,0.22651471875,28.57
2021-06-21 12:06:46.984375000,-48.5,13.5,41.0,80.10437499999999,0.68,0.22659481250000002,28.57
2021-06-21 12:06:46.992187500,-48.75,13.25,41.0,80.1021875,0.665,0.22667490625,28.57
2021-06-21 12:06:47.000000000,-49.0,13.0,41.0,80.1,0.65,0.226755,28.57
2021-06-21 12:06:47.007812500,-48.75,13.25,41.0,80.098984375,0.545,0.226755,28.569375
2021-06-21 12:06:47.015625000,-48.5,13.5,41.0,80.09796874999999,0.44,0.226755,28.56875
2021-06-21 12:06:47.023437500,-48.25,13.75,41.0,80.096953125,0.28,0.226755,28.568125000000002
2021-06-21 12:06:47.031250000,-48.0,14.0,41.0,80.09593749999999,0.12,0.226755,28.5675
2021-06-21 12:06:47.039062500,-48.0,14.0,41.0,80.094921875,-0.044999999999999984,0.226755,28.566875
2021-06-21 12:06:47.046875000,-48.0,14.0,41.0,80.09390624999999,-0.21,0.226755,28.56625
2021-06-21 12:06:47.054687500,-48.0,14.0,41.0,80.092890625,-0.29,0.226755,28.565625
2021-06-21 12:06:47.062500000,-48.0,14.0,41.0,80.09187499999999,-0.37,0.226755,28.565
2021-06-21 12:06:47.070312500,-48.0,14.0,41.0,80.090859375,-0.33499999999999996,0.226755,28.564375000000002
2021-06-21 12:06:47.078125000,-48.0,14.0,41.0,80.08984375,-0.3,0.226755,28.56375
2021-06-21 12:06:47.085937500,-48.0,14.0,41.0,80.08882812499999,-0.125,0.226755,28.563125
2021-06-21 12:06:47.093750000,-48.0,14.0,41.0,80.0878125,0.05,0.226755,28.5625
2021-06-21 12:06:47.101562500,-48.25,14.0,41.0,80.08679687499999,0.33499999999999996,0.226755,28.561875
2021-06-21 12:06:47.109375000,-48.5,14.0,41.0,80.08578125,0.62,0.226755,28.56125
2021-06-21 12:06:47.117187500,-48.75,14.0,41.0,80.08476562499999,0.9650000000000001,0.226755,28.560625
2021-06-21 12:06:47.125000000,-49.0,14.0,41.0,80.08375,1.31,0.226755,28.560000000000002
2021-06-21 12:06:47.132812500,-49.0,14.0,41.0,80.082734375,1.66,0.226755,28.559375
2021-06-21 12:06:47.140625000,-49.0,14.0,41.0,80.08171875,2.01,0.226755,28.55875
2021-06-21 12:06:47.148437500,-49.0,14.0,41.0,80.080703125,2.315,0.226755,28.558125
2021-06-21 12:06:47.156250000,-49.0,14.0,41.0,80.07968749999999,2.62,0.226755,28.5575
2021-06-21 12:06:47.164062500,-48.75,14.0,41.0,80.078671875,2.805,0.226755,28.556875
2021-06-21 12:06:47.171875000,-48.5,14.0,41.0,80.07765624999999,2.99,0.226755,28.556250000000002
2021-06-21 12:06:47.179687500,-48.25,14.0,41.0,80.076640625,3.0250000000000004,0.226755,28.555625
2021-06-21 12:06:47.187500000,-48.0,14.0,41.0,80.075625,3.06,0.226755,28.555
2021-06-21 12:06:47.195312500,-48.0,14.0,41.25,80.074609375,2.9299999999999997,0.226755,28.554375
2021-06-21 12:06:47.203125000,-48.0,14.0,41.5,80.07359375,2.8,0.226755,28.55375
2021-06-21 12:06:47.210937500,-48.0,14.0,41.75,80.07257812499999,2.57,0.226755,28.553125
2021-06-21 12:06:47.218750000,-48.0,14.0,42.0,80.0715625,2.34,0.226755,28.552500000000002
2021-06-21 12:06:47.226562500,-48.0,14.0,41.75,80.07054687499999,2.1,0.226755,28.551875
2021-06-21 12:06:47.234375000,-48.0,14.0,41.5,80.06953125,1.86,0.226755,28.55125
2021-06-21 12:06:47.242187500,-48.0,14.0,41.25,80.06851562499999,1.71,0.226755,28.550625
2021-06-21 12:06:47.250000000,-48.0,14.0,41.0,80.0675,1.56,0.226755,28.55
2021-06-21 12:06:47.257812500,-48.0,13.75,41.0,80.066484375,1.545,0.22667490625,28.55
2021-06-21 12:06:47.265625000,-48.0,13.5,41.0,80.06546875,1.53,0.22659481250000002,28.55
2021-06-21 12:06:47.273437500,-48.0,13.25,41.0,80.064453125,1.635,0.22651471875,28.55
2021-06-21 12:06:47.281250000,-48.0,13.0,41.0,80.06343749999999,1.74,0.226434625,28.55
2021-06-21 12:06:47.289062500,-48.25,13.0,41.0,80.062421875,1.8599999999999999,0.22635453125000002,28.55
2021-06-21 12:06:47.296875000,-48.5,13.0,41.0,80.06140624999999,1.98,0.2262744375,28.55
2021-06-21 12:06:47.304687500,-48.75,13.0,41.0,80.060390625,2.005,0.22619434375,28.55
2021-06-21 12:06:47.312500000,-49.0,13.0,41.0,80.05937499999999,2.03,0.22611425000000002,28.55
2021-06-21 12:06:47.320312500,-48.75,13.25,41.0,80.058359375,1.875,0.22603415625,28.55
2021-06-21 12:06:47.328125000,-48.5,13.5,41.0,80.05734375,1.72,0.2259540625,28.55
2021-06-21 12:06:47.335937500,-48.25,13.75,41.0,80.056328125,1.37,0.22587396875000001,28.55
2021-06-21 12:06:47.343750000,-48.0,14.0,41.0,80.0553125,1.02,0.225793875,28.55
2021-06-21 12:06:47.351562500,-48.0,14.0,41.0,80.05429687499999,0.5549999999999999,0.22571378125,28.55
2021-06-21 12:06:47.359375000,-48.0,14.0,41.0,80.05328125,0.09,0.2256336875,28.55
2021-06-21 12:06:47.367187500,-48.0,14.0,41.0,80.05226562499999,-0.395,0.22555359375,28.55
2021-06-21 12:06:47.375000000,-48.0,14.0,41.0,80.05125,-0.88,0.2254735,28.55
2021-06-21 12:06:47.382812500,-48.25,14.0,41.0,80.050234375,-1.305,0.22539340625,28.55
2021-06-21 12:06:47.390625000,-48.5,14.0,41.0,80.04921875,-1.73,0.2253133125,28.55
2021-06-21 12:06:47.398437500,-48.75,14.0,41.0,80.048203125,-2.06,0.22523321875000002,28.55
2021-06-21 12:06:47.406250000,-49.0,14.0,41.0,80.04718749999999,-2.39,0.225153125,28.55
2021-06-21 12:06:47.414062500,-49.0,14.0,41.0,80.046171875,-2.63,0.22507303125,28.55
2021-06-21 12:06:47.421875000,-49.0,14.0,41.0,80.04515624999999,-2.87,0.22499293750000002,28.55
2021-06-21 12:06:47.429687500,-49.0,14.0,41.0,80.044140625,-3.04,0.22491284375,28.55
2021-06-21 12:06:47.437500000,-49.0,14.0,41.0,80.043125,-3.21,0.22483275,28.55
2021-06-21 12:06:47.445312500,-48.75,13.75,41.0,80.042109375,-3.3049999999999997,0.22475265625000002,28.55
2021-06-21 12:06:47.453125000,-48.5,13.5,41.0,80.04109375,-3.4,0.2246725625,28.55
2021-06-21 12:06:47.460937500,-48.25,13.25,41.0,80.040078125,-3.3899999999999997,0.22459246875,28.55
2021-06-21 12:06:47.468750000,-48.0,13.0,41.0,80.0390625,-3.38,0.22451237500000001,28.55
2021-06-21 12:06:47.476562500,-48.0,13.25,41.0,80.03804687499999,-3.2249999999999996,0.22443228125,28.55
2021-06-21 12:06:47.484375000,-48.0,13.5,41.0,80.03703125,-3.07,0.2243521875,28.55
2021-06-21 12:06:47.492187500,-48.0,13.75,41.0,80.03601562499999,-2.77,0.22427209375,28.55
2021-06-21 12:06:47.500000000,-48.0,14.0,41.0,80.035,-2.47,0.224192,28.55
2021-06-21 12:06:47.507812500,-48.0,14.0,41.0,80.033984375,-2.075,0.22427209375,28.55
2021-06-21 12:06:47.515625000,-48.0,14.0,41.0,80.03296875,-1.68,0.2243521875,28.55
2021-06-21 12:06:47.523437500,-48.0,14.0,41.0,80.031953125,-1.295,0.22443228125,28.55
2021-06-21 12:06:47.531250000,-48.0,14.0,41.0,80.0309375,-0.91,0.22451237500000001,28.55
2021-06-21 12:06:47.539062500,-48.25,13.75,41.0,80.029921875,-0.655,0.22459246875,28.55
2021-06-21 12:06:47.546875000,-48.5,13.5,41.0,80.02890624999999,-0.4,0.2246725625,28.55
2021-06-21 12:06:47.554687500,-48.75,13.25,41.0,80.027890625,-0.35,0.22475265625000002,28.55
2021-06-21 12:06:47.562500000,-49.0,13.0,41.0,80.02687499999999,-0.3,0.22483275,28.55
2021-06-21 12:06:47.570312500,-49.0,13.0,40.75,80.025859375,-0.48,0.22491284375,28.55
2021-06-21 12:06:47.578125000,-49.0,13.0,40.5,80.02484375,-0.66,0.22499293750000002,28.55
2021-06-21 12:06:47.585937500,-49.0,13.0,40.25,80.023828125,-0.9850000000000001,0.22507303125,28.55
2021-06-21 12:06:47.593750000,-49.0,13.0,40.0,80.0228125,-1.31,0.225153125,28.55
2021-06-21 12:06:47.601562500,-49.0,13.0,40.25,80.02179687499999,-1.67,0.22523321875000002,28.55
2021-06-21 12:06:47.609375000,-49.0,13.0,40.5,80.02078125,-2.03,0.2253133125,28.55
2021-06-21 12:06:47.617187500,-49.0,13.0,40.75,80.01976562499999,-2.315,0.22539340625,28.55
2021-06-21 12:06:47.625000000,-49.0,13.0,41.0,80.01875,-2.6,0.2254735,28.55
2021-06-21 12:06:47.632812500,-49.0,13.0,40.75,80.017734375,-2.765,0.22555359375,28.55
2021-06-21 12:06:47.640625000,-49.0,13.0,40.5,80.01671875,-2.93,0.2256336875,28.55
2021-06-21 12:06:47.648437500,-49.0,13.0,40.25,80.015703125,-3.01,0.22571378125,28.55
2021-06-21 12:06:47.656250000,-49.0,13.0,40.0,80.0146875,-3.09,0.225793875,28.55
2021-06-21 12:06:47.664062500,-48.75,13.25,40.25,80.013671875,-3.15,0.22587396875000001,28.55
2021-06-21 12:06:47.671875000,-48.5,13.5,40.5,80.01265624999999,-3.21,0.2259540625,28.55
2021-06-21 12:06:47.679687500,-48.25,13.75,40.75,80.011640625,-3.31,0.22603415625,28.55
2021-06-21 12:06:47.687500000,-48.0,14.0,41.0,80.010625,-3.41,0.22611425000000002,28.55
2021-06-21 12:06:47.695312500,-48.0,13.75,41.0,80.009609375,-3.54,0.22619434375,28.55
2021-06-21 12:06:47.703125000,-48.0,13.5,41.0,80.00859375,-3.67,0.2262744375,28.55
2021-06-21 12:06:47.710937500,-48.0,13.25,41.0,80.007578125,-3.77,0.22635453125000002,28.55
2021-06-21 12:06:47.718750000,-48.0,13.0,41.0,80.0065625,-3.87,0.226434625,28.55
2021-06-21 12:06:47.726562500,-48.25,13.0,41.0,80.005546875,-3.85,0.22651471875,28.55
2021-06-21 12:06:47.734375000,-48.5,13.0,41.0,80.00453125,-3.83,0.22659481250000002,28.55
2021-06-21 12:06:47.742187500,-48.75,13.0,41.0,80.00351562499999,-3.64,0.22667490625,28.55
2021-06-21 12:06:47.750000000,-49.0,13.0,41.0,80.0025,-3.45,0.226755,28.55
2021-06-21 12:06:47.757812500,-49.0,13.25,41.0,80.001484375,-3.105,0.22667490625,28.55
2021-06-21 12:06:47.765625000,-49.0,13.5,41.0,80.00046875,-2.76,0.22659481250000002,28.55
2021-06-21 12:06:47.773437500,-49.0,13.75,41.0,79.999453125,-2.36,0.22651471875,28.55
2021-06-21 12:06:47.781250000,-49.0,14.0,41.0,79.9984375,-1.96,0.226434625,28.55
2021-06-21 12:06:47.789062500,-49.0,13.75,41.0,79.997421875,-1.635,0.22635453125000002,28.55
2021-06-21 12:06:47.796875000,-49.0,13.5,41.0,79.99640624999999,-1.31,0.2262744375,28.55
2021-06-21 12:06:47.804687500,-49.0,13.25,41.0,79.995390625,-1.125,0.22619434375,28.55
2021-06-21 12:06:47.812500000,-49.0,13.0,41.0,79.99437499999999,-0.94,0.22611425000000002,28.55
2021-06-21 12:06:47.820312500,-48.75,13.0,41.0,79.993359375,-0.905,0.22603415625,28.55
2021-06-21 12:06:47.828125000,-48.5,13.0,41.0,79.99234375,-0.87,0.2259540625,28.55
2021-06-21 12:06:47.835937500,-48.25,13.0,41.0,79.991328125,-0.9199999999999999,0.22587396875000001,28.55
2021-06-21 12:06:47.843750000,-48.0,13.0,41.0,79.9903125,-0.97,0.225793875,28.55
2021-06-21 12:06:47.851562500,-48.0,13.0,41.0,79.989296875,-1.045,0.22571378125,28.55
2021-06-21 12:06:47.859375000,-48.0,13.0,41.0,79.98828125,-1.12,0.2256336875,28.55
2021-06-21 12:06:47.867187500,-48.0,13.0,41.0,79.98726562499999,-1.19,0.22555359375,28.55
2021-06-21 12:06:47.875000000,-48.0,13.0,41.0,79.98625,-1.26,0.2254735,28.55
2021-06-21 12:06:47.882812500,-48.25,13.0,41.0,79.985234375,-1.355,0.22539340625,28.55
2021-06-21 12:06:47.890625000,-48.5,13.0,41.0,79.98421875,-1.45,0.2253133125,28.55
2021-06-21 12:06:47.898437500,-48.75,13.0,41.0,79.983203125,-1.585,0.22523321875000002,28.55
2021-06-21 12:06:47.906250000,-49.0,13.0,41.0,79.9821875,-1.72,0.225153125,28.55
2021-06-21 12:06:47.914062500,-49.0,13.0,41.0,79.981171875,-1.895,0.22507303125,28.55
2021-06-21 12:06:47.921875000,-49.0,13.0,41.0,79.98015625,-2.07,0.22499293750000002,28.55
2021-06-21 12:06:47.929687500,-49.0,13.0,41.0,79.979140625,-2.21,0.22491284375,28.55
2021-06-21 12:06:47.937500000,-49.0,13.0,41.0,79.978125,-2.35,0.22483275,28.55
2021-06-21 12:06:47.945312500,-48.75,13.0,41.25,79.977109375,-2.34,0.22475265625000002,28.55
2021-06-21 12:06:47.953125000,-48.5,13.0,41.5,79.97609375,-2.33,0.2246725625,28.55
2021-06-21 12:06:47.960937500,-48.25,13.0,41.75,79.975078125,-2.1,0.22459246875,28.55
2021-06-21 12:06:47.968750000,-48.0,13.0,42.0,79.9740625,-1.87,0.22451237500000001,28.55
2021-06-21 12:06:47.976562500,-48.0,13.0,41.75,79.973046875,-1.44,0.22443228125,28.55
2021-06-21 12:06:47.984375000,-48.0,13.0,41.5,79.97203125,-1.01,0.2243521875,28.55
2021-06-21 12:06:47.992187500,-48.0,13.0,41.25,79.97101562499999,-0.5,0.22427209375,28.55
2021-06-21 12:06:48.000000000,-48.0,13.0,41.0,79.97,0.01,0.224192,28.55
2021-06-21 12:06:48.007812500,-48.25,12.75,40.75,79.968671875,0.45,0.22427209375,28.550625
2021-06-21 12:06:48.015625000,-48.5,12.5,40.5,79.96734375,0.89,0.2243521875,28.55125
2021-06-21 12:06:48.023437500,-48.75,12.25,40.25,79.966015625,1.1300000000000001,0.22443228125,28.551875
2021-06-21 12:06:48.031250000,-49.0,12.0,40.0,79.9646875,1.37,0.22451237500000001,28.552500000000002
2021-06-21 12:06:48.039062500,-49.0,12.25,40.25,79.963359375,1.4,0.22459246875,28.553125
2021-06-21 12:06:48.046875000,-49.0,12.5,40.5,79.96203125,1.43,0.2246725625,28.55375
2021-06-21 12:06:48.054687500,-49.0,12.75,40.75,79.960703125,1.33,0.22475265625000002,28.554375
2021-06-21 12:06:48.062500000,-49.0,13.0,41.0,79.959375,1.23,0.22483275,28.555
2021-06-21 12:06:48.070312500,-48.75,13.0,41.0,79.958046875,1.115,0.22491284375,28.555625
2021-06-21 12:06:48.078125000,-48.5,13.0,41.0,79.95671875,1.0,0.22499293750000002,28.556250000000002
2021-06-21 12:06:48.085937500,-48.25,13.0,41.0,79.95539062499999,0.94,0.22507303125,28.556875
2021-06-21 12:06:48.093750000,-48.0,13.0,41.0,79.95406249999999,0.88,0.225153125,28.5575
2021-06-21 12:06:48.101562500,-48.0,13.25,41.25,79.952734375,0.89,0.22523321875000002,28.558125
2021-06-21 12:06:48.109375000,-48.0,13.5,41.5,79.95140625,0.9,0.2253133125,28.55875
2021-06-21 12:06:48.117187500,-48.0,13.75,41.75,79.950078125,0.9199999999999999,0.22539340625,28.559375
2021-06-21 12:06:48.125000000,-48.0,14.0,42.0,79.94875,0.94,0.2254735,28.560000000000002
2021-06-21 12:06:48.132812500,-48.0,13.75,42.0,79.947421875,0.9299999999999999,0.22555359375,28.560625
2021-06-21 12:06:48.140625000,-48.0,13.5,42.0,79.94609375,0.92,0.2256336875,28.56125
2021-06-21 12:06:48.148437500,-48.0,13.25,42.0,79.944765625,0.8600000000000001,0.22571378125,28.561875
2021-06-21 12:06:48.156250000,-48.0,13.0,42.0,79.9434375,0.8,0.225793875,28.5625
2021-06-21 12:06:48.164062500,-48.25,13.0,41.5,79.942109375,0.7250000000000001,0.22587396875000001,28.563125
2021-06-21 12:06:48.171875000,-48.5,13.0,41.0,79.94078125,0.65,0.2259540625,28.56375
2021-06-21 12:06:48.179687500,-48.75,13.0,40.5,79.939453125,0.595,0.22603415625,28.564375000000002
2021-06-21 12:06:48.187500000,-49.0,13.0,40.0,79.938125,0.54,0.22611425000000002,28.565
2021-06-21 12:06:48.195312500,-49.0,13.0,40.25,79.936796875,0.49,0.22619434375,28.565625
2021-06-21 12:06:48.203125000,-49.0,13.0,40.5,79.93546875,0.44,0.2262744375,28.56625
2021-06-21 12:06:48.210937500,-49.0,13.0,40.75,79.934140625,0.35,0.22635453125000002,28.566875
2021-06-21 12:06:48.218750000,-49.0,13.0,41.0,79.9328125,0.26,0.226434625,28.5675
2021-06-21 12:06:48.226562500,-48.75,13.0,41.25,79.931484375,0.06,0.22651471875,28.568125000000002
2021-06-21 12:06:48.234375000,-48.5,13.0,41.5,79.93015625,-0.14,0.22659481250000002,28.56875
2021-06-21 12:06:48.242187500,-48.25,13.0,41.75,79.928828125,-0.47500000000000003,0.22667490625,28.569375
2021-06-21 12:06:48.250000000,-48.0,13.0,42.0,79.9275,-0.81,0.226755,28.57
2021-06-21 12:06:48.257812500,-48.0,13.0,42.0,79.926171875,-1.21,0.22671496875000002,28.57
2021-06-21 12:06:48.265625000,-48.0,13.0,42.0,79.92484375,-1.61,0.2266749375,28.57
2021-06-21 12:06:48.273437500,-48.0,13.0,42.0,79.923515625,-1.955,0.22663490625000002,28.57
2021-06-21 12:06:48.281250000,-48.0,13.0,42.0,79.92218749999999,-2.3,0.226594875,28.57
2021-06-21 12:06:48.289062500,-48.25,13.0,41.5,79.92085937499999,-2.45,0.22655484375,28.57
2021-06-21 12:06:48.296875000,-48.5,13.0,41.0,79.91953124999999,-2.6,0.22651481250000002,28.57
2021-06-21 12:06:48.304687500,-48.75,13.0,40.5,79.918203125,-2.505,0.22647478125,28.57
2021-06-21 12:06:48.312500000,-49.0,13.0,40.0,79.916875,-2.41,0.22643475000000002,28.57
2021-06-21 12:06:48.320312500,-49.25,13.0,40.0,79.915546875,-2.125,0.22639471875,28.57
2021-06-21 12:06:48.328125000,-49.5,13.0,40.0,79.91421875,-1.84,0.2263546875,28.57
2021-06-21 12:06:48.335937500,-49.75,13.0,40.0,79.912890625,-1.4849999999999999,0.22631465625000002,28.57
2021-06-21 12:06:48.343750000,-50.0,13.0,40.0,79.9115625,-1.13,0.226274625,28.57
2021-06-21 12:06:48.351562500,-49.5,13.0,40.25,79.910234375,-0.8599999999999999,0.22623459375000002,28.57
2021-06-21 12:06:48.359375000,-49.0,13.0,40.5,79.90890625,-0.59,0.2261945625,28.57
2021-06-21 12:06:48.367187500,-48.5,13.0,40.75,79.907578125,-0.49,0.22615453125,28.57
2021-06-21 12:06:48.375000000,-48.0,13.0,41.0,79.90625,-0.39,0.2261145,28.57
2021-06-21 12:06:48.382812500,-48.25,13.0,41.0,79.904921875,-0.48,0.22607446875,28.57
2021-06-21 12:06:48.390625000,-48.5,13.0,41.0,79.90359375,-0.57,0.22603443750000002,28.57
2021-06-21 12:06:48.398437500,-48.75,13.0,41.0,79.902265625,-0.79,0.22599440625,28.57
2021-06-21 12:06:48.406250000,-49.0,13.0,41.0,79.9009375,-1.01,0.225954375,28.57
2021-06-21 12:06:48.414062500,-49.0,13.0,41.0,79.899609375,-1.28,0.22591434375,28.57
2021-06-21 12:06:48.421875000,-49.0,13.0,41.0,79.89828125,-1.55,0.2258743125,28.57
2021-06-21 12:06:48.429687500,-49.0,13.0,41.0,79.896953125,-1.7999999999999998,0.22583428125000002,28.57
2021-06-21 12:06:48.437500000,-49.0,13.0,41.0,79.895625,-2.05,0.22579425,28.57
2021-06-21 12:06:48.445312500,-49.0,13.0,41.0,79.894296875,-2.2249999999999996,0.22575421875,28.57
2021-06-21 12:06:48.453125000,-49.0,13.0,41.0,79.89296875,-2.4,0.2257141875,28.57
2021-06-21 12:06:48.460937500,-49.0,13.0,41.0,79.891640625,-2.495,0.22567415625,28.57
2021-06-21 12:06:48.468750000,-49.0,13.0,41.0,79.8903125,-2.59,0.22563412500000002,28.57
2021-06-21 12:06:48.476562500,-48.75,13.0,41.0,79.88898437499999,-2.62,0.22559409375,28.57
2021-06-21 12:06:48.484375000,-48.5,13.0,41.0,79.88765624999999,-2.65,0.2255540625,28.57
2021-06-21 12:06:48.492187500,-48.25,13.0,41.0,79.88632812499999,-2.6399999999999997,0.22551403125,28.57
2021-06-21 12:06:48.500000000,-48.0,13.0,41.0,79.88499999999999,-2.63,0.225474,28.57
2021-06-21 12:06:48.507812500,-48.0,13.25,41.0,79.883671875,-2.63,0.225474,28.57
2021-06-21 12:06:48.515625000,-48.0,13.5,41.0,79.88234375,-2.63,0.225474,28.57
2021-06-21 12:06:48.523437500,-48.0,13.75,41.0,79.881015625,-2.685,0.225474,28.57
2021-06-21 12:06:48.531250000,-48.0,14.0,41.0,79.8796875,-2.74,0.225474,28.57
2021-06-21 12:06:48.539062500,-48.25,13.75,41.0,79.878359375,-2.8600000000000003,0.225474,28.57
2021-06-21 12:06:48.546875000,-48.5,13.5,41.0,79.87703125,-2.98,0.225474,28.57
2021-06-21 12:06:48.554687500,-48.75,13.25,41.0,79.875703125,-3.145,0.225474,28.57
2021-06-21 12:06:48.562500000,-49.0,13.0,41.0,79.874375,-3.31,0.225474,28.57
2021-06-21 12:06:48.570312500,-49.0,13.0,41.0,79.873046875,-3.45,0.225474,28.57
2021-06-21 12:06:48.578125000,-49.0,13.0,41.0,79.87171875,-3.59,0.225474,28.57
2021-06-21 12:06:48.585937500,-49.0,13.0,41.0,79.870390625,-3.6399999999999997,0.225474,28.57
2021-06-21 12:06:48.593750000,-49.0,13.0,41.0,79.8690625,-3.69,0.225474,28.57
2021-06-21 12:06:48.601562500,-48.75,13.0,41.0,79.867734375,-3.585,0.225474,28.57
2021-06-21 12:06:48.609375000,-48.5,13.0,41.0,79.86640625,-3.48,0.225474,28.57
2021-06-21 12:06:48.617187500,-48.25,13.0,41.0,79.865078125,-3.2199999999999998,0.225474,28.57
2021-06-21 12:06:48.625000000,-48.0,13.0,41.0,79.86375,-2.96,0.225474,28.57
2021-06-21 12:06:48.632812500,-48.25,13.0,41.0,79.862421875,-2.5949999999999998,0.225474,28.57
2021-06-21 12:06:48.640625000,-48.5,13.0,41.0,79.86109375,-2.23,0.225474,28.57
2021-06-21 12:06:48.648437500,-48.75,13.0,41.0,79.859765625,-1.825,0.225474,28.57
2021-06-21 12:06:48.656250000,-49.0,13.0,41.0,79.8584375,-1.42,0.225474,28.57
2021-06-21 12:06:48.664062500,-49.0,13.0,41.0,79.857109375,-1.035,0.225474,28.57
2021-06-21 12:06:48.671875000,-49.0,13.0,41.0,79.85578124999999,-0.65,0.225474,28.57
2021-06-21 12:06:48.679687500,-49.0,13.0,41.0,79.85445312499999,-0.325,0.225474,28.57
2021-06-21 12:06:48.687500000,-49.0,13.0,41.0,79.85312499999999,0.0,0.225474,28.57
2021-06-21 12:06:48.695312500,-48.75,13.25,41.25,79.85179687499999,0.285,0.225474,28.57
2021-06-21 12:06:48.703125000,-48.5,13.5,41.5,79.85046875,0.57,0.225474,28.57
2021-06-21 12:06:48.710937500,-48.25,13.75,41.75,79.849140625,0.835,0.225474,28.57
2021-06-21 12:06:48.718750000,-48.0,14.0,42.0,79.8478125,1.1,0.225474,28.57
2021-06-21 12:06:48.726562500,-48.0,14.0,41.75,79.846484375,1.36,0.225474,28.57
2021-06-21 12:06:48.734375000,-48.0,14.0,41.5,79.84515625,1.62,0.225474,28.57
2021-06-21 12:06:48.742187500,-48.0,14.0,41.25,79.843828125,1.885,0.225474,28.57
2021-06-21 12:06:48.750000000,-48.0,14.0,41.0,79.8425,2.15,0.225474,28.57
2021-06-21 12:06:48.757812500,-48.25,13.75,40.75,79.841171875,2.3899999999999997,0.22543393750000001,28.57
2021-06-21 12:06:48.765625000,-48.5,13.5,40.5,79.83984375,2.63,0.22539387500000002,28.57
2021-06-21 12:06:48.773437500,-48.75,13.25,40.25,79.838515625,2.795,0.2253538125,28.57
2021-06-21 12:06:48.781250000,-49.0,13.0,40.0,79.8371875,2.96,0.22531375,28.57
2021-06-21 12:06:48.789062500,-49.0,13.0,40.0,79.835859375,3.02,0.2252736875,28.57
2021-06-21 12:06:48.796875000,-49.0,13.0,40.0,79.83453125,3.08,0.225233625,28.57
2021-06-21 12:06:48.804687500,-49.0,13.0,40.0,79.833203125,3.02,0.2251935625,28.57
2021-06-21 12:06:48.812500000,-49.0,13.0,40.0,79.831875,2.96,0.2251535,28.57
2021-06-21 12:06:48.820312500,-49.0,13.0,40.25,79.830546875,2.81,0.2251134375,28.57
2021-06-21 12:06:48.828125000,-49.0,13.0,40.5,79.82921875,2.66,0.22507337500000002,28.57
2021-06-21 12:06:48.835937500,-49.0,13.0,40.75,79.827890625,2.475,0.2250333125,28.57
2021-06-21 12:06:48.843750000,-49.0,13.0,41.0,79.8265625,2.29,0.22499325,28.57
2021-06-21 12:06:48.851562500,-48.75,13.25,41.0,79.825234375,2.11,0.2249531875,28.57
2021-06-21 12:06:48.859375000,-48.5,13.5,41.0,79.82390625,1.93,0.224913125,28.57
2021-06-21 12:06:48.867187500,-48.25,13.75,41.0,79.82257812499999,1.79,0.2248730625,28.57
2021-06-21 12:06:48.875000000,-48.0,14.0,41.0,79.82124999999999,1.65,0.224833,28.57
2021-06-21 12:06:48.882812500,-48.0,13.75,41.0,79.81992187499999,1.5299999999999998,0.2247929375,28.57
2021-06-21 12:06:48.890625000,-48.0,13.5,41.0,79.81859374999999,1.41,0.22475287500000002,28.57
2021-06-21 12:06:48.898437500,-48.0,13.25,41.0,79.81726562499999,1.275,0.2247128125,28.57
2021-06-21 12:06:48.906250000,-48.0,13.0,41.0,79.8159375,1.14,0.22467275,28.57
2021-06-21 12:06:48.914062500,-48.25,13.0,41.0,79.814609375,0.97,0.2246326875,28.57
2021-06-21 12:06:48.921875000,-48.5,13.0,41.0,79.81328125,0.8,0.224592625,28.57
2021-06-21 12:06:48.929687500,-48.75,13.0,41.0,79.811953125,0.595,0.2245525625,28.57
2021-06-21 12:06:48.937500000,-49.0,13.0,41.0,79.810625,0.39,0.2245125,28.57
2021-06-21 12:06:48.945312500,-49.0,13.0,41.0,79.809296875,0.195,0.2244724375,28.57
2021-06-21 12:06:48.953125000,-49.0,13.0,41.0,79.80796875,0.0,0.22443237500000002,28.57
2021-06-21 12:06:48.960937500,-49.0,13.0,41.0,79.806640625,-0.14,0.2243923125,28.57
2021-06-21 12:06:48.968750000,-49.0,13.0,41.0,79.8053125,-0.28,0.22435225,28.57
2021-06-21 12:06:48.976562500,-49.0,13.0,41.0,79.803984375,-0.35,0.2243121875,28.57
2021-06-21 12:06:48.984375000,-49.0,13.0,41.0,79.80265625,-0.42,0.224272125,28.57
2021-06-21 12:06:48.992187500,-49.0,13.0,41.0,79.801328125,-0.44999999999999996,0.2242320625,28.57
2021-06-21 12:06:49.000000000,-49.0,13.0,41.0,79.8,-0.48,0.224192,28.57
2021-06-21 12:06:49.007812500,-48.75,13.0,41.25,79.798984375,-0.54,0.22427209375,28.570625
2021-06-21 12:06:49.015625000,-48.5,13.0,41.5,79.79796875,-0.6,0.2243521875,28.57125
2021-06-21 12:06:49.023437500,-48.25,13.0,41.75,79.796953125,-0.75,0.22443228125,28.571875
2021-06-21 12:06:49.031250000,-48.0,13.0,42.0,79.7959375,-0.9,0.22451237500000001,28.5725
2021-06-21 12:06:49.039062500,-48.25,13.0,41.75,79.794921875,-1.155,0.22459246875,28.573125
2021-06-21 12:06:49.046875000,-48.5,13.0,41.5,79.79390624999999,-1.41,0.2246725625,28.57375
2021-06-21 12:06:49.054687500,-48.75,13.0,41.25,79.792890625,-1.7399999999999998,0.22475265625000002,28.574375
2021-06-21 12:06:49.062500000,-49.0,13.0,41.0,79.791875,-2.07,0.22483275,28.575
2021-06-21 12:06:49.070312500,-49.0,13.0,41.0,79.790859375,-2.41,0.22491284375,28.575625
2021-06-21 12:06:49.078125000,-49.0,13.0,41.0,79.78984375,-2.75,0.22499293750000002,28.57625
2021-06-21 12:06:49.085937500,-49.0,13.0,41.0,79.788828125,-3.0549999999999997,0.22507303125,28.576875
2021-06-21 12:06:49.093750000,-49.0,13.0,41.0,79.7878125,-3.36,0.225153125,28.5775
2021-06-21 12:06:49.101562500,-48.75,13.0,41.0,79.786796875,-3.635,0.22523321875000002,28.578125
2021-06-21 12:06:49.109375000,-48.5,13.0,41.0,79.78578125,-3.91,0.2253133125,28.57875
2021-06-21 12:06:49.117187500,-48.25,13.0,41.0,79.78476562499999,-4.18,0.22539340625,28.579375
2021-06-21 12:06:49.125000000,-48.0,13.0,41.0,79.78375,-4.45,0.2254735,28.58
2021-06-21 12:06:49.132812500,-48.0,13.25,41.0,79.782734375,-4.734999999999999,0.22555359375,28.580625
2021-06-21 12:06:49.140625000,-48.0,13.5,41.0,79.78171875,-5.02,0.2256336875,28.58125
2021-06-21 12:06:49.148437500,-48.0,13.75,41.0,79.780703125,-5.3,0.22571378125,28.581875
2021-06-21 12:06:49.156250000,-48.0,14.0,41.0,79.7796875,-5.58,0.225793875,28.5825
2021-06-21 12:06:49.164062500,-48.25,14.0,41.0,79.778671875,-5.775,0.22587396875000001,28.583125
2021-06-21 12:06:49.171875000,-48.5,14.0,41.0,79.77765624999999,-5.97,0.2259540625,28.58375
2021-06-21 12:06:49.179687500,-48.75,14.0,41.0,79.776640625,-5.994999999999999,0.22603415625,28.584375
2021-06-21 12:06:49.187500000,-49.0,14.0,41.0,79.77562499999999,-6.02,0.22611425000000002,28.585
2021-06-21 12:06:49.195312500,-49.0,13.75,41.0,79.774609375,-5.84,0.22619434375,28.585625
2021-06-21 12:06:49.203125000,-49.0,13.5,41.0,79.77359375,-5.66,0.2262744375,28.58625
2021-06-21 12:06:49.210937500,-49.0,13.25,41.0,79.772578125,-5.325,0.22635453125000002,28.586875
2021-06-21 12:06:49.218750000,-49.0,13.0,41.0,79.7715625,-4.99,0.226434625,28.5875
2021-06-21 12:06:49.226562500,-49.0,13.0,40.75,79.770546875,-4.625,0.22651471875,28.588125
2021-06-21 12:06:49.234375000,-49.0,13.0,40.5,79.76953125,-4.26,0.22659481250000002,28.58875
2021-06-21 12:06:49.242187500,-49.0,13.0,40.25,79.76851562499999,-4.025,0.22667490625,28.589375
2021-06-21 12:06:49.250000000,-49.0,13.0,40.0,79.7675,-3.79,0.226755,28.59
2021-06-21 12:06:49.257812500,-49.0,13.0,40.0,79.766484375,-3.795,0.22667490625,28.59
2021-06-21 12:06:49.265625000,-49.0,13.0,40.0,79.76546875,-3.8,0.22659481250000002,28.59
2021-06-21 12:06:49.273437500,-49.0,13.0,40.0,79.764453125,-4.055,0.22651471875,28.59
2021-06-21 12:06:49.281250000,-49.0,13.0,40.0,79.7634375,-4.31,0.226434625,28.59
2021-06-21 12:06:49.289062500,-48.75,13.0,40.25,79.762421875,-4.73,0.22635453125000002,28.59
2021-06-21 12:06:49.296875000,-48.5,13.0,40.5,79.76140625,-5.15,0.2262744375,28.59
2021-06-21 12:06:49.304687500,-48.25,13.0,40.75,79.760390625,-5.585,0.22619434375,28.59
2021-06-21 12:06:49.312500000,-48.0,13.0,41.0,79.759375,-6.02,0.22611425000000002,28.59
2021-06-21 12:06:49.320312500,-48.0,13.25,41.0,79.758359375,-6.32,0.22603415625,28.59
2021-06-21 12:06:49.328125000,-48.0,13.5,41.0,79.75734375,-6.62,0.2259540625,28.59
2021-06-21 12:06:49.335937500,-48.0,13.75,41.0,79.756328125,-6.675000000000001,0.22587396875000001,28.59
2021-06-21 12:06:49.343750000,-48.0,14.0,41.0,79.7553125,-6.73,0.225793875,28.59
2021-06-21 12:06:49.351562500,-48.25,14.0,41.0,79.754296875,-6.495,0.22571378125,28.59
2021-06-21 12:06:49.359375000,-48.5,14.0,41.0,79.75328125,-6.26,0.2256336875,28.59
2021-06-21 12:06:49.367187500,-48.75,14.0,41.0,79.75226562499999,-5.785,0.22555359375,28.59
2021-06-21 12:06:49.375000000,-49.0,14.0,41.0,79.75125,-5.31,0.2254735,28.59
2021-06-21 12:06:49.382812500,-49.0,13.75,41.0,79.750234375,-4.699999999999999,0.22539340625,28.59
2021-06-21 12:06:49.390625000,-49.0,13.5,41.0,79.74921875,-4.09,0.2253133125,28.59
2021-06-21 12:06:49.398437500,-49.0,13.25,41.0,79.748203125,-3.51,0.22523321875000002,28.59
2021-06-21 12:06:49.406250000,-49.0,13.0,41.0,79.7471875,-2.93,0.225153125,28.59
2021-06-21 12:06:49.414062500,-49.0,13.25,41.0,79.746171875,-2.5300000000000002,0.22507303125,28.59
2021-06-21 12:06:49.421875000,-49.0,13.5,41.0,79.74515625,-2.13,0.22499293750000002,28.59
2021-06-21 12:06:49.429687500,-49.0,13.75,41.0,79.744140625,-2.0149999999999997,0.22491284375,28.59
2021-06-21 12:06:49.437500000,-49.0,14.0,41.0,79.74312499999999,-1.9,0.22483275,28.59
2021-06-21 12:06:49.445312500,-48.75,14.0,41.0,79.742109375,-2.05,0.22475265625000002,28.59
2021-06-21 12:06:49.453125000,-48.5,14.0,41.0,79.74109375,-2.2,0.2246725625,28.59
2021-06-21 12:06:49.460937500,-48.25,14.0,41.0,79.740078125,-2.5,0.22459246875,28.59
2021-06-21 12:06:49.468750000,-48.0,14.0,41.0,79.7390625,-2.8,0.22451237500000001,28.59
2021-06-21 12:06:49.476562500,-48.0,13.75,41.0,79.738046875,-3.045,0.22443228125,28.59
2021-06-21 12:06:49.484375000,-48.0,13.5,41.0,79.73703125,-3.29,0.2243521875,28.59
2021-06-21 12:06:49.492187500,-48.0,13.25,41.0,79.736015625,-3.275,0.22427209375,28.59
2021-06-21 12:06:49.500000000,-48.0,13.0,41.0,79.735,-3.26,0.224192,28.59
2021-06-21 12:06:49.507812500,-48.0,13.0,41.0,79.733984375,-2.88,0.2242320625,28.59
2021-06-21 12:06:49.515625000,-48.0,13.0,41.0,79.73296875,-2.5,0.224272125,28.59
2021-06-21 12:06:49.523437500,-48.0,13.0,41.0,79.731953125,-1.795,0.2243121875,28.59
2021-06-21 12:06:49.531250000,-48.0,13.0,41.0,79.7309375,-1.09,0.22435225,28.59
2021-06-21 12:06:49.539062500,-48.25,13.25,41.0,79.729921875,-0.2350000000000001,0.2243923125,28.59
2021-06-21 12:06:49.546875000,-48.5,13.5,41.0,79.72890625,0.62,0.22443237500000002,28.59
2021-06-21 12:06:49.554687500,-48.75,13.75,41.0,79.727890625,1.4049999999999998,0.2244724375,28.59
2021-06-21 12:06:49.562500000,-49.0,14.0,41.0,79.726875,2.19,0.2245125,28.59
2021-06-21 12:06:49.570312500,-49.0,14.0,41.0,79.725859375,2.7249999999999996,0.2245525625,28.59
2021-06-21 12:06:49.578125000,-49.0,14.0,41.0,79.72484375,3.26,0.224592625,28.59
2021-06-21 12:06:49.585937500,-49.0,14.0,41.0,79.723828125,3.48,0.2246326875,28.59
2021-06-21 12:06:49.593750000,-49.0,14.0,41.0,79.7228125,3.7,0.22467275,28.59
2021-06-21 12:06:49.601562500,-48.5,14.0,41.25,79.721796875,3.67,0.2247128125,28.59
2021-06-21 12:06:49.609375000,-48.0,14.0,41.5,79.72078125,3.64,0.22475287500000002,28.59
2021-06-21 12:06:49.617187500,-47.5,14.0,41.75,79.719765625,3.515,0.2247929375,28.59
2021-06-21 12:06:49.625000000,-47.0,14.0,42.0,79.71875,3.39,0.224833,28.59
2021-06-21 12:06:49.632812500,-47.0,14.0,42.0,79.717734375,3.305,0.2248730625,28.59
2021-06-21 12:06:49.640625000,-47.0,14.0,42.0,79.71671875,3.22,0.224913125,28.59
2021-06-21 12:06:49.648437500,-47.0,14.0,42.0,79.715703125,3.25,0.2249531875,28.59
2021-06-21 12:06:49.656250000,-47.0,14.0,42.0,79.7146875,3.28,0.22499325,28.59
2021-06-21 12:06:49.664062500,-47.5,14.0,41.75,79.713671875,3.4,0.2250333125,28.59
2021-06-21 12:06:49.671875000,-48.0,14.0,41.5,79.71265625,3.52,0.22507337500000002,28.59
2021-06-21 12:06:49.679687500,-48.5,14.0,41.25,79.711640625,3.66,0.2251134375,28.59
2021-06-21 12:06:49.687500000,-49.0,14.0,41.0,79.710625,3.8,0.2251535,28.59
2021-06-21 12:06:49.695312500,-49.0,14.0,41.0,79.709609375,3.865,0.2251935625,28.59
2021-06-21 12:06:49.703125000,-49.0,14.0,41.0,79.70859375,3.93,0.225233625,28.59
2021-06-21 12:06:49.710937500,-49.0,14.0,41.0,79.707578125,3.9000000000000004,0.2252736875,28.59
2021-06-21 12:06:49.718750000,-49.0,14.0,41.0,79.7065625,3.87,0.22531375,28.59
2021-06-21 12:06:49.726562500,-48.75,13.75,41.25,79.705546875,3.76,0.2253538125,28.59
2021-06-21 12:06:49.734375000,-48.5,13.5,41.5,79.70453125,3.65,0.22539387500000002,28.59
2021-06-21 12:06:49.742187500,-48.25,13.25,41.75,79.703515625,3.5149999999999997,0.22543393750000001,28.59
2021-06-21 12:06:49.750000000,-48.0,13.0,42.0,79.7025,3.38,0.225474,28.59
2021-06-21 12:06:49.757812500,-48.25,13.0,41.5,79.701484375,3.2649999999999997,0.22539390625,28.59
2021-06-21 12:06:49.765625000,-48.5,13.0,41.0,79.70046875,3.15,0.22531381250000002,28.59
2021-06-21 12:06:49.773437500,-48.75,13.0,40.5,79.699453125,3.065,0.22523371875,28.59
2021-06-21 12:06:49.781250000,-49.0,13.0,40.0,79.6984375,2.98,0.225153625,28.59
2021-06-21 12:06:49.789062500,-49.0,13.25,40.25,79.697421875,2.9050000000000002,0.22507353125000001,28.59
2021-06-21 12:06:49.796875000,-49.0,13.5,40.5,79.69640625,2.83,0.2249934375,28.59
2021-06-21 12:06:49.804687500,-49.0,13.75,40.75,79.695390625,2.745,0.22491334375,28.59
2021-06-21 12:06:49.812500000,-49.0,14.0,41.0,79.69437500000001,2.66,0.22483325,28.59
2021-06-21 12:06:49.820312500,-48.5,14.0,41.0,79.693359375,2.585,0.22475315625,28.59
2021-06-21 12:06:49.828125000,-48.0,14.0,41.0,79.69234375,2.51,0.2246730625,28.59
2021-06-21 12:06:49.835937500,-47.5,14.0,41.0,79.691328125,2.505,0.22459296875,28.59
2021-06-21 12:06:49.843750000,-47.0,14.0,41.0,79.6903125,2.5,0.224512875,28.59
2021-06-21 12:06:49.851562500,-47.0,14.0,41.0,79.689296875,2.615,0.22443278125,28.59
2021-06-21 12:06:49.859375000,-47.0,14.0,41.0,79.68828125,2.73,0.2243526875,28.59
2021-06-21 12:06:49.867187500,-47.0,14.0,41.0,79.687265625,2.9450000000000003,0.22427259375,28.59
2021-06-21 12:06:49.875000000,-47.0,14.0,41.0,79.68625,3.16,0.22419250000000002,28.59
2021-06-21 12:06:49.882812500,-47.5,14.0,41.0,79.68523437500001,3.37,0.22411240625,28.59
2021-06-21 12:06:49.890625000,-48.0,14.0,41.0,79.68421875,3.58,0.2240323125,28.59
2021-06-21 12:06:49.898437500,-48.5,14.0,41.0,79.683203125,3.635,0.22395221875000001,28.59
2021-06-21 12:06:49.906250000,-49.0,14.0,41.0,79.6821875,3.69,0.223872125,28.59
2021-06-21 12:06:49.914062500,-48.75,14.25,41.25,79.681171875,3.505,0.22379203125,28.59
2021-06-21 12:06:49.921875000,-48.5,14.5,41.5,79.68015625,3.32,0.2237119375,28.59
2021-06-21 12:06:49.929687500,-48.25,14.75,41.75,79.679140625,2.91,0.22363184375,28.59
2021-06-21 12:06:49.937500000,-48.0,15.0,42.0,79.678125,2.5,0.22355175,28.59
2021-06-21 12:06:49.945312500,-47.75,14.75,42.0,79.677109375,2.015,0.22347165625,28.59
2021-06-21 12:06:49.953125000,-47.5,14.5,42.0,79.67609375,1.53,0.2233915625,28.59
2021-06-21 12:06:49.960937500,-47.25,14.25,42.0,79.675078125,1.175,0.22331146875,28.59
2021-06-21 12:06:49.968750000,-47.0,14.0,42.0,79.6740625,0.82,0.223231375,28.59
2021-06-21 12:06:49.976562500,-47.0,13.75,41.75,79.673046875,0.725,0.22315128125,28.59
2021-06-21 12:06:49.984375000,-47.0,13.5,41.5,79.67203125,0.63,0.2230711875,28.59
2021-06-21 12:06:49.992187500,-47.0,13.25,41.25,79.671015625,0.78,0.22299109375,28.59
2021-06-21 12:06:50.000000000,-47.0,13.0,41.0,79.67,0.93,0.222911,28.59
2021-06-21 12:06:50.007812500,-47.25,13.0,41.0,79.66828125,1.195,0.22299109375,28.589375
2021-06-21 12:06:50.015625000,-47.5,13.0,41.0,79.6665625,1.46,0.2230711875,28.58875
2021-06-21 12:06:50.023437500,-47.75,13.0,41.0,79.66484375,1.65,0.22315128125,28.588125
2021-06-21 12:06:50.031250000,-48.0,13.0,41.0,79.66312500000001,1.84,0.223231375,28.5875
2021-06-21 12:06:50.039062500,-48.0,13.25,41.25,79.66140625,1.84,0.22331146875,28.586875
2021-06-21 12:06:50.046875000,-48.0,13.5,41.5,79.6596875,1.84,0.2233915625,28.58625
2021-06-21 12:06:50.054687500,-48.0,13.75,41.75,79.65796875,1.6600000000000001,0.22347165625,28.585625
2021-06-21 12:06:50.062500000,-48.0,14.0,42.0,79.65625,1.48,0.22355175,28.585
2021-06-21 12:06:50.070312500,-48.0,14.0,41.75,79.65453125,1.22,0.22363184375,28.584375
2021-06-21 12:06:50.078125000,-48.0,14.0,41.5,79.6528125,0.96,0.2237119375,28.58375
2021-06-21 12:06:50.085937500,-48.0,14.0,41.25,79.65109375,0.755,0.22379203125,28.583125
2021-06-21 12:06:50.093750000,-48.0,14.0,41.0,79.649375,0.55,0.223872125,28.5825
2021-06-21 12:06:50.101562500,-48.5,13.75,41.0,79.64765625,0.46,0.22395221875000001,28.581875
2021-06-21 12:06:50.109375000,-49.0,13.5,41.0,79.6459375,0.37,0.2240323125,28.58125
2021-06-21 12:06:50.117187500,-49.5,13.25,41.0,79.64421875000001,0.395,0.22411240625,28.580625
2021-06-21 12:06:50.125000000,-50.0,13.0,41.0,79.6425,0.42,0.22419250000000002,28.58
2021-06-21 12:06:50.132812500,-49.5,13.25,41.0,79.64078125,0.495,0.22427259375,28.579375
2021-06-21 12:06:50.140625000,-49.0,13.5,41.0,79.63906250000001,0.57,0.2243526875,28.57875
2021-06-21 12:06:50.148437500,-48.5,13.75,41.0,79.63734375,0.645,0.22443278125,28.578125
2021-06-21 12:06:50.156250000,-48.0,14.0,41.0,79.635625,0.72,0.224512875,28.5775
2021-06-21 12:06:50.164062500,-47.5,14.25,41.5,79.63390625,0.76,0.22459296875,28.576875
2021-06-21 12:06:50.171875000,-47.0,14.5,42.0,79.6321875,0.8,0.2246730625,28.57625
2021-06-21 12:06:50.179687500,-46.5,14.75,42.5,79.63046875,0.815,0.22475315625,28.575625
2021-06-21 12:06:50.187500000,-46.0,15.0,43.0,79.62875,0.83,0.22483325,28.575
2021-06-21 12:06:50.195312500,-46.5,14.75,42.75,79.62703125,0.81,0.22491334375,28.574375
2021-06-21 12:06:50.203125000,-47.0,14.5,42.5,79.6253125,0.79,0.2249934375,28.57375
2021-06-21 12:06:50.210937500,-47.5,14.25,42.25,79.62359375,0.7350000000000001,0.22507353125000001,28.573125
2021-06-21 12:06:50.218750000,-48.0,14.0,42.0,79.621875,0.68,0.225153625,28.5725
2021-06-21 12:06:50.226562500,-48.25,14.0,41.75,79.62015625000001,0.5900000000000001,0.22523371875,28.571875
