TimeStamp,empatica.acc.x,empatica.acc.y,empatica.acc.z,empatica.hr,empatica.bvp,empatica.eda,empatica.temp
2021-06-21 11:57:43.500000000,-56.0,11.0,32.0,75.975,0.45,0.281842,28.99
2021-06-21 11:57:43.507812500,-56.0,11.0,32.0,75.971015625,0.42500000000000004,0.28180196874999996,28.99
2021-06-21 11:57:43.515625000,-56.0,11.0,32.0,75.96703125,0.4,0.2817619375,28.99
2021-06-21 11:57:43.523437500,-56.0,11.0,32.0,75.963046875,0.355,0.28172190625,28.99
2021-06-21 11:57:43.531250000,-56.0,11.0,32.0,75.9590625,0.31,0.28168187499999997,28.99
2021-06-21 11:57:43.539062500,-56.0,11.0,32.0,75.955078125,0.28,0.28164184375,28.99
2021-06-21 11:57:43.546875000,-56.0,11.0,32.0,75.95109375,0.25,0.2816018125,28.99
2021-06-21 11:57:43.554687500,-56.0,11.0,32.0,75.947109375,0.27,0.28156178125,28.99
2021-06-21 11:57:43.562500000,-56.0,11.0,32.0,75.943125,0.29,0.28152175,28.99
2021-06-21 11:57:43.570312500,-55.75,11.0,32.0,75.93914062500001,0.38,0.28148171875,28.99
2021-06-21 11:57:43.578125000,-55.5,11.0,32.0,75.93515625,0.47,0.2814416875,28.99
2021-06-21 11:57:43.585937500,-55.25,11.0,32.0,75.931171875,0.605,0.28140165624999997,28.99
2021-06-21 11:57:43.593750000,-55.0,11.0,32.0,75.9271875,0.74,0.281361625,28.99
2021-06-21 11:57:43.601562500,-55.25,11.25,32.0,75.923203125,0.86,0.28132159375,28.99
2021-06-21 11:57:43.609375000,-55.5,11.5,32.0,75.91921875,0.98,0.28128156249999997,28.99
2021-06-21 11:57:43.617187500,-55.75,11.75,32.0,75.915234375,1.0150000000000001,0.28124153125,28.99
2021-06-21 11:57:43.625000000,-56.0,12.0,32.0,75.91125,1.05,0.2812015,28.99
2021-06-21 11:57:43.632812500,-56.0,11.75,32.0,75.907265625,0.98,0.28116146875,28.99
2021-06-21 11:57:43.640625000,-56.0,11.5,32.0,75.90328125,0.91,0.2811214375,28.99
2021-06-21 11:57:43.648437500,-56.0,11.25,32.0,75.899296875,0.78,0.28108140625,28.99
2021-06-21 11:57:43.656250000,-56.0,11.0,32.0,75.8953125,0.65,0.281041375,28.99
2021-06-21 11:57:43.664062500,-56.0,11.25,32.25,75.891328125,0.52,0.28100134375,28.99
2021-06-21 11:57:43.671875000,-56.0,11.5,32.5,75.88734375,0.39,0.2809613125,28.99
2021-06-21 11:57:43.679687500,-56.0,11.75,32.75,75.883359375,0.335,0.28092128125,28.99
2021-06-21 11:57:43.687500000,-56.0,12.0,33.0,75.879375,0.28,0.28088124999999997,28.99
2021-06-21 11:57:43.695312500,-55.75,12.0,32.75,75.875390625,0.31000000000000005,0.28084121875,28.99
2021-06-21 11:57:43.703125000,-55.5,12.0,32.5,75.87140625,0.34,0.2808011875,28.99
2021-06-21 11:57:43.710937500,-55.25,12.0,32.25,75.867421875,0.4,0.28076115625,28.99
2021-06-21 11:57:43.718750000,-55.0,12.0,32.0,75.8634375,0.46,0.280721125,28.99
2021-06-21 11:57:43.726562500,-55.25,12.0,32.0,75.859453125,0.475,0.28068109375,28.99
2021-06-21 11:57:43.734375000,-55.5,12.0,32.0,75.85546875,0.49,0.2806410625,28.99
2021-06-21 11:57:43.742187500,-55.75,12.0,32.0,75.851484375,0.38,0.28060103125,28.99
2021-06-21 11:57:43.750000000,-56.0,12.0,32.0,75.8475,0.27,0.280561,28.99
2021-06-21 11:57:43.757812500,-56.0,11.75,32.0,75.843515625,0.020000000000000018,0.28060103125,28.99
2021-06-21 11:57:43.765625000,-56.0,11.5,32.0,75.83953125,-0.23,0.2806410625,28.99
2021-06-21 11:57:43.773437500,-56.0,11.25,32.0,75.835546875,-0.56,0.28068109375,28.99
2021-06-21 11:57:43.781250000,-56.0,11.0,32.0,75.8315625,-0.89,0.280721125,28.99
2021-06-21 11:57:43.789062500,-56.0,11.0,32.0,75.827578125,-1.21,0.28076115625,28.99
2021-06-21 11:57:43.796875000,-56.0,11.0,32.0,75.82359375,-1.53,0.2808011875,28.99
2021-06-21 11:57:43.804687500,-56.0,11.0,32.0,75.819609375,-1.745,0.28084121875,28.99
2021-06-21 11:57:43.812500000,-56.0,11.0,32.0,75.815625,-1.96,0.28088124999999997,28.99
2021-06-21 11:57:43.820312500,-55.75,11.0,32.0,75.811640625,-2.0300000000000002,0.28092128125,28.99
2021-06-21 11:57:43.828125000,-55.5,11.0,32.0,75.80765625,-2.1,0.2809613125,28.99
2021-06-21 11:57:43.835937500,-55.25,11.0,32.0,75.803671875,-2.025,0.28100134375,28.99
2021-06-21 11:57:43.843750000,-55.0,11.0,32.0,75.7996875,-1.95,0.281041375,28.99
2021-06-21 11:57:43.851562500,-55.25,11.0,32.0,75.795703125,-1.795,0.28108140625,28.99
2021-06-21 11:57:43.859375000,-55.5,11.0,32.0,75.79171875,-1.64,0.2811214375,28.99
2021-06-21 11:57:43.867187500,-55.75,11.0,32.0,75.787734375,-1.46,0.28116146875,28.99
2021-06-21 11:57:43.875000000,-56.0,11.0,32.0,75.78375,-1.28,0.2812015,28.99
2021-06-21 11:57:43.882812500,-56.0,11.25,32.0,75.779765625,-1.12,0.28124153125,28.99
2021-06-21 11:57:43.890625000,-56.0,11.5,32.0,75.77578125,-0.96,0.28128156249999997,28.99
2021-06-21 11:57:43.898437500,-56.0,11.75,32.0,75.77179687499999,-0.83,0.28132159375,28.99
2021-06-21 11:57:43.906250000,-56.0,12.0,32.0,75.7678125,-0.7,0.281361625,28.99
2021-06-21 11:57:43.914062500,-56.0,11.75,32.0,75.763828125,-0.575,0.28140165624999997,28.99
2021-06-21 11:57:43.921875000,-56.0,11.5,32.0,75.75984375,-0.45,0.2814416875,28.99
2021-06-21 11:57:43.929687500,-56.0,11.25,32.0,75.755859375,-0.315,0.28148171875,28.99
2021-06-21 11:57:43.937500000,-56.0,11.0,32.0,75.751875,-0.18,0.28152175,28.99
2021-06-21 11:57:43.945312500,-55.75,11.0,32.0,75.747890625,-0.035,0.28156178125,28.99
2021-06-21 11:57:43.953125000,-55.5,11.0,32.0,75.74390625,0.11,0.2816018125,28.99
2021-06-21 11:57:43.960937500,-55.25,11.0,32.0,75.739921875,0.22999999999999998,0.28164184375,28.99
2021-06-21 11:57:43.968750000,-55.0,11.0,32.0,75.7359375,0.35,0.28168187499999997,28.99
2021-06-21 11:57:43.976562500,-55.25,11.0,32.0,75.731953125,0.44,0.28172190625,28.99
2021-06-21 11:57:43.984375000,-55.5,11.0,32.0,75.72796875,0.53,0.2817619375,28.99
2021-06-21 11:57:43.992187500,-55.75,11.0,32.0,75.723984375,0.5900000000000001,0.28180196874999996,28.99
2021-06-21 11:57:44.000000000,-56.0,11.0,32.0,75.72,0.65,0.281842,28.99
2021-06-21 11:57:44.007812500,-56.0,11.0,32.0,75.71609375,0.6950000000000001,0.2817619375,28.99
2021-06-21 11:57:44.015625000,-56.0,11.0,32.0,75.7121875,0.74,0.28168187499999997,28.99
2021-06-21 11:57:44.023437500,-56.0,11.0,32.0,75.70828125,0.81,0.2816018125,28.99
2021-06-21 11:57:44.031250000,-56.0,11.0,32.0,75.704375,0.88,0.28152174999999996,28.99
2021-06-21 11:57:44.039062500,-55.75,11.0,32.0,75.70046875,0.9950000000000001,0.2814416875,28.99
2021-06-21 11:57:44.046875000,-55.5,11.0,32.0,75.6965625,1.11,0.281361625,28.99
2021-06-21 11:57:44.054687500,-55.25,11.0,32.0,75.69265625,1.245,0.28128156249999997,28.99
2021-06-21 11:57:44.062500000,-55.0,11.0,32.0,75.68875,1.38,0.2812015,28.99
2021-06-21 11:57:44.070312500,-55.0,11.0,32.0,75.68484375,1.49,0.28112143749999996,28.99
2021-06-21 11:57:44.078125000,-55.0,11.0,32.0,75.6809375,1.6,0.281041375,28.99
2021-06-21 11:57:44.085937500,-55.0,11.0,32.0,75.67703125,1.65,0.2809613125,28.99
2021-06-21 11:57:44.093750000,-55.0,11.0,32.0,75.673125,1.7,0.28088124999999997,28.99
2021-06-21 11:57:44.101562500,-55.25,11.0,32.0,75.66921875,1.67,0.2808011875,28.99
2021-06-21 11:57:44.109375000,-55.5,11.0,32.0,75.6653125,1.64,0.28072112499999996,28.99
2021-06-21 11:57:44.117187500,-55.75,11.0,32.0,75.66140625,1.555,0.2806410625,28.99
2021-06-21 11:57:44.125000000,-56.0,11.0,32.0,75.6575,1.47,0.28056099999999995,28.99
2021-06-21 11:57:44.132812500,-56.0,11.0,32.0,75.65359375,1.37,0.28048093749999997,28.99
2021-06-21 11:57:44.140625000,-56.0,11.0,32.0,75.6496875,1.27,0.280400875,28.99
2021-06-21 11:57:44.148437500,-56.0,11.0,32.0,75.64578125,1.19,0.28032081249999996,28.99
2021-06-21 11:57:44.156250000,-56.0,11.0,32.0,75.641875,1.11,0.28024075,28.99
2021-06-21 11:57:44.164062500,-56.0,11.0,32.0,75.63796875,1.0550000000000002,0.28016068749999995,28.99
2021-06-21 11:57:44.171875000,-56.0,11.0,32.0,75.6340625,1.0,0.28008062499999997,28.99
2021-06-21 11:57:44.179687500,-56.0,11.0,32.0,75.63015625,0.95,0.2800005625,28.99
2021-06-21 11:57:44.187500000,-56.0,11.0,32.0,75.62625,0.9,0.27992049999999996,28.99
2021-06-21 11:57:44.195312500,-56.0,11.25,32.0,75.62234375,0.8500000000000001,0.2798404375,28.99
2021-06-21 11:57:44.203125000,-56.0,11.5,32.0,75.6184375,0.8,0.27976037499999995,28.99
2021-06-21 11:57:44.210937500,-56.0,11.75,32.0,75.61453125,0.745,0.2796803125,28.99
2021-06-21 11:57:44.218750000,-56.0,12.0,32.0,75.610625,0.69,0.27960025,28.99
2021-06-21 11:57:44.226562500,-56.0,11.75,32.0,75.60671875,0.665,0.27952018749999996,28.99
2021-06-21 11:57:44.234375000,-56.0,11.5,32.0,75.6028125,0.64,0.279440125,28.99
2021-06-21 11:57:44.242187500,-56.0,11.25,32.0,75.59890625,0.6799999999999999,0.27936006249999995,28.99
2021-06-21 11:57:44.250000000,-56.0,11.0,32.0,75.595,0.72,0.27928,28.99
2021-06-21 11:57:44.257812500,-56.0,11.0,32.0,75.59109375,0.83,0.27932003125,28.99
2021-06-21 11:57:44.265625000,-56.0,11.0,32.0,75.5871875,0.94,0.27936006249999995,28.99
2021-06-21 11:57:44.273437500,-56.0,11.0,32.0,75.58328125,1.0899999999999999,0.27940009374999997,28.99
2021-06-21 11:57:44.281250000,-56.0,11.0,32.0,75.579375,1.24,0.279440125,28.99
2021-06-21 11:57:44.289062500,-55.75,11.25,32.0,75.57546875,1.375,0.27948015625,28.99
2021-06-21 11:57:44.296875000,-55.5,11.5,32.0,75.5715625,1.51,0.27952018749999996,28.99
2021-06-21 11:57:44.304687500,-55.25,11.75,32.0,75.56765625,1.5899999999999999,0.27956021875,28.99
2021-06-21 11:57:44.312500000,-55.0,12.0,32.0,75.56375,1.67,0.27960025,28.99
2021-06-21 11:57:44.320312500,-55.25,11.75,32.0,75.55984375,1.68,0.27964028124999996,28.99
2021-06-21 11:57:44.328125000,-55.5,11.5,32.0,75.5559375,1.69,0.2796803125,28.99
2021-06-21 11:57:44.335937500,-55.75,11.25,32.0,75.55203125,1.65,0.27972034375,28.99
2021-06-21 11:57:44.343750000,-56.0,11.0,32.0,75.548125,1.61,0.279760375,28.99
2021-06-21 11:57:44.351562500,-56.0,11.0,32.0,75.54421875,1.545,0.27980040624999997,28.99
2021-06-21 11:57:44.359375000,-56.0,11.0,32.0,75.5403125,1.48,0.2798404375,28.99
2021-06-21 11:57:44.367187500,-56.0,11.0,32.0,75.53640625,1.395,0.27988046875,28.99
2021-06-21 11:57:44.375000000,-56.0,11.0,32.0,75.5325,1.31,0.2799205,28.99
2021-06-21 11:57:44.382812500,-56.0,11.0,32.0,75.52859375,1.205,0.27996053125,28.99
2021-06-21 11:57:44.390625000,-56.0,11.0,32.0,75.5246875,1.1,0.2800005625,28.99
2021-06-21 11:57:44.398437500,-56.0,11.0,32.0,75.52078125,0.93,0.28004059375,28.99
2021-06-21 11:57:44.406250000,-56.0,11.0,32.0,75.516875,0.76,0.28008062499999997,28.99
2021-06-21 11:57:44.414062500,-55.75,11.0,32.0,75.51296875,0.525,0.28012065625,28.99
2021-06-21 11:57:44.421875000,-55.5,11.0,32.0,75.5090625,0.29,0.2801606875,28.99
2021-06-21 11:57:44.429687500,-55.25,11.0,32.0,75.50515625,0.009999999999999953,0.28020071875,28.99
2021-06-21 11:57:44.437500000,-55.0,11.0,32.0,75.50125,-0.27,0.28024075,28.99
2021-06-21 11:57:44.445312500,-55.25,11.0,32.0,75.49734375,-0.565,0.28028078125,28.99
2021-06-21 11:57:44.453125000,-55.5,11.0,32.0,75.4934375,-0.86,0.2803208125,28.99
2021-06-21 11:57:44.460937500,-55.75,11.0,32.0,75.48953125,-1.11,0.28036084375,28.99
2021-06-21 11:57:44.468750000,-56.0,11.0,32.0,75.485625,-1.36,0.280400875,28.99
2021-06-21 11:57:44.476562500,-56.0,11.0,32.0,75.48171875,-1.545,0.28044090625,28.99
2021-06-21 11:57:44.484375000,-56.0,11.0,32.0,75.4778125,-1.73,0.2804809375,28.99
2021-06-21 11:57:44.492187500,-56.0,11.0,32.0,75.47390625,-1.845,0.28052096875,28.99
2021-06-21 11:57:44.500000000,-56.0,11.0,32.0,75.47,-1.96,0.280561,28.99
2021-06-21 11:57:44.507812500,-55.75,11.0,32.0,75.46609375,-2.02,0.28060103125,28.99
2021-06-21 11:57:44.515625000,-55.5,11.0,32.0,75.4621875,-2.08,0.2806410625,28.99
2021-06-21 11:57:44.523437500,-55.25,11.0,32.0,75.45828125,-2.085,0.28068109375,28.99
2021-06-21 11:57:44.531250000,-55.0,11.0,32.0,75.454375,-2.09,0.280721125,28.99
2021-06-21 11:57:44.539062500,-55.25,11.0,32.0,75.45046875,-2.045,0.28076115625,28.99
2021-06-21 11:57:44.546875000,-55.5,11.0,32.0,75.4465625,-2.0,0.2808011875,28.99
2021-06-21 11:57:44.554687500,-55.75,11.0,32.0,75.44265625,-1.8900000000000001,0.28084121875,28.99
2021-06-21 11:57:44.562500000,-56.0,11.0,32.0,75.43875,-1.78,0.28088124999999997,28.99
2021-06-21 11:57:44.570312500,-55.75,11.0,32.0,75.43484375,-1.625,0.28092128125,28.99
2021-06-21 11:57:44.578125000,-55.5,11.0,32.0,75.4309375,-1.47,0.2809613125,28.99
2021-06-21 11:57:44.585937500,-55.25,11.0,32.0,75.42703125,-1.305,0.28100134375,28.99
2021-06-21 11:57:44.593750000,-55.0,11.0,32.0,75.423125,-1.14,0.281041375,28.99
2021-06-21 11:57:44.601562500,-55.0,11.0,32.0,75.41921875,-1.04,0.28108140625,28.99
2021-06-21 11:57:44.609375000,-55.0,11.0,32.0,75.4153125,-0.94,0.2811214375,28.99
2021-06-21 11:57:44.617187500,-55.0,11.0,32.0,75.41140625,-0.985,0.28116146875,28.99
2021-06-21 11:57:44.625000000,-55.0,11.0,32.0,75.4075,-1.03,0.2812015,28.99
2021-06-21 11:57:44.632812500,-55.25,11.0,32.0,75.40359375,-1.25,0.28124153125,28.99
2021-06-21 11:57:44.640625000,-55.5,11.0,32.0,75.3996875,-1.47,0.28128156249999997,28.99
2021-06-21 11:57:44.648437500,-55.75,11.0,32.0,75.39578125,-1.815,0.28132159375,28.99
2021-06-21 11:57:44.656250000,-56.0,11.0,32.0,75.391875,-2.16,0.281361625,28.99
2021-06-21 11:57:44.664062500,-56.0,11.0,32.0,75.38796875,-2.5250000000000004,0.28140165624999997,28.99
2021-06-21 11:57:44.671875000,-56.0,11.0,32.0,75.3840625,-2.89,0.2814416875,28.99
2021-06-21 11:57:44.679687500,-56.0,11.0,32.0,75.38015625,-3.145,0.28148171875,28.99
2021-06-21 11:57:44.687500000,-56.0,11.0,32.0,75.37625,-3.4,0.28152175,28.99
2021-06-21 11:57:44.695312500,-56.0,11.0,32.0,75.37234375,-3.4450000000000003,0.28156178125,28.99
2021-06-21 11:57:44.703125000,-56.0,11.0,32.0,75.3684375,-3.49,0.2816018125,28.99
2021-06-21 11:57:44.710937500,-56.0,11.0,32.0,75.36453125,-3.33,0.28164184375,28.99
2021-06-21 11:57:44.718750000,-56.0,11.0,32.0,75.360625,-3.17,0.28168187499999997,28.99
2021-06-21 11:57:44.726562500,-55.75,11.25,32.0,75.35671875,-2.885,0.28172190625,28.99
2021-06-21 11:57:44.734375000,-55.5,11.5,32.0,75.3528125,-2.6,0.2817619375,28.99
2021-06-21 11:57:44.742187500,-55.25,11.75,32.0,75.34890625,-2.3049999999999997,0.28180196874999996,28.99
2021-06-21 11:57:44.750000000,-55.0,12.0,32.0,75.345,-2.01,0.281842,28.99
2021-06-21 11:57:44.757812500,-55.25,12.0,32.0,75.34109375,-1.795,0.28172190625,28.99
2021-06-21 11:57:44.765625000,-55.5,12.0,32.0,75.3371875,-1.58,0.2816018125,28.99
2021-06-21 11:57:44.773437500,-55.75,12.0,32.0,75.33328125,-1.4700000000000002,0.28148171875,28.99
2021-06-21 11:57:44.781250000,-56.0,12.0,32.0,75.329375,-1.36,0.281361625,28.99
2021-06-21 11:57:44.789062500,-55.75,11.75,32.0,75.32546875,-1.31,0.28124153125,28.99
2021-06-21 11:57:44.796875000,-55.5,11.5,32.0,75.3215625,-1.26,0.28112143749999996,28.99
2021-06-21 11:57:44.804687500,-55.25,11.25,32.0,75.31765625,-1.2,0.28100134374999997,28.99
2021-06-21 11:57:44.812500000,-55.0,11.0,32.0,75.31375,-1.14,0.28088124999999997,28.99
2021-06-21 11:57:44.820312500,-55.0,11.0,32.25,75.30984375,-1.04,0.28076115625,28.99
2021-06-21 11:57:44.828125000,-55.0,11.0,32.5,75.3059375,-0.94,0.2806410625,28.99
2021-06-21 11:57:44.835937500,-55.0,11.0,32.75,75.30203125,-0.8049999999999999,0.28052096875,28.99
2021-06-21 11:57:44.843750000,-55.0,11.0,33.0,75.298125,-0.67,0.280400875,28.99
2021-06-21 11:57:44.851562500,-55.25,11.0,32.75,75.29421875,-0.55,0.28028078125,28.99
2021-06-21 11:57:44.859375000,-55.5,11.0,32.5,75.2903125,-0.43,0.2801606875,28.99
2021-06-21 11:57:44.867187500,-55.75,11.0,32.25,75.28640625,-0.37,0.28004059375,28.99
2021-06-21 11:57:44.875000000,-56.0,11.0,32.0,75.2825,-0.31,0.2799205,28.99
2021-06-21 11:57:44.882812500,-56.0,11.0,32.0,75.27859375,-0.3,0.27980040624999997,28.99
2021-06-21 11:57:44.890625000,-56.0,11.0,32.0,75.2746875,-0.29,0.2796803125,28.99
2021-06-21 11:57:44.898437500,-56.0,11.0,32.0,75.27078125,-0.3,0.27956021875,28.99
2021-06-21 11:57:44.906250000,-56.0,11.0,32.0,75.266875,-0.31,0.279440125,28.99
2021-06-21 11:57:44.914062500,-56.0,11.0,32.0,75.26296875,-0.28,0.27932003125,28.99
2021-06-21 11:57:44.921875000,-56.0,11.0,32.0,75.2590625,-0.25,0.2791999375,28.99
2021-06-21 11:57:44.929687500,-56.0,11.0,32.0,75.25515625,-0.14500000000000002,0.27907984375,28.99
2021-06-21 11:57:44.937500000,-56.0,11.0,32.0,75.25125,-0.04,0.27895975,28.99
2021-06-21 11:57:44.945312500,-56.0,11.0,32.0,75.24734375,0.12999999999999998,0.27883965625,28.99
2021-06-21 11:57:44.953125000,-56.0,11.0,32.0,75.2434375,0.3,0.2787195625,28.99
2021-06-21 11:57:44.960937500,-56.0,11.0,32.0,75.23953125,0.51,0.27859946874999997,28.99
2021-06-21 11:57:44.968750000,-56.0,11.0,32.0,75.235625,0.72,0.278479375,28.99
2021-06-21 11:57:44.976562500,-55.75,11.25,32.0,75.23171875,0.9299999999999999,0.27835928125,28.99
2021-06-21 11:57:44.984375000,-55.5,11.5,32.0,75.2278125,1.14,0.2782391875,28.99
2021-06-21 11:57:44.992187500,-55.25,11.75,32.0,75.22390625,1.3199999999999998,0.27811909375,28.99
2021-06-21 11:57:45.000000000,-55.0,12.0,32.0,75.22,1.5,0.277999,28.99
2021-06-21 11:57:45.007812500,-55.25,12.0,32.0,75.217890625,1.665,0.2780790625,28.99
2021-06-21 11:57:45.015625000,-55.5,12.0,32.0,75.21578124999999,1.83,0.278159125,28.99
2021-06-21 11:57:45.023437500,-55.75,12.0,32.0,75.213671875,2.0,0.2782391875,28.99
2021-06-21 11:57:45.031250000,-56.0,12.0,32.0,75.2115625,2.17,0.27831925,28.99
2021-06-21 11:57:45.039062500,-56.0,12.0,32.0,75.209453125,2.37,0.2783993125,28.99
2021-06-21 11:57:45.046875000,-56.0,12.0,32.0,75.20734374999999,2.57,0.278479375,28.99
2021-06-21 11:57:45.054687500,-56.0,12.0,32.0,75.205234375,2.785,0.2785594375,28.99
2021-06-21 11:57:45.062500000,-56.0,12.0,32.0,75.203125,3.0,0.2786395,28.99
2021-06-21 11:57:45.070312500,-56.0,11.75,32.0,75.201015625,3.21,0.2787195625,28.99
2021-06-21 11:57:45.078125000,-56.0,11.5,32.0,75.19890625,3.42,0.278799625,28.99
2021-06-21 11:57:45.085937500,-56.0,11.25,32.0,75.196796875,3.5549999999999997,0.2788796875,28.99
2021-06-21 11:57:45.093750000,-56.0,11.0,32.0,75.1946875,3.69,0.27895975,28.99
2021-06-21 11:57:45.101562500,-56.0,11.0,32.0,75.192578125,3.6950000000000003,0.2790398125,28.99
2021-06-21 11:57:45.109375000,-56.0,11.0,32.0,75.19046875,3.7,0.279119875,28.99
2021-06-21 11:57:45.117187500,-56.0,11.0,32.0,75.188359375,3.55,0.2791999375,28.99
2021-06-21 11:57:45.125000000,-56.0,11.0,32.0,75.18625,3.4,0.27928,28.99
2021-06-21 11:57:45.132812500,-55.75,11.0,32.0,75.184140625,3.13,0.2793600625,28.99
2021-06-21 11:57:45.140625000,-55.5,11.0,32.0,75.18203125,2.86,0.279440125,28.99
2021-06-21 11:57:45.148437500,-55.25,11.0,32.0,75.179921875,2.54,0.2795201875,28.99
2021-06-21 11:57:45.156250000,-55.0,11.0,32.0,75.1778125,2.22,0.27960025,28.99
2021-06-21 11:57:45.164062500,-55.25,11.25,32.0,75.175703125,1.9500000000000002,0.27968031250000003,28.99
2021-06-21 11:57:45.171875000,-55.5,11.5,32.0,75.17359375,1.68,0.279760375,28.99
2021-06-21 11:57:45.179687500,-55.75,11.75,32.0,75.171484375,1.5150000000000001,0.2798404375,28.99
2021-06-21 11:57:45.187500000,-56.0,12.0,32.0,75.169375,1.35,0.2799205,28.99
2021-06-21 11:57:45.195312500,-56.0,11.75,32.0,75.167265625,1.29,0.2800005625,28.99
2021-06-21 11:57:45.203125000,-56.0,11.5,32.0,75.16515625,1.23,0.280080625,28.99
2021-06-21 11:57:45.210937500,-56.0,11.25,32.0,75.163046875,1.225,0.2801606875,28.99
2021-06-21 11:57:45.218750000,-56.0,11.0,32.0,75.1609375,1.22,0.28024075,28.99
2021-06-21 11:57:45.226562500,-55.75,11.0,32.0,75.158828125,1.19,0.2803208125,28.99
2021-06-21 11:57:45.234375000,-55.5,11.0,32.0,75.15671875,1.16,0.280400875,28.99
2021-06-21 11:57:45.242187500,-55.25,11.0,32.0,75.154609375,1.055,0.2804809375,28.99
2021-06-21 11:57:45.250000000,-55.0,11.0,32.0,75.1525,0.95,0.280561,28.99
2021-06-21 11:57:45.257812500,-55.25,11.0,32.0,75.150390625,0.7749999999999999,0.28044090625,28.99
2021-06-21 11:57:45.265625000,-55.5,11.0,32.0,75.14828125,0.6,0.2803208125,28.99
2021-06-21 11:57:45.273437500,-55.75,11.0,32.0,75.146171875,0.385,0.28020071875,28.99
2021-06-21 11:57:45.281250000,-56.0,11.0,32.0,75.1440625,0.17,0.280080625,28.99
2021-06-21 11:57:45.289062500,-56.0,11.0,32.0,75.141953125,-0.04000000000000001,0.27996053125000003,28.99
2021-06-21 11:57:45.296875000,-56.0,11.0,32.0,75.13984375,-0.25,0.2798404375,28.99
2021-06-21 11:57:45.304687500,-56.0,11.0,32.0,75.137734375,-0.425,0.27972034375,28.99
2021-06-21 11:57:45.312500000,-56.0,11.0,32.0,75.135625,-0.6,0.27960025,28.99
2021-06-21 11:57:45.320312500,-56.0,11.25,32.0,75.133515625,-0.74,0.27948015625,28.99
2021-06-21 11:57:45.328125000,-56.0,11.5,32.0,75.13140625,-0.88,0.2793600625,28.99
2021-06-21 11:57:45.335937500,-56.0,11.75,32.0,75.129296875,-0.9950000000000001,0.27923996875,28.99
2021-06-21 11:57:45.343750000,-56.0,12.0,32.0,75.1271875,-1.11,0.279119875,28.99
2021-06-21 11:57:45.351562500,-55.75,12.0,32.25,75.125078125,-1.215,0.27899978125,28.99
2021-06-21 11:57:45.359375000,-55.5,12.0,32.5,75.12296875,-1.32,0.27887968750000003,28.99
2021-06-21 11:57:45.367187500,-55.25,12.0,32.75,75.120859375,-1.405,0.27875959375000003,28.99
2021-06-21 11:57:45.375000000,-55.0,12.0,33.0,75.11875,-1.49,0.27863950000000004,28.99
2021-06-21 11:57:45.382812500,-55.0,12.0,33.0,75.116640625,-1.525,0.27851940625,28.99
2021-06-21 11:57:45.390625000,-55.0,12.0,33.0,75.11453125,-1.56,0.2783993125,28.99
2021-06-21 11:57:45.398437500,-55.0,12.0,33.0,75.112421875,-1.5150000000000001,0.27827921875,28.99
2021-06-21 11:57:45.406250000,-55.0,12.0,33.0,75.1103125,-1.47,0.278159125,28.99
2021-06-21 11:57:45.414062500,-55.0,11.75,32.75,75.108203125,-1.325,0.27803903125,28.99
2021-06-21 11:57:45.421875000,-55.0,11.5,32.5,75.10609375,-1.18,0.2779189375,28.99
2021-06-21 11:57:45.429687500,-55.0,11.25,32.25,75.103984375,-0.97,0.27779884375,28.99
2021-06-21 11:57:45.437500000,-55.0,11.0,32.0,75.101875,-0.76,0.27767875000000003,28.99
2021-06-21 11:57:45.445312500,-55.25,11.25,32.0,75.099765625,-0.56,0.27755865625000004,28.99
2021-06-21 11:57:45.453125000,-55.5,11.5,32.0,75.09765625,-0.36,0.27743856250000004,28.99
2021-06-21 11:57:45.460937500,-55.75,11.75,32.0,75.095546875,-0.27,0.27731846875,28.99
2021-06-21 11:57:45.468750000,-56.0,12.0,32.0,75.09343750000001,-0.18,0.277198375,28.99
2021-06-21 11:57:45.476562500,-55.75,12.0,32.0,75.091328125,-0.265,0.27707828125,28.99
2021-06-21 11:57:45.484375000,-55.5,12.0,32.0,75.08921875,-0.35,0.2769581875,28.99
2021-06-21 11:57:45.492187500,-55.25,12.0,32.0,75.087109375,-0.615,0.27683809375,28.99
2021-06-21 11:57:45.500000000,-55.0,12.0,32.0,75.08500000000001,-0.88,0.276718,28.99
2021-06-21 11:57:45.507812500,-55.0,11.75,32.0,75.082890625,-1.25,0.2767980625,28.99
2021-06-21 11:57:45.515625000,-55.0,11.5,32.0,75.08078125,-1.62,0.27687812500000003,28.99
2021-06-21 11:57:45.523437500,-55.0,11.25,32.0,75.078671875,-1.98,0.2769581875,28.99
2021-06-21 11:57:45.531250000,-55.0,11.0,32.0,75.0765625,-2.34,0.27703825000000004,28.99
2021-06-21 11:57:45.539062500,-55.0,11.0,32.25,75.074453125,-2.58,0.2771183125,28.99
2021-06-21 11:57:45.546875000,-55.0,11.0,32.5,75.07234375,-2.82,0.277198375,28.99
2021-06-21 11:57:45.554687500,-55.0,11.0,32.75,75.070234375,-2.895,0.27727843750000003,28.99
2021-06-21 11:57:45.562500000,-55.0,11.0,33.0,75.068125,-2.97,0.2773585,28.99
2021-06-21 11:57:45.570312500,-55.0,11.0,33.0,75.066015625,-2.91,0.2774385625,28.99
2021-06-21 11:57:45.578125000,-55.0,11.0,33.0,75.06390625,-2.85,0.277518625,28.99
2021-06-21 11:57:45.585937500,-55.0,11.0,33.0,75.061796875,-2.725,0.2775986875,28.99
2021-06-21 11:57:45.593750000,-55.0,11.0,33.0,75.0596875,-2.6,0.27767875,28.99
2021-06-21 11:57:45.601562500,-55.0,11.25,32.75,75.057578125,-2.48,0.2777588125,28.99
2021-06-21 11:57:45.609375000,-55.0,11.5,32.5,75.05546875,-2.36,0.277838875,28.99
2021-06-21 11:57:45.617187500,-55.0,11.75,32.25,75.053359375,-2.275,0.2779189375,28.99
2021-06-21 11:57:45.625000000,-55.0,12.0,32.0,75.05125,-2.19,0.277999,28.99
2021-06-21 11:57:45.632812500,-55.0,12.0,32.0,75.049140625,-2.0999999999999996,0.2780790625,28.99
2021-06-21 11:57:45.640625000,-55.0,12.0,32.0,75.04703125,-2.01,0.278159125,28.99
2021-06-21 11:57:45.648437500,-55.0,12.0,32.0,75.044921875,-1.8599999999999999,0.2782391875,28.99
2021-06-21 11:57:45.656250000,-55.0,12.0,32.0,75.0428125,-1.71,0.27831925,28.99
2021-06-21 11:57:45.664062500,-55.0,12.0,32.0,75.04070312500001,-1.46,0.2783993125,28.99
2021-06-21 11:57:45.671875000,-55.0,12.0,32.0,75.03859375,-1.21,0.278479375,28.99
2021-06-21 11:57:45.679687500,-55.0,12.0,32.0,75.036484375,-0.865,0.2785594375,28.99
2021-06-21 11:57:45.687500000,-55.0,12.0,32.0,75.034375,-0.52,0.2786395,28.99
2021-06-21 11:57:45.695312500,-55.0,11.75,32.25,75.03226562500001,-0.14500000000000002,0.27871956249999996,28.99
2021-06-21 11:57:45.703125000,-55.0,11.5,32.5,75.03015625,0.23,0.278799625,28.99
2021-06-21 11:57:45.710937500,-55.0,11.25,32.75,75.028046875,0.555,0.2788796875,28.99
2021-06-21 11:57:45.718750000,-55.0,11.0,33.0,75.0259375,0.88,0.27895974999999995,28.99
2021-06-21 11:57:45.726562500,-55.0,11.0,32.75,75.02382812500001,1.095,0.2790398125,28.99
2021-06-21 11:57:45.734375000,-55.0,11.0,32.5,75.02171875,1.31,0.27911987499999996,28.99
2021-06-21 11:57:45.742187500,-55.0,11.0,32.25,75.019609375,1.4,0.2791999375,28.99
2021-06-21 11:57:45.750000000,-55.0,11.0,32.0,75.0175,1.49,0.27928,28.99
2021-06-21 11:57:45.757812500,-55.25,11.25,32.0,75.015390625,1.475,0.27915987499999995,28.99
2021-06-21 11:57:45.765625000,-55.5,11.5,32.0,75.01328125,1.46,0.27903975,28.99
2021-06-21 11:57:45.773437500,-55.75,11.75,32.0,75.011171875,1.395,0.278919625,28.99
2021-06-21 11:57:45.781250000,-56.0,12.0,32.0,75.0090625,1.33,0.2787995,28.99
2021-06-21 11:57:45.789062500,-56.0,12.0,32.0,75.006953125,1.245,0.27867937499999995,28.99
2021-06-21 11:57:45.796875000,-56.0,12.0,32.0,75.00484375,1.16,0.27855925,28.99
2021-06-21 11:57:45.804687500,-56.0,12.0,32.0,75.002734375,1.0699999999999998,0.278439125,28.99
2021-06-21 11:57:45.812500000,-56.0,12.0,32.0,75.000625,0.98,0.278319,28.99
2021-06-21 11:57:45.820312500,-55.75,12.0,32.25,74.998515625,0.875,0.27819887499999996,28.99
2021-06-21 11:57:45.828125000,-55.5,12.0,32.5,74.99640625,0.77,0.27807875,28.99
2021-06-21 11:57:45.835937500,-55.25,12.0,32.75,74.994296875,0.65,0.277958625,28.99
2021-06-21 11:57:45.843750000,-55.0,12.0,33.0,74.9921875,0.53,0.2778385,28.99
2021-06-21 11:57:45.851562500,-55.0,11.75,32.75,74.990078125,0.395,0.27771837499999996,28.99
2021-06-21 11:57:45.859375000,-55.0,11.5,32.5,74.98796875000001,0.26,0.27759825,28.99
2021-06-21 11:57:45.867187500,-55.0,11.25,32.25,74.985859375,0.135,0.277478125,28.99
2021-06-21 11:57:45.875000000,-55.0,11.0,32.0,74.98375,0.01,0.277358,28.99
2021-06-21 11:57:45.882812500,-55.25,11.25,32.25,74.981640625,-0.07,0.27723787499999997,28.99
2021-06-21 11:57:45.890625000,-55.5,11.5,32.5,74.97953125000001,-0.15,0.27711775,28.99
2021-06-21 11:57:45.898437500,-55.75,11.75,32.75,74.977421875,-0.16499999999999998,0.276997625,28.99
2021-06-21 11:57:45.906250000,-56.0,12.0,33.0,74.9753125,-0.18,0.2768775,28.99
2021-06-21 11:57:45.914062500,-55.75,12.0,33.0,74.973203125,-0.13,0.27675737499999997,28.99
2021-06-21 11:57:45.921875000,-55.5,12.0,33.0,74.97109375000001,-0.08,0.27663725,28.99
2021-06-21 11:57:45.929687500,-55.25,12.0,33.0,74.968984375,0.020000000000000004,0.27651712500000003,28.99
2021-06-21 11:57:45.937500000,-55.0,12.0,33.0,74.966875,0.12,0.276397,28.99
2021-06-21 11:57:45.945312500,-55.0,12.0,32.75,74.964765625,0.24,0.276276875,28.99
2021-06-21 11:57:45.953125000,-55.0,12.0,32.5,74.96265625000001,0.36,0.27615675,28.99
2021-06-21 11:57:45.960937500,-55.0,12.0,32.25,74.960546875,0.48,0.27603662500000004,28.99
2021-06-21 11:57:45.968750000,-55.0,12.0,32.0,74.9584375,0.6,0.2759165,28.99
2021-06-21 11:57:45.976562500,-55.25,11.75,32.0,74.956328125,0.71,0.275796375,28.99
2021-06-21 11:57:45.984375000,-55.5,11.5,32.0,74.95421875000001,0.82,0.27567625,28.99
2021-06-21 11:57:45.992187500,-55.75,11.25,32.0,74.952109375,0.9099999999999999,0.27555612500000004,28.99
2021-06-21 11:57:46.000000000,-56.0,11.0,32.0,74.95,1.0,0.275436,28.99
2021-06-21 11:57:46.007812500,-56.0,11.25,32.0,74.9478125,1.085,0.27551609375,28.989375
2021-06-21 11:57:46.015625000,-56.0,11.5,32.0,74.945625,1.17,0.27559618750000003,28.98875
2021-06-21 11:57:46.023437500,-56.0,11.75,32.0,74.9434375,1.2349999999999999,0.27567628125,28.988125
2021-06-21 11:57:46.031250000,-56.0,12.0,32.0,74.94125,1.3,0.275756375,28.987499999999997
2021-06-21 11:57:46.039062500,-56.0,12.0,32.0,74.9390625,1.345,0.27583646875,28.986874999999998
2021-06-21 11:57:46.046875000,-56.0,12.0,32.0,74.936875,1.39,0.2759165625,28.98625
2021-06-21 11:57:46.054687500,-56.0,12.0,32.0,74.93468750000001,1.415,0.27599665625,28.985625
2021-06-21 11:57:46.062500000,-56.0,12.0,32.0,74.9325,1.44,0.27607675,28.985
2021-06-21 11:57:46.070312500,-55.75,11.75,32.25,74.9303125,1.43,0.27615684375,28.984375
2021-06-21 11:57:46.078125000,-55.5,11.5,32.5,74.92812500000001,1.42,0.2762369375,28.983749999999997
2021-06-21 11:57:46.085937500,-55.25,11.25,32.75,74.9259375,1.385,0.27631703125,28.983124999999998
2021-06-21 11:57:46.093750000,-55.0,11.0,33.0,74.92375,1.35,0.276397125,28.982499999999998
2021-06-21 11:57:46.101562500,-55.0,11.25,32.75,74.92156250000001,1.2850000000000001,0.27647721875000003,28.981875
2021-06-21 11:57:46.109375000,-55.0,11.5,32.5,74.919375,1.22,0.2765573125,28.98125
2021-06-21 11:57:46.117187500,-55.0,11.75,32.25,74.9171875,1.115,0.27663740625,28.980625
2021-06-21 11:57:46.125000000,-55.0,12.0,32.0,74.915,1.01,0.2767175,28.979999999999997
2021-06-21 11:57:46.132812500,-55.0,12.0,32.0,74.9128125,0.86,0.27679759375,28.979374999999997
2021-06-21 11:57:46.140625000,-55.0,12.0,32.0,74.910625,0.71,0.2768776875,28.978749999999998
2021-06-21 11:57:46.148437500,-55.0,12.0,32.0,74.9084375,0.525,0.27695778125,28.978125
2021-06-21 11:57:46.156250000,-55.0,12.0,32.0,74.90625,0.34,0.277037875,28.9775
2021-06-21 11:57:46.164062500,-55.0,12.0,32.25,74.90406250000001,0.13,0.27711796875,28.976875
2021-06-21 11:57:46.171875000,-55.0,12.0,32.5,74.901875,-0.08,0.2771980625,28.97625
2021-06-21 11:57:46.179687500,-55.0,12.0,32.75,74.8996875,-0.265,0.27727815625,28.975624999999997
2021-06-21 11:57:46.187500000,-55.0,12.0,33.0,74.89750000000001,-0.45,0.27735825000000003,28.974999999999998
2021-06-21 11:57:46.195312500,-55.0,11.75,33.0,74.8953125,-0.57,0.27743834375,28.974375
2021-06-21 11:57:46.203125000,-55.0,11.5,33.0,74.893125,-0.69,0.2775184375,28.97375
2021-06-21 11:57:46.210937500,-55.0,11.25,33.0,74.8909375,-0.725,0.27759853125,28.973125
2021-06-21 11:57:46.218750000,-55.0,11.0,33.0,74.88875,-0.76,0.277678625,28.9725
2021-06-21 11:57:46.226562500,-55.25,11.0,32.75,74.8865625,-0.73,0.27775871875,28.971874999999997
2021-06-21 11:57:46.234375000,-55.5,11.0,32.5,74.884375,-0.7,0.2778388125,28.971249999999998
2021-06-21 11:57:46.242187500,-55.75,11.0,32.25,74.8821875,-0.62,0.27791890625,28.970625
2021-06-21 11:57:46.250000000,-56.0,11.0,32.0,74.88,-0.54,0.277999,28.97
2021-06-21 11:57:46.257812500,-56.0,11.0,32.0,74.8778125,-0.46,0.27791890625,28.97
2021-06-21 11:57:46.265625000,-56.0,11.0,32.0,74.875625,-0.38,0.2778388125,28.97
2021-06-21 11:57:46.273437500,-56.0,11.0,32.0,74.87343750000001,-0.33499999999999996,0.27775871875,28.97
2021-06-21 11:57:46.281250000,-56.0,11.0,32.0,74.87125,-0.29,0.277678625,28.97
2021-06-21 11:57:46.289062500,-55.75,11.25,32.0,74.8690625,-0.305,0.27759853125,28.97
2021-06-21 11:57:46.296875000,-55.5,11.5,32.0,74.86687500000001,-0.32,0.2775184375,28.97
2021-06-21 11:57:46.304687500,-55.25,11.75,32.0,74.8646875,-0.41000000000000003,0.27743834375,28.97
2021-06-21 11:57:46.312500000,-55.0,12.0,32.0,74.8625,-0.5,0.27735825000000003,28.97
2021-06-21 11:57:46.320312500,-55.0,12.0,32.0,74.8603125,-0.6799999999999999,0.27727815625,28.97
2021-06-21 11:57:46.328125000,-55.0,12.0,32.0,74.858125,-0.86,0.2771980625,28.97
2021-06-21 11:57:46.335937500,-55.0,12.0,32.0,74.8559375,-1.11,0.27711796875,28.97
2021-06-21 11:57:46.343750000,-55.0,12.0,32.0,74.85375,-1.36,0.277037875,28.97
2021-06-21 11:57:46.351562500,-55.0,11.75,32.0,74.8515625,-1.6600000000000001,0.27695778125,28.97
2021-06-21 11:57:46.359375000,-55.0,11.5,32.0,74.84937500000001,-1.96,0.2768776875,28.97
2021-06-21 11:57:46.367187500,-55.0,11.25,32.0,74.8471875,-2.24,0.27679759375,28.97
2021-06-21 11:57:46.375000000,-55.0,11.0,32.0,74.845,-2.52,0.2767175,28.97
2021-06-21 11:57:46.382812500,-55.0,11.25,32.0,74.84281250000001,-2.73,0.27663740625,28.97
2021-06-21 11:57:46.390625000,-55.0,11.5,32.0,74.840625,-2.94,0.2765573125,28.97
2021-06-21 11:57:46.398437500,-55.0,11.75,32.0,74.8384375,-3.01,0.27647721875000003,28.97
2021-06-21 11:57:46.406250000,-55.0,12.0,32.0,74.83625,-3.08,0.276397125,28.97
2021-06-21 11:57:46.414062500,-55.0,11.75,32.0,74.8340625,-2.995,0.27631703125,28.97
2021-06-21 11:57:46.421875000,-55.0,11.5,32.0,74.831875,-2.91,0.2762369375,28.97
2021-06-21 11:57:46.429687500,-55.0,11.25,32.0,74.8296875,-2.6950000000000003,0.27615684375,28.97
2021-06-21 11:57:46.437500000,-55.0,11.0,32.0,74.8275,-2.48,0.27607675,28.97
2021-06-21 11:57:46.445312500,-55.25,11.0,32.0,74.8253125,-2.2,0.27599665625,28.97
2021-06-21 11:57:46.453125000,-55.5,11.0,32.0,74.823125,-1.92,0.2759165625,28.97
2021-06-21 11:57:46.460937500,-55.75,11.0,32.0,74.8209375,-1.645,0.27583646875,28.97
2021-06-21 11:57:46.468750000,-56.0,11.0,32.0,74.81875000000001,-1.37,0.275756375,28.97
2021-06-21 11:57:46.476562500,-56.0,11.25,32.0,74.8165625,-1.165,0.27567628125,28.97
2021-06-21 11:57:46.484375000,-56.0,11.5,32.0,74.814375,-0.96,0.27559618750000003,28.97
2021-06-21 11:57:46.492187500,-56.0,11.75,32.0,74.81218750000001,-0.835,0.27551609375,28.97
2021-06-21 11:57:46.500000000,-56.0,12.0,32.0,74.81,-0.71,0.275436,28.97
2021-06-21 11:57:46.507812500,-55.75,12.0,32.0,74.8078125,-0.6599999999999999,0.2754760625,28.97
2021-06-21 11:57:46.515625000,-55.5,12.0,32.0,74.805625,-0.61,0.275516125,28.97
2021-06-21 11:57:46.523437500,-55.25,12.0,32.0,74.8034375,-0.61,0.2755561875,28.97
2021-06-21 11:57:46.531250000,-55.0,12.0,32.0,74.80125,-0.61,0.27559625,28.97
2021-06-21 11:57:46.539062500,-55.0,12.0,32.0,74.7990625,-0.63,0.27563631250000004,28.97
2021-06-21 11:57:46.546875000,-55.0,12.0,32.0,74.796875,-0.65,0.27567637500000003,28.97
2021-06-21 11:57:46.554687500,-55.0,12.0,32.0,74.79468750000001,-0.6799999999999999,0.2757164375,28.97
2021-06-21 11:57:46.562500000,-55.0,12.0,32.0,74.7925,-0.71,0.2757565,28.97
2021-06-21 11:57:46.570312500,-55.0,12.0,32.25,74.7903125,-0.725,0.2757965625,28.97
2021-06-21 11:57:46.578125000,-55.0,12.0,32.5,74.78812500000001,-0.74,0.275836625,28.97
2021-06-21 11:57:46.585937500,-55.0,12.0,32.75,74.7859375,-0.715,0.2758766875,28.97
2021-06-21 11:57:46.593750000,-55.0,12.0,33.0,74.78375,-0.69,0.27591675000000004,28.97
2021-06-21 11:57:46.601562500,-55.0,12.0,32.75,74.7815625,-0.605,0.27595681250000004,28.97
2021-06-21 11:57:46.609375000,-55.0,12.0,32.5,74.779375,-0.52,0.27599687500000003,28.97
2021-06-21 11:57:46.617187500,-55.0,12.0,32.25,74.7771875,-0.355,0.2760369375,28.97
2021-06-21 11:57:46.625000000,-55.0,12.0,32.0,74.775,-0.19,0.276077,28.97
2021-06-21 11:57:46.632812500,-55.25,11.75,32.0,74.7728125,0.04500000000000001,0.2761170625,28.97
2021-06-21 11:57:46.640625000,-55.5,11.5,32.0,74.770625,0.28,0.276157125,28.97
2021-06-21 11:57:46.648437500,-55.75,11.25,32.0,74.7684375,0.55,0.2761971875,28.97
2021-06-21 11:57:46.656250000,-56.0,11.0,32.0,74.76625,0.82,0.27623725,28.97
2021-06-21 11:57:46.664062500,-56.0,11.25,32.0,74.76406250000001,1.06,0.27627731250000004,28.97
2021-06-21 11:57:46.671875000,-56.0,11.5,32.0,74.761875,1.3,0.27631737500000003,28.97
2021-06-21 11:57:46.679687500,-56.0,11.75,32.0,74.7596875,1.435,0.2763574375,28.97
2021-06-21 11:57:46.687500000,-56.0,12.0,32.0,74.75750000000001,1.57,0.2763975,28.97
2021-06-21 11:57:46.695312500,-55.75,12.0,32.25,74.7553125,1.5550000000000002,0.2764375625,28.97
2021-06-21 11:57:46.703125000,-55.5,12.0,32.5,74.753125,1.54,0.276477625,28.97
2021-06-21 11:57:46.710937500,-55.25,12.0,32.75,74.7509375,1.3900000000000001,0.2765176875,28.97
2021-06-21 11:57:46.718750000,-55.0,12.0,33.0,74.74875,1.24,0.27655775000000005,28.97
2021-06-21 11:57:46.726562500,-55.25,12.0,32.75,74.7465625,1.02,0.27659781250000004,28.97
2021-06-21 11:57:46.734375000,-55.5,12.0,32.5,74.744375,0.8,0.27663787500000003,28.97
2021-06-21 11:57:46.742187500,-55.75,12.0,32.25,74.7421875,0.61,0.2766779375,28.97
2021-06-21 11:57:46.750000000,-56.0,12.0,32.0,74.74000000000001,0.42,0.276718,28.97
2021-06-21 11:57:46.757812500,-56.0,12.0,32.0,74.7378125,0.325,0.2766779375,28.97
2021-06-21 11:57:46.765625000,-56.0,12.0,32.0,74.735625,0.23,0.27663787500000003,28.97
2021-06-21 11:57:46.773437500,-56.0,12.0,32.0,74.73343750000001,0.25,0.27659781250000004,28.97
2021-06-21 11:57:46.781250000,-56.0,12.0,32.0,74.73125,0.27,0.27655775000000005,28.97
2021-06-21 11:57:46.789062500,-55.75,12.0,32.25,74.7290625,0.36,0.2765176875,28.97
2021-06-21 11:57:46.796875000,-55.5,12.0,32.5,74.726875,0.45,0.276477625,28.97
2021-06-21 11:57:46.804687500,-55.25,12.0,32.75,74.7246875,0.54,0.2764375625,28.97
2021-06-21 11:57:46.812500000,-55.0,12.0,33.0,74.7225,0.63,0.2763975,28.97
2021-06-21 11:57:46.820312500,-55.0,11.75,33.0,74.7203125,0.6699999999999999,0.2763574375,28.97
2021-06-21 11:57:46.828125000,-55.0,11.5,33.0,74.718125,0.71,0.27631737500000003,28.97
2021-06-21 11:57:46.835937500,-55.0,11.25,33.0,74.7159375,0.71,0.27627731250000004,28.97
2021-06-21 11:57:46.843750000,-55.0,11.0,33.0,74.71375,0.71,0.27623725,28.97
2021-06-21 11:57:46.851562500,-55.25,11.0,32.75,74.7115625,0.71,0.2761971875,28.97
2021-06-21 11:57:46.859375000,-55.5,11.0,32.5,74.70937500000001,0.71,0.276157125,28.97
2021-06-21 11:57:46.867187500,-55.75,11.0,32.25,74.7071875,0.77,0.2761170625,28.97
2021-06-21 11:57:46.875000000,-56.0,11.0,32.0,74.705,0.83,0.276077,28.97
2021-06-21 11:57:46.882812500,-56.0,11.0,32.0,74.70281250000001,0.9650000000000001,0.2760369375,28.97
2021-06-21 11:57:46.890625000,-56.0,11.0,32.0,74.700625,1.1,0.27599687500000003,28.97
2021-06-21 11:57:46.898437500,-56.0,11.0,32.0,74.6984375,1.28,0.27595681250000004,28.97
2021-06-21 11:57:46.906250000,-56.0,11.0,32.0,74.69625,1.46,0.27591675000000004,28.97
2021-06-21 11:57:46.914062500,-55.75,11.0,32.0,74.6940625,1.605,0.2758766875,28.97
2021-06-21 11:57:46.921875000,-55.5,11.0,32.0,74.691875,1.75,0.275836625,28.97
2021-06-21 11:57:46.929687500,-55.25,11.0,32.0,74.6896875,1.79,0.2757965625,28.97
2021-06-21 11:57:46.937500000,-55.0,11.0,32.0,74.6875,1.83,0.2757565,28.97
2021-06-21 11:57:46.945312500,-55.0,11.0,32.0,74.6853125,1.745,0.2757164375,28.97
2021-06-21 11:57:46.953125000,-55.0,11.0,32.0,74.683125,1.66,0.27567637500000003,28.97
2021-06-21 11:57:46.960937500,-55.0,11.0,32.0,74.6809375,1.4849999999999999,0.27563631250000004,28.97
2021-06-21 11:57:46.968750000,-55.0,11.0,32.0,74.67875000000001,1.31,0.27559625,28.97
2021-06-21 11:57:46.976562500,-55.0,11.0,32.25,74.6765625,1.1,0.2755561875,28.97
2021-06-21 11:57:46.984375000,-55.0,11.0,32.5,74.674375,0.89,0.275516125,28.97
2021-06-21 11:57:46.992187500,-55.0,11.0,32.75,74.6721875,0.7050000000000001,0.2754760625,28.97
2021-06-21 11:57:47.000000000,-55.0,11.0,33.0,74.67,0.52,0.275436,28.97
2021-06-21 11:57:47.007812500,-55.25,11.25,32.75,74.67,0.405,0.27551609375,28.97
2021-06-21 11:57:47.015625000,-55.5,11.5,32.5,74.67,0.29,0.27559618750000003,28.97
2021-06-21 11:57:47.023437500,-55.75,11.75,32.25,74.67,0.24,0.27567628125,28.97
2021-06-21 11:57:47.031250000,-56.0,12.0,32.0,74.67,0.19,0.275756375,28.97
2021-06-21 11:57:47.039062500,-55.75,12.0,32.0,74.67,0.2,0.27583646875,28.97
2021-06-21 11:57:47.046875000,-55.5,12.0,32.0,74.67,0.21,0.2759165625,28.97
2021-06-21 11:57:47.054687500,-55.25,12.0,32.0,74.67,0.255,0.27599665625,28.97
2021-06-21 11:57:47.062500000,-55.0,12.0,32.0,74.67,0.3,0.27607675,28.97
2021-06-21 11:57:47.070312500,-55.0,11.75,32.25,74.67,0.355,0.27615684375,28.97
2021-06-21 11:57:47.078125000,-55.0,11.5,32.5,74.67,0.41,0.2762369375,28.97
2021-06-21 11:57:47.085937500,-55.0,11.25,32.75,74.67,0.45499999999999996,0.27631703125,28.97
2021-06-21 11:57:47.093750000,-55.0,11.0,33.0,74.67,0.5,0.276397125,28.97
2021-06-21 11:57:47.101562500,-55.0,11.0,33.0,74.67,0.495,0.27647721875000003,28.97
2021-06-21 11:57:47.109375000,-55.0,11.0,33.0,74.67,0.49,0.2765573125,28.97
2021-06-21 11:57:47.117187500,-55.0,11.0,33.0,74.67,0.41500000000000004,0.27663740625,28.97
2021-06-21 11:57:47.125000000,-55.0,11.0,33.0,74.67,0.34,0.2767175,28.97
2021-06-21 11:57:47.132812500,-55.25,11.0,32.75,74.67,0.18000000000000002,0.27679759375,28.97
2021-06-21 11:57:47.140625000,-55.5,11.0,32.5,74.67,0.02,0.2768776875,28.97
2021-06-21 11:57:47.148437500,-55.75,11.0,32.25,74.67,-0.195,0.27695778125,28.97
2021-06-21 11:57:47.156250000,-56.0,11.0,32.0,74.67,-0.41,0.277037875,28.97
2021-06-21 11:57:47.164062500,-56.0,11.0,32.0,74.67,-0.645,0.27711796875,28.97
2021-06-21 11:57:47.171875000,-56.0,11.0,32.0,74.67,-0.88,0.2771980625,28.97
2021-06-21 11:57:47.179687500,-56.0,11.0,32.0,74.67,-1.06,0.27727815625,28.97
2021-06-21 11:57:47.187500000,-56.0,11.0,32.0,74.67,-1.24,0.27735825000000003,28.97
2021-06-21 11:57:47.195312500,-56.0,11.0,32.0,74.67,-1.325,0.27743834375,28.97
2021-06-21 11:57:47.203125000,-56.0,11.0,32.0,74.67,-1.41,0.2775184375,28.97
2021-06-21 11:57:47.210937500,-56.0,11.0,32.0,74.67,-1.3900000000000001,0.27759853125,28.97
2021-06-21 11:57:47.218750000,-56.0,11.0,32.0,74.67,-1.37,0.277678625,28.97
2021-06-21 11:57:47.226562500,-56.0,11.0,32.0,74.67,-1.26,0.27775871875,28.97
2021-06-21 11:57:47.234375000,-56.0,11.0,32.0,74.67,-1.15,0.2778388125,28.97
2021-06-21 11:57:47.242187500,-56.0,11.0,32.0,74.67,-0.99,0.27791890625,28.97
2021-06-21 11:57:47.250000000,-56.0,11.0,32.0,74.67,-0.83,0.277999,28.97
2021-06-21 11:57:47.257812500,-55.75,11.25,32.0,74.67,-0.685,0.27791890625,28.97
2021-06-21 11:57:47.265625000,-55.5,11.5,32.0,74.67,-0.54,0.2778388125,28.97
2021-06-21 11:57:47.273437500,-55.25,11.75,32.0,74.67,-0.43000000000000005,0.27775871875,28.97
2021-06-21 11:57:47.281250000,-55.0,12.0,32.0,74.67,-0.32,0.277678625,28.97
2021-06-21 11:57:47.289062500,-55.0,12.0,32.25,74.67,-0.25,0.27759853125,28.97
2021-06-21 11:57:47.296875000,-55.0,12.0,32.5,74.67,-0.18,0.2775184375,28.97
2021-06-21 11:57:47.304687500,-55.0,12.0,32.75,74.67,-0.11,0.27743834375,28.97
2021-06-21 11:57:47.312500000,-55.0,12.0,33.0,74.67,-0.04,0.27735825000000003,28.97
2021-06-21 11:57:47.320312500,-55.0,11.75,33.0,74.67,0.08000000000000002,0.27727815625,28.97
2021-06-21 11:57:47.328125000,-55.0,11.5,33.0,74.67,0.2,0.2771980625,28.97
2021-06-21 11:57:47.335937500,-55.0,11.25,33.0,74.67,0.405,0.27711796875,28.97
2021-06-21 11:57:47.343750000,-55.0,11.0,33.0,74.67,0.61,0.277037875,28.97
2021-06-21 11:57:47.351562500,-55.0,11.0,32.75,74.67,0.8799999999999999,0.27695778125,28.97
2021-06-21 11:57:47.359375000,-55.0,11.0,32.5,74.67,1.15,0.2768776875,28.97
2021-06-21 11:57:47.367187500,-55.0,11.0,32.25,74.67,1.42,0.27679759375,28.97
2021-06-21 11:57:47.375000000,-55.0,11.0,32.0,74.67,1.69,0.2767175,28.97
2021-06-21 11:57:47.382812500,-55.25,11.0,32.0,74.67,1.865,0.27663740625,28.97
2021-06-21 11:57:47.390625000,-55.5,11.0,32.0,74.67,2.04,0.2765573125,28.97
2021-06-21 11:57:47.398437500,-55.75,11.0,32.0,74.67,2.0300000000000002,0.27647721875000003,28.97
2021-06-21 11:57:47.406250000,-56.0,11.0,32.0,74.67,2.02,0.276397125,28.97
2021-06-21 11:57:47.414062500,-56.0,11.0,32.0,74.67,1.8050000000000002,0.27631703125,28.97
2021-06-21 11:57:47.421875000,-56.0,11.0,32.0,74.67,1.59,0.2762369375,28.97
2021-06-21 11:57:47.429687500,-56.0,11.0,32.0,74.67,1.205,0.27615684375,28.97
2021-06-21 11:57:47.437500000,-56.0,11.0,32.0,74.67,0.82,0.27607675,28.97
2021-06-21 11:57:47.445312500,-55.75,11.0,32.0,74.67,0.375,0.27599665625,28.97
2021-06-21 11:57:47.453125000,-55.5,11.0,32.0,74.67,-0.07,0.2759165625,28.97
2021-06-21 11:57:47.460937500,-55.25,11.0,32.0,74.67,-0.455,0.27583646875,28.97
2021-06-21 11:57:47.468750000,-55.0,11.0,32.0,74.67,-0.84,0.275756375,28.97
2021-06-21 11:57:47.476562500,-55.25,11.25,32.0,74.67,-1.08,0.27567628125,28.97
2021-06-21 11:57:47.484375000,-55.5,11.5,32.0,74.67,-1.32,0.27559618750000003,28.97
2021-06-21 11:57:47.492187500,-55.75,11.75,32.0,74.67,-1.4,0.27551609375,28.97
2021-06-21 11:57:47.500000000,-56.0,12.0,32.0,74.67,-1.48,0.275436,28.97
2021-06-21 11:57:47.507812500,-55.75,12.0,32.0,74.67,-1.43,0.2754760625,28.97
2021-06-21 11:57:47.515625000,-55.5,12.0,32.0,74.67,-1.38,0.275516125,28.97
2021-06-21 11:57:47.523437500,-55.25,12.0,32.0,74.67,-1.265,0.2755561875,28.97
2021-06-21 11:57:47.531250000,-55.0,12.0,32.0,74.67,-1.15,0.27559625,28.97
2021-06-21 11:57:47.539062500,-55.0,11.75,32.0,74.67,-1.02,0.27563631250000004,28.97
2021-06-21 11:57:47.546875000,-55.0,11.5,32.0,74.67,-0.89,0.27567637500000003,28.97
2021-06-21 11:57:47.554687500,-55.0,11.25,32.0,74.67,-0.76,0.2757164375,28.97
2021-06-21 11:57:47.562500000,-55.0,11.0,32.0,74.67,-0.63,0.2757565,28.97
2021-06-21 11:57:47.570312500,-55.25,11.0,32.0,74.67,-0.475,0.2757965625,28.97
2021-06-21 11:57:47.578125000,-55.5,11.0,32.0,74.67,-0.32,0.275836625,28.97
2021-06-21 11:57:47.585937500,-55.75,11.0,32.0,74.67,-0.10999999999999999,0.2758766875,28.97
2021-06-21 11:57:47.593750000,-56.0,11.0,32.0,74.67,0.1,0.27591675000000004,28.97
2021-06-21 11:57:47.601562500,-56.0,11.0,32.25,74.67,0.37,0.27595681250000004,28.97
2021-06-21 11:57:47.609375000,-56.0,11.0,32.5,74.67,0.64,0.27599687500000003,28.97
2021-06-21 11:57:47.617187500,-56.0,11.0,32.75,74.67,0.915,0.2760369375,28.97
2021-06-21 11:57:47.625000000,-56.0,11.0,33.0,74.67,1.19,0.276077,28.97
2021-06-21 11:57:47.632812500,-56.0,11.0,32.75,74.67,1.415,0.2761170625,28.97
2021-06-21 11:57:47.640625000,-56.0,11.0,32.5,74.67,1.64,0.276157125,28.97
2021-06-21 11:57:47.648437500,-56.0,11.0,32.25,74.67,1.7599999999999998,0.2761971875,28.97
2021-06-21 11:57:47.656250000,-56.0,11.0,32.0,74.67,1.88,0.27623725,28.97
2021-06-21 11:57:47.664062500,-55.75,11.0,32.0,74.67,1.875,0.27627731250000004,28.97
2021-06-21 11:57:47.671875000,-55.5,11.0,32.0,74.67,1.87,0.27631737500000003,28.97
2021-06-21 11:57:47.679687500,-55.25,11.0,32.0,74.67,1.7850000000000001,0.2763574375,28.97
2021-06-21 11:57:47.687500000,-55.0,11.0,32.0,74.67,1.7,0.2763975,28.97
2021-06-21 11:57:47.695312500,-55.25,11.0,32.0,74.67,1.6,0.2764375625,28.97
2021-06-21 11:57:47.703125000,-55.5,11.0,32.0,74.67,1.5,0.276477625,28.97
2021-06-21 11:57:47.710937500,-55.75,11.0,32.0,74.67,1.4300000000000002,0.2765176875,28.97
2021-06-21 11:57:47.718750000,-56.0,11.0,32.0,74.67,1.36,0.27655775000000005,28.97
2021-06-21 11:57:47.726562500,-56.0,11.0,32.0,74.67,1.3050000000000002,0.27659781250000004,28.97
2021-06-21 11:57:47.734375000,-56.0,11.0,32.0,74.67,1.25,0.27663787500000003,28.97
2021-06-21 11:57:47.742187500,-56.0,11.0,32.0,74.67,1.17,0.2766779375,28.97
2021-06-21 11:57:47.750000000,-56.0,11.0,32.0,74.67,1.09,0.276718,28.97
2021-06-21 11:57:47.757812500,-55.75,11.25,32.25,74.67,0.93,0.276718,28.97
2021-06-21 11:57:47.765625000,-55.5,11.5,32.5,74.67,0.77,0.276718,28.97
2021-06-21 11:57:47.773437500,-55.25,11.75,32.75,74.67,0.495,0.276718,28.97
2021-06-21 11:57:47.781250000,-55.0,12.0,33.0,74.67,0.22,0.276718,28.97
2021-06-21 11:57:47.789062500,-55.0,11.75,33.0,74.67,-0.12000000000000002,0.276718,28.97
2021-06-21 11:57:47.796875000,-55.0,11.5,33.0,74.67,-0.46,0.276718,28.97
2021-06-21 11:57:47.804687500,-55.0,11.25,33.0,74.67,-0.7949999999999999,0.276718,28.97
2021-06-21 11:57:47.812500000,-55.0,11.0,33.0,74.67,-1.13,0.276718,28.97
2021-06-21 11:57:47.820312500,-55.25,11.0,32.75,74.67,-1.37,0.276718,28.97
2021-06-21 11:57:47.828125000,-55.5,11.0,32.5,74.67,-1.61,0.276718,28.97
2021-06-21 11:57:47.835937500,-55.75,11.0,32.25,74.67,-1.7200000000000002,0.276718,28.97
2021-06-21 11:57:47.843750000,-56.0,11.0,32.0,74.67,-1.83,0.276718,28.97
2021-06-21 11:57:47.851562500,-56.0,11.0,32.0,74.67,-1.84,0.276718,28.97
2021-06-21 11:57:47.859375000,-56.0,11.0,32.0,74.67,-1.85,0.276718,28.97
2021-06-21 11:57:47.867187500,-56.0,11.0,32.0,74.67,-1.83,0.276718,28.97
2021-06-21 11:57:47.875000000,-56.0,11.0,32.0,74.67,-1.81,0.276718,28.97
2021-06-21 11:57:47.882812500,-55.75,11.0,32.25,74.67,-1.835,0.276718,28.97
2021-06-21 11:57:47.890625000,-55.5,11.0,32.5,74.67,-1.86,0.276718,28.97
2021-06-21 11:57:47.898437500,-55.25,11.0,32.75,74.67,-1.9500000000000002,0.276718,28.97
2021-06-21 11:57:47.906250000,-55.0,11.0,33.0,74.67,-2.04,0.276718,28.97
2021-06-21 11:57:47.914062500,-55.0,11.0,32.75,74.67,-2.17,0.276718,28.97
2021-06-21 11:57:47.921875000,-55.0,11.0,32.5,74.67,-2.3,0.276718,28.97
2021-06-21 11:57:47.929687500,-55.0,11.0,32.25,74.67,-2.4,0.276718,28.97
2021-06-21 11:57:47.937500000,-55.0,11.0,32.0,74.67,-2.5,0.276718,28.97
2021-06-21 11:57:47.945312500,-55.25,11.25,32.0,74.67,-2.5149999999999997,0.276718,28.97
2021-06-21 11:57:47.953125000,-55.5,11.5,32.0,74.67,-2.53,0.276718,28.97
2021-06-21 11:57:47.960937500,-55.75,11.75,32.0,74.67,-2.425,0.276718,28.97
2021-06-21 11:57:47.968750000,-56.0,12.0,32.0,74.67,-2.32,0.276718,28.97
2021-06-21 11:57:47.976562500,-56.0,11.75,32.0,74.67,-2.135,0.276718,28.97
2021-06-21 11:57:47.984375000,-56.0,11.5,32.0,74.67,-1.95,0.276718,28.97
2021-06-21 11:57:47.992187500,-56.0,11.25,32.0,74.67,-1.74,0.276718,28.97
2021-06-21 11:57:48.000000000,-56.0,11.0,32.0,74.67,-1.53,0.276718,28.97
2021-06-21 11:57:48.007812500,-56.0,11.0,32.0,74.670390625,-1.37,0.27663790625,28.970625
2021-06-21 11:57:48.015625000,-56.0,11.0,32.0,74.67078125,-1.21,0.2765578125,28.971249999999998
2021-06-21 11:57:48.023437500,-56.0,11.0,32.0,74.671171875,-1.125,0.27647771875,28.971874999999997
2021-06-21 11:57:48.031250000,-56.0,11.0,32.0,74.67156250000001,-1.04,0.27639762500000004,28.9725
2021-06-21 11:57:48.039062500,-56.0,11.0,32.0,74.671953125,-1.0150000000000001,0.27631753125,28.973125
2021-06-21 11:57:48.046875000,-56.0,11.0,32.0,74.67234375,-0.99,0.2762374375,28.97375
2021-06-21 11:57:48.054687500,-56.0,11.0,32.0,74.672734375,-0.95,0.27615734375,28.974375
2021-06-21 11:57:48.062500000,-56.0,11.0,32.0,74.673125,-0.91,0.27607725,28.974999999999998
2021-06-21 11:57:48.070312500,-56.0,11.25,32.0,74.67351562500001,-0.785,0.27599715625,28.975624999999997
2021-06-21 11:57:48.078125000,-56.0,11.5,32.0,74.67390625,-0.66,0.27591706250000003,28.97625
2021-06-21 11:57:48.085937500,-56.0,11.75,32.0,74.674296875,-0.42000000000000004,0.27583696875,28.976875
2021-06-21 11:57:48.093750000,-56.0,12.0,32.0,74.6746875,-0.18,0.275756875,28.9775
2021-06-21 11:57:48.101562500,-56.0,11.75,32.0,74.675078125,0.14499999999999996,0.27567678125,28.978125
2021-06-21 11:57:48.109375000,-56.0,11.5,32.0,74.67546875000001,0.47,0.2755966875,28.978749999999998
2021-06-21 11:57:48.117187500,-56.0,11.25,32.0,74.675859375,0.7999999999999999,0.27551659375,28.979374999999997
2021-06-21 11:57:48.125000000,-56.0,11.0,32.0,74.67625,1.13,0.2754365,28.979999999999997
2021-06-21 11:57:48.132812500,-56.0,11.0,32.0,74.676640625,1.37,0.27535640625,28.980625
2021-06-21 11:57:48.140625000,-56.0,11.0,32.0,74.67703125,1.61,0.2752763125,28.98125
2021-06-21 11:57:48.148437500,-56.0,11.0,32.0,74.67742187500001,1.715,0.27519621875,28.981875
2021-06-21 11:57:48.156250000,-56.0,11.0,32.0,74.6778125,1.82,0.275116125,28.982499999999998
2021-06-21 11:57:48.164062500,-55.75,11.25,32.0,74.678203125,1.79,0.27503603125,28.983124999999998
2021-06-21 11:57:48.171875000,-55.5,11.5,32.0,74.67859375,1.76,0.27495593749999997,28.983749999999997
2021-06-21 11:57:48.179687500,-55.25,11.75,32.0,74.678984375,1.6600000000000001,0.27487584375,28.984375
2021-06-21 11:57:48.187500000,-55.0,12.0,32.0,74.67937500000001,1.56,0.27479575,28.985
2021-06-21 11:57:48.195312500,-55.25,11.75,32.0,74.679765625,1.465,0.27471565625,28.985625
2021-06-21 11:57:48.203125000,-55.5,11.5,32.0,74.68015625,1.37,0.2746355625,28.98625
2021-06-21 11:57:48.210937500,-55.75,11.25,32.0,74.680546875,1.35,0.27455546875,28.986874999999998
2021-06-21 11:57:48.218750000,-56.0,11.0,32.0,74.6809375,1.33,0.27447537499999997,28.987499999999997
2021-06-21 11:57:48.226562500,-55.75,11.0,32.0,74.68132812500001,1.4,0.27439528125,28.988125
2021-06-21 11:57:48.234375000,-55.5,11.0,32.0,74.68171875,1.47,0.2743151875,28.98875
2021-06-21 11:57:48.242187500,-55.25,11.0,32.0,74.682109375,1.6099999999999999,0.27423509375,28.989375
2021-06-21 11:57:48.250000000,-55.0,11.0,32.0,74.6825,1.75,0.274155,28.99
2021-06-21 11:57:48.257812500,-55.25,11.0,32.0,74.682890625,1.91,0.27423509375,28.99
2021-06-21 11:57:48.265625000,-55.5,11.0,32.0,74.68328125000001,2.07,0.2743151875,28.99
2021-06-21 11:57:48.273437500,-55.75,11.0,32.0,74.683671875,2.19,0.27439528125,28.99
2021-06-21 11:57:48.281250000,-56.0,11.0,32.0,74.6840625,2.31,0.27447537499999997,28.99
2021-06-21 11:57:48.289062500,-56.0,11.25,32.0,74.684453125,2.365,0.27455546875,28.99
2021-06-21 11:57:48.296875000,-56.0,11.5,32.0,74.68484375,2.42,0.2746355625,28.99
2021-06-21 11:57:48.304687500,-56.0,11.75,32.0,74.68523437500001,2.395,0.27471565625,28.99
2021-06-21 11:57:48.312500000,-56.0,12.0,32.0,74.685625,2.37,0.27479575,28.99
2021-06-21 11:57:48.320312500,-55.75,12.0,32.0,74.686015625,2.2800000000000002,0.27487584375,28.99
2021-06-21 11:57:48.328125000,-55.5,12.0,32.0,74.68640625,2.19,0.27495593749999997,28.99
2021-06-21 11:57:48.335937500,-55.25,12.0,32.0,74.686796875,2.07,0.27503603125,28.99
2021-06-21 11:57:48.343750000,-55.0,12.0,32.0,74.68718750000001,1.95,0.275116125,28.99
2021-06-21 11:57:48.351562500,-55.25,12.0,32.0,74.687578125,1.8199999999999998,0.27519621875,28.99
2021-06-21 11:57:48.359375000,-55.5,12.0,32.0,74.68796875,1.69,0.2752763125,28.99
2021-06-21 11:57:48.367187500,-55.75,12.0,32.0,74.688359375,1.565,0.27535640625,28.99
2021-06-21 11:57:48.375000000,-56.0,12.0,32.0,74.68875,1.44,0.2754365,28.99
2021-06-21 11:57:48.382812500,-55.75,11.75,32.25,74.68914062500001,1.335,0.27551659375,28.99
2021-06-21 11:57:48.390625000,-55.5,11.5,32.5,74.68953125,1.23,0.2755966875,28.99
2021-06-21 11:57:48.398437500,-55.25,11.25,32.75,74.689921875,1.1400000000000001,0.27567678125,28.99
2021-06-21 11:57:48.406250000,-55.0,11.0,33.0,74.6903125,1.05,0.275756875,28.99
2021-06-21 11:57:48.414062500,-55.25,11.0,32.75,74.690703125,0.9850000000000001,0.27583696875,28.99
2021-06-21 11:57:48.421875000,-55.5,11.0,32.5,74.69109375000001,0.92,0.27591706250000003,28.99
2021-06-21 11:57:48.429687500,-55.75,11.0,32.25,74.691484375,0.885,0.27599715625,28.99
2021-06-21 11:57:48.437500000,-56.0,11.0,32.0,74.691875,0.85,0.27607725,28.99
2021-06-21 11:57:48.445312500,-56.0,11.0,32.0,74.692265625,0.85,0.27615734375,28.99
2021-06-21 11:57:48.453125000,-56.0,11.0,32.0,74.69265625,0.85,0.2762374375,28.99
2021-06-21 11:57:48.460937500,-56.0,11.0,32.0,74.69304687500001,0.86,0.27631753125,28.99
2021-06-21 11:57:48.468750000,-56.0,11.0,32.0,74.6934375,0.87,0.27639762500000004,28.99
2021-06-21 11:57:48.476562500,-56.0,11.0,32.0,74.693828125,0.89,0.27647771875,28.99
2021-06-21 11:57:48.484375000,-56.0,11.0,32.0,74.69421875,0.91,0.2765578125,28.99
2021-06-21 11:57:48.492187500,-56.0,11.0,32.0,74.694609375,0.915,0.27663790625,28.99
2021-06-21 11:57:48.500000000,-56.0,11.0,32.0,74.695,0.92,0.276718,28.99
2021-06-21 11:57:48.507812500,-55.75,11.0,32.0,74.695390625,0.9,0.2766779375,28.99
2021-06-21 11:57:48.515625000,-55.5,11.0,32.0,74.69578125,0.88,0.27663787500000003,28.99
2021-06-21 11:57:48.523437500,-55.25,11.0,32.0,74.696171875,0.835,0.27659781250000004,28.99
2021-06-21 11:57:48.531250000,-55.0,11.0,32.0,74.6965625,0.79,0.27655775000000005,28.99
2021-06-21 11:57:48.539062500,-55.0,11.0,32.0,74.696953125,0.7150000000000001,0.2765176875,28.99
2021-06-21 11:57:48.546875000,-55.0,11.0,32.0,74.69734375,0.64,0.276477625,28.99
2021-06-21 11:57:48.554687500,-55.0,11.0,32.0,74.697734375,0.53,0.2764375625,28.99
2021-06-21 11:57:48.562500000,-55.0,11.0,32.0,74.698125,0.42,0.2763975,28.99
2021-06-21 11:57:48.570312500,-55.25,11.0,32.0,74.698515625,0.27,0.2763574375,28.99
2021-06-21 11:57:48.578125000,-55.5,11.0,32.0,74.69890625,0.12,0.27631737500000003,28.99
2021-06-21 11:57:48.585937500,-55.75,11.0,32.0,74.699296875,-0.07,0.27627731250000004,28.99
2021-06-21 11:57:48.593750000,-56.0,11.0,32.0,74.6996875,-0.26,0.27623725,28.99
2021-06-21 11:57:48.601562500,-55.75,11.0,32.0,74.700078125,-0.48,0.2761971875,28.99
2021-06-21 11:57:48.609375000,-55.5,11.0,32.0,74.70046875,-0.7,0.276157125,28.99
2021-06-21 11:57:48.617187500,-55.25,11.0,32.0,74.700859375,-0.9199999999999999,0.2761170625,28.99
2021-06-21 11:57:48.625000000,-55.0,11.0,32.0,74.70125,-1.14,0.276077,28.99
2021-06-21 11:57:48.632812500,-55.25,11.0,32.0,74.701640625,-1.33,0.2760369375,28.99
2021-06-21 11:57:48.640625000,-55.5,11.0,32.0,74.70203125,-1.52,0.27599687500000003,28.99
2021-06-21 11:57:48.648437500,-55.75,11.0,32.0,74.702421875,-1.635,0.27595681250000004,28.99
2021-06-21 11:57:48.656250000,-56.0,11.0,32.0,74.7028125,-1.75,0.27591675000000004,28.99
2021-06-21 11:57:48.664062500,-56.0,11.0,32.0,74.703203125,-1.79,0.2758766875,28.99
2021-06-21 11:57:48.671875000,-56.0,11.0,32.0,74.70359375,-1.83,0.275836625,28.99
2021-06-21 11:57:48.679687500,-56.0,11.0,32.0,74.703984375,-1.79,0.2757965625,28.99
2021-06-21 11:57:48.687500000,-56.0,11.0,32.0,74.704375,-1.75,0.2757565,28.99
2021-06-21 11:57:48.695312500,-55.75,11.25,32.0,74.704765625,-1.685,0.2757164375,28.99
2021-06-21 11:57:48.703125000,-55.5,11.5,32.0,74.70515625,-1.62,0.27567637500000003,28.99
2021-06-21 11:57:48.710937500,-55.25,11.75,32.0,74.705546875,-1.56,0.27563631250000004,28.99
2021-06-21 11:57:48.718750000,-55.0,12.0,32.0,74.7059375,-1.5,0.27559625,28.99
2021-06-21 11:57:48.726562500,-55.25,12.0,32.0,74.706328125,-1.49,0.2755561875,28.99
2021-06-21 11:57:48.734375000,-55.5,12.0,32.0,74.70671875,-1.48,0.275516125,28.99
2021-06-21 11:57:48.742187500,-55.75,12.0,32.0,74.707109375,-1.525,0.2754760625,28.99
2021-06-21 11:57:48.750000000,-56.0,12.0,32.0,74.7075,-1.57,0.275436,28.99
2021-06-21 11:57:48.757812500,-55.75,11.75,32.0,74.707890625,-1.635,0.2754760625,28.99
2021-06-21 11:57:48.765625000,-55.5,11.5,32.0,74.70828125,-1.7,0.275516125,28.99
2021-06-21 11:57:48.773437500,-55.25,11.25,32.0,74.708671875,-1.7149999999999999,0.2755561875,28.99
2021-06-21 11:57:48.781250000,-55.0,11.0,32.0,74.7090625,-1.73,0.27559625,28.99
2021-06-21 11:57:48.789062500,-55.0,11.0,32.25,74.709453125,-1.6400000000000001,0.27563631250000004,28.99
2021-06-21 11:57:48.796875000,-55.0,11.0,32.5,74.70984375,-1.55,0.27567637500000003,28.99
2021-06-21 11:57:48.804687500,-55.0,11.0,32.75,74.710234375,-1.345,0.2757164375,28.99
2021-06-21 11:57:48.812500000,-55.0,11.0,33.0,74.710625,-1.14,0.2757565,28.99
2021-06-21 11:57:48.820312500,-55.25,11.0,32.75,74.711015625,-0.8699999999999999,0.2757965625,28.99
2021-06-21 11:57:48.828125000,-55.5,11.0,32.5,74.71140625,-0.6,0.275836625,28.99
2021-06-21 11:57:48.835937500,-55.75,11.0,32.25,74.711796875,-0.365,0.2758766875,28.99
2021-06-21 11:57:48.843750000,-56.0,11.0,32.0,74.7121875,-0.13,0.27591675000000004,28.99
2021-06-21 11:57:48.851562500,-56.0,11.25,32.0,74.712578125,-0.015,0.27595681250000004,28.99
2021-06-21 11:57:48.859375000,-56.0,11.5,32.0,74.71296875,0.1,0.27599687500000003,28.99
2021-06-21 11:57:48.867187500,-56.0,11.75,32.0,74.713359375,0.05,0.2760369375,28.99
2021-06-21 11:57:48.875000000,-56.0,12.0,32.0,74.71375,0.0,0.276077,28.99
2021-06-21 11:57:48.882812500,-55.75,12.0,32.0,74.714140625,-0.165,0.2761170625,28.99
2021-06-21 11:57:48.890625000,-55.5,12.0,32.0,74.71453125,-0.33,0.276157125,28.99
2021-06-21 11:57:48.898437500,-55.25,12.0,32.0,74.714921875,-0.5,0.2761971875,28.99
2021-06-21 11:57:48.906250000,-55.0,12.0,32.0,74.7153125,-0.67,0.27623725,28.99
2021-06-21 11:57:48.914062500,-55.25,12.0,32.25,74.715703125,-0.74,0.27627731250000004,28.99
2021-06-21 11:57:48.921875000,-55.5,12.0,32.5,74.71609375,-0.81,0.27631737500000003,28.99
2021-06-21 11:57:48.929687500,-55.75,12.0,32.75,74.716484375,-0.7250000000000001,0.2763574375,28.99
2021-06-21 11:57:48.937500000,-56.0,12.0,33.0,74.716875,-0.64,0.2763975,28.99
2021-06-21 11:57:48.945312500,-56.0,11.75,32.75,74.717265625,-0.435,0.2764375625,28.99
2021-06-21 11:57:48.953125000,-56.0,11.5,32.5,74.71765625,-0.23,0.276477625,28.99
2021-06-21 11:57:48.960937500,-56.0,11.25,32.25,74.718046875,0.004999999999999977,0.2765176875,28.99
2021-06-21 11:57:48.968750000,-56.0,11.0,32.0,74.7184375,0.24,0.27655775000000005,28.99
2021-06-21 11:57:48.976562500,-56.0,11.0,32.0,74.718828125,0.42,0.27659781250000004,28.99
2021-06-21 11:57:48.984375000,-56.0,11.0,32.0,74.71921875,0.6,0.27663787500000003,28.99
2021-06-21 11:57:48.992187500,-56.0,11.0,32.0,74.719609375,0.69,0.2766779375,28.99
2021-06-21 11:57:49.000000000,-56.0,11.0,32.0,74.72,0.78,0.276718,28.99
2021-06-21 11:57:49.007812500,-55.75,11.0,32.0,74.720625,0.81,0.27663790625,28.989375
2021-06-21 11:57:49.015625000,-55.5,11.0,32.0,74.72125,0.84,0.2765578125,28.98875
2021-06-21 11:57:49.023437500,-55.25,11.0,32.0,74.721875,0.8899999999999999,0.27647771875,28.988125
2021-06-21 11:57:49.031250000,-55.0,11.0,32.0,74.7225,0.94,0.27639762500000004,28.987499999999997
2021-06-21 11:57:49.039062500,-55.0,11.0,32.0,74.723125,1.0499999999999998,0.27631753125,28.986874999999998
2021-06-21 11:57:49.046875000,-55.0,11.0,32.0,74.72375,1.16,0.2762374375,28.98625
2021-06-21 11:57:49.054687500,-55.0,11.0,32.0,74.724375,1.3199999999999998,0.27615734375,28.985625
2021-06-21 11:57:49.062500000,-55.0,11.0,32.0,74.725,1.48,0.27607725,28.985
2021-06-21 11:57:49.070312500,-55.25,11.25,32.0,74.725625,1.63,0.27599715625,28.984375
2021-06-21 11:57:49.078125000,-55.5,11.5,32.0,74.72625,1.78,0.27591706250000003,28.983749999999997
2021-06-21 11:57:49.085937500,-55.75,11.75,32.0,74.72687499999999,1.815,0.27583696875,28.983124999999998
2021-06-21 11:57:49.093750000,-56.0,12.0,32.0,74.72749999999999,1.85,0.275756875,28.982499999999998
2021-06-21 11:57:49.101562500,-56.0,11.75,32.0,74.728125,1.725,0.27567678125,28.981875
2021-06-21 11:57:49.109375000,-56.0,11.5,32.0,74.72875,1.6,0.2755966875,28.98125
2021-06-21 11:57:49.117187500,-56.0,11.25,32.0,74.729375,1.35,0.27551659375,28.980625
2021-06-21 11:57:49.125000000,-56.0,11.0,32.0,74.73,1.1,0.2754365,28.979999999999997
2021-06-21 11:57:49.132812500,-55.75,11.0,32.0,74.730625,0.8250000000000001,0.27535640625,28.979374999999997
2021-06-21 11:57:49.140625000,-55.5,11.0,32.0,74.73125,0.55,0.2752763125,28.978749999999998
2021-06-21 11:57:49.148437500,-55.25,11.0,32.0,74.731875,0.37,0.27519621875,28.978125
2021-06-21 11:57:49.156250000,-55.0,11.0,32.0,74.7325,0.19,0.275116125,28.9775
2021-06-21 11:57:49.164062500,-55.25,11.0,32.0,74.733125,0.185,0.27503603125,28.976875
2021-06-21 11:57:49.171875000,-55.5,11.0,32.0,74.73375,0.18,0.27495593749999997,28.97625
2021-06-21 11:57:49.179687500,-55.75,11.0,32.0,74.734375,0.33999999999999997,0.27487584375,28.975624999999997
2021-06-21 11:57:49.187500000,-56.0,11.0,32.0,74.735,0.5,0.27479575,28.974999999999998
2021-06-21 11:57:49.195312500,-56.0,11.25,32.0,74.735625,0.74,0.27471565625,28.974375
2021-06-21 11:57:49.203125000,-56.0,11.5,32.0,74.73625,0.98,0.2746355625,28.97375
2021-06-21 11:57:49.210937500,-56.0,11.75,32.0,74.736875,1.185,0.27455546875,28.973125
2021-06-21 11:57:49.218750000,-56.0,12.0,32.0,74.7375,1.39,0.27447537499999997,28.9725
2021-06-21 11:57:49.226562500,-56.0,11.75,32.0,74.738125,1.48,0.27439528125,28.971874999999997
2021-06-21 11:57:49.234375000,-56.0,11.5,32.0,74.73875,1.57,0.2743151875,28.971249999999998
2021-06-21 11:57:49.242187500,-56.0,11.25,32.0,74.739375,1.525,0.27423509375,28.970625
2021-06-21 11:57:49.250000000,-56.0,11.0,32.0,74.74,1.48,0.274155,28.97
2021-06-21 11:57:49.257812500,-55.75,11.0,32.25,74.740625,1.3599999999999999,0.27423509375,28.97
2021-06-21 11:57:49.265625000,-55.5,11.0,32.5,74.74125,1.24,0.2743151875,28.97
2021-06-21 11:57:49.273437500,-55.25,11.0,32.75,74.741875,1.115,0.27439528125,28.97
2021-06-21 11:57:49.281250000,-55.0,11.0,33.0,74.74249999999999,0.99,0.27447537499999997,28.97
2021-06-21 11:57:49.289062500,-55.0,11.0,33.0,74.74312499999999,0.925,0.27455546875,28.97
2021-06-21 11:57:49.296875000,-55.0,11.0,33.0,74.74374999999999,0.86,0.2746355625,28.97
2021-06-21 11:57:49.304687500,-55.0,11.0,33.0,74.744375,0.865,0.27471565625,28.97
2021-06-21 11:57:49.312500000,-55.0,11.0,33.0,74.745,0.87,0.27479575,28.97
2021-06-21 11:57:49.320312500,-55.25,11.25,32.75,74.745625,0.905,0.27487584375,28.97
2021-06-21 11:57:49.328125000,-55.5,11.5,32.5,74.74625,0.94,0.27495593749999997,28.97
2021-06-21 11:57:49.335937500,-55.75,11.75,32.25,74.746875,0.965,0.27503603125,28.97
2021-06-21 11:57:49.343750000,-56.0,12.0,32.0,74.7475,0.99,0.275116125,28.97
2021-06-21 11:57:49.351562500,-56.0,11.75,32.0,74.748125,0.965,0.27519621875,28.97
2021-06-21 11:57:49.359375000,-56.0,11.5,32.0,74.74875,0.94,0.2752763125,28.97
2021-06-21 11:57:49.367187500,-56.0,11.25,32.0,74.749375,0.865,0.27535640625,28.97
2021-06-21 11:57:49.375000000,-56.0,11.0,32.0,74.75,0.79,0.2754365,28.97
2021-06-21 11:57:49.382812500,-55.75,11.25,32.0,74.750625,0.685,0.27551659375,28.97
2021-06-21 11:57:49.390625000,-55.5,11.5,32.0,74.75125,0.58,0.2755966875,28.97
2021-06-21 11:57:49.398437500,-55.25,11.75,32.0,74.751875,0.485,0.27567678125,28.97
2021-06-21 11:57:49.406250000,-55.0,12.0,32.0,74.7525,0.39,0.275756875,28.97
2021-06-21 11:57:49.414062500,-55.25,12.0,32.25,74.753125,0.32,0.27583696875,28.97
2021-06-21 11:57:49.421875000,-55.5,12.0,32.5,74.75375,0.25,0.27591706250000003,28.97
2021-06-21 11:57:49.429687500,-55.75,12.0,32.75,74.754375,0.22,0.27599715625,28.97
2021-06-21 11:57:49.437500000,-56.0,12.0,33.0,74.755,0.19,0.27607725,28.97
2021-06-21 11:57:49.445312500,-55.75,11.75,33.0,74.755625,0.2,0.27615734375,28.97
2021-06-21 11:57:49.453125000,-55.5,11.5,33.0,74.75625,0.21,0.2762374375,28.97
2021-06-21 11:57:49.460937500,-55.25,11.25,33.0,74.756875,0.24,0.27631753125,28.97
2021-06-21 11:57:49.468750000,-55.0,11.0,33.0,74.7575,0.27,0.27639762500000004,28.97
2021-06-21 11:57:49.476562500,-55.25,11.0,32.75,74.75812499999999,0.31,0.27647771875,28.97
2021-06-21 11:57:49.484375000,-55.5,11.0,32.5,74.75874999999999,0.35,0.2765578125,28.97
2021-06-21 11:57:49.492187500,-55.75,11.0,32.25,74.75937499999999,0.38,0.27663790625,28.97
2021-06-21 11:57:49.500000000,-56.0,11.0,32.0,74.75999999999999,0.41,0.276718,28.97
2021-06-21 11:57:49.507812500,-55.75,11.0,32.0,74.760625,0.41,0.27663790625,28.97
2021-06-21 11:57:49.515625000,-55.5,11.0,32.0,74.76125,0.41,0.2765578125,28.97
2021-06-21 11:57:49.523437500,-55.25,11.0,32.0,74.761875,0.355,0.27647771875,28.97
2021-06-21 11:57:49.531250000,-55.0,11.0,32.0,74.7625,0.3,0.27639762500000004,28.97
2021-06-21 11:57:49.539062500,-55.25,11.25,32.25,74.763125,0.16999999999999998,0.27631753125,28.97
2021-06-21 11:57:49.546875000,-55.5,11.5,32.5,74.76375,0.04,0.2762374375,28.97
2021-06-21 11:57:49.554687500,-55.75,11.75,32.75,74.764375,-0.16499999999999998,0.27615734375,28.97
2021-06-21 11:57:49.562500000,-56.0,12.0,33.0,74.765,-0.37,0.27607725,28.97
2021-06-21 11:57:49.570312500,-55.75,11.75,33.0,74.765625,-0.655,0.27599715625,28.97
2021-06-21 11:57:49.578125000,-55.5,11.5,33.0,74.76625,-0.94,0.27591706250000003,28.97
2021-06-21 11:57:49.585937500,-55.25,11.25,33.0,74.766875,-1.27,0.27583696875,28.97
2021-06-21 11:57:49.593750000,-55.0,11.0,33.0,74.7675,-1.6,0.275756875,28.97
2021-06-21 11:57:49.601562500,-55.25,11.25,33.0,74.768125,-1.935,0.27567678125,28.97
2021-06-21 11:57:49.609375000,-55.5,11.5,33.0,74.76875,-2.27,0.2755966875,28.97
2021-06-21 11:57:49.617187500,-55.75,11.75,33.0,74.769375,-2.54,0.27551659375,28.97
2021-06-21 11:57:49.625000000,-56.0,12.0,33.0,74.77,-2.81,0.2754365,28.97
2021-06-21 11:57:49.632812500,-56.0,11.75,32.75,74.770625,-2.975,0.27535640625,28.97
2021-06-21 11:57:49.640625000,-56.0,11.5,32.5,74.77125,-3.14,0.2752763125,28.97
2021-06-21 11:57:49.648437500,-56.0,11.25,32.25,74.771875,-3.17,0.27519621875,28.97
2021-06-21 11:57:49.656250000,-56.0,11.0,32.0,74.7725,-3.2,0.275116125,28.97
2021-06-21 11:57:49.664062500,-55.75,11.0,32.0,74.773125,-3.125,0.27503603125,28.97
2021-06-21 11:57:49.671875000,-55.5,11.0,32.0,74.77374999999999,-3.05,0.27495593749999997,28.97
2021-06-21 11:57:49.679687500,-55.25,11.0,32.0,74.77437499999999,-2.905,0.27487584375,28.97
2021-06-21 11:57:49.687500000,-55.0,11.0,32.0,74.77499999999999,-2.76,0.27479575,28.97
2021-06-21 11:57:49.695312500,-55.25,11.0,32.0,74.77562499999999,-2.58,0.27471565625,28.97
2021-06-21 11:57:49.703125000,-55.5,11.0,32.0,74.77625,-2.4,0.2746355625,28.97
2021-06-21 11:57:49.710937500,-55.75,11.0,32.0,74.776875,-2.215,0.27455546875,28.97
2021-06-21 11:57:49.718750000,-56.0,11.0,32.0,74.7775,-2.03,0.27447537499999997,28.97
2021-06-21 11:57:49.726562500,-55.75,11.25,32.25,74.778125,-1.825,0.27439528125,28.97
2021-06-21 11:57:49.734375000,-55.5,11.5,32.5,74.77875,-1.62,0.2743151875,28.97
2021-06-21 11:57:49.742187500,-55.25,11.75,32.75,74.779375,-1.38,0.27423509375,28.97
2021-06-21 11:57:49.750000000,-55.0,12.0,33.0,74.78,-1.14,0.274155,28.97
2021-06-21 11:57:49.757812500,-55.0,12.0,33.0,74.780625,-0.865,0.27419503125,28.97
2021-06-21 11:57:49.765625000,-55.0,12.0,33.0,74.78125,-0.59,0.27423506249999996,28.97
2021-06-21 11:57:49.773437500,-55.0,12.0,33.0,74.781875,-0.315,0.27427509375,28.97
2021-06-21 11:57:49.781250000,-55.0,12.0,33.0,74.7825,-0.04,0.274315125,28.97
2021-06-21 11:57:49.789062500,-55.0,12.0,33.0,74.783125,0.18999999999999997,0.27435515625,28.97
2021-06-21 11:57:49.796875000,-55.0,12.0,33.0,74.78375,0.42,0.27439518749999997,28.97
2021-06-21 11:57:49.804687500,-55.0,12.0,33.0,74.784375,0.5549999999999999,0.27443521875,28.97
2021-06-21 11:57:49.812500000,-55.0,12.0,33.0,74.785,0.69,0.27447525,28.97
2021-06-21 11:57:49.820312500,-55.0,12.0,33.0,74.785625,0.715,0.27451528124999997,28.97
2021-06-21 11:57:49.828125000,-55.0,12.0,33.0,74.78625,0.74,0.2745553125,28.97
2021-06-21 11:57:49.835937500,-55.0,12.0,33.0,74.786875,0.685,0.27459534375,28.97
2021-06-21 11:57:49.843750000,-55.0,12.0,33.0,74.7875,0.63,0.274635375,28.97
2021-06-21 11:57:49.851562500,-55.0,12.0,32.75,74.788125,0.535,0.27467540625,28.97
2021-06-21 11:57:49.859375000,-55.0,12.0,32.5,74.78875,0.44,0.2747154375,28.97
2021-06-21 11:57:49.867187500,-55.0,12.0,32.25,74.78937499999999,0.355,0.27475546875,28.97
2021-06-21 11:57:49.875000000,-55.0,12.0,32.0,74.78999999999999,0.27,0.27479549999999997,28.97
2021-06-21 11:57:49.882812500,-55.0,12.0,32.0,74.79062499999999,0.20500000000000002,0.27483553125,28.97
2021-06-21 11:57:49.890625000,-55.0,12.0,32.0,74.79124999999999,0.14,0.2748755625,28.97
2021-06-21 11:57:49.898437500,-55.0,12.0,32.0,74.79187499999999,0.085,0.27491559375,28.97
2021-06-21 11:57:49.906250000,-55.0,12.0,32.0,74.7925,0.03,0.274955625,28.97
2021-06-21 11:57:49.914062500,-55.0,12.0,32.25,74.793125,-0.025,0.27499565625,28.97
2021-06-21 11:57:49.921875000,-55.0,12.0,32.5,74.79375,-0.08,0.2750356875,28.97
2021-06-21 11:57:49.929687500,-55.0,12.0,32.75,74.794375,-0.13,0.27507571875000003,28.97
2021-06-21 11:57:49.937500000,-55.0,12.0,33.0,74.795,-0.18,0.27511575,28.97
2021-06-21 11:57:49.945312500,-55.0,11.75,33.0,74.795625,-0.215,0.27515578125,28.97
2021-06-21 11:57:49.953125000,-55.0,11.5,33.0,74.79625,-0.25,0.2751958125,28.97
2021-06-21 11:57:49.960937500,-55.0,11.25,33.0,74.796875,-0.24,0.27523584375,28.97
2021-06-21 11:57:49.968750000,-55.0,11.0,33.0,74.7975,-0.23,0.275275875,28.97
2021-06-21 11:57:49.976562500,-55.25,11.25,33.0,74.798125,-0.185,0.27531590625,28.97
2021-06-21 11:57:49.984375000,-55.5,11.5,33.0,74.79875,-0.14,0.27535593750000004,28.97
2021-06-21 11:57:49.992187500,-55.75,11.75,33.0,74.799375,-0.085,0.27539596875,28.97
2021-06-21 11:57:50.000000000,-56.0,12.0,33.0,74.8,-0.03,0.275436,28.97
2021-06-21 11:57:50.007812500,-55.75,12.0,32.75,74.80039062499999,-0.0049999999999999975,0.27535593750000004,28.970625
2021-06-21 11:57:50.015625000,-55.5,12.0,32.5,74.80078125,0.02,0.275275875,28.971249999999998
2021-06-21 11:57:50.023437500,-55.25,12.0,32.25,74.801171875,0.0,0.2751958125,28.971874999999997
2021-06-21 11:57:50.031250000,-55.0,12.0,32.0,74.8015625,-0.02,0.27511575,28.9725
2021-06-21 11:57:50.039062500,-55.0,11.75,32.0,74.801953125,-0.075,0.2750356875,28.973125
2021-06-21 11:57:50.046875000,-55.0,11.5,32.0,74.80234374999999,-0.13,0.27495562500000004,28.97375
2021-06-21 11:57:50.054687500,-55.0,11.25,32.0,74.802734375,-0.16999999999999998,0.2748755625,28.974375
2021-06-21 11:57:50.062500000,-55.0,11.0,32.0,74.803125,-0.21,0.2747955,28.974999999999998
2021-06-21 11:57:50.070312500,-55.0,11.25,32.0,74.803515625,-0.185,0.2747154375,28.975624999999997
2021-06-21 11:57:50.078125000,-55.0,11.5,32.0,74.80390625,-0.16,0.274635375,28.97625
2021-06-21 11:57:50.085937500,-55.0,11.75,32.0,74.80429687499999,-0.045,0.27455531250000004,28.976875
2021-06-21 11:57:50.093750000,-55.0,12.0,32.0,74.8046875,0.07,0.27447525,28.9775
2021-06-21 11:57:50.101562500,-55.0,11.75,32.25,74.805078125,0.265,0.2743951875,28.978125
2021-06-21 11:57:50.109375000,-55.0,11.5,32.5,74.80546875,0.46,0.274315125,28.978749999999998
2021-06-21 11:57:50.117187500,-55.0,11.25,32.75,74.805859375,0.705,0.2742350625,28.979374999999997
2021-06-21 11:57:50.125000000,-55.0,11.0,33.0,74.80624999999999,0.95,0.27415500000000004,28.979999999999997
2021-06-21 11:57:50.132812500,-55.0,11.25,33.0,74.806640625,1.2,0.2740749375,28.980625
2021-06-21 11:57:50.140625000,-55.0,11.5,33.0,74.80703125,1.45,0.273994875,28.98125
2021-06-21 11:57:50.148437500,-55.0,11.75,33.0,74.807421875,1.665,0.2739148125,28.981875
2021-06-21 11:57:50.156250000,-55.0,12.0,33.0,74.8078125,1.88,0.27383475,28.982499999999998
2021-06-21 11:57:50.164062500,-55.0,12.0,33.0,74.80820312499999,2.04,0.2737546875,28.983124999999998
2021-06-21 11:57:50.171875000,-55.0,12.0,33.0,74.80859375,2.2,0.273674625,28.983749999999997
2021-06-21 11:57:50.179687500,-55.0,12.0,33.0,74.808984375,2.2750000000000004,0.2735945625,28.984375
2021-06-21 11:57:50.187500000,-55.0,12.0,33.0,74.809375,2.35,0.2735145,28.985
2021-06-21 11:57:50.195312500,-55.0,12.0,33.0,74.809765625,2.34,0.2734344375,28.985625
2021-06-21 11:57:50.203125000,-55.0,12.0,33.0,74.81015624999999,2.33,0.273354375,28.98625
2021-06-21 11:57:50.210937500,-55.0,12.0,33.0,74.810546875,2.24,0.2732743125,28.986874999999998
2021-06-21 11:57:50.218750000,-55.0,12.0,33.0,74.8109375,2.15,0.27319425,28.987499999999997
2021-06-21 11:57:50.226562500,-55.0,12.0,33.0,74.811328125,2.005,0.2731141875,28.988125
2021-06-21 11:57:50.234375000,-55.0,12.0,33.0,74.81171875,1.86,0.273034125,28.98875
2021-06-21 11:57:50.242187500,-55.0,12.0,33.0,74.81210937499999,1.7200000000000002,0.2729540625,28.989375
2021-06-21 11:57:50.250000000,-55.0,12.0,33.0,74.8125,1.58,0.272874,28.99
2021-06-21 11:57:50.257812500,-55.25,12.0,32.75,74.812890625,1.475,0.27291403125,28.99
2021-06-21 11:57:50.265625000,-55.5,12.0,32.5,74.81328125,1.37,0.2729540625,28.99
2021-06-21 11:57:50.273437500,-55.75,12.0,32.25,74.813671875,1.3,0.27299409375,28.99
2021-06-21 11:57:50.281250000,-56.0,12.0,32.0,74.81406249999999,1.23,0.273034125,28.99
2021-06-21 11:57:50.289062500,-56.0,11.75,32.0,74.814453125,1.17,0.27307415625,28.99
2021-06-21 11:57:50.296875000,-56.0,11.5,32.0,74.81484375,1.11,0.2731141875,28.99
2021-06-21 11:57:50.304687500,-56.0,11.25,32.0,74.815234375,1.02,0.27315421875,28.99
2021-06-21 11:57:50.312500000,-56.0,11.0,32.0,74.815625,0.93,0.27319424999999997,28.99
2021-06-21 11:57:50.320312500,-56.0,11.0,32.25,74.81601562499999,0.795,0.27323428125,28.99
2021-06-21 11:57:50.328125000,-56.0,11.0,32.5,74.81640625,0.66,0.2732743125,28.99
2021-06-21 11:57:50.335937500,-56.0,11.0,32.75,74.816796875,0.495,0.27331434375,28.99
2021-06-21 11:57:50.343750000,-56.0,11.0,33.0,74.8171875,0.33,0.273354375,28.99
2021-06-21 11:57:50.351562500,-55.75,11.0,32.75,74.817578125,0.17,0.27339440625,28.99
2021-06-21 11:57:50.359375000,-55.5,11.0,32.5,74.81796874999999,0.01,0.2734344375,28.99
2021-06-21 11:57:50.367187500,-55.25,11.0,32.25,74.818359375,-0.10500000000000001,0.27347446875,28.99
2021-06-21 11:57:50.375000000,-55.0,11.0,32.0,74.81875,-0.22,0.2735145,28.99
2021-06-21 11:57:50.382812500,-55.25,11.0,32.0,74.819140625,-0.275,0.27355453125,28.99
2021-06-21 11:57:50.390625000,-55.5,11.0,32.0,74.81953125,-0.33,0.27359456249999997,28.99
2021-06-21 11:57:50.398437500,-55.75,11.0,32.0,74.81992187499999,-0.355,0.27363459375,28.99
2021-06-21 11:57:50.406250000,-56.0,11.0,32.0,74.8203125,-0.38,0.273674625,28.99
2021-06-21 11:57:50.414062500,-56.0,11.25,32.0,74.820703125,-0.435,0.27371465624999997,28.99
2021-06-21 11:57:50.421875000,-56.0,11.5,32.0,74.82109375,-0.49,0.2737546875,28.99
2021-06-21 11:57:50.429687500,-56.0,11.75,32.0,74.821484375,-0.63,0.27379471875,28.99
2021-06-21 11:57:50.437500000,-56.0,12.0,32.0,74.82187499999999,-0.77,0.27383475,28.99
2021-06-21 11:57:50.445312500,-55.75,12.0,32.25,74.822265625,-1.0350000000000001,0.27387478125,28.99
2021-06-21 11:57:50.453125000,-55.5,12.0,32.5,74.82265625,-1.3,0.2739148125,28.99
2021-06-21 11:57:50.460937500,-55.25,12.0,32.75,74.823046875,-1.6949999999999998,0.27395484375,28.99
2021-06-21 11:57:50.468750000,-55.0,12.0,33.0,74.8234375,-2.09,0.27399487499999997,28.99
2021-06-21 11:57:50.476562500,-55.0,12.0,33.0,74.82382812499999,-2.545,0.27403490625,28.99
2021-06-21 11:57:50.484375000,-55.0,12.0,33.0,74.82421875,-3.0,0.2740749375,28.99
2021-06-21 11:57:50.492187500,-55.0,12.0,33.0,74.824609375,-3.425,0.27411496874999997,28.99
2021-06-21 11:57:50.500000000,-55.0,12.0,33.0,74.82499999999999,-3.85,0.274155,28.99
2021-06-21 11:57:50.507812500,-55.0,11.75,33.0,74.825390625,-4.12,0.27411496874999997,28.99
2021-06-21 11:57:50.515625000,-55.0,11.5,33.0,74.82578124999999,-4.39,0.2740749375,28.99
2021-06-21 11:57:50.523437500,-55.0,11.25,33.0,74.826171875,-4.415,0.27403490625,28.99
2021-06-21 11:57:50.531250000,-55.0,11.0,33.0,74.8265625,-4.44,0.27399487499999997,28.99
2021-06-21 11:57:50.539062500,-55.0,11.0,33.0,74.82695312499999,-4.2,0.27395484375,28.99
2021-06-21 11:57:50.546875000,-55.0,11.0,33.0,74.82734375,-3.96,0.2739148125,28.99
2021-06-21 11:57:50.554687500,-55.0,11.0,33.0,74.82773437499999,-3.52,0.27387478125,28.99
2021-06-21 11:57:50.562500000,-55.0,11.0,33.0,74.828125,-3.08,0.27383475,28.99
2021-06-21 11:57:50.570312500,-55.25,11.0,32.75,74.828515625,-2.58,0.27379471875,28.99
2021-06-21 11:57:50.578125000,-55.5,11.0,32.5,74.82890624999999,-2.08,0.2737546875,28.99
2021-06-21 11:57:50.585937500,-55.75,11.0,32.25,74.829296875,-1.665,0.27371465624999997,28.99
2021-06-21 11:57:50.593750000,-56.0,11.0,32.0,74.82968749999999,-1.25,0.273674625,28.99
2021-06-21 11:57:50.601562500,-55.75,11.0,32.0,74.830078125,-1.03,0.27363459375,28.99
2021-06-21 11:57:50.609375000,-55.5,11.0,32.0,74.83046875,-0.81,0.27359456249999997,28.99
2021-06-21 11:57:50.617187500,-55.25,11.0,32.0,74.83085937499999,-0.79,0.27355453125,28.99
2021-06-21 11:57:50.625000000,-55.0,11.0,32.0,74.83125,-0.77,0.2735145,28.99
2021-06-21 11:57:50.632812500,-55.25,11.0,32.0,74.83164062499999,-0.885,0.27347446875,28.99
2021-06-21 11:57:50.640625000,-55.5,11.0,32.0,74.83203125,-1.0,0.2734344375,28.99
2021-06-21 11:57:50.648437500,-55.75,11.0,32.0,74.832421875,-1.135,0.27339440625,28.99
2021-06-21 11:57:50.656250000,-56.0,11.0,32.0,74.83281249999999,-1.27,0.273354375,28.99
2021-06-21 11:57:50.664062500,-56.0,11.25,32.0,74.833203125,-1.335,0.27331434375,28.99
2021-06-21 11:57:50.671875000,-56.0,11.5,32.0,74.83359374999999,-1.4,0.2732743125,28.99
2021-06-21 11:57:50.679687500,-56.0,11.75,32.0,74.833984375,-1.345,0.27323428125,28.99
2021-06-21 11:57:50.687500000,-56.0,12.0,32.0,74.834375,-1.29,0.27319424999999997,28.99
2021-06-21 11:57:50.695312500,-55.75,12.0,32.0,74.83476562499999,-1.15,0.27315421875,28.99
2021-06-21 11:57:50.703125000,-55.5,12.0,32.0,74.83515625,-1.01,0.2731141875,28.99
2021-06-21 11:57:50.710937500,-55.25,12.0,32.0,74.83554687499999,-0.825,0.27307415625,28.99
2021-06-21 11:57:50.718750000,-55.0,12.0,32.0,74.8359375,-0.64,0.273034125,28.99
2021-06-21 11:57:50.726562500,-55.0,12.0,32.0,74.836328125,-0.475,0.27299409375,28.99
2021-06-21 11:57:50.734375000,-55.0,12.0,32.0,74.83671874999999,-0.31,0.2729540625,28.99
2021-06-21 11:57:50.742187500,-55.0,12.0,32.0,74.837109375,-0.175,0.27291403125,28.99
2021-06-21 11:57:50.750000000,-55.0,12.0,32.0,74.83749999999999,-0.04,0.272874,28.99
2021-06-21 11:57:50.757812500,-55.25,12.0,32.0,74.837890625,0.065,0.27291403125,28.99
2021-06-21 11:57:50.765625000,-55.5,12.0,32.0,74.83828125,0.17,0.2729540625,28.99
2021-06-21 11:57:50.773437500,-55.75,12.0,32.0,74.83867187499999,0.28500000000000003,0.27299409375,28.99
2021-06-21 11:57:50.781250000,-56.0,12.0,32.0,74.8390625,0.4,0.273034125,28.99
2021-06-21 11:57:50.789062500,-55.75,11.75,32.25,74.83945312499999,0.53,0.27307415625,28.99
2021-06-21 11:57:50.796875000,-55.5,11.5,32.5,74.83984375,0.66,0.2731141875,28.99
2021-06-21 11:57:50.804687500,-55.25,11.25,32.75,74.840234375,0.8049999999999999,0.27315421875,28.99
2021-06-21 11:57:50.812500000,-55.0,11.0,33.0,74.84062499999999,0.95,0.27319424999999997,28.99
2021-06-21 11:57:50.820312500,-55.0,11.0,32.75,74.841015625,1.0699999999999998,0.27323428125,28.99
2021-06-21 11:57:50.828125000,-55.0,11.0,32.5,74.84140624999999,1.19,0.2732743125,28.99
2021-06-21 11:57:50.835937500,-55.0,11.0,32.25,74.841796875,1.2349999999999999,0.27331434375,28.99
2021-06-21 11:57:50.843750000,-55.0,11.0,32.0,74.8421875,1.28,0.273354375,28.99
2021-06-21 11:57:50.851562500,-55.25,11.0,32.0,74.84257812499999,1.245,0.27339440625,28.99
2021-06-21 11:57:50.859375000,-55.5,11.0,32.0,74.84296875,1.21,0.2734344375,28.99
2021-06-21 11:57:50.867187500,-55.75,11.0,32.0,74.84335937499999,1.115,0.27347446875,28.99
2021-06-21 11:57:50.875000000,-56.0,11.0,32.0,74.84375,1.02,0.2735145,28.99
2021-06-21 11:57:50.882812500,-56.0,11.0,32.0,74.844140625,0.925,0.27355453125,28.99
2021-06-21 11:57:50.890625000,-56.0,11.0,32.0,74.84453124999999,0.83,0.27359456249999997,28.99
2021-06-21 11:57:50.898437500,-56.0,11.0,32.0,74.844921875,0.7849999999999999,0.27363459375,28.99
2021-06-21 11:57:50.906250000,-56.0,11.0,32.0,74.84531249999999,0.74,0.273674625,28.99
2021-06-21 11:57:50.914062500,-55.75,11.0,32.25,74.845703125,0.7849999999999999,0.27371465624999997,28.99
2021-06-21 11:57:50.921875000,-55.5,11.0,32.5,74.84609375,0.83,0.2737546875,28.99
2021-06-21 11:57:50.929687500,-55.25,11.0,32.75,74.84648437499999,0.96,0.27379471875,28.99
2021-06-21 11:57:50.937500000,-55.0,11.0,33.0,74.846875,1.09,0.27383475,28.99
2021-06-21 11:57:50.945312500,-55.0,11.25,32.75,74.84726562499999,1.2850000000000001,0.27387478125,28.99
2021-06-21 11:57:50.953125000,-55.0,11.5,32.5,74.84765625,1.48,0.2739148125,28.99
2021-06-21 11:57:50.960937500,-55.0,11.75,32.25,74.848046875,1.6949999999999998,0.27395484375,28.99
2021-06-21 11:57:50.968750000,-55.0,12.0,32.0,74.84843749999999,1.91,0.27399487499999997,28.99
2021-06-21 11:57:50.976562500,-55.25,12.0,32.25,74.848828125,2.1149999999999998,0.27403490625,28.99
2021-06-21 11:57:50.984375000,-55.5,12.0,32.5,74.84921874999999,2.32,0.2740749375,28.99
2021-06-21 11:57:50.992187500,-55.75,12.0,32.75,74.849609375,2.49,0.27411496874999997,28.99
2021-06-21 11:57:51.000000000,-56.0,12.0,33.0,74.85,2.66,0.274155,28.99
2021-06-21 11:57:51.007812500,-55.75,12.0,33.0,74.8509375,2.785,0.27419503125,28.989375
2021-06-21 11:57:51.015625000,-55.5,12.0,33.0,74.85187499999999,2.91,0.27423506249999996,28.98875
2021-06-21 11:57:51.023437500,-55.25,12.0,33.0,74.8528125,2.955,0.27427509375,28.988125
2021-06-21 11:57:51.031250000,-55.0,12.0,33.0,74.85374999999999,3.0,0.274315125,28.987499999999997
2021-06-21 11:57:51.039062500,-55.0,12.0,32.75,74.8546875,2.95,0.27435515625,28.986874999999998
2021-06-21 11:57:51.046875000,-55.0,12.0,32.5,74.85562499999999,2.9,0.27439518749999997,28.98625
2021-06-21 11:57:51.054687500,-55.0,12.0,32.25,74.8565625,2.755,0.27443521875,28.985625
2021-06-21 11:57:51.062500000,-55.0,12.0,32.0,74.85749999999999,2.61,0.27447525,28.985
2021-06-21 11:57:51.070312500,-55.25,11.75,32.25,74.8584375,2.365,0.27451528124999997,28.984375
2021-06-21 11:57:51.078125000,-55.5,11.5,32.5,74.859375,2.12,0.2745553125,28.983749999999997
2021-06-21 11:57:51.085937500,-55.75,11.25,32.75,74.86031249999999,1.81,0.27459534375,28.983124999999998
2021-06-21 11:57:51.093750000,-56.0,11.0,33.0,74.86125,1.5,0.274635375,28.982499999999998
2021-06-21 11:57:51.101562500,-55.75,11.0,32.75,74.86218749999999,1.17,0.27467540625,28.981875
2021-06-21 11:57:51.109375000,-55.5,11.0,32.5,74.863125,0.84,0.2747154375,28.98125
2021-06-21 11:57:51.117187500,-55.25,11.0,32.25,74.86406249999999,0.5249999999999999,0.27475546875,28.980625
2021-06-21 11:57:51.125000000,-55.0,11.0,32.0,74.865,0.21,0.27479549999999997,28.979999999999997
2021-06-21 11:57:51.132812500,-55.0,11.25,32.0,74.8659375,-0.05000000000000002,0.27483553125,28.979374999999997
2021-06-21 11:57:51.140625000,-55.0,11.5,32.0,74.866875,-0.31,0.2748755625,28.978749999999998
2021-06-21 11:57:51.148437500,-55.0,11.75,32.0,74.8678125,-0.5,0.27491559375,28.978125
2021-06-21 11:57:51.156250000,-55.0,12.0,32.0,74.86874999999999,-0.69,0.274955625,28.9775
2021-06-21 11:57:51.164062500,-55.0,11.75,32.0,74.8696875,-0.7949999999999999,0.27499565625,28.976875
2021-06-21 11:57:51.171875000,-55.0,11.5,32.0,74.87062499999999,-0.9,0.2750356875,28.97625
2021-06-21 11:57:51.179687500,-55.0,11.25,32.0,74.8715625,-0.94,0.27507571875000003,28.975624999999997
2021-06-21 11:57:51.187500000,-55.0,11.0,32.0,74.8725,-0.98,0.27511575,28.974999999999998
2021-06-21 11:57:51.195312500,-55.0,11.0,32.25,74.8734375,-0.995,0.27515578125,28.974375
2021-06-21 11:57:51.203125000,-55.0,11.0,32.5,74.874375,-1.01,0.2751958125,28.97375
2021-06-21 11:57:51.210937500,-55.0,11.0,32.75,74.87531249999999,-1.045,0.27523584375,28.973125
2021-06-21 11:57:51.218750000,-55.0,11.0,33.0,74.87625,-1.08,0.275275875,28.9725
2021-06-21 11:57:51.226562500,-55.25,11.0,33.0,74.87718749999999,-1.1600000000000001,0.27531590625,28.971874999999997
2021-06-21 11:57:51.234375000,-55.5,11.0,33.0,74.878125,-1.24,0.27535593750000004,28.971249999999998
2021-06-21 11:57:51.242187500,-55.75,11.0,33.0,74.87906249999999,-1.335,0.27539596875,28.970625
2021-06-21 11:57:51.250000000,-56.0,11.0,33.0,74.88,-1.43,0.275436,28.97
2021-06-21 11:57:51.257812500,-55.75,11.25,33.0,74.8809375,-1.48,0.27531590625,28.97
2021-06-21 11:57:51.265625000,-55.5,11.5,33.0,74.881875,-1.53,0.2751958125,28.97
2021-06-21 11:57:51.273437500,-55.25,11.75,33.0,74.8828125,-1.46,0.27507571875000003,28.97
2021-06-21 11:57:51.281250000,-55.0,12.0,33.0,74.88374999999999,-1.39,0.27495562500000004,28.97
2021-06-21 11:57:51.289062500,-55.0,12.0,33.0,74.8846875,-1.19,0.27483553125,28.97
2021-06-21 11:57:51.296875000,-55.0,12.0,33.0,74.88562499999999,-0.99,0.2747154375,28.97
2021-06-21 11:57:51.304687500,-55.0,12.0,33.0,74.8865625,-0.69,0.27459534375,28.97
2021-06-21 11:57:51.312500000,-55.0,12.0,33.0,74.88749999999999,-0.39,0.27447525,28.97
2021-06-21 11:57:51.320312500,-55.0,12.0,33.0,74.8884375,-0.09499999999999997,0.27435515625,28.97
2021-06-21 11:57:51.328125000,-55.0,12.0,33.0,74.889375,0.2,0.2742350625,28.97
2021-06-21 11:57:51.335937500,-55.0,12.0,33.0,74.8903125,0.395,0.27411496875,28.97
2021-06-21 11:57:51.343750000,-55.0,12.0,33.0,74.89125,0.59,0.27399487499999997,28.97
2021-06-21 11:57:51.351562500,-55.0,12.0,33.0,74.89218749999999,0.6399999999999999,0.27387478125,28.97
2021-06-21 11:57:51.359375000,-55.0,12.0,33.0,74.893125,0.69,0.2737546875,28.97
2021-06-21 11:57:51.367187500,-55.0,12.0,33.0,74.89406249999999,0.6299999999999999,0.27363459375,28.97
2021-06-21 11:57:51.375000000,-55.0,12.0,33.0,74.895,0.57,0.2735145,28.97
2021-06-21 11:57:51.382812500,-55.0,11.75,32.75,74.8959375,0.45999999999999996,0.27339440625,28.97
2021-06-21 11:57:51.390625000,-55.0,11.5,32.5,74.896875,0.35,0.2732743125,28.97
2021-06-21 11:57:51.398437500,-55.0,11.25,32.25,74.8978125,0.26,0.27315421875,28.97
2021-06-21 11:57:51.406250000,-55.0,11.0,32.0,74.89874999999999,0.17,0.273034125,28.97
2021-06-21 11:57:51.414062500,-55.0,11.0,32.25,74.8996875,0.115,0.27291403124999997,28.97
2021-06-21 11:57:51.421875000,-55.0,11.0,32.5,74.90062499999999,0.06,0.27279393749999997,28.97
2021-06-21 11:57:51.429687500,-55.0,11.0,32.75,74.9015625,0.04,0.27267384375,28.97
2021-06-21 11:57:51.437500000,-55.0,11.0,33.0,74.9025,0.02,0.27255375,28.97
2021-06-21 11:57:51.445312500,-55.25,11.0,32.75,74.9034375,0.01,0.27243365625,28.97
2021-06-21 11:57:51.453125000,-55.5,11.0,32.5,74.904375,0.0,0.2723135625,28.97
2021-06-21 11:57:51.460937500,-55.75,11.0,32.25,74.9053125,0.01,0.27219346875,28.97
2021-06-21 11:57:51.468750000,-56.0,11.0,32.0,74.90625,0.02,0.27207337499999995,28.97
2021-06-21 11:57:51.476562500,-55.75,11.25,32.0,74.90718749999999,0.075,0.27195328124999996,28.97
2021-06-21 11:57:51.484375000,-55.5,11.5,32.0,74.908125,0.13,0.27183318749999996,28.97
2021-06-21 11:57:51.492187500,-55.25,11.75,32.0,74.90906249999999,0.24,0.27171309374999997,28.97
2021-06-21 11:57:51.500000000,-55.0,12.0,32.0,74.91,0.35,0.271593,28.97
2021-06-21 11:57:51.507812500,-55.0,12.0,32.0,74.9109375,0.49,0.27167306249999995,28.97
2021-06-21 11:57:51.515625000,-55.0,12.0,32.0,74.911875,0.63,0.271753125,28.97
2021-06-21 11:57:51.523437500,-55.0,12.0,32.0,74.9128125,0.735,0.27183318749999996,28.97
2021-06-21 11:57:51.531250000,-55.0,12.0,32.0,74.91375,0.84,0.27191325,28.97
2021-06-21 11:57:51.539062500,-55.0,12.0,32.25,74.9146875,0.84,0.2719933125,28.97
2021-06-21 11:57:51.546875000,-55.0,12.0,32.5,74.91562499999999,0.84,0.27207337499999995,28.97
2021-06-21 11:57:51.554687500,-55.0,12.0,32.75,74.9165625,0.71,0.2721534375,28.97
2021-06-21 11:57:51.562500000,-55.0,12.0,33.0,74.91749999999999,0.58,0.27223349999999996,28.97
2021-06-21 11:57:51.570312500,-55.0,11.75,33.0,74.9184375,0.355,0.2723135625,28.97
2021-06-21 11:57:51.578125000,-55.0,11.5,33.0,74.919375,0.13,0.272393625,28.97
2021-06-21 11:57:51.585937500,-55.0,11.25,33.0,74.9203125,-0.1,0.27247368749999995,28.97
2021-06-21 11:57:51.593750000,-55.0,11.0,33.0,74.92125,-0.33,0.27255375,28.97
2021-06-21 11:57:51.601562500,-55.0,11.25,32.75,74.92218749999999,-0.49,0.27263381249999996,28.97
2021-06-21 11:57:51.609375000,-55.0,11.5,32.5,74.923125,-0.65,0.272713875,28.97
2021-06-21 11:57:51.617187500,-55.0,11.75,32.25,74.92406249999999,-0.7,0.27279393749999997,28.97
2021-06-21 11:57:51.625000000,-55.0,12.0,32.0,74.925,-0.75,0.27287399999999995,28.97
2021-06-21 11:57:51.632812500,-55.25,12.0,32.0,74.9259375,-0.69,0.2729540625,28.97
2021-06-21 11:57:51.640625000,-55.5,12.0,32.0,74.926875,-0.63,0.27303412499999996,28.97
2021-06-21 11:57:51.648437500,-55.75,12.0,32.0,74.9278125,-0.5,0.2731141875,28.97
2021-06-21 11:57:51.656250000,-56.0,12.0,32.0,74.92875,-0.37,0.27319424999999997,28.97
2021-06-21 11:57:51.664062500,-55.75,11.75,32.0,74.9296875,-0.19,0.2732743125,28.97
2021-06-21 11:57:51.671875000,-55.5,11.5,32.0,74.93062499999999,-0.01,0.273354375,28.97
2021-06-21 11:57:51.679687500,-55.25,11.25,32.0,74.9315625,0.19,0.27343443749999996,28.97
2021-06-21 11:57:51.687500000,-55.0,11.0,32.0,74.9325,0.39,0.2735145,28.97
2021-06-21 11:57:51.695312500,-55.25,11.0,32.0,74.9334375,0.595,0.27359456249999997,28.97
2021-06-21 11:57:51.703125000,-55.5,11.0,32.0,74.934375,0.8,0.273674625,28.97
2021-06-21 11:57:51.710937500,-55.75,11.0,32.0,74.9353125,0.98,0.2737546875,28.97
2021-06-21 11:57:51.718750000,-56.0,11.0,32.0,74.93625,1.16,0.27383474999999996,28.97
2021-06-21 11:57:51.726562500,-56.0,11.0,32.0,74.9371875,1.29,0.2739148125,28.97
2021-06-21 11:57:51.734375000,-56.0,11.0,32.0,74.938125,1.42,0.27399487499999997,28.97
2021-06-21 11:57:51.742187500,-56.0,11.0,32.0,74.93906249999999,1.4649999999999999,0.2740749375,28.97
2021-06-21 11:57:51.750000000,-56.0,11.0,32.0,74.94,1.51,0.274155,28.97
2021-06-21 11:57:51.757812500,-55.75,11.0,32.0,74.9409375,1.46,0.27411496874999997,28.97
2021-06-21 11:57:51.765625000,-55.5,11.0,32.0,74.941875,1.41,0.2740749375,28.97
2021-06-21 11:57:51.773437500,-55.25,11.0,32.0,74.9428125,1.295,0.27403490625,28.97
2021-06-21 11:57:51.781250000,-55.0,11.0,32.0,74.94375,1.18,0.27399487499999997,28.97
2021-06-21 11:57:51.789062500,-55.0,11.25,32.0,74.9446875,1.05,0.27395484375,28.97
2021-06-21 11:57:51.796875000,-55.0,11.5,32.0,74.94562499999999,0.92,0.2739148125,28.97
2021-06-21 11:57:51.804687500,-55.0,11.75,32.0,74.9465625,0.835,0.27387478125,28.97
2021-06-21 11:57:51.812500000,-55.0,12.0,32.0,74.94749999999999,0.75,0.27383475,28.97
2021-06-21 11:57:51.820312500,-55.25,12.0,32.0,74.9484375,0.74,0.27379471875,28.97
2021-06-21 11:57:51.828125000,-55.5,12.0,32.0,74.949375,0.73,0.2737546875,28.97
2021-06-21 11:57:51.835937500,-55.75,12.0,32.0,74.9503125,0.8049999999999999,0.27371465624999997,28.97
2021-06-21 11:57:51.843750000,-56.0,12.0,32.0,74.95125,0.88,0.273674625,28.97
2021-06-21 11:57:51.851562500,-56.0,12.0,32.25,74.9521875,0.99,0.27363459375,28.97
2021-06-21 11:57:51.859375000,-56.0,12.0,32.5,74.953125,1.1,0.27359456249999997,28.97
2021-06-21 11:57:51.867187500,-56.0,12.0,32.75,74.95406249999999,1.195,0.27355453125,28.97
2021-06-21 11:57:51.875000000,-56.0,12.0,33.0,74.955,1.29,0.2735145,28.97
2021-06-21 11:57:51.882812500,-55.75,12.0,32.75,74.9559375,1.32,0.27347446875,28.97
2021-06-21 11:57:51.890625000,-55.5,12.0,32.5,74.956875,1.35,0.2734344375,28.97
2021-06-21 11:57:51.898437500,-55.25,12.0,32.25,74.9578125,1.2850000000000001,0.27339440625,28.97
2021-06-21 11:57:51.906250000,-55.0,12.0,32.0,74.95875,1.22,0.273354375,28.97
2021-06-21 11:57:51.914062500,-55.0,11.75,32.0,74.9596875,1.08,0.27331434375,28.97
2021-06-21 11:57:51.921875000,-55.0,11.5,32.0,74.960625,0.94,0.2732743125,28.97
2021-06-21 11:57:51.929687500,-55.0,11.25,32.0,74.9615625,0.7549999999999999,0.27323428125,28.97
2021-06-21 11:57:51.937500000,-55.0,11.0,32.0,74.9625,0.57,0.27319424999999997,28.97
2021-06-21 11:57:51.945312500,-55.25,11.0,32.0,74.9634375,0.385,0.27315421875,28.97
2021-06-21 11:57:51.953125000,-55.5,11.0,32.0,74.964375,0.2,0.2731141875,28.97
2021-06-21 11:57:51.960937500,-55.75,11.0,32.0,74.9653125,0.025000000000000022,0.27307415625,28.97
2021-06-21 11:57:51.968750000,-56.0,11.0,32.0,74.96625,-0.15,0.273034125,28.97
2021-06-21 11:57:51.976562500,-56.0,11.0,32.0,74.9671875,-0.31999999999999995,0.27299409375,28.97
2021-06-21 11:57:51.984375000,-56.0,11.0,32.0,74.968125,-0.49,0.2729540625,28.97
2021-06-21 11:57:51.992187500,-56.0,11.0,32.0,74.96906249999999,-0.6799999999999999,0.27291403125,28.97
2021-06-21 11:57:52.000000000,-56.0,11.0,32.0,74.97,-0.87,0.272874,28.97
2021-06-21 11:57:52.007812500,-55.75,11.0,32.0,74.970859375,-1.08,0.27291403125,28.97
2021-06-21 11:57:52.015625000,-55.5,11.0,32.0,74.97171875,-1.29,0.2729540625,28.97
2021-06-21 11:57:52.023437500,-55.25,11.0,32.0,74.972578125,-1.51,0.27299409375,28.97
2021-06-21 11:57:52.031250000,-55.0,11.0,32.0,74.9734375,-1.73,0.273034125,28.97
2021-06-21 11:57:52.039062500,-55.25,11.25,32.0,74.974296875,-1.91,0.27307415625,28.97
2021-06-21 11:57:52.046875000,-55.5,11.5,32.0,74.97515625,-2.09,0.2731141875,28.97
2021-06-21 11:57:52.054687500,-55.75,11.75,32.0,74.976015625,-2.1799999999999997,0.27315421875,28.97
2021-06-21 11:57:52.062500000,-56.0,12.0,32.0,74.97687499999999,-2.27,0.27319424999999997,28.97
2021-06-21 11:57:52.070312500,-55.75,11.75,32.0,74.977734375,-2.25,0.27323428125,28.97
2021-06-21 11:57:52.078125000,-55.5,11.5,32.0,74.97859375,-2.23,0.2732743125,28.97
2021-06-21 11:57:52.085937500,-55.25,11.25,32.0,74.97945312499999,-2.115,0.27331434375,28.97
2021-06-21 11:57:52.093750000,-55.0,11.0,32.0,74.9803125,-2.0,0.273354375,28.97
2021-06-21 11:57:52.101562500,-55.0,11.0,32.25,74.981171875,-1.85,0.27339440625,28.97
2021-06-21 11:57:52.109375000,-55.0,11.0,32.5,74.98203125,-1.7,0.2734344375,28.97
2021-06-21 11:57:52.117187500,-55.0,11.0,32.75,74.982890625,-1.575,0.27347446875,28.97
2021-06-21 11:57:52.125000000,-55.0,11.0,33.0,74.98375,-1.45,0.2735145,28.97
2021-06-21 11:57:52.132812500,-55.25,11.0,33.0,74.984609375,-1.375,0.27355453125,28.97
2021-06-21 11:57:52.140625000,-55.5,11.0,33.0,74.98546875,-1.3,0.27359456249999997,28.97
2021-06-21 11:57:52.148437500,-55.75,11.0,33.0,74.986328125,-1.2850000000000001,0.27363459375,28.97
2021-06-21 11:57:52.156250000,-56.0,11.0,33.0,74.9871875,-1.27,0.273674625,28.97
2021-06-21 11:57:52.164062500,-55.75,11.0,32.75,74.988046875,-1.27,0.27371465624999997,28.97
2021-06-21 11:57:52.171875000,-55.5,11.0,32.5,74.98890625,-1.27,0.2737546875,28.97
2021-06-21 11:57:52.179687500,-55.25,11.0,32.25,74.989765625,-1.25,0.27379471875,28.97
2021-06-21 11:57:52.187500000,-55.0,11.0,32.0,74.990625,-1.23,0.27383475,28.97
2021-06-21 11:57:52.195312500,-55.25,11.0,32.0,74.991484375,-1.165,0.27387478125,28.97
2021-06-21 11:57:52.203125000,-55.5,11.0,32.0,74.99234375,-1.1,0.2739148125,28.97
2021-06-21 11:57:52.210937500,-55.75,11.0,32.0,74.993203125,-1.01,0.27395484375,28.97
2021-06-21 11:57:52.218750000,-56.0,11.0,32.0,74.9940625,-0.92,0.27399487499999997,28.97
2021-06-21 11:57:52.226562500,-56.0,11.0,32.0,74.994921875,-0.845,0.27403490625,28.97
2021-06-21 11:57:52.234375000,-56.0,11.0,32.0,74.99578125,-0.77,0.2740749375,28.97
2021-06-21 11:57:52.242187500,-56.0,11.0,32.0,74.996640625,-0.76,0.27411496874999997,28.97
2021-06-21 11:57:52.250000000,-56.0,11.0,32.0,74.9975,-0.75,0.274155,28.97
2021-06-21 11:57:52.257812500,-55.75,11.0,32.0,74.99835937499999,-0.835,0.27403490625,28.97
2021-06-21 11:57:52.265625000,-55.5,11.0,32.0,74.99921875,-0.92,0.2739148125,28.97
2021-06-21 11:57:52.273437500,-55.25,11.0,32.0,75.000078125,-1.08,0.27379471875,28.97
2021-06-21 11:57:52.281250000,-55.0,11.0,32.0,75.00093749999999,-1.24,0.273674625,28.97
2021-06-21 11:57:52.289062500,-55.0,11.0,32.25,75.001796875,-1.435,0.27355453125,28.97
2021-06-21 11:57:52.296875000,-55.0,11.0,32.5,75.00265625,-1.63,0.27343443749999996,28.97
2021-06-21 11:57:52.304687500,-55.0,11.0,32.75,75.003515625,-1.805,0.27331434374999997,28.97
2021-06-21 11:57:52.312500000,-55.0,11.0,33.0,75.004375,-1.98,0.27319424999999997,28.97
2021-06-21 11:57:52.320312500,-55.25,11.25,32.75,75.005234375,-2.0949999999999998,0.27307415625,28.97
2021-06-21 11:57:52.328125000,-55.5,11.5,32.5,75.00609375,-2.21,0.2729540625,28.97
2021-06-21 11:57:52.335937500,-55.75,11.75,32.25,75.006953125,-2.245,0.27283396875,28.97
2021-06-21 11:57:52.343750000,-56.0,12.0,32.0,75.0078125,-2.28,0.272713875,28.97
2021-06-21 11:57:52.351562500,-56.0,11.75,32.0,75.008671875,-2.25,0.27259378125,28.97
2021-06-21 11:57:52.359375000,-56.0,11.5,32.0,75.00953125,-2.22,0.2724736875,28.97
2021-06-21 11:57:52.367187500,-56.0,11.25,32.0,75.010390625,-2.125,0.27235359375,28.97
2021-06-21 11:57:52.375000000,-56.0,11.0,32.0,75.01125,-2.03,0.2722335,28.97
2021-06-21 11:57:52.382812500,-55.75,11.25,32.0,75.012109375,-1.855,0.27211340624999997,28.97
2021-06-21 11:57:52.390625000,-55.5,11.5,32.0,75.01296875,-1.68,0.2719933125,28.97
2021-06-21 11:57:52.398437500,-55.25,11.75,32.0,75.013828125,-1.41,0.27187321875,28.97
2021-06-21 11:57:52.406250000,-55.0,12.0,32.0,75.0146875,-1.14,0.271753125,28.97
2021-06-21 11:57:52.414062500,-55.25,11.75,32.0,75.015546875,-0.7749999999999999,0.27163303125,28.97
2021-06-21 11:57:52.421875000,-55.5,11.5,32.0,75.01640625,-0.41,0.2715129375,28.97
2021-06-21 11:57:52.429687500,-55.75,11.25,32.0,75.017265625,0.0,0.27139284375,28.97
2021-06-21 11:57:52.437500000,-56.0,11.0,32.0,75.018125,0.41,0.27127275,28.97
2021-06-21 11:57:52.445312500,-55.75,11.0,32.0,75.018984375,0.7650000000000001,0.27115265625,28.97
2021-06-21 11:57:52.453125000,-55.5,11.0,32.0,75.01984374999999,1.12,0.2710325625,28.97
2021-06-21 11:57:52.460937500,-55.25,11.0,32.0,75.020703125,1.315,0.27091246874999997,28.97
2021-06-21 11:57:52.468750000,-55.0,11.0,32.0,75.0215625,1.51,0.270792375,28.97
2021-06-21 11:57:52.476562500,-55.25,11.0,32.0,75.02242187499999,1.49,0.27067228125,28.97
2021-06-21 11:57:52.484375000,-55.5,11.0,32.0,75.02328125,1.47,0.2705521875,28.97
2021-06-21 11:57:52.492187500,-55.75,11.0,32.0,75.024140625,1.275,0.27043209375,28.97
2021-06-21 11:57:52.500000000,-56.0,11.0,32.0,75.025,1.08,0.270312,28.97
2021-06-21 11:57:52.507812500,-55.75,11.0,32.0,75.025859375,0.835,0.2703920625,28.97
2021-06-21 11:57:52.515625000,-55.5,11.0,32.0,75.02671875,0.59,0.270472125,28.97
2021-06-21 11:57:52.523437500,-55.25,11.0,32.0,75.027578125,0.425,0.2705521875,28.97
2021-06-21 11:57:52.531250000,-55.0,11.0,32.0,75.0284375,0.26,0.27063225,28.97
2021-06-21 11:57:52.539062500,-55.0,11.0,32.0,75.029296875,0.265,0.2707123125,28.97
2021-06-21 11:57:52.546875000,-55.0,11.0,32.0,75.03015625,0.27,0.270792375,28.97
2021-06-21 11:57:52.554687500,-55.0,11.0,32.0,75.031015625,0.41000000000000003,0.2708724375,28.97
2021-06-21 11:57:52.562500000,-55.0,11.0,32.0,75.031875,0.55,0.2709525,28.97
2021-06-21 11:57:52.570312500,-55.25,11.25,32.0,75.032734375,0.73,0.2710325625,28.97
2021-06-21 11:57:52.578125000,-55.5,11.5,32.0,75.03359375,0.91,0.271112625,28.97
2021-06-21 11:57:52.585937500,-55.75,11.75,32.0,75.034453125,0.9950000000000001,0.2711926875,28.97
2021-06-21 11:57:52.593750000,-56.0,12.0,32.0,75.0353125,1.08,0.27127275,28.97
2021-06-21 11:57:52.601562500,-56.0,12.0,32.0,75.036171875,1.01,0.2713528125,28.97
2021-06-21 11:57:52.609375000,-56.0,12.0,32.0,75.03703125,0.94,0.271432875,28.97
2021-06-21 11:57:52.617187500,-56.0,12.0,32.0,75.037890625,0.735,0.2715129375,28.97
2021-06-21 11:57:52.625000000,-56.0,12.0,32.0,75.03875,0.53,0.271593,28.97
2021-06-21 11:57:52.632812500,-55.75,11.75,32.0,75.039609375,0.29500000000000004,0.2716730625,28.97
2021-06-21 11:57:52.640625000,-55.5,11.5,32.0,75.04046875,0.06,0.271753125,28.97
2021-06-21 11:57:52.648437500,-55.25,11.25,32.0,75.04132812499999,-0.08500000000000002,0.2718331875,28.97
2021-06-21 11:57:52.656250000,-55.0,11.0,32.0,75.0421875,-0.23,0.27191325,28.97
2021-06-21 11:57:52.664062500,-55.25,11.0,32.0,75.043046875,-0.23,0.27199331250000003,28.97
2021-06-21 11:57:52.671875000,-55.5,11.0,32.0,75.04390624999999,-0.23,0.272073375,28.97
2021-06-21 11:57:52.679687500,-55.75,11.0,32.0,75.044765625,-0.095,0.2721534375,28.97
2021-06-21 11:57:52.687500000,-56.0,11.0,32.0,75.045625,0.04,0.2722335,28.97
2021-06-21 11:57:52.695312500,-56.0,11.0,32.0,75.04648437499999,0.24000000000000002,0.2723135625,28.97
2021-06-21 11:57:52.703125000,-56.0,11.0,32.0,75.04734375,0.44,0.27239362500000003,28.97
2021-06-21 11:57:52.710937500,-56.0,11.0,32.0,75.048203125,0.62,0.2724736875,28.97
2021-06-21 11:57:52.718750000,-56.0,11.0,32.0,75.0490625,0.8,0.27255375,28.97
2021-06-21 11:57:52.726562500,-55.75,11.25,32.0,75.049921875,0.895,0.2726338125,28.97
2021-06-21 11:57:52.734375000,-55.5,11.5,32.0,75.05078125,0.99,0.272713875,28.97
2021-06-21 11:57:52.742187500,-55.25,11.75,32.0,75.051640625,1.0150000000000001,0.2727939375,28.97
2021-06-21 11:57:52.750000000,-55.0,12.0,32.0,75.0525,1.04,0.272874,28.97
2021-06-21 11:57:52.757812500,-55.25,11.75,32.0,75.053359375,1.0550000000000002,0.2727939375,28.97
2021-06-21 11:57:52.765625000,-55.5,11.5,32.0,75.05421875,1.07,0.272713875,28.97
2021-06-21 11:57:52.773437500,-55.75,11.25,32.0,75.055078125,1.145,0.2726338125,28.97
2021-06-21 11:57:52.781250000,-56.0,11.0,32.0,75.0559375,1.22,0.27255375,28.97
2021-06-21 11:57:52.789062500,-56.0,11.0,32.25,75.056796875,1.385,0.2724736875,28.97
2021-06-21 11:57:52.796875000,-56.0,11.0,32.5,75.05765625,1.55,0.27239362500000003,28.97
2021-06-21 11:57:52.804687500,-56.0,11.0,32.75,75.058515625,1.76,0.2723135625,28.97
2021-06-21 11:57:52.812500000,-56.0,11.0,33.0,75.059375,1.97,0.2722335,28.97
2021-06-21 11:57:52.820312500,-56.0,11.0,32.75,75.060234375,2.135,0.2721534375,28.97
2021-06-21 11:57:52.828125000,-56.0,11.0,32.5,75.06109375,2.3,0.272073375,28.97
2021-06-21 11:57:52.835937500,-56.0,11.0,32.25,75.061953125,2.32,0.27199331250000003,28.97
2021-06-21 11:57:52.843750000,-56.0,11.0,32.0,75.06281249999999,2.34,0.27191325,28.97
2021-06-21 11:57:52.851562500,-56.0,11.0,32.25,75.063671875,2.165,0.2718331875,28.97
2021-06-21 11:57:52.859375000,-56.0,11.0,32.5,75.06453125,1.99,0.271753125,28.97
2021-06-21 11:57:52.867187500,-56.0,11.0,32.75,75.06539062499999,1.655,0.2716730625,28.97
2021-06-21 11:57:52.875000000,-56.0,11.0,33.0,75.06625,1.32,0.271593,28.97
2021-06-21 11:57:52.882812500,-55.75,11.0,32.75,75.067109375,0.9400000000000001,0.2715129375,28.97
2021-06-21 11:57:52.890625000,-55.5,11.0,32.5,75.06796874999999,0.56,0.271432875,28.97
2021-06-21 11:57:52.898437500,-55.25,11.0,32.25,75.068828125,0.23500000000000004,0.2713528125,28.97
2021-06-21 11:57:52.906250000,-55.0,11.0,32.0,75.0696875,-0.09,0.27127275,28.97
2021-06-21 11:57:52.914062500,-55.0,11.0,32.0,75.070546875,-0.30000000000000004,0.2711926875,28.97
2021-06-21 11:57:52.921875000,-55.0,11.0,32.0,75.07140625,-0.51,0.271112625,28.97
2021-06-21 11:57:52.929687500,-55.0,11.0,32.0,75.072265625,-0.615,0.2710325625,28.97
2021-06-21 11:57:52.937500000,-55.0,11.0,32.0,75.073125,-0.72,0.2709525,28.97
2021-06-21 11:57:52.945312500,-55.0,11.0,32.0,75.073984375,-0.7849999999999999,0.2708724375,28.97
2021-06-21 11:57:52.953125000,-55.0,11.0,32.0,75.07484375,-0.85,0.270792375,28.97
2021-06-21 11:57:52.960937500,-55.0,11.0,32.0,75.075703125,-0.9199999999999999,0.2707123125,28.97
2021-06-21 11:57:52.968750000,-55.0,11.0,32.0,75.0765625,-0.99,0.27063225,28.97
2021-06-21 11:57:52.976562500,-55.0,11.0,32.25,75.077421875,-1.075,0.2705521875,28.97
2021-06-21 11:57:52.984375000,-55.0,11.0,32.5,75.07828125,-1.16,0.270472125,28.97
2021-06-21 11:57:52.992187500,-55.0,11.0,32.75,75.079140625,-1.225,0.2703920625,28.97
2021-06-21 11:57:53.000000000,-55.0,11.0,33.0,75.08,-1.29,0.270312,28.97
2021-06-21 11:57:53.007812500,-55.25,11.25,32.75,75.08039062499999,-1.31,0.270312,28.97
2021-06-21 11:57:53.015625000,-55.5,11.5,32.5,75.08078125,-1.33,0.270312,28.97
2021-06-21 11:57:53.023437500,-55.75,11.75,32.25,75.081171875,-1.3,0.270312,28.97
2021-06-21 11:57:53.031250000,-56.0,12.0,32.0,75.0815625,-1.27,0.270312,28.97
2021-06-21 11:57:53.039062500,-56.0,11.75,32.0,75.081953125,-1.26,0.270312,28.97
2021-06-21 11:57:53.046875000,-56.0,11.5,32.0,75.08234374999999,-1.25,0.270312,28.97
2021-06-21 11:57:53.054687500,-56.0,11.25,32.0,75.082734375,-1.315,0.270312,28.97
2021-06-21 11:57:53.062500000,-56.0,11.0,32.0,75.083125,-1.38,0.270312,28.97
2021-06-21 11:57:53.070312500,-55.75,11.0,32.0,75.083515625,-1.56,0.270312,28.97
2021-06-21 11:57:53.078125000,-55.5,11.0,32.0,75.08390625,-1.74,0.270312,28.97
2021-06-21 11:57:53.085937500,-55.25,11.0,32.0,75.08429687499999,-1.9849999999999999,0.270312,28.97
2021-06-21 11:57:53.093750000,-55.0,11.0,32.0,75.0846875,-2.23,0.270312,28.97
2021-06-21 11:57:53.101562500,-55.0,11.25,32.25,75.085078125,-2.455,0.270312,28.97
2021-06-21 11:57:53.109375000,-55.0,11.5,32.5,75.08546875,-2.68,0.270312,28.97
2021-06-21 11:57:53.117187500,-55.0,11.75,32.75,75.085859375,-2.785,0.270312,28.97
2021-06-21 11:57:53.125000000,-55.0,12.0,33.0,75.08624999999999,-2.89,0.270312,28.97
2021-06-21 11:57:53.132812500,-55.0,12.0,32.75,75.086640625,-2.8150000000000004,0.270312,28.97
2021-06-21 11:57:53.140625000,-55.0,12.0,32.5,75.08703125,-2.74,0.270312,28.97
2021-06-21 11:57:53.148437500,-55.0,12.0,32.25,75.087421875,-2.4850000000000003,0.270312,28.97
2021-06-21 11:57:53.156250000,-55.0,12.0,32.0,75.0878125,-2.23,0.270312,28.97
2021-06-21 11:57:53.164062500,-55.0,11.75,32.0,75.08820312499999,-1.85,0.270312,28.97
2021-06-21 11:57:53.171875000,-55.0,11.5,32.0,75.08859375,-1.47,0.270312,28.97
2021-06-21 11:57:53.179687500,-55.0,11.25,32.0,75.088984375,-1.045,0.270312,28.97
2021-06-21 11:57:53.187500000,-55.0,11.0,32.0,75.089375,-0.62,0.270312,28.97
2021-06-21 11:57:53.195312500,-55.25,11.25,32.0,75.089765625,-0.20500000000000002,0.270312,28.97
2021-06-21 11:57:53.203125000,-55.5,11.5,32.0,75.09015624999999,0.21,0.270312,28.97
2021-06-21 11:57:53.210937500,-55.75,11.75,32.0,75.090546875,0.5650000000000001,0.270312,28.97
2021-06-21 11:57:53.218750000,-56.0,12.0,32.0,75.0909375,0.92,0.270312,28.97
2021-06-21 11:57:53.226562500,-56.0,12.0,32.0,75.091328125,1.18,0.270312,28.97
2021-06-21 11:57:53.234375000,-56.0,12.0,32.0,75.09171875,1.44,0.270312,28.97
2021-06-21 11:57:53.242187500,-56.0,12.0,32.0,75.09210937499999,1.5899999999999999,0.270312,28.97
2021-06-21 11:57:53.250000000,-56.0,12.0,32.0,75.0925,1.74,0.270312,28.97
2021-06-21 11:57:53.257812500,-55.75,11.75,32.0,75.092890625,1.7650000000000001,0.27027196875,28.97
2021-06-21 11:57:53.265625000,-55.5,11.5,32.0,75.09328125,1.79,0.2702319375,28.97
2021-06-21 11:57:53.273437500,-55.25,11.25,32.0,75.093671875,1.69,0.27019190625,28.97
2021-06-21 11:57:53.281250000,-55.0,11.0,32.0,75.09406249999999,1.59,0.270151875,28.97
2021-06-21 11:57:53.289062500,-55.25,11.0,32.0,75.094453125,1.395,0.27011184375,28.97
2021-06-21 11:57:53.296875000,-55.5,11.0,32.0,75.09484375,1.2,0.2700718125,28.97
2021-06-21 11:57:53.304687500,-55.75,11.0,32.0,75.095234375,0.96,0.27003178125,28.97
2021-06-21 11:57:53.312500000,-56.0,11.0,32.0,75.095625,0.72,0.26999175,28.97
2021-06-21 11:57:53.320312500,-56.0,11.25,32.0,75.09601562499999,0.5,0.26995171875,28.97
2021-06-21 11:57:53.328125000,-56.0,11.5,32.0,75.09640625,0.28,0.2699116875,28.97
2021-06-21 11:57:53.335937500,-56.0,11.75,32.0,75.096796875,0.14500000000000002,0.26987165625,28.97
2021-06-21 11:57:53.343750000,-56.0,12.0,32.0,75.0971875,0.01,0.269831625,28.97
2021-06-21 11:57:53.351562500,-55.75,12.0,32.0,75.097578125,0.0,0.26979159375,28.97
2021-06-21 11:57:53.359375000,-55.5,12.0,32.0,75.09796874999999,-0.01,0.2697515625,28.97
2021-06-21 11:57:53.367187500,-55.25,12.0,32.0,75.098359375,0.10500000000000001,0.26971153125,28.97
2021-06-21 11:57:53.375000000,-55.0,12.0,32.0,75.09875,0.22,0.2696715,28.97
2021-06-21 11:57:53.382812500,-55.0,11.75,32.0,75.099140625,0.44000000000000006,0.26963146875,28.97
2021-06-21 11:57:53.390625000,-55.0,11.5,32.0,75.09953125,0.66,0.26959143750000003,28.97
2021-06-21 11:57:53.398437500,-55.0,11.25,32.0,75.09992187499999,0.925,0.26955140625,28.97
2021-06-21 11:57:53.406250000,-55.0,11.0,32.0,75.1003125,1.19,0.269511375,28.97
2021-06-21 11:57:53.414062500,-55.25,11.0,32.0,75.100703125,1.44,0.26947134375000004,28.97
2021-06-21 11:57:53.421875000,-55.5,11.0,32.0,75.10109375,1.69,0.2694313125,28.97
2021-06-21 11:57:53.429687500,-55.75,11.0,32.0,75.101484375,1.865,0.26939128125,28.97
2021-06-21 11:57:53.437500000,-56.0,11.0,32.0,75.10187499999999,2.04,0.26935125000000004,28.97
2021-06-21 11:57:53.445312500,-56.0,11.0,32.0,75.102265625,2.1,0.26931121875,28.97
2021-06-21 11:57:53.453125000,-56.0,11.0,32.0,75.10265625,2.16,0.2692711875,28.97
2021-06-21 11:57:53.460937500,-56.0,11.0,32.0,75.103046875,2.075,0.26923115625,28.97
2021-06-21 11:57:53.468750000,-56.0,11.0,32.0,75.1034375,1.99,0.26919112500000003,28.97
2021-06-21 11:57:53.476562500,-56.0,11.0,32.0,75.10382812499999,1.76,0.26915109375,28.97
2021-06-21 11:57:53.484375000,-56.0,11.0,32.0,75.10421875,1.53,0.2691110625,28.97
2021-06-21 11:57:53.492187500,-56.0,11.0,32.0,75.104609375,1.19,0.26907103125000004,28.97
2021-06-21 11:57:53.500000000,-56.0,11.0,32.0,75.10499999999999,0.85,0.269031,28.97
2021-06-21 11:57:53.507812500,-55.75,11.25,32.25,75.105390625,0.46499999999999997,0.26907103125000004,28.97
2021-06-21 11:57:53.515625000,-55.5,11.5,32.5,75.10578124999999,0.08,0.2691110625,28.97
2021-06-21 11:57:53.523437500,-55.25,11.75,32.75,75.106171875,-0.24999999999999994,0.26915109375,28.97
2021-06-21 11:57:53.531250000,-55.0,12.0,33.0,75.1065625,-0.58,0.26919112500000003,28.97
2021-06-21 11:57:53.539062500,-55.0,12.0,32.75,75.10695312499999,-0.7649999999999999,0.26923115625,28.97
2021-06-21 11:57:53.546875000,-55.0,12.0,32.5,75.10734375,-0.95,0.2692711875,28.97
2021-06-21 11:57:53.554687500,-55.0,12.0,32.25,75.10773437499999,-0.945,0.26931121875,28.97
2021-06-21 11:57:53.562500000,-55.0,12.0,32.0,75.108125,-0.94,0.26935125000000004,28.97
2021-06-21 11:57:53.570312500,-55.25,11.75,32.0,75.108515625,-0.7649999999999999,0.26939128125,28.97
2021-06-21 11:57:53.578125000,-55.5,11.5,32.0,75.10890624999999,-0.59,0.2694313125,28.97
2021-06-21 11:57:53.585937500,-55.75,11.25,32.0,75.109296875,-0.315,0.26947134375000004,28.97
2021-06-21 11:57:53.593750000,-56.0,11.0,32.0,75.10968749999999,-0.04,0.269511375,28.97
2021-06-21 11:57:53.601562500,-55.75,11.25,32.25,75.110078125,0.22,0.26955140625,28.97
2021-06-21 11:57:53.609375000,-55.5,11.5,32.5,75.11046875,0.48,0.26959143750000003,28.97
2021-06-21 11:57:53.617187500,-55.25,11.75,32.75,75.11085937499999,0.64,0.26963146875,28.97
2021-06-21 11:57:53.625000000,-55.0,12.0,33.0,75.11125,0.8,0.2696715,28.97
2021-06-21 11:57:53.632812500,-55.25,11.75,32.75,75.11164062499999,0.8400000000000001,0.26971153125,28.97
2021-06-21 11:57:53.640625000,-55.5,11.5,32.5,75.11203125,0.88,0.2697515625,28.97
2021-06-21 11:57:53.648437500,-55.75,11.25,32.25,75.112421875,0.815,0.26979159375,28.97
2021-06-21 11:57:53.656250000,-56.0,11.0,32.0,75.11281249999999,0.75,0.269831625,28.97
2021-06-21 11:57:53.664062500,-56.0,11.0,32.0,75.113203125,0.65,0.26987165625,28.97
2021-06-21 11:57:53.671875000,-56.0,11.0,32.0,75.11359374999999,0.55,0.2699116875,28.97
2021-06-21 11:57:53.679687500,-56.0,11.0,32.0,75.113984375,0.46,0.26995171875,28.97
2021-06-21 11:57:53.687500000,-56.0,11.0,32.0,75.114375,0.37,0.26999175,28.97
2021-06-21 11:57:53.695312500,-56.0,11.0,32.0,75.11476562499999,0.31,0.27003178125,28.97
2021-06-21 11:57:53.703125000,-56.0,11.0,32.0,75.11515625,0.25,0.2700718125,28.97
2021-06-21 11:57:53.710937500,-56.0,11.0,32.0,75.11554687499999,0.20500000000000002,0.27011184375,28.97
2021-06-21 11:57:53.718750000,-56.0,11.0,32.0,75.1159375,0.16,0.270151875,28.97
2021-06-21 11:57:53.726562500,-55.75,11.0,32.0,75.116328125,0.11,0.27019190625,28.97
2021-06-21 11:57:53.734375000,-55.5,11.0,32.0,75.11671874999999,0.06,0.2702319375,28.97
2021-06-21 11:57:53.742187500,-55.25,11.0,32.0,75.117109375,0.0049999999999999975,0.27027196875,28.97
2021-06-21 11:57:53.750000000,-55.0,11.0,32.0,75.11749999999999,-0.05,0.270312,28.97
2021-06-21 11:57:53.757812500,-55.25,11.25,32.0,75.117890625,-0.09,0.27027196875,28.97
2021-06-21 11:57:53.765625000,-55.5,11.5,32.0,75.11828125,-0.13,0.2702319375,28.97
2021-06-21 11:57:53.773437500,-55.75,11.75,32.0,75.11867187499999,-0.115,0.27019190625,28.97
2021-06-21 11:57:53.781250000,-56.0,12.0,32.0,75.1190625,-0.1,0.270151875,28.97
2021-06-21 11:57:53.789062500,-56.0,12.0,32.25,75.11945312499999,-0.04,0.27011184375,28.97
2021-06-21 11:57:53.796875000,-56.0,12.0,32.5,75.11984375,0.02,0.2700718125,28.97
2021-06-21 11:57:53.804687500,-56.0,12.0,32.75,75.120234375,0.08,0.27003178125,28.97
2021-06-21 11:57:53.812500000,-56.0,12.0,33.0,75.12062499999999,0.14,0.26999175,28.97
2021-06-21 11:57:53.820312500,-55.75,12.0,32.75,75.121015625,0.135,0.26995171875,28.97
2021-06-21 11:57:53.828125000,-55.5,12.0,32.5,75.12140624999999,0.13,0.2699116875,28.97
2021-06-21 11:57:53.835937500,-55.25,12.0,32.25,75.121796875,-0.0050000000000000044,0.26987165625,28.97
2021-06-21 11:57:53.843750000,-55.0,12.0,32.0,75.1221875,-0.14,0.269831625,28.97
2021-06-21 11:57:53.851562500,-55.0,11.75,32.0,75.12257812499999,-0.41000000000000003,0.26979159375,28.97
2021-06-21 11:57:53.859375000,-55.0,11.5,32.0,75.12296875,-0.68,0.2697515625,28.97
2021-06-21 11:57:53.867187500,-55.0,11.25,32.0,75.12335937499999,-1.0250000000000001,0.26971153125,28.97
2021-06-21 11:57:53.875000000,-55.0,11.0,32.0,75.12375,-1.37,0.2696715,28.97
2021-06-21 11:57:53.882812500,-55.25,11.0,32.0,75.124140625,-1.7,0.26963146875,28.97
2021-06-21 11:57:53.890625000,-55.5,11.0,32.0,75.12453124999999,-2.03,0.26959143750000003,28.97
2021-06-21 11:57:53.898437500,-55.75,11.0,32.0,75.124921875,-2.2699999999999996,0.26955140625,28.97
2021-06-21 11:57:53.906250000,-56.0,11.0,32.0,75.12531249999999,-2.51,0.269511375,28.97
2021-06-21 11:57:53.914062500,-56.0,11.0,32.0,75.125703125,-2.615,0.26947134375000004,28.97
2021-06-21 11:57:53.921875000,-56.0,11.0,32.0,75.12609375,-2.72,0.2694313125,28.97
2021-06-21 11:57:53.929687500,-56.0,11.0,32.0,75.12648437499999,-2.705,0.26939128125,28.97
2021-06-21 11:57:53.937500000,-56.0,11.0,32.0,75.126875,-2.69,0.26935125000000004,28.97
2021-06-21 11:57:53.945312500,-55.75,11.0,32.0,75.12726562499999,-2.61,0.26931121875,28.97
2021-06-21 11:57:53.953125000,-55.5,11.0,32.0,75.12765625,-2.53,0.2692711875,28.97
2021-06-21 11:57:53.960937500,-55.25,11.0,32.0,75.128046875,-2.425,0.26923115625,28.97
2021-06-21 11:57:53.968750000,-55.0,11.0,32.0,75.12843749999999,-2.32,0.26919112500000003,28.97
2021-06-21 11:57:53.976562500,-55.25,11.0,32.0,75.128828125,-2.24,0.26915109375,28.97
2021-06-21 11:57:53.984375000,-55.5,11.0,32.0,75.12921874999999,-2.16,0.2691110625,28.97
2021-06-21 11:57:53.992187500,-55.75,11.0,32.0,75.129609375,-2.1,0.26907103125000004,28.97
2021-06-21 11:57:54.000000000,-56.0,11.0,32.0,75.13,-2.04,0.269031,28.97
2021-06-21 11:57:54.007812500,-56.0,11.0,32.0,75.13015625,-1.99,0.26907103125000004,28.969375
2021-06-21 11:57:54.015625000,-56.0,11.0,32.0,75.1303125,-1.94,0.2691110625,28.96875
2021-06-21 11:57:54.023437500,-56.0,11.0,32.0,75.13046874999999,-1.8900000000000001,0.26915109375,28.968125
2021-06-21 11:57:54.031250000,-56.0,11.0,32.0,75.130625,-1.84,0.26919112500000003,28.967499999999998
2021-06-21 11:57:54.039062500,-56.0,11.25,32.0,75.13078125,-1.7650000000000001,0.26923115625,28.966874999999998
2021-06-21 11:57:54.046875000,-56.0,11.5,32.0,75.1309375,-1.69,0.2692711875,28.96625
2021-06-21 11:57:54.054687500,-56.0,11.75,32.0,75.13109374999999,-1.6,0.26931121875,28.965625
2021-06-21 11:57:54.062500000,-56.0,12.0,32.0,75.13125,-1.51,0.26935125000000004,28.965
2021-06-21 11:57:54.070312500,-55.75,11.75,32.0,75.13140625,-1.3900000000000001,0.26939128125,28.964375
2021-06-21 11:57:54.078125000,-55.5,11.5,32.0,75.1315625,-1.27,0.2694313125,28.963749999999997
2021-06-21 11:57:54.085937500,-55.25,11.25,32.0,75.13171874999999,-1.13,0.26947134375000004,28.963124999999998
2021-06-21 11:57:54.093750000,-55.0,11.0,32.0,75.131875,-0.99,0.269511375,28.9625
2021-06-21 11:57:54.101562500,-55.0,11.0,32.0,75.13203125,-0.835,0.26955140625,28.961875
2021-06-21 11:57:54.109375000,-55.0,11.0,32.0,75.1321875,-0.68,0.26959143750000003,28.96125
2021-06-21 11:57:54.117187500,-55.0,11.0,32.0,75.13234374999999,-0.525,0.26963146875,28.960625
2021-06-21 11:57:54.125000000,-55.0,11.0,32.0,75.1325,-0.37,0.2696715,28.96
2021-06-21 11:57:54.132812500,-55.25,11.25,32.0,75.13265625,-0.22999999999999998,0.26971153125,28.959374999999998
2021-06-21 11:57:54.140625000,-55.5,11.5,32.0,75.1328125,-0.09,0.2697515625,28.95875
2021-06-21 11:57:54.148437500,-55.75,11.75,32.0,75.13296875,0.015,0.26979159375,28.958125
2021-06-21 11:57:54.156250000,-56.0,12.0,32.0,75.13312499999999,0.12,0.269831625,28.9575
2021-06-21 11:57:54.164062500,-55.75,11.75,32.0,75.13328125,0.185,0.26987165625,28.956875
2021-06-21 11:57:54.171875000,-55.5,11.5,32.0,75.1334375,0.25,0.2699116875,28.95625
2021-06-21 11:57:54.179687500,-55.25,11.25,32.0,75.13359375,0.28500000000000003,0.26995171875,28.955624999999998
2021-06-21 11:57:54.187500000,-55.0,11.0,32.0,75.13374999999999,0.32,0.26999175,28.955
2021-06-21 11:57:54.195312500,-55.0,11.0,32.0,75.13390625,0.33499999999999996,0.27003178125,28.954375
2021-06-21 11:57:54.203125000,-55.0,11.0,32.0,75.1340625,0.35,0.2700718125,28.95375
2021-06-21 11:57:54.210937500,-55.0,11.0,32.0,75.13421875,0.36,0.27011184375,28.953125
2021-06-21 11:57:54.218750000,-55.0,11.0,32.0,75.13437499999999,0.37,0.270151875,28.9525
2021-06-21 11:57:54.226562500,-55.25,11.25,32.0,75.13453125,0.39,0.27019190625,28.951874999999998
2021-06-21 11:57:54.234375000,-55.5,11.5,32.0,75.1346875,0.41,0.2702319375,28.951249999999998
2021-06-21 11:57:54.242187500,-55.75,11.75,32.0,75.13484375,0.435,0.27027196875,28.950625
2021-06-21 11:57:54.250000000,-56.0,12.0,32.0,75.13499999999999,0.46,0.270312,28.95
2021-06-21 11:57:54.257812500,-56.0,11.75,32.0,75.13515625,0.495,0.27027196875,28.95
2021-06-21 11:57:54.265625000,-56.0,11.5,32.0,75.1353125,0.53,0.2702319375,28.95
2021-06-21 11:57:54.273437500,-56.0,11.25,32.0,75.13546875,0.595,0.27019190625,28.95
2021-06-21 11:57:54.281250000,-56.0,11.0,32.0,75.135625,0.66,0.270151875,28.95
2021-06-21 11:57:54.289062500,-56.0,11.0,32.0,75.13578125,0.76,0.27011184375,28.95
2021-06-21 11:57:54.296875000,-56.0,11.0,32.0,75.1359375,0.86,0.2700718125,28.95
2021-06-21 11:57:54.304687500,-56.0,11.0,32.0,75.13609375,0.9949999999999999,0.27003178125,28.95
2021-06-21 11:57:54.312500000,-56.0,11.0,32.0,75.13625,1.13,0.26999175,28.95
2021-06-21 11:57:54.320312500,-55.75,11.0,32.25,75.13640625,1.2999999999999998,0.26995171875,28.95
2021-06-21 11:57:54.328125000,-55.5,11.0,32.5,75.1365625,1.47,0.2699116875,28.95
2021-06-21 11:57:54.335937500,-55.25,11.0,32.75,75.13671875,1.6400000000000001,0.26987165625,28.95
