TimeStamp,empatica.acc.x,empatica.acc.y,empatica.acc.z,empatica.hr,empatica.bvp,empatica.eda,empatica.temp
2021-06-28 13:42:56.281250000,-46.0,13.0,44.0,65.280625,52.43,0.618877875,33.55
2021-06-28 13:42:56.289062500,-45.5,13.0,44.5,65.27953124999999,52.515,0.61883784375,33.55
2021-06-28 13:42:56.296875000,-45.0,13.0,45.0,65.2784375,52.6,0.6187978125,33.55
2021-06-28 13:42:56.304687500,-44.5,13.0,45.5,65.27734375,52.269999999999996,0.61875778125,33.55
2021-06-28 13:42:56.312500000,-44.0,13.0,46.0,65.27625,51.94,0.61871775,33.55
2021-06-28 13:42:56.320312500,-44.25,12.75,45.75,65.27515625,51.11,0.61867771875,33.55
2021-06-28 13:42:56.328125000,-44.5,12.5,45.5,65.2740625,50.28,0.6186376875,33.55
2021-06-28 13:42:56.335937500,-44.75,12.25,45.25,65.27296875,48.96,0.61859765625,33.55
2021-06-28 13:42:56.343750000,-45.0,12.0,45.0,65.271875,47.64,0.618557625,33.55
2021-06-28 13:42:56.351562500,-45.25,12.25,44.75,65.27078125,45.95,0.61851759375,33.55
2021-06-28 13:42:56.359375000,-45.5,12.5,44.5,65.2696875,44.26,0.6184775625,33.55
2021-06-28 13:42:56.367187500,-45.75,12.75,44.25,65.26859375,42.445,0.61843753125,33.55
2021-06-28 13:42:56.375000000,-46.0,13.0,44.0,65.2675,40.63,0.6183974999999999,33.55
2021-06-28 13:42:56.382812500,-46.0,12.75,44.0,65.26640625,39.015,0.61835746875,33.55
2021-06-28 13:42:56.390625000,-46.0,12.5,44.0,65.2653125,37.4,0.6183174375,33.55
2021-06-28 13:42:56.398437500,-46.0,12.25,44.0,65.26421875,36.26,0.6182774062499999,33.55
2021-06-28 13:42:56.406250000,-46.0,12.0,44.0,65.263125,35.12,0.618237375,33.55
2021-06-28 13:42:56.414062500,-45.75,12.25,44.0,65.26203124999999,34.64,0.61819734375,33.55
2021-06-28 13:42:56.421875000,-45.5,12.5,44.0,65.2609375,34.16,0.6181573125,33.55
2021-06-28 13:42:56.429687500,-45.25,12.75,44.0,65.25984375,34.334999999999994,0.61811728125,33.55
2021-06-28 13:42:56.437500000,-45.0,13.0,44.0,65.25874999999999,34.51,0.61807725,33.55
2021-06-28 13:42:56.445312500,-45.0,13.0,44.0,65.25765625,35.195,0.61803721875,33.55
2021-06-28 13:42:56.453125000,-45.0,13.0,44.0,65.2565625,35.88,0.6179971875,33.55
2021-06-28 13:42:56.460937500,-45.0,13.0,44.0,65.25546875,36.835,0.61795715625,33.55
2021-06-28 13:42:56.468750000,-45.0,13.0,44.0,65.254375,37.79,0.617917125,33.55
2021-06-28 13:42:56.476562500,-45.0,13.0,44.25,65.25328125,38.769999999999996,0.61787709375,33.55
2021-06-28 13:42:56.484375000,-45.0,13.0,44.5,65.2521875,39.75,0.6178370625,33.55
2021-06-28 13:42:56.492187500,-45.0,13.0,44.75,65.25109375,40.545,0.61779703125,33.55
2021-06-28 13:42:56.500000000,-45.0,13.0,45.0,65.25,41.34,0.617757,33.55
2021-06-28 13:42:56.507812500,-44.75,13.0,45.0,65.24890625,41.825,0.6178370625,33.55
2021-06-28 13:42:56.515625000,-44.5,13.0,45.0,65.2478125,42.31,0.617917125,33.55
2021-06-28 13:42:56.523437500,-44.25,13.0,45.0,65.24671875,42.41,0.6179971875,33.55
2021-06-28 13:42:56.531250000,-44.0,13.0,45.0,65.245625,42.51,0.61807725,33.55
2021-06-28 13:42:56.539062500,-44.25,13.0,45.0,65.24453125,42.17,0.6181573125,33.55
2021-06-28 13:42:56.546875000,-44.5,13.0,45.0,65.2434375,41.83,0.618237375,33.55
2021-06-28 13:42:56.554687500,-44.75,13.0,45.0,65.24234375,41.019999999999996,0.6183174375,33.55
2021-06-28 13:42:56.562500000,-45.0,13.0,45.0,65.24125000000001,40.21,0.6183974999999999,33.55
2021-06-28 13:42:56.570312500,-45.0,13.0,45.5,65.24015625,38.905,0.6184775625,33.55
2021-06-28 13:42:56.578125000,-45.0,13.0,46.0,65.2390625,37.6,0.618557625,33.55
2021-06-28 13:42:56.585937500,-45.0,13.0,46.5,65.23796875000001,35.81,0.6186376875,33.55
2021-06-28 13:42:56.593750000,-45.0,13.0,47.0,65.236875,34.02,0.61871775,33.55
2021-06-28 13:42:56.601562500,-45.0,12.75,46.5,65.23578125,31.775000000000002,0.6187978125,33.55
2021-06-28 13:42:56.609375000,-45.0,12.5,46.0,65.2346875,29.53,0.618877875,33.55
2021-06-28 13:42:56.617187500,-45.0,12.25,45.5,65.23359375,26.905,0.6189579374999999,33.55
2021-06-28 13:42:56.625000000,-45.0,12.0,45.0,65.2325,24.28,0.619038,33.55
2021-06-28 13:42:56.632812500,-45.0,12.25,44.75,65.23140625,21.395000000000003,0.6191180625,33.55
2021-06-28 13:42:56.640625000,-45.0,12.5,44.5,65.2303125,18.51,0.6191981249999999,33.55
2021-06-28 13:42:56.648437500,-45.0,12.75,44.25,65.22921875,15.545000000000002,0.6192781875,33.55
2021-06-28 13:42:56.656250000,-45.0,13.0,44.0,65.228125,12.58,0.61935825,33.55
2021-06-28 13:42:56.664062500,-45.25,13.0,44.0,65.22703125,9.735,0.6194383124999999,33.55
2021-06-28 13:42:56.671875000,-45.5,13.0,44.0,65.2259375,6.89,0.619518375,33.55
2021-06-28 13:42:56.679687500,-45.75,13.0,44.0,65.22484375,4.359999999999999,0.6195984375,33.55
2021-06-28 13:42:56.687500000,-46.0,13.0,44.0,65.22375,1.83,0.6196785,33.55
2021-06-28 13:42:56.695312500,-45.75,13.0,44.0,65.22265625,-0.2599999999999998,0.6197585624999999,33.55
2021-06-28 13:42:56.703125000,-45.5,13.0,44.0,65.2215625,-2.35,0.619838625,33.55
2021-06-28 13:42:56.710937500,-45.25,13.0,44.0,65.22046875000001,-3.955,0.6199186875,33.55
2021-06-28 13:42:56.718750000,-45.0,13.0,44.0,65.219375,-5.56,0.6199987499999999,33.55
2021-06-28 13:42:56.726562500,-45.0,13.0,44.25,65.21828125,-6.76,0.6200788125,33.55
2021-06-28 13:42:56.734375000,-45.0,13.0,44.5,65.21718750000001,-7.96,0.620158875,33.55
2021-06-28 13:42:56.742187500,-45.0,13.0,44.75,65.21609375,-8.87,0.6202389374999999,33.55
2021-06-28 13:42:56.750000000,-45.0,13.0,45.0,65.215,-9.78,0.620319,33.55
2021-06-28 13:42:56.757812500,-44.75,13.0,45.0,65.21390625000001,-10.535,0.6204791562499999,33.55
2021-06-28 13:42:56.765625000,-44.5,13.0,45.0,65.2128125,-11.29,0.6206393124999999,33.55
2021-06-28 13:42:56.773437500,-44.25,13.0,45.0,65.21171875,-11.965,0.6207994687499999,33.55
2021-06-28 13:42:56.781250000,-44.0,13.0,45.0,65.21062500000001,-12.64,0.620959625,33.55
2021-06-28 13:42:56.789062500,-44.25,13.0,45.0,65.20953125,-13.3,0.62111978125,33.55
2021-06-28 13:42:56.796875000,-44.5,13.0,45.0,65.2084375,-13.96,0.6212799375,33.55
2021-06-28 13:42:56.804687500,-44.75,13.0,45.0,65.20734375,-14.64,0.62144009375,33.55
2021-06-28 13:42:56.812500000,-45.0,13.0,45.0,65.20625000000001,-15.32,0.62160025,33.55
2021-06-28 13:42:56.820312500,-44.75,13.0,45.5,65.20515625,-16.064999999999998,0.62176040625,33.55
2021-06-28 13:42:56.828125000,-44.5,13.0,46.0,65.2040625,-16.81,0.6219205624999999,33.55
2021-06-28 13:42:56.835937500,-44.25,13.0,46.5,65.20296875000001,-17.7,0.6220807187499999,33.55
2021-06-28 13:42:56.843750000,-44.0,13.0,47.0,65.201875,-18.59,0.6222408749999999,33.55
2021-06-28 13:42:56.851562500,-44.0,13.0,47.0,65.20078125,-19.7,0.62240103125,33.55
2021-06-28 13:42:56.859375000,-44.0,13.0,47.0,65.19968750000001,-20.81,0.6225611875,33.55
2021-06-28 13:42:56.867187500,-44.0,13.0,47.0,65.19859375,-22.18,0.62272134375,33.55
2021-06-28 13:42:56.875000000,-44.0,13.0,47.0,65.1975,-23.55,0.6228815,33.55
2021-06-28 13:42:56.882812500,-44.0,13.0,47.0,65.19640625000001,-25.130000000000003,0.62304165625,33.55
2021-06-28 13:42:56.890625000,-44.0,13.0,47.0,65.1953125,-26.71,0.6232018125,33.55
2021-06-28 13:42:56.898437500,-44.0,13.0,47.0,65.19421875,-28.37,0.6233619687499999,33.55
2021-06-28 13:42:56.906250000,-44.0,13.0,47.0,65.19312500000001,-30.03,0.623522125,33.55
2021-06-28 13:42:56.914062500,-44.0,13.25,46.75,65.19203125,-31.59,0.62368228125,33.55
2021-06-28 13:42:56.921875000,-44.0,13.5,46.5,65.1909375,-33.15,0.6238424375,33.55
2021-06-28 13:42:56.929687500,-44.0,13.75,46.25,65.18984375000001,-34.425,0.62400259375,33.55
2021-06-28 13:42:56.937500000,-44.0,14.0,46.0,65.18875,-35.7,0.62416275,33.55
2021-06-28 13:42:56.945312500,-44.0,13.75,45.5,65.18765625,-36.57,0.62432290625,33.55
2021-06-28 13:42:56.953125000,-44.0,13.5,45.0,65.18656250000001,-37.44,0.6244830625,33.55
2021-06-28 13:42:56.960937500,-44.0,13.25,44.5,65.18546875000001,-37.894999999999996,0.62464321875,33.55
2021-06-28 13:42:56.968750000,-44.0,13.0,44.0,65.184375,-38.35,0.6248033749999999,33.55
2021-06-28 13:42:56.976562500,-43.75,13.0,44.0,65.18328125000001,-38.475,0.62496353125,33.55
2021-06-28 13:42:56.984375000,-43.5,13.0,44.0,65.18218750000001,-38.6,0.6251236875,33.55
2021-06-28 13:42:56.992187500,-43.25,13.0,44.0,65.18109375,-38.59,0.62528384375,33.55
2021-06-28 13:42:57.000000000,-43.0,13.0,44.0,65.18,-38.58,0.625444,33.55
2021-06-28 13:42:57.007812500,-43.5,12.75,44.25,65.17898437500001,-38.675,0.6254039375,33.55
2021-06-28 13:42:57.015625000,-44.0,12.5,44.5,65.17796875,-38.77,0.625363875,33.55
2021-06-28 13:42:57.023437500,-44.5,12.25,44.75,65.17695312500001,-39.175,0.6253238125,33.55
2021-06-28 13:42:57.031250000,-45.0,12.0,45.0,65.1759375,-39.58,0.62528375,33.55
2021-06-28 13:42:57.039062500,-45.0,12.25,45.25,65.17492187500001,-40.435,0.6252436875,33.55
2021-06-28 13:42:57.046875000,-45.0,12.5,45.5,65.17390625,-41.29,0.625203625,33.55
2021-06-28 13:42:57.054687500,-45.0,12.75,45.75,65.17289062500001,-42.545,0.6251635625,33.55
2021-06-28 13:42:57.062500000,-45.0,13.0,46.0,65.171875,-43.8,0.6251234999999999,33.55
2021-06-28 13:42:57.070312500,-44.75,13.0,45.5,65.170859375,-45.235,0.6250834375,33.55
2021-06-28 13:42:57.078125000,-44.5,13.0,45.0,65.16984375000001,-46.67,0.625043375,33.55
2021-06-28 13:42:57.085937500,-44.25,13.0,44.5,65.168828125,-47.88,0.6250033125,33.55
2021-06-28 13:42:57.093750000,-44.0,13.0,44.0,65.16781250000001,-49.09,0.62496325,33.55
2021-06-28 13:42:57.101562500,-44.25,12.75,44.0,65.166796875,-49.605000000000004,0.6249231875,33.55
2021-06-28 13:42:57.109375000,-44.5,12.5,44.0,65.16578125000001,-50.12,0.624883125,33.55
2021-06-28 13:42:57.117187500,-44.75,12.25,44.0,65.164765625,-49.51,0.6248430625,33.55
2021-06-28 13:42:57.125000000,-45.0,12.0,44.0,65.16375000000001,-48.9,0.624803,33.55
2021-06-28 13:42:57.132812500,-45.25,12.25,44.25,65.162734375,-46.925,0.6247629375,33.55
2021-06-28 13:42:57.140625000,-45.5,12.5,44.5,65.16171875,-44.95,0.624722875,33.55
2021-06-28 13:42:57.148437500,-45.75,12.75,44.75,65.16070312500001,-41.635000000000005,0.6246828125,33.55
2021-06-28 13:42:57.156250000,-46.0,13.0,45.0,65.1596875,-38.32,0.62464275,33.55
2021-06-28 13:42:57.164062500,-45.75,13.0,45.0,65.15867187500001,-33.945,0.6246026875,33.55
2021-06-28 13:42:57.171875000,-45.5,13.0,45.0,65.15765625,-29.57,0.624562625,33.55
2021-06-28 13:42:57.179687500,-45.25,13.0,45.0,65.15664062500001,-24.61,0.6245225625,33.55
2021-06-28 13:42:57.187500000,-45.0,13.0,45.0,65.155625,-19.65,0.6244825,33.55
2021-06-28 13:42:57.195312500,-44.75,13.0,45.25,65.154609375,-14.629999999999999,0.6244424375,33.55
2021-06-28 13:42:57.203125000,-44.5,13.0,45.5,65.15359375,-9.61,0.624402375,33.55
2021-06-28 13:42:57.210937500,-44.25,13.0,45.75,65.152578125,-4.955,0.6243623125,33.55
2021-06-28 13:42:57.218750000,-44.0,13.0,46.0,65.15156250000001,-0.3,0.62432225,33.55
2021-06-28 13:42:57.226562500,-44.25,13.0,45.75,65.150546875,3.7300000000000004,0.6242821875,33.55
2021-06-28 13:42:57.234375000,-44.5,13.0,45.5,65.14953125000001,7.76,0.624242125,33.55
2021-06-28 13:42:57.242187500,-44.75,13.0,45.25,65.148515625,11.14,0.6242020625,33.55
2021-06-28 13:42:57.250000000,-45.0,13.0,45.0,65.14750000000001,14.52,0.624162,33.55
2021-06-28 13:42:57.257812500,-45.5,13.0,45.0,65.146484375,17.38,0.62404190625,33.55
2021-06-28 13:42:57.265625000,-46.0,13.0,45.0,65.14546875,20.24,0.6239218125,33.55
2021-06-28 13:42:57.273437500,-46.5,13.0,45.0,65.144453125,22.775,0.62380171875,33.55
2021-06-28 13:42:57.281250000,-47.0,13.0,45.0,65.1434375,25.31,0.623681625,33.55
2021-06-28 13:42:57.289062500,-46.75,12.75,45.25,65.14242187500001,27.645,0.62356153125,33.55
2021-06-28 13:42:57.296875000,-46.5,12.5,45.5,65.14140625,29.98,0.6234414375,33.55
2021-06-28 13:42:57.304687500,-46.25,12.25,45.75,65.14039062500001,32.1,0.62332134375,33.55
2021-06-28 13:42:57.312500000,-46.0,12.0,46.0,65.139375,34.22,0.6232012499999999,33.55
2021-06-28 13:42:57.320312500,-46.25,12.25,45.25,65.13835937500001,35.980000000000004,0.6230811562499999,33.55
2021-06-28 13:42:57.328125000,-46.5,12.5,44.5,65.13734375,37.74,0.6229610624999999,33.55
2021-06-28 13:42:57.335937500,-46.75,12.75,43.75,65.136328125,38.900000000000006,0.62284096875,33.55
2021-06-28 13:42:57.343750000,-47.0,13.0,43.0,65.1353125,40.06,0.622720875,33.55
2021-06-28 13:42:57.351562500,-47.25,13.25,42.5,65.134296875,40.415000000000006,0.62260078125,33.55
2021-06-28 13:42:57.359375000,-47.5,13.5,42.0,65.13328125000001,40.77,0.6224806875,33.55
2021-06-28 13:42:57.367187500,-47.75,13.75,41.5,65.132265625,40.21,0.62236059375,33.55
2021-06-28 13:42:57.375000000,-48.0,14.0,41.0,65.13125000000001,39.65,0.6222405,33.55
2021-06-28 13:42:57.382812500,-47.25,14.0,41.5,65.130234375,38.21,0.62212040625,33.55
2021-06-28 13:42:57.390625000,-46.5,14.0,42.0,65.12921875,36.77,0.6220003125,33.55
2021-06-28 13:42:57.398437500,-45.75,14.0,42.5,65.128203125,34.59,0.62188021875,33.55
2021-06-28 13:42:57.406250000,-45.0,14.0,43.0,65.1271875,32.41,0.621760125,33.55
2021-06-28 13:42:57.414062500,-45.0,13.75,43.25,65.126171875,29.71,0.62164003125,33.55
2021-06-28 13:42:57.421875000,-45.0,13.5,43.5,65.12515625,27.01,0.6215199375,33.55
2021-06-28 13:42:57.429687500,-45.0,13.25,43.75,65.12414062500001,24.04,0.62139984375,33.55
2021-06-28 13:42:57.437500000,-45.0,13.0,44.0,65.123125,21.07,0.62127975,33.55
2021-06-28 13:42:57.445312500,-45.5,13.25,43.75,65.12210937500001,18.075,0.6211596562499999,33.55
2021-06-28 13:42:57.453125000,-46.0,13.5,43.5,65.12109375,15.08,0.6210395624999999,33.55
2021-06-28 13:42:57.460937500,-46.5,13.75,43.25,65.120078125,12.305,0.6209194687499999,33.55
2021-06-28 13:42:57.468750000,-47.0,14.0,43.0,65.1190625,9.53,0.6207993749999999,33.55
2021-06-28 13:42:57.476562500,-46.75,14.0,43.0,65.118046875,7.175,0.6206792812499999,33.55
2021-06-28 13:42:57.484375000,-46.5,14.0,43.0,65.11703125,4.82,0.6205591874999999,33.55
2021-06-28 13:42:57.492187500,-46.25,14.0,43.0,65.116015625,3.0500000000000003,0.62043909375,33.55
2021-06-28 13:42:57.500000000,-46.0,14.0,43.0,65.11500000000001,1.28,0.620319,33.55
2021-06-28 13:42:57.507812500,-45.5,14.0,43.5,65.113984375,0.135,0.6201188437499999,33.55
2021-06-28 13:42:57.515625000,-45.0,14.0,44.0,65.11296875000001,-1.01,0.6199186875,33.55
2021-06-28 13:42:57.523437500,-44.5,14.0,44.5,65.111953125,-1.6,0.61971853125,33.55
2021-06-28 13:42:57.531250000,-44.0,14.0,45.0,65.1109375,-2.19,0.619518375,33.55
2021-06-28 13:42:57.539062500,-44.0,14.0,45.0,65.109921875,-2.41,0.6193182187499999,33.55
2021-06-28 13:42:57.546875000,-44.0,14.0,45.0,65.10890625,-2.63,0.6191180624999999,33.55
2021-06-28 13:42:57.554687500,-44.0,14.0,45.0,65.107890625,-2.7649999999999997,0.61891790625,33.55
2021-06-28 13:42:57.562500000,-44.0,14.0,45.0,65.106875,-2.9,0.61871775,33.55
2021-06-28 13:42:57.570312500,-44.25,14.0,45.0,65.105859375,-3.24,0.6185175937499999,33.55
2021-06-28 13:42:57.578125000,-44.5,14.0,45.0,65.10484375,-3.58,0.6183174375,33.55
2021-06-28 13:42:57.585937500,-44.75,14.0,45.0,65.103828125,-4.365,0.61811728125,33.55
2021-06-28 13:42:57.593750000,-45.0,14.0,45.0,65.1028125,-5.15,0.617917125,33.55
2021-06-28 13:42:57.601562500,-44.75,14.0,44.5,65.101796875,-6.525,0.6177169687499999,33.55
2021-06-28 13:42:57.609375000,-44.5,14.0,44.0,65.10078125,-7.9,0.6175168124999999,33.55
2021-06-28 13:42:57.617187500,-44.25,14.0,43.5,65.099765625,-9.865,0.61731665625,33.55
2021-06-28 13:42:57.625000000,-44.0,14.0,43.0,65.09875,-11.83,0.6171165,33.55
2021-06-28 13:42:57.632812500,-44.5,14.0,43.0,65.097734375,-14.280000000000001,0.6169163437499999,33.55
2021-06-28 13:42:57.640625000,-45.0,14.0,43.0,65.09671875,-16.73,0.6167161875,33.55
2021-06-28 13:42:57.648437500,-45.5,14.0,43.0,65.095703125,-19.495,0.61651603125,33.55
2021-06-28 13:42:57.656250000,-46.0,14.0,43.0,65.0946875,-22.26,0.616315875,33.55
2021-06-28 13:42:57.664062500,-46.25,13.75,43.0,65.093671875,-25.115000000000002,0.6161157187499999,33.55
2021-06-28 13:42:57.671875000,-46.5,13.5,43.0,65.09265625,-27.97,0.6159155624999999,33.55
2021-06-28 13:42:57.679687500,-46.75,13.25,43.0,65.091640625,-30.72,0.61571540625,33.55
2021-06-28 13:42:57.687500000,-47.0,13.0,43.0,65.090625,-33.47,0.61551525,33.55
2021-06-28 13:42:57.695312500,-46.75,13.0,43.25,65.089609375,-35.96,0.6153150937499999,33.55
2021-06-28 13:42:57.703125000,-46.5,13.0,43.5,65.08859375,-38.45,0.6151149375,33.55
2021-06-28 13:42:57.710937500,-46.25,13.0,43.75,65.087578125,-40.59,0.61491478125,33.55
2021-06-28 13:42:57.718750000,-46.0,13.0,44.0,65.0865625,-42.73,0.614714625,33.55
2021-06-28 13:42:57.726562500,-46.0,13.25,43.5,65.085546875,-44.55,0.6145144687499999,33.55
2021-06-28 13:42:57.734375000,-46.0,13.5,43.0,65.08453125,-46.37,0.6143143124999999,33.55
2021-06-28 13:42:57.742187500,-46.0,13.75,42.5,65.083515625,-47.980000000000004,0.61411415625,33.55
2021-06-28 13:42:57.750000000,-46.0,14.0,42.0,65.0825,-49.59,0.613914,33.55
2021-06-28 13:42:57.757812500,-46.0,14.0,42.25,65.081484375,-51.17,0.61403409375,33.55
2021-06-28 13:42:57.765625000,-46.0,14.0,42.5,65.08046875,-52.75,0.6141541875,33.55
2021-06-28 13:42:57.773437500,-46.0,14.0,42.75,65.079453125,-54.46,0.6142742812499999,33.55
2021-06-28 13:42:57.781250000,-46.0,14.0,43.0,65.07843749999999,-56.17,0.6143943749999999,33.55
2021-06-28 13:42:57.789062500,-46.25,14.0,43.0,65.077421875,-58.09,0.6145144687499999,33.55
2021-06-28 13:42:57.796875000,-46.5,14.0,43.0,65.07640625,-60.01,0.6146345624999999,33.55
2021-06-28 13:42:57.804687500,-46.75,14.0,43.0,65.075390625,-62.03,0.6147546562499999,33.55
2021-06-28 13:42:57.812500000,-47.0,14.0,43.0,65.074375,-64.05,0.61487475,33.55
2021-06-28 13:42:57.820312500,-47.5,13.75,42.5,65.073359375,-65.88,0.61499484375,33.55
2021-06-28 13:42:57.828125000,-48.0,13.5,42.0,65.07234375,-67.71,0.6151149375,33.55
2021-06-28 13:42:57.835937500,-48.5,13.25,41.5,65.071328125,-68.94999999999999,0.61523503125,33.55
2021-06-28 13:42:57.843750000,-49.0,13.0,41.0,65.0703125,-70.19,0.615355125,33.55
2021-06-28 13:42:57.851562500,-48.25,13.25,41.5,65.06929687499999,-70.44,0.61547521875,33.55
2021-06-28 13:42:57.859375000,-47.5,13.5,42.0,65.06828125,-70.69,0.6155953125,33.55
2021-06-28 13:42:57.867187500,-46.75,13.75,42.5,65.067265625,-69.715,0.61571540625,33.55
2021-06-28 13:42:57.875000000,-46.0,14.0,43.0,65.06625,-68.74,0.6158355,33.55
2021-06-28 13:42:57.882812500,-45.75,13.75,43.5,65.065234375,-66.53,0.61595559375,33.55
2021-06-28 13:42:57.890625000,-45.5,13.5,44.0,65.06421875,-64.32,0.6160756875,33.55
2021-06-28 13:42:57.898437500,-45.25,13.25,44.5,65.063203125,-61.11,0.61619578125,33.55
2021-06-28 13:42:57.906250000,-45.0,13.0,45.0,65.0621875,-57.9,0.616315875,33.55
2021-06-28 13:42:57.914062500,-44.75,13.25,45.0,65.061171875,-54.07,0.61643596875,33.55
2021-06-28 13:42:57.921875000,-44.5,13.5,45.0,65.06015624999999,-50.24,0.6165560625,33.55
2021-06-28 13:42:57.929687500,-44.25,13.75,45.0,65.059140625,-46.2,0.6166761562499999,33.55
2021-06-28 13:42:57.937500000,-44.0,14.0,45.0,65.058125,-42.16,0.6167962499999999,33.55
2021-06-28 13:42:57.945312500,-44.5,14.0,44.5,65.057109375,-38.245,0.61691634375,33.55
2021-06-28 13:42:57.953125000,-45.0,14.0,44.0,65.05609375,-34.33,0.6170364375,33.55
2021-06-28 13:42:57.960937500,-45.5,14.0,43.5,65.055078125,-30.729999999999997,0.61715653125,33.55
2021-06-28 13:42:57.968750000,-46.0,14.0,43.0,65.0540625,-27.13,0.617276625,33.55
2021-06-28 13:42:57.976562500,-45.75,14.0,43.25,65.05304687499999,-23.91,0.61739671875,33.55
2021-06-28 13:42:57.984375000,-45.5,14.0,43.5,65.05203125,-20.69,0.6175168125,33.55
2021-06-28 13:42:57.992187500,-45.25,14.0,43.75,65.05101562499999,-17.815,0.61763690625,33.55
2021-06-28 13:42:58.000000000,-45.0,14.0,44.0,65.05,-14.94,0.617757,33.55
2021-06-28 13:42:58.007812500,-45.0,14.0,44.25,65.049375,-12.364999999999998,0.6176769375,33.55
2021-06-28 13:42:58.015625000,-45.0,14.0,44.5,65.04875,-9.79,0.617596875,33.55
2021-06-28 13:42:58.023437500,-45.0,14.0,44.75,65.048125,-7.52,0.6175168125,33.55
2021-06-28 13:42:58.031250000,-45.0,14.0,45.0,65.0475,-5.25,0.61743675,33.55
2021-06-28 13:42:58.039062500,-45.0,14.0,44.75,65.046875,-3.32,0.6173566875000001,33.55
2021-06-28 13:42:58.046875000,-45.0,14.0,44.5,65.04625,-1.39,0.617276625,33.55
2021-06-28 13:42:58.054687500,-45.0,14.0,44.25,65.045625,0.125,0.6171965625,33.55
2021-06-28 13:42:58.062500000,-45.0,14.0,44.0,65.045,1.64,0.6171165000000001,33.55
2021-06-28 13:42:58.070312500,-44.75,14.0,44.25,65.044375,2.705,0.6170364375,33.55
2021-06-28 13:42:58.078125000,-44.5,14.0,44.5,65.04375,3.77,0.616956375,33.55
2021-06-28 13:42:58.085937500,-44.25,14.0,44.75,65.043125,4.425,0.6168763125,33.55
2021-06-28 13:42:58.093750000,-44.0,14.0,45.0,65.0425,5.08,0.61679625,33.55
2021-06-28 13:42:58.101562500,-44.5,13.75,44.75,65.04187499999999,5.515000000000001,0.6167161875,33.55
2021-06-28 13:42:58.109375000,-45.0,13.5,44.5,65.04124999999999,5.95,0.616636125,33.55
2021-06-28 13:42:58.117187500,-45.5,13.25,44.25,65.04062499999999,6.43,0.6165560625000001,33.55
2021-06-28 13:42:58.125000000,-46.0,13.0,44.0,65.03999999999999,6.91,0.616476,33.55
2021-06-28 13:42:58.132812500,-46.0,13.25,44.0,65.03937499999999,7.715,0.6163959375,33.55
2021-06-28 13:42:58.140625000,-46.0,13.5,44.0,65.03875,8.52,0.6163158750000001,33.55
2021-06-28 13:42:58.148437500,-46.0,13.75,44.0,65.038125,9.82,0.6162358125,33.55
2021-06-28 13:42:58.156250000,-46.0,14.0,44.0,65.0375,11.12,0.61615575,33.55
2021-06-28 13:42:58.164062500,-45.5,14.0,44.25,65.036875,12.899999999999999,0.6160756875000001,33.55
2021-06-28 13:42:58.171875000,-45.0,14.0,44.5,65.03625,14.68,0.615995625,33.55
2021-06-28 13:42:58.179687500,-44.5,14.0,44.75,65.035625,16.759999999999998,0.6159155625,33.55
2021-06-28 13:42:58.187500000,-44.0,14.0,45.0,65.035,18.84,0.6158355,33.55
2021-06-28 13:42:58.195312500,-44.0,14.0,45.0,65.034375,20.925,0.6157554375000001,33.55
2021-06-28 13:42:58.203125000,-44.0,14.0,45.0,65.03375,23.01,0.615675375,33.55
2021-06-28 13:42:58.210937500,-44.0,14.0,45.0,65.033125,24.85,0.6155953125,33.55
2021-06-28 13:42:58.218750000,-44.0,14.0,45.0,65.0325,26.69,0.6155152500000001,33.55
2021-06-28 13:42:58.226562500,-44.5,14.0,44.75,65.031875,28.145000000000003,0.6154351875,33.55
2021-06-28 13:42:58.234375000,-45.0,14.0,44.5,65.03125,29.6,0.615355125,33.55
2021-06-28 13:42:58.242187500,-45.5,14.0,44.25,65.030625,30.72,0.6152750625000001,33.55
2021-06-28 13:42:58.250000000,-46.0,14.0,44.0,65.03,31.84,0.615195,33.55
2021-06-28 13:42:58.257812500,-46.0,14.0,44.0,65.029375,32.75,0.61523503125,33.55
2021-06-28 13:42:58.265625000,-46.0,14.0,44.0,65.02875,33.66,0.6152750625000001,33.55
2021-06-28 13:42:58.273437500,-46.0,14.0,44.0,65.028125,34.495,0.61531509375,33.55
2021-06-28 13:42:58.281250000,-46.0,14.0,44.0,65.0275,35.33,0.615355125,33.55
2021-06-28 13:42:58.289062500,-45.75,14.0,44.0,65.026875,36.135,0.6153951562500001,33.55
2021-06-28 13:42:58.296875000,-45.5,14.0,44.0,65.02625,36.94,0.6154351875,33.55
2021-06-28 13:42:58.304687500,-45.25,14.0,44.0,65.02562499999999,37.65,0.61547521875,33.55
2021-06-28 13:42:58.312500000,-45.0,14.0,44.0,65.02499999999999,38.36,0.6155152500000001,33.55
2021-06-28 13:42:58.320312500,-45.0,14.0,44.0,65.02437499999999,38.84,0.61555528125,33.55
2021-06-28 13:42:58.328125000,-45.0,14.0,44.0,65.02374999999999,39.32,0.6155953125,33.55
2021-06-28 13:42:58.335937500,-45.0,14.0,44.0,65.023125,39.489999999999995,0.6156353437500001,33.55
2021-06-28 13:42:58.343750000,-45.0,14.0,44.0,65.0225,39.66,0.615675375,33.55
2021-06-28 13:42:58.351562500,-45.25,14.0,43.75,65.021875,39.55,0.61571540625,33.55
2021-06-28 13:42:58.359375000,-45.5,14.0,43.5,65.02125,39.44,0.6157554375000001,33.55
2021-06-28 13:42:58.367187500,-45.75,14.0,43.25,65.020625,39.185,0.61579546875,33.55
2021-06-28 13:42:58.375000000,-46.0,14.0,43.0,65.02,38.93,0.6158355,33.55
2021-06-28 13:42:58.382812500,-46.0,14.0,43.0,65.019375,38.754999999999995,0.61587553125,33.55
2021-06-28 13:42:58.390625000,-46.0,14.0,43.0,65.01875,38.58,0.6159155625,33.55
2021-06-28 13:42:58.398437500,-46.0,14.0,43.0,65.018125,38.67,0.6159555937500001,33.55
2021-06-28 13:42:58.406250000,-46.0,14.0,43.0,65.0175,38.76,0.615995625,33.55
2021-06-28 13:42:58.414062500,-46.0,14.0,43.0,65.016875,39.209999999999994,0.61603565625,33.55
2021-06-28 13:42:58.421875000,-46.0,14.0,43.0,65.01625,39.66,0.6160756875000001,33.55
2021-06-28 13:42:58.429687500,-46.0,14.0,43.0,65.015625,40.415,0.61611571875,33.55
2021-06-28 13:42:58.437500000,-46.0,14.0,43.0,65.015,41.17,0.61615575,33.55
2021-06-28 13:42:58.445312500,-46.5,13.75,42.75,65.014375,42.035,0.6161957812500001,33.55
2021-06-28 13:42:58.453125000,-47.0,13.5,42.5,65.01375,42.9,0.6162358125,33.55
2021-06-28 13:42:58.460937500,-47.5,13.25,42.25,65.013125,43.575,0.61627584375,33.55
2021-06-28 13:42:58.468750000,-48.0,13.0,42.0,65.0125,44.25,0.6163158750000001,33.55
2021-06-28 13:42:58.476562500,-48.0,13.0,41.75,65.011875,44.39,0.61635590625,33.55
2021-06-28 13:42:58.484375000,-48.0,13.0,41.5,65.01125,44.53,0.6163959375,33.55
2021-06-28 13:42:58.492187500,-48.0,13.0,41.25,65.010625,43.83,0.6164359687500001,33.55
2021-06-28 13:42:58.500000000,-48.0,13.0,41.0,65.00999999999999,43.13,0.616476,33.55
2021-06-28 13:42:58.507812500,-48.0,13.25,41.25,65.00937499999999,41.44,0.61651603125,33.55
2021-06-28 13:42:58.515625000,-48.0,13.5,41.5,65.00874999999999,39.75,0.6165560625000001,33.55
2021-06-28 13:42:58.523437500,-48.0,13.75,41.75,65.00812499999999,37.205,0.61659609375,33.55
2021-06-28 13:42:58.531250000,-48.0,14.0,42.0,65.0075,34.66,0.616636125,33.55
2021-06-28 13:42:58.539062500,-47.75,14.0,42.0,65.006875,31.63,0.61667615625,33.55
2021-06-28 13:42:58.546875000,-47.5,14.0,42.0,65.00625,28.6,0.6167161875,33.55
2021-06-28 13:42:58.554687500,-47.25,14.0,42.0,65.005625,25.66,0.61675621875,33.55
2021-06-28 13:42:58.562500000,-47.0,14.0,42.0,65.005,22.72,0.61679625,33.55
2021-06-28 13:42:58.570312500,-47.0,14.0,42.0,65.004375,20.435,0.61683628125,33.55
2021-06-28 13:42:58.578125000,-47.0,14.0,42.0,65.00375,18.15,0.6168763125,33.55
2021-06-28 13:42:58.585937500,-47.0,14.0,42.0,65.003125,16.89,0.61691634375,33.55
2021-06-28 13:42:58.593750000,-47.0,14.0,42.0,65.0025,15.63,0.616956375,33.55
2021-06-28 13:42:58.601562500,-47.0,13.75,42.0,65.001875,15.47,0.61699640625,33.55
2021-06-28 13:42:58.609375000,-47.0,13.5,42.0,65.00125,15.31,0.6170364375,33.55
2021-06-28 13:42:58.617187500,-47.0,13.25,42.0,65.000625,16.04,0.61707646875,33.55
2021-06-28 13:42:58.625000000,-47.0,13.0,42.0,65.0,16.77,0.6171165000000001,33.55
2021-06-28 13:42:58.632812500,-47.25,13.0,42.0,64.999375,17.990000000000002,0.61715653125,33.55
2021-06-28 13:42:58.640625000,-47.5,13.0,42.0,64.99875,19.21,0.6171965625,33.55
2021-06-28 13:42:58.648437500,-47.75,13.0,42.0,64.998125,20.525,0.6172365937500001,33.55
2021-06-28 13:42:58.656250000,-48.0,13.0,42.0,64.9975,21.84,0.617276625,33.55
2021-06-28 13:42:58.664062500,-48.0,13.25,42.0,64.996875,22.939999999999998,0.61731665625,33.55
2021-06-28 13:42:58.671875000,-48.0,13.5,42.0,64.99625,24.04,0.6173566875000001,33.55
2021-06-28 13:42:58.679687500,-48.0,13.75,42.0,64.995625,24.765,0.61739671875,33.55
2021-06-28 13:42:58.687500000,-48.0,14.0,42.0,64.995,25.49,0.61743675,33.55
2021-06-28 13:42:58.695312500,-48.0,13.75,42.0,64.994375,25.805,0.61747678125,33.55
2021-06-28 13:42:58.703125000,-48.0,13.5,42.0,64.99374999999999,26.12,0.6175168125,33.55
2021-06-28 13:42:58.710937500,-48.0,13.25,42.0,64.99312499999999,26.11,0.61755684375,33.55
2021-06-28 13:42:58.718750000,-48.0,13.0,42.0,64.99249999999999,26.1,0.617596875,33.55
2021-06-28 13:42:58.726562500,-48.0,13.0,42.0,64.991875,25.885,0.61763690625,33.55
2021-06-28 13:42:58.734375000,-48.0,13.0,42.0,64.99125,25.67,0.6176769375,33.55
2021-06-28 13:42:58.742187500,-48.0,13.0,42.0,64.990625,25.375,0.61771696875,33.55
2021-06-28 13:42:58.750000000,-48.0,13.0,42.0,64.99,25.08,0.617757,33.55
2021-06-28 13:42:58.757812500,-48.0,13.0,42.0,64.989375,24.784999999999997,0.61763690625,33.55
2021-06-28 13:42:58.765625000,-48.0,13.0,42.0,64.98875,24.49,0.6175168125,33.55
2021-06-28 13:42:58.773437500,-48.0,13.0,42.0,64.988125,24.189999999999998,0.61739671875,33.55
2021-06-28 13:42:58.781250000,-48.0,13.0,42.0,64.9875,23.89,0.617276625,33.55
2021-06-28 13:42:58.789062500,-48.0,13.0,42.0,64.986875,23.515,0.61715653125,33.55
2021-06-28 13:42:58.796875000,-48.0,13.0,42.0,64.98625,23.14,0.6170364375,33.55
2021-06-28 13:42:58.804687500,-48.0,13.0,42.0,64.985625,22.585,0.61691634375,33.55
2021-06-28 13:42:58.812500000,-48.0,13.0,42.0,64.985,22.03,0.6167962499999999,33.55
2021-06-28 13:42:58.820312500,-48.0,13.0,42.0,64.984375,21.22,0.6166761562499999,33.55
2021-06-28 13:42:58.828125000,-48.0,13.0,42.0,64.98375,20.41,0.6165560625,33.55
2021-06-28 13:42:58.835937500,-48.0,13.0,42.0,64.983125,19.33,0.61643596875,33.55
2021-06-28 13:42:58.843750000,-48.0,13.0,42.0,64.9825,18.25,0.616315875,33.55
2021-06-28 13:42:58.851562500,-48.0,13.0,42.0,64.981875,16.98,0.61619578125,33.55
2021-06-28 13:42:58.859375000,-48.0,13.0,42.0,64.98125,15.71,0.6160756875,33.55
2021-06-28 13:42:58.867187500,-48.0,13.0,42.0,64.980625,14.34,0.61595559375,33.55
2021-06-28 13:42:58.875000000,-48.0,13.0,42.0,64.98,12.97,0.6158355,33.55
2021-06-28 13:42:58.882812500,-48.0,13.0,42.0,64.979375,11.595,0.61571540625,33.55
2021-06-28 13:42:58.890625000,-48.0,13.0,42.0,64.97875,10.22,0.6155953125,33.55
2021-06-28 13:42:58.898437500,-48.0,13.0,42.0,64.978125,8.93,0.61547521875,33.55
2021-06-28 13:42:58.906250000,-48.0,13.0,42.0,64.97749999999999,7.64,0.615355125,33.55
2021-06-28 13:42:58.914062500,-47.5,12.75,42.25,64.97687499999999,6.505,0.61523503125,33.55
2021-06-28 13:42:58.921875000,-47.0,12.5,42.5,64.97625,5.37,0.6151149375,33.55
2021-06-28 13:42:58.929687500,-46.5,12.25,42.75,64.975625,4.485,0.61499484375,33.55
2021-06-28 13:42:58.937500000,-46.0,12.0,43.0,64.975,3.6,0.61487475,33.55
2021-06-28 13:42:58.945312500,-46.5,12.25,42.75,64.974375,3.04,0.6147546562499999,33.55
2021-06-28 13:42:58.953125000,-47.0,12.5,42.5,64.97375,2.48,0.6146345624999999,33.55
2021-06-28 13:42:58.960937500,-47.5,12.75,42.25,64.973125,2.25,0.6145144687499999,33.55
2021-06-28 13:42:58.968750000,-48.0,13.0,42.0,64.9725,2.02,0.6143943749999999,33.55
2021-06-28 13:42:58.976562500,-48.0,12.75,42.0,64.971875,2.065,0.6142742812499999,33.55
2021-06-28 13:42:58.984375000,-48.0,12.5,42.0,64.97125,2.11,0.6141541875,33.55
2021-06-28 13:42:58.992187500,-48.0,12.25,42.0,64.970625,2.3,0.61403409375,33.55
2021-06-28 13:42:59.000000000,-48.0,12.0,42.0,64.97,2.49,0.613914,33.55
2021-06-28 13:42:59.007812500,-48.0,12.25,41.75,64.96921875,2.6950000000000003,0.61383390625,33.550625
2021-06-28 13:42:59.015625000,-48.0,12.5,41.5,64.9684375,2.9,0.6137538124999999,33.551249999999996
2021-06-28 13:42:59.023437500,-48.0,12.75,41.25,64.96765625,3.02,0.61367371875,33.551874999999995
2021-06-28 13:42:59.031250000,-48.0,13.0,41.0,64.966875,3.14,0.6135936249999999,33.552499999999995
2021-06-28 13:42:59.039062500,-48.0,13.0,41.25,64.96609375,3.14,0.61351353125,33.553124999999994
2021-06-28 13:42:59.046875000,-48.0,13.0,41.5,64.9653125,3.14,0.6134334375,33.55375
2021-06-28 13:42:59.054687500,-48.0,13.0,41.75,64.96453125,3.02,0.61335334375,33.554375
2021-06-28 13:42:59.062500000,-48.0,13.0,42.0,64.96375,2.9,0.61327325,33.555
2021-06-28 13:42:59.070312500,-48.0,12.75,42.25,64.96296875,2.665,0.6131931562499999,33.555625
2021-06-28 13:42:59.078125000,-48.0,12.5,42.5,64.9621875,2.43,0.6131130625,33.55625
2021-06-28 13:42:59.085937500,-48.0,12.25,42.75,64.96140625,2.035,0.61303296875,33.556875
2021-06-28 13:42:59.093750000,-48.0,12.0,43.0,64.960625,1.64,0.612952875,33.5575
2021-06-28 13:42:59.101562500,-48.0,12.0,43.0,64.95984375,1.02,0.61287278125,33.558125
2021-06-28 13:42:59.109375000,-48.0,12.0,43.0,64.9590625,0.4,0.6127926874999999,33.558749999999996
2021-06-28 13:42:59.117187500,-48.0,12.0,43.0,64.95828125,-0.505,0.61271259375,33.559374999999996
2021-06-28 13:42:59.125000000,-48.0,12.0,43.0,64.9575,-1.41,0.6126324999999999,33.56
2021-06-28 13:42:59.132812500,-48.0,12.25,42.75,64.95671875,-2.6399999999999997,0.61255240625,33.560625
2021-06-28 13:42:59.140625000,-48.0,12.5,42.5,64.9559375,-3.87,0.6124723125,33.56125
2021-06-28 13:42:59.148437500,-48.0,12.75,42.25,64.95515625,-5.415,0.6123922187499999,33.561875
2021-06-28 13:42:59.156250000,-48.0,13.0,42.0,64.954375,-6.96,0.612312125,33.5625
2021-06-28 13:42:59.164062500,-48.0,12.75,42.0,64.95359375,-8.79,0.6122320312499999,33.563125
2021-06-28 13:42:59.171875000,-48.0,12.5,42.0,64.9528125,-10.62,0.6121519375,33.56375
2021-06-28 13:42:59.179687500,-48.0,12.25,42.0,64.95203125,-12.69,0.61207184375,33.564375
2021-06-28 13:42:59.187500000,-48.0,12.0,42.0,64.95125,-14.76,0.61199175,33.565
2021-06-28 13:42:59.195312500,-48.0,12.25,42.0,64.95046875,-16.98,0.61191165625,33.565625
2021-06-28 13:42:59.203125000,-48.0,12.5,42.0,64.9496875,-19.2,0.6118315624999999,33.56625
2021-06-28 13:42:59.210937500,-48.0,12.75,42.0,64.94890625,-21.424999999999997,0.61175146875,33.566875
2021-06-28 13:42:59.218750000,-48.0,13.0,42.0,64.948125,-23.65,0.611671375,33.5675
2021-06-28 13:42:59.226562500,-48.0,12.75,42.25,64.94734375,-25.619999999999997,0.61159128125,33.568125
2021-06-28 13:42:59.234375000,-48.0,12.5,42.5,64.9465625,-27.59,0.6115111875,33.56875
2021-06-28 13:42:59.242187500,-48.0,12.25,42.75,64.94578125,-28.96,0.6114310937499999,33.569375
2021-06-28 13:42:59.250000000,-48.0,12.0,43.0,64.945,-30.33,0.611351,33.57
2021-06-28 13:42:59.257812500,-48.0,12.0,42.75,64.94421875,-30.77,0.611351,33.57
2021-06-28 13:42:59.265625000,-48.0,12.0,42.5,64.9434375,-31.21,0.611351,33.57
2021-06-28 13:42:59.273437500,-48.0,12.0,42.25,64.94265625,-30.52,0.611351,33.57
2021-06-28 13:42:59.281250000,-48.0,12.0,42.0,64.941875,-29.83,0.611351,33.57
2021-06-28 13:42:59.289062500,-48.0,12.25,42.0,64.94109375000001,-28.04,0.611351,33.57
2021-06-28 13:42:59.296875000,-48.0,12.5,42.0,64.9403125,-26.25,0.611351,33.57
2021-06-28 13:42:59.304687500,-48.0,12.75,42.0,64.93953125,-23.64,0.611351,33.57
2021-06-28 13:42:59.312500000,-48.0,13.0,42.0,64.93875,-21.03,0.611351,33.57
2021-06-28 13:42:59.320312500,-47.75,12.75,42.25,64.93796875,-18.05,0.611351,33.57
2021-06-28 13:42:59.328125000,-47.5,12.5,42.5,64.93718750000001,-15.07,0.611351,33.57
2021-06-28 13:42:59.335937500,-47.25,12.25,42.75,64.93640625,-12.18,0.611351,33.57
2021-06-28 13:42:59.343750000,-47.0,12.0,43.0,64.935625,-9.29,0.611351,33.57
2021-06-28 13:42:59.351562500,-47.25,12.0,42.75,64.93484375,-6.84,0.611351,33.57
2021-06-28 13:42:59.359375000,-47.5,12.0,42.5,64.9340625,-4.39,0.611351,33.57
2021-06-28 13:42:59.367187500,-47.75,12.0,42.25,64.93328125000001,-2.485,0.611351,33.57
2021-06-28 13:42:59.375000000,-48.0,12.0,42.0,64.9325,-0.58,0.611351,33.57
2021-06-28 13:42:59.382812500,-47.75,12.25,42.25,64.93171875,0.84,0.611351,33.57
2021-06-28 13:42:59.390625000,-47.5,12.5,42.5,64.9309375,2.26,0.611351,33.57
2021-06-28 13:42:59.398437500,-47.25,12.75,42.75,64.93015625,3.335,0.611351,33.57
2021-06-28 13:42:59.406250000,-47.0,13.0,43.0,64.92937500000001,4.41,0.611351,33.57
2021-06-28 13:42:59.414062500,-47.25,12.75,42.75,64.92859375,5.245,0.611351,33.57
2021-06-28 13:42:59.421875000,-47.5,12.5,42.5,64.9278125,6.08,0.611351,33.57
2021-06-28 13:42:59.429687500,-47.75,12.25,42.25,64.92703125,6.6850000000000005,0.611351,33.57
2021-06-28 13:42:59.437500000,-48.0,12.0,42.0,64.92625,7.29,0.611351,33.57
2021-06-28 13:42:59.445312500,-47.75,12.0,42.25,64.92546875000001,7.605,0.611351,33.57
2021-06-28 13:42:59.453125000,-47.5,12.0,42.5,64.9246875,7.92,0.611351,33.57
2021-06-28 13:42:59.460937500,-47.25,12.0,42.75,64.92390625,7.875,0.611351,33.57
2021-06-28 13:42:59.468750000,-47.0,12.0,43.0,64.923125,7.83,0.611351,33.57
2021-06-28 13:42:59.476562500,-47.25,12.0,42.75,64.92234375,7.43,0.611351,33.57
2021-06-28 13:42:59.484375000,-47.5,12.0,42.5,64.92156250000001,7.03,0.611351,33.57
2021-06-28 13:42:59.492187500,-47.75,12.0,42.25,64.92078125,6.36,0.611351,33.57
2021-06-28 13:42:59.500000000,-48.0,12.0,42.0,64.92,5.69,0.611351,33.57
2021-06-28 13:42:59.507812500,-48.0,12.0,42.0,64.91921875,4.885,0.61131096875,33.57
2021-06-28 13:42:59.515625000,-48.0,12.0,42.0,64.9184375,4.08,0.6112709375,33.57
2021-06-28 13:42:59.523437500,-48.0,12.0,42.0,64.91765625000001,3.245,0.61123090625,33.57
2021-06-28 13:42:59.531250000,-48.0,12.0,42.0,64.916875,2.41,0.611190875,33.57
2021-06-28 13:42:59.539062500,-48.0,12.0,42.25,64.91609375,1.57,0.61115084375,33.57
2021-06-28 13:42:59.546875000,-48.0,12.0,42.5,64.9153125,0.73,0.6111108125,33.57
2021-06-28 13:42:59.554687500,-48.0,12.0,42.75,64.91453125,-0.16000000000000003,0.61107078125,33.57
2021-06-28 13:42:59.562500000,-48.0,12.0,43.0,64.91375000000001,-1.05,0.61103075,33.57
2021-06-28 13:42:59.570312500,-47.75,12.0,43.0,64.91296875,-2.0549999999999997,0.61099071875,33.57
2021-06-28 13:42:59.578125000,-47.5,12.0,43.0,64.9121875,-3.06,0.6109506875,33.57
2021-06-28 13:42:59.585937500,-47.25,12.0,43.0,64.91140625,-4.19,0.61091065625,33.57
2021-06-28 13:42:59.593750000,-47.0,12.0,43.0,64.910625,-5.32,0.610870625,33.57
2021-06-28 13:42:59.601562500,-47.0,12.25,42.75,64.90984375000001,-6.49,0.61083059375,33.57
2021-06-28 13:42:59.609375000,-47.0,12.5,42.5,64.9090625,-7.66,0.6107905625,33.57
2021-06-28 13:42:59.617187500,-47.0,12.75,42.25,64.90828125,-8.73,0.61075053125,33.57
2021-06-28 13:42:59.625000000,-47.0,13.0,42.0,64.9075,-9.8,0.6107104999999999,33.57
2021-06-28 13:42:59.632812500,-47.0,13.0,42.0,64.90671875,-10.61,0.61067046875,33.57
2021-06-28 13:42:59.640625000,-47.0,13.0,42.0,64.90593750000001,-11.42,0.6106304375,33.57
2021-06-28 13:42:59.648437500,-47.0,13.0,42.0,64.90515625,-11.89,0.6105904062499999,33.57
2021-06-28 13:42:59.656250000,-47.0,13.0,42.0,64.904375,-12.36,0.610550375,33.57
2021-06-28 13:42:59.664062500,-47.25,13.0,42.0,64.90359375,-12.545,0.61051034375,33.57
2021-06-28 13:42:59.671875000,-47.5,13.0,42.0,64.9028125,-12.73,0.6104703125,33.57
2021-06-28 13:42:59.679687500,-47.75,13.0,42.0,64.90203125000001,-12.780000000000001,0.61043028125,33.57
2021-06-28 13:42:59.687500000,-48.0,13.0,42.0,64.90125,-12.83,0.61039025,33.57
2021-06-28 13:42:59.695312500,-48.0,12.75,42.0,64.90046875,-12.945,0.61035021875,33.57
2021-06-28 13:42:59.703125000,-48.0,12.5,42.0,64.8996875,-13.06,0.6103101875,33.57
2021-06-28 13:42:59.710937500,-48.0,12.25,42.0,64.89890625,-13.370000000000001,0.61027015625,33.57
2021-06-28 13:42:59.718750000,-48.0,12.0,42.0,64.89812500000001,-13.68,0.610230125,33.57
2021-06-28 13:42:59.726562500,-48.0,12.0,42.0,64.89734375,-14.215,0.61019009375,33.57
2021-06-28 13:42:59.734375000,-48.0,12.0,42.0,64.8965625,-14.75,0.6101500625,33.57
2021-06-28 13:42:59.742187500,-48.0,12.0,42.0,64.89578125,-15.42,0.61011003125,33.57
2021-06-28 13:42:59.750000000,-48.0,12.0,42.0,64.89500000000001,-16.09,0.61007,33.57
2021-06-28 13:42:59.757812500,-47.75,12.25,42.0,64.89421875000001,-16.765,0.6098298125,33.57
2021-06-28 13:42:59.765625000,-47.5,12.5,42.0,64.8934375,-17.44,0.609589625,33.57
2021-06-28 13:42:59.773437500,-47.25,12.75,42.0,64.89265625,-18.03,0.6093494375,33.57
2021-06-28 13:42:59.781250000,-47.0,13.0,42.0,64.891875,-18.62,0.60910925,33.57
2021-06-28 13:42:59.789062500,-47.25,13.0,42.0,64.89109375000001,-19.14,0.6088690625000001,33.57
2021-06-28 13:42:59.796875000,-47.5,13.0,42.0,64.89031250000001,-19.66,0.608628875,33.57
2021-06-28 13:42:59.804687500,-47.75,13.0,42.0,64.88953125,-20.205,0.6083886875,33.57
2021-06-28 13:42:59.812500000,-48.0,13.0,42.0,64.88875,-20.75,0.6081485,33.57
2021-06-28 13:42:59.820312500,-48.0,13.0,42.25,64.88796875,-21.47,0.6079083125,33.57
2021-06-28 13:42:59.828125000,-48.0,13.0,42.5,64.88718750000001,-22.19,0.607668125,33.57
2021-06-28 13:42:59.835937500,-48.0,13.0,42.75,64.88640625000001,-23.21,0.6074279375,33.57
2021-06-28 13:42:59.843750000,-48.0,13.0,43.0,64.885625,-24.23,0.60718775,33.57
2021-06-28 13:42:59.851562500,-48.0,12.75,43.0,64.88484375,-25.58,0.6069475625,33.57
2021-06-28 13:42:59.859375000,-48.0,12.5,43.0,64.8840625,-26.93,0.606707375,33.57
2021-06-28 13:42:59.867187500,-48.0,12.25,43.0,64.88328125000001,-28.490000000000002,0.6064671875000001,33.57
2021-06-28 13:42:59.875000000,-48.0,12.0,43.0,64.88250000000001,-30.05,0.6062270000000001,33.57
2021-06-28 13:42:59.882812500,-48.0,12.25,42.5,64.88171875,-31.58,0.6059868125,33.57
2021-06-28 13:42:59.890625000,-48.0,12.5,42.0,64.8809375,-33.11,0.605746625,33.57
2021-06-28 13:42:59.898437500,-48.0,12.75,41.5,64.88015625,-34.265,0.6055064375,33.57
2021-06-28 13:42:59.906250000,-48.0,13.0,41.0,64.87937500000001,-35.42,0.60526625,33.57
2021-06-28 13:42:59.914062500,-48.0,13.0,41.0,64.87859375000001,-35.835,0.6050260625,33.57
2021-06-28 13:42:59.921875000,-48.0,13.0,41.0,64.8778125,-36.25,0.604785875,33.57
2021-06-28 13:42:59.929687500,-48.0,13.0,41.0,64.87703125,-35.629999999999995,0.6045456875,33.57
2021-06-28 13:42:59.937500000,-48.0,13.0,41.0,64.87625,-35.01,0.6043055,33.57
2021-06-28 13:42:59.945312500,-48.0,13.0,41.25,64.87546875000001,-33.205,0.6040653125000001,33.57
2021-06-28 13:42:59.953125000,-48.0,13.0,41.5,64.87468750000001,-31.4,0.6038251250000001,33.57
2021-06-28 13:42:59.960937500,-48.0,13.0,41.75,64.87390625,-28.49,0.6035849375,33.57
2021-06-28 13:42:59.968750000,-48.0,13.0,42.0,64.873125,-25.58,0.60334475,33.57
2021-06-28 13:42:59.976562500,-48.0,13.0,42.25,64.87234375,-21.825,0.6031045625,33.57
2021-06-28 13:42:59.984375000,-48.0,13.0,42.5,64.87156250000001,-18.07,0.602864375,33.57
2021-06-28 13:42:59.992187500,-48.0,13.0,42.75,64.87078125000001,-13.865,0.6026241875,33.57
2021-06-28 13:43:00.000000000,-48.0,13.0,43.0,64.87,-9.66,0.602384,33.57
2021-06-28 13:43:00.007812500,-48.0,13.0,42.75,64.868515625,-5.41,0.6023039375,33.57
2021-06-28 13:43:00.015625000,-48.0,13.0,42.5,64.86703125000001,-1.16,0.6022238750000001,33.57
2021-06-28 13:43:00.023437500,-48.0,13.0,42.25,64.865546875,2.8150000000000004,0.6021438125,33.57
2021-06-28 13:43:00.031250000,-48.0,13.0,42.0,64.8640625,6.79,0.60206375,33.57
2021-06-28 13:43:00.039062500,-48.0,13.0,42.0,64.862578125,10.295,0.6019836875,33.57
2021-06-28 13:43:00.046875000,-48.0,13.0,42.0,64.86109375000001,13.8,0.601903625,33.57
2021-06-28 13:43:00.054687500,-48.0,13.0,42.0,64.859609375,16.73,0.6018235625,33.57
2021-06-28 13:43:00.062500000,-48.0,13.0,42.0,64.858125,19.66,0.6017435,33.57
2021-06-28 13:43:00.070312500,-48.0,13.0,42.0,64.85664062500001,21.939999999999998,0.6016634375000001,33.57
2021-06-28 13:43:00.078125000,-48.0,13.0,42.0,64.85515625000001,24.22,0.601583375,33.57
2021-06-28 13:43:00.085937500,-48.0,13.0,42.0,64.853671875,25.79,0.6015033125,33.57
2021-06-28 13:43:00.093750000,-48.0,13.0,42.0,64.8521875,27.36,0.60142325,33.57
2021-06-28 13:43:00.101562500,-48.0,13.0,41.75,64.85070312500001,28.16,0.6013431875,33.57
2021-06-28 13:43:00.109375000,-48.0,13.0,41.5,64.84921875,28.96,0.601263125,33.57
2021-06-28 13:43:00.117187500,-48.0,13.0,41.25,64.847734375,28.995,0.6011830625,33.57
2021-06-28 13:43:00.125000000,-48.0,13.0,41.0,64.84625,29.03,0.6011029999999999,33.57
2021-06-28 13:43:00.132812500,-48.0,13.0,41.0,64.84476562500001,28.395000000000003,0.6010229375,33.57
2021-06-28 13:43:00.140625000,-48.0,13.0,41.0,64.84328125,27.76,0.600942875,33.57
2021-06-28 13:43:00.148437500,-48.0,13.0,41.0,64.841796875,26.630000000000003,0.6008628125,33.57
2021-06-28 13:43:00.156250000,-48.0,13.0,41.0,64.84031250000001,25.5,0.60078275,33.57
2021-06-28 13:43:00.164062500,-47.75,13.0,41.25,64.838828125,24.095,0.6007026875,33.57
2021-06-28 13:43:00.171875000,-47.5,13.0,41.5,64.83734375,22.69,0.600622625,33.57
2021-06-28 13:43:00.179687500,-47.25,13.0,41.75,64.835859375,21.22,0.6005425624999999,33.57
2021-06-28 13:43:00.187500000,-47.0,13.0,42.0,64.83437500000001,19.75,0.6004625,33.57
2021-06-28 13:43:00.195312500,-47.25,13.0,42.0,64.832890625,18.369999999999997,0.6003824375,33.57
2021-06-28 13:43:00.203125000,-47.5,13.0,42.0,64.83140625,16.99,0.6003023749999999,33.57
2021-06-28 13:43:00.210937500,-47.75,13.0,42.0,64.82992187500001,15.79,0.6002223125,33.57
2021-06-28 13:43:00.218750000,-48.0,13.0,42.0,64.8284375,14.59,0.60014225,33.57
2021-06-28 13:43:00.226562500,-48.0,13.0,42.0,64.826953125,13.59,0.6000621875,33.57
2021-06-28 13:43:00.234375000,-48.0,13.0,42.0,64.82546875,12.59,0.5999821249999999,33.57
2021-06-28 13:43:00.242187500,-48.0,13.0,42.0,64.82398437500001,11.775,0.5999020625,33.57
2021-06-28 13:43:00.250000000,-48.0,13.0,42.0,64.8225,10.96,0.599822,33.57
2021-06-28 13:43:00.257812500,-48.0,13.0,41.75,64.821015625,10.275,0.5996218125,33.57
2021-06-28 13:43:00.265625000,-48.0,13.0,41.5,64.81953125000001,9.59,0.599421625,33.57
2021-06-28 13:43:00.273437500,-48.0,13.0,41.25,64.81804687500001,8.99,0.5992214375,33.57
2021-06-28 13:43:00.281250000,-48.0,13.0,41.0,64.8165625,8.39,0.59902125,33.57
2021-06-28 13:43:00.289062500,-48.0,13.0,41.25,64.815078125,7.84,0.5988210625,33.57
2021-06-28 13:43:00.296875000,-48.0,13.0,41.5,64.81359375000001,7.29,0.5986208749999999,33.57
2021-06-28 13:43:00.304687500,-48.0,13.0,41.75,64.812109375,6.775,0.5984206875,33.57
2021-06-28 13:43:00.312500000,-48.0,13.0,42.0,64.810625,6.26,0.5982205,33.57
2021-06-28 13:43:00.320312500,-48.25,13.0,42.0,64.80914062500001,5.785,0.5980203125,33.57
2021-06-28 13:43:00.328125000,-48.5,13.0,42.0,64.80765625000001,5.31,0.597820125,33.57
2021-06-28 13:43:00.335937500,-48.75,13.0,42.0,64.806171875,4.88,0.5976199375,33.57
2021-06-28 13:43:00.343750000,-49.0,13.0,42.0,64.8046875,4.45,0.59741975,33.57
2021-06-28 13:43:00.351562500,-48.75,13.0,42.0,64.80320312500001,4.015000000000001,0.5972195625,33.57
2021-06-28 13:43:00.359375000,-48.5,13.0,42.0,64.80171875,3.58,0.597019375,33.57
2021-06-28 13:43:00.367187500,-48.25,13.0,42.0,64.800234375,3.0549999999999997,0.5968191875,33.57
2021-06-28 13:43:00.375000000,-48.0,13.0,42.0,64.79875000000001,2.53,0.596619,33.57
2021-06-28 13:43:00.382812500,-48.0,13.0,42.0,64.79726562500001,1.77,0.5964188125000001,33.57
2021-06-28 13:43:00.390625000,-48.0,13.0,42.0,64.79578125,1.01,0.596218625,33.57
2021-06-28 13:43:00.398437500,-48.0,13.0,42.0,64.794296875,-0.10499999999999998,0.5960184375,33.57
2021-06-28 13:43:00.406250000,-48.0,13.0,42.0,64.79281250000001,-1.22,0.59581825,33.57
2021-06-28 13:43:00.414062500,-48.0,13.0,42.0,64.791328125,-2.755,0.5956180625,33.57
2021-06-28 13:43:00.421875000,-48.0,13.0,42.0,64.78984375,-4.29,0.595417875,33.57
2021-06-28 13:43:00.429687500,-48.0,13.0,42.0,64.788359375,-6.1899999999999995,0.5952176875,33.57
2021-06-28 13:43:00.437500000,-48.0,13.0,42.0,64.78687500000001,-8.09,0.5950175,33.57
2021-06-28 13:43:00.445312500,-48.0,13.0,41.75,64.785390625,-10.225,0.5948173125,33.57
2021-06-28 13:43:00.453125000,-48.0,13.0,41.5,64.78390625,-12.36,0.5946171250000001,33.57
2021-06-28 13:43:00.460937500,-48.0,13.0,41.25,64.78242187500001,-14.549999999999999,0.5944169375,33.57
2021-06-28 13:43:00.468750000,-48.0,13.0,41.0,64.78093750000001,-16.74,0.5942167500000001,33.57
2021-06-28 13:43:00.476562500,-48.0,13.0,41.0,64.779453125,-18.84,0.5940165625,33.57
2021-06-28 13:43:00.484375000,-48.0,13.0,41.0,64.77796875,-20.94,0.5938163750000001,33.57
2021-06-28 13:43:00.492187500,-48.0,13.0,41.0,64.77648437500001,-22.89,0.5936161875,33.57
2021-06-28 13:43:00.500000000,-48.0,13.0,41.0,64.775,-24.84,0.593416,33.57
2021-06-28 13:43:00.507812500,-48.25,13.0,41.0,64.773515625,-26.645,0.59345603125,33.57
2021-06-28 13:43:00.515625000,-48.5,13.0,41.0,64.77203125000001,-28.45,0.5934960625000001,33.57
2021-06-28 13:43:00.523437500,-48.75,13.0,41.0,64.77054687500001,-30.195,0.59353609375,33.57
2021-06-28 13:43:00.531250000,-49.0,13.0,41.0,64.7690625,-31.94,0.593576125,33.57
2021-06-28 13:43:00.539062500,-48.75,13.0,41.0,64.767578125,-33.735,0.5936161562500001,33.57
2021-06-28 13:43:00.546875000,-48.5,13.0,41.0,64.76609375000001,-35.53,0.5936561875,33.57
2021-06-28 13:43:00.554687500,-48.25,13.0,41.0,64.764609375,-37.485,0.59369621875,33.57
2021-06-28 13:43:00.562500000,-48.0,13.0,41.0,64.763125,-39.44,0.5937362500000001,33.57
2021-06-28 13:43:00.570312500,-48.0,13.0,41.0,64.76164062500001,-41.62,0.59377628125,33.57
2021-06-28 13:43:00.578125000,-48.0,13.0,41.0,64.76015625000001,-43.8,0.5938163125,33.57
2021-06-28 13:43:00.585937500,-48.0,13.0,41.0,64.758671875,-46.165,0.5938563437500001,33.57
2021-06-28 13:43:00.593750000,-48.0,13.0,41.0,64.7571875,-48.53,0.593896375,33.57
2021-06-28 13:43:00.601562500,-48.0,13.0,41.5,64.75570312500001,-50.879999999999995,0.59393640625,33.57
2021-06-28 13:43:00.609375000,-48.0,13.0,42.0,64.75421875,-53.23,0.5939764375000001,33.57
2021-06-28 13:43:00.617187500,-48.0,13.0,42.5,64.752734375,-55.19,0.59401646875,33.57
2021-06-28 13:43:00.625000000,-48.0,13.0,43.0,64.75125,-57.15,0.5940565,33.57
2021-06-28 13:43:00.632812500,-48.0,13.0,43.0,64.74976562500001,-58.26,0.5940965312500001,33.57
2021-06-28 13:43:00.640625000,-48.0,13.0,43.0,64.74828125,-59.37,0.5941365625,33.57
2021-06-28 13:43:00.648437500,-48.0,13.0,43.0,64.746796875,-59.2,0.5941765937500001,33.57
2021-06-28 13:43:00.656250000,-48.0,13.0,43.0,64.74531250000001,-59.03,0.594216625,33.57
2021-06-28 13:43:00.664062500,-48.25,13.0,42.25,64.74382812500001,-57.375,0.59425665625,33.57
2021-06-28 13:43:00.671875000,-48.5,13.0,41.5,64.74234375,-55.72,0.5942966875000001,33.57
2021-06-28 13:43:00.679687500,-48.75,13.0,40.75,64.740859375,-52.655,0.59433671875,33.57
2021-06-28 13:43:00.687500000,-49.0,13.0,40.0,64.73937500000001,-49.59,0.59437675,33.57
2021-06-28 13:43:00.695312500,-48.75,13.0,40.25,64.737890625,-45.510000000000005,0.5944167812500001,33.57
2021-06-28 13:43:00.703125000,-48.5,13.0,40.5,64.73640625,-41.43,0.5944568125,33.57
2021-06-28 13:43:00.710937500,-48.25,13.0,40.75,64.73492187500001,-36.885000000000005,0.59449684375,33.57
2021-06-28 13:43:00.718750000,-48.0,13.0,41.0,64.73343750000001,-32.34,0.5945368750000001,33.57
2021-06-28 13:43:00.726562500,-47.5,12.75,42.25,64.731953125,-27.86,0.59457690625,33.57
2021-06-28 13:43:00.734375000,-47.0,12.5,43.5,64.73046875,-23.38,0.5946169375,33.57
2021-06-28 13:43:00.742187500,-46.5,12.25,44.75,64.72898437500001,-19.314999999999998,0.5946569687500001,33.57
2021-06-28 13:43:00.750000000,-46.0,12.0,46.0,64.7275,-15.25,0.594697,33.57
2021-06-28 13:43:00.757812500,-45.75,12.25,46.25,64.726015625,-11.735,0.5945368750000001,33.57
2021-06-28 13:43:00.765625000,-45.5,12.5,46.5,64.72453125000001,-8.22,0.59437675,33.57
2021-06-28 13:43:00.773437500,-45.25,12.75,46.75,64.72304687500001,-5.205,0.594216625,33.57
2021-06-28 13:43:00.781250000,-45.0,13.0,47.0,64.7215625,-2.19,0.5940565,33.57
2021-06-28 13:43:00.789062500,-45.0,12.75,46.0,64.720078125,0.45500000000000007,0.593896375,33.57
2021-06-28 13:43:00.796875000,-45.0,12.5,45.0,64.71859375000001,3.1,0.5937362500000001,33.57
2021-06-28 13:43:00.804687500,-45.0,12.25,44.0,64.717109375,5.494999999999999,0.593576125,33.57
2021-06-28 13:43:00.812500000,-45.0,12.0,43.0,64.715625,7.89,0.593416,33.57
2021-06-28 13:43:00.820312500,-45.0,12.25,43.25,64.71414062500001,10.105,0.593255875,33.57
2021-06-28 13:43:00.828125000,-45.0,12.5,43.5,64.71265625000001,12.32,0.59309575,33.57
2021-06-28 13:43:00.835937500,-45.0,12.75,43.75,64.711171875,14.39,0.5929356250000001,33.57
2021-06-28 13:43:00.843750000,-45.0,13.0,44.0,64.7096875,16.46,0.5927755,33.57
2021-06-28 13:43:00.851562500,-46.0,13.0,43.75,64.70820312500001,18.380000000000003,0.592615375,33.57
2021-06-28 13:43:00.859375000,-47.0,13.0,43.5,64.70671875000001,20.3,0.59245525,33.57
2021-06-28 13:43:00.867187500,-48.0,13.0,43.25,64.705234375,22.03,0.592295125,33.57
2021-06-28 13:43:00.875000000,-49.0,13.0,43.0,64.70375000000001,23.76,0.5921350000000001,33.57
2021-06-28 13:43:00.882812500,-49.75,12.75,42.5,64.70226562500001,25.215000000000003,0.591974875,33.57
2021-06-28 13:43:00.890625000,-50.5,12.5,42.0,64.70078125,26.67,0.5918147500000001,33.57
2021-06-28 13:43:00.898437500,-51.25,12.25,41.5,64.699296875,27.745,0.591654625,33.57
2021-06-28 13:43:00.906250000,-52.0,12.0,41.0,64.69781250000001,28.82,0.5914945,33.57
2021-06-28 13:43:00.914062500,-51.5,11.75,40.75,64.69632812500001,29.425,0.591334375,33.57
2021-06-28 13:43:00.921875000,-51.0,11.5,40.5,64.69484375,30.03,0.59117425,33.57
2021-06-28 13:43:00.929687500,-50.5,11.25,40.25,64.693359375,30.125,0.5910141250000001,33.57
2021-06-28 13:43:00.937500000,-50.0,11.0,40.0,64.69187500000001,30.22,0.590854,33.57
2021-06-28 13:43:00.945312500,-49.5,11.25,40.25,64.690390625,29.845,0.590693875,33.57
2021-06-28 13:43:00.953125000,-49.0,11.5,40.5,64.68890625,29.47,0.59053375,33.57
2021-06-28 13:43:00.960937500,-48.5,11.75,40.75,64.68742187500001,28.765,0.590373625,33.57
2021-06-28 13:43:00.968750000,-48.0,12.0,41.0,64.68593750000001,28.06,0.5902135000000001,33.57
2021-06-28 13:43:00.976562500,-47.75,12.0,41.5,64.684453125,27.185,0.590053375,33.57
2021-06-28 13:43:00.984375000,-47.5,12.0,42.0,64.68296875,26.31,0.58989325,33.57
2021-06-28 13:43:00.992187500,-47.25,12.0,42.5,64.68148437500001,25.424999999999997,0.589733125,33.57
2021-06-28 13:43:01.000000000,-47.0,12.0,43.0,64.68,24.54,0.589573,33.57
2021-06-28 13:43:01.007812500,-47.5,12.0,42.75,64.67898437500001,23.735,0.5896530625,33.57
2021-06-28 13:43:01.015625000,-48.0,12.0,42.5,64.67796875,22.93,0.589733125,33.57
2021-06-28 13:43:01.023437500,-48.5,12.0,42.25,64.67695312500001,22.27,0.5898131875,33.57
2021-06-28 13:43:01.031250000,-49.0,12.0,42.0,64.6759375,21.61,0.58989325,33.57
2021-06-28 13:43:01.039062500,-49.0,11.75,41.5,64.67492187500001,21.09,0.5899733125,33.57
2021-06-28 13:43:01.046875000,-49.0,11.5,41.0,64.67390625,20.57,0.590053375,33.57
2021-06-28 13:43:01.054687500,-49.0,11.25,40.5,64.67289062500001,20.17,0.5901334375,33.57
2021-06-28 13:43:01.062500000,-49.0,11.0,40.0,64.671875,19.77,0.5902135,33.57
2021-06-28 13:43:01.070312500,-49.0,11.5,39.75,64.670859375,19.47,0.5902935625,33.57
2021-06-28 13:43:01.078125000,-49.0,12.0,39.5,64.66984375000001,19.17,0.590373625,33.57
2021-06-28 13:43:01.085937500,-49.0,12.5,39.25,64.668828125,18.945,0.5904536875,33.57
2021-06-28 13:43:01.093750000,-49.0,13.0,39.0,64.66781250000001,18.72,0.59053375,33.57
2021-06-28 13:43:01.101562500,-49.25,12.75,39.0,64.666796875,18.505,0.5906138125,33.57
2021-06-28 13:43:01.109375000,-49.5,12.5,39.0,64.66578125000001,18.29,0.590693875,33.57
2021-06-28 13:43:01.117187500,-49.75,12.25,39.0,64.664765625,18.015,0.5907739375,33.57
2021-06-28 13:43:01.125000000,-50.0,12.0,39.0,64.66375000000001,17.74,0.590854,33.57
2021-06-28 13:43:01.132812500,-50.25,12.0,39.0,64.662734375,17.284999999999997,0.5909340625,33.57
2021-06-28 13:43:01.140625000,-50.5,12.0,39.0,64.66171875,16.83,0.591014125,33.57
2021-06-28 13:43:01.148437500,-50.75,12.0,39.0,64.66070312500001,16.09,0.5910941875,33.57
2021-06-28 13:43:01.156250000,-51.0,12.0,39.0,64.6596875,15.35,0.59117425,33.57
2021-06-28 13:43:01.164062500,-51.0,12.0,39.25,64.65867187500001,14.27,0.5912543124999999,33.57
2021-06-28 13:43:01.171875000,-51.0,12.0,39.5,64.65765625,13.19,0.591334375,33.57
2021-06-28 13:43:01.179687500,-51.0,12.0,39.75,64.65664062500001,11.82,0.5914144375,33.57
2021-06-28 13:43:01.187500000,-51.0,12.0,40.0,64.655625,10.45,0.5914945,33.57
2021-06-28 13:43:01.195312500,-50.75,12.0,40.0,64.654609375,8.93,0.5915745625,33.57
2021-06-28 13:43:01.203125000,-50.5,12.0,40.0,64.65359375,7.41,0.591654625,33.57
2021-06-28 13:43:01.210937500,-50.25,12.0,40.0,64.652578125,5.9399999999999995,0.5917346875,33.57
2021-06-28 13:43:01.218750000,-50.0,12.0,40.0,64.65156250000001,4.47,0.59181475,33.57
2021-06-28 13:43:01.226562500,-50.0,12.0,40.0,64.650546875,3.2399999999999998,0.5918948125,33.57
2021-06-28 13:43:01.234375000,-50.0,12.0,40.0,64.64953125000001,2.01,0.591974875,33.57
2021-06-28 13:43:01.242187500,-50.0,12.0,40.0,64.648515625,1.0799999999999998,0.5920549374999999,33.57
2021-06-28 13:43:01.250000000,-50.0,12.0,40.0,64.64750000000001,0.15,0.592135,33.57
2021-06-28 13:43:01.257812500,-49.75,12.0,39.75,64.646484375,-0.565,0.5920549374999999,33.57
2021-06-28 13:43:01.265625000,-49.5,12.0,39.5,64.64546875,-1.28,0.591974875,33.57
2021-06-28 13:43:01.273437500,-49.25,12.0,39.25,64.644453125,-2.0,0.5918948125,33.57
2021-06-28 13:43:01.281250000,-49.0,12.0,39.0,64.6434375,-2.72,0.59181475,33.57
2021-06-28 13:43:01.289062500,-49.0,11.75,39.5,64.64242187500001,-3.6799999999999997,0.5917346875,33.57
2021-06-28 13:43:01.296875000,-49.0,11.5,40.0,64.64140625,-4.64,0.591654625,33.57
2021-06-28 13:43:01.304687500,-49.0,11.25,40.5,64.64039062500001,-6.01,0.5915745625,33.57
2021-06-28 13:43:01.312500000,-49.0,11.0,41.0,64.639375,-7.38,0.5914945,33.57
2021-06-28 13:43:01.320312500,-49.0,11.0,41.25,64.63835937500001,-9.2,0.5914144375,33.57
2021-06-28 13:43:01.328125000,-49.0,11.0,41.5,64.63734375,-11.02,0.591334375,33.57
2021-06-28 13:43:01.335937500,-49.0,11.0,41.75,64.636328125,-13.16,0.5912543124999999,33.57
2021-06-28 13:43:01.343750000,-49.0,11.0,42.0,64.6353125,-15.3,0.59117425,33.57
2021-06-28 13:43:01.351562500,-49.0,11.0,41.75,64.634296875,-17.545,0.5910941875,33.57
2021-06-28 13:43:01.359375000,-49.0,11.0,41.5,64.63328125000001,-19.79,0.591014125,33.57
2021-06-28 13:43:01.367187500,-49.0,11.0,41.25,64.632265625,-21.855,0.5909340625,33.57
2021-06-28 13:43:01.375000000,-49.0,11.0,41.0,64.63125000000001,-23.92,0.590854,33.57
2021-06-28 13:43:01.382812500,-49.0,11.25,41.25,64.630234375,-25.495,0.5907739375,33.57
2021-06-28 13:43:01.390625000,-49.0,11.5,41.5,64.62921875,-27.07,0.590693875,33.57
2021-06-28 13:43:01.398437500,-49.0,11.75,41.75,64.628203125,-27.87,0.5906138125,33.57
2021-06-28 13:43:01.406250000,-49.0,12.0,42.0,64.6271875,-28.67,0.59053375,33.57
2021-06-28 13:43:01.414062500,-49.0,11.75,41.75,64.626171875,-28.445,0.5904536875,33.57
2021-06-28 13:43:01.421875000,-49.0,11.5,41.5,64.62515625,-28.22,0.590373625,33.57
2021-06-28 13:43:01.429687500,-49.0,11.25,41.25,64.62414062500001,-26.84,0.5902935625,33.57
2021-06-28 13:43:01.437500000,-49.0,11.0,41.0,64.623125,-25.46,0.5902135,33.57
2021-06-28 13:43:01.445312500,-49.25,11.25,40.75,64.62210937500001,-22.955,0.5901334375,33.57
2021-06-28 13:43:01.453125000,-49.5,11.5,40.5,64.62109375,-20.45,0.590053375,33.57
2021-06-28 13:43:01.460937500,-49.75,11.75,40.25,64.620078125,-17.045,0.5899733125,33.57
2021-06-28 13:43:01.468750000,-50.0,12.0,40.0,64.6190625,-13.64,0.58989325,33.57
2021-06-28 13:43:01.476562500,-50.0,11.75,39.75,64.618046875,-9.715,0.5898131875,33.57
2021-06-28 13:43:01.484375000,-50.0,11.5,39.5,64.61703125,-5.79,0.589733125,33.57
2021-06-28 13:43:01.492187500,-50.0,11.25,39.25,64.616015625,-1.795,0.5896530625,33.57
2021-06-28 13:43:01.500000000,-50.0,11.0,39.0,64.61500000000001,2.2,0.589573,33.57
2021-06-28 13:43:01.507812500,-50.25,11.0,39.0,64.613984375,5.885,0.5894929375,33.57
2021-06-28 13:43:01.515625000,-50.5,11.0,39.0,64.61296875000001,9.57,0.5894128750000001,33.57
2021-06-28 13:43:01.523437500,-50.75,11.0,39.0,64.611953125,12.7,0.5893328125,33.57
2021-06-28 13:43:01.531250000,-51.0,11.0,39.0,64.6109375,15.83,0.58925275,33.57
2021-06-28 13:43:01.539062500,-51.0,11.0,39.0,64.609921875,18.35,0.5891726875,33.57
2021-06-28 13:43:01.546875000,-51.0,11.0,39.0,64.60890625,20.87,0.589092625,33.57
2021-06-28 13:43:01.554687500,-51.0,11.0,39.0,64.607890625,22.835,0.5890125625,33.57
2021-06-28 13:43:01.562500000,-51.0,11.0,39.0,64.606875,24.8,0.5889325,33.57
2021-06-28 13:43:01.570312500,-51.0,11.25,39.0,64.605859375,26.314999999999998,0.5888524375,33.57
2021-06-28 13:43:01.578125000,-51.0,11.5,39.0,64.60484375,27.83,0.588772375,33.57
2021-06-28 13:43:01.585937500,-51.0,11.75,39.0,64.603828125,28.96,0.5886923125,33.57
2021-06-28 13:43:01.593750000,-51.0,12.0,39.0,64.6028125,30.09,0.58861225,33.57
2021-06-28 13:43:01.601562500,-51.0,12.0,38.75,64.601796875,30.869999999999997,0.5885321875,33.57
2021-06-28 13:43:01.609375000,-51.0,12.0,38.5,64.60078125,31.65,0.588452125,33.57
2021-06-28 13:43:01.617187500,-51.0,12.0,38.25,64.599765625,32.08,0.5883720625,33.57
2021-06-28 13:43:01.625000000,-51.0,12.0,38.0,64.59875,32.51,0.588292,33.57
2021-06-28 13:43:01.632812500,-51.0,12.0,38.0,64.597734375,32.599999999999994,0.5882119375,33.57
2021-06-28 13:43:01.640625000,-51.0,12.0,38.0,64.59671875,32.69,0.588131875,33.57
2021-06-28 13:43:01.648437500,-51.0,12.0,38.0,64.595703125,32.515,0.5880518124999999,33.57
2021-06-28 13:43:01.656250000,-51.0,12.0,38.0,64.5946875,32.34,0.58797175,33.57
2021-06-28 13:43:01.664062500,-50.75,11.75,38.5,64.593671875,32.0,0.5878916875,33.57
2021-06-28 13:43:01.671875000,-50.5,11.5,39.0,64.59265625,31.66,0.587811625,33.57
2021-06-28 13:43:01.679687500,-50.25,11.25,39.5,64.591640625,31.265,0.5877315624999999,33.57
2021-06-28 13:43:01.687500000,-50.0,11.0,40.0,64.590625,30.87,0.5876515,33.57
2021-06-28 13:43:01.695312500,-50.0,11.0,39.75,64.589609375,30.490000000000002,0.5875714375,33.57
2021-06-28 13:43:01.703125000,-50.0,11.0,39.5,64.58859375,30.11,0.5874913749999999,33.57
2021-06-28 13:43:01.710937500,-50.0,11.0,39.25,64.587578125,29.755,0.5874113125,33.57
2021-06-28 13:43:01.718750000,-50.0,11.0,39.0,64.5865625,29.4,0.58733125,33.57
2021-06-28 13:43:01.726562500,-50.25,11.0,39.0,64.585546875,29.045,0.5872511874999999,33.57
2021-06-28 13:43:01.734375000,-50.5,11.0,39.0,64.58453125,28.69,0.5871711249999999,33.57
2021-06-28 13:43:01.742187500,-50.75,11.0,39.0,64.583515625,28.325000000000003,0.5870910625,33.57
2021-06-28 13:43:01.750000000,-51.0,11.0,39.0,64.5825,27.96,0.587011,33.57
2021-06-28 13:43:01.757812500,-50.75,11.0,39.25,64.581484375,27.67,0.58693090625,33.57
2021-06-28 13:43:01.765625000,-50.5,11.0,39.5,64.58046875,27.38,0.5868508124999999,33.57
2021-06-28 13:43:01.773437500,-50.25,11.0,39.75,64.579453125,27.314999999999998,0.58677071875,33.57
2021-06-28 13:43:01.781250000,-50.0,11.0,40.0,64.57843749999999,27.25,0.5866906249999999,33.57
2021-06-28 13:43:01.789062500,-50.0,11.0,40.0,64.577421875,27.564999999999998,0.58661053125,33.57
2021-06-28 13:43:01.796875000,-50.0,11.0,40.0,64.57640625,27.88,0.5865304375,33.57
2021-06-28 13:43:01.804687500,-50.0,11.0,40.0,64.575390625,28.619999999999997,0.5864503437499999,33.57
2021-06-28 13:43:01.812500000,-50.0,11.0,40.0,64.574375,29.36,0.58637025,33.57
2021-06-28 13:43:01.820312500,-50.25,11.0,40.0,64.573359375,30.39,0.5862901562499999,33.57
2021-06-28 13:43:01.828125000,-50.5,11.0,40.0,64.57234375,31.42,0.5862100625,33.57
2021-06-28 13:43:01.835937500,-50.75,11.0,40.0,64.571328125,32.394999999999996,0.58612996875,33.57
2021-06-28 13:43:01.843750000,-51.0,11.0,40.0,64.5703125,33.37,0.5860498749999999,33.57
2021-06-28 13:43:01.851562500,-50.75,11.0,39.75,64.56929687499999,33.89,0.58596978125,33.57
2021-06-28 13:43:01.859375000,-50.5,11.0,39.5,64.56828125,34.41,0.5858896874999999,33.57
2021-06-28 13:43:01.867187500,-50.25,11.0,39.25,64.567265625,34.16,0.58580959375,33.57
2021-06-28 13:43:01.875000000,-50.0,11.0,39.0,64.56625,33.91,0.5857295,33.57
2021-06-28 13:43:01.882812500,-50.0,11.0,39.25,64.565234375,32.81,0.58564940625,33.57
2021-06-28 13:43:01.890625000,-50.0,11.0,39.5,64.56421875,31.71,0.5855693125,33.57
2021-06-28 13:43:01.898437500,-50.0,11.0,39.75,64.563203125,29.975,0.5854892187499999,33.57
2021-06-28 13:43:01.906250000,-50.0,11.0,40.0,64.5621875,28.24,0.585409125,33.57
2021-06-28 13:43:01.914062500,-50.25,11.0,39.75,64.561171875,26.27,0.5853290312499999,33.57
2021-06-28 13:43:01.921875000,-50.5,11.0,39.5,64.56015624999999,24.3,0.5852489375,33.57
2021-06-28 13:43:01.929687500,-50.75,11.0,39.25,64.559140625,22.48,0.58516884375,33.57
2021-06-28 13:43:01.937500000,-51.0,11.0,39.0,64.558125,20.66,0.5850887499999999,33.57
2021-06-28 13:43:01.945312500,-51.0,11.0,39.0,64.557109375,19.2,0.58500865625,33.57
2021-06-28 13:43:01.953125000,-51.0,11.0,39.0,64.55609375,17.74,0.5849285624999999,33.57
2021-06-28 13:43:01.960937500,-51.0,11.0,39.0,64.555078125,16.669999999999998,0.58484846875,33.57
2021-06-28 13:43:01.968750000,-51.0,11.0,39.0,64.5540625,15.6,0.584768375,33.57
2021-06-28 13:43:01.976562500,-51.0,11.0,39.0,64.55304687499999,14.815,0.5846882812499999,33.57
2021-06-28 13:43:01.984375000,-51.0,11.0,39.0,64.55203125,14.03,0.5846081875,33.57
2021-06-28 13:43:01.992187500,-51.0,11.0,39.0,64.55101562499999,13.379999999999999,0.5845280937499999,33.57
2021-06-28 13:43:02.000000000,-51.0,11.0,39.0,64.55,12.73,0.584448,33.57
2021-06-28 13:43:02.007812500,-51.0,11.0,39.0,64.548984375,12.15,0.5842078125,33.569375
2021-06-28 13:43:02.015625000,-51.0,11.0,39.0,64.54796875,11.57,0.583967625,33.56875
2021-06-28 13:43:02.023437500,-51.0,11.0,39.0,64.546953125,11.004999999999999,0.5837274375,33.568125
2021-06-28 13:43:02.031250000,-51.0,11.0,39.0,64.5459375,10.44,0.58348725,33.5675
2021-06-28 13:43:02.039062500,-51.0,11.0,39.0,64.544921875,9.809999999999999,0.5832470625,33.566875
2021-06-28 13:43:02.046875000,-51.0,11.0,39.0,64.54390624999999,9.18,0.5830068749999999,33.56625
2021-06-28 13:43:02.054687500,-51.0,11.0,39.0,64.542890625,8.29,0.5827666874999999,33.565625
2021-06-28 13:43:02.062500000,-51.0,11.0,39.0,64.541875,7.4,0.5825265,33.565
2021-06-28 13:43:02.070312500,-51.0,11.0,39.0,64.540859375,6.04,0.5822863125,33.564375
2021-06-28 13:43:02.078125000,-51.0,11.0,39.0,64.53984375,4.68,0.582046125,33.56375
2021-06-28 13:43:02.085937500,-51.0,11.0,39.0,64.538828125,2.695,0.5818059375,33.563125
2021-06-28 13:43:02.093750000,-51.0,11.0,39.0,64.5378125,0.71,0.58156575,33.5625
2021-06-28 13:43:02.101562500,-51.25,11.0,38.75,64.536796875,-1.8650000000000002,0.5813255625,33.561875
2021-06-28 13:43:02.109375000,-51.5,11.0,38.5,64.53578125,-4.44,0.581085375,33.56125
2021-06-28 13:43:02.117187500,-51.75,11.0,38.25,64.53476562499999,-7.390000000000001,0.5808451875,33.560625
2021-06-28 13:43:02.125000000,-52.0,11.0,38.0,64.53375,-10.34,0.580605,33.56
2021-06-28 13:43:02.132812500,-52.0,11.0,38.0,64.532734375,-13.36,0.5803648124999999,33.559374999999996
2021-06-28 13:43:02.140625000,-52.0,11.0,38.0,64.53171875,-16.38,0.580124625,33.558749999999996
2021-06-28 13:43:02.148437500,-52.0,11.0,38.0,64.530703125,-19.244999999999997,0.5798844375,33.558125
2021-06-28 13:43:02.156250000,-52.0,11.0,38.0,64.5296875,-22.11,0.57964425,33.5575
2021-06-28 13:43:02.164062500,-52.0,11.0,38.25,64.528671875,-24.759999999999998,0.5794040625,33.556875
2021-06-28 13:43:02.171875000,-52.0,11.0,38.5,64.52765624999999,-27.41,0.579163875,33.55625
2021-06-28 13:43:02.179687500,-52.0,11.0,38.75,64.526640625,-29.865000000000002,0.5789236875,33.555625
2021-06-28 13:43:02.187500000,-52.0,11.0,39.0,64.52562499999999,-32.32,0.5786835,33.555
2021-06-28 13:43:02.195312500,-51.75,11.0,39.0,64.524609375,-34.59,0.5784433125,33.554375
2021-06-28 13:43:02.203125000,-51.5,11.0,39.0,64.52359375,-36.86,0.578203125,33.55375
2021-06-28 13:43:02.210937500,-51.25,11.0,39.0,64.522578125,-38.765,0.5779629374999999,33.553124999999994
2021-06-28 13:43:02.218750000,-51.0,11.0,39.0,64.5215625,-40.67,0.57772275,33.552499999999995
2021-06-28 13:43:02.226562500,-51.0,11.0,39.0,64.520546875,-41.855000000000004,0.5774825625,33.551874999999995
2021-06-28 13:43:02.234375000,-51.0,11.0,39.0,64.51953125,-43.04,0.577242375,33.551249999999996
2021-06-28 13:43:02.242187500,-51.0,11.0,39.0,64.51851562499999,-43.07,0.5770021875,33.550625
2021-06-28 13:43:02.250000000,-51.0,11.0,39.0,64.5175,-43.1,0.576762,33.55
2021-06-28 13:43:02.257812500,-51.0,11.25,38.75,64.516484375,-41.7,0.57668190625,33.55
2021-06-28 13:43:02.265625000,-51.0,11.5,38.5,64.51546875,-40.3,0.5766018125,33.55
2021-06-28 13:43:02.273437500,-51.0,11.75,38.25,64.514453125,-37.489999999999995,0.57652171875,33.55
2021-06-28 13:43:02.281250000,-51.0,12.0,38.0,64.5134375,-34.68,0.576441625,33.55
2021-06-28 13:43:02.289062500,-51.25,11.75,38.25,64.512421875,-30.805,0.57636153125,33.55
2021-06-28 13:43:02.296875000,-51.5,11.5,38.5,64.51140625,-26.93,0.5762814375,33.55
2021-06-28 13:43:02.304687500,-51.75,11.25,38.75,64.510390625,-22.55,0.57620134375,33.55
2021-06-28 13:43:02.312500000,-52.0,11.0,39.0,64.509375,-18.17,0.57612125,33.55
2021-06-28 13:43:02.320312500,-52.0,11.25,39.25,64.508359375,-13.825000000000001,0.57604115625,33.55
2021-06-28 13:43:02.328125000,-52.0,11.5,39.5,64.50734375,-9.48,0.5759610625,33.55
2021-06-28 13:43:02.335937500,-52.0,11.75,39.75,64.506328125,-5.555,0.57588096875,33.55
2021-06-28 13:43:02.343750000,-52.0,12.0,40.0,64.5053125,-1.63,0.575800875,33.55
2021-06-28 13:43:02.351562500,-52.5,12.0,39.25,64.504296875,1.73,0.57572078125,33.55
2021-06-28 13:43:02.359375000,-53.0,12.0,38.5,64.50328125,5.09,0.5756406875,33.55
2021-06-28 13:43:02.367187500,-53.5,12.0,37.75,64.50226562499999,7.9399999999999995,0.57556059375,33.55
2021-06-28 13:43:02.375000000,-54.0,12.0,37.0,64.50125,10.79,0.5754805000000001,33.55
2021-06-28 13:43:02.382812500,-53.25,12.0,37.0,64.500234375,13.265,0.57540040625,33.55
2021-06-28 13:43:02.390625000,-52.5,12.0,37.0,64.49921875,15.74,0.5753203125,33.55
2021-06-28 13:43:02.398437500,-51.75,12.0,37.0,64.498203125,17.96,0.57524021875,33.55
2021-06-28 13:43:02.406250000,-51.0,12.0,37.0,64.4971875,20.18,0.575160125,33.55
2021-06-28 13:43:02.414062500,-50.75,12.25,37.5,64.496171875,22.15,0.57508003125,33.55
2021-06-28 13:43:02.421875000,-50.5,12.5,38.0,64.49515625,24.12,0.5749999375,33.55
2021-06-28 13:43:02.429687500,-50.25,12.75,38.5,64.494140625,25.745,0.57491984375,33.55
2021-06-28 13:43:02.437500000,-50.0,13.0,39.0,64.49312499999999,27.37,0.57483975,33.55
2021-06-28 13:43:02.445312500,-49.0,12.75,40.0,64.492109375,28.47,0.57475965625,33.55
2021-06-28 13:43:02.453125000,-48.0,12.5,41.0,64.49109375,29.57,0.5746795625,33.55
2021-06-28 13:43:02.460937500,-47.0,12.25,42.0,64.490078125,29.97,0.57459946875,33.55
2021-06-28 13:43:02.468750000,-46.0,12.0,43.0,64.4890625,30.37,0.574519375,33.55
2021-06-28 13:43:02.476562500,-46.0,12.25,43.25,64.488046875,29.945,0.57443928125,33.55
2021-06-28 13:43:02.484375000,-46.0,12.5,43.5,64.48703125,29.52,0.5743591875,33.55
2021-06-28 13:43:02.492187500,-46.0,12.75,43.75,64.486015625,28.275,0.57427909375,33.55
2021-06-28 13:43:02.500000000,-46.0,13.0,44.0,64.485,27.03,0.574199,33.55
2021-06-28 13:43:02.507812500,-46.0,13.0,44.0,64.483984375,25.07,0.57399884375,33.55
2021-06-28 13:43:02.515625000,-46.0,13.0,44.0,64.48296875,23.11,0.5737986875000001,33.55
2021-06-28 13:43:02.523437500,-46.0,13.0,44.0,64.481953125,20.64,0.57359853125,33.55
2021-06-28 13:43:02.531250000,-46.0,13.0,44.0,64.4809375,18.17,0.573398375,33.55
2021-06-28 13:43:02.539062500,-45.75,13.25,43.5,64.479921875,15.405000000000001,0.57319821875,33.55
2021-06-28 13:43:02.546875000,-45.5,13.5,43.0,64.47890625,12.64,0.5729980625,33.55
2021-06-28 13:43:02.554687500,-45.25,13.75,42.5,64.477890625,9.77,0.57279790625,33.55
2021-06-28 13:43:02.562500000,-45.0,14.0,42.0,64.476875,6.9,0.57259775,33.55
2021-06-28 13:43:02.570312500,-45.5,14.0,42.25,64.475859375,4.0600000000000005,0.57239759375,33.55
2021-06-28 13:43:02.578125000,-46.0,14.0,42.5,64.47484375,1.22,0.5721974375000001,33.55
2021-06-28 13:43:02.585937500,-46.5,14.0,42.75,64.473828125,-1.51,0.57199728125,33.55
2021-06-28 13:43:02.593750000,-47.0,14.0,43.0,64.4728125,-4.24,0.571797125,33.55
2021-06-28 13:43:02.601562500,-47.0,14.0,42.75,64.471796875,-6.795,0.57159696875,33.55
2021-06-28 13:43:02.609375000,-47.0,14.0,42.5,64.47078125,-9.35,0.5713968125,33.55
2021-06-28 13:43:02.617187500,-47.0,14.0,42.25,64.469765625,-11.665,0.57119665625,33.55
2021-06-28 13:43:02.625000000,-47.0,14.0,42.0,64.46875,-13.98,0.5709965,33.55
2021-06-28 13:43:02.632812500,-47.5,14.0,41.75,64.467734375,-16.009999999999998,0.57079634375,33.55
2021-06-28 13:43:02.640625000,-48.0,14.0,41.5,64.46671875,-18.04,0.5705961875000001,33.55
2021-06-28 13:43:02.648437500,-48.5,14.0,41.25,64.465703125,-19.78,0.57039603125,33.55
2021-06-28 13:43:02.656250000,-49.0,14.0,41.0,64.4646875,-21.52,0.570195875,33.55
2021-06-28 13:43:02.664062500,-48.5,14.0,41.0,64.463671875,-23.005,0.56999571875,33.55
2021-06-28 13:43:02.671875000,-48.0,14.0,41.0,64.46265625,-24.49,0.5697955625,33.55
2021-06-28 13:43:02.679687500,-47.5,14.0,41.0,64.461640625,-25.775,0.56959540625,33.55
2021-06-28 13:43:02.687500000,-47.0,14.0,41.0,64.460625,-27.06,0.56939525,33.55
2021-06-28 13:43:02.695312500,-46.75,14.0,41.25,64.459609375,-28.2,0.56919509375,33.55
2021-06-28 13:43:02.703125000,-46.5,14.0,41.5,64.45859375,-29.34,0.5689949375000001,33.55
2021-06-28 13:43:02.710937500,-46.25,14.0,41.75,64.457578125,-30.314999999999998,0.56879478125,33.55
2021-06-28 13:43:02.718750000,-46.0,14.0,42.0,64.4565625,-31.29,0.568594625,33.55
2021-06-28 13:43:02.726562500,-46.25,14.0,42.0,64.455546875,-32.04,0.56839446875,33.55
2021-06-28 13:43:02.734375000,-46.5,14.0,42.0,64.45453125,-32.79,0.5681943125,33.55
2021-06-28 13:43:02.742187500,-46.75,14.0,42.0,64.453515625,-33.195,0.56799415625,33.55
2021-06-28 13:43:02.750000000,-47.0,14.0,42.0,64.4525,-33.6,0.567794,33.55
2021-06-28 13:43:02.757812500,-47.25,14.0,42.0,64.451484375,-33.56,0.5677139375,33.55
2021-06-28 13:43:02.765625000,-47.5,14.0,42.0,64.45046875,-33.52,0.5676338750000001,33.55
2021-06-28 13:43:02.773437500,-47.75,14.0,42.0,64.449453125,-33.010000000000005,0.5675538125,33.55
2021-06-28 13:43:02.781250000,-48.0,14.0,42.0,64.4484375,-32.5,0.56747375,33.55
2021-06-28 13:43:02.789062500,-48.0,14.0,41.75,64.447421875,-31.58,0.5673936875,33.55
2021-06-28 13:43:02.796875000,-48.0,14.0,41.5,64.44640625,-30.66,0.567313625,33.55
2021-06-28 13:43:02.804687500,-48.0,14.0,41.25,64.445390625,-29.494999999999997,0.5672335625,33.55
2021-06-28 13:43:02.812500000,-48.0,14.0,41.0,64.44437500000001,-28.33,0.5671535,33.55
2021-06-28 13:43:02.820312500,-48.0,14.25,41.0,64.443359375,-27.115,0.5670734375,33.55
2021-06-28 13:43:02.828125000,-48.0,14.5,41.0,64.44234375,-25.9,0.566993375,33.55
2021-06-28 13:43:02.835937500,-48.0,14.75,41.0,64.441328125,-24.854999999999997,0.5669133125,33.55
2021-06-28 13:43:02.843750000,-48.0,15.0,41.0,64.4403125,-23.81,0.56683325,33.55
2021-06-28 13:43:02.851562500,-47.75,14.75,41.25,64.439296875,-23.08,0.5667531875,33.55
2021-06-28 13:43:02.859375000,-47.5,14.5,41.5,64.43828125,-22.35,0.566673125,33.55
2021-06-28 13:43:02.867187500,-47.25,14.25,41.75,64.437265625,-22.035,0.5665930625,33.55
2021-06-28 13:43:02.875000000,-47.0,14.0,42.0,64.43625,-21.72,0.566513,33.55
2021-06-28 13:43:02.882812500,-47.25,14.0,42.0,64.43523437500001,-21.83,0.5664329375,33.55
2021-06-28 13:43:02.890625000,-47.5,14.0,42.0,64.43421875,-21.94,0.566352875,33.55
2021-06-28 13:43:02.898437500,-47.75,14.0,42.0,64.433203125,-22.435000000000002,0.5662728125,33.55
2021-06-28 13:43:02.906250000,-48.0,14.0,42.0,64.4321875,-22.93,0.56619275,33.55
2021-06-28 13:43:02.914062500,-48.0,14.0,42.0,64.431171875,-23.765,0.5661126875,33.55
2021-06-28 13:43:02.921875000,-48.0,14.0,42.0,64.43015625,-24.6,0.566032625,33.55
2021-06-28 13:43:02.929687500,-48.0,14.0,42.0,64.429140625,-25.76,0.5659525624999999,33.55
2021-06-28 13:43:02.937500000,-48.0,14.0,42.0,64.428125,-26.92,0.5658725,33.55
2021-06-28 13:43:02.945312500,-48.0,14.0,42.0,64.427109375,-28.455,0.5657924375,33.55
2021-06-28 13:43:02.953125000,-48.0,14.0,42.0,64.42609375,-29.99,0.5657123749999999,33.55
2021-06-28 13:43:02.960937500,-48.0,14.0,42.0,64.425078125,-31.979999999999997,0.5656323125,33.55
2021-06-28 13:43:02.968750000,-48.0,14.0,42.0,64.4240625,-33.97,0.56555225,33.55
2021-06-28 13:43:02.976562500,-48.0,14.0,41.75,64.423046875,-36.44,0.5654721875,33.55
2021-06-28 13:43:02.984375000,-48.0,14.0,41.5,64.42203125,-38.91,0.5653921249999999,33.55
2021-06-28 13:43:02.992187500,-48.0,14.0,41.25,64.421015625,-41.739999999999995,0.5653120625,33.55
2021-06-28 13:43:03.000000000,-48.0,14.0,41.0,64.42,-44.57,0.565232,33.55
2021-06-28 13:43:03.007812500,-48.0,14.0,41.0,64.418671875,-47.445,0.56507184375,33.551249999999996
2021-06-28 13:43:03.015625000,-48.0,14.0,41.0,64.41734375,-50.32,0.5649116875,33.552499999999995
2021-06-28 13:43:03.023437500,-48.0,14.0,41.0,64.416015625,-52.725,0.56475153125,33.55375
2021-06-28 13:43:03.031250000,-48.0,14.0,41.0,64.4146875,-55.13,0.564591375,33.555
2021-06-28 13:43:03.039062500,-48.0,14.0,41.0,64.413359375,-56.505,0.56443121875,33.55625
2021-06-28 13:43:03.046875000,-48.0,14.0,41.0,64.41203125,-57.88,0.5642710624999999,33.5575
2021-06-28 13:43:03.054687500,-48.0,14.0,41.0,64.410703125,-57.769999999999996,0.5641109062499999,33.558749999999996
2021-06-28 13:43:03.062500000,-48.0,14.0,41.0,64.409375,-57.66,0.56395075,33.56
2021-06-28 13:43:03.070312500,-48.0,14.0,40.75,64.408046875,-55.9,0.56379059375,33.56125
2021-06-28 13:43:03.078125000,-48.0,14.0,40.5,64.40671875,-54.14,0.5636304375,33.5625
2021-06-28 13:43:03.085937500,-48.0,14.0,40.25,64.405390625,-50.935,0.56347028125,33.56375
2021-06-28 13:43:03.093750000,-48.0,14.0,40.0,64.4040625,-47.73,0.563310125,33.565
2021-06-28 13:43:03.101562500,-48.0,14.0,39.5,64.40273437500001,-43.599999999999994,0.56314996875,33.56625
2021-06-28 13:43:03.109375000,-48.0,14.0,39.0,64.40140625000001,-39.47,0.5629898125,33.5675
2021-06-28 13:43:03.117187500,-48.0,14.0,38.5,64.40007812500001,-35.075,0.56282965625,33.56875
2021-06-28 13:43:03.125000000,-48.0,14.0,38.0,64.39875,-30.68,0.5626694999999999,33.57
2021-06-28 13:43:03.132812500,-47.5,13.75,40.25,64.397421875,-26.625,0.56250934375,33.57125
2021-06-28 13:43:03.140625000,-47.0,13.5,42.5,64.39609375,-22.57,0.5623491875,33.5725
2021-06-28 13:43:03.148437500,-46.5,13.25,44.75,64.394765625,-19.23,0.56218903125,33.573750000000004
2021-06-28 13:43:03.156250000,-46.0,13.0,47.0,64.3934375,-15.89,0.562028875,33.575
2021-06-28 13:43:03.164062500,-46.25,12.75,47.0,64.392109375,-13.365,0.56186871875,33.57625
2021-06-28 13:43:03.171875000,-46.5,12.5,47.0,64.39078125,-10.84,0.5617085625,33.5775
2021-06-28 13:43:03.179687500,-46.75,12.25,47.0,64.389453125,-9.025,0.56154840625,33.57875
2021-06-28 13:43:03.187500000,-47.0,12.0,47.0,64.388125,-7.21,0.56138825,33.58
2021-06-28 13:43:03.195312500,-47.5,12.25,45.5,64.386796875,-5.890000000000001,0.56122809375,33.581250000000004
2021-06-28 13:43:03.203125000,-48.0,12.5,44.0,64.38546875,-4.57,0.5610679375000001,33.5825
2021-06-28 13:43:03.210937500,-48.5,12.75,42.5,64.384140625,-3.555,0.56090778125,33.58375
2021-06-28 13:43:03.218750000,-49.0,13.0,41.0,64.3828125,-2.54,0.560747625,33.585
2021-06-28 13:43:03.226562500,-48.5,13.25,40.75,64.381484375,-1.72,0.56058746875,33.58625
2021-06-28 13:43:03.234375000,-48.0,13.5,40.5,64.38015625,-0.9,0.5604273125,33.587500000000006
2021-06-28 13:43:03.242187500,-47.5,13.75,40.25,64.378828125,-0.24,0.56026715625,33.588750000000005
2021-06-28 13:43:03.250000000,-47.0,14.0,40.0,64.3775,0.42,0.560107,33.59
2021-06-28 13:43:03.257812500,-47.25,13.75,40.5,64.376171875,0.915,0.5600269375,33.59
2021-06-28 13:43:03.265625000,-47.5,13.5,41.0,64.37484375,1.41,0.5599468750000001,33.59
2021-06-28 13:43:03.273437500,-47.75,13.25,41.5,64.373515625,1.75,0.5598668125,33.59
2021-06-28 13:43:03.281250000,-48.0,13.0,42.0,64.3721875,2.09,0.55978675,33.59
2021-06-28 13:43:03.289062500,-48.0,12.75,42.25,64.370859375,2.3099999999999996,0.5597066875,33.59
2021-06-28 13:43:03.296875000,-48.0,12.5,42.5,64.36953125,2.53,0.559626625,33.59
2021-06-28 13:43:03.304687500,-48.0,12.25,42.75,64.36820312500001,2.695,0.5595465625,33.59
2021-06-28 13:43:03.312500000,-48.0,12.0,43.0,64.36687500000001,2.86,0.5594665,33.59
2021-06-28 13:43:03.320312500,-47.75,12.25,42.75,64.365546875,3.025,0.5593864375,33.59
2021-06-28 13:43:03.328125000,-47.5,12.5,42.5,64.36421875,3.19,0.559306375,33.59
2021-06-28 13:43:03.335937500,-47.25,12.75,42.25,64.362890625,3.4050000000000002,0.5592263125,33.59
2021-06-28 13:43:03.343750000,-47.0,13.0,42.0,64.3615625,3.62,0.55914625,33.59
2021-06-28 13:43:03.351562500,-47.0,13.0,42.0,64.360234375,3.9250000000000003,0.5590661875,33.59
2021-06-28 13:43:03.359375000,-47.0,13.0,42.0,64.35890625,4.23,0.558986125,33.59
2021-06-28 13:43:03.367187500,-47.0,13.0,42.0,64.357578125,4.635,0.5589060625,33.59
2021-06-28 13:43:03.375000000,-47.0,13.0,42.0,64.35625,5.04,0.558826,33.59
2021-06-28 13:43:03.382812500,-47.0,13.0,42.0,64.354921875,5.54,0.5587459375,33.59
2021-06-28 13:43:03.390625000,-47.0,13.0,42.0,64.35359375,6.04,0.558665875,33.59
2021-06-28 13:43:03.398437500,-47.0,13.0,42.0,64.352265625,6.59,0.5585858125,33.59
2021-06-28 13:43:03.406250000,-47.0,13.0,42.0,64.3509375,7.14,0.55850575,33.59
2021-06-28 13:43:03.414062500,-47.5,13.0,42.0,64.349609375,7.695,0.5584256875,33.59
2021-06-28 13:43:03.421875000,-48.0,13.0,42.0,64.34828125,8.25,0.558345625,33.59
2021-06-28 13:43:03.429687500,-48.5,13.0,42.0,64.346953125,8.73,0.5582655624999999,33.59
2021-06-28 13:43:03.437500000,-49.0,13.0,42.0,64.345625,9.21,0.5581855,33.59
2021-06-28 13:43:03.445312500,-49.0,13.0,42.0,64.344296875,9.525,0.5581054375,33.59
2021-06-28 13:43:03.453125000,-49.0,13.0,42.0,64.34296875,9.84,0.5580253749999999,33.59
2021-06-28 13:43:03.460937500,-49.0,13.0,42.0,64.341640625,9.91,0.5579453125,33.59
2021-06-28 13:43:03.468750000,-49.0,13.0,42.0,64.3403125,9.98,0.55786525,33.59
2021-06-28 13:43:03.476562500,-48.75,13.0,42.0,64.338984375,9.74,0.5577851875,33.59
2021-06-28 13:43:03.484375000,-48.5,13.0,42.0,64.33765625,9.5,0.5577051249999999,33.59
2021-06-28 13:43:03.492187500,-48.25,13.0,42.0,64.336328125,8.905000000000001,0.5576250625,33.59
2021-06-28 13:43:03.500000000,-48.0,13.0,42.0,64.33500000000001,8.31,0.557545,33.59
2021-06-28 13:43:03.507812500,-48.0,13.0,42.0,64.33367187500001,7.36,0.5573448437499999,33.59
2021-06-28 13:43:03.515625000,-48.0,13.0,42.0,64.33234375,6.41,0.5571446874999999,33.59
2021-06-28 13:43:03.523437500,-48.0,13.0,42.0,64.331015625,5.175,0.55694453125,33.59
2021-06-28 13:43:03.531250000,-48.0,13.0,42.0,64.3296875,3.94,0.556744375,33.59
2021-06-28 13:43:03.539062500,-48.0,13.0,42.0,64.328359375,2.5549999999999997,0.5565442187499999,33.59
2021-06-28 13:43:03.546875000,-48.0,13.0,42.0,64.32703125,1.17,0.5563440625,33.59
2021-06-28 13:43:03.554687500,-48.0,13.0,42.0,64.325703125,-0.15500000000000003,0.55614390625,33.59
2021-06-28 13:43:03.562500000,-48.0,13.0,42.0,64.324375,-1.48,0.55594375,33.59
2021-06-28 13:43:03.570312500,-48.25,13.0,41.75,64.323046875,-2.5300000000000002,0.5557435937499999,33.59
2021-06-28 13:43:03.578125000,-48.5,13.0,41.5,64.32171875,-3.58,0.5555434374999999,33.59
2021-06-28 13:43:03.585937500,-48.75,13.0,41.25,64.320390625,-4.17,0.55534328125,33.59
2021-06-28 13:43:03.593750000,-49.0,13.0,41.0,64.3190625,-4.76,0.555143125,33.59
2021-06-28 13:43:03.601562500,-49.0,13.0,41.25,64.317734375,-4.845,0.5549429687499999,33.59
2021-06-28 13:43:03.609375000,-49.0,13.0,41.5,64.31640625,-4.93,0.5547428125,33.59
2021-06-28 13:43:03.617187500,-49.0,13.0,41.75,64.315078125,-4.59,0.55454265625,33.59
2021-06-28 13:43:03.625000000,-49.0,13.0,42.0,64.31375,-4.25,0.5543425,33.59
2021-06-28 13:43:03.632812500,-49.0,13.0,41.75,64.312421875,-3.685,0.5541423437499999,33.59
2021-06-28 13:43:03.640625000,-49.0,13.0,41.5,64.31109375,-3.12,0.5539421874999999,33.59
2021-06-28 13:43:03.648437500,-49.0,13.0,41.25,64.309765625,-2.59,0.55374203125,33.59
2021-06-28 13:43:03.656250000,-49.0,13.0,41.0,64.3084375,-2.06,0.553541875,33.59
2021-06-28 13:43:03.664062500,-48.5,13.0,41.0,64.307109375,-1.7850000000000001,0.5533417187499999,33.59
2021-06-28 13:43:03.671875000,-48.0,13.0,41.0,64.30578125,-1.51,0.5531415625,33.59
2021-06-28 13:43:03.679687500,-47.5,13.0,41.0,64.304453125,-1.65,0.55294140625,33.59
2021-06-28 13:43:03.687500000,-47.0,13.0,41.0,64.303125,-1.79,0.55274125,33.59
2021-06-28 13:43:03.695312500,-47.25,13.0,41.25,64.301796875,-2.415,0.5525410937499999,33.59
2021-06-28 13:43:03.703125000,-47.5,13.0,41.5,64.30046875000001,-3.04,0.5523409374999999,33.59
2021-06-28 13:43:03.710937500,-47.75,13.0,41.75,64.299140625,-4.15,0.55214078125,33.59
2021-06-28 13:43:03.718750000,-48.0,13.0,42.0,64.2978125,-5.26,0.551940625,33.59
2021-06-28 13:43:03.726562500,-48.25,13.0,41.75,64.296484375,-6.795,0.5517404687499999,33.59
2021-06-28 13:43:03.734375000,-48.5,13.0,41.5,64.29515625,-8.33,0.5515403125,33.59
2021-06-28 13:43:03.742187500,-48.75,13.0,41.25,64.293828125,-10.18,0.55134015625,33.59
2021-06-28 13:43:03.750000000,-49.0,13.0,41.0,64.2925,-12.03,0.55114,33.59
2021-06-28 13:43:03.757812500,-48.75,13.0,40.75,64.291171875,-14.0,0.5511800312499999,33.59
2021-06-28 13:43:03.765625000,-48.5,13.0,40.5,64.28984375,-15.97,0.5512200625,33.59
2021-06-28 13:43:03.773437500,-48.25,13.0,40.25,64.288515625,-17.79,0.55126009375,33.59
2021-06-28 13:43:03.781250000,-48.0,13.0,40.0,64.2871875,-19.61,0.551300125,33.59
2021-06-28 13:43:03.789062500,-48.0,13.0,40.25,64.285859375,-20.939999999999998,0.55134015625,33.59
2021-06-28 13:43:03.796875000,-48.0,13.0,40.5,64.28453125,-22.27,0.5513801875,33.59
2021-06-28 13:43:03.804687500,-48.0,13.0,40.75,64.283203125,-22.75,0.55142021875,33.59
2021-06-28 13:43:03.812500000,-48.0,13.0,41.0,64.281875,-23.23,0.55146025,33.59
2021-06-28 13:43:03.820312500,-48.25,13.0,41.25,64.280546875,-22.555,0.55150028125,33.59
2021-06-28 13:43:03.828125000,-48.5,13.0,41.5,64.27921875,-21.88,0.5515403125,33.59
2021-06-28 13:43:03.835937500,-48.75,13.0,41.75,64.277890625,-19.91,0.55158034375,33.59
2021-06-28 13:43:03.843750000,-49.0,13.0,42.0,64.2765625,-17.94,0.5516203749999999,33.59
2021-06-28 13:43:03.851562500,-49.25,12.75,42.0,64.275234375,-14.74,0.55166040625,33.59
2021-06-28 13:43:03.859375000,-49.5,12.5,42.0,64.27390625,-11.54,0.5517004375,33.59
2021-06-28 13:43:03.867187500,-49.75,12.25,42.0,64.272578125,-7.404999999999999,0.55174046875,33.59
2021-06-28 13:43:03.875000000,-50.0,12.0,42.0,64.27125,-3.27,0.5517805,33.59
2021-06-28 13:43:03.882812500,-49.5,12.25,41.75,64.269921875,1.3450000000000002,0.55182053125,33.59
2021-06-28 13:43:03.890625000,-49.0,12.5,41.5,64.26859375,5.96,0.5518605625,33.59
2021-06-28 13:43:03.898437500,-48.5,12.75,41.25,64.267265625,10.54,0.55190059375,33.59
2021-06-28 13:43:03.906250000,-48.0,13.0,41.0,64.2659375,15.12,0.5519406250000001,33.59
2021-06-28 13:43:03.914062500,-48.0,13.0,40.75,64.264609375,19.245,0.55198065625,33.59
2021-06-28 13:43:03.921875000,-48.0,13.0,40.5,64.26328125,23.37,0.5520206875,33.59
2021-06-28 13:43:03.929687500,-48.0,13.0,40.25,64.261953125,26.775,0.5520607187500001,33.59
2021-06-28 13:43:03.937500000,-48.0,13.0,40.0,64.260625,30.18,0.55210075,33.59
2021-06-28 13:43:03.945312500,-48.5,13.0,40.25,64.259296875,32.835,0.55214078125,33.59
2021-06-28 13:43:03.953125000,-49.0,13.0,40.5,64.25796875,35.49,0.5521808125000001,33.59
2021-06-28 13:43:03.960937500,-49.5,13.0,40.75,64.256640625,37.53,0.55222084375,33.59
2021-06-28 13:43:03.968750000,-50.0,13.0,41.0,64.2553125,39.57,0.552260875,33.59
2021-06-28 13:43:03.976562500,-50.0,13.0,40.75,64.253984375,41.22,0.5523009062500001,33.59
2021-06-28 13:43:03.984375000,-50.0,13.0,40.5,64.25265625,42.87,0.5523409375,33.59
2021-06-28 13:43:03.992187500,-50.0,13.0,40.25,64.251328125,44.334999999999994,0.5523809687500001,33.59
2021-06-28 13:43:04.000000000,-50.0,13.0,40.0,64.25,45.8,0.552421,33.59
2021-06-28 13:43:04.007812500,-50.0,12.75,40.0,64.24828125,47.19,0.5522208125000001,33.589375000000004
2021-06-28 13:43:04.015625000,-50.0,12.5,40.0,64.2465625,48.58,0.552020625,33.588750000000005
2021-06-28 13:43:04.023437500,-50.0,12.25,40.0,64.24484375,49.894999999999996,0.5518204375000001,33.588125000000005
2021-06-28 13:43:04.031250000,-50.0,12.0,40.0,64.243125,51.21,0.55162025,33.587500000000006
2021-06-28 13:43:04.039062500,-50.25,12.25,39.5,64.24140625,52.35,0.5514200625000001,33.586875000000006
2021-06-28 13:43:04.046875000,-50.5,12.5,39.0,64.2396875,53.49,0.551219875,33.58625
2021-06-28 13:43:04.054687500,-50.75,12.75,38.5,64.23796875,54.345,0.5510196875000001,33.585625
2021-06-28 13:43:04.062500000,-51.0,13.0,38.0,64.23625,55.2,0.5508195,33.585
2021-06-28 13:43:04.070312500,-51.0,12.75,37.75,64.23453125,55.71,0.5506193125000001,33.584375
2021-06-28 13:43:04.078125000,-51.0,12.5,37.5,64.2328125,56.22,0.550419125,33.58375
2021-06-28 13:43:04.085937500,-51.0,12.25,37.25,64.23109375,56.415,0.5502189375000001,33.583125
2021-06-28 13:43:04.093750000,-51.0,12.0,37.0,64.229375,56.61,0.55001875,33.5825
2021-06-28 13:43:04.101562500,-51.0,12.25,37.5,64.22765625,56.585,0.5498185625,33.581875000000004
2021-06-28 13:43:04.109375000,-51.0,12.5,38.0,64.2259375,56.56,0.549618375,33.581250000000004
2021-06-28 13:43:04.117187500,-51.0,12.75,38.5,64.22421875,56.465,0.5494181875,33.580625000000005
2021-06-28 13:43:04.125000000,-51.0,13.0,39.0,64.2225,56.37,0.549218,33.58
2021-06-28 13:43:04.132812500,-51.0,12.75,39.0,64.22078125,56.315,0.5490178125,33.579375
2021-06-28 13:43:04.140625000,-51.0,12.5,39.0,64.2190625,56.26,0.5488176250000001,33.57875
2021-06-28 13:43:04.148437500,-51.0,12.25,39.0,64.21734375,56.315,0.5486174375,33.578125
2021-06-28 13:43:04.156250000,-51.0,12.0,39.0,64.215625,56.37,0.5484172500000001,33.5775
2021-06-28 13:43:04.164062500,-50.75,12.25,39.0,64.21390625,56.525,0.5482170625,33.576875
2021-06-28 13:43:04.171875000,-50.5,12.5,39.0,64.2121875,56.68,0.5480168750000001,33.57625
2021-06-28 13:43:04.179687500,-50.25,12.75,39.0,64.21046875,56.89,0.5478166875,33.575625
2021-06-28 13:43:04.187500000,-50.0,13.0,39.0,64.20875,57.1,0.5476165000000001,33.575
2021-06-28 13:43:04.195312500,-50.25,13.25,38.75,64.20703125,57.325,0.5474163125,33.574375
2021-06-28 13:43:04.203125000,-50.5,13.5,38.5,64.2053125,57.55,0.547216125,33.573750000000004
2021-06-28 13:43:04.210937500,-50.75,13.75,38.25,64.20359375,57.769999999999996,0.5470159375,33.573125
2021-06-28 13:43:04.218750000,-51.0,14.0,38.0,64.201875,57.99,0.54681575,33.5725
2021-06-28 13:43:04.226562500,-51.25,13.5,37.75,64.20015625,58.185,0.5466155625,33.571875
2021-06-28 13:43:04.234375000,-51.5,13.0,37.5,64.1984375,58.38,0.546415375,33.57125
2021-06-28 13:43:04.242187500,-51.75,12.5,37.25,64.19671875,58.485,0.5462151875,33.570625
2021-06-28 13:43:04.250000000,-52.0,12.0,37.0,64.195,58.59,0.546015,33.57
2021-06-28 13:43:04.257812500,-52.0,12.25,37.25,64.19328125,58.47,0.5459749687500001,33.57
2021-06-28 13:43:04.265625000,-52.0,12.5,37.5,64.1915625,58.35,0.5459349375,33.57
2021-06-28 13:43:04.273437500,-52.0,12.75,37.75,64.18984375,57.805,0.54589490625,33.57
2021-06-28 13:43:04.281250000,-52.0,13.0,38.0,64.188125,57.26,0.5458548750000001,33.57
2021-06-28 13:43:04.289062500,-52.25,12.5,38.5,64.18640625,56.084999999999994,0.54581484375,33.57
2021-06-28 13:43:04.296875000,-52.5,12.0,39.0,64.1846875,54.91,0.5457748125,33.57
2021-06-28 13:43:04.304687500,-52.75,11.5,39.5,64.18296875,52.95,0.5457347812500001,33.57
2021-06-28 13:43:04.312500000,-53.0,11.0,40.0,64.18125,50.99,0.54569475,33.57
2021-06-28 13:43:04.320312500,-52.75,11.75,39.0,64.17953125,48.2,0.54565471875,33.57
2021-06-28 13:43:04.328125000,-52.5,12.5,38.0,64.1778125,45.41,0.5456146875000001,33.57
2021-06-28 13:43:04.335937500,-52.25,13.25,37.0,64.17609375,41.849999999999994,0.54557465625,33.57
2021-06-28 13:43:04.343750000,-52.0,14.0,36.0,64.174375,38.29,0.545534625,33.57
2021-06-28 13:43:04.351562500,-51.75,13.75,35.5,64.17265625,34.129999999999995,0.5454945937500001,33.57
2021-06-28 13:43:04.359375000,-51.5,13.5,35.0,64.1709375,29.97,0.5454545625,33.57
2021-06-28 13:43:04.367187500,-51.25,13.25,34.5,64.16921875,25.43,0.5454145312500001,33.57
2021-06-28 13:43:04.375000000,-51.0,13.0,34.0,64.1675,20.89,0.5453745000000001,33.57
2021-06-28 13:43:04.382812500,-51.25,13.25,34.0,64.16578125,16.23,0.54533446875,33.57
2021-06-28 13:43:04.390625000,-51.5,13.5,34.0,64.1640625,11.57,0.5452944375000001,33.57
2021-06-28 13:43:04.398437500,-51.75,13.75,34.0,64.16234375,7.045,0.54525440625,33.57
2021-06-28 13:43:04.406250000,-52.0,14.0,34.0,64.160625,2.52,0.545214375,33.57
2021-06-28 13:43:04.414062500,-52.0,13.75,34.5,64.15890625,-1.6599999999999997,0.5451743437500001,33.57
2021-06-28 13:43:04.421875000,-52.0,13.5,35.0,64.1571875,-5.84,0.5451343125,33.57
2021-06-28 13:43:04.429687500,-52.0,13.25,35.5,64.15546875,-9.530000000000001,0.54509428125,33.57
2021-06-28 13:43:04.437500000,-52.0,13.0,36.0,64.15375,-13.22,0.5450542500000001,33.57
2021-06-28 13:43:04.445312500,-52.25,13.0,36.25,64.15203125000001,-16.4,0.54501421875,33.57
2021-06-28 13:43:04.453125000,-52.5,13.0,36.5,64.1503125,-19.58,0.5449741875,33.57
2021-06-28 13:43:04.460937500,-52.75,13.0,36.75,64.14859375,-22.36,0.5449341562500001,33.57
2021-06-28 13:43:04.468750000,-53.0,13.0,37.0,64.146875,-25.14,0.544894125,33.57
2021-06-28 13:43:04.476562500,-52.75,13.0,36.75,64.14515625,-27.715,0.54485409375,33.57
2021-06-28 13:43:04.484375000,-52.5,13.0,36.5,64.1434375,-30.29,0.5448140625000001,33.57
2021-06-28 13:43:04.492187500,-52.25,13.0,36.25,64.14171875,-32.885,0.54477403125,33.57
2021-06-28 13:43:04.500000000,-52.0,13.0,36.0,64.14,-35.48,0.544734,33.57
2021-06-28 13:43:04.507812500,-52.0,13.0,35.75,64.13828125,-38.265,0.5446539375,33.57
2021-06-28 13:43:04.515625000,-52.0,13.0,35.5,64.1365625,-41.05,0.5445738750000001,33.57
2021-06-28 13:43:04.523437500,-52.0,13.0,35.25,64.13484375,-44.09,0.5444938125000001,33.57
2021-06-28 13:43:04.531250000,-52.0,13.0,35.0,64.133125,-47.13,0.54441375,33.57
2021-06-28 13:43:04.539062500,-52.25,13.0,34.75,64.13140625,-50.335,0.5443336875,33.57
2021-06-28 13:43:04.546875000,-52.5,13.0,34.5,64.1296875,-53.54,0.5442536250000001,33.57
2021-06-28 13:43:04.554687500,-52.75,13.0,34.25,64.12796875,-56.695,0.5441735625,33.57
2021-06-28 13:43:04.562500000,-53.0,13.0,34.0,64.12625,-59.85,0.5440935,33.57
2021-06-28 13:43:04.570312500,-53.0,13.0,34.5,64.12453125,-62.599999999999994,0.5440134375000001,33.57
2021-06-28 13:43:04.578125000,-53.0,13.0,35.0,64.1228125,-65.35,0.543933375,33.57
2021-06-28 13:43:04.585937500,-53.0,13.0,35.5,64.12109375,-67.3,0.5438533125,33.57
2021-06-28 13:43:04.593750000,-53.0,13.0,36.0,64.119375,-69.25,0.54377325,33.57
2021-06-28 13:43:04.601562500,-53.0,13.0,35.75,64.11765625,-70.015,0.5436931875000001,33.57
2021-06-28 13:43:04.609375000,-53.0,13.0,35.5,64.1159375,-70.78,0.543613125,33.57
2021-06-28 13:43:04.617187500,-53.0,13.0,35.25,64.11421875,-70.125,0.5435330625,33.57
2021-06-28 13:43:04.625000000,-53.0,13.0,35.0,64.1125,-69.47,0.543453,33.57
2021-06-28 13:43:04.632812500,-52.75,13.25,35.0,64.11078125,-67.36,0.5433729375,33.57
2021-06-28 13:43:04.640625000,-52.5,13.5,35.0,64.10906250000001,-65.25,0.543292875,33.57
2021-06-28 13:43:04.648437500,-52.25,13.75,35.0,64.10734375,-61.885000000000005,0.5432128125,33.57
2021-06-28 13:43:04.656250000,-52.0,14.0,35.0,64.105625,-58.52,0.54313275,33.57
2021-06-28 13:43:04.664062500,-52.25,14.0,35.25,64.10390625,-54.275000000000006,0.5430526875,33.57
2021-06-28 13:43:04.671875000,-52.5,14.0,35.5,64.1021875,-50.03,0.542972625,33.57
2021-06-28 13:43:04.679687500,-52.75,14.0,35.75,64.10046875,-45.370000000000005,0.5428925625,33.57
2021-06-28 13:43:04.687500000,-53.0,14.0,36.0,64.09875,-40.71,0.5428125,33.57
2021-06-28 13:43:04.695312500,-53.0,13.75,36.0,64.09703125,-36.065,0.5427324375,33.57
2021-06-28 13:43:04.703125000,-53.0,13.5,36.0,64.0953125,-31.42,0.542652375,33.57
2021-06-28 13:43:04.710937500,-53.0,13.25,36.0,64.09359375,-27.1,0.5425723125,33.57
2021-06-28 13:43:04.718750000,-53.0,13.0,36.0,64.091875,-22.78,0.54249225,33.57
2021-06-28 13:43:04.726562500,-52.5,12.5,34.25,64.09015625,-18.97,0.5424121875,33.57
2021-06-28 13:43:04.734375000,-52.0,12.0,32.5,64.0884375,-15.16,0.5423321249999999,33.57
2021-06-28 13:43:04.742187500,-51.5,11.5,30.75,64.08671875,-11.915,0.5422520625,33.57
2021-06-28 13:43:04.750000000,-51.0,11.0,29.0,64.08500000000001,-8.67,0.542172,33.57
2021-06-28 13:43:04.757812500,-51.5,12.25,29.75,64.08328125,-5.955,0.54205190625,33.57
2021-06-28 13:43:04.765625000,-52.0,13.5,30.5,64.0815625,-3.24,0.5419318125,33.57
2021-06-28 13:43:04.773437500,-52.5,14.75,31.25,64.07984375,-0.9900000000000002,0.54181171875,33.57
2021-06-28 13:43:04.781250000,-53.0,16.0,32.0,64.078125,1.26,0.541691625,33.57
2021-06-28 13:43:04.789062500,-53.0,15.25,33.5,64.07640625,3.12,0.54157153125,33.57
2021-06-28 13:43:04.796875000,-53.0,14.5,35.0,64.0746875,4.98,0.5414514375,33.57
2021-06-28 13:43:04.804687500,-53.0,13.75,36.5,64.07296875,6.51,0.54133134375,33.57
2021-06-28 13:43:04.812500000,-53.0,13.0,38.0,64.07125,8.04,0.5412112499999999,33.57
2021-06-28 13:43:04.820312500,-52.75,13.0,38.75,64.06953125,9.285,0.5410911562499999,33.57
2021-06-28 13:43:04.828125000,-52.5,13.0,39.5,64.0678125,10.53,0.5409710624999999,33.57
2021-06-28 13:43:04.835937500,-52.25,13.0,40.25,64.06609375000001,11.524999999999999,0.5408509687499999,33.57
2021-06-28 13:43:04.843750000,-52.0,13.0,41.0,64.064375,12.52,0.5407308749999999,33.57
2021-06-28 13:43:04.851562500,-51.75,13.5,39.75,64.06265625,13.285,0.54061078125,33.57
2021-06-28 13:43:04.859375000,-51.5,14.0,38.5,64.0609375,14.05,0.5404906875,33.57
2021-06-28 13:43:04.867187500,-51.25,14.5,37.25,64.05921875,14.615,0.54037059375,33.57
2021-06-28 13:43:04.875000000,-51.0,15.0,36.0,64.0575,15.18,0.5402505,33.57
2021-06-28 13:43:04.882812500,-51.25,14.75,35.5,64.05578125,15.605,0.54013040625,33.57
2021-06-28 13:43:04.890625000,-51.5,14.5,35.0,64.0540625,16.03,0.5400103125,33.57
2021-06-28 13:43:04.898437500,-51.75,14.25,34.5,64.05234375,16.384999999999998,0.53989021875,33.57
2021-06-28 13:43:04.906250000,-52.0,14.0,34.0,64.050625,16.74,0.539770125,33.57
2021-06-28 13:43:04.914062500,-52.5,13.5,34.75,64.04890625,17.119999999999997,0.53965003125,33.57
2021-06-28 13:43:04.921875000,-53.0,13.0,35.5,64.0471875,17.5,0.5395299375,33.57
2021-06-28 13:43:04.929687500,-53.5,12.5,36.25,64.04546875,17.985,0.53940984375,33.57
2021-06-28 13:43:04.937500000,-54.0,12.0,37.0,64.04375,18.47,0.53928975,33.57
2021-06-28 13:43:04.945312500,-54.0,12.75,36.75,64.04203125000001,19.095,0.5391696562499999,33.57
2021-06-28 13:43:04.953125000,-54.0,13.5,36.5,64.0403125,19.72,0.5390495624999999,33.57
2021-06-28 13:43:04.960937500,-54.0,14.25,36.25,64.03859375,20.445,0.5389294687499999,33.57
2021-06-28 13:43:04.968750000,-54.0,15.0,36.0,64.036875,21.17,0.5388093749999999,33.57
2021-06-28 13:43:04.976562500,-54.25,14.5,35.25,64.03515625,21.835,0.5386892812499999,33.57
2021-06-28 13:43:04.984375000,-54.5,14.0,34.5,64.0334375,22.5,0.5385691874999999,33.57
2021-06-28 13:43:04.992187500,-54.75,13.5,33.75,64.03171875,22.86,0.5384490937499999,33.57
2021-06-28 13:43:05.000000000,-55.0,13.0,33.0,64.03,23.22,0.538329,33.57
2021-06-28 13:43:05.007812500,-54.75,13.25,33.0,64.02765625,23.0,0.5400104375,33.57
2021-06-28 13:43:05.015625000,-54.5,13.5,33.0,64.0253125,22.78,0.5416918749999999,33.57
2021-06-28 13:43:05.023437500,-54.25,13.75,33.0,64.02296875,21.79,0.5433733125,33.57
2021-06-28 13:43:05.031250000,-54.0,14.0,33.0,64.020625,20.8,0.5450547499999999,33.57
2021-06-28 13:43:05.039062500,-53.75,14.0,33.0,64.01828125,19.064999999999998,0.5467361875,33.57
2021-06-28 13:43:05.046875000,-53.5,14.0,33.0,64.0159375,17.33,0.5484176249999999,33.57
2021-06-28 13:43:05.054687500,-53.25,14.0,33.0,64.01359375,15.079999999999998,0.5500990625,33.57
2021-06-28 13:43:05.062500000,-53.0,14.0,33.0,64.01125,12.83,0.5517805,33.57
2021-06-28 13:43:05.070312500,-53.5,14.25,33.25,64.00890625,10.45,0.5534619375,33.57
2021-06-28 13:43:05.078125000,-54.0,14.5,33.5,64.0065625,8.07,0.555143375,33.57
2021-06-28 13:43:05.085937500,-54.5,14.75,33.75,64.00421875,5.94,0.5568248124999999,33.57
2021-06-28 13:43:05.093750000,-55.0,15.0,34.0,64.001875,3.81,0.55850625,33.57
2021-06-28 13:43:05.101562500,-54.5,15.0,34.25,63.999531250000004,2.14,0.5601876874999999,33.57
2021-06-28 13:43:05.109375000,-54.0,15.0,34.5,63.9971875,0.47,0.561869125,33.57
2021-06-28 13:43:05.117187500,-53.5,15.0,34.75,63.99484375,-0.7649999999999999,0.5635505624999999,33.57
2021-06-28 13:43:05.125000000,-53.0,15.0,35.0,63.9925,-2.0,0.565232,33.57
2021-06-28 13:43:05.132812500,-54.0,14.75,34.75,63.99015625,-3.03,0.5669134375,33.57
2021-06-28 13:43:05.140625000,-55.0,14.5,34.5,63.987812500000004,-4.06,0.5685948749999999,33.57
2021-06-28 13:43:05.148437500,-56.0,14.25,34.25,63.98546875,-5.199999999999999,0.5702763125,33.57
2021-06-28 13:43:05.156250000,-57.0,14.0,34.0,63.983125,-6.34,0.5719577499999999,33.57
2021-06-28 13:43:05.164062500,-56.25,14.0,34.25,63.98078125,-7.785,0.5736391875,33.57
2021-06-28 13:43:05.171875000,-55.5,14.0,34.5,63.9784375,-9.23,0.5753206249999999,33.57
2021-06-28 13:43:05.179687500,-54.75,14.0,34.75,63.97609375,-11.0,0.5770020625,33.57
2021-06-28 13:43:05.187500000,-54.0,14.0,35.0,63.97375,-12.77,0.5786834999999999,33.57
2021-06-28 13:43:05.195312500,-54.25,14.0,34.0,63.97140625,-14.709999999999999,0.5803649375,33.57
2021-06-28 13:43:05.203125000,-54.5,14.0,33.0,63.9690625,-16.65,0.582046375,33.57
2021-06-28 13:43:05.210937500,-54.75,14.0,32.0,63.96671875,-18.509999999999998,0.5837278124999999,33.57
2021-06-28 13:43:05.218750000,-55.0,14.0,31.0,63.964375,-20.37,0.58540925,33.57
2021-06-28 13:43:05.226562500,-55.0,14.5,32.25,63.96203125,-21.950000000000003,0.5870906874999999,33.57
2021-06-28 13:43:05.234375000,-55.0,15.0,33.5,63.9596875,-23.53,0.588772125,33.57
2021-06-28 13:43:05.242187500,-55.0,15.5,34.75,63.95734375,-24.755000000000003,0.5904535624999999,33.57
2021-06-28 13:43:05.250000000,-55.0,16.0,36.0,63.955,-25.98,0.592135,33.57
2021-06-28 13:43:05.257812500,-54.75,15.5,38.25,63.95265625,-26.925,0.59325596875,33.57
2021-06-28 13:43:05.265625000,-54.5,15.0,40.5,63.9503125,-27.87,0.5943769375,33.57
2021-06-28 13:43:05.273437500,-54.25,14.5,42.75,63.94796875,-28.725,0.59549790625,33.57
2021-06-28 13:43:05.281250000,-54.0,14.0,45.0,63.945625,-29.58,0.596618875,33.57
2021-06-28 13:43:05.289062500,-53.5,13.5,41.25,63.94328125,-30.595,0.59773984375,33.57
2021-06-28 13:43:05.296875000,-53.0,13.0,37.5,63.9409375,-31.61,0.5988608125,33.57
2021-06-28 13:43:05.304687500,-52.5,12.5,33.75,63.93859375,-32.96,0.59998178125,33.57
2021-06-28 13:43:05.312500000,-52.0,12.0,30.0,63.93625,-34.31,0.6011027499999999,33.57
2021-06-28 13:43:05.320312500,-53.25,12.75,28.75,63.93390625,-36.045,0.6022237187499999,33.57
2021-06-28 13:43:05.328125000,-54.5,13.5,27.5,63.9315625,-37.78,0.6033446874999999,33.57
2021-06-28 13:43:05.335937500,-55.75,14.25,26.25,63.92921875,-39.754999999999995,0.6044656562499999,33.57
2021-06-28 13:43:05.343750000,-57.0,15.0,25.0,63.926875,-41.73,0.6055866249999999,33.57
2021-06-28 13:43:05.351562500,-57.5,14.75,28.25,63.92453125,-43.629999999999995,0.6067075937499999,33.57
2021-06-28 13:43:05.359375000,-58.0,14.5,31.5,63.9221875,-45.53,0.6078285625,33.57
2021-06-28 13:43:05.367187500,-58.5,14.25,34.75,63.91984375,-46.935,0.60894953125,33.57
2021-06-28 13:43:05.375000000,-59.0,14.0,38.0,63.9175,-48.34,0.6100705,33.57
2021-06-28 13:43:05.382812500,-57.75,13.5,37.75,63.91515625,-48.83,0.61119146875,33.57
2021-06-28 13:43:05.390625000,-56.5,13.0,37.5,63.9128125,-49.32,0.6123124375,33.57
2021-06-28 13:43:05.398437500,-55.25,12.5,37.25,63.91046875,-48.575,0.61343340625,33.57
2021-06-28 13:43:05.406250000,-54.0,12.0,37.0,63.908125,-47.83,0.614554375,33.57
2021-06-28 13:43:05.414062500,-54.0,12.25,35.5,63.90578125,-45.739999999999995,0.61567534375,33.57
2021-06-28 13:43:05.421875000,-54.0,12.5,34.0,63.9034375,-43.65,0.6167963125,33.57
2021-06-28 13:43:05.429687500,-54.0,12.75,32.5,63.90109375,-40.31,0.61791728125,33.57
2021-06-28 13:43:05.437500000,-54.0,13.0,31.0,63.89875,-36.97,0.61903825,33.57
2021-06-28 13:43:05.445312500,-53.25,13.25,32.75,63.89640625,-32.685,0.6201592187499999,33.57
2021-06-28 13:43:05.453125000,-52.5,13.5,34.5,63.8940625,-28.4,0.6212801874999999,33.57
2021-06-28 13:43:05.460937500,-51.75,13.75,36.25,63.89171875,-23.6,0.6224011562499999,33.57
2021-06-28 13:43:05.468750000,-51.0,14.0,38.0,63.889375,-18.8,0.6235221249999999,33.57
2021-06-28 13:43:05.476562500,-50.25,13.0,39.25,63.88703125,-13.955,0.6246430937499999,33.57
2021-06-28 13:43:05.484375000,-49.5,12.0,40.5,63.8846875,-9.11,0.6257640624999999,33.57
2021-06-28 13:43:05.492187500,-48.75,11.0,41.75,63.88234375,-4.63,0.62688503125,33.57
2021-06-28 13:43:05.500000000,-48.0,10.0,43.0,63.879999999999995,-0.15,0.628006,33.57
2021-06-28 13:43:05.507812500,-48.5,10.25,41.5,63.87765625,3.705,0.6264846875,33.57
2021-06-28 13:43:05.515625000,-49.0,10.5,40.0,63.8753125,7.56,0.624963375,33.57
2021-06-28 13:43:05.523437500,-49.5,10.75,38.5,63.87296875,10.69,0.6234420625,33.57
2021-06-28 13:43:05.531250000,-50.0,11.0,37.0,63.870625,13.82,0.6219207499999999,33.57
2021-06-28 13:43:05.539062500,-50.5,11.5,35.5,63.868281249999995,16.305,0.6203994374999999,33.57
2021-06-28 13:43:05.546875000,-51.0,12.0,34.0,63.8659375,18.79,0.618878125,33.57
2021-06-28 13:43:05.554687500,-51.5,12.5,32.5,63.86359375,20.814999999999998,0.6173568125,33.57
2021-06-28 13:43:05.562500000,-52.0,13.0,31.0,63.86125,22.84,0.6158355,33.57
2021-06-28 13:43:05.570312500,-51.75,13.25,31.25,63.85890625,24.595,0.6143141875,33.57
2021-06-28 13:43:05.578125000,-51.5,13.5,31.5,63.856562499999995,26.35,0.6127928749999999,33.57
2021-06-28 13:43:05.585937500,-51.25,13.75,31.75,63.85421875,27.98,0.6112715624999999,33.57
2021-06-28 13:43:05.593750000,-51.0,14.0,32.0,63.851875,29.61,0.6097502499999999,33.57
2021-06-28 13:43:05.601562500,-51.75,13.5,32.25,63.84953125,31.169999999999998,0.6082289375,33.57
2021-06-28 13:43:05.609375000,-52.5,13.0,32.5,63.8471875,32.73,0.606707625,33.57
2021-06-28 13:43:05.617187500,-53.25,12.5,32.75,63.844843749999995,34.215,0.6051863125,33.57
2021-06-28 13:43:05.625000000,-54.0,12.0,33.0,63.8425,35.7,0.6036649999999999,33.57
2021-06-28 13:43:05.632812500,-54.25,12.0,33.25,63.84015625,37.05,0.6021436874999999,33.57
2021-06-28 13:43:05.640625000,-54.5,12.0,33.5,63.8378125,38.4,0.6006223749999999,33.57
2021-06-28 13:43:05.648437500,-54.75,12.0,33.75,63.83546875,39.59,0.5991010625,33.57
2021-06-28 13:43:05.656250000,-55.0,12.0,34.0,63.833124999999995,40.78,0.59757975,33.57
2021-06-28 13:43:05.664062500,-54.5,12.25,34.0,63.83078125,41.785,0.5960584375,33.57
2021-06-28 13:43:05.671875000,-54.0,12.5,34.0,63.8284375,42.79,0.594537125,33.57
2021-06-28 13:43:05.679687500,-53.5,12.75,34.0,63.82609375,43.629999999999995,0.5930158124999999,33.57
2021-06-28 13:43:05.687500000,-53.0,13.0,34.0,63.82375,44.47,0.5914944999999999,33.57
2021-06-28 13:43:05.695312500,-54.0,12.75,33.0,63.821406249999995,45.165,0.5899731874999999,33.57
2021-06-28 13:43:05.703125000,-55.0,12.5,32.0,63.8190625,45.86,0.588451875,33.57
2021-06-28 13:43:05.710937500,-56.0,12.25,31.0,63.81671875,46.455,0.5869305625,33.57
2021-06-28 13:43:05.718750000,-57.0,12.0,30.0,63.814375,47.05,0.58540925,33.57
2021-06-28 13:43:05.726562500,-57.25,12.0,29.75,63.81203125,47.61,0.5838879374999999,33.57
2021-06-28 13:43:05.734375000,-57.5,12.0,29.5,63.809687499999995,48.17,0.5823666249999999,33.57
2021-06-28 13:43:05.742187500,-57.75,12.0,29.25,63.80734375,48.785,0.5808453124999999,33.57
2021-06-28 13:43:05.750000000,-58.0,12.0,29.0,63.805,49.4,0.579324,33.57
2021-06-28 13:43:05.757812500,-58.0,12.25,29.0,63.80265625,50.16,0.5783231249999999,33.57
2021-06-28 13:43:05.765625000,-58.0,12.5,29.0,63.8003125,50.92,0.5773222499999999,33.57
2021-06-28 13:43:05.773437500,-58.0,12.75,29.0,63.797968749999995,51.875,0.5763213749999999,33.57
2021-06-28 13:43:05.781250000,-58.0,13.0,29.0,63.795625,52.83,0.5753204999999999,33.57
2021-06-28 13:43:05.789062500,-57.75,12.75,30.0,63.79328125,53.925,0.574319625,33.57
2021-06-28 13:43:05.796875000,-57.5,12.5,31.0,63.7909375,55.02,0.57331875,33.57
2021-06-28 13:43:05.804687500,-57.25,12.25,32.0,63.78859375,56.06,0.572317875,33.57
2021-06-28 13:43:05.812500000,-57.0,12.0,33.0,63.786249999999995,57.1,0.571317,33.57
2021-06-28 13:43:05.820312500,-56.5,12.0,32.75,63.78390625,57.78,0.570316125,33.57
2021-06-28 13:43:05.828125000,-56.0,12.0,32.5,63.7815625,58.46,0.5693152499999999,33.57
2021-06-28 13:43:05.835937500,-55.5,12.0,32.25,63.77921875,58.45,0.5683143749999999,33.57
2021-06-28 13:43:05.843750000,-55.0,12.0,32.0,63.776875,58.44,0.5673135,33.57
2021-06-28 13:43:05.851562500,-55.5,12.0,32.0,63.774531249999995,57.5,0.566312625,33.57
2021-06-28 13:43:05.859375000,-56.0,12.0,32.0,63.772187499999994,56.56,0.56531175,33.57
2021-06-28 13:43:05.867187500,-56.5,12.0,32.0,63.76984375,54.665000000000006,0.564310875,33.57
2021-06-28 13:43:05.875000000,-57.0,12.0,32.0,63.7675,52.77,0.56331,33.57
2021-06-28 13:43:05.882812500,-57.25,12.0,32.0,63.76515625,50.125,0.562309125,33.57
2021-06-28 13:43:05.890625000,-57.5,12.0,32.0,63.762812499999995,47.48,0.56130825,33.57
2021-06-28 13:43:05.898437500,-57.75,12.0,32.0,63.760468749999994,44.465,0.5603073749999999,33.57
2021-06-28 13:43:05.906250000,-58.0,12.0,32.0,63.758125,41.45,0.5593064999999999,33.57
2021-06-28 13:43:05.914062500,-57.75,12.0,31.75,63.75578125,38.47,0.558305625,33.57
2021-06-28 13:43:05.921875000,-57.5,12.0,31.5,63.7534375,35.49,0.55730475,33.57
2021-06-28 13:43:05.929687500,-57.25,12.0,31.25,63.751093749999995,32.77,0.556303875,33.57
2021-06-28 13:43:05.937500000,-57.0,12.0,31.0,63.748749999999994,30.05,0.555303,33.57
2021-06-28 13:43:05.945312500,-56.75,12.0,30.5,63.74640625,27.54,0.554302125,33.57
2021-06-28 13:43:05.953125000,-56.5,12.0,30.0,63.7440625,25.03,0.55330125,33.57
2021-06-28 13:43:05.960937500,-56.25,12.0,29.5,63.74171875,22.33,0.552300375,33.57
2021-06-28 13:43:05.968750000,-56.0,12.0,29.0,63.739374999999995,19.63,0.5512995,33.57
2021-06-28 13:43:05.976562500,-55.75,12.5,29.5,63.737031249999994,16.14,0.550298625,33.57
2021-06-28 13:43:05.984375000,-55.5,13.0,30.0,63.7346875,12.65,0.54929775,33.57
2021-06-28 13:43:05.992187500,-55.25,13.5,30.5,63.73234375,7.720000000000001,0.548296875,33.57
2021-06-28 13:43:06.000000000,-55.0,14.0,31.0,63.73,2.79,0.547296,33.57
2021-06-28 13:43:06.007812500,-55.5,13.25,31.5,63.728203125,-3.999999999999999,0.54717590625,33.57
2021-06-28 13:43:06.015625000,-56.0,12.5,32.0,63.72640625,-10.79,0.5470558125,33.57
2021-06-28 13:43:06.023437500,-56.5,11.75,32.5,63.724609375,-19.435,0.54693571875,33.57
2021-06-28 13:43:06.031250000,-57.0,11.0,33.0,63.722812499999996,-28.08,0.546815625,33.57
2021-06-28 13:43:06.039062500,-56.25,11.0,33.25,63.721015625,-37.995,0.54669553125,33.57
2021-06-28 13:43:06.046875000,-55.5,11.0,33.5,63.719218749999996,-47.91,0.5465754375,33.57
2021-06-28 13:43:06.054687500,-54.75,11.0,33.75,63.717421875,-58.045,0.54645534375,33.57
2021-06-28 13:43:06.062500000,-54.0,11.0,34.0,63.715624999999996,-68.18,0.54633525,33.57
2021-06-28 13:43:06.070312500,-53.25,11.25,33.5,63.713828125,-77.275,0.54621515625,33.57
2021-06-28 13:43:06.078125000,-52.5,11.5,33.0,63.712031249999995,-86.37,0.5460950625,33.57
2021-06-28 13:43:06.085937500,-51.75,11.75,32.5,63.710234375,-93.315,0.54597496875,33.57
2021-06-28 13:43:06.093750000,-51.0,12.0,32.0,63.708437499999995,-100.26,0.545854875,33.57
2021-06-28 13:43:06.101562500,-52.5,12.25,30.75,63.706640625,-104.45,0.54573478125,33.57
2021-06-28 13:43:06.109375000,-54.0,12.5,29.5,63.704843749999995,-108.64,0.5456146875,33.57
2021-06-28 13:43:06.117187500,-55.5,12.75,28.25,63.703046875,-110.07,0.54549459375,33.57
2021-06-28 13:43:06.125000000,-57.0,13.0,27.0,63.701249999999995,-111.5,0.5453745,33.57
2021-06-28 13:43:06.132812500,-58.0,13.0,27.25,63.699453125,-110.64,0.54525440625,33.57
2021-06-28 13:43:06.140625000,-59.0,13.0,27.5,63.697656249999994,-109.78,0.5451343125,33.57
2021-06-28 13:43:06.148437500,-60.0,13.0,27.75,63.695859375,-107.25999999999999,0.54501421875,33.57
2021-06-28 13:43:06.156250000,-61.0,13.0,28.0,63.694062499999994,-104.74,0.544894125,33.57
2021-06-28 13:43:06.164062500,-60.0,12.75,28.25,63.692265625,-101.06,0.54477403125,33.57
2021-06-28 13:43:06.171875000,-59.0,12.5,28.5,63.69046875,-97.38,0.5446539375,33.57
2021-06-28 13:43:06.179687500,-58.0,12.25,28.75,63.688671875,-92.775,0.54453384375,33.57
2021-06-28 13:43:06.187500000,-57.0,12.0,29.0,63.686875,-88.17,0.5444137499999999,33.57
2021-06-28 13:43:06.195312500,-57.25,12.0,28.5,63.685078125,-82.68,0.5442936562499999,33.57
2021-06-28 13:43:06.203125000,-57.5,12.0,28.0,63.68328125,-77.19,0.5441735624999999,33.57
2021-06-28 13:43:06.210937500,-57.75,12.0,27.5,63.681484375,-70.89,0.5440534687499999,33.57
2021-06-28 13:43:06.218750000,-58.0,12.0,27.0,63.6796875,-64.59,0.5439333749999999,33.57
2021-06-28 13:43:06.226562500,-57.5,12.5,26.5,63.677890624999996,-57.725,0.54381328125,33.57
2021-06-28 13:43:06.234375000,-57.0,13.0,26.0,63.67609375,-50.86,0.5436931875,33.57
2021-06-28 13:43:06.242187500,-56.5,13.5,25.5,63.674296874999996,-43.870000000000005,0.54357309375,33.57
2021-06-28 13:43:06.250000000,-56.0,14.0,25.0,63.6725,-36.88,0.543453,33.57
2021-06-28 13:43:06.257812500,-56.0,13.5,25.25,63.670703124999996,-30.225,0.5431327187499999,33.57
2021-06-28 13:43:06.265625000,-56.0,13.0,25.5,63.66890625,-23.57,0.5428124375,33.57
2021-06-28 13:43:06.273437500,-56.0,12.5,25.75,63.667109374999995,-17.54,0.54249215625,33.57
2021-06-28 13:43:06.281250000,-56.0,12.0,26.0,63.6653125,-11.51,0.542171875,33.57
2021-06-28 13:43:06.289062500,-56.0,11.75,28.75,63.663515624999995,-6.125,0.5418515937499999,33.57
2021-06-28 13:43:06.296875000,-56.0,11.5,31.5,63.66171875,-0.74,0.5415313125,33.57
2021-06-28 13:43:06.304687500,-56.0,11.25,34.25,63.659921874999995,4.175,0.54121103125,33.57
2021-06-28 13:43:06.312500000,-56.0,11.0,37.0,63.658125,9.09,0.54089075,33.57
2021-06-28 13:43:06.320312500,-57.0,10.0,37.0,63.656328124999995,13.73,0.5405704687499999,33.57
2021-06-28 13:43:06.328125000,-58.0,9.0,37.0,63.65453125,18.37,0.5402501875,33.57
2021-06-28 13:43:06.335937500,-59.0,8.0,37.0,63.652734375,22.785,0.53992990625,33.57
2021-06-28 13:43:06.343750000,-60.0,7.0,37.0,63.6509375,27.2,0.539609625,33.57
2021-06-28 13:43:06.351562500,-59.25,7.5,35.75,63.649140625,31.229999999999997,0.5392893437499999,33.57
2021-06-28 13:43:06.359375000,-58.5,8.0,34.5,63.64734375,35.26,0.5389690625,33.57
2021-06-28 13:43:06.367187500,-57.75,8.5,33.25,63.645546875,38.66,0.53864878125,33.57
2021-06-28 13:43:06.375000000,-57.0,9.0,32.0,63.64375,42.06,0.5383285,33.57
2021-06-28 13:43:06.382812500,-56.5,10.25,30.5,63.641953125,44.66,0.5380082187499999,33.57
2021-06-28 13:43:06.390625000,-56.0,11.5,29.0,63.64015625,47.26,0.5376879375,33.57
2021-06-28 13:43:06.398437500,-55.5,12.75,27.5,63.638359375,49.08,0.53736765625,33.57
2021-06-28 13:43:06.406250000,-55.0,14.0,26.0,63.6365625,50.9,0.537047375,33.57
2021-06-28 13:43:06.414062500,-55.75,13.75,26.0,63.634765625,52.165,0.5367270937499999,33.57
2021-06-28 13:43:06.421875000,-56.5,13.5,26.0,63.632968749999996,53.43,0.5364068125,33.57
2021-06-28 13:43:06.429687500,-57.25,13.25,26.0,63.631171875,54.445,0.53608653125,33.57
2021-06-28 13:43:06.437500000,-58.0,13.0,26.0,63.629374999999996,55.46,0.53576625,33.57
2021-06-28 13:43:06.445312500,-58.5,12.0,28.75,63.627578125,56.435,0.53544596875,33.57
2021-06-28 13:43:06.453125000,-59.0,11.0,31.5,63.625781249999996,57.41,0.5351256875,33.57
2021-06-28 13:43:06.460937500,-59.5,10.0,34.25,63.623984375,58.355,0.5348054062500001,33.57
2021-06-28 13:43:06.468750000,-60.0,9.0,37.0,63.622187499999995,59.3,0.534485125,33.57
2021-06-28 13:43:06.476562500,-58.5,9.0,37.25,63.620390625,60.07,0.53416484375,33.57
2021-06-28 13:43:06.484375000,-57.0,9.0,37.5,63.618593749999995,60.84,0.5338445625,33.57
2021-06-28 13:43:06.492187500,-55.5,9.0,37.75,63.616796875,61.295,0.5335242812500001,33.57
2021-06-28 13:43:06.500000000,-54.0,9.0,38.0,63.614999999999995,61.75,0.533204,33.57
2021-06-28 13:43:06.507812500,-53.75,10.0,35.5,63.613203125,61.915,0.53336415625,33.57
2021-06-28 13:43:06.515625000,-53.5,11.0,33.0,63.61140625,62.08,0.5335243125,33.57
2021-06-28 13:43:06.523437500,-53.25,12.0,30.5,63.609609375,62.17,0.53368446875,33.57
2021-06-28 13:43:06.531250000,-53.0,13.0,28.0,63.6078125,62.26,0.533844625,33.57
2021-06-28 13:43:06.539062500,-52.75,13.25,27.75,63.606015625,62.525,0.53400478125,33.57
2021-06-28 13:43:06.546875000,-52.5,13.5,27.5,63.60421875,62.79,0.5341649375,33.57
2021-06-28 13:43:06.554687500,-52.25,13.75,27.25,63.602421875,63.254999999999995,0.53432509375,33.57
2021-06-28 13:43:06.562500000,-52.0,14.0,27.0,63.600625,63.72,0.53448525,33.57
2021-06-28 13:43:06.570312500,-52.25,13.5,28.5,63.598828125,64.065,0.53464540625,33.57
2021-06-28 13:43:06.578125000,-52.5,13.0,30.0,63.59703125,64.41,0.5348055625,33.57
2021-06-28 13:43:06.585937500,-52.75,12.5,31.5,63.595234375,64.045,0.53496571875,33.57
2021-06-28 13:43:06.593750000,-53.0,12.0,33.0,63.5934375,63.68,0.535125875,33.57
2021-06-28 13:43:06.601562500,-52.75,12.0,33.25,63.591640625,62.065,0.53528603125,33.57
2021-06-28 13:43:06.609375000,-52.5,12.0,33.5,63.58984375,60.45,0.5354461875,33.57
2021-06-28 13:43:06.617187500,-52.25,12.0,33.75,63.588046874999996,57.395,0.5356063437499999,33.57
2021-06-28 13:43:06.625000000,-52.0,12.0,34.0,63.58625,54.34,0.5357665,33.57
2021-06-28 13:43:06.632812500,-52.75,12.25,33.25,63.584453124999996,50.11,0.53592665625,33.57
2021-06-28 13:43:06.640625000,-53.5,12.5,32.5,63.58265625,45.88,0.5360868125,33.57
2021-06-28 13:43:06.648437500,-54.25,12.75,31.75,63.580859374999996,41.045,0.53624696875,33.57
2021-06-28 13:43:06.656250000,-55.0,13.0,31.0,63.5790625,36.21,0.536407125,33.57
2021-06-28 13:43:06.664062500,-55.5,13.0,31.25,63.577265624999995,31.245,0.53656728125,33.57
2021-06-28 13:43:06.671875000,-56.0,13.0,31.5,63.57546875,26.28,0.5367274375,33.57
2021-06-28 13:43:06.679687500,-56.5,13.0,31.75,63.573671875,21.34,0.53688759375,33.57
2021-06-28 13:43:06.687500000,-57.0,13.0,32.0,63.571875,16.4,0.5370477499999999,33.57
2021-06-28 13:43:06.695312500,-57.25,12.75,32.25,63.570078125,11.254999999999999,0.5372079062499999,33.57
2021-06-28 13:43:06.703125000,-57.5,12.5,32.5,63.56828125,6.11,0.5373680624999999,33.57
2021-06-28 13:43:06.710937500,-57.75,12.25,32.75,63.566484375,0.375,0.53752821875,33.57
2021-06-28 13:43:06.718750000,-58.0,12.0,33.0,63.5646875,-5.36,0.537688375,33.57
2021-06-28 13:43:06.726562500,-57.25,12.25,33.25,63.562890625,-11.875,0.53784853125,33.57
2021-06-28 13:43:06.734375000,-56.5,12.5,33.5,63.56109375,-18.39,0.5380086875,33.57
2021-06-28 13:43:06.742187500,-55.75,12.75,33.75,63.559296875,-25.485,0.53816884375,33.57
2021-06-28 13:43:06.750000000,-55.0,13.0,34.0,63.5575,-32.58,0.538329,33.57
2021-06-28 13:43:06.757812500,-55.0,13.0,34.0,63.555703125,-39.675,0.5381288125,33.57
2021-06-28 13:43:06.765625000,-55.0,13.0,34.0,63.55390625,-46.77,0.5379286249999999,33.57
2021-06-28 13:43:06.773437500,-55.0,13.0,34.0,63.552109375,-53.075,0.5377284375,33.57
2021-06-28 13:43:06.781250000,-55.0,13.0,34.0,63.5503125,-59.38,0.5375282499999999,33.57
2021-06-28 13:43:06.789062500,-55.0,13.0,34.0,63.548515625,-64.175,0.5373280625,33.57
2021-06-28 13:43:06.796875000,-55.0,13.0,34.0,63.54671875,-68.97,0.5371278749999999,33.57
2021-06-28 13:43:06.804687500,-55.0,13.0,34.0,63.544921875,-71.735,0.5369276875,33.57
2021-06-28 13:43:06.812500000,-55.0,13.0,34.0,63.543124999999996,-74.5,0.5367275,33.57
2021-06-28 13:43:06.820312500,-55.0,13.0,34.0,63.541328125,-75.00999999999999,0.5365273125,33.57
2021-06-28 13:43:06.828125000,-55.0,13.0,34.0,63.539531249999996,-75.52,0.536327125,33.57
2021-06-28 13:43:06.835937500,-55.0,13.0,34.0,63.537734375,-73.79499999999999,0.5361269375,33.57
2021-06-28 13:43:06.843750000,-55.0,13.0,34.0,63.5359375,-72.07,0.53592675,33.57
2021-06-28 13:43:06.851562500,-55.0,13.25,33.5,63.534140625,-68.375,0.5357265625,33.57
2021-06-28 13:43:06.859375000,-55.0,13.5,33.0,63.53234375,-64.68,0.535526375,33.57
2021-06-28 13:43:06.867187500,-55.0,13.75,32.5,63.530546875,-59.485,0.5353261874999999,33.57
2021-06-28 13:43:06.875000000,-55.0,14.0,32.0,63.52875,-54.29,0.535126,33.57
2021-06-28 13:43:06.882812500,-55.0,13.75,32.0,63.526953125,-48.215,0.5349258125,33.57
2021-06-28 13:43:06.890625000,-55.0,13.5,32.0,63.52515625,-42.14,0.534725625,33.57
2021-06-28 13:43:06.898437500,-55.0,13.25,32.0,63.523359375,-35.82,0.5345254375,33.57
2021-06-28 13:43:06.906250000,-55.0,13.0,32.0,63.5215625,-29.5,0.53432525,33.57
2021-06-28 13:43:06.914062500,-55.25,13.0,32.0,63.519765625,-23.445,0.5341250625,33.57
2021-06-28 13:43:06.921875000,-55.5,13.0,32.0,63.51796875,-17.39,0.533924875,33.57
2021-06-28 13:43:06.929687500,-55.75,13.0,32.0,63.516171875,-11.91,0.5337246875,33.57
2021-06-28 13:43:06.937500000,-56.0,13.0,32.0,63.514375,-6.43,0.5335245,33.57
2021-06-28 13:43:06.945312500,-56.0,13.0,32.0,63.512578125,-1.6150000000000002,0.5333243125,33.57
2021-06-28 13:43:06.953125000,-56.0,13.0,32.0,63.51078125,3.2,0.5331241250000001,33.57
2021-06-28 13:43:06.960937500,-56.0,13.0,32.0,63.508984375,7.385000000000001,0.5329239375,33.57
2021-06-28 13:43:06.968750000,-56.0,13.0,32.0,63.5071875,11.57,0.53272375,33.57
2021-06-28 13:43:06.976562500,-55.5,13.0,32.25,63.505390625,15.22,0.5325235625,33.57
2021-06-28 13:43:06.984375000,-55.0,13.0,32.5,63.50359375,18.87,0.532323375,33.57
2021-06-28 13:43:06.992187500,-54.5,13.0,32.75,63.501796875,22.09,0.5321231875,33.57
