TimeStamp,empatica.acc.x,empatica.acc.y,empatica.acc.z,empatica.hr,empatica.bvp,empatica.eda,empatica.temp
2021-07-08 16:09:50.335937500,-59.0,3.0,27.0,78.48671875000001,-24.71,23.33244546875,35.18
2021-07-08 16:09:50.343750000,-59.0,3.0,27.0,78.486875,-23.26,23.332965875,35.18
2021-07-08 16:09:50.351562500,-59.0,3.0,27.0,78.48703125,-21.205,23.33348628125,35.18
2021-07-08 16:09:50.359375000,-59.0,3.0,27.0,78.4871875,-19.15,23.3340066875,35.18
2021-07-08 16:09:50.367187500,-59.0,3.0,27.0,78.48734375000001,-16.65,23.33452709375,35.18
2021-07-08 16:09:50.375000000,-59.0,3.0,27.0,78.4875,-14.15,23.3350475,35.18
2021-07-08 16:09:50.382812500,-59.0,3.0,27.0,78.48765625,-11.43,23.33556790625,35.18
2021-07-08 16:09:50.390625000,-59.0,3.0,27.0,78.4878125,-8.71,23.3360883125,35.18
2021-07-08 16:09:50.398437500,-59.0,3.0,27.0,78.48796875000001,-6.025,23.33660871875,35.18
2021-07-08 16:09:50.406250000,-59.0,3.0,27.0,78.488125,-3.34,23.337129125,35.18
2021-07-08 16:09:50.414062500,-59.25,3.0,27.0,78.48828125,-0.8799999999999999,23.33764953125,35.18
2021-07-08 16:09:50.421875000,-59.5,3.0,27.0,78.4884375,1.58,23.338169937500002,35.18
2021-07-08 16:09:50.429687500,-59.75,3.0,27.0,78.48859375,3.685,23.33869034375,35.18
2021-07-08 16:09:50.437500000,-60.0,3.0,27.0,78.48875,5.79,23.33921075,35.18
2021-07-08 16:09:50.445312500,-59.75,3.0,27.0,78.48890625,7.470000000000001,23.33973115625,35.18
2021-07-08 16:09:50.453125000,-59.5,3.0,27.0,78.4890625,9.15,23.3402515625,35.18
2021-07-08 16:09:50.460937500,-59.25,3.0,27.0,78.48921875,10.385,23.34077196875,35.18
2021-07-08 16:09:50.468750000,-59.0,3.0,27.0,78.489375,11.62,23.341292375000002,35.18
2021-07-08 16:09:50.476562500,-59.0,3.0,27.0,78.48953125,12.399999999999999,23.34181278125,35.18
2021-07-08 16:09:50.484375000,-59.0,3.0,27.0,78.4896875,13.18,23.3423331875,35.18
2021-07-08 16:09:50.492187500,-59.0,3.0,27.0,78.48984375,13.52,23.34285359375,35.18
2021-07-08 16:09:50.500000000,-59.0,3.0,27.0,78.49000000000001,13.86,23.343374,35.18
2021-07-08 16:09:50.507812500,-59.0,3.0,27.0,78.49015625,13.809999999999999,23.34317384375,35.18
2021-07-08 16:09:50.515625000,-59.0,3.0,27.0,78.4903125,13.76,23.3429736875,35.18
2021-07-08 16:09:50.523437500,-59.0,3.0,27.0,78.49046875,13.395,23.34277353125,35.18
2021-07-08 16:09:50.531250000,-59.0,3.0,27.0,78.49062500000001,13.03,23.342573375,35.18
2021-07-08 16:09:50.539062500,-59.0,3.0,27.0,78.49078125,12.475,23.34237321875,35.18
2021-07-08 16:09:50.546875000,-59.0,3.0,27.0,78.4909375,11.92,23.342173062500002,35.18
2021-07-08 16:09:50.554687500,-59.0,3.0,27.0,78.49109375,11.305,23.34197290625,35.18
2021-07-08 16:09:50.562500000,-59.0,3.0,27.0,78.49125000000001,10.69,23.34177275,35.18
2021-07-08 16:09:50.570312500,-59.25,3.0,27.0,78.49140625,10.175,23.34157259375,35.18
2021-07-08 16:09:50.578125000,-59.5,3.0,27.0,78.4915625,9.66,23.3413724375,35.18
2021-07-08 16:09:50.585937500,-59.75,3.0,27.0,78.49171875,9.34,23.34117228125,35.18
2021-07-08 16:09:50.593750000,-60.0,3.0,27.0,78.49187500000001,9.02,23.340972125,35.18
2021-07-08 16:09:50.601562500,-59.75,3.0,27.0,78.49203125,8.95,23.34077196875,35.18
2021-07-08 16:09:50.609375000,-59.5,3.0,27.0,78.4921875,8.88,23.340571812500002,35.18
2021-07-08 16:09:50.617187500,-59.25,3.0,27.0,78.49234375,9.025,23.34037165625,35.18
2021-07-08 16:09:50.625000000,-59.0,3.0,27.0,78.4925,9.17,23.3401715,35.18
2021-07-08 16:09:50.632812500,-59.0,3.0,27.0,78.49265625,9.434999999999999,23.33997134375,35.18
2021-07-08 16:09:50.640625000,-59.0,3.0,27.0,78.4928125,9.7,23.3397711875,35.18
2021-07-08 16:09:50.648437500,-59.0,3.0,27.0,78.49296875,9.995,23.33957103125,35.18
2021-07-08 16:09:50.656250000,-59.0,3.0,27.0,78.493125,10.29,23.339370875,35.18
2021-07-08 16:09:50.664062500,-59.25,3.0,27.0,78.49328125,10.52,23.33917071875,35.18
2021-07-08 16:09:50.671875000,-59.5,3.0,27.0,78.4934375,10.75,23.338970562500002,35.18
2021-07-08 16:09:50.679687500,-59.75,3.0,27.0,78.49359375,10.905000000000001,23.33877040625,35.18
2021-07-08 16:09:50.687500000,-60.0,3.0,27.0,78.49375,11.06,23.33857025,35.18
2021-07-08 16:09:50.695312500,-60.0,3.0,26.75,78.49390625,11.155000000000001,23.33837009375,35.18
2021-07-08 16:09:50.703125000,-60.0,3.0,26.5,78.4940625,11.25,23.3381699375,35.18
2021-07-08 16:09:50.710937500,-60.0,3.0,26.25,78.49421875,11.33,23.33796978125,35.18
2021-07-08 16:09:50.718750000,-60.0,3.0,26.0,78.494375,11.41,23.337769625,35.18
2021-07-08 16:09:50.726562500,-60.0,3.0,26.25,78.49453125,11.48,23.33756946875,35.18
2021-07-08 16:09:50.734375000,-60.0,3.0,26.5,78.4946875,11.55,23.3373693125,35.18
2021-07-08 16:09:50.742187500,-60.0,3.0,26.75,78.49484375,11.595,23.33716915625,35.18
2021-07-08 16:09:50.750000000,-60.0,3.0,27.0,78.495,11.64,23.336969,35.18
2021-07-08 16:09:50.757812500,-59.75,3.0,27.0,78.49515625000001,11.59,23.33724928125,35.18
2021-07-08 16:09:50.765625000,-59.5,3.0,27.0,78.4953125,11.54,23.3375295625,35.18
2021-07-08 16:09:50.773437500,-59.25,3.0,27.0,78.49546875,11.344999999999999,23.33780984375,35.18
2021-07-08 16:09:50.781250000,-59.0,3.0,27.0,78.495625,11.15,23.338090125,35.18
2021-07-08 16:09:50.789062500,-59.0,3.0,27.0,78.49578125000001,10.795,23.33837040625,35.18
2021-07-08 16:09:50.796875000,-59.0,3.0,27.0,78.4959375,10.44,23.3386506875,35.18
2021-07-08 16:09:50.804687500,-59.0,3.0,27.0,78.49609375,9.945,23.33893096875,35.18
2021-07-08 16:09:50.812500000,-59.0,3.0,27.0,78.49625,9.45,23.339211249999998,35.18
2021-07-08 16:09:50.820312500,-59.25,3.0,27.0,78.49640625,8.879999999999999,23.33949153125,35.18
2021-07-08 16:09:50.828125000,-59.5,3.0,27.0,78.4965625,8.31,23.3397718125,35.18
2021-07-08 16:09:50.835937500,-59.75,3.0,27.0,78.49671875,7.720000000000001,23.34005209375,35.18
2021-07-08 16:09:50.843750000,-60.0,3.0,27.0,78.496875,7.13,23.340332375,35.18
2021-07-08 16:09:50.851562500,-60.0,3.0,27.0,78.49703125,6.54,23.34061265625,35.18
2021-07-08 16:09:50.859375000,-60.0,3.0,27.0,78.4971875,5.95,23.3408929375,35.18
2021-07-08 16:09:50.867187500,-60.0,3.0,27.0,78.49734375,5.375,23.34117321875,35.18
2021-07-08 16:09:50.875000000,-60.0,3.0,27.0,78.4975,4.8,23.3414535,35.18
2021-07-08 16:09:50.882812500,-60.0,3.0,27.0,78.49765625,4.22,23.34173378125,35.18
2021-07-08 16:09:50.890625000,-60.0,3.0,27.0,78.4978125,3.64,23.3420140625,35.18
2021-07-08 16:09:50.898437500,-60.0,3.0,27.0,78.49796875,3.0300000000000002,23.34229434375,35.18
2021-07-08 16:09:50.906250000,-60.0,3.0,27.0,78.498125,2.42,23.342574625,35.18
2021-07-08 16:09:50.914062500,-59.75,3.0,27.0,78.49828125,1.775,23.34285490625,35.18
2021-07-08 16:09:50.921875000,-59.5,3.0,27.0,78.4984375,1.13,23.3431351875,35.18
2021-07-08 16:09:50.929687500,-59.25,3.0,27.0,78.49859375,0.43499999999999994,23.34341546875,35.18
2021-07-08 16:09:50.937500000,-59.0,3.0,27.0,78.49875,-0.26,23.343695750000002,35.18
2021-07-08 16:09:50.945312500,-59.0,3.0,27.0,78.49890625,-1.01,23.34397603125,35.18
2021-07-08 16:09:50.953125000,-59.0,3.0,27.0,78.4990625,-1.76,23.3442563125,35.18
2021-07-08 16:09:50.960937500,-59.0,3.0,27.0,78.49921875,-2.56,23.34453659375,35.18
2021-07-08 16:09:50.968750000,-59.0,3.0,27.0,78.499375,-3.36,23.344816875,35.18
2021-07-08 16:09:50.976562500,-59.0,3.25,27.0,78.49953125,-4.18,23.34509715625,35.18
2021-07-08 16:09:50.984375000,-59.0,3.5,27.0,78.4996875,-5.0,23.3453774375,35.18
2021-07-08 16:09:50.992187500,-59.0,3.75,27.0,78.49984375,-5.720000000000001,23.34565771875,35.18
2021-07-08 16:09:51.000000000,-59.0,4.0,27.0,78.5,-6.44,23.345938,35.18
2021-07-08 16:09:51.007812500,-59.0,3.75,27.0,78.500390625,-6.895,23.34537753125,35.1809375
2021-07-08 16:09:51.015625000,-59.0,3.5,27.0,78.50078125,-7.35,23.3448170625,35.181875
2021-07-08 16:09:51.023437500,-59.0,3.25,27.0,78.501171875,-7.32,23.34425659375,35.1828125
2021-07-08 16:09:51.031250000,-59.0,3.0,27.0,78.5015625,-7.29,23.343696125,35.18375
2021-07-08 16:09:51.039062500,-59.25,3.0,27.0,78.501953125,-6.615,23.34313565625,35.1846875
2021-07-08 16:09:51.046875000,-59.5,3.0,27.0,78.50234375,-5.94,23.3425751875,35.185625
2021-07-08 16:09:51.054687500,-59.75,3.0,27.0,78.502734375,-4.585,23.34201471875,35.1865625
2021-07-08 16:09:51.062500000,-60.0,3.0,27.0,78.503125,-3.23,23.341454249999998,35.1875
2021-07-08 16:09:51.070312500,-59.75,3.0,27.0,78.503515625,-1.29,23.34089378125,35.1884375
2021-07-08 16:09:51.078125000,-59.5,3.0,27.0,78.50390625,0.65,23.3403333125,35.189375
2021-07-08 16:09:51.085937500,-59.25,3.0,27.0,78.504296875,2.9349999999999996,23.33977284375,35.1903125
2021-07-08 16:09:51.093750000,-59.0,3.0,27.0,78.5046875,5.22,23.339212375,35.19125
2021-07-08 16:09:51.101562500,-59.0,3.0,27.0,78.505078125,7.57,23.33865190625,35.1921875
2021-07-08 16:09:51.109375000,-59.0,3.0,27.0,78.50546875,9.92,23.3380914375,35.193125
2021-07-08 16:09:51.117187500,-59.0,3.0,27.0,78.505859375,12.07,23.33753096875,35.1940625
2021-07-08 16:09:51.125000000,-59.0,3.0,27.0,78.50625,14.22,23.3369705,35.195
2021-07-08 16:09:51.132812500,-59.25,3.0,27.0,78.506640625,15.995000000000001,23.33641003125,35.1959375
2021-07-08 16:09:51.140625000,-59.5,3.0,27.0,78.50703125,17.77,23.335849562499998,35.196875
2021-07-08 16:09:51.148437500,-59.75,3.0,27.0,78.507421875,19.07,23.33528909375,35.1978125
2021-07-08 16:09:51.156250000,-60.0,3.0,27.0,78.5078125,20.37,23.334728625,35.198750000000004
2021-07-08 16:09:51.164062500,-59.75,3.0,27.0,78.508203125,21.16,23.334168156249998,35.1996875
2021-07-08 16:09:51.171875000,-59.5,3.0,27.0,78.50859375,21.95,23.3336076875,35.200625
2021-07-08 16:09:51.179687500,-59.25,3.0,27.0,78.508984375,22.244999999999997,23.33304721875,35.2015625
2021-07-08 16:09:51.187500000,-59.0,3.0,27.0,78.509375,22.54,23.33248675,35.2025
2021-07-08 16:09:51.195312500,-59.25,3.0,27.0,78.509765625,22.36,23.33192628125,35.2034375
2021-07-08 16:09:51.203125000,-59.5,3.0,27.0,78.51015625,22.18,23.3313658125,35.204375
2021-07-08 16:09:51.210937500,-59.75,3.0,27.0,78.510546875,21.6,23.33080534375,35.2053125
2021-07-08 16:09:51.218750000,-60.0,3.0,27.0,78.5109375,21.02,23.330244874999998,35.20625
2021-07-08 16:09:51.226562500,-60.0,3.0,26.75,78.511328125,20.125,23.32968440625,35.2071875
2021-07-08 16:09:51.234375000,-60.0,3.0,26.5,78.51171875,19.23,23.3291239375,35.208125
2021-07-08 16:09:51.242187500,-60.0,3.0,26.25,78.512109375,18.134999999999998,23.328563468749998,35.2090625
2021-07-08 16:09:51.250000000,-60.0,3.0,26.0,78.5125,17.04,23.328003,35.21
2021-07-08 16:09:51.257812500,-59.75,3.0,26.0,78.512890625,15.885,23.327562625,35.21
2021-07-08 16:09:51.265625000,-59.5,3.0,26.0,78.51328125,14.73,23.32712225,35.21
2021-07-08 16:09:51.273437500,-59.25,3.0,26.0,78.513671875,13.615,23.326681875,35.21
2021-07-08 16:09:51.281250000,-59.0,3.0,26.0,78.5140625,12.5,23.3262415,35.21
2021-07-08 16:09:51.289062500,-59.25,3.0,26.25,78.514453125,11.515,23.325801124999998,35.21
2021-07-08 16:09:51.296875000,-59.5,3.0,26.5,78.51484375,10.53,23.325360749999998,35.21
2021-07-08 16:09:51.304687500,-59.75,3.0,26.75,78.515234375,9.73,23.324920374999998,35.21
2021-07-08 16:09:51.312500000,-60.0,3.0,27.0,78.515625,8.93,23.32448,35.21
2021-07-08 16:09:51.320312500,-60.0,3.0,27.0,78.516015625,8.32,23.324039625,35.21
2021-07-08 16:09:51.328125000,-60.0,3.0,27.0,78.51640625,7.71,23.32359925,35.21
2021-07-08 16:09:51.335937500,-60.0,3.0,27.0,78.516796875,7.265000000000001,23.323158875,35.21
2021-07-08 16:09:51.343750000,-60.0,3.0,27.0,78.5171875,6.82,23.3227185,35.21
2021-07-08 16:09:51.351562500,-59.75,3.0,27.0,78.517578125,6.49,23.322278125,35.21
2021-07-08 16:09:51.359375000,-59.5,3.0,27.0,78.51796875,6.16,23.32183775,35.21
2021-07-08 16:09:51.367187500,-59.25,3.0,27.0,78.518359375,5.855,23.321397375,35.21
2021-07-08 16:09:51.375000000,-59.0,3.0,27.0,78.51875,5.55,23.320957,35.21
2021-07-08 16:09:51.382812500,-59.0,3.0,27.0,78.519140625,5.195,23.320516625,35.21
2021-07-08 16:09:51.390625000,-59.0,3.0,27.0,78.51953125,4.84,23.32007625,35.21
2021-07-08 16:09:51.398437500,-59.0,3.0,27.0,78.519921875,4.395,23.319635875,35.21
2021-07-08 16:09:51.406250000,-59.0,3.0,27.0,78.5203125,3.95,23.3191955,35.21
2021-07-08 16:09:51.414062500,-59.0,3.0,27.0,78.520703125,3.415,23.318755125,35.21
2021-07-08 16:09:51.421875000,-59.0,3.0,27.0,78.52109375,2.88,23.31831475,35.21
2021-07-08 16:09:51.429687500,-59.0,3.0,27.0,78.521484375,2.295,23.317874375,35.21
2021-07-08 16:09:51.437500000,-59.0,3.0,27.0,78.521875,1.71,23.317434,35.21
2021-07-08 16:09:51.445312500,-59.25,3.0,27.0,78.522265625,1.115,23.316993625000002,35.21
2021-07-08 16:09:51.453125000,-59.5,3.0,27.0,78.52265625,0.52,23.316553250000002,35.21
2021-07-08 16:09:51.460937500,-59.75,3.0,27.0,78.523046875,-0.050000000000000044,23.316112875,35.21
2021-07-08 16:09:51.468750000,-60.0,3.0,27.0,78.5234375,-0.62,23.3156725,35.21
2021-07-08 16:09:51.476562500,-59.75,3.0,27.0,78.523828125,-1.1749999999999998,23.315232125,35.21
2021-07-08 16:09:51.484375000,-59.5,3.0,27.0,78.52421875,-1.73,23.31479175,35.21
2021-07-08 16:09:51.492187500,-59.25,3.0,27.0,78.524609375,-2.295,23.314351375,35.21
2021-07-08 16:09:51.500000000,-59.0,3.0,27.0,78.525,-2.86,23.313911,35.21
2021-07-08 16:09:51.507812500,-59.0,3.0,27.0,78.525390625,-3.4799999999999995,23.3136308125,35.21
2021-07-08 16:09:51.515625000,-59.0,3.0,27.0,78.52578125,-4.1,23.313350625,35.21
2021-07-08 16:09:51.523437500,-59.0,3.0,27.0,78.526171875,-4.795,23.313070437500002,35.21
2021-07-08 16:09:51.531250000,-59.0,3.0,27.0,78.5265625,-5.49,23.31279025,35.21
2021-07-08 16:09:51.539062500,-59.0,3.0,27.0,78.52695312499999,-6.265000000000001,23.3125100625,35.21
2021-07-08 16:09:51.546875000,-59.0,3.0,27.0,78.52734375,-7.04,23.312229875,35.21
2021-07-08 16:09:51.554687500,-59.0,3.0,27.0,78.527734375,-7.859999999999999,23.3119496875,35.21
2021-07-08 16:09:51.562500000,-59.0,3.0,27.0,78.528125,-8.68,23.3116695,35.21
2021-07-08 16:09:51.570312500,-59.0,3.0,27.0,78.528515625,-9.495000000000001,23.3113893125,35.21
2021-07-08 16:09:51.578125000,-59.0,3.0,27.0,78.52890624999999,-10.31,23.311109125,35.21
2021-07-08 16:09:51.585937500,-59.0,3.0,27.0,78.529296875,-11.065000000000001,23.310828937500002,35.21
2021-07-08 16:09:51.593750000,-59.0,3.0,27.0,78.5296875,-11.82,23.310548750000002,35.21
2021-07-08 16:09:51.601562500,-59.0,3.0,27.0,78.530078125,-12.48,23.3102685625,35.21
2021-07-08 16:09:51.609375000,-59.0,3.0,27.0,78.53046875,-13.14,23.309988375,35.21
2021-07-08 16:09:51.617187500,-59.0,3.0,27.0,78.53085937499999,-13.73,23.3097081875,35.21
2021-07-08 16:09:51.625000000,-59.0,3.0,27.0,78.53125,-14.32,23.309428,35.21
2021-07-08 16:09:51.632812500,-59.0,3.0,27.0,78.531640625,-14.905000000000001,23.3091478125,35.21
2021-07-08 16:09:51.640625000,-59.0,3.0,27.0,78.53203125,-15.49,23.308867625,35.21
2021-07-08 16:09:51.648437500,-59.0,3.0,27.0,78.532421875,-16.165,23.3085874375,35.21
2021-07-08 16:09:51.656250000,-59.0,3.0,27.0,78.53281249999999,-16.84,23.30830725,35.21
2021-07-08 16:09:51.664062500,-59.25,3.0,27.0,78.533203125,-17.675,23.3080270625,35.21
2021-07-08 16:09:51.671875000,-59.5,3.0,27.0,78.53359375,-18.51,23.307746875,35.21
2021-07-08 16:09:51.679687500,-59.75,3.0,27.0,78.533984375,-19.51,23.3074666875,35.21
2021-07-08 16:09:51.687500000,-60.0,3.0,27.0,78.534375,-20.51,23.3071865,35.21
2021-07-08 16:09:51.695312500,-59.75,3.0,27.0,78.53476562499999,-21.575000000000003,23.3069063125,35.21
2021-07-08 16:09:51.703125000,-59.5,3.0,27.0,78.53515625,-22.64,23.306626125,35.21
2021-07-08 16:09:51.710937500,-59.25,3.0,27.0,78.535546875,-23.575000000000003,23.3063459375,35.21
2021-07-08 16:09:51.718750000,-59.0,3.0,27.0,78.5359375,-24.51,23.306065750000002,35.21
2021-07-08 16:09:51.726562500,-59.0,3.0,27.0,78.536328125,-25.085,23.3057855625,35.21
2021-07-08 16:09:51.734375000,-59.0,3.0,27.0,78.53671874999999,-25.66,23.305505375,35.21
2021-07-08 16:09:51.742187500,-59.0,3.0,27.0,78.537109375,-25.66,23.3052251875,35.21
2021-07-08 16:09:51.750000000,-59.0,3.0,27.0,78.5375,-25.66,23.304945,35.21
2021-07-08 16:09:51.757812500,-59.0,3.25,27.0,78.537890625,-24.96,23.30474484375,35.21
2021-07-08 16:09:51.765625000,-59.0,3.5,27.0,78.53828125,-24.26,23.304544687499998,35.21
2021-07-08 16:09:51.773437500,-59.0,3.75,27.0,78.53867187499999,-22.840000000000003,23.30434453125,35.21
2021-07-08 16:09:51.781250000,-59.0,4.0,27.0,78.5390625,-21.42,23.304144375,35.21
2021-07-08 16:09:51.789062500,-59.0,3.75,27.0,78.539453125,-19.385,23.30394421875,35.21
2021-07-08 16:09:51.796875000,-59.0,3.5,27.0,78.53984375,-17.35,23.3037440625,35.21
2021-07-08 16:09:51.804687500,-59.0,3.25,27.0,78.540234375,-14.89,23.30354390625,35.21
2021-07-08 16:09:51.812500000,-59.0,3.0,27.0,78.54062499999999,-12.43,23.30334375,35.21
2021-07-08 16:09:51.820312500,-59.0,3.25,27.0,78.541015625,-9.77,23.30314359375,35.21
2021-07-08 16:09:51.828125000,-59.0,3.5,27.0,78.54140625,-7.11,23.302943437499998,35.21
2021-07-08 16:09:51.835937500,-59.0,3.75,27.0,78.541796875,-4.475,23.30274328125,35.21
2021-07-08 16:09:51.843750000,-59.0,4.0,27.0,78.5421875,-1.84,23.302543125,35.21
2021-07-08 16:09:51.851562500,-59.0,3.75,27.0,78.54257812499999,0.5900000000000001,23.30234296875,35.21
2021-07-08 16:09:51.859375000,-59.0,3.5,27.0,78.54296875,3.02,23.3021428125,35.21
2021-07-08 16:09:51.867187500,-59.0,3.25,27.0,78.543359375,5.130000000000001,23.30194265625,35.21
2021-07-08 16:09:51.875000000,-59.0,3.0,27.0,78.54375,7.24,23.3017425,35.21
2021-07-08 16:09:51.882812500,-59.0,3.0,27.0,78.544140625,8.985,23.30154234375,35.21
2021-07-08 16:09:51.890625000,-59.0,3.0,27.0,78.54453124999999,10.73,23.301342187499998,35.21
2021-07-08 16:09:51.898437500,-59.0,3.0,27.0,78.544921875,12.085,23.30114203125,35.21
2021-07-08 16:09:51.906250000,-59.0,3.0,27.0,78.5453125,13.44,23.300941875,35.21
2021-07-08 16:09:51.914062500,-59.0,3.0,27.0,78.545703125,14.395,23.30074171875,35.21
2021-07-08 16:09:51.921875000,-59.0,3.0,27.0,78.54609375,15.35,23.3005415625,35.21
2021-07-08 16:09:51.929687500,-59.0,3.0,27.0,78.54648437499999,15.899999999999999,23.30034140625,35.21
2021-07-08 16:09:51.937500000,-59.0,3.0,27.0,78.546875,16.45,23.30014125,35.21
2021-07-08 16:09:51.945312500,-59.0,3.0,27.0,78.547265625,16.595,23.29994109375,35.21
2021-07-08 16:09:51.953125000,-59.0,3.0,27.0,78.54765625,16.74,23.299740937499998,35.21
2021-07-08 16:09:51.960937500,-59.0,3.0,27.0,78.548046875,16.5,23.29954078125,35.21
2021-07-08 16:09:51.968750000,-59.0,3.0,27.0,78.54843749999999,16.26,23.299340625,35.21
2021-07-08 16:09:51.976562500,-59.0,3.0,27.0,78.548828125,15.715,23.29914046875,35.21
2021-07-08 16:09:51.984375000,-59.0,3.0,27.0,78.54921875,15.17,23.2989403125,35.21
2021-07-08 16:09:51.992187500,-59.0,3.0,27.0,78.549609375,14.42,23.29874015625,35.21
2021-07-08 16:09:52.000000000,-59.0,3.0,27.0,78.55,13.67,23.29854,35.21
2021-07-08 16:09:52.007812500,-59.0,3.0,27.0,78.55039062499999,12.84,23.3003814375,35.2090625
2021-07-08 16:09:52.015625000,-59.0,3.0,27.0,78.55078125,12.01,23.302222875,35.208125
2021-07-08 16:09:52.023437500,-59.0,3.0,27.0,78.551171875,11.205,23.3040643125,35.2071875
2021-07-08 16:09:52.031250000,-59.0,3.0,27.0,78.5515625,10.4,23.30590575,35.20625
2021-07-08 16:09:52.039062500,-59.0,3.25,27.0,78.551953125,9.7,23.3077471875,35.2053125
2021-07-08 16:09:52.046875000,-59.0,3.5,27.0,78.55234374999999,9.0,23.309588625,35.204375
2021-07-08 16:09:52.054687500,-59.0,3.75,27.0,78.552734375,8.44,23.311430062499998,35.2034375
2021-07-08 16:09:52.062500000,-59.0,4.0,27.0,78.553125,7.88,23.3132715,35.2025
2021-07-08 16:09:52.070312500,-59.0,4.0,27.0,78.553515625,7.47,23.3151129375,35.2015625
2021-07-08 16:09:52.078125000,-59.0,4.0,27.0,78.55390625,7.06,23.316954374999998,35.200625
2021-07-08 16:09:52.085937500,-59.0,4.0,27.0,78.55429687499999,6.795,23.3187958125,35.1996875
2021-07-08 16:09:52.093750000,-59.0,4.0,27.0,78.5546875,6.53,23.320637249999997,35.198750000000004
2021-07-08 16:09:52.101562500,-59.0,4.0,27.0,78.555078125,6.385,23.3224786875,35.1978125
2021-07-08 16:09:52.109375000,-59.0,4.0,27.0,78.55546875,6.24,23.324320125,35.196875
2021-07-08 16:09:52.117187500,-59.0,4.0,27.0,78.555859375,6.175000000000001,23.326161562499998,35.1959375
2021-07-08 16:09:52.125000000,-59.0,4.0,27.0,78.55624999999999,6.11,23.328003,35.195
2021-07-08 16:09:52.132812500,-59.0,3.75,27.0,78.556640625,6.050000000000001,23.3298444375,35.1940625
2021-07-08 16:09:52.140625000,-59.0,3.5,27.0,78.55703125,5.99,23.331685874999998,35.193125
2021-07-08 16:09:52.148437500,-59.0,3.25,27.0,78.557421875,5.87,23.3335273125,35.1921875
2021-07-08 16:09:52.156250000,-59.0,3.0,27.0,78.5578125,5.75,23.33536875,35.19125
2021-07-08 16:09:52.164062500,-59.0,3.25,27.0,78.55820312499999,5.505,23.3372101875,35.1903125
2021-07-08 16:09:52.171875000,-59.0,3.5,27.0,78.55859375,5.26,23.339051625,35.189375
2021-07-08 16:09:52.179687500,-59.0,3.75,27.0,78.558984375,4.855,23.340893062499998,35.1884375
2021-07-08 16:09:52.187500000,-59.0,4.0,27.0,78.559375,4.45,23.3427345,35.1875
2021-07-08 16:09:52.195312500,-59.0,4.0,27.0,78.559765625,3.87,23.3445759375,35.1865625
2021-07-08 16:09:52.203125000,-59.0,4.0,27.0,78.56015624999999,3.29,23.346417374999998,35.185625
2021-07-08 16:09:52.210937500,-59.0,4.0,27.0,78.560546875,2.55,23.3482588125,35.1846875
2021-07-08 16:09:52.218750000,-59.0,4.0,27.0,78.5609375,1.81,23.350100249999997,35.18375
2021-07-08 16:09:52.226562500,-59.0,4.0,27.0,78.561328125,0.935,23.3519416875,35.1828125
2021-07-08 16:09:52.234375000,-59.0,4.0,27.0,78.56171875,0.06,23.353783125,35.181875
2021-07-08 16:09:52.242187500,-59.0,4.0,27.0,78.56210937499999,-0.915,23.355624562499997,35.1809375
2021-07-08 16:09:52.250000000,-59.0,4.0,27.0,78.5625,-1.89,23.357466,35.18
2021-07-08 16:09:52.257812500,-59.0,4.0,27.0,78.562890625,-2.9349999999999996,23.3573859375,35.18
2021-07-08 16:09:52.265625000,-59.0,4.0,27.0,78.56328125,-3.98,23.357305874999998,35.18
2021-07-08 16:09:52.273437500,-59.0,4.0,27.0,78.563671875,-5.03,23.357225812499998,35.18
2021-07-08 16:09:52.281250000,-59.0,4.0,27.0,78.56406249999999,-6.08,23.35714575,35.18
2021-07-08 16:09:52.289062500,-59.0,4.0,27.0,78.564453125,-7.075,23.3570656875,35.18
2021-07-08 16:09:52.296875000,-59.0,4.0,27.0,78.56484375,-8.07,23.356985625,35.18
2021-07-08 16:09:52.304687500,-59.0,4.0,27.0,78.565234375,-8.96,23.3569055625,35.18
2021-07-08 16:09:52.312500000,-59.0,4.0,27.0,78.565625,-9.85,23.3568255,35.18
2021-07-08 16:09:52.320312500,-59.0,4.0,27.0,78.56601562499999,-10.61,23.3567454375,35.18
2021-07-08 16:09:52.328125000,-59.0,4.0,27.0,78.56640625,-11.37,23.356665375,35.18
2021-07-08 16:09:52.335937500,-59.0,4.0,27.0,78.566796875,-12.015,23.3565853125,35.18
2021-07-08 16:09:52.343750000,-59.0,4.0,27.0,78.5671875,-12.66,23.356505249999998,35.18
2021-07-08 16:09:52.351562500,-59.0,3.75,27.0,78.567578125,-13.24,23.3564251875,35.18
2021-07-08 16:09:52.359375000,-59.0,3.5,27.0,78.56796874999999,-13.82,23.356345125,35.18
2021-07-08 16:09:52.367187500,-59.0,3.25,27.0,78.568359375,-14.405000000000001,23.3562650625,35.18
2021-07-08 16:09:52.375000000,-59.0,3.0,27.0,78.56875,-14.99,23.356185,35.18
2021-07-08 16:09:52.382812500,-59.0,3.25,27.0,78.569140625,-15.645,23.3561049375,35.18
2021-07-08 16:09:52.390625000,-59.0,3.5,27.0,78.56953125,-16.3,23.356024875,35.18
2021-07-08 16:09:52.398437500,-59.0,3.75,27.0,78.56992187499999,-17.085,23.3559448125,35.18
2021-07-08 16:09:52.406250000,-59.0,4.0,27.0,78.5703125,-17.87,23.355864750000002,35.18
2021-07-08 16:09:52.414062500,-59.0,4.0,27.0,78.570703125,-18.810000000000002,23.3557846875,35.18
2021-07-08 16:09:52.421875000,-59.0,4.0,27.0,78.57109375,-19.75,23.355704625,35.18
2021-07-08 16:09:52.429687500,-59.0,4.0,27.0,78.571484375,-20.814999999999998,23.3556245625,35.18
2021-07-08 16:09:52.437500000,-59.0,4.0,27.0,78.57187499999999,-21.88,23.3555445,35.18
2021-07-08 16:09:52.445312500,-59.0,4.0,27.0,78.572265625,-22.95,23.3554644375,35.18
2021-07-08 16:09:52.453125000,-59.0,4.0,27.0,78.57265625,-24.02,23.355384375,35.18
2021-07-08 16:09:52.460937500,-59.0,4.0,27.0,78.573046875,-24.915,23.3553043125,35.18
2021-07-08 16:09:52.468750000,-59.0,4.0,27.0,78.5734375,-25.81,23.35522425,35.18
2021-07-08 16:09:52.476562500,-59.0,4.0,27.0,78.57382812499999,-26.285,23.355144187500002,35.18
2021-07-08 16:09:52.484375000,-59.0,4.0,27.0,78.57421875,-26.76,23.355064125000002,35.18
2021-07-08 16:09:52.492187500,-59.0,4.0,27.0,78.574609375,-26.595,23.3549840625,35.18
2021-07-08 16:09:52.500000000,-59.0,4.0,27.0,78.57499999999999,-26.43,23.354904,35.18
2021-07-08 16:09:52.507812500,-59.0,4.0,27.0,78.575390625,-25.505,23.3542234375,35.18
2021-07-08 16:09:52.515625000,-59.0,4.0,27.0,78.57578124999999,-24.58,23.353542875000002,35.18
2021-07-08 16:09:52.523437500,-59.0,4.0,27.0,78.576171875,-22.915,23.3528623125,35.18
2021-07-08 16:09:52.531250000,-59.0,4.0,27.0,78.5765625,-21.25,23.35218175,35.18
2021-07-08 16:09:52.539062500,-59.0,4.0,27.0,78.57695312499999,-19.005000000000003,23.351501187500002,35.18
2021-07-08 16:09:52.546875000,-59.0,4.0,27.0,78.57734375,-16.76,23.350820625,35.18
2021-07-08 16:09:52.554687500,-59.0,4.0,27.0,78.57773437499999,-14.170000000000002,23.3501400625,35.18
2021-07-08 16:09:52.562500000,-59.0,4.0,27.0,78.578125,-11.58,23.349459500000002,35.18
2021-07-08 16:09:52.570312500,-59.0,4.0,27.0,78.578515625,-8.935,23.3487789375,35.18
2021-07-08 16:09:52.578125000,-59.0,4.0,27.0,78.57890624999999,-6.29,23.348098375,35.18
2021-07-08 16:09:52.585937500,-59.0,4.0,27.0,78.579296875,-3.835,23.3474178125,35.18
2021-07-08 16:09:52.593750000,-59.0,4.0,27.0,78.57968749999999,-1.38,23.34673725,35.18
2021-07-08 16:09:52.601562500,-59.0,3.75,27.0,78.580078125,0.6950000000000003,23.3460566875,35.18
2021-07-08 16:09:52.609375000,-59.0,3.5,27.0,78.58046875,2.77,23.345376125,35.18
2021-07-08 16:09:52.617187500,-59.0,3.25,27.0,78.58085937499999,4.375,23.3446955625,35.18
2021-07-08 16:09:52.625000000,-59.0,3.0,27.0,78.58125,5.98,23.344015,35.18
2021-07-08 16:09:52.632812500,-59.0,3.0,27.0,78.58164062499999,7.1000000000000005,23.3433344375,35.18
2021-07-08 16:09:52.640625000,-59.0,3.0,27.0,78.58203125,8.22,23.342653875,35.18
2021-07-08 16:09:52.648437500,-59.0,3.0,27.0,78.582421875,8.92,23.341973312500002,35.18
2021-07-08 16:09:52.656250000,-59.0,3.0,27.0,78.58281249999999,9.62,23.34129275,35.18
2021-07-08 16:09:52.664062500,-59.0,3.0,27.0,78.583203125,9.989999999999998,23.3406121875,35.18
2021-07-08 16:09:52.671875000,-59.0,3.0,27.0,78.58359374999999,10.36,23.339931625000002,35.18
2021-07-08 16:09:52.679687500,-59.0,3.0,27.0,78.583984375,10.485,23.3392510625,35.18
2021-07-08 16:09:52.687500000,-59.0,3.0,27.0,78.584375,10.61,23.3385705,35.18
2021-07-08 16:09:52.695312500,-59.25,3.0,27.0,78.58476562499999,10.53,23.3378899375,35.18
2021-07-08 16:09:52.703125000,-59.5,3.0,27.0,78.58515625,10.45,23.337209375,35.18
2021-07-08 16:09:52.710937500,-59.75,3.0,27.0,78.58554687499999,10.19,23.3365288125,35.18
2021-07-08 16:09:52.718750000,-60.0,3.0,27.0,78.5859375,9.93,23.33584825,35.18
2021-07-08 16:09:52.726562500,-59.75,3.0,27.0,78.586328125,9.49,23.3351676875,35.18
2021-07-08 16:09:52.734375000,-59.5,3.0,27.0,78.58671874999999,9.05,23.334487125,35.18
2021-07-08 16:09:52.742187500,-59.25,3.0,27.0,78.587109375,8.465,23.3338065625,35.18
2021-07-08 16:09:52.750000000,-59.0,3.0,27.0,78.58749999999999,7.88,23.333126,35.18
2021-07-08 16:09:52.757812500,-59.0,3.25,27.0,78.587890625,7.24,23.33120446875,35.18
2021-07-08 16:09:52.765625000,-59.0,3.5,27.0,78.58828125,6.6,23.3292829375,35.18
2021-07-08 16:09:52.773437500,-59.0,3.75,27.0,78.58867187499999,6.005,23.32736140625,35.18
2021-07-08 16:09:52.781250000,-59.0,4.0,27.0,78.5890625,5.41,23.325439875,35.18
2021-07-08 16:09:52.789062500,-59.25,3.75,27.0,78.58945312499999,4.96,23.32351834375,35.18
2021-07-08 16:09:52.796875000,-59.5,3.5,27.0,78.58984375,4.51,23.3215968125,35.18
2021-07-08 16:09:52.804687500,-59.75,3.25,27.0,78.590234375,4.23,23.31967528125,35.18
2021-07-08 16:09:52.812500000,-60.0,3.0,27.0,78.59062499999999,3.95,23.31775375,35.18
2021-07-08 16:09:52.820312500,-60.0,3.0,27.0,78.591015625,3.8200000000000003,23.31583221875,35.18
2021-07-08 16:09:52.828125000,-60.0,3.0,27.0,78.59140624999999,3.69,23.313910687499998,35.18
2021-07-08 16:09:52.835937500,-60.0,3.0,27.0,78.591796875,3.66,23.31198915625,35.18
2021-07-08 16:09:52.843750000,-60.0,3.0,27.0,78.5921875,3.63,23.310067625,35.18
2021-07-08 16:09:52.851562500,-59.75,3.0,27.0,78.59257812499999,3.65,23.30814609375,35.18
2021-07-08 16:09:52.859375000,-59.5,3.0,27.0,78.59296875,3.67,23.3062245625,35.18
2021-07-08 16:09:52.867187500,-59.25,3.0,27.0,78.59335937499999,3.7199999999999998,23.30430303125,35.18
2021-07-08 16:09:52.875000000,-59.0,3.0,27.0,78.59375,3.77,23.3023815,35.18
2021-07-08 16:09:52.882812500,-59.0,3.0,27.0,78.594140625,3.825,23.300459968749998,35.18
2021-07-08 16:09:52.890625000,-59.0,3.0,27.0,78.59453124999999,3.88,23.2985384375,35.18
2021-07-08 16:09:52.898437500,-59.0,3.0,27.0,78.594921875,3.895,23.296616906249998,35.18
2021-07-08 16:09:52.906250000,-59.0,3.0,27.0,78.59531249999999,3.91,23.294695375,35.18
2021-07-08 16:09:52.914062500,-59.0,3.0,27.0,78.595703125,3.8449999999999998,23.29277384375,35.18
2021-07-08 16:09:52.921875000,-59.0,3.0,27.0,78.59609375,3.78,23.2908523125,35.18
2021-07-08 16:09:52.929687500,-59.0,3.0,27.0,78.59648437499999,3.575,23.28893078125,35.18
2021-07-08 16:09:52.937500000,-59.0,3.0,27.0,78.596875,3.37,23.287009249999997,35.18
2021-07-08 16:09:52.945312500,-59.0,3.0,27.0,78.59726562499999,3.0,23.28508771875,35.18
2021-07-08 16:09:52.953125000,-59.0,3.0,27.0,78.59765625,2.63,23.283166187499997,35.18
2021-07-08 16:09:52.960937500,-59.0,3.0,27.0,78.598046875,2.11,23.28124465625,35.18
2021-07-08 16:09:52.968750000,-59.0,3.0,27.0,78.59843749999999,1.59,23.279323124999998,35.18
2021-07-08 16:09:52.976562500,-59.0,3.0,27.0,78.598828125,0.97,23.27740159375,35.18
2021-07-08 16:09:52.984375000,-59.0,3.0,27.0,78.59921874999999,0.35,23.275480062499998,35.18
2021-07-08 16:09:52.992187500,-59.0,3.0,27.0,78.599609375,-0.32999999999999996,23.27355853125,35.18
2021-07-08 16:09:53.000000000,-59.0,3.0,27.0,78.6,-1.01,23.271637,35.18
2021-07-08 16:09:53.007812500,-59.0,3.25,27.0,78.60054687499999,-1.7400000000000002,23.272037375,35.1809375
2021-07-08 16:09:53.015625000,-59.0,3.5,27.0,78.60109374999999,-2.47,23.272437749999998,35.181875
2021-07-08 16:09:53.023437500,-59.0,3.75,27.0,78.60164062499999,-3.245,23.272838125,35.1828125
2021-07-08 16:09:53.031250000,-59.0,4.0,27.0,78.6021875,-4.02,23.273238499999998,35.18375
2021-07-08 16:09:53.039062500,-59.0,3.75,27.0,78.602734375,-4.82,23.273638875,35.1846875
2021-07-08 16:09:53.046875000,-59.0,3.5,27.0,78.60328125,-5.62,23.274039249999998,35.185625
2021-07-08 16:09:53.054687500,-59.0,3.25,27.0,78.60382812499999,-6.405,23.274439625,35.1865625
2021-07-08 16:09:53.062500000,-59.0,3.0,27.0,78.60437499999999,-7.19,23.274839999999998,35.1875
2021-07-08 16:09:53.070312500,-59.25,3.0,26.75,78.60492187499999,-7.904999999999999,23.275240375,35.1884375
2021-07-08 16:09:53.078125000,-59.5,3.0,26.5,78.60546875,-8.62,23.275640749999997,35.189375
2021-07-08 16:09:53.085937500,-59.75,3.0,26.25,78.606015625,-9.225,23.276041125,35.1903125
2021-07-08 16:09:53.093750000,-60.0,3.0,26.0,78.6065625,-9.83,23.276441499999997,35.19125
2021-07-08 16:09:53.101562500,-60.0,3.0,26.25,78.607109375,-10.33,23.276841875,35.1921875
2021-07-08 16:09:53.109375000,-60.0,3.0,26.5,78.60765624999999,-10.83,23.277242249999997,35.193125
2021-07-08 16:09:53.117187500,-60.0,3.0,26.75,78.60820312499999,-11.295,23.277642625,35.1940625
2021-07-08 16:09:53.125000000,-60.0,3.0,27.0,78.60875,-11.76,23.278042999999997,35.195
2021-07-08 16:09:53.132812500,-59.75,3.0,27.0,78.609296875,-12.27,23.278443375,35.1959375
2021-07-08 16:09:53.140625000,-59.5,3.0,27.0,78.60984375,-12.78,23.27884375,35.196875
2021-07-08 16:09:53.148437500,-59.25,3.0,27.0,78.610390625,-13.41,23.279244124999998,35.1978125
2021-07-08 16:09:53.156250000,-59.0,3.0,27.0,78.61093749999999,-14.04,23.2796445,35.198750000000004
2021-07-08 16:09:53.164062500,-59.0,3.0,27.0,78.61148437499999,-14.805,23.280044874999998,35.1996875
2021-07-08 16:09:53.171875000,-59.0,3.0,27.0,78.61203125,-15.57,23.28044525,35.200625
2021-07-08 16:09:53.179687500,-59.0,3.0,27.0,78.612578125,-16.415,23.280845624999998,35.2015625
2021-07-08 16:09:53.187500000,-59.0,3.0,27.0,78.613125,-17.26,23.281246,35.2025
2021-07-08 16:09:53.195312500,-59.25,3.0,27.0,78.613671875,-18.065,23.281646374999998,35.2034375
2021-07-08 16:09:53.203125000,-59.5,3.0,27.0,78.61421874999999,-18.87,23.28204675,35.204375
2021-07-08 16:09:53.210937500,-59.75,3.0,27.0,78.61476562499999,-19.495,23.282447124999997,35.2053125
2021-07-08 16:09:53.218750000,-60.0,3.0,27.0,78.6153125,-20.12,23.2828475,35.20625
2021-07-08 16:09:53.226562500,-59.75,3.0,27.0,78.615859375,-20.395000000000003,23.283247874999997,35.2071875
2021-07-08 16:09:53.234375000,-59.5,3.0,27.0,78.61640625,-20.67,23.28364825,35.208125
2021-07-08 16:09:53.242187500,-59.25,3.0,27.0,78.616953125,-20.47,23.284048624999997,35.2090625
2021-07-08 16:09:53.250000000,-59.0,3.0,27.0,78.61749999999999,-20.27,23.284449,35.21
2021-07-08 16:09:53.257812500,-59.0,3.0,27.0,78.61804687499999,-19.52,23.28272759375,35.21
2021-07-08 16:09:53.265625000,-59.0,3.0,27.0,78.61859375,-18.77,23.281006187499997,35.21
2021-07-08 16:09:53.273437500,-59.0,3.0,27.0,78.619140625,-17.445,23.27928478125,35.21
2021-07-08 16:09:53.281250000,-59.0,3.0,27.0,78.6196875,-16.12,23.277563375,35.21
2021-07-08 16:09:53.289062500,-59.0,3.0,27.0,78.620234375,-14.285,23.275841968749997,35.21
2021-07-08 16:09:53.296875000,-59.0,3.0,27.0,78.62078125,-12.45,23.2741205625,35.21
2021-07-08 16:09:53.304687500,-59.0,3.0,27.0,78.62132812499999,-10.235,23.27239915625,35.21
2021-07-08 16:09:53.312500000,-59.0,3.0,27.0,78.621875,-8.02,23.270677749999997,35.21
2021-07-08 16:09:53.320312500,-59.25,3.0,27.0,78.622421875,-5.595,23.26895634375,35.21
2021-07-08 16:09:53.328125000,-59.5,3.0,27.0,78.62296875,-3.17,23.2672349375,35.21
2021-07-08 16:09:53.335937500,-59.75,3.0,27.0,78.623515625,-0.71,23.26551353125,35.21
2021-07-08 16:09:53.343750000,-60.0,3.0,27.0,78.6240625,1.75,23.263792125,35.21
2021-07-08 16:09:53.351562500,-59.75,3.25,27.0,78.62460937499999,4.09,23.26207071875,35.21
2021-07-08 16:09:53.359375000,-59.5,3.5,27.0,78.62515625,6.43,23.2603493125,35.21
2021-07-08 16:09:53.367187500,-59.25,3.75,27.0,78.625703125,8.535,23.25862790625,35.21
2021-07-08 16:09:53.375000000,-59.0,4.0,27.0,78.62625,10.64,23.2569065,35.21
2021-07-08 16:09:53.382812500,-59.0,3.75,27.0,78.626796875,12.440000000000001,23.25518509375,35.21
2021-07-08 16:09:53.390625000,-59.0,3.5,27.0,78.62734375,14.24,23.2534636875,35.21
2021-07-08 16:09:53.398437500,-59.0,3.25,27.0,78.62789062499999,15.684999999999999,23.25174228125,35.21
2021-07-08 16:09:53.406250000,-59.0,3.0,27.0,78.6284375,17.13,23.250020875,35.21
2021-07-08 16:09:53.414062500,-59.0,3.0,27.0,78.628984375,18.205,23.248299468749998,35.21
2021-07-08 16:09:53.421875000,-59.0,3.0,27.0,78.62953125,19.28,23.2465780625,35.21
2021-07-08 16:09:53.429687500,-59.0,3.0,27.0,78.630078125,19.97,23.24485665625,35.21
2021-07-08 16:09:53.437500000,-59.0,3.0,27.0,78.630625,20.66,23.24313525,35.21
2021-07-08 16:09:53.445312500,-59.0,3.0,27.0,78.63117187499999,20.965,23.24141384375,35.21
2021-07-08 16:09:53.453125000,-59.0,3.0,27.0,78.63171875,21.27,23.2396924375,35.21
2021-07-08 16:09:53.460937500,-59.0,3.0,27.0,78.632265625,21.2,23.23797103125,35.21
2021-07-08 16:09:53.468750000,-59.0,3.0,27.0,78.6328125,21.13,23.236249625,35.21
2021-07-08 16:09:53.476562500,-59.25,3.0,27.0,78.633359375,20.744999999999997,23.23452821875,35.21
2021-07-08 16:09:53.484375000,-59.5,3.0,27.0,78.63390625,20.36,23.2328068125,35.21
2021-07-08 16:09:53.492187500,-59.75,3.0,27.0,78.634453125,19.75,23.23108540625,35.21
2021-07-08 16:09:53.500000000,-60.0,3.0,27.0,78.63499999999999,19.14,23.229364,35.21
2021-07-08 16:09:53.507812500,-59.75,3.0,27.0,78.635546875,18.439999999999998,23.229524125,35.21
2021-07-08 16:09:53.515625000,-59.5,3.0,27.0,78.63609375,17.74,23.229684250000002,35.21
2021-07-08 16:09:53.523437500,-59.25,3.0,27.0,78.636640625,17.085,23.229844375,35.21
2021-07-08 16:09:53.531250000,-59.0,3.0,27.0,78.6371875,16.43,23.2300045,35.21
2021-07-08 16:09:53.539062500,-59.25,3.25,27.0,78.637734375,15.925,23.230164625,35.21
2021-07-08 16:09:53.546875000,-59.5,3.5,27.0,78.63828124999999,15.42,23.23032475,35.21
2021-07-08 16:09:53.554687500,-59.75,3.75,27.0,78.638828125,15.120000000000001,23.230484875,35.21
2021-07-08 16:09:53.562500000,-60.0,4.0,27.0,78.639375,14.82,23.230645,35.21
2021-07-08 16:09:53.570312500,-60.0,3.75,27.0,78.639921875,14.719999999999999,23.230805125,35.21
2021-07-08 16:09:53.578125000,-60.0,3.5,27.0,78.64046875,14.62,23.23096525,35.21
2021-07-08 16:09:53.585937500,-60.0,3.25,27.0,78.641015625,14.675,23.231125375,35.21
2021-07-08 16:09:53.593750000,-60.0,3.0,27.0,78.64156249999999,14.73,23.2312855,35.21
2021-07-08 16:09:53.601562500,-59.75,3.0,27.0,78.642109375,14.885,23.231445625,35.21
2021-07-08 16:09:53.609375000,-59.5,3.0,27.0,78.64265625,15.04,23.23160575,35.21
2021-07-08 16:09:53.617187500,-59.25,3.0,27.0,78.643203125,15.239999999999998,23.231765875,35.21
2021-07-08 16:09:53.625000000,-59.0,3.0,27.0,78.64375,15.44,23.231926,35.21
2021-07-08 16:09:53.632812500,-59.0,3.0,27.0,78.644296875,15.645,23.232086125,35.21
2021-07-08 16:09:53.640625000,-59.0,3.0,27.0,78.64484374999999,15.85,23.23224625,35.21
2021-07-08 16:09:53.648437500,-59.0,3.0,27.0,78.645390625,16.02,23.232406375,35.21
2021-07-08 16:09:53.656250000,-59.0,3.0,27.0,78.6459375,16.19,23.2325665,35.21
2021-07-08 16:09:53.664062500,-59.0,3.0,26.75,78.646484375,16.3,23.232726624999998,35.21
2021-07-08 16:09:53.671875000,-59.0,3.0,26.5,78.64703125,16.41,23.23288675,35.21
2021-07-08 16:09:53.679687500,-59.0,3.0,26.25,78.647578125,16.41,23.233046875,35.21
2021-07-08 16:09:53.687500000,-59.0,3.0,26.0,78.648125,16.41,23.233207,35.21
2021-07-08 16:09:53.695312500,-59.0,3.0,26.25,78.648671875,16.259999999999998,23.233367125,35.21
2021-07-08 16:09:53.703125000,-59.0,3.0,26.5,78.64921875,16.11,23.233527249999998,35.21
2021-07-08 16:09:53.710937500,-59.0,3.0,26.75,78.649765625,15.77,23.233687375,35.21
2021-07-08 16:09:53.718750000,-59.0,3.0,27.0,78.6503125,15.43,23.2338475,35.21
2021-07-08 16:09:53.726562500,-59.0,3.0,27.0,78.650859375,14.870000000000001,23.234007625,35.21
2021-07-08 16:09:53.734375000,-59.0,3.0,27.0,78.65140625,14.31,23.234167749999997,35.21
2021-07-08 16:09:53.742187500,-59.0,3.0,27.0,78.651953125,13.530000000000001,23.234327874999998,35.21
2021-07-08 16:09:53.750000000,-59.0,3.0,27.0,78.6525,12.75,23.234488,35.21
2021-07-08 16:09:53.757812500,-59.0,3.0,27.0,78.653046875,11.77,23.23528865625,35.21
2021-07-08 16:09:53.765625000,-59.0,3.0,27.0,78.65359375,10.79,23.2360893125,35.21
2021-07-08 16:09:53.773437500,-59.0,3.0,27.0,78.654140625,9.675,23.23688996875,35.21
2021-07-08 16:09:53.781250000,-59.0,3.0,27.0,78.6546875,8.56,23.237690625,35.21
2021-07-08 16:09:53.789062500,-59.0,3.0,27.0,78.655234375,7.380000000000001,23.23849128125,35.21
2021-07-08 16:09:53.796875000,-59.0,3.0,27.0,78.65578125,6.2,23.2392919375,35.21
2021-07-08 16:09:53.804687500,-59.0,3.0,27.0,78.656328125,5.05,23.24009259375,35.21
2021-07-08 16:09:53.812500000,-59.0,3.0,27.0,78.656875,3.9,23.24089325,35.21
2021-07-08 16:09:53.820312500,-59.0,3.0,27.0,78.657421875,2.84,23.24169390625,35.21
2021-07-08 16:09:53.828125000,-59.0,3.0,27.0,78.65796875,1.78,23.2424945625,35.21
2021-07-08 16:09:53.835937500,-59.0,3.0,27.0,78.658515625,0.84,23.24329521875,35.21
2021-07-08 16:09:53.843750000,-59.0,3.0,27.0,78.6590625,-0.1,23.244095875,35.21
2021-07-08 16:09:53.851562500,-59.0,3.0,27.0,78.659609375,-0.945,23.24489653125,35.21
2021-07-08 16:09:53.859375000,-59.0,3.0,27.0,78.66015625,-1.79,23.2456971875,35.21
2021-07-08 16:09:53.867187500,-59.0,3.0,27.0,78.660703125,-2.605,23.24649784375,35.21
2021-07-08 16:09:53.875000000,-59.0,3.0,27.0,78.66125,-3.42,23.2472985,35.21
2021-07-08 16:09:53.882812500,-59.0,3.0,27.0,78.66179687500001,-4.3100000000000005,23.24809915625,35.21
2021-07-08 16:09:53.890625000,-59.0,3.0,27.0,78.66234375,-5.2,23.2488998125,35.21
2021-07-08 16:09:53.898437500,-59.0,3.0,27.0,78.662890625,-6.285,23.24970046875,35.21
2021-07-08 16:09:53.906250000,-59.0,3.0,27.0,78.6634375,-7.37,23.250501125,35.21
2021-07-08 16:09:53.914062500,-59.0,3.0,27.0,78.663984375,-8.695,23.25130178125,35.21
2021-07-08 16:09:53.921875000,-59.0,3.0,27.0,78.66453125,-10.02,23.2521024375,35.21
2021-07-08 16:09:53.929687500,-59.0,3.0,27.0,78.66507812500001,-11.54,23.25290309375,35.21
2021-07-08 16:09:53.937500000,-59.0,3.0,27.0,78.665625,-13.06,23.25370375,35.21
2021-07-08 16:09:53.945312500,-59.0,3.0,27.0,78.666171875,-14.600000000000001,23.25450440625,35.21
2021-07-08 16:09:53.953125000,-59.0,3.0,27.0,78.66671875,-16.14,23.2553050625,35.21
2021-07-08 16:09:53.960937500,-59.0,3.0,27.0,78.667265625,-17.445,23.25610571875,35.21
2021-07-08 16:09:53.968750000,-59.0,3.0,27.0,78.6678125,-18.75,23.256906375,35.21
2021-07-08 16:09:53.976562500,-59.0,3.0,27.0,78.66835937500001,-19.52,23.25770703125,35.21
2021-07-08 16:09:53.984375000,-59.0,3.0,27.0,78.66890625,-20.29,23.2585076875,35.21
2021-07-08 16:09:53.992187500,-59.0,3.0,27.0,78.669453125,-20.31,23.25930834375,35.21
2021-07-08 16:09:54.000000000,-59.0,3.0,27.0,78.67,-20.33,23.260109,35.21
2021-07-08 16:09:54.007812500,-59.25,3.0,27.0,78.67078125,-19.5,23.26062940625,35.21
2021-07-08 16:09:54.015625000,-59.5,3.0,27.0,78.67156250000001,-18.67,23.2611498125,35.21
2021-07-08 16:09:54.023437500,-59.75,3.0,27.0,78.67234375,-17.05,23.26167021875,35.21
2021-07-08 16:09:54.031250000,-60.0,3.0,27.0,78.673125,-15.43,23.262190625,35.21
2021-07-08 16:09:54.039062500,-59.75,3.0,27.0,78.67390625,-13.2,23.26271103125,35.21
2021-07-08 16:09:54.046875000,-59.5,3.0,27.0,78.6746875,-10.97,23.2632314375,35.21
2021-07-08 16:09:54.054687500,-59.25,3.0,27.0,78.67546875000001,-8.385,23.26375184375,35.21
2021-07-08 16:09:54.062500000,-59.0,3.0,27.0,78.67625,-5.8,23.26427225,35.21
2021-07-08 16:09:54.070312500,-59.0,3.0,27.0,78.67703125,-3.15,23.264792656250002,35.21
2021-07-08 16:09:54.078125000,-59.0,3.0,27.0,78.6778125,-0.5,23.2653130625,35.21
2021-07-08 16:09:54.085937500,-59.0,3.0,27.0,78.67859375,1.9700000000000002,23.26583346875,35.21
2021-07-08 16:09:54.093750000,-59.0,3.0,27.0,78.67937500000001,4.44,23.266353875,35.21
2021-07-08 16:09:54.101562500,-59.25,3.0,27.0,78.68015625,6.525,23.26687428125,35.21
2021-07-08 16:09:54.109375000,-59.5,3.0,27.0,78.6809375,8.61,23.2673946875,35.21
2021-07-08 16:09:54.117187500,-59.75,3.0,27.0,78.68171875,10.2,23.267915093750002,35.21
2021-07-08 16:09:54.125000000,-60.0,3.0,27.0,78.6825,11.79,23.268435500000002,35.21
2021-07-08 16:09:54.132812500,-60.0,3.0,27.0,78.68328125000001,12.86,23.26895590625,35.21
2021-07-08 16:09:54.140625000,-60.0,3.0,27.0,78.6840625,13.93,23.2694763125,35.21
2021-07-08 16:09:54.148437500,-60.0,3.0,27.0,78.68484375,14.54,23.26999671875,35.21
2021-07-08 16:09:54.156250000,-60.0,3.0,27.0,78.685625,15.15,23.270517125,35.21
2021-07-08 16:09:54.164062500,-60.0,3.0,27.0,78.68640625,15.39,23.271037531250002,35.21
2021-07-08 16:09:54.171875000,-60.0,3.0,27.0,78.68718750000001,15.63,23.271557937500003,35.21
2021-07-08 16:09:54.179687500,-60.0,3.0,27.0,78.68796875,15.585,23.27207834375,35.21
2021-07-08 16:09:54.187500000,-60.0,3.0,27.0,78.68875,15.54,23.27259875,35.21
2021-07-08 16:09:54.195312500,-60.0,3.0,27.0,78.68953125,15.29,23.27311915625,35.21
2021-07-08 16:09:54.203125000,-60.0,3.0,27.0,78.6903125,15.04,23.2736395625,35.21
2021-07-08 16:09:54.210937500,-60.0,3.0,27.0,78.69109375000001,14.605,23.274159968750002,35.21
2021-07-08 16:09:54.218750000,-60.0,3.0,27.0,78.691875,14.17,23.274680375000003,35.21
2021-07-08 16:09:54.226562500,-59.75,3.0,27.0,78.69265625,13.59,23.27520078125,35.21
2021-07-08 16:09:54.234375000,-59.5,3.0,27.0,78.6934375,13.01,23.2757211875,35.21
2021-07-08 16:09:54.242187500,-59.25,3.0,27.0,78.69421875,12.33,23.27624159375,35.21
2021-07-08 16:09:54.250000000,-59.0,3.0,27.0,78.695,11.65,23.276762,35.21
2021-07-08 16:09:54.257812500,-59.0,3.0,27.0,78.69578125,10.91,23.27580121875,35.21
2021-07-08 16:09:54.265625000,-59.0,3.0,27.0,78.6965625,10.17,23.2748404375,35.21
2021-07-08 16:09:54.273437500,-59.0,3.0,27.0,78.69734375,9.440000000000001,23.273879656250003,35.21
2021-07-08 16:09:54.281250000,-59.0,3.0,27.0,78.698125,8.71,23.272918875000002,35.21
2021-07-08 16:09:54.289062500,-59.0,3.25,27.0,78.69890625,8.025,23.27195809375,35.21
2021-07-08 16:09:54.296875000,-59.0,3.5,27.0,78.6996875,7.34,23.2709973125,35.21
2021-07-08 16:09:54.304687500,-59.0,3.75,27.0,78.70046875,6.74,23.27003653125,35.21
2021-07-08 16:09:54.312500000,-59.0,4.0,27.0,78.70125,6.14,23.26907575,35.21
2021-07-08 16:09:54.320312500,-59.25,3.75,27.0,78.70203125,5.64,23.26811496875,35.21
2021-07-08 16:09:54.328125000,-59.5,3.5,27.0,78.7028125,5.14,23.2671541875,35.21
2021-07-08 16:09:54.335937500,-59.75,3.25,27.0,78.70359375,4.76,23.26619340625,35.21
2021-07-08 16:09:54.343750000,-60.0,3.0,27.0,78.704375,4.38,23.265232625,35.21
2021-07-08 16:09:54.351562500,-59.75,3.0,27.0,78.70515625,4.115,23.26427184375,35.21
2021-07-08 16:09:54.359375000,-59.5,3.0,27.0,78.7059375,3.85,23.2633110625,35.21
2021-07-08 16:09:54.367187500,-59.25,3.0,27.0,78.70671875,3.6799999999999997,23.26235028125,35.21
2021-07-08 16:09:54.375000000,-59.0,3.0,27.0,78.7075,3.51,23.2613895,35.21
2021-07-08 16:09:54.382812500,-59.0,3.0,27.0,78.70828125,3.385,23.26042871875,35.21
2021-07-08 16:09:54.390625000,-59.0,3.0,27.0,78.7090625,3.26,23.2594679375,35.21
2021-07-08 16:09:54.398437500,-59.0,3.0,27.0,78.70984375,3.125,23.25850715625,35.21
2021-07-08 16:09:54.406250000,-59.0,3.0,27.0,78.710625,2.99,23.257546375,35.21
2021-07-08 16:09:54.414062500,-59.0,3.0,27.0,78.71140625,2.79,23.25658559375,35.21
2021-07-08 16:09:54.421875000,-59.0,3.0,27.0,78.7121875,2.59,23.2556248125,35.21
2021-07-08 16:09:54.429687500,-59.0,3.0,27.0,78.71296875,2.275,23.254664031249998,35.21
2021-07-08 16:09:54.437500000,-59.0,3.0,27.0,78.71375,1.96,23.25370325,35.21
2021-07-08 16:09:54.445312500,-59.0,3.0,27.0,78.71453125,1.49,23.25274246875,35.21
2021-07-08 16:09:54.453125000,-59.0,3.0,27.0,78.7153125,1.02,23.2517816875,35.21
2021-07-08 16:09:54.460937500,-59.0,3.0,27.0,78.71609375,0.37,23.25082090625,35.21
2021-07-08 16:09:54.468750000,-59.0,3.0,27.0,78.716875,-0.28,23.249860124999998,35.21
2021-07-08 16:09:54.476562500,-59.0,3.25,27.0,78.71765625,-1.135,23.248899343749997,35.21
2021-07-08 16:09:54.484375000,-59.0,3.5,27.0,78.7184375,-1.99,23.2479385625,35.21
2021-07-08 16:09:54.492187500,-59.0,3.75,27.0,78.71921875,-3.0549999999999997,23.24697778125,35.21
2021-07-08 16:09:54.500000000,-59.0,4.0,27.0,78.72,-4.12,23.246017,35.21
2021-07-08 16:09:54.507812500,-59.0,4.0,27.0,78.72078125,-5.345000000000001,23.246777625,35.21
2021-07-08 16:09:54.515625000,-59.0,4.0,27.0,78.7215625,-6.57,23.247538249999998,35.21
2021-07-08 16:09:54.523437500,-59.0,4.0,27.0,78.72234375,-7.855,23.248298875,35.21
2021-07-08 16:09:54.531250000,-59.0,4.0,27.0,78.723125,-9.14,23.249059499999998,35.21
2021-07-08 16:09:54.539062500,-59.0,3.75,27.0,78.72390625,-10.365,23.249820125,35.21
2021-07-08 16:09:54.546875000,-59.0,3.5,27.0,78.7246875,-11.59,23.250580749999997,35.21
2021-07-08 16:09:54.554687500,-59.0,3.25,27.0,78.72546875,-12.635,23.251341375,35.21
2021-07-08 16:09:54.562500000,-59.0,3.0,27.0,78.72625,-13.68,23.252102,35.21
2021-07-08 16:09:54.570312500,-59.0,3.0,27.0,78.72703125,-14.49,23.252862625,35.21
2021-07-08 16:09:54.578125000,-59.0,3.0,27.0,78.7278125,-15.3,23.25362325,35.21
2021-07-08 16:09:54.585937500,-59.0,3.0,27.0,78.72859375,-15.905000000000001,23.254383875,35.21
2021-07-08 16:09:54.593750000,-59.0,3.0,27.0,78.729375,-16.51,23.2551445,35.21
2021-07-08 16:09:54.601562500,-59.0,3.25,27.0,78.73015625,-17.0,23.255905124999998,35.21
2021-07-08 16:09:54.609375000,-59.0,3.5,27.0,78.7309375,-17.49,23.25666575,35.21
2021-07-08 16:09:54.617187500,-59.0,3.75,27.0,78.73171875,-17.985,23.257426374999998,35.21
2021-07-08 16:09:54.625000000,-59.0,4.0,27.0,78.7325,-18.48,23.258187,35.21
2021-07-08 16:09:54.632812500,-59.0,3.75,27.0,78.73328125,-19.085,23.258947625,35.21
2021-07-08 16:09:54.640625000,-59.0,3.5,27.0,78.7340625,-19.69,23.25970825,35.21
2021-07-08 16:09:54.648437500,-59.0,3.25,27.0,78.73484375,-20.450000000000003,23.260468875,35.21
2021-07-08 16:09:54.656250000,-59.0,3.0,27.0,78.735625,-21.21,23.2612295,35.21
2021-07-08 16:09:54.664062500,-59.0,3.25,27.0,78.73640625,-22.125,23.261990125,35.21
2021-07-08 16:09:54.671875000,-59.0,3.5,27.0,78.7371875,-23.04,23.26275075,35.21
2021-07-08 16:09:54.679687500,-59.0,3.75,27.0,78.73796875,-24.049999999999997,23.263511375,35.21
2021-07-08 16:09:54.687500000,-59.0,4.0,27.0,78.73875,-25.06,23.264272,35.21
2021-07-08 16:09:54.695312500,-59.0,4.0,27.0,78.73953125,-26.055,23.265032625,35.21
2021-07-08 16:09:54.703125000,-59.0,4.0,27.0,78.7403125,-27.05,23.26579325,35.21
2021-07-08 16:09:54.710937500,-59.0,4.0,27.0,78.74109375,-27.87,23.266553875,35.21
2021-07-08 16:09:54.718750000,-59.0,4.0,27.0,78.741875,-28.69,23.2673145,35.21
2021-07-08 16:09:54.726562500,-59.0,4.0,27.0,78.74265625,-29.125,23.268075125,35.21
2021-07-08 16:09:54.734375000,-59.0,4.0,27.0,78.7434375,-29.56,23.26883575,35.21
2021-07-08 16:09:54.742187500,-59.0,4.0,27.0,78.74421875,-29.395,23.269596375,35.21
2021-07-08 16:09:54.750000000,-59.0,4.0,27.0,78.745,-29.23,23.270357,35.21
2021-07-08 16:09:54.757812500,-59.0,3.75,27.0,78.74578125,-28.3,23.27119765625,35.21
2021-07-08 16:09:54.765625000,-59.0,3.5,27.0,78.7465625,-27.37,23.2720383125,35.21
2021-07-08 16:09:54.773437500,-59.0,3.25,27.0,78.74734375,-25.605,23.27287896875,35.21
2021-07-08 16:09:54.781250000,-59.0,3.0,27.0,78.748125,-23.84,23.273719625000002,35.21
2021-07-08 16:09:54.789062500,-59.0,3.25,27.0,78.74890624999999,-21.33,23.27456028125,35.21
2021-07-08 16:09:54.796875000,-59.0,3.5,27.0,78.7496875,-18.82,23.2754009375,35.21
2021-07-08 16:09:54.804687500,-59.0,3.75,27.0,78.75046875,-15.77,23.27624159375,35.21
2021-07-08 16:09:54.812500000,-59.0,4.0,27.0,78.75125,-12.72,23.27708225,35.21
2021-07-08 16:09:54.820312500,-59.0,4.0,27.0,78.75203125,-9.440000000000001,23.27792290625,35.21
2021-07-08 16:09:54.828125000,-59.0,4.0,27.0,78.75281249999999,-6.16,23.2787635625,35.21
2021-07-08 16:09:54.835937500,-59.0,4.0,27.0,78.75359375,-2.97,23.27960421875,35.21
2021-07-08 16:09:54.843750000,-59.0,4.0,27.0,78.754375,0.22,23.280444875,35.21
2021-07-08 16:09:54.851562500,-59.0,4.0,27.0,78.75515625,3.055,23.28128553125,35.21
2021-07-08 16:09:54.859375000,-59.0,4.0,27.0,78.7559375,5.89,23.2821261875,35.21
2021-07-08 16:09:54.867187500,-59.0,4.0,27.0,78.75671874999999,8.24,23.28296684375,35.21
2021-07-08 16:09:54.875000000,-59.0,4.0,27.0,78.7575,10.59,23.2838075,35.21
2021-07-08 16:09:54.882812500,-59.0,4.0,27.0,78.75828125,12.39,23.28464815625,35.21
2021-07-08 16:09:54.890625000,-59.0,4.0,27.0,78.7590625,14.19,23.2854888125,35.21
2021-07-08 16:09:54.898437500,-59.0,4.0,27.0,78.75984375,15.48,23.28632946875,35.21
2021-07-08 16:09:54.906250000,-59.0,4.0,27.0,78.76062499999999,16.77,23.287170125,35.21
2021-07-08 16:09:54.914062500,-59.0,4.0,27.0,78.76140625,17.61,23.28801078125,35.21
2021-07-08 16:09:54.921875000,-59.0,4.0,27.0,78.7621875,18.45,23.2888514375,35.21
2021-07-08 16:09:54.929687500,-59.0,4.0,27.0,78.76296875,18.905,23.28969209375,35.21
2021-07-08 16:09:54.937500000,-59.0,4.0,27.0,78.76375,19.36,23.29053275,35.21
2021-07-08 16:09:54.945312500,-59.0,4.0,27.0,78.76453124999999,19.455,23.29137340625,35.21
2021-07-08 16:09:54.953125000,-59.0,4.0,27.0,78.7653125,19.55,23.2922140625,35.21
2021-07-08 16:09:54.960937500,-59.0,4.0,27.0,78.76609375,19.314999999999998,23.29305471875,35.21
2021-07-08 16:09:54.968750000,-59.0,4.0,27.0,78.766875,19.08,23.293895374999998,35.21
2021-07-08 16:09:54.976562500,-59.0,4.0,27.0,78.76765625,18.549999999999997,23.29473603125,35.21
2021-07-08 16:09:54.984375000,-59.0,4.0,27.0,78.76843749999999,18.02,23.2955766875,35.21
2021-07-08 16:09:54.992187500,-59.0,4.0,27.0,78.76921875,17.259999999999998,23.29641734375,35.21
2021-07-08 16:09:55.000000000,-59.0,4.0,27.0,78.77,16.5,23.297258,35.21
2021-07-08 16:09:55.007812500,-59.0,4.0,27.0,78.77101562499999,15.61,23.29673759375,35.21
2021-07-08 16:09:55.015625000,-59.0,4.0,27.0,78.77203125,14.72,23.296217187499998,35.21
2021-07-08 16:09:55.023437500,-59.0,4.0,27.0,78.77304687499999,13.81,23.29569678125,35.21
2021-07-08 16:09:55.031250000,-59.0,4.0,27.0,78.7740625,12.9,23.295176375,35.21
2021-07-08 16:09:55.039062500,-59.25,4.0,27.0,78.775078125,12.065000000000001,23.29465596875,35.21
2021-07-08 16:09:55.046875000,-59.5,4.0,27.0,78.77609375,11.23,23.2941355625,35.21
2021-07-08 16:09:55.054687500,-59.75,4.0,27.0,78.777109375,10.555,23.29361515625,35.21
2021-07-08 16:09:55.062500000,-60.0,4.0,27.0,78.778125,9.88,23.29309475,35.21
2021-07-08 16:09:55.070312500,-60.5,4.25,27.5,78.779140625,9.41,23.29257434375,35.21
2021-07-08 16:09:55.078125000,-61.0,4.5,28.0,78.78015624999999,8.94,23.2920539375,35.21
2021-07-08 16:09:55.085937500,-61.5,4.75,28.5,78.781171875,8.68,23.29153353125,35.21
2021-07-08 16:09:55.093750000,-62.0,5.0,29.0,78.78218749999999,8.42,23.291013125,35.21
2021-07-08 16:09:55.101562500,-60.5,5.0,28.75,78.783203125,8.33,23.29049271875,35.21
2021-07-08 16:09:55.109375000,-59.0,5.0,28.5,78.78421875,8.24,23.2899723125,35.21
2021-07-08 16:09:55.117187500,-57.5,5.0,28.25,78.785234375,8.25,23.28945190625,35.21
2021-07-08 16:09:55.125000000,-56.0,5.0,28.0,78.78625,8.26,23.2889315,35.21
2021-07-08 16:09:55.132812500,-56.0,5.25,27.0,78.787265625,8.27,23.28841109375,35.21
2021-07-08 16:09:55.140625000,-56.0,5.5,26.0,78.78828125,8.28,23.2878906875,35.21
2021-07-08 16:09:55.148437500,-56.0,5.75,25.0,78.78929687499999,8.195,23.287370281250002,35.21
2021-07-08 16:09:55.156250000,-56.0,6.0,24.0,78.7903125,8.11,23.286849875,35.21
2021-07-08 16:09:55.164062500,-57.25,6.0,24.25,78.79132812499999,7.85,23.28632946875,35.21
2021-07-08 16:09:55.171875000,-58.5,6.0,24.5,78.79234375,7.59,23.2858090625,35.21
2021-07-08 16:09:55.179687500,-59.75,6.0,24.75,78.793359375,7.13,23.28528865625,35.21
2021-07-08 16:09:55.187500000,-61.0,6.0,25.0,78.794375,6.67,23.28476825,35.21
2021-07-08 16:09:55.195312500,-60.75,5.0,25.75,78.795390625,6.035,23.284247843750002,35.21
2021-07-08 16:09:55.203125000,-60.5,4.0,26.5,78.79640625,5.4,23.2837274375,35.21
2021-07-08 16:09:55.210937500,-60.25,3.0,27.25,78.797421875,4.65,23.28320703125,35.21
2021-07-08 16:09:55.218750000,-60.0,2.0,28.0,78.79843749999999,3.9,23.282686625,35.21
2021-07-08 16:09:55.226562500,-59.0,1.75,28.5,78.799453125,3.085,23.28216621875,35.21
2021-07-08 16:09:55.234375000,-58.0,1.5,29.0,78.80046875,2.27,23.281645812500003,35.21
2021-07-08 16:09:55.242187500,-57.0,1.25,29.5,78.801484375,1.415,23.281125406250002,35.21
2021-07-08 16:09:55.250000000,-56.0,1.0,30.0,78.8025,0.56,23.280605,35.21
2021-07-08 16:09:55.257812500,-57.25,1.0,29.75,78.803515625,-0.345,23.28008459375,35.21
2021-07-08 16:09:55.265625000,-58.5,1.0,29.5,78.80453125,-1.25,23.2795641875,35.21
2021-07-08 16:09:55.273437500,-59.75,1.0,29.25,78.805546875,-2.24,23.27904378125,35.21
2021-07-08 16:09:55.281250000,-61.0,1.0,29.0,78.8065625,-3.23,23.278523375000002,35.21
2021-07-08 16:09:55.289062500,-61.5,1.25,29.0,78.80757812499999,-4.325,23.278002968750002,35.21
2021-07-08 16:09:55.296875000,-62.0,1.5,29.0,78.80859375,-5.42,23.2774825625,35.21
2021-07-08 16:09:55.304687500,-62.5,1.75,29.0,78.809609375,-6.615,23.27696215625,35.21
2021-07-08 16:09:55.312500000,-63.0,2.0,29.0,78.810625,-7.81,23.27644175,35.21
2021-07-08 16:09:55.320312500,-62.0,2.25,29.0,78.811640625,-9.06,23.27592134375,35.21
2021-07-08 16:09:55.328125000,-61.0,2.5,29.0,78.81265625,-10.31,23.275400937500002,35.21
2021-07-08 16:09:55.335937500,-60.0,2.75,29.0,78.813671875,-11.56,23.274880531250002,35.21
2021-07-08 16:09:55.343750000,-59.0,3.0,29.0,78.8146875,-12.81,23.274360125,35.21
2021-07-08 16:09:55.351562500,-59.0,2.75,28.0,78.815703125,-14.004999999999999,23.27383971875,35.21
2021-07-08 16:09:55.359375000,-59.0,2.5,27.0,78.81671874999999,-15.2,23.2733193125,35.21
2021-07-08 16:09:55.367187500,-59.0,2.25,26.0,78.817734375,-16.28,23.27279890625,35.21
2021-07-08 16:09:55.375000000,-59.0,2.0,25.0,78.81875,-17.36,23.2722785,35.21
2021-07-08 16:09:55.382812500,-59.25,2.0,24.75,78.819765625,-18.299999999999997,23.27175809375,35.21
2021-07-08 16:09:55.390625000,-59.5,2.0,24.5,78.82078125,-19.24,23.2712376875,35.21
2021-07-08 16:09:55.398437500,-59.75,2.0,24.25,78.821796875,-20.049999999999997,23.27071728125,35.21
2021-07-08 16:09:55.406250000,-60.0,2.0,24.0,78.8228125,-20.86,23.270196875,35.21
2021-07-08 16:09:55.414062500,-59.5,2.25,24.75,78.823828125,-21.585,23.26967646875,35.21
2021-07-08 16:09:55.421875000,-59.0,2.5,25.5,78.82484375,-22.31,23.2691560625,35.21
2021-07-08 16:09:55.429687500,-58.5,2.75,26.25,78.825859375,-23.02,23.26863565625,35.21
2021-07-08 16:09:55.437500000,-58.0,3.0,27.0,78.826875,-23.73,23.26811525,35.21
2021-07-08 16:09:55.445312500,-58.0,3.25,27.25,78.827890625,-24.5,23.26759484375,35.21
2021-07-08 16:09:55.453125000,-58.0,3.5,27.5,78.82890625,-25.27,23.2670744375,35.21
2021-07-08 16:09:55.460937500,-58.0,3.75,27.75,78.829921875,-26.105,23.26655403125,35.21
2021-07-08 16:09:55.468750000,-58.0,4.0,28.0,78.8309375,-26.94,23.266033625,35.21
2021-07-08 16:09:55.476562500,-57.25,4.5,28.5,78.831953125,-27.75,23.26551321875,35.21
2021-07-08 16:09:55.484375000,-56.5,5.0,29.0,78.83296875,-28.56,23.2649928125,35.21
2021-07-08 16:09:55.492187500,-55.75,5.5,29.5,78.833984375,-29.155,23.26447240625,35.21
2021-07-08 16:09:55.500000000,-55.0,6.0,30.0,78.83500000000001,-29.75,23.263952,35.21
2021-07-08 16:09:55.507812500,-56.0,6.25,30.25,78.836015625,-29.855,23.265072875,35.21
2021-07-08 16:09:55.515625000,-57.0,6.5,30.5,78.83703125,-29.96,23.26619375,35.21
2021-07-08 16:09:55.523437500,-58.0,6.75,30.75,78.838046875,-29.345,23.267314625,35.21
2021-07-08 16:09:55.531250000,-59.0,7.0,31.0,78.8390625,-28.73,23.2684355,35.21
2021-07-08 16:09:55.539062500,-59.5,7.5,30.5,78.840078125,-27.27,23.269556375,35.21
2021-07-08 16:09:55.546875000,-60.0,8.0,30.0,78.84109375,-25.81,23.27067725,35.21
2021-07-08 16:09:55.554687500,-60.5,8.5,29.5,78.842109375,-23.54,23.271798125,35.21
2021-07-08 16:09:55.562500000,-61.0,9.0,29.0,78.843125,-21.27,23.272919,35.21
2021-07-08 16:09:55.570312500,-60.0,8.0,28.5,78.84414062500001,-18.395,23.274039875,35.21
2021-07-08 16:09:55.578125000,-59.0,7.0,28.0,78.84515625,-15.52,23.27516075,35.21
2021-07-08 16:09:55.585937500,-58.0,6.0,27.5,78.846171875,-12.365,23.276281625,35.21
2021-07-08 16:09:55.593750000,-57.0,5.0,27.0,78.8471875,-9.21,23.2774025,35.21
2021-07-08 16:09:55.601562500,-57.25,4.5,26.25,78.848203125,-6.1000000000000005,23.278523375,35.21
2021-07-08 16:09:55.609375000,-57.5,4.0,25.5,78.84921875,-2.99,23.27964425,35.21
2021-07-08 16:09:55.617187500,-57.75,3.5,24.75,78.850234375,-0.20500000000000007,23.280765125,35.21
2021-07-08 16:09:55.625000000,-58.0,3.0,24.0,78.85125000000001,2.58,23.281886,35.21
2021-07-08 16:09:55.632812500,-58.0,2.5,25.0,78.852265625,4.87,23.283006875,35.21
2021-07-08 16:09:55.640625000,-58.0,2.0,26.0,78.85328125000001,7.16,23.28412775,35.21
2021-07-08 16:09:55.648437500,-58.0,1.5,27.0,78.854296875,8.875,23.285248625,35.21
2021-07-08 16:09:55.656250000,-58.0,1.0,28.0,78.8553125,10.59,23.2863695,35.21
2021-07-08 16:09:55.664062500,-57.75,1.25,29.0,78.856328125,11.74,23.287490375,35.21
2021-07-08 16:09:55.671875000,-57.5,1.5,30.0,78.85734375,12.89,23.28861125,35.21
2021-07-08 16:09:55.679687500,-57.25,1.75,31.0,78.858359375,13.545,23.289732125,35.21
2021-07-08 16:09:55.687500000,-57.0,2.0,32.0,78.859375,14.2,23.290853,35.21
2021-07-08 16:09:55.695312500,-56.75,2.5,32.25,78.86039062500001,14.445,23.291973875,35.21
2021-07-08 16:09:55.703125000,-56.5,3.0,32.5,78.86140625,14.69,23.29309475,35.21
2021-07-08 16:09:55.710937500,-56.25,3.5,32.75,78.86242187500001,14.620000000000001,23.294215625,35.21
2021-07-08 16:09:55.718750000,-56.0,4.0,33.0,78.8634375,14.55,23.2953365,35.21
2021-07-08 16:09:55.726562500,-56.25,4.0,32.75,78.864453125,14.245000000000001,23.296457375,35.21
2021-07-08 16:09:55.734375000,-56.5,4.0,32.5,78.86546875,13.94,23.29757825,35.21
2021-07-08 16:09:55.742187500,-56.75,4.0,32.25,78.866484375,13.475,23.298699125,35.21
2021-07-08 16:09:55.750000000,-57.0,4.0,32.0,78.8675,13.01,23.29982,35.21
2021-07-08 16:09:55.757812500,-57.0,4.0,31.5,78.868515625,12.44,23.2991795,35.21
2021-07-08 16:09:55.765625000,-57.0,4.0,31.0,78.86953125000001,11.87,23.298539,35.21
2021-07-08 16:09:55.773437500,-57.0,4.0,30.5,78.870546875,11.27,23.2978985,35.21
2021-07-08 16:09:55.781250000,-57.0,4.0,30.0,78.87156250000001,10.67,23.297258,35.21
2021-07-08 16:09:55.789062500,-56.75,4.25,30.25,78.872578125,10.129999999999999,23.2966175,35.21
2021-07-08 16:09:55.796875000,-56.5,4.5,30.5,78.87359375,9.59,23.295977,35.21
2021-07-08 16:09:55.804687500,-56.25,4.75,30.75,78.874609375,9.175,23.2953365,35.21
2021-07-08 16:09:55.812500000,-56.0,5.0,31.0,78.875625,8.76,23.294696000000002,35.21
2021-07-08 16:09:55.820312500,-56.5,5.25,30.75,78.87664062500001,8.52,23.2940555,35.21
2021-07-08 16:09:55.828125000,-57.0,5.5,30.5,78.87765625,8.28,23.293415,35.21
2021-07-08 16:09:55.835937500,-57.5,5.75,30.25,78.87867187500001,8.215,23.2927745,35.21
2021-07-08 16:09:55.843750000,-58.0,6.0,30.0,78.8796875,8.15,23.292134,35.21
2021-07-08 16:09:55.851562500,-58.0,6.0,29.75,78.88070312500001,8.205,23.2914935,35.21
2021-07-08 16:09:55.859375000,-58.0,6.0,29.5,78.88171875,8.26,23.290853,35.21
2021-07-08 16:09:55.867187500,-58.0,6.0,29.25,78.882734375,8.355,23.2902125,35.21
2021-07-08 16:09:55.875000000,-58.0,6.0,29.0,78.88375,8.45,23.289572,35.21
2021-07-08 16:09:55.882812500,-58.25,6.25,28.5,78.884765625,8.504999999999999,23.2889315,35.21
2021-07-08 16:09:55.890625000,-58.5,6.5,28.0,78.88578125000001,8.56,23.288291,35.21
2021-07-08 16:09:55.898437500,-58.75,6.75,27.5,78.886796875,8.510000000000002,23.287650499999998,35.21
2021-07-08 16:09:55.906250000,-59.0,7.0,27.0,78.88781250000001,8.46,23.28701,35.21
2021-07-08 16:09:55.914062500,-59.25,7.25,26.75,78.888828125,8.285,23.2863695,35.21
2021-07-08 16:09:55.921875000,-59.5,7.5,26.5,78.88984375000001,8.11,23.285729,35.21
2021-07-08 16:09:55.929687500,-59.75,7.75,26.25,78.890859375,7.824999999999999,23.2850885,35.21
2021-07-08 16:09:55.937500000,-60.0,8.0,26.0,78.891875,7.54,23.284447999999998,35.21
2021-07-08 16:09:55.945312500,-60.0,8.0,26.0,78.892890625,7.17,23.283807499999998,35.21
2021-07-08 16:09:55.953125000,-60.0,8.0,26.0,78.89390625,6.8,23.283167,35.21
2021-07-08 16:09:55.960937500,-60.0,8.0,26.0,78.89492187500001,6.359999999999999,23.2825265,35.21
2021-07-08 16:09:55.968750000,-60.0,8.0,26.0,78.8959375,5.92,23.281886,35.21
2021-07-08 16:09:55.976562500,-60.0,7.75,26.0,78.89695312500001,5.415,23.2812455,35.21
2021-07-08 16:09:55.984375000,-60.0,7.5,26.0,78.89796875,4.91,23.280604999999998,35.21
2021-07-08 16:09:55.992187500,-60.0,7.25,26.0,78.89898437500001,4.345,23.2799645,35.21
2021-07-08 16:09:56.000000000,-60.0,7.0,26.0,78.9,3.78,23.279324,35.21
2021-07-08 16:09:56.007812500,-60.0,6.75,26.25,78.901015625,3.165,23.27940403125,35.21
2021-07-08 16:09:56.015625000,-60.0,6.5,26.5,78.90203125000001,2.55,23.2794840625,35.21
2021-07-08 16:09:56.023437500,-60.0,6.25,26.75,78.903046875,1.915,23.27956409375,35.21
2021-07-08 16:09:56.031250000,-60.0,6.0,27.0,78.90406250000001,1.28,23.279644124999997,35.21
2021-07-08 16:09:56.039062500,-60.0,5.0,27.25,78.905078125,0.64,23.279724156249998,35.21
2021-07-08 16:09:56.046875000,-60.0,4.0,27.5,78.90609375000001,0.0,23.279804187499998,35.21
2021-07-08 16:09:56.054687500,-60.0,3.0,27.75,78.907109375,-0.63,23.27988421875,35.21
2021-07-08 16:09:56.062500000,-60.0,2.0,28.0,78.90812500000001,-1.26,23.27996425,35.21
2021-07-08 16:09:56.070312500,-60.0,1.5,28.0,78.909140625,-1.8849999999999998,23.28004428125,35.21
2021-07-08 16:09:56.078125000,-60.0,1.0,28.0,78.91015625,-2.51,23.2801243125,35.21
2021-07-08 16:09:56.085937500,-60.0,0.5,28.0,78.91117187500001,-3.155,23.28020434375,35.21
2021-07-08 16:09:56.093750000,-60.0,0.0,28.0,78.9121875,-3.8,23.280284375,35.21
2021-07-08 16:09:56.101562500,-60.0,-0.75,27.5,78.91320312500001,-4.48,23.280364406249998,35.21
2021-07-08 16:09:56.109375000,-60.0,-1.5,27.0,78.91421875,-5.16,23.280444437499998,35.21
2021-07-08 16:09:56.117187500,-60.0,-2.25,26.5,78.91523437500001,-5.87,23.28052446875,35.21
2021-07-08 16:09:56.125000000,-60.0,-3.0,26.0,78.91625,-6.58,23.2806045,35.21
2021-07-08 16:09:56.132812500,-59.75,-3.0,25.75,78.917265625,-7.275,23.28068453125,35.21
2021-07-08 16:09:56.140625000,-59.5,-3.0,25.5,78.91828125,-7.97,23.2807645625,35.21
2021-07-08 16:09:56.148437500,-59.25,-3.0,25.25,78.919296875,-8.645,23.28084459375,35.21
2021-07-08 16:09:56.156250000,-59.0,-3.0,25.0,78.92031250000001,-9.32,23.280924624999997,35.21
2021-07-08 16:09:56.164062500,-59.0,-2.5,25.25,78.921328125,-9.96,23.281004656249998,35.21
2021-07-08 16:09:56.171875000,-59.0,-2.0,25.5,78.92234375000001,-10.6,23.281084687499998,35.21
2021-07-08 16:09:56.179687500,-59.0,-1.5,25.75,78.923359375,-11.245000000000001,23.28116471875,35.21
2021-07-08 16:09:56.187500000,-59.0,-1.0,26.0,78.924375,-11.89,23.28124475,35.21
2021-07-08 16:09:56.195312500,-59.25,-0.25,26.25,78.925390625,-12.55,23.28132478125,35.21
2021-07-08 16:09:56.203125000,-59.5,0.5,26.5,78.92640625,-13.21,23.2814048125,35.21
2021-07-08 16:09:56.210937500,-59.75,1.25,26.75,78.92742187500001,-13.815000000000001,23.28148484375,35.21
2021-07-08 16:09:56.218750000,-60.0,2.0,27.0,78.9284375,-14.42,23.281564875,35.21
2021-07-08 16:09:56.226562500,-60.25,2.25,27.0,78.92945312500001,-14.77,23.281644906249998,35.21
2021-07-08 16:09:56.234375000,-60.5,2.5,27.0,78.93046875,-15.12,23.281724937499998,35.21
2021-07-08 16:09:56.242187500,-60.75,2.75,27.0,78.93148437500001,-14.954999999999998,23.28180496875,35.21
2021-07-08 16:09:56.250000000,-61.0,3.0,27.0,78.9325,-14.79,23.281885,35.21
2021-07-08 16:09:56.257812500,-60.75,3.5,26.5,78.933515625,-13.864999999999998,23.28136459375,35.21
2021-07-08 16:09:56.265625000,-60.5,4.0,26.0,78.93453125,-12.94,23.280844187499998,35.21
2021-07-08 16:09:56.273437500,-60.25,4.5,25.5,78.935546875,-11.149999999999999,23.28032378125,35.21
2021-07-08 16:09:56.281250000,-60.0,5.0,25.0,78.93656250000001,-9.36,23.279803375,35.21
2021-07-08 16:09:56.289062500,-60.0,5.25,25.0,78.937578125,-6.8,23.27928296875,35.21
2021-07-08 16:09:56.296875000,-60.0,5.5,25.0,78.93859375000001,-4.24,23.2787625625,35.21
2021-07-08 16:09:56.304687500,-60.0,5.75,25.0,78.939609375,-1.185,23.27824215625,35.21
2021-07-08 16:09:56.312500000,-60.0,6.0,25.0,78.94062500000001,1.87,23.277721749999998,35.21
2021-07-08 16:09:56.320312500,-60.0,6.25,25.25,78.941640625,5.0649999999999995,23.27720134375,35.21
2021-07-08 16:09:56.328125000,-60.0,6.5,25.5,78.94265625,8.26,23.2766809375,35.21
2021-07-08 16:09:56.335937500,-60.0,6.75,25.75,78.943671875,11.280000000000001,23.27616053125,35.21
2021-07-08 16:09:56.343750000,-60.0,7.0,26.0,78.9446875,14.3,23.275640125,35.21
2021-07-08 16:09:56.351562500,-59.75,7.0,26.5,78.94570312500001,16.945,23.27511971875,35.21
2021-07-08 16:09:56.359375000,-59.5,7.0,27.0,78.94671875,19.59,23.2745993125,35.21
2021-07-08 16:09:56.367187500,-59.25,7.0,27.5,78.94773437500001,21.75,23.27407890625,35.21
2021-07-08 16:09:56.375000000,-59.0,7.0,28.0,78.94875,23.91,23.2735585,35.21
2021-07-08 16:09:56.382812500,-58.75,6.5,28.5,78.949765625,25.52,23.27303809375,35.21
2021-07-08 16:09:56.390625000,-58.5,6.0,29.0,78.95078125,27.13,23.2725176875,35.21
2021-07-08 16:09:56.398437500,-58.25,5.5,29.5,78.951796875,28.155,23.271997281250002,35.21
2021-07-08 16:09:56.406250000,-58.0,5.0,30.0,78.95281250000001,29.18,23.271476875,35.21
2021-07-08 16:09:56.414062500,-58.0,5.0,30.0,78.953828125,29.615000000000002,23.27095646875,35.21
2021-07-08 16:09:56.421875000,-58.0,5.0,30.0,78.95484375000001,30.05,23.2704360625,35.21
2021-07-08 16:09:56.429687500,-58.0,5.0,30.0,78.955859375,29.925,23.26991565625,35.21
2021-07-08 16:09:56.437500000,-58.0,5.0,30.0,78.956875,29.8,23.269395250000002,35.21
2021-07-08 16:09:56.445312500,-58.25,4.5,29.25,78.957890625,29.235,23.26887484375,35.21
2021-07-08 16:09:56.453125000,-58.5,4.0,28.5,78.95890625,28.67,23.2683544375,35.21
2021-07-08 16:09:56.460937500,-58.75,3.5,27.75,78.959921875,27.815,23.26783403125,35.21
2021-07-08 16:09:56.468750000,-59.0,3.0,27.0,78.9609375,26.96,23.267313625,35.21
2021-07-08 16:09:56.476562500,-59.25,2.75,26.75,78.96195312500001,25.94,23.26679321875,35.21
2021-07-08 16:09:56.484375000,-59.5,2.5,26.5,78.96296875,24.92,23.266272812500002,35.21
2021-07-08 16:09:56.492187500,-59.75,2.25,26.25,78.96398437500001,23.775,23.26575240625,35.21
2021-07-08 16:09:56.500000000,-60.0,2.0,26.0,78.965,22.63,23.265232,35.21
2021-07-08 16:09:56.507812500,-60.0,1.75,26.0,78.966015625,21.33,23.26571240625,35.21
2021-07-08 16:09:56.515625000,-60.0,1.5,26.0,78.96703125,20.03,23.2661928125,35.21
2021-07-08 16:09:56.523437500,-60.0,1.25,26.0,78.968046875,18.515,23.26667321875,35.21
2021-07-08 16:09:56.531250000,-60.0,1.0,26.0,78.9690625,17.0,23.267153625000002,35.21
2021-07-08 16:09:56.539062500,-60.0,1.25,25.75,78.970078125,15.29,23.26763403125,35.21
2021-07-08 16:09:56.546875000,-60.0,1.5,25.5,78.97109375000001,13.58,23.2681144375,35.21
2021-07-08 16:09:56.554687500,-60.0,1.75,25.25,78.972109375,11.795,23.26859484375,35.21
2021-07-08 16:09:56.562500000,-60.0,2.0,25.0,78.97312500000001,10.01,23.26907525,35.21
2021-07-08 16:09:56.570312500,-60.0,2.0,24.75,78.974140625,8.36,23.269555656250002,35.21
2021-07-08 16:09:56.578125000,-60.0,2.0,24.5,78.97515625,6.71,23.2700360625,35.21
2021-07-08 16:09:56.585937500,-60.0,2.0,24.25,78.976171875,5.404999999999999,23.27051646875,35.21
2021-07-08 16:09:56.593750000,-60.0,2.0,24.0,78.9771875,4.1,23.270996875,35.21
2021-07-08 16:09:56.601562500,-60.0,2.25,24.5,78.97820312500001,3.235,23.27147728125,35.21
2021-07-08 16:09:56.609375000,-60.0,2.5,25.0,78.97921875,2.37,23.271957687500002,35.21
2021-07-08 16:09:56.617187500,-60.0,2.75,25.5,78.98023437500001,1.86,23.27243809375,35.21
2021-07-08 16:09:56.625000000,-60.0,3.0,26.0,78.98125,1.35,23.272918500000003,35.21
2021-07-08 16:09:56.632812500,-60.0,3.25,26.0,78.982265625,0.9550000000000001,23.27339890625,35.21
2021-07-08 16:09:56.640625000,-60.0,3.5,26.0,78.98328125,0.56,23.2738793125,35.21
2021-07-08 16:09:56.648437500,-60.0,3.75,26.0,78.984296875,-0.040000000000000036,23.274359718750002,35.21
2021-07-08 16:09:56.656250000,-60.0,4.0,26.0,78.9853125,-0.64,23.274840125,35.21
2021-07-08 16:09:56.664062500,-60.0,3.75,26.25,78.986328125,-1.6800000000000002,23.275320531250003,35.21
2021-07-08 16:09:56.671875000,-60.0,3.5,26.5,78.98734375000001,-2.72,23.2758009375,35.21
2021-07-08 16:09:56.679687500,-60.0,3.25,26.75,78.988359375,-4.255,23.27628134375,35.21
2021-07-08 16:09:56.687500000,-60.0,3.0,27.0,78.989375,-5.79,23.276761750000002,35.21
2021-07-08 16:09:56.695312500,-59.75,3.0,27.0,78.990390625,-7.675000000000001,23.27724215625,35.21
2021-07-08 16:09:56.703125000,-59.5,3.0,27.0,78.99140625,-9.56,23.277722562500003,35.21
2021-07-08 16:09:56.710937500,-59.25,3.0,27.0,78.992421875,-11.504999999999999,23.27820296875,35.21
2021-07-08 16:09:56.718750000,-59.0,3.0,27.0,78.9934375,-13.45,23.278683375,35.21
2021-07-08 16:09:56.726562500,-58.75,3.25,27.25,78.994453125,-15.129999999999999,23.279163781250002,35.21
2021-07-08 16:09:56.734375000,-58.5,3.5,27.5,78.99546875,-16.81,23.2796441875,35.21
2021-07-08 16:09:56.742187500,-58.25,3.75,27.75,78.99648437500001,-17.985,23.280124593750003,35.21
2021-07-08 16:09:56.750000000,-58.0,4.0,28.0,78.9975,-19.16,23.280605,35.21
2021-07-08 16:09:56.757812500,-58.25,4.25,28.0,78.998515625,-19.744999999999997,23.28080515625,35.21
2021-07-08 16:09:56.765625000,-58.5,4.5,28.0,78.99953125,-20.33,23.2810053125,35.21
2021-07-08 16:09:56.773437500,-58.75,4.75,28.0,79.000546875,-20.369999999999997,23.281205468750002,35.21
2021-07-08 16:09:56.781250000,-59.0,5.0,28.0,79.0015625,-20.41,23.281405625,35.21
2021-07-08 16:09:56.789062500,-59.25,4.75,27.75,79.002578125,-20.055,23.28160578125,35.21
2021-07-08 16:09:56.796875000,-59.5,4.5,27.5,79.00359375000001,-19.7,23.2818059375,35.21
2021-07-08 16:09:56.804687500,-59.75,4.25,27.25,79.004609375,-19.115000000000002,23.282006093750002,35.21
2021-07-08 16:09:56.812500000,-60.0,4.0,27.0,79.00562500000001,-18.53,23.28220625,35.21
2021-07-08 16:09:56.820312500,-60.0,4.0,27.0,79.006640625,-17.87,23.28240640625,35.21
2021-07-08 16:09:56.828125000,-60.0,4.0,27.0,79.00765625,-17.21,23.2826065625,35.21
2021-07-08 16:09:56.835937500,-60.0,4.0,27.0,79.008671875,-16.625,23.28280671875,35.21
2021-07-08 16:09:56.843750000,-60.0,4.0,27.0,79.0096875,-16.04,23.283006875,35.21
2021-07-08 16:09:56.851562500,-60.25,3.75,27.0,79.010703125,-15.64,23.28320703125,35.21
2021-07-08 16:09:56.859375000,-60.5,3.5,27.0,79.01171875,-15.24,23.2834071875,35.21
2021-07-08 16:09:56.867187500,-60.75,3.25,27.0,79.01273437500001,-15.16,23.28360734375,35.21
2021-07-08 16:09:56.875000000,-61.0,3.0,27.0,79.01375,-15.08,23.2838075,35.21
2021-07-08 16:09:56.882812500,-60.0,3.0,26.5,79.014765625,-15.395,23.28400765625,35.21
2021-07-08 16:09:56.890625000,-59.0,3.0,26.0,79.01578125,-15.71,23.2842078125,35.21
2021-07-08 16:09:56.898437500,-58.0,3.0,25.5,79.016796875,-16.42,23.28440796875,35.21
2021-07-08 16:09:56.906250000,-57.0,3.0,25.0,79.0178125,-17.13,23.284608125,35.21
2021-07-08 16:09:56.914062500,-57.5,3.0,25.0,79.018828125,-18.104999999999997,23.28480828125,35.21
2021-07-08 16:09:56.921875000,-58.0,3.0,25.0,79.01984375,-19.08,23.2850084375,35.21
2021-07-08 16:09:56.929687500,-58.5,3.0,25.0,79.020859375,-20.06,23.28520859375,35.21
2021-07-08 16:09:56.937500000,-59.0,3.0,25.0,79.021875,-21.04,23.28540875,35.21
2021-07-08 16:09:56.945312500,-59.5,3.0,25.5,79.022890625,-21.705,23.285608906249998,35.21
2021-07-08 16:09:56.953125000,-60.0,3.0,26.0,79.02390625,-22.37,23.2858090625,35.21
2021-07-08 16:09:56.960937500,-60.5,3.0,26.5,79.024921875,-22.4,23.28600921875,35.21
2021-07-08 16:09:56.968750000,-61.0,3.0,27.0,79.0259375,-22.43,23.286209375,35.21
2021-07-08 16:09:56.976562500,-60.75,3.25,27.5,79.026953125,-21.61,23.286409531249998,35.21
2021-07-08 16:09:56.984375000,-60.5,3.5,28.0,79.02796875,-20.79,23.2866096875,35.21
2021-07-08 16:09:56.992187500,-60.25,3.75,28.5,79.02898437500001,-19.06,23.28680984375,35.21
2021-07-08 16:09:57.000000000,-60.0,4.0,29.0,79.03,-17.33,23.28701,35.21
2021-07-08 16:09:57.007812500,-59.75,3.75,28.25,79.03109375,-14.809999999999999,23.287490374999997,35.210625
2021-07-08 16:09:57.015625000,-59.5,3.5,27.5,79.0321875,-12.29,23.28797075,35.21125
2021-07-08 16:09:57.023437500,-59.25,3.25,26.75,79.03328125,-9.215,23.288451124999998,35.211875
2021-07-08 16:09:57.031250000,-59.0,3.0,26.0,79.034375,-6.14,23.2889315,35.2125
2021-07-08 16:09:57.039062500,-59.0,3.0,25.75,79.03546875,-2.82,23.289411875,35.213125
2021-07-08 16:09:57.046875000,-59.0,3.0,25.5,79.0365625,0.5,23.289892249999998,35.21375
2021-07-08 16:09:57.054687500,-59.0,3.0,25.25,79.03765625,3.755,23.290372625,35.214375
2021-07-08 16:09:57.062500000,-59.0,3.0,25.0,79.03875000000001,7.01,23.290853,35.215
2021-07-08 16:09:57.070312500,-59.5,3.0,25.25,79.03984375,9.94,23.291333375,35.215625
2021-07-08 16:09:57.078125000,-60.0,3.0,25.5,79.0409375,12.87,23.29181375,35.21625
2021-07-08 16:09:57.085937500,-60.5,3.0,25.75,79.04203125000001,15.280000000000001,23.292294124999998,35.216875
2021-07-08 16:09:57.093750000,-61.0,3.0,26.0,79.043125,17.69,23.2927745,35.2175
2021-07-08 16:09:57.101562500,-60.75,3.0,26.5,79.04421875,19.48,23.293254875,35.218125
2021-07-08 16:09:57.109375000,-60.5,3.0,27.0,79.0453125,21.27,23.29373525,35.21875
2021-07-08 16:09:57.117187500,-60.25,3.0,27.5,79.04640625,22.45,23.294215625,35.219375
2021-07-08 16:09:57.125000000,-60.0,3.0,28.0,79.0475,23.63,23.294696000000002,35.22
2021-07-08 16:09:57.132812500,-59.75,3.25,27.75,79.04859375,24.27,23.295176375,35.220625
2021-07-08 16:09:57.140625000,-59.5,3.5,27.5,79.0496875,24.91,23.29565675,35.22125
2021-07-08 16:09:57.148437500,-59.25,3.75,27.25,79.05078125,25.14,23.296137125,35.221875
2021-07-08 16:09:57.156250000,-59.0,4.0,27.0,79.051875,25.37,23.2966175,35.2225
2021-07-08 16:09:57.164062500,-59.0,4.0,27.0,79.05296875,25.35,23.297097875000002,35.223124999999996
2021-07-08 16:09:57.171875000,-59.0,4.0,27.0,79.0540625,25.33,23.29757825,35.223749999999995
2021-07-08 16:09:57.179687500,-59.0,4.0,27.0,79.05515625,25.22,23.298058625,35.224374999999995
2021-07-08 16:09:57.187500000,-59.0,4.0,27.0,79.05625,25.11,23.298539,35.224999999999994
2021-07-08 16:09:57.195312500,-59.25,3.75,27.0,79.05734375,25.02,23.299019375,35.225625
2021-07-08 16:09:57.203125000,-59.5,3.5,27.0,79.0584375,24.93,23.299499750000003,35.22625
2021-07-08 16:09:57.210937500,-59.75,3.25,27.0,79.05953125,24.905,23.299980125,35.226875
2021-07-08 16:09:57.218750000,-60.0,3.0,27.0,79.060625,24.88,23.3004605,35.2275
2021-07-08 16:09:57.226562500,-60.0,3.0,27.0,79.06171875,24.905,23.300940875000002,35.228125
2021-07-08 16:09:57.234375000,-60.0,3.0,27.0,79.0628125,24.93,23.30142125,35.22875
2021-07-08 16:09:57.242187500,-60.0,3.0,27.0,79.06390625,24.93,23.301901625000003,35.229375
2021-07-08 16:09:57.250000000,-60.0,3.0,27.0,79.065,24.93,23.302382,35.23
2021-07-08 16:09:57.257812500,-59.75,3.0,27.0,79.06609375000001,24.810000000000002,23.30202175,35.23
2021-07-08 16:09:57.265625000,-59.5,3.0,27.0,79.0671875,24.69,23.3016615,35.23
2021-07-08 16:09:57.273437500,-59.25,3.0,27.0,79.06828125,24.384999999999998,23.30130125,35.23
2021-07-08 16:09:57.281250000,-59.0,3.0,27.0,79.06937500000001,24.08,23.300941,35.23
2021-07-08 16:09:57.289062500,-59.0,3.0,26.75,79.07046875,23.57,23.30058075,35.23
2021-07-08 16:09:57.296875000,-59.0,3.0,26.5,79.0715625,23.06,23.300220500000002,35.23
2021-07-08 16:09:57.304687500,-59.0,3.0,26.25,79.07265625,22.41,23.299860250000002,35.23
2021-07-08 16:09:57.312500000,-59.0,3.0,26.0,79.07375,21.76,23.299500000000002,35.23
2021-07-08 16:09:57.320312500,-59.25,3.0,26.25,79.07484375,21.075000000000003,23.299139750000002,35.23
2021-07-08 16:09:57.328125000,-59.5,3.0,26.5,79.0759375,20.39,23.298779500000002,35.23
2021-07-08 16:09:57.335937500,-59.75,3.0,26.75,79.07703125,19.765,23.298419250000002,35.23
2021-07-08 16:09:57.343750000,-60.0,3.0,27.0,79.078125,19.14,23.298059000000002,35.23
2021-07-08 16:09:57.351562500,-60.0,3.25,26.75,79.07921875,18.62,23.297698750000002,35.23
2021-07-08 16:09:57.359375000,-60.0,3.5,26.5,79.0803125,18.1,23.297338500000002,35.23
2021-07-08 16:09:57.367187500,-60.0,3.75,26.25,79.08140625,17.615000000000002,23.296978250000002,35.23
2021-07-08 16:09:57.375000000,-60.0,4.0,26.0,79.0825,17.13,23.296618000000002,35.23
2021-07-08 16:09:57.382812500,-60.0,4.0,26.25,79.08359375,16.52,23.29625775,35.23
2021-07-08 16:09:57.390625000,-60.0,4.0,26.5,79.0846875,15.91,23.2958975,35.23
2021-07-08 16:09:57.398437500,-60.0,4.0,26.75,79.08578125,15.0,23.29553725,35.23
2021-07-08 16:09:57.406250000,-60.0,4.0,27.0,79.086875,14.09,23.295177,35.23
2021-07-08 16:09:57.414062500,-59.75,3.75,26.75,79.08796875,12.745000000000001,23.29481675,35.23
2021-07-08 16:09:57.421875000,-59.5,3.5,26.5,79.0890625,11.4,23.2944565,35.23
2021-07-08 16:09:57.429687500,-59.25,3.25,26.25,79.09015625,9.615,23.29409625,35.23
2021-07-08 16:09:57.437500000,-59.0,3.0,26.0,79.09125,7.83,23.293736,35.23
2021-07-08 16:09:57.445312500,-59.25,3.0,26.25,79.09234375,5.71,23.29337575,35.23
2021-07-08 16:09:57.453125000,-59.5,3.0,26.5,79.09343750000001,3.59,23.2930155,35.23
2021-07-08 16:09:57.460937500,-59.75,3.0,26.75,79.09453125,1.355,23.29265525,35.23
2021-07-08 16:09:57.468750000,-60.0,3.0,27.0,79.095625,-0.88,23.292295,35.23
2021-07-08 16:09:57.476562500,-60.0,3.0,27.0,79.09671875000001,-2.995,23.29193475,35.23
2021-07-08 16:09:57.484375000,-60.0,3.0,27.0,79.0978125,-5.11,23.2915745,35.23
2021-07-08 16:09:57.492187500,-60.0,3.0,27.0,79.09890625,-6.904999999999999,23.29121425,35.23
2021-07-08 16:09:57.500000000,-60.0,3.0,27.0,79.1,-8.7,23.290854,35.23
2021-07-08 16:09:57.507812500,-59.75,3.0,27.0,79.10109375,-10.065,23.290533718749998,35.23
2021-07-08 16:09:57.515625000,-59.5,3.0,27.0,79.1021875,-11.43,23.2902134375,35.23
2021-07-08 16:09:57.523437500,-59.25,3.0,27.0,79.10328125,-12.36,23.28989315625,35.23
2021-07-08 16:09:57.531250000,-59.0,3.0,27.0,79.104375,-13.29,23.289572875,35.23
2021-07-08 16:09:57.539062500,-59.0,3.0,27.0,79.10546875,-13.895,23.28925259375,35.23
2021-07-08 16:09:57.546875000,-59.0,3.0,27.0,79.1065625,-14.5,23.2889323125,35.23
2021-07-08 16:09:57.554687500,-59.0,3.0,27.0,79.10765625,-14.945,23.28861203125,35.23
2021-07-08 16:09:57.562500000,-59.0,3.0,27.0,79.10875,-15.39,23.28829175,35.23
2021-07-08 16:09:57.570312500,-59.25,3.0,27.0,79.10984375,-15.88,23.28797146875,35.23
2021-07-08 16:09:57.578125000,-59.5,3.0,27.0,79.1109375,-16.37,23.2876511875,35.23
2021-07-08 16:09:57.585937500,-59.75,3.0,27.0,79.11203125,-17.065,23.28733090625,35.23
2021-07-08 16:09:57.593750000,-60.0,3.0,27.0,79.113125,-17.76,23.287010625,35.23
2021-07-08 16:09:57.601562500,-60.0,3.0,26.75,79.11421875,-18.740000000000002,23.28669034375,35.23
2021-07-08 16:09:57.609375000,-60.0,3.0,26.5,79.1153125,-19.72,23.2863700625,35.23
2021-07-08 16:09:57.617187500,-60.0,3.0,26.25,79.11640625,-20.915,23.28604978125,35.23
2021-07-08 16:09:57.625000000,-60.0,3.0,26.0,79.1175,-22.11,23.285729500000002,35.23
2021-07-08 16:09:57.632812500,-60.0,3.0,26.25,79.11859375,-23.34,23.28540921875,35.23
2021-07-08 16:09:57.640625000,-60.0,3.0,26.5,79.1196875,-24.57,23.2850889375,35.23
2021-07-08 16:09:57.648437500,-60.0,3.0,26.75,79.12078125000001,-25.545,23.28476865625,35.23
2021-07-08 16:09:57.656250000,-60.0,3.0,27.0,79.121875,-26.52,23.284448375,35.23
2021-07-08 16:09:57.664062500,-59.75,3.0,27.0,79.12296875,-26.945,23.284128093750002,35.23
2021-07-08 16:09:57.671875000,-59.5,3.0,27.0,79.12406250000001,-27.37,23.2838078125,35.23
2021-07-08 16:09:57.679687500,-59.25,3.0,27.0,79.12515625,-27.009999999999998,23.28348753125,35.23
2021-07-08 16:09:57.687500000,-59.0,3.0,27.0,79.12625,-26.65,23.28316725,35.23
2021-07-08 16:09:57.695312500,-59.25,3.0,26.75,79.12734375000001,-25.395,23.28284696875,35.23
2021-07-08 16:09:57.703125000,-59.5,3.0,26.5,79.1284375,-24.14,23.282526687500003,35.23
2021-07-08 16:09:57.710937500,-59.75,3.0,26.25,79.12953125,-22.04,23.28220640625,35.23
2021-07-08 16:09:57.718750000,-60.0,3.0,26.0,79.130625,-19.94,23.281886125,35.23
2021-07-08 16:09:57.726562500,-60.0,3.0,26.25,79.13171875,-17.165,23.281565843750002,35.23
2021-07-08 16:09:57.734375000,-60.0,3.0,26.5,79.1328125,-14.39,23.2812455625,35.23
2021-07-08 16:09:57.742187500,-60.0,3.0,26.75,79.13390625,-11.215,23.280925281250003,35.23
2021-07-08 16:09:57.750000000,-60.0,3.0,27.0,79.135,-8.04,23.280605,35.23
2021-07-08 16:09:57.757812500,-60.0,3.0,27.0,79.13609375,-4.765,23.28080515625,35.23
2021-07-08 16:09:57.765625000,-60.0,3.0,27.0,79.1371875,-1.49,23.2810053125,35.23
2021-07-08 16:09:57.773437500,-60.0,3.0,27.0,79.13828125,1.61,23.281205468750002,35.23
2021-07-08 16:09:57.781250000,-60.0,3.0,27.0,79.139375,4.71,23.281405625,35.23
2021-07-08 16:09:57.789062500,-60.0,3.0,26.75,79.14046875,7.414999999999999,23.28160578125,35.23
2021-07-08 16:09:57.796875000,-60.0,3.0,26.5,79.1415625,10.12,23.2818059375,35.23
2021-07-08 16:09:57.804687500,-60.0,3.0,26.25,79.14265625,12.29,23.282006093750002,35.23
2021-07-08 16:09:57.812500000,-60.0,3.0,26.0,79.14375,14.46,23.28220625,35.23
2021-07-08 16:09:57.820312500,-59.75,3.0,26.25,79.14484375,16.025,23.28240640625,35.23
2021-07-08 16:09:57.828125000,-59.5,3.0,26.5,79.1459375,17.59,23.2826065625,35.23
2021-07-08 16:09:57.835937500,-59.25,3.0,26.75,79.14703125,18.555,23.28280671875,35.23
2021-07-08 16:09:57.843750000,-59.0,3.0,27.0,79.14812500000001,19.52,23.283006875,35.23
2021-07-08 16:09:57.851562500,-59.0,3.0,27.0,79.14921875,19.895,23.28320703125,35.23
2021-07-08 16:09:57.859375000,-59.0,3.0,27.0,79.1503125,20.27,23.2834071875,35.23
2021-07-08 16:09:57.867187500,-59.0,3.0,27.0,79.15140625000001,20.11,23.28360734375,35.23
2021-07-08 16:09:57.875000000,-59.0,3.0,27.0,79.1525,19.95,23.2838075,35.23
2021-07-08 16:09:57.882812500,-59.25,3.0,27.0,79.15359375,19.345,23.28400765625,35.23
2021-07-08 16:09:57.890625000,-59.5,3.0,27.0,79.15468750000001,18.74,23.2842078125,35.23
2021-07-08 16:09:57.898437500,-59.75,3.0,27.0,79.15578125,17.835,23.28440796875,35.23
2021-07-08 16:09:57.906250000,-60.0,3.0,27.0,79.156875,16.93,23.284608125,35.23
2021-07-08 16:09:57.914062500,-59.75,3.0,27.0,79.15796875,15.905000000000001,23.28480828125,35.23
2021-07-08 16:09:57.921875000,-59.5,3.0,27.0,79.1590625,14.88,23.2850084375,35.23
2021-07-08 16:09:57.929687500,-59.25,3.0,27.0,79.16015625,13.925,23.28520859375,35.23
2021-07-08 16:09:57.937500000,-59.0,3.0,27.0,79.16125,12.97,23.28540875,35.23
2021-07-08 16:09:57.945312500,-59.0,3.0,27.0,79.16234375,12.2,23.285608906249998,35.23
2021-07-08 16:09:57.953125000,-59.0,3.0,27.0,79.1634375,11.43,23.2858090625,35.23
2021-07-08 16:09:57.960937500,-59.0,3.0,27.0,79.16453125,10.875,23.28600921875,35.23
2021-07-08 16:09:57.968750000,-59.0,3.0,27.0,79.165625,10.32,23.286209375,35.23
2021-07-08 16:09:57.976562500,-59.0,3.0,27.0,79.16671875,9.92,23.286409531249998,35.23
2021-07-08 16:09:57.984375000,-59.0,3.0,27.0,79.1678125,9.52,23.2866096875,35.23
2021-07-08 16:09:57.992187500,-59.0,3.0,27.0,79.16890625,9.17,23.28680984375,35.23
2021-07-08 16:09:58.000000000,-59.0,3.0,27.0,79.17,8.82,23.28701,35.23
2021-07-08 16:09:58.007812500,-59.0,3.0,27.0,79.17078125,8.43,23.28761046875,35.23
2021-07-08 16:09:58.015625000,-59.0,3.0,27.0,79.17156250000001,8.04,23.288210937499997,35.23
2021-07-08 16:09:58.023437500,-59.0,3.0,27.0,79.17234375,7.549999999999999,23.288811406249998,35.23
2021-07-08 16:09:58.031250000,-59.0,3.0,27.0,79.173125,7.06,23.289411875,35.23
2021-07-08 16:09:58.039062500,-59.25,3.0,27.0,79.17390625,6.475,23.29001234375,35.23
2021-07-08 16:09:58.046875000,-59.5,3.0,27.0,79.1746875,5.89,23.2906128125,35.23
2021-07-08 16:09:58.054687500,-59.75,3.0,27.0,79.17546875000001,5.244999999999999,23.29121328125,35.23
2021-07-08 16:09:58.062500000,-60.0,3.0,27.0,79.17625,4.6,23.29181375,35.23
2021-07-08 16:09:58.070312500,-59.75,3.0,27.0,79.17703125,3.91,23.29241421875,35.23
2021-07-08 16:09:58.078125000,-59.5,3.0,27.0,79.1778125,3.22,23.293014687499998,35.23
2021-07-08 16:09:58.085937500,-59.25,3.0,27.0,79.17859375,2.505,23.29361515625,35.23
2021-07-08 16:09:58.093750000,-59.0,3.0,27.0,79.17937500000001,1.79,23.294215625,35.23
2021-07-08 16:09:58.101562500,-59.0,3.0,27.0,79.18015625,1.065,23.29481609375,35.23
2021-07-08 16:09:58.109375000,-59.0,3.0,27.0,79.1809375,0.34,23.2954165625,35.23
2021-07-08 16:09:58.117187500,-59.0,3.0,27.0,79.18171875,-0.37000000000000005,23.29601703125,35.23
2021-07-08 16:09:58.125000000,-59.0,3.0,27.0,79.1825,-1.08,23.2966175,35.23
2021-07-08 16:09:58.132812500,-59.25,3.0,27.0,79.18328125000001,-1.7750000000000001,23.29721796875,35.23
2021-07-08 16:09:58.140625000,-59.5,3.0,27.0,79.1840625,-2.47,23.2978184375,35.23
2021-07-08 16:09:58.148437500,-59.75,3.0,27.0,79.18484375,-3.16,23.29841890625,35.23
2021-07-08 16:09:58.156250000,-60.0,3.0,27.0,79.185625,-3.85,23.299019375,35.23
2021-07-08 16:09:58.164062500,-59.75,3.0,27.0,79.18640625,-4.585,23.29961984375,35.23
2021-07-08 16:09:58.171875000,-59.5,3.0,27.0,79.18718750000001,-5.32,23.300220312500002,35.23
2021-07-08 16:09:58.179687500,-59.25,3.0,27.0,79.18796875,-6.145,23.30082078125,35.23
2021-07-08 16:09:58.187500000,-59.0,3.0,27.0,79.18875,-6.97,23.30142125,35.23
2021-07-08 16:09:58.195312500,-59.0,3.0,27.0,79.18953125,-7.890000000000001,23.30202171875,35.23
2021-07-08 16:09:58.203125000,-59.0,3.0,27.0,79.1903125,-8.81,23.3026221875,35.23
2021-07-08 16:09:58.210937500,-59.0,3.0,27.0,79.19109375000001,-9.79,23.30322265625,35.23
2021-07-08 16:09:58.218750000,-59.0,3.0,27.0,79.191875,-10.77,23.303823125,35.23
2021-07-08 16:09:58.226562500,-59.25,3.0,27.0,79.19265625,-11.719999999999999,23.304423593750002,35.23
2021-07-08 16:09:58.234375000,-59.5,3.0,27.0,79.1934375,-12.67,23.305024062500003,35.23
2021-07-08 16:09:58.242187500,-59.75,3.0,27.0,79.19421875,-13.52,23.30562453125,35.23
2021-07-08 16:09:58.250000000,-60.0,3.0,27.0,79.195,-14.37,23.306225,35.23
2021-07-08 16:09:58.257812500,-60.0,3.25,27.0,79.19578125,-15.114999999999998,23.306024843750002,35.23
2021-07-08 16:09:58.265625000,-60.0,3.5,27.0,79.1965625,-15.86,23.3058246875,35.23
2021-07-08 16:09:58.273437500,-60.0,3.75,27.0,79.19734375,-16.560000000000002,23.30562453125,35.23
2021-07-08 16:09:58.281250000,-60.0,4.0,27.0,79.198125,-17.26,23.305424375,35.23
2021-07-08 16:09:58.289062500,-59.75,4.0,27.0,79.19890625,-18.0,23.305224218750002,35.23
2021-07-08 16:09:58.296875000,-59.5,4.0,27.0,79.1996875,-18.74,23.305024062500003,35.23
2021-07-08 16:09:58.304687500,-59.25,4.0,27.0,79.20046875,-19.585,23.30482390625,35.23
2021-07-08 16:09:58.312500000,-59.0,4.0,27.0,79.20125,-20.43,23.30462375,35.23
2021-07-08 16:09:58.320312500,-59.0,4.0,27.0,79.20203125,-21.33,23.304423593750002,35.23
2021-07-08 16:09:58.328125000,-59.0,4.0,27.0,79.2028125,-22.23,23.3042234375,35.23
2021-07-08 16:09:58.335937500,-59.0,4.0,27.0,79.20359375,-23.025,23.30402328125,35.23
2021-07-08 16:09:58.343750000,-59.0,4.0,27.0,79.204375,-23.82,23.303823125,35.23
2021-07-08 16:09:58.351562500,-59.0,4.0,27.0,79.20515625,-24.28,23.303622968750002,35.23
2021-07-08 16:09:58.359375000,-59.0,4.0,27.0,79.2059375,-24.74,23.303422812500003,35.23
2021-07-08 16:09:58.367187500,-59.0,4.0,27.0,79.20671875,-24.619999999999997,23.30322265625,35.23
2021-07-08 16:09:58.375000000,-59.0,4.0,27.0,79.2075,-24.5,23.3030225,35.23
2021-07-08 16:09:58.382812500,-59.0,3.75,27.0,79.20828125,-23.630000000000003,23.30282234375,35.23
2021-07-08 16:09:58.390625000,-59.0,3.5,27.0,79.2090625,-22.76,23.3026221875,35.23
2021-07-08 16:09:58.398437500,-59.0,3.25,27.0,79.20984375,-21.1,23.30242203125,35.23
2021-07-08 16:09:58.406250000,-59.0,3.0,27.0,79.210625,-19.44,23.302221875,35.23
2021-07-08 16:09:58.414062500,-59.0,3.0,27.0,79.21140625,-17.080000000000002,23.30202171875,35.23
2021-07-08 16:09:58.421875000,-59.0,3.0,27.0,79.2121875,-14.72,23.301821562500002,35.23
2021-07-08 16:09:58.429687500,-59.0,3.0,27.0,79.21296875,-11.879999999999999,23.30162140625,35.23
2021-07-08 16:09:58.437500000,-59.0,3.0,27.0,79.21375,-9.04,23.30142125,35.23
2021-07-08 16:09:58.445312500,-59.0,3.25,27.0,79.21453125,-6.0,23.30122109375,35.23
2021-07-08 16:09:58.453125000,-59.0,3.5,27.0,79.2153125,-2.96,23.3010209375,35.23
2021-07-08 16:09:58.460937500,-59.0,3.75,27.0,79.21609375,0.004999999999999893,23.30082078125,35.23
2021-07-08 16:09:58.468750000,-59.0,4.0,27.0,79.216875,2.97,23.300620625,35.23
2021-07-08 16:09:58.476562500,-59.0,4.0,27.0,79.21765625,5.640000000000001,23.30042046875,35.23
2021-07-08 16:09:58.484375000,-59.0,4.0,27.0,79.2184375,8.31,23.300220312500002,35.23
2021-07-08 16:09:58.492187500,-59.0,4.0,27.0,79.21921875,10.56,23.30002015625,35.23
2021-07-08 16:09:58.500000000,-59.0,4.0,27.0,79.22,12.81,23.29982,35.23
2021-07-08 16:09:58.507812500,-59.0,3.75,27.0,79.22078125,14.565000000000001,23.30038046875,35.23
2021-07-08 16:09:58.515625000,-59.0,3.5,27.0,79.2215625,16.32,23.300940937500002,35.23
2021-07-08 16:09:58.523437500,-59.0,3.25,27.0,79.22234375,17.585,23.30150140625,35.23
2021-07-08 16:09:58.531250000,-59.0,3.0,27.0,79.223125,18.85,23.302061875,35.23
2021-07-08 16:09:58.539062500,-59.0,3.25,27.0,79.22390625,19.625,23.30262234375,35.23
2021-07-08 16:09:58.546875000,-59.0,3.5,27.0,79.2246875,20.4,23.3031828125,35.23
2021-07-08 16:09:58.554687500,-59.0,3.75,27.0,79.22546875,20.7,23.30374328125,35.23
2021-07-08 16:09:58.562500000,-59.0,4.0,27.0,79.22625,21.0,23.30430375,35.23
2021-07-08 16:09:58.570312500,-59.0,4.0,27.0,79.22703125,20.869999999999997,23.30486421875,35.23
2021-07-08 16:09:58.578125000,-59.0,4.0,27.0,79.2278125,20.74,23.3054246875,35.23
2021-07-08 16:09:58.585937500,-59.0,4.0,27.0,79.22859375,20.24,23.30598515625,35.23
2021-07-08 16:09:58.593750000,-59.0,4.0,27.0,79.229375,19.74,23.306545625,35.23
2021-07-08 16:09:58.601562500,-59.0,4.0,27.0,79.23015625,18.985,23.30710609375,35.23
2021-07-08 16:09:58.609375000,-59.0,4.0,27.0,79.2309375,18.23,23.3076665625,35.23
2021-07-08 16:09:58.617187500,-59.0,4.0,27.0,79.23171875,17.36,23.30822703125,35.23
2021-07-08 16:09:58.625000000,-59.0,4.0,27.0,79.2325,16.49,23.3087875,35.23
2021-07-08 16:09:58.632812500,-59.0,4.0,27.0,79.23328125,15.634999999999998,23.30934796875,35.23
2021-07-08 16:09:58.640625000,-59.0,4.0,27.0,79.2340625,14.78,23.3099084375,35.23
2021-07-08 16:09:58.648437500,-59.0,4.0,27.0,79.23484375,14.02,23.310468906249998,35.23
2021-07-08 16:09:58.656250000,-59.0,4.0,27.0,79.235625,13.26,23.311029375,35.23
2021-07-08 16:09:58.664062500,-59.0,4.0,27.0,79.23640625,12.620000000000001,23.31158984375,35.23
2021-07-08 16:09:58.671875000,-59.0,4.0,27.0,79.2371875,11.98,23.3121503125,35.23
2021-07-08 16:09:58.679687500,-59.0,4.0,27.0,79.23796875,11.445,23.312710781249997,35.23
2021-07-08 16:09:58.687500000,-59.0,4.0,27.0,79.23875,10.91,23.31327125,35.23
2021-07-08 16:09:58.695312500,-59.0,4.0,27.0,79.23953125,10.440000000000001,23.31383171875,35.23
2021-07-08 16:09:58.703125000,-59.0,4.0,27.0,79.2403125,9.97,23.314392187499998,35.23
2021-07-08 16:09:58.710937500,-59.0,4.0,27.0,79.24109375,9.530000000000001,23.31495265625,35.23
2021-07-08 16:09:58.718750000,-59.0,4.0,27.0,79.241875,9.09,23.315513125,35.23
2021-07-08 16:09:58.726562500,-59.0,4.0,27.0,79.24265625,8.68,23.316073593749998,35.23
2021-07-08 16:09:58.734375000,-59.0,4.0,27.0,79.2434375,8.27,23.316634062499997,35.23
2021-07-08 16:09:58.742187500,-59.0,4.0,27.0,79.24421875,7.88,23.31719453125,35.23
2021-07-08 16:09:58.750000000,-59.0,4.0,27.0,79.245,7.49,23.317755,35.23
2021-07-08 16:09:58.757812500,-59.0,4.0,27.0,79.24578125,7.115,23.317514781249997,35.23
2021-07-08 16:09:58.765625000,-59.0,4.0,27.0,79.2465625,6.74,23.3172745625,35.23
2021-07-08 16:09:58.773437500,-59.0,4.0,27.0,79.24734375,6.35,23.31703434375,35.23
2021-07-08 16:09:58.781250000,-59.0,4.0,27.0,79.248125,5.96,23.316794124999998,35.23
2021-07-08 16:09:58.789062500,-59.0,4.0,27.0,79.24890624999999,5.495,23.31655390625,35.23
2021-07-08 16:09:58.796875000,-59.0,4.0,27.0,79.2496875,5.03,23.3163136875,35.23
2021-07-08 16:09:58.804687500,-59.0,4.0,27.0,79.25046875,4.44,23.316073468749998,35.23
2021-07-08 16:09:58.812500000,-59.0,4.0,27.0,79.25125,3.85,23.315833249999997,35.23
2021-07-08 16:09:58.820312500,-59.0,4.0,27.0,79.25203125,3.1,23.31559303125,35.23
2021-07-08 16:09:58.828125000,-59.0,4.0,27.0,79.25281249999999,2.35,23.3153528125,35.23
2021-07-08 16:09:58.835937500,-59.0,4.0,27.0,79.25359375,1.4500000000000002,23.315112593749998,35.23
2021-07-08 16:09:58.843750000,-59.0,4.0,27.0,79.254375,0.55,23.314872375,35.23
2021-07-08 16:09:58.851562500,-59.0,3.75,27.0,79.25515625,-0.45499999999999985,23.31463215625,35.23
2021-07-08 16:09:58.859375000,-59.0,3.5,27.0,79.2559375,-1.46,23.314391937499998,35.23
2021-07-08 16:09:58.867187500,-59.0,3.25,27.0,79.25671874999999,-2.5,23.31415171875,35.23
2021-07-08 16:09:58.875000000,-59.0,3.0,27.0,79.2575,-3.54,23.3139115,35.23
2021-07-08 16:09:58.882812500,-59.0,3.0,27.0,79.25828125,-4.525,23.31367128125,35.23
2021-07-08 16:09:58.890625000,-59.0,3.0,27.0,79.2590625,-5.51,23.3134310625,35.23
2021-07-08 16:09:58.898437500,-59.0,3.0,27.0,79.25984375,-6.404999999999999,23.31319084375,35.23
2021-07-08 16:09:58.906250000,-59.0,3.0,27.0,79.26062499999999,-7.3,23.312950625,35.23
2021-07-08 16:09:58.914062500,-59.0,3.25,27.0,79.26140625,-8.09,23.31271040625,35.23
2021-07-08 16:09:58.921875000,-59.0,3.5,27.0,79.2621875,-8.88,23.3124701875,35.23
2021-07-08 16:09:58.929687500,-59.0,3.75,27.0,79.26296875,-9.605,23.31222996875,35.23
2021-07-08 16:09:58.937500000,-59.0,4.0,27.0,79.26375,-10.33,23.311989750000002,35.23
2021-07-08 16:09:58.945312500,-59.0,4.0,27.0,79.26453124999999,-11.07,23.31174953125,35.23
2021-07-08 16:09:58.953125000,-59.0,4.0,27.0,79.2653125,-11.81,23.3115093125,35.23
2021-07-08 16:09:58.960937500,-59.0,4.0,27.0,79.26609375,-12.665,23.31126909375,35.23
2021-07-08 16:09:58.968750000,-59.0,4.0,27.0,79.266875,-13.52,23.311028875,35.23
2021-07-08 16:09:58.976562500,-59.0,4.0,27.0,79.26765625,-14.59,23.31078865625,35.23
2021-07-08 16:09:58.984375000,-59.0,4.0,27.0,79.26843749999999,-15.66,23.3105484375,35.23
2021-07-08 16:09:58.992187500,-59.0,4.0,27.0,79.26921875,-16.955,23.310308218750002,35.23
2021-07-08 16:09:59.000000000,-59.0,4.0,27.0,79.27,-18.25,23.310068,35.23
2021-07-08 16:09:59.007812500,-59.0,4.0,27.0,79.27101562499999,-19.72,23.308666875,35.230624999999996
2021-07-08 16:09:59.015625000,-59.0,4.0,27.0,79.27203125,-21.19,23.307265750000003,35.231249999999996
2021-07-08 16:09:59.023437500,-59.0,4.0,27.0,79.27304687499999,-22.645000000000003,23.305864625,35.231874999999995
2021-07-08 16:09:59.031250000,-59.0,4.0,27.0,79.2740625,-24.1,23.3044635,35.232499999999995
2021-07-08 16:09:59.039062500,-59.0,4.0,27.0,79.275078125,-25.285,23.303062375,35.233124999999994
2021-07-08 16:09:59.046875000,-59.0,4.0,27.0,79.27609375,-26.47,23.301661250000002,35.23375
2021-07-08 16:09:59.054687500,-59.0,4.0,27.0,79.277109375,-27.09,23.300260125,35.234375
2021-07-08 16:09:59.062500000,-59.0,4.0,27.0,79.278125,-27.71,23.298859,35.235
2021-07-08 16:09:59.070312500,-59.0,4.0,27.0,79.279140625,-27.55,23.297457875000003,35.235625
2021-07-08 16:09:59.078125000,-59.0,4.0,27.0,79.28015624999999,-27.39,23.29605675,35.23625
2021-07-08 16:09:59.085937500,-59.0,4.0,27.0,79.281171875,-26.36,23.294655625,35.236875
2021-07-08 16:09:59.093750000,-59.0,4.0,27.0,79.28218749999999,-25.33,23.2932545,35.2375
2021-07-08 16:09:59.101562500,-59.0,4.0,27.0,79.283203125,-23.515,23.291853375000002,35.238125
2021-07-08 16:09:59.109375000,-59.0,4.0,27.0,79.28421875,-21.7,23.29045225,35.238749999999996
2021-07-08 16:09:59.117187500,-59.0,4.0,27.0,79.285234375,-19.305,23.289051125,35.239374999999995
2021-07-08 16:09:59.125000000,-59.0,4.0,27.0,79.28625,-16.91,23.28765,35.239999999999995
2021-07-08 16:09:59.132812500,-59.0,4.0,27.0,79.287265625,-14.219999999999999,23.286248875000002,35.240625
2021-07-08 16:09:59.140625000,-59.0,4.0,27.0,79.28828125,-11.53,23.28484775,35.24125
2021-07-08 16:09:59.148437500,-59.0,4.0,27.0,79.28929687499999,-8.8,23.283446625,35.241875
2021-07-08 16:09:59.156250000,-59.0,4.0,27.0,79.2903125,-6.07,23.282045500000002,35.2425
2021-07-08 16:09:59.164062500,-59.0,4.0,27.0,79.29132812499999,-3.49,23.280644375,35.243125
2021-07-08 16:09:59.171875000,-59.0,4.0,27.0,79.29234375,-0.91,23.27924325,35.24375
2021-07-08 16:09:59.179687500,-59.0,4.0,27.0,79.293359375,1.3849999999999998,23.277842125,35.244375
2021-07-08 16:09:59.187500000,-59.0,4.0,27.0,79.294375,3.68,23.276441000000002,35.245
2021-07-08 16:09:59.195312500,-59.0,4.0,27.0,79.295390625,5.61,23.275039875,35.245625
2021-07-08 16:09:59.203125000,-59.0,4.0,27.0,79.29640625,7.54,23.27363875,35.246249999999996
2021-07-08 16:09:59.210937500,-59.0,4.0,27.0,79.297421875,9.035,23.272237625000002,35.246875
2021-07-08 16:09:59.218750000,-59.0,4.0,27.0,79.29843749999999,10.53,23.2708365,35.2475
2021-07-08 16:09:59.226562500,-59.0,4.0,27.0,79.299453125,11.559999999999999,23.269435375,35.248125
2021-07-08 16:09:59.234375000,-59.0,4.0,27.0,79.30046875,12.59,23.26803425,35.24875
2021-07-08 16:09:59.242187500,-59.0,4.0,27.0,79.301484375,13.135,23.266633125000002,35.249375
2021-07-08 16:09:59.250000000,-59.0,4.0,27.0,79.3025,13.68,23.265232,35.25
2021-07-08 16:09:59.257812500,-59.0,4.0,27.0,79.303515625,13.76,23.2655923125,35.25
2021-07-08 16:09:59.265625000,-59.0,4.0,27.0,79.30453125,13.84,23.265952625,35.25
2021-07-08 16:09:59.273437500,-59.0,4.0,27.0,79.305546875,13.525,23.2663129375,35.25
2021-07-08 16:09:59.281250000,-59.0,4.0,27.0,79.3065625,13.21,23.26667325,35.25
2021-07-08 16:09:59.289062500,-59.0,4.0,27.0,79.30757812499999,12.615,23.2670335625,35.25
2021-07-08 16:09:59.296875000,-59.0,4.0,27.0,79.30859375,12.02,23.267393875,35.25
2021-07-08 16:09:59.304687500,-59.0,4.0,27.0,79.309609375,11.254999999999999,23.2677541875,35.25
2021-07-08 16:09:59.312500000,-59.0,4.0,27.0,79.310625,10.49,23.268114500000003,35.25
2021-07-08 16:09:59.320312500,-59.0,4.0,27.0,79.311640625,9.67,23.268474812500003,35.25
2021-07-08 16:09:59.328125000,-59.0,4.0,27.0,79.31265625,8.85,23.268835125000003,35.25
2021-07-08 16:09:59.335937500,-59.0,4.0,27.0,79.313671875,8.059999999999999,23.269195437500002,35.25
2021-07-08 16:09:59.343750000,-59.0,4.0,27.0,79.3146875,7.27,23.269555750000002,35.25
2021-07-08 16:09:59.351562500,-59.0,4.0,27.0,79.315703125,6.595,23.269916062500002,35.25
2021-07-08 16:09:59.359375000,-59.0,4.0,27.0,79.31671874999999,5.92,23.270276375,35.25
2021-07-08 16:09:59.367187500,-59.0,4.0,27.0,79.317734375,5.390000000000001,23.2706366875,35.25
2021-07-08 16:09:59.375000000,-59.0,4.0,27.0,79.31875,4.86,23.270997,35.25
2021-07-08 16:09:59.382812500,-59.0,4.0,27.0,79.319765625,4.485,23.2713573125,35.25
2021-07-08 16:09:59.390625000,-59.0,4.0,27.0,79.32078125,4.11,23.271717625,35.25
2021-07-08 16:09:59.398437500,-59.0,4.0,27.0,79.321796875,3.87,23.2720779375,35.25
2021-07-08 16:09:59.406250000,-59.0,4.0,27.0,79.3228125,3.63,23.27243825,35.25
2021-07-08 16:09:59.414062500,-59.0,4.0,27.0,79.323828125,3.4749999999999996,23.2727985625,35.25
2021-07-08 16:09:59.421875000,-59.0,4.0,27.0,79.32484375,3.32,23.273158875,35.25
2021-07-08 16:09:59.429687500,-59.0,4.0,27.0,79.325859375,3.205,23.2735191875,35.25
2021-07-08 16:09:59.437500000,-59.0,4.0,27.0,79.326875,3.09,23.2738795,35.25
2021-07-08 16:09:59.445312500,-59.0,4.0,27.0,79.327890625,2.99,23.274239812500003,35.25
2021-07-08 16:09:59.453125000,-59.0,4.0,27.0,79.32890625,2.89,23.274600125000003,35.25
2021-07-08 16:09:59.460937500,-59.0,4.0,27.0,79.329921875,2.785,23.274960437500003,35.25
2021-07-08 16:09:59.468750000,-59.0,4.0,27.0,79.3309375,2.68,23.275320750000002,35.25
2021-07-08 16:09:59.476562500,-59.0,4.0,27.0,79.331953125,2.535,23.275681062500002,35.25
2021-07-08 16:09:59.484375000,-59.0,4.0,27.0,79.33296875,2.39,23.276041375000002,35.25
2021-07-08 16:09:59.492187500,-59.0,4.0,27.0,79.333984375,2.1550000000000002,23.2764016875,35.25
2021-07-08 16:09:59.500000000,-59.0,4.0,27.0,79.33500000000001,1.92,23.276762,35.25
2021-07-08 16:09:59.507812500,-59.0,4.0,27.0,79.336015625,1.545,23.277882875000003,35.25
2021-07-08 16:09:59.515625000,-59.0,4.0,27.0,79.33703125,1.17,23.27900375,35.25
2021-07-08 16:09:59.523437500,-59.0,4.0,27.0,79.338046875,0.605,23.280124625000003,35.25
2021-07-08 16:09:59.531250000,-59.0,4.0,27.0,79.3390625,0.04,23.2812455,35.25
2021-07-08 16:09:59.539062500,-59.0,4.0,27.0,79.340078125,-0.705,23.282366375000002,35.25
2021-07-08 16:09:59.546875000,-59.0,4.0,27.0,79.34109375,-1.45,23.28348725,35.25
2021-07-08 16:09:59.554687500,-59.0,4.0,27.0,79.342109375,-2.3,23.284608125000002,35.25
2021-07-08 16:09:59.562500000,-59.0,4.0,27.0,79.343125,-3.15,23.285729,35.25
2021-07-08 16:09:59.570312500,-59.0,4.0,27.0,79.34414062500001,-4.0,23.286849875,35.25
2021-07-08 16:09:59.578125000,-59.0,4.0,27.0,79.34515625,-4.85,23.28797075,35.25
2021-07-08 16:09:59.585937500,-59.0,4.0,27.0,79.346171875,-5.6,23.289091625,35.25
2021-07-08 16:09:59.593750000,-59.0,4.0,27.0,79.3471875,-6.35,23.2902125,35.25
2021-07-08 16:09:59.601562500,-59.0,4.0,27.0,79.348203125,-6.97,23.291333375,35.25
2021-07-08 16:09:59.609375000,-59.0,4.0,27.0,79.34921875,-7.59,23.29245425,35.25
2021-07-08 16:09:59.617187500,-59.0,4.0,27.0,79.350234375,-8.115,23.293575125,35.25
2021-07-08 16:09:59.625000000,-59.0,4.0,27.0,79.35125000000001,-8.64,23.294696000000002,35.25
2021-07-08 16:09:59.632812500,-59.0,4.0,27.0,79.352265625,-9.165,23.295816875,35.25
2021-07-08 16:09:59.640625000,-59.0,4.0,27.0,79.35328125000001,-9.69,23.29693775,35.25
2021-07-08 16:09:59.648437500,-59.0,4.0,27.0,79.354296875,-10.305,23.298058625,35.25
2021-07-08 16:09:59.656250000,-59.0,4.0,27.0,79.3553125,-10.92,23.2991795,35.25
2021-07-08 16:09:59.664062500,-59.0,4.0,27.0,79.356328125,-11.665,23.300300375,35.25
2021-07-08 16:09:59.671875000,-59.0,4.0,27.0,79.35734375,-12.41,23.30142125,35.25
2021-07-08 16:09:59.679687500,-59.0,4.0,27.0,79.358359375,-13.29,23.302542125,35.25
2021-07-08 16:09:59.687500000,-59.0,4.0,27.0,79.359375,-14.17,23.303663,35.25
2021-07-08 16:09:59.695312500,-59.25,4.0,27.0,79.36039062500001,-15.125,23.304783875,35.25
2021-07-08 16:09:59.703125000,-59.5,4.0,27.0,79.36140625,-16.08,23.30590475,35.25
2021-07-08 16:09:59.710937500,-59.75,4.0,27.0,79.36242187500001,-17.025,23.307025624999998,35.25
2021-07-08 16:09:59.718750000,-60.0,4.0,27.0,79.3634375,-17.97,23.3081465,35.25
2021-07-08 16:09:59.726562500,-59.75,3.75,27.0,79.364453125,-18.78,23.309267374999997,35.25
2021-07-08 16:09:59.734375000,-59.5,3.5,27.0,79.36546875,-19.59,23.31038825,35.25
2021-07-08 16:09:59.742187500,-59.25,3.25,27.0,79.366484375,-20.115000000000002,23.311509124999997,35.25
2021-07-08 16:09:59.750000000,-59.0,3.0,27.0,79.3675,-20.64,23.31263,35.25
2021-07-08 16:09:59.757812500,-59.0,3.0,27.0,79.368515625,-20.71,23.3115491875,35.25
2021-07-08 16:09:59.765625000,-59.0,3.0,27.0,79.36953125000001,-20.78,23.310468375,35.25
2021-07-08 16:09:59.773437500,-59.0,3.0,27.0,79.370546875,-20.225,23.3093875625,35.25
2021-07-08 16:09:59.781250000,-59.0,3.0,27.0,79.37156250000001,-19.67,23.30830675,35.25
2021-07-08 16:09:59.789062500,-59.0,3.0,27.0,79.372578125,-18.415,23.3072259375,35.25
2021-07-08 16:09:59.796875000,-59.0,3.0,27.0,79.37359375,-17.16,23.306145125,35.25
2021-07-08 16:09:59.804687500,-59.0,3.0,27.0,79.374609375,-15.24,23.3050643125,35.25
2021-07-08 16:09:59.812500000,-59.0,3.0,27.0,79.375625,-13.32,23.3039835,35.25
2021-07-08 16:09:59.820312500,-59.25,3.25,27.0,79.37664062500001,-10.91,23.302902687499998,35.25
2021-07-08 16:09:59.828125000,-59.5,3.5,27.0,79.37765625,-8.5,23.301821874999998,35.25
2021-07-08 16:09:59.835937500,-59.75,3.75,27.0,79.37867187500001,-5.86,23.3007410625,35.25
2021-07-08 16:09:59.843750000,-60.0,4.0,27.0,79.3796875,-3.22,23.29966025,35.25
2021-07-08 16:09:59.851562500,-59.75,3.75,27.0,79.38070312500001,-0.6200000000000001,23.2985794375,35.25
2021-07-08 16:09:59.859375000,-59.5,3.5,27.0,79.38171875,1.98,23.297498625,35.25
2021-07-08 16:09:59.867187500,-59.25,3.25,27.0,79.382734375,4.35,23.2964178125,35.25
2021-07-08 16:09:59.875000000,-59.0,3.0,27.0,79.38375,6.72,23.295337,35.25
2021-07-08 16:09:59.882812500,-59.0,3.25,27.0,79.384765625,8.73,23.2942561875,35.25
2021-07-08 16:09:59.890625000,-59.0,3.5,27.0,79.38578125000001,10.74,23.293175375,35.25
2021-07-08 16:09:59.898437500,-59.0,3.75,27.0,79.386796875,12.36,23.2920945625,35.25
2021-07-08 16:09:59.906250000,-59.0,4.0,27.0,79.38781250000001,13.98,23.29101375,35.25
2021-07-08 16:09:59.914062500,-59.0,4.0,27.0,79.388828125,15.195,23.2899329375,35.25
2021-07-08 16:09:59.921875000,-59.0,4.0,27.0,79.38984375000001,16.41,23.288852125000002,35.25
2021-07-08 16:09:59.929687500,-59.0,4.0,27.0,79.390859375,17.235,23.287771312500002,35.25
2021-07-08 16:09:59.937500000,-59.0,4.0,27.0,79.391875,18.06,23.2866905,35.25
2021-07-08 16:09:59.945312500,-59.0,4.0,27.0,79.392890625,18.490000000000002,23.2856096875,35.25
2021-07-08 16:09:59.953125000,-59.0,4.0,27.0,79.39390625,18.92,23.284528875,35.25
2021-07-08 16:09:59.960937500,-59.0,4.0,27.0,79.39492187500001,19.0,23.2834480625,35.25
2021-07-08 16:09:59.968750000,-59.0,4.0,27.0,79.3959375,19.08,23.28236725,35.25
2021-07-08 16:09:59.976562500,-59.25,3.75,27.0,79.39695312500001,18.88,23.2812864375,35.25
2021-07-08 16:09:59.984375000,-59.5,3.5,27.0,79.39796875,18.68,23.280205625,35.25
2021-07-08 16:09:59.992187500,-59.75,3.25,27.0,79.39898437500001,18.295,23.2791248125,35.25
2021-07-08 16:10:00.000000000,-60.0,3.0,27.0,79.4,17.91,23.278044,35.25
2021-07-08 16:10:00.007812500,-60.0,3.0,27.0,79.401015625,17.435000000000002,23.2772433125,35.25
2021-07-08 16:10:00.015625000,-60.0,3.0,27.0,79.40203125000001,16.96,23.276442625,35.25
2021-07-08 16:10:00.023437500,-60.0,3.0,27.0,79.403046875,16.47,23.2756419375,35.25
2021-07-08 16:10:00.031250000,-60.0,3.0,27.0,79.40406250000001,15.98,23.27484125,35.25
2021-07-08 16:10:00.039062500,-59.75,3.0,27.0,79.405078125,15.49,23.2740405625,35.25
2021-07-08 16:10:00.046875000,-59.5,3.0,27.0,79.40609375000001,15.0,23.273239875,35.25
2021-07-08 16:10:00.054687500,-59.25,3.0,27.0,79.407109375,14.52,23.2724391875,35.25
2021-07-08 16:10:00.062500000,-59.0,3.0,27.0,79.40812500000001,14.04,23.2716385,35.25
2021-07-08 16:10:00.070312500,-59.0,3.0,27.0,79.409140625,13.575,23.2708378125,35.25
2021-07-08 16:10:00.078125000,-59.0,3.0,27.0,79.41015625,13.11,23.270037125,35.25
2021-07-08 16:10:00.085937500,-59.0,3.0,27.0,79.41117187500001,12.69,23.269236437500002,35.25
2021-07-08 16:10:00.093750000,-59.0,3.0,27.0,79.4121875,12.27,23.268435750000002,35.25
2021-07-08 16:10:00.101562500,-59.0,3.0,27.0,79.41320312500001,11.92,23.267635062500002,35.25
2021-07-08 16:10:00.109375000,-59.0,3.0,27.0,79.41421875,11.57,23.266834375000002,35.25
2021-07-08 16:10:00.117187500,-59.0,3.0,27.0,79.41523437500001,11.305,23.266033687500002,35.25
2021-07-08 16:10:00.125000000,-59.0,3.0,27.0,79.41625,11.04,23.265233000000002,35.25
2021-07-08 16:10:00.132812500,-59.25,3.25,27.0,79.417265625,10.835,23.2644323125,35.25
2021-07-08 16:10:00.140625000,-59.5,3.5,27.0,79.41828125,10.63,23.263631625,35.25
2021-07-08 16:10:00.148437500,-59.75,3.75,27.0,79.419296875,10.45,23.2628309375,35.25
2021-07-08 16:10:00.156250000,-60.0,4.0,27.0,79.42031250000001,10.27,23.26203025,35.25
2021-07-08 16:10:00.164062500,-59.75,4.0,27.0,79.421328125,10.045,23.2612295625,35.25
2021-07-08 16:10:00.171875000,-59.5,4.0,27.0,79.42234375000001,9.82,23.260428875,35.25
2021-07-08 16:10:00.179687500,-59.25,4.0,27.0,79.423359375,9.51,23.2596281875,35.25
2021-07-08 16:10:00.187500000,-59.0,4.0,27.0,79.424375,9.2,23.2588275,35.25
2021-07-08 16:10:00.195312500,-59.0,4.0,27.0,79.425390625,8.774999999999999,23.2580268125,35.25
2021-07-08 16:10:00.203125000,-59.0,4.0,27.0,79.42640625,8.35,23.257226125,35.25
2021-07-08 16:10:00.210937500,-59.0,4.0,27.0,79.42742187500001,7.8,23.2564254375,35.25
2021-07-08 16:10:00.218750000,-59.0,4.0,27.0,79.4284375,7.25,23.25562475,35.25
2021-07-08 16:10:00.226562500,-59.0,3.75,27.0,79.42945312500001,6.585,23.2548240625,35.25
2021-07-08 16:10:00.234375000,-59.0,3.5,27.0,79.43046875,5.92,23.254023375,35.25
2021-07-08 16:10:00.242187500,-59.0,3.25,27.0,79.43148437500001,5.165,23.2532226875,35.25
2021-07-08 16:10:00.250000000,-59.0,3.0,27.0,79.4325,4.41,23.252422,35.25
2021-07-08 16:10:00.257812500,-59.25,3.0,27.0,79.433515625,3.585,23.2531025625,35.25
2021-07-08 16:10:00.265625000,-59.5,3.0,27.0,79.43453125,2.76,23.253783124999998,35.25
2021-07-08 16:10:00.273437500,-59.75,3.0,27.0,79.435546875,1.89,23.2544636875,35.25
2021-07-08 16:10:00.281250000,-60.0,3.0,27.0,79.43656250000001,1.02,23.25514425,35.25
2021-07-08 16:10:00.289062500,-60.0,3.0,27.0,79.437578125,0.125,23.2558248125,35.25
2021-07-08 16:10:00.296875000,-60.0,3.0,27.0,79.43859375000001,-0.77,23.256505375,35.25
2021-07-08 16:10:00.304687500,-60.0,3.0,27.0,79.439609375,-1.67,23.2571859375,35.25
2021-07-08 16:10:00.312500000,-60.0,3.0,27.0,79.44062500000001,-2.57,23.2578665,35.25
2021-07-08 16:10:00.320312500,-59.75,3.0,27.0,79.441640625,-3.4699999999999998,23.2585470625,35.25
2021-07-08 16:10:00.328125000,-59.5,3.0,27.0,79.44265625,-4.37,23.259227625,35.25
2021-07-08 16:10:00.335937500,-59.25,3.0,27.0,79.443671875,-5.265000000000001,23.2599081875,35.25
2021-07-08 16:10:00.343750000,-59.0,3.0,27.0,79.4446875,-6.16,23.26058875,35.25
2021-07-08 16:10:00.351562500,-59.0,3.0,27.0,79.44570312500001,-7.055,23.2612693125,35.25
2021-07-08 16:10:00.359375000,-59.0,3.0,27.0,79.44671875,-7.95,23.261949875,35.25
2021-07-08 16:10:00.367187500,-59.0,3.0,27.0,79.44773437500001,-8.86,23.2626304375,35.25
2021-07-08 16:10:00.375000000,-59.0,3.0,27.0,79.44875,-9.77,23.263311,35.25
2021-07-08 16:10:00.382812500,-59.0,3.0,27.0,79.449765625,-10.7,23.2639915625,35.25
2021-07-08 16:10:00.390625000,-59.0,3.0,27.0,79.45078125,-11.63,23.264672125,35.25
2021-07-08 16:10:00.398437500,-59.0,3.0,27.0,79.451796875,-12.565000000000001,23.2653526875,35.25
2021-07-08 16:10:00.406250000,-59.0,3.0,27.0,79.45281250000001,-13.5,23.26603325,35.25
2021-07-08 16:10:00.414062500,-59.25,3.0,27.0,79.453828125,-14.370000000000001,23.2667138125,35.25
2021-07-08 16:10:00.421875000,-59.5,3.0,27.0,79.45484375000001,-15.24,23.267394375,35.25
2021-07-08 16:10:00.429687500,-59.75,3.0,27.0,79.455859375,-15.89,23.2680749375,35.25
2021-07-08 16:10:00.437500000,-60.0,3.0,27.0,79.456875,-16.54,23.2687555,35.25
2021-07-08 16:10:00.445312500,-60.0,3.25,26.75,79.457890625,-16.795,23.2694360625,35.25
2021-07-08 16:10:00.453125000,-60.0,3.5,26.5,79.45890625,-17.05,23.270116625,35.25
2021-07-08 16:10:00.460937500,-60.0,3.75,26.25,79.459921875,-16.71,23.2707971875,35.25
2021-07-08 16:10:00.468750000,-60.0,4.0,26.0,79.4609375,-16.37,23.27147775,35.25
2021-07-08 16:10:00.476562500,-59.75,3.75,26.25,79.46195312500001,-15.34,23.2721583125,35.25
2021-07-08 16:10:00.484375000,-59.5,3.5,26.5,79.46296875,-14.31,23.272838875,35.25
2021-07-08 16:10:00.492187500,-59.25,3.25,26.75,79.46398437500001,-12.61,23.2735194375,35.25
2021-07-08 16:10:00.500000000,-59.0,3.0,27.0,79.465,-10.91,23.2742,35.25
2021-07-08 16:10:00.507812500,-59.0,3.0,27.0,79.466015625,-8.7,23.274320125,35.25
2021-07-08 16:10:00.515625000,-59.0,3.0,27.0,79.46703125,-6.49,23.27444025,35.25
2021-07-08 16:10:00.523437500,-59.0,3.0,27.0,79.468046875,-4.005,23.274560375,35.25
2021-07-08 16:10:00.531250000,-59.0,3.0,27.0,79.4690625,-1.52,23.274680500000002,35.25
2021-07-08 16:10:00.539062500,-59.25,3.0,27.0,79.470078125,0.98,23.274800625,35.25
2021-07-08 16:10:00.546875000,-59.5,3.0,27.0,79.47109375000001,3.48,23.27492075,35.25
2021-07-08 16:10:00.554687500,-59.75,3.0,27.0,79.472109375,5.805,23.275040875000002,35.25
2021-07-08 16:10:00.562500000,-60.0,3.0,27.0,79.47312500000001,8.13,23.275161,35.25
2021-07-08 16:10:00.570312500,-60.0,3.0,27.0,79.474140625,10.135000000000002,23.275281125,35.25
2021-07-08 16:10:00.578125000,-60.0,3.0,27.0,79.47515625,12.14,23.27540125,35.25
2021-07-08 16:10:00.585937500,-60.0,3.0,27.0,79.476171875,13.77,23.275521375,35.25
2021-07-08 16:10:00.593750000,-60.0,3.0,27.0,79.4771875,15.4,23.2756415,35.25
2021-07-08 16:10:00.601562500,-59.75,3.0,27.0,79.47820312500001,16.63,23.275761625,35.25
2021-07-08 16:10:00.609375000,-59.5,3.0,27.0,79.47921875,17.86,23.27588175,35.25
2021-07-08 16:10:00.617187500,-59.25,3.0,27.0,79.48023437500001,18.674999999999997,23.276001875000002,35.25
2021-07-08 16:10:00.625000000,-59.0,3.0,27.0,79.48125,19.49,23.276122,35.25
2021-07-08 16:10:00.632812500,-59.0,3.0,27.0,79.482265625,19.909999999999997,23.276242125,35.25
2021-07-08 16:10:00.640625000,-59.0,3.0,27.0,79.48328125,20.33,23.276362250000002,35.25
2021-07-08 16:10:00.648437500,-59.0,3.0,27.0,79.484296875,20.415,23.276482375,35.25
2021-07-08 16:10:00.656250000,-59.0,3.0,27.0,79.4853125,20.5,23.276602500000003,35.25
2021-07-08 16:10:00.664062500,-59.0,3.0,27.0,79.486328125,20.335,23.276722625,35.25
2021-07-08 16:10:00.671875000,-59.0,3.0,27.0,79.48734375000001,20.17,23.27684275,35.25
2021-07-08 16:10:00.679687500,-59.0,3.0,27.0,79.488359375,19.865000000000002,23.276962875000002,35.25
2021-07-08 16:10:00.687500000,-59.0,3.0,27.0,79.489375,19.56,23.277083,35.25
2021-07-08 16:10:00.695312500,-59.25,3.0,27.0,79.490390625,19.25,23.277203125,35.25
2021-07-08 16:10:00.703125000,-59.5,3.0,27.0,79.49140625,18.94,23.277323250000002,35.25
2021-07-08 16:10:00.710937500,-59.75,3.0,27.0,79.492421875,18.71,23.277443375,35.25
2021-07-08 16:10:00.718750000,-60.0,3.0,27.0,79.4934375,18.48,23.2775635,35.25
2021-07-08 16:10:00.726562500,-59.75,3.0,27.0,79.494453125,18.384999999999998,23.277683625,35.25
2021-07-08 16:10:00.734375000,-59.5,3.0,27.0,79.49546875,18.29,23.27780375,35.25
2021-07-08 16:10:00.742187500,-59.25,3.0,27.0,79.49648437500001,18.305,23.277923875000003,35.25
2021-07-08 16:10:00.750000000,-59.0,3.0,27.0,79.4975,18.32,23.278044,35.25
2021-07-08 16:10:00.757812500,-59.0,3.0,27.0,79.498515625,18.395,23.27840425,35.25
2021-07-08 16:10:00.765625000,-59.0,3.0,27.0,79.49953125,18.47,23.2787645,35.25
2021-07-08 16:10:00.773437500,-59.0,3.0,27.0,79.500546875,18.54,23.27912475,35.25
2021-07-08 16:10:00.781250000,-59.0,3.0,27.0,79.5015625,18.61,23.279485,35.25
2021-07-08 16:10:00.789062500,-59.0,3.0,27.0,79.502578125,18.625,23.27984525,35.25
2021-07-08 16:10:00.796875000,-59.0,3.0,27.0,79.50359375000001,18.64,23.2802055,35.25
2021-07-08 16:10:00.804687500,-59.0,3.0,27.0,79.504609375,18.57,23.28056575,35.25
2021-07-08 16:10:00.812500000,-59.0,3.0,27.0,79.50562500000001,18.5,23.280926,35.25
2021-07-08 16:10:00.820312500,-59.25,3.0,26.75,79.506640625,18.355,23.28128625,35.25
2021-07-08 16:10:00.828125000,-59.5,3.0,26.5,79.50765625,18.21,23.2816465,35.25
2021-07-08 16:10:00.835937500,-59.75,3.0,26.25,79.508671875,17.990000000000002,23.28200675,35.25
2021-07-08 16:10:00.843750000,-60.0,3.0,26.0,79.5096875,17.77,23.282367,35.25
2021-07-08 16:10:00.851562500,-59.75,3.0,26.25,79.510703125,17.445,23.28272725,35.25
2021-07-08 16:10:00.859375000,-59.5,3.0,26.5,79.51171875,17.12,23.2830875,35.25
2021-07-08 16:10:00.867187500,-59.25,3.0,26.75,79.51273437500001,16.65,23.28344775,35.25
2021-07-08 16:10:00.875000000,-59.0,3.0,27.0,79.51375,16.18,23.283808,35.25
2021-07-08 16:10:00.882812500,-59.0,3.0,27.0,79.514765625,15.515,23.28416825,35.25
2021-07-08 16:10:00.890625000,-59.0,3.0,27.0,79.51578125,14.85,23.2845285,35.25
2021-07-08 16:10:00.898437500,-59.0,3.0,27.0,79.516796875,13.96,23.28488875,35.25
2021-07-08 16:10:00.906250000,-59.0,3.0,27.0,79.5178125,13.07,23.285249,35.25
2021-07-08 16:10:00.914062500,-59.0,3.0,27.0,79.518828125,11.985,23.28560925,35.25
2021-07-08 16:10:00.921875000,-59.0,3.0,27.0,79.51984375,10.9,23.2859695,35.25
2021-07-08 16:10:00.929687500,-59.0,3.0,27.0,79.520859375,9.690000000000001,23.28632975,35.25
2021-07-08 16:10:00.937500000,-59.0,3.0,27.0,79.521875,8.48,23.28669,35.25
2021-07-08 16:10:00.945312500,-59.25,3.0,27.0,79.522890625,7.255000000000001,23.28705025,35.25
2021-07-08 16:10:00.953125000,-59.5,3.0,27.0,79.52390625,6.03,23.2874105,35.25
2021-07-08 16:10:00.960937500,-59.75,3.0,27.0,79.524921875,4.875,23.28777075,35.25
2021-07-08 16:10:00.968750000,-60.0,3.0,27.0,79.5259375,3.72,23.288131,35.25
2021-07-08 16:10:00.976562500,-60.0,3.0,27.0,79.526953125,2.7,23.28849125,35.25
2021-07-08 16:10:00.984375000,-60.0,3.0,27.0,79.52796875,1.68,23.2888515,35.25
2021-07-08 16:10:00.992187500,-60.0,3.0,27.0,79.52898437500001,0.82,23.28921175,35.25
2021-07-08 16:10:01.000000000,-60.0,3.0,27.0,79.53,-0.04,23.289572,35.25
2021-07-08 16:10:01.007812500,-59.75,3.0,27.0,79.531328125,-0.79,23.28941190625,35.25
2021-07-08 16:10:01.015625000,-59.5,3.0,27.0,79.53265625,-1.54,23.289251812499998,35.25
2021-07-08 16:10:01.023437500,-59.25,3.0,27.0,79.533984375,-2.245,23.28909171875,35.25
2021-07-08 16:10:01.031250000,-59.0,3.0,27.0,79.5353125,-2.95,23.288931625,35.25
2021-07-08 16:10:01.039062500,-59.0,3.0,27.0,79.536640625,-3.72,23.28877153125,35.25
2021-07-08 16:10:01.046875000,-59.0,3.0,27.0,79.53796875,-4.49,23.2886114375,35.25
2021-07-08 16:10:01.054687500,-59.0,3.0,27.0,79.539296875,-5.41,23.28845134375,35.25
2021-07-08 16:10:01.062500000,-59.0,3.0,27.0,79.540625,-6.33,23.28829125,35.25
2021-07-08 16:10:01.070312500,-59.0,3.0,27.0,79.541953125,-7.46,23.28813115625,35.25
2021-07-08 16:10:01.078125000,-59.0,3.0,27.0,79.54328125,-8.59,23.2879710625,35.25
2021-07-08 16:10:01.085937500,-59.0,3.0,27.0,79.54460937500001,-9.885,23.287810968749998,35.25
2021-07-08 16:10:01.093750000,-59.0,3.0,27.0,79.54593750000001,-11.18,23.287650875,35.25
2021-07-08 16:10:01.101562500,-59.25,3.0,27.0,79.547265625,-12.52,23.28749078125,35.25
2021-07-08 16:10:01.109375000,-59.5,3.0,27.0,79.54859375,-13.86,23.2873306875,35.25
2021-07-08 16:10:01.117187500,-59.75,3.0,27.0,79.549921875,-15.055,23.287170593749998,35.25
2021-07-08 16:10:01.125000000,-60.0,3.0,27.0,79.55125,-16.25,23.2870105,35.25
2021-07-08 16:10:01.132812500,-59.75,3.0,27.0,79.552578125,-17.085,23.28685040625,35.25
2021-07-08 16:10:01.140625000,-59.5,3.0,27.0,79.55390625,-17.92,23.2866903125,35.25
