TimeStamp,empatica.acc.x,empatica.acc.y,empatica.acc.z,empatica.hr,empatica.bvp,empatica.eda,empatica.temp
2021-07-08 16:02:36.695312500,-64.75,-26.75,14.75,86.43890625,14.84,14.7103754375,35.09
2021-07-08 16:02:36.703125000,-63.5,-25.5,14.5,86.4340625,14.89,14.712817375,35.09
2021-07-08 16:02:36.710937500,-62.25,-24.25,14.25,86.42921875,14.879999999999999,14.715259312499999,35.09
2021-07-08 16:02:36.718750000,-61.0,-23.0,14.0,86.424375,14.87,14.71770125,35.09
2021-07-08 16:02:36.726562500,-61.25,-20.5,13.0,86.41953125,14.76,14.7201431875,35.09
2021-07-08 16:02:36.734375000,-61.5,-18.0,12.0,86.4146875,14.65,14.722585124999998,35.09
2021-07-08 16:02:36.742187500,-61.75,-15.5,11.0,86.40984375000001,14.39,14.725027062499999,35.09
2021-07-08 16:02:36.750000000,-62.0,-13.0,10.0,86.405,14.13,14.727469,35.09
2021-07-08 16:02:36.757812500,-63.0,-11.5,9.0,86.40015625,13.705,14.736075906249999,35.09
2021-07-08 16:02:36.765625000,-64.0,-10.0,8.0,86.3953125,13.28,14.744682812499999,35.09
2021-07-08 16:02:36.773437500,-65.0,-8.5,7.0,86.39046875,12.715,14.753289718749999,35.09
2021-07-08 16:02:36.781250000,-66.0,-7.0,6.0,86.385625,12.15,14.761896624999999,35.09
2021-07-08 16:02:36.789062500,-62.25,-6.25,6.25,86.38078125,11.504999999999999,14.77050353125,35.09
2021-07-08 16:02:36.796875000,-58.5,-5.5,6.5,86.3759375,10.86,14.7791104375,35.09
2021-07-08 16:02:36.804687500,-54.75,-4.75,6.75,86.37109375,10.175,14.78771734375,35.09
2021-07-08 16:02:36.812500000,-51.0,-4.0,7.0,86.36625000000001,9.49,14.79632425,35.09
2021-07-08 16:02:36.820312500,-47.0,-2.0,7.75,86.36140625,8.775,14.80493115625,35.09
2021-07-08 16:02:36.828125000,-43.0,0.0,8.5,86.3565625,8.06,14.8135380625,35.09
2021-07-08 16:02:36.835937500,-39.0,2.0,9.25,86.35171875,7.315,14.822144968749999,35.09
2021-07-08 16:02:36.843750000,-35.0,4.0,10.0,86.346875,6.57,14.830751875,35.09
2021-07-08 16:02:36.851562500,-35.0,4.0,12.75,86.34203125,5.795,14.83935878125,35.09
2021-07-08 16:02:36.859375000,-35.0,4.0,15.5,86.3371875,5.02,14.8479656875,35.09
2021-07-08 16:02:36.867187500,-35.0,4.0,18.25,86.33234375,4.24,14.85657259375,35.09
2021-07-08 16:02:36.875000000,-35.0,4.0,21.0,86.3275,3.46,14.8651795,35.09
2021-07-08 16:02:36.882812500,-58.25,11.25,27.25,86.32265625,2.75,14.87378640625,35.09
2021-07-08 16:02:36.890625000,-81.5,18.5,33.5,86.3178125,2.04,14.8823933125,35.09
2021-07-08 16:02:36.898437500,-104.75,25.75,39.75,86.31296875,1.525,14.89100021875,35.09
2021-07-08 16:02:36.906250000,-128.0,33.0,46.0,86.308125,1.01,14.899607125,35.09
2021-07-08 16:02:36.914062500,-119.25,30.5,45.5,86.30328125,0.8,14.90821403125,35.09
2021-07-08 16:02:36.921875000,-110.5,28.0,45.0,86.2984375,0.59,14.9168209375,35.09
2021-07-08 16:02:36.929687500,-101.75,25.5,44.5,86.29359375,0.7,14.92542784375,35.09
2021-07-08 16:02:36.937500000,-93.0,23.0,44.0,86.28875,0.81,14.93403475,35.09
2021-07-08 16:02:36.945312500,-76.25,23.0,44.25,86.28390625,1.1,14.94264165625,35.09
2021-07-08 16:02:36.953125000,-59.5,23.0,44.5,86.2790625,1.39,14.9512485625,35.09
2021-07-08 16:02:36.960937500,-42.75,23.0,44.75,86.27421875,1.615,14.95985546875,35.09
2021-07-08 16:02:36.968750000,-26.0,23.0,45.0,86.269375,1.84,14.968462375000001,35.09
2021-07-08 16:02:36.976562500,-23.25,21.75,44.25,86.26453125,1.795,14.977069281250001,35.09
2021-07-08 16:02:36.984375000,-20.5,20.5,43.5,86.2596875,1.75,14.985676187500001,35.09
2021-07-08 16:02:36.992187500,-17.75,19.25,42.75,86.25484375,1.425,14.994283093750001,35.09
2021-07-08 16:02:37.000000000,-15.0,18.0,42.0,86.25,1.1,15.00289,35.09
2021-07-08 16:02:37.007812500,-18.75,15.0,41.75,86.2453125,0.675,15.021507812500001,35.089375000000004
2021-07-08 16:02:37.015625000,-22.5,12.0,41.5,86.240625,0.25,15.040125625,35.088750000000005
2021-07-08 16:02:37.023437500,-26.25,9.0,41.25,86.2359375,0.13,15.0587434375,35.088125000000005
2021-07-08 16:02:37.031250000,-30.0,6.0,41.0,86.23125,0.01,15.077361250000001,35.087500000000006
2021-07-08 16:02:37.039062500,-37.0,6.5,41.25,86.2265625,0.71,15.095979062500001,35.086875000000006
2021-07-08 16:02:37.046875000,-44.0,7.0,41.5,86.221875,1.41,15.114596875,35.08625
2021-07-08 16:02:37.054687500,-51.0,7.5,41.75,86.2171875,3.325,15.1332146875,35.085625
2021-07-08 16:02:37.062500000,-58.0,8.0,42.0,86.2125,5.24,15.151832500000001,35.085
2021-07-08 16:02:37.070312500,-62.75,5.25,37.75,86.2078125,8.455,15.1704503125,35.084375
2021-07-08 16:02:37.078125000,-67.5,2.5,33.5,86.203125,11.67,15.189068125,35.08375
2021-07-08 16:02:37.085937500,-72.25,-0.25,29.25,86.1984375,15.84,15.2076859375,35.083125
2021-07-08 16:02:37.093750000,-77.0,-3.0,25.0,86.19375,20.01,15.226303750000001,35.0825
2021-07-08 16:02:37.101562500,-71.75,-3.25,24.0,86.1890625,24.490000000000002,15.2449215625,35.081875000000004
2021-07-08 16:02:37.109375000,-66.5,-3.5,23.0,86.184375,28.97,15.263539375,35.081250000000004
2021-07-08 16:02:37.117187500,-61.25,-3.75,22.0,86.1796875,33.099999999999994,15.282157187500001,35.080625000000005
2021-07-08 16:02:37.125000000,-56.0,-4.0,21.0,86.175,37.23,15.300775000000002,35.08
2021-07-08 16:02:37.132812500,-55.5,-4.25,21.5,86.1703125,40.629999999999995,15.3193928125,35.079375
2021-07-08 16:02:37.140625000,-55.0,-4.5,22.0,86.165625,44.03,15.338010625,35.07875
2021-07-08 16:02:37.148437500,-54.5,-4.75,22.5,86.1609375,46.54,15.356628437500001,35.078125
2021-07-08 16:02:37.156250000,-54.0,-5.0,23.0,86.15625,49.05,15.37524625,35.0775
2021-07-08 16:02:37.164062500,-55.25,-5.0,24.0,86.1515625,50.855,15.3938640625,35.076875
2021-07-08 16:02:37.171875000,-56.5,-5.0,25.0,86.146875,52.66,15.412481875000001,35.07625
2021-07-08 16:02:37.179687500,-57.75,-5.0,26.0,86.1421875,54.215,15.431099687500001,35.075625
2021-07-08 16:02:37.187500000,-59.0,-5.0,27.0,86.1375,55.77,15.4497175,35.075
2021-07-08 16:02:37.195312500,-60.25,-4.5,27.0,86.1328125,57.64,15.4683353125,35.074375
2021-07-08 16:02:37.203125000,-61.5,-4.0,27.0,86.128125,59.51,15.486953125000001,35.073750000000004
2021-07-08 16:02:37.210937500,-62.75,-3.5,27.0,86.1234375,62.010000000000005,15.5055709375,35.073125
2021-07-08 16:02:37.218750000,-64.0,-3.0,27.0,86.11875,64.51,15.52418875,35.0725
2021-07-08 16:02:37.226562500,-62.75,-1.75,27.5,86.1140625,67.515,15.542806562500001,35.071875
2021-07-08 16:02:37.234375000,-61.5,-0.5,28.0,86.109375,70.52,15.561424375000001,35.07125
2021-07-08 16:02:37.242187500,-60.25,0.75,28.5,86.1046875,73.55,15.5800421875,35.070625
2021-07-08 16:02:37.250000000,-59.0,2.0,29.0,86.1,76.58,15.59866,35.07
2021-07-08 16:02:37.257812500,-58.0,2.25,29.5,86.0953125,79.095,15.60925234375,35.07
2021-07-08 16:02:37.265625000,-57.0,2.5,30.0,86.090625,81.61,15.6198446875,35.07
2021-07-08 16:02:37.273437500,-56.0,2.75,30.5,86.0859375,83.3,15.63043703125,35.07
2021-07-08 16:02:37.281250000,-55.0,3.0,31.0,86.08125,84.99,15.641029375,35.07
2021-07-08 16:02:37.289062500,-55.5,3.0,31.0,86.07656250000001,85.58500000000001,15.65162171875,35.07
2021-07-08 16:02:37.296875000,-56.0,3.0,31.0,86.071875,86.18,15.6622140625,35.07
2021-07-08 16:02:37.304687500,-56.5,3.0,31.0,86.0671875,85.78,15.67280640625,35.07
2021-07-08 16:02:37.312500000,-57.0,3.0,31.0,86.0625,85.38,15.68339875,35.07
2021-07-08 16:02:37.320312500,-57.75,3.0,30.5,86.0578125,84.60499999999999,15.69399109375,35.07
2021-07-08 16:02:37.328125000,-58.5,3.0,30.0,86.05312500000001,83.83,15.7045834375,35.07
2021-07-08 16:02:37.335937500,-59.25,3.0,29.5,86.0484375,83.78,15.71517578125,35.07
2021-07-08 16:02:37.343750000,-60.0,3.0,29.0,86.04375,83.73,15.725768125,35.07
2021-07-08 16:02:37.351562500,-60.0,3.0,29.0,86.0390625,85.48,15.73636046875,35.07
2021-07-08 16:02:37.359375000,-60.0,3.0,29.0,86.034375,87.23,15.7469528125,35.07
2021-07-08 16:02:37.367187500,-60.0,3.0,29.0,86.02968750000001,91.17,15.75754515625,35.07
2021-07-08 16:02:37.375000000,-60.0,3.0,29.0,86.025,95.11,15.7681375,35.07
2021-07-08 16:02:37.382812500,-59.5,3.0,29.0,86.0203125,100.63499999999999,15.77872984375,35.07
2021-07-08 16:02:37.390625000,-59.0,3.0,29.0,86.015625,106.16,15.7893221875,35.07
2021-07-08 16:02:37.398437500,-58.5,3.0,29.0,86.0109375,111.715,15.79991453125,35.07
2021-07-08 16:02:37.406250000,-58.0,3.0,29.0,86.00625000000001,117.27,15.810506875,35.07
2021-07-08 16:02:37.414062500,-57.75,2.75,29.25,86.0015625,120.63499999999999,15.82109921875,35.07
2021-07-08 16:02:37.421875000,-57.5,2.5,29.5,85.996875,124.0,15.8316915625,35.07
2021-07-08 16:02:37.429687500,-57.25,2.25,29.75,85.9921875,122.33,15.84228390625,35.07
2021-07-08 16:02:37.437500000,-57.0,2.0,30.0,85.9875,120.66,15.85287625,35.07
2021-07-08 16:02:37.445312500,-57.25,2.0,30.25,85.98281250000001,111.775,15.86346859375,35.07
2021-07-08 16:02:37.453125000,-57.5,2.0,30.5,85.978125,102.89,15.8740609375,35.07
2021-07-08 16:02:37.460937500,-57.75,2.0,30.75,85.9734375,86.56,15.88465328125,35.07
2021-07-08 16:02:37.468750000,-58.0,2.0,31.0,85.96875,70.23,15.895245625,35.07
2021-07-08 16:02:37.476562500,-57.75,2.0,31.0,85.9640625,48.77,15.90583796875,35.07
2021-07-08 16:02:37.484375000,-57.5,2.0,31.0,85.95937500000001,27.31,15.9164303125,35.07
2021-07-08 16:02:37.492187500,-57.25,2.0,31.0,85.9546875,4.859999999999999,15.92702265625,35.07
2021-07-08 16:02:37.500000000,-57.0,2.0,31.0,85.95,-17.59,15.937615,35.07
2021-07-08 16:02:37.507812500,-57.0,2.0,30.5,85.9453125,-36.735,15.9396966875,35.07
2021-07-08 16:02:37.515625000,-57.0,2.0,30.0,85.940625,-55.88,15.941778374999998,35.07
2021-07-08 16:02:37.523437500,-57.0,2.0,29.5,85.93593750000001,-68.665,15.943860062499999,35.07
2021-07-08 16:02:37.531250000,-57.0,2.0,29.0,85.93125,-81.45,15.94594175,35.07
2021-07-08 16:02:37.539062500,-57.25,2.0,29.0,85.9265625,-86.9,15.9480234375,35.07
2021-07-08 16:02:37.546875000,-57.5,2.0,29.0,85.921875,-92.35,15.950105124999999,35.07
2021-07-08 16:02:37.554687500,-57.75,2.0,29.0,85.9171875,-91.65,15.952186812499999,35.07
2021-07-08 16:02:37.562500000,-58.0,2.0,29.0,85.91250000000001,-90.95,15.9542685,35.07
2021-07-08 16:02:37.570312500,-58.25,1.75,29.0,85.9078125,-87.58500000000001,15.956350187499998,35.07
2021-07-08 16:02:37.578125000,-58.5,1.5,29.0,85.903125,-84.22,15.958431874999999,35.07
2021-07-08 16:02:37.585937500,-58.75,1.25,29.0,85.8984375,-82.205,15.9605135625,35.07
2021-07-08 16:02:37.593750000,-59.0,1.0,29.0,85.89375,-80.19,15.96259525,35.07
2021-07-08 16:02:37.601562500,-58.75,1.0,29.0,85.88906250000001,-82.42,15.964676937499998,35.07
2021-07-08 16:02:37.609375000,-58.5,1.0,29.0,85.884375,-84.65,15.966758624999999,35.07
2021-07-08 16:02:37.617187500,-58.25,1.0,29.0,85.8796875,-92.025,15.9688403125,35.07
2021-07-08 16:02:37.625000000,-58.0,1.0,29.0,85.875,-99.4,15.970921999999998,35.07
2021-07-08 16:02:37.632812500,-58.0,1.25,29.25,85.8703125,-111.215,15.973003687499999,35.07
2021-07-08 16:02:37.640625000,-58.0,1.5,29.5,85.86562500000001,-123.03,15.975085374999999,35.07
2021-07-08 16:02:37.648437500,-58.0,1.75,29.75,85.8609375,-138.255,15.9771670625,35.07
2021-07-08 16:02:37.656250000,-58.0,2.0,30.0,85.85625,-153.48,15.979248749999998,35.07
2021-07-08 16:02:37.664062500,-58.0,2.0,29.75,85.8515625,-171.23,15.981330437499999,35.07
2021-07-08 16:02:37.671875000,-58.0,2.0,29.5,85.846875,-188.98,15.983412125,35.07
2021-07-08 16:02:37.679687500,-58.0,2.0,29.25,85.84218750000001,-208.575,15.9854938125,35.07
2021-07-08 16:02:37.687500000,-58.0,2.0,29.0,85.8375,-228.17,15.987575499999998,35.07
2021-07-08 16:02:37.695312500,-58.25,2.0,29.0,85.8328125,-243.67000000000002,15.989657187499999,35.07
2021-07-08 16:02:37.703125000,-58.5,2.0,29.0,85.828125,-259.17,15.991738875,35.07
2021-07-08 16:02:37.710937500,-58.75,2.0,29.0,85.8234375,-264.55,15.993820562499998,35.07
2021-07-08 16:02:37.718750000,-59.0,2.0,29.0,85.81875000000001,-269.93,15.995902249999999,35.07
2021-07-08 16:02:37.726562500,-59.0,2.0,29.0,85.8140625,-262.63,15.997983937499999,35.07
2021-07-08 16:02:37.734375000,-59.0,2.0,29.0,85.809375,-255.33,16.000065624999998,35.07
2021-07-08 16:02:37.742187500,-59.0,2.0,29.0,85.8046875,-238.18,16.0021473125,35.07
2021-07-08 16:02:37.750000000,-59.0,2.0,29.0,85.80000000000001,-221.03,16.004229,35.07
2021-07-08 16:02:37.757812500,-58.75,2.0,29.0,85.79531250000001,-199.34,16.011138718749997,35.07
2021-07-08 16:02:37.765625000,-58.5,2.0,29.0,85.790625,-177.65,16.0180484375,35.07
2021-07-08 16:02:37.773437500,-58.25,2.0,29.0,85.7859375,-155.62,16.024958156249998,35.07
2021-07-08 16:02:37.781250000,-58.0,2.0,29.0,85.78125,-133.59,16.031867875,35.07
2021-07-08 16:02:37.789062500,-58.0,2.0,29.25,85.77656250000001,-113.715,16.038777593749998,35.07
2021-07-08 16:02:37.796875000,-58.0,2.0,29.5,85.77187500000001,-93.84,16.0456873125,35.07
2021-07-08 16:02:37.804687500,-58.0,2.0,29.75,85.7671875,-77.51,16.05259703125,35.07
2021-07-08 16:02:37.812500000,-58.0,2.0,30.0,85.7625,-61.18,16.059506749999997,35.07
2021-07-08 16:02:37.820312500,-58.0,2.0,30.0,85.7578125,-49.120000000000005,16.06641646875,35.07
2021-07-08 16:02:37.828125000,-58.0,2.0,30.0,85.75312500000001,-37.06,16.073326187499998,35.07
2021-07-08 16:02:37.835937500,-58.0,2.0,30.0,85.74843750000001,-29.275,16.08023590625,35.07
2021-07-08 16:02:37.843750000,-58.0,2.0,30.0,85.74375,-21.49,16.087145624999998,35.07
2021-07-08 16:02:37.851562500,-58.0,2.25,30.0,85.7390625,-18.16,16.09405534375,35.07
2021-07-08 16:02:37.859375000,-58.0,2.5,30.0,85.734375,-14.83,16.1009650625,35.07
2021-07-08 16:02:37.867187500,-58.0,2.75,30.0,85.72968750000001,-15.774999999999999,16.10787478125,35.07
2021-07-08 16:02:37.875000000,-58.0,3.0,30.0,85.72500000000001,-16.72,16.1147845,35.07
2021-07-08 16:02:37.882812500,-58.0,3.0,30.0,85.7203125,-21.025,16.121694218749997,35.07
2021-07-08 16:02:37.890625000,-58.0,3.0,30.0,85.715625,-25.33,16.1286039375,35.07
2021-07-08 16:02:37.898437500,-58.0,3.0,30.0,85.7109375,-31.814999999999998,16.135513656249998,35.07
2021-07-08 16:02:37.906250000,-58.0,3.0,30.0,85.70625000000001,-38.3,16.142423375,35.07
2021-07-08 16:02:37.914062500,-58.0,3.0,30.0,85.70156250000001,-44.489999999999995,16.14933309375,35.07
2021-07-08 16:02:37.921875000,-58.0,3.0,30.0,85.696875,-50.68,16.1562428125,35.07
2021-07-08 16:02:37.929687500,-58.0,3.0,30.0,85.6921875,-54.605000000000004,16.16315253125,35.07
2021-07-08 16:02:37.937500000,-58.0,3.0,30.0,85.6875,-58.53,16.17006225,35.07
2021-07-08 16:02:37.945312500,-58.0,3.0,30.0,85.68281250000001,-58.93,16.17697196875,35.07
2021-07-08 16:02:37.953125000,-58.0,3.0,30.0,85.67812500000001,-59.33,16.183881687499998,35.07
2021-07-08 16:02:37.960937500,-58.0,3.0,30.0,85.6734375,-55.75,16.19079140625,35.07
2021-07-08 16:02:37.968750000,-58.0,3.0,30.0,85.66875,-52.17,16.197701125,35.07
2021-07-08 16:02:37.976562500,-58.0,3.0,30.0,85.6640625,-44.945,16.20461084375,35.07
2021-07-08 16:02:37.984375000,-58.0,3.0,30.0,85.65937500000001,-37.72,16.2115205625,35.07
2021-07-08 16:02:37.992187500,-58.0,3.0,30.0,85.65468750000001,-28.56,16.21843028125,35.07
2021-07-08 16:02:38.000000000,-58.0,3.0,30.0,85.65,-19.4,16.22534,35.07
2021-07-08 16:02:38.007812500,-58.0,2.75,30.0,85.64515625,-10.319999999999999,16.22554015625,35.069375
2021-07-08 16:02:38.015625000,-58.0,2.5,30.0,85.64031250000001,-1.24,16.2257403125,35.06875
2021-07-08 16:02:38.023437500,-58.0,2.25,30.0,85.63546875,6.63,16.22594046875,35.068125
2021-07-08 16:02:38.031250000,-58.0,2.0,30.0,85.63062500000001,14.5,16.226140625,35.0675
2021-07-08 16:02:38.039062500,-58.0,2.0,29.75,85.62578125,21.585,16.22634078125,35.066875
2021-07-08 16:02:38.046875000,-58.0,2.0,29.5,85.62093750000001,28.67,16.226540937499998,35.06625
2021-07-08 16:02:38.054687500,-58.0,2.0,29.25,85.61609375,36.5,16.22674109375,35.065625
2021-07-08 16:02:38.062500000,-58.0,2.0,29.0,85.61125000000001,44.33,16.22694125,35.065
2021-07-08 16:02:38.070312500,-58.0,2.0,29.25,85.60640625,54.055,16.22714140625,35.064375
2021-07-08 16:02:38.078125000,-58.0,2.0,29.5,85.6015625,63.78,16.2273415625,35.06375
2021-07-08 16:02:38.085937500,-58.0,2.0,29.75,85.59671875000001,75.39500000000001,16.22754171875,35.063125
2021-07-08 16:02:38.093750000,-58.0,2.0,30.0,85.591875,87.01,16.227741875,35.0625
2021-07-08 16:02:38.101562500,-58.0,2.25,30.0,85.58703125000001,98.225,16.22794203125,35.061875
2021-07-08 16:02:38.109375000,-58.0,2.5,30.0,85.5821875,109.44,16.228142187499998,35.06125
2021-07-08 16:02:38.117187500,-58.0,2.75,30.0,85.57734375000001,117.12,16.22834234375,35.060625
2021-07-08 16:02:38.125000000,-58.0,3.0,30.0,85.5725,124.8,16.2285425,35.06
2021-07-08 16:02:38.132812500,-58.0,3.0,30.0,85.56765625,125.58500000000001,16.22874265625,35.059374999999996
2021-07-08 16:02:38.140625000,-58.0,3.0,30.0,85.5628125,126.37,16.2289428125,35.058749999999996
2021-07-08 16:02:38.148437500,-58.0,3.0,30.0,85.55796875,118.26,16.22914296875,35.058125
2021-07-08 16:02:38.156250000,-58.0,3.0,30.0,85.55312500000001,110.15,16.229343125,35.0575
2021-07-08 16:02:38.164062500,-58.0,3.0,30.0,85.54828125,93.61500000000001,16.22954328125,35.056875
2021-07-08 16:02:38.171875000,-58.0,3.0,30.0,85.54343750000001,77.08,16.229743437499998,35.05625
2021-07-08 16:02:38.179687500,-58.0,3.0,30.0,85.53859375,55.099999999999994,16.22994359375,35.055625
2021-07-08 16:02:38.187500000,-58.0,3.0,30.0,85.53375,33.12,16.23014375,35.055
2021-07-08 16:02:38.195312500,-58.0,2.75,30.0,85.52890625,10.11,16.23034390625,35.054375
2021-07-08 16:02:38.203125000,-58.0,2.5,30.0,85.5240625,-12.9,16.2305440625,35.05375
2021-07-08 16:02:38.210937500,-58.0,2.25,30.0,85.51921875000001,-32.865,16.23074421875,35.053124999999994
2021-07-08 16:02:38.218750000,-58.0,2.0,30.0,85.514375,-52.83,16.230944375,35.052499999999995
2021-07-08 16:02:38.226562500,-58.0,2.0,30.0,85.50953125000001,-67.08500000000001,16.23114453125,35.051874999999995
2021-07-08 16:02:38.234375000,-58.0,2.0,30.0,85.5046875,-81.34,16.2313446875,35.051249999999996
2021-07-08 16:02:38.242187500,-58.0,2.0,30.0,85.49984375000001,-89.03,16.23154484375,35.050625
2021-07-08 16:02:38.250000000,-58.0,2.0,30.0,85.495,-96.72,16.231745,35.05
2021-07-08 16:02:38.257812500,-58.0,2.0,30.0,85.49015625,-98.4,16.23258565625,35.05
2021-07-08 16:02:38.265625000,-58.0,2.0,30.0,85.4853125,-100.08,16.2334263125,35.05
2021-07-08 16:02:38.273437500,-58.0,2.0,30.0,85.48046875,-97.3,16.23426696875,35.05
2021-07-08 16:02:38.281250000,-58.0,2.0,30.0,85.47562500000001,-94.52,16.235107625,35.05
2021-07-08 16:02:38.289062500,-58.0,2.0,30.0,85.47078125,-88.88,16.23594828125,35.05
2021-07-08 16:02:38.296875000,-58.0,2.0,30.0,85.46593750000001,-83.24,16.2367889375,35.05
2021-07-08 16:02:38.304687500,-58.0,2.0,30.0,85.46109375,-75.695,16.23762959375,35.05
2021-07-08 16:02:38.312500000,-58.0,2.0,30.0,85.45625000000001,-68.15,16.23847025,35.05
2021-07-08 16:02:38.320312500,-58.25,2.0,29.75,85.45140625,-58.885000000000005,16.23931090625,35.05
2021-07-08 16:02:38.328125000,-58.5,2.0,29.5,85.4465625,-49.62,16.2401515625,35.05
2021-07-08 16:02:38.335937500,-58.75,2.0,29.25,85.44171875,-38.44,16.240992218749998,35.05
2021-07-08 16:02:38.343750000,-59.0,2.0,29.0,85.436875,-27.26,16.241832875,35.05
2021-07-08 16:02:38.351562500,-59.0,2.0,29.0,85.43203125000001,-14.49,16.24267353125,35.05
2021-07-08 16:02:38.359375000,-59.0,2.0,29.0,85.4271875,-1.72,16.2435141875,35.05
2021-07-08 16:02:38.367187500,-59.0,2.0,29.0,85.42234375000001,11.419999999999998,16.24435484375,35.05
2021-07-08 16:02:38.375000000,-59.0,2.0,29.0,85.4175,24.56,16.2451955,35.05
2021-07-08 16:02:38.382812500,-58.75,2.25,29.25,85.41265625,36.015,16.24603615625,35.05
2021-07-08 16:02:38.390625000,-58.5,2.5,29.5,85.4078125,47.47,16.2468768125,35.05
2021-07-08 16:02:38.398437500,-58.25,2.75,29.75,85.40296875,55.129999999999995,16.24771746875,35.05
2021-07-08 16:02:38.406250000,-58.0,3.0,30.0,85.39812500000001,62.79,16.248558125,35.05
2021-07-08 16:02:38.414062500,-57.75,3.0,30.25,85.39328125,65.265,16.24939878125,35.05
2021-07-08 16:02:38.421875000,-57.5,3.0,30.5,85.38843750000001,67.74,16.2502394375,35.05
2021-07-08 16:02:38.429687500,-57.25,3.0,30.75,85.38359375,64.99,16.251080093749998,35.05
2021-07-08 16:02:38.437500000,-57.0,3.0,31.0,85.37875,62.24,16.25192075,35.05
2021-07-08 16:02:38.445312500,-57.25,2.75,30.75,85.37390625,55.635000000000005,16.25276140625,35.05
2021-07-08 16:02:38.453125000,-57.5,2.5,30.5,85.3690625,49.03,16.2536020625,35.05
2021-07-08 16:02:38.460937500,-57.75,2.25,30.25,85.36421875,40.650000000000006,16.25444271875,35.05
2021-07-08 16:02:38.468750000,-58.0,2.0,30.0,85.359375,32.27,16.255283374999998,35.05
2021-07-08 16:02:38.476562500,-58.0,2.0,30.0,85.35453125000001,24.03,16.25612403125,35.05
2021-07-08 16:02:38.484375000,-58.0,2.0,30.0,85.3496875,15.79,16.2569646875,35.05
2021-07-08 16:02:38.492187500,-58.0,2.0,30.0,85.34484375000001,8.64,16.25780534375,35.05
2021-07-08 16:02:38.500000000,-58.0,2.0,30.0,85.34,1.49,16.258646,35.05
2021-07-08 16:02:38.507812500,-58.0,2.0,30.0,85.33515625,-4.6049999999999995,16.258686062499997,35.05
2021-07-08 16:02:38.515625000,-58.0,2.0,30.0,85.3303125,-10.7,16.258726125,35.05
2021-07-08 16:02:38.523437500,-58.0,2.0,30.0,85.32546875,-16.27,16.258766187499997,35.05
2021-07-08 16:02:38.531250000,-58.0,2.0,30.0,85.320625,-21.84,16.25880625,35.05
2021-07-08 16:02:38.539062500,-58.0,2.0,30.0,85.31578125,-27.215000000000003,16.258846312499998,35.05
2021-07-08 16:02:38.546875000,-58.0,2.0,30.0,85.31093750000001,-32.59,16.258886375,35.05
2021-07-08 16:02:38.554687500,-58.0,2.0,30.0,85.30609375,-37.505,16.258926437499998,35.05
2021-07-08 16:02:38.562500000,-58.0,2.0,30.0,85.30125000000001,-42.42,16.2589665,35.05
2021-07-08 16:02:38.570312500,-58.0,2.0,30.0,85.29640625,-46.065,16.259006562499998,35.05
2021-07-08 16:02:38.578125000,-58.0,2.0,30.0,85.2915625,-49.71,16.259046625,35.05
2021-07-08 16:02:38.585937500,-58.0,2.0,30.0,85.28671875,-51.115,16.259086687499998,35.05
2021-07-08 16:02:38.593750000,-58.0,2.0,30.0,85.281875,-52.52,16.25912675,35.05
2021-07-08 16:02:38.601562500,-58.0,2.0,29.75,85.27703125000001,-51.115,16.2591668125,35.05
2021-07-08 16:02:38.609375000,-58.0,2.0,29.5,85.2721875,-49.71,16.259206875,35.05
2021-07-08 16:02:38.617187500,-58.0,2.0,29.25,85.26734375000001,-45.650000000000006,16.2592469375,35.05
2021-07-08 16:02:38.625000000,-58.0,2.0,29.0,85.2625,-41.59,16.259287,35.05
2021-07-08 16:02:38.632812500,-58.0,2.0,29.25,85.25765625,-35.760000000000005,16.2593270625,35.05
2021-07-08 16:02:38.640625000,-58.0,2.0,29.5,85.2528125,-29.93,16.259367124999997,35.05
2021-07-08 16:02:38.648437500,-58.0,2.0,29.75,85.24796875,-23.57,16.2594071875,35.05
2021-07-08 16:02:38.656250000,-58.0,2.0,30.0,85.243125,-17.21,16.259447249999997,35.05
2021-07-08 16:02:38.664062500,-58.0,2.0,29.75,85.23828125,-11.455,16.2594873125,35.05
2021-07-08 16:02:38.671875000,-58.0,2.0,29.5,85.23343750000001,-5.7,16.259527374999998,35.05
2021-07-08 16:02:38.679687500,-58.0,2.0,29.25,85.22859375,-1.17,16.2595674375,35.05
2021-07-08 16:02:38.687500000,-58.0,2.0,29.0,85.22375,3.36,16.259607499999998,35.05
2021-07-08 16:02:38.695312500,-58.0,2.0,29.25,85.21890625,6.654999999999999,16.2596475625,35.05
2021-07-08 16:02:38.703125000,-58.0,2.0,29.5,85.2140625,9.95,16.259687624999998,35.05
2021-07-08 16:02:38.710937500,-58.0,2.0,29.75,85.20921875,12.405,16.2597276875,35.05
2021-07-08 16:02:38.718750000,-58.0,2.0,30.0,85.204375,14.86,16.259767749999998,35.05
2021-07-08 16:02:38.726562500,-58.0,2.0,30.0,85.19953125,16.975,16.2598078125,35.05
2021-07-08 16:02:38.734375000,-58.0,2.0,30.0,85.1946875,19.09,16.259847875,35.05
2021-07-08 16:02:38.742187500,-58.0,2.0,30.0,85.18984375000001,21.16,16.2598879375,35.05
2021-07-08 16:02:38.750000000,-58.0,2.0,30.0,85.185,23.23,16.259928,35.05
2021-07-08 16:02:38.757812500,-58.0,2.0,29.75,85.18015625,25.245,16.26072865625,35.05
2021-07-08 16:02:38.765625000,-58.0,2.0,29.5,85.1753125,27.26,16.2615293125,35.05
2021-07-08 16:02:38.773437500,-58.0,2.0,29.25,85.17046875,28.945,16.26232996875,35.05
2021-07-08 16:02:38.781250000,-58.0,2.0,29.0,85.165625,30.63,16.263130625,35.05
2021-07-08 16:02:38.789062500,-58.0,2.0,29.25,85.16078125,31.685000000000002,16.26393128125,35.05
2021-07-08 16:02:38.796875000,-58.0,2.0,29.5,85.15593750000001,32.74,16.2647319375,35.05
2021-07-08 16:02:38.804687500,-58.0,2.0,29.75,85.15109375,33.025000000000006,16.26553259375,35.05
2021-07-08 16:02:38.812500000,-58.0,2.0,30.0,85.14625000000001,33.31,16.26633325,35.05
2021-07-08 16:02:38.820312500,-58.0,2.0,30.0,85.14140625,32.975,16.26713390625,35.05
2021-07-08 16:02:38.828125000,-58.0,2.0,30.0,85.1365625,32.64,16.2679345625,35.05
2021-07-08 16:02:38.835937500,-58.0,2.0,30.0,85.13171875,32.07,16.26873521875,35.05
2021-07-08 16:02:38.843750000,-58.0,2.0,30.0,85.126875,31.5,16.269535875,35.05
2021-07-08 16:02:38.851562500,-58.0,2.0,30.0,85.12203125,31.11,16.27033653125,35.05
2021-07-08 16:02:38.859375000,-58.0,2.0,30.0,85.1171875,30.72,16.2711371875,35.05
2021-07-08 16:02:38.867187500,-58.0,2.0,30.0,85.11234375000001,30.799999999999997,16.27193784375,35.05
2021-07-08 16:02:38.875000000,-58.0,2.0,30.0,85.1075,30.88,16.2727385,35.05
2021-07-08 16:02:38.882812500,-58.0,2.0,29.75,85.10265625,31.445,16.27353915625,35.05
2021-07-08 16:02:38.890625000,-58.0,2.0,29.5,85.0978125,32.01,16.2743398125,35.05
2021-07-08 16:02:38.898437500,-58.0,2.0,29.25,85.09296875,32.845,16.27514046875,35.05
2021-07-08 16:02:38.906250000,-58.0,2.0,29.0,85.088125,33.68,16.275941125,35.05
2021-07-08 16:02:38.914062500,-58.0,2.0,29.25,85.08328125,34.455,16.27674178125,35.05
2021-07-08 16:02:38.921875000,-58.0,2.0,29.5,85.0784375,35.23,16.2775424375,35.05
2021-07-08 16:02:38.929687500,-58.0,2.0,29.75,85.07359375,35.65,16.27834309375,35.05
2021-07-08 16:02:38.937500000,-58.0,2.0,30.0,85.06875,36.07,16.27914375,35.05
2021-07-08 16:02:38.945312500,-58.0,2.0,30.0,85.06390625,36.019999999999996,16.27994440625,35.05
2021-07-08 16:02:38.953125000,-58.0,2.0,30.0,85.0590625,35.97,16.2807450625,35.05
2021-07-08 16:02:38.960937500,-58.0,2.0,30.0,85.05421875,35.474999999999994,16.28154571875,35.05
2021-07-08 16:02:38.968750000,-58.0,2.0,30.0,85.049375,34.98,16.282346375,35.05
2021-07-08 16:02:38.976562500,-58.0,2.0,29.75,85.04453125,34.185,16.28314703125,35.05
2021-07-08 16:02:38.984375000,-58.0,2.0,29.5,85.0396875,33.39,16.2839476875,35.05
2021-07-08 16:02:38.992187500,-58.0,2.0,29.25,85.03484375000001,32.46,16.28474834375,35.05
2021-07-08 16:02:39.000000000,-58.0,2.0,29.0,85.03,31.53,16.285549,35.05
2021-07-08 16:02:39.007812500,-58.0,2.0,29.25,85.0253125,30.565,16.2859893125,35.049375
2021-07-08 16:02:39.015625000,-58.0,2.0,29.5,85.020625,29.6,16.286429625,35.04875
2021-07-08 16:02:39.023437500,-58.0,2.0,29.75,85.0159375,28.64,16.2868699375,35.048125
2021-07-08 16:02:39.031250000,-58.0,2.0,30.0,85.01125,27.68,16.28731025,35.0475
2021-07-08 16:02:39.039062500,-58.0,2.0,30.0,85.0065625,26.715,16.2877505625,35.046875
2021-07-08 16:02:39.046875000,-58.0,2.0,30.0,85.001875,25.75,16.288190874999998,35.04625
2021-07-08 16:02:39.054687500,-58.0,2.0,30.0,84.9971875,24.735,16.2886311875,35.045625
2021-07-08 16:02:39.062500000,-58.0,2.0,30.0,84.9925,23.72,16.2890715,35.045
2021-07-08 16:02:39.070312500,-58.0,2.0,30.0,84.9878125,22.615000000000002,16.2895118125,35.044374999999995
2021-07-08 16:02:39.078125000,-58.0,2.0,30.0,84.983125,21.51,16.289952125,35.043749999999996
2021-07-08 16:02:39.085937500,-58.0,2.0,30.0,84.9784375,20.28,16.2903924375,35.043124999999996
2021-07-08 16:02:39.093750000,-58.0,2.0,30.0,84.97375,19.05,16.29083275,35.0425
2021-07-08 16:02:39.101562500,-58.0,2.0,29.75,84.9690625,17.71,16.2912730625,35.041875
2021-07-08 16:02:39.109375000,-58.0,2.0,29.5,84.964375,16.37,16.291713375,35.04125
2021-07-08 16:02:39.117187500,-58.0,2.0,29.25,84.9596875,14.955,16.2921536875,35.040625
2021-07-08 16:02:39.125000000,-58.0,2.0,29.0,84.955,13.54,16.292594,35.04
2021-07-08 16:02:39.132812500,-58.0,2.0,29.0,84.9503125,12.135,16.293034312499998,35.039375
2021-07-08 16:02:39.140625000,-58.0,2.0,29.0,84.945625,10.73,16.293474624999998,35.03875
2021-07-08 16:02:39.148437500,-58.0,2.0,29.0,84.9409375,9.425,16.2939149375,35.038125
2021-07-08 16:02:39.156250000,-58.0,2.0,29.0,84.93625,8.12,16.29435525,35.0375
2021-07-08 16:02:39.164062500,-58.0,2.0,29.25,84.9315625,7.0,16.2947955625,35.036875
2021-07-08 16:02:39.171875000,-58.0,2.0,29.5,84.926875,5.88,16.295235875,35.03625
2021-07-08 16:02:39.179687500,-58.0,2.0,29.75,84.9221875,4.984999999999999,16.2956761875,35.035625
2021-07-08 16:02:39.187500000,-58.0,2.0,30.0,84.9175,4.09,16.2961165,35.035
2021-07-08 16:02:39.195312500,-58.0,2.0,30.0,84.9128125,3.385,16.2965568125,35.034375
2021-07-08 16:02:39.203125000,-58.0,2.0,30.0,84.908125,2.68,16.296997125,35.03375
2021-07-08 16:02:39.210937500,-58.0,2.0,30.0,84.9034375,2.08,16.297437437499998,35.033125
2021-07-08 16:02:39.218750000,-58.0,2.0,30.0,84.89875,1.48,16.297877749999998,35.0325
2021-07-08 16:02:39.226562500,-58.0,2.0,29.75,84.8940625,0.855,16.298318062499998,35.031875
2021-07-08 16:02:39.234375000,-58.0,2.0,29.5,84.889375,0.23,16.298758375,35.03125
2021-07-08 16:02:39.242187500,-58.0,2.0,29.25,84.8846875,-0.53,16.2991986875,35.030625
2021-07-08 16:02:39.250000000,-58.0,2.0,29.0,84.88,-1.29,16.299639,35.03
2021-07-08 16:02:39.257812500,-58.0,2.0,29.25,84.8753125,-2.275,16.300479656249998,35.03
2021-07-08 16:02:39.265625000,-58.0,2.0,29.5,84.870625,-3.26,16.3013203125,35.03
2021-07-08 16:02:39.273437500,-58.0,2.0,29.75,84.8659375,-4.475,16.302160968749998,35.03
2021-07-08 16:02:39.281250000,-58.0,2.0,30.0,84.86125,-5.69,16.303001625,35.03
2021-07-08 16:02:39.289062500,-58.0,2.0,30.0,84.85656250000001,-7.08,16.30384228125,35.03
2021-07-08 16:02:39.296875000,-58.0,2.0,30.0,84.851875,-8.47,16.3046829375,35.03
2021-07-08 16:02:39.304687500,-58.0,2.0,30.0,84.8471875,-9.885000000000002,16.30552359375,35.03
2021-07-08 16:02:39.312500000,-58.0,2.0,30.0,84.8425,-11.3,16.30636425,35.03
2021-07-08 16:02:39.320312500,-58.0,2.0,30.0,84.8378125,-12.52,16.30720490625,35.03
2021-07-08 16:02:39.328125000,-58.0,2.0,30.0,84.83312500000001,-13.74,16.3080455625,35.03
2021-07-08 16:02:39.335937500,-58.0,2.0,30.0,84.8284375,-14.51,16.30888621875,35.03
2021-07-08 16:02:39.343750000,-58.0,2.0,30.0,84.82375,-15.28,16.309726875,35.03
2021-07-08 16:02:39.351562500,-58.0,2.0,30.0,84.8190625,-15.344999999999999,16.31056753125,35.03
2021-07-08 16:02:39.359375000,-58.0,2.0,30.0,84.814375,-15.41,16.3114081875,35.03
2021-07-08 16:02:39.367187500,-58.0,2.0,30.0,84.80968750000001,-14.58,16.31224884375,35.03
2021-07-08 16:02:39.375000000,-58.0,2.0,30.0,84.805,-13.75,16.3130895,35.03
2021-07-08 16:02:39.382812500,-58.0,2.0,30.0,84.8003125,-11.98,16.31393015625,35.03
2021-07-08 16:02:39.390625000,-58.0,2.0,30.0,84.795625,-10.21,16.3147708125,35.03
2021-07-08 16:02:39.398437500,-58.0,2.0,30.0,84.7909375,-7.61,16.31561146875,35.03
2021-07-08 16:02:39.406250000,-58.0,2.0,30.0,84.78625000000001,-5.01,16.316452125,35.03
2021-07-08 16:02:39.414062500,-58.0,2.0,30.0,84.7815625,-1.8249999999999997,16.31729278125,35.03
2021-07-08 16:02:39.421875000,-58.0,2.0,30.0,84.776875,1.36,16.318133437500002,35.03
2021-07-08 16:02:39.429687500,-58.0,2.0,30.0,84.7721875,4.77,16.31897409375,35.03
2021-07-08 16:02:39.437500000,-58.0,2.0,30.0,84.7675,8.18,16.31981475,35.03
2021-07-08 16:02:39.445312500,-58.0,2.0,29.75,84.76281250000001,11.485,16.32065540625,35.03
2021-07-08 16:02:39.453125000,-58.0,2.0,29.5,84.758125,14.79,16.3214960625,35.03
2021-07-08 16:02:39.460937500,-58.0,2.0,29.25,84.7534375,17.725,16.32233671875,35.03
2021-07-08 16:02:39.468750000,-58.0,2.0,29.0,84.74875,20.66,16.323177375,35.03
2021-07-08 16:02:39.476562500,-58.0,2.0,29.25,84.7440625,23.09,16.324018031250002,35.03
2021-07-08 16:02:39.484375000,-58.0,2.0,29.5,84.73937500000001,25.52,16.3248586875,35.03
2021-07-08 16:02:39.492187500,-58.0,2.0,29.75,84.7346875,27.395,16.325699343750003,35.03
2021-07-08 16:02:39.500000000,-58.0,2.0,30.0,84.73,29.27,16.32654,35.03
2021-07-08 16:02:39.507812500,-58.0,2.0,29.75,84.7253125,30.61,16.326940375000003,35.03
2021-07-08 16:02:39.515625000,-58.0,2.0,29.5,84.720625,31.95,16.32734075,35.03
2021-07-08 16:02:39.523437500,-58.0,2.0,29.25,84.71593750000001,32.755,16.327741125000003,35.03
2021-07-08 16:02:39.531250000,-58.0,2.0,29.0,84.71125,33.56,16.3281415,35.03
2021-07-08 16:02:39.539062500,-58.0,2.0,29.25,84.7065625,33.83,16.328541875000003,35.03
2021-07-08 16:02:39.546875000,-58.0,2.0,29.5,84.701875,34.1,16.32894225,35.03
2021-07-08 16:02:39.554687500,-58.0,2.0,29.75,84.6971875,33.865,16.329342625000002,35.03
2021-07-08 16:02:39.562500000,-58.0,2.0,30.0,84.69250000000001,33.63,16.329743,35.03
2021-07-08 16:02:39.570312500,-58.0,2.0,30.0,84.6878125,32.97,16.330143375000002,35.03
2021-07-08 16:02:39.578125000,-58.0,2.0,30.0,84.683125,32.31,16.33054375,35.03
2021-07-08 16:02:39.585937500,-58.0,2.0,30.0,84.6784375,31.380000000000003,16.330944125000002,35.03
2021-07-08 16:02:39.593750000,-58.0,2.0,30.0,84.67375,30.45,16.3313445,35.03
2021-07-08 16:02:39.601562500,-58.0,2.0,30.0,84.66906250000001,29.439999999999998,16.331744875000002,35.03
2021-07-08 16:02:39.609375000,-58.0,2.0,30.0,84.664375,28.43,16.33214525,35.03
2021-07-08 16:02:39.617187500,-58.0,2.0,30.0,84.6596875,27.545,16.332545625,35.03
2021-07-08 16:02:39.625000000,-58.0,2.0,30.0,84.655,26.66,16.332946,35.03
2021-07-08 16:02:39.632812500,-58.0,2.0,30.0,84.6503125,26.025,16.333346375,35.03
2021-07-08 16:02:39.640625000,-58.0,2.0,30.0,84.64562500000001,25.39,16.333746750000003,35.03
2021-07-08 16:02:39.648437500,-58.0,2.0,30.0,84.6409375,25.055,16.334147125,35.03
2021-07-08 16:02:39.656250000,-58.0,2.0,30.0,84.63625,24.72,16.334547500000003,35.03
2021-07-08 16:02:39.664062500,-58.0,2.0,30.0,84.6315625,24.65,16.334947875,35.03
2021-07-08 16:02:39.671875000,-58.0,2.0,30.0,84.626875,24.58,16.335348250000003,35.03
2021-07-08 16:02:39.679687500,-58.0,2.0,30.0,84.62218750000001,24.67,16.335748625,35.03
2021-07-08 16:02:39.687500000,-58.0,2.0,30.0,84.6175,24.76,16.336149000000002,35.03
2021-07-08 16:02:39.695312500,-58.0,2.0,30.0,84.6128125,24.9,16.336549375,35.03
2021-07-08 16:02:39.703125000,-58.0,2.0,30.0,84.608125,25.04,16.336949750000002,35.03
2021-07-08 16:02:39.710937500,-58.0,2.0,30.0,84.6034375,25.14,16.337350125,35.03
2021-07-08 16:02:39.718750000,-58.0,2.0,30.0,84.59875000000001,25.24,16.337750500000002,35.03
2021-07-08 16:02:39.726562500,-58.0,2.0,30.0,84.5940625,25.229999999999997,16.338150875,35.03
2021-07-08 16:02:39.734375000,-58.0,2.0,30.0,84.589375,25.22,16.338551250000002,35.03
2021-07-08 16:02:39.742187500,-58.0,2.0,30.0,84.5846875,25.064999999999998,16.338951625,35.03
2021-07-08 16:02:39.750000000,-58.0,2.0,30.0,84.58000000000001,24.91,16.339352,35.03
2021-07-08 16:02:39.757812500,-58.0,2.0,30.0,84.57531250000001,24.585,16.339432031250002,35.03
2021-07-08 16:02:39.765625000,-58.0,2.0,30.0,84.570625,24.26,16.339512062500003,35.03
2021-07-08 16:02:39.773437500,-58.0,2.0,30.0,84.5659375,23.755000000000003,16.339592093750003,35.03
2021-07-08 16:02:39.781250000,-58.0,2.0,30.0,84.56125,23.25,16.339672125,35.03
2021-07-08 16:02:39.789062500,-58.0,2.0,29.75,84.55656250000001,22.55,16.33975215625,35.03
2021-07-08 16:02:39.796875000,-58.0,2.0,29.5,84.55187500000001,21.85,16.3398321875,35.03
2021-07-08 16:02:39.804687500,-58.0,2.0,29.25,84.5471875,20.935000000000002,16.33991221875,35.03
2021-07-08 16:02:39.812500000,-58.0,2.0,29.0,84.5425,20.02,16.33999225,35.03
2021-07-08 16:02:39.820312500,-58.0,2.0,29.0,84.5378125,18.89,16.340072281250002,35.03
2021-07-08 16:02:39.828125000,-58.0,2.0,29.0,84.53312500000001,17.76,16.340152312500003,35.03
2021-07-08 16:02:39.835937500,-58.0,2.0,29.0,84.52843750000001,16.44,16.340232343750003,35.03
2021-07-08 16:02:39.843750000,-58.0,2.0,29.0,84.52375,15.12,16.340312375000003,35.03
2021-07-08 16:02:39.851562500,-58.0,2.0,29.25,84.5190625,13.69,16.34039240625,35.03
2021-07-08 16:02:39.859375000,-58.0,2.0,29.5,84.514375,12.26,16.3404724375,35.03
2021-07-08 16:02:39.867187500,-58.0,2.0,29.75,84.50968750000001,10.8,16.34055246875,35.03
2021-07-08 16:02:39.875000000,-58.0,2.0,30.0,84.50500000000001,9.34,16.3406325,35.03
2021-07-08 16:02:39.882812500,-58.0,2.0,30.0,84.5003125,7.9350000000000005,16.340712531250002,35.03
2021-07-08 16:02:39.890625000,-58.0,2.0,30.0,84.495625,6.53,16.340792562500003,35.03
2021-07-08 16:02:39.898437500,-58.0,2.0,30.0,84.4909375,5.235,16.340872593750003,35.03
2021-07-08 16:02:39.906250000,-58.0,2.0,30.0,84.48625000000001,3.94,16.340952625,35.03
2021-07-08 16:02:39.914062500,-58.0,2.0,30.0,84.48156250000001,2.775,16.34103265625,35.03
2021-07-08 16:02:39.921875000,-58.0,2.0,30.0,84.476875,1.61,16.3411126875,35.03
2021-07-08 16:02:39.929687500,-58.0,2.0,30.0,84.4721875,0.5700000000000001,16.34119271875,35.03
2021-07-08 16:02:39.937500000,-58.0,2.0,30.0,84.4675,-0.47,16.34127275,35.03
2021-07-08 16:02:39.945312500,-58.0,2.0,30.0,84.46281250000001,-1.4049999999999998,16.341352781250002,35.03
2021-07-08 16:02:39.953125000,-58.0,2.0,30.0,84.45812500000001,-2.34,16.341432812500003,35.03
2021-07-08 16:02:39.960937500,-58.0,2.0,30.0,84.4534375,-3.19,16.341512843750003,35.03
2021-07-08 16:02:39.968750000,-58.0,2.0,30.0,84.44875,-4.04,16.341592875000003,35.03
2021-07-08 16:02:39.976562500,-58.0,2.0,30.0,84.4440625,-4.8100000000000005,16.34167290625,35.03
2021-07-08 16:02:39.984375000,-58.0,2.0,30.0,84.43937500000001,-5.58,16.3417529375,35.03
2021-07-08 16:02:39.992187500,-58.0,2.0,30.0,84.43468750000001,-6.3149999999999995,16.34183296875,35.03
2021-07-08 16:02:40.000000000,-58.0,2.0,30.0,84.43,-7.05,16.341913,35.03
2021-07-08 16:02:40.007812500,-58.0,2.0,30.0,84.425234375,-7.785,16.3423133125,35.03
2021-07-08 16:02:40.015625000,-58.0,2.0,30.0,84.42046875000001,-8.52,16.342713625000002,35.03
2021-07-08 16:02:40.023437500,-58.0,2.0,30.0,84.41570312500001,-9.33,16.3431139375,35.03
2021-07-08 16:02:40.031250000,-58.0,2.0,30.0,84.4109375,-10.14,16.343514250000002,35.03
2021-07-08 16:02:40.039062500,-58.0,2.0,30.0,84.40617187500001,-11.100000000000001,16.3439145625,35.03
2021-07-08 16:02:40.046875000,-58.0,2.0,30.0,84.40140625000001,-12.06,16.344314875000002,35.03
2021-07-08 16:02:40.054687500,-58.0,2.0,30.0,84.396640625,-13.235,16.3447151875,35.03
2021-07-08 16:02:40.062500000,-58.0,2.0,30.0,84.391875,-14.41,16.345115500000002,35.03
2021-07-08 16:02:40.070312500,-58.0,2.0,30.0,84.38710937500001,-15.8,16.3455158125,35.03
2021-07-08 16:02:40.078125000,-58.0,2.0,30.0,84.38234375,-17.19,16.345916125000002,35.03
2021-07-08 16:02:40.085937500,-58.0,2.0,30.0,84.377578125,-18.69,16.3463164375,35.03
2021-07-08 16:02:40.093750000,-58.0,2.0,30.0,84.37281250000001,-20.19,16.346716750000002,35.03
2021-07-08 16:02:40.101562500,-58.0,2.0,29.75,84.368046875,-21.595,16.3471170625,35.03
2021-07-08 16:02:40.109375000,-58.0,2.0,29.5,84.36328125,-23.0,16.347517375000002,35.03
2021-07-08 16:02:40.117187500,-58.0,2.0,29.25,84.35851562500001,-24.015,16.3479176875,35.03
2021-07-08 16:02:40.125000000,-58.0,2.0,29.0,84.35375,-25.03,16.348318,35.03
2021-07-08 16:02:40.132812500,-58.0,2.0,29.25,84.348984375,-25.345,16.3487183125,35.03
2021-07-08 16:02:40.140625000,-58.0,2.0,29.5,84.34421875000001,-25.66,16.349118625,35.03
2021-07-08 16:02:40.148437500,-58.0,2.0,29.75,84.339453125,-25.07,16.3495189375,35.03
2021-07-08 16:02:40.156250000,-58.0,2.0,30.0,84.3346875,-24.48,16.34991925,35.03
2021-07-08 16:02:40.164062500,-58.0,2.0,30.0,84.32992187500001,-22.92,16.3503195625,35.03
2021-07-08 16:02:40.171875000,-58.0,2.0,30.0,84.32515625,-21.36,16.350719875,35.03
2021-07-08 16:02:40.179687500,-58.0,2.0,30.0,84.320390625,-18.965,16.3511201875,35.03
2021-07-08 16:02:40.187500000,-58.0,2.0,30.0,84.31562500000001,-16.57,16.3515205,35.03
2021-07-08 16:02:40.195312500,-58.0,2.0,30.0,84.310859375,-13.600000000000001,16.3519208125,35.03
2021-07-08 16:02:40.203125000,-58.0,2.0,30.0,84.30609375,-10.63,16.352321125,35.03
2021-07-08 16:02:40.210937500,-58.0,2.0,30.0,84.301328125,-7.390000000000001,16.3527214375,35.03
2021-07-08 16:02:40.218750000,-58.0,2.0,30.0,84.29656250000001,-4.15,16.35312175,35.03
2021-07-08 16:02:40.226562500,-58.0,2.0,30.0,84.291796875,-0.9199999999999999,16.3535220625,35.03
2021-07-08 16:02:40.234375000,-58.0,2.0,30.0,84.28703125,2.31,16.353922375,35.03
2021-07-08 16:02:40.242187500,-58.0,2.0,30.0,84.28226562500001,5.33,16.3543226875,35.03
2021-07-08 16:02:40.250000000,-58.0,2.0,30.0,84.2775,8.35,16.354723,35.03
2021-07-08 16:02:40.257812500,-58.0,2.0,30.0,84.272734375,11.004999999999999,16.35556365625,35.03
2021-07-08 16:02:40.265625000,-58.0,2.0,30.0,84.26796875000001,13.66,16.3564043125,35.03
2021-07-08 16:02:40.273437500,-58.0,2.0,30.0,84.263203125,15.86,16.35724496875,35.03
2021-07-08 16:02:40.281250000,-58.0,2.0,30.0,84.2584375,18.06,16.358085625,35.03
2021-07-08 16:02:40.289062500,-58.0,2.0,30.0,84.25367187500001,19.715,16.35892628125,35.03
2021-07-08 16:02:40.296875000,-58.0,2.0,30.0,84.24890625,21.37,16.359766937499998,35.03
2021-07-08 16:02:40.304687500,-58.0,2.0,30.0,84.244140625,22.450000000000003,16.36060759375,35.03
2021-07-08 16:02:40.312500000,-58.0,2.0,30.0,84.239375,23.53,16.36144825,35.03
2021-07-08 16:02:40.320312500,-58.0,2.0,30.0,84.234609375,24.035,16.36228890625,35.03
2021-07-08 16:02:40.328125000,-58.0,2.0,30.0,84.22984375,24.54,16.3631295625,35.03
2021-07-08 16:02:40.335937500,-58.0,2.0,30.0,84.225078125,24.564999999999998,16.363970218749998,35.03
2021-07-08 16:02:40.343750000,-58.0,2.0,30.0,84.2203125,24.59,16.364810875,35.03
2021-07-08 16:02:40.351562500,-58.0,2.0,30.0,84.215546875,24.275,16.36565153125,35.03
2021-07-08 16:02:40.359375000,-58.0,2.0,30.0,84.21078125,23.96,16.3664921875,35.03
2021-07-08 16:02:40.367187500,-58.0,2.0,30.0,84.206015625,23.485,16.36733284375,35.03
2021-07-08 16:02:40.375000000,-58.0,2.0,30.0,84.20125,23.01,16.368173499999997,35.03
2021-07-08 16:02:40.382812500,-58.0,2.25,30.0,84.196484375,22.515,16.36901415625,35.03
2021-07-08 16:02:40.390625000,-58.0,2.5,30.0,84.19171875,22.02,16.369854812499998,35.03
2021-07-08 16:02:40.398437500,-58.0,2.75,30.0,84.186953125,21.605,16.37069546875,35.03
2021-07-08 16:02:40.406250000,-58.0,3.0,30.0,84.1821875,21.19,16.371536125,35.03
2021-07-08 16:02:40.414062500,-58.0,3.0,30.0,84.17742187500001,20.87,16.37237678125,35.03
2021-07-08 16:02:40.421875000,-58.0,3.0,30.0,84.17265625,20.55,16.3732174375,35.03
2021-07-08 16:02:40.429687500,-58.0,3.0,30.0,84.167890625,20.295,16.374058093749998,35.03
2021-07-08 16:02:40.437500000,-58.0,3.0,30.0,84.16312500000001,20.04,16.37489875,35.03
2021-07-08 16:02:40.445312500,-58.0,3.0,30.0,84.158359375,19.805,16.37573940625,35.03
2021-07-08 16:02:40.453125000,-58.0,3.0,30.0,84.15359375,19.57,16.3765800625,35.03
2021-07-08 16:02:40.460937500,-58.0,3.0,30.0,84.148828125,19.3,16.37742071875,35.03
2021-07-08 16:02:40.468750000,-58.0,3.0,30.0,84.1440625,19.03,16.378261374999997,35.03
2021-07-08 16:02:40.476562500,-58.0,2.75,30.0,84.139296875,18.715,16.37910203125,35.03
2021-07-08 16:02:40.484375000,-58.0,2.5,30.0,84.13453125,18.4,16.379942687499998,35.03
2021-07-08 16:02:40.492187500,-58.0,2.25,30.0,84.129765625,18.045,16.38078334375,35.03
2021-07-08 16:02:40.500000000,-58.0,2.0,30.0,84.125,17.69,16.381624,35.03
2021-07-08 16:02:40.507812500,-58.0,2.25,30.0,84.120234375,17.315,16.381744124999997,35.03
2021-07-08 16:02:40.515625000,-58.0,2.5,30.0,84.11546875,16.94,16.38186425,35.03
2021-07-08 16:02:40.523437500,-58.0,2.75,30.0,84.110703125,16.54,16.381984375,35.03
2021-07-08 16:02:40.531250000,-58.0,3.0,30.0,84.1059375,16.14,16.382104499999997,35.03
2021-07-08 16:02:40.539062500,-58.0,2.75,30.0,84.101171875,15.685,16.382224625,35.03
2021-07-08 16:02:40.546875000,-58.0,2.5,30.0,84.09640625,15.23,16.382344749999998,35.03
2021-07-08 16:02:40.554687500,-58.0,2.25,30.0,84.091640625,14.655000000000001,16.382464875,35.03
2021-07-08 16:02:40.562500000,-58.0,2.0,30.0,84.08687499999999,14.08,16.382585,35.03
2021-07-08 16:02:40.570312500,-58.0,2.0,30.0,84.082109375,13.35,16.382705124999998,35.03
2021-07-08 16:02:40.578125000,-58.0,2.0,30.0,84.07734375,12.62,16.38282525,35.03
2021-07-08 16:02:40.585937500,-58.0,2.0,30.0,84.07257812499999,11.73,16.382945375,35.03
2021-07-08 16:02:40.593750000,-58.0,2.0,30.0,84.0678125,10.84,16.3830655,35.03
2021-07-08 16:02:40.601562500,-58.0,2.25,30.0,84.063046875,9.835,16.383185625,35.03
2021-07-08 16:02:40.609375000,-58.0,2.5,30.0,84.05828125,8.83,16.383305749999998,35.03
2021-07-08 16:02:40.617187500,-58.0,2.75,30.0,84.053515625,7.78,16.383425875,35.03
2021-07-08 16:02:40.625000000,-58.0,3.0,30.0,84.04875,6.73,16.383546,35.03
2021-07-08 16:02:40.632812500,-58.0,2.75,30.0,84.043984375,5.710000000000001,16.383666124999998,35.03
2021-07-08 16:02:40.640625000,-58.0,2.5,30.0,84.03921875,4.69,16.38378625,35.03
2021-07-08 16:02:40.648437500,-58.0,2.25,30.0,84.034453125,3.72,16.383906375,35.03
2021-07-08 16:02:40.656250000,-58.0,2.0,30.0,84.0296875,2.75,16.384026499999997,35.03
2021-07-08 16:02:40.664062500,-58.0,2.0,30.0,84.024921875,1.81,16.384146625,35.03
2021-07-08 16:02:40.671875000,-58.0,2.0,30.0,84.02015625,0.87,16.38426675,35.03
2021-07-08 16:02:40.679687500,-58.0,2.0,30.0,84.015390625,-0.06999999999999995,16.384386875,35.03
2021-07-08 16:02:40.687500000,-58.0,2.0,30.0,84.010625,-1.01,16.384507,35.03
2021-07-08 16:02:40.695312500,-58.0,2.25,30.0,84.005859375,-1.975,16.384627124999998,35.03
2021-07-08 16:02:40.703125000,-58.0,2.5,30.0,84.00109375,-2.94,16.38474725,35.03
2021-07-08 16:02:40.710937500,-58.0,2.75,30.0,83.99632812499999,-3.915,16.384867375,35.03
2021-07-08 16:02:40.718750000,-58.0,3.0,30.0,83.9915625,-4.89,16.3849875,35.03
2021-07-08 16:02:40.726562500,-58.0,2.75,29.75,83.986796875,-5.8149999999999995,16.385107625,35.03
2021-07-08 16:02:40.734375000,-58.0,2.5,29.5,83.98203124999999,-6.74,16.38522775,35.03
2021-07-08 16:02:40.742187500,-58.0,2.25,29.25,83.977265625,-7.55,16.385347875,35.03
2021-07-08 16:02:40.750000000,-58.0,2.0,29.0,83.9725,-8.36,16.385468,35.03
2021-07-08 16:02:40.757812500,-58.0,2.25,29.25,83.96773437499999,-9.02,16.385307875,35.03
2021-07-08 16:02:40.765625000,-58.0,2.5,29.5,83.96296875,-9.68,16.385147749999998,35.03
2021-07-08 16:02:40.773437500,-58.0,2.75,29.75,83.958203125,-10.219999999999999,16.384987625,35.03
2021-07-08 16:02:40.781250000,-58.0,3.0,30.0,83.95343749999999,-10.76,16.3848275,35.03
2021-07-08 16:02:40.789062500,-57.75,3.0,30.0,83.948671875,-11.25,16.384667375,35.03
2021-07-08 16:02:40.796875000,-57.5,3.0,30.0,83.94390625,-11.74,16.38450725,35.03
2021-07-08 16:02:40.804687500,-57.25,3.0,30.0,83.939140625,-12.280000000000001,16.384347125,35.03
2021-07-08 16:02:40.812500000,-57.0,3.0,30.0,83.93437499999999,-12.82,16.384187,35.03
2021-07-08 16:02:40.820312500,-57.25,3.0,30.0,83.929609375,-13.475000000000001,16.384026875,35.03
2021-07-08 16:02:40.828125000,-57.5,3.0,30.0,83.92484375,-14.13,16.38386675,35.03
2021-07-08 16:02:40.835937500,-57.75,3.0,30.0,83.92007812499999,-14.915,16.383706625,35.03
2021-07-08 16:02:40.843750000,-58.0,3.0,30.0,83.9153125,-15.7,16.3835465,35.03
2021-07-08 16:02:40.851562500,-58.0,3.0,30.0,83.910546875,-16.59,16.383386375,35.03
2021-07-08 16:02:40.859375000,-58.0,3.0,30.0,83.90578124999999,-17.48,16.38322625,35.03
2021-07-08 16:02:40.867187500,-58.0,3.0,30.0,83.901015625,-18.41,16.383066125,35.03
2021-07-08 16:02:40.875000000,-58.0,3.0,30.0,83.89625,-19.34,16.382906,35.03
2021-07-08 16:02:40.882812500,-58.0,2.75,30.0,83.89148437499999,-20.235,16.382745875,35.03
2021-07-08 16:02:40.890625000,-58.0,2.5,30.0,83.88671875,-21.13,16.38258575,35.03
2021-07-08 16:02:40.898437500,-58.0,2.25,30.0,83.881953125,-21.89,16.382425625,35.03
2021-07-08 16:02:40.906250000,-58.0,2.0,30.0,83.87718749999999,-22.65,16.3822655,35.03
2021-07-08 16:02:40.914062500,-58.0,2.0,30.0,83.872421875,-23.16,16.382105375000002,35.03
2021-07-08 16:02:40.921875000,-58.0,2.0,30.0,83.86765625,-23.67,16.38194525,35.03
2021-07-08 16:02:40.929687500,-58.0,2.0,30.0,83.86289062499999,-23.78,16.381785125,35.03
2021-07-08 16:02:40.937500000,-58.0,2.0,30.0,83.858125,-23.89,16.381625,35.03
2021-07-08 16:02:40.945312500,-58.0,2.0,29.75,83.853359375,-23.46,16.381464875,35.03
2021-07-08 16:02:40.953125000,-58.0,2.0,29.5,83.84859374999999,-23.03,16.38130475,35.03
2021-07-08 16:02:40.960937500,-58.0,2.0,29.25,83.84382812499999,-21.955,16.381144625,35.03
2021-07-08 16:02:40.968750000,-58.0,2.0,29.0,83.8390625,-20.88,16.3809845,35.03
2021-07-08 16:02:40.976562500,-58.0,2.25,29.25,83.83429687499999,-19.174999999999997,16.380824375,35.03
2021-07-08 16:02:40.984375000,-58.0,2.5,29.5,83.82953124999999,-17.47,16.380664250000002,35.03
2021-07-08 16:02:40.992187500,-58.0,2.75,29.75,83.824765625,-15.285,16.380504125,35.03
2021-07-08 16:02:41.000000000,-58.0,3.0,30.0,83.82,-13.1,16.380344,35.03
2021-07-08 16:02:41.007812500,-57.75,3.0,30.25,83.815703125,-10.7,16.38122465625,35.03
2021-07-08 16:02:41.015625000,-57.5,3.0,30.5,83.81140624999999,-8.3,16.382105312500002,35.03
2021-07-08 16:02:41.023437500,-57.25,3.0,30.75,83.807109375,-5.9750000000000005,16.382985968750003,35.03
2021-07-08 16:02:41.031250000,-57.0,3.0,31.0,83.80281249999999,-3.65,16.383866625,35.03
2021-07-08 16:02:41.039062500,-57.25,3.0,30.75,83.798515625,-1.63,16.38474728125,35.03
2021-07-08 16:02:41.046875000,-57.5,3.0,30.5,83.79421875,0.39,16.3856279375,35.03
2021-07-08 16:02:41.054687500,-57.75,3.0,30.25,83.78992187499999,1.995,16.38650859375,35.03
2021-07-08 16:02:41.062500000,-58.0,3.0,30.0,83.785625,3.6,16.387389250000002,35.03
2021-07-08 16:02:41.070312500,-58.0,3.0,29.75,83.78132812499999,4.8,16.388269906250002,35.03
2021-07-08 16:02:41.078125000,-58.0,3.0,29.5,83.77703125,6.0,16.3891505625,35.03
2021-07-08 16:02:41.085937500,-58.0,3.0,29.25,83.772734375,6.865,16.39003121875,35.03
2021-07-08 16:02:41.093750000,-58.0,3.0,29.0,83.76843749999999,7.73,16.390911875,35.03
2021-07-08 16:02:41.101562500,-57.75,3.0,29.25,83.764140625,8.34,16.39179253125,35.03
2021-07-08 16:02:41.109375000,-57.5,3.0,29.5,83.75984374999999,8.95,16.3926731875,35.03
2021-07-08 16:02:41.117187500,-57.25,3.0,29.75,83.755546875,9.35,16.393553843750002,35.03
2021-07-08 16:02:41.125000000,-57.0,3.0,30.0,83.75125,9.75,16.394434500000003,35.03
2021-07-08 16:02:41.132812500,-57.25,3.0,30.25,83.74695312499999,9.955,16.39531515625,35.03
2021-07-08 16:02:41.140625000,-57.5,3.0,30.5,83.74265625,10.16,16.3961958125,35.03
2021-07-08 16:02:41.148437500,-57.75,3.0,30.75,83.73835937499999,10.185,16.39707646875,35.03
2021-07-08 16:02:41.156250000,-58.0,3.0,31.0,83.7340625,10.21,16.397957125,35.03
2021-07-08 16:02:41.164062500,-58.0,3.0,30.75,83.729765625,10.105,16.398837781250002,35.03
2021-07-08 16:02:41.171875000,-58.0,3.0,30.5,83.72546874999999,10.0,16.399718437500002,35.03
2021-07-08 16:02:41.179687500,-58.0,3.0,30.25,83.721171875,9.84,16.40059909375,35.03
2021-07-08 16:02:41.187500000,-58.0,3.0,30.0,83.71687499999999,9.68,16.40147975,35.03
2021-07-08 16:02:41.195312500,-58.0,3.0,30.0,83.712578125,9.559999999999999,16.40236040625,35.03
2021-07-08 16:02:41.203125000,-58.0,3.0,30.0,83.70828125,9.44,16.4032410625,35.03
2021-07-08 16:02:41.210937500,-58.0,3.0,30.0,83.70398437499999,9.43,16.40412171875,35.03
2021-07-08 16:02:41.218750000,-58.0,3.0,30.0,83.6996875,9.42,16.405002375000002,35.03
2021-07-08 16:02:41.226562500,-58.0,2.75,29.75,83.69539062499999,9.54,16.40588303125,35.03
2021-07-08 16:02:41.234375000,-58.0,2.5,29.5,83.69109375,9.66,16.4067636875,35.03
2021-07-08 16:02:41.242187500,-58.0,2.25,29.25,83.686796875,9.865,16.40764434375,35.03
2021-07-08 16:02:41.250000000,-58.0,2.0,29.0,83.68249999999999,10.07,16.408525,35.03
2021-07-08 16:02:41.257812500,-58.0,2.0,29.25,83.678203125,10.27,16.408925375000003,35.03
2021-07-08 16:02:41.265625000,-58.0,2.0,29.5,83.67390624999999,10.47,16.40932575,35.03
2021-07-08 16:02:41.273437500,-58.0,2.0,29.75,83.669609375,10.57,16.409726125000002,35.03
2021-07-08 16:02:41.281250000,-58.0,2.0,30.0,83.6653125,10.67,16.4101265,35.03
2021-07-08 16:02:41.289062500,-58.0,2.25,30.0,83.66101562499999,10.59,16.410526875000002,35.03
2021-07-08 16:02:41.296875000,-58.0,2.5,30.0,83.65671875,10.51,16.41092725,35.03
2021-07-08 16:02:41.304687500,-58.0,2.75,30.0,83.65242187499999,10.254999999999999,16.411327625000002,35.03
2021-07-08 16:02:41.312500000,-58.0,3.0,30.0,83.648125,10.0,16.411728,35.03
2021-07-08 16:02:41.320312500,-58.0,3.0,30.0,83.643828125,9.615,16.412128375,35.03
2021-07-08 16:02:41.328125000,-58.0,3.0,30.0,83.63953124999999,9.23,16.41252875,35.03
2021-07-08 16:02:41.335937500,-58.0,3.0,30.0,83.635234375,8.785,16.412929125,35.03
2021-07-08 16:02:41.343750000,-58.0,3.0,30.0,83.63093749999999,8.34,16.4133295,35.03
2021-07-08 16:02:41.351562500,-58.0,3.0,30.0,83.626640625,7.890000000000001,16.413729875,35.03
2021-07-08 16:02:41.359375000,-58.0,3.0,30.0,83.62234375,7.44,16.41413025,35.03
2021-07-08 16:02:41.367187500,-58.0,3.0,30.0,83.61804687499999,6.995,16.414530625,35.03
2021-07-08 16:02:41.375000000,-58.0,3.0,30.0,83.61375,6.55,16.414931000000003,35.03
2021-07-08 16:02:41.382812500,-58.0,3.0,30.0,83.60945312499999,6.08,16.415331375,35.03
2021-07-08 16:02:41.390625000,-58.0,3.0,30.0,83.60515625,5.61,16.415731750000003,35.03
2021-07-08 16:02:41.398437500,-58.0,3.0,30.0,83.600859375,5.075,16.416132125,35.03
2021-07-08 16:02:41.406250000,-58.0,3.0,30.0,83.59656249999999,4.54,16.416532500000002,35.03
2021-07-08 16:02:41.414062500,-58.0,2.75,30.0,83.592265625,3.925,16.416932875,35.03
2021-07-08 16:02:41.421875000,-58.0,2.5,30.0,83.58796874999999,3.31,16.417333250000002,35.03
2021-07-08 16:02:41.429687500,-58.0,2.25,30.0,83.583671875,2.645,16.417733625,35.03
2021-07-08 16:02:41.437500000,-58.0,2.0,30.0,83.579375,1.98,16.418134000000002,35.03
2021-07-08 16:02:41.445312500,-58.0,2.25,30.0,83.57507812499999,1.31,16.418534375,35.03
2021-07-08 16:02:41.453125000,-58.0,2.5,30.0,83.57078125,0.64,16.418934750000002,35.03
2021-07-08 16:02:41.460937500,-58.0,2.75,30.0,83.56648437499999,0.025000000000000022,16.419335125,35.03
2021-07-08 16:02:41.468750000,-58.0,3.0,30.0,83.5621875,-0.59,16.4197355,35.03
2021-07-08 16:02:41.476562500,-58.0,3.0,30.0,83.557890625,-1.13,16.420135875,35.03
2021-07-08 16:02:41.484375000,-58.0,3.0,30.0,83.55359374999999,-1.67,16.42053625,35.03
2021-07-08 16:02:41.492187500,-58.0,3.0,30.0,83.549296875,-2.15,16.420936625,35.03
2021-07-08 16:02:41.500000000,-58.0,3.0,30.0,83.54499999999999,-2.63,16.421337,35.03
2021-07-08 16:02:41.507812500,-58.0,3.0,30.0,83.540703125,-3.075,16.421937468750002,35.03
2021-07-08 16:02:41.515625000,-58.0,3.0,30.0,83.53640625,-3.52,16.4225379375,35.03
2021-07-08 16:02:41.523437500,-58.0,3.0,30.0,83.53210937499999,-3.955,16.42313840625,35.03
2021-07-08 16:02:41.531250000,-58.0,3.0,30.0,83.5278125,-4.39,16.423738875,35.03
2021-07-08 16:02:41.539062500,-58.0,3.0,30.0,83.523515625,-4.82,16.424339343750002,35.03
2021-07-08 16:02:41.546875000,-58.0,3.0,30.0,83.51921875,-5.25,16.4249398125,35.03
2021-07-08 16:02:41.554687500,-58.0,3.0,30.0,83.514921875,-5.675,16.42554028125,35.03
2021-07-08 16:02:41.562500000,-58.0,3.0,30.0,83.51062499999999,-6.1,16.426140750000002,35.03
2021-07-08 16:02:41.570312500,-58.0,3.0,30.0,83.506328125,-6.515,16.42674121875,35.03
2021-07-08 16:02:41.578125000,-58.0,3.0,30.0,83.50203125,-6.93,16.4273416875,35.03
2021-07-08 16:02:41.585937500,-58.0,3.0,30.0,83.497734375,-7.33,16.42794215625,35.03
2021-07-08 16:02:41.593750000,-58.0,3.0,30.0,83.4934375,-7.73,16.428542625000002,35.03
2021-07-08 16:02:41.601562500,-58.0,3.0,30.0,83.48914062499999,-8.11,16.42914309375,35.03
2021-07-08 16:02:41.609375000,-58.0,3.0,30.0,83.48484375,-8.49,16.4297435625,35.03
2021-07-08 16:02:41.617187500,-58.0,3.0,30.0,83.480546875,-8.850000000000001,16.43034403125,35.03
2021-07-08 16:02:41.625000000,-58.0,3.0,30.0,83.47625,-9.21,16.430944500000003,35.03
2021-07-08 16:02:41.632812500,-58.0,3.0,30.0,83.471953125,-9.565000000000001,16.43154496875,35.03
2021-07-08 16:02:41.640625000,-58.0,3.0,30.0,83.46765624999999,-9.92,16.4321454375,35.03
2021-07-08 16:02:41.648437500,-58.0,3.0,30.0,83.463359375,-10.285,16.432745906250002,35.03
2021-07-08 16:02:41.656250000,-58.0,3.0,30.0,83.4590625,-10.65,16.433346375,35.03
2021-07-08 16:02:41.664062500,-58.0,3.0,30.0,83.454765625,-11.075,16.43394684375,35.03
2021-07-08 16:02:41.671875000,-58.0,3.0,30.0,83.45046875,-11.5,16.4345473125,35.03
2021-07-08 16:02:41.679687500,-58.0,3.0,30.0,83.44617187499999,-12.030000000000001,16.435147781250002,35.03
2021-07-08 16:02:41.687500000,-58.0,3.0,30.0,83.441875,-12.56,16.43574825,35.03
2021-07-08 16:02:41.695312500,-58.0,3.0,30.0,83.437578125,-13.18,16.43634871875,35.03
2021-07-08 16:02:41.703125000,-58.0,3.0,30.0,83.43328125,-13.8,16.4369491875,35.03
2021-07-08 16:02:41.710937500,-58.0,3.0,30.0,83.428984375,-14.4,16.43754965625,35.03
2021-07-08 16:02:41.718750000,-58.0,3.0,30.0,83.42468749999999,-15.0,16.438150125,35.03
2021-07-08 16:02:41.726562500,-58.0,3.0,30.0,83.420390625,-15.375,16.43875059375,35.03
2021-07-08 16:02:41.734375000,-58.0,3.0,30.0,83.41609375,-15.75,16.439351062500002,35.03
2021-07-08 16:02:41.742187500,-58.0,3.0,30.0,83.411796875,-15.665,16.43995153125,35.03
2021-07-08 16:02:41.750000000,-58.0,3.0,30.0,83.4075,-15.58,16.440552,35.03
2021-07-08 16:02:41.757812500,-58.0,3.0,30.0,83.40320312499999,-14.865,16.440552,35.03
2021-07-08 16:02:41.765625000,-58.0,3.0,30.0,83.39890625,-14.15,16.440552,35.03
2021-07-08 16:02:41.773437500,-58.0,3.0,30.0,83.394609375,-12.77,16.440552,35.03
2021-07-08 16:02:41.781250000,-58.0,3.0,30.0,83.3903125,-11.39,16.440552,35.03
2021-07-08 16:02:41.789062500,-58.0,3.0,30.0,83.386015625,-9.485,16.440552,35.03
2021-07-08 16:02:41.796875000,-58.0,3.0,30.0,83.38171874999999,-7.58,16.440552,35.03
2021-07-08 16:02:41.804687500,-58.0,3.0,30.0,83.377421875,-5.415,16.440552,35.03
2021-07-08 16:02:41.812500000,-58.0,3.0,30.0,83.373125,-3.25,16.440552,35.03
2021-07-08 16:02:41.820312500,-58.0,3.0,30.0,83.368828125,-1.125,16.440552,35.03
2021-07-08 16:02:41.828125000,-58.0,3.0,30.0,83.36453125,1.0,16.440552,35.03
2021-07-08 16:02:41.835937500,-58.0,3.0,30.0,83.36023437499999,2.855,16.440552,35.03
2021-07-08 16:02:41.843750000,-58.0,3.0,30.0,83.3559375,4.71,16.440552,35.03
2021-07-08 16:02:41.851562500,-58.0,2.75,30.0,83.351640625,6.16,16.440552,35.03
2021-07-08 16:02:41.859375000,-58.0,2.5,30.0,83.34734375,7.61,16.440552,35.03
2021-07-08 16:02:41.867187500,-58.0,2.25,30.0,83.343046875,8.59,16.440552,35.03
2021-07-08 16:02:41.875000000,-58.0,2.0,30.0,83.33874999999999,9.57,16.440552,35.03
2021-07-08 16:02:41.882812500,-58.0,2.0,30.0,83.334453125,10.094999999999999,16.440552,35.03
2021-07-08 16:02:41.890625000,-58.0,2.0,30.0,83.33015625,10.62,16.440552,35.03
2021-07-08 16:02:41.898437500,-58.0,2.0,30.0,83.325859375,10.739999999999998,16.440552,35.03
2021-07-08 16:02:41.906250000,-58.0,2.0,30.0,83.3215625,10.86,16.440552,35.03
2021-07-08 16:02:41.914062500,-58.0,2.0,30.0,83.31726562499999,10.68,16.440552,35.03
2021-07-08 16:02:41.921875000,-58.0,2.0,30.0,83.31296875,10.5,16.440552,35.03
2021-07-08 16:02:41.929687500,-58.0,2.0,30.0,83.308671875,10.16,16.440552,35.03
2021-07-08 16:02:41.937500000,-58.0,2.0,30.0,83.304375,9.82,16.440552,35.03
2021-07-08 16:02:41.945312500,-58.0,2.0,29.75,83.300078125,9.5,16.440552,35.03
2021-07-08 16:02:41.953125000,-58.0,2.0,29.5,83.29578124999999,9.18,16.440552,35.03
2021-07-08 16:02:41.960937500,-58.0,2.0,29.25,83.291484375,9.045,16.440552,35.03
2021-07-08 16:02:41.968750000,-58.0,2.0,29.0,83.2871875,8.91,16.440552,35.03
2021-07-08 16:02:41.976562500,-58.0,2.0,29.0,83.282890625,9.04,16.440552,35.03
2021-07-08 16:02:41.984375000,-58.0,2.0,29.0,83.27859375,9.17,16.440552,35.03
2021-07-08 16:02:41.992187500,-58.0,2.0,29.0,83.27429687499999,9.535,16.440552,35.03
2021-07-08 16:02:42.000000000,-58.0,2.0,29.0,83.27,9.9,16.440552,35.03
2021-07-08 16:02:42.007812500,-58.0,2.0,29.0,83.26609375,10.39,16.44107240625,35.03
2021-07-08 16:02:42.015625000,-58.0,2.0,29.0,83.2621875,10.88,16.4415928125,35.03
2021-07-08 16:02:42.023437500,-58.0,2.0,29.0,83.25828125,11.355,16.44211321875,35.03
2021-07-08 16:02:42.031250000,-58.0,2.0,29.0,83.254375,11.83,16.442633625,35.03
2021-07-08 16:02:42.039062500,-58.25,2.0,29.0,83.25046875,12.184999999999999,16.44315403125,35.03
2021-07-08 16:02:42.046875000,-58.5,2.0,29.0,83.2465625,12.54,16.4436744375,35.03
2021-07-08 16:02:42.054687500,-58.75,2.0,29.0,83.24265625,12.715,16.44419484375,35.03
2021-07-08 16:02:42.062500000,-59.0,2.0,29.0,83.23875,12.89,16.44471525,35.03
2021-07-08 16:02:42.070312500,-58.75,2.0,29.0,83.23484375,12.9,16.44523565625,35.03
2021-07-08 16:02:42.078125000,-58.5,2.0,29.0,83.2309375,12.91,16.4457560625,35.03
2021-07-08 16:02:42.085937500,-58.25,2.0,29.0,83.22703125,12.780000000000001,16.44627646875,35.03
2021-07-08 16:02:42.093750000,-58.0,2.0,29.0,83.223125,12.65,16.446796875,35.03
2021-07-08 16:02:42.101562500,-58.0,2.0,29.0,83.21921875,12.4,16.44731728125,35.03
2021-07-08 16:02:42.109375000,-58.0,2.0,29.0,83.2153125,12.15,16.447837687499998,35.03
2021-07-08 16:02:42.117187500,-58.0,2.0,29.0,83.21140625,11.775,16.44835809375,35.03
2021-07-08 16:02:42.125000000,-58.0,2.0,29.0,83.2075,11.4,16.4488785,35.03
2021-07-08 16:02:42.132812500,-58.0,2.0,29.0,83.20359375,10.905000000000001,16.44939890625,35.03
2021-07-08 16:02:42.140625000,-58.0,2.0,29.0,83.1996875,10.41,16.4499193125,35.03
2021-07-08 16:02:42.148437500,-58.0,2.0,29.0,83.19578125,9.79,16.450439718749998,35.03
2021-07-08 16:02:42.156250000,-58.0,2.0,29.0,83.191875,9.17,16.450960124999998,35.03
2021-07-08 16:02:42.164062500,-58.0,2.0,29.0,83.18796875,8.475,16.45148053125,35.03
2021-07-08 16:02:42.171875000,-58.0,2.0,29.0,83.1840625,7.78,16.4520009375,35.03
2021-07-08 16:02:42.179687500,-58.0,2.0,29.0,83.18015625,7.055,16.45252134375,35.03
2021-07-08 16:02:42.187500000,-58.0,2.0,29.0,83.17625,6.33,16.453041749999997,35.03
2021-07-08 16:02:42.195312500,-58.0,2.0,29.0,83.17234375,5.66,16.453562156249998,35.03
2021-07-08 16:02:42.203125000,-58.0,2.0,29.0,83.1684375,4.99,16.4540825625,35.03
2021-07-08 16:02:42.210937500,-58.0,2.0,29.0,83.16453125,4.41,16.45460296875,35.03
2021-07-08 16:02:42.218750000,-58.0,2.0,29.0,83.160625,3.83,16.455123375,35.03
2021-07-08 16:02:42.226562500,-58.0,2.0,29.0,83.15671875,3.35,16.45564378125,35.03
2021-07-08 16:02:42.234375000,-58.0,2.0,29.0,83.1528125,2.87,16.456164187499997,35.03
2021-07-08 16:02:42.242187500,-58.0,2.0,29.0,83.14890625,2.44,16.456684593749998,35.03
2021-07-08 16:02:42.250000000,-58.0,2.0,29.0,83.145,2.01,16.457205,35.03
2021-07-08 16:02:42.257812500,-58.0,2.0,29.0,83.14109375,1.56,16.4574451875,35.03
2021-07-08 16:02:42.265625000,-58.0,2.0,29.0,83.1371875,1.11,16.457685374999997,35.03
2021-07-08 16:02:42.273437500,-58.0,2.0,29.0,83.13328125,0.555,16.457925562499998,35.03
2021-07-08 16:02:42.281250000,-58.0,2.0,29.0,83.129375,0.0,16.45816575,35.03
2021-07-08 16:02:42.289062500,-58.0,2.0,29.0,83.12546875,-0.68,16.4584059375,35.03
2021-07-08 16:02:42.296875000,-58.0,2.0,29.0,83.1215625,-1.36,16.458646124999998,35.03
2021-07-08 16:02:42.304687500,-58.0,2.0,29.0,83.11765625,-2.14,16.4588863125,35.03
2021-07-08 16:02:42.312500000,-58.0,2.0,29.0,83.11375,-2.92,16.4591265,35.03
2021-07-08 16:02:42.320312500,-58.0,2.0,29.0,83.10984375,-3.715,16.459366687499998,35.03
2021-07-08 16:02:42.328125000,-58.0,2.0,29.0,83.1059375,-4.51,16.459606875,35.03
2021-07-08 16:02:42.335937500,-58.0,2.0,29.0,83.10203125,-5.215,16.4598470625,35.03
2021-07-08 16:02:42.343750000,-58.0,2.0,29.0,83.098125,-5.92,16.46008725,35.03
2021-07-08 16:02:42.351562500,-58.0,2.0,29.0,83.09421875,-6.4399999999999995,16.4603274375,35.03
2021-07-08 16:02:42.359375000,-58.0,2.0,29.0,83.0903125,-6.96,16.460567625,35.03
2021-07-08 16:02:42.367187500,-58.0,2.0,29.0,83.08640625,-7.279999999999999,16.4608078125,35.03
2021-07-08 16:02:42.375000000,-58.0,2.0,29.0,83.0825,-7.6,16.461047999999998,35.03
2021-07-08 16:02:42.382812500,-58.0,2.0,29.0,83.07859375,-7.765,16.4612881875,35.03
2021-07-08 16:02:42.390625000,-58.0,2.0,29.0,83.0746875,-7.93,16.461528375,35.03
2021-07-08 16:02:42.398437500,-58.0,2.0,29.0,83.07078125,-8.030000000000001,16.4617685625,35.03
2021-07-08 16:02:42.406250000,-58.0,2.0,29.0,83.066875,-8.13,16.46200875,35.03
2021-07-08 16:02:42.414062500,-58.0,2.0,29.0,83.06296875,-8.285,16.4622489375,35.03
2021-07-08 16:02:42.421875000,-58.0,2.0,29.0,83.0590625,-8.44,16.462489125,35.03
2021-07-08 16:02:42.429687500,-58.0,2.0,29.0,83.05515625,-8.73,16.462729312500002,35.03
2021-07-08 16:02:42.437500000,-58.0,2.0,29.0,83.05125,-9.02,16.4629695,35.03
2021-07-08 16:02:42.445312500,-58.0,2.0,29.0,83.04734375,-9.469999999999999,16.4632096875,35.03
2021-07-08 16:02:42.453125000,-58.0,2.0,29.0,83.0434375,-9.92,16.463449875000002,35.03
2021-07-08 16:02:42.460937500,-58.0,2.0,29.0,83.03953125,-10.48,16.4636900625,35.03
2021-07-08 16:02:42.468750000,-58.0,2.0,29.0,83.035625,-11.04,16.46393025,35.03
2021-07-08 16:02:42.476562500,-58.0,2.0,29.0,83.03171875,-11.585,16.4641704375,35.03
2021-07-08 16:02:42.484375000,-58.0,2.0,29.0,83.0278125,-12.13,16.464410625000003,35.03
2021-07-08 16:02:42.492187500,-58.0,2.0,29.0,83.02390625,-12.52,16.4646508125,35.03
2021-07-08 16:02:42.500000000,-58.0,2.0,29.0,83.02,-12.91,16.464891,35.03
2021-07-08 16:02:42.507812500,-58.0,2.0,29.0,83.01609375,-13.01,16.465211281250003,35.03
2021-07-08 16:02:42.515625000,-58.0,2.0,29.0,83.0121875,-13.11,16.4655315625,35.03
2021-07-08 16:02:42.523437500,-58.0,2.0,29.0,83.00828125,-12.855,16.465851843750002,35.03
2021-07-08 16:02:42.531250000,-58.0,2.0,29.0,83.004375,-12.6,16.466172125,35.03
2021-07-08 16:02:42.539062500,-58.0,2.0,29.0,83.00046875,-11.985,16.46649240625,35.03
2021-07-08 16:02:42.546875000,-58.0,2.0,29.0,82.9965625,-11.37,16.466812687500003,35.03
2021-07-08 16:02:42.554687500,-58.0,2.0,29.0,82.99265625,-10.45,16.46713296875,35.03
2021-07-08 16:02:42.562500000,-58.0,2.0,29.0,82.98875,-9.53,16.467453250000002,35.03
2021-07-08 16:02:42.570312500,-58.0,2.0,29.0,82.98484375,-8.395,16.46777353125,35.03
2021-07-08 16:02:42.578125000,-58.0,2.0,29.0,82.9809375,-7.26,16.4680938125,35.03
2021-07-08 16:02:42.585937500,-58.0,2.0,29.0,82.97703125,-5.995,16.468414093750003,35.03
2021-07-08 16:02:42.593750000,-58.0,2.0,29.0,82.973125,-4.73,16.468734375,35.03
2021-07-08 16:02:42.601562500,-58.0,2.0,29.0,82.96921875,-3.4050000000000002,16.46905465625,35.03
2021-07-08 16:02:42.609375000,-58.0,2.0,29.0,82.9653125,-2.08,16.4693749375,35.03
2021-07-08 16:02:42.617187500,-58.0,2.0,29.0,82.96140625,-0.7850000000000001,16.46969521875,35.03
2021-07-08 16:02:42.625000000,-58.0,2.0,29.0,82.9575,0.51,16.470015500000002,35.03
2021-07-08 16:02:42.632812500,-58.0,2.0,29.0,82.95359375,1.6700000000000002,16.47033578125,35.03
2021-07-08 16:02:42.640625000,-58.0,2.0,29.0,82.9496875,2.83,16.4706560625,35.03
2021-07-08 16:02:42.648437500,-58.0,2.0,29.0,82.94578125,3.735,16.47097634375,35.03
2021-07-08 16:02:42.656250000,-58.0,2.0,29.0,82.941875,4.64,16.471296625,35.03
2021-07-08 16:02:42.664062500,-58.0,2.0,29.0,82.93796875,5.1850000000000005,16.47161690625,35.03
2021-07-08 16:02:42.671875000,-58.0,2.0,29.0,82.9340625,5.73,16.4719371875,35.03
2021-07-08 16:02:42.679687500,-58.0,2.0,29.0,82.93015625,5.880000000000001,16.47225746875,35.03
2021-07-08 16:02:42.687500000,-58.0,2.0,29.0,82.92625,6.03,16.47257775,35.03
2021-07-08 16:02:42.695312500,-58.0,2.0,29.0,82.92234375,5.875,16.47289803125,35.03
2021-07-08 16:02:42.703125000,-58.0,2.0,29.0,82.9184375,5.72,16.4732183125,35.03
2021-07-08 16:02:42.710937500,-58.0,2.0,29.0,82.91453125,5.42,16.47353859375,35.03
2021-07-08 16:02:42.718750000,-58.0,2.0,29.0,82.910625,5.12,16.473858875,35.03
2021-07-08 16:02:42.726562500,-58.0,2.0,29.0,82.90671875,4.890000000000001,16.47417915625,35.03
2021-07-08 16:02:42.734375000,-58.0,2.0,29.0,82.9028125,4.66,16.4744994375,35.03
2021-07-08 16:02:42.742187500,-58.0,2.0,29.0,82.89890625,4.66,16.47481971875,35.03
2021-07-08 16:02:42.750000000,-58.0,2.0,29.0,82.895,4.66,16.47514,35.03
2021-07-08 16:02:42.757812500,-58.0,2.0,29.0,82.89109375,4.9350000000000005,16.4750599375,35.03
2021-07-08 16:02:42.765625000,-58.0,2.0,29.0,82.8871875,5.21,16.474979875,35.03
2021-07-08 16:02:42.773437500,-58.0,2.0,29.0,82.88328125,5.695,16.4748998125,35.03
2021-07-08 16:02:42.781250000,-58.0,2.0,29.0,82.879375,6.18,16.474819749999998,35.03
2021-07-08 16:02:42.789062500,-58.0,2.0,29.0,82.87546875,6.73,16.474739687499998,35.03
2021-07-08 16:02:42.796875000,-58.0,2.0,29.0,82.8715625,7.28,16.474659625,35.03
2021-07-08 16:02:42.804687500,-58.0,2.0,29.0,82.86765625,7.755000000000001,16.4745795625,35.03
2021-07-08 16:02:42.812500000,-58.0,2.0,29.0,82.86375,8.23,16.4744995,35.03
2021-07-08 16:02:42.820312500,-58.0,2.0,29.0,82.85984375,8.55,16.4744194375,35.03
2021-07-08 16:02:42.828125000,-58.0,2.0,29.0,82.8559375,8.87,16.474339375,35.03
2021-07-08 16:02:42.835937500,-58.0,2.0,29.0,82.85203125,9.04,16.4742593125,35.03
2021-07-08 16:02:42.843750000,-58.0,2.0,29.0,82.848125,9.21,16.47417925,35.03
2021-07-08 16:02:42.851562500,-58.0,2.0,29.0,82.84421875,9.285,16.4740991875,35.03
2021-07-08 16:02:42.859375000,-58.0,2.0,29.0,82.8403125,9.36,16.474019124999998,35.03
2021-07-08 16:02:42.867187500,-58.0,2.0,29.0,82.83640625,9.41,16.473939062499998,35.03
2021-07-08 16:02:42.875000000,-58.0,2.0,29.0,82.8325,9.46,16.473858999999997,35.03
2021-07-08 16:02:42.882812500,-58.0,2.0,29.0,82.82859375,9.54,16.4737789375,35.03
2021-07-08 16:02:42.890625000,-58.0,2.0,29.0,82.8246875,9.62,16.473698875,35.03
2021-07-08 16:02:42.898437500,-58.0,2.0,29.0,82.82078125,9.75,16.4736188125,35.03
2021-07-08 16:02:42.906250000,-58.0,2.0,29.0,82.816875,9.88,16.47353875,35.03
2021-07-08 16:02:42.914062500,-58.0,2.0,29.0,82.81296875,10.06,16.4734586875,35.03
2021-07-08 16:02:42.921875000,-58.0,2.0,29.0,82.8090625,10.24,16.473378625,35.03
2021-07-08 16:02:42.929687500,-58.0,2.0,29.0,82.80515625,10.469999999999999,16.4732985625,35.03
2021-07-08 16:02:42.937500000,-58.0,2.0,29.0,82.80125,10.7,16.473218499999998,35.03
2021-07-08 16:02:42.945312500,-58.0,2.0,29.0,82.79734375,10.965,16.473138437499998,35.03
2021-07-08 16:02:42.953125000,-58.0,2.0,29.0,82.7934375,11.23,16.473058374999997,35.03
2021-07-08 16:02:42.960937500,-58.0,2.0,29.0,82.78953125,11.51,16.4729783125,35.03
2021-07-08 16:02:42.968750000,-58.0,2.0,29.0,82.785625,11.79,16.47289825,35.03
2021-07-08 16:02:42.976562500,-58.0,2.0,29.0,82.78171875,12.045,16.4728181875,35.03
2021-07-08 16:02:42.984375000,-58.0,2.0,29.0,82.7778125,12.3,16.472738125,35.03
2021-07-08 16:02:42.992187500,-58.0,2.0,29.0,82.77390625,12.475000000000001,16.4726580625,35.03
2021-07-08 16:02:43.000000000,-58.0,2.0,29.0,82.77,12.65,16.472578,35.03
2021-07-08 16:02:43.007812500,-58.0,2.0,29.25,82.765703125,12.68,16.473018375,35.030625
2021-07-08 16:02:43.015625000,-58.0,2.0,29.5,82.76140625,12.71,16.47345875,35.03125
2021-07-08 16:02:43.023437500,-58.0,2.0,29.75,82.757109375,12.535,16.473899125,35.031875
2021-07-08 16:02:43.031250000,-58.0,2.0,30.0,82.75281249999999,12.36,16.4743395,35.0325
2021-07-08 16:02:43.039062500,-58.0,2.0,29.75,82.748515625,11.969999999999999,16.474779875,35.033125
2021-07-08 16:02:43.046875000,-58.0,2.0,29.5,82.74421875,11.58,16.47522025,35.03375
2021-07-08 16:02:43.054687500,-58.0,2.0,29.25,82.739921875,10.995000000000001,16.475660625,35.034375
2021-07-08 16:02:43.062500000,-58.0,2.0,29.0,82.735625,10.41,16.476101,35.035
2021-07-08 16:02:43.070312500,-58.25,2.0,29.0,82.73132812499999,9.690000000000001,16.476541375,35.035625
2021-07-08 16:02:43.078125000,-58.5,2.0,29.0,82.72703125,8.97,16.47698175,35.03625
2021-07-08 16:02:43.085937500,-58.75,2.0,29.0,82.722734375,8.195,16.477422125,35.036875
2021-07-08 16:02:43.093750000,-59.0,2.0,29.0,82.7184375,7.42,16.4778625,35.0375
2021-07-08 16:02:43.101562500,-58.75,2.0,29.0,82.714140625,6.66,16.478302875,35.038125
2021-07-08 16:02:43.109375000,-58.5,2.0,29.0,82.70984374999999,5.9,16.47874325,35.03875
2021-07-08 16:02:43.117187500,-58.25,2.0,29.0,82.705546875,5.2,16.479183625,35.039375
2021-07-08 16:02:43.125000000,-58.0,2.0,29.0,82.70125,4.5,16.479624,35.04
2021-07-08 16:02:43.132812500,-58.0,2.0,29.0,82.696953125,3.8600000000000003,16.480064374999998,35.040625
2021-07-08 16:02:43.140625000,-58.0,2.0,29.0,82.69265625,3.22,16.480504749999998,35.04125
2021-07-08 16:02:43.148437500,-58.0,2.0,29.0,82.68835937499999,2.6,16.480945124999998,35.041875
2021-07-08 16:02:43.156250000,-58.0,2.0,29.0,82.6840625,1.98,16.4813855,35.0425
2021-07-08 16:02:43.164062500,-58.0,2.0,29.25,82.679765625,1.325,16.481825875,35.043124999999996
2021-07-08 16:02:43.171875000,-58.0,2.0,29.5,82.67546875,0.67,16.48226625,35.043749999999996
2021-07-08 16:02:43.179687500,-58.0,2.0,29.75,82.671171875,-0.07499999999999996,16.482706625,35.044374999999995
2021-07-08 16:02:43.187500000,-58.0,2.0,30.0,82.66687499999999,-0.82,16.483147,35.045
2021-07-08 16:02:43.195312500,-58.0,2.0,29.75,82.662578125,-1.67,16.483587375,35.045625
2021-07-08 16:02:43.203125000,-58.0,2.0,29.5,82.65828125,-2.52,16.48402775,35.04625
2021-07-08 16:02:43.210937500,-58.0,2.0,29.25,82.653984375,-3.455,16.484468125,35.046875
2021-07-08 16:02:43.218750000,-58.0,2.0,29.0,82.6496875,-4.39,16.4849085,35.0475
2021-07-08 16:02:43.226562500,-58.0,2.0,29.0,82.64539062499999,-5.38,16.485348875,35.048125
2021-07-08 16:02:43.234375000,-58.0,2.0,29.0,82.64109375,-6.37,16.48578925,35.04875
2021-07-08 16:02:43.242187500,-58.0,2.0,29.0,82.636796875,-7.355,16.486229625,35.049375
2021-07-08 16:02:43.250000000,-58.0,2.0,29.0,82.6325,-8.34,16.48667,35.05
2021-07-08 16:02:43.257812500,-58.0,2.0,29.0,82.628203125,-9.275,16.4911073125,35.05
2021-07-08 16:02:43.265625000,-58.0,2.0,29.0,82.62390624999999,-10.21,16.495544625,35.05
2021-07-08 16:02:43.273437500,-58.0,2.0,29.0,82.619609375,-11.030000000000001,16.4999819375,35.05
2021-07-08 16:02:43.281250000,-58.0,2.0,29.0,82.6153125,-11.85,16.50441925,35.05
2021-07-08 16:02:43.289062500,-58.0,2.0,29.0,82.611015625,-12.485,16.5088565625,35.05
2021-07-08 16:02:43.296875000,-58.0,2.0,29.0,82.60671875,-13.12,16.513293875,35.05
2021-07-08 16:02:43.304687500,-58.0,2.0,29.0,82.60242187499999,-13.5,16.5177311875,35.05
2021-07-08 16:02:43.312500000,-58.0,2.0,29.0,82.598125,-13.88,16.5221685,35.05
2021-07-08 16:02:43.320312500,-58.0,2.0,29.0,82.593828125,-13.940000000000001,16.5266058125,35.05
2021-07-08 16:02:43.328125000,-58.0,2.0,29.0,82.58953125,-14.0,16.531043125,35.05
2021-07-08 16:02:43.335937500,-58.0,2.0,29.0,82.585234375,-13.725,16.5354804375,35.05
2021-07-08 16:02:43.343750000,-58.0,2.0,29.0,82.58093749999999,-13.45,16.53991775,35.05
2021-07-08 16:02:43.351562500,-58.0,2.0,29.0,82.576640625,-12.875,16.5443550625,35.05
2021-07-08 16:02:43.359375000,-58.0,2.0,29.0,82.57234375,-12.3,16.548792375,35.05
2021-07-08 16:02:43.367187500,-58.0,2.0,29.0,82.568046875,-11.495000000000001,16.5532296875,35.05
2021-07-08 16:02:43.375000000,-58.0,2.0,29.0,82.56375,-10.69,16.557667000000002,35.05
2021-07-08 16:02:43.382812500,-58.0,2.0,29.0,82.55945312499999,-9.754999999999999,16.5621043125,35.05
2021-07-08 16:02:43.390625000,-58.0,2.0,29.0,82.55515625,-8.82,16.566541625,35.05
2021-07-08 16:02:43.398437500,-58.0,2.0,29.0,82.550859375,-7.83,16.5709789375,35.05
2021-07-08 16:02:43.406250000,-58.0,2.0,29.0,82.5465625,-6.84,16.57541625,35.05
2021-07-08 16:02:43.414062500,-58.0,2.0,29.0,82.542265625,-5.865,16.579853562500002,35.05
2021-07-08 16:02:43.421875000,-58.0,2.0,29.0,82.53796874999999,-4.89,16.584290875,35.05
2021-07-08 16:02:43.429687500,-58.0,2.0,29.0,82.533671875,-3.995,16.5887281875,35.05
2021-07-08 16:02:43.437500000,-58.0,2.0,29.0,82.529375,-3.1,16.5931655,35.05
2021-07-08 16:02:43.445312500,-58.0,2.0,29.0,82.525078125,-2.325,16.5976028125,35.05
2021-07-08 16:02:43.453125000,-58.0,2.0,29.0,82.52078125,-1.55,16.602040125000002,35.05
2021-07-08 16:02:43.460937500,-58.0,2.0,29.0,82.51648437499999,-0.935,16.6064774375,35.05
2021-07-08 16:02:43.468750000,-58.0,2.0,29.0,82.5121875,-0.32,16.61091475,35.05
2021-07-08 16:02:43.476562500,-58.0,2.0,29.0,82.507890625,0.12499999999999994,16.6153520625,35.05
2021-07-08 16:02:43.484375000,-58.0,2.0,29.0,82.50359375,0.57,16.619789375,35.05
2021-07-08 16:02:43.492187500,-58.0,2.0,29.0,82.499296875,0.8699999999999999,16.624226687500002,35.05
2021-07-08 16:02:43.500000000,-58.0,2.0,29.0,82.495,1.17,16.628664,35.05
2021-07-08 16:02:43.507812500,-58.0,2.0,29.0,82.490703125,1.35,16.62890415625,35.05
2021-07-08 16:02:43.515625000,-58.0,2.0,29.0,82.48640625,1.53,16.6291443125,35.05
2021-07-08 16:02:43.523437500,-58.0,2.0,29.0,82.482109375,1.645,16.62938446875,35.05
2021-07-08 16:02:43.531250000,-58.0,2.0,29.0,82.4778125,1.76,16.629624625,35.05
2021-07-08 16:02:43.539062500,-58.0,2.0,29.0,82.473515625,1.8399999999999999,16.62986478125,35.05
2021-07-08 16:02:43.546875000,-58.0,2.0,29.0,82.46921875,1.92,16.6301049375,35.05
2021-07-08 16:02:43.554687500,-58.0,2.0,29.0,82.464921875,1.98,16.63034509375,35.05
2021-07-08 16:02:43.562500000,-58.0,2.0,29.0,82.460625,2.04,16.63058525,35.05
2021-07-08 16:02:43.570312500,-58.0,2.0,29.0,82.456328125,2.08,16.63082540625,35.05
2021-07-08 16:02:43.578125000,-58.0,2.0,29.0,82.45203125,2.12,16.6310655625,35.05
2021-07-08 16:02:43.585937500,-58.0,2.0,29.0,82.447734375,2.1550000000000002,16.63130571875,35.05
2021-07-08 16:02:43.593750000,-58.0,2.0,29.0,82.4434375,2.19,16.631545875,35.05
2021-07-08 16:02:43.601562500,-58.0,2.0,29.0,82.439140625,2.21,16.63178603125,35.05
2021-07-08 16:02:43.609375000,-58.0,2.0,29.0,82.43484375,2.23,16.6320261875,35.05
2021-07-08 16:02:43.617187500,-58.0,2.0,29.0,82.430546875,2.2199999999999998,16.63226634375,35.05
2021-07-08 16:02:43.625000000,-58.0,2.0,29.0,82.42625,2.21,16.632506499999998,35.05
2021-07-08 16:02:43.632812500,-58.0,2.0,29.0,82.421953125,2.1399999999999997,16.63274665625,35.05
2021-07-08 16:02:43.640625000,-58.0,2.0,29.0,82.41765625,2.07,16.6329868125,35.05
2021-07-08 16:02:43.648437500,-58.0,2.0,29.0,82.413359375,1.915,16.633226968749998,35.05
2021-07-08 16:02:43.656250000,-58.0,2.0,29.0,82.4090625,1.76,16.633467125,35.05
2021-07-08 16:02:43.664062500,-58.0,2.0,29.0,82.404765625,1.5350000000000001,16.63370728125,35.05
2021-07-08 16:02:43.671875000,-58.0,2.0,29.0,82.40046875,1.31,16.633947437499998,35.05
2021-07-08 16:02:43.679687500,-58.0,2.0,29.0,82.396171875,1.045,16.63418759375,35.05
2021-07-08 16:02:43.687500000,-58.0,2.0,29.0,82.391875,0.78,16.63442775,35.05
2021-07-08 16:02:43.695312500,-58.0,2.0,29.0,82.387578125,0.555,16.634667906249998,35.05
2021-07-08 16:02:43.703125000,-58.0,2.0,29.0,82.38328125,0.33,16.6349080625,35.05
2021-07-08 16:02:43.710937500,-58.0,2.0,29.0,82.378984375,0.2,16.63514821875,35.05
2021-07-08 16:02:43.718750000,-58.0,2.0,29.0,82.3746875,0.07,16.635388374999998,35.05
2021-07-08 16:02:43.726562500,-58.0,2.0,29.0,82.370390625,0.05,16.63562853125,35.05
2021-07-08 16:02:43.734375000,-58.0,2.0,29.0,82.36609375,0.03,16.6358686875,35.05
2021-07-08 16:02:43.742187500,-58.0,2.0,29.0,82.361796875,0.06,16.636108843749998,35.05
2021-07-08 16:02:43.750000000,-58.0,2.0,29.0,82.3575,0.09,16.636349,35.05
2021-07-08 16:02:43.757812500,-58.0,2.0,29.0,82.353203125,0.075,16.636349,35.05
2021-07-08 16:02:43.765625000,-58.0,2.0,29.0,82.34890625,0.06,16.636349,35.05
2021-07-08 16:02:43.773437500,-58.0,2.0,29.0,82.344609375,-0.09,16.636349,35.05
2021-07-08 16:02:43.781250000,-58.0,2.0,29.0,82.3403125,-0.24,16.636349,35.05
2021-07-08 16:02:43.789062500,-58.0,2.0,29.0,82.336015625,-0.565,16.636349,35.05
2021-07-08 16:02:43.796875000,-58.0,2.0,29.0,82.33171875,-0.89,16.636349,35.05
2021-07-08 16:02:43.804687500,-58.0,2.0,29.0,82.327421875,-1.355,16.636349,35.05
2021-07-08 16:02:43.812500000,-58.0,2.0,29.0,82.323125,-1.82,16.636349,35.05
2021-07-08 16:02:43.820312500,-58.0,2.0,29.0,82.318828125,-2.33,16.636349,35.05
2021-07-08 16:02:43.828125000,-58.0,2.0,29.0,82.31453125,-2.84,16.636349,35.05
2021-07-08 16:02:43.835937500,-58.0,2.0,29.0,82.310234375,-3.29,16.636349,35.05
2021-07-08 16:02:43.843750000,-58.0,2.0,29.0,82.3059375,-3.74,16.636349,35.05
2021-07-08 16:02:43.851562500,-58.0,2.0,29.0,82.301640625,-4.075,16.636349,35.05
2021-07-08 16:02:43.859375000,-58.0,2.0,29.0,82.29734375,-4.41,16.636349,35.05
2021-07-08 16:02:43.867187500,-58.0,2.0,29.0,82.293046875,-4.62,16.636349,35.05
2021-07-08 16:02:43.875000000,-58.0,2.0,29.0,82.28875,-4.83,16.636349,35.05
2021-07-08 16:02:43.882812500,-58.0,2.0,29.0,82.284453125,-4.995,16.636349,35.05
2021-07-08 16:02:43.890625000,-58.0,2.0,29.0,82.28015625,-5.16,16.636349,35.05
2021-07-08 16:02:43.898437500,-58.0,2.0,29.0,82.275859375,-5.365,16.636349,35.05
2021-07-08 16:02:43.906250000,-58.0,2.0,29.0,82.2715625,-5.57,16.636349,35.05
2021-07-08 16:02:43.914062500,-58.0,2.0,29.0,82.267265625,-5.885,16.636349,35.05
2021-07-08 16:02:43.921875000,-58.0,2.0,29.0,82.26296875,-6.2,16.636349,35.05
2021-07-08 16:02:43.929687500,-58.0,2.0,29.0,82.258671875,-6.625,16.636349,35.05
2021-07-08 16:02:43.937500000,-58.0,2.0,29.0,82.254375,-7.05,16.636349,35.05
2021-07-08 16:02:43.945312500,-58.25,2.0,29.0,82.250078125,-7.525,16.636349,35.05
2021-07-08 16:02:43.953125000,-58.5,2.0,29.0,82.24578125,-8.0,16.636349,35.05
2021-07-08 16:02:43.960937500,-58.75,2.0,29.0,82.241484375,-8.455,16.636349,35.05
2021-07-08 16:02:43.968750000,-59.0,2.0,29.0,82.2371875,-8.91,16.636349,35.05
2021-07-08 16:02:43.976562500,-58.75,2.0,29.0,82.232890625,-9.3,16.636349,35.05
2021-07-08 16:02:43.984375000,-58.5,2.0,29.0,82.22859375,-9.69,16.636349,35.05
2021-07-08 16:02:43.992187500,-58.25,2.0,29.0,82.224296875,-10.024999999999999,16.636349,35.05
2021-07-08 16:02:44.000000000,-58.0,2.0,29.0,82.22,-10.36,16.636349,35.05
2021-07-08 16:02:44.007812500,-58.0,2.0,29.0,82.2159375,-10.705,16.63542828125,35.0484375
2021-07-08 16:02:44.015625000,-58.0,2.0,29.0,82.21187499999999,-11.05,16.634507562499998,35.046875
2021-07-08 16:02:44.023437500,-58.0,2.0,29.0,82.2078125,-11.485,16.63358684375,35.045312499999994
2021-07-08 16:02:44.031250000,-58.0,2.0,29.0,82.20375,-11.92,16.632666125,35.043749999999996
2021-07-08 16:02:44.039062500,-58.0,2.0,29.0,82.1996875,-12.48,16.631745406249998,35.0421875
2021-07-08 16:02:44.046875000,-58.0,2.0,29.0,82.19562499999999,-13.04,16.6308246875,35.040625
2021-07-08 16:02:44.054687500,-58.0,2.0,29.0,82.1915625,-13.684999999999999,16.62990396875,35.0390625
2021-07-08 16:02:44.062500000,-58.0,2.0,29.0,82.1875,-14.33,16.628983249999997,35.037499999999994
2021-07-08 16:02:44.070312500,-58.0,2.0,29.0,82.1834375,-14.969999999999999,16.62806253125,35.035937499999996
2021-07-08 16:02:44.078125000,-58.0,2.0,29.0,82.179375,-15.61,16.6271418125,35.034375
2021-07-08 16:02:44.085937500,-58.0,2.0,29.0,82.1753125,-16.105,16.62622109375,35.0328125
2021-07-08 16:02:44.093750000,-58.0,2.0,29.0,82.17125,-16.6,16.625300375,35.03125
2021-07-08 16:02:44.101562500,-58.0,2.0,29.0,82.1671875,-16.855,16.62437965625,35.0296875
2021-07-08 16:02:44.109375000,-58.0,2.0,29.0,82.163125,-17.11,16.6234589375,35.028124999999996
2021-07-08 16:02:44.117187500,-58.0,2.0,29.0,82.1590625,-17.075,16.622538218749998,35.0265625
2021-07-08 16:02:44.125000000,-58.0,2.0,29.0,82.155,-17.04,16.6216175,35.025
2021-07-08 16:02:44.132812500,-58.0,2.0,29.0,82.1509375,-16.705,16.62069678125,35.0234375
2021-07-08 16:02:44.140625000,-58.0,2.0,29.0,82.146875,-16.37,16.619776062499998,35.021875
2021-07-08 16:02:44.148437500,-58.0,2.0,29.0,82.1428125,-15.780000000000001,16.61885534375,35.020312499999996
2021-07-08 16:02:44.156250000,-58.0,2.0,29.0,82.13875,-15.19,16.617934625,35.01875
2021-07-08 16:02:44.164062500,-58.0,2.0,29.0,82.1346875,-14.375,16.617013906249998,35.0171875
2021-07-08 16:02:44.171875000,-58.0,2.0,29.0,82.130625,-13.56,16.6160931875,35.015625
2021-07-08 16:02:44.179687500,-58.0,2.0,29.0,82.1265625,-12.56,16.61517246875,35.0140625
2021-07-08 16:02:44.187500000,-58.0,2.0,29.0,82.1225,-11.56,16.61425175,35.0125
2021-07-08 16:02:44.195312500,-58.0,2.0,29.0,82.1184375,-10.4,16.61333103125,35.0109375
2021-07-08 16:02:44.203125000,-58.0,2.0,29.0,82.114375,-9.24,16.6124103125,35.009375
2021-07-08 16:02:44.210937500,-58.0,2.0,29.0,82.1103125,-7.9350000000000005,16.61148959375,35.0078125
2021-07-08 16:02:44.218750000,-58.0,2.0,29.0,82.10625,-6.63,16.610568875,35.00625
2021-07-08 16:02:44.226562500,-58.0,2.0,29.0,82.1021875,-5.225,16.60964815625,35.0046875
2021-07-08 16:02:44.234375000,-58.0,2.0,29.0,82.098125,-3.82,16.6087274375,35.003125
2021-07-08 16:02:44.242187500,-58.0,2.0,29.0,82.0940625,-2.37,16.60780671875,35.0015625
2021-07-08 16:02:44.250000000,-58.0,2.0,29.0,82.09,-0.92,16.606886,35.0
2021-07-08 16:02:44.257812500,-58.0,2.0,29.0,82.0859375,0.4700000000000001,16.607366343749998,35.0
2021-07-08 16:02:44.265625000,-58.0,2.0,29.0,82.081875,1.86,16.6078466875,35.0
2021-07-08 16:02:44.273437500,-58.0,2.0,29.0,82.0778125,3.075,16.60832703125,35.0
2021-07-08 16:02:44.281250000,-58.0,2.0,29.0,82.07375,4.29,16.608807374999998,35.0
2021-07-08 16:02:44.289062500,-58.0,2.0,29.0,82.0696875,5.215,16.60928771875,35.0
2021-07-08 16:02:44.296875000,-58.0,2.0,29.0,82.065625,6.14,16.6097680625,35.0
2021-07-08 16:02:44.304687500,-58.0,2.0,29.0,82.0615625,6.699999999999999,16.61024840625,35.0
2021-07-08 16:02:44.312500000,-58.0,2.0,29.0,82.0575,7.26,16.61072875,35.0
2021-07-08 16:02:44.320312500,-58.0,2.0,29.0,82.0534375,7.495,16.61120909375,35.0
2021-07-08 16:02:44.328125000,-58.0,2.0,29.0,82.049375,7.73,16.6116894375,35.0
2021-07-08 16:02:44.335937500,-58.0,2.0,29.0,82.0453125,7.715,16.61216978125,35.0
2021-07-08 16:02:44.343750000,-58.0,2.0,29.0,82.04125,7.7,16.612650125000002,35.0
2021-07-08 16:02:44.351562500,-58.0,2.0,29.0,82.0371875,7.575,16.61313046875,35.0
2021-07-08 16:02:44.359375000,-58.0,2.0,29.0,82.033125,7.45,16.6136108125,35.0
2021-07-08 16:02:44.367187500,-58.0,2.0,29.0,82.0290625,7.32,16.61409115625,35.0
2021-07-08 16:02:44.375000000,-58.0,2.0,29.0,82.025,7.19,16.6145715,35.0
2021-07-08 16:02:44.382812500,-58.0,2.0,29.0,82.0209375,7.1,16.61505184375,35.0
2021-07-08 16:02:44.390625000,-58.0,2.0,29.0,82.016875,7.01,16.6155321875,35.0
2021-07-08 16:02:44.398437500,-58.0,2.0,29.0,82.0128125,6.9399999999999995,16.61601253125,35.0
2021-07-08 16:02:44.406250000,-58.0,2.0,29.0,82.00875,6.87,16.616492875,35.0
2021-07-08 16:02:44.414062500,-58.0,2.0,29.0,82.0046875,6.77,16.61697321875,35.0
2021-07-08 16:02:44.421875000,-58.0,2.0,29.0,82.000625,6.67,16.6174535625,35.0
2021-07-08 16:02:44.429687500,-58.0,2.0,29.0,81.9965625,6.51,16.617933906250002,35.0
2021-07-08 16:02:44.437500000,-58.0,2.0,29.0,81.9925,6.35,16.61841425,35.0
2021-07-08 16:02:44.445312500,-58.0,2.0,29.0,81.9884375,6.135,16.61889459375,35.0
2021-07-08 16:02:44.453125000,-58.0,2.0,29.0,81.984375,5.92,16.6193749375,35.0
2021-07-08 16:02:44.460937500,-58.0,2.0,29.0,81.9803125,5.715,16.61985528125,35.0
2021-07-08 16:02:44.468750000,-58.0,2.0,29.0,81.97625000000001,5.51,16.620335625000003,35.0
2021-07-08 16:02:44.476562500,-58.25,2.0,29.0,81.9721875,5.365,16.62081596875,35.0
2021-07-08 16:02:44.484375000,-58.5,2.0,29.0,81.968125,5.22,16.6212963125,35.0
2021-07-08 16:02:44.492187500,-58.75,2.0,29.0,81.9640625,5.16,16.621776656250002,35.0
2021-07-08 16:02:44.500000000,-59.0,2.0,29.0,81.96000000000001,5.1,16.622257,35.0
2021-07-08 16:02:44.507812500,-58.75,2.0,29.0,81.9559375,5.1,16.622697375,35.0
2021-07-08 16:02:44.515625000,-58.5,2.0,29.0,81.951875,5.1,16.62313775,35.0
2021-07-08 16:02:44.523437500,-58.25,2.0,29.0,81.9478125,5.1,16.623578125,35.0
2021-07-08 16:02:44.531250000,-58.0,2.0,29.0,81.94375,5.1,16.624018500000002,35.0
2021-07-08 16:02:44.539062500,-58.0,2.0,29.0,81.9396875,5.0649999999999995,16.624458875000002,35.0
2021-07-08 16:02:44.546875000,-58.0,2.0,29.0,81.935625,5.03,16.624899250000002,35.0
2021-07-08 16:02:44.554687500,-58.0,2.0,29.0,81.9315625,4.93,16.625339625000002,35.0
2021-07-08 16:02:44.562500000,-58.0,2.0,29.0,81.9275,4.83,16.62578,35.0
2021-07-08 16:02:44.570312500,-58.0,2.0,29.0,81.9234375,4.67,16.626220375,35.0
2021-07-08 16:02:44.578125000,-58.0,2.0,29.0,81.919375,4.51,16.62666075,35.0
2021-07-08 16:02:44.585937500,-58.0,2.0,29.0,81.9153125,4.305,16.627101125,35.0
2021-07-08 16:02:44.593750000,-58.0,2.0,29.0,81.91125,4.1,16.6275415,35.0
2021-07-08 16:02:44.601562500,-58.0,1.75,29.25,81.9071875,3.86,16.627981875,35.0
2021-07-08 16:02:44.609375000,-58.0,1.5,29.5,81.903125,3.62,16.62842225,35.0
2021-07-08 16:02:44.617187500,-58.0,1.25,29.75,81.8990625,3.3200000000000003,16.628862625,35.0
2021-07-08 16:02:44.625000000,-58.0,1.0,30.0,81.895,3.02,16.629303,35.0
2021-07-08 16:02:44.632812500,-58.0,1.25,29.75,81.8909375,2.66,16.629743375,35.0
2021-07-08 16:02:44.640625000,-58.0,1.5,29.5,81.886875,2.3,16.63018375,35.0
2021-07-08 16:02:44.648437500,-58.0,1.75,29.25,81.8828125,1.8599999999999999,16.630624125,35.0
2021-07-08 16:02:44.656250000,-58.0,2.0,29.0,81.87875,1.42,16.6310645,35.0
2021-07-08 16:02:44.664062500,-58.0,2.0,29.0,81.87468750000001,0.9149999999999999,16.631504875,35.0
2021-07-08 16:02:44.671875000,-58.0,2.0,29.0,81.870625,0.41,16.63194525,35.0
2021-07-08 16:02:44.679687500,-58.0,2.0,29.0,81.8665625,-0.14999999999999997,16.632385625,35.0
2021-07-08 16:02:44.687500000,-58.0,2.0,29.0,81.8625,-0.71,16.632826,35.0
2021-07-08 16:02:44.695312500,-58.0,2.0,29.0,81.85843750000001,-1.305,16.633266374999998,35.0
2021-07-08 16:02:44.703125000,-58.0,2.0,29.0,81.854375,-1.9,16.633706749999998,35.0
2021-07-08 16:02:44.710937500,-58.0,2.0,29.0,81.8503125,-2.525,16.634147125,35.0
2021-07-08 16:02:44.718750000,-58.0,2.0,29.0,81.84625,-3.15,16.6345875,35.0
2021-07-08 16:02:44.726562500,-58.0,2.0,29.0,81.84218750000001,-3.795,16.635027875,35.0
2021-07-08 16:02:44.734375000,-58.0,2.0,29.0,81.838125,-4.44,16.63546825,35.0
2021-07-08 16:02:44.742187500,-58.0,2.0,29.0,81.8340625,-5.09,16.635908625,35.0
2021-07-08 16:02:44.750000000,-58.0,2.0,29.0,81.83,-5.74,16.636349,35.0
2021-07-08 16:02:44.757812500,-58.0,2.0,29.0,81.8259375,-6.390000000000001,16.63666925,35.0
2021-07-08 16:02:44.765625000,-58.0,2.0,29.0,81.821875,-7.04,16.6369895,35.0
2021-07-08 16:02:44.773437500,-58.0,2.0,29.0,81.8178125,-7.65,16.63730975,35.0
2021-07-08 16:02:44.781250000,-58.0,2.0,29.0,81.81375,-8.26,16.637629999999998,35.0
2021-07-08 16:02:44.789062500,-58.0,2.0,29.0,81.8096875,-8.815,16.63795025,35.0
2021-07-08 16:02:44.796875000,-58.0,2.0,29.0,81.805625,-9.37,16.6382705,35.0
2021-07-08 16:02:44.804687500,-58.0,2.0,29.0,81.8015625,-9.85,16.63859075,35.0
2021-07-08 16:02:44.812500000,-58.0,2.0,29.0,81.7975,-10.33,16.638911,35.0
2021-07-08 16:02:44.820312500,-58.0,2.0,29.0,81.7934375,-10.75,16.639231249999998,35.0
2021-07-08 16:02:44.828125000,-58.0,2.0,29.0,81.789375,-11.17,16.6395515,35.0
2021-07-08 16:02:44.835937500,-58.0,2.0,29.0,81.7853125,-11.55,16.63987175,35.0
2021-07-08 16:02:44.843750000,-58.0,2.0,29.0,81.78125,-11.93,16.640192,35.0
2021-07-08 16:02:44.851562500,-58.0,2.0,29.0,81.7771875,-12.325,16.64051225,35.0
2021-07-08 16:02:44.859375000,-58.0,2.0,29.0,81.77312500000001,-12.72,16.6408325,35.0
2021-07-08 16:02:44.867187500,-58.0,2.0,29.0,81.7690625,-13.155000000000001,16.64115275,35.0
2021-07-08 16:02:44.875000000,-58.0,2.0,29.0,81.765,-13.59,16.641472999999998,35.0
2021-07-08 16:02:44.882812500,-58.0,2.0,29.0,81.7609375,-14.075,16.64179325,35.0
2021-07-08 16:02:44.890625000,-58.0,2.0,29.0,81.75687500000001,-14.56,16.6421135,35.0
2021-07-08 16:02:44.898437500,-58.0,2.0,29.0,81.7528125,-15.030000000000001,16.64243375,35.0
2021-07-08 16:02:44.906250000,-58.0,2.0,29.0,81.74875,-15.5,16.642754,35.0
2021-07-08 16:02:44.914062500,-58.0,2.0,29.0,81.7446875,-15.845,16.643074249999998,35.0
2021-07-08 16:02:44.921875000,-58.0,2.0,29.0,81.74062500000001,-16.19,16.6433945,35.0
2021-07-08 16:02:44.929687500,-58.0,2.0,29.0,81.7365625,-16.270000000000003,16.64371475,35.0
2021-07-08 16:02:44.937500000,-58.0,2.0,29.0,81.7325,-16.35,16.644035,35.0
2021-07-08 16:02:44.945312500,-58.0,2.0,29.0,81.7284375,-16.04,16.64435525,35.0
2021-07-08 16:02:44.953125000,-58.0,2.0,29.0,81.72437500000001,-15.73,16.644675499999998,35.0
2021-07-08 16:02:44.960937500,-58.0,2.0,29.0,81.7203125,-14.95,16.64499575,35.0
2021-07-08 16:02:44.968750000,-58.0,2.0,29.0,81.71625,-14.17,16.645316,35.0
2021-07-08 16:02:44.976562500,-58.0,2.0,29.0,81.7121875,-12.940000000000001,16.64563625,35.0
2021-07-08 16:02:44.984375000,-58.0,2.0,29.0,81.70812500000001,-11.71,16.6459565,35.0
2021-07-08 16:02:44.992187500,-58.0,2.0,29.0,81.7040625,-10.11,16.64627675,35.0
2021-07-08 16:02:45.000000000,-58.0,2.0,29.0,81.7,-8.51,16.646597,35.0
2021-07-08 16:02:45.007812500,-58.0,2.0,29.0,81.69828125000001,-6.705,16.64667709375,35.0009375
2021-07-08 16:02:45.015625000,-58.0,2.0,29.0,81.6965625,-4.9,16.6467571875,35.001875
2021-07-08 16:02:45.023437500,-58.0,2.0,29.0,81.69484375,-3.06,16.64683728125,35.0028125
2021-07-08 16:02:45.031250000,-58.0,2.0,29.0,81.69312500000001,-1.22,16.646917375,35.00375
2021-07-08 16:02:45.039062500,-58.0,2.0,29.0,81.69140625,0.4850000000000001,16.64699746875,35.0046875
2021-07-08 16:02:45.046875000,-58.0,2.0,29.0,81.6896875,2.19,16.647077562499998,35.005625
2021-07-08 16:02:45.054687500,-58.0,2.0,29.0,81.68796875,3.6449999999999996,16.64715765625,35.0065625
2021-07-08 16:02:45.062500000,-58.0,2.0,29.0,81.68625,5.1,16.64723775,35.0075
2021-07-08 16:02:45.070312500,-58.0,2.0,29.0,81.68453125,6.255,16.64731784375,35.0084375
2021-07-08 16:02:45.078125000,-58.0,2.0,29.0,81.6828125,7.41,16.6473979375,35.009375
2021-07-08 16:02:45.085937500,-58.0,2.0,29.0,81.68109375,8.275,16.64747803125,35.0103125
2021-07-08 16:02:45.093750000,-58.0,2.0,29.0,81.67937500000001,9.14,16.647558125,35.011250000000004
2021-07-08 16:02:45.101562500,-58.0,2.0,29.0,81.67765625,9.765,16.64763821875,35.0121875
2021-07-08 16:02:45.109375000,-58.0,2.0,29.0,81.6759375,10.39,16.6477183125,35.013125
2021-07-08 16:02:45.117187500,-58.0,2.0,29.0,81.67421875000001,10.82,16.64779840625,35.0140625
2021-07-08 16:02:45.125000000,-58.0,2.0,29.0,81.6725,11.25,16.647878499999997,35.015
2021-07-08 16:02:45.132812500,-58.0,2.0,29.25,81.67078125,11.525,16.647958593749998,35.0159375
2021-07-08 16:02:45.140625000,-58.0,2.0,29.5,81.66906250000001,11.8,16.648038687499998,35.016875
2021-07-08 16:02:45.148437500,-58.0,2.0,29.75,81.66734375,11.925,16.648118781249998,35.0178125
2021-07-08 16:02:45.156250000,-58.0,2.0,30.0,81.665625,12.05,16.648198875,35.01875
2021-07-08 16:02:45.164062500,-58.0,2.0,30.0,81.66390625,12.010000000000002,16.64827896875,35.0196875
2021-07-08 16:02:45.171875000,-58.0,2.0,30.0,81.6621875,11.97,16.6483590625,35.020625
2021-07-08 16:02:45.179687500,-58.0,2.0,30.0,81.66046875,11.785,16.64843915625,35.0215625
2021-07-08 16:02:45.187500000,-58.0,2.0,30.0,81.65875,11.6,16.64851925,35.0225
2021-07-08 16:02:45.195312500,-58.0,2.0,30.0,81.65703125,11.32,16.64859934375,35.0234375
2021-07-08 16:02:45.203125000,-58.0,2.0,30.0,81.65531250000001,11.04,16.6486794375,35.024375
2021-07-08 16:02:45.210937500,-58.0,2.0,30.0,81.65359375,10.725,16.648759531249997,35.0253125
2021-07-08 16:02:45.218750000,-58.0,2.0,30.0,81.651875,10.41,16.648839624999997,35.026250000000005
2021-07-08 16:02:45.226562500,-58.0,2.0,29.75,81.65015625000001,10.135,16.648919718749998,35.027187500000004
2021-07-08 16:02:45.234375000,-58.0,2.0,29.5,81.6484375,9.86,16.648999812499998,35.028125
2021-07-08 16:02:45.242187500,-58.0,2.0,29.25,81.64671875,9.655,16.649079906249998,35.0290625
2021-07-08 16:02:45.250000000,-58.0,2.0,29.0,81.64500000000001,9.45,16.64916,35.03
2021-07-08 16:02:45.257812500,-58.0,2.0,29.0,81.64328125,9.309999999999999,16.649640374999997,35.03
2021-07-08 16:02:45.265625000,-58.0,2.0,29.0,81.6415625,9.17,16.65012075,35.03
2021-07-08 16:02:45.273437500,-58.0,2.0,29.0,81.63984375,9.05,16.650601124999998,35.03
2021-07-08 16:02:45.281250000,-58.0,2.0,29.0,81.638125,8.93,16.6510815,35.03
2021-07-08 16:02:45.289062500,-58.0,2.0,29.25,81.63640625000001,8.780000000000001,16.651561875,35.03
2021-07-08 16:02:45.296875000,-58.0,2.0,29.5,81.6346875,8.63,16.652042249999997,35.03
2021-07-08 16:02:45.304687500,-58.0,2.0,29.75,81.63296875,8.405000000000001,16.652522625,35.03
2021-07-08 16:02:45.312500000,-58.0,2.0,30.0,81.63125000000001,8.18,16.653003,35.03
2021-07-08 16:02:45.320312500,-58.0,2.0,30.0,81.62953125,7.89,16.653483375,35.03
2021-07-08 16:02:45.328125000,-58.0,2.0,30.0,81.6278125,7.6,16.65396375,35.03
2021-07-08 16:02:45.335937500,-58.0,2.0,30.0,81.62609375000001,7.27,16.654444124999998,35.03
2021-07-08 16:02:45.343750000,-58.0,2.0,30.0,81.624375,6.94,16.6549245,35.03
2021-07-08 16:02:45.351562500,-58.0,2.0,30.0,81.62265625,6.615,16.655404875,35.03
2021-07-08 16:02:45.359375000,-58.0,2.0,30.0,81.6209375,6.29,16.65588525,35.03
2021-07-08 16:02:45.367187500,-58.0,2.0,30.0,81.61921875,6.01,16.656365625,35.03
2021-07-08 16:02:45.375000000,-58.0,2.0,30.0,81.6175,5.73,16.656846,35.03
2021-07-08 16:02:45.382812500,-58.0,2.25,29.75,81.61578125,5.52,16.657326375,35.03
2021-07-08 16:02:45.390625000,-58.0,2.5,29.5,81.6140625,5.31,16.65780675,35.03
2021-07-08 16:02:45.398437500,-58.0,2.75,29.25,81.61234375000001,5.145,16.658287125,35.03
2021-07-08 16:02:45.406250000,-58.0,3.0,29.0,81.610625,4.98,16.6587675,35.03
2021-07-08 16:02:45.414062500,-58.0,2.75,29.25,81.60890625,4.800000000000001,16.659247875000002,35.03
2021-07-08 16:02:45.421875000,-58.0,2.5,29.5,81.60718750000001,4.62,16.65972825,35.03
2021-07-08 16:02:45.429687500,-58.0,2.25,29.75,81.60546875,4.35,16.660208625,35.03
2021-07-08 16:02:45.437500000,-58.0,2.0,30.0,81.60375,4.08,16.660689,35.03
2021-07-08 16:02:45.445312500,-58.0,2.0,30.0,81.60203125000001,3.665,16.661169375,35.03
2021-07-08 16:02:45.453125000,-58.0,2.0,30.0,81.6003125,3.25,16.661649750000002,35.03
2021-07-08 16:02:45.460937500,-58.0,2.0,30.0,81.59859375,2.685,16.662130125,35.03
2021-07-08 16:02:45.468750000,-58.0,2.0,30.0,81.596875,2.12,16.6626105,35.03
2021-07-08 16:02:45.476562500,-58.0,2.0,30.0,81.59515625,1.445,16.663090875,35.03
2021-07-08 16:02:45.484375000,-58.0,2.0,30.0,81.59343750000001,0.77,16.66357125,35.03
2021-07-08 16:02:45.492187500,-58.0,2.0,30.0,81.59171875,0.05499999999999994,16.664051625000003,35.03
2021-07-08 16:02:45.500000000,-58.0,2.0,30.0,81.59,-0.66,16.664532,35.03
2021-07-08 16:02:45.507812500,-58.0,2.0,30.0,81.58828125000001,-1.3649999999999998,16.66421175,35.03
2021-07-08 16:02:45.515625000,-58.0,2.0,30.0,81.5865625,-2.07,16.663891500000002,35.03
2021-07-08 16:02:45.523437500,-58.0,2.0,30.0,81.58484375,-2.755,16.66357125,35.03
2021-07-08 16:02:45.531250000,-58.0,2.0,30.0,81.58312500000001,-3.44,16.663251000000002,35.03
2021-07-08 16:02:45.539062500,-58.0,2.0,30.0,81.58140625,-4.125,16.66293075,35.03
2021-07-08 16:02:45.546875000,-58.0,2.0,30.0,81.5796875,-4.81,16.6626105,35.03
2021-07-08 16:02:45.554687500,-58.0,2.0,30.0,81.57796875,-5.535,16.66229025,35.03
2021-07-08 16:02:45.562500000,-58.0,2.0,30.0,81.57625,-6.26,16.66197,35.03
2021-07-08 16:02:45.570312500,-58.0,2.0,30.0,81.57453125,-7.015,16.661649750000002,35.03
2021-07-08 16:02:45.578125000,-58.0,2.0,30.0,81.5728125,-7.77,16.6613295,35.03
2021-07-08 16:02:45.585937500,-58.0,2.0,30.0,81.57109375,-8.524999999999999,16.66100925,35.03
2021-07-08 16:02:45.593750000,-58.0,2.0,30.0,81.56937500000001,-9.28,16.660689,35.03
2021-07-08 16:02:45.601562500,-58.0,2.0,30.0,81.56765625,-9.969999999999999,16.66036875,35.03
2021-07-08 16:02:45.609375000,-58.0,2.0,30.0,81.5659375,-10.66,16.660048500000002,35.03
2021-07-08 16:02:45.617187500,-58.0,2.0,30.0,81.56421875000001,-11.245000000000001,16.65972825,35.03
2021-07-08 16:02:45.625000000,-58.0,2.0,30.0,81.5625,-11.83,16.659408,35.03
2021-07-08 16:02:45.632812500,-58.0,2.0,29.75,81.56078125,-12.315000000000001,16.65908775,35.03
2021-07-08 16:02:45.640625000,-58.0,2.0,29.5,81.55906250000001,-12.8,16.6587675,35.03
2021-07-08 16:02:45.648437500,-58.0,2.0,29.25,81.55734375,-13.255,16.658447250000002,35.03
2021-07-08 16:02:45.656250000,-58.0,2.0,29.0,81.555625,-13.71,16.658127,35.03
2021-07-08 16:02:45.664062500,-58.0,2.0,29.25,81.55390625,-14.215,16.657806750000002,35.03
2021-07-08 16:02:45.671875000,-58.0,2.0,29.5,81.5521875,-14.72,16.6574865,35.03
2021-07-08 16:02:45.679687500,-58.0,2.0,29.75,81.55046875000001,-15.3,16.65716625,35.03
2021-07-08 16:02:45.687500000,-58.0,2.0,30.0,81.54875,-15.88,16.656846,35.03
2021-07-08 16:02:45.695312500,-58.0,2.0,30.0,81.54703125,-16.485,16.65652575,35.03
2021-07-08 16:02:45.703125000,-58.0,2.0,30.0,81.54531250000001,-17.09,16.656205500000002,35.03
2021-07-08 16:02:45.710937500,-58.0,2.0,30.0,81.54359375,-17.585,16.65588525,35.03
2021-07-08 16:02:45.718750000,-58.0,2.0,30.0,81.541875,-18.08,16.655565,35.03
2021-07-08 16:02:45.726562500,-58.0,2.25,30.0,81.54015625000001,-18.28,16.65524475,35.03
2021-07-08 16:02:45.734375000,-58.0,2.5,30.0,81.5384375,-18.48,16.6549245,35.03
2021-07-08 16:02:45.742187500,-58.0,2.75,30.0,81.53671875,-18.240000000000002,16.654604250000002,35.03
2021-07-08 16:02:45.750000000,-58.0,3.0,30.0,81.535,-18.0,16.654284,35.03
2021-07-08 16:02:45.757812500,-58.0,3.0,30.0,81.53328125,-17.244999999999997,16.654243937500002,35.03
2021-07-08 16:02:45.765625000,-58.0,3.0,30.0,81.5315625,-16.49,16.654203875,35.03
2021-07-08 16:02:45.773437500,-58.0,3.0,30.0,81.52984375,-15.25,16.654163812500002,35.03
2021-07-08 16:02:45.781250000,-58.0,3.0,30.0,81.528125,-14.01,16.65412375,35.03
2021-07-08 16:02:45.789062500,-58.0,2.75,30.0,81.52640625000001,-12.405000000000001,16.654083687500002,35.03
2021-07-08 16:02:45.796875000,-58.0,2.5,30.0,81.5246875,-10.8,16.654043625,35.03
2021-07-08 16:02:45.804687500,-58.0,2.25,30.0,81.52296875,-8.99,16.6540035625,35.03
2021-07-08 16:02:45.812500000,-58.0,2.0,30.0,81.52125000000001,-7.18,16.6539635,35.03
2021-07-08 16:02:45.820312500,-58.0,2.25,30.0,81.51953125,-5.34,16.6539234375,35.03
2021-07-08 16:02:45.828125000,-58.0,2.5,30.0,81.5178125,-3.5,16.653883375,35.03
2021-07-08 16:02:45.835937500,-58.0,2.75,30.0,81.51609375000001,-1.77,16.6538433125,35.03
2021-07-08 16:02:45.843750000,-58.0,3.0,30.0,81.514375,-0.04,16.65380325,35.03
2021-07-08 16:02:45.851562500,-58.0,2.75,30.0,81.51265625,1.4849999999999999,16.6537631875,35.03
2021-07-08 16:02:45.859375000,-58.0,2.5,30.0,81.5109375,3.01,16.653723125,35.03
2021-07-08 16:02:45.867187500,-58.0,2.25,30.0,81.50921875,4.265,16.6536830625,35.03
2021-07-08 16:02:45.875000000,-58.0,2.0,30.0,81.50750000000001,5.52,16.653643000000002,35.03
2021-07-08 16:02:45.882812500,-58.0,2.0,30.0,81.50578125,6.449999999999999,16.6536029375,35.03
2021-07-08 16:02:45.890625000,-58.0,2.0,30.0,81.5040625,7.38,16.653562875000002,35.03
2021-07-08 16:02:45.898437500,-58.0,2.0,30.0,81.50234375000001,7.949999999999999,16.6535228125,35.03
2021-07-08 16:02:45.906250000,-58.0,2.0,30.0,81.500625,8.52,16.653482750000002,35.03
2021-07-08 16:02:45.914062500,-58.0,2.0,30.0,81.49890625,8.719999999999999,16.6534426875,35.03
2021-07-08 16:02:45.921875000,-58.0,2.0,30.0,81.49718750000001,8.92,16.653402625000002,35.03
2021-07-08 16:02:45.929687500,-58.0,2.0,30.0,81.49546875,8.785,16.6533625625,35.03
2021-07-08 16:02:45.937500000,-58.0,2.0,30.0,81.49375,8.65,16.6533225,35.03
2021-07-08 16:02:45.945312500,-58.0,2.0,29.75,81.49203125000001,8.280000000000001,16.6532824375,35.03
2021-07-08 16:02:45.953125000,-58.0,2.0,29.5,81.4903125,7.91,16.653242375,35.03
2021-07-08 16:02:45.960937500,-58.0,2.0,29.25,81.48859375,7.43,16.6532023125,35.03
2021-07-08 16:02:45.968750000,-58.0,2.0,29.0,81.486875,6.95,16.65316225,35.03
2021-07-08 16:02:45.976562500,-58.0,2.25,29.0,81.48515625,6.475,16.6531221875,35.03
2021-07-08 16:02:45.984375000,-58.0,2.5,29.0,81.48343750000001,6.0,16.653082125,35.03
2021-07-08 16:02:45.992187500,-58.0,2.75,29.0,81.48171875,5.6,16.6530420625,35.03
2021-07-08 16:02:46.000000000,-58.0,3.0,29.0,81.48,5.2,16.653002,35.03
2021-07-08 16:02:46.007812500,-58.0,3.0,29.25,81.47953125000001,4.88,16.653242187500002,35.030625
2021-07-08 16:02:46.015625000,-58.0,3.0,29.5,81.4790625,4.56,16.653482375,35.03125
2021-07-08 16:02:46.023437500,-58.0,3.0,29.75,81.47859375,4.285,16.6537225625,35.031875
2021-07-08 16:02:46.031250000,-58.0,3.0,30.0,81.478125,4.01,16.65396275,35.0325
2021-07-08 16:02:46.039062500,-58.0,3.0,30.0,81.47765625000001,3.735,16.6542029375,35.033125
2021-07-08 16:02:46.046875000,-58.0,3.0,30.0,81.4771875,3.46,16.654443125,35.03375
2021-07-08 16:02:46.054687500,-58.0,3.0,30.0,81.47671875,3.175,16.6546833125,35.034375
2021-07-08 16:02:46.062500000,-58.0,3.0,30.0,81.47625000000001,2.89,16.654923500000002,35.035
2021-07-08 16:02:46.070312500,-58.0,2.75,30.0,81.47578125,2.6100000000000003,16.6551636875,35.035625
2021-07-08 16:02:46.078125000,-58.0,2.5,30.0,81.4753125,2.33,16.655403875,35.03625
2021-07-08 16:02:46.085937500,-58.0,2.25,30.0,81.47484375,2.1,16.655644062500002,35.036875
2021-07-08 16:02:46.093750000,-58.0,2.0,30.0,81.47437500000001,1.87,16.65588425,35.0375
2021-07-08 16:02:46.101562500,-58.0,2.0,29.75,81.47390625,1.7200000000000002,16.6561244375,35.038125
2021-07-08 16:02:46.109375000,-58.0,2.0,29.5,81.4734375,1.57,16.656364625000002,35.03875
2021-07-08 16:02:46.117187500,-58.0,2.0,29.25,81.47296875,1.495,16.6566048125,35.039375
2021-07-08 16:02:46.125000000,-58.0,2.0,29.0,81.4725,1.42,16.656845,35.04
2021-07-08 16:02:46.132812500,-58.0,2.0,29.25,81.47203125,1.3900000000000001,16.6570851875,35.040625
2021-07-08 16:02:46.140625000,-58.0,2.0,29.5,81.4715625,1.36,16.657325375,35.04125
2021-07-08 16:02:46.148437500,-58.0,2.0,29.75,81.47109375000001,1.34,16.6575655625,35.041875
2021-07-08 16:02:46.156250000,-58.0,2.0,30.0,81.470625,1.32,16.65780575,35.0425
2021-07-08 16:02:46.164062500,-58.0,2.0,30.0,81.47015625,1.28,16.6580459375,35.043124999999996
2021-07-08 16:02:46.171875000,-58.0,2.0,30.0,81.4696875,1.24,16.658286125,35.043749999999996
2021-07-08 16:02:46.179687500,-58.0,2.0,30.0,81.46921875000001,1.175,16.6585263125,35.044374999999995
2021-07-08 16:02:46.187500000,-58.0,2.0,30.0,81.46875,1.11,16.6587665,35.045
2021-07-08 16:02:46.195312500,-58.0,2.0,29.75,81.46828125,1.01,16.6590066875,35.045625
2021-07-08 16:02:46.203125000,-58.0,2.0,29.5,81.46781250000001,0.91,16.659246875,35.04625
2021-07-08 16:02:46.210937500,-58.0,2.0,29.25,81.46734375,0.765,16.659487062500002,35.046875
2021-07-08 16:02:46.218750000,-58.0,2.0,29.0,81.466875,0.62,16.65972725,35.0475
2021-07-08 16:02:46.226562500,-58.25,2.0,29.0,81.46640625,0.395,16.6599674375,35.048125
2021-07-08 16:02:46.234375000,-58.5,2.0,29.0,81.46593750000001,0.17,16.660207625,35.04875
2021-07-08 16:02:46.242187500,-58.75,2.0,29.0,81.46546875,-0.165,16.6604478125,35.049375
2021-07-08 16:02:46.250000000,-59.0,2.0,29.0,81.465,-0.5,16.660688,35.05
2021-07-08 16:02:46.257812500,-59.0,2.0,29.0,81.46453125000001,-0.965,16.66124846875,35.05
2021-07-08 16:02:46.265625000,-59.0,2.0,29.0,81.4640625,-1.43,16.661808937500002,35.05
2021-07-08 16:02:46.273437500,-59.0,2.0,29.0,81.46359375,-2.01,16.66236940625,35.05
2021-07-08 16:02:46.281250000,-59.0,2.0,29.0,81.463125,-2.59,16.662929875,35.05
2021-07-08 16:02:46.289062500,-58.75,2.0,29.25,81.46265625000001,-3.2249999999999996,16.663490343750002,35.05
2021-07-08 16:02:46.296875000,-58.5,2.0,29.5,81.4621875,-3.86,16.6640508125,35.05
2021-07-08 16:02:46.304687500,-58.25,2.0,29.75,81.46171875,-4.47,16.66461128125,35.05
2021-07-08 16:02:46.312500000,-58.0,2.0,30.0,81.46125,-5.08,16.66517175,35.05
2021-07-08 16:02:46.320312500,-58.0,2.0,29.75,81.46078125,-5.5600000000000005,16.66573221875,35.05
2021-07-08 16:02:46.328125000,-58.0,2.0,29.5,81.4603125,-6.04,16.6662926875,35.05
2021-07-08 16:02:46.335937500,-58.0,2.0,29.25,81.45984375,-6.345000000000001,16.66685315625,35.05
2021-07-08 16:02:46.343750000,-58.0,2.0,29.0,81.45937500000001,-6.65,16.667413625000002,35.05
2021-07-08 16:02:46.351562500,-58.0,2.0,29.0,81.45890625,-6.800000000000001,16.66797409375,35.05
2021-07-08 16:02:46.359375000,-58.0,2.0,29.0,81.4584375,-6.95,16.6685345625,35.05
2021-07-08 16:02:46.367187500,-58.0,2.0,29.0,81.45796875,-7.03,16.669095031250002,35.05
2021-07-08 16:02:46.375000000,-58.0,2.0,29.0,81.45750000000001,-7.11,16.6696555,35.05
2021-07-08 16:02:46.382812500,-58.0,1.75,29.0,81.45703125,-7.24,16.67021596875,35.05
2021-07-08 16:02:46.390625000,-58.0,1.5,29.0,81.4565625,-7.37,16.670776437500002,35.05
2021-07-08 16:02:46.398437500,-58.0,1.25,29.0,81.45609375000001,-7.65,16.67133690625,35.05
2021-07-08 16:02:46.406250000,-58.0,1.0,29.0,81.455625,-7.93,16.671897375,35.05
2021-07-08 16:02:46.414062500,-58.0,1.25,29.0,81.45515625,-8.39,16.672457843750003,35.05
2021-07-08 16:02:46.421875000,-58.0,1.5,29.0,81.4546875,-8.85,16.6730183125,35.05
2021-07-08 16:02:46.429687500,-58.0,1.75,29.0,81.45421875000001,-9.445,16.67357878125,35.05
2021-07-08 16:02:46.437500000,-58.0,2.0,29.0,81.45375,-10.04,16.674139250000003,35.05
2021-07-08 16:02:46.445312500,-58.0,2.0,29.0,81.45328125,-10.649999999999999,16.674699718750002,35.05
2021-07-08 16:02:46.453125000,-58.0,2.0,29.0,81.45281250000001,-11.26,16.6752601875,35.05
2021-07-08 16:02:46.460937500,-58.0,2.0,29.0,81.45234375,-11.774999999999999,16.67582065625,35.05
2021-07-08 16:02:46.468750000,-58.0,2.0,29.0,81.451875,-12.29,16.676381125000002,35.05
2021-07-08 16:02:46.476562500,-58.0,2.0,29.0,81.45140625,-12.6,16.67694159375,35.05
2021-07-08 16:02:46.484375000,-58.0,2.0,29.0,81.45093750000001,-12.91,16.6775020625,35.05
2021-07-08 16:02:46.492187500,-58.0,2.0,29.0,81.45046875,-12.93,16.678062531250003,35.05
2021-07-08 16:02:46.500000000,-58.0,2.0,29.0,81.45,-12.95,16.678623,35.05
2021-07-08 16:02:46.507812500,-58.0,2.0,29.0,81.44953125,-12.625,16.679303562500003,35.05
2021-07-08 16:02:46.515625000,-58.0,2.0,29.0,81.4490625,-12.3,16.679984125,35.05
2021-07-08 16:02:46.523437500,-58.0,2.0,29.0,81.44859375,-11.61,16.680664687500002,35.05
2021-07-08 16:02:46.531250000,-58.0,2.0,29.0,81.448125,-10.92,16.68134525,35.05
2021-07-08 16:02:46.539062500,-58.0,2.0,29.0,81.44765625000001,-9.85,16.6820258125,35.05
2021-07-08 16:02:46.546875000,-58.0,2.0,29.0,81.4471875,-8.78,16.682706375000002,35.05
2021-07-08 16:02:46.554687500,-58.0,2.0,29.0,81.44671875,-7.41,16.6833869375,35.05
2021-07-08 16:02:46.562500000,-58.0,2.0,29.0,81.44625,-6.04,16.6840675,35.05
2021-07-08 16:02:46.570312500,-58.0,2.0,29.0,81.44578125,-4.485,16.684748062500002,35.05
2021-07-08 16:02:46.578125000,-58.0,2.0,29.0,81.4453125,-2.93,16.685428625,35.05
2021-07-08 16:02:46.585937500,-58.0,2.0,29.0,81.44484375,-1.3450000000000002,16.6861091875,35.05
2021-07-08 16:02:46.593750000,-58.0,2.0,29.0,81.44437500000001,0.24,16.686789750000003,35.05
2021-07-08 16:02:46.601562500,-58.25,2.0,29.0,81.44390625,1.72,16.6874703125,35.05
2021-07-08 16:02:46.609375000,-58.5,2.0,29.0,81.4434375,3.2,16.688150875,35.05
2021-07-08 16:02:46.617187500,-58.75,2.0,29.0,81.44296875,4.515000000000001,16.6888314375,35.05
2021-07-08 16:02:46.625000000,-59.0,2.0,29.0,81.4425,5.83,16.689512,35.05
2021-07-08 16:02:46.632812500,-58.75,2.0,29.0,81.44203125,6.97,16.690192562500002,35.05
2021-07-08 16:02:46.640625000,-58.5,2.0,29.0,81.4415625,8.11,16.690873125,35.05
2021-07-08 16:02:46.648437500,-58.25,2.0,29.0,81.44109375000001,9.11,16.6915536875,35.05
2021-07-08 16:02:46.656250000,-58.0,2.0,29.0,81.440625,10.11,16.69223425,35.05
2021-07-08 16:02:46.664062500,-58.0,2.0,29.0,81.44015625,10.985,16.6929148125,35.05
2021-07-08 16:02:46.671875000,-58.0,2.0,29.0,81.4396875,11.86,16.693595375,35.05
2021-07-08 16:02:46.679687500,-58.0,2.0,29.0,81.43921875000001,12.575,16.6942759375,35.05
2021-07-08 16:02:46.687500000,-58.0,2.0,29.0,81.43875,13.29,16.6949565,35.05
2021-07-08 16:02:46.695312500,-58.0,2.0,29.0,81.43828125,13.774999999999999,16.6956370625,35.05
2021-07-08 16:02:46.703125000,-58.0,2.0,29.0,81.4378125,14.26,16.696317625,35.05
2021-07-08 16:02:46.710937500,-58.0,2.0,29.0,81.43734375,14.455,16.6969981875,35.05
2021-07-08 16:02:46.718750000,-58.0,2.0,29.0,81.436875,14.65,16.69767875,35.05
2021-07-08 16:02:46.726562500,-58.0,2.0,29.0,81.43640625,14.54,16.6983593125,35.05
2021-07-08 16:02:46.734375000,-58.0,2.0,29.0,81.43593750000001,14.43,16.699039875,35.05
2021-07-08 16:02:46.742187500,-58.0,2.0,29.0,81.43546875,14.07,16.699720437499998,35.05
2021-07-08 16:02:46.750000000,-58.0,2.0,29.0,81.435,13.71,16.700401,35.05
2021-07-08 16:02:46.757812500,-58.0,2.0,29.0,81.43453125,13.205,16.698559531249998,35.05
2021-07-08 16:02:46.765625000,-58.0,2.0,29.0,81.4340625,12.7,16.6967180625,35.05
2021-07-08 16:02:46.773437500,-58.0,2.0,29.0,81.43359375,12.175,16.69487659375,35.05
2021-07-08 16:02:46.781250000,-58.0,2.0,29.0,81.433125,11.65,16.693035124999998,35.05
2021-07-08 16:02:46.789062500,-58.0,2.0,29.0,81.43265625000001,11.195,16.69119365625,35.05
2021-07-08 16:02:46.796875000,-58.0,2.0,29.0,81.4321875,10.74,16.6893521875,35.05
2021-07-08 16:02:46.804687500,-58.0,2.0,29.0,81.43171875,10.405000000000001,16.687510718749998,35.05
2021-07-08 16:02:46.812500000,-58.0,2.0,29.0,81.43125,10.07,16.68566925,35.05
2021-07-08 16:02:46.820312500,-58.0,2.0,29.0,81.43078125,9.86,16.68382778125,35.05
2021-07-08 16:02:46.828125000,-58.0,2.0,29.0,81.4303125,9.65,16.681986312499998,35.05
2021-07-08 16:02:46.835937500,-58.0,2.0,29.0,81.42984375,9.530000000000001,16.68014484375,35.05
2021-07-08 16:02:46.843750000,-58.0,2.0,29.0,81.42937500000001,9.41,16.678303375,35.05
2021-07-08 16:02:46.851562500,-58.0,2.0,29.0,81.42890625,9.355,16.676461906249997,35.05
2021-07-08 16:02:46.859375000,-58.0,2.0,29.0,81.4284375,9.3,16.6746204375,35.05
2021-07-08 16:02:46.867187500,-58.0,2.0,29.0,81.42796875,9.3,16.67277896875,35.05
2021-07-08 16:02:46.875000000,-58.0,2.0,29.0,81.42750000000001,9.3,16.6709375,35.05
2021-07-08 16:02:46.882812500,-58.0,2.0,29.0,81.42703125,9.33,16.66909603125,35.05
2021-07-08 16:02:46.890625000,-58.0,2.0,29.0,81.4265625,9.36,16.6672545625,35.05
2021-07-08 16:02:46.898437500,-58.0,2.0,29.0,81.42609375,9.405,16.66541309375,35.05
2021-07-08 16:02:46.906250000,-58.0,2.0,29.0,81.425625,9.45,16.663571625,35.05
2021-07-08 16:02:46.914062500,-58.0,2.0,29.0,81.42515625,9.46,16.661730156249998,35.05
2021-07-08 16:02:46.921875000,-58.0,2.0,29.0,81.4246875,9.47,16.6598886875,35.05
2021-07-08 16:02:46.929687500,-58.0,2.0,29.0,81.42421875000001,9.385000000000002,16.65804721875,35.05
2021-07-08 16:02:46.937500000,-58.0,2.0,29.0,81.42375,9.3,16.656205749999998,35.05
2021-07-08 16:02:46.945312500,-58.0,2.0,29.0,81.42328125,9.07,16.65436428125,35.05
2021-07-08 16:02:46.953125000,-58.0,2.0,29.0,81.4228125,8.84,16.6525228125,35.05
2021-07-08 16:02:46.960937500,-58.0,2.0,29.0,81.42234375,8.425,16.650681343749998,35.05
2021-07-08 16:02:46.968750000,-58.0,2.0,29.0,81.421875,8.01,16.648839875,35.05
2021-07-08 16:02:46.976562500,-58.0,2.0,29.0,81.42140625,7.4350000000000005,16.64699840625,35.05
2021-07-08 16:02:46.984375000,-58.0,2.0,29.0,81.42093750000001,6.86,16.645156937499998,35.05
2021-07-08 16:02:46.992187500,-58.0,2.0,29.0,81.42046875,6.18,16.64331546875,35.05
2021-07-08 16:02:47.000000000,-58.0,2.0,29.0,81.42,5.5,16.641474,35.05
2021-07-08 16:02:47.007812500,-58.0,2.0,29.0,81.41890625,4.805,16.64163409375,35.0484375
2021-07-08 16:02:47.015625000,-58.0,2.0,29.0,81.4178125,4.11,16.6417941875,35.046875
2021-07-08 16:02:47.023437500,-58.0,2.0,29.0,81.41671875,3.49,16.641954281249998,35.045312499999994
2021-07-08 16:02:47.031250000,-58.0,2.0,29.0,81.415625,2.87,16.642114375,35.043749999999996
2021-07-08 16:02:47.039062500,-58.0,2.0,29.0,81.41453125,2.4050000000000002,16.64227446875,35.0421875
2021-07-08 16:02:47.046875000,-58.0,2.0,29.0,81.4134375,1.94,16.6424345625,35.040625
2021-07-08 16:02:47.054687500,-58.0,2.0,29.0,81.41234375,1.665,16.642594656249997,35.0390625
2021-07-08 16:02:47.062500000,-58.0,2.0,29.0,81.41125,1.39,16.642754749999998,35.037499999999994
2021-07-08 16:02:47.070312500,-58.0,2.0,29.0,81.41015625,1.29,16.64291484375,35.035937499999996
2021-07-08 16:02:47.078125000,-58.0,2.0,29.0,81.4090625,1.19,16.6430749375,35.034375
2021-07-08 16:02:47.085937500,-58.0,2.0,29.0,81.40796875,1.19,16.64323503125,35.0328125
2021-07-08 16:02:47.093750000,-58.0,2.0,29.0,81.406875,1.19,16.643395124999998,35.03125
2021-07-08 16:02:47.101562500,-58.25,2.0,29.0,81.40578125,1.205,16.64355521875,35.0296875
2021-07-08 16:02:47.109375000,-58.5,2.0,29.0,81.40468750000001,1.22,16.6437153125,35.028124999999996
2021-07-08 16:02:47.117187500,-58.75,2.0,29.0,81.40359375,1.165,16.64387540625,35.0265625
2021-07-08 16:02:47.125000000,-59.0,2.0,29.0,81.4025,1.11,16.6440355,35.025
2021-07-08 16:02:47.132812500,-58.75,2.0,29.0,81.40140625000001,0.9550000000000001,16.64419559375,35.0234375
2021-07-08 16:02:47.140625000,-58.5,2.0,29.0,81.4003125,0.8,16.6443556875,35.021875
2021-07-08 16:02:47.148437500,-58.25,2.0,29.0,81.39921875,0.54,16.64451578125,35.020312499999996
2021-07-08 16:02:47.156250000,-58.0,2.0,29.0,81.39812500000001,0.28,16.644675875,35.01875
2021-07-08 16:02:47.164062500,-58.0,2.0,29.0,81.39703125,-0.03999999999999998,16.644835968749998,35.0171875
2021-07-08 16:02:47.171875000,-58.0,2.0,29.0,81.3959375,-0.36,16.6449960625,35.015625
2021-07-08 16:02:47.179687500,-58.0,2.0,29.0,81.39484375,-0.71,16.64515615625,35.0140625
2021-07-08 16:02:47.187500000,-58.0,2.0,29.0,81.39375,-1.06,16.64531625,35.0125
2021-07-08 16:02:47.195312500,-58.0,2.0,29.0,81.39265625,-1.405,16.64547634375,35.0109375
2021-07-08 16:02:47.203125000,-58.0,2.0,29.0,81.3915625,-1.75,16.6456364375,35.009375
2021-07-08 16:02:47.210937500,-58.0,2.0,29.0,81.39046875,-2.065,16.64579653125,35.0078125
2021-07-08 16:02:47.218750000,-58.0,2.0,29.0,81.389375,-2.38,16.645956625,35.00625
2021-07-08 16:02:47.226562500,-58.0,2.0,29.0,81.38828125,-2.5999999999999996,16.64611671875,35.0046875
2021-07-08 16:02:47.234375000,-58.0,2.0,29.0,81.3871875,-2.82,16.6462768125,35.003125
2021-07-08 16:02:47.242187500,-58.0,2.0,29.0,81.38609375,-2.84,16.64643690625,35.0015625
2021-07-08 16:02:47.250000000,-58.0,2.0,29.0,81.385,-2.86,16.646597,35.0
2021-07-08 16:02:47.257812500,-58.0,2.0,29.0,81.38390625,-2.57,16.64639684375,35.0
2021-07-08 16:02:47.265625000,-58.0,2.0,29.0,81.3828125,-2.28,16.6461966875,35.0
2021-07-08 16:02:47.273437500,-58.0,2.0,29.0,81.38171875,-1.5899999999999999,16.64599653125,35.0
2021-07-08 16:02:47.281250000,-58.0,2.0,29.0,81.380625,-0.9,16.645796375,35.0
2021-07-08 16:02:47.289062500,-58.0,2.0,29.0,81.37953125,0.18000000000000005,16.64559621875,35.0
2021-07-08 16:02:47.296875000,-58.0,2.0,29.0,81.3784375,1.26,16.645396062499998,35.0
2021-07-08 16:02:47.304687500,-58.0,2.0,29.0,81.37734375000001,2.63,16.64519590625,35.0
2021-07-08 16:02:47.312500000,-58.0,2.0,29.0,81.37625,4.0,16.64499575,35.0
2021-07-08 16:02:47.320312500,-58.0,2.0,29.0,81.37515625,5.49,16.64479559375,35.0
2021-07-08 16:02:47.328125000,-58.0,2.0,29.0,81.37406250000001,6.98,16.6445954375,35.0
2021-07-08 16:02:47.335937500,-58.0,2.0,29.0,81.37296875,8.43,16.64439528125,35.0
2021-07-08 16:02:47.343750000,-58.0,2.0,29.0,81.371875,9.88,16.644195125,35.0
2021-07-08 16:02:47.351562500,-58.0,2.0,29.0,81.37078125000001,11.185,16.64399496875,35.0
2021-07-08 16:02:47.359375000,-58.0,2.0,29.0,81.3696875,12.49,16.643794812499998,35.0
2021-07-08 16:02:47.367187500,-58.0,2.0,29.0,81.36859375,13.59,16.64359465625,35.0
2021-07-08 16:02:47.375000000,-58.0,2.0,29.0,81.3675,14.69,16.6433945,35.0
2021-07-08 16:02:47.382812500,-58.0,2.0,29.0,81.36640625,15.555,16.64319434375,35.0
2021-07-08 16:02:47.390625000,-58.0,2.0,29.0,81.3653125,16.42,16.6429941875,35.0
2021-07-08 16:02:47.398437500,-58.0,2.0,29.0,81.36421875,16.995,16.64279403125,35.0
2021-07-08 16:02:47.406250000,-58.0,2.0,29.0,81.363125,17.57,16.642593875,35.0
2021-07-08 16:02:47.414062500,-58.0,2.0,29.0,81.36203125,17.785,16.64239371875,35.0
2021-07-08 16:02:47.421875000,-58.0,2.0,29.0,81.3609375,18.0,16.642193562499997,35.0
2021-07-08 16:02:47.429687500,-58.0,2.0,29.0,81.35984375,17.775,16.64199340625,35.0
2021-07-08 16:02:47.437500000,-58.0,2.0,29.0,81.35875,17.55,16.64179325,35.0
2021-07-08 16:02:47.445312500,-58.0,2.0,29.0,81.35765625,16.89,16.64159309375,35.0
2021-07-08 16:02:47.453125000,-58.0,2.0,29.0,81.3565625,16.23,16.6413929375,35.0
2021-07-08 16:02:47.460937500,-58.0,2.0,29.0,81.35546875,15.22,16.64119278125,35.0
2021-07-08 16:02:47.468750000,-58.0,2.0,29.0,81.354375,14.21,16.640992625,35.0
2021-07-08 16:02:47.476562500,-58.0,2.0,29.0,81.35328125,13.02,16.64079246875,35.0
2021-07-08 16:02:47.484375000,-58.0,2.0,29.0,81.3521875,11.83,16.640592312499997,35.0
2021-07-08 16:02:47.492187500,-58.0,2.0,29.0,81.35109375,10.66,16.640392156249998,35.0
2021-07-08 16:02:47.500000000,-58.0,2.0,29.0,81.35,9.49,16.640192,35.0
2021-07-08 16:02:47.507812500,-58.0,2.0,29.0,81.34890625,8.485,16.6408725625,35.0
2021-07-08 16:02:47.515625000,-58.0,2.0,29.0,81.3478125,7.48,16.641553124999998,35.0
2021-07-08 16:02:47.523437500,-58.0,2.0,29.0,81.34671875000001,6.7,16.6422336875,35.0
