TimeStamp,empatica.acc.x,empatica.acc.y,empatica.acc.z,empatica.hr,empatica.bvp,empatica.eda,empatica.temp
2021-06-29 10:35:24.523437500,-43.0,4.25,48.75,75.82851562500001,31.74,1.7519381875,33.65
2021-06-29 10:35:24.531250000,-43.0,4.0,49.0,75.8296875,30.79,1.7520182499999999,33.65
2021-06-29 10:35:24.539062500,-43.0,4.25,48.75,75.830859375,30.22,1.7520983125,33.65
2021-06-29 10:35:24.546875000,-43.0,4.5,48.5,75.83203125,29.65,1.752178375,33.65
2021-06-29 10:35:24.554687500,-43.0,4.75,48.25,75.833203125,29.689999999999998,1.7522584374999999,33.65
2021-06-29 10:35:24.562500000,-43.0,5.0,48.0,75.83437500000001,29.73,1.7523385,33.65
2021-06-29 10:35:24.570312500,-43.0,5.0,48.25,75.835546875,30.450000000000003,1.7524185625,33.65
2021-06-29 10:35:24.578125000,-43.0,5.0,48.5,75.83671875,31.17,1.7524986249999999,33.65
2021-06-29 10:35:24.585937500,-43.0,5.0,48.75,75.837890625,32.505,1.7525786875,33.65
2021-06-29 10:35:24.593750000,-43.0,5.0,49.0,75.8390625,33.84,1.75265875,33.65
2021-06-29 10:35:24.601562500,-42.75,5.0,49.0,75.84023437500001,35.6,1.7527388124999999,33.65
2021-06-29 10:35:24.609375000,-42.5,5.0,49.0,75.84140625,37.36,1.752818875,33.65
2021-06-29 10:35:24.617187500,-42.25,5.0,49.0,75.842578125,39.254999999999995,1.7528989375,33.65
2021-06-29 10:35:24.625000000,-42.0,5.0,49.0,75.84375,41.15,1.7529789999999998,33.65
2021-06-29 10:35:24.632812500,-42.25,5.0,48.75,75.844921875,42.86,1.7530590625,33.65
2021-06-29 10:35:24.640625000,-42.5,5.0,48.5,75.84609375000001,44.57,1.753139125,33.65
2021-06-29 10:35:24.648437500,-42.75,5.0,48.25,75.847265625,45.82,1.7532191875,33.65
2021-06-29 10:35:24.656250000,-43.0,5.0,48.0,75.8484375,47.07,1.75329925,33.65
2021-06-29 10:35:24.664062500,-43.0,5.0,48.0,75.849609375,47.665,1.7533793125,33.65
2021-06-29 10:35:24.671875000,-43.0,5.0,48.0,75.85078125,48.26,1.753459375,33.65
2021-06-29 10:35:24.679687500,-43.0,5.0,48.0,75.85195312500001,48.125,1.7535394375,33.65
2021-06-29 10:35:24.687500000,-43.0,5.0,48.0,75.853125,47.99,1.7536194999999999,33.65
2021-06-29 10:35:24.695312500,-42.75,5.0,48.25,75.854296875,47.125,1.7536995625,33.65
2021-06-29 10:35:24.703125000,-42.5,5.0,48.5,75.85546875,46.26,1.753779625,33.65
2021-06-29 10:35:24.710937500,-42.25,5.0,48.75,75.856640625,44.705,1.7538596874999999,33.65
2021-06-29 10:35:24.718750000,-42.0,5.0,49.0,75.85781250000001,43.15,1.75393975,33.65
2021-06-29 10:35:24.726562500,-42.25,5.0,48.75,75.858984375,41.0,1.7540198125,33.65
2021-06-29 10:35:24.734375000,-42.5,5.0,48.5,75.86015625,38.85,1.7540998749999999,33.65
2021-06-29 10:35:24.742187500,-42.75,5.0,48.25,75.861328125,36.225,1.7541799375,33.65
2021-06-29 10:35:24.750000000,-43.0,5.0,48.0,75.86250000000001,33.6,1.75426,33.65
2021-06-29 10:35:24.757812500,-42.75,4.75,48.0,75.86367187500001,30.65,1.75426,33.65
2021-06-29 10:35:24.765625000,-42.5,4.5,48.0,75.86484375,27.7,1.75426,33.65
2021-06-29 10:35:24.773437500,-42.25,4.25,48.0,75.866015625,24.6,1.75426,33.65
2021-06-29 10:35:24.781250000,-42.0,4.0,48.0,75.8671875,21.5,1.75426,33.65
2021-06-29 10:35:24.789062500,-42.25,4.0,48.25,75.86835937500001,18.415,1.75426,33.65
2021-06-29 10:35:24.796875000,-42.5,4.0,48.5,75.86953125000001,15.33,1.75426,33.65
2021-06-29 10:35:24.804687500,-42.75,4.0,48.75,75.870703125,12.35,1.75426,33.65
2021-06-29 10:35:24.812500000,-43.0,4.0,49.0,75.871875,9.37,1.75426,33.65
2021-06-29 10:35:24.820312500,-43.0,4.0,49.0,75.873046875,6.55,1.75426,33.65
2021-06-29 10:35:24.828125000,-43.0,4.0,49.0,75.87421875000001,3.73,1.75426,33.65
2021-06-29 10:35:24.835937500,-43.0,4.0,49.0,75.87539062500001,1.0749999999999997,1.75426,33.65
2021-06-29 10:35:24.843750000,-43.0,4.0,49.0,75.8765625,-1.58,1.75426,33.65
2021-06-29 10:35:24.851562500,-43.0,4.0,48.75,75.877734375,-4.0600000000000005,1.75426,33.65
2021-06-29 10:35:24.859375000,-43.0,4.0,48.5,75.87890625,-6.54,1.75426,33.65
2021-06-29 10:35:24.867187500,-43.0,4.0,48.25,75.88007812500001,-8.855,1.75426,33.65
2021-06-29 10:35:24.875000000,-43.0,4.0,48.0,75.88125000000001,-11.17,1.75426,33.65
2021-06-29 10:35:24.882812500,-43.0,4.25,48.0,75.882421875,-13.370000000000001,1.75426,33.65
2021-06-29 10:35:24.890625000,-43.0,4.5,48.0,75.88359375,-15.57,1.75426,33.65
2021-06-29 10:35:24.898437500,-43.0,4.75,48.0,75.884765625,-17.759999999999998,1.75426,33.65
2021-06-29 10:35:24.906250000,-43.0,5.0,48.0,75.88593750000001,-19.95,1.75426,33.65
2021-06-29 10:35:24.914062500,-43.0,5.0,48.0,75.88710937500001,-22.275,1.75426,33.65
2021-06-29 10:35:24.921875000,-43.0,5.0,48.0,75.88828125,-24.6,1.75426,33.65
2021-06-29 10:35:24.929687500,-43.0,5.0,48.0,75.889453125,-27.205,1.75426,33.65
2021-06-29 10:35:24.937500000,-43.0,5.0,48.0,75.890625,-29.81,1.75426,33.65
2021-06-29 10:35:24.945312500,-43.0,5.0,48.0,75.89179687500001,-32.805,1.75426,33.65
2021-06-29 10:35:24.953125000,-43.0,5.0,48.0,75.89296875000001,-35.8,1.75426,33.65
2021-06-29 10:35:24.960937500,-43.0,5.0,48.0,75.894140625,-39.215,1.75426,33.65
2021-06-29 10:35:24.968750000,-43.0,5.0,48.0,75.8953125,-42.63,1.75426,33.65
2021-06-29 10:35:24.976562500,-43.0,5.0,48.0,75.896484375,-46.445,1.75426,33.65
2021-06-29 10:35:24.984375000,-43.0,5.0,48.0,75.89765625000001,-50.26,1.75426,33.65
2021-06-29 10:35:24.992187500,-43.0,5.0,48.0,75.89882812500001,-54.33,1.75426,33.65
2021-06-29 10:35:25.000000000,-43.0,5.0,48.0,75.9,-58.4,1.75426,33.65
2021-06-29 10:35:25.007812500,-43.0,5.0,48.0,75.90093750000001,-62.425,1.7543000625,33.6503125
2021-06-29 10:35:25.015625000,-43.0,5.0,48.0,75.901875,-66.45,1.754340125,33.650625
2021-06-29 10:35:25.023437500,-43.0,5.0,48.0,75.90281250000001,-69.89,1.7543801875,33.6509375
2021-06-29 10:35:25.031250000,-43.0,5.0,48.0,75.90375,-73.33,1.75442025,33.65125
2021-06-29 10:35:25.039062500,-43.0,5.0,48.0,75.90468750000001,-75.44999999999999,1.7544603125,33.6515625
2021-06-29 10:35:25.046875000,-43.0,5.0,48.0,75.905625,-77.57,1.754500375,33.651875
2021-06-29 10:35:25.054687500,-43.0,5.0,48.0,75.9065625,-77.585,1.7545404375,33.6521875
2021-06-29 10:35:25.062500000,-43.0,5.0,48.0,75.9075,-77.6,1.7545804999999999,33.652499999999996
2021-06-29 10:35:25.070312500,-43.0,5.0,48.0,75.9084375,-74.94999999999999,1.7546205625,33.652812499999996
2021-06-29 10:35:25.078125000,-43.0,5.0,48.0,75.90937500000001,-72.3,1.7546606249999999,33.653124999999996
2021-06-29 10:35:25.085937500,-43.0,5.0,48.0,75.9103125,-66.92,1.7547006875,33.653437499999995
2021-06-29 10:35:25.093750000,-43.0,5.0,48.0,75.91125000000001,-61.54,1.7547407499999998,33.653749999999995
2021-06-29 10:35:25.101562500,-43.0,5.0,48.0,75.9121875,-53.945,1.7547808125,33.654062499999995
2021-06-29 10:35:25.109375000,-43.0,5.0,48.0,75.91312500000001,-46.35,1.7548208749999998,33.654374999999995
2021-06-29 10:35:25.117187500,-43.0,5.0,48.0,75.9140625,-37.52,1.7548609375,33.654687499999994
2021-06-29 10:35:25.125000000,-43.0,5.0,48.0,75.915,-28.69,1.7549009999999998,33.655
2021-06-29 10:35:25.132812500,-43.0,5.0,48.0,75.9159375,-19.78,1.7549410625,33.6553125
2021-06-29 10:35:25.140625000,-43.0,5.0,48.0,75.916875,-10.87,1.754981125,33.655625
2021-06-29 10:35:25.148437500,-43.0,5.0,48.0,75.91781250000001,-2.8599999999999994,1.7550211875,33.6559375
2021-06-29 10:35:25.156250000,-43.0,5.0,48.0,75.91875,5.15,1.75506125,33.65625
2021-06-29 10:35:25.164062500,-43.0,5.0,48.0,75.91968750000001,11.68,1.7551013125,33.6565625
2021-06-29 10:35:25.171875000,-43.0,5.0,48.0,75.920625,18.21,1.755141375,33.656875
2021-06-29 10:35:25.179687500,-43.0,5.0,48.0,75.92156250000001,23.09,1.7551814374999999,33.6571875
2021-06-29 10:35:25.187500000,-43.0,5.0,48.0,75.9225,27.97,1.7552215,33.6575
2021-06-29 10:35:25.195312500,-43.0,5.0,48.0,75.9234375,31.335,1.7552615624999999,33.6578125
2021-06-29 10:35:25.203125000,-43.0,5.0,48.0,75.924375,34.7,1.755301625,33.658125
2021-06-29 10:35:25.210937500,-43.0,5.0,48.0,75.9253125,36.78,1.7553416874999999,33.6584375
2021-06-29 10:35:25.218750000,-43.0,5.0,48.0,75.92625000000001,38.86,1.75538175,33.65875
2021-06-29 10:35:25.226562500,-43.0,4.75,48.0,75.9271875,39.870000000000005,1.7554218124999998,33.6590625
2021-06-29 10:35:25.234375000,-43.0,4.5,48.0,75.92812500000001,40.88,1.755461875,33.659375
2021-06-29 10:35:25.242187500,-43.0,4.25,48.0,75.9290625,40.97,1.7555019374999998,33.6596875
2021-06-29 10:35:25.250000000,-43.0,4.0,48.0,75.93,41.06,1.755542,33.66
2021-06-29 10:35:25.257812500,-43.0,4.25,48.0,75.9309375,40.375,1.755542,33.66
2021-06-29 10:35:25.265625000,-43.0,4.5,48.0,75.931875,39.69,1.755542,33.66
2021-06-29 10:35:25.273437500,-43.0,4.75,48.0,75.9328125,38.425,1.755542,33.66
2021-06-29 10:35:25.281250000,-43.0,5.0,48.0,75.93375,37.16,1.755542,33.66
2021-06-29 10:35:25.289062500,-43.0,5.0,48.0,75.93468750000001,35.64,1.755542,33.66
2021-06-29 10:35:25.296875000,-43.0,5.0,48.0,75.935625,34.12,1.755542,33.66
2021-06-29 10:35:25.304687500,-43.0,5.0,48.0,75.93656250000001,32.769999999999996,1.755542,33.66
2021-06-29 10:35:25.312500000,-43.0,5.0,48.0,75.9375,31.42,1.755542,33.66
2021-06-29 10:35:25.320312500,-43.0,5.0,48.0,75.9384375,30.675,1.755542,33.66
2021-06-29 10:35:25.328125000,-43.0,5.0,48.0,75.939375,29.93,1.755542,33.66
2021-06-29 10:35:25.335937500,-43.0,5.0,48.0,75.9403125,30.085,1.755542,33.66
2021-06-29 10:35:25.343750000,-43.0,5.0,48.0,75.94125,30.24,1.755542,33.66
2021-06-29 10:35:25.351562500,-43.0,5.0,48.0,75.9421875,31.375,1.755542,33.66
2021-06-29 10:35:25.359375000,-43.0,5.0,48.0,75.94312500000001,32.51,1.755542,33.66
2021-06-29 10:35:25.367187500,-43.0,5.0,48.0,75.9440625,34.39,1.755542,33.66
2021-06-29 10:35:25.375000000,-43.0,5.0,48.0,75.94500000000001,36.27,1.755542,33.66
2021-06-29 10:35:25.382812500,-43.0,4.75,48.0,75.9459375,38.465,1.755542,33.66
2021-06-29 10:35:25.390625000,-43.0,4.5,48.0,75.946875,40.66,1.755542,33.66
2021-06-29 10:35:25.398437500,-43.0,4.25,48.0,75.9478125,42.66,1.755542,33.66
2021-06-29 10:35:25.406250000,-43.0,4.0,48.0,75.94875,44.66,1.755542,33.66
2021-06-29 10:35:25.414062500,-43.0,4.25,48.0,75.9496875,46.045,1.755542,33.66
2021-06-29 10:35:25.421875000,-43.0,4.5,48.0,75.950625,47.43,1.755542,33.66
2021-06-29 10:35:25.429687500,-43.0,4.75,48.0,75.95156250000001,47.96,1.755542,33.66
2021-06-29 10:35:25.437500000,-43.0,5.0,48.0,75.9525,48.49,1.755542,33.66
2021-06-29 10:35:25.445312500,-43.0,4.75,48.0,75.9534375,48.115,1.755542,33.66
2021-06-29 10:35:25.453125000,-43.0,4.5,48.0,75.954375,47.74,1.755542,33.66
2021-06-29 10:35:25.460937500,-43.0,4.25,48.0,75.9553125,46.565,1.755542,33.66
2021-06-29 10:35:25.468750000,-43.0,4.0,48.0,75.95625,45.39,1.755542,33.66
2021-06-29 10:35:25.476562500,-43.0,4.25,48.0,75.9571875,43.595,1.755542,33.66
2021-06-29 10:35:25.484375000,-43.0,4.5,48.0,75.958125,41.8,1.755542,33.66
2021-06-29 10:35:25.492187500,-43.0,4.75,48.0,75.9590625,39.58,1.755542,33.66
2021-06-29 10:35:25.500000000,-43.0,5.0,48.0,75.96000000000001,37.36,1.755542,33.66
2021-06-29 10:35:25.507812500,-43.0,5.0,48.0,75.9609375,34.93,1.755421875,33.66
2021-06-29 10:35:25.515625000,-43.0,5.0,48.0,75.961875,32.5,1.7553017499999999,33.66
2021-06-29 10:35:25.523437500,-43.0,5.0,48.0,75.9628125,30.03,1.7551816249999999,33.66
2021-06-29 10:35:25.531250000,-43.0,5.0,48.0,75.96375,27.56,1.7550615,33.66
2021-06-29 10:35:25.539062500,-43.0,4.75,48.0,75.9646875,25.16,1.754941375,33.66
2021-06-29 10:35:25.546875000,-43.0,4.5,48.0,75.965625,22.76,1.75482125,33.66
2021-06-29 10:35:25.554687500,-43.0,4.25,48.0,75.9665625,20.44,1.754701125,33.66
2021-06-29 10:35:25.562500000,-43.0,4.0,48.0,75.9675,18.12,1.754581,33.66
2021-06-29 10:35:25.570312500,-43.0,4.0,48.0,75.9684375,15.790000000000001,1.754460875,33.66
2021-06-29 10:35:25.578125000,-43.0,4.0,48.0,75.969375,13.46,1.75434075,33.66
2021-06-29 10:35:25.585937500,-43.0,4.0,48.0,75.9703125,11.005,1.7542206249999999,33.66
2021-06-29 10:35:25.593750000,-43.0,4.0,48.0,75.97125,8.55,1.7541004999999998,33.66
2021-06-29 10:35:25.601562500,-43.0,4.25,48.0,75.9721875,5.8950000000000005,1.753980375,33.66
2021-06-29 10:35:25.609375000,-43.0,4.5,48.0,75.973125,3.24,1.75386025,33.66
2021-06-29 10:35:25.617187500,-43.0,4.75,48.0,75.9740625,0.43000000000000016,1.753740125,33.66
2021-06-29 10:35:25.625000000,-43.0,5.0,48.0,75.975,-2.38,1.75362,33.66
2021-06-29 10:35:25.632812500,-43.0,5.0,48.0,75.9759375,-5.205,1.753499875,33.66
2021-06-29 10:35:25.640625000,-43.0,5.0,48.0,75.97687499999999,-8.03,1.75337975,33.66
2021-06-29 10:35:25.648437500,-43.0,5.0,48.0,75.9778125,-10.705,1.7532596249999999,33.66
2021-06-29 10:35:25.656250000,-43.0,5.0,48.0,75.97875,-13.38,1.7531395,33.66
2021-06-29 10:35:25.664062500,-43.0,5.0,48.0,75.9796875,-15.795000000000002,1.753019375,33.66
2021-06-29 10:35:25.671875000,-43.0,5.0,48.0,75.980625,-18.21,1.75289925,33.66
2021-06-29 10:35:25.679687500,-43.0,5.0,48.0,75.9815625,-20.37,1.752779125,33.66
2021-06-29 10:35:25.687500000,-43.0,5.0,48.0,75.9825,-22.53,1.752659,33.66
2021-06-29 10:35:25.695312500,-43.0,4.75,48.0,75.9834375,-24.535,1.752538875,33.66
2021-06-29 10:35:25.703125000,-43.0,4.5,48.0,75.984375,-26.54,1.75241875,33.66
2021-06-29 10:35:25.710937500,-43.0,4.25,48.0,75.98531249999999,-28.575,1.7522986249999999,33.66
2021-06-29 10:35:25.718750000,-43.0,4.0,48.0,75.98625,-30.61,1.7521784999999999,33.66
2021-06-29 10:35:25.726562500,-43.0,4.0,48.0,75.9871875,-32.905,1.752058375,33.66
2021-06-29 10:35:25.734375000,-43.0,4.0,48.0,75.988125,-35.2,1.75193825,33.66
2021-06-29 10:35:25.742187500,-43.0,4.0,48.0,75.9890625,-37.980000000000004,1.751818125,33.66
2021-06-29 10:35:25.750000000,-43.0,4.0,48.0,75.99,-40.76,1.751698,33.66
2021-06-29 10:35:25.757812500,-43.0,4.25,48.0,75.9909375,-44.22,1.751698,33.66
2021-06-29 10:35:25.765625000,-43.0,4.5,48.0,75.991875,-47.68,1.751698,33.66
2021-06-29 10:35:25.773437500,-43.0,4.75,48.0,75.9928125,-51.855000000000004,1.751698,33.66
2021-06-29 10:35:25.781250000,-43.0,5.0,48.0,75.99374999999999,-56.03,1.751698,33.66
2021-06-29 10:35:25.789062500,-43.0,5.0,48.0,75.9946875,-60.625,1.751698,33.66
2021-06-29 10:35:25.796875000,-43.0,5.0,48.0,75.995625,-65.22,1.751698,33.66
2021-06-29 10:35:25.804687500,-43.0,5.0,48.0,75.9965625,-69.55,1.751698,33.66
2021-06-29 10:35:25.812500000,-43.0,5.0,48.0,75.9975,-73.88,1.751698,33.66
2021-06-29 10:35:25.820312500,-43.0,4.75,48.0,75.9984375,-76.96000000000001,1.751698,33.66
2021-06-29 10:35:25.828125000,-43.0,4.5,48.0,75.999375,-80.04,1.751698,33.66
2021-06-29 10:35:25.835937500,-43.0,4.25,48.0,76.00031249999999,-80.87,1.751698,33.66
2021-06-29 10:35:25.843750000,-43.0,4.0,48.0,76.00125,-81.7,1.751698,33.66
2021-06-29 10:35:25.851562500,-43.0,4.25,48.0,76.00218749999999,-79.58500000000001,1.751698,33.66
2021-06-29 10:35:25.859375000,-43.0,4.5,48.0,76.003125,-77.47,1.751698,33.66
2021-06-29 10:35:25.867187500,-43.0,4.75,48.0,76.0040625,-72.325,1.751698,33.66
2021-06-29 10:35:25.875000000,-43.0,5.0,48.0,76.005,-67.18,1.751698,33.66
2021-06-29 10:35:25.882812500,-43.0,5.0,48.0,76.0059375,-59.595,1.751698,33.66
2021-06-29 10:35:25.890625000,-43.0,5.0,48.0,76.006875,-52.01,1.751698,33.66
2021-06-29 10:35:25.898437500,-43.0,5.0,48.0,76.0078125,-43.04,1.751698,33.66
2021-06-29 10:35:25.906250000,-43.0,5.0,48.0,76.00874999999999,-34.07,1.751698,33.66
2021-06-29 10:35:25.914062500,-43.25,4.75,48.0,76.0096875,-24.93,1.751698,33.66
2021-06-29 10:35:25.921875000,-43.5,4.5,48.0,76.01062499999999,-15.79,1.751698,33.66
2021-06-29 10:35:25.929687500,-43.75,4.25,48.0,76.0115625,-7.484999999999999,1.751698,33.66
2021-06-29 10:35:25.937500000,-44.0,4.0,48.0,76.0125,0.82,1.751698,33.66
2021-06-29 10:35:25.945312500,-43.75,4.25,48.0,76.0134375,7.655,1.751698,33.66
2021-06-29 10:35:25.953125000,-43.5,4.5,48.0,76.014375,14.49,1.751698,33.66
2021-06-29 10:35:25.960937500,-43.25,4.75,48.0,76.0153125,19.64,1.751698,33.66
2021-06-29 10:35:25.968750000,-43.0,5.0,48.0,76.01625,24.79,1.751698,33.66
2021-06-29 10:35:25.976562500,-43.0,5.0,48.0,76.01718749999999,28.299999999999997,1.751698,33.66
2021-06-29 10:35:25.984375000,-43.0,5.0,48.0,76.018125,31.81,1.751698,33.66
2021-06-29 10:35:25.992187500,-43.0,5.0,48.0,76.01906249999999,33.855,1.751698,33.66
2021-06-29 10:35:26.000000000,-43.0,5.0,48.0,76.02,35.9,1.751698,33.66
2021-06-29 10:35:26.007812500,-43.0,5.0,48.0,76.02078125,36.69,1.75173803125,33.6596875
2021-06-29 10:35:26.015625000,-43.0,5.0,48.0,76.0215625,37.48,1.7517780625,33.659375
2021-06-29 10:35:26.023437500,-43.0,5.0,48.0,76.02234374999999,37.224999999999994,1.75181809375,33.6590625
2021-06-29 10:35:26.031250000,-43.0,5.0,48.0,76.023125,36.97,1.751858125,33.65875
2021-06-29 10:35:26.039062500,-43.0,5.0,48.0,76.02390625,35.95,1.75189815625,33.6584375
2021-06-29 10:35:26.046875000,-43.0,5.0,48.0,76.0246875,34.93,1.7519381875,33.658125
2021-06-29 10:35:26.054687500,-43.0,5.0,48.0,76.02546875,33.535,1.75197821875,33.6578125
2021-06-29 10:35:26.062500000,-43.0,5.0,48.0,76.02624999999999,32.14,1.7520182499999999,33.6575
2021-06-29 10:35:26.070312500,-43.0,4.75,48.0,76.02703125,30.814999999999998,1.75205828125,33.6571875
2021-06-29 10:35:26.078125000,-43.0,4.5,48.0,76.0278125,29.49,1.7520983125,33.656875
2021-06-29 10:35:26.085937500,-43.0,4.25,48.0,76.02859375,28.695,1.75213834375,33.6565625
2021-06-29 10:35:26.093750000,-43.0,4.0,48.0,76.029375,27.9,1.752178375,33.65625
2021-06-29 10:35:26.101562500,-43.0,4.25,48.0,76.03015624999999,27.939999999999998,1.75221840625,33.6559375
2021-06-29 10:35:26.109375000,-43.0,4.5,48.0,76.0309375,27.98,1.7522584375,33.655625
2021-06-29 10:35:26.117187500,-43.0,4.75,48.0,76.03171875,28.950000000000003,1.75229846875,33.6553125
2021-06-29 10:35:26.125000000,-43.0,5.0,48.0,76.0325,29.92,1.7523385,33.655
2021-06-29 10:35:26.132812500,-43.0,4.75,48.0,76.03328125,31.64,1.75237853125,33.654687499999994
2021-06-29 10:35:26.140625000,-43.0,4.5,48.0,76.03406249999999,33.36,1.7524185625,33.654374999999995
2021-06-29 10:35:26.148437500,-43.0,4.25,48.0,76.03484375,35.475,1.7524585937500001,33.654062499999995
2021-06-29 10:35:26.156250000,-43.0,4.0,48.0,76.035625,37.59,1.752498625,33.653749999999995
2021-06-29 10:35:26.164062500,-43.0,4.0,48.0,76.03640625,39.69,1.75253865625,33.653437499999995
2021-06-29 10:35:26.171875000,-43.0,4.0,48.0,76.0371875,41.79,1.7525786875,33.653124999999996
2021-06-29 10:35:26.179687500,-43.0,4.0,48.0,76.03796875,43.55,1.75261871875,33.652812499999996
2021-06-29 10:35:26.187500000,-43.0,4.0,48.0,76.03875,45.31,1.7526587500000002,33.652499999999996
2021-06-29 10:35:26.195312500,-43.0,4.25,48.0,76.03953125,46.535,1.7526987812500001,33.6521875
2021-06-29 10:35:26.203125000,-43.0,4.5,48.0,76.0403125,47.76,1.7527388125,33.651875
2021-06-29 10:35:26.210937500,-43.0,4.75,48.0,76.04109375,48.364999999999995,1.75277884375,33.6515625
2021-06-29 10:35:26.218750000,-43.0,5.0,48.0,76.041875,48.97,1.752818875,33.65125
2021-06-29 10:35:26.226562500,-43.0,5.0,48.0,76.04265625,48.93,1.75285890625,33.6509375
2021-06-29 10:35:26.234375000,-43.0,5.0,48.0,76.0434375,48.89,1.7528989375000001,33.650625
2021-06-29 10:35:26.242187500,-43.0,5.0,48.0,76.04421875,48.18,1.75293896875,33.6503125
2021-06-29 10:35:26.250000000,-43.0,5.0,48.0,76.045,47.47,1.752979,33.65
2021-06-29 10:35:26.257812500,-43.0,4.75,48.0,76.04578125,46.06,1.753099125,33.65
2021-06-29 10:35:26.265625000,-43.0,4.5,48.0,76.0465625,44.65,1.7532192500000001,33.65
2021-06-29 10:35:26.273437500,-43.0,4.25,48.0,76.04734375,42.555,1.7533393750000001,33.65
2021-06-29 10:35:26.281250000,-43.0,4.0,48.0,76.048125,40.46,1.7534595,33.65
2021-06-29 10:35:26.289062500,-43.0,4.0,48.0,76.04890625,37.79,1.753579625,33.65
2021-06-29 10:35:26.296875000,-43.0,4.0,48.0,76.0496875,35.12,1.75369975,33.65
2021-06-29 10:35:26.304687500,-43.0,4.0,48.0,76.05046875,32.07,1.753819875,33.65
2021-06-29 10:35:26.312500000,-43.0,4.0,48.0,76.05125,29.02,1.75394,33.65
2021-06-29 10:35:26.320312500,-43.0,4.0,48.0,76.05203125,25.86,1.754060125,33.65
2021-06-29 10:35:26.328125000,-43.0,4.0,48.0,76.0528125,22.7,1.75418025,33.65
2021-06-29 10:35:26.335937500,-43.0,4.0,48.0,76.05359375,19.655,1.7543003750000001,33.65
2021-06-29 10:35:26.343750000,-43.0,4.0,48.0,76.054375,16.61,1.7544205000000002,33.65
2021-06-29 10:35:26.351562500,-43.0,4.25,48.0,76.05515625,13.82,1.754540625,33.65
2021-06-29 10:35:26.359375000,-43.0,4.5,48.0,76.0559375,11.03,1.75466075,33.65
2021-06-29 10:35:26.367187500,-43.0,4.75,48.0,76.05671875,8.495,1.754780875,33.65
2021-06-29 10:35:26.375000000,-43.0,5.0,48.0,76.0575,5.96,1.754901,33.65
2021-06-29 10:35:26.382812500,-43.0,4.75,48.0,76.05828125,3.55,1.755021125,33.65
2021-06-29 10:35:26.390625000,-43.0,4.5,48.0,76.0590625,1.14,1.75514125,33.65
2021-06-29 10:35:26.398437500,-43.0,4.25,48.0,76.05984375,-1.285,1.7552613750000001,33.65
2021-06-29 10:35:26.406250000,-43.0,4.0,48.0,76.060625,-3.71,1.7553815,33.65
2021-06-29 10:35:26.414062500,-43.0,4.0,48.0,76.06140625,-6.26,1.755501625,33.65
2021-06-29 10:35:26.421875000,-43.0,4.0,48.0,76.0621875,-8.81,1.75562175,33.65
2021-06-29 10:35:26.429687500,-43.0,4.0,48.0,76.06296875,-11.465,1.755741875,33.65
2021-06-29 10:35:26.437500000,-43.0,4.0,48.0,76.06375,-14.12,1.755862,33.65
2021-06-29 10:35:26.445312500,-43.0,4.0,48.0,76.06453125,-16.745,1.755982125,33.65
2021-06-29 10:35:26.453125000,-43.0,4.0,48.0,76.0653125,-19.37,1.75610225,33.65
2021-06-29 10:35:26.460937500,-43.0,4.0,48.0,76.06609375,-21.785,1.7562223750000001,33.65
2021-06-29 10:35:26.468750000,-43.0,4.0,48.0,76.066875,-24.2,1.7563425000000001,33.65
2021-06-29 10:35:26.476562500,-43.0,4.25,48.0,76.06765625,-26.27,1.756462625,33.65
2021-06-29 10:35:26.484375000,-43.0,4.5,48.0,76.0684375,-28.34,1.75658275,33.65
2021-06-29 10:35:26.492187500,-43.0,4.75,48.0,76.06921875,-30.105,1.756702875,33.65
2021-06-29 10:35:26.500000000,-43.0,5.0,48.0,76.07,-31.87,1.756823,33.65
2021-06-29 10:35:26.507812500,-43.0,5.0,48.0,76.07078125,-33.545,1.756823,33.65
2021-06-29 10:35:26.515625000,-43.0,5.0,48.0,76.0715625,-35.22,1.756823,33.65
2021-06-29 10:35:26.523437500,-43.0,5.0,48.0,76.07234375,-37.19,1.756823,33.65
2021-06-29 10:35:26.531250000,-43.0,5.0,48.0,76.073125,-39.16,1.756823,33.65
2021-06-29 10:35:26.539062500,-43.0,5.0,48.0,76.07390625000001,-41.845,1.756823,33.65
2021-06-29 10:35:26.546875000,-43.0,5.0,48.0,76.0746875,-44.53,1.756823,33.65
2021-06-29 10:35:26.554687500,-43.0,5.0,48.0,76.07546875,-48.18,1.756823,33.65
2021-06-29 10:35:26.562500000,-43.0,5.0,48.0,76.07625,-51.83,1.756823,33.65
2021-06-29 10:35:26.570312500,-43.0,5.0,48.0,76.07703125,-56.39,1.756823,33.65
2021-06-29 10:35:26.578125000,-43.0,5.0,48.0,76.07781250000001,-60.95,1.756823,33.65
2021-06-29 10:35:26.585937500,-43.0,5.0,48.0,76.07859375,-65.92500000000001,1.756823,33.65
2021-06-29 10:35:26.593750000,-43.0,5.0,48.0,76.079375,-70.9,1.756823,33.65
2021-06-29 10:35:26.601562500,-43.0,5.0,48.0,76.08015625,-75.39500000000001,1.756823,33.65
2021-06-29 10:35:26.609375000,-43.0,5.0,48.0,76.0809375,-79.89,1.756823,33.65
2021-06-29 10:35:26.617187500,-43.0,5.0,48.0,76.08171875000001,-82.825,1.756823,33.65
2021-06-29 10:35:26.625000000,-43.0,5.0,48.0,76.0825,-85.76,1.756823,33.65
2021-06-29 10:35:26.632812500,-43.0,5.0,48.0,76.08328125,-86.155,1.756823,33.65
2021-06-29 10:35:26.640625000,-43.0,5.0,48.0,76.0840625,-86.55,1.756823,33.65
2021-06-29 10:35:26.648437500,-43.0,5.0,48.0,76.08484375,-83.83500000000001,1.756823,33.65
2021-06-29 10:35:26.656250000,-43.0,5.0,48.0,76.08562500000001,-81.12,1.756823,33.65
2021-06-29 10:35:26.664062500,-43.0,5.0,48.0,76.08640625,-75.37,1.756823,33.65
2021-06-29 10:35:26.671875000,-43.0,5.0,48.0,76.0871875,-69.62,1.756823,33.65
2021-06-29 10:35:26.679687500,-43.0,5.0,48.0,76.08796875,-61.505,1.756823,33.65
2021-06-29 10:35:26.687500000,-43.0,5.0,48.0,76.08875,-53.39,1.756823,33.65
2021-06-29 10:35:26.695312500,-43.0,4.75,48.0,76.08953125000001,-44.025,1.756823,33.65
2021-06-29 10:35:26.703125000,-43.0,4.5,48.0,76.0903125,-34.66,1.756823,33.65
2021-06-29 10:35:26.710937500,-43.0,4.25,48.0,76.09109375,-25.235,1.756823,33.65
2021-06-29 10:35:26.718750000,-43.0,4.0,48.0,76.091875,-15.81,1.756823,33.65
2021-06-29 10:35:26.726562500,-43.0,4.25,48.0,76.09265625,-7.32,1.756823,33.65
2021-06-29 10:35:26.734375000,-43.0,4.5,48.0,76.09343750000001,1.17,1.756823,33.65
2021-06-29 10:35:26.742187500,-43.0,4.75,48.0,76.09421875,8.129999999999999,1.756823,33.65
2021-06-29 10:35:26.750000000,-43.0,5.0,48.0,76.095,15.09,1.756823,33.65
2021-06-29 10:35:26.757812500,-43.0,4.75,48.0,76.09578125,20.285,1.75678296875,33.65
2021-06-29 10:35:26.765625000,-43.0,4.5,48.0,76.0965625,25.48,1.7567429375,33.65
2021-06-29 10:35:26.773437500,-43.0,4.25,48.0,76.09734375000001,28.950000000000003,1.75670290625,33.65
2021-06-29 10:35:26.781250000,-43.0,4.0,48.0,76.098125,32.42,1.756662875,33.65
2021-06-29 10:35:26.789062500,-43.0,4.0,48.0,76.09890625,34.315,1.75662284375,33.65
2021-06-29 10:35:26.796875000,-43.0,4.0,48.0,76.0996875,36.21,1.7565828125,33.65
2021-06-29 10:35:26.804687500,-43.0,4.0,48.0,76.10046875,36.745000000000005,1.75654278125,33.65
2021-06-29 10:35:26.812500000,-43.0,4.0,48.0,76.10125000000001,37.28,1.7565027500000001,33.65
2021-06-29 10:35:26.820312500,-43.0,4.25,48.0,76.10203125,36.71,1.75646271875,33.65
2021-06-29 10:35:26.828125000,-43.0,4.5,48.0,76.1028125,36.14,1.7564226875,33.65
2021-06-29 10:35:26.835937500,-43.0,4.75,48.0,76.10359375,34.815,1.75638265625,33.65
2021-06-29 10:35:26.843750000,-43.0,5.0,48.0,76.104375,33.49,1.756342625,33.65
2021-06-29 10:35:26.851562500,-43.0,4.75,48.0,76.10515625000001,31.86,1.75630259375,33.65
2021-06-29 10:35:26.859375000,-43.0,4.5,48.0,76.10593750000001,30.23,1.7562625625,33.65
2021-06-29 10:35:26.867187500,-43.0,4.25,48.0,76.10671875,28.79,1.75622253125,33.65
2021-06-29 10:35:26.875000000,-43.0,4.0,48.0,76.1075,27.35,1.7561825,33.65
2021-06-29 10:35:26.882812500,-43.0,4.25,48.0,76.10828125,26.51,1.75614246875,33.65
2021-06-29 10:35:26.890625000,-43.0,4.5,48.0,76.10906250000001,25.67,1.7561024375,33.65
2021-06-29 10:35:26.898437500,-43.0,4.75,48.0,76.10984375000001,25.675,1.7560624062499999,33.65
2021-06-29 10:35:26.906250000,-43.0,5.0,48.0,76.110625,25.68,1.756022375,33.65
2021-06-29 10:35:26.914062500,-43.0,4.75,48.0,76.11140625,26.55,1.75598234375,33.65
2021-06-29 10:35:26.921875000,-43.0,4.5,48.0,76.1121875,27.42,1.7559423125,33.65
2021-06-29 10:35:26.929687500,-43.0,4.25,48.0,76.11296875000001,28.98,1.75590228125,33.65
2021-06-29 10:35:26.937500000,-43.0,4.0,48.0,76.11375000000001,30.54,1.7558622499999998,33.65
2021-06-29 10:35:26.945312500,-43.0,4.0,48.0,76.11453125,32.465,1.7558222187499999,33.65
2021-06-29 10:35:26.953125000,-43.0,4.0,48.0,76.1153125,34.39,1.7557821875,33.65
2021-06-29 10:35:26.960937500,-43.0,4.0,48.0,76.11609375,36.315,1.75574215625,33.65
2021-06-29 10:35:26.968750000,-43.0,4.0,48.0,76.11687500000001,38.24,1.755702125,33.65
2021-06-29 10:35:26.976562500,-43.0,4.25,48.0,76.11765625000001,39.835,1.75566209375,33.65
2021-06-29 10:35:26.984375000,-43.0,4.5,48.0,76.1184375,41.43,1.7556220624999999,33.65
2021-06-29 10:35:26.992187500,-43.0,4.75,48.0,76.11921875,42.46,1.75558203125,33.65
2021-06-29 10:35:27.000000000,-43.0,5.0,48.0,76.12,43.49,1.755542,33.65
2021-06-29 10:35:27.007812500,-43.0,4.75,48.0,76.12046875,43.845,1.7555019374999998,33.65
2021-06-29 10:35:27.015625000,-43.0,4.5,48.0,76.12093750000001,44.2,1.755461875,33.65
2021-06-29 10:35:27.023437500,-43.0,4.25,48.0,76.12140625,43.89,1.7554218124999998,33.65
2021-06-29 10:35:27.031250000,-43.0,4.0,48.0,76.121875,43.58,1.75538175,33.65
2021-06-29 10:35:27.039062500,-43.0,4.0,48.25,76.12234375,42.715,1.7553416874999999,33.65
2021-06-29 10:35:27.046875000,-43.0,4.0,48.5,76.12281250000001,41.85,1.755301625,33.65
2021-06-29 10:35:27.054687500,-43.0,4.0,48.75,76.12328125,40.565,1.7552615624999999,33.65
2021-06-29 10:35:27.062500000,-43.0,4.0,49.0,76.12375,39.28,1.7552215,33.65
2021-06-29 10:35:27.070312500,-43.0,4.0,48.75,76.12421875000001,37.715,1.7551814374999999,33.65
2021-06-29 10:35:27.078125000,-43.0,4.0,48.5,76.12468750000001,36.15,1.755141375,33.65
2021-06-29 10:35:27.085937500,-43.0,4.0,48.25,76.12515625,34.370000000000005,1.7551013125,33.65
2021-06-29 10:35:27.093750000,-43.0,4.0,48.0,76.125625,32.59,1.75506125,33.65
2021-06-29 10:35:27.101562500,-43.25,4.0,48.0,76.12609375000001,30.61,1.7550211875,33.65
2021-06-29 10:35:27.109375000,-43.5,4.0,48.0,76.1265625,28.63,1.754981125,33.65
2021-06-29 10:35:27.117187500,-43.75,4.0,48.0,76.12703125,26.39,1.7549410625,33.65
2021-06-29 10:35:27.125000000,-44.0,4.0,48.0,76.1275,24.15,1.7549009999999998,33.65
2021-06-29 10:35:27.132812500,-43.75,4.0,48.0,76.12796875000001,21.575,1.7548609375,33.65
2021-06-29 10:35:27.140625000,-43.5,4.0,48.0,76.1284375,19.0,1.7548208749999998,33.65
2021-06-29 10:35:27.148437500,-43.25,4.0,48.0,76.12890625,16.065,1.7547808125,33.65
2021-06-29 10:35:27.156250000,-43.0,4.0,48.0,76.12937500000001,13.13,1.7547407499999998,33.65
2021-06-29 10:35:27.164062500,-43.0,4.25,48.0,76.12984375,9.885,1.7547006875,33.65
2021-06-29 10:35:27.171875000,-43.0,4.5,48.0,76.1303125,6.64,1.7546606249999999,33.65
2021-06-29 10:35:27.179687500,-43.0,4.75,48.0,76.13078125,3.25,1.7546205625,33.65
2021-06-29 10:35:27.187500000,-43.0,5.0,48.0,76.13125000000001,-0.14,1.7545804999999999,33.65
2021-06-29 10:35:27.195312500,-43.25,5.0,48.0,76.13171875,-3.4450000000000003,1.7545404375,33.65
2021-06-29 10:35:27.203125000,-43.5,5.0,48.0,76.1321875,-6.75,1.754500375,33.65
2021-06-29 10:35:27.210937500,-43.75,5.0,48.0,76.13265625000001,-9.73,1.7544603125,33.65
2021-06-29 10:35:27.218750000,-44.0,5.0,48.0,76.133125,-12.71,1.75442025,33.65
2021-06-29 10:35:27.226562500,-43.75,4.75,48.0,76.13359375,-15.23,1.7543801875,33.65
2021-06-29 10:35:27.234375000,-43.5,4.5,48.0,76.1340625,-17.75,1.754340125,33.65
2021-06-29 10:35:27.242187500,-43.25,4.25,48.0,76.13453125000001,-19.84,1.7543000625,33.65
2021-06-29 10:35:27.250000000,-43.0,4.0,48.0,76.135,-21.93,1.75426,33.65
2021-06-29 10:35:27.257812500,-43.0,4.0,48.0,76.13546875,-23.785,1.75426,33.65
2021-06-29 10:35:27.265625000,-43.0,4.0,48.0,76.13593750000001,-25.64,1.75426,33.65
2021-06-29 10:35:27.273437500,-43.0,4.0,48.0,76.13640625000001,-27.595,1.75426,33.65
2021-06-29 10:35:27.281250000,-43.0,4.0,48.0,76.136875,-29.55,1.75426,33.65
2021-06-29 10:35:27.289062500,-43.0,4.25,48.0,76.13734375,-31.97,1.75426,33.65
2021-06-29 10:35:27.296875000,-43.0,4.5,48.0,76.13781250000001,-34.39,1.75426,33.65
2021-06-29 10:35:27.304687500,-43.0,4.75,48.0,76.13828125,-37.555,1.75426,33.65
2021-06-29 10:35:27.312500000,-43.0,5.0,48.0,76.13875,-40.72,1.75426,33.65
2021-06-29 10:35:27.320312500,-43.0,5.0,48.0,76.13921875000001,-44.72,1.75426,33.65
2021-06-29 10:35:27.328125000,-43.0,5.0,48.0,76.13968750000001,-48.72,1.75426,33.65
2021-06-29 10:35:27.335937500,-43.0,5.0,48.0,76.14015625,-53.39,1.75426,33.65
2021-06-29 10:35:27.343750000,-43.0,5.0,48.0,76.140625,-58.06,1.75426,33.65
2021-06-29 10:35:27.351562500,-43.0,4.75,48.0,76.14109375000001,-62.915,1.75426,33.65
2021-06-29 10:35:27.359375000,-43.0,4.5,48.0,76.1415625,-67.77,1.75426,33.65
2021-06-29 10:35:27.367187500,-43.0,4.25,48.0,76.14203125,-72.035,1.75426,33.65
2021-06-29 10:35:27.375000000,-43.0,4.0,48.0,76.14250000000001,-76.3,1.75426,33.65
2021-06-29 10:35:27.382812500,-43.0,4.0,48.0,76.14296875000001,-79.03,1.75426,33.65
2021-06-29 10:35:27.390625000,-43.0,4.0,48.0,76.1434375,-81.76,1.75426,33.65
2021-06-29 10:35:27.398437500,-43.0,4.0,48.0,76.14390625,-82.075,1.75426,33.65
2021-06-29 10:35:27.406250000,-43.0,4.0,48.0,76.14437500000001,-82.39,1.75426,33.65
2021-06-29 10:35:27.414062500,-43.0,4.0,48.0,76.14484375,-79.725,1.75426,33.65
2021-06-29 10:35:27.421875000,-43.0,4.0,48.0,76.1453125,-77.06,1.75426,33.65
2021-06-29 10:35:27.429687500,-43.0,4.0,48.0,76.14578125,-71.38499999999999,1.75426,33.65
2021-06-29 10:35:27.437500000,-43.0,4.0,48.0,76.14625000000001,-65.71,1.75426,33.65
2021-06-29 10:35:27.445312500,-43.0,4.0,48.0,76.14671875,-57.595,1.75426,33.65
2021-06-29 10:35:27.453125000,-43.0,4.0,48.0,76.1471875,-49.48,1.75426,33.65
2021-06-29 10:35:27.460937500,-43.0,4.0,48.0,76.14765625000001,-39.97,1.75426,33.65
2021-06-29 10:35:27.468750000,-43.0,4.0,48.0,76.14812500000001,-30.46,1.75426,33.65
2021-06-29 10:35:27.476562500,-43.0,4.25,48.0,76.14859375,-20.765,1.75426,33.65
2021-06-29 10:35:27.484375000,-43.0,4.5,48.0,76.1490625,-11.07,1.75426,33.65
2021-06-29 10:35:27.492187500,-43.0,4.75,48.0,76.14953125000001,-2.2699999999999996,1.75426,33.65
2021-06-29 10:35:27.500000000,-43.0,5.0,48.0,76.15,6.53,1.75426,33.65
2021-06-29 10:35:27.507812500,-43.0,5.0,48.0,76.15046875,13.725000000000001,1.7543000625,33.65
2021-06-29 10:35:27.515625000,-43.0,5.0,48.0,76.15093750000001,20.92,1.754340125,33.65
2021-06-29 10:35:27.523437500,-43.0,5.0,48.0,76.15140625000001,26.245,1.7543801875,33.65
2021-06-29 10:35:27.531250000,-43.0,5.0,48.0,76.151875,31.57,1.75442025,33.65
2021-06-29 10:35:27.539062500,-43.0,4.75,48.0,76.15234375,35.085,1.7544603125,33.65
2021-06-29 10:35:27.546875000,-43.0,4.5,48.0,76.15281250000001,38.6,1.754500375,33.65
2021-06-29 10:35:27.554687500,-43.0,4.25,48.0,76.15328125,40.575,1.7545404375,33.65
2021-06-29 10:35:27.562500000,-43.0,4.0,48.0,76.15375,42.55,1.7545804999999999,33.65
2021-06-29 10:35:27.570312500,-43.0,4.25,48.0,76.15421875000001,43.33,1.7546205625,33.65
2021-06-29 10:35:27.578125000,-43.0,4.5,48.0,76.15468750000001,44.11,1.7546606249999999,33.65
2021-06-29 10:35:27.585937500,-43.0,4.75,48.0,76.15515625,44.05,1.7547006875,33.65
2021-06-29 10:35:27.593750000,-43.0,5.0,48.0,76.155625,43.99,1.7547407499999998,33.65
2021-06-29 10:35:27.601562500,-43.0,4.75,48.0,76.15609375000001,43.435,1.7547808125,33.65
2021-06-29 10:35:27.609375000,-43.0,4.5,48.0,76.1565625,42.88,1.7548208749999998,33.65
2021-06-29 10:35:27.617187500,-43.0,4.25,48.0,76.15703125,42.19,1.7548609375,33.65
2021-06-29 10:35:27.625000000,-43.0,4.0,48.0,76.1575,41.5,1.7549009999999998,33.65
2021-06-29 10:35:27.632812500,-43.0,4.0,48.0,76.15796875000001,41.010000000000005,1.7549410625,33.65
2021-06-29 10:35:27.640625000,-43.0,4.0,48.0,76.1584375,40.52,1.754981125,33.65
2021-06-29 10:35:27.648437500,-43.0,4.0,48.0,76.15890625,40.485,1.7550211875,33.65
2021-06-29 10:35:27.656250000,-43.0,4.0,48.0,76.15937500000001,40.45,1.75506125,33.65
2021-06-29 10:35:27.664062500,-43.25,4.25,48.0,76.15984375000001,41.0,1.7551013125,33.65
2021-06-29 10:35:27.671875000,-43.5,4.5,48.0,76.1603125,41.55,1.755141375,33.65
2021-06-29 10:35:27.679687500,-43.75,4.75,48.0,76.16078125,42.629999999999995,1.7551814374999999,33.65
2021-06-29 10:35:27.687500000,-44.0,5.0,48.0,76.16125000000001,43.71,1.7552215,33.65
2021-06-29 10:35:27.695312500,-43.75,5.0,48.0,76.16171875,45.14,1.7552615624999999,33.65
2021-06-29 10:35:27.703125000,-43.5,5.0,48.0,76.1621875,46.57,1.755301625,33.65
2021-06-29 10:35:27.710937500,-43.25,5.0,48.0,76.16265625000001,48.105000000000004,1.7553416874999999,33.65
2021-06-29 10:35:27.718750000,-43.0,5.0,48.0,76.16312500000001,49.64,1.75538175,33.65
2021-06-29 10:35:27.726562500,-43.0,4.75,48.0,76.16359375,51.04,1.7554218124999998,33.65
2021-06-29 10:35:27.734375000,-43.0,4.5,48.0,76.1640625,52.44,1.755461875,33.65
2021-06-29 10:35:27.742187500,-43.0,4.25,48.0,76.16453125000001,53.515,1.7555019374999998,33.65
2021-06-29 10:35:27.750000000,-43.0,4.0,48.0,76.165,54.59,1.755542,33.65
2021-06-29 10:35:27.757812500,-43.0,4.25,48.0,76.16546875,55.235,1.75530178125,33.65
2021-06-29 10:35:27.765625000,-43.0,4.5,48.0,76.16593750000001,55.88,1.7550615625,33.65
2021-06-29 10:35:27.773437500,-43.0,4.75,48.0,76.16640625000001,56.015,1.75482134375,33.65
2021-06-29 10:35:27.781250000,-43.0,5.0,48.0,76.166875,56.15,1.7545811249999999,33.65
2021-06-29 10:35:27.789062500,-43.0,4.75,48.0,76.16734375,55.7,1.75434090625,33.65
2021-06-29 10:35:27.796875000,-43.0,4.5,48.0,76.16781250000001,55.25,1.7541006875,33.65
2021-06-29 10:35:27.804687500,-43.0,4.25,48.0,76.16828125,54.155,1.75386046875,33.65
2021-06-29 10:35:27.812500000,-43.0,4.0,48.0,76.16875,53.06,1.75362025,33.65
2021-06-29 10:35:27.820312500,-43.25,4.0,48.0,76.16921875000001,51.305,1.7533800312499999,33.65
2021-06-29 10:35:27.828125000,-43.5,4.0,48.0,76.16968750000001,49.55,1.7531398125,33.65
2021-06-29 10:35:27.835937500,-43.75,4.0,48.0,76.17015625,47.2,1.75289959375,33.65
2021-06-29 10:35:27.843750000,-44.0,4.0,48.0,76.170625,44.85,1.752659375,33.65
2021-06-29 10:35:27.851562500,-43.75,4.0,48.0,76.17109375000001,42.07,1.75241915625,33.65
2021-06-29 10:35:27.859375000,-43.5,4.0,48.0,76.17156250000001,39.29,1.7521789374999999,33.65
2021-06-29 10:35:27.867187500,-43.25,4.0,48.0,76.17203125,36.315,1.75193871875,33.65
2021-06-29 10:35:27.875000000,-43.0,4.0,48.0,76.17250000000001,33.34,1.7516984999999998,33.65
2021-06-29 10:35:27.882812500,-43.0,4.25,48.0,76.17296875000001,30.385,1.75145828125,33.65
2021-06-29 10:35:27.890625000,-43.0,4.5,48.0,76.1734375,27.43,1.7512180625,33.65
2021-06-29 10:35:27.898437500,-43.0,4.75,48.0,76.17390625,24.625,1.7509778437499999,33.65
2021-06-29 10:35:27.906250000,-43.0,5.0,48.0,76.17437500000001,21.82,1.750737625,33.65
2021-06-29 10:35:27.914062500,-43.0,4.75,47.75,76.17484375000001,19.155,1.7504974062499998,33.65
2021-06-29 10:35:27.921875000,-43.0,4.5,47.5,76.1753125,16.49,1.7502571875,33.65
2021-06-29 10:35:27.929687500,-43.0,4.25,47.25,76.17578125,13.864999999999998,1.75001696875,33.65
2021-06-29 10:35:27.937500000,-43.0,4.0,47.0,76.17625000000001,11.24,1.7497767499999999,33.65
2021-06-29 10:35:27.945312500,-43.0,4.0,47.25,76.17671875,8.535,1.74953653125,33.65
2021-06-29 10:35:27.953125000,-43.0,4.0,47.5,76.1771875,5.83,1.7492963124999998,33.65
2021-06-29 10:35:27.960937500,-43.0,4.0,47.75,76.17765625000001,2.99,1.74905609375,33.65
2021-06-29 10:35:27.968750000,-43.0,4.0,48.0,76.17812500000001,0.15,1.748815875,33.65
2021-06-29 10:35:27.976562500,-43.25,4.0,48.0,76.17859375,-2.7550000000000003,1.7485756562499999,33.65
2021-06-29 10:35:27.984375000,-43.5,4.0,48.0,76.1790625,-5.66,1.7483354375,33.65
2021-06-29 10:35:27.992187500,-43.75,4.0,48.0,76.17953125000001,-8.48,1.7480952187499998,33.65
2021-06-29 10:35:28.000000000,-44.0,4.0,48.0,76.18,-11.3,1.747855,33.65
2021-06-29 10:35:28.007812500,-44.0,4.0,48.0,76.18070312500001,-13.860000000000001,1.74813525,33.65
2021-06-29 10:35:28.015625000,-44.0,4.0,48.0,76.18140625000001,-16.42,1.7484155,33.65
2021-06-29 10:35:28.023437500,-44.0,4.0,48.0,76.18210937500001,-18.630000000000003,1.74869575,33.65
2021-06-29 10:35:28.031250000,-44.0,4.0,48.0,76.18281250000001,-20.84,1.7489759999999999,33.65
2021-06-29 10:35:28.039062500,-44.0,4.0,48.0,76.18351562500001,-22.715,1.74925625,33.65
2021-06-29 10:35:28.046875000,-44.0,4.0,48.0,76.18421875,-24.59,1.7495365,33.65
2021-06-29 10:35:28.054687500,-44.0,4.0,48.0,76.184921875,-26.259999999999998,1.74981675,33.65
2021-06-29 10:35:28.062500000,-44.0,4.0,48.0,76.185625,-27.93,1.750097,33.65
2021-06-29 10:35:28.070312500,-44.0,4.0,48.0,76.186328125,-29.63,1.7503772499999999,33.65
2021-06-29 10:35:28.078125000,-44.0,4.0,48.0,76.18703125,-31.33,1.7506575,33.65
2021-06-29 10:35:28.085937500,-44.0,4.0,48.0,76.187734375,-33.36,1.75093775,33.65
2021-06-29 10:35:28.093750000,-44.0,4.0,48.0,76.1884375,-35.39,1.751218,33.65
2021-06-29 10:35:28.101562500,-43.75,4.25,48.0,76.18914062500001,-38.07,1.75149825,33.65
2021-06-29 10:35:28.109375000,-43.5,4.5,48.0,76.18984375000001,-40.75,1.7517785,33.65
2021-06-29 10:35:28.117187500,-43.25,4.75,48.0,76.19054687500001,-44.34,1.75205875,33.65
2021-06-29 10:35:28.125000000,-43.0,5.0,48.0,76.19125000000001,-47.93,1.752339,33.65
2021-06-29 10:35:28.132812500,-43.0,5.0,48.0,76.19195312500001,-52.445,1.75261925,33.65
2021-06-29 10:35:28.140625000,-43.0,5.0,48.0,76.19265625,-56.96,1.7528995,33.65
2021-06-29 10:35:28.148437500,-43.0,5.0,48.0,76.193359375,-62.035,1.75317975,33.65
2021-06-29 10:35:28.156250000,-43.0,5.0,48.0,76.1940625,-67.11,1.75346,33.65
2021-06-29 10:35:28.164062500,-43.25,5.0,47.75,76.194765625,-71.925,1.75374025,33.65
2021-06-29 10:35:28.171875000,-43.5,5.0,47.5,76.19546875,-76.74,1.7540205,33.65
2021-06-29 10:35:28.179687500,-43.75,5.0,47.25,76.196171875,-80.13499999999999,1.75430075,33.65
2021-06-29 10:35:28.187500000,-44.0,5.0,47.0,76.196875,-83.53,1.754581,33.65
2021-06-29 10:35:28.195312500,-44.0,5.0,47.25,76.197578125,-84.355,1.75486125,33.65
2021-06-29 10:35:28.203125000,-44.0,5.0,47.5,76.19828125000001,-85.18,1.7551415,33.65
2021-06-29 10:35:28.210937500,-44.0,5.0,47.75,76.19898437500001,-82.67500000000001,1.75542175,33.65
2021-06-29 10:35:28.218750000,-44.0,5.0,48.0,76.19968750000001,-80.17,1.755702,33.65
2021-06-29 10:35:28.226562500,-43.75,4.75,48.0,76.20039062500001,-74.30000000000001,1.75598225,33.65
2021-06-29 10:35:28.234375000,-43.5,4.5,48.0,76.20109375,-68.43,1.7562625,33.65
2021-06-29 10:35:28.242187500,-43.25,4.25,48.0,76.201796875,-59.965,1.75654275,33.65
2021-06-29 10:35:28.250000000,-43.0,4.0,48.0,76.2025,-51.5,1.756823,33.65
2021-06-29 10:35:28.257812500,-43.25,4.25,47.75,76.203203125,-41.79,1.75666284375,33.65
2021-06-29 10:35:28.265625000,-43.5,4.5,47.5,76.20390625,-32.08,1.7565026875,33.65
2021-06-29 10:35:28.273437500,-43.75,4.75,47.25,76.204609375,-22.634999999999998,1.75634253125,33.65
2021-06-29 10:35:28.281250000,-44.0,5.0,47.0,76.2053125,-13.19,1.756182375,33.65
2021-06-29 10:35:28.289062500,-44.0,4.75,47.0,76.206015625,-5.25,1.75602221875,33.65
2021-06-29 10:35:28.296875000,-44.0,4.5,47.0,76.20671875000001,2.69,1.7558620625,33.65
2021-06-29 10:35:28.304687500,-44.0,4.25,47.0,76.20742187500001,8.425,1.75570190625,33.65
2021-06-29 10:35:28.312500000,-44.0,4.0,47.0,76.20812500000001,14.16,1.75554175,33.65
2021-06-29 10:35:28.320312500,-44.0,4.25,47.0,76.208828125,17.595,1.75538159375,33.65
2021-06-29 10:35:28.328125000,-44.0,4.5,47.0,76.20953125,21.03,1.7552214375,33.65
2021-06-29 10:35:28.335937500,-44.0,4.75,47.0,76.210234375,22.490000000000002,1.75506128125,33.65
2021-06-29 10:35:28.343750000,-44.0,5.0,47.0,76.2109375,23.95,1.754901125,33.65
2021-06-29 10:35:28.351562500,-44.0,5.0,47.0,76.211640625,23.955,1.75474096875,33.65
2021-06-29 10:35:28.359375000,-44.0,5.0,47.0,76.21234375,23.96,1.7545808125,33.65
2021-06-29 10:35:28.367187500,-44.0,5.0,47.0,76.213046875,23.075000000000003,1.75442065625,33.65
2021-06-29 10:35:28.375000000,-44.0,5.0,47.0,76.21375,22.19,1.7542605,33.65
2021-06-29 10:35:28.382812500,-44.0,5.0,47.25,76.214453125,20.905,1.75410034375,33.65
2021-06-29 10:35:28.390625000,-44.0,5.0,47.5,76.21515625,19.62,1.7539401875,33.65
2021-06-29 10:35:28.398437500,-44.0,5.0,47.75,76.21585937500001,18.35,1.75378003125,33.65
2021-06-29 10:35:28.406250000,-44.0,5.0,48.0,76.21656250000001,17.08,1.753619875,33.65
2021-06-29 10:35:28.414062500,-43.75,5.0,47.75,76.217265625,16.18,1.75345971875,33.65
2021-06-29 10:35:28.421875000,-43.5,5.0,47.5,76.21796875,15.28,1.7532995625,33.65
2021-06-29 10:35:28.429687500,-43.25,5.0,47.25,76.218671875,15.04,1.75313940625,33.65
2021-06-29 10:35:28.437500000,-43.0,5.0,47.0,76.219375,14.8,1.75297925,33.65
2021-06-29 10:35:28.445312500,-43.25,5.0,47.0,76.220078125,15.375,1.75281909375,33.65
2021-06-29 10:35:28.453125000,-43.5,5.0,47.0,76.22078125,15.95,1.7526589375,33.65
2021-06-29 10:35:28.460937500,-43.75,5.0,47.0,76.221484375,17.36,1.75249878125,33.65
2021-06-29 10:35:28.468750000,-44.0,5.0,47.0,76.2221875,18.77,1.752338625,33.65
2021-06-29 10:35:28.476562500,-43.75,5.0,47.25,76.222890625,20.85,1.75217846875,33.65
2021-06-29 10:35:28.484375000,-43.5,5.0,47.5,76.22359375,22.93,1.7520183125,33.65
2021-06-29 10:35:28.492187500,-43.25,5.0,47.75,76.22429687500001,25.39,1.75185815625,33.65
2021-06-29 10:35:28.500000000,-43.0,5.0,48.0,76.225,27.85,1.751698,33.65
2021-06-29 10:35:28.507812500,-43.25,5.0,47.75,76.225703125,30.37,1.751818125,33.65
2021-06-29 10:35:28.515625000,-43.5,5.0,47.5,76.22640625,32.89,1.75193825,33.65
2021-06-29 10:35:28.523437500,-43.75,5.0,47.25,76.227109375,35.17,1.752058375,33.65
2021-06-29 10:35:28.531250000,-44.0,5.0,47.0,76.2278125,37.45,1.7521784999999999,33.65
2021-06-29 10:35:28.539062500,-44.0,5.0,47.0,76.228515625,39.335,1.7522986249999999,33.65
2021-06-29 10:35:28.546875000,-44.0,5.0,47.0,76.22921875,41.22,1.75241875,33.65
2021-06-29 10:35:28.554687500,-44.0,5.0,47.0,76.229921875,42.61,1.752538875,33.65
2021-06-29 10:35:28.562500000,-44.0,5.0,47.0,76.230625,44.0,1.752659,33.65
2021-06-29 10:35:28.570312500,-44.0,5.0,47.0,76.231328125,44.879999999999995,1.752779125,33.65
2021-06-29 10:35:28.578125000,-44.0,5.0,47.0,76.23203125,45.76,1.75289925,33.65
2021-06-29 10:35:28.585937500,-44.0,5.0,47.0,76.232734375,46.135,1.753019375,33.65
2021-06-29 10:35:28.593750000,-44.0,5.0,47.0,76.2334375,46.51,1.7531395,33.65
2021-06-29 10:35:28.601562500,-43.75,5.0,47.25,76.234140625,46.37,1.7532596249999999,33.65
2021-06-29 10:35:28.609375000,-43.5,5.0,47.5,76.23484375,46.23,1.75337975,33.65
2021-06-29 10:35:28.617187500,-43.25,5.0,47.75,76.235546875,45.55,1.753499875,33.65
2021-06-29 10:35:28.625000000,-43.0,5.0,48.0,76.23625,44.87,1.75362,33.65
2021-06-29 10:35:28.632812500,-43.25,5.0,47.75,76.236953125,43.675,1.753740125,33.65
2021-06-29 10:35:28.640625000,-43.5,5.0,47.5,76.23765625,42.48,1.75386025,33.65
2021-06-29 10:35:28.648437500,-43.75,5.0,47.25,76.238359375,40.81,1.753980375,33.65
2021-06-29 10:35:28.656250000,-44.0,5.0,47.0,76.2390625,39.14,1.7541004999999998,33.65
2021-06-29 10:35:28.664062500,-44.0,5.0,47.0,76.239765625,37.085,1.7542206249999999,33.65
2021-06-29 10:35:28.671875000,-44.0,5.0,47.0,76.24046875,35.03,1.75434075,33.65
2021-06-29 10:35:28.679687500,-44.0,5.0,47.0,76.241171875,32.69,1.754460875,33.65
2021-06-29 10:35:28.687500000,-44.0,5.0,47.0,76.241875,30.35,1.754581,33.65
2021-06-29 10:35:28.695312500,-43.75,5.0,47.0,76.242578125,27.815,1.754701125,33.65
2021-06-29 10:35:28.703125000,-43.5,5.0,47.0,76.24328125,25.28,1.75482125,33.65
2021-06-29 10:35:28.710937500,-43.25,5.0,47.0,76.243984375,22.61,1.754941375,33.65
2021-06-29 10:35:28.718750000,-43.0,5.0,47.0,76.2446875,19.94,1.7550615,33.65
2021-06-29 10:35:28.726562500,-43.25,5.0,47.25,76.245390625,17.155,1.7551816249999999,33.65
2021-06-29 10:35:28.734375000,-43.5,5.0,47.5,76.24609375,14.37,1.7553017499999999,33.65
2021-06-29 10:35:28.742187500,-43.75,5.0,47.75,76.246796875,11.495,1.755421875,33.65
2021-06-29 10:35:28.750000000,-44.0,5.0,48.0,76.2475,8.62,1.755542,33.65
2021-06-29 10:35:28.757812500,-43.75,5.0,48.0,76.248203125,5.67,1.7556220624999999,33.65
2021-06-29 10:35:28.765625000,-43.5,5.0,48.0,76.24890625,2.72,1.755702125,33.65
2021-06-29 10:35:28.773437500,-43.25,5.0,48.0,76.24960937499999,-0.25,1.7557821875,33.65
2021-06-29 10:35:28.781250000,-43.0,5.0,48.0,76.25031249999999,-3.22,1.7558622499999998,33.65
2021-06-29 10:35:28.789062500,-43.25,5.0,48.0,76.251015625,-6.145,1.7559423125,33.65
2021-06-29 10:35:28.796875000,-43.5,5.0,48.0,76.25171875,-9.07,1.756022375,33.65
2021-06-29 10:35:28.804687500,-43.75,5.0,48.0,76.252421875,-11.850000000000001,1.7561024374999998,33.65
2021-06-29 10:35:28.812500000,-44.0,5.0,48.0,76.253125,-14.63,1.7561825,33.65
2021-06-29 10:35:28.820312500,-44.0,5.0,48.0,76.253828125,-17.205000000000002,1.7562625625,33.65
2021-06-29 10:35:28.828125000,-44.0,5.0,48.0,76.25453125,-19.78,1.7563426249999998,33.65
2021-06-29 10:35:28.835937500,-44.0,5.0,48.0,76.255234375,-22.12,1.7564226875,33.65
2021-06-29 10:35:28.843750000,-44.0,5.0,48.0,76.2559375,-24.46,1.75650275,33.65
2021-06-29 10:35:28.851562500,-44.0,5.0,47.75,76.256640625,-26.62,1.7565828124999998,33.65
2021-06-29 10:35:28.859375000,-44.0,5.0,47.5,76.25734375,-28.78,1.756662875,33.65
2021-06-29 10:35:28.867187500,-44.0,5.0,47.25,76.25804687499999,-30.900000000000002,1.7567429374999999,33.65
2021-06-29 10:35:28.875000000,-44.0,5.0,47.0,76.25874999999999,-33.02,1.7568229999999998,33.65
2021-06-29 10:35:28.882812500,-44.0,5.0,47.0,76.259453125,-35.33,1.7569030625,33.65
2021-06-29 10:35:28.890625000,-44.0,5.0,47.0,76.26015625,-37.64,1.7569831249999999,33.65
2021-06-29 10:35:28.898437500,-44.0,5.0,47.0,76.260859375,-40.43,1.7570631875,33.65
2021-06-29 10:35:28.906250000,-44.0,5.0,47.0,76.2615625,-43.22,1.75714325,33.65
2021-06-29 10:35:28.914062500,-44.0,4.75,47.0,76.262265625,-46.735,1.7572233124999999,33.65
2021-06-29 10:35:28.921875000,-44.0,4.5,47.0,76.26296875,-50.25,1.757303375,33.65
2021-06-29 10:35:28.929687500,-44.0,4.25,47.0,76.263671875,-54.535,1.7573834375,33.65
2021-06-29 10:35:28.937500000,-44.0,4.0,47.0,76.264375,-58.82,1.7574634999999998,33.65
2021-06-29 10:35:28.945312500,-43.75,4.25,47.25,76.265078125,-63.595,1.7575435625,33.65
2021-06-29 10:35:28.953125000,-43.5,4.5,47.5,76.26578125,-68.37,1.757623625,33.65
2021-06-29 10:35:28.960937500,-43.25,4.75,47.75,76.26648437499999,-72.935,1.7577036874999998,33.65
2021-06-29 10:35:28.968750000,-43.0,5.0,48.0,76.26718749999999,-77.5,1.75778375,33.65
2021-06-29 10:35:28.976562500,-43.25,5.0,47.75,76.26789062499999,-80.845,1.7578638125,33.65
2021-06-29 10:35:28.984375000,-43.5,5.0,47.5,76.26859375,-84.19,1.7579438749999998,33.65
2021-06-29 10:35:28.992187500,-43.75,5.0,47.25,76.269296875,-85.255,1.7580239375,33.65
2021-06-29 10:35:29.000000000,-44.0,5.0,47.0,76.27,-86.32,1.758104,33.65
2021-06-29 10:35:29.007812500,-44.0,5.0,47.0,76.27039062499999,-84.36,1.7580239375,33.65
2021-06-29 10:35:29.015625000,-44.0,5.0,47.0,76.27078125,-82.4,1.7579438749999998,33.65
2021-06-29 10:35:29.023437500,-44.0,5.0,47.0,76.271171875,-77.265,1.7578638125,33.65
2021-06-29 10:35:29.031250000,-44.0,5.0,47.0,76.2715625,-72.13,1.75778375,33.65
2021-06-29 10:35:29.039062500,-44.0,5.0,47.0,76.271953125,-64.365,1.7577036874999998,33.65
2021-06-29 10:35:29.046875000,-44.0,5.0,47.0,76.27234374999999,-56.6,1.757623625,33.65
2021-06-29 10:35:29.054687500,-44.0,5.0,47.0,76.272734375,-47.3,1.7575435625,33.65
2021-06-29 10:35:29.062500000,-44.0,5.0,47.0,76.273125,-38.0,1.7574634999999998,33.65
2021-06-29 10:35:29.070312500,-44.0,5.0,47.0,76.273515625,-28.475,1.7573834375,33.65
2021-06-29 10:35:29.078125000,-44.0,5.0,47.0,76.27390625,-18.95,1.757303375,33.65
2021-06-29 10:35:29.085937500,-44.0,5.0,47.0,76.27429687499999,-10.325,1.7572233124999999,33.65
2021-06-29 10:35:29.093750000,-44.0,5.0,47.0,76.2746875,-1.7,1.75714325,33.65
2021-06-29 10:35:29.101562500,-44.0,5.0,47.0,76.275078125,5.34,1.7570631875,33.65
2021-06-29 10:35:29.109375000,-44.0,5.0,47.0,76.27546875,12.38,1.7569831249999999,33.65
2021-06-29 10:35:29.117187500,-44.0,5.0,47.0,76.275859375,17.6,1.7569030625,33.65
2021-06-29 10:35:29.125000000,-44.0,5.0,47.0,76.27624999999999,22.82,1.7568229999999998,33.65
2021-06-29 10:35:29.132812500,-44.0,5.0,47.0,76.276640625,26.37,1.7567429374999999,33.65
2021-06-29 10:35:29.140625000,-44.0,5.0,47.0,76.27703125,29.92,1.756662875,33.65
2021-06-29 10:35:29.148437500,-44.0,5.0,47.0,76.277421875,32.095,1.7565828124999998,33.65
2021-06-29 10:35:29.156250000,-44.0,5.0,47.0,76.2778125,34.27,1.75650275,33.65
2021-06-29 10:35:29.164062500,-44.0,4.75,47.0,76.27820312499999,35.385000000000005,1.7564226875,33.65
2021-06-29 10:35:29.171875000,-44.0,4.5,47.0,76.27859375,36.5,1.7563426249999998,33.65
2021-06-29 10:35:29.179687500,-44.0,4.25,47.0,76.278984375,36.8,1.7562625625,33.65
2021-06-29 10:35:29.187500000,-44.0,4.0,47.0,76.279375,37.1,1.7561825,33.65
2021-06-29 10:35:29.195312500,-44.0,4.25,47.0,76.279765625,36.815,1.7561024374999998,33.65
2021-06-29 10:35:29.203125000,-44.0,4.5,47.0,76.28015624999999,36.53,1.756022375,33.65
2021-06-29 10:35:29.210937500,-44.0,4.75,47.0,76.280546875,35.93,1.7559423125,33.65
2021-06-29 10:35:29.218750000,-44.0,5.0,47.0,76.2809375,35.33,1.7558622499999998,33.65
2021-06-29 10:35:29.226562500,-44.0,5.0,47.0,76.281328125,34.730000000000004,1.7557821875,33.65
2021-06-29 10:35:29.234375000,-44.0,5.0,47.0,76.28171875,34.13,1.755702125,33.65
2021-06-29 10:35:29.242187500,-44.0,5.0,47.0,76.28210937499999,33.875,1.7556220624999999,33.65
2021-06-29 10:35:29.250000000,-44.0,5.0,47.0,76.2825,33.62,1.755542,33.65
2021-06-29 10:35:29.257812500,-44.25,5.0,47.0,76.282890625,33.974999999999994,1.7555019374999998,33.65
2021-06-29 10:35:29.265625000,-44.5,5.0,47.0,76.28328125,34.33,1.755461875,33.65
2021-06-29 10:35:29.273437500,-44.75,5.0,47.0,76.283671875,35.394999999999996,1.7554218124999998,33.65
2021-06-29 10:35:29.281250000,-45.0,5.0,47.0,76.28406249999999,36.46,1.75538175,33.65
2021-06-29 10:35:29.289062500,-44.75,4.75,47.0,76.284453125,38.135000000000005,1.7553416874999999,33.65
2021-06-29 10:35:29.296875000,-44.5,4.5,47.0,76.28484375,39.81,1.755301625,33.65
2021-06-29 10:35:29.304687500,-44.25,4.25,47.0,76.285234375,41.835,1.7552615624999999,33.65
2021-06-29 10:35:29.312500000,-44.0,4.0,47.0,76.285625,43.86,1.7552215,33.65
2021-06-29 10:35:29.320312500,-44.0,4.25,47.0,76.28601562499999,45.89,1.7551814374999999,33.65
2021-06-29 10:35:29.328125000,-44.0,4.5,47.0,76.28640625,47.92,1.755141375,33.65
2021-06-29 10:35:29.335937500,-44.0,4.75,47.0,76.286796875,49.665,1.7551013125,33.65
2021-06-29 10:35:29.343750000,-44.0,5.0,47.0,76.2871875,51.41,1.75506125,33.65
2021-06-29 10:35:29.351562500,-44.0,5.0,47.0,76.287578125,52.675,1.7550211875,33.65
2021-06-29 10:35:29.359375000,-44.0,5.0,47.0,76.28796874999999,53.94,1.754981125,33.65
2021-06-29 10:35:29.367187500,-44.0,5.0,47.0,76.288359375,54.629999999999995,1.7549410625,33.65
2021-06-29 10:35:29.375000000,-44.0,5.0,47.0,76.28875,55.32,1.7549009999999998,33.65
2021-06-29 10:35:29.382812500,-44.0,4.75,47.0,76.289140625,55.4,1.7548609375,33.65
2021-06-29 10:35:29.390625000,-44.0,4.5,47.0,76.28953125,55.48,1.7548208749999998,33.65
2021-06-29 10:35:29.398437500,-44.0,4.25,47.0,76.28992187499999,54.915,1.7547808125,33.65
2021-06-29 10:35:29.406250000,-44.0,4.0,47.0,76.2903125,54.35,1.7547407499999998,33.65
2021-06-29 10:35:29.414062500,-44.0,4.25,47.0,76.290703125,53.11,1.7547006875,33.65
2021-06-29 10:35:29.421875000,-44.0,4.5,47.0,76.29109375,51.87,1.7546606249999999,33.65
2021-06-29 10:35:29.429687500,-44.0,4.75,47.0,76.291484375,49.980000000000004,1.7546205625,33.65
2021-06-29 10:35:29.437500000,-44.0,5.0,47.0,76.29187499999999,48.09,1.7545804999999999,33.65
2021-06-29 10:35:29.445312500,-44.0,5.0,47.0,76.292265625,45.635000000000005,1.7545404375,33.65
2021-06-29 10:35:29.453125000,-44.0,5.0,47.0,76.29265625,43.18,1.754500375,33.65
2021-06-29 10:35:29.460937500,-44.0,5.0,47.0,76.293046875,40.364999999999995,1.7544603125,33.65
2021-06-29 10:35:29.468750000,-44.0,5.0,47.0,76.2934375,37.55,1.75442025,33.65
2021-06-29 10:35:29.476562500,-44.0,5.0,47.0,76.29382812499999,34.629999999999995,1.7543801875,33.65
2021-06-29 10:35:29.484375000,-44.0,5.0,47.0,76.29421875,31.71,1.754340125,33.65
2021-06-29 10:35:29.492187500,-44.0,5.0,47.0,76.294609375,28.884999999999998,1.7543000625,33.65
2021-06-29 10:35:29.500000000,-44.0,5.0,47.0,76.29499999999999,26.06,1.75426,33.65
2021-06-29 10:35:29.507812500,-44.0,5.0,47.0,76.295390625,23.424999999999997,1.75426,33.65
2021-06-29 10:35:29.515625000,-44.0,5.0,47.0,76.29578124999999,20.79,1.75426,33.65
2021-06-29 10:35:29.523437500,-44.0,5.0,47.0,76.296171875,18.305,1.75426,33.65
2021-06-29 10:35:29.531250000,-44.0,5.0,47.0,76.2965625,15.82,1.75426,33.65
2021-06-29 10:35:29.539062500,-44.0,5.0,47.0,76.29695312499999,13.365,1.75426,33.65
2021-06-29 10:35:29.546875000,-44.0,5.0,47.0,76.29734375,10.91,1.75426,33.65
2021-06-29 10:35:29.554687500,-44.0,5.0,47.0,76.29773437499999,8.36,1.75426,33.65
2021-06-29 10:35:29.562500000,-44.0,5.0,47.0,76.298125,5.81,1.75426,33.65
2021-06-29 10:35:29.570312500,-44.0,4.75,47.0,76.298515625,3.15,1.75426,33.65
2021-06-29 10:35:29.578125000,-44.0,4.5,47.0,76.29890624999999,0.49,1.75426,33.65
2021-06-29 10:35:29.585937500,-44.0,4.25,47.0,76.299296875,-2.21,1.75426,33.65
2021-06-29 10:35:29.593750000,-44.0,4.0,47.0,76.29968749999999,-4.91,1.75426,33.65
2021-06-29 10:35:29.601562500,-44.0,4.25,47.0,76.300078125,-7.505,1.75426,33.65
2021-06-29 10:35:29.609375000,-44.0,4.5,47.0,76.30046875,-10.1,1.75426,33.65
2021-06-29 10:35:29.617187500,-44.0,4.75,47.0,76.30085937499999,-12.485,1.75426,33.65
2021-06-29 10:35:29.625000000,-44.0,5.0,47.0,76.30125,-14.87,1.75426,33.65
2021-06-29 10:35:29.632812500,-44.0,5.0,47.0,76.30164062499999,-17.03,1.75426,33.65
2021-06-29 10:35:29.640625000,-44.0,5.0,47.0,76.30203125,-19.19,1.75426,33.65
2021-06-29 10:35:29.648437500,-44.0,5.0,47.0,76.302421875,-21.23,1.75426,33.65
2021-06-29 10:35:29.656250000,-44.0,5.0,47.0,76.30281249999999,-23.27,1.75426,33.65
2021-06-29 10:35:29.664062500,-44.0,5.0,47.0,76.303203125,-25.43,1.75426,33.65
2021-06-29 10:35:29.671875000,-44.0,5.0,47.0,76.30359374999999,-27.59,1.75426,33.65
2021-06-29 10:35:29.679687500,-44.0,5.0,47.0,76.303984375,-30.159999999999997,1.75426,33.65
2021-06-29 10:35:29.687500000,-44.0,5.0,47.0,76.304375,-32.73,1.75426,33.65
2021-06-29 10:35:29.695312500,-44.0,5.0,47.0,76.30476562499999,-35.98,1.75426,33.65
2021-06-29 10:35:29.703125000,-44.0,5.0,47.0,76.30515625,-39.23,1.75426,33.65
2021-06-29 10:35:29.710937500,-44.0,5.0,47.0,76.30554687499999,-43.235,1.75426,33.65
2021-06-29 10:35:29.718750000,-44.0,5.0,47.0,76.3059375,-47.24,1.75426,33.65
2021-06-29 10:35:29.726562500,-44.0,5.0,47.0,76.306328125,-51.78,1.75426,33.65
2021-06-29 10:35:29.734375000,-44.0,5.0,47.0,76.30671874999999,-56.32,1.75426,33.65
2021-06-29 10:35:29.742187500,-44.0,5.0,47.0,76.307109375,-60.795,1.75426,33.65
2021-06-29 10:35:29.750000000,-44.0,5.0,47.0,76.30749999999999,-65.27,1.75426,33.65
2021-06-29 10:35:29.757812500,-44.0,5.0,47.0,76.307890625,-68.78999999999999,1.754380125,33.65
2021-06-29 10:35:29.765625000,-44.0,5.0,47.0,76.30828125,-72.31,1.75450025,33.65
2021-06-29 10:35:29.773437500,-44.0,5.0,47.0,76.30867187499999,-73.905,1.754620375,33.65
2021-06-29 10:35:29.781250000,-44.0,5.0,47.0,76.3090625,-75.5,1.7547405,33.65
2021-06-29 10:35:29.789062500,-44.0,4.75,47.0,76.30945312499999,-74.435,1.7548606249999998,33.65
2021-06-29 10:35:29.796875000,-44.0,4.5,47.0,76.30984375,-73.37,1.7549807499999999,33.65
2021-06-29 10:35:29.804687500,-44.0,4.25,47.0,76.310234375,-69.42,1.755100875,33.65
2021-06-29 10:35:29.812500000,-44.0,4.0,47.0,76.31062499999999,-65.47,1.755221,33.65
2021-06-29 10:35:29.820312500,-44.0,4.25,47.0,76.311015625,-59.019999999999996,1.755341125,33.65
2021-06-29 10:35:29.828125000,-44.0,4.5,47.0,76.31140624999999,-52.57,1.75546125,33.65
2021-06-29 10:35:29.835937500,-44.0,4.75,47.0,76.311796875,-44.495000000000005,1.755581375,33.65
2021-06-29 10:35:29.843750000,-44.0,5.0,47.0,76.3121875,-36.42,1.7557014999999998,33.65
2021-06-29 10:35:29.851562500,-44.0,4.75,47.0,76.31257812499999,-27.82,1.7558216249999998,33.65
2021-06-29 10:35:29.859375000,-44.0,4.5,47.0,76.31296875,-19.22,1.7559417499999999,33.65
2021-06-29 10:35:29.867187500,-44.0,4.25,47.0,76.31335937499999,-11.084999999999999,1.7560618749999999,33.65
2021-06-29 10:35:29.875000000,-44.0,4.0,47.0,76.31375,-2.95,1.756182,33.65
2021-06-29 10:35:29.882812500,-44.0,4.25,47.0,76.314140625,4.0200000000000005,1.756302125,33.65
2021-06-29 10:35:29.890625000,-44.0,4.5,47.0,76.31453124999999,10.99,1.75642225,33.65
2021-06-29 10:35:29.898437500,-44.0,4.75,47.0,76.314921875,16.455000000000002,1.756542375,33.65
2021-06-29 10:35:29.906250000,-44.0,5.0,47.0,76.31531249999999,21.92,1.7566625,33.65
2021-06-29 10:35:29.914062500,-44.0,5.0,47.0,76.315703125,25.76,1.7567826249999998,33.65
2021-06-29 10:35:29.921875000,-44.0,5.0,47.0,76.31609375,29.6,1.7569027499999998,33.65
2021-06-29 10:35:29.929687500,-44.0,5.0,47.0,76.31648437499999,31.84,1.7570228749999999,33.65
2021-06-29 10:35:29.937500000,-44.0,5.0,47.0,76.316875,34.08,1.757143,33.65
2021-06-29 10:35:29.945312500,-44.0,5.0,47.0,76.31726562499999,34.775,1.757263125,33.65
2021-06-29 10:35:29.953125000,-44.0,5.0,47.0,76.31765625,35.47,1.75738325,33.65
2021-06-29 10:35:29.960937500,-44.0,5.0,47.0,76.318046875,34.75,1.757503375,33.65
2021-06-29 10:35:29.968750000,-44.0,5.0,47.0,76.31843749999999,34.03,1.7576234999999998,33.65
2021-06-29 10:35:29.976562500,-44.0,4.75,47.0,76.318828125,32.165,1.7577436249999998,33.65
2021-06-29 10:35:29.984375000,-44.0,4.5,47.0,76.31921874999999,30.3,1.7578637499999998,33.65
2021-06-29 10:35:29.992187500,-44.0,4.25,47.0,76.319609375,27.745,1.7579838749999999,33.65
2021-06-29 10:35:30.000000000,-44.0,4.0,47.0,76.32,25.19,1.758104,33.65
2021-06-29 10:35:30.007812500,-44.0,4.25,47.0,76.32039062499999,22.54,1.75806396875,33.6503125
2021-06-29 10:35:30.015625000,-44.0,4.5,47.0,76.32078125,19.89,1.7580239375,33.650625
2021-06-29 10:35:30.023437500,-44.0,4.75,47.0,76.32117187499999,17.77,1.75798390625,33.6509375
2021-06-29 10:35:30.031250000,-44.0,5.0,47.0,76.3215625,15.65,1.7579438749999998,33.65125
2021-06-29 10:35:30.039062500,-44.0,4.75,47.0,76.321953125,14.52,1.7579038437499999,33.6515625
2021-06-29 10:35:30.046875000,-44.0,4.5,47.0,76.32234374999999,13.39,1.7578638125,33.651875
2021-06-29 10:35:30.054687500,-44.0,4.25,47.0,76.322734375,13.435,1.75782378125,33.6521875
2021-06-29 10:35:30.062500000,-44.0,4.0,47.0,76.32312499999999,13.48,1.75778375,33.652499999999996
2021-06-29 10:35:30.070312500,-44.0,4.0,47.0,76.323515625,14.54,1.75774371875,33.652812499999996
2021-06-29 10:35:30.078125000,-44.0,4.0,47.0,76.32390625,15.6,1.7577036874999998,33.653124999999996
2021-06-29 10:35:30.085937500,-44.0,4.0,47.0,76.32429687499999,17.26,1.7576636562499999,33.653437499999995
2021-06-29 10:35:30.093750000,-44.0,4.0,47.0,76.3246875,18.92,1.757623625,33.653749999999995
2021-06-29 10:35:30.101562500,-44.0,4.25,47.0,76.32507812499999,20.675,1.75758359375,33.654062499999995
2021-06-29 10:35:30.109375000,-44.0,4.5,47.0,76.32546875,22.43,1.7575435625,33.654374999999995
2021-06-29 10:35:30.117187500,-44.0,4.75,47.0,76.325859375,23.88,1.75750353125,33.654687499999994
2021-06-29 10:35:30.125000000,-44.0,5.0,47.0,76.32624999999999,25.33,1.7574635,33.655
2021-06-29 10:35:30.132812500,-44.0,5.0,47.0,76.326640625,26.259999999999998,1.7574234687499999,33.6553125
2021-06-29 10:35:30.140625000,-44.0,5.0,47.0,76.32703124999999,27.19,1.7573834375,33.655625
2021-06-29 10:35:30.148437500,-44.0,5.0,47.0,76.327421875,27.61,1.75734340625,33.6559375
2021-06-29 10:35:30.156250000,-44.0,5.0,47.0,76.3278125,28.03,1.757303375,33.65625
2021-06-29 10:35:30.164062500,-44.0,4.75,47.0,76.328203125,28.03,1.75726334375,33.6565625
2021-06-29 10:35:30.171875000,-44.0,4.5,47.0,76.32859375,28.03,1.7572233125,33.656875
2021-06-29 10:35:30.179687500,-44.0,4.25,47.0,76.32898437499999,27.68,1.75718328125,33.6571875
2021-06-29 10:35:30.187500000,-44.0,4.0,47.0,76.329375,27.33,1.75714325,33.6575
2021-06-29 10:35:30.195312500,-44.0,4.25,47.0,76.329765625,26.585,1.75710321875,33.6578125
2021-06-29 10:35:30.203125000,-44.0,4.5,47.0,76.33015625,25.84,1.7570631875,33.658125
2021-06-29 10:35:30.210937500,-44.0,4.75,47.0,76.330546875,24.560000000000002,1.75702315625,33.6584375
2021-06-29 10:35:30.218750000,-44.0,5.0,47.0,76.33093749999999,23.28,1.756983125,33.65875
2021-06-29 10:35:30.226562500,-44.0,5.0,47.0,76.331328125,21.33,1.75694309375,33.6590625
2021-06-29 10:35:30.234375000,-44.0,5.0,47.0,76.33171875,19.38,1.7569030625,33.659375
2021-06-29 10:35:30.242187500,-44.0,5.0,47.0,76.332109375,16.735,1.75686303125,33.6596875
2021-06-29 10:35:30.250000000,-44.0,5.0,47.0,76.3325,14.09,1.756823,33.66
2021-06-29 10:35:30.257812500,-44.0,4.75,47.0,76.33289062499999,10.905,1.756823,33.66
2021-06-29 10:35:30.265625000,-44.0,4.5,47.0,76.33328125,7.72,1.756823,33.66
2021-06-29 10:35:30.273437500,-44.0,4.25,47.0,76.333671875,4.3100000000000005,1.756823,33.66
2021-06-29 10:35:30.281250000,-44.0,4.0,47.0,76.3340625,0.9,1.756823,33.66
2021-06-29 10:35:30.289062500,-44.0,4.25,47.0,76.334453125,-2.3800000000000003,1.756823,33.66
2021-06-29 10:35:30.296875000,-44.0,4.5,47.0,76.33484374999999,-5.66,1.756823,33.66
2021-06-29 10:35:30.304687500,-44.0,4.75,47.0,76.335234375,-8.530000000000001,1.756823,33.66
2021-06-29 10:35:30.312500000,-44.0,5.0,47.0,76.335625,-11.4,1.756823,33.66
2021-06-29 10:35:30.320312500,-44.0,5.0,47.0,76.336015625,-13.760000000000002,1.756823,33.66
2021-06-29 10:35:30.328125000,-44.0,5.0,47.0,76.33640625,-16.12,1.756823,33.66
2021-06-29 10:35:30.335937500,-44.0,5.0,47.0,76.33679687499999,-18.065,1.756823,33.66
2021-06-29 10:35:30.343750000,-44.0,5.0,47.0,76.3371875,-20.01,1.756823,33.66
2021-06-29 10:35:30.351562500,-44.0,4.75,47.0,76.337578125,-21.79,1.756823,33.66
2021-06-29 10:35:30.359375000,-44.0,4.5,47.0,76.33796875,-23.57,1.756823,33.66
2021-06-29 10:35:30.367187500,-44.0,4.25,47.0,76.338359375,-25.505000000000003,1.756823,33.66
2021-06-29 10:35:30.375000000,-44.0,4.0,47.0,76.33875,-27.44,1.756823,33.66
2021-06-29 10:35:30.382812500,-44.0,4.25,47.0,76.339140625,-29.799999999999997,1.756823,33.66
2021-06-29 10:35:30.390625000,-44.0,4.5,47.0,76.33953125,-32.16,1.756823,33.66
2021-06-29 10:35:30.398437500,-44.0,4.75,47.0,76.339921875,-35.105,1.756823,33.66
2021-06-29 10:35:30.406250000,-44.0,5.0,47.0,76.3403125,-38.05,1.756823,33.66
2021-06-29 10:35:30.414062500,-44.0,4.75,47.0,76.340703125,-41.555,1.756823,33.66
2021-06-29 10:35:30.421875000,-44.0,4.5,47.0,76.34109375,-45.06,1.756823,33.66
2021-06-29 10:35:30.429687500,-44.0,4.25,47.0,76.341484375,-48.885000000000005,1.756823,33.66
2021-06-29 10:35:30.437500000,-44.0,4.0,47.0,76.341875,-52.71,1.756823,33.66
2021-06-29 10:35:30.445312500,-44.0,4.25,47.0,76.342265625,-56.379999999999995,1.756823,33.66
2021-06-29 10:35:30.453125000,-44.0,4.5,47.0,76.34265625,-60.05,1.756823,33.66
2021-06-29 10:35:30.460937500,-44.0,4.75,47.0,76.343046875,-62.925,1.756823,33.66
2021-06-29 10:35:30.468750000,-44.0,5.0,47.0,76.3434375,-65.8,1.756823,33.66
2021-06-29 10:35:30.476562500,-44.0,5.0,47.0,76.343828125,-67.175,1.756823,33.66
2021-06-29 10:35:30.484375000,-44.0,5.0,47.0,76.34421875,-68.55,1.756823,33.66
2021-06-29 10:35:30.492187500,-44.0,5.0,47.0,76.344609375,-67.84,1.756823,33.66
2021-06-29 10:35:30.500000000,-44.0,5.0,47.0,76.345,-67.13,1.756823,33.66
2021-06-29 10:35:30.507812500,-44.0,5.0,47.0,76.345390625,-64.05499999999999,1.7569030625,33.66
2021-06-29 10:35:30.515625000,-44.0,5.0,47.0,76.34578125,-60.98,1.756983125,33.66
2021-06-29 10:35:30.523437500,-44.0,5.0,47.0,76.346171875,-55.665,1.7570631875,33.66
2021-06-29 10:35:30.531250000,-44.0,5.0,47.0,76.3465625,-50.35,1.75714325,33.66
2021-06-29 10:35:30.539062500,-44.0,5.0,47.0,76.346953125,-43.34,1.7572233125,33.66
2021-06-29 10:35:30.546875000,-44.0,5.0,47.0,76.34734375,-36.33,1.757303375,33.66
2021-06-29 10:35:30.554687500,-44.0,5.0,47.0,76.347734375,-28.43,1.7573834375,33.66
2021-06-29 10:35:30.562500000,-44.0,5.0,47.0,76.348125,-20.53,1.7574635,33.66
2021-06-29 10:35:30.570312500,-44.0,5.0,47.0,76.348515625,-12.645,1.7575435625,33.66
2021-06-29 10:35:30.578125000,-44.0,5.0,47.0,76.34890625,-4.76,1.757623625,33.66
2021-06-29 10:35:30.585937500,-44.0,5.0,47.0,76.349296875,2.3449999999999998,1.7577036875,33.66
2021-06-29 10:35:30.593750000,-44.0,5.0,47.0,76.3496875,9.45,1.75778375,33.66
2021-06-29 10:35:30.601562500,-44.0,4.75,47.0,76.350078125,15.245,1.7578638125,33.66
2021-06-29 10:35:30.609375000,-44.0,4.5,47.0,76.35046875,21.04,1.757943875,33.66
2021-06-29 10:35:30.617187500,-44.0,4.25,47.0,76.350859375,25.215,1.7580239375,33.66
2021-06-29 10:35:30.625000000,-44.0,4.0,47.0,76.35125,29.39,1.758104,33.66
2021-06-29 10:35:30.632812500,-44.0,4.0,47.0,76.351640625,31.815,1.7581840625,33.66
2021-06-29 10:35:30.640625000,-44.0,4.0,47.0,76.35203125,34.24,1.758264125,33.66
2021-06-29 10:35:30.648437500,-44.0,4.0,47.0,76.352421875,34.92,1.7583441875,33.66
2021-06-29 10:35:30.656250000,-44.0,4.0,47.0,76.3528125,35.6,1.75842425,33.66
2021-06-29 10:35:30.664062500,-44.0,4.0,47.0,76.35320312500001,34.655,1.7585043125,33.66
2021-06-29 10:35:30.671875000,-44.0,4.0,47.0,76.35359375,33.71,1.758584375,33.66
2021-06-29 10:35:30.679687500,-44.0,4.0,47.0,76.353984375,31.44,1.7586644375,33.66
2021-06-29 10:35:30.687500000,-44.0,4.0,47.0,76.354375,29.17,1.7587445,33.66
2021-06-29 10:35:30.695312500,-44.0,4.25,47.25,76.354765625,26.095,1.7588245625,33.66
2021-06-29 10:35:30.703125000,-44.0,4.5,47.5,76.35515625000001,23.02,1.758904625,33.66
2021-06-29 10:35:30.710937500,-44.0,4.75,47.75,76.355546875,19.810000000000002,1.7589846875,33.66
2021-06-29 10:35:30.718750000,-44.0,5.0,48.0,76.3559375,16.6,1.75906475,33.66
2021-06-29 10:35:30.726562500,-44.0,5.0,48.0,76.356328125,13.950000000000001,1.7591448125,33.66
2021-06-29 10:35:30.734375000,-44.0,5.0,48.0,76.35671875,11.3,1.759224875,33.66
2021-06-29 10:35:30.742187500,-44.0,5.0,48.0,76.35710937500001,9.725000000000001,1.7593049375,33.66
2021-06-29 10:35:30.750000000,-44.0,5.0,48.0,76.3575,8.15,1.759385,33.66
2021-06-29 10:35:30.757812500,-44.0,5.0,47.75,76.357890625,7.835,1.759385,33.66
2021-06-29 10:35:30.765625000,-44.0,5.0,47.5,76.35828125,7.52,1.759385,33.66
2021-06-29 10:35:30.773437500,-44.0,5.0,47.25,76.358671875,8.305,1.759385,33.66
2021-06-29 10:35:30.781250000,-44.0,5.0,47.0,76.35906250000001,9.09,1.759385,33.66
2021-06-29 10:35:30.789062500,-44.0,4.75,47.25,76.359453125,10.575,1.759385,33.66
2021-06-29 10:35:30.796875000,-44.0,4.5,47.5,76.35984375,12.06,1.759385,33.66
2021-06-29 10:35:30.804687500,-44.0,4.25,47.75,76.360234375,13.79,1.759385,33.66
2021-06-29 10:35:30.812500000,-44.0,4.0,48.0,76.360625,15.52,1.759385,33.66
2021-06-29 10:35:30.820312500,-44.0,4.25,47.75,76.36101562500001,17.145,1.759385,33.66
2021-06-29 10:35:30.828125000,-44.0,4.5,47.5,76.36140625,18.77,1.759385,33.66
2021-06-29 10:35:30.835937500,-44.0,4.75,47.25,76.361796875,20.115000000000002,1.759385,33.66
2021-06-29 10:35:30.843750000,-44.0,5.0,47.0,76.3621875,21.46,1.759385,33.66
2021-06-29 10:35:30.851562500,-44.0,4.75,47.0,76.362578125,22.435000000000002,1.759385,33.66
2021-06-29 10:35:30.859375000,-44.0,4.5,47.0,76.36296875000001,23.41,1.759385,33.66
2021-06-29 10:35:30.867187500,-44.0,4.25,47.0,76.363359375,23.925,1.759385,33.66
2021-06-29 10:35:30.875000000,-44.0,4.0,47.0,76.36375000000001,24.44,1.759385,33.66
2021-06-29 10:35:30.882812500,-44.0,4.0,47.0,76.364140625,24.28,1.759385,33.66
2021-06-29 10:35:30.890625000,-44.0,4.0,47.0,76.36453125,24.12,1.759385,33.66
2021-06-29 10:35:30.898437500,-44.0,4.0,47.0,76.36492187500001,23.015,1.759385,33.66
2021-06-29 10:35:30.906250000,-44.0,4.0,47.0,76.3653125,21.91,1.759385,33.66
2021-06-29 10:35:30.914062500,-43.75,4.25,47.25,76.36570312500001,19.66,1.759385,33.66
2021-06-29 10:35:30.921875000,-43.5,4.5,47.5,76.36609375,17.41,1.759385,33.66
2021-06-29 10:35:30.929687500,-43.25,4.75,47.75,76.366484375,14.025,1.759385,33.66
2021-06-29 10:35:30.937500000,-43.0,5.0,48.0,76.36687500000001,10.64,1.759385,33.66
2021-06-29 10:35:30.945312500,-43.0,5.0,48.0,76.367265625,6.42,1.759385,33.66
2021-06-29 10:35:30.953125000,-43.0,5.0,48.0,76.36765625000001,2.2,1.759385,33.66
2021-06-29 10:35:30.960937500,-43.0,5.0,48.0,76.368046875,-2.3199999999999994,1.759385,33.66
2021-06-29 10:35:30.968750000,-43.0,5.0,48.0,76.3684375,-6.84,1.759385,33.66
2021-06-29 10:35:30.976562500,-43.25,4.75,47.75,76.36882812500001,-11.075,1.759385,33.66
2021-06-29 10:35:30.984375000,-43.5,4.5,47.5,76.36921875,-15.31,1.759385,33.66
2021-06-29 10:35:30.992187500,-43.75,4.25,47.25,76.36960937500001,-18.815,1.759385,33.66
2021-06-29 10:35:31.000000000,-44.0,4.0,47.0,76.37,-22.32,1.759385,33.66
2021-06-29 10:35:31.007812500,-43.75,4.25,47.25,76.370390625,-24.97,1.7592649062499999,33.66
2021-06-29 10:35:31.015625000,-43.5,4.5,47.5,76.37078125000001,-27.62,1.7591448125,33.66
2021-06-29 10:35:31.023437500,-43.25,4.75,47.75,76.371171875,-29.615000000000002,1.7590247187499999,33.66
2021-06-29 10:35:31.031250000,-43.0,5.0,48.0,76.37156250000001,-31.61,1.758904625,33.66
2021-06-29 10:35:31.039062500,-43.25,5.0,48.0,76.371953125,-33.394999999999996,1.75878453125,33.66
2021-06-29 10:35:31.046875000,-43.5,5.0,48.0,76.37234375,-35.18,1.7586644375,33.66
2021-06-29 10:35:31.054687500,-43.75,5.0,48.0,76.37273437500001,-37.285,1.75854434375,33.66
2021-06-29 10:35:31.062500000,-44.0,5.0,48.0,76.373125,-39.39,1.75842425,33.66
2021-06-29 10:35:31.070312500,-43.75,5.0,47.75,76.37351562500001,-42.235,1.75830415625,33.66
2021-06-29 10:35:31.078125000,-43.5,5.0,47.5,76.37390625,-45.08,1.7581840625,33.66
2021-06-29 10:35:31.085937500,-43.25,5.0,47.25,76.374296875,-48.795,1.75806396875,33.66
2021-06-29 10:35:31.093750000,-43.0,5.0,47.0,76.37468750000001,-52.51,1.757943875,33.66
2021-06-29 10:35:31.101562500,-43.0,5.0,47.25,76.375078125,-56.84,1.75782378125,33.66
2021-06-29 10:35:31.109375000,-43.0,5.0,47.5,76.37546875000001,-61.17,1.7577036875,33.66
2021-06-29 10:35:31.117187500,-43.0,5.0,47.75,76.375859375,-65.455,1.75758359375,33.66
2021-06-29 10:35:31.125000000,-43.0,5.0,48.0,76.37625,-69.74,1.7574635,33.66
2021-06-29 10:35:31.132812500,-43.25,5.0,47.75,76.37664062500001,-73.03999999999999,1.75734340625,33.66
2021-06-29 10:35:31.140625000,-43.5,5.0,47.5,76.37703125,-76.34,1.7572233124999999,33.66
2021-06-29 10:35:31.148437500,-43.75,5.0,47.25,76.37742187500001,-77.67,1.75710321875,33.66
2021-06-29 10:35:31.156250000,-44.0,5.0,47.0,76.3778125,-79.0,1.7569831249999999,33.66
2021-06-29 10:35:31.164062500,-43.75,5.0,47.25,76.378203125,-77.63499999999999,1.75686303125,33.66
2021-06-29 10:35:31.171875000,-43.5,5.0,47.5,76.37859375000001,-76.27,1.7567429374999999,33.66
2021-06-29 10:35:31.179687500,-43.25,5.0,47.75,76.378984375,-71.96000000000001,1.75662284375,33.66
2021-06-29 10:35:31.187500000,-43.0,5.0,48.0,76.37937500000001,-67.65,1.75650275,33.66
2021-06-29 10:35:31.195312500,-43.0,5.0,48.0,76.379765625,-60.725,1.75638265625,33.66
2021-06-29 10:35:31.203125000,-43.0,5.0,48.0,76.38015625,-53.8,1.7562625625,33.66
2021-06-29 10:35:31.210937500,-43.0,5.0,48.0,76.38054687500001,-45.099999999999994,1.75614246875,33.66
2021-06-29 10:35:31.218750000,-43.0,5.0,48.0,76.3809375,-36.4,1.756022375,33.66
2021-06-29 10:35:31.226562500,-43.0,5.0,47.75,76.38132812500001,-27.005,1.75590228125,33.66
2021-06-29 10:35:31.234375000,-43.0,5.0,47.5,76.38171875,-17.61,1.7557821875,33.66
2021-06-29 10:35:31.242187500,-43.0,5.0,47.25,76.382109375,-8.594999999999999,1.75566209375,33.66
2021-06-29 10:35:31.250000000,-43.0,5.0,47.0,76.38250000000001,0.42,1.755542,33.66
2021-06-29 10:35:31.257812500,-43.0,5.0,47.25,76.382890625,8.22,1.75566209375,33.66
2021-06-29 10:35:31.265625000,-43.0,5.0,47.5,76.38328125000001,16.02,1.7557821875,33.66
2021-06-29 10:35:31.273437500,-43.0,5.0,47.75,76.383671875,22.11,1.75590228125,33.66
2021-06-29 10:35:31.281250000,-43.0,5.0,48.0,76.3840625,28.2,1.756022375,33.66
2021-06-29 10:35:31.289062500,-43.0,5.0,48.0,76.38445312500001,32.415,1.75614246875,33.66
2021-06-29 10:35:31.296875000,-43.0,5.0,48.0,76.38484375,36.63,1.7562625625,33.66
2021-06-29 10:35:31.304687500,-43.0,5.0,48.0,76.38523437500001,39.015,1.75638265625,33.66
2021-06-29 10:35:31.312500000,-43.0,5.0,48.0,76.385625,41.4,1.75650275,33.66
2021-06-29 10:35:31.320312500,-43.25,5.0,47.75,76.386015625,42.14,1.75662284375,33.66
2021-06-29 10:35:31.328125000,-43.5,5.0,47.5,76.38640625000001,42.88,1.7567429374999999,33.66
2021-06-29 10:35:31.335937500,-43.75,5.0,47.25,76.386796875,42.25,1.75686303125,33.66
2021-06-29 10:35:31.343750000,-44.0,5.0,47.0,76.38718750000001,41.62,1.7569831249999999,33.66
2021-06-29 10:35:31.351562500,-44.0,5.0,47.25,76.387578125,40.004999999999995,1.75710321875,33.66
2021-06-29 10:35:31.359375000,-44.0,5.0,47.5,76.38796875,38.39,1.7572233124999999,33.66
2021-06-29 10:35:31.367187500,-44.0,5.0,47.75,76.38835937500001,36.260000000000005,1.75734340625,33.66
2021-06-29 10:35:31.375000000,-44.0,5.0,48.0,76.38875,34.13,1.7574635,33.66
2021-06-29 10:35:31.382812500,-44.0,5.0,48.0,76.38914062500001,32.015,1.75758359375,33.66
2021-06-29 10:35:31.390625000,-44.0,5.0,48.0,76.38953125,29.9,1.7577036875,33.66
2021-06-29 10:35:31.398437500,-44.0,5.0,48.0,76.389921875,28.305,1.75782378125,33.66
2021-06-29 10:35:31.406250000,-44.0,5.0,48.0,76.39031250000001,26.71,1.757943875,33.66
2021-06-29 10:35:31.414062500,-44.0,5.0,48.0,76.390703125,25.945,1.75806396875,33.66
2021-06-29 10:35:31.421875000,-44.0,5.0,48.0,76.39109375000001,25.18,1.7581840625,33.66
2021-06-29 10:35:31.429687500,-44.0,5.0,48.0,76.391484375,25.325,1.75830415625,33.66
2021-06-29 10:35:31.437500000,-44.0,5.0,48.0,76.391875,25.47,1.75842425,33.66
2021-06-29 10:35:31.445312500,-44.0,5.0,47.75,76.39226562500001,26.314999999999998,1.75854434375,33.66
2021-06-29 10:35:31.453125000,-44.0,5.0,47.5,76.39265625,27.16,1.7586644375,33.66
2021-06-29 10:35:31.460937500,-44.0,5.0,47.25,76.39304687500001,28.32,1.75878453125,33.66
2021-06-29 10:35:31.468750000,-44.0,5.0,47.0,76.3934375,29.48,1.758904625,33.66
2021-06-29 10:35:31.476562500,-43.75,5.0,47.25,76.393828125,30.545,1.7590247187499999,33.66
2021-06-29 10:35:31.484375000,-43.5,5.0,47.5,76.39421875000001,31.61,1.7591448125,33.66
2021-06-29 10:35:31.492187500,-43.25,5.0,47.75,76.394609375,32.31,1.7592649062499999,33.66
2021-06-29 10:35:31.500000000,-43.0,5.0,48.0,76.39500000000001,33.01,1.759385,33.66
2021-06-29 10:35:31.507812500,-43.0,5.0,48.0,76.395390625,33.26,1.7594650625,33.66
2021-06-29 10:35:31.515625000,-43.0,5.0,48.0,76.39578125,33.51,1.759545125,33.66
2021-06-29 10:35:31.523437500,-43.0,5.0,48.0,76.39617187500001,33.379999999999995,1.7596251875,33.66
2021-06-29 10:35:31.531250000,-43.0,5.0,48.0,76.3965625,33.25,1.7597052499999999,33.66
2021-06-29 10:35:31.539062500,-43.25,5.0,48.0,76.396953125,32.855000000000004,1.7597853125,33.66
2021-06-29 10:35:31.546875000,-43.5,5.0,48.0,76.39734375,32.46,1.759865375,33.66
2021-06-29 10:35:31.554687500,-43.75,5.0,48.0,76.397734375,31.83,1.7599454374999999,33.66
2021-06-29 10:35:31.562500000,-44.0,5.0,48.0,76.39812500000001,31.2,1.7600255,33.66
2021-06-29 10:35:31.570312500,-43.75,5.0,48.0,76.398515625,30.205,1.7601055625,33.66
2021-06-29 10:35:31.578125000,-43.5,5.0,48.0,76.39890625,29.21,1.7601856249999999,33.66
2021-06-29 10:35:31.585937500,-43.25,5.0,48.0,76.399296875,27.62,1.7602656875,33.66
2021-06-29 10:35:31.593750000,-43.0,5.0,48.0,76.3996875,26.03,1.76034575,33.66
2021-06-29 10:35:31.601562500,-43.0,5.0,48.0,76.40007812500001,23.615000000000002,1.7604258124999999,33.66
2021-06-29 10:35:31.609375000,-43.0,5.0,48.0,76.40046875,21.2,1.760505875,33.66
2021-06-29 10:35:31.617187500,-43.0,5.0,48.0,76.400859375,17.88,1.7605859375,33.66
2021-06-29 10:35:31.625000000,-43.0,5.0,48.0,76.40125,14.56,1.760666,33.66
2021-06-29 10:35:31.632812500,-43.25,5.0,48.0,76.401640625,10.47,1.7607460625,33.66
2021-06-29 10:35:31.640625000,-43.5,5.0,48.0,76.40203125000001,6.38,1.760826125,33.66
2021-06-29 10:35:31.648437500,-43.75,5.0,48.0,76.402421875,1.9050000000000002,1.7609061875,33.66
2021-06-29 10:35:31.656250000,-44.0,5.0,48.0,76.4028125,-2.57,1.76098625,33.66
2021-06-29 10:35:31.664062500,-43.75,5.0,47.75,76.403203125,-6.955,1.7610663125,33.66
2021-06-29 10:35:31.671875000,-43.5,5.0,47.5,76.40359375,-11.34,1.761146375,33.66
2021-06-29 10:35:31.679687500,-43.25,5.0,47.25,76.40398437500001,-15.225,1.7612264375,33.66
2021-06-29 10:35:31.687500000,-43.0,5.0,47.0,76.404375,-19.11,1.7613064999999999,33.66
2021-06-29 10:35:31.695312500,-43.0,5.0,47.25,76.404765625,-22.32,1.7613865625,33.66
2021-06-29 10:35:31.703125000,-43.0,5.0,47.5,76.40515625,-25.53,1.761466625,33.66
2021-06-29 10:35:31.710937500,-43.0,5.0,47.75,76.405546875,-28.185000000000002,1.7615466874999999,33.66
2021-06-29 10:35:31.718750000,-43.0,5.0,48.0,76.40593750000001,-30.84,1.76162675,33.66
2021-06-29 10:35:31.726562500,-43.0,5.0,48.0,76.406328125,-33.32,1.7617068125,33.66
2021-06-29 10:35:31.734375000,-43.0,5.0,48.0,76.40671875,-35.8,1.7617868749999999,33.66
2021-06-29 10:35:31.742187500,-43.0,5.0,48.0,76.407109375,-38.614999999999995,1.7618669375,33.66
2021-06-29 10:35:31.750000000,-43.0,5.0,48.0,76.4075,-41.43,1.761947,33.66
2021-06-29 10:35:31.757812500,-43.25,4.75,47.75,76.40789062500001,-45.025,1.76190696875,33.66
2021-06-29 10:35:31.765625000,-43.5,4.5,47.5,76.40828125,-48.62,1.7618669375,33.66
2021-06-29 10:35:31.773437500,-43.75,4.25,47.25,76.408671875,-53.224999999999994,1.76182690625,33.66
2021-06-29 10:35:31.781250000,-44.0,4.0,47.0,76.4090625,-57.83,1.7617868749999999,33.66
2021-06-29 10:35:31.789062500,-44.0,4.0,47.0,76.409453125,-63.26,1.76174684375,33.66
2021-06-29 10:35:31.796875000,-44.0,4.0,47.0,76.40984375000001,-68.69,1.7617068125,33.66
2021-06-29 10:35:31.804687500,-44.0,4.0,47.0,76.410234375,-74.33,1.76166678125,33.66
2021-06-29 10:35:31.812500000,-44.0,4.0,47.0,76.410625,-79.97,1.76162675,33.66
2021-06-29 10:35:31.820312500,-44.0,4.25,47.25,76.411015625,-84.795,1.76158671875,33.66
2021-06-29 10:35:31.828125000,-44.0,4.5,47.5,76.41140625,-89.62,1.7615466874999999,33.66
2021-06-29 10:35:31.835937500,-44.0,4.75,47.75,76.41179687500001,-92.445,1.76150665625,33.66
2021-06-29 10:35:31.843750000,-44.0,5.0,48.0,76.4121875,-95.27,1.761466625,33.66
2021-06-29 10:35:31.851562500,-44.0,5.0,48.0,76.412578125,-95.035,1.76142659375,33.66
2021-06-29 10:35:31.859375000,-44.0,5.0,48.0,76.41296875,-94.8,1.7613865625,33.66
2021-06-29 10:35:31.867187500,-44.0,5.0,48.0,76.413359375,-90.975,1.76134653125,33.66
2021-06-29 10:35:31.875000000,-44.0,5.0,48.0,76.41375000000001,-87.15,1.7613064999999999,33.66
2021-06-29 10:35:31.882812500,-43.75,5.0,47.75,76.414140625,-79.935,1.76126646875,33.66
2021-06-29 10:35:31.890625000,-43.5,5.0,47.5,76.41453125,-72.72,1.7612264375,33.66
2021-06-29 10:35:31.898437500,-43.25,5.0,47.25,76.414921875,-63.04,1.76118640625,33.66
2021-06-29 10:35:31.906250000,-43.0,5.0,47.0,76.4153125,-53.36,1.761146375,33.66
2021-06-29 10:35:31.914062500,-43.0,5.0,47.25,76.41570312500001,-42.565,1.76110634375,33.66
2021-06-29 10:35:31.921875000,-43.0,5.0,47.5,76.41609375,-31.77,1.7610663125000001,33.66
2021-06-29 10:35:31.929687500,-43.0,5.0,47.75,76.416484375,-21.259999999999998,1.76102628125,33.66
2021-06-29 10:35:31.937500000,-43.0,5.0,48.0,76.416875,-10.75,1.76098625,33.66
2021-06-29 10:35:31.945312500,-43.25,5.0,48.0,76.417265625,-1.5749999999999993,1.76094621875,33.66
2021-06-29 10:35:31.953125000,-43.5,5.0,48.0,76.41765625000001,7.6,1.7609061875,33.66
2021-06-29 10:35:31.960937500,-43.75,5.0,48.0,76.418046875,14.925,1.76086615625,33.66
2021-06-29 10:35:31.968750000,-44.0,5.0,48.0,76.4184375,22.25,1.7608261250000001,33.66
2021-06-29 10:35:31.976562500,-44.0,5.0,48.0,76.418828125,27.71,1.76078609375,33.66
2021-06-29 10:35:31.984375000,-44.0,5.0,48.0,76.41921875,33.17,1.7607460625,33.66
2021-06-29 10:35:31.992187500,-44.0,5.0,48.0,76.41960937500001,37.05,1.76070603125,33.66
2021-06-29 10:35:32.000000000,-44.0,5.0,48.0,76.42,40.93,1.760666,33.66
2021-06-29 10:35:32.007812500,-44.0,5.0,47.75,76.42046875,43.585,1.7605859375000001,33.66
2021-06-29 10:35:32.015625000,-44.0,5.0,47.5,76.42093750000001,46.24,1.760505875,33.66
2021-06-29 10:35:32.023437500,-44.0,5.0,47.25,76.42140625,47.96,1.7604258125,33.66
2021-06-29 10:35:32.031250000,-44.0,5.0,47.0,76.421875,49.68,1.76034575,33.66
2021-06-29 10:35:32.039062500,-43.75,4.75,47.0,76.42234375,50.629999999999995,1.7602656875,33.66
2021-06-29 10:35:32.046875000,-43.5,4.5,47.0,76.4228125,51.58,1.760185625,33.66
2021-06-29 10:35:32.054687500,-43.25,4.25,47.0,76.42328125,51.885,1.7601055625,33.66
2021-06-29 10:35:32.062500000,-43.0,4.0,47.0,76.42375,52.19,1.7600255,33.66
2021-06-29 10:35:32.070312500,-43.25,4.0,47.25,76.42421875000001,52.025,1.7599454375,33.66
2021-06-29 10:35:32.078125000,-43.5,4.0,47.5,76.4246875,51.86,1.759865375,33.66
2021-06-29 10:35:32.085937500,-43.75,4.0,47.75,76.42515625,51.485,1.7597853125,33.66
2021-06-29 10:35:32.093750000,-44.0,4.0,48.0,76.425625,51.11,1.75970525,33.66
2021-06-29 10:35:32.101562500,-44.0,4.0,47.75,76.42609375,50.835,1.7596251875,33.66
2021-06-29 10:35:32.109375000,-44.0,4.0,47.5,76.4265625,50.56,1.759545125,33.66
2021-06-29 10:35:32.117187500,-44.0,4.0,47.25,76.42703125,50.68,1.7594650625,33.66
2021-06-29 10:35:32.125000000,-44.0,4.0,47.0,76.42750000000001,50.8,1.759385,33.66
2021-06-29 10:35:32.132812500,-44.0,4.25,47.25,76.42796875,51.455,1.7593049375,33.66
2021-06-29 10:35:32.140625000,-44.0,4.5,47.5,76.4284375,52.11,1.759224875,33.66
2021-06-29 10:35:32.148437500,-44.0,4.75,47.75,76.42890625,53.245000000000005,1.7591448125,33.66
2021-06-29 10:35:32.156250000,-44.0,5.0,48.0,76.42937500000001,54.38,1.7590647499999998,33.66
2021-06-29 10:35:32.164062500,-44.0,4.75,47.75,76.42984375,55.705,1.7589846875,33.66
2021-06-29 10:35:32.171875000,-44.0,4.5,47.5,76.4303125,57.03,1.758904625,33.66
2021-06-29 10:35:32.179687500,-44.0,4.25,47.25,76.43078125,58.165,1.7588245624999999,33.66
2021-06-29 10:35:32.187500000,-44.0,4.0,47.0,76.43125,59.3,1.7587445,33.66
2021-06-29 10:35:32.195312500,-43.75,4.0,47.25,76.43171875,59.879999999999995,1.7586644375,33.66
2021-06-29 10:35:32.203125000,-43.5,4.0,47.5,76.4321875,60.46,1.7585843749999999,33.66
2021-06-29 10:35:32.210937500,-43.25,4.0,47.75,76.43265625000001,60.31,1.7585043125,33.66
2021-06-29 10:35:32.218750000,-43.0,4.0,48.0,76.433125,60.16,1.75842425,33.66
2021-06-29 10:35:32.226562500,-43.25,4.0,48.0,76.43359375,59.275,1.7583441874999999,33.66
2021-06-29 10:35:32.234375000,-43.5,4.0,48.0,76.4340625,58.39,1.758264125,33.66
2021-06-29 10:35:32.242187500,-43.75,4.0,48.0,76.43453125,56.93,1.7581840624999998,33.66
2021-06-29 10:35:32.250000000,-44.0,4.0,48.0,76.435,55.47,1.758104,33.66
2021-06-29 10:35:32.257812500,-44.0,4.0,47.75,76.43546875,53.64,1.7581440312499999,33.66
2021-06-29 10:35:32.265625000,-44.0,4.0,47.5,76.43593750000001,51.81,1.7581840624999998,33.66
2021-06-29 10:35:32.273437500,-44.0,4.0,47.25,76.43640625,49.75,1.75822409375,33.66
2021-06-29 10:35:32.281250000,-44.0,4.0,47.0,76.436875,47.69,1.758264125,33.66
2021-06-29 10:35:32.289062500,-44.0,4.25,47.25,76.43734375,45.425,1.75830415625,33.66
2021-06-29 10:35:32.296875000,-44.0,4.5,47.5,76.4378125,43.16,1.7583441874999999,33.66
2021-06-29 10:35:32.304687500,-44.0,4.75,47.75,76.43828125,40.625,1.7583842187499998,33.66
2021-06-29 10:35:32.312500000,-44.0,5.0,48.0,76.43875,38.09,1.75842425,33.66
2021-06-29 10:35:32.320312500,-44.0,4.75,48.0,76.43921875000001,35.18000000000001,1.75846428125,33.66
2021-06-29 10:35:32.328125000,-44.0,4.5,48.0,76.4396875,32.27,1.7585043125,33.66
2021-06-29 10:35:32.335937500,-44.0,4.25,48.0,76.44015625,28.89,1.75854434375,33.66
2021-06-29 10:35:32.343750000,-44.0,4.0,48.0,76.440625,25.51,1.7585843749999999,33.66
2021-06-29 10:35:32.351562500,-44.0,4.0,48.0,76.44109375000001,21.67,1.7586244062499998,33.66
2021-06-29 10:35:32.359375000,-44.0,4.0,48.0,76.4415625,17.83,1.7586644375,33.66
2021-06-29 10:35:32.367187500,-44.0,4.0,48.0,76.44203125,13.639999999999999,1.75870446875,33.66
2021-06-29 10:35:32.375000000,-44.0,4.0,48.0,76.4425,9.45,1.7587445,33.66
2021-06-29 10:35:32.382812500,-43.75,4.25,48.0,76.44296875,5.135,1.75878453125,33.66
2021-06-29 10:35:32.390625000,-43.5,4.5,48.0,76.4434375,0.82,1.7588245624999999,33.66
2021-06-29 10:35:32.398437500,-43.25,4.75,48.0,76.44390625,-3.3649999999999998,1.75886459375,33.66
2021-06-29 10:35:32.406250000,-43.0,5.0,48.0,76.44437500000001,-7.55,1.758904625,33.66
2021-06-29 10:35:32.414062500,-43.25,5.0,47.75,76.44484375,-11.35,1.75894465625,33.66
2021-06-29 10:35:32.421875000,-43.5,5.0,47.5,76.4453125,-15.15,1.7589846875,33.66
2021-06-29 10:35:32.429687500,-43.75,5.0,47.25,76.44578125,-18.405,1.7590247187499999,33.66
2021-06-29 10:35:32.437500000,-44.0,5.0,47.0,76.44625,-21.66,1.7590647499999998,33.66
2021-06-29 10:35:32.445312500,-43.75,5.0,47.0,76.44671875,-24.355,1.75910478125,33.66
2021-06-29 10:35:32.453125000,-43.5,5.0,47.0,76.4471875,-27.05,1.7591448125,33.66
2021-06-29 10:35:32.460937500,-43.25,5.0,47.0,76.44765625000001,-29.345,1.75918484375,33.66
2021-06-29 10:35:32.468750000,-43.0,5.0,47.0,76.448125,-31.64,1.759224875,33.66
2021-06-29 10:35:32.476562500,-43.25,4.75,47.25,76.44859375,-33.815,1.7592649062499999,33.66
2021-06-29 10:35:32.484375000,-43.5,4.5,47.5,76.4490625,-35.99,1.7593049375,33.66
2021-06-29 10:35:32.492187500,-43.75,4.25,47.75,76.44953125,-38.415000000000006,1.75934496875,33.66
2021-06-29 10:35:32.500000000,-44.0,4.0,48.0,76.45,-40.84,1.759385,33.66
2021-06-29 10:35:32.507812500,-43.75,4.0,48.0,76.45046875,-43.885000000000005,1.75958515625,33.66
2021-06-29 10:35:32.515625000,-43.5,4.0,48.0,76.45093750000001,-46.93,1.7597853125,33.66
2021-06-29 10:35:32.523437500,-43.25,4.0,48.0,76.45140625,-50.835,1.75998546875,33.66
2021-06-29 10:35:32.531250000,-43.0,4.0,48.0,76.451875,-54.74,1.760185625,33.66
2021-06-29 10:35:32.539062500,-43.25,4.0,48.0,76.45234375,-59.504999999999995,1.76038578125,33.66
2021-06-29 10:35:32.546875000,-43.5,4.0,48.0,76.45281250000001,-64.27,1.7605859375,33.66
2021-06-29 10:35:32.554687500,-43.75,4.0,48.0,76.45328125,-69.52,1.76078609375,33.66
2021-06-29 10:35:32.562500000,-44.0,4.0,48.0,76.45375,-74.77,1.76098625,33.66
2021-06-29 10:35:32.570312500,-44.0,4.25,48.0,76.45421875000001,-79.745,1.76118640625,33.66
2021-06-29 10:35:32.578125000,-44.0,4.5,48.0,76.4546875,-84.72,1.7613865625,33.66
2021-06-29 10:35:32.585937500,-44.0,4.75,48.0,76.45515625,-88.345,1.76158671875,33.66
2021-06-29 10:35:32.593750000,-44.0,5.0,48.0,76.455625,-91.97,1.7617868749999999,33.66
2021-06-29 10:35:32.601562500,-43.75,4.75,48.0,76.45609375000001,-93.145,1.76198703125,33.66
2021-06-29 10:35:32.609375000,-43.5,4.5,48.0,76.4565625,-94.32,1.7621871875,33.66
2021-06-29 10:35:32.617187500,-43.25,4.25,48.0,76.45703125,-92.24,1.76238734375,33.66
2021-06-29 10:35:32.625000000,-43.0,4.0,48.0,76.45750000000001,-90.16,1.7625875,33.66
2021-06-29 10:35:32.632812500,-43.25,4.0,48.0,76.45796875,-84.65,1.76278765625,33.66
2021-06-29 10:35:32.640625000,-43.5,4.0,48.0,76.4584375,-79.14,1.7629878125,33.66
2021-06-29 10:35:32.648437500,-43.75,4.0,48.0,76.45890625,-70.745,1.76318796875,33.66
2021-06-29 10:35:32.656250000,-44.0,4.0,48.0,76.45937500000001,-62.35,1.763388125,33.66
2021-06-29 10:35:32.664062500,-44.0,4.0,47.75,76.45984375,-52.185,1.76358828125,33.66
2021-06-29 10:35:32.671875000,-44.0,4.0,47.5,76.4603125,-42.02,1.7637884375,33.66
2021-06-29 10:35:32.679687500,-44.0,4.0,47.25,76.46078125,-31.455000000000002,1.76398859375,33.66
2021-06-29 10:35:32.687500000,-44.0,4.0,47.0,76.46125,-20.89,1.76418875,33.66
2021-06-29 10:35:32.695312500,-43.75,4.25,47.25,76.46171875,-11.14,1.76438890625,33.66
2021-06-29 10:35:32.703125000,-43.5,4.5,47.5,76.4621875,-1.39,1.7645890625,33.66
2021-06-29 10:35:32.710937500,-43.25,4.75,47.75,76.46265625000001,6.735,1.76478921875,33.66
2021-06-29 10:35:32.718750000,-43.0,5.0,48.0,76.463125,14.86,1.7649893749999999,33.66
2021-06-29 10:35:32.726562500,-43.0,4.75,48.0,76.46359375,21.049999999999997,1.7651895312499999,33.66
2021-06-29 10:35:32.734375000,-43.0,4.5,48.0,76.4640625,27.24,1.7653896875,33.66
2021-06-29 10:35:32.742187500,-43.0,4.25,48.0,76.46453125000001,31.58,1.76558984375,33.66
2021-06-29 10:35:32.750000000,-43.0,4.0,48.0,76.465,35.92,1.76579,33.66
2021-06-29 10:35:32.757812500,-43.25,4.25,47.75,76.46546875,38.655,1.7655498125,33.66
2021-06-29 10:35:32.765625000,-43.5,4.5,47.5,76.46593750000001,41.39,1.765309625,33.66
2021-06-29 10:35:32.773437500,-43.75,4.75,47.25,76.46640625,42.825,1.7650694375,33.66
2021-06-29 10:35:32.781250000,-44.0,5.0,47.0,76.466875,44.26,1.76482925,33.66
2021-06-29 10:35:32.789062500,-44.0,4.75,47.0,76.46734375,44.655,1.7645890625,33.66
2021-06-29 10:35:32.796875000,-44.0,4.5,47.0,76.46781250000001,45.05,1.764348875,33.66
2021-06-29 10:35:32.804687500,-44.0,4.25,47.0,76.46828125,44.685,1.7641086875,33.66
2021-06-29 10:35:32.812500000,-44.0,4.0,47.0,76.46875,44.32,1.7638685,33.66
2021-06-29 10:35:32.820312500,-44.0,4.25,47.0,76.46921875000001,43.525,1.7636283124999999,33.66
2021-06-29 10:35:32.828125000,-44.0,4.5,47.0,76.4696875,42.73,1.7633881249999999,33.66
2021-06-29 10:35:32.835937500,-44.0,4.75,47.0,76.47015625,41.875,1.7631479374999999,33.66
2021-06-29 10:35:32.843750000,-44.0,5.0,47.0,76.470625,41.02,1.7629077499999999,33.66
2021-06-29 10:35:32.851562500,-43.75,5.0,47.0,76.47109375000001,40.44,1.7626675625,33.66
2021-06-29 10:35:32.859375000,-43.5,5.0,47.0,76.4715625,39.86,1.762427375,33.66
2021-06-29 10:35:32.867187500,-43.25,5.0,47.0,76.47203125,39.769999999999996,1.7621871875,33.66
2021-06-29 10:35:32.875000000,-43.0,5.0,47.0,76.4725,39.68,1.761947,33.66
2021-06-29 10:35:32.882812500,-43.25,4.75,47.25,76.47296875,40.1,1.7617068125,33.66
2021-06-29 10:35:32.890625000,-43.5,4.5,47.5,76.4734375,40.52,1.761466625,33.66
2021-06-29 10:35:32.898437500,-43.75,4.25,47.75,76.47390625,41.295,1.7612264375,33.66
2021-06-29 10:35:32.906250000,-44.0,4.0,48.0,76.47437500000001,42.07,1.76098625,33.66
2021-06-29 10:35:32.914062500,-44.0,4.25,48.0,76.47484375,42.955,1.7607460625,33.66
2021-06-29 10:35:32.921875000,-44.0,4.5,48.0,76.4753125,43.84,1.760505875,33.66
2021-06-29 10:35:32.929687500,-44.0,4.75,48.0,76.47578125,44.605000000000004,1.7602656875,33.66
2021-06-29 10:35:32.937500000,-44.0,5.0,48.0,76.47625000000001,45.37,1.7600254999999998,33.66
2021-06-29 10:35:32.945312500,-44.0,5.0,48.0,76.47671875,45.925,1.7597853124999998,33.66
2021-06-29 10:35:32.953125000,-44.0,5.0,48.0,76.4771875,46.48,1.7595451249999998,33.66
2021-06-29 10:35:32.960937500,-44.0,5.0,48.0,76.47765625000001,46.83,1.7593049374999998,33.66
2021-06-29 10:35:32.968750000,-44.0,5.0,48.0,76.478125,47.18,1.7590647499999998,33.66
2021-06-29 10:35:32.976562500,-43.75,4.75,48.0,76.47859375,47.42,1.7588245624999999,33.66
2021-06-29 10:35:32.984375000,-43.5,4.5,48.0,76.4790625,47.66,1.7585843749999999,33.66
2021-06-29 10:35:32.992187500,-43.25,4.25,48.0,76.47953125000001,47.815,1.7583441874999999,33.66
2021-06-29 10:35:33.000000000,-43.0,4.0,48.0,76.48,47.97,1.758104,33.66
2021-06-29 10:35:33.007812500,-43.0,4.0,48.0,76.48093750000001,47.97,1.7581840624999998,33.6596875
2021-06-29 10:35:33.015625000,-43.0,4.0,48.0,76.481875,47.97,1.758264125,33.659375
2021-06-29 10:35:33.023437500,-43.0,4.0,48.0,76.48281250000001,47.599999999999994,1.7583441874999999,33.6590625
2021-06-29 10:35:33.031250000,-43.0,4.0,48.0,76.48375,47.23,1.75842425,33.65875
2021-06-29 10:35:33.039062500,-43.0,4.25,48.0,76.4846875,46.245,1.7585043125,33.6584375
2021-06-29 10:35:33.046875000,-43.0,4.5,48.0,76.485625,45.26,1.7585843749999999,33.658125
2021-06-29 10:35:33.054687500,-43.0,4.75,48.0,76.4865625,43.485,1.7586644375,33.6578125
2021-06-29 10:35:33.062500000,-43.0,5.0,48.0,76.4875,41.71,1.7587445,33.6575
2021-06-29 10:35:33.070312500,-43.0,4.75,48.0,76.4884375,39.144999999999996,1.7588245624999999,33.6571875
2021-06-29 10:35:33.078125000,-43.0,4.5,48.0,76.48937500000001,36.58,1.758904625,33.656875
2021-06-29 10:35:33.085937500,-43.0,4.25,48.0,76.4903125,33.425,1.7589846875,33.6565625
2021-06-29 10:35:33.093750000,-43.0,4.0,48.0,76.49125000000001,30.27,1.7590647499999998,33.65625
2021-06-29 10:35:33.101562500,-43.0,4.25,48.0,76.4921875,26.89,1.7591448125,33.6559375
2021-06-29 10:35:33.109375000,-43.0,4.5,48.0,76.493125,23.51,1.759224875,33.655625
2021-06-29 10:35:33.117187500,-43.0,4.75,48.0,76.4940625,20.285,1.7593049375,33.6553125
2021-06-29 10:35:33.125000000,-43.0,5.0,48.0,76.495,17.06,1.759385,33.655
2021-06-29 10:35:33.132812500,-43.25,4.75,47.75,76.4959375,14.219999999999999,1.7594650625,33.654687499999994
2021-06-29 10:35:33.140625000,-43.5,4.5,47.5,76.496875,11.38,1.759545125,33.654374999999995
2021-06-29 10:35:33.148437500,-43.75,4.25,47.25,76.49781250000001,8.95,1.7596251875,33.654062499999995
2021-06-29 10:35:33.156250000,-44.0,4.0,47.0,76.49875,6.52,1.75970525,33.653749999999995
2021-06-29 10:35:33.164062500,-43.75,4.0,47.25,76.49968750000001,4.3,1.7597853125,33.653437499999995
2021-06-29 10:35:33.171875000,-43.5,4.0,47.5,76.500625,2.08,1.759865375,33.653124999999996
2021-06-29 10:35:33.179687500,-43.25,4.0,47.75,76.5015625,-0.20999999999999996,1.7599454375,33.652812499999996
2021-06-29 10:35:33.187500000,-43.0,4.0,48.0,76.5025,-2.5,1.7600255,33.652499999999996
2021-06-29 10:35:33.195312500,-43.0,4.25,48.0,76.5034375,-5.07,1.7601055625,33.6521875
2021-06-29 10:35:33.203125000,-43.0,4.5,48.0,76.504375,-7.64,1.760185625,33.651875
2021-06-29 10:35:33.210937500,-43.0,4.75,48.0,76.5053125,-10.51,1.7602656875,33.6515625
2021-06-29 10:35:33.218750000,-43.0,5.0,48.0,76.50625000000001,-13.38,1.76034575,33.65125
2021-06-29 10:35:33.226562500,-43.0,5.0,48.0,76.5071875,-16.395,1.7604258125,33.6509375
2021-06-29 10:35:33.234375000,-43.0,5.0,48.0,76.508125,-19.41,1.760505875,33.650625
2021-06-29 10:35:33.242187500,-43.0,5.0,48.0,76.5090625,-22.314999999999998,1.7605859375000001,33.6503125
2021-06-29 10:35:33.250000000,-43.0,5.0,48.0,76.51,-25.22,1.760666,33.65
2021-06-29 10:35:33.257812500,-43.25,4.75,47.75,76.5109375,-27.785,1.76062596875,33.65
2021-06-29 10:35:33.265625000,-43.5,4.5,47.5,76.511875,-30.35,1.7605859375000001,33.65
2021-06-29 10:35:33.273437500,-43.75,4.25,47.25,76.5128125,-32.5,1.76054590625,33.65
2021-06-29 10:35:33.281250000,-44.0,4.0,47.0,76.51375,-34.65,1.760505875,33.65
2021-06-29 10:35:33.289062500,-44.0,4.0,47.25,76.51468750000001,-36.465,1.76046584375,33.65
2021-06-29 10:35:33.296875000,-44.0,4.0,47.5,76.515625,-38.28,1.7604258125,33.65
2021-06-29 10:35:33.304687500,-44.0,4.0,47.75,76.5165625,-39.985,1.7603857812500001,33.65
2021-06-29 10:35:33.312500000,-44.0,4.0,48.0,76.5175,-41.69,1.76034575,33.65
2021-06-29 10:35:33.320312500,-43.75,4.25,48.0,76.5184375,-43.605000000000004,1.76030571875,33.65
2021-06-29 10:35:33.328125000,-43.5,4.5,48.0,76.519375,-45.52,1.7602656875,33.65
2021-06-29 10:35:33.335937500,-43.25,4.75,48.0,76.5203125,-48.005,1.76022565625,33.65
2021-06-29 10:35:33.343750000,-43.0,5.0,48.0,76.52125,-50.49,1.760185625,33.65
2021-06-29 10:35:33.351562500,-43.0,5.0,48.0,76.5221875,-53.84,1.7601455937500001,33.65
2021-06-29 10:35:33.359375000,-43.0,5.0,48.0,76.52312500000001,-57.19,1.7601055625,33.65
2021-06-29 10:35:33.367187500,-43.0,5.0,48.0,76.5240625,-61.504999999999995,1.76006553125,33.65
2021-06-29 10:35:33.375000000,-43.0,5.0,48.0,76.525,-65.82,1.7600255,33.65
2021-06-29 10:35:33.382812500,-43.25,5.0,48.0,76.5259375,-70.82,1.75998546875,33.65
2021-06-29 10:35:33.390625000,-43.5,5.0,48.0,76.526875,-75.82,1.7599454375,33.65
2021-06-29 10:35:33.398437500,-43.75,5.0,48.0,76.5278125,-80.74,1.75990540625,33.65
2021-06-29 10:35:33.406250000,-44.0,5.0,48.0,76.52875,-85.66,1.759865375,33.65
2021-06-29 10:35:33.414062500,-44.0,5.0,48.0,76.5296875,-89.32,1.75982534375,33.65
2021-06-29 10:35:33.421875000,-44.0,5.0,48.0,76.530625,-92.98,1.7597853125,33.65
2021-06-29 10:35:33.429687500,-44.0,5.0,48.0,76.5315625,-94.105,1.75974528125,33.65
2021-06-29 10:35:33.437500000,-44.0,5.0,48.0,76.5325,-95.23,1.75970525,33.65
2021-06-29 10:35:33.445312500,-43.75,4.75,48.0,76.5334375,-92.89,1.75966521875,33.65
2021-06-29 10:35:33.453125000,-43.5,4.5,48.0,76.534375,-90.55,1.7596251875,33.65
2021-06-29 10:35:33.460937500,-43.25,4.25,48.0,76.5353125,-84.515,1.75958515625,33.65
2021-06-29 10:35:33.468750000,-43.0,4.0,48.0,76.53625,-78.48,1.759545125,33.65
2021-06-29 10:35:33.476562500,-43.0,4.25,48.0,76.5371875,-69.385,1.75950509375,33.65
2021-06-29 10:35:33.484375000,-43.0,4.5,48.0,76.538125,-60.29,1.7594650625,33.65
2021-06-29 10:35:33.492187500,-43.0,4.75,48.0,76.5390625,-49.41,1.75942503125,33.65
2021-06-29 10:35:33.500000000,-43.0,5.0,48.0,76.53999999999999,-38.53,1.759385,33.65
2021-06-29 10:35:33.507812500,-43.25,4.75,48.0,76.5409375,-27.375,1.7594650625,33.65
2021-06-29 10:35:33.515625000,-43.5,4.5,48.0,76.541875,-16.22,1.759545125,33.65
2021-06-29 10:35:33.523437500,-43.75,4.25,48.0,76.5428125,-6.074999999999999,1.7596251875,33.65
2021-06-29 10:35:33.531250000,-44.0,4.0,48.0,76.54375,4.07,1.7597052499999999,33.65
2021-06-29 10:35:33.539062500,-44.0,4.25,48.0,76.5446875,12.43,1.7597853125,33.65
2021-06-29 10:35:33.546875000,-44.0,4.5,48.0,76.545625,20.79,1.759865375,33.65
2021-06-29 10:35:33.554687500,-44.0,4.75,48.0,76.5465625,27.145,1.7599454374999999,33.65
2021-06-29 10:35:33.562500000,-44.0,5.0,48.0,76.5475,33.5,1.7600255,33.65
2021-06-29 10:35:33.570312500,-43.5,4.5,47.75,76.54843749999999,38.0,1.7601055625,33.65
2021-06-29 10:35:33.578125000,-43.0,4.0,47.5,76.549375,42.5,1.7601856249999999,33.65
2021-06-29 10:35:33.585937500,-42.5,3.5,47.25,76.5503125,45.44,1.7602656875,33.65
2021-06-29 10:35:33.593750000,-42.0,3.0,47.0,76.55125,48.38,1.76034575,33.65
2021-06-29 10:35:33.601562500,-42.5,3.25,47.25,76.5521875,50.05,1.7604258124999999,33.65
2021-06-29 10:35:33.609375000,-43.0,3.5,47.5,76.553125,51.72,1.760505875,33.65
2021-06-29 10:35:33.617187500,-43.5,3.75,47.75,76.5540625,52.349999999999994,1.7605859375,33.65
2021-06-29 10:35:33.625000000,-44.0,4.0,48.0,76.55499999999999,52.98,1.760666,33.65
2021-06-29 10:35:33.632812500,-43.75,4.25,48.0,76.5559375,52.78,1.7607460625,33.65
2021-06-29 10:35:33.640625000,-43.5,4.5,48.0,76.55687499999999,52.58,1.760826125,33.65
2021-06-29 10:35:33.648437500,-43.25,4.75,48.0,76.5578125,51.825,1.7609061875,33.65
2021-06-29 10:35:33.656250000,-43.0,5.0,48.0,76.55875,51.07,1.76098625,33.65
2021-06-29 10:35:33.664062500,-43.0,5.0,48.0,76.5596875,50.07,1.7610663125,33.65
2021-06-29 10:35:33.671875000,-43.0,5.0,48.0,76.560625,49.07,1.761146375,33.65
2021-06-29 10:35:33.679687500,-43.0,5.0,48.0,76.5615625,48.185,1.7612264375,33.65
2021-06-29 10:35:33.687500000,-43.0,5.0,48.0,76.5625,47.3,1.7613064999999999,33.65
2021-06-29 10:35:33.695312500,-43.0,5.0,48.0,76.56343749999999,46.805,1.7613865625,33.65
2021-06-29 10:35:33.703125000,-43.0,5.0,48.0,76.564375,46.31,1.761466625,33.65
2021-06-29 10:35:33.710937500,-43.0,5.0,48.0,76.56531249999999,46.370000000000005,1.7615466874999999,33.65
2021-06-29 10:35:33.718750000,-43.0,5.0,48.0,76.56625,46.43,1.76162675,33.65
2021-06-29 10:35:33.726562500,-43.0,5.0,48.0,76.5671875,47.045,1.7617068125,33.65
2021-06-29 10:35:33.734375000,-43.0,5.0,48.0,76.568125,47.66,1.7617868749999999,33.65
2021-06-29 10:35:33.742187500,-43.0,5.0,48.0,76.5690625,48.709999999999994,1.7618669375,33.65
2021-06-29 10:35:33.750000000,-43.0,5.0,48.0,76.57,49.76,1.761947,33.65
2021-06-29 10:35:33.757812500,-43.0,4.75,48.0,76.5709375,51.025,1.761947,33.65
2021-06-29 10:35:33.765625000,-43.0,4.5,48.0,76.57187499999999,52.29,1.761947,33.65
2021-06-29 10:35:33.773437500,-43.0,4.25,48.0,76.5728125,53.53,1.761947,33.65
2021-06-29 10:35:33.781250000,-43.0,4.0,48.0,76.57374999999999,54.77,1.761947,33.65
2021-06-29 10:35:33.789062500,-43.0,4.25,48.0,76.5746875,55.78,1.761947,33.65
2021-06-29 10:35:33.796875000,-43.0,4.5,48.0,76.575625,56.79,1.761947,33.65
2021-06-29 10:35:33.804687500,-43.0,4.75,48.0,76.5765625,57.44,1.761947,33.65
2021-06-29 10:35:33.812500000,-43.0,5.0,48.0,76.5775,58.09,1.761947,33.65
2021-06-29 10:35:33.820312500,-43.0,4.75,48.0,76.57843749999999,58.315,1.761947,33.65
2021-06-29 10:35:33.828125000,-43.0,4.5,48.0,76.579375,58.54,1.761947,33.65
2021-06-29 10:35:33.835937500,-43.0,4.25,48.0,76.58031249999999,58.315,1.761947,33.65
2021-06-29 10:35:33.843750000,-43.0,4.0,48.0,76.58125,58.09,1.761947,33.65
2021-06-29 10:35:33.851562500,-43.0,4.25,48.0,76.58218749999999,57.415000000000006,1.761947,33.65
2021-06-29 10:35:33.859375000,-43.0,4.5,48.0,76.583125,56.74,1.761947,33.65
2021-06-29 10:35:33.867187500,-43.0,4.75,48.0,76.5840625,55.61,1.761947,33.65
2021-06-29 10:35:33.875000000,-43.0,5.0,48.0,76.585,54.48,1.761947,33.65
2021-06-29 10:35:33.882812500,-43.0,4.75,48.0,76.5859375,52.89,1.761947,33.65
2021-06-29 10:35:33.890625000,-43.0,4.5,48.0,76.58687499999999,51.3,1.761947,33.65
2021-06-29 10:35:33.898437500,-43.0,4.25,48.0,76.5878125,49.239999999999995,1.761947,33.65
2021-06-29 10:35:33.906250000,-43.0,4.0,48.0,76.58874999999999,47.18,1.761947,33.65
2021-06-29 10:35:33.914062500,-43.0,4.25,48.0,76.5896875,44.715,1.761947,33.65
2021-06-29 10:35:33.921875000,-43.0,4.5,48.0,76.59062499999999,42.25,1.761947,33.65
2021-06-29 10:35:33.929687500,-43.0,4.75,48.0,76.5915625,39.485,1.761947,33.65
2021-06-29 10:35:33.937500000,-43.0,5.0,48.0,76.5925,36.72,1.761947,33.65
2021-06-29 10:35:33.945312500,-43.0,5.0,48.0,76.5934375,33.83,1.761947,33.65
2021-06-29 10:35:33.953125000,-43.0,5.0,48.0,76.594375,30.94,1.761947,33.65
2021-06-29 10:35:33.960937500,-43.0,5.0,48.0,76.59531249999999,28.130000000000003,1.761947,33.65
2021-06-29 10:35:33.968750000,-43.0,5.0,48.0,76.59625,25.32,1.761947,33.65
2021-06-29 10:35:33.976562500,-43.0,5.0,48.0,76.59718749999999,22.77,1.761947,33.65
2021-06-29 10:35:33.984375000,-43.0,5.0,48.0,76.598125,20.22,1.761947,33.65
2021-06-29 10:35:33.992187500,-43.0,5.0,48.0,76.59906249999999,18.03,1.761947,33.65
2021-06-29 10:35:34.000000000,-43.0,5.0,48.0,76.6,15.84,1.761947,33.65
2021-06-29 10:35:34.007812500,-43.0,5.0,48.0,76.6009375,14.01,1.7618669375,33.65
2021-06-29 10:35:34.015625000,-43.0,5.0,48.0,76.60187499999999,12.18,1.7617868749999999,33.65
2021-06-29 10:35:34.023437500,-43.0,5.0,48.0,76.6028125,10.605,1.7617068125,33.65
2021-06-29 10:35:34.031250000,-43.0,5.0,48.0,76.60374999999999,9.03,1.76162675,33.65
2021-06-29 10:35:34.039062500,-43.0,4.75,48.0,76.6046875,7.57,1.7615466874999999,33.65
2021-06-29 10:35:34.046875000,-43.0,4.5,48.0,76.60562499999999,6.11,1.761466625,33.65
2021-06-29 10:35:34.054687500,-43.0,4.25,48.0,76.6065625,4.59,1.7613865625,33.65
2021-06-29 10:35:34.062500000,-43.0,4.0,48.0,76.60749999999999,3.07,1.7613064999999999,33.65
2021-06-29 10:35:34.070312500,-43.0,4.0,48.0,76.6084375,1.3499999999999999,1.7612264375,33.65
2021-06-29 10:35:34.078125000,-43.0,4.0,48.0,76.609375,-0.37,1.761146375,33.65
2021-06-29 10:35:34.085937500,-43.0,4.0,48.0,76.61031249999999,-2.375,1.7610663125,33.65
2021-06-29 10:35:34.093750000,-43.0,4.0,48.0,76.61125,-4.38,1.76098625,33.65
2021-06-29 10:35:34.101562500,-43.0,4.25,48.0,76.61218749999999,-6.6899999999999995,1.7609061875,33.65
2021-06-29 10:35:34.109375000,-43.0,4.5,48.0,76.613125,-9.0,1.760826125,33.65
2021-06-29 10:35:34.117187500,-43.0,4.75,48.0,76.61406249999999,-11.555,1.7607460625,33.65
2021-06-29 10:35:34.125000000,-43.0,5.0,48.0,76.615,-14.11,1.760666,33.65
2021-06-29 10:35:34.132812500,-43.0,4.75,48.0,76.6159375,-16.78,1.7605859375,33.65
2021-06-29 10:35:34.140625000,-43.0,4.5,48.0,76.616875,-19.45,1.760505875,33.65
2021-06-29 10:35:34.148437500,-43.0,4.25,48.0,76.6178125,-22.055,1.7604258124999999,33.65
2021-06-29 10:35:34.156250000,-43.0,4.0,48.0,76.61874999999999,-24.66,1.76034575,33.65
2021-06-29 10:35:34.164062500,-43.0,4.25,48.0,76.6196875,-27.04,1.7602656875,33.65
2021-06-29 10:35:34.171875000,-43.0,4.5,48.0,76.62062499999999,-29.42,1.7601856249999999,33.65
2021-06-29 10:35:34.179687500,-43.0,4.75,48.0,76.6215625,-31.495,1.7601055625,33.65
2021-06-29 10:35:34.187500000,-43.0,5.0,48.0,76.6225,-33.57,1.7600255,33.65
2021-06-29 10:35:34.195312500,-43.0,5.0,48.0,76.6234375,-35.370000000000005,1.7599454374999999,33.65
2021-06-29 10:35:34.203125000,-43.0,5.0,48.0,76.624375,-37.17,1.759865375,33.65
2021-06-29 10:35:34.210937500,-43.0,5.0,48.0,76.62531249999999,-38.885000000000005,1.7597853125,33.65
2021-06-29 10:35:34.218750000,-43.0,5.0,48.0,76.62625,-40.6,1.7597052499999999,33.65
2021-06-29 10:35:34.226562500,-43.0,5.0,48.0,76.62718749999999,-42.525000000000006,1.7596251875,33.65
2021-06-29 10:35:34.234375000,-43.0,5.0,48.0,76.628125,-44.45,1.759545125,33.65
2021-06-29 10:35:34.242187500,-43.0,5.0,48.0,76.62906249999999,-46.925,1.7594650625,33.65
2021-06-29 10:35:34.250000000,-43.0,5.0,48.0,76.63,-49.4,1.759385,33.65
2021-06-29 10:35:34.257812500,-43.0,5.0,48.0,76.6309375,-52.72,1.75950509375,33.65
2021-06-29 10:35:34.265625000,-43.0,5.0,48.0,76.631875,-56.04,1.7596251875,33.65
2021-06-29 10:35:34.273437500,-43.0,5.0,48.0,76.6328125,-60.30499999999999,1.75974528125,33.65
2021-06-29 10:35:34.281250000,-43.0,5.0,48.0,76.63374999999999,-64.57,1.759865375,33.65
2021-06-29 10:35:34.289062500,-43.0,5.0,48.0,76.6346875,-69.56,1.75998546875,33.65
2021-06-29 10:35:34.296875000,-43.0,5.0,48.0,76.63562499999999,-74.55,1.7601055625,33.65
2021-06-29 10:35:34.304687500,-43.0,5.0,48.0,76.6365625,-79.63,1.76022565625,33.65
2021-06-29 10:35:34.312500000,-43.0,5.0,48.0,76.63749999999999,-84.71,1.76034575,33.65
2021-06-29 10:35:34.320312500,-43.0,5.0,48.0,76.6384375,-88.87,1.76046584375,33.65
2021-06-29 10:35:34.328125000,-43.0,5.0,48.0,76.639375,-93.03,1.7605859375,33.65
2021-06-29 10:35:34.335937500,-43.0,5.0,48.0,76.6403125,-95.11,1.76070603125,33.65
2021-06-29 10:35:34.343750000,-43.0,5.0,48.0,76.64125,-97.19,1.760826125,33.65
2021-06-29 10:35:34.351562500,-43.0,5.0,48.0,76.64218749999999,-96.18,1.76094621875,33.65
2021-06-29 10:35:34.359375000,-43.0,5.0,48.0,76.643125,-95.17,1.7610663125,33.65
2021-06-29 10:35:34.367187500,-43.0,5.0,48.0,76.64406249999999,-90.595,1.76118640625,33.65
2021-06-29 10:35:34.375000000,-43.0,5.0,48.0,76.645,-86.02,1.7613064999999999,33.65
2021-06-29 10:35:34.382812500,-43.0,5.0,48.0,76.6459375,-78.115,1.76142659375,33.65
2021-06-29 10:35:34.390625000,-43.0,5.0,48.0,76.646875,-70.21,1.7615466875,33.65
2021-06-29 10:35:34.398437500,-43.0,5.0,48.0,76.6478125,-59.92,1.76166678125,33.65
2021-06-29 10:35:34.406250000,-43.0,5.0,48.0,76.64874999999999,-49.63,1.761786875,33.65
2021-06-29 10:35:34.414062500,-43.0,5.0,48.0,76.6496875,-38.31,1.76190696875,33.65
2021-06-29 10:35:34.421875000,-43.0,5.0,48.0,76.65062499999999,-26.99,1.7620270625,33.65
2021-06-29 10:35:34.429687500,-43.0,5.0,48.0,76.6515625,-16.044999999999998,1.76214715625,33.65
2021-06-29 10:35:34.437500000,-43.0,5.0,48.0,76.6525,-5.1,1.76226725,33.65
2021-06-29 10:35:34.445312500,-43.0,5.0,48.0,76.6534375,4.375,1.76238734375,33.65
2021-06-29 10:35:34.453125000,-43.0,5.0,48.0,76.654375,13.85,1.7625074375,33.65
2021-06-29 10:35:34.460937500,-43.0,5.0,48.0,76.6553125,21.255,1.76262753125,33.65
2021-06-29 10:35:34.468750000,-43.0,5.0,48.0,76.65625,28.66,1.762747625,33.65
2021-06-29 10:35:34.476562500,-43.0,5.0,48.0,76.65718749999999,33.85,1.76286771875,33.65
2021-06-29 10:35:34.484375000,-43.0,5.0,48.0,76.658125,39.04,1.7629878125,33.65
2021-06-29 10:35:34.492187500,-43.0,5.0,48.0,76.65906249999999,42.215,1.76310790625,33.65
2021-06-29 10:35:34.500000000,-43.0,5.0,48.0,76.66,45.39,1.763228,33.65
2021-06-29 10:35:34.507812500,-43.0,4.75,48.0,76.6609375,46.879999999999995,1.76310790625,33.65
2021-06-29 10:35:34.515625000,-43.0,4.5,48.0,76.661875,48.37,1.7629878125,33.65
2021-06-29 10:35:34.523437500,-43.0,4.25,48.0,76.6628125,48.555,1.76286771875,33.65
2021-06-29 10:35:34.531250000,-43.0,4.0,48.0,76.66375,48.74,1.762747625,33.65
2021-06-29 10:35:34.539062500,-43.0,4.25,48.0,76.6646875,47.965,1.76262753125,33.65
2021-06-29 10:35:34.546875000,-43.0,4.5,48.0,76.66562499999999,47.19,1.7625074375,33.65
2021-06-29 10:35:34.554687500,-43.0,4.75,48.0,76.6665625,45.825,1.76238734375,33.65
2021-06-29 10:35:34.562500000,-43.0,5.0,48.0,76.66749999999999,44.46,1.76226725,33.65
2021-06-29 10:35:34.570312500,-43.0,5.0,48.0,76.6684375,42.865,1.76214715625,33.65
2021-06-29 10:35:34.578125000,-43.0,5.0,48.0,76.669375,41.27,1.7620270625,33.65
2021-06-29 10:35:34.585937500,-43.0,5.0,48.0,76.6703125,39.84,1.76190696875,33.65
2021-06-29 10:35:34.593750000,-43.0,5.0,48.0,76.67125,38.41,1.761786875,33.65
2021-06-29 10:35:34.601562500,-43.0,5.0,48.0,76.67218749999999,37.455,1.76166678125,33.65
2021-06-29 10:35:34.609375000,-43.0,5.0,48.0,76.673125,36.5,1.7615466875,33.65
2021-06-29 10:35:34.617187500,-43.0,5.0,48.0,76.67406249999999,36.230000000000004,1.76142659375,33.65
2021-06-29 10:35:34.625000000,-43.0,5.0,48.0,76.675,35.96,1.7613064999999999,33.65
2021-06-29 10:35:34.632812500,-43.0,5.0,48.0,76.6759375,36.400000000000006,1.76118640625,33.65
2021-06-29 10:35:34.640625000,-43.0,5.0,48.0,76.676875,36.84,1.7610663125,33.65
2021-06-29 10:35:34.648437500,-43.0,5.0,48.0,76.6778125,37.855000000000004,1.76094621875,33.65
2021-06-29 10:35:34.656250000,-43.0,5.0,48.0,76.67875,38.87,1.760826125,33.65
2021-06-29 10:35:34.664062500,-43.0,5.0,48.0,76.6796875,40.25,1.76070603125,33.65
2021-06-29 10:35:34.671875000,-43.0,5.0,48.0,76.68062499999999,41.63,1.7605859375,33.65
2021-06-29 10:35:34.679687500,-43.0,5.0,48.0,76.6815625,43.120000000000005,1.76046584375,33.65
2021-06-29 10:35:34.687500000,-43.0,5.0,48.0,76.6825,44.61,1.76034575,33.65
2021-06-29 10:35:34.695312500,-43.0,5.0,48.0,76.6834375,46.015,1.76022565625,33.65
2021-06-29 10:35:34.703125000,-43.0,5.0,48.0,76.684375,47.42,1.7601055625,33.65
2021-06-29 10:35:34.710937500,-43.0,5.0,48.0,76.6853125,48.6,1.75998546875,33.65
2021-06-29 10:35:34.718750000,-43.0,5.0,48.0,76.68625,49.78,1.759865375,33.65
2021-06-29 10:35:34.726562500,-43.0,5.0,48.0,76.6871875,50.650000000000006,1.75974528125,33.65
2021-06-29 10:35:34.734375000,-43.0,5.0,48.0,76.688125,51.52,1.7596251875,33.65
2021-06-29 10:35:34.742187500,-43.0,5.0,48.0,76.68906249999999,52.0,1.75950509375,33.65
2021-06-29 10:35:34.750000000,-43.0,5.0,48.0,76.69,52.48,1.759385,33.65
2021-06-29 10:35:34.757812500,-43.0,4.75,48.0,76.6909375,52.48,1.75950509375,33.65
2021-06-29 10:35:34.765625000,-43.0,4.5,48.0,76.691875,52.48,1.7596251875,33.65
2021-06-29 10:35:34.773437500,-43.0,4.25,48.0,76.6928125,51.905,1.75974528125,33.65
2021-06-29 10:35:34.781250000,-43.0,4.0,48.0,76.69375,51.33,1.759865375,33.65
2021-06-29 10:35:34.789062500,-43.0,4.25,48.0,76.6946875,50.129999999999995,1.75998546875,33.65
2021-06-29 10:35:34.796875000,-43.0,4.5,48.0,76.69562499999999,48.93,1.7601055625,33.65
2021-06-29 10:35:34.804687500,-43.0,4.75,48.0,76.6965625,47.144999999999996,1.76022565625,33.65
2021-06-29 10:35:34.812500000,-43.0,5.0,48.0,76.69749999999999,45.36,1.76034575,33.65
2021-06-29 10:35:34.820312500,-43.0,5.0,48.0,76.6984375,43.105000000000004,1.76046584375,33.65
2021-06-29 10:35:34.828125000,-43.0,5.0,48.0,76.699375,40.85,1.7605859375,33.65
2021-06-29 10:35:34.835937500,-43.0,5.0,48.0,76.7003125,38.325,1.76070603125,33.65
2021-06-29 10:35:34.843750000,-43.0,5.0,48.0,76.70125,35.8,1.760826125,33.65
2021-06-29 10:35:34.851562500,-43.0,5.0,48.0,76.7021875,33.214999999999996,1.76094621875,33.65
2021-06-29 10:35:34.859375000,-43.0,5.0,48.0,76.703125,30.63,1.7610663125,33.65
2021-06-29 10:35:34.867187500,-43.0,5.0,48.0,76.70406249999999,28.185,1.76118640625,33.65
2021-06-29 10:35:34.875000000,-43.0,5.0,48.0,76.705,25.74,1.7613064999999999,33.65
2021-06-29 10:35:34.882812500,-43.0,5.0,48.0,76.7059375,23.534999999999997,1.76142659375,33.65
2021-06-29 10:35:34.890625000,-43.0,5.0,48.0,76.706875,21.33,1.7615466875,33.65
2021-06-29 10:35:34.898437500,-43.0,5.0,48.0,76.7078125,19.4,1.76166678125,33.65
2021-06-29 10:35:34.906250000,-43.0,5.0,48.0,76.70875,17.47,1.761786875,33.65
2021-06-29 10:35:34.914062500,-43.0,5.0,48.0,76.7096875,15.75,1.76190696875,33.65
2021-06-29 10:35:34.921875000,-43.0,5.0,48.0,76.710625,14.03,1.7620270625,33.65
2021-06-29 10:35:34.929687500,-43.0,5.0,48.0,76.7115625,12.42,1.76214715625,33.65
2021-06-29 10:35:34.937500000,-43.0,5.0,48.0,76.7125,10.81,1.76226725,33.65
2021-06-29 10:35:34.945312500,-43.0,5.0,48.0,76.7134375,9.2,1.76238734375,33.65
2021-06-29 10:35:34.953125000,-43.0,5.0,48.0,76.714375,7.59,1.7625074375,33.65
2021-06-29 10:35:34.960937500,-43.0,5.0,48.0,76.7153125,5.9350000000000005,1.76262753125,33.65
2021-06-29 10:35:34.968750000,-43.0,5.0,48.0,76.71625,4.28,1.762747625,33.65
2021-06-29 10:35:34.976562500,-43.0,4.75,48.0,76.7171875,2.6050000000000004,1.76286771875,33.65
2021-06-29 10:35:34.984375000,-43.0,4.5,48.0,76.718125,0.93,1.7629878125,33.65
2021-06-29 10:35:34.992187500,-43.0,4.25,48.0,76.71906249999999,-0.7100000000000001,1.76310790625,33.65
2021-06-29 10:35:35.000000000,-43.0,4.0,48.0,76.72,-2.35,1.763228,33.65
2021-06-29 10:35:35.007812500,-43.0,4.25,48.0,76.72078125,-3.9050000000000002,1.763228,33.65
2021-06-29 10:35:35.015625000,-43.0,4.5,48.0,76.7215625,-5.46,1.763228,33.65
2021-06-29 10:35:35.023437500,-43.0,4.75,48.0,76.72234375,-6.965,1.763228,33.65
2021-06-29 10:35:35.031250000,-43.0,5.0,48.0,76.723125,-8.47,1.763228,33.65
2021-06-29 10:35:35.039062500,-43.0,5.0,48.0,76.72390625,-10.015,1.763228,33.65
2021-06-29 10:35:35.046875000,-43.0,5.0,48.0,76.7246875,-11.56,1.763228,33.65
2021-06-29 10:35:35.054687500,-43.0,5.0,48.0,76.72546875,-13.265,1.763228,33.65
2021-06-29 10:35:35.062500000,-43.0,5.0,48.0,76.72625,-14.97,1.763228,33.65
2021-06-29 10:35:35.070312500,-43.0,5.0,48.0,76.72703125,-16.93,1.763228,33.65
2021-06-29 10:35:35.078125000,-43.0,5.0,48.0,76.7278125,-18.89,1.763228,33.65
2021-06-29 10:35:35.085937500,-43.0,5.0,48.0,76.72859375,-21.085,1.763228,33.65
2021-06-29 10:35:35.093750000,-43.0,5.0,48.0,76.729375,-23.28,1.763228,33.65
2021-06-29 10:35:35.101562500,-43.0,5.0,48.0,76.73015625,-25.615000000000002,1.763228,33.65
2021-06-29 10:35:35.109375000,-43.0,5.0,48.0,76.7309375,-27.95,1.763228,33.65
2021-06-29 10:35:35.117187500,-43.0,5.0,48.0,76.73171875,-30.259999999999998,1.763228,33.65
2021-06-29 10:35:35.125000000,-43.0,5.0,48.0,76.7325,-32.57,1.763228,33.65
2021-06-29 10:35:35.132812500,-43.0,4.75,48.0,76.73328125,-34.705,1.763228,33.65
2021-06-29 10:35:35.140625000,-43.0,4.5,48.0,76.7340625,-36.84,1.763228,33.65
2021-06-29 10:35:35.148437500,-43.0,4.25,48.0,76.73484375,-38.75,1.763228,33.65
2021-06-29 10:35:35.156250000,-43.0,4.0,48.0,76.735625,-40.66,1.763228,33.65
2021-06-29 10:35:35.164062500,-43.0,4.0,48.0,76.73640625,-42.39,1.763228,33.65
2021-06-29 10:35:35.171875000,-43.0,4.0,48.0,76.7371875,-44.12,1.763228,33.65
2021-06-29 10:35:35.179687500,-43.0,4.0,48.0,76.73796875,-45.845,1.763228,33.65
2021-06-29 10:35:35.187500000,-43.0,4.0,48.0,76.73875,-47.57,1.763228,33.65
2021-06-29 10:35:35.195312500,-43.0,4.25,48.0,76.73953125,-49.54,1.763228,33.65
2021-06-29 10:35:35.203125000,-43.0,4.5,48.0,76.7403125,-51.51,1.763228,33.65
2021-06-29 10:35:35.210937500,-43.0,4.75,48.0,76.74109375,-53.995,1.763228,33.65
2021-06-29 10:35:35.218750000,-43.0,5.0,48.0,76.741875,-56.48,1.763228,33.65
2021-06-29 10:35:35.226562500,-43.0,5.0,48.0,76.74265625,-59.65,1.763228,33.65
2021-06-29 10:35:35.234375000,-43.0,5.0,48.0,76.7434375,-62.82,1.763228,33.65
2021-06-29 10:35:35.242187500,-43.0,5.0,48.0,76.74421875,-66.61,1.763228,33.65
2021-06-29 10:35:35.250000000,-43.0,5.0,48.0,76.745,-70.4,1.763228,33.65
2021-06-29 10:35:35.257812500,-43.0,4.75,48.0,76.74578125,-74.385,1.76318796875,33.65
2021-06-29 10:35:35.265625000,-43.0,4.5,48.0,76.7465625,-78.37,1.7631479375,33.65
2021-06-29 10:35:35.273437500,-43.0,4.25,48.0,76.74734375,-81.785,1.76310790625,33.65
2021-06-29 10:35:35.281250000,-43.0,4.0,48.0,76.748125,-85.2,1.763067875,33.65
2021-06-29 10:35:35.289062500,-43.0,4.25,48.0,76.74890624999999,-87.035,1.76302784375,33.65
2021-06-29 10:35:35.296875000,-43.0,4.5,48.0,76.7496875,-88.87,1.7629878125,33.65
2021-06-29 10:35:35.304687500,-43.0,4.75,48.0,76.75046875,-88.21000000000001,1.76294778125,33.65
2021-06-29 10:35:35.312500000,-43.0,5.0,48.0,76.75125,-87.55,1.76290775,33.65
2021-06-29 10:35:35.320312500,-43.0,5.0,48.0,76.75203125,-83.845,1.76286771875,33.65
2021-06-29 10:35:35.328125000,-43.0,5.0,48.0,76.75281249999999,-80.14,1.7628276875,33.65
2021-06-29 10:35:35.335937500,-43.0,5.0,48.0,76.75359375,-73.465,1.76278765625,33.65
2021-06-29 10:35:35.343750000,-43.0,5.0,48.0,76.754375,-66.79,1.762747625,33.65
2021-06-29 10:35:35.351562500,-43.0,5.0,48.0,76.75515625,-57.870000000000005,1.76270759375,33.65
2021-06-29 10:35:35.359375000,-43.0,5.0,48.0,76.7559375,-48.95,1.7626675625,33.65
2021-06-29 10:35:35.367187500,-43.0,5.0,48.0,76.75671874999999,-38.97,1.76262753125,33.65
2021-06-29 10:35:35.375000000,-43.0,5.0,48.0,76.7575,-28.99,1.7625875,33.65
2021-06-29 10:35:35.382812500,-43.0,4.75,48.0,76.75828125,-19.255,1.76254746875,33.65
2021-06-29 10:35:35.390625000,-43.0,4.5,48.0,76.7590625,-9.52,1.7625074375,33.65
2021-06-29 10:35:35.398437500,-43.0,4.25,48.0,76.75984375,-1.129999999999999,1.7624674062499999,33.65
2021-06-29 10:35:35.406250000,-43.0,4.0,48.0,76.76062499999999,7.26,1.762427375,33.65
2021-06-29 10:35:35.414062500,-43.0,4.25,48.0,76.76140625,13.669999999999998,1.76238734375,33.65
2021-06-29 10:35:35.421875000,-43.0,4.5,48.0,76.7621875,20.08,1.7623473125,33.65
2021-06-29 10:35:35.429687500,-43.0,4.75,48.0,76.76296875,24.36,1.76230728125,33.65
2021-06-29 10:35:35.437500000,-43.0,5.0,48.0,76.76375,28.64,1.7622672499999998,33.65
2021-06-29 10:35:35.445312500,-43.0,4.75,48.0,76.76453124999999,31.015,1.7622272187499999,33.65
2021-06-29 10:35:35.453125000,-43.0,4.5,48.0,76.7653125,33.39,1.7621871875,33.65
2021-06-29 10:35:35.460937500,-43.0,4.25,48.0,76.76609375,34.295,1.76214715625,33.65
2021-06-29 10:35:35.468750000,-43.0,4.0,48.0,76.766875,35.2,1.762107125,33.65
2021-06-29 10:35:35.476562500,-43.0,4.25,48.0,76.76765625,35.05,1.76206709375,33.65
2021-06-29 10:35:35.484375000,-43.0,4.5,48.0,76.76843749999999,34.9,1.7620270624999999,33.65
2021-06-29 10:35:35.492187500,-43.0,4.75,48.0,76.76921875,34.065,1.76198703125,33.65
