TimeStamp,empatica.acc.x,empatica.acc.y,empatica.acc.z,empatica.hr,empatica.bvp,empatica.eda,empatica.temp
2021-06-29 10:25:47.609375000,-37.0,5.0,52.0,76.4659375,-78.0,0.85772275,33.34
2021-06-29 10:25:47.617187500,-37.0,5.0,52.0,76.46421875,-75.83,0.857842875,33.34
2021-06-29 10:25:47.625000000,-37.0,5.0,52.0,76.46249999999999,-73.66,0.857963,33.34
2021-06-29 10:25:47.632812500,-37.0,5.0,52.0,76.46078125,-68.515,0.8580831250000001,33.34
2021-06-29 10:25:47.640625000,-37.0,5.0,52.0,76.4590625,-63.37,0.8582032500000001,33.34
2021-06-29 10:25:47.648437500,-37.0,5.0,52.0,76.45734374999999,-55.825,0.858323375,33.34
2021-06-29 10:25:47.656250000,-37.0,5.0,52.0,76.455625,-48.28,0.8584435,33.34
2021-06-29 10:25:47.664062500,-37.0,5.0,52.0,76.45390624999999,-39.33,0.858563625,33.34
2021-06-29 10:25:47.671875000,-37.0,5.0,52.0,76.4521875,-30.38,0.85868375,33.34
2021-06-29 10:25:47.679687500,-37.0,5.0,52.0,76.45046875,-21.134999999999998,0.858803875,33.34
2021-06-29 10:25:47.687500000,-37.0,5.0,52.0,76.44874999999999,-11.89,0.858924,33.34
2021-06-29 10:25:47.695312500,-37.0,5.0,52.0,76.44703125,-3.295,0.859044125,33.34
2021-06-29 10:25:47.703125000,-37.0,5.0,52.0,76.4453125,5.3,0.8591642500000001,33.34
2021-06-29 10:25:47.710937500,-37.0,5.0,52.0,76.44359374999999,12.614999999999998,0.859284375,33.34
2021-06-29 10:25:47.718750000,-37.0,5.0,52.0,76.441875,19.93,0.8594045,33.34
2021-06-29 10:25:47.726562500,-37.0,5.0,52.0,76.44015625,25.665,0.859524625,33.34
2021-06-29 10:25:47.734375000,-37.0,5.0,52.0,76.43843749999999,31.4,0.85964475,33.34
2021-06-29 10:25:47.742187500,-37.0,5.0,52.0,76.43671875,35.47,0.859764875,33.34
2021-06-29 10:25:47.750000000,-37.0,5.0,52.0,76.435,39.54,0.859885,33.34
2021-06-29 10:25:47.757812500,-37.0,5.0,52.25,76.43328125,42.01,0.85984496875,33.34
2021-06-29 10:25:47.765625000,-37.0,5.0,52.5,76.4315625,44.48,0.8598049375,33.34
2021-06-29 10:25:47.773437500,-37.0,5.0,52.75,76.42984374999999,45.5,0.85976490625,33.34
2021-06-29 10:25:47.781250000,-37.0,5.0,53.0,76.428125,46.52,0.859724875,33.34
2021-06-29 10:25:47.789062500,-37.0,5.0,52.75,76.42640625,46.375,0.85968484375,33.34
2021-06-29 10:25:47.796875000,-37.0,5.0,52.5,76.42468749999999,46.23,0.8596448125,33.34
2021-06-29 10:25:47.804687500,-37.0,5.0,52.25,76.42296875,45.325,0.8596047812500001,33.34
2021-06-29 10:25:47.812500000,-37.0,5.0,52.0,76.42125,44.42,0.85956475,33.34
2021-06-29 10:25:47.820312500,-37.0,5.0,52.0,76.41953124999999,43.230000000000004,0.85952471875,33.34
2021-06-29 10:25:47.828125000,-37.0,5.0,52.0,76.4178125,42.04,0.8594846875000001,33.34
2021-06-29 10:25:47.835937500,-37.0,5.0,52.0,76.41609375,41.0,0.85944465625,33.34
2021-06-29 10:25:47.843750000,-37.0,5.0,52.0,76.41437499999999,39.96,0.859404625,33.34
2021-06-29 10:25:47.851562500,-37.0,5.0,52.0,76.41265625,39.36,0.8593645937500001,33.34
2021-06-29 10:25:47.859375000,-37.0,5.0,52.0,76.41093749999999,38.76,0.8593245625,33.34
2021-06-29 10:25:47.867187500,-37.0,5.0,52.0,76.40921875,38.665,0.85928453125,33.34
2021-06-29 10:25:47.875000000,-37.0,5.0,52.0,76.4075,38.57,0.8592445,33.34
2021-06-29 10:25:47.882812500,-37.0,5.0,52.0,76.40578124999999,38.875,0.85920446875,33.34
2021-06-29 10:25:47.890625000,-37.0,5.0,52.0,76.4040625,39.18,0.8591644375,33.34
2021-06-29 10:25:47.898437500,-37.0,5.0,52.0,76.40234375,39.685,0.85912440625,33.34
2021-06-29 10:25:47.906250000,-37.0,5.0,52.0,76.40062499999999,40.19,0.859084375,33.34
2021-06-29 10:25:47.914062500,-37.0,5.0,52.0,76.39890625,40.675,0.85904434375,33.34
2021-06-29 10:25:47.921875000,-37.0,5.0,52.0,76.3971875,41.16,0.8590043125,33.34
2021-06-29 10:25:47.929687500,-37.0,5.0,52.0,76.39546874999999,41.459999999999994,0.85896428125,33.34
2021-06-29 10:25:47.937500000,-37.0,5.0,52.0,76.39375,41.76,0.8589242500000001,33.34
2021-06-29 10:25:47.945312500,-37.0,5.0,52.0,76.39203125,41.81,0.85888421875,33.34
2021-06-29 10:25:47.953125000,-37.0,5.0,52.0,76.3903125,41.86,0.8588441875,33.34
2021-06-29 10:25:47.960937500,-37.0,5.0,52.0,76.38859375,41.625,0.8588041562500001,33.34
2021-06-29 10:25:47.968750000,-37.0,5.0,52.0,76.38687499999999,41.39,0.858764125,33.34
2021-06-29 10:25:47.976562500,-37.0,5.0,52.0,76.38515625,40.875,0.85872409375,33.34
2021-06-29 10:25:47.984375000,-37.0,5.0,52.0,76.3834375,40.36,0.8586840625000001,33.34
2021-06-29 10:25:47.992187500,-37.0,5.0,52.0,76.38171874999999,39.575,0.85864403125,33.34
2021-06-29 10:25:48.000000000,-37.0,5.0,52.0,76.38,38.79,0.858604,33.34
2021-06-29 10:25:48.007812500,-37.0,5.0,52.0,76.378828125,37.71,0.8586840625000001,33.34
2021-06-29 10:25:48.015625000,-37.0,5.0,52.0,76.37765625,36.63,0.858764125,33.34
2021-06-29 10:25:48.023437500,-37.0,5.0,52.0,76.37648437499999,35.185,0.8588441875,33.34
2021-06-29 10:25:48.031250000,-37.0,5.0,52.0,76.37531249999999,33.74,0.8589242500000001,33.34
2021-06-29 10:25:48.039062500,-37.0,5.0,52.0,76.374140625,31.795,0.8590043125,33.34
2021-06-29 10:25:48.046875000,-37.0,5.0,52.0,76.37296875,29.85,0.859084375,33.34
2021-06-29 10:25:48.054687500,-37.0,5.0,52.0,76.371796875,27.275,0.8591644375,33.34
2021-06-29 10:25:48.062500000,-37.0,5.0,52.0,76.37062499999999,24.7,0.8592445,33.34
2021-06-29 10:25:48.070312500,-37.0,5.0,52.0,76.36945312499999,21.445,0.8593245625,33.34
2021-06-29 10:25:48.078125000,-37.0,5.0,52.0,76.36828125,18.19,0.859404625,33.34
2021-06-29 10:25:48.085937500,-37.0,5.0,52.0,76.367109375,14.350000000000001,0.8594846875000001,33.34
2021-06-29 10:25:48.093750000,-37.0,5.0,52.0,76.3659375,10.51,0.85956475,33.34
2021-06-29 10:25:48.101562500,-37.0,5.0,52.0,76.36476562499999,6.39,0.8596448125,33.34
2021-06-29 10:25:48.109375000,-37.0,5.0,52.0,76.36359374999999,2.27,0.859724875,33.34
2021-06-29 10:25:48.117187500,-37.0,5.0,52.0,76.362421875,-1.73,0.8598049375,33.34
2021-06-29 10:25:48.125000000,-37.0,5.0,52.0,76.36125,-5.73,0.859885,33.34
2021-06-29 10:25:48.132812500,-37.0,5.0,52.0,76.360078125,-9.21,0.8599650625,33.34
2021-06-29 10:25:48.140625000,-37.0,5.0,52.0,76.35890624999999,-12.69,0.860045125,33.34
2021-06-29 10:25:48.148437500,-37.0,5.0,52.0,76.35773437499999,-15.434999999999999,0.8601251875,33.34
2021-06-29 10:25:48.156250000,-37.0,5.0,52.0,76.3565625,-18.18,0.86020525,33.34
2021-06-29 10:25:48.164062500,-37.0,5.0,52.0,76.355390625,-20.265,0.8602853125,33.34
2021-06-29 10:25:48.171875000,-37.0,5.0,52.0,76.35421875,-22.35,0.860365375,33.34
2021-06-29 10:25:48.179687500,-37.0,5.0,52.0,76.353046875,-24.105,0.8604454375,33.34
2021-06-29 10:25:48.187500000,-37.0,5.0,52.0,76.35187499999999,-25.86,0.8605255,33.34
2021-06-29 10:25:48.195312500,-37.0,5.0,52.0,76.350703125,-27.78,0.8606055625,33.34
2021-06-29 10:25:48.203125000,-37.0,5.0,52.0,76.34953125,-29.7,0.860685625,33.34
2021-06-29 10:25:48.210937500,-37.0,5.0,52.0,76.348359375,-32.24,0.8607656875,33.34
2021-06-29 10:25:48.218750000,-37.0,5.0,52.0,76.3471875,-34.78,0.86084575,33.34
2021-06-29 10:25:48.226562500,-37.0,5.0,52.0,76.34601562499999,-38.195,0.8609258125,33.34
2021-06-29 10:25:48.234375000,-37.0,5.0,52.0,76.34484375,-41.61,0.861005875,33.34
2021-06-29 10:25:48.242187500,-37.0,5.0,52.0,76.343671875,-45.83,0.8610859375,33.34
2021-06-29 10:25:48.250000000,-37.0,5.0,52.0,76.3425,-50.05,0.861166,33.34
2021-06-29 10:25:48.257812500,-37.0,5.0,52.0,76.341328125,-54.675,0.8610859375,33.34
2021-06-29 10:25:48.265625000,-37.0,5.0,52.0,76.34015624999999,-59.3,0.861005875,33.34
2021-06-29 10:25:48.273437500,-37.0,5.0,52.0,76.338984375,-63.635,0.8609258125,33.34
2021-06-29 10:25:48.281250000,-37.0,5.0,52.0,76.3378125,-67.97,0.86084575,33.34
2021-06-29 10:25:48.289062500,-37.0,5.0,52.0,76.336640625,-71.14,0.8607656875,33.34
2021-06-29 10:25:48.296875000,-37.0,5.0,52.0,76.33546875,-74.31,0.860685625,33.34
2021-06-29 10:25:48.304687500,-37.0,5.0,52.0,76.33429687499999,-75.435,0.8606055625,33.34
2021-06-29 10:25:48.312500000,-37.0,5.0,52.0,76.333125,-76.56,0.8605255,33.34
2021-06-29 10:25:48.320312500,-37.0,5.0,52.0,76.331953125,-75.0,0.8604454375,33.34
2021-06-29 10:25:48.328125000,-37.0,5.0,52.0,76.33078125,-73.44,0.860365375,33.34
2021-06-29 10:25:48.335937500,-37.0,5.0,52.0,76.329609375,-68.97999999999999,0.8602853125,33.34
2021-06-29 10:25:48.343750000,-37.0,5.0,52.0,76.32843749999999,-64.52,0.86020525,33.34
2021-06-29 10:25:48.351562500,-37.0,5.0,52.0,76.327265625,-57.495,0.8601251875,33.34
2021-06-29 10:25:48.359375000,-37.0,5.0,52.0,76.32609375,-50.47,0.860045125,33.34
2021-06-29 10:25:48.367187500,-37.0,5.0,52.0,76.324921875,-41.715,0.8599650625,33.34
2021-06-29 10:25:48.375000000,-37.0,5.0,52.0,76.32375,-32.96,0.859885,33.34
2021-06-29 10:25:48.382812500,-37.0,5.0,52.0,76.32257812499999,-23.585,0.8598049375,33.34
2021-06-29 10:25:48.390625000,-37.0,5.0,52.0,76.32140625,-14.21,0.859724875,33.34
2021-06-29 10:25:48.398437500,-37.0,5.0,52.0,76.320234375,-5.32,0.8596448125,33.34
2021-06-29 10:25:48.406250000,-37.0,5.0,52.0,76.3190625,3.57,0.85956475,33.34
2021-06-29 10:25:48.414062500,-37.0,5.0,52.0,76.317890625,11.155,0.8594846875000001,33.34
2021-06-29 10:25:48.421875000,-37.0,5.0,52.0,76.31671874999999,18.74,0.859404625,33.34
2021-06-29 10:25:48.429687500,-37.0,5.0,52.0,76.315546875,24.615,0.8593245625,33.34
2021-06-29 10:25:48.437500000,-37.0,5.0,52.0,76.314375,30.49,0.8592445,33.34
2021-06-29 10:25:48.445312500,-37.0,5.0,52.0,76.313203125,34.63,0.8591644375,33.34
2021-06-29 10:25:48.453125000,-37.0,5.0,52.0,76.31203125,38.77,0.859084375,33.34
2021-06-29 10:25:48.460937500,-37.0,5.0,52.0,76.31085937499999,41.36,0.8590043125,33.34
2021-06-29 10:25:48.468750000,-37.0,5.0,52.0,76.3096875,43.95,0.8589242500000001,33.34
2021-06-29 10:25:48.476562500,-37.0,5.0,52.0,76.308515625,45.235,0.8588441875,33.34
2021-06-29 10:25:48.484375000,-37.0,5.0,52.0,76.30734375,46.52,0.858764125,33.34
2021-06-29 10:25:48.492187500,-37.0,5.0,52.0,76.306171875,46.715,0.8586840625000001,33.34
2021-06-29 10:25:48.500000000,-37.0,5.0,52.0,76.305,46.91,0.858604,33.34
2021-06-29 10:25:48.507812500,-37.0,5.0,52.0,76.303828125,46.215,0.8588041562500001,33.34
2021-06-29 10:25:48.515625000,-37.0,5.0,52.0,76.30265625,45.52,0.8590043125,33.34
2021-06-29 10:25:48.523437500,-37.0,5.0,52.0,76.301484375,44.2,0.85920446875,33.34
2021-06-29 10:25:48.531250000,-37.0,5.0,52.0,76.3003125,42.88,0.859404625,33.34
2021-06-29 10:25:48.539062500,-37.0,5.0,52.0,76.299140625,41.33,0.8596047812500001,33.34
2021-06-29 10:25:48.546875000,-37.0,5.0,52.0,76.29796875,39.78,0.8598049375000001,33.34
2021-06-29 10:25:48.554687500,-37.0,5.0,52.0,76.296796875,38.45,0.86000509375,33.34
2021-06-29 10:25:48.562500000,-37.0,5.0,52.0,76.295625,37.12,0.86020525,33.34
2021-06-29 10:25:48.570312500,-37.0,5.0,52.0,76.294453125,36.394999999999996,0.8604054062500001,33.34
2021-06-29 10:25:48.578125000,-37.0,5.0,52.0,76.29328125,35.67,0.8606055625,33.34
2021-06-29 10:25:48.585937500,-37.0,5.0,52.0,76.292109375,35.74,0.86080571875,33.34
2021-06-29 10:25:48.593750000,-37.0,5.0,52.0,76.2909375,35.81,0.861005875,33.34
2021-06-29 10:25:48.601562500,-36.75,5.0,52.0,76.289765625,36.6,0.8612060312500001,33.34
2021-06-29 10:25:48.609375000,-36.5,5.0,52.0,76.28859375,37.39,0.8614061875000001,33.34
2021-06-29 10:25:48.617187500,-36.25,5.0,52.0,76.287421875,38.575,0.86160634375,33.34
2021-06-29 10:25:48.625000000,-36.0,5.0,52.0,76.28625,39.76,0.8618065,33.34
2021-06-29 10:25:48.632812500,-36.25,5.0,52.0,76.285078125,40.94,0.8620066562500001,33.34
2021-06-29 10:25:48.640625000,-36.5,5.0,52.0,76.28390625,42.12,0.8622068125,33.34
2021-06-29 10:25:48.648437500,-36.75,5.0,52.0,76.282734375,42.93,0.86240696875,33.34
2021-06-29 10:25:48.656250000,-37.0,5.0,52.0,76.2815625,43.74,0.862607125,33.34
2021-06-29 10:25:48.664062500,-37.0,5.0,52.0,76.280390625,43.975,0.8628072812500001,33.34
2021-06-29 10:25:48.671875000,-37.0,5.0,52.0,76.27921875,44.21,0.8630074375000001,33.34
2021-06-29 10:25:48.679687500,-37.0,5.0,52.0,76.278046875,43.82,0.86320759375,33.34
2021-06-29 10:25:48.687500000,-37.0,5.0,52.0,76.276875,43.43,0.86340775,33.34
2021-06-29 10:25:48.695312500,-37.0,5.0,52.25,76.275703125,42.5,0.8636079062500001,33.34
2021-06-29 10:25:48.703125000,-37.0,5.0,52.5,76.27453125,41.57,0.8638080625,33.34
2021-06-29 10:25:48.710937500,-37.0,5.0,52.75,76.273359375,40.215,0.86400821875,33.34
2021-06-29 10:25:48.718750000,-37.0,5.0,53.0,76.2721875,38.86,0.864208375,33.34
2021-06-29 10:25:48.726562500,-37.0,5.0,52.75,76.271015625,37.16,0.8644085312500001,33.34
2021-06-29 10:25:48.734375000,-37.0,5.0,52.5,76.26984375,35.46,0.8646086875000001,33.34
2021-06-29 10:25:48.742187500,-37.0,5.0,52.25,76.268671875,33.45,0.86480884375,33.34
2021-06-29 10:25:48.750000000,-37.0,5.0,52.0,76.2675,31.44,0.865009,33.34
2021-06-29 10:25:48.757812500,-37.0,5.0,52.0,76.266328125,29.12,0.86488890625,33.34
2021-06-29 10:25:48.765625000,-37.0,5.0,52.0,76.26515625,26.8,0.8647688125,33.34
2021-06-29 10:25:48.773437500,-37.0,5.0,52.0,76.263984375,24.225,0.86464871875,33.34
2021-06-29 10:25:48.781250000,-37.0,5.0,52.0,76.2628125,21.65,0.864528625,33.34
2021-06-29 10:25:48.789062500,-37.0,5.0,52.0,76.261640625,18.884999999999998,0.8644085312500001,33.34
2021-06-29 10:25:48.796875000,-37.0,5.0,52.0,76.26046875,16.12,0.8642884375000001,33.34
2021-06-29 10:25:48.804687500,-37.0,5.0,52.0,76.259296875,13.3,0.8641683437500001,33.34
2021-06-29 10:25:48.812500000,-37.0,5.0,52.0,76.258125,10.48,0.86404825,33.34
2021-06-29 10:25:48.820312500,-37.0,5.0,52.0,76.256953125,7.720000000000001,0.86392815625,33.34
2021-06-29 10:25:48.828125000,-37.0,5.0,52.0,76.25578125,4.96,0.8638080625,33.34
2021-06-29 10:25:48.835937500,-37.0,5.0,52.0,76.254609375,2.33,0.86368796875,33.34
2021-06-29 10:25:48.843750000,-37.0,5.0,52.0,76.2534375,-0.3,0.863567875,33.34
2021-06-29 10:25:48.851562500,-37.0,5.0,52.0,76.252265625,-2.78,0.86344778125,33.34
2021-06-29 10:25:48.859375000,-37.0,5.0,52.0,76.25109375000001,-5.26,0.8633276875,33.34
2021-06-29 10:25:48.867187500,-37.0,5.0,52.0,76.249921875,-7.645,0.86320759375,33.34
2021-06-29 10:25:48.875000000,-37.0,5.0,52.0,76.24875,-10.03,0.8630875,33.34
2021-06-29 10:25:48.882812500,-37.0,5.0,52.0,76.247578125,-12.344999999999999,0.86296740625,33.34
2021-06-29 10:25:48.890625000,-37.0,5.0,52.0,76.24640625,-14.66,0.8628473125,33.34
2021-06-29 10:25:48.898437500,-37.0,5.0,52.0,76.24523437500001,-16.935000000000002,0.86272721875,33.34
2021-06-29 10:25:48.906250000,-37.0,5.0,52.0,76.2440625,-19.21,0.862607125,33.34
2021-06-29 10:25:48.914062500,-37.0,5.0,52.0,76.242890625,-21.43,0.86248703125,33.34
2021-06-29 10:25:48.921875000,-37.0,5.0,52.0,76.24171875,-23.65,0.8623669375,33.34
2021-06-29 10:25:48.929687500,-37.0,5.0,52.0,76.240546875,-25.81,0.86224684375,33.34
2021-06-29 10:25:48.937500000,-37.0,5.0,52.0,76.23937500000001,-27.97,0.86212675,33.34
2021-06-29 10:25:48.945312500,-37.0,5.0,52.0,76.238203125,-30.115,0.86200665625,33.34
2021-06-29 10:25:48.953125000,-37.0,5.0,52.0,76.23703125,-32.26,0.8618865625,33.34
2021-06-29 10:25:48.960937500,-37.0,5.0,52.0,76.235859375,-34.519999999999996,0.86176646875,33.34
2021-06-29 10:25:48.968750000,-37.0,5.0,52.0,76.2346875,-36.78,0.861646375,33.34
2021-06-29 10:25:48.976562500,-37.0,5.0,52.0,76.23351562500001,-39.34,0.86152628125,33.34
2021-06-29 10:25:48.984375000,-37.0,5.0,52.0,76.23234375,-41.9,0.8614061875,33.34
2021-06-29 10:25:48.992187500,-37.0,5.0,52.0,76.231171875,-44.989999999999995,0.86128609375,33.34
2021-06-29 10:25:49.000000000,-37.0,5.0,52.0,76.23,-48.08,0.861166,33.34
2021-06-29 10:25:49.007812500,-37.0,5.0,52.0,76.229921875,-51.84,0.8612460625,33.34
2021-06-29 10:25:49.015625000,-37.0,5.0,52.0,76.22984375,-55.6,0.8613261249999999,33.34
2021-06-29 10:25:49.023437500,-37.0,5.0,52.0,76.229765625,-59.980000000000004,0.8614061875,33.34
2021-06-29 10:25:49.031250000,-37.0,5.0,52.0,76.2296875,-64.36,0.86148625,33.34
2021-06-29 10:25:49.039062500,-37.0,5.0,52.0,76.22960937500001,-68.985,0.8615663125,33.34
2021-06-29 10:25:49.046875000,-37.0,5.0,52.0,76.22953125000001,-73.61,0.861646375,33.34
2021-06-29 10:25:49.054687500,-37.0,5.0,52.0,76.229453125,-77.775,0.8617264375,33.34
2021-06-29 10:25:49.062500000,-37.0,5.0,52.0,76.229375,-81.94,0.8618065,33.34
2021-06-29 10:25:49.070312500,-37.0,5.0,52.0,76.229296875,-84.69999999999999,0.8618865625,33.34
2021-06-29 10:25:49.078125000,-37.0,5.0,52.0,76.22921875,-87.46,0.861966625,33.34
2021-06-29 10:25:49.085937500,-37.0,5.0,52.0,76.229140625,-87.9,0.8620466875,33.34
2021-06-29 10:25:49.093750000,-37.0,5.0,52.0,76.2290625,-88.34,0.86212675,33.34
2021-06-29 10:25:49.101562500,-37.0,5.25,52.0,76.22898437500001,-85.855,0.8622068125,33.34
2021-06-29 10:25:49.109375000,-37.0,5.5,52.0,76.22890625000001,-83.37,0.862286875,33.34
2021-06-29 10:25:49.117187500,-37.0,5.75,52.0,76.228828125,-77.94,0.8623669375,33.34
2021-06-29 10:25:49.125000000,-37.0,6.0,52.0,76.22875,-72.51,0.862447,33.34
2021-06-29 10:25:49.132812500,-36.75,5.75,52.25,76.228671875,-64.705,0.8625270625,33.34
2021-06-29 10:25:49.140625000,-36.5,5.5,52.5,76.22859375,-56.9,0.862607125,33.34
2021-06-29 10:25:49.148437500,-36.25,5.25,52.75,76.228515625,-47.78,0.8626871875000001,33.34
2021-06-29 10:25:49.156250000,-36.0,5.0,53.0,76.2284375,-38.66,0.86276725,33.34
2021-06-29 10:25:49.164062500,-36.25,5.0,52.75,76.228359375,-29.39,0.8628473125,33.34
2021-06-29 10:25:49.171875000,-36.5,5.0,52.5,76.22828125000001,-20.12,0.862927375,33.34
2021-06-29 10:25:49.179687500,-36.75,5.0,52.25,76.22820312500001,-11.685,0.8630074375000001,33.34
2021-06-29 10:25:49.187500000,-37.0,5.0,52.0,76.228125,-3.25,0.8630875,33.34
2021-06-29 10:25:49.195312500,-36.75,5.0,52.25,76.228046875,3.7649999999999997,0.8631675625,33.34
2021-06-29 10:25:49.203125000,-36.5,5.0,52.5,76.22796875,10.78,0.8632476250000001,33.34
2021-06-29 10:25:49.210937500,-36.25,5.0,52.75,76.227890625,16.175,0.8633276875,33.34
2021-06-29 10:25:49.218750000,-36.0,5.0,53.0,76.2278125,21.57,0.86340775,33.34
2021-06-29 10:25:49.226562500,-36.25,5.0,52.75,76.227734375,25.365000000000002,0.8634878125000001,33.34
2021-06-29 10:25:49.234375000,-36.5,5.0,52.5,76.22765625000001,29.16,0.8635678750000001,33.34
2021-06-29 10:25:49.242187500,-36.75,5.0,52.25,76.22757812500001,31.475,0.8636479375,33.34
2021-06-29 10:25:49.250000000,-37.0,5.0,52.0,76.2275,33.79,0.863728,33.34
2021-06-29 10:25:49.257812500,-37.0,5.0,52.0,76.227421875,34.71,0.8636479375,33.34
2021-06-29 10:25:49.265625000,-37.0,5.0,52.0,76.22734375,35.63,0.8635678750000001,33.34
2021-06-29 10:25:49.273437500,-37.0,5.0,52.0,76.227265625,35.28,0.8634878125000001,33.34
2021-06-29 10:25:49.281250000,-37.0,5.0,52.0,76.2271875,34.93,0.86340775,33.34
2021-06-29 10:25:49.289062500,-37.0,5.0,52.25,76.227109375,33.525,0.8633276875,33.34
2021-06-29 10:25:49.296875000,-37.0,5.0,52.5,76.22703125,32.12,0.8632476250000001,33.34
2021-06-29 10:25:49.304687500,-37.0,5.0,52.75,76.22695312500001,30.04,0.8631675625,33.34
2021-06-29 10:25:49.312500000,-37.0,5.0,53.0,76.226875,27.96,0.8630875,33.34
2021-06-29 10:25:49.320312500,-37.0,5.0,52.75,76.226796875,25.75,0.8630074375000001,33.34
2021-06-29 10:25:49.328125000,-37.0,5.0,52.5,76.22671875,23.54,0.862927375,33.34
2021-06-29 10:25:49.335937500,-37.0,5.0,52.25,76.226640625,21.79,0.8628473125,33.34
2021-06-29 10:25:49.343750000,-37.0,5.0,52.0,76.2265625,20.04,0.86276725,33.34
2021-06-29 10:25:49.351562500,-37.0,5.0,52.0,76.226484375,19.27,0.8626871875000001,33.34
2021-06-29 10:25:49.359375000,-37.0,5.0,52.0,76.22640625,18.5,0.862607125,33.34
2021-06-29 10:25:49.367187500,-37.0,5.0,52.0,76.22632812500001,18.975,0.8625270625,33.34
2021-06-29 10:25:49.375000000,-37.0,5.0,52.0,76.22625000000001,19.45,0.862447,33.34
2021-06-29 10:25:49.382812500,-37.0,5.0,52.0,76.226171875,21.085,0.8623669375,33.34
2021-06-29 10:25:49.390625000,-37.0,5.0,52.0,76.22609375,22.72,0.862286875,33.34
2021-06-29 10:25:49.398437500,-37.0,5.0,52.0,76.226015625,25.104999999999997,0.8622068125,33.34
2021-06-29 10:25:49.406250000,-37.0,5.0,52.0,76.2259375,27.49,0.86212675,33.34
2021-06-29 10:25:49.414062500,-37.0,5.0,52.0,76.225859375,30.015,0.8620466875,33.34
2021-06-29 10:25:49.421875000,-37.0,5.0,52.0,76.22578125,32.54,0.861966625,33.34
2021-06-29 10:25:49.429687500,-37.0,5.0,52.0,76.225703125,34.585,0.8618865625,33.34
2021-06-29 10:25:49.437500000,-37.0,5.0,52.0,76.22562500000001,36.63,0.8618065,33.34
2021-06-29 10:25:49.445312500,-37.0,5.0,52.0,76.225546875,37.769999999999996,0.8617264375,33.34
2021-06-29 10:25:49.453125000,-37.0,5.0,52.0,76.22546875,38.91,0.861646375,33.34
2021-06-29 10:25:49.460937500,-37.0,5.0,52.0,76.225390625,39.004999999999995,0.8615663125,33.34
2021-06-29 10:25:49.468750000,-37.0,5.0,52.0,76.2253125,39.1,0.86148625,33.34
2021-06-29 10:25:49.476562500,-37.0,5.0,52.0,76.225234375,38.275000000000006,0.8614061875,33.34
2021-06-29 10:25:49.484375000,-37.0,5.0,52.0,76.22515625,37.45,0.8613261249999999,33.34
2021-06-29 10:25:49.492187500,-37.0,5.0,52.0,76.225078125,35.95,0.8612460625,33.34
2021-06-29 10:25:49.500000000,-37.0,5.0,52.0,76.225,34.45,0.861166,33.34
2021-06-29 10:25:49.507812500,-37.0,5.0,52.25,76.224921875,32.495000000000005,0.86128609375,33.34
2021-06-29 10:25:49.515625000,-37.0,5.0,52.5,76.22484375,30.54,0.8614061875,33.34
2021-06-29 10:25:49.523437500,-37.0,5.0,52.75,76.224765625,28.22,0.86152628125,33.34
2021-06-29 10:25:49.531250000,-37.0,5.0,53.0,76.2246875,25.9,0.861646375,33.34
2021-06-29 10:25:49.539062500,-37.0,5.0,52.75,76.224609375,23.225,0.86176646875,33.34
2021-06-29 10:25:49.546875000,-37.0,5.0,52.5,76.22453125,20.55,0.8618865625,33.34
2021-06-29 10:25:49.554687500,-37.0,5.0,52.25,76.224453125,17.5,0.86200665625,33.34
2021-06-29 10:25:49.562500000,-37.0,5.0,52.0,76.224375,14.45,0.86212675,33.34
2021-06-29 10:25:49.570312500,-37.0,5.0,52.0,76.22429687500001,11.094999999999999,0.86224684375,33.34
2021-06-29 10:25:49.578125000,-37.0,5.0,52.0,76.22421875,7.74,0.8623669375,33.34
2021-06-29 10:25:49.585937500,-37.0,5.0,52.0,76.224140625,4.255,0.86248703125,33.34
2021-06-29 10:25:49.593750000,-37.0,5.0,52.0,76.2240625,0.77,0.862607125,33.34
2021-06-29 10:25:49.601562500,-37.0,5.0,52.0,76.223984375,-2.6300000000000003,0.86272721875,33.34
2021-06-29 10:25:49.609375000,-37.0,5.0,52.0,76.22390625,-6.03,0.8628473125,33.34
2021-06-29 10:25:49.617187500,-37.0,5.0,52.0,76.223828125,-9.14,0.86296740625,33.34
2021-06-29 10:25:49.625000000,-37.0,5.0,52.0,76.22375,-12.25,0.8630875,33.34
2021-06-29 10:25:49.632812500,-36.75,5.0,52.0,76.223671875,-14.96,0.86320759375,33.34
2021-06-29 10:25:49.640625000,-36.5,5.0,52.0,76.22359375,-17.67,0.8633276875,33.34
2021-06-29 10:25:49.648437500,-36.25,5.0,52.0,76.223515625,-19.985,0.86344778125,33.34
2021-06-29 10:25:49.656250000,-36.0,5.0,52.0,76.2234375,-22.3,0.863567875,33.34
2021-06-29 10:25:49.664062500,-36.25,5.0,52.0,76.223359375,-24.29,0.86368796875,33.34
2021-06-29 10:25:49.671875000,-36.5,5.0,52.0,76.22328125,-26.28,0.8638080625,33.34
2021-06-29 10:25:49.679687500,-36.75,5.0,52.0,76.223203125,-28.060000000000002,0.86392815625,33.34
2021-06-29 10:25:49.687500000,-37.0,5.0,52.0,76.223125,-29.84,0.86404825,33.34
2021-06-29 10:25:49.695312500,-37.0,5.0,52.0,76.223046875,-31.564999999999998,0.8641683437500001,33.34
2021-06-29 10:25:49.703125000,-37.0,5.0,52.0,76.22296875,-33.29,0.8642884375000001,33.34
2021-06-29 10:25:49.710937500,-37.0,5.0,52.0,76.222890625,-35.144999999999996,0.8644085312500001,33.34
2021-06-29 10:25:49.718750000,-37.0,5.0,52.0,76.2228125,-37.0,0.864528625,33.34
2021-06-29 10:25:49.726562500,-37.0,5.0,52.0,76.222734375,-39.2,0.86464871875,33.34
2021-06-29 10:25:49.734375000,-37.0,5.0,52.0,76.22265625,-41.4,0.8647688125,33.34
2021-06-29 10:25:49.742187500,-37.0,5.0,52.0,76.222578125,-44.17,0.86488890625,33.34
2021-06-29 10:25:49.750000000,-37.0,5.0,52.0,76.2225,-46.94,0.865009,33.34
2021-06-29 10:25:49.757812500,-37.0,5.0,52.0,76.222421875,-50.37,0.86504903125,33.34
2021-06-29 10:25:49.765625000,-37.0,5.0,52.0,76.22234375,-53.8,0.8650890625000001,33.34
2021-06-29 10:25:49.773437500,-37.0,5.0,52.0,76.222265625,-57.73,0.86512909375,33.34
2021-06-29 10:25:49.781250000,-37.0,5.0,52.0,76.2221875,-61.66,0.865169125,33.34
2021-06-29 10:25:49.789062500,-37.0,5.0,52.0,76.222109375,-65.56,0.86520915625,33.34
2021-06-29 10:25:49.796875000,-37.0,5.0,52.0,76.22203125,-69.46,0.8652491875,33.34
2021-06-29 10:25:49.804687500,-37.0,5.0,52.0,76.221953125,-72.455,0.86528921875,33.34
2021-06-29 10:25:49.812500000,-37.0,5.0,52.0,76.221875,-75.45,0.86532925,33.34
2021-06-29 10:25:49.820312500,-37.0,5.0,52.0,76.221796875,-76.53,0.86536928125,33.34
2021-06-29 10:25:49.828125000,-37.0,5.0,52.0,76.22171875,-77.61,0.8654093125,33.34
2021-06-29 10:25:49.835937500,-37.0,5.0,52.0,76.221640625,-75.965,0.86544934375,33.34
2021-06-29 10:25:49.843750000,-37.0,5.0,52.0,76.2215625,-74.32,0.865489375,33.34
2021-06-29 10:25:49.851562500,-37.0,5.0,52.0,76.221484375,-69.655,0.86552940625,33.34
2021-06-29 10:25:49.859375000,-37.0,5.0,52.0,76.22140625,-64.99,0.8655694375,33.34
2021-06-29 10:25:49.867187500,-37.0,5.0,52.0,76.221328125,-57.72,0.86560946875,33.34
2021-06-29 10:25:49.875000000,-37.0,5.0,52.0,76.22125,-50.45,0.8656495,33.34
2021-06-29 10:25:49.882812500,-37.0,5.0,52.25,76.221171875,-41.575,0.86568953125,33.34
2021-06-29 10:25:49.890625000,-37.0,5.0,52.5,76.22109375,-32.7,0.8657295625,33.34
2021-06-29 10:25:49.898437500,-37.0,5.0,52.75,76.22101562499999,-23.475,0.8657695937500001,33.34
2021-06-29 10:25:49.906250000,-37.0,5.0,53.0,76.2209375,-14.25,0.865809625,33.34
2021-06-29 10:25:49.914062500,-37.0,5.0,52.75,76.220859375,-5.789999999999999,0.86584965625,33.34
2021-06-29 10:25:49.921875000,-37.0,5.0,52.5,76.22078125,2.67,0.8658896875000001,33.34
2021-06-29 10:25:49.929687500,-37.0,5.0,52.25,76.220703125,9.7,0.86592971875,33.34
2021-06-29 10:25:49.937500000,-37.0,5.0,52.0,76.220625,16.73,0.86596975,33.34
2021-06-29 10:25:49.945312500,-37.0,5.0,52.0,76.220546875,22.130000000000003,0.86600978125,33.34
2021-06-29 10:25:49.953125000,-37.0,5.0,52.0,76.22046875,27.53,0.8660498125,33.34
2021-06-29 10:25:49.960937500,-37.0,5.0,52.0,76.220390625,31.41,0.86608984375,33.34
2021-06-29 10:25:49.968750000,-37.0,5.0,52.0,76.2203125,35.29,0.866129875,33.34
2021-06-29 10:25:49.976562500,-37.0,5.0,52.25,76.220234375,37.835,0.86616990625,33.34
2021-06-29 10:25:49.984375000,-37.0,5.0,52.5,76.22015625,40.38,0.8662099375,33.34
2021-06-29 10:25:49.992187500,-37.0,5.0,52.75,76.220078125,41.675,0.86624996875,33.34
2021-06-29 10:25:50.000000000,-37.0,5.0,53.0,76.22,42.97,0.86629,33.34
2021-06-29 10:25:50.007812500,-37.0,5.0,52.75,76.21984375,43.07,0.86629,33.34
2021-06-29 10:25:50.015625000,-37.0,5.0,52.5,76.21968749999999,43.17,0.86629,33.34
2021-06-29 10:25:50.023437500,-37.0,5.0,52.25,76.21953125,42.2,0.86629,33.34
2021-06-29 10:25:50.031250000,-37.0,5.0,52.0,76.219375,41.23,0.86629,33.34
2021-06-29 10:25:50.039062500,-37.0,5.0,52.25,76.21921875,39.51,0.86629,33.34
2021-06-29 10:25:50.046875000,-37.0,5.0,52.5,76.21906249999999,37.79,0.86629,33.34
2021-06-29 10:25:50.054687500,-37.0,5.0,52.75,76.21890625,35.83,0.86629,33.34
2021-06-29 10:25:50.062500000,-37.0,5.0,53.0,76.21875,33.87,0.86629,33.34
2021-06-29 10:25:50.070312500,-36.75,5.0,52.75,76.21859375,32.245,0.86629,33.34
2021-06-29 10:25:50.078125000,-36.5,5.0,52.5,76.2184375,30.62,0.86629,33.34
2021-06-29 10:25:50.085937500,-36.25,5.0,52.25,76.21828125,29.79,0.86629,33.34
2021-06-29 10:25:50.093750000,-36.0,5.0,52.0,76.218125,28.96,0.86629,33.34
2021-06-29 10:25:50.101562500,-36.25,5.0,52.25,76.21796875,29.085,0.86629,33.34
2021-06-29 10:25:50.109375000,-36.5,5.0,52.5,76.2178125,29.21,0.86629,33.34
2021-06-29 10:25:50.117187500,-36.75,5.0,52.75,76.21765625,30.125,0.86629,33.34
2021-06-29 10:25:50.125000000,-37.0,5.0,53.0,76.2175,31.04,0.86629,33.34
2021-06-29 10:25:50.132812500,-37.0,5.0,53.0,76.21734375,32.349999999999994,0.86629,33.34
2021-06-29 10:25:50.140625000,-37.0,5.0,53.0,76.2171875,33.66,0.86629,33.34
2021-06-29 10:25:50.148437500,-37.0,5.0,53.0,76.21703125,34.89,0.86629,33.34
2021-06-29 10:25:50.156250000,-37.0,5.0,53.0,76.216875,36.12,0.86629,33.34
2021-06-29 10:25:50.164062500,-37.0,5.0,53.0,76.21671875,36.885,0.86629,33.34
2021-06-29 10:25:50.171875000,-37.0,5.0,53.0,76.2165625,37.65,0.86629,33.34
2021-06-29 10:25:50.179687500,-37.0,5.0,53.0,76.21640625,37.75,0.86629,33.34
2021-06-29 10:25:50.187500000,-37.0,5.0,53.0,76.21625,37.85,0.86629,33.34
2021-06-29 10:25:50.195312500,-37.0,5.0,52.75,76.21609375,37.28,0.86629,33.34
2021-06-29 10:25:50.203125000,-37.0,5.0,52.5,76.2159375,36.71,0.86629,33.34
2021-06-29 10:25:50.210937500,-37.0,5.0,52.25,76.21578125,35.620000000000005,0.86629,33.34
2021-06-29 10:25:50.218750000,-37.0,5.0,52.0,76.215625,34.53,0.86629,33.34
2021-06-29 10:25:50.226562500,-37.0,5.0,52.0,76.21546875,33.09,0.86629,33.34
2021-06-29 10:25:50.234375000,-37.0,5.0,52.0,76.2153125,31.65,0.86629,33.34
2021-06-29 10:25:50.242187500,-37.0,5.0,52.0,76.21515625,29.96,0.86629,33.34
2021-06-29 10:25:50.250000000,-37.0,5.0,52.0,76.215,28.27,0.86629,33.34
2021-06-29 10:25:50.257812500,-37.0,5.0,52.25,76.21484375,26.33,0.86629,33.34
2021-06-29 10:25:50.265625000,-37.0,5.0,52.5,76.2146875,24.39,0.86629,33.34
2021-06-29 10:25:50.273437500,-37.0,5.0,52.75,76.21453125,22.095,0.86629,33.34
2021-06-29 10:25:50.281250000,-37.0,5.0,53.0,76.214375,19.8,0.86629,33.34
2021-06-29 10:25:50.289062500,-37.0,5.0,52.75,76.21421875,17.045,0.86629,33.34
2021-06-29 10:25:50.296875000,-37.0,5.0,52.5,76.2140625,14.29,0.86629,33.34
2021-06-29 10:25:50.304687500,-37.0,5.0,52.25,76.21390625,11.075,0.86629,33.34
2021-06-29 10:25:50.312500000,-37.0,5.0,52.0,76.21375,7.86,0.86629,33.34
2021-06-29 10:25:50.320312500,-37.0,5.0,52.25,76.21359375,4.32,0.86629,33.34
2021-06-29 10:25:50.328125000,-37.0,5.0,52.5,76.2134375,0.78,0.86629,33.34
2021-06-29 10:25:50.335937500,-37.0,5.0,52.75,76.21328125,-2.825,0.86629,33.34
2021-06-29 10:25:50.343750000,-37.0,5.0,53.0,76.213125,-6.43,0.86629,33.34
2021-06-29 10:25:50.351562500,-37.0,5.0,52.75,76.21296875,-9.805,0.86629,33.34
2021-06-29 10:25:50.359375000,-37.0,5.0,52.5,76.2128125,-13.18,0.86629,33.34
2021-06-29 10:25:50.367187500,-37.0,5.0,52.25,76.21265625,-16.105,0.86629,33.34
2021-06-29 10:25:50.375000000,-37.0,5.0,52.0,76.2125,-19.03,0.86629,33.34
2021-06-29 10:25:50.382812500,-37.0,5.0,52.0,76.21234375,-21.475,0.86629,33.34
2021-06-29 10:25:50.390625000,-37.0,5.0,52.0,76.2121875,-23.92,0.86629,33.34
2021-06-29 10:25:50.398437500,-37.0,5.0,52.0,76.21203125,-26.03,0.86629,33.34
2021-06-29 10:25:50.406250000,-37.0,5.0,52.0,76.211875,-28.14,0.86629,33.34
2021-06-29 10:25:50.414062500,-37.0,5.0,52.0,76.21171875,-30.225,0.86629,33.34
2021-06-29 10:25:50.421875000,-37.0,5.0,52.0,76.2115625,-32.31,0.86629,33.34
2021-06-29 10:25:50.429687500,-37.0,5.0,52.0,76.21140625,-34.71,0.86629,33.34
2021-06-29 10:25:50.437500000,-37.0,5.0,52.0,76.21125,-37.11,0.86629,33.34
2021-06-29 10:25:50.445312500,-37.0,5.0,52.0,76.21109375,-40.114999999999995,0.86629,33.34
2021-06-29 10:25:50.453125000,-37.0,5.0,52.0,76.2109375,-43.12,0.86629,33.34
2021-06-29 10:25:50.460937500,-37.0,5.0,52.0,76.21078125,-46.879999999999995,0.86629,33.34
2021-06-29 10:25:50.468750000,-37.0,5.0,52.0,76.21062500000001,-50.64,0.86629,33.34
2021-06-29 10:25:50.476562500,-37.0,5.0,52.0,76.21046875,-55.075,0.86629,33.34
2021-06-29 10:25:50.484375000,-37.0,5.0,52.0,76.2103125,-59.51,0.86629,33.34
2021-06-29 10:25:50.492187500,-37.0,5.0,52.0,76.21015625,-64.3,0.86629,33.34
2021-06-29 10:25:50.500000000,-37.0,5.0,52.0,76.21000000000001,-69.09,0.86629,33.34
2021-06-29 10:25:50.507812500,-37.0,5.0,52.25,76.20984375,-73.65,0.86629,33.34
2021-06-29 10:25:50.515625000,-37.0,5.0,52.5,76.2096875,-78.21,0.86629,33.34
2021-06-29 10:25:50.523437500,-37.0,5.0,52.75,76.20953125,-81.75,0.86629,33.34
2021-06-29 10:25:50.531250000,-37.0,5.0,53.0,76.209375,-85.29,0.86629,33.34
2021-06-29 10:25:50.539062500,-37.0,5.0,52.75,76.20921875,-86.965,0.86629,33.34
2021-06-29 10:25:50.546875000,-37.0,5.0,52.5,76.2090625,-88.64,0.86629,33.34
2021-06-29 10:25:50.554687500,-37.0,5.0,52.25,76.20890625,-87.74000000000001,0.86629,33.34
2021-06-29 10:25:50.562500000,-37.0,5.0,52.0,76.20875,-86.84,0.86629,33.34
2021-06-29 10:25:50.570312500,-37.0,5.0,52.0,76.20859375,-83.03,0.86629,33.34
2021-06-29 10:25:50.578125000,-37.0,5.0,52.0,76.2084375,-79.22,0.86629,33.34
2021-06-29 10:25:50.585937500,-37.0,5.0,52.0,76.20828125,-72.65,0.86629,33.34
2021-06-29 10:25:50.593750000,-37.0,5.0,52.0,76.208125,-66.08,0.86629,33.34
2021-06-29 10:25:50.601562500,-37.0,5.0,52.0,76.20796875,-57.41,0.86629,33.34
2021-06-29 10:25:50.609375000,-37.0,5.0,52.0,76.2078125,-48.74,0.86629,33.34
2021-06-29 10:25:50.617187500,-37.0,5.0,52.0,76.20765625,-39.010000000000005,0.86629,33.34
2021-06-29 10:25:50.625000000,-37.0,5.0,52.0,76.2075,-29.28,0.86629,33.34
2021-06-29 10:25:50.632812500,-37.0,5.0,52.0,76.20734375,-19.595,0.86629,33.34
2021-06-29 10:25:50.640625000,-37.0,5.0,52.0,76.2071875,-9.91,0.86629,33.34
2021-06-29 10:25:50.648437500,-37.0,5.0,52.0,76.20703125,-1.2200000000000006,0.86629,33.34
2021-06-29 10:25:50.656250000,-37.0,5.0,52.0,76.206875,7.47,0.86629,33.34
2021-06-29 10:25:50.664062500,-37.0,5.0,52.0,76.20671875000001,14.594999999999999,0.86629,33.34
2021-06-29 10:25:50.671875000,-37.0,5.0,52.0,76.2065625,21.72,0.86629,33.34
2021-06-29 10:25:50.679687500,-37.0,5.0,52.0,76.20640625,27.08,0.86629,33.34
2021-06-29 10:25:50.687500000,-37.0,5.0,52.0,76.20625,32.44,0.86629,33.34
2021-06-29 10:25:50.695312500,-37.0,5.0,52.0,76.20609375000001,36.135,0.86629,33.34
2021-06-29 10:25:50.703125000,-37.0,5.0,52.0,76.2059375,39.83,0.86629,33.34
2021-06-29 10:25:50.710937500,-37.0,5.0,52.0,76.20578125,42.085,0.86629,33.34
2021-06-29 10:25:50.718750000,-37.0,5.0,52.0,76.205625,44.34,0.86629,33.34
2021-06-29 10:25:50.726562500,-37.0,5.0,52.0,76.20546875000001,45.405,0.86629,33.34
2021-06-29 10:25:50.734375000,-37.0,5.0,52.0,76.2053125,46.47,0.86629,33.34
2021-06-29 10:25:50.742187500,-37.0,5.0,52.0,76.20515625,46.55,0.86629,33.34
2021-06-29 10:25:50.750000000,-37.0,5.0,52.0,76.205,46.63,0.86629,33.34
2021-06-29 10:25:50.757812500,-37.0,5.0,52.0,76.20484375,45.945,0.86633003125,33.34
2021-06-29 10:25:50.765625000,-37.0,5.0,52.0,76.2046875,45.26,0.8663700625,33.34
2021-06-29 10:25:50.773437500,-37.0,5.0,52.0,76.20453125,44.099999999999994,0.86641009375,33.34
2021-06-29 10:25:50.781250000,-37.0,5.0,52.0,76.204375,42.94,0.866450125,33.34
2021-06-29 10:25:50.789062500,-37.0,5.0,52.0,76.20421875,41.635,0.86649015625,33.34
2021-06-29 10:25:50.796875000,-37.0,5.0,52.0,76.2040625,40.33,0.8665301875,33.34
2021-06-29 10:25:50.804687500,-37.0,5.0,52.0,76.20390625,39.230000000000004,0.86657021875,33.34
2021-06-29 10:25:50.812500000,-37.0,5.0,52.0,76.20375,38.13,0.86661025,33.34
2021-06-29 10:25:50.820312500,-37.0,5.0,52.0,76.20359375,37.495000000000005,0.86665028125,33.34
2021-06-29 10:25:50.828125000,-37.0,5.0,52.0,76.2034375,36.86,0.8666903125,33.34
2021-06-29 10:25:50.835937500,-37.0,5.0,52.0,76.20328125,36.785,0.86673034375,33.34
2021-06-29 10:25:50.843750000,-37.0,5.0,52.0,76.203125,36.71,0.866770375,33.34
2021-06-29 10:25:50.851562500,-37.0,5.0,52.0,76.20296875,37.11,0.8668104062499999,33.34
2021-06-29 10:25:50.859375000,-37.0,5.0,52.0,76.20281250000001,37.51,0.8668504375,33.34
2021-06-29 10:25:50.867187500,-37.0,5.0,52.0,76.20265625,38.144999999999996,0.86689046875,33.34
2021-06-29 10:25:50.875000000,-37.0,5.0,52.0,76.2025,38.78,0.8669305,33.34
2021-06-29 10:25:50.882812500,-37.0,5.0,52.0,76.20234375,39.375,0.86697053125,33.34
2021-06-29 10:25:50.890625000,-37.0,5.0,52.0,76.20218750000001,39.97,0.8670105625,33.34
2021-06-29 10:25:50.898437500,-37.0,5.0,52.0,76.20203125,40.305,0.86705059375,33.34
2021-06-29 10:25:50.906250000,-37.0,5.0,52.0,76.201875,40.64,0.867090625,33.34
2021-06-29 10:25:50.914062500,-37.0,5.0,52.0,76.20171875,40.59,0.86713065625,33.34
2021-06-29 10:25:50.921875000,-37.0,5.0,52.0,76.20156250000001,40.54,0.8671706875,33.34
2021-06-29 10:25:50.929687500,-37.0,5.0,52.0,76.20140625,40.099999999999994,0.86721071875,33.34
2021-06-29 10:25:50.937500000,-37.0,5.0,52.0,76.20125,39.66,0.86725075,33.34
2021-06-29 10:25:50.945312500,-37.0,5.0,52.0,76.20109375,38.879999999999995,0.86729078125,33.34
2021-06-29 10:25:50.953125000,-37.0,5.0,52.0,76.20093750000001,38.1,0.8673308125,33.34
2021-06-29 10:25:50.960937500,-37.0,5.0,52.0,76.20078125,37.05,0.86737084375,33.34
2021-06-29 10:25:50.968750000,-37.0,5.0,52.0,76.200625,36.0,0.867410875,33.34
2021-06-29 10:25:50.976562500,-36.75,5.0,52.0,76.20046875,34.715,0.86745090625,33.34
2021-06-29 10:25:50.984375000,-36.5,5.0,52.0,76.20031250000001,33.43,0.8674909375,33.34
2021-06-29 10:25:50.992187500,-36.25,5.0,52.0,76.20015625,31.895,0.86753096875,33.34
2021-06-29 10:25:51.000000000,-36.0,5.0,52.0,76.2,30.36,0.867571,33.34
2021-06-29 10:25:51.007812500,-36.25,5.0,52.25,76.20015625,28.509999999999998,0.8676110312499999,33.34
2021-06-29 10:25:51.015625000,-36.5,5.0,52.5,76.20031250000001,26.66,0.8676510625,33.34
2021-06-29 10:25:51.023437500,-36.75,5.0,52.75,76.20046875,24.445,0.86769109375,33.34
2021-06-29 10:25:51.031250000,-37.0,5.0,53.0,76.200625,22.23,0.8677311249999999,33.34
2021-06-29 10:25:51.039062500,-37.0,5.0,52.75,76.20078125,19.625,0.86777115625,33.34
2021-06-29 10:25:51.046875000,-37.0,5.0,52.5,76.20093750000001,17.02,0.8678111875,33.34
2021-06-29 10:25:51.054687500,-37.0,5.0,52.25,76.20109375,14.1,0.8678512187499999,33.34
2021-06-29 10:25:51.062500000,-37.0,5.0,52.0,76.20125,11.18,0.86789125,33.34
2021-06-29 10:25:51.070312500,-37.0,5.0,52.0,76.20140625,8.07,0.86793128125,33.34
2021-06-29 10:25:51.078125000,-37.0,5.0,52.0,76.20156250000001,4.96,0.8679713124999999,33.34
2021-06-29 10:25:51.085937500,-37.0,5.0,52.0,76.20171875,1.83,0.86801134375,33.34
2021-06-29 10:25:51.093750000,-37.0,5.0,52.0,76.201875,-1.3,0.868051375,33.34
2021-06-29 10:25:51.101562500,-37.0,5.0,52.0,76.20203125,-4.305,0.8680914062499999,33.34
2021-06-29 10:25:51.109375000,-37.0,5.0,52.0,76.20218750000001,-7.31,0.8681314375,33.34
2021-06-29 10:25:51.117187500,-37.0,5.0,52.0,76.20234375,-10.115,0.86817146875,33.34
2021-06-29 10:25:51.125000000,-37.0,5.0,52.0,76.2025,-12.92,0.8682114999999999,33.34
2021-06-29 10:25:51.132812500,-37.0,5.0,52.25,76.20265625,-15.510000000000002,0.86825153125,33.34
2021-06-29 10:25:51.140625000,-37.0,5.0,52.5,76.20281250000001,-18.1,0.8682915625,33.34
2021-06-29 10:25:51.148437500,-37.0,5.0,52.75,76.20296875,-20.54,0.86833159375,33.34
2021-06-29 10:25:51.156250000,-37.0,5.0,53.0,76.203125,-22.98,0.868371625,33.34
2021-06-29 10:25:51.164062500,-37.0,5.0,52.75,76.20328125,-25.380000000000003,0.8684116562499999,33.34
2021-06-29 10:25:51.171875000,-37.0,5.0,52.5,76.2034375,-27.78,0.8684516875,33.34
2021-06-29 10:25:51.179687500,-37.0,5.0,52.25,76.20359375,-30.275000000000002,0.86849171875,33.34
2021-06-29 10:25:51.187500000,-37.0,5.0,52.0,76.20375,-32.77,0.8685317499999999,33.34
2021-06-29 10:25:51.195312500,-37.0,5.0,52.25,76.20390625,-35.53,0.86857178125,33.34
2021-06-29 10:25:51.203125000,-37.0,5.0,52.5,76.2040625,-38.29,0.8686118125,33.34
2021-06-29 10:25:51.210937500,-37.0,5.0,52.75,76.20421875,-41.495000000000005,0.8686518437499999,33.34
2021-06-29 10:25:51.218750000,-37.0,5.0,53.0,76.204375,-44.7,0.868691875,33.34
2021-06-29 10:25:51.226562500,-37.0,5.0,53.0,76.20453125,-48.435,0.86873190625,33.34
2021-06-29 10:25:51.234375000,-37.0,5.0,53.0,76.2046875,-52.17,0.8687719374999999,33.34
2021-06-29 10:25:51.242187500,-37.0,5.0,53.0,76.20484375,-56.375,0.86881196875,33.34
2021-06-29 10:25:51.250000000,-37.0,5.0,53.0,76.205,-60.58,0.868852,33.34
2021-06-29 10:25:51.257812500,-37.0,5.0,52.75,76.20515625,-64.91,0.8688920625,33.34
2021-06-29 10:25:51.265625000,-37.0,5.0,52.5,76.2053125,-69.24,0.8689321249999999,33.34
2021-06-29 10:25:51.273437500,-37.0,5.0,52.25,76.20546875000001,-73.08,0.8689721874999999,33.34
2021-06-29 10:25:51.281250000,-37.0,5.0,52.0,76.205625,-76.92,0.8690122499999999,33.34
2021-06-29 10:25:51.289062500,-37.0,5.0,52.0,76.20578125,-79.435,0.8690523124999999,33.34
2021-06-29 10:25:51.296875000,-37.0,5.0,52.0,76.2059375,-81.95,0.8690923749999999,33.34
2021-06-29 10:25:51.304687500,-37.0,5.0,52.0,76.20609375000001,-82.32,0.8691324374999999,33.34
2021-06-29 10:25:51.312500000,-37.0,5.0,52.0,76.20625,-82.69,0.8691724999999999,33.34
2021-06-29 10:25:51.320312500,-37.0,5.0,52.0,76.20640625,-80.345,0.8692125625,33.34
2021-06-29 10:25:51.328125000,-37.0,5.0,52.0,76.2065625,-78.0,0.869252625,33.34
2021-06-29 10:25:51.335937500,-37.0,5.0,52.0,76.20671875000001,-72.83,0.8692926875,33.34
2021-06-29 10:25:51.343750000,-37.0,5.0,52.0,76.206875,-67.66,0.86933275,33.34
2021-06-29 10:25:51.351562500,-37.0,5.0,52.0,76.20703125,-60.129999999999995,0.8693728125,33.34
2021-06-29 10:25:51.359375000,-37.0,5.0,52.0,76.2071875,-52.6,0.869412875,33.34
2021-06-29 10:25:51.367187500,-37.0,5.0,52.0,76.20734375,-43.615,0.8694529375,33.34
2021-06-29 10:25:51.375000000,-37.0,5.0,52.0,76.2075,-34.63,0.869493,33.34
2021-06-29 10:25:51.382812500,-37.0,5.0,52.0,76.20765625,-25.295,0.8695330625,33.34
2021-06-29 10:25:51.390625000,-37.0,5.0,52.0,76.2078125,-15.96,0.869573125,33.34
2021-06-29 10:25:51.398437500,-37.0,5.0,52.0,76.20796875,-7.280000000000001,0.8696131874999999,33.34
2021-06-29 10:25:51.406250000,-37.0,5.0,52.0,76.208125,1.4,0.8696532499999999,33.34
2021-06-29 10:25:51.414062500,-37.0,5.0,52.0,76.20828125,8.719999999999999,0.8696933124999999,33.34
2021-06-29 10:25:51.421875000,-37.0,5.0,52.0,76.2084375,16.04,0.8697333749999999,33.34
2021-06-29 10:25:51.429687500,-37.0,5.0,52.0,76.20859375,21.7,0.8697734374999999,33.34
2021-06-29 10:25:51.437500000,-37.0,5.0,52.0,76.20875,27.36,0.8698135,33.34
2021-06-29 10:25:51.445312500,-37.0,5.0,52.0,76.20890625,31.345,0.8698535625,33.34
2021-06-29 10:25:51.453125000,-37.0,5.0,52.0,76.2090625,35.33,0.869893625,33.34
2021-06-29 10:25:51.460937500,-37.0,5.0,52.0,76.20921875,37.795,0.8699336875,33.34
2021-06-29 10:25:51.468750000,-37.0,5.0,52.0,76.209375,40.26,0.86997375,33.34
2021-06-29 10:25:51.476562500,-37.0,5.0,52.0,76.20953125,41.405,0.8700138125,33.34
2021-06-29 10:25:51.484375000,-37.0,5.0,52.0,76.2096875,42.55,0.870053875,33.34
2021-06-29 10:25:51.492187500,-37.0,5.0,52.0,76.20984375,42.59,0.8700939375,33.34
2021-06-29 10:25:51.500000000,-37.0,5.0,52.0,76.21000000000001,42.63,0.870134,33.34
2021-06-29 10:25:51.507812500,-37.0,5.0,52.0,76.21015625,41.81,0.8701740312499999,33.34
2021-06-29 10:25:51.515625000,-37.0,5.0,52.0,76.2103125,40.99,0.8702140625,33.34
2021-06-29 10:25:51.523437500,-37.0,5.0,52.0,76.21046875,39.644999999999996,0.87025409375,33.34
2021-06-29 10:25:51.531250000,-37.0,5.0,52.0,76.21062500000001,38.3,0.870294125,33.34
2021-06-29 10:25:51.539062500,-37.0,5.0,52.0,76.21078125,36.82,0.87033415625,33.34
2021-06-29 10:25:51.546875000,-37.0,5.0,52.0,76.2109375,35.34,0.8703741875,33.34
2021-06-29 10:25:51.554687500,-37.0,5.0,52.0,76.21109375,34.13,0.87041421875,33.34
2021-06-29 10:25:51.562500000,-37.0,5.0,52.0,76.21125,32.92,0.87045425,33.34
2021-06-29 10:25:51.570312500,-37.0,5.0,52.0,76.21140625,32.28,0.87049428125,33.34
2021-06-29 10:25:51.578125000,-37.0,5.0,52.0,76.2115625,31.64,0.8705343125,33.34
2021-06-29 10:25:51.585937500,-37.0,5.0,52.0,76.21171875,31.71,0.87057434375,33.34
2021-06-29 10:25:51.593750000,-37.0,5.0,52.0,76.211875,31.78,0.8706143749999999,33.34
2021-06-29 10:25:51.601562500,-37.0,5.0,52.25,76.21203125,32.5,0.87065440625,33.34
2021-06-29 10:25:51.609375000,-37.0,5.0,52.5,76.2121875,33.22,0.8706944375,33.34
2021-06-29 10:25:51.617187500,-37.0,5.0,52.75,76.21234375,34.379999999999995,0.87073446875,33.34
2021-06-29 10:25:51.625000000,-37.0,5.0,53.0,76.2125,35.54,0.8707745,33.34
2021-06-29 10:25:51.632812500,-37.0,5.0,52.75,76.21265625,36.83,0.87081453125,33.34
2021-06-29 10:25:51.640625000,-37.0,5.0,52.5,76.2128125,38.12,0.8708545625,33.34
2021-06-29 10:25:51.648437500,-37.0,5.0,52.25,76.21296875,39.235,0.87089459375,33.34
2021-06-29 10:25:51.656250000,-37.0,5.0,52.0,76.213125,40.35,0.8709346250000001,33.34
2021-06-29 10:25:51.664062500,-37.0,5.0,52.25,76.21328125,41.025000000000006,0.87097465625,33.34
2021-06-29 10:25:51.671875000,-37.0,5.0,52.5,76.2134375,41.7,0.8710146875,33.34
2021-06-29 10:25:51.679687500,-37.0,5.0,52.75,76.21359375,41.760000000000005,0.8710547187500001,33.34
2021-06-29 10:25:51.687500000,-37.0,5.0,53.0,76.21375,41.82,0.87109475,33.34
2021-06-29 10:25:51.695312500,-37.0,5.0,52.75,76.21390625,41.195,0.87113478125,33.34
2021-06-29 10:25:51.703125000,-37.0,5.0,52.5,76.2140625,40.57,0.8711748125000001,33.34
2021-06-29 10:25:51.710937500,-37.0,5.0,52.25,76.21421875,39.295,0.87121484375,33.34
2021-06-29 10:25:51.718750000,-37.0,5.0,52.0,76.214375,38.02,0.871254875,33.34
2021-06-29 10:25:51.726562500,-37.0,5.0,52.0,76.21453125,36.185,0.8712949062500001,33.34
2021-06-29 10:25:51.734375000,-37.0,5.0,52.0,76.2146875,34.35,0.8713349375,33.34
2021-06-29 10:25:51.742187500,-37.0,5.0,52.0,76.21484375,32.095,0.8713749687500001,33.34
2021-06-29 10:25:51.750000000,-37.0,5.0,52.0,76.215,29.84,0.871415,33.34
2021-06-29 10:25:51.757812500,-37.0,5.0,52.0,76.21515625,27.325,0.87145503125,33.34
2021-06-29 10:25:51.765625000,-37.0,5.0,52.0,76.2153125,24.81,0.8714950625000001,33.34
2021-06-29 10:25:51.773437500,-37.0,5.0,52.0,76.21546875,22.13,0.87153509375,33.34
2021-06-29 10:25:51.781250000,-37.0,5.0,52.0,76.215625,19.45,0.871575125,33.34
2021-06-29 10:25:51.789062500,-37.0,5.0,52.0,76.21578125,16.685,0.8716151562500001,33.34
2021-06-29 10:25:51.796875000,-37.0,5.0,52.0,76.2159375,13.92,0.8716551875,33.34
2021-06-29 10:25:51.804687500,-37.0,5.0,52.0,76.21609375,11.11,0.87169521875,33.34
2021-06-29 10:25:51.812500000,-37.0,5.0,52.0,76.21625,8.3,0.8717352500000001,33.34
2021-06-29 10:25:51.820312500,-37.0,5.0,52.0,76.21640625,5.48,0.87177528125,33.34
2021-06-29 10:25:51.828125000,-37.0,5.0,52.0,76.2165625,2.66,0.8718153125,33.34
2021-06-29 10:25:51.835937500,-37.0,5.0,52.0,76.21671875,-0.1200000000000001,0.8718553437500001,33.34
2021-06-29 10:25:51.843750000,-37.0,5.0,52.0,76.216875,-2.9,0.871895375,33.34
2021-06-29 10:25:51.851562500,-37.0,5.0,52.0,76.21703125,-5.58,0.87193540625,33.34
2021-06-29 10:25:51.859375000,-37.0,5.0,52.0,76.2171875,-8.26,0.8719754375000001,33.34
2021-06-29 10:25:51.867187500,-37.0,5.0,52.0,76.21734375,-10.8,0.87201546875,33.34
2021-06-29 10:25:51.875000000,-37.0,5.0,52.0,76.2175,-13.34,0.8720555000000001,33.34
2021-06-29 10:25:51.882812500,-37.0,5.0,52.0,76.21765625,-15.709999999999999,0.8720955312500001,33.34
2021-06-29 10:25:51.890625000,-37.0,5.0,52.0,76.2178125,-18.08,0.8721355625,33.34
2021-06-29 10:25:51.898437500,-37.0,5.0,52.0,76.21796875,-20.31,0.8721755937500001,33.34
2021-06-29 10:25:51.906250000,-37.0,5.0,52.0,76.218125,-22.54,0.872215625,33.34
2021-06-29 10:25:51.914062500,-37.0,5.0,52.0,76.21828125,-24.705,0.87225565625,33.34
2021-06-29 10:25:51.921875000,-37.0,5.0,52.0,76.2184375,-26.87,0.8722956875000001,33.34
2021-06-29 10:25:51.929687500,-37.0,5.0,52.0,76.21859375,-29.05,0.87233571875,33.34
2021-06-29 10:25:51.937500000,-37.0,5.0,52.0,76.21875,-31.23,0.87237575,33.34
2021-06-29 10:25:51.945312500,-37.0,5.0,52.0,76.21890625,-33.535000000000004,0.8724157812500001,33.34
2021-06-29 10:25:51.953125000,-37.0,5.0,52.0,76.21906249999999,-35.84,0.8724558125,33.34
2021-06-29 10:25:51.960937500,-37.0,5.0,52.0,76.21921875,-38.370000000000005,0.87249584375,33.34
2021-06-29 10:25:51.968750000,-37.0,5.0,52.0,76.219375,-40.9,0.8725358750000001,33.34
2021-06-29 10:25:51.976562500,-37.0,5.0,52.0,76.21953125,-43.805,0.87257590625,33.34
2021-06-29 10:25:51.984375000,-37.0,5.0,52.0,76.21968749999999,-46.71,0.8726159375,33.34
2021-06-29 10:25:51.992187500,-37.0,5.0,52.0,76.21984375,-50.135000000000005,0.8726559687500001,33.34
2021-06-29 10:25:52.000000000,-37.0,5.0,52.0,76.22,-53.56,0.872696,33.34
2021-06-29 10:25:52.007812500,-37.0,5.0,52.0,76.220390625,-57.525000000000006,0.8726559687500001,33.339687500000004
2021-06-29 10:25:52.015625000,-37.0,5.0,52.0,76.22078125,-61.49,0.8726159375,33.339375000000004
2021-06-29 10:25:52.023437500,-37.0,5.0,52.0,76.221171875,-65.765,0.87257590625,33.339062500000004
2021-06-29 10:25:52.031250000,-37.0,5.0,52.0,76.2215625,-70.04,0.8725358750000001,33.338750000000005
2021-06-29 10:25:52.039062500,-37.0,5.0,52.0,76.221953125,-74.04,0.87249584375,33.338437500000005
2021-06-29 10:25:52.046875000,-37.0,5.0,52.0,76.22234375,-78.04,0.8724558125,33.338125000000005
2021-06-29 10:25:52.054687500,-37.0,5.0,52.0,76.222734375,-80.86500000000001,0.8724157812500001,33.337812500000005
2021-06-29 10:25:52.062500000,-37.0,5.0,52.0,76.223125,-83.69,0.87237575,33.337500000000006
2021-06-29 10:25:52.070312500,-37.0,5.0,52.25,76.223515625,-84.38499999999999,0.87233571875,33.3371875
2021-06-29 10:25:52.078125000,-37.0,5.0,52.5,76.22390625,-85.08,0.8722956875000001,33.336875
2021-06-29 10:25:52.085937500,-37.0,5.0,52.75,76.224296875,-82.925,0.87225565625,33.3365625
2021-06-29 10:25:52.093750000,-37.0,5.0,53.0,76.2246875,-80.77,0.872215625,33.33625
2021-06-29 10:25:52.101562500,-37.0,5.0,52.75,76.225078125,-75.595,0.8721755937500001,33.3359375
2021-06-29 10:25:52.109375000,-37.0,5.0,52.5,76.22546875,-70.42,0.8721355625,33.335625
2021-06-29 10:25:52.117187500,-37.0,5.0,52.25,76.225859375,-62.69,0.8720955312500001,33.3353125
2021-06-29 10:25:52.125000000,-37.0,5.0,52.0,76.22625,-54.96,0.8720555000000001,33.335
2021-06-29 10:25:52.132812500,-37.0,5.0,52.0,76.226640625,-45.650000000000006,0.87201546875,33.3346875
2021-06-29 10:25:52.140625000,-37.0,5.0,52.0,76.22703125,-36.34,0.8719754375000001,33.334375
2021-06-29 10:25:52.148437500,-37.0,5.0,52.0,76.227421875,-26.67,0.87193540625,33.3340625
2021-06-29 10:25:52.156250000,-37.0,5.0,52.0,76.2278125,-17.0,0.871895375,33.33375
2021-06-29 10:25:52.164062500,-37.0,5.0,52.0,76.228203125,-8.04,0.8718553437500001,33.3334375
2021-06-29 10:25:52.171875000,-37.0,5.0,52.0,76.22859375,0.92,0.8718153125,33.333125
2021-06-29 10:25:52.179687500,-37.0,5.0,52.0,76.228984375,8.415000000000001,0.87177528125,33.3328125
2021-06-29 10:25:52.187500000,-37.0,5.0,52.0,76.229375,15.91,0.8717352500000001,33.332499999999996
2021-06-29 10:25:52.195312500,-37.0,5.0,52.0,76.229765625,21.615000000000002,0.87169521875,33.332187499999996
2021-06-29 10:25:52.203125000,-37.0,5.0,52.0,76.23015625,27.32,0.8716551875,33.331875
2021-06-29 10:25:52.210937500,-37.0,5.0,52.0,76.230546875,31.235,0.8716151562500001,33.3315625
2021-06-29 10:25:52.218750000,-37.0,5.0,52.0,76.2309375,35.15,0.871575125,33.33125
2021-06-29 10:25:52.226562500,-37.0,5.0,52.0,76.231328125,37.465,0.87153509375,33.3309375
2021-06-29 10:25:52.234375000,-37.0,5.0,52.0,76.23171875,39.78,0.8714950625000001,33.330625
2021-06-29 10:25:52.242187500,-37.0,5.0,52.0,76.232109375,40.7,0.87145503125,33.3303125
2021-06-29 10:25:52.250000000,-37.0,5.0,52.0,76.2325,41.62,0.871415,33.33
2021-06-29 10:25:52.257812500,-37.0,5.0,52.0,76.232890625,41.33,0.8714950625000001,33.33
2021-06-29 10:25:52.265625000,-37.0,5.0,52.0,76.23328125,41.04,0.871575125,33.33
2021-06-29 10:25:52.273437500,-37.0,5.0,52.0,76.233671875,39.745000000000005,0.8716551875,33.33
2021-06-29 10:25:52.281250000,-37.0,5.0,52.0,76.2340625,38.45,0.8717352500000001,33.33
2021-06-29 10:25:52.289062500,-37.0,5.0,52.0,76.234453125,36.45,0.8718153125,33.33
2021-06-29 10:25:52.296875000,-37.0,5.0,52.0,76.23484375,34.45,0.871895375,33.33
2021-06-29 10:25:52.304687500,-37.0,5.0,52.0,76.235234375,32.2,0.8719754375000001,33.33
2021-06-29 10:25:52.312500000,-37.0,5.0,52.0,76.235625,29.95,0.8720555000000001,33.33
2021-06-29 10:25:52.320312500,-37.0,5.0,52.0,76.236015625,28.0,0.8721355625,33.33
2021-06-29 10:25:52.328125000,-37.0,5.0,52.0,76.23640625,26.05,0.872215625,33.33
2021-06-29 10:25:52.335937500,-37.0,5.0,52.0,76.236796875,24.92,0.8722956875000001,33.33
2021-06-29 10:25:52.343750000,-37.0,5.0,52.0,76.2371875,23.79,0.87237575,33.33
2021-06-29 10:25:52.351562500,-37.0,5.0,52.0,76.237578125,23.775,0.8724558125,33.33
2021-06-29 10:25:52.359375000,-37.0,5.0,52.0,76.23796875,23.76,0.8725358750000001,33.33
2021-06-29 10:25:52.367187500,-37.0,5.0,52.0,76.238359375,24.805,0.8726159375,33.33
2021-06-29 10:25:52.375000000,-37.0,5.0,52.0,76.23875,25.85,0.872696,33.33
2021-06-29 10:25:52.382812500,-37.0,5.0,52.0,76.239140625,27.560000000000002,0.8727760625000001,33.33
2021-06-29 10:25:52.390625000,-37.0,5.0,52.0,76.23953125,29.27,0.872856125,33.33
2021-06-29 10:25:52.398437500,-37.0,5.0,52.0,76.239921875,31.07,0.8729361875,33.33
2021-06-29 10:25:52.406250000,-37.0,5.0,52.0,76.2403125,32.87,0.87301625,33.33
2021-06-29 10:25:52.414062500,-37.0,5.0,52.25,76.240703125,34.235,0.8730963125,33.33
2021-06-29 10:25:52.421875000,-37.0,5.0,52.5,76.24109375,35.6,0.873176375,33.33
2021-06-29 10:25:52.429687500,-37.0,5.0,52.75,76.241484375,36.25,0.8732564375,33.33
2021-06-29 10:25:52.437500000,-37.0,5.0,53.0,76.241875,36.9,0.8733365,33.33
2021-06-29 10:25:52.445312500,-37.0,5.0,52.75,76.242265625,36.825,0.8734165625,33.33
2021-06-29 10:25:52.453125000,-37.0,5.0,52.5,76.24265625,36.75,0.873496625,33.33
2021-06-29 10:25:52.460937500,-37.0,5.0,52.25,76.243046875,36.144999999999996,0.8735766875000001,33.33
2021-06-29 10:25:52.468750000,-37.0,5.0,52.0,76.2434375,35.54,0.87365675,33.33
2021-06-29 10:25:52.476562500,-37.0,5.0,52.0,76.243828125,34.61,0.8737368125,33.33
2021-06-29 10:25:52.484375000,-37.0,5.0,52.0,76.24421875,33.68,0.873816875,33.33
2021-06-29 10:25:52.492187500,-37.0,5.0,52.0,76.244609375,32.504999999999995,0.8738969375,33.33
2021-06-29 10:25:52.500000000,-37.0,5.0,52.0,76.245,31.33,0.873977,33.33
2021-06-29 10:25:52.507812500,-37.0,5.0,52.25,76.245390625,29.835,0.873977,33.33
2021-06-29 10:25:52.515625000,-37.0,5.0,52.5,76.24578125,28.34,0.873977,33.33
2021-06-29 10:25:52.523437500,-37.0,5.0,52.75,76.246171875,26.369999999999997,0.873977,33.33
2021-06-29 10:25:52.531250000,-37.0,5.0,53.0,76.2465625,24.4,0.873977,33.33
2021-06-29 10:25:52.539062500,-36.75,5.0,53.0,76.24695312499999,21.82,0.873977,33.33
2021-06-29 10:25:52.546875000,-36.5,5.0,53.0,76.24734375,19.24,0.873977,33.33
2021-06-29 10:25:52.554687500,-36.25,5.0,53.0,76.247734375,16.06,0.873977,33.33
2021-06-29 10:25:52.562500000,-36.0,5.0,53.0,76.248125,12.88,0.873977,33.33
2021-06-29 10:25:52.570312500,-36.25,5.0,52.75,76.248515625,9.23,0.873977,33.33
2021-06-29 10:25:52.578125000,-36.5,5.0,52.5,76.24890624999999,5.58,0.873977,33.33
2021-06-29 10:25:52.585937500,-36.75,5.0,52.25,76.249296875,1.705,0.873977,33.33
2021-06-29 10:25:52.593750000,-37.0,5.0,52.0,76.2496875,-2.17,0.873977,33.33
2021-06-29 10:25:52.601562500,-37.0,5.0,52.0,76.250078125,-6.0,0.873977,33.33
2021-06-29 10:25:52.609375000,-37.0,5.0,52.0,76.25046875,-9.83,0.873977,33.33
2021-06-29 10:25:52.617187500,-37.0,5.0,52.0,76.25085937499999,-13.385000000000002,0.873977,33.33
2021-06-29 10:25:52.625000000,-37.0,5.0,52.0,76.25125,-16.94,0.873977,33.33
2021-06-29 10:25:52.632812500,-37.0,5.0,52.25,76.251640625,-20.12,0.873977,33.33
2021-06-29 10:25:52.640625000,-37.0,5.0,52.5,76.25203125,-23.3,0.873977,33.33
2021-06-29 10:25:52.648437500,-37.0,5.0,52.75,76.252421875,-26.105,0.873977,33.33
2021-06-29 10:25:52.656250000,-37.0,5.0,53.0,76.25281249999999,-28.91,0.873977,33.33
2021-06-29 10:25:52.664062500,-37.0,5.0,53.0,76.253203125,-31.455,0.873977,33.33
2021-06-29 10:25:52.671875000,-37.0,5.0,53.0,76.25359375,-34.0,0.873977,33.33
2021-06-29 10:25:52.679687500,-37.0,5.0,53.0,76.253984375,-36.485,0.873977,33.33
2021-06-29 10:25:52.687500000,-37.0,5.0,53.0,76.254375,-38.97,0.873977,33.33
2021-06-29 10:25:52.695312500,-37.0,5.0,52.75,76.25476562499999,-41.65,0.873977,33.33
2021-06-29 10:25:52.703125000,-37.0,5.0,52.5,76.25515625,-44.33,0.873977,33.33
2021-06-29 10:25:52.710937500,-37.0,5.0,52.25,76.255546875,-47.46,0.873977,33.33
2021-06-29 10:25:52.718750000,-37.0,5.0,52.0,76.2559375,-50.59,0.873977,33.33
2021-06-29 10:25:52.726562500,-37.0,5.0,52.0,76.256328125,-54.345,0.873977,33.33
2021-06-29 10:25:52.734375000,-37.0,5.0,52.0,76.25671874999999,-58.1,0.873977,33.33
2021-06-29 10:25:52.742187500,-37.0,5.0,52.0,76.257109375,-62.47,0.873977,33.33
2021-06-29 10:25:52.750000000,-37.0,5.0,52.0,76.2575,-66.84,0.873977,33.33
2021-06-29 10:25:52.757812500,-37.0,5.0,52.0,76.257890625,-71.495,0.8740570625,33.33
2021-06-29 10:25:52.765625000,-37.0,5.0,52.0,76.25828125,-76.15,0.874137125,33.33
2021-06-29 10:25:52.773437500,-37.0,5.0,52.0,76.25867187499999,-80.435,0.8742171875,33.33
2021-06-29 10:25:52.781250000,-37.0,5.0,52.0,76.2590625,-84.72,0.87429725,33.33
2021-06-29 10:25:52.789062500,-37.0,5.0,52.25,76.259453125,-87.705,0.8743773125,33.33
2021-06-29 10:25:52.796875000,-37.0,5.0,52.5,76.25984375,-90.69,0.874457375,33.33
2021-06-29 10:25:52.804687500,-37.0,5.0,52.75,76.260234375,-91.41499999999999,0.8745374375,33.33
2021-06-29 10:25:52.812500000,-37.0,5.0,53.0,76.26062499999999,-92.14,0.8746175,33.33
2021-06-29 10:25:52.820312500,-37.0,5.0,52.75,76.261015625,-89.91499999999999,0.8746975625,33.33
2021-06-29 10:25:52.828125000,-37.0,5.0,52.5,76.26140625,-87.69,0.874777625,33.33
2021-06-29 10:25:52.835937500,-37.0,5.0,52.25,76.261796875,-82.31,0.8748576875,33.33
2021-06-29 10:25:52.843750000,-37.0,5.0,52.0,76.2621875,-76.93,0.87493775,33.33
2021-06-29 10:25:52.851562500,-37.0,5.0,52.0,76.26257812499999,-68.81,0.8750178125,33.33
2021-06-29 10:25:52.859375000,-37.0,5.0,52.0,76.26296875,-60.69,0.875097875,33.33
2021-06-29 10:25:52.867187500,-37.0,5.0,52.0,76.263359375,-50.79,0.8751779375,33.33
2021-06-29 10:25:52.875000000,-37.0,5.0,52.0,76.26375,-40.89,0.875258,33.33
2021-06-29 10:25:52.882812500,-37.0,5.0,52.0,76.264140625,-30.425,0.8753380625,33.33
2021-06-29 10:25:52.890625000,-37.0,5.0,52.0,76.26453124999999,-19.96,0.8754181249999999,33.33
2021-06-29 10:25:52.898437500,-37.0,5.0,52.0,76.264921875,-10.135,0.8754981875,33.33
2021-06-29 10:25:52.906250000,-37.0,5.0,52.0,76.2653125,-0.31,0.87557825,33.33
2021-06-29 10:25:52.914062500,-37.0,5.0,52.25,76.265703125,7.985,0.8756583124999999,33.33
2021-06-29 10:25:52.921875000,-37.0,5.0,52.5,76.26609375,16.28,0.875738375,33.33
2021-06-29 10:25:52.929687500,-37.0,5.0,52.75,76.26648437499999,22.585,0.8758184375,33.33
2021-06-29 10:25:52.937500000,-37.0,5.0,53.0,76.266875,28.89,0.8758984999999999,33.33
2021-06-29 10:25:52.945312500,-37.0,5.0,52.75,76.267265625,33.144999999999996,0.8759785625,33.33
2021-06-29 10:25:52.953125000,-37.0,5.0,52.5,76.26765625,37.4,0.876058625,33.33
2021-06-29 10:25:52.960937500,-37.0,5.0,52.25,76.268046875,39.845,0.8761386875,33.33
2021-06-29 10:25:52.968750000,-37.0,5.0,52.0,76.26843749999999,42.29,0.8762187499999999,33.33
2021-06-29 10:25:52.976562500,-37.0,5.0,52.0,76.268828125,43.29,0.8762988125,33.33
2021-06-29 10:25:52.984375000,-37.0,5.0,52.0,76.26921875,44.29,0.876378875,33.33
2021-06-29 10:25:52.992187500,-37.0,5.0,52.0,76.269609375,44.235,0.8764589374999999,33.33
2021-06-29 10:25:53.000000000,-37.0,5.0,52.0,76.27,44.18,0.876539,33.33
2021-06-29 10:25:53.007812500,-37.0,5.0,52.25,76.27039062499999,43.41,0.87641890625,33.33
2021-06-29 10:25:53.015625000,-37.0,5.0,52.5,76.27078125,42.64,0.8762988125,33.33
2021-06-29 10:25:53.023437500,-37.0,5.0,52.75,76.271171875,41.455,0.87617871875,33.33
2021-06-29 10:25:53.031250000,-37.0,5.0,53.0,76.2715625,40.27,0.876058625,33.33
2021-06-29 10:25:53.039062500,-37.0,5.0,52.75,76.271953125,38.955,0.87593853125,33.33
2021-06-29 10:25:53.046875000,-37.0,5.0,52.5,76.27234374999999,37.64,0.8758184375,33.33
2021-06-29 10:25:53.054687500,-37.0,5.0,52.25,76.272734375,36.5,0.87569834375,33.33
2021-06-29 10:25:53.062500000,-37.0,5.0,52.0,76.273125,35.36,0.87557825,33.33
2021-06-29 10:25:53.070312500,-37.0,5.0,52.0,76.273515625,34.65,0.87545815625,33.33
2021-06-29 10:25:53.078125000,-37.0,5.0,52.0,76.27390625,33.94,0.8753380625,33.33
2021-06-29 10:25:53.085937500,-37.0,5.0,52.0,76.27429687499999,33.875,0.87521796875,33.33
2021-06-29 10:25:53.093750000,-37.0,5.0,52.0,76.2746875,33.81,0.875097875,33.33
2021-06-29 10:25:53.101562500,-37.0,5.0,52.0,76.275078125,34.42,0.87497778125,33.33
2021-06-29 10:25:53.109375000,-37.0,5.0,52.0,76.27546875,35.03,0.8748576875,33.33
2021-06-29 10:25:53.117187500,-37.0,5.0,52.0,76.275859375,36.2,0.87473759375,33.33
2021-06-29 10:25:53.125000000,-37.0,5.0,52.0,76.27624999999999,37.37,0.8746175,33.33
2021-06-29 10:25:53.132812500,-37.0,5.0,52.0,76.276640625,38.815,0.8744974062499999,33.33
2021-06-29 10:25:53.140625000,-37.0,5.0,52.0,76.27703125,40.26,0.8743773125,33.33
2021-06-29 10:25:53.148437500,-37.0,5.0,52.0,76.277421875,41.635,0.87425721875,33.33
2021-06-29 10:25:53.156250000,-37.0,5.0,52.0,76.2778125,43.01,0.874137125,33.33
2021-06-29 10:25:53.164062500,-37.0,5.0,52.0,76.27820312499999,44.01,0.87401703125,33.33
2021-06-29 10:25:53.171875000,-37.0,5.0,52.0,76.27859375,45.01,0.8738969375,33.33
2021-06-29 10:25:53.179687500,-37.0,5.0,52.0,76.278984375,45.435,0.87377684375,33.33
2021-06-29 10:25:53.187500000,-37.0,5.0,52.0,76.279375,45.86,0.87365675,33.33
2021-06-29 10:25:53.195312500,-37.0,5.0,52.0,76.279765625,45.625,0.87353665625,33.33
2021-06-29 10:25:53.203125000,-37.0,5.0,52.0,76.28015624999999,45.39,0.8734165625,33.33
2021-06-29 10:25:53.210937500,-37.0,5.0,52.0,76.280546875,44.510000000000005,0.87329646875,33.33
2021-06-29 10:25:53.218750000,-37.0,5.0,52.0,76.2809375,43.63,0.873176375,33.33
2021-06-29 10:25:53.226562500,-37.0,5.0,52.0,76.281328125,42.185,0.87305628125,33.33
2021-06-29 10:25:53.234375000,-37.0,5.0,52.0,76.28171875,40.74,0.8729361875,33.33
2021-06-29 10:25:53.242187500,-37.0,5.0,52.0,76.28210937499999,38.85,0.87281609375,33.33
2021-06-29 10:25:53.250000000,-37.0,5.0,52.0,76.2825,36.96,0.872696,33.33
2021-06-29 10:25:53.257812500,-37.0,5.0,52.0,76.282890625,34.74,0.8727760625000001,33.33
2021-06-29 10:25:53.265625000,-37.0,5.0,52.0,76.28328125,32.52,0.872856125,33.33
2021-06-29 10:25:53.273437500,-37.0,5.0,52.0,76.283671875,30.080000000000002,0.8729361875,33.33
2021-06-29 10:25:53.281250000,-37.0,5.0,52.0,76.28406249999999,27.64,0.87301625,33.33
2021-06-29 10:25:53.289062500,-37.0,5.0,52.0,76.284453125,25.045,0.8730963125,33.33
2021-06-29 10:25:53.296875000,-37.0,5.0,52.0,76.28484375,22.45,0.873176375,33.33
2021-06-29 10:25:53.304687500,-37.0,5.0,52.0,76.285234375,19.735,0.8732564375,33.33
2021-06-29 10:25:53.312500000,-37.0,5.0,52.0,76.285625,17.02,0.8733365,33.33
2021-06-29 10:25:53.320312500,-37.0,5.0,52.0,76.28601562499999,14.175,0.8734165625,33.33
2021-06-29 10:25:53.328125000,-37.0,5.0,52.0,76.28640625,11.33,0.873496625,33.33
2021-06-29 10:25:53.335937500,-37.0,5.0,52.0,76.286796875,8.345,0.8735766875000001,33.33
2021-06-29 10:25:53.343750000,-37.0,5.0,52.0,76.2871875,5.36,0.87365675,33.33
2021-06-29 10:25:53.351562500,-37.0,5.0,52.0,76.287578125,2.2600000000000002,0.8737368125,33.33
2021-06-29 10:25:53.359375000,-37.0,5.0,52.0,76.28796874999999,-0.84,0.873816875,33.33
2021-06-29 10:25:53.367187500,-37.0,5.0,52.0,76.288359375,-3.985,0.8738969375,33.33
2021-06-29 10:25:53.375000000,-37.0,5.0,52.0,76.28875,-7.13,0.873977,33.33
2021-06-29 10:25:53.382812500,-37.0,5.0,52.0,76.289140625,-10.24,0.8740570625,33.33
2021-06-29 10:25:53.390625000,-37.0,5.0,52.0,76.28953125,-13.35,0.874137125,33.33
2021-06-29 10:25:53.398437500,-37.0,5.0,52.0,76.28992187499999,-16.31,0.8742171875,33.33
2021-06-29 10:25:53.406250000,-37.0,5.0,52.0,76.2903125,-19.27,0.87429725,33.33
2021-06-29 10:25:53.414062500,-37.0,5.0,52.0,76.290703125,-22.009999999999998,0.8743773125,33.33
2021-06-29 10:25:53.421875000,-37.0,5.0,52.0,76.29109375,-24.75,0.874457375,33.33
2021-06-29 10:25:53.429687500,-37.0,5.0,52.0,76.291484375,-27.275,0.8745374375,33.33
2021-06-29 10:25:53.437500000,-37.0,5.0,52.0,76.29187499999999,-29.8,0.8746175,33.33
2021-06-29 10:25:53.445312500,-37.0,5.0,52.0,76.292265625,-32.17,0.8746975625,33.33
2021-06-29 10:25:53.453125000,-37.0,5.0,52.0,76.29265625,-34.54,0.874777625,33.33
2021-06-29 10:25:53.460937500,-37.0,5.0,52.0,76.293046875,-36.89,0.8748576875,33.33
2021-06-29 10:25:53.468750000,-37.0,5.0,52.0,76.2934375,-39.24,0.87493775,33.33
2021-06-29 10:25:53.476562500,-37.0,5.0,52.0,76.29382812499999,-41.805,0.8750178125,33.33
2021-06-29 10:25:53.484375000,-37.0,5.0,52.0,76.29421875,-44.37,0.875097875,33.33
2021-06-29 10:25:53.492187500,-37.0,5.0,52.0,76.294609375,-47.4,0.8751779375,33.33
2021-06-29 10:25:53.500000000,-37.0,5.0,52.0,76.29499999999999,-50.43,0.875258,33.33
2021-06-29 10:25:53.507812500,-37.0,5.0,52.25,76.295390625,-54.155,0.875258,33.33
2021-06-29 10:25:53.515625000,-37.0,5.0,52.5,76.29578124999999,-57.88,0.875258,33.33
2021-06-29 10:25:53.523437500,-37.0,5.0,52.75,76.296171875,-62.290000000000006,0.875258,33.33
2021-06-29 10:25:53.531250000,-37.0,5.0,53.0,76.2965625,-66.7,0.875258,33.33
2021-06-29 10:25:53.539062500,-37.0,5.0,52.75,76.29695312499999,-71.455,0.875258,33.33
2021-06-29 10:25:53.546875000,-37.0,5.0,52.5,76.29734375,-76.21,0.875258,33.33
2021-06-29 10:25:53.554687500,-37.0,5.0,52.25,76.29773437499999,-80.525,0.875258,33.33
2021-06-29 10:25:53.562500000,-37.0,5.0,52.0,76.298125,-84.84,0.875258,33.33
2021-06-29 10:25:53.570312500,-37.0,5.0,52.25,76.298515625,-87.625,0.875258,33.33
2021-06-29 10:25:53.578125000,-37.0,5.0,52.5,76.29890624999999,-90.41,0.875258,33.33
2021-06-29 10:25:53.585937500,-37.0,5.0,52.75,76.299296875,-90.565,0.875258,33.33
2021-06-29 10:25:53.593750000,-37.0,5.0,53.0,76.29968749999999,-90.72,0.875258,33.33
2021-06-29 10:25:53.601562500,-37.0,5.0,52.75,76.300078125,-87.50999999999999,0.875258,33.33
2021-06-29 10:25:53.609375000,-37.0,5.0,52.5,76.30046875,-84.3,0.875258,33.33
2021-06-29 10:25:53.617187500,-37.0,5.0,52.25,76.30085937499999,-77.655,0.875258,33.33
2021-06-29 10:25:53.625000000,-37.0,5.0,52.0,76.30125,-71.01,0.875258,33.33
2021-06-29 10:25:53.632812500,-37.0,5.0,52.0,76.30164062499999,-61.605000000000004,0.875258,33.33
2021-06-29 10:25:53.640625000,-37.0,5.0,52.0,76.30203125,-52.2,0.875258,33.33
2021-06-29 10:25:53.648437500,-37.0,5.0,52.0,76.302421875,-41.28,0.875258,33.33
2021-06-29 10:25:53.656250000,-37.0,5.0,52.0,76.30281249999999,-30.36,0.875258,33.33
2021-06-29 10:25:53.664062500,-37.0,5.0,52.25,76.303203125,-19.4,0.875258,33.33
2021-06-29 10:25:53.671875000,-37.0,5.0,52.5,76.30359374999999,-8.44,0.875258,33.33
2021-06-29 10:25:53.679687500,-37.0,5.0,52.75,76.303984375,1.295,0.875258,33.33
2021-06-29 10:25:53.687500000,-37.0,5.0,53.0,76.304375,11.03,0.875258,33.33
2021-06-29 10:25:53.695312500,-37.0,5.0,52.75,76.30476562499999,18.755,0.875258,33.33
2021-06-29 10:25:53.703125000,-37.0,5.0,52.5,76.30515625,26.48,0.875258,33.33
2021-06-29 10:25:53.710937500,-37.0,5.0,52.25,76.30554687499999,31.96,0.875258,33.33
2021-06-29 10:25:53.718750000,-37.0,5.0,52.0,76.3059375,37.44,0.875258,33.33
2021-06-29 10:25:53.726562500,-37.0,5.0,52.0,76.306328125,40.885,0.875258,33.33
2021-06-29 10:25:53.734375000,-37.0,5.0,52.0,76.30671874999999,44.33,0.875258,33.33
2021-06-29 10:25:53.742187500,-37.0,5.0,52.0,76.307109375,46.144999999999996,0.875258,33.33
2021-06-29 10:25:53.750000000,-37.0,5.0,52.0,76.30749999999999,47.96,0.875258,33.33
2021-06-29 10:25:53.757812500,-37.0,5.0,52.0,76.307890625,48.57,0.8753380625,33.33
2021-06-29 10:25:53.765625000,-37.0,5.0,52.0,76.30828125,49.18,0.8754181249999999,33.33
2021-06-29 10:25:53.773437500,-37.0,5.0,52.0,76.30867187499999,48.9,0.8754981875,33.33
2021-06-29 10:25:53.781250000,-37.0,5.0,52.0,76.3090625,48.62,0.87557825,33.33
2021-06-29 10:25:53.789062500,-37.0,5.0,52.0,76.30945312499999,47.745,0.8756583125,33.33
2021-06-29 10:25:53.796875000,-37.0,5.0,52.0,76.30984375,46.87,0.875738375,33.33
2021-06-29 10:25:53.804687500,-37.0,5.0,52.0,76.310234375,45.665,0.8758184375,33.33
2021-06-29 10:25:53.812500000,-37.0,5.0,52.0,76.31062499999999,44.46,0.8758985,33.33
2021-06-29 10:25:53.820312500,-37.0,5.0,52.0,76.311015625,43.265,0.8759785625,33.33
2021-06-29 10:25:53.828125000,-37.0,5.0,52.0,76.31140624999999,42.07,0.876058625,33.33
2021-06-29 10:25:53.835937500,-37.0,5.0,52.0,76.311796875,41.185,0.8761386875,33.33
2021-06-29 10:25:53.843750000,-37.0,5.0,52.0,76.3121875,40.3,0.87621875,33.33
2021-06-29 10:25:53.851562500,-37.0,5.0,52.0,76.31257812499999,39.959999999999994,0.8762988125,33.33
2021-06-29 10:25:53.859375000,-37.0,5.0,52.0,76.31296875,39.62,0.876378875,33.33
2021-06-29 10:25:53.867187500,-37.0,5.0,52.0,76.31335937499999,39.89,0.8764589375,33.33
2021-06-29 10:25:53.875000000,-37.0,5.0,52.0,76.31375,40.16,0.876539,33.33
2021-06-29 10:25:53.882812500,-37.0,5.0,52.0,76.314140625,40.925,0.8766190625,33.33
2021-06-29 10:25:53.890625000,-37.0,5.0,52.0,76.31453124999999,41.69,0.876699125,33.33
2021-06-29 10:25:53.898437500,-37.0,5.0,52.0,76.314921875,42.76,0.8767791875000001,33.33
2021-06-29 10:25:53.906250000,-37.0,5.0,52.0,76.31531249999999,43.83,0.87685925,33.33
2021-06-29 10:25:53.914062500,-37.0,5.0,52.25,76.315703125,45.0,0.8769393125,33.33
2021-06-29 10:25:53.921875000,-37.0,5.0,52.5,76.31609375,46.17,0.877019375,33.33
2021-06-29 10:25:53.929687500,-37.0,5.0,52.75,76.31648437499999,47.325,0.8770994375000001,33.33
2021-06-29 10:25:53.937500000,-37.0,5.0,53.0,76.316875,48.48,0.8771795,33.33
2021-06-29 10:25:53.945312500,-37.0,5.0,53.0,76.31726562499999,49.53,0.8772595625,33.33
2021-06-29 10:25:53.953125000,-37.0,5.0,53.0,76.31765625,50.58,0.8773396250000001,33.33
2021-06-29 10:25:53.960937500,-37.0,5.0,53.0,76.318046875,51.425,0.8774196875,33.33
2021-06-29 10:25:53.968750000,-37.0,5.0,53.0,76.31843749999999,52.27,0.87749975,33.33
2021-06-29 10:25:53.976562500,-37.0,5.0,53.0,76.318828125,52.725,0.8775798125000001,33.33
2021-06-29 10:25:53.984375000,-37.0,5.0,53.0,76.31921874999999,53.18,0.8776598750000001,33.33
2021-06-29 10:25:53.992187500,-37.0,5.0,53.0,76.319609375,53.015,0.8777399375,33.33
2021-06-29 10:25:54.000000000,-37.0,5.0,53.0,76.32,52.85,0.87782,33.33
2021-06-29 10:25:54.007812500,-37.0,5.0,52.75,76.32039062499999,51.870000000000005,0.87769990625,33.33
2021-06-29 10:25:54.015625000,-37.0,5.0,52.5,76.32078125,50.89,0.8775798125000001,33.33
2021-06-29 10:25:54.023437500,-37.0,5.0,52.25,76.32117187499999,49.004999999999995,0.8774597187500001,33.33
2021-06-29 10:25:54.031250000,-37.0,5.0,52.0,76.3215625,47.12,0.8773396250000001,33.33
2021-06-29 10:25:54.039062500,-37.0,5.0,52.0,76.321953125,44.379999999999995,0.8772195312500001,33.33
2021-06-29 10:25:54.046875000,-37.0,5.0,52.0,76.32234374999999,41.64,0.8770994375000001,33.33
2021-06-29 10:25:54.054687500,-37.0,5.0,52.0,76.322734375,38.254999999999995,0.8769793437500001,33.33
2021-06-29 10:25:54.062500000,-37.0,5.0,52.0,76.32312499999999,34.87,0.8768592500000001,33.33
2021-06-29 10:25:54.070312500,-37.0,5.0,52.25,76.323515625,31.13,0.87673915625,33.33
2021-06-29 10:25:54.078125000,-37.0,5.0,52.5,76.32390625,27.39,0.8766190625,33.33
2021-06-29 10:25:54.085937500,-37.0,5.0,52.75,76.32429687499999,23.625,0.87649896875,33.33
2021-06-29 10:25:54.093750000,-37.0,5.0,53.0,76.3246875,19.86,0.876378875,33.33
2021-06-29 10:25:54.101562500,-37.0,5.0,52.75,76.32507812499999,16.375,0.87625878125,33.33
2021-06-29 10:25:54.109375000,-37.0,5.0,52.5,76.32546875,12.89,0.8761386875,33.33
2021-06-29 10:25:54.117187500,-37.0,5.0,52.25,76.325859375,9.88,0.87601859375,33.33
2021-06-29 10:25:54.125000000,-37.0,5.0,52.0,76.32624999999999,6.87,0.8758985,33.33
2021-06-29 10:25:54.132812500,-37.0,5.0,52.25,76.326640625,4.385,0.87577840625,33.33
2021-06-29 10:25:54.140625000,-37.0,5.0,52.5,76.32703124999999,1.9,0.8756583125,33.33
2021-06-29 10:25:54.148437500,-37.0,5.0,52.75,76.327421875,-0.20500000000000007,0.87553821875,33.33
2021-06-29 10:25:54.156250000,-37.0,5.0,53.0,76.3278125,-2.31,0.875418125,33.33
2021-06-29 10:25:54.164062500,-37.0,5.0,52.75,76.328203125,-4.29,0.87529803125,33.33
2021-06-29 10:25:54.171875000,-37.0,5.0,52.5,76.32859375,-6.27,0.8751779375000001,33.33
2021-06-29 10:25:54.179687500,-37.0,5.0,52.25,76.32898437499999,-8.41,0.8750578437500001,33.33
2021-06-29 10:25:54.187500000,-37.0,5.0,52.0,76.329375,-10.55,0.87493775,33.33
2021-06-29 10:25:54.195312500,-37.0,5.0,52.0,76.329765625,-13.015,0.87481765625,33.33
2021-06-29 10:25:54.203125000,-37.0,5.0,52.0,76.33015625,-15.48,0.8746975625,33.33
2021-06-29 10:25:54.210937500,-37.0,5.0,52.0,76.330546875,-18.240000000000002,0.87457746875,33.33
2021-06-29 10:25:54.218750000,-37.0,5.0,52.0,76.33093749999999,-21.0,0.874457375,33.33
2021-06-29 10:25:54.226562500,-37.0,5.0,52.0,76.331328125,-23.875,0.87433728125,33.33
2021-06-29 10:25:54.234375000,-37.0,5.0,52.0,76.33171875,-26.75,0.8742171875,33.33
2021-06-29 10:25:54.242187500,-37.0,5.0,52.0,76.332109375,-29.5,0.87409709375,33.33
2021-06-29 10:25:54.250000000,-37.0,5.0,52.0,76.3325,-32.25,0.873977,33.33
2021-06-29 10:25:54.257812500,-37.0,5.0,52.0,76.33289062499999,-34.725,0.87417715625,33.33
2021-06-29 10:25:54.265625000,-37.0,5.0,52.0,76.33328125,-37.2,0.8743773125000001,33.33
2021-06-29 10:25:54.273437500,-37.0,5.0,52.0,76.333671875,-39.41,0.87457746875,33.33
2021-06-29 10:25:54.281250000,-37.0,5.0,52.0,76.3340625,-41.62,0.874777625,33.33
2021-06-29 10:25:54.289062500,-37.0,5.0,52.0,76.334453125,-43.769999999999996,0.87497778125,33.33
2021-06-29 10:25:54.296875000,-37.0,5.0,52.0,76.33484374999999,-45.92,0.8751779375,33.33
2021-06-29 10:25:54.304687500,-37.0,5.0,52.0,76.335234375,-48.325,0.87537809375,33.33
2021-06-29 10:25:54.312500000,-37.0,5.0,52.0,76.335625,-50.73,0.87557825,33.33
2021-06-29 10:25:54.320312500,-37.0,5.0,52.0,76.336015625,-53.72,0.87577840625,33.33
2021-06-29 10:25:54.328125000,-37.0,5.0,52.0,76.33640625,-56.71,0.8759785625000001,33.33
2021-06-29 10:25:54.335937500,-37.0,5.0,52.0,76.33679687499999,-60.495000000000005,0.87617871875,33.33
2021-06-29 10:25:54.343750000,-37.0,5.0,52.0,76.3371875,-64.28,0.876378875,33.33
2021-06-29 10:25:54.351562500,-37.0,5.0,52.0,76.337578125,-68.795,0.87657903125,33.33
2021-06-29 10:25:54.359375000,-37.0,5.0,52.0,76.33796875,-73.31,0.8767791875,33.33
2021-06-29 10:25:54.367187500,-37.0,5.0,52.0,76.338359375,-78.12,0.87697934375,33.33
2021-06-29 10:25:54.375000000,-37.0,5.0,52.0,76.33875,-82.93,0.8771795,33.33
2021-06-29 10:25:54.382812500,-37.0,5.0,52.0,76.339140625,-87.22,0.87737965625,33.33
2021-06-29 10:25:54.390625000,-37.0,5.0,52.0,76.33953125,-91.51,0.8775798125000001,33.33
2021-06-29 10:25:54.398437500,-37.0,5.0,52.0,76.339921875,-94.20500000000001,0.87777996875,33.33
2021-06-29 10:25:54.406250000,-37.0,5.0,52.0,76.3403125,-96.9,0.877980125,33.33
2021-06-29 10:25:54.414062500,-37.0,5.0,52.0,76.340703125,-97.015,0.87818028125,33.33
2021-06-29 10:25:54.421875000,-37.0,5.0,52.0,76.34109375,-97.13,0.8783804374999999,33.33
2021-06-29 10:25:54.429687500,-37.0,5.0,52.0,76.341484375,-94.055,0.87858059375,33.33
2021-06-29 10:25:54.437500000,-37.0,5.0,52.0,76.341875,-90.98,0.87878075,33.33
2021-06-29 10:25:54.445312500,-37.0,5.0,52.0,76.342265625,-84.72,0.87898090625,33.33
2021-06-29 10:25:54.453125000,-37.0,5.0,52.0,76.34265625,-78.46,0.8791810625,33.33
2021-06-29 10:25:54.460937500,-37.0,5.0,52.0,76.343046875,-69.66,0.87938121875,33.33
2021-06-29 10:25:54.468750000,-37.0,5.0,52.0,76.3434375,-60.86,0.879581375,33.33
2021-06-29 10:25:54.476562500,-37.0,5.0,52.25,76.343828125,-50.61,0.87978153125,33.33
2021-06-29 10:25:54.484375000,-37.0,5.0,52.5,76.34421875,-40.36,0.8799816874999999,33.33
2021-06-29 10:25:54.492187500,-37.0,5.0,52.75,76.344609375,-29.869999999999997,0.88018184375,33.33
2021-06-29 10:25:54.500000000,-37.0,5.0,53.0,76.345,-19.38,0.880382,33.33
2021-06-29 10:25:54.507812500,-37.0,5.0,52.75,76.345390625,-9.715,0.88034196875,33.33
2021-06-29 10:25:54.515625000,-37.0,5.0,52.5,76.34578125,-0.05,0.8803019375,33.33
2021-06-29 10:25:54.523437500,-37.0,5.0,52.25,76.346171875,8.094999999999999,0.88026190625,33.33
2021-06-29 10:25:54.531250000,-37.0,5.0,52.0,76.3465625,16.24,0.880221875,33.33
2021-06-29 10:25:54.539062500,-37.0,5.0,52.0,76.346953125,22.505,0.88018184375,33.33
2021-06-29 10:25:54.546875000,-37.0,5.0,52.0,76.34734375,28.77,0.8801418125,33.33
2021-06-29 10:25:54.554687500,-37.0,5.0,52.0,76.347734375,33.095,0.88010178125,33.33
2021-06-29 10:25:54.562500000,-37.0,5.0,52.0,76.348125,37.42,0.88006175,33.33
2021-06-29 10:25:54.570312500,-37.0,5.0,52.0,76.348515625,39.900000000000006,0.88002171875,33.33
2021-06-29 10:25:54.578125000,-37.0,5.0,52.0,76.34890625,42.38,0.8799816875,33.33
2021-06-29 10:25:54.585937500,-37.0,5.0,52.0,76.349296875,43.22,0.87994165625,33.33
2021-06-29 10:25:54.593750000,-37.0,5.0,52.0,76.3496875,44.06,0.879901625,33.33
2021-06-29 10:25:54.601562500,-37.0,5.0,52.0,76.350078125,43.515,0.8798615937500001,33.33
2021-06-29 10:25:54.609375000,-37.0,5.0,52.0,76.35046875,42.97,0.8798215625,33.33
2021-06-29 10:25:54.617187500,-37.0,5.0,52.0,76.350859375,41.370000000000005,0.87978153125,33.33
2021-06-29 10:25:54.625000000,-37.0,5.0,52.0,76.35125,39.77,0.8797415,33.33
2021-06-29 10:25:54.632812500,-37.0,5.0,52.25,76.351640625,37.56,0.87970146875,33.33
2021-06-29 10:25:54.640625000,-37.0,5.0,52.5,76.35203125,35.35,0.8796614375,33.33
2021-06-29 10:25:54.648437500,-37.0,5.0,52.75,76.352421875,33.045,0.87962140625,33.33
2021-06-29 10:25:54.656250000,-37.0,5.0,53.0,76.3528125,30.74,0.879581375,33.33
2021-06-29 10:25:54.664062500,-37.0,5.0,52.75,76.35320312500001,28.884999999999998,0.87954134375,33.33
2021-06-29 10:25:54.671875000,-37.0,5.0,52.5,76.35359375,27.03,0.8795013125,33.33
2021-06-29 10:25:54.679687500,-37.0,5.0,52.25,76.353984375,26.08,0.87946128125,33.33
2021-06-29 10:25:54.687500000,-37.0,5.0,52.0,76.354375,25.13,0.87942125,33.33
2021-06-29 10:25:54.695312500,-37.0,5.0,52.0,76.354765625,25.314999999999998,0.87938121875,33.33
2021-06-29 10:25:54.703125000,-37.0,5.0,52.0,76.35515625000001,25.5,0.8793411875,33.33
2021-06-29 10:25:54.710937500,-37.0,5.0,52.0,76.355546875,26.765,0.87930115625,33.33
2021-06-29 10:25:54.718750000,-37.0,5.0,52.0,76.3559375,28.03,0.879261125,33.33
2021-06-29 10:25:54.726562500,-37.0,5.0,52.0,76.356328125,30.060000000000002,0.87922109375,33.33
2021-06-29 10:25:54.734375000,-37.0,5.0,52.0,76.35671875,32.09,0.8791810625,33.33
2021-06-29 10:25:54.742187500,-37.0,5.0,52.0,76.35710937500001,34.42,0.87914103125,33.33
2021-06-29 10:25:54.750000000,-37.0,5.0,52.0,76.3575,36.75,0.879101,33.33
2021-06-29 10:25:54.757812500,-37.0,5.0,52.25,76.357890625,38.91,0.87914103125,33.33
2021-06-29 10:25:54.765625000,-37.0,5.0,52.5,76.35828125,41.07,0.8791810625,33.33
2021-06-29 10:25:54.773437500,-37.0,5.0,52.75,76.358671875,42.71,0.87922109375,33.33
2021-06-29 10:25:54.781250000,-37.0,5.0,53.0,76.35906250000001,44.35,0.879261125,33.33
2021-06-29 10:25:54.789062500,-37.0,5.0,52.75,76.359453125,45.245000000000005,0.87930115625,33.33
2021-06-29 10:25:54.796875000,-37.0,5.0,52.5,76.35984375,46.14,0.8793411875,33.33
2021-06-29 10:25:54.804687500,-37.0,5.0,52.25,76.360234375,46.18,0.87938121875,33.33
2021-06-29 10:25:54.812500000,-37.0,5.0,52.0,76.360625,46.22,0.87942125,33.33
2021-06-29 10:25:54.820312500,-37.0,5.0,52.0,76.36101562500001,45.39,0.87946128125,33.33
2021-06-29 10:25:54.828125000,-37.0,5.0,52.0,76.36140625,44.56,0.8795013125,33.33
2021-06-29 10:25:54.835937500,-37.0,5.0,52.0,76.361796875,42.92,0.87954134375,33.33
2021-06-29 10:25:54.843750000,-37.0,5.0,52.0,76.3621875,41.28,0.879581375,33.33
2021-06-29 10:25:54.851562500,-37.0,5.0,52.0,76.362578125,39.0,0.87962140625,33.33
2021-06-29 10:25:54.859375000,-37.0,5.0,52.0,76.36296875000001,36.72,0.8796614375,33.33
2021-06-29 10:25:54.867187500,-37.0,5.0,52.0,76.363359375,34.06,0.87970146875,33.33
2021-06-29 10:25:54.875000000,-37.0,5.0,52.0,76.36375000000001,31.4,0.8797415,33.33
2021-06-29 10:25:54.882812500,-37.0,5.0,52.0,76.364140625,28.66,0.87978153125,33.33
2021-06-29 10:25:54.890625000,-37.0,5.0,52.0,76.36453125,25.92,0.8798215625,33.33
2021-06-29 10:25:54.898437500,-37.0,5.0,52.0,76.36492187500001,23.285,0.8798615937500001,33.33
2021-06-29 10:25:54.906250000,-37.0,5.0,52.0,76.3653125,20.65,0.879901625,33.33
2021-06-29 10:25:54.914062500,-37.0,5.0,52.0,76.36570312500001,18.185,0.87994165625,33.33
2021-06-29 10:25:54.921875000,-37.0,5.0,52.0,76.36609375,15.72,0.8799816875,33.33
2021-06-29 10:25:54.929687500,-37.0,5.0,52.0,76.366484375,13.3,0.88002171875,33.33
2021-06-29 10:25:54.937500000,-37.0,5.0,52.0,76.36687500000001,10.88,0.88006175,33.33
2021-06-29 10:25:54.945312500,-37.0,5.0,52.0,76.367265625,8.335,0.88010178125,33.33
2021-06-29 10:25:54.953125000,-37.0,5.0,52.0,76.36765625000001,5.79,0.8801418125,33.33
2021-06-29 10:25:54.960937500,-37.0,5.0,52.0,76.368046875,2.99,0.88018184375,33.33
2021-06-29 10:25:54.968750000,-37.0,5.0,52.0,76.3684375,0.19,0.880221875,33.33
2021-06-29 10:25:54.976562500,-37.0,5.0,52.0,76.36882812500001,-2.8950000000000005,0.88026190625,33.33
2021-06-29 10:25:54.984375000,-37.0,5.0,52.0,76.36921875,-5.98,0.8803019375,33.33
2021-06-29 10:25:54.992187500,-37.0,5.0,52.0,76.36960937500001,-9.25,0.88034196875,33.33
2021-06-29 10:25:55.000000000,-37.0,5.0,52.0,76.37,-12.52,0.880382,33.33
2021-06-29 10:25:55.007812500,-37.0,5.0,52.0,76.370078125,-15.81,0.880382,33.33
2021-06-29 10:25:55.015625000,-37.0,5.0,52.0,76.37015625000001,-19.1,0.880382,33.33
2021-06-29 10:25:55.023437500,-37.0,5.0,52.0,76.37023437500001,-22.245,0.880382,33.33
2021-06-29 10:25:55.031250000,-37.0,5.0,52.0,76.37031250000001,-25.39,0.880382,33.33
2021-06-29 10:25:55.039062500,-37.0,5.0,52.0,76.370390625,-28.295,0.880382,33.33
2021-06-29 10:25:55.046875000,-37.0,5.0,52.0,76.37046875,-31.2,0.880382,33.33
2021-06-29 10:25:55.054687500,-37.0,5.0,52.0,76.370546875,-33.835,0.880382,33.33
2021-06-29 10:25:55.062500000,-37.0,5.0,52.0,76.370625,-36.47,0.880382,33.33
2021-06-29 10:25:55.070312500,-37.0,5.0,52.0,76.370703125,-38.9,0.880382,33.33
2021-06-29 10:25:55.078125000,-37.0,5.0,52.0,76.37078125000001,-41.33,0.880382,33.33
2021-06-29 10:25:55.085937500,-37.0,5.0,52.0,76.37085937500001,-43.715,0.880382,33.33
2021-06-29 10:25:55.093750000,-37.0,5.0,52.0,76.3709375,-46.1,0.880382,33.33
2021-06-29 10:25:55.101562500,-37.0,5.0,52.0,76.371015625,-48.695,0.880382,33.33
2021-06-29 10:25:55.109375000,-37.0,5.0,52.0,76.37109375,-51.29,0.880382,33.33
2021-06-29 10:25:55.117187500,-37.0,5.0,52.0,76.371171875,-54.370000000000005,0.880382,33.33
2021-06-29 10:25:55.125000000,-37.0,5.0,52.0,76.37125,-57.45,0.880382,33.33
2021-06-29 10:25:55.132812500,-37.0,5.0,52.0,76.371328125,-61.160000000000004,0.880382,33.33
2021-06-29 10:25:55.140625000,-37.0,5.0,52.0,76.37140625,-64.87,0.880382,33.33
2021-06-29 10:25:55.148437500,-37.0,5.0,52.0,76.37148437500001,-69.045,0.880382,33.33
2021-06-29 10:25:55.156250000,-37.0,5.0,52.0,76.37156250000001,-73.22,0.880382,33.33
2021-06-29 10:25:55.164062500,-37.0,5.0,52.25,76.371640625,-77.315,0.880382,33.33
2021-06-29 10:25:55.171875000,-37.0,5.0,52.5,76.37171875,-81.41,0.880382,33.33
2021-06-29 10:25:55.179687500,-37.0,5.0,52.75,76.371796875,-84.50999999999999,0.880382,33.33
2021-06-29 10:25:55.187500000,-37.0,5.0,53.0,76.371875,-87.61,0.880382,33.33
2021-06-29 10:25:55.195312500,-37.0,5.0,52.75,76.371953125,-88.655,0.880382,33.33
2021-06-29 10:25:55.203125000,-37.0,5.0,52.5,76.37203125,-89.7,0.880382,33.33
2021-06-29 10:25:55.210937500,-37.0,5.0,52.25,76.37210937500001,-87.815,0.880382,33.33
2021-06-29 10:25:55.218750000,-37.0,5.0,52.0,76.3721875,-85.93,0.880382,33.33
2021-06-29 10:25:55.226562500,-37.0,5.0,52.0,76.372265625,-80.765,0.880382,33.33
2021-06-29 10:25:55.234375000,-37.0,5.0,52.0,76.37234375,-75.6,0.880382,33.33
2021-06-29 10:25:55.242187500,-37.0,5.0,52.0,76.372421875,-67.465,0.880382,33.33
2021-06-29 10:25:55.250000000,-37.0,5.0,52.0,76.3725,-59.33,0.880382,33.33
2021-06-29 10:25:55.257812500,-37.0,5.0,52.0,76.372578125,-49.18,0.88042203125,33.33
2021-06-29 10:25:55.265625000,-37.0,5.0,52.0,76.37265625,-39.03,0.8804620625,33.33
2021-06-29 10:25:55.273437500,-37.0,5.0,52.0,76.37273437500001,-28.165,0.88050209375,33.33
2021-06-29 10:25:55.281250000,-37.0,5.0,52.0,76.37281250000001,-17.3,0.880542125,33.33
2021-06-29 10:25:55.289062500,-37.0,5.0,52.0,76.372890625,-7.01,0.88058215625,33.33
2021-06-29 10:25:55.296875000,-37.0,5.0,52.0,76.37296875,3.28,0.8806221875,33.33
2021-06-29 10:25:55.304687500,-37.0,5.0,52.0,76.373046875,12.02,0.88066221875,33.33
2021-06-29 10:25:55.312500000,-37.0,5.0,52.0,76.373125,20.76,0.88070225,33.33
2021-06-29 10:25:55.320312500,-37.0,5.0,52.0,76.373203125,27.47,0.88074228125,33.33
2021-06-29 10:25:55.328125000,-37.0,5.0,52.0,76.37328125,34.18,0.8807823124999999,33.33
2021-06-29 10:25:55.335937500,-37.0,5.0,52.0,76.373359375,38.754999999999995,0.88082234375,33.33
2021-06-29 10:25:55.343750000,-37.0,5.0,52.0,76.3734375,43.33,0.880862375,33.33
2021-06-29 10:25:55.351562500,-37.0,5.0,52.0,76.373515625,45.915,0.8809024062499999,33.33
2021-06-29 10:25:55.359375000,-37.0,5.0,52.0,76.37359375,48.5,0.8809424375,33.33
2021-06-29 10:25:55.367187500,-37.0,5.0,52.0,76.373671875,49.34,0.88098246875,33.33
2021-06-29 10:25:55.375000000,-37.0,5.0,52.0,76.37375,50.18,0.8810225,33.33
2021-06-29 10:25:55.382812500,-37.0,5.0,52.0,76.373828125,49.54,0.88106253125,33.33
2021-06-29 10:25:55.390625000,-37.0,5.0,52.0,76.37390625,48.9,0.8811025625,33.33
2021-06-29 10:25:55.398437500,-37.0,5.0,52.0,76.373984375,47.15,0.88114259375,33.33
2021-06-29 10:25:55.406250000,-37.0,5.0,52.0,76.37406250000001,45.4,0.881182625,33.33
2021-06-29 10:25:55.414062500,-37.0,5.0,52.0,76.374140625,43.019999999999996,0.88122265625,33.33
2021-06-29 10:25:55.421875000,-37.0,5.0,52.0,76.37421875,40.64,0.8812626875,33.33
2021-06-29 10:25:55.429687500,-37.0,5.0,52.0,76.374296875,38.230000000000004,0.88130271875,33.33
2021-06-29 10:25:55.437500000,-37.0,5.0,52.0,76.374375,35.82,0.88134275,33.33
2021-06-29 10:25:55.445312500,-37.0,5.0,52.0,76.374453125,33.97,0.88138278125,33.33
2021-06-29 10:25:55.453125000,-37.0,5.0,52.0,76.37453125,32.12,0.8814228125,33.33
2021-06-29 10:25:55.460937500,-37.0,5.0,52.0,76.374609375,31.255,0.88146284375,33.33
2021-06-29 10:25:55.468750000,-37.0,5.0,52.0,76.3746875,30.39,0.881502875,33.33
2021-06-29 10:25:55.476562500,-37.0,5.0,52.0,76.374765625,30.630000000000003,0.88154290625,33.33
2021-06-29 10:25:55.484375000,-37.0,5.0,52.0,76.37484375,30.87,0.8815829374999999,33.33
2021-06-29 10:25:55.492187500,-37.0,5.0,52.0,76.374921875,32.035000000000004,0.88162296875,33.33
2021-06-29 10:25:55.500000000,-37.0,5.0,52.0,76.375,33.2,0.881663,33.33
2021-06-29 10:25:55.507812500,-37.0,5.0,52.0,76.375078125,34.92,0.88162296875,33.33
2021-06-29 10:25:55.515625000,-37.0,5.0,52.0,76.37515625,36.64,0.8815829374999999,33.33
2021-06-29 10:25:55.523437500,-37.0,5.0,52.0,76.375234375,38.495000000000005,0.88154290625,33.33
2021-06-29 10:25:55.531250000,-37.0,5.0,52.0,76.3753125,40.35,0.881502875,33.33
2021-06-29 10:25:55.539062500,-37.0,5.0,52.0,76.375390625,41.99,0.88146284375,33.33
2021-06-29 10:25:55.546875000,-37.0,5.0,52.0,76.37546875,43.63,0.8814228125,33.33
2021-06-29 10:25:55.554687500,-37.0,5.0,52.0,76.375546875,44.825,0.88138278125,33.33
2021-06-29 10:25:55.562500000,-37.0,5.0,52.0,76.375625,46.02,0.88134275,33.33
2021-06-29 10:25:55.570312500,-37.0,5.0,52.25,76.375703125,46.635000000000005,0.88130271875,33.33
2021-06-29 10:25:55.578125000,-37.0,5.0,52.5,76.37578125,47.25,0.8812626875,33.33
2021-06-29 10:25:55.585937500,-37.0,5.0,52.75,76.375859375,47.230000000000004,0.88122265625,33.33
2021-06-29 10:25:55.593750000,-37.0,5.0,53.0,76.37593749999999,47.21,0.881182625,33.33
2021-06-29 10:25:55.601562500,-37.0,5.0,52.75,76.376015625,46.504999999999995,0.88114259375,33.33
2021-06-29 10:25:55.609375000,-37.0,5.0,52.5,76.37609375,45.8,0.8811025625,33.33
2021-06-29 10:25:55.617187500,-37.0,5.0,52.25,76.376171875,44.42,0.88106253125,33.33
2021-06-29 10:25:55.625000000,-37.0,5.0,52.0,76.37625,43.04,0.8810225,33.33
2021-06-29 10:25:55.632812500,-37.0,5.0,52.0,76.376328125,41.06,0.88098246875,33.33
2021-06-29 10:25:55.640625000,-37.0,5.0,52.0,76.37640625,39.08,0.8809424375,33.33
2021-06-29 10:25:55.648437500,-37.0,5.0,52.0,76.376484375,36.635,0.8809024062499999,33.33
2021-06-29 10:25:55.656250000,-37.0,5.0,52.0,76.3765625,34.19,0.880862375,33.33
2021-06-29 10:25:55.664062500,-37.0,5.0,52.25,76.376640625,31.464999999999996,0.88082234375,33.33
2021-06-29 10:25:55.671875000,-37.0,5.0,52.5,76.37671875,28.74,0.8807823124999999,33.33
2021-06-29 10:25:55.679687500,-37.0,5.0,52.75,76.376796875,25.895,0.88074228125,33.33
2021-06-29 10:25:55.687500000,-37.0,5.0,53.0,76.376875,23.05,0.88070225,33.33
2021-06-29 10:25:55.695312500,-37.0,5.0,52.75,76.376953125,20.22,0.88066221875,33.33
2021-06-29 10:25:55.703125000,-37.0,5.0,52.5,76.37703125,17.39,0.8806221875,33.33
2021-06-29 10:25:55.710937500,-37.0,5.0,52.25,76.377109375,14.595,0.88058215625,33.33
2021-06-29 10:25:55.718750000,-37.0,5.0,52.0,76.37718749999999,11.8,0.880542125,33.33
2021-06-29 10:25:55.726562500,-37.0,5.0,52.0,76.37726562499999,8.995000000000001,0.88050209375,33.33
2021-06-29 10:25:55.734375000,-37.0,5.0,52.0,76.37734375,6.19,0.8804620625,33.33
2021-06-29 10:25:55.742187500,-37.0,5.0,52.0,76.377421875,3.265,0.88042203125,33.33
2021-06-29 10:25:55.750000000,-37.0,5.0,52.0,76.3775,0.34,0.880382,33.33
2021-06-29 10:25:55.757812500,-37.0,5.0,52.0,76.377578125,-2.785,0.88046209375,33.33
2021-06-29 10:25:55.765625000,-37.0,5.0,52.0,76.37765625,-5.91,0.8805421875,33.33
2021-06-29 10:25:55.773437500,-37.0,5.0,52.0,76.377734375,-9.219999999999999,0.88062228125,33.33
2021-06-29 10:25:55.781250000,-37.0,5.0,52.0,76.3778125,-12.53,0.880702375,33.33
2021-06-29 10:25:55.789062500,-37.0,5.0,52.0,76.37789062499999,-15.915,0.88078246875,33.33
2021-06-29 10:25:55.796875000,-37.0,5.0,52.0,76.37796875,-19.3,0.8808625625,33.33
2021-06-29 10:25:55.804687500,-37.0,5.0,52.0,76.378046875,-22.57,0.88094265625,33.33
2021-06-29 10:25:55.812500000,-37.0,5.0,52.0,76.378125,-25.84,0.88102275,33.33
2021-06-29 10:25:55.820312500,-37.0,5.0,52.0,76.378203125,-28.8,0.88110284375,33.33
2021-06-29 10:25:55.828125000,-37.0,5.0,52.0,76.37828125,-31.76,0.8811829375,33.33
2021-06-29 10:25:55.835937500,-37.0,5.0,52.0,76.378359375,-34.325,0.8812630312499999,33.33
2021-06-29 10:25:55.843750000,-37.0,5.0,52.0,76.37843749999999,-36.89,0.881343125,33.33
2021-06-29 10:25:55.851562500,-37.0,5.0,52.0,76.37851562499999,-39.105000000000004,0.88142321875,33.33
2021-06-29 10:25:55.859375000,-37.0,5.0,52.0,76.37859375,-41.32,0.8815033125,33.33
2021-06-29 10:25:55.867187500,-37.0,5.0,52.0,76.378671875,-43.394999999999996,0.88158340625,33.33
2021-06-29 10:25:55.875000000,-37.0,5.0,52.0,76.37875,-45.47,0.8816634999999999,33.33
2021-06-29 10:25:55.882812500,-37.0,5.0,52.0,76.378828125,-47.735,0.88174359375,33.33
2021-06-29 10:25:55.890625000,-37.0,5.0,52.0,76.37890625,-50.0,0.8818236875,33.33
2021-06-29 10:25:55.898437500,-37.0,5.0,52.0,76.378984375,-52.8,0.88190378125,33.33
2021-06-29 10:25:55.906250000,-37.0,5.0,52.0,76.3790625,-55.6,0.881983875,33.33
2021-06-29 10:25:55.914062500,-37.0,5.0,52.0,76.37914062499999,-59.21,0.88206396875,33.33
2021-06-29 10:25:55.921875000,-37.0,5.0,52.0,76.37921874999999,-62.82,0.8821440625,33.33
2021-06-29 10:25:55.929687500,-37.0,5.0,52.0,76.379296875,-67.295,0.88222415625,33.33
2021-06-29 10:25:55.937500000,-37.0,5.0,52.0,76.379375,-71.77,0.88230425,33.33
2021-06-29 10:25:55.945312500,-37.0,5.0,52.0,76.379453125,-76.78,0.88238434375,33.33
2021-06-29 10:25:55.953125000,-37.0,5.0,52.0,76.37953125,-81.79,0.8824644375,33.33
2021-06-29 10:25:55.960937500,-37.0,5.0,52.0,76.379609375,-86.6,0.88254453125,33.33
2021-06-29 10:25:55.968750000,-37.0,5.0,52.0,76.37968749999999,-91.41,0.8826246249999999,33.33
2021-06-29 10:25:55.976562500,-37.0,5.0,52.0,76.37976562499999,-94.945,0.88270471875,33.33
2021-06-29 10:25:55.984375000,-37.0,5.0,52.0,76.37984374999999,-98.48,0.8827848125,33.33
2021-06-29 10:25:55.992187500,-37.0,5.0,52.0,76.379921875,-99.605,0.88286490625,33.33
2021-06-29 10:25:56.000000000,-37.0,5.0,52.0,76.38,-100.73,0.882945,33.33
2021-06-29 10:25:56.007812500,-37.0,5.0,52.0,76.38,-98.6,0.882945,33.3303125
2021-06-29 10:25:56.015625000,-37.0,5.0,52.0,76.38,-96.47,0.882945,33.330625
2021-06-29 10:25:56.023437500,-37.0,5.0,52.0,76.38,-90.815,0.882945,33.3309375
2021-06-29 10:25:56.031250000,-37.0,5.0,52.0,76.38,-85.16,0.882945,33.33125
2021-06-29 10:25:56.039062500,-37.0,5.0,52.0,76.38,-76.445,0.882945,33.3315625
2021-06-29 10:25:56.046875000,-37.0,5.0,52.0,76.38,-67.73,0.882945,33.331875
2021-06-29 10:25:56.054687500,-37.0,5.0,52.0,76.38,-57.015,0.882945,33.332187499999996
2021-06-29 10:25:56.062500000,-37.0,5.0,52.0,76.38,-46.3,0.882945,33.332499999999996
2021-06-29 10:25:56.070312500,-37.0,5.0,52.0,76.38,-34.91,0.882945,33.3328125
2021-06-29 10:25:56.078125000,-37.0,5.0,52.0,76.38,-23.52,0.882945,33.333125
2021-06-29 10:25:56.085937500,-37.0,5.0,52.0,76.38,-12.715,0.882945,33.3334375
2021-06-29 10:25:56.093750000,-37.0,5.0,52.0,76.38,-1.91,0.882945,33.33375
2021-06-29 10:25:56.101562500,-37.0,5.0,52.0,76.38,7.390000000000001,0.882945,33.3340625
2021-06-29 10:25:56.109375000,-37.0,5.0,52.0,76.38,16.69,0.882945,33.334375
2021-06-29 10:25:56.117187500,-37.0,5.0,52.0,76.38,24.005000000000003,0.882945,33.3346875
2021-06-29 10:25:56.125000000,-37.0,5.0,52.0,76.38,31.32,0.882945,33.335
2021-06-29 10:25:56.132812500,-37.0,5.0,52.0,76.38,36.54,0.882945,33.3353125
2021-06-29 10:25:56.140625000,-37.0,5.0,52.0,76.38,41.76,0.882945,33.335625
2021-06-29 10:25:56.148437500,-37.0,5.0,52.0,76.38,45.015,0.882945,33.3359375
2021-06-29 10:25:56.156250000,-37.0,5.0,52.0,76.38,48.27,0.882945,33.33625
2021-06-29 10:25:56.164062500,-37.0,5.0,52.0,76.38,49.82,0.882945,33.3365625
2021-06-29 10:25:56.171875000,-37.0,5.0,52.0,76.38,51.37,0.882945,33.336875
2021-06-29 10:25:56.179687500,-37.0,5.0,52.0,76.38,51.545,0.882945,33.3371875
2021-06-29 10:25:56.187500000,-37.0,5.0,52.0,76.38,51.72,0.882945,33.337500000000006
2021-06-29 10:25:56.195312500,-37.0,5.0,52.0,76.38,50.915,0.882945,33.337812500000005
2021-06-29 10:25:56.203125000,-37.0,5.0,52.0,76.38,50.11,0.882945,33.338125000000005
2021-06-29 10:25:56.210937500,-37.0,5.0,52.0,76.38,48.76,0.882945,33.338437500000005
2021-06-29 10:25:56.218750000,-37.0,5.0,52.0,76.38,47.41,0.882945,33.338750000000005
2021-06-29 10:25:56.226562500,-37.0,5.0,52.0,76.38,46.0,0.882945,33.339062500000004
2021-06-29 10:25:56.234375000,-37.0,5.0,52.0,76.38,44.59,0.882945,33.339375000000004
2021-06-29 10:25:56.242187500,-37.0,5.0,52.0,76.38,43.540000000000006,0.882945,33.339687500000004
2021-06-29 10:25:56.250000000,-37.0,5.0,52.0,76.38,42.49,0.882945,33.34
2021-06-29 10:25:56.257812500,-37.0,5.0,52.0,76.38,42.095,0.8830250625,33.34
2021-06-29 10:25:56.265625000,-37.0,5.0,52.0,76.38,41.7,0.8831051249999999,33.34
2021-06-29 10:25:56.273437500,-37.0,5.0,52.0,76.38,42.05,0.8831851875,33.34
2021-06-29 10:25:56.281250000,-37.0,5.0,52.0,76.38,42.4,0.88326525,33.34
2021-06-29 10:25:56.289062500,-36.75,5.0,52.25,76.38,43.375,0.8833453125,33.34
2021-06-29 10:25:56.296875000,-36.5,5.0,52.5,76.38,44.35,0.883425375,33.34
2021-06-29 10:25:56.304687500,-36.25,5.0,52.75,76.38,45.675,0.8835054375,33.34
2021-06-29 10:25:56.312500000,-36.0,5.0,53.0,76.38,47.0,0.8835855,33.34
2021-06-29 10:25:56.320312500,-36.0,5.0,52.75,76.38,48.39,0.8836655625,33.34
2021-06-29 10:25:56.328125000,-36.0,5.0,52.5,76.38,49.78,0.883745625,33.34
2021-06-29 10:25:56.335937500,-36.0,5.0,52.25,76.38,51.025000000000006,0.8838256875,33.34
2021-06-29 10:25:56.343750000,-36.0,5.0,52.0,76.38,52.27,0.88390575,33.34
2021-06-29 10:25:56.351562500,-36.5,5.0,52.0,76.38,53.27,0.8839858125,33.34
2021-06-29 10:25:56.359375000,-37.0,5.0,52.0,76.38,54.27,0.884065875,33.34
2021-06-29 10:25:56.367187500,-37.5,5.0,52.0,76.38,55.015,0.8841459375,33.34
2021-06-29 10:25:56.375000000,-38.0,5.0,52.0,76.38,55.76,0.884226,33.34
2021-06-29 10:25:56.382812500,-37.75,5.0,52.0,76.38,56.215,0.8843060625,33.34
2021-06-29 10:25:56.390625000,-37.5,5.0,52.0,76.38,56.67,0.884386125,33.34
2021-06-29 10:25:56.398437500,-37.25,5.0,52.0,76.38,56.715,0.8844661875000001,33.34
2021-06-29 10:25:56.406250000,-37.0,5.0,52.0,76.38,56.76,0.88454625,33.34
2021-06-29 10:25:56.414062500,-37.0,5.0,52.0,76.38,56.215,0.8846263125,33.34
2021-06-29 10:25:56.421875000,-37.0,5.0,52.0,76.38,55.67,0.884706375,33.34
2021-06-29 10:25:56.429687500,-37.0,5.0,52.0,76.38,54.325,0.8847864375000001,33.34
2021-06-29 10:25:56.437500000,-37.0,5.0,52.0,76.38,52.98,0.8848665,33.34
2021-06-29 10:25:56.445312500,-37.0,5.0,52.0,76.38,50.75,0.8849465625,33.34
2021-06-29 10:25:56.453125000,-37.0,5.0,52.0,76.38,48.52,0.8850266250000001,33.34
2021-06-29 10:25:56.460937500,-37.0,5.0,52.0,76.38,45.480000000000004,0.8851066875,33.34
2021-06-29 10:25:56.468750000,-37.0,5.0,52.0,76.38,42.44,0.88518675,33.34
2021-06-29 10:25:56.476562500,-37.0,5.0,52.0,76.38,38.855000000000004,0.8852668125,33.34
2021-06-29 10:25:56.484375000,-37.0,5.0,52.0,76.38,35.27,0.8853468750000001,33.34
2021-06-29 10:25:56.492187500,-37.0,5.0,52.0,76.38,31.46,0.8854269375,33.34
2021-06-29 10:25:56.500000000,-37.0,5.0,52.0,76.38,27.65,0.885507,33.34
2021-06-29 10:25:56.507812500,-37.0,5.0,52.0,76.38,23.945,0.885386875,33.34
2021-06-29 10:25:56.515625000,-37.0,5.0,52.0,76.38,20.24,0.88526675,33.34
2021-06-29 10:25:56.523437500,-37.0,5.0,52.0,76.38,16.855,0.8851466250000001,33.34
2021-06-29 10:25:56.531250000,-37.0,5.0,52.0,76.38,13.47,0.8850265,33.34
2021-06-29 10:25:56.539062500,-37.0,5.0,52.0,76.38,10.45,0.884906375,33.34
2021-06-29 10:25:56.546875000,-37.0,5.0,52.0,76.38,7.43,0.88478625,33.34
2021-06-29 10:25:56.554687500,-37.0,5.0,52.0,76.38,4.71,0.8846661250000001,33.34
2021-06-29 10:25:56.562500000,-37.0,5.0,52.0,76.38,1.99,0.884546,33.34
2021-06-29 10:25:56.570312500,-37.0,5.0,52.0,76.38,-0.5999999999999999,0.884425875,33.34
2021-06-29 10:25:56.578125000,-37.0,5.0,52.0,76.38,-3.19,0.88430575,33.34
2021-06-29 10:25:56.585937500,-37.0,5.0,52.0,76.38,-5.805,0.884185625,33.34
2021-06-29 10:25:56.593750000,-37.0,5.0,52.0,76.38,-8.42,0.8840655000000001,33.34
2021-06-29 10:25:56.601562500,-37.0,5.0,52.0,76.38,-11.135,0.883945375,33.34
2021-06-29 10:25:56.609375000,-37.0,5.0,52.0,76.38,-13.85,0.88382525,33.34
2021-06-29 10:25:56.617187500,-37.0,5.0,52.0,76.38,-16.63,0.883705125,33.34
2021-06-29 10:25:56.625000000,-37.0,5.0,52.0,76.38,-19.41,0.8835850000000001,33.34
2021-06-29 10:25:56.632812500,-37.0,5.0,52.0,76.38,-22.11,0.883464875,33.34
2021-06-29 10:25:56.640625000,-37.0,5.0,52.0,76.38,-24.81,0.88334475,33.34
2021-06-29 10:25:56.648437500,-37.0,5.0,52.0,76.38,-27.275,0.883224625,33.34
2021-06-29 10:25:56.656250000,-37.0,5.0,52.0,76.38,-29.74,0.8831045,33.34
2021-06-29 10:25:56.664062500,-37.0,5.0,52.0,76.38,-31.89,0.882984375,33.34
2021-06-29 10:25:56.671875000,-37.0,5.0,52.0,76.38,-34.04,0.88286425,33.34
2021-06-29 10:25:56.679687500,-37.0,5.0,52.0,76.38,-35.97,0.882744125,33.34
2021-06-29 10:25:56.687500000,-37.0,5.0,52.0,76.38,-37.9,0.882624,33.34
2021-06-29 10:25:56.695312500,-37.0,5.0,52.0,76.38,-39.864999999999995,0.8825038749999999,33.34
2021-06-29 10:25:56.703125000,-37.0,5.0,52.0,76.38,-41.83,0.88238375,33.34
2021-06-29 10:25:56.710937500,-37.0,5.0,52.0,76.38,-44.19,0.882263625,33.34
2021-06-29 10:25:56.718750000,-37.0,5.0,52.0,76.38,-46.55,0.8821435,33.34
2021-06-29 10:25:56.726562500,-37.0,5.0,52.0,76.38,-49.655,0.8820233749999999,33.34
2021-06-29 10:25:56.734375000,-37.0,5.0,52.0,76.38,-52.76,0.88190325,33.34
2021-06-29 10:25:56.742187500,-37.0,5.0,52.0,76.38,-56.78,0.881783125,33.34
2021-06-29 10:25:56.750000000,-37.0,5.0,52.0,76.38,-60.8,0.881663,33.34
2021-06-29 10:25:56.757812500,-37.0,5.0,52.0,76.38,-65.59,0.881783125,33.34
2021-06-29 10:25:56.765625000,-37.0,5.0,52.0,76.38,-70.38,0.88190325,33.34
2021-06-29 10:25:56.773437500,-37.0,5.0,52.0,76.38,-75.41,0.8820233749999999,33.34
2021-06-29 10:25:56.781250000,-37.0,5.0,52.0,76.38,-80.44,0.8821435,33.34
2021-06-29 10:25:56.789062500,-37.0,5.0,52.0,76.38,-84.82499999999999,0.882263625,33.34
2021-06-29 10:25:56.796875000,-37.0,5.0,52.0,76.38,-89.21,0.88238375,33.34
2021-06-29 10:25:56.804687500,-37.0,5.0,52.0,76.38,-91.875,0.8825038749999999,33.34
2021-06-29 10:25:56.812500000,-37.0,5.0,52.0,76.38,-94.54,0.882624,33.34
2021-06-29 10:25:56.820312500,-37.0,5.0,52.0,76.38,-94.515,0.882744125,33.34
2021-06-29 10:25:56.828125000,-37.0,5.0,52.0,76.38,-94.49,0.88286425,33.34
2021-06-29 10:25:56.835937500,-37.0,5.0,52.0,76.38,-91.205,0.882984375,33.34
2021-06-29 10:25:56.843750000,-37.0,5.0,52.0,76.38,-87.92,0.8831045,33.34
2021-06-29 10:25:56.851562500,-37.0,5.0,52.25,76.38,-81.405,0.883224625,33.34
2021-06-29 10:25:56.859375000,-37.0,5.0,52.5,76.38,-74.89,0.88334475,33.34
2021-06-29 10:25:56.867187500,-37.0,5.0,52.75,76.38,-65.845,0.883464875,33.34
2021-06-29 10:25:56.875000000,-37.0,5.0,53.0,76.38,-56.8,0.8835850000000001,33.34
2021-06-29 10:25:56.882812500,-37.0,5.0,52.75,76.38,-46.4,0.883705125,33.34
2021-06-29 10:25:56.890625000,-37.0,5.0,52.5,76.38,-36.0,0.88382525,33.34
2021-06-29 10:25:56.898437500,-37.0,5.0,52.25,76.38,-25.56,0.883945375,33.34
2021-06-29 10:25:56.906250000,-37.0,5.0,52.0,76.38,-15.12,0.8840655000000001,33.34
2021-06-29 10:25:56.914062500,-37.0,5.0,52.0,76.38,-5.754999999999999,0.884185625,33.34
2021-06-29 10:25:56.921875000,-37.0,5.0,52.0,76.38,3.61,0.88430575,33.34
2021-06-29 10:25:56.929687500,-37.0,5.0,52.0,76.38,11.209999999999999,0.884425875,33.34
2021-06-29 10:25:56.937500000,-37.0,5.0,52.0,76.38,18.81,0.884546,33.34
2021-06-29 10:25:56.945312500,-37.0,5.0,52.0,76.38,24.415,0.8846661250000001,33.34
2021-06-29 10:25:56.953125000,-37.0,5.0,52.0,76.38,30.02,0.88478625,33.34
2021-06-29 10:25:56.960937500,-37.0,5.0,52.0,76.38,33.735,0.884906375,33.34
2021-06-29 10:25:56.968750000,-37.0,5.0,52.0,76.38,37.45,0.8850265,33.34
2021-06-29 10:25:56.976562500,-37.0,5.0,52.25,76.38,39.535,0.8851466250000001,33.34
2021-06-29 10:25:56.984375000,-37.0,5.0,52.5,76.38,41.62,0.88526675,33.34
2021-06-29 10:25:56.992187500,-37.0,5.0,52.75,76.38,42.34,0.885386875,33.34
2021-06-29 10:25:57.000000000,-37.0,5.0,53.0,76.38,43.06,0.885507,33.34
2021-06-29 10:25:57.007812500,-36.75,5.0,53.0,76.37976562499999,42.644999999999996,0.885507,33.34
2021-06-29 10:25:57.015625000,-36.5,5.0,53.0,76.37953125,42.23,0.885507,33.34
2021-06-29 10:25:57.023437500,-36.25,5.0,53.0,76.379296875,40.95,0.885507,33.34
2021-06-29 10:25:57.031250000,-36.0,5.0,53.0,76.37906249999999,39.67,0.885507,33.34
2021-06-29 10:25:57.039062500,-36.25,5.0,52.75,76.378828125,37.85,0.885507,33.34
2021-06-29 10:25:57.046875000,-36.5,5.0,52.5,76.37859375,36.03,0.885507,33.34
2021-06-29 10:25:57.054687500,-36.75,5.0,52.25,76.378359375,34.1,0.885507,33.34
2021-06-29 10:25:57.062500000,-37.0,5.0,52.0,76.378125,32.17,0.885507,33.34
2021-06-29 10:25:57.070312500,-37.0,5.0,52.0,76.37789062499999,30.58,0.885507,33.34
2021-06-29 10:25:57.078125000,-37.0,5.0,52.0,76.37765625,28.99,0.885507,33.34
2021-06-29 10:25:57.085937500,-37.0,5.0,52.0,76.377421875,28.15,0.885507,33.34
2021-06-29 10:25:57.093750000,-37.0,5.0,52.0,76.37718749999999,27.31,0.885507,33.34
2021-06-29 10:25:57.101562500,-37.0,5.0,52.0,76.376953125,27.439999999999998,0.885507,33.34
2021-06-29 10:25:57.109375000,-37.0,5.0,52.0,76.37671875,27.57,0.885507,33.34
2021-06-29 10:25:57.117187500,-37.0,5.0,52.0,76.37648437499999,28.66,0.885507,33.34
2021-06-29 10:25:57.125000000,-37.0,5.0,52.0,76.37625,29.75,0.885507,33.34
2021-06-29 10:25:57.132812500,-37.0,5.0,52.0,76.376015625,31.545,0.885507,33.34
2021-06-29 10:25:57.140625000,-37.0,5.0,52.0,76.37578124999999,33.34,0.885507,33.34
2021-06-29 10:25:57.148437500,-37.0,5.0,52.0,76.375546875,35.45,0.885507,33.34
2021-06-29 10:25:57.156250000,-37.0,5.0,52.0,76.37531249999999,37.56,0.885507,33.34
2021-06-29 10:25:57.164062500,-37.0,5.0,52.0,76.375078125,39.565,0.885507,33.34
2021-06-29 10:25:57.171875000,-37.0,5.0,52.0,76.37484375,41.57,0.885507,33.34
2021-06-29 10:25:57.179687500,-37.0,5.0,52.0,76.37460937499999,43.120000000000005,0.885507,33.34
2021-06-29 10:25:57.187500000,-37.0,5.0,52.0,76.374375,44.67,0.885507,33.34
2021-06-29 10:25:57.195312500,-37.0,5.0,52.0,76.374140625,45.555,0.885507,33.34
2021-06-29 10:25:57.203125000,-37.0,5.0,52.0,76.37390624999999,46.44,0.885507,33.34
2021-06-29 10:25:57.210937500,-37.0,5.0,52.0,76.373671875,46.575,0.885507,33.34
2021-06-29 10:25:57.218750000,-37.0,5.0,52.0,76.3734375,46.71,0.885507,33.34
2021-06-29 10:25:57.226562500,-37.0,5.0,52.0,76.37320312499999,46.1,0.885507,33.34
2021-06-29 10:25:57.234375000,-37.0,5.0,52.0,76.37296875,45.49,0.885507,33.34
2021-06-29 10:25:57.242187500,-37.0,5.0,52.0,76.372734375,44.18,0.885507,33.34
2021-06-29 10:25:57.250000000,-37.0,5.0,52.0,76.3725,42.87,0.885507,33.34
2021-06-29 10:25:57.257812500,-37.0,5.0,52.0,76.372265625,40.91,0.8855870625000001,33.34
2021-06-29 10:25:57.265625000,-37.0,5.0,52.0,76.37203124999999,38.95,0.885667125,33.34
2021-06-29 10:25:57.273437500,-37.0,5.0,52.0,76.371796875,36.425,0.8857471875,33.34
2021-06-29 10:25:57.281250000,-37.0,5.0,52.0,76.3715625,33.9,0.8858272500000001,33.34
2021-06-29 10:25:57.289062500,-37.0,5.0,52.0,76.37132812499999,30.91,0.8859073125,33.34
2021-06-29 10:25:57.296875000,-37.0,5.0,52.0,76.37109375,27.92,0.885987375,33.34
2021-06-29 10:25:57.304687500,-37.0,5.0,52.0,76.370859375,24.645000000000003,0.8860674375,33.34
2021-06-29 10:25:57.312500000,-37.0,5.0,52.0,76.37062499999999,21.37,0.8861475000000001,33.34
2021-06-29 10:25:57.320312500,-37.0,5.0,52.0,76.370390625,18.025,0.8862275625,33.34
2021-06-29 10:25:57.328125000,-37.0,5.0,52.0,76.37015625,14.68,0.886307625,33.34
2021-06-29 10:25:57.335937500,-37.0,5.0,52.0,76.36992187499999,11.475,0.8863876875000001,33.34
2021-06-29 10:25:57.343750000,-37.0,5.0,52.0,76.3696875,8.27,0.88646775,33.34
2021-06-29 10:25:57.351562500,-36.75,5.0,52.25,76.36945312499999,5.365,0.8865478125,33.34
2021-06-29 10:25:57.359375000,-36.5,5.0,52.5,76.36921875,2.46,0.8866278750000001,33.34
2021-06-29 10:25:57.367187500,-36.25,5.0,52.75,76.368984375,-0.07500000000000018,0.8867079375,33.34
2021-06-29 10:25:57.375000000,-36.0,5.0,53.0,76.36874999999999,-2.61,0.886788,33.34
2021-06-29 10:25:57.382812500,-36.25,5.0,53.0,76.368515625,-4.824999999999999,0.8868680625,33.34
2021-06-29 10:25:57.390625000,-36.5,5.0,53.0,76.36828125,-7.04,0.886948125,33.34
2021-06-29 10:25:57.398437500,-36.75,5.0,53.0,76.36804687499999,-9.06,0.8870281875,33.34
2021-06-29 10:25:57.406250000,-37.0,5.0,53.0,76.3678125,-11.08,0.88710825,33.34
2021-06-29 10:25:57.414062500,-37.0,5.0,52.75,76.367578125,-13.059999999999999,0.8871883125,33.34
2021-06-29 10:25:57.421875000,-37.0,5.0,52.5,76.36734374999999,-15.04,0.887268375,33.34
2021-06-29 10:25:57.429687500,-37.0,5.0,52.25,76.367109375,-17.125,0.8873484375,33.34
2021-06-29 10:25:57.437500000,-37.0,5.0,52.0,76.366875,-19.21,0.8874285,33.34
2021-06-29 10:25:57.445312500,-37.0,5.0,52.0,76.36664062499999,-21.465,0.8875085625,33.34
2021-06-29 10:25:57.453125000,-37.0,5.0,52.0,76.36640625,-23.72,0.887588625,33.34
2021-06-29 10:25:57.460937500,-37.0,5.0,52.0,76.36617187499999,-26.14,0.8876686875,33.34
2021-06-29 10:25:57.468750000,-37.0,5.0,52.0,76.3659375,-28.56,0.88774875,33.34
2021-06-29 10:25:57.476562500,-37.0,5.0,52.0,76.365703125,-31.125,0.8878288125,33.34
2021-06-29 10:25:57.484375000,-37.0,5.0,52.0,76.36546874999999,-33.69,0.887908875,33.34
2021-06-29 10:25:57.492187500,-37.0,5.0,52.0,76.365234375,-36.425,0.8879889375,33.34
2021-06-29 10:25:57.500000000,-37.0,5.0,52.0,76.365,-39.16,0.888069,33.34
2021-06-29 10:25:57.507812500,-37.0,5.0,52.0,76.36476562499999,-42.19499999999999,0.8879889375,33.34
2021-06-29 10:25:57.515625000,-37.0,5.0,52.0,76.36453125,-45.23,0.887908875,33.34
2021-06-29 10:25:57.523437500,-37.0,5.0,52.0,76.364296875,-48.78,0.8878288125,33.34
2021-06-29 10:25:57.531250000,-37.0,5.0,52.0,76.36406249999999,-52.33,0.88774875,33.34
2021-06-29 10:25:57.539062500,-36.75,5.0,52.0,76.363828125,-56.504999999999995,0.8876686875,33.34
2021-06-29 10:25:57.546875000,-36.5,5.0,52.0,76.36359374999999,-60.68,0.887588625,33.34
2021-06-29 10:25:57.554687500,-36.25,5.0,52.0,76.363359375,-65.32,0.8875085625,33.34
2021-06-29 10:25:57.562500000,-36.0,5.0,52.0,76.363125,-69.96,0.8874285,33.34
2021-06-29 10:25:57.570312500,-36.25,5.0,52.0,76.36289062499999,-74.495,0.8873484375,33.34
2021-06-29 10:25:57.578125000,-36.5,5.0,52.0,76.36265625,-79.03,0.887268375,33.34
2021-06-29 10:25:57.585937500,-36.75,5.0,52.0,76.362421875,-82.475,0.8871883125,33.34
2021-06-29 10:25:57.593750000,-37.0,5.0,52.0,76.36218749999999,-85.92,0.88710825,33.34
2021-06-29 10:25:57.601562500,-37.0,5.0,52.0,76.361953125,-87.185,0.8870281875,33.34
2021-06-29 10:25:57.609375000,-37.0,5.0,52.0,76.36171875,-88.45,0.886948125,33.34
2021-06-29 10:25:57.617187500,-37.0,5.0,52.0,76.36148437499999,-86.68,0.8868680625,33.34
2021-06-29 10:25:57.625000000,-37.0,5.0,52.0,76.36125,-84.91,0.886788,33.34
2021-06-29 10:25:57.632812500,-37.0,5.0,52.0,76.361015625,-79.81,0.8867079375,33.34
2021-06-29 10:25:57.640625000,-37.0,5.0,52.0,76.36078124999999,-74.71,0.8866278750000001,33.34
2021-06-29 10:25:57.648437500,-37.0,5.0,52.0,76.360546875,-66.67999999999999,0.8865478125,33.34
2021-06-29 10:25:57.656250000,-37.0,5.0,52.0,76.36031249999999,-58.65,0.88646775,33.34
2021-06-29 10:25:57.664062500,-37.0,5.0,52.25,76.360078125,-48.67,0.8863876875000001,33.34
2021-06-29 10:25:57.671875000,-37.0,5.0,52.5,76.35984375,-38.69,0.886307625,33.34
2021-06-29 10:25:57.679687500,-37.0,5.0,52.75,76.35960937499999,-28.015,0.8862275625,33.34
2021-06-29 10:25:57.687500000,-37.0,5.0,53.0,76.359375,-17.34,0.8861475000000001,33.34
2021-06-29 10:25:57.695312500,-37.0,5.0,53.0,76.359140625,-7.140000000000001,0.8860674375,33.34
2021-06-29 10:25:57.703125000,-37.0,5.0,53.0,76.35890624999999,3.06,0.885987375,33.34
2021-06-29 10:25:57.710937500,-37.0,5.0,53.0,76.358671875,11.910000000000002,0.8859073125,33.34
2021-06-29 10:25:57.718750000,-37.0,5.0,53.0,76.3584375,20.76,0.8858272500000001,33.34
2021-06-29 10:25:57.726562500,-37.0,5.0,52.75,76.35820312499999,27.755000000000003,0.8857471875,33.34
2021-06-29 10:25:57.734375000,-37.0,5.0,52.5,76.35796875,34.75,0.885667125,33.34
2021-06-29 10:25:57.742187500,-37.0,5.0,52.25,76.35773437499999,39.715,0.8855870625000001,33.34
2021-06-29 10:25:57.750000000,-37.0,5.0,52.0,76.35749999999999,44.68,0.885507,33.34
2021-06-29 10:25:57.757812500,-37.0,5.0,52.0,76.357265625,47.625,0.8855870625000001,33.34
2021-06-29 10:25:57.765625000,-37.0,5.0,52.0,76.35703124999999,50.57,0.885667125,33.34
2021-06-29 10:25:57.773437500,-37.0,5.0,52.0,76.356796875,51.65,0.8857471875,33.34
2021-06-29 10:25:57.781250000,-37.0,5.0,52.0,76.3565625,52.73,0.8858272500000001,33.34
2021-06-29 10:25:57.789062500,-37.0,5.0,52.0,76.35632812499999,52.215,0.8859073125,33.34
2021-06-29 10:25:57.796875000,-37.0,5.0,52.0,76.35609375,51.7,0.885987375,33.34
2021-06-29 10:25:57.804687500,-37.0,5.0,52.0,76.355859375,49.980000000000004,0.8860674375,33.34
2021-06-29 10:25:57.812500000,-37.0,5.0,52.0,76.35562499999999,48.26,0.8861475000000001,33.34
2021-06-29 10:25:57.820312500,-37.0,5.0,52.0,76.355390625,45.849999999999994,0.8862275625,33.34
2021-06-29 10:25:57.828125000,-37.0,5.0,52.0,76.35515625,43.44,0.886307625,33.34
2021-06-29 10:25:57.835937500,-37.0,5.0,52.0,76.35492187499999,40.935,0.8863876875000001,33.34
2021-06-29 10:25:57.843750000,-37.0,5.0,52.0,76.3546875,38.43,0.88646775,33.34
2021-06-29 10:25:57.851562500,-37.0,5.0,52.0,76.35445312499999,36.39,0.8865478125,33.34
2021-06-29 10:25:57.859375000,-37.0,5.0,52.0,76.35421875,34.35,0.8866278750000001,33.34
2021-06-29 10:25:57.867187500,-37.0,5.0,52.0,76.353984375,33.205,0.8867079375,33.34
2021-06-29 10:25:57.875000000,-37.0,5.0,52.0,76.35374999999999,32.06,0.886788,33.34
2021-06-29 10:25:57.882812500,-37.0,5.0,52.0,76.353515625,31.995,0.8868680625,33.34
2021-06-29 10:25:57.890625000,-37.0,5.0,52.0,76.35328125,31.93,0.886948125,33.34
2021-06-29 10:25:57.898437500,-37.0,5.0,52.0,76.35304687499999,32.86,0.8870281875,33.34
2021-06-29 10:25:57.906250000,-37.0,5.0,52.0,76.3528125,33.79,0.88710825,33.34
2021-06-29 10:25:57.914062500,-37.0,5.0,52.0,76.352578125,35.435,0.8871883125,33.34
2021-06-29 10:25:57.921875000,-37.0,5.0,52.0,76.35234374999999,37.08,0.887268375,33.34
2021-06-29 10:25:57.929687500,-37.0,5.0,52.0,76.352109375,39.025,0.8873484375,33.34
2021-06-29 10:25:57.937500000,-37.0,5.0,52.0,76.35187499999999,40.97,0.8874285,33.34
2021-06-29 10:25:57.945312500,-37.0,5.0,52.25,76.35164062499999,42.81,0.8875085625,33.34
2021-06-29 10:25:57.953125000,-37.0,5.0,52.5,76.35140625,44.65,0.887588625,33.34
2021-06-29 10:25:57.960937500,-37.0,5.0,52.75,76.35117187499999,46.07,0.8876686875,33.34
2021-06-29 10:25:57.968750000,-37.0,5.0,53.0,76.3509375,47.49,0.88774875,33.34
2021-06-29 10:25:57.976562500,-37.0,5.0,52.75,76.350703125,48.260000000000005,0.8878288125,33.34
2021-06-29 10:25:57.984375000,-37.0,5.0,52.5,76.35046874999999,49.03,0.887908875,33.34
2021-06-29 10:25:57.992187500,-37.0,5.0,52.25,76.350234375,49.03,0.8879889375,33.34
2021-06-29 10:25:58.000000000,-37.0,5.0,52.0,76.35,49.03,0.888069,33.34
2021-06-29 10:25:58.007812500,-37.0,5.0,52.0,76.349453125,48.19,0.8879889375,33.34
2021-06-29 10:25:58.015625000,-37.0,5.0,52.0,76.34890625,47.35,0.887908875,33.34
2021-06-29 10:25:58.023437500,-37.0,5.0,52.0,76.348359375,45.7,0.8878288125,33.34
2021-06-29 10:25:58.031250000,-37.0,5.0,52.0,76.34781249999999,44.05,0.88774875,33.34
2021-06-29 10:25:58.039062500,-37.0,5.0,52.0,76.34726562499999,41.675,0.8876686875,33.34
2021-06-29 10:25:58.046875000,-37.0,5.0,52.0,76.34671875,39.3,0.887588625,33.34
2021-06-29 10:25:58.054687500,-37.0,5.0,52.0,76.346171875,36.394999999999996,0.8875085625,33.34
2021-06-29 10:25:58.062500000,-37.0,5.0,52.0,76.345625,33.49,0.8874285,33.34
2021-06-29 10:25:58.070312500,-37.0,5.0,52.0,76.345078125,30.315,0.8873484375,33.34
2021-06-29 10:25:58.078125000,-37.0,5.0,52.0,76.34453124999999,27.14,0.887268375,33.34
2021-06-29 10:25:58.085937500,-37.0,5.0,52.0,76.34398437499999,23.945,0.8871883125,33.34
2021-06-29 10:25:58.093750000,-37.0,5.0,52.0,76.3434375,20.75,0.88710825,33.34
2021-06-29 10:25:58.101562500,-37.0,5.0,52.0,76.342890625,17.715,0.8870281875,33.34
2021-06-29 10:25:58.109375000,-37.0,5.0,52.0,76.34234375,14.68,0.886948125,33.34
2021-06-29 10:25:58.117187500,-37.0,5.0,52.0,76.341796875,11.875,0.8868680625,33.34
2021-06-29 10:25:58.125000000,-37.0,5.0,52.0,76.34125,9.07,0.886788,33.34
2021-06-29 10:25:58.132812500,-37.0,5.0,52.0,76.34070312499999,6.415,0.8867079375,33.34
2021-06-29 10:25:58.140625000,-37.0,5.0,52.0,76.34015624999999,3.76,0.8866278750000001,33.34
2021-06-29 10:25:58.148437500,-37.0,5.0,52.0,76.339609375,1.12,0.8865478125,33.34
2021-06-29 10:25:58.156250000,-37.0,5.0,52.0,76.3390625,-1.52,0.88646775,33.34
2021-06-29 10:25:58.164062500,-37.0,5.0,52.0,76.338515625,-4.324999999999999,0.8863876875000001,33.34
2021-06-29 10:25:58.171875000,-37.0,5.0,52.0,76.33796875,-7.13,0.886307625,33.34
2021-06-29 10:25:58.179687500,-37.0,5.0,52.0,76.33742187499999,-10.209999999999999,0.8862275625,33.34
2021-06-29 10:25:58.187500000,-37.0,5.0,52.0,76.33687499999999,-13.29,0.8861475000000001,33.34
2021-06-29 10:25:58.195312500,-37.0,5.0,52.0,76.336328125,-16.61,0.8860674375,33.34
2021-06-29 10:25:58.203125000,-37.0,5.0,52.0,76.33578125,-19.93,0.885987375,33.34
2021-06-29 10:25:58.210937500,-37.0,5.0,52.0,76.335234375,-23.314999999999998,0.8859073125,33.34
2021-06-29 10:25:58.218750000,-37.0,5.0,52.0,76.3346875,-26.7,0.8858272500000001,33.34
2021-06-29 10:25:58.226562500,-37.0,5.0,52.25,76.33414062499999,-29.875,0.8857471875,33.34
2021-06-29 10:25:58.234375000,-37.0,5.0,52.5,76.33359374999999,-33.05,0.885667125,33.34
2021-06-29 10:25:58.242187500,-37.0,5.0,52.75,76.333046875,-35.765,0.8855870625000001,33.34
2021-06-29 10:25:58.250000000,-37.0,5.0,53.0,76.3325,-38.48,0.885507,33.34
2021-06-29 10:25:58.257812500,-37.0,5.0,52.75,76.331953125,-40.65,0.885667125,33.34
2021-06-29 10:25:58.265625000,-37.0,5.0,52.5,76.33140625,-42.82,0.8858272500000001,33.34
2021-06-29 10:25:58.273437500,-37.0,5.0,52.25,76.330859375,-44.614999999999995,0.885987375,33.34
2021-06-29 10:25:58.281250000,-37.0,5.0,52.0,76.33031249999999,-46.41,0.8861475000000001,33.34
2021-06-29 10:25:58.289062500,-37.0,5.0,52.0,76.329765625,-48.25,0.886307625,33.34
2021-06-29 10:25:58.296875000,-37.0,5.0,52.0,76.32921875,-50.09,0.88646775,33.34
2021-06-29 10:25:58.304687500,-37.0,5.0,52.0,76.328671875,-52.535,0.8866278750000001,33.34
2021-06-29 10:25:58.312500000,-37.0,5.0,52.0,76.328125,-54.98,0.886788,33.34
2021-06-29 10:25:58.320312500,-37.0,5.0,52.0,76.327578125,-58.465,0.886948125,33.34
2021-06-29 10:25:58.328125000,-37.0,5.0,52.0,76.32703124999999,-61.95,0.88710825,33.34
2021-06-29 10:25:58.335937500,-37.0,5.0,52.0,76.32648437499999,-66.565,0.887268375,33.34
2021-06-29 10:25:58.343750000,-37.0,5.0,52.0,76.3259375,-71.18,0.8874285,33.34
2021-06-29 10:25:58.351562500,-37.0,5.0,52.0,76.325390625,-76.535,0.887588625,33.34
2021-06-29 10:25:58.359375000,-37.0,5.0,52.0,76.32484375,-81.89,0.88774875,33.34
2021-06-29 10:25:58.367187500,-37.0,5.0,52.0,76.324296875,-87.1,0.887908875,33.34
2021-06-29 10:25:58.375000000,-37.0,5.0,52.0,76.32374999999999,-92.31,0.888069,33.34
2021-06-29 10:25:58.382812500,-37.0,5.0,52.0,76.32320312499999,-96.17,0.888229125,33.34
2021-06-29 10:25:58.390625000,-37.0,5.0,52.0,76.32265625,-100.03,0.88838925,33.34
2021-06-29 10:25:58.398437500,-37.0,5.0,52.0,76.322109375,-101.37,0.888549375,33.34
2021-06-29 10:25:58.406250000,-37.0,5.0,52.0,76.3215625,-102.71,0.8887095,33.34
2021-06-29 10:25:58.414062500,-37.0,5.0,52.0,76.321015625,-100.695,0.888869625,33.34
2021-06-29 10:25:58.421875000,-37.0,5.0,52.0,76.32046875,-98.68,0.88902975,33.34
2021-06-29 10:25:58.429687500,-37.0,5.0,52.0,76.31992187499999,-93.1,0.889189875,33.34
2021-06-29 10:25:58.437500000,-37.0,5.0,52.0,76.319375,-87.52,0.88935,33.34
2021-06-29 10:25:58.445312500,-37.0,5.0,52.0,76.318828125,-78.85499999999999,0.8895101249999999,33.34
2021-06-29 10:25:58.453125000,-37.0,5.0,52.0,76.31828125,-70.19,0.88967025,33.34
2021-06-29 10:25:58.460937500,-37.0,5.0,52.0,76.317734375,-59.47,0.889830375,33.34
2021-06-29 10:25:58.468750000,-37.0,5.0,52.0,76.3171875,-48.75,0.8899904999999999,33.34
2021-06-29 10:25:58.476562500,-37.0,5.0,52.0,76.31664062499999,-37.295,0.890150625,33.34
2021-06-29 10:25:58.484375000,-37.0,5.0,52.0,76.31609375,-25.84,0.8903107499999999,33.34
2021-06-29 10:25:58.492187500,-37.0,5.0,52.0,76.315546875,-14.89,0.890470875,33.34
2021-06-29 10:25:58.500000000,-37.0,5.0,52.0,76.315,-3.94,0.890631,33.34
2021-06-29 10:25:58.507812500,-37.0,5.0,52.0,76.314453125,5.58,0.890631,33.34
2021-06-29 10:25:58.515625000,-37.0,5.0,52.0,76.31390625,15.1,0.890631,33.34
2021-06-29 10:25:58.523437500,-37.0,5.0,52.0,76.313359375,22.68,0.890631,33.34
2021-06-29 10:25:58.531250000,-37.0,5.0,52.0,76.31281249999999,30.26,0.890631,33.34
2021-06-29 10:25:58.539062500,-37.0,5.0,52.0,76.312265625,35.72,0.890631,33.34
2021-06-29 10:25:58.546875000,-37.0,5.0,52.0,76.31171875,41.18,0.890631,33.34
2021-06-29 10:25:58.554687500,-37.0,5.0,52.0,76.311171875,44.575,0.890631,33.34
2021-06-29 10:25:58.562500000,-37.0,5.0,52.0,76.310625,47.97,0.890631,33.34
2021-06-29 10:25:58.570312500,-37.0,5.0,52.0,76.310078125,49.5,0.890631,33.34
2021-06-29 10:25:58.578125000,-37.0,5.0,52.0,76.30953124999999,51.03,0.890631,33.34
2021-06-29 10:25:58.585937500,-37.0,5.0,52.0,76.308984375,51.010000000000005,0.890631,33.34
2021-06-29 10:25:58.593750000,-37.0,5.0,52.0,76.3084375,50.99,0.890631,33.34
2021-06-29 10:25:58.601562500,-37.0,5.0,52.0,76.307890625,49.845,0.890631,33.34
2021-06-29 10:25:58.609375000,-37.0,5.0,52.0,76.30734375,48.7,0.890631,33.34
2021-06-29 10:25:58.617187500,-37.0,5.0,52.0,76.306796875,46.995000000000005,0.890631,33.34
2021-06-29 10:25:58.625000000,-37.0,5.0,52.0,76.30625,45.29,0.890631,33.34
2021-06-29 10:25:58.632812500,-37.0,5.0,52.0,76.305703125,43.635,0.890631,33.34
2021-06-29 10:25:58.640625000,-37.0,5.0,52.0,76.30515625,41.98,0.890631,33.34
2021-06-29 10:25:58.648437500,-37.0,5.0,52.0,76.304609375,40.915,0.890631,33.34
2021-06-29 10:25:58.656250000,-37.0,5.0,52.0,76.3040625,39.85,0.890631,33.34
2021-06-29 10:25:58.664062500,-37.0,5.0,52.25,76.303515625,39.71,0.890631,33.34
2021-06-29 10:25:58.671875000,-37.0,5.0,52.5,76.30296875,39.57,0.890631,33.34
2021-06-29 10:25:58.679687500,-37.0,5.0,52.75,76.302421875,40.43,0.890631,33.34
2021-06-29 10:25:58.687500000,-37.0,5.0,53.0,76.301875,41.29,0.890631,33.34
2021-06-29 10:25:58.695312500,-37.0,5.0,52.75,76.301328125,42.955,0.890631,33.34
2021-06-29 10:25:58.703125000,-37.0,5.0,52.5,76.30078125,44.62,0.890631,33.34
2021-06-29 10:25:58.710937500,-37.0,5.0,52.25,76.300234375,46.709999999999994,0.890631,33.34
2021-06-29 10:25:58.718750000,-37.0,5.0,52.0,76.2996875,48.8,0.890631,33.34
2021-06-29 10:25:58.726562500,-37.0,5.0,52.0,76.29914062499999,50.875,0.890631,33.34
