TimeStamp,empatica.acc.x,empatica.acc.y,empatica.acc.z,empatica.hr,empatica.bvp,empatica.eda,empatica.temp
2021-06-30 13:24:59.195312500,-44.25,14.75,45.0,67.00390625,-13.665,6.50925090625,33.594375
2021-06-30 13:24:59.203125000,-44.5,14.5,45.0,67.0040625,-14.97,6.5094510625,33.59375
2021-06-30 13:24:59.210937500,-44.75,14.25,45.0,67.00421874999999,-16.330000000000002,6.50965121875,33.593125
2021-06-30 13:24:59.218750000,-45.0,14.0,45.0,67.004375,-17.69,6.509851375,33.5925
2021-06-30 13:24:59.226562500,-45.0,14.0,45.0,67.00453125,-19.015,6.51005153125,33.591875
2021-06-30 13:24:59.234375000,-45.0,14.0,45.0,67.0046875,-20.34,6.5102516875,33.59125
2021-06-30 13:24:59.242187500,-45.0,14.0,45.0,67.00484374999999,-21.575,6.51045184375,33.590625
2021-06-30 13:24:59.250000000,-45.0,14.0,45.0,67.005,-22.81,6.510652,33.59
2021-06-30 13:24:59.257812500,-45.0,14.0,45.0,67.00515625,-23.97,6.5105719375,33.59
2021-06-30 13:24:59.265625000,-45.0,14.0,45.0,67.0053125,-25.13,6.5104918750000005,33.59
2021-06-30 13:24:59.273437500,-45.0,14.0,45.0,67.00546875,-26.27,6.5104118125,33.59
2021-06-30 13:24:59.281250000,-45.0,14.0,45.0,67.005625,-27.41,6.510331750000001,33.59
2021-06-30 13:24:59.289062500,-45.0,14.0,45.0,67.00578125,-28.615000000000002,6.5102516875,33.59
2021-06-30 13:24:59.296875000,-45.0,14.0,45.0,67.0059375,-29.82,6.510171625,33.59
2021-06-30 13:24:59.304687500,-45.0,14.0,45.0,67.00609375,-31.17,6.5100915625,33.59
2021-06-30 13:24:59.312500000,-45.0,14.0,45.0,67.00625,-32.52,6.5100115,33.59
2021-06-30 13:24:59.320312500,-45.0,14.0,45.0,67.00640625,-34.095,6.509931437500001,33.59
2021-06-30 13:24:59.328125000,-45.0,14.0,45.0,67.0065625,-35.67,6.509851375,33.59
2021-06-30 13:24:59.335937500,-45.0,14.0,45.0,67.00671875,-37.53,6.5097713125,33.59
2021-06-30 13:24:59.343750000,-45.0,14.0,45.0,67.006875,-39.39,6.50969125,33.59
2021-06-30 13:24:59.351562500,-45.0,14.0,45.0,67.00703125,-41.55,6.5096111875,33.59
2021-06-30 13:24:59.359375000,-45.0,14.0,45.0,67.0071875,-43.71,6.5095311250000005,33.59
2021-06-30 13:24:59.367187500,-45.0,14.0,45.0,67.00734375,-46.075,6.5094510625,33.59
2021-06-30 13:24:59.375000000,-45.0,14.0,45.0,67.0075,-48.44,6.509371,33.59
2021-06-30 13:24:59.382812500,-45.0,14.0,45.0,67.00765625,-50.78,6.5092909375,33.59
2021-06-30 13:24:59.390625000,-45.0,14.0,45.0,67.0078125,-53.12,6.509210875,33.59
2021-06-30 13:24:59.398437500,-45.0,14.0,45.0,67.00796875,-55.015,6.5091308125000005,33.59
2021-06-30 13:24:59.406250000,-45.0,14.0,45.0,67.00812499999999,-56.91,6.50905075,33.59
2021-06-30 13:24:59.414062500,-45.0,14.0,45.0,67.00828125,-57.87,6.508970687500001,33.59
2021-06-30 13:24:59.421875000,-45.0,14.0,45.0,67.0084375,-58.83,6.508890625,33.59
2021-06-30 13:24:59.429687500,-45.0,14.0,45.0,67.00859375,-58.43,6.5088105625,33.59
2021-06-30 13:24:59.437500000,-45.0,14.0,45.0,67.00874999999999,-58.03,6.5087305,33.59
2021-06-30 13:24:59.445312500,-45.0,14.0,45.0,67.00890625,-56.09,6.5086504375,33.59
2021-06-30 13:24:59.453125000,-45.0,14.0,45.0,67.0090625,-54.15,6.508570375000001,33.59
2021-06-30 13:24:59.460937500,-45.0,14.0,45.0,67.00921875,-50.825,6.5084903125,33.59
2021-06-30 13:24:59.468750000,-45.0,14.0,45.0,67.00937499999999,-47.5,6.50841025,33.59
2021-06-30 13:24:59.476562500,-45.0,14.25,45.0,67.00953125,-43.260000000000005,6.5083301875,33.59
2021-06-30 13:24:59.484375000,-45.0,14.5,45.0,67.0096875,-39.02,6.508250125,33.59
2021-06-30 13:24:59.492187500,-45.0,14.75,45.0,67.00984375,-34.49,6.5081700625000005,33.59
2021-06-30 13:24:59.500000000,-45.0,15.0,45.0,67.00999999999999,-29.96,6.50809,33.59
2021-06-30 13:24:59.507812500,-44.75,14.75,45.0,67.01015625,-25.700000000000003,6.50841025,33.59
2021-06-30 13:24:59.515625000,-44.5,14.5,45.0,67.0103125,-21.44,6.5087305,33.59
2021-06-30 13:24:59.523437500,-44.25,14.25,45.0,67.01046875,-17.78,6.50905075,33.59
2021-06-30 13:24:59.531250000,-44.0,14.0,45.0,67.010625,-14.12,6.509371,33.59
2021-06-30 13:24:59.539062500,-44.25,14.0,45.0,67.01078125,-11.114999999999998,6.50969125,33.59
2021-06-30 13:24:59.546875000,-44.5,14.0,45.0,67.0109375,-8.11,6.5100115,33.59
2021-06-30 13:24:59.554687500,-44.75,14.0,45.0,67.01109375,-5.615,6.51033175,33.59
2021-06-30 13:24:59.562500000,-45.0,14.0,45.0,67.01125,-3.12,6.510652,33.59
2021-06-30 13:24:59.570312500,-45.0,14.0,45.0,67.01140625,-0.9249999999999998,6.51097225,33.59
2021-06-30 13:24:59.578125000,-45.0,14.0,45.0,67.0115625,1.27,6.5112925,33.59
2021-06-30 13:24:59.585937500,-45.0,14.0,45.0,67.01171875,3.3249999999999997,6.51161275,33.59
2021-06-30 13:24:59.593750000,-45.0,14.0,45.0,67.011875,5.38,6.511933,33.59
2021-06-30 13:24:59.601562500,-45.0,14.0,45.0,67.01203124999999,7.355,6.51225325,33.59
2021-06-30 13:24:59.609375000,-45.0,14.0,45.0,67.0121875,9.33,6.5125735,33.59
2021-06-30 13:24:59.617187500,-45.0,14.0,45.0,67.01234375,11.21,6.51289375,33.59
2021-06-30 13:24:59.625000000,-45.0,14.0,45.0,67.0125,13.09,6.513214,33.59
2021-06-30 13:24:59.632812500,-45.0,14.0,45.0,67.01265624999999,14.81,6.51353425,33.59
2021-06-30 13:24:59.640625000,-45.0,14.0,45.0,67.0128125,16.53,6.5138545,33.59
2021-06-30 13:24:59.648437500,-45.0,14.0,45.0,67.01296875,18.03,6.5141747500000005,33.59
2021-06-30 13:24:59.656250000,-45.0,14.0,45.0,67.013125,19.53,6.514495,33.59
2021-06-30 13:24:59.664062500,-44.75,14.0,45.0,67.01328124999999,20.765,6.51481525,33.59
2021-06-30 13:24:59.671875000,-44.5,14.0,45.0,67.0134375,22.0,6.5151355,33.59
2021-06-30 13:24:59.679687500,-44.25,14.0,45.0,67.01359375,22.925,6.51545575,33.59
2021-06-30 13:24:59.687500000,-44.0,14.0,45.0,67.01375,23.85,6.515776,33.59
2021-06-30 13:24:59.695312500,-44.25,14.0,45.0,67.01390624999999,24.46,6.51609625,33.59
2021-06-30 13:24:59.703125000,-44.5,14.0,45.0,67.0140625,25.07,6.5164165,33.59
2021-06-30 13:24:59.710937500,-44.75,14.0,45.0,67.01421875,25.384999999999998,6.51673675,33.59
2021-06-30 13:24:59.718750000,-45.0,14.0,45.0,67.014375,25.7,6.517057,33.59
2021-06-30 13:24:59.726562500,-45.0,14.25,45.0,67.01453124999999,25.78,6.51737725,33.59
2021-06-30 13:24:59.734375000,-45.0,14.5,45.0,67.0146875,25.86,6.5176975,33.59
2021-06-30 13:24:59.742187500,-45.0,14.75,45.0,67.01484375,25.785,6.51801775,33.59
2021-06-30 13:24:59.750000000,-45.0,15.0,45.0,67.015,25.71,6.518338,33.59
2021-06-30 13:24:59.757812500,-45.0,14.75,44.75,67.01515625,25.575000000000003,6.518538125,33.59
2021-06-30 13:24:59.765625000,-45.0,14.5,44.5,67.0153125,25.44,6.51873825,33.59
2021-06-30 13:24:59.773437500,-45.0,14.25,44.25,67.01546875,25.32,6.518938375,33.59
2021-06-30 13:24:59.781250000,-45.0,14.0,44.0,67.015625,25.2,6.5191385,33.59
2021-06-30 13:24:59.789062500,-45.0,14.0,44.25,67.01578125,25.16,6.519338625,33.59
2021-06-30 13:24:59.796875000,-45.0,14.0,44.5,67.01593749999999,25.12,6.51953875,33.59
2021-06-30 13:24:59.804687500,-45.0,14.0,44.75,67.01609375,25.21,6.519738875,33.59
2021-06-30 13:24:59.812500000,-45.0,14.0,45.0,67.01625,25.3,6.519939,33.59
2021-06-30 13:24:59.820312500,-45.0,14.0,45.0,67.01640625,25.509999999999998,6.520139125,33.59
2021-06-30 13:24:59.828125000,-45.0,14.0,45.0,67.01656249999999,25.72,6.52033925,33.59
2021-06-30 13:24:59.835937500,-45.0,14.0,45.0,67.01671875,26.015,6.520539375,33.59
2021-06-30 13:24:59.843750000,-45.0,14.0,45.0,67.016875,26.31,6.5207394999999995,33.59
2021-06-30 13:24:59.851562500,-45.0,14.25,45.0,67.01703125,26.575,6.520939625,33.59
2021-06-30 13:24:59.859375000,-45.0,14.5,45.0,67.01718749999999,26.84,6.52113975,33.59
2021-06-30 13:24:59.867187500,-45.0,14.75,45.0,67.01734375,26.93,6.521339875,33.59
2021-06-30 13:24:59.875000000,-45.0,15.0,45.0,67.0175,27.02,6.52154,33.59
2021-06-30 13:24:59.882812500,-45.0,15.0,45.0,67.01765625,26.775,6.521740125,33.59
2021-06-30 13:24:59.890625000,-45.0,15.0,45.0,67.01781249999999,26.53,6.52194025,33.59
2021-06-30 13:24:59.898437500,-45.0,15.0,45.0,67.01796875,25.875,6.522140375,33.59
2021-06-30 13:24:59.906250000,-45.0,15.0,45.0,67.018125,25.22,6.5223405,33.59
2021-06-30 13:24:59.914062500,-45.0,15.0,44.75,67.01828125,24.189999999999998,6.5225406249999995,33.59
2021-06-30 13:24:59.921875000,-45.0,15.0,44.5,67.01843749999999,23.16,6.52274075,33.59
2021-06-30 13:24:59.929687500,-45.0,15.0,44.25,67.01859375,21.915,6.522940875,33.59
2021-06-30 13:24:59.937500000,-45.0,15.0,44.0,67.01875,20.67,6.523141,33.59
2021-06-30 13:24:59.945312500,-45.0,14.75,44.25,67.01890625,19.42,6.523341125,33.59
2021-06-30 13:24:59.953125000,-45.0,14.5,44.5,67.01906249999999,18.17,6.52354125,33.59
2021-06-30 13:24:59.960937500,-45.0,14.25,44.75,67.01921875,17.075000000000003,6.523741375,33.59
2021-06-30 13:24:59.968750000,-45.0,14.0,45.0,67.019375,15.98,6.523941499999999,33.59
2021-06-30 13:24:59.976562500,-45.0,14.0,45.0,67.01953125,15.09,6.5241416249999995,33.59
2021-06-30 13:24:59.984375000,-45.0,14.0,45.0,67.01968749999999,14.2,6.52434175,33.59
2021-06-30 13:24:59.992187500,-45.0,14.0,45.0,67.01984374999999,13.425,6.524541875,33.59
2021-06-30 13:25:00.000000000,-45.0,14.0,45.0,67.02,12.65,6.524742,33.59
2021-06-30 13:25:00.007812500,-45.0,14.25,45.0,67.020078125,11.86,6.5253825,33.59125
2021-06-30 13:25:00.015625000,-45.0,14.5,45.0,67.02015625,11.07,6.5260229999999995,33.5925
2021-06-30 13:25:00.023437500,-45.0,14.75,45.0,67.020234375,10.15,6.5266635,33.59375
2021-06-30 13:25:00.031250000,-45.0,15.0,45.0,67.0203125,9.23,6.527304,33.595000000000006
2021-06-30 13:25:00.039062500,-45.0,15.0,45.0,67.02039062499999,8.175,6.5279445,33.596250000000005
2021-06-30 13:25:00.046875000,-45.0,15.0,45.0,67.02046874999999,7.12,6.528585,33.597500000000004
2021-06-30 13:25:00.054687500,-45.0,15.0,45.0,67.020546875,5.995,6.5292255,33.59875
2021-06-30 13:25:00.062500000,-45.0,15.0,45.0,67.020625,4.87,6.529866,33.6
2021-06-30 13:25:00.070312500,-45.0,14.75,45.0,67.020703125,3.765,6.5305064999999995,33.60125
2021-06-30 13:25:00.078125000,-45.0,14.5,45.0,67.02078125,2.66,6.531147,33.602500000000006
2021-06-30 13:25:00.085937500,-45.0,14.25,45.0,67.020859375,1.6,6.5317875,33.603750000000005
2021-06-30 13:25:00.093750000,-45.0,14.0,45.0,67.0209375,0.54,6.532428,33.605000000000004
2021-06-30 13:25:00.101562500,-45.0,14.0,44.75,67.02101562499999,-0.52,6.5330685,33.60625
2021-06-30 13:25:00.109375000,-45.0,14.0,44.5,67.02109374999999,-1.58,6.533709,33.6075
2021-06-30 13:25:00.117187500,-45.0,14.0,44.25,67.021171875,-2.7350000000000003,6.5343495,33.60875
2021-06-30 13:25:00.125000000,-45.0,14.0,44.0,67.02125,-3.89,6.5349900000000005,33.61
2021-06-30 13:25:00.132812500,-45.0,14.0,44.25,67.021328125,-5.215,6.5356305,33.611250000000005
2021-06-30 13:25:00.140625000,-45.0,14.0,44.5,67.02140625,-6.54,6.536271,33.612500000000004
2021-06-30 13:25:00.148437500,-45.0,14.0,44.75,67.021484375,-8.03,6.5369115,33.61375
2021-06-30 13:25:00.156250000,-45.0,14.0,45.0,67.0215625,-9.52,6.537552,33.615
2021-06-30 13:25:00.164062500,-45.0,14.0,45.0,67.021640625,-11.1,6.5381925,33.61625
2021-06-30 13:25:00.171875000,-45.0,14.0,45.0,67.02171874999999,-12.68,6.538833,33.6175
2021-06-30 13:25:00.179687500,-45.0,14.0,45.0,67.02179687499999,-14.23,6.539473500000001,33.618750000000006
2021-06-30 13:25:00.187500000,-45.0,14.0,45.0,67.021875,-15.78,6.540114,33.620000000000005
2021-06-30 13:25:00.195312500,-45.0,14.0,45.0,67.021953125,-17.2,6.5407545,33.62125
2021-06-30 13:25:00.203125000,-45.0,14.0,45.0,67.02203125,-18.62,6.5413950000000005,33.6225
2021-06-30 13:25:00.210937500,-45.0,14.0,45.0,67.022109375,-19.895000000000003,6.5420355,33.62375
2021-06-30 13:25:00.218750000,-45.0,14.0,45.0,67.0221875,-21.17,6.542676,33.625
2021-06-30 13:25:00.226562500,-45.0,14.0,45.0,67.022265625,-22.335,6.5433165,33.626250000000006
2021-06-30 13:25:00.234375000,-45.0,14.0,45.0,67.02234374999999,-23.5,6.543957000000001,33.627500000000005
2021-06-30 13:25:00.242187500,-45.0,14.0,45.0,67.02242187499999,-24.65,6.5445975,33.628750000000004
2021-06-30 13:25:00.250000000,-45.0,14.0,45.0,67.0225,-25.8,6.545238,33.63
2021-06-30 13:25:00.257812500,-45.0,14.25,45.0,67.022578125,-27.064999999999998,6.545278000000001,33.63
2021-06-30 13:25:00.265625000,-45.0,14.5,45.0,67.02265625,-28.33,6.545318,33.63
2021-06-30 13:25:00.273437500,-45.0,14.75,45.0,67.022734375,-29.84,6.545358,33.63
2021-06-30 13:25:00.281250000,-45.0,15.0,45.0,67.0228125,-31.35,6.5453980000000005,33.63
2021-06-30 13:25:00.289062500,-45.0,14.75,44.75,67.022890625,-33.24,6.545438,33.63
2021-06-30 13:25:00.296875000,-45.0,14.5,44.5,67.02296875,-35.13,6.545478,33.63
2021-06-30 13:25:00.304687500,-45.0,14.25,44.25,67.02304687499999,-37.46,6.545518,33.63
2021-06-30 13:25:00.312500000,-45.0,14.0,44.0,67.023125,-39.79,6.545558,33.63
2021-06-30 13:25:00.320312500,-45.0,14.25,44.25,67.023203125,-42.489999999999995,6.545598,33.63
2021-06-30 13:25:00.328125000,-45.0,14.5,44.5,67.02328125,-45.19,6.545638,33.63
2021-06-30 13:25:00.335937500,-45.0,14.75,44.75,67.023359375,-47.94,6.5456780000000006,33.63
2021-06-30 13:25:00.343750000,-45.0,15.0,45.0,67.0234375,-50.69,6.545718,33.63
2021-06-30 13:25:00.351562500,-45.0,15.0,45.0,67.023515625,-52.980000000000004,6.545758,33.63
2021-06-30 13:25:00.359375000,-45.0,15.0,45.0,67.02359375,-55.27,6.5457980000000004,33.63
2021-06-30 13:25:00.367187500,-45.0,15.0,45.0,67.02367187499999,-56.475,6.545838,33.63
2021-06-30 13:25:00.375000000,-45.0,15.0,45.0,67.02374999999999,-57.68,6.545878,33.63
2021-06-30 13:25:00.382812500,-45.0,14.75,44.75,67.023828125,-57.3,6.545918,33.63
2021-06-30 13:25:00.390625000,-45.0,14.5,44.5,67.02390625,-56.92,6.545958,33.63
2021-06-30 13:25:00.398437500,-45.0,14.25,44.25,67.023984375,-54.78,6.545998,33.63
2021-06-30 13:25:00.406250000,-45.0,14.0,44.0,67.0240625,-52.64,6.546038,33.63
2021-06-30 13:25:00.414062500,-45.0,14.0,44.25,67.024140625,-48.99,6.546078,33.63
2021-06-30 13:25:00.421875000,-45.0,14.0,44.5,67.02421875,-45.34,6.546118,33.63
2021-06-30 13:25:00.429687500,-45.0,14.0,44.75,67.024296875,-40.775000000000006,6.546158,33.63
2021-06-30 13:25:00.437500000,-45.0,14.0,45.0,67.02437499999999,-36.21,6.546198,33.63
2021-06-30 13:25:00.445312500,-45.0,14.25,45.0,67.024453125,-31.47,6.546238,33.63
2021-06-30 13:25:00.453125000,-45.0,14.5,45.0,67.02453125,-26.73,6.546278,33.63
2021-06-30 13:25:00.460937500,-45.0,14.75,45.0,67.024609375,-22.43,6.546318,33.63
2021-06-30 13:25:00.468750000,-45.0,15.0,45.0,67.0246875,-18.13,6.546358,33.63
2021-06-30 13:25:00.476562500,-45.0,15.0,44.75,67.024765625,-14.57,6.546398,33.63
2021-06-30 13:25:00.484375000,-45.0,15.0,44.5,67.02484375,-11.01,6.546438,33.63
2021-06-30 13:25:00.492187500,-45.0,15.0,44.25,67.024921875,-8.185,6.546478,33.63
2021-06-30 13:25:00.500000000,-45.0,15.0,44.0,67.025,-5.36,6.546518,33.63
2021-06-30 13:25:00.507812500,-45.0,15.0,44.25,67.025078125,-3.0100000000000002,6.5467581875,33.63
2021-06-30 13:25:00.515625000,-45.0,15.0,44.5,67.02515625,-0.66,6.546998375,33.63
2021-06-30 13:25:00.523437500,-45.0,15.0,44.75,67.025234375,1.5,6.5472385625,33.63
2021-06-30 13:25:00.531250000,-45.0,15.0,45.0,67.0253125,3.66,6.54747875,33.63
2021-06-30 13:25:00.539062500,-45.0,14.75,45.0,67.025390625,5.86,6.5477189375,33.63
2021-06-30 13:25:00.546875000,-45.0,14.5,45.0,67.02546875,8.06,6.547959125,33.63
2021-06-30 13:25:00.554687500,-45.0,14.25,45.0,67.025546875,10.335,6.5481993124999995,33.63
2021-06-30 13:25:00.562500000,-45.0,14.0,45.0,67.025625,12.61,6.5484395,33.63
2021-06-30 13:25:00.570312500,-45.0,14.0,45.0,67.02570312499999,14.865,6.5486796875,33.63
2021-06-30 13:25:00.578125000,-45.0,14.0,45.0,67.02578125,17.12,6.548919875,33.63
2021-06-30 13:25:00.585937500,-45.0,14.0,45.0,67.025859375,19.17,6.5491600625,33.63
2021-06-30 13:25:00.593750000,-45.0,14.0,45.0,67.0259375,21.22,6.54940025,33.63
2021-06-30 13:25:00.601562500,-45.0,14.25,44.75,67.026015625,22.88,6.5496404375,33.63
2021-06-30 13:25:00.609375000,-45.0,14.5,44.5,67.02609375,24.54,6.549880625,33.63
2021-06-30 13:25:00.617187500,-45.0,14.75,44.25,67.026171875,25.7,6.5501208125,33.63
2021-06-30 13:25:00.625000000,-45.0,15.0,44.0,67.02625,26.86,6.5503610000000005,33.63
2021-06-30 13:25:00.632812500,-45.0,14.75,44.25,67.026328125,27.53,6.5506011875,33.63
2021-06-30 13:25:00.640625000,-45.0,14.5,44.5,67.02640625,28.2,6.550841375,33.63
2021-06-30 13:25:00.648437500,-45.0,14.25,44.75,67.026484375,28.490000000000002,6.5510815625,33.63
2021-06-30 13:25:00.656250000,-45.0,14.0,45.0,67.0265625,28.78,6.5513217500000005,33.63
2021-06-30 13:25:00.664062500,-45.0,14.25,44.75,67.026640625,28.855,6.5515619375,33.63
2021-06-30 13:25:00.671875000,-45.0,14.5,44.5,67.02671875,28.93,6.551802125,33.63
2021-06-30 13:25:00.679687500,-45.0,14.75,44.25,67.026796875,28.955,6.5520423125,33.63
2021-06-30 13:25:00.687500000,-45.0,15.0,44.0,67.026875,28.98,6.5522825000000005,33.63
2021-06-30 13:25:00.695312500,-45.0,14.75,44.0,67.026953125,29.05,6.552522687500001,33.63
2021-06-30 13:25:00.703125000,-45.0,14.5,44.0,67.02703125,29.12,6.552762875,33.63
2021-06-30 13:25:00.710937500,-45.0,14.25,44.0,67.027109375,29.259999999999998,6.5530030625,33.63
2021-06-30 13:25:00.718750000,-45.0,14.0,44.0,67.0271875,29.4,6.55324325,33.63
2021-06-30 13:25:00.726562500,-45.0,14.0,44.25,67.027265625,29.585,6.553483437500001,33.63
2021-06-30 13:25:00.734375000,-45.0,14.0,44.5,67.02734375,29.77,6.553723625,33.63
2021-06-30 13:25:00.742187500,-45.0,14.0,44.75,67.027421875,29.97,6.5539638125,33.63
2021-06-30 13:25:00.750000000,-45.0,14.0,45.0,67.0275,30.17,6.554204,33.63
2021-06-30 13:25:00.757812500,-45.0,14.0,45.0,67.027578125,30.36,6.5541239375,33.63
2021-06-30 13:25:00.765625000,-45.0,14.0,45.0,67.02765625,30.55,6.5540438750000005,33.63
2021-06-30 13:25:00.773437500,-45.0,14.0,45.0,67.027734375,30.755000000000003,6.5539638125,33.63
2021-06-30 13:25:00.781250000,-45.0,14.0,45.0,67.0278125,30.96,6.553883750000001,33.63
2021-06-30 13:25:00.789062500,-45.0,14.0,45.0,67.027890625,31.155,6.5538036875,33.63
2021-06-30 13:25:00.796875000,-45.0,14.0,45.0,67.02796875,31.35,6.553723625,33.63
2021-06-30 13:25:00.804687500,-45.0,14.0,45.0,67.028046875,31.505000000000003,6.5536435625000005,33.63
2021-06-30 13:25:00.812500000,-45.0,14.0,45.0,67.028125,31.66,6.5535635,33.63
2021-06-30 13:25:00.820312500,-45.0,14.0,45.0,67.028203125,31.665,6.553483437500001,33.63
2021-06-30 13:25:00.828125000,-45.0,14.0,45.0,67.02828125,31.67,6.553403375,33.63
2021-06-30 13:25:00.835937500,-45.0,14.0,45.0,67.028359375,31.425,6.5533233125,33.63
2021-06-30 13:25:00.843750000,-45.0,14.0,45.0,67.0284375,31.18,6.55324325,33.63
2021-06-30 13:25:00.851562500,-45.0,14.0,45.0,67.028515625,30.615000000000002,6.5531631875,33.63
2021-06-30 13:25:00.859375000,-45.0,14.0,45.0,67.02859375,30.05,6.553083125000001,33.63
2021-06-30 13:25:00.867187500,-45.0,14.0,45.0,67.028671875,29.155,6.5530030625,33.63
2021-06-30 13:25:00.875000000,-45.0,14.0,45.0,67.02875,28.26,6.552923,33.63
2021-06-30 13:25:00.882812500,-45.0,14.0,45.0,67.028828125,27.115000000000002,6.5528429375,33.63
2021-06-30 13:25:00.890625000,-45.0,14.0,45.0,67.02890625,25.97,6.552762875,33.63
2021-06-30 13:25:00.898437500,-45.0,14.0,45.0,67.02898437500001,24.689999999999998,6.5526828125000005,33.63
2021-06-30 13:25:00.906250000,-45.0,14.0,45.0,67.0290625,23.41,6.55260275,33.63
2021-06-30 13:25:00.914062500,-45.0,14.0,45.0,67.029140625,22.115000000000002,6.552522687500001,33.63
2021-06-30 13:25:00.921875000,-45.0,14.0,45.0,67.02921875,20.82,6.552442625,33.63
2021-06-30 13:25:00.929687500,-45.0,14.0,45.0,67.029296875,19.58,6.5523625625,33.63
2021-06-30 13:25:00.937500000,-45.0,14.0,45.0,67.029375,18.34,6.5522825000000005,33.63
2021-06-30 13:25:00.945312500,-45.0,14.0,45.0,67.029453125,17.175,6.5522024375,33.63
2021-06-30 13:25:00.953125000,-45.0,14.0,45.0,67.02953125,16.01,6.552122375000001,33.63
2021-06-30 13:25:00.960937500,-45.0,14.0,45.0,67.029609375,14.88,6.5520423125,33.63
2021-06-30 13:25:00.968750000,-45.0,14.0,45.0,67.0296875,13.75,6.55196225,33.63
2021-06-30 13:25:00.976562500,-45.0,14.0,44.75,67.029765625,12.594999999999999,6.5518821875,33.63
2021-06-30 13:25:00.984375000,-45.0,14.0,44.5,67.02984375,11.44,6.551802125,33.63
2021-06-30 13:25:00.992187500,-45.0,14.0,44.25,67.029921875,10.2,6.5517220625000006,33.63
2021-06-30 13:25:01.000000000,-45.0,14.0,44.0,67.03,8.96,6.551642,33.63
2021-06-30 13:25:01.007812500,-45.0,14.0,44.25,67.03031250000001,7.620000000000001,6.5517220625000006,33.628750000000004
2021-06-30 13:25:01.015625000,-45.0,14.0,44.5,67.030625,6.28,6.551802125,33.627500000000005
2021-06-30 13:25:01.023437500,-45.0,14.0,44.75,67.03093750000001,4.86,6.5518821875,33.626250000000006
2021-06-30 13:25:01.031250000,-45.0,14.0,45.0,67.03125,3.44,6.55196225,33.625
2021-06-30 13:25:01.039062500,-45.0,14.0,45.0,67.0315625,1.99,6.5520423125,33.62375
2021-06-30 13:25:01.046875000,-45.0,14.0,45.0,67.031875,0.54,6.552122375000001,33.6225
2021-06-30 13:25:01.054687500,-45.0,14.0,45.0,67.0321875,-0.9099999999999999,6.5522024375,33.62125
2021-06-30 13:25:01.062500000,-45.0,14.0,45.0,67.0325,-2.36,6.5522825000000005,33.620000000000005
2021-06-30 13:25:01.070312500,-45.0,14.25,44.75,67.0328125,-3.7750000000000004,6.5523625625,33.618750000000006
2021-06-30 13:25:01.078125000,-45.0,14.5,44.5,67.033125,-5.19,6.552442625,33.6175
2021-06-30 13:25:01.085937500,-45.0,14.75,44.25,67.0334375,-6.555,6.552522687500001,33.61625
2021-06-30 13:25:01.093750000,-45.0,15.0,44.0,67.03375,-7.92,6.55260275,33.615
2021-06-30 13:25:01.101562500,-45.0,14.75,44.0,67.0340625,-9.205,6.5526828125000005,33.61375
2021-06-30 13:25:01.109375000,-45.0,14.5,44.0,67.034375,-10.49,6.552762875,33.612500000000004
2021-06-30 13:25:01.117187500,-45.0,14.25,44.0,67.0346875,-11.67,6.5528429375,33.611250000000005
2021-06-30 13:25:01.125000000,-45.0,14.0,44.0,67.035,-12.85,6.552923,33.61
2021-06-30 13:25:01.132812500,-45.0,14.0,44.25,67.0353125,-13.915,6.5530030625,33.60875
2021-06-30 13:25:01.140625000,-45.0,14.0,44.5,67.035625,-14.98,6.553083125000001,33.6075
2021-06-30 13:25:01.148437500,-45.0,14.0,44.75,67.0359375,-15.955,6.5531631875,33.60625
2021-06-30 13:25:01.156250000,-45.0,14.0,45.0,67.03625,-16.93,6.55324325,33.605000000000004
2021-06-30 13:25:01.164062500,-45.0,14.0,45.0,67.0365625,-17.925,6.5533233125,33.603750000000005
2021-06-30 13:25:01.171875000,-45.0,14.0,45.0,67.036875,-18.92,6.553403375,33.602500000000006
2021-06-30 13:25:01.179687500,-45.0,14.0,45.0,67.0371875,-20.085,6.553483437500001,33.60125
2021-06-30 13:25:01.187500000,-45.0,14.0,45.0,67.0375,-21.25,6.5535635,33.6
2021-06-30 13:25:01.195312500,-45.0,14.0,45.0,67.0378125,-22.75,6.5536435625000005,33.59875
2021-06-30 13:25:01.203125000,-45.0,14.0,45.0,67.038125,-24.25,6.553723625,33.597500000000004
2021-06-30 13:25:01.210937500,-45.0,14.0,45.0,67.0384375,-26.2,6.5538036875,33.596250000000005
2021-06-30 13:25:01.218750000,-45.0,14.0,45.0,67.03875,-28.15,6.553883750000001,33.595000000000006
2021-06-30 13:25:01.226562500,-45.0,14.0,45.0,67.0390625,-30.56,6.5539638125,33.59375
2021-06-30 13:25:01.234375000,-45.0,14.0,45.0,67.03937499999999,-32.97,6.5540438750000005,33.5925
2021-06-30 13:25:01.242187500,-45.0,14.0,45.0,67.0396875,-35.665,6.5541239375,33.59125
2021-06-30 13:25:01.250000000,-45.0,14.0,45.0,67.03999999999999,-38.36,6.554204,33.59
2021-06-30 13:25:01.257812500,-45.0,14.0,44.75,67.0403125,-41.015,6.5541239375,33.59
2021-06-30 13:25:01.265625000,-45.0,14.0,44.5,67.040625,-43.67,6.5540438750000005,33.59
2021-06-30 13:25:01.273437500,-45.0,14.0,44.25,67.0409375,-45.835,6.5539638125,33.59
2021-06-30 13:25:01.281250000,-45.0,14.0,44.0,67.04125,-48.0,6.553883750000001,33.59
2021-06-30 13:25:01.289062500,-45.0,14.0,44.25,67.0415625,-49.2,6.5538036875,33.59
2021-06-30 13:25:01.296875000,-45.0,14.0,44.5,67.041875,-50.4,6.553723625,33.59
2021-06-30 13:25:01.304687500,-45.0,14.0,44.75,67.0421875,-50.275,6.5536435625000005,33.59
2021-06-30 13:25:01.312500000,-45.0,14.0,45.0,67.0425,-50.15,6.5535635,33.59
2021-06-30 13:25:01.320312500,-45.0,14.0,44.75,67.0428125,-48.57,6.553483437500001,33.59
2021-06-30 13:25:01.328125000,-45.0,14.0,44.5,67.043125,-46.99,6.553403375,33.59
2021-06-30 13:25:01.335937500,-45.0,14.0,44.25,67.0434375,-44.125,6.5533233125,33.59
2021-06-30 13:25:01.343750000,-45.0,14.0,44.0,67.04375,-41.26,6.55324325,33.59
2021-06-30 13:25:01.351562500,-45.0,14.0,44.0,67.0440625,-37.53,6.5531631875,33.59
2021-06-30 13:25:01.359375000,-45.0,14.0,44.0,67.044375,-33.8,6.553083125000001,33.59
2021-06-30 13:25:01.367187500,-45.0,14.0,44.0,67.0446875,-29.775,6.5530030625,33.59
2021-06-30 13:25:01.375000000,-45.0,14.0,44.0,67.045,-25.75,6.552923,33.59
2021-06-30 13:25:01.382812500,-45.0,14.0,44.25,67.0453125,-21.945,6.5528429375,33.59
2021-06-30 13:25:01.390625000,-45.0,14.0,44.5,67.045625,-18.14,6.552762875,33.59
2021-06-30 13:25:01.398437500,-45.0,14.0,44.75,67.0459375,-14.895,6.5526828125000005,33.59
2021-06-30 13:25:01.406250000,-45.0,14.0,45.0,67.04625,-11.65,6.55260275,33.59
2021-06-30 13:25:01.414062500,-45.0,14.0,44.75,67.0465625,-9.05,6.552522687500001,33.59
2021-06-30 13:25:01.421875000,-45.0,14.0,44.5,67.046875,-6.45,6.552442625,33.59
2021-06-30 13:25:01.429687500,-45.0,14.0,44.25,67.04718749999999,-4.395,6.5523625625,33.59
2021-06-30 13:25:01.437500000,-45.0,14.0,44.0,67.0475,-2.34,6.5522825000000005,33.59
2021-06-30 13:25:01.445312500,-45.0,14.0,44.25,67.04781249999999,-0.6399999999999999,6.5522024375,33.59
2021-06-30 13:25:01.453125000,-45.0,14.0,44.5,67.048125,1.06,6.552122375000001,33.59
2021-06-30 13:25:01.460937500,-45.0,14.0,44.75,67.04843749999999,2.535,6.5520423125,33.59
2021-06-30 13:25:01.468750000,-45.0,14.0,45.0,67.04875,4.01,6.55196225,33.59
2021-06-30 13:25:01.476562500,-45.0,14.0,45.0,67.04906249999999,5.3149999999999995,6.5518821875,33.59
2021-06-30 13:25:01.484375000,-45.0,14.0,45.0,67.049375,6.62,6.551802125,33.59
2021-06-30 13:25:01.492187500,-45.0,14.0,45.0,67.04968749999999,7.73,6.5517220625000006,33.59
2021-06-30 13:25:01.500000000,-45.0,14.0,45.0,67.05,8.84,6.551642,33.59
2021-06-30 13:25:01.507812500,-45.0,14.0,45.0,67.0503125,9.69,6.551481875,33.59
2021-06-30 13:25:01.515625000,-45.0,14.0,45.0,67.050625,10.54,6.5513217500000005,33.59
2021-06-30 13:25:01.523437500,-45.0,14.0,45.0,67.0509375,11.12,6.551161625,33.59
2021-06-30 13:25:01.531250000,-45.0,14.0,45.0,67.05125,11.7,6.5510015,33.59
2021-06-30 13:25:01.539062500,-45.0,14.25,45.0,67.0515625,12.045,6.550841375,33.59
2021-06-30 13:25:01.546875000,-45.0,14.5,45.0,67.051875,12.39,6.55068125,33.59
2021-06-30 13:25:01.554687500,-45.0,14.75,45.0,67.0521875,12.57,6.550521125,33.59
2021-06-30 13:25:01.562500000,-45.0,15.0,45.0,67.0525,12.75,6.5503610000000005,33.59
2021-06-30 13:25:01.570312500,-45.0,15.0,44.75,67.0528125,12.844999999999999,6.550200875,33.59
2021-06-30 13:25:01.578125000,-45.0,15.0,44.5,67.053125,12.94,6.55004075,33.59
2021-06-30 13:25:01.585937500,-45.0,15.0,44.25,67.0534375,13.015,6.549880625,33.59
2021-06-30 13:25:01.593750000,-45.0,15.0,44.0,67.05375,13.09,6.5497205,33.59
2021-06-30 13:25:01.601562500,-45.0,14.75,44.25,67.0540625,13.16,6.549560375,33.59
2021-06-30 13:25:01.609375000,-45.0,14.5,44.5,67.054375,13.23,6.54940025,33.59
2021-06-30 13:25:01.617187500,-45.0,14.25,44.75,67.0546875,13.325,6.549240125,33.59
2021-06-30 13:25:01.625000000,-45.0,14.0,45.0,67.05499999999999,13.42,6.54908,33.59
2021-06-30 13:25:01.632812500,-45.0,14.0,44.75,67.0553125,13.530000000000001,6.548919875,33.59
2021-06-30 13:25:01.640625000,-45.0,14.0,44.5,67.05562499999999,13.64,6.54875975,33.59
2021-06-30 13:25:01.648437500,-45.0,14.0,44.25,67.0559375,13.785,6.548599625,33.59
2021-06-30 13:25:01.656250000,-45.0,14.0,44.0,67.05624999999999,13.93,6.5484395,33.59
2021-06-30 13:25:01.664062500,-45.0,14.0,44.25,67.0565625,14.094999999999999,6.548279375,33.59
2021-06-30 13:25:01.671875000,-45.0,14.0,44.5,67.05687499999999,14.26,6.54811925,33.59
2021-06-30 13:25:01.679687500,-45.0,14.0,44.75,67.0571875,14.405000000000001,6.547959125,33.59
2021-06-30 13:25:01.687500000,-45.0,14.0,45.0,67.05749999999999,14.55,6.5477989999999995,33.59
2021-06-30 13:25:01.695312500,-45.0,14.0,45.0,67.0578125,14.605,6.547638875,33.59
2021-06-30 13:25:01.703125000,-45.0,14.0,45.0,67.05812499999999,14.66,6.54747875,33.59
2021-06-30 13:25:01.710937500,-45.0,14.0,45.0,67.0584375,14.525,6.547318625,33.59
2021-06-30 13:25:01.718750000,-45.0,14.0,45.0,67.05874999999999,14.39,6.5471585,33.59
2021-06-30 13:25:01.726562500,-45.0,14.0,45.0,67.0590625,13.99,6.546998375,33.59
2021-06-30 13:25:01.734375000,-45.0,14.0,45.0,67.05937499999999,13.59,6.5468382499999995,33.59
2021-06-30 13:25:01.742187500,-45.0,14.0,45.0,67.0596875,12.895,6.546678125,33.59
2021-06-30 13:25:01.750000000,-45.0,14.0,45.0,67.06,12.2,6.546518,33.59
2021-06-30 13:25:01.757812500,-45.0,14.0,45.0,67.0603125,11.265,6.54635790625,33.59
2021-06-30 13:25:01.765625000,-45.0,14.0,45.0,67.060625,10.33,6.5461978125,33.59
2021-06-30 13:25:01.773437500,-45.0,14.0,45.0,67.0609375,9.26,6.54603771875,33.59
2021-06-30 13:25:01.781250000,-45.0,14.0,45.0,67.06125,8.19,6.545877625,33.59
2021-06-30 13:25:01.789062500,-45.0,14.0,44.75,67.0615625,7.145,6.54571753125,33.59
2021-06-30 13:25:01.796875000,-45.0,14.0,44.5,67.061875,6.1,6.545557437499999,33.59
2021-06-30 13:25:01.804687500,-45.0,14.0,44.25,67.0621875,5.22,6.5453973437499995,33.59
2021-06-30 13:25:01.812500000,-45.0,14.0,44.0,67.0625,4.34,6.54523725,33.59
2021-06-30 13:25:01.820312500,-45.0,14.25,44.25,67.06281249999999,3.73,6.54507715625,33.59
2021-06-30 13:25:01.828125000,-45.0,14.5,44.5,67.063125,3.12,6.5449170625,33.59
2021-06-30 13:25:01.835937500,-45.0,14.75,44.75,67.06343749999999,2.815,6.54475696875,33.59
2021-06-30 13:25:01.843750000,-45.0,15.0,45.0,67.06375,2.51,6.544596875,33.59
2021-06-30 13:25:01.851562500,-45.0,14.75,44.75,67.06406249999999,2.465,6.54443678125,33.59
2021-06-30 13:25:01.859375000,-45.0,14.5,44.5,67.064375,2.42,6.5442766875,33.59
2021-06-30 13:25:01.867187500,-45.0,14.25,44.25,67.06468749999999,2.525,6.54411659375,33.59
2021-06-30 13:25:01.875000000,-45.0,14.0,44.0,67.065,2.63,6.5439565,33.59
2021-06-30 13:25:01.882812500,-45.0,14.0,44.25,67.06531249999999,2.73,6.543796406249999,33.59
2021-06-30 13:25:01.890625000,-45.0,14.0,44.5,67.065625,2.83,6.543636312499999,33.59
2021-06-30 13:25:01.898437500,-45.0,14.0,44.75,67.06593749999999,2.79,6.5434762187499995,33.59
2021-06-30 13:25:01.906250000,-45.0,14.0,45.0,67.06625,2.75,6.543316125,33.59
2021-06-30 13:25:01.914062500,-45.0,14.0,45.0,67.06656249999999,2.495,6.54315603125,33.59
2021-06-30 13:25:01.921875000,-45.0,14.0,45.0,67.066875,2.24,6.5429959375,33.59
2021-06-30 13:25:01.929687500,-45.0,14.0,45.0,67.06718749999999,1.7600000000000002,6.54283584375,33.59
2021-06-30 13:25:01.937500000,-45.0,14.0,45.0,67.0675,1.28,6.54267575,33.59
2021-06-30 13:25:01.945312500,-45.0,14.0,45.0,67.06781249999999,0.64,6.54251565625,33.59
2021-06-30 13:25:01.953125000,-45.0,14.0,45.0,67.068125,0.0,6.5423555625,33.59
2021-06-30 13:25:01.960937500,-45.0,14.0,45.0,67.06843749999999,-0.735,6.542195468749999,33.59
2021-06-30 13:25:01.968750000,-45.0,14.0,45.0,67.06875,-1.47,6.542035374999999,33.59
2021-06-30 13:25:01.976562500,-45.0,14.0,45.0,67.06906249999999,-2.295,6.541875281249999,33.59
2021-06-30 13:25:01.984375000,-45.0,14.0,45.0,67.069375,-3.12,6.5417151874999995,33.59
2021-06-30 13:25:01.992187500,-45.0,14.0,45.0,67.06968749999999,-4.125,6.5415550937499995,33.59
2021-06-30 13:25:02.000000000,-45.0,14.0,45.0,67.07,-5.13,6.541395,33.59
2021-06-30 13:25:02.007812500,-45.0,14.25,45.0,67.070234375,-6.48,6.541595125,33.590625
2021-06-30 13:25:02.015625000,-45.0,14.5,45.0,67.07046874999999,-7.83,6.54179525,33.59125
2021-06-30 13:25:02.023437500,-45.0,14.75,45.0,67.070703125,-9.715,6.541995375,33.591875
2021-06-30 13:25:02.031250000,-45.0,15.0,45.0,67.0709375,-11.6,6.5421955,33.5925
2021-06-30 13:25:02.039062500,-45.0,15.0,45.0,67.07117187499999,-14.120000000000001,6.542395625,33.593125
2021-06-30 13:25:02.046875000,-45.0,15.0,45.0,67.07140625,-16.64,6.542595749999999,33.59375
2021-06-30 13:25:02.054687500,-45.0,15.0,45.0,67.07164062499999,-19.740000000000002,6.5427958749999995,33.594375
2021-06-30 13:25:02.062500000,-45.0,15.0,45.0,67.07187499999999,-22.84,6.542996,33.595
2021-06-30 13:25:02.070312500,-45.0,14.75,45.0,67.072109375,-26.27,6.543196125,33.595625000000005
2021-06-30 13:25:02.078125000,-45.0,14.5,45.0,67.07234374999999,-29.7,6.54339625,33.596250000000005
2021-06-30 13:25:02.085937500,-45.0,14.25,45.0,67.07257812499999,-33.02,6.543596375,33.596875000000004
2021-06-30 13:25:02.093750000,-45.0,14.0,45.0,67.0728125,-36.34,6.5437965,33.597500000000004
2021-06-30 13:25:02.101562500,-45.0,14.0,45.0,67.07304687499999,-39.015,6.543996625,33.598125
2021-06-30 13:25:02.109375000,-45.0,14.0,45.0,67.07328125,-41.69,6.54419675,33.59875
2021-06-30 13:25:02.117187500,-45.0,14.0,45.0,67.073515625,-43.205,6.544396875,33.599375
2021-06-30 13:25:02.125000000,-45.0,14.0,45.0,67.07374999999999,-44.72,6.5445969999999996,33.6
2021-06-30 13:25:02.132812500,-45.0,14.0,45.0,67.073984375,-44.739999999999995,6.544797125,33.600625
2021-06-30 13:25:02.140625000,-45.0,14.0,45.0,67.07421875,-44.76,6.54499725,33.60125
2021-06-30 13:25:02.148437500,-45.0,14.0,45.0,67.07445312499999,-43.224999999999994,6.545197375,33.601875
2021-06-30 13:25:02.156250000,-45.0,14.0,45.0,67.0746875,-41.69,6.5453975,33.6025
2021-06-30 13:25:02.164062500,-45.0,14.0,44.75,67.07492187499999,-38.875,6.545597625,33.603125
2021-06-30 13:25:02.171875000,-45.0,14.0,44.5,67.07515624999999,-36.06,6.54579775,33.60375
2021-06-30 13:25:02.179687500,-45.0,14.0,44.25,67.075390625,-32.465,6.545997875,33.604375
2021-06-30 13:25:02.187500000,-45.0,14.0,44.0,67.07562499999999,-28.87,6.546198,33.605000000000004
2021-06-30 13:25:02.195312500,-45.0,14.25,44.0,67.075859375,-25.060000000000002,6.5463981250000005,33.605625
2021-06-30 13:25:02.203125000,-45.0,14.5,44.0,67.07609375,-21.25,6.546598250000001,33.60625
2021-06-30 13:25:02.210937500,-45.0,14.75,44.0,67.07632812499999,-17.695,6.546798375,33.606875
2021-06-30 13:25:02.218750000,-45.0,15.0,44.0,67.0765625,-14.14,6.5469985,33.6075
2021-06-30 13:25:02.226562500,-45.0,15.0,44.0,67.076796875,-11.06,6.547198625,33.608125
2021-06-30 13:25:02.234375000,-45.0,15.0,44.0,67.07703124999999,-7.98,6.54739875,33.60875
2021-06-30 13:25:02.242187500,-45.0,15.0,44.0,67.077265625,-5.365,6.547598875,33.609375
2021-06-30 13:25:02.250000000,-45.0,15.0,44.0,67.07749999999999,-2.75,6.547799,33.61
2021-06-30 13:25:02.257812500,-45.0,14.75,44.0,67.07773437499999,-0.45500000000000007,6.547478781250001,33.61
2021-06-30 13:25:02.265625000,-45.0,14.5,44.0,67.07796875,1.84,6.5471585625,33.61
2021-06-30 13:25:02.273437500,-45.0,14.25,44.0,67.07820312499999,3.965,6.54683834375,33.61
2021-06-30 13:25:02.281250000,-45.0,14.0,44.0,67.07843749999999,6.09,6.546518125,33.61
2021-06-30 13:25:02.289062500,-45.0,14.25,44.0,67.078671875,8.105,6.546197906250001,33.61
2021-06-30 13:25:02.296875000,-45.0,14.5,44.0,67.07890624999999,10.12,6.5458776875,33.61
2021-06-30 13:25:02.304687500,-45.0,14.75,44.0,67.079140625,11.98,6.54555746875,33.61
2021-06-30 13:25:02.312500000,-45.0,15.0,44.0,67.079375,13.84,6.5452372500000005,33.61
2021-06-30 13:25:02.320312500,-45.0,14.75,44.25,67.07960937499999,15.435,6.54491703125,33.61
2021-06-30 13:25:02.328125000,-45.0,14.5,44.5,67.07984375,17.03,6.5445968125,33.61
2021-06-30 13:25:02.335937500,-45.0,14.25,44.75,67.080078125,18.275,6.54427659375,33.61
2021-06-30 13:25:02.343750000,-45.0,14.0,45.0,67.08031249999999,19.52,6.5439563750000005,33.61
2021-06-30 13:25:02.351562500,-45.0,14.0,44.75,67.080546875,20.395,6.54363615625,33.61
2021-06-30 13:25:02.359375000,-45.0,14.0,44.5,67.08078124999999,21.27,6.5433159375,33.61
2021-06-30 13:25:02.367187500,-45.0,14.0,44.25,67.08101562499999,21.79,6.54299571875,33.61
2021-06-30 13:25:02.375000000,-45.0,14.0,44.0,67.08125,22.31,6.5426755,33.61
2021-06-30 13:25:02.382812500,-45.0,14.0,44.25,67.08148437499999,22.54,6.54235528125,33.61
2021-06-30 13:25:02.390625000,-45.0,14.0,44.5,67.08171875,22.77,6.5420350625,33.61
2021-06-30 13:25:02.398437500,-45.0,14.0,44.75,67.081953125,22.78,6.54171484375,33.61
2021-06-30 13:25:02.406250000,-45.0,14.0,45.0,67.08218749999999,22.79,6.541394625,33.61
2021-06-30 13:25:02.414062500,-45.0,14.0,45.0,67.082421875,22.645,6.54107440625,33.61
2021-06-30 13:25:02.421875000,-45.0,14.0,45.0,67.08265625,22.5,6.5407541875,33.61
2021-06-30 13:25:02.429687500,-45.0,14.0,45.0,67.08289062499999,22.28,6.54043396875,33.61
2021-06-30 13:25:02.437500000,-45.0,14.0,45.0,67.083125,22.06,6.54011375,33.61
2021-06-30 13:25:02.445312500,-45.0,14.0,44.75,67.083359375,21.845,6.53979353125,33.61
2021-06-30 13:25:02.453125000,-45.0,14.0,44.5,67.08359374999999,21.63,6.5394733125,33.61
2021-06-30 13:25:02.460937500,-45.0,14.0,44.25,67.083828125,21.490000000000002,6.5391530937499995,33.61
2021-06-30 13:25:02.468750000,-45.0,14.0,44.0,67.08406249999999,21.35,6.538832875,33.61
2021-06-30 13:25:02.476562500,-45.0,14.0,44.25,67.08429687499999,21.35,6.53851265625,33.61
2021-06-30 13:25:02.484375000,-45.0,14.0,44.5,67.08453125,21.35,6.5381924375,33.61
2021-06-30 13:25:02.492187500,-45.0,14.0,44.75,67.08476562499999,21.490000000000002,6.53787221875,33.61
2021-06-30 13:25:02.500000000,-45.0,14.0,45.0,67.085,21.63,6.537552,33.61
2021-06-30 13:25:02.507812500,-45.0,14.25,44.75,67.085234375,21.865000000000002,6.53707165625,33.61
2021-06-30 13:25:02.515625000,-45.0,14.5,44.5,67.08546874999999,22.1,6.5365913125,33.61
2021-06-30 13:25:02.523437500,-45.0,14.75,44.25,67.085703125,22.325000000000003,6.53611096875,33.61
2021-06-30 13:25:02.531250000,-45.0,15.0,44.0,67.0859375,22.55,6.535630625,33.61
2021-06-30 13:25:02.539062500,-45.0,14.75,44.25,67.08617187499999,22.634999999999998,6.53515028125,33.61
2021-06-30 13:25:02.546875000,-45.0,14.5,44.5,67.08640625,22.72,6.5346699374999995,33.61
2021-06-30 13:25:02.554687500,-45.0,14.25,44.75,67.08664062499999,22.53,6.53418959375,33.61
2021-06-30 13:25:02.562500000,-45.0,14.0,45.0,67.08687499999999,22.34,6.533709249999999,33.61
2021-06-30 13:25:02.570312500,-45.0,14.0,44.75,67.087109375,21.78,6.53322890625,33.61
2021-06-30 13:25:02.578125000,-45.0,14.0,44.5,67.08734374999999,21.22,6.5327485625,33.61
2021-06-30 13:25:02.585937500,-45.0,14.0,44.25,67.087578125,20.28,6.53226821875,33.61
2021-06-30 13:25:02.593750000,-45.0,14.0,44.0,67.0878125,19.34,6.531787875,33.61
2021-06-30 13:25:02.601562500,-45.0,14.0,44.0,67.08804687499999,18.1,6.5313075312499995,33.61
2021-06-30 13:25:02.609375000,-45.0,14.0,44.0,67.08828125,16.86,6.5308271875,33.61
2021-06-30 13:25:02.617187500,-45.0,14.0,44.0,67.088515625,15.469999999999999,6.530346843749999,33.61
2021-06-30 13:25:02.625000000,-45.0,14.0,44.0,67.08874999999999,14.08,6.5298665,33.61
2021-06-30 13:25:02.632812500,-45.0,14.25,44.0,67.088984375,12.705,6.52938615625,33.61
2021-06-30 13:25:02.640625000,-45.0,14.5,44.0,67.08921875,11.33,6.5289058125,33.61
2021-06-30 13:25:02.648437500,-45.0,14.75,44.0,67.08945312499999,10.09,6.52842546875,33.61
2021-06-30 13:25:02.656250000,-45.0,15.0,44.0,67.0896875,8.85,6.527945125,33.61
2021-06-30 13:25:02.664062500,-45.0,14.75,44.25,67.08992187499999,7.77,6.52746478125,33.61
2021-06-30 13:25:02.671875000,-45.0,14.5,44.5,67.09015624999999,6.69,6.5269844374999995,33.61
2021-06-30 13:25:02.679687500,-45.0,14.25,44.75,67.090390625,5.7,6.52650409375,33.61
2021-06-30 13:25:02.687500000,-45.0,14.0,45.0,67.09062499999999,4.71,6.52602375,33.61
2021-06-30 13:25:02.695312500,-45.0,14.0,44.75,67.090859375,3.6799999999999997,6.52554340625,33.61
2021-06-30 13:25:02.703125000,-45.0,14.0,44.5,67.09109375,2.65,6.5250630625,33.61
2021-06-30 13:25:02.710937500,-45.0,14.0,44.25,67.09132812499999,1.46,6.52458271875,33.61
2021-06-30 13:25:02.718750000,-45.0,14.0,44.0,67.0915625,0.27,6.524102375,33.61
2021-06-30 13:25:02.726562500,-45.0,14.0,44.0,67.091796875,-1.15,6.5236220312499995,33.61
2021-06-30 13:25:02.734375000,-45.0,14.0,44.0,67.09203124999999,-2.57,6.5231416875,33.61
2021-06-30 13:25:02.742187500,-45.0,14.0,44.0,67.092265625,-4.195,6.522661343749999,33.61
2021-06-30 13:25:02.750000000,-45.0,14.0,44.0,67.0925,-5.82,6.522181,33.61
2021-06-30 13:25:02.757812500,-45.0,14.0,44.0,67.09273437499999,-7.545,6.52226103125,33.61
2021-06-30 13:25:02.765625000,-45.0,14.0,44.0,67.09296875,-9.27,6.5223410625,33.61
2021-06-30 13:25:02.773437500,-45.0,14.0,44.0,67.09320312499999,-10.955,6.522421093749999,33.61
2021-06-30 13:25:02.781250000,-45.0,14.0,44.0,67.0934375,-12.64,6.522501125,33.61
2021-06-30 13:25:02.789062500,-45.0,14.0,44.25,67.093671875,-14.155000000000001,6.52258115625,33.61
2021-06-30 13:25:02.796875000,-45.0,14.0,44.5,67.09390624999999,-15.67,6.5226611875,33.61
2021-06-30 13:25:02.804687500,-45.0,14.0,44.75,67.094140625,-16.96,6.522741218749999,33.61
2021-06-30 13:25:02.812500000,-45.0,14.0,45.0,67.094375,-18.25,6.52282125,33.61
2021-06-30 13:25:02.820312500,-45.0,14.0,44.75,67.09460937499999,-19.39,6.52290128125,33.61
2021-06-30 13:25:02.828125000,-45.0,14.0,44.5,67.09484375,-20.53,6.5229813125,33.61
2021-06-30 13:25:02.835937500,-45.0,14.0,44.25,67.095078125,-21.725,6.523061343749999,33.61
2021-06-30 13:25:02.843750000,-45.0,14.0,44.0,67.09531249999999,-22.92,6.523141375,33.61
2021-06-30 13:25:02.851562500,-45.0,14.25,44.0,67.095546875,-24.44,6.52322140625,33.61
2021-06-30 13:25:02.859375000,-45.0,14.5,44.0,67.09578124999999,-25.96,6.5233014375,33.61
2021-06-30 13:25:02.867187500,-45.0,14.75,44.0,67.09601562499999,-28.03,6.523381468749999,33.61
2021-06-30 13:25:02.875000000,-45.0,15.0,44.0,67.09625,-30.1,6.5234615,33.61
2021-06-30 13:25:02.882812500,-45.0,15.0,44.0,67.09648437499999,-32.79,6.52354153125,33.61
2021-06-30 13:25:02.890625000,-45.0,15.0,44.0,67.09671875,-35.48,6.5236215625,33.61
2021-06-30 13:25:02.898437500,-45.0,15.0,44.0,67.096953125,-38.565,6.523701593749999,33.61
2021-06-30 13:25:02.906250000,-45.0,15.0,44.0,67.09718749999999,-41.65,6.523781625,33.61
2021-06-30 13:25:02.914062500,-45.0,14.75,44.25,67.097421875,-44.644999999999996,6.52386165625,33.61
2021-06-30 13:25:02.921875000,-45.0,14.5,44.5,67.09765625,-47.64,6.5239416875,33.61
2021-06-30 13:25:02.929687500,-45.0,14.25,44.75,67.09789062499999,-49.870000000000005,6.524021718749999,33.61
2021-06-30 13:25:02.937500000,-45.0,14.0,45.0,67.098125,-52.1,6.52410175,33.61
2021-06-30 13:25:02.945312500,-45.0,13.75,45.0,67.098359375,-52.945,6.52418178125,33.61
2021-06-30 13:25:02.953125000,-45.0,13.5,45.0,67.09859374999999,-53.79,6.5242618125,33.61
2021-06-30 13:25:02.960937500,-45.0,13.25,45.0,67.098828125,-52.89,6.524341843749999,33.61
2021-06-30 13:25:02.968750000,-45.0,13.0,45.0,67.09906249999999,-51.99,6.524421875,33.61
2021-06-30 13:25:02.976562500,-44.75,13.25,45.0,67.099296875,-49.365,6.52450190625,33.61
2021-06-30 13:25:02.984375000,-44.5,13.5,45.0,67.09953125,-46.74,6.5245819375,33.61
2021-06-30 13:25:02.992187500,-44.25,13.75,45.0,67.09976562499999,-42.835,6.524661968749999,33.61
2021-06-30 13:25:03.000000000,-44.0,14.0,45.0,67.1,-38.93,6.524742,33.61
2021-06-30 13:25:03.007812500,-44.25,14.0,45.0,67.09976562499999,-34.4,6.52462190625,33.61
2021-06-30 13:25:03.015625000,-44.5,14.0,45.0,67.09953125,-29.87,6.5245018125,33.61
2021-06-30 13:25:03.023437500,-44.75,14.0,45.0,67.099296875,-25.365000000000002,6.52438171875,33.61
2021-06-30 13:25:03.031250000,-45.0,14.0,45.0,67.09906249999999,-20.86,6.524261624999999,33.61
2021-06-30 13:25:03.039062500,-45.25,14.25,44.75,67.098828125,-16.8,6.52414153125,33.61
2021-06-30 13:25:03.046875000,-45.5,14.5,44.5,67.09859374999999,-12.74,6.5240214375,33.61
2021-06-30 13:25:03.054687500,-45.75,14.75,44.25,67.098359375,-9.235,6.5239013437499995,33.61
2021-06-30 13:25:03.062500000,-46.0,15.0,44.0,67.098125,-5.73,6.52378125,33.61
2021-06-30 13:25:03.070312500,-45.75,14.75,44.0,67.09789062499999,-2.6550000000000002,6.52366115625,33.61
2021-06-30 13:25:03.078125000,-45.5,14.5,44.0,67.09765625,0.42,6.5235410625,33.61
2021-06-30 13:25:03.085937500,-45.25,14.25,44.0,67.097421875,3.295,6.52342096875,33.61
2021-06-30 13:25:03.093750000,-45.0,14.0,44.0,67.09718749999999,6.17,6.523300875,33.61
2021-06-30 13:25:03.101562500,-45.0,14.25,44.0,67.096953125,9.004999999999999,6.52318078125,33.61
2021-06-30 13:25:03.109375000,-45.0,14.5,44.0,67.09671875,11.84,6.5230606875,33.61
2021-06-30 13:25:03.117187500,-45.0,14.75,44.0,67.09648437499999,14.635,6.52294059375,33.61
2021-06-30 13:25:03.125000000,-45.0,15.0,44.0,67.09625,17.43,6.5228205,33.61
2021-06-30 13:25:03.132812500,-45.0,14.75,44.0,67.09601562499999,20.045,6.52270040625,33.61
2021-06-30 13:25:03.140625000,-45.0,14.5,44.0,67.09578124999999,22.66,6.5225803125,33.61
2021-06-30 13:25:03.148437500,-45.0,14.25,44.0,67.095546875,24.93,6.52246021875,33.61
2021-06-30 13:25:03.156250000,-45.0,14.0,44.0,67.09531249999999,27.2,6.5223401249999995,33.61
2021-06-30 13:25:03.164062500,-45.0,14.0,44.0,67.095078125,29.005,6.52222003125,33.61
2021-06-30 13:25:03.171875000,-45.0,14.0,44.0,67.09484375,30.81,6.5220999375,33.61
2021-06-30 13:25:03.179687500,-45.0,14.0,44.0,67.09460937499999,32.125,6.52197984375,33.61
2021-06-30 13:25:03.187500000,-45.0,14.0,44.0,67.094375,33.44,6.52185975,33.61
2021-06-30 13:25:03.195312500,-45.0,14.0,44.0,67.094140625,34.31,6.52173965625,33.61
2021-06-30 13:25:03.203125000,-45.0,14.0,44.0,67.09390624999999,35.18,6.5216195625,33.61
2021-06-30 13:25:03.210937500,-45.0,14.0,44.0,67.093671875,35.685,6.52149946875,33.61
2021-06-30 13:25:03.218750000,-45.0,14.0,44.0,67.0934375,36.19,6.521379375,33.61
2021-06-30 13:25:03.226562500,-45.0,14.0,44.25,67.09320312499999,36.39,6.52125928125,33.61
2021-06-30 13:25:03.234375000,-45.0,14.0,44.5,67.09296875,36.59,6.5211391875,33.61
2021-06-30 13:25:03.242187500,-45.0,14.0,44.75,67.09273437499999,36.535,6.52101909375,33.61
2021-06-30 13:25:03.250000000,-45.0,14.0,45.0,67.0925,36.48,6.520899,33.61
2021-06-30 13:25:03.257812500,-45.0,14.0,44.75,67.092265625,36.22,6.5209790625,33.61
2021-06-30 13:25:03.265625000,-45.0,14.0,44.5,67.09203124999999,35.96,6.521059125,33.61
2021-06-30 13:25:03.273437500,-45.0,14.0,44.25,67.091796875,35.565,6.5211391875,33.61
2021-06-30 13:25:03.281250000,-45.0,14.0,44.0,67.0915625,35.17,6.52121925,33.61
2021-06-30 13:25:03.289062500,-45.0,14.0,44.0,67.09132812499999,34.74,6.5212993125,33.61
2021-06-30 13:25:03.296875000,-45.0,14.0,44.0,67.09109375,34.31,6.521379375,33.61
2021-06-30 13:25:03.304687500,-45.0,14.0,44.0,67.090859375,33.925,6.5214594375,33.61
2021-06-30 13:25:03.312500000,-45.0,14.0,44.0,67.09062499999999,33.54,6.5215395,33.61
2021-06-30 13:25:03.320312500,-45.0,14.0,44.0,67.090390625,33.254999999999995,6.5216195625,33.61
2021-06-30 13:25:03.328125000,-45.0,14.0,44.0,67.09015624999999,32.97,6.521699625,33.61
2021-06-30 13:25:03.335937500,-45.0,14.0,44.0,67.08992187499999,32.775,6.5217796875000005,33.61
2021-06-30 13:25:03.343750000,-45.0,14.0,44.0,67.0896875,32.58,6.52185975,33.61
2021-06-30 13:25:03.351562500,-45.0,14.0,44.0,67.08945312499999,32.394999999999996,6.5219398125,33.61
2021-06-30 13:25:03.359375000,-45.0,14.0,44.0,67.08921875,32.21,6.522019875,33.61
2021-06-30 13:25:03.367187500,-45.0,14.0,44.0,67.088984375,31.94,6.5220999375,33.61
2021-06-30 13:25:03.375000000,-45.0,14.0,44.0,67.08874999999999,31.67,6.5221800000000005,33.61
2021-06-30 13:25:03.382812500,-45.0,14.0,44.0,67.088515625,31.205,6.5222600625,33.61
2021-06-30 13:25:03.390625000,-45.0,14.0,44.0,67.08828125,30.74,6.522340125,33.61
2021-06-30 13:25:03.398437500,-45.0,14.0,44.0,67.08804687499999,30.015,6.5224201875,33.61
2021-06-30 13:25:03.406250000,-45.0,14.0,44.0,67.0878125,29.29,6.52250025,33.61
2021-06-30 13:25:03.414062500,-45.0,14.0,44.0,67.087578125,28.295,6.5225803125,33.61
2021-06-30 13:25:03.421875000,-45.0,14.0,44.0,67.08734374999999,27.3,6.522660375,33.61
2021-06-30 13:25:03.429687500,-45.0,14.0,44.0,67.087109375,26.07,6.5227404375,33.61
2021-06-30 13:25:03.437500000,-45.0,14.0,44.0,67.08687499999999,24.84,6.5228205,33.61
2021-06-30 13:25:03.445312500,-45.0,14.0,44.0,67.08664062499999,23.475,6.5229005625,33.61
2021-06-30 13:25:03.453125000,-45.0,14.0,44.0,67.08640625,22.11,6.522980625,33.61
2021-06-30 13:25:03.460937500,-45.0,14.0,44.0,67.08617187499999,20.71,6.5230606875,33.61
2021-06-30 13:25:03.468750000,-45.0,14.0,44.0,67.0859375,19.31,6.5231407500000005,33.61
2021-06-30 13:25:03.476562500,-45.0,14.25,44.0,67.085703125,17.96,6.5232208125,33.61
2021-06-30 13:25:03.484375000,-45.0,14.5,44.0,67.08546874999999,16.61,6.523300875,33.61
2021-06-30 13:25:03.492187500,-45.0,14.75,44.0,67.085234375,15.34,6.5233809375,33.61
2021-06-30 13:25:03.500000000,-45.0,15.0,44.0,67.085,14.07,6.523461,33.61
2021-06-30 13:25:03.507812500,-45.0,14.75,44.25,67.08476562499999,12.855,6.5233809375,33.61
2021-06-30 13:25:03.515625000,-45.0,14.5,44.5,67.08453125,11.64,6.523300875,33.61
2021-06-30 13:25:03.523437500,-45.0,14.25,44.75,67.08429687499999,10.39,6.5232208125,33.61
2021-06-30 13:25:03.531250000,-45.0,14.0,45.0,67.08406249999999,9.14,6.5231407500000005,33.61
2021-06-30 13:25:03.539062500,-45.0,14.25,44.75,67.083828125,7.775,6.5230606875,33.61
2021-06-30 13:25:03.546875000,-45.0,14.5,44.5,67.08359374999999,6.41,6.522980625,33.61
2021-06-30 13:25:03.554687500,-45.0,14.75,44.25,67.083359375,4.885,6.5229005625,33.61
2021-06-30 13:25:03.562500000,-45.0,15.0,44.0,67.083125,3.36,6.5228205,33.61
2021-06-30 13:25:03.570312500,-45.0,14.75,44.25,67.08289062499999,1.68,6.5227404375,33.61
2021-06-30 13:25:03.578125000,-45.0,14.5,44.5,67.08265625,0.0,6.522660375,33.61
2021-06-30 13:25:03.585937500,-45.0,14.25,44.75,67.082421875,-1.75,6.5225803125,33.61
2021-06-30 13:25:03.593750000,-45.0,14.0,45.0,67.08218749999999,-3.5,6.52250025,33.61
2021-06-30 13:25:03.601562500,-45.0,14.0,45.0,67.081953125,-5.220000000000001,6.5224201875,33.61
2021-06-30 13:25:03.609375000,-45.0,14.0,45.0,67.08171875,-6.94,6.522340125,33.61
2021-06-30 13:25:03.617187500,-45.0,14.0,45.0,67.08148437499999,-8.525,6.5222600625,33.61
2021-06-30 13:25:03.625000000,-45.0,14.0,45.0,67.08125,-10.11,6.5221800000000005,33.61
2021-06-30 13:25:03.632812500,-45.0,14.0,45.0,67.08101562499999,-11.53,6.5220999375,33.61
2021-06-30 13:25:03.640625000,-45.0,14.0,45.0,67.08078124999999,-12.95,6.522019875,33.61
2021-06-30 13:25:03.648437500,-45.0,14.0,45.0,67.080546875,-14.23,6.5219398125,33.61
2021-06-30 13:25:03.656250000,-45.0,14.0,45.0,67.08031249999999,-15.51,6.52185975,33.61
2021-06-30 13:25:03.664062500,-45.0,14.0,45.0,67.080078125,-16.755,6.5217796875000005,33.61
2021-06-30 13:25:03.671875000,-45.0,14.0,45.0,67.07984375,-18.0,6.521699625,33.61
2021-06-30 13:25:03.679687500,-45.0,14.0,45.0,67.07960937499999,-19.36,6.5216195625,33.61
2021-06-30 13:25:03.687500000,-45.0,14.0,45.0,67.079375,-20.72,6.5215395,33.61
2021-06-30 13:25:03.695312500,-45.0,14.25,45.0,67.079140625,-22.354999999999997,6.5214594375,33.61
2021-06-30 13:25:03.703125000,-45.0,14.5,45.0,67.07890624999999,-23.99,6.521379375,33.61
2021-06-30 13:25:03.710937500,-45.0,14.75,45.0,67.078671875,-26.015,6.5212993125,33.61
2021-06-30 13:25:03.718750000,-45.0,15.0,45.0,67.07843749999999,-28.04,6.52121925,33.61
2021-06-30 13:25:03.726562500,-45.0,14.75,44.75,67.07820312499999,-30.45,6.5211391875,33.61
2021-06-30 13:25:03.734375000,-45.0,14.5,44.5,67.07796875,-32.86,6.521059125,33.61
2021-06-30 13:25:03.742187500,-45.0,14.25,44.25,67.07773437499999,-35.47,6.5209790625,33.61
2021-06-30 13:25:03.750000000,-45.0,14.0,44.0,67.07749999999999,-38.08,6.520899,33.61
2021-06-30 13:25:03.757812500,-45.0,14.0,44.25,67.077265625,-40.504999999999995,6.5209790625,33.61
2021-06-30 13:25:03.765625000,-45.0,14.0,44.5,67.07703124999999,-42.93,6.521059125,33.61
2021-06-30 13:25:03.773437500,-45.0,14.0,44.75,67.076796875,-44.665,6.5211391875,33.61
2021-06-30 13:25:03.781250000,-45.0,14.0,45.0,67.0765625,-46.4,6.52121925,33.61
2021-06-30 13:25:03.789062500,-45.0,14.0,44.75,67.07632812499999,-46.92,6.5212993125,33.61
2021-06-30 13:25:03.796875000,-45.0,14.0,44.5,67.07609375,-47.44,6.521379375,33.61
2021-06-30 13:25:03.804687500,-45.0,14.0,44.25,67.075859375,-46.43,6.5214594375,33.61
2021-06-30 13:25:03.812500000,-45.0,14.0,44.0,67.07562499999999,-45.42,6.5215395,33.61
2021-06-30 13:25:03.820312500,-45.0,14.0,44.25,67.075390625,-42.88,6.5216195625,33.61
2021-06-30 13:25:03.828125000,-45.0,14.0,44.5,67.07515624999999,-40.34,6.521699625,33.61
2021-06-30 13:25:03.835937500,-45.0,14.0,44.75,67.07492187499999,-36.63,6.5217796875000005,33.61
2021-06-30 13:25:03.843750000,-45.0,14.0,45.0,67.0746875,-32.92,6.52185975,33.61
2021-06-30 13:25:03.851562500,-45.0,14.25,45.0,67.07445312499999,-28.630000000000003,6.5219398125,33.61
2021-06-30 13:25:03.859375000,-45.0,14.5,45.0,67.07421875,-24.34,6.522019875,33.61
2021-06-30 13:25:03.867187500,-45.0,14.75,45.0,67.073984375,-20.08,6.5220999375,33.61
2021-06-30 13:25:03.875000000,-45.0,15.0,45.0,67.07374999999999,-15.82,6.5221800000000005,33.61
2021-06-30 13:25:03.882812500,-45.0,14.75,44.75,67.073515625,-12.025,6.5222600625,33.61
2021-06-30 13:25:03.890625000,-45.0,14.5,44.5,67.07328125,-8.23,6.522340125,33.61
2021-06-30 13:25:03.898437500,-45.0,14.25,44.25,67.07304687499999,-5.045,6.5224201875,33.61
2021-06-30 13:25:03.906250000,-45.0,14.0,44.0,67.0728125,-1.86,6.52250025,33.61
2021-06-30 13:25:03.914062500,-45.0,14.25,44.25,67.07257812499999,0.8299999999999998,6.5225803125,33.61
2021-06-30 13:25:03.921875000,-45.0,14.5,44.5,67.07234374999999,3.52,6.522660375,33.61
2021-06-30 13:25:03.929687500,-45.0,14.75,44.75,67.072109375,5.960000000000001,6.5227404375,33.61
2021-06-30 13:25:03.937500000,-45.0,15.0,45.0,67.07187499999999,8.4,6.5228205,33.61
2021-06-30 13:25:03.945312500,-45.0,14.75,45.0,67.07164062499999,10.775,6.5229005625,33.61
2021-06-30 13:25:03.953125000,-45.0,14.5,45.0,67.07140625,13.15,6.522980625,33.61
2021-06-30 13:25:03.960937500,-45.0,14.25,45.0,67.07117187499999,15.495000000000001,6.5230606875,33.61
2021-06-30 13:25:03.968750000,-45.0,14.0,45.0,67.0709375,17.84,6.5231407500000005,33.61
2021-06-30 13:25:03.976562500,-45.0,14.25,45.0,67.070703125,20.005000000000003,6.5232208125,33.61
2021-06-30 13:25:03.984375000,-45.0,14.5,45.0,67.07046874999999,22.17,6.523300875,33.61
2021-06-30 13:25:03.992187500,-45.0,14.75,45.0,67.070234375,23.915,6.5233809375,33.61
2021-06-30 13:25:04.000000000,-45.0,15.0,45.0,67.07,25.66,6.523461,33.61
2021-06-30 13:25:04.007812500,-45.0,14.75,44.75,67.069453125,26.78,6.52358109375,33.609375
2021-06-30 13:25:04.015625000,-45.0,14.5,44.5,67.06890625,27.9,6.5237011875,33.60875
2021-06-30 13:25:04.023437500,-45.0,14.25,44.25,67.068359375,28.335,6.52382128125,33.608125
2021-06-30 13:25:04.031250000,-45.0,14.0,44.0,67.06781249999999,28.77,6.523941375,33.6075
2021-06-30 13:25:04.039062500,-45.0,14.0,44.0,67.06726562499999,28.625,6.52406146875,33.606875
2021-06-30 13:25:04.046875000,-45.0,14.0,44.0,67.06671874999999,28.48,6.5241815625,33.60625
2021-06-30 13:25:04.054687500,-45.0,14.0,44.0,67.066171875,28.009999999999998,6.5243016562500005,33.605625
2021-06-30 13:25:04.062500000,-45.0,14.0,44.0,67.065625,27.54,6.52442175,33.605000000000004
2021-06-30 13:25:04.070312500,-45.0,14.25,44.25,67.065078125,27.02,6.52454184375,33.604375
2021-06-30 13:25:04.078125000,-45.0,14.5,44.5,67.06453124999999,26.5,6.5246619375,33.60375
2021-06-30 13:25:04.085937500,-45.0,14.75,44.75,67.06398437499999,26.155,6.52478203125,33.603125
2021-06-30 13:25:04.093750000,-45.0,15.0,45.0,67.06343749999999,25.81,6.5249021250000006,33.6025
2021-06-30 13:25:04.101562500,-45.0,14.75,45.0,67.062890625,25.72,6.52502221875,33.601875
2021-06-30 13:25:04.109375000,-45.0,14.5,45.0,67.06234375,25.63,6.5251423125,33.60125
2021-06-30 13:25:04.117187500,-45.0,14.25,45.0,67.061796875,25.744999999999997,6.52526240625,33.600625
2021-06-30 13:25:04.125000000,-45.0,14.0,45.0,67.06125,25.86,6.5253825,33.6
2021-06-30 13:25:04.132812500,-45.0,14.25,44.75,67.06070312499999,26.055,6.52550259375,33.599375
2021-06-30 13:25:04.140625000,-45.0,14.5,44.5,67.06015624999999,26.25,6.5256226875,33.59875
2021-06-30 13:25:04.148437500,-45.0,14.75,44.25,67.059609375,26.384999999999998,6.52574278125,33.598125
2021-06-30 13:25:04.156250000,-45.0,15.0,44.0,67.0590625,26.52,6.525862875,33.597500000000004
2021-06-30 13:25:04.164062500,-45.0,15.0,44.25,67.058515625,26.5,6.52598296875,33.596875000000004
2021-06-30 13:25:04.171875000,-45.0,15.0,44.5,67.05796875,26.48,6.5261030625,33.596250000000005
2021-06-30 13:25:04.179687500,-45.0,15.0,44.75,67.05742187499999,26.245,6.52622315625,33.595625000000005
2021-06-30 13:25:04.187500000,-45.0,15.0,45.0,67.05687499999999,26.01,6.52634325,33.595
2021-06-30 13:25:04.195312500,-45.0,14.75,45.0,67.056328125,25.565,6.52646334375,33.594375
2021-06-30 13:25:04.203125000,-45.0,14.5,45.0,67.05578125,25.12,6.5265834375,33.59375
2021-06-30 13:25:04.210937500,-45.0,14.25,45.0,67.055234375,24.475,6.52670353125,33.593125
2021-06-30 13:25:04.218750000,-45.0,14.0,45.0,67.0546875,23.83,6.5268236250000005,33.5925
2021-06-30 13:25:04.226562500,-45.0,14.0,44.75,67.05414062499999,23.0,6.52694371875,33.591875
2021-06-30 13:25:04.234375000,-45.0,14.0,44.5,67.05359374999999,22.17,6.5270638125,33.59125
2021-06-30 13:25:04.242187500,-45.0,14.0,44.25,67.05304687499999,21.16,6.52718390625,33.590625
2021-06-30 13:25:04.250000000,-45.0,14.0,44.0,67.0525,20.15,6.527304,33.59
2021-06-30 13:25:04.257812500,-45.0,14.25,44.0,67.051953125,18.975,6.527304,33.59
2021-06-30 13:25:04.265625000,-45.0,14.5,44.0,67.05140625,17.8,6.527304,33.59
2021-06-30 13:25:04.273437500,-45.0,14.75,44.0,67.050859375,16.47,6.527304,33.59
2021-06-30 13:25:04.281250000,-45.0,15.0,44.0,67.05031249999999,15.14,6.527304,33.59
2021-06-30 13:25:04.289062500,-45.0,14.75,44.25,67.04976562499999,13.690000000000001,6.527304,33.59
2021-06-30 13:25:04.296875000,-45.0,14.5,44.5,67.04921875,12.24,6.527304,33.59
2021-06-30 13:25:04.304687500,-45.0,14.25,44.75,67.048671875,10.705,6.527304,33.59
2021-06-30 13:25:04.312500000,-45.0,14.0,45.0,67.048125,9.17,6.527304,33.59
2021-06-30 13:25:04.320312500,-45.0,14.25,44.75,67.047578125,7.6,6.527304,33.59
2021-06-30 13:25:04.328125000,-45.0,14.5,44.5,67.04703124999999,6.03,6.527304,33.59
2021-06-30 13:25:04.335937500,-45.0,14.75,44.25,67.04648437499999,4.485,6.527304,33.59
2021-06-30 13:25:04.343750000,-45.0,15.0,44.0,67.0459375,2.94,6.527304,33.59
2021-06-30 13:25:04.351562500,-45.0,14.75,44.25,67.045390625,1.48,6.527304,33.59
2021-06-30 13:25:04.359375000,-45.0,14.5,44.5,67.04484375,0.02,6.527304,33.59
2021-06-30 13:25:04.367187500,-45.0,14.25,44.75,67.044296875,-1.335,6.527304,33.59
2021-06-30 13:25:04.375000000,-45.0,14.0,45.0,67.04374999999999,-2.69,6.527304,33.59
2021-06-30 13:25:04.382812500,-45.0,14.0,45.0,67.04320312499999,-3.9299999999999997,6.527304,33.59
2021-06-30 13:25:04.390625000,-45.0,14.0,45.0,67.04265625,-5.17,6.527304,33.59
2021-06-30 13:25:04.398437500,-45.0,14.0,45.0,67.042109375,-6.34,6.527304,33.59
2021-06-30 13:25:04.406250000,-45.0,14.0,45.0,67.0415625,-7.51,6.527304,33.59
2021-06-30 13:25:04.414062500,-45.0,14.0,45.0,67.041015625,-8.675,6.527304,33.59
2021-06-30 13:25:04.421875000,-45.0,14.0,45.0,67.04046875,-9.84,6.527304,33.59
2021-06-30 13:25:04.429687500,-45.0,14.0,45.0,67.03992187499999,-11.08,6.527304,33.59
2021-06-30 13:25:04.437500000,-45.0,14.0,45.0,67.03937499999999,-12.32,6.527304,33.59
2021-06-30 13:25:04.445312500,-45.0,14.0,45.0,67.038828125,-13.71,6.527304,33.59
2021-06-30 13:25:04.453125000,-45.0,14.0,45.0,67.03828125,-15.1,6.527304,33.59
2021-06-30 13:25:04.460937500,-45.0,14.0,45.0,67.037734375,-16.715,6.527304,33.59
2021-06-30 13:25:04.468750000,-45.0,14.0,45.0,67.0371875,-18.33,6.527304,33.59
2021-06-30 13:25:04.476562500,-45.0,14.25,45.0,67.03664062499999,-20.235,6.527304,33.59
2021-06-30 13:25:04.484375000,-45.0,14.5,45.0,67.03609374999999,-22.14,6.527304,33.59
2021-06-30 13:25:04.492187500,-45.0,14.75,45.0,67.035546875,-24.345,6.527304,33.59
2021-06-30 13:25:04.500000000,-45.0,15.0,45.0,67.035,-26.55,6.527304,33.59
2021-06-30 13:25:04.507812500,-45.0,15.0,44.75,67.034453125,-28.945,6.52726396875,33.59
2021-06-30 13:25:04.515625000,-45.0,15.0,44.5,67.03390625,-31.34,6.5272239375,33.59
2021-06-30 13:25:04.523437500,-45.0,15.0,44.25,67.033359375,-33.66,6.52718390625,33.59
2021-06-30 13:25:04.531250000,-45.0,15.0,44.0,67.03281249999999,-35.98,6.527143875,33.59
2021-06-30 13:25:04.539062500,-45.0,15.0,44.0,67.032265625,-37.805,6.52710384375,33.59
2021-06-30 13:25:04.546875000,-45.0,15.0,44.0,67.03171875,-39.63,6.5270638125,33.59
2021-06-30 13:25:04.554687500,-45.0,15.0,44.0,67.031171875,-40.475,6.5270237812500005,33.59
2021-06-30 13:25:04.562500000,-45.0,15.0,44.0,67.030625,-41.32,6.52698375,33.59
2021-06-30 13:25:04.570312500,-44.75,14.75,44.25,67.030078125,-40.825,6.52694371875,33.59
2021-06-30 13:25:04.578125000,-44.5,14.5,44.5,67.02953124999999,-40.33,6.5269036875,33.59
2021-06-30 13:25:04.585937500,-44.25,14.25,44.75,67.028984375,-38.4,6.52686365625,33.59
2021-06-30 13:25:04.593750000,-44.0,14.0,45.0,67.0284375,-36.47,6.5268236250000005,33.59
2021-06-30 13:25:04.601562500,-44.25,14.0,44.75,67.027890625,-33.325,6.52678359375,33.59
2021-06-30 13:25:04.609375000,-44.5,14.0,44.5,67.02734375,-30.18,6.5267435625,33.59
2021-06-30 13:25:04.617187500,-44.75,14.0,44.25,67.026796875,-26.32,6.52670353125,33.59
2021-06-30 13:25:04.625000000,-45.0,14.0,44.0,67.02625,-22.46,6.5266635,33.59
2021-06-30 13:25:04.632812500,-45.0,14.0,44.25,67.02570312499999,-18.45,6.52662346875,33.59
2021-06-30 13:25:04.640625000,-45.0,14.0,44.5,67.02515625,-14.44,6.5265834375,33.59
2021-06-30 13:25:04.648437500,-45.0,14.0,44.75,67.024609375,-10.719999999999999,6.52654340625,33.59
2021-06-30 13:25:04.656250000,-45.0,14.0,45.0,67.0240625,-7.0,6.526503375,33.59
2021-06-30 13:25:04.664062500,-45.0,14.0,44.75,67.023515625,-3.765,6.526463343750001,33.59
2021-06-30 13:25:04.671875000,-45.0,14.0,44.5,67.02296875,-0.53,6.5264233125,33.59
2021-06-30 13:25:04.679687500,-45.0,14.0,44.25,67.02242187499999,2.2750000000000004,6.52638328125,33.59
2021-06-30 13:25:04.687500000,-45.0,14.0,44.0,67.021875,5.08,6.52634325,33.59
2021-06-30 13:25:04.695312500,-45.0,14.0,44.25,67.021328125,7.62,6.52630321875,33.59
2021-06-30 13:25:04.703125000,-45.0,14.0,44.5,67.02078125,10.16,6.526263187500001,33.59
2021-06-30 13:25:04.710937500,-45.0,14.0,44.75,67.020234375,12.555,6.52622315625,33.59
2021-06-30 13:25:04.718750000,-45.0,14.0,45.0,67.0196875,14.95,6.526183125,33.59
2021-06-30 13:25:04.726562500,-45.0,14.0,45.0,67.01914062499999,17.195,6.52614309375,33.59
2021-06-30 13:25:04.734375000,-45.0,14.0,45.0,67.01859375,19.44,6.526103062500001,33.59
2021-06-30 13:25:04.742187500,-45.0,14.0,45.0,67.018046875,21.4,6.5260630312500005,33.59
2021-06-30 13:25:04.750000000,-45.0,14.0,45.0,67.0175,23.36,6.526023,33.59
2021-06-30 13:25:04.757812500,-45.0,14.0,44.75,67.016953125,24.85,6.526263187500001,33.59
2021-06-30 13:25:04.765625000,-45.0,14.0,44.5,67.01640625,26.34,6.526503375000001,33.59
2021-06-30 13:25:04.773437500,-45.0,14.0,44.25,67.015859375,27.27,6.5267435625,33.59
2021-06-30 13:25:04.781250000,-45.0,14.0,44.0,67.0153125,28.2,6.52698375,33.59
2021-06-30 13:25:04.789062500,-45.0,14.0,44.0,67.014765625,28.59,6.5272239375000005,33.59
2021-06-30 13:25:04.796875000,-45.0,14.0,44.0,67.01421875,28.98,6.527464125,33.59
2021-06-30 13:25:04.804687500,-45.0,14.0,44.0,67.013671875,28.98,6.5277043125,33.59
2021-06-30 13:25:04.812500000,-45.0,14.0,44.0,67.013125,28.98,6.5279445,33.59
2021-06-30 13:25:04.820312500,-45.0,14.0,44.0,67.012578125,28.785,6.5281846875000005,33.59
2021-06-30 13:25:04.828125000,-45.0,14.0,44.0,67.01203124999999,28.59,6.528424875000001,33.59
2021-06-30 13:25:04.835937500,-45.0,14.0,44.0,67.011484375,28.345,6.5286650625,33.59
2021-06-30 13:25:04.843750000,-45.0,14.0,44.0,67.0109375,28.1,6.52890525,33.59
2021-06-30 13:25:04.851562500,-45.0,14.25,44.0,67.010390625,27.89,6.5291454375,33.59
2021-06-30 13:25:04.859375000,-45.0,14.5,44.0,67.00984375,27.68,6.529385625,33.59
2021-06-30 13:25:04.867187500,-45.0,14.75,44.0,67.009296875,27.5,6.5296258125,33.59
2021-06-30 13:25:04.875000000,-45.0,15.0,44.0,67.00874999999999,27.32,6.529866,33.59
2021-06-30 13:25:04.882812500,-45.0,14.75,44.0,67.008203125,27.14,6.5301061875,33.59
2021-06-30 13:25:04.890625000,-45.0,14.5,44.0,67.00765625,26.96,6.530346375000001,33.59
2021-06-30 13:25:04.898437500,-45.0,14.25,44.0,67.007109375,26.75,6.5305865625,33.59
2021-06-30 13:25:04.906250000,-45.0,14.0,44.0,67.0065625,26.54,6.53082675,33.59
2021-06-30 13:25:04.914062500,-45.0,14.0,44.0,67.006015625,26.305,6.5310669375,33.59
2021-06-30 13:25:04.921875000,-45.0,14.0,44.0,67.00546875,26.07,6.531307125,33.59
2021-06-30 13:25:04.929687500,-45.0,14.0,44.0,67.004921875,25.85,6.5315473125,33.59
2021-06-30 13:25:04.937500000,-45.0,14.0,44.0,67.004375,25.63,6.5317875,33.59
2021-06-30 13:25:04.945312500,-45.0,14.0,44.0,67.003828125,25.465,6.5320276875,33.59
2021-06-30 13:25:04.953125000,-45.0,14.0,44.0,67.00328125,25.3,6.5322678750000005,33.59
2021-06-30 13:25:04.960937500,-45.0,14.0,44.0,67.002734375,25.17,6.5325080625,33.59
2021-06-30 13:25:04.968750000,-45.0,14.0,44.0,67.0021875,25.04,6.53274825,33.59
2021-06-30 13:25:04.976562500,-45.0,14.0,44.0,67.001640625,24.884999999999998,6.5329884375,33.59
2021-06-30 13:25:04.984375000,-45.0,14.0,44.0,67.00109375,24.73,6.533228625,33.59
2021-06-30 13:25:04.992187500,-45.0,14.0,44.0,67.000546875,24.415,6.5334688125,33.59
2021-06-30 13:25:05.000000000,-45.0,14.0,44.0,67.0,24.1,6.533709,33.59
2021-06-30 13:25:05.007812500,-45.0,14.0,44.0,66.999765625,23.5,6.53358890625,33.59
2021-06-30 13:25:05.015625000,-45.0,14.0,44.0,66.99953125,22.9,6.5334688125,33.59
2021-06-30 13:25:05.023437500,-45.0,14.0,44.0,66.999296875,21.93,6.53334871875,33.59
2021-06-30 13:25:05.031250000,-45.0,14.0,44.0,66.9990625,20.96,6.533228625,33.59
2021-06-30 13:25:05.039062500,-45.0,14.0,44.0,66.998828125,19.645,6.53310853125,33.59
2021-06-30 13:25:05.046875000,-45.0,14.0,44.0,66.99859375,18.33,6.5329884375,33.59
2021-06-30 13:25:05.054687500,-45.0,14.0,44.0,66.998359375,16.799999999999997,6.53286834375,33.59
2021-06-30 13:25:05.062500000,-45.0,14.0,44.0,66.998125,15.27,6.53274825,33.59
2021-06-30 13:25:05.070312500,-45.0,14.0,44.0,66.997890625,13.715,6.53262815625,33.59
2021-06-30 13:25:05.078125000,-45.0,14.0,44.0,66.99765625,12.16,6.5325080625,33.59
2021-06-30 13:25:05.085937500,-45.0,14.0,44.0,66.997421875,10.780000000000001,6.53238796875,33.59
2021-06-30 13:25:05.093750000,-45.0,14.0,44.0,66.9971875,9.4,6.5322678750000005,33.59
2021-06-30 13:25:05.101562500,-45.0,14.0,44.0,66.996953125,8.315000000000001,6.53214778125,33.59
2021-06-30 13:25:05.109375000,-45.0,14.0,44.0,66.99671875,7.23,6.5320276875,33.59
2021-06-30 13:25:05.117187500,-45.0,14.0,44.0,66.996484375,6.415,6.53190759375,33.59
2021-06-30 13:25:05.125000000,-45.0,14.0,44.0,66.99625,5.6,6.5317875,33.59
2021-06-30 13:25:05.132812500,-45.0,14.0,44.25,66.996015625,4.9,6.53166740625,33.59
2021-06-30 13:25:05.140625000,-45.0,14.0,44.5,66.99578125,4.2,6.5315473125,33.59
2021-06-30 13:25:05.148437500,-45.0,14.0,44.75,66.995546875,3.415,6.53142721875,33.59
2021-06-30 13:25:05.156250000,-45.0,14.0,45.0,66.9953125,2.63,6.531307125,33.59
2021-06-30 13:25:05.164062500,-45.0,14.0,44.75,66.995078125,1.5699999999999998,6.53118703125,33.59
2021-06-30 13:25:05.171875000,-45.0,14.0,44.5,66.99484375,0.51,6.5310669375,33.59
2021-06-30 13:25:05.179687500,-45.0,14.0,44.25,66.994609375,-0.885,6.53094684375,33.59
2021-06-30 13:25:05.187500000,-45.0,14.0,44.0,66.994375,-2.28,6.53082675,33.59
2021-06-30 13:25:05.195312500,-45.0,14.25,44.0,66.994140625,-3.925,6.5307066562500005,33.59
2021-06-30 13:25:05.203125000,-45.0,14.5,44.0,66.99390625,-5.57,6.5305865625,33.59
2021-06-30 13:25:05.210937500,-45.0,14.75,44.0,66.993671875,-7.29,6.53046646875,33.59
2021-06-30 13:25:05.218750000,-45.0,15.0,44.0,66.9934375,-9.01,6.530346375000001,33.59
2021-06-30 13:25:05.226562500,-45.0,14.75,44.0,66.993203125,-10.59,6.53022628125,33.59
2021-06-30 13:25:05.234375000,-45.0,14.5,44.0,66.99296875,-12.17,6.5301061875,33.59
2021-06-30 13:25:05.242187500,-45.0,14.25,44.0,66.992734375,-13.504999999999999,6.52998609375,33.59
2021-06-30 13:25:05.250000000,-45.0,14.0,44.0,66.9925,-14.84,6.529866,33.59
2021-06-30 13:25:05.257812500,-45.0,14.0,44.0,66.992265625,-15.945,6.5297859375,33.59
2021-06-30 13:25:05.265625000,-45.0,14.0,44.0,66.99203125,-17.05,6.529705875,33.59
2021-06-30 13:25:05.273437500,-45.0,14.0,44.0,66.991796875,-18.09,6.5296258125,33.59
2021-06-30 13:25:05.281250000,-45.0,14.0,44.0,66.9915625,-19.13,6.5295457500000005,33.59
2021-06-30 13:25:05.289062500,-45.0,14.0,44.0,66.991328125,-20.31,6.5294656875,33.59
2021-06-30 13:25:05.296875000,-45.0,14.0,44.0,66.99109375,-21.49,6.529385625,33.59
2021-06-30 13:25:05.304687500,-45.0,14.0,44.0,66.990859375,-22.99,6.5293055625,33.59
2021-06-30 13:25:05.312500000,-45.0,14.0,44.0,66.990625,-24.49,6.5292255,33.59
2021-06-30 13:25:05.320312500,-45.0,14.0,44.25,66.990390625,-26.405,6.5291454375,33.59
2021-06-30 13:25:05.328125000,-45.0,14.0,44.5,66.99015625,-28.32,6.529065375,33.59
2021-06-30 13:25:05.335937500,-45.0,14.0,44.75,66.989921875,-30.64,6.5289853125,33.59
2021-06-30 13:25:05.343750000,-45.0,14.0,45.0,66.9896875,-32.96,6.52890525,33.59
2021-06-30 13:25:05.351562500,-45.0,14.25,45.0,66.989453125,-35.585,6.5288251875,33.59
2021-06-30 13:25:05.359375000,-45.0,14.5,45.0,66.98921875,-38.21,6.528745125,33.59
2021-06-30 13:25:05.367187500,-45.0,14.75,45.0,66.988984375,-40.94,6.5286650625,33.59
2021-06-30 13:25:05.375000000,-45.0,15.0,45.0,66.98875,-43.67,6.528585,33.59
2021-06-30 13:25:05.382812500,-45.0,14.75,44.75,66.988515625,-46.18,6.5285049375,33.59
2021-06-30 13:25:05.390625000,-45.0,14.5,44.5,66.98828125,-48.69,6.528424875,33.59
2021-06-30 13:25:05.398437500,-45.0,14.25,44.25,66.988046875,-50.57,6.5283448125,33.59
2021-06-30 13:25:05.406250000,-45.0,14.0,44.0,66.9878125,-52.45,6.52826475,33.59
2021-06-30 13:25:05.414062500,-45.0,14.25,44.25,66.987578125,-53.255,6.5281846875000005,33.59
2021-06-30 13:25:05.421875000,-45.0,14.5,44.5,66.98734375,-54.06,6.528104625,33.59
2021-06-30 13:25:05.429687500,-45.0,14.75,44.75,66.987109375,-53.46,6.5280245625,33.59
2021-06-30 13:25:05.437500000,-45.0,15.0,45.0,66.986875,-52.86,6.5279445,33.59
2021-06-30 13:25:05.445312500,-45.0,14.75,44.75,66.98664062499999,-50.765,6.5278644375,33.59
2021-06-30 13:25:05.453125000,-45.0,14.5,44.5,66.98640625,-48.67,6.527784375,33.59
2021-06-30 13:25:05.460937500,-45.0,14.25,44.25,66.986171875,-45.33,6.5277043125,33.59
2021-06-30 13:25:05.468750000,-45.0,14.0,44.0,66.9859375,-41.99,6.52762425,33.59
2021-06-30 13:25:05.476562500,-45.0,14.25,44.0,66.985703125,-37.905,6.5275441875,33.59
2021-06-30 13:25:05.484375000,-45.0,14.5,44.0,66.98546875,-33.82,6.527464125,33.59
2021-06-30 13:25:05.492187500,-45.0,14.75,44.0,66.985234375,-29.57,6.5273840625,33.59
2021-06-30 13:25:05.500000000,-45.0,15.0,44.0,66.985,-25.32,6.527304,33.59
2021-06-30 13:25:05.507812500,-45.0,14.75,44.0,66.984765625,-21.355,6.52742409375,33.59
2021-06-30 13:25:05.515625000,-45.0,14.5,44.0,66.98453125,-17.39,6.5275441875,33.59
2021-06-30 13:25:05.523437500,-45.0,14.25,44.0,66.984296875,-13.9,6.52766428125,33.59
2021-06-30 13:25:05.531250000,-45.0,14.0,44.0,66.9840625,-10.41,6.5277843749999995,33.59
2021-06-30 13:25:05.539062500,-45.0,14.0,44.0,66.983828125,-7.33,6.52790446875,33.59
2021-06-30 13:25:05.546875000,-45.0,14.0,44.0,66.98359375,-4.25,6.5280245625,33.59
2021-06-30 13:25:05.554687500,-45.0,14.0,44.0,66.983359375,-1.4100000000000001,6.52814465625,33.59
2021-06-30 13:25:05.562500000,-45.0,14.0,44.0,66.983125,1.43,6.52826475,33.59
2021-06-30 13:25:05.570312500,-45.0,14.25,44.0,66.982890625,4.18,6.52838484375,33.59
2021-06-30 13:25:05.578125000,-45.0,14.5,44.0,66.98265625,6.93,6.5285049375,33.59
2021-06-30 13:25:05.585937500,-45.0,14.75,44.0,66.982421875,9.6,6.52862503125,33.59
2021-06-30 13:25:05.593750000,-45.0,15.0,44.0,66.9821875,12.27,6.528745125,33.59
2021-06-30 13:25:05.601562500,-45.0,14.75,44.0,66.981953125,14.77,6.52886521875,33.59
2021-06-30 13:25:05.609375000,-45.0,14.5,44.0,66.98171875,17.27,6.5289853125,33.59
2021-06-30 13:25:05.617187500,-45.0,14.25,44.0,66.981484375,19.475,6.52910540625,33.59
2021-06-30 13:25:05.625000000,-45.0,14.0,44.0,66.98125,21.68,6.5292255,33.59
2021-06-30 13:25:05.632812500,-45.0,14.0,44.0,66.981015625,23.5,6.52934559375,33.59
2021-06-30 13:25:05.640625000,-45.0,14.0,44.0,66.98078124999999,25.32,6.5294656875,33.59
2021-06-30 13:25:05.648437500,-45.0,14.0,44.0,66.980546875,26.735,6.52958578125,33.59
2021-06-30 13:25:05.656250000,-45.0,14.0,44.0,66.9803125,28.15,6.529705874999999,33.59
2021-06-30 13:25:05.664062500,-45.0,14.0,44.25,66.980078125,29.165,6.52982596875,33.59
2021-06-30 13:25:05.671875000,-45.0,14.0,44.5,66.97984375,30.18,6.5299460625,33.59
2021-06-30 13:25:05.679687500,-45.0,14.0,44.75,66.979609375,30.814999999999998,6.53006615625,33.59
2021-06-30 13:25:05.687500000,-45.0,14.0,45.0,66.979375,31.45,6.53018625,33.59
2021-06-30 13:25:05.695312500,-45.0,14.25,44.75,66.979140625,31.725,6.5303063437499995,33.59
2021-06-30 13:25:05.703125000,-45.0,14.5,44.5,66.97890625,32.0,6.5304264375,33.59
2021-06-30 13:25:05.710937500,-45.0,14.75,44.25,66.978671875,31.935000000000002,6.53054653125,33.59
2021-06-30 13:25:05.718750000,-45.0,15.0,44.0,66.9784375,31.87,6.530666625,33.59
2021-06-30 13:25:05.726562500,-45.0,14.75,44.0,66.978203125,31.555,6.53078671875,33.59
2021-06-30 13:25:05.734375000,-45.0,14.5,44.0,66.97796875,31.24,6.5309068125,33.59
2021-06-30 13:25:05.742187500,-45.0,14.25,44.0,66.977734375,30.78,6.53102690625,33.59
2021-06-30 13:25:05.750000000,-45.0,14.0,44.0,66.97749999999999,30.32,6.531147,33.59
2021-06-30 13:25:05.757812500,-45.0,14.0,44.0,66.977265625,29.865000000000002,6.530986875,33.59
2021-06-30 13:25:05.765625000,-45.0,14.0,44.0,66.97703125,29.41,6.53082675,33.59
2021-06-30 13:25:05.773437500,-45.0,14.0,44.0,66.976796875,29.055,6.530666625,33.59
2021-06-30 13:25:05.781250000,-45.0,14.0,44.0,66.9765625,28.7,6.5305064999999995,33.59
2021-06-30 13:25:05.789062500,-45.0,14.0,44.0,66.976328125,28.494999999999997,6.530346375,33.59
2021-06-30 13:25:05.796875000,-45.0,14.0,44.0,66.97609375,28.29,6.53018625,33.59
2021-06-30 13:25:05.804687500,-45.0,14.0,44.0,66.975859375,28.18,6.530026125,33.59
2021-06-30 13:25:05.812500000,-45.0,14.0,44.0,66.975625,28.07,6.529866,33.59
2021-06-30 13:25:05.820312500,-45.0,14.0,44.25,66.975390625,28.0,6.529705875,33.59
2021-06-30 13:25:05.828125000,-45.0,14.0,44.5,66.97515625,27.93,6.52954575,33.59
2021-06-30 13:25:05.835937500,-45.0,14.0,44.75,66.97492187499999,27.805,6.529385625,33.59
2021-06-30 13:25:05.843750000,-45.0,14.0,45.0,66.9746875,27.68,6.5292255,33.59
2021-06-30 13:25:05.851562500,-45.0,14.0,45.0,66.974453125,27.46,6.529065375,33.59
2021-06-30 13:25:05.859375000,-45.0,14.0,45.0,66.97421875,27.24,6.52890525,33.59
2021-06-30 13:25:05.867187500,-45.0,14.0,45.0,66.973984375,26.905,6.528745125,33.59
2021-06-30 13:25:05.875000000,-45.0,14.0,45.0,66.97375,26.57,6.528585,33.59
2021-06-30 13:25:05.882812500,-45.0,14.25,44.75,66.973515625,26.115000000000002,6.528424875,33.59
2021-06-30 13:25:05.890625000,-45.0,14.5,44.5,66.97328125,25.66,6.52826475,33.59
2021-06-30 13:25:05.898437500,-45.0,14.75,44.25,66.973046875,25.060000000000002,6.528104625,33.59
2021-06-30 13:25:05.906250000,-45.0,15.0,44.0,66.9728125,24.46,6.5279445,33.59
2021-06-30 13:25:05.914062500,-45.0,15.0,44.0,66.972578125,23.675,6.527784375,33.59
2021-06-30 13:25:05.921875000,-45.0,15.0,44.0,66.97234375,22.89,6.527624250000001,33.59
2021-06-30 13:25:05.929687500,-45.0,15.0,44.0,66.972109375,21.880000000000003,6.527464125,33.59
2021-06-30 13:25:05.937500000,-45.0,15.0,44.0,66.971875,20.87,6.527304,33.59
2021-06-30 13:25:05.945312500,-45.0,14.75,44.25,66.97164062499999,19.634999999999998,6.527143875,33.59
2021-06-30 13:25:05.953125000,-45.0,14.5,44.5,66.97140625,18.4,6.52698375,33.59
2021-06-30 13:25:05.960937500,-45.0,14.25,44.75,66.971171875,17.0,6.5268236250000005,33.59
2021-06-30 13:25:05.968750000,-45.0,14.0,45.0,66.9709375,15.6,6.526663500000001,33.59
2021-06-30 13:25:05.976562500,-45.0,14.0,44.75,66.970703125,14.17,6.526503375,33.59
2021-06-30 13:25:05.984375000,-45.0,14.0,44.5,66.97046875,12.74,6.52634325,33.59
2021-06-30 13:25:05.992187500,-45.0,14.0,44.25,66.970234375,11.425,6.526183125,33.59
2021-06-30 13:25:06.000000000,-45.0,14.0,44.0,66.97,10.11,6.526023,33.59
2021-06-30 13:25:06.007812500,-45.0,14.25,44.25,66.969296875,9.015,6.52598296875,33.59
2021-06-30 13:25:06.015625000,-45.0,14.5,44.5,66.96859375,7.92,6.5259429375,33.59
2021-06-30 13:25:06.023437500,-45.0,14.75,44.75,66.967890625,7.04,6.525902906250001,33.59
2021-06-30 13:25:06.031250000,-45.0,15.0,45.0,66.9671875,6.16,6.5258628750000005,33.59
2021-06-30 13:25:06.039062500,-45.0,14.75,45.0,66.966484375,5.390000000000001,6.52582284375,33.59
2021-06-30 13:25:06.046875000,-45.0,14.5,45.0,66.96578124999999,4.62,6.5257828125,33.59
2021-06-30 13:25:06.054687500,-45.0,14.25,45.0,66.965078125,3.785,6.52574278125,33.59
2021-06-30 13:25:06.062500000,-45.0,14.0,45.0,66.964375,2.95,6.525702750000001,33.59
2021-06-30 13:25:06.070312500,-45.0,14.0,44.75,66.963671875,1.9200000000000002,6.5256627187500005,33.59
2021-06-30 13:25:06.078125000,-45.0,14.0,44.5,66.96296875,0.89,6.5256226875,33.59
2021-06-30 13:25:06.085937500,-45.0,14.0,44.25,66.962265625,-0.3749999999999999,6.52558265625,33.59
2021-06-30 13:25:06.093750000,-45.0,14.0,44.0,66.9615625,-1.64,6.525542625,33.59
2021-06-30 13:25:06.101562500,-45.0,14.0,44.25,66.960859375,-3.085,6.52550259375,33.59
2021-06-30 13:25:06.109375000,-45.0,14.0,44.5,66.96015625,-4.53,6.5254625625000005,33.59
2021-06-30 13:25:06.117187500,-45.0,14.0,44.75,66.959453125,-6.03,6.52542253125,33.59
2021-06-30 13:25:06.125000000,-45.0,14.0,45.0,66.95875,-7.53,6.5253825,33.59
2021-06-30 13:25:06.132812500,-45.0,14.25,45.0,66.958046875,-8.95,6.52534246875,33.59
2021-06-30 13:25:06.140625000,-45.0,14.5,45.0,66.95734374999999,-10.37,6.5253024375,33.59
2021-06-30 13:25:06.148437500,-45.0,14.75,45.0,66.95664062499999,-11.61,6.52526240625,33.59
2021-06-30 13:25:06.156250000,-45.0,15.0,45.0,66.9559375,-12.85,6.525222375,33.59
2021-06-30 13:25:06.164062500,-45.0,14.75,44.75,66.955234375,-13.899999999999999,6.52518234375,33.59
2021-06-30 13:25:06.171875000,-45.0,14.5,44.5,66.95453125,-14.95,6.5251423125,33.59
2021-06-30 13:25:06.179687500,-45.0,14.25,44.25,66.953828125,-15.86,6.52510228125,33.59
2021-06-30 13:25:06.187500000,-45.0,14.0,44.0,66.953125,-16.77,6.5250622499999995,33.59
2021-06-30 13:25:06.195312500,-45.0,14.0,44.0,66.952421875,-17.634999999999998,6.52502221875,33.59
2021-06-30 13:25:06.203125000,-45.0,14.0,44.0,66.95171875,-18.5,6.5249821875,33.59
2021-06-30 13:25:06.210937500,-45.0,14.0,44.0,66.951015625,-19.439999999999998,6.52494215625,33.59
2021-06-30 13:25:06.218750000,-45.0,14.0,44.0,66.9503125,-20.38,6.524902125,33.59
2021-06-30 13:25:06.226562500,-45.0,14.25,44.0,66.949609375,-21.535,6.5248620937499995,33.59
2021-06-30 13:25:06.234375000,-45.0,14.5,44.0,66.94890625,-22.69,6.5248220625,33.59
2021-06-30 13:25:06.242187500,-45.0,14.75,44.0,66.94820312499999,-24.195,6.52478203125,33.59
2021-06-30 13:25:06.250000000,-45.0,15.0,44.0,66.94749999999999,-25.7,6.524742,33.59
2021-06-30 13:25:06.257812500,-45.0,14.75,44.25,66.946796875,-27.64,6.5248220625,33.59
2021-06-30 13:25:06.265625000,-45.0,14.5,44.5,66.94609375,-29.58,6.524902125,33.59
2021-06-30 13:25:06.273437500,-45.0,14.25,44.75,66.945390625,-31.925,6.5249821875,33.59
2021-06-30 13:25:06.281250000,-45.0,14.0,45.0,66.9446875,-34.27,6.5250622499999995,33.59
2021-06-30 13:25:06.289062500,-45.0,14.0,45.0,66.943984375,-36.825,6.5251423125,33.59
2021-06-30 13:25:06.296875000,-45.0,14.0,45.0,66.94328125,-39.38,6.525222375,33.59
2021-06-30 13:25:06.304687500,-45.0,14.0,45.0,66.942578125,-41.760000000000005,6.5253024375,33.59
2021-06-30 13:25:06.312500000,-45.0,14.0,45.0,66.941875,-44.14,6.5253825,33.59
2021-06-30 13:25:06.320312500,-45.0,14.0,44.75,66.941171875,-45.83,6.5254625625,33.59
2021-06-30 13:25:06.328125000,-45.0,14.0,44.5,66.94046875,-47.52,6.525542625,33.59
2021-06-30 13:25:06.335937500,-45.0,14.0,44.25,66.93976562499999,-48.035,6.5256226875,33.59
2021-06-30 13:25:06.343750000,-45.0,14.0,44.0,66.93906249999999,-48.55,6.52570275,33.59
2021-06-30 13:25:06.351562500,-45.0,14.0,44.0,66.938359375,-47.59,6.5257828125,33.59
2021-06-30 13:25:06.359375000,-45.0,14.0,44.0,66.93765625,-46.63,6.525862875,33.59
2021-06-30 13:25:06.367187500,-45.0,14.0,44.0,66.936953125,-44.2,6.5259429375,33.59
2021-06-30 13:25:06.375000000,-45.0,14.0,44.0,66.93625,-41.77,6.526023,33.59
2021-06-30 13:25:06.382812500,-45.0,14.0,44.25,66.935546875,-38.21,6.5261030625,33.59
2021-06-30 13:25:06.390625000,-45.0,14.0,44.5,66.93484375,-34.65,6.526183125,33.59
2021-06-30 13:25:06.398437500,-45.0,14.0,44.75,66.934140625,-30.535,6.5262631875,33.59
2021-06-30 13:25:06.406250000,-45.0,14.0,45.0,66.9334375,-26.42,6.52634325,33.59
2021-06-30 13:25:06.414062500,-45.0,14.0,44.75,66.932734375,-22.345,6.5264233124999995,33.59
2021-06-30 13:25:06.421875000,-45.0,14.0,44.5,66.93203125,-18.27,6.526503375,33.59
2021-06-30 13:25:06.429687500,-45.0,14.0,44.25,66.931328125,-14.675,6.5265834375,33.59
2021-06-30 13:25:06.437500000,-45.0,14.0,44.0,66.93062499999999,-11.08,6.5266635,33.59
2021-06-30 13:25:06.445312500,-45.0,14.0,44.25,66.92992187499999,-8.129999999999999,6.5267435625,33.59
2021-06-30 13:25:06.453125000,-45.0,14.0,44.5,66.92921875,-5.18,6.526823625,33.59
2021-06-30 13:25:06.460937500,-45.0,14.0,44.75,66.928515625,-2.7849999999999997,6.5269036875,33.59
2021-06-30 13:25:06.468750000,-45.0,14.0,45.0,66.9278125,-0.39,6.52698375,33.59
2021-06-30 13:25:06.476562500,-45.0,14.0,45.0,66.927109375,1.665,6.5270638125,33.59
2021-06-30 13:25:06.484375000,-45.0,14.0,45.0,66.92640625,3.72,6.527143875,33.59
2021-06-30 13:25:06.492187500,-45.0,14.0,45.0,66.925703125,5.64,6.5272239375,33.59
2021-06-30 13:25:06.500000000,-45.0,14.0,45.0,66.925,7.56,6.527304,33.59
2021-06-30 13:25:06.507812500,-45.0,14.0,44.75,66.924296875,9.42,6.52726396875,33.59
2021-06-30 13:25:06.515625000,-45.0,14.0,44.5,66.92359375,11.28,6.5272239375,33.59
2021-06-30 13:25:06.523437500,-45.0,14.0,44.25,66.922890625,13.0,6.52718390625,33.59
2021-06-30 13:25:06.531250000,-45.0,14.0,44.0,66.92218749999999,14.72,6.527143875,33.59
2021-06-30 13:25:06.539062500,-45.0,14.0,44.25,66.92148437499999,16.16,6.52710384375,33.59
2021-06-30 13:25:06.546875000,-45.0,14.0,44.5,66.92078124999999,17.6,6.5270638125,33.59
2021-06-30 13:25:06.554687500,-45.0,14.0,44.75,66.920078125,18.645000000000003,6.5270237812500005,33.59
2021-06-30 13:25:06.562500000,-45.0,14.0,45.0,66.919375,19.69,6.52698375,33.59
2021-06-30 13:25:06.570312500,-45.0,14.25,44.75,66.918671875,20.32,6.52694371875,33.59
2021-06-30 13:25:06.578125000,-45.0,14.5,44.5,66.91796875,20.95,6.5269036875,33.59
2021-06-30 13:25:06.585937500,-45.0,14.75,44.25,66.917265625,21.265,6.52686365625,33.59
2021-06-30 13:25:06.593750000,-45.0,15.0,44.0,66.9165625,21.58,6.5268236250000005,33.59
2021-06-30 13:25:06.601562500,-45.0,14.75,44.0,66.915859375,21.74,6.52678359375,33.59
2021-06-30 13:25:06.609375000,-45.0,14.5,44.0,66.91515625,21.9,6.5267435625,33.59
2021-06-30 13:25:06.617187500,-45.0,14.25,44.0,66.914453125,22.04,6.52670353125,33.59
2021-06-30 13:25:06.625000000,-45.0,14.0,44.0,66.91375,22.18,6.5266635,33.59
2021-06-30 13:25:06.632812500,-45.0,14.25,44.0,66.91304687499999,22.355,6.52662346875,33.59
2021-06-30 13:25:06.640625000,-45.0,14.5,44.0,66.91234374999999,22.53,6.5265834375,33.59
2021-06-30 13:25:06.648437500,-45.0,14.75,44.0,66.91164062499999,22.69,6.52654340625,33.59
2021-06-30 13:25:06.656250000,-45.0,15.0,44.0,66.9109375,22.85,6.526503375,33.59
2021-06-30 13:25:06.664062500,-45.0,14.75,44.25,66.910234375,22.89,6.526463343750001,33.59
2021-06-30 13:25:06.671875000,-45.0,14.5,44.5,66.90953125,22.93,6.5264233125,33.59
2021-06-30 13:25:06.679687500,-45.0,14.25,44.75,66.908828125,22.78,6.52638328125,33.59
2021-06-30 13:25:06.687500000,-45.0,14.0,45.0,66.908125,22.63,6.52634325,33.59
2021-06-30 13:25:06.695312500,-45.0,14.0,45.0,66.907421875,22.305,6.52630321875,33.59
2021-06-30 13:25:06.703125000,-45.0,14.0,45.0,66.90671875,21.98,6.526263187500001,33.59
2021-06-30 13:25:06.710937500,-45.0,14.0,45.0,66.906015625,21.605,6.52622315625,33.59
2021-06-30 13:25:06.718750000,-45.0,14.0,45.0,66.9053125,21.23,6.526183125,33.59
2021-06-30 13:25:06.726562500,-45.0,14.25,44.75,66.90460937499999,20.965,6.52614309375,33.59
2021-06-30 13:25:06.734375000,-45.0,14.5,44.5,66.90390624999999,20.7,6.526103062500001,33.59
2021-06-30 13:25:06.742187500,-45.0,14.75,44.25,66.90320312499999,20.655,6.5260630312500005,33.59
2021-06-30 13:25:06.750000000,-45.0,15.0,44.0,66.9025,20.61,6.526023,33.59
2021-06-30 13:25:06.757812500,-45.0,14.75,44.25,66.901796875,20.740000000000002,6.52598296875,33.59
2021-06-30 13:25:06.765625000,-45.0,14.5,44.5,66.90109375,20.87,6.5259429375,33.59
2021-06-30 13:25:06.773437500,-45.0,14.25,44.75,66.900390625,20.990000000000002,6.525902906250001,33.59
2021-06-30 13:25:06.781250000,-45.0,14.0,45.0,66.8996875,21.11,6.5258628750000005,33.59
2021-06-30 13:25:06.789062500,-45.0,14.0,44.75,66.898984375,20.965,6.52582284375,33.59
2021-06-30 13:25:06.796875000,-45.0,14.0,44.5,66.89828125,20.82,6.5257828125,33.59
2021-06-30 13:25:06.804687500,-45.0,14.0,44.25,66.897578125,20.22,6.52574278125,33.59
2021-06-30 13:25:06.812500000,-45.0,14.0,44.0,66.896875,19.62,6.525702750000001,33.59
2021-06-30 13:25:06.820312500,-45.0,14.0,44.0,66.896171875,18.53,6.5256627187500005,33.59
2021-06-30 13:25:06.828125000,-45.0,14.0,44.0,66.89546874999999,17.44,6.5256226875,33.59
2021-06-30 13:25:06.835937500,-45.0,14.0,44.0,66.89476562499999,16.02,6.52558265625,33.59
2021-06-30 13:25:06.843750000,-45.0,14.0,44.0,66.89406249999999,14.6,6.525542625,33.59
2021-06-30 13:25:06.851562500,-45.0,14.0,44.25,66.893359375,13.11,6.52550259375,33.59
2021-06-30 13:25:06.859375000,-45.0,14.0,44.5,66.89265625,11.62,6.5254625625000005,33.59
2021-06-30 13:25:06.867187500,-45.0,14.0,44.75,66.891953125,10.335,6.52542253125,33.59
2021-06-30 13:25:06.875000000,-45.0,14.0,45.0,66.89125,9.05,6.5253825,33.59
2021-06-30 13:25:06.882812500,-45.0,14.25,45.0,66.890546875,8.095,6.52534246875,33.59
2021-06-30 13:25:06.890625000,-45.0,14.5,45.0,66.88984375,7.14,6.5253024375,33.59
2021-06-30 13:25:06.898437500,-45.0,14.75,45.0,66.889140625,6.48,6.52526240625,33.59
2021-06-30 13:25:06.906250000,-45.0,15.0,45.0,66.8884375,5.82,6.525222375,33.59
2021-06-30 13:25:06.914062500,-45.0,14.75,44.75,66.887734375,5.275,6.52518234375,33.59
2021-06-30 13:25:06.921875000,-45.0,14.5,44.5,66.88703124999999,4.73,6.5251423125,33.59
2021-06-30 13:25:06.929687500,-45.0,14.25,44.25,66.88632812499999,4.050000000000001,6.52510228125,33.59
2021-06-30 13:25:06.937500000,-45.0,14.0,44.0,66.88562499999999,3.37,6.5250622499999995,33.59
2021-06-30 13:25:06.945312500,-45.0,14.25,44.0,66.88492187499999,2.39,6.52502221875,33.59
2021-06-30 13:25:06.953125000,-45.0,14.5,44.0,66.88421875,1.41,6.5249821875,33.59
2021-06-30 13:25:06.960937500,-45.0,14.75,44.0,66.883515625,0.08499999999999996,6.52494215625,33.59
2021-06-30 13:25:06.968750000,-45.0,15.0,44.0,66.8828125,-1.24,6.524902125,33.59
2021-06-30 13:25:06.976562500,-45.0,15.0,44.25,66.882109375,-2.8099999999999996,6.5248620937499995,33.59
2021-06-30 13:25:06.984375000,-45.0,15.0,44.5,66.88140625,-4.38,6.5248220625,33.59
2021-06-30 13:25:06.992187500,-45.0,15.0,44.75,66.880703125,-6.0,6.52478203125,33.59
2021-06-30 13:25:07.000000000,-45.0,15.0,45.0,66.88,-7.62,6.524742,33.59
2021-06-30 13:25:07.007812500,-45.0,14.75,44.75,66.87921874999999,-9.085,6.5244618125,33.590625
2021-06-30 13:25:07.015625000,-45.0,14.5,44.5,66.87843749999999,-10.55,6.524181625,33.59125
2021-06-30 13:25:07.023437500,-45.0,14.25,44.25,66.87765625,-11.725000000000001,6.5239014375,33.591875
2021-06-30 13:25:07.031250000,-45.0,14.0,44.0,66.876875,-12.9,6.52362125,33.5925
2021-06-30 13:25:07.039062500,-45.0,14.25,44.0,66.87609375,-13.780000000000001,6.5233410625,33.593125
2021-06-30 13:25:07.046875000,-45.0,14.5,44.0,66.87531249999999,-14.66,6.523060875,33.59375
2021-06-30 13:25:07.054687500,-45.0,14.75,44.0,66.87453124999999,-15.355,6.5227806875,33.594375
2021-06-30 13:25:07.062500000,-45.0,15.0,44.0,66.87375,-16.05,6.5225005,33.595
2021-06-30 13:25:07.070312500,-45.0,14.75,44.0,66.87296875,-16.77,6.5222203125,33.595625000000005
2021-06-30 13:25:07.078125000,-45.0,14.5,44.0,66.8721875,-17.49,6.5219401249999995,33.596250000000005
2021-06-30 13:25:07.085937500,-45.0,14.25,44.0,66.87140624999999,-18.445,6.5216599375,33.596875000000004
2021-06-30 13:25:07.093750000,-45.0,14.0,44.0,66.87062499999999,-19.4,6.5213797499999995,33.597500000000004
2021-06-30 13:25:07.101562500,-45.0,14.0,44.25,66.86984375,-20.755,6.5210995625,33.598125
2021-06-30 13:25:07.109375000,-45.0,14.0,44.5,66.8690625,-22.11,6.520819374999999,33.59875
2021-06-30 13:25:07.117187500,-45.0,14.0,44.75,66.86828125,-23.9,6.5205391875,33.599375
2021-06-30 13:25:07.125000000,-45.0,14.0,45.0,66.86749999999999,-25.69,6.520258999999999,33.6
2021-06-30 13:25:07.132812500,-45.0,14.0,45.0,66.86671874999999,-27.810000000000002,6.5199788125,33.600625
2021-06-30 13:25:07.140625000,-45.0,14.0,45.0,66.8659375,-29.93,6.519698625,33.60125
2021-06-30 13:25:07.148437500,-45.0,14.0,45.0,66.86515625,-32.095,6.5194184375,33.601875
2021-06-30 13:25:07.156250000,-45.0,14.0,45.0,66.864375,-34.26,6.51913825,33.6025
2021-06-30 13:25:07.164062500,-45.0,14.25,45.0,66.86359374999999,-36.06,6.5188580625,33.603125
2021-06-30 13:25:07.171875000,-45.0,14.5,45.0,66.86281249999999,-37.86,6.518577875,33.60375
2021-06-30 13:25:07.179687500,-45.0,14.75,45.0,66.86203125,-38.879999999999995,6.5182976875,33.604375
2021-06-30 13:25:07.187500000,-45.0,15.0,45.0,66.86125,-39.9,6.5180175,33.605000000000004
2021-06-30 13:25:07.195312500,-45.0,14.75,45.0,66.86046875,-39.785,6.5177373124999995,33.605625
2021-06-30 13:25:07.203125000,-45.0,14.5,45.0,66.85968749999999,-39.67,6.517457125,33.60625
2021-06-30 13:25:07.210937500,-45.0,14.25,45.0,66.85890624999999,-38.285,6.5171769374999995,33.606875
2021-06-30 13:25:07.218750000,-45.0,14.0,45.0,66.858125,-36.9,6.51689675,33.6075
2021-06-30 13:25:07.226562500,-45.0,14.0,44.75,66.85734375,-34.379999999999995,6.516616562499999,33.608125
2021-06-30 13:25:07.234375000,-45.0,14.0,44.5,66.8565625,-31.86,6.516336375,33.60875
2021-06-30 13:25:07.242187500,-45.0,14.0,44.25,66.85578124999999,-28.564999999999998,6.516056187499999,33.609375
2021-06-30 13:25:07.250000000,-45.0,14.0,44.0,66.85499999999999,-25.27,6.515776,33.61
2021-06-30 13:25:07.257812500,-45.0,14.0,44.0,66.85421875,-21.674999999999997,6.5158960937499995,33.61
2021-06-30 13:25:07.265625000,-45.0,14.0,44.0,66.8534375,-18.08,6.5160161875,33.61
2021-06-30 13:25:07.273437500,-45.0,14.0,44.0,66.85265625,-14.634999999999998,6.51613628125,33.61
2021-06-30 13:25:07.281250000,-45.0,14.0,44.0,66.85187499999999,-11.19,6.516256374999999,33.61
2021-06-30 13:25:07.289062500,-45.0,14.0,44.0,66.85109375,-8.15,6.51637646875,33.61
2021-06-30 13:25:07.296875000,-45.0,14.0,44.0,66.8503125,-5.11,6.5164965624999995,33.61
2021-06-30 13:25:07.304687500,-45.0,14.0,44.0,66.84953125,-2.5100000000000002,6.51661665625,33.61
2021-06-30 13:25:07.312500000,-45.0,14.0,44.0,66.84875,0.09,6.51673675,33.61
2021-06-30 13:25:07.320312500,-45.0,14.0,44.25,66.84796874999999,2.3449999999999998,6.516856843749999,33.61
2021-06-30 13:25:07.328125000,-45.0,14.0,44.5,66.8471875,4.6,6.5169769375,33.61
2021-06-30 13:25:07.335937500,-45.0,14.0,44.75,66.84640625,6.67,6.51709703125,33.61
2021-06-30 13:25:07.343750000,-45.0,14.0,45.0,66.845625,8.74,6.517217125,33.61
2021-06-30 13:25:07.351562500,-45.0,14.0,45.0,66.84484375,10.685,6.51733721875,33.61
2021-06-30 13:25:07.359375000,-45.0,14.0,45.0,66.84406249999999,12.63,6.5174573124999995,33.61
2021-06-30 13:25:07.367187500,-45.0,14.0,45.0,66.84328125,14.415,6.51757740625,33.61
2021-06-30 13:25:07.375000000,-45.0,14.0,45.0,66.8425,16.2,6.5176975,33.61
2021-06-30 13:25:07.382812500,-45.0,14.0,45.0,66.84171875,17.685000000000002,6.517817593749999,33.61
2021-06-30 13:25:07.390625000,-45.0,14.0,45.0,66.8409375,19.17,6.5179376875,33.61
2021-06-30 13:25:07.398437500,-45.0,14.0,45.0,66.84015624999999,20.240000000000002,6.51805778125,33.61
2021-06-30 13:25:07.406250000,-45.0,14.0,45.0,66.839375,21.31,6.518177874999999,33.61
2021-06-30 13:25:07.414062500,-45.0,14.0,45.0,66.83859375,21.924999999999997,6.51829796875,33.61
2021-06-30 13:25:07.421875000,-45.0,14.0,45.0,66.8378125,22.54,6.518418062499999,33.61
2021-06-30 13:25:07.429687500,-45.0,14.0,45.0,66.83703125,22.740000000000002,6.51853815625,33.61
2021-06-30 13:25:07.437500000,-45.0,14.0,45.0,66.83624999999999,22.94,6.51865825,33.61
2021-06-30 13:25:07.445312500,-45.0,14.25,44.75,66.83546875,22.855,6.518778343749999,33.61
2021-06-30 13:25:07.453125000,-45.0,14.5,44.5,66.8346875,22.77,6.5188984375,33.61
2021-06-30 13:25:07.460937500,-45.0,14.75,44.25,66.83390625,22.535,6.5190185312499995,33.61
2021-06-30 13:25:07.468750000,-45.0,15.0,44.0,66.833125,22.3,6.519138625,33.61
2021-06-30 13:25:07.476562500,-45.0,14.75,44.0,66.83234374999999,22.02,6.51925871875,33.61
2021-06-30 13:25:07.484375000,-45.0,14.5,44.0,66.8315625,21.74,6.519378812499999,33.61
2021-06-30 13:25:07.492187500,-45.0,14.25,44.0,66.83078125,21.494999999999997,6.51949890625,33.61
2021-06-30 13:25:07.500000000,-45.0,14.0,44.0,66.83,21.25,6.519619,33.61
2021-06-30 13:25:07.507812500,-45.0,14.0,44.25,66.82921875,21.08,6.519619,33.61
2021-06-30 13:25:07.515625000,-45.0,14.0,44.5,66.82843749999999,20.91,6.519619,33.61
2021-06-30 13:25:07.523437500,-45.0,14.0,44.75,66.82765625,20.83,6.519619,33.61
2021-06-30 13:25:07.531250000,-45.0,14.0,45.0,66.826875,20.75,6.519619,33.61
2021-06-30 13:25:07.539062500,-45.0,14.0,44.75,66.82609375,20.77,6.519619,33.61
2021-06-30 13:25:07.546875000,-45.0,14.0,44.5,66.8253125,20.79,6.519619,33.61
2021-06-30 13:25:07.554687500,-45.0,14.0,44.25,66.82453124999999,20.884999999999998,6.519619,33.61
2021-06-30 13:25:07.562500000,-45.0,14.0,44.0,66.82375,20.98,6.519619,33.61
2021-06-30 13:25:07.570312500,-45.0,14.0,44.25,66.82296875,21.09,6.519619,33.61
2021-06-30 13:25:07.578125000,-45.0,14.0,44.5,66.8221875,21.2,6.519619,33.61
2021-06-30 13:25:07.585937500,-45.0,14.0,44.75,66.82140625,21.265,6.519619,33.61
2021-06-30 13:25:07.593750000,-45.0,14.0,45.0,66.82062499999999,21.33,6.519619,33.61
2021-06-30 13:25:07.601562500,-45.0,14.0,44.75,66.81984375,21.29,6.519619,33.61
2021-06-30 13:25:07.609375000,-45.0,14.0,44.5,66.8190625,21.25,6.519619,33.61
2021-06-30 13:25:07.617187500,-45.0,14.0,44.25,66.81828125,21.060000000000002,6.519619,33.61
2021-06-30 13:25:07.625000000,-45.0,14.0,44.0,66.8175,20.87,6.519619,33.61
2021-06-30 13:25:07.632812500,-45.0,14.0,44.0,66.81671874999999,20.485,6.519619,33.61
2021-06-30 13:25:07.640625000,-45.0,14.0,44.0,66.8159375,20.1,6.519619,33.61
2021-06-30 13:25:07.648437500,-45.0,14.0,44.0,66.81515625,19.515,6.519619,33.61
2021-06-30 13:25:07.656250000,-45.0,14.0,44.0,66.814375,18.93,6.519619,33.61
2021-06-30 13:25:07.664062500,-45.0,14.0,44.0,66.81359375,18.145,6.519619,33.61
2021-06-30 13:25:07.671875000,-45.0,14.0,44.0,66.81281249999999,17.36,6.519619,33.61
2021-06-30 13:25:07.679687500,-45.0,14.0,44.0,66.81203125,16.405,6.519619,33.61
2021-06-30 13:25:07.687500000,-45.0,14.0,44.0,66.81125,15.45,6.519619,33.61
2021-06-30 13:25:07.695312500,-45.0,14.0,44.0,66.81046875,14.399999999999999,6.519619,33.61
2021-06-30 13:25:07.703125000,-45.0,14.0,44.0,66.8096875,13.35,6.519619,33.61
2021-06-30 13:25:07.710937500,-45.0,14.0,44.0,66.80890624999999,12.274999999999999,6.519619,33.61
2021-06-30 13:25:07.718750000,-45.0,14.0,44.0,66.808125,11.2,6.519619,33.61
2021-06-30 13:25:07.726562500,-45.0,14.0,44.0,66.80734375,10.184999999999999,6.519619,33.61
2021-06-30 13:25:07.734375000,-45.0,14.0,44.0,66.8065625,9.17,6.519619,33.61
2021-06-30 13:25:07.742187500,-45.0,14.0,44.0,66.80578125,8.25,6.519619,33.61
2021-06-30 13:25:07.750000000,-45.0,14.0,44.0,66.805,7.33,6.519619,33.61
2021-06-30 13:25:07.757812500,-45.0,14.0,44.0,66.80421875,6.515000000000001,6.519458875,33.61
2021-06-30 13:25:07.765625000,-45.0,14.0,44.0,66.8034375,5.7,6.51929875,33.61
2021-06-30 13:25:07.773437500,-45.0,14.0,44.0,66.80265625,4.955,6.519138625,33.61
2021-06-30 13:25:07.781250000,-45.0,14.0,44.0,66.801875,4.21,6.518978499999999,33.61
2021-06-30 13:25:07.789062500,-45.0,14.0,44.25,66.80109375,3.485,6.5188183749999995,33.61
2021-06-30 13:25:07.796875000,-45.0,14.0,44.5,66.8003125,2.76,6.51865825,33.61
2021-06-30 13:25:07.804687500,-45.0,14.0,44.75,66.79953125,2.025,6.518498125,33.61
2021-06-30 13:25:07.812500000,-45.0,14.0,45.0,66.79875,1.29,6.518338,33.61
2021-06-30 13:25:07.820312500,-45.0,14.0,44.75,66.79796875,0.5,6.518177875,33.61
2021-06-30 13:25:07.828125000,-45.0,14.0,44.5,66.7971875,-0.29,6.518017749999999,33.61
2021-06-30 13:25:07.835937500,-45.0,14.0,44.25,66.79640625,-1.155,6.5178576249999995,33.61
2021-06-30 13:25:07.843750000,-45.0,14.0,44.0,66.795625,-2.02,6.5176975,33.61
2021-06-30 13:25:07.851562500,-45.0,14.0,44.0,66.79484375,-2.975,6.517537375,33.61
2021-06-30 13:25:07.859375000,-45.0,14.0,44.0,66.7940625,-3.93,6.51737725,33.61
2021-06-30 13:25:07.867187500,-45.0,14.0,44.0,66.79328125,-4.98,6.517217125,33.61
2021-06-30 13:25:07.875000000,-45.0,14.0,44.0,66.7925,-6.03,6.517056999999999,33.61
2021-06-30 13:25:07.882812500,-45.0,14.0,44.0,66.79171875,-7.175000000000001,6.516896875,33.61
2021-06-30 13:25:07.890625000,-45.0,14.0,44.0,66.7909375,-8.32,6.51673675,33.61
2021-06-30 13:25:07.898437500,-45.0,14.0,44.0,66.79015625,-9.525,6.516576625,33.61
2021-06-30 13:25:07.906250000,-45.0,14.0,44.0,66.789375,-10.73,6.5164165,33.61
2021-06-30 13:25:07.914062500,-45.0,14.0,44.0,66.78859375,-11.965,6.516256375,33.61
2021-06-30 13:25:07.921875000,-45.0,14.0,44.0,66.7878125,-13.2,6.51609625,33.61
2021-06-30 13:25:07.929687500,-45.0,14.0,44.0,66.78703125,-14.434999999999999,6.515936125,33.61
2021-06-30 13:25:07.937500000,-45.0,14.0,44.0,66.78625,-15.67,6.515776,33.61
2021-06-30 13:25:07.945312500,-45.0,14.0,44.0,66.78546875,-16.865,6.515615875,33.61
2021-06-30 13:25:07.953125000,-45.0,14.0,44.0,66.7846875,-18.06,6.51545575,33.61
2021-06-30 13:25:07.960937500,-45.0,14.0,44.0,66.78390625,-19.225,6.515295625,33.61
2021-06-30 13:25:07.968750000,-45.0,14.0,44.0,66.783125,-20.39,6.5151355,33.61
2021-06-30 13:25:07.976562500,-45.0,14.0,44.0,66.78234375,-21.545,6.514975375,33.61
2021-06-30 13:25:07.984375000,-45.0,14.0,44.0,66.7815625,-22.7,6.51481525,33.61
2021-06-30 13:25:07.992187500,-45.0,14.0,44.0,66.78078125,-23.905,6.514655125,33.61
2021-06-30 13:25:08.000000000,-45.0,14.0,44.0,66.78,-25.11,6.514495,33.61
2021-06-30 13:25:08.007812500,-45.0,14.0,44.25,66.77921875,-26.455,6.514495,33.609375
2021-06-30 13:25:08.015625000,-45.0,14.0,44.5,66.7784375,-27.8,6.514495,33.60875
2021-06-30 13:25:08.023437500,-45.0,14.0,44.75,66.77765625,-29.36,6.514495,33.608125
2021-06-30 13:25:08.031250000,-45.0,14.0,45.0,66.776875,-30.92,6.514495,33.6075
2021-06-30 13:25:08.039062500,-45.0,14.0,44.75,66.77609375,-32.75,6.514495,33.606875
2021-06-30 13:25:08.046875000,-45.0,14.0,44.5,66.7753125,-34.58,6.514495,33.60625
2021-06-30 13:25:08.054687500,-45.0,14.0,44.25,66.77453125,-36.625,6.514495,33.605625
2021-06-30 13:25:08.062500000,-45.0,14.0,44.0,66.77375,-38.67,6.514495,33.605000000000004
2021-06-30 13:25:08.070312500,-45.0,14.0,44.0,66.77296875,-40.745000000000005,6.514495,33.604375
2021-06-30 13:25:08.078125000,-45.0,14.0,44.0,66.7721875,-42.82,6.514495,33.60375
2021-06-30 13:25:08.085937500,-45.0,14.0,44.0,66.77140625,-44.55,6.514495,33.603125
2021-06-30 13:25:08.093750000,-45.0,14.0,44.0,66.770625,-46.28,6.514495,33.6025
2021-06-30 13:25:08.101562500,-45.0,14.0,44.25,66.76984375,-47.230000000000004,6.514495,33.601875
2021-06-30 13:25:08.109375000,-45.0,14.0,44.5,66.7690625,-48.18,6.514495,33.60125
2021-06-30 13:25:08.117187500,-45.0,14.0,44.75,66.76828125,-47.955,6.514495,33.600625
2021-06-30 13:25:08.125000000,-45.0,14.0,45.0,66.7675,-47.73,6.514495,33.6
2021-06-30 13:25:08.132812500,-45.0,14.0,45.0,66.76671875,-46.15,6.514495,33.599375
2021-06-30 13:25:08.140625000,-45.0,14.0,45.0,66.7659375,-44.57,6.514495,33.59875
2021-06-30 13:25:08.148437500,-45.0,14.0,45.0,66.76515625,-41.769999999999996,6.514495,33.598125
2021-06-30 13:25:08.156250000,-45.0,14.0,45.0,66.764375,-38.97,6.514495,33.597500000000004
2021-06-30 13:25:08.164062500,-45.0,14.0,44.75,66.76359375,-35.385,6.514495,33.596875000000004
2021-06-30 13:25:08.171875000,-45.0,14.0,44.5,66.7628125,-31.8,6.514495,33.596250000000005
2021-06-30 13:25:08.179687500,-45.0,14.0,44.25,66.76203125,-27.995,6.514495,33.595625000000005
2021-06-30 13:25:08.187500000,-45.0,14.0,44.0,66.76125,-24.19,6.514495,33.595
2021-06-30 13:25:08.195312500,-45.0,14.0,44.25,66.76046875,-20.665,6.514495,33.594375
2021-06-30 13:25:08.203125000,-45.0,14.0,44.5,66.7596875,-17.14,6.514495,33.59375
2021-06-30 13:25:08.210937500,-45.0,14.0,44.75,66.75890625,-14.155000000000001,6.514495,33.593125
2021-06-30 13:25:08.218750000,-45.0,14.0,45.0,66.758125,-11.17,6.514495,33.5925
2021-06-30 13:25:08.226562500,-45.0,14.0,45.0,66.75734375,-8.695,6.514495,33.591875
2021-06-30 13:25:08.234375000,-45.0,14.0,45.0,66.7565625,-6.22,6.514495,33.59125
2021-06-30 13:25:08.242187500,-45.0,14.0,45.0,66.75578125,-4.035,6.514495,33.590625
2021-06-30 13:25:08.250000000,-45.0,14.0,45.0,66.755,-1.85,6.514495,33.59
2021-06-30 13:25:08.257812500,-45.0,14.0,45.0,66.75421875,0.2799999999999998,6.5144149375,33.59
2021-06-30 13:25:08.265625000,-45.0,14.0,45.0,66.7534375,2.41,6.514334875,33.59
2021-06-30 13:25:08.273437500,-45.0,14.0,45.0,66.75265625,4.625,6.5142548125,33.59
2021-06-30 13:25:08.281250000,-45.0,14.0,45.0,66.751875,6.84,6.5141747500000005,33.59
2021-06-30 13:25:08.289062500,-45.0,14.0,45.0,66.75109375000001,9.094999999999999,6.5140946875,33.59
2021-06-30 13:25:08.296875000,-45.0,14.0,45.0,66.7503125,11.35,6.514014625,33.59
2021-06-30 13:25:08.304687500,-45.0,14.0,45.0,66.74953125,13.475,6.5139345625,33.59
2021-06-30 13:25:08.312500000,-45.0,14.0,45.0,66.74875,15.6,6.5138545,33.59
2021-06-30 13:25:08.320312500,-45.0,14.25,45.0,66.74796875,17.41,6.5137744375,33.59
2021-06-30 13:25:08.328125000,-45.0,14.5,45.0,66.74718750000001,19.22,6.513694375,33.59
2021-06-30 13:25:08.335937500,-45.0,14.75,45.0,66.74640625,20.555,6.5136143125,33.59
2021-06-30 13:25:08.343750000,-45.0,15.0,45.0,66.745625,21.89,6.51353425,33.59
2021-06-30 13:25:08.351562500,-45.0,14.75,44.75,66.74484375,22.705,6.5134541875,33.59
2021-06-30 13:25:08.359375000,-45.0,14.5,44.5,66.7440625,23.52,6.513374125,33.59
2021-06-30 13:25:08.367187500,-45.0,14.25,44.25,66.74328125000001,23.83,6.5132940625,33.59
2021-06-30 13:25:08.375000000,-45.0,14.0,44.0,66.7425,24.14,6.513214,33.59
2021-06-30 13:25:08.382812500,-45.0,14.0,44.25,66.74171875,24.05,6.5131339375,33.59
2021-06-30 13:25:08.390625000,-45.0,14.0,44.5,66.7409375,23.96,6.513053875,33.59
2021-06-30 13:25:08.398437500,-45.0,14.0,44.75,66.74015625,23.605,6.5129738125,33.59
2021-06-30 13:25:08.406250000,-45.0,14.0,45.0,66.73937500000001,23.25,6.51289375,33.59
2021-06-30 13:25:08.414062500,-45.0,14.25,44.75,66.73859375,22.79,6.5128136875000004,33.59
2021-06-30 13:25:08.421875000,-45.0,14.5,44.5,66.7378125,22.33,6.512733625,33.59
2021-06-30 13:25:08.429687500,-45.0,14.75,44.25,66.73703125,21.915,6.5126535625,33.59
2021-06-30 13:25:08.437500000,-45.0,15.0,44.0,66.73625,21.5,6.5125735,33.59
2021-06-30 13:25:08.445312500,-45.0,14.75,44.0,66.73546875000001,21.23,6.5124934375,33.59
2021-06-30 13:25:08.453125000,-45.0,14.5,44.0,66.7346875,20.96,6.512413375,33.59
2021-06-30 13:25:08.460937500,-45.0,14.25,44.0,66.73390625,20.875,6.5123333125,33.59
2021-06-30 13:25:08.468750000,-45.0,14.0,44.0,66.733125,20.79,6.51225325,33.59
2021-06-30 13:25:08.476562500,-45.0,14.0,44.0,66.73234375,20.85,6.5121731875,33.59
2021-06-30 13:25:08.484375000,-45.0,14.0,44.0,66.73156250000001,20.91,6.512093125,33.59
2021-06-30 13:25:08.492187500,-45.0,14.0,44.0,66.73078125,21.055,6.5120130625,33.59
2021-06-30 13:25:08.500000000,-45.0,14.0,44.0,66.73,21.2,6.511933,33.59
2021-06-30 13:25:08.507812500,-45.0,14.0,44.0,66.72921875,21.335,6.5120130625,33.59
2021-06-30 13:25:08.515625000,-45.0,14.0,44.0,66.7284375,21.47,6.512093125,33.59
2021-06-30 13:25:08.523437500,-45.0,14.0,44.0,66.72765625000001,21.5,6.5121731875,33.59
2021-06-30 13:25:08.531250000,-45.0,14.0,44.0,66.726875,21.53,6.51225325,33.59
2021-06-30 13:25:08.539062500,-45.0,14.0,44.25,66.72609375,21.395000000000003,6.5123333125,33.59
2021-06-30 13:25:08.546875000,-45.0,14.0,44.5,66.7253125,21.26,6.512413375,33.59
2021-06-30 13:25:08.554687500,-45.0,14.0,44.75,66.72453125,20.915,6.5124934375,33.59
2021-06-30 13:25:08.562500000,-45.0,14.0,45.0,66.72375000000001,20.57,6.5125735,33.59
2021-06-30 13:25:08.570312500,-45.0,14.0,45.0,66.72296875,20.009999999999998,6.5126535625,33.59
2021-06-30 13:25:08.578125000,-45.0,14.0,45.0,66.7221875,19.45,6.512733625,33.59
2021-06-30 13:25:08.585937500,-45.0,14.0,45.0,66.72140625,18.689999999999998,6.5128136875000004,33.59
2021-06-30 13:25:08.593750000,-45.0,14.0,45.0,66.720625,17.93,6.51289375,33.59
2021-06-30 13:25:08.601562500,-45.0,14.0,45.0,66.71984375000001,17.045,6.5129738125,33.59
2021-06-30 13:25:08.609375000,-45.0,14.0,45.0,66.7190625,16.16,6.513053875,33.59
2021-06-30 13:25:08.617187500,-45.0,14.0,45.0,66.71828125,15.215,6.5131339375,33.59
2021-06-30 13:25:08.625000000,-45.0,14.0,45.0,66.7175,14.27,6.513214,33.59
2021-06-30 13:25:08.632812500,-45.0,14.0,44.75,66.71671875,13.34,6.5132940625,33.59
2021-06-30 13:25:08.640625000,-45.0,14.0,44.5,66.71593750000001,12.41,6.513374125,33.59
2021-06-30 13:25:08.648437500,-45.0,14.0,44.25,66.71515625,11.52,6.5134541875,33.59
2021-06-30 13:25:08.656250000,-45.0,14.0,44.0,66.714375,10.63,6.51353425,33.59
2021-06-30 13:25:08.664062500,-45.0,14.0,44.25,66.71359375,9.765,6.5136143125,33.59
2021-06-30 13:25:08.671875000,-45.0,14.0,44.5,66.7128125,8.9,6.513694375,33.59
2021-06-30 13:25:08.679687500,-45.0,14.0,44.75,66.71203125000001,8.02,6.5137744375,33.59
2021-06-30 13:25:08.687500000,-45.0,14.0,45.0,66.71125,7.14,6.5138545,33.59
2021-06-30 13:25:08.695312500,-45.0,14.0,44.75,66.71046875,6.215,6.5139345625,33.59
2021-06-30 13:25:08.703125000,-45.0,14.0,44.5,66.7096875,5.29,6.514014625,33.59
2021-06-30 13:25:08.710937500,-45.0,14.0,44.25,66.70890625,4.325,6.5140946875,33.59
2021-06-30 13:25:08.718750000,-45.0,14.0,44.0,66.70812500000001,3.36,6.5141747500000005,33.59
2021-06-30 13:25:08.726562500,-45.0,14.25,44.0,66.70734375,2.385,6.5142548125,33.59
2021-06-30 13:25:08.734375000,-45.0,14.5,44.0,66.7065625,1.41,6.514334875,33.59
2021-06-30 13:25:08.742187500,-45.0,14.75,44.0,66.70578125,0.495,6.5144149375,33.59
2021-06-30 13:25:08.750000000,-45.0,15.0,44.0,66.70500000000001,-0.42,6.514495,33.59
2021-06-30 13:25:08.757812500,-45.0,14.75,44.25,66.70421875000001,-1.2349999999999999,6.5144149375,33.59
2021-06-30 13:25:08.765625000,-45.0,14.5,44.5,66.7034375,-2.05,6.514334875,33.59
2021-06-30 13:25:08.773437500,-45.0,14.25,44.75,66.70265625,-2.7649999999999997,6.5142548125,33.59
2021-06-30 13:25:08.781250000,-45.0,14.0,45.0,66.701875,-3.48,6.5141747500000005,33.59
2021-06-30 13:25:08.789062500,-45.0,14.0,44.75,66.70109375000001,-4.14,6.5140946875,33.59
2021-06-30 13:25:08.796875000,-45.0,14.0,44.5,66.70031250000001,-4.8,6.514014625,33.59
2021-06-30 13:25:08.804687500,-45.0,14.0,44.25,66.69953125,-5.47,6.5139345625,33.59
2021-06-30 13:25:08.812500000,-45.0,14.0,44.0,66.69875,-6.14,6.5138545,33.59
2021-06-30 13:25:08.820312500,-45.0,14.0,44.0,66.69796875,-6.875,6.5137744375,33.59
2021-06-30 13:25:08.828125000,-45.0,14.0,44.0,66.69718750000001,-7.61,6.513694375,33.59
2021-06-30 13:25:08.835937500,-45.0,14.0,44.0,66.69640625000001,-8.45,6.5136143125,33.59
2021-06-30 13:25:08.843750000,-45.0,14.0,44.0,66.695625,-9.29,6.51353425,33.59
2021-06-30 13:25:08.851562500,-45.0,14.0,44.0,66.69484375,-10.23,6.5134541875,33.59
2021-06-30 13:25:08.859375000,-45.0,14.0,44.0,66.6940625,-11.17,6.513374125,33.59
2021-06-30 13:25:08.867187500,-45.0,14.0,44.0,66.69328125000001,-12.190000000000001,6.5132940625,33.59
2021-06-30 13:25:08.875000000,-45.0,14.0,44.0,66.69250000000001,-13.21,6.513214,33.59
2021-06-30 13:25:08.882812500,-45.0,14.0,44.0,66.69171875,-14.3,6.5131339375,33.59
2021-06-30 13:25:08.890625000,-45.0,14.0,44.0,66.6909375,-15.39,6.513053875,33.59
2021-06-30 13:25:08.898437500,-45.0,14.0,44.0,66.69015625,-16.52,6.5129738125,33.59
2021-06-30 13:25:08.906250000,-45.0,14.0,44.0,66.68937500000001,-17.65,6.51289375,33.59
2021-06-30 13:25:08.914062500,-45.0,14.0,44.25,66.68859375000001,-18.835,6.5128136875000004,33.59
2021-06-30 13:25:08.921875000,-45.0,14.0,44.5,66.6878125,-20.02,6.512733625,33.59
2021-06-30 13:25:08.929687500,-45.0,14.0,44.75,66.68703125,-21.259999999999998,6.5126535625,33.59
2021-06-30 13:25:08.937500000,-45.0,14.0,45.0,66.68625,-22.5,6.5125735,33.59
2021-06-30 13:25:08.945312500,-45.0,14.25,44.75,66.68546875000001,-23.83,6.5124934375,33.59
2021-06-30 13:25:08.953125000,-45.0,14.5,44.5,66.68468750000001,-25.16,6.512413375,33.59
2021-06-30 13:25:08.960937500,-45.0,14.75,44.25,66.68390625,-26.630000000000003,6.5123333125,33.59
2021-06-30 13:25:08.968750000,-45.0,15.0,44.0,66.683125,-28.1,6.51225325,33.59
2021-06-30 13:25:08.976562500,-45.0,14.75,44.25,66.68234375,-29.73,6.5121731875,33.59
2021-06-30 13:25:08.984375000,-45.0,14.5,44.5,66.68156250000001,-31.36,6.512093125,33.59
2021-06-30 13:25:08.992187500,-45.0,14.25,44.75,66.68078125000001,-33.085,6.5120130625,33.59
2021-06-30 13:25:09.000000000,-45.0,14.0,45.0,66.68,-34.81,6.511933,33.59
2021-06-30 13:25:09.007812500,-45.0,14.0,45.0,66.68093750000001,-36.435,6.5118529375,33.59
2021-06-30 13:25:09.015625000,-45.0,14.0,45.0,66.681875,-38.06,6.511772875,33.59
2021-06-30 13:25:09.023437500,-45.0,14.0,45.0,66.68281250000001,-39.255,6.5116928125,33.59
2021-06-30 13:25:09.031250000,-45.0,14.0,45.0,66.68375,-40.45,6.51161275,33.59
2021-06-30 13:25:09.039062500,-45.0,14.0,45.0,66.68468750000001,-40.825,6.5115326875,33.59
2021-06-30 13:25:09.046875000,-45.0,14.0,45.0,66.685625,-41.2,6.5114526249999995,33.59
2021-06-30 13:25:09.054687500,-45.0,14.0,45.0,66.68656250000001,-40.45,6.5113725625,33.59
2021-06-30 13:25:09.062500000,-45.0,14.0,45.0,66.6875,-39.7,6.5112925,33.59
2021-06-30 13:25:09.070312500,-45.0,14.0,44.75,66.6884375,-37.77,6.5112124375,33.59
2021-06-30 13:25:09.078125000,-45.0,14.0,44.5,66.68937500000001,-35.84,6.511132375,33.59
2021-06-30 13:25:09.085937500,-45.0,14.0,44.25,66.6903125,-32.945,6.5110523124999995,33.59
2021-06-30 13:25:09.093750000,-45.0,14.0,44.0,66.69125000000001,-30.05,6.51097225,33.59
2021-06-30 13:25:09.101562500,-45.0,14.0,44.25,66.6921875,-26.615000000000002,6.5108921875,33.59
2021-06-30 13:25:09.109375000,-45.0,14.0,44.5,66.69312500000001,-23.18,6.510812125,33.59
2021-06-30 13:25:09.117187500,-45.0,14.0,44.75,66.6940625,-19.7,6.5107320625,33.59
2021-06-30 13:25:09.125000000,-45.0,14.0,45.0,66.69500000000001,-16.22,6.510652,33.59
2021-06-30 13:25:09.132812500,-45.0,14.0,45.0,66.6959375,-13.075,6.5105719375,33.59
2021-06-30 13:25:09.140625000,-45.0,14.0,45.0,66.696875,-9.93,6.510491875,33.59
2021-06-30 13:25:09.148437500,-45.0,14.0,45.0,66.69781250000001,-7.295,6.5104118125,33.59
2021-06-30 13:25:09.156250000,-45.0,14.0,45.0,66.69875,-4.66,6.51033175,33.59
2021-06-30 13:25:09.164062500,-45.0,14.0,45.0,66.69968750000001,-2.505,6.5102516875,33.59
2021-06-30 13:25:09.171875000,-45.0,14.0,45.0,66.700625,-0.35,6.510171625,33.59
2021-06-30 13:25:09.179687500,-45.0,14.0,45.0,66.70156250000001,1.455,6.5100915624999995,33.59
2021-06-30 13:25:09.187500000,-45.0,14.0,45.0,66.7025,3.26,6.5100115,33.59
2021-06-30 13:25:09.195312500,-45.0,14.0,45.0,66.7034375,4.859999999999999,6.5099314375,33.59
2021-06-30 13:25:09.203125000,-45.0,14.0,45.0,66.704375,6.46,6.509851375,33.59
2021-06-30 13:25:09.210937500,-45.0,14.0,45.0,66.7053125,7.93,6.5097713125,33.59
2021-06-30 13:25:09.218750000,-45.0,14.0,45.0,66.70625000000001,9.4,6.5096912499999995,33.59
2021-06-30 13:25:09.226562500,-45.0,14.0,44.75,66.7071875,10.725000000000001,6.5096111875,33.59
2021-06-30 13:25:09.234375000,-45.0,14.0,44.5,66.70812500000001,12.05,6.509531125,33.59
2021-06-30 13:25:09.242187500,-45.0,14.0,44.25,66.7090625,13.175,6.5094510625,33.59
2021-06-30 13:25:09.250000000,-45.0,14.0,44.0,66.71000000000001,14.3,6.509371,33.59
2021-06-30 13:25:09.257812500,-45.0,14.0,44.25,66.7109375,15.175,6.5094910937499995,33.59
2021-06-30 13:25:09.265625000,-45.0,14.0,44.5,66.711875,16.05,6.5096111875,33.59
2021-06-30 13:25:09.273437500,-45.0,14.0,44.75,66.7128125,16.655,6.50973128125,33.59
2021-06-30 13:25:09.281250000,-45.0,14.0,45.0,66.71375,17.26,6.509851375,33.59
2021-06-30 13:25:09.289062500,-45.0,14.25,45.0,66.71468750000001,17.62,6.50997146875,33.59
2021-06-30 13:25:09.296875000,-45.0,14.5,45.0,66.715625,17.98,6.5100915624999995,33.59
2021-06-30 13:25:09.304687500,-45.0,14.75,45.0,66.71656250000001,18.155,6.51021165625,33.59
2021-06-30 13:25:09.312500000,-45.0,15.0,45.0,66.7175,18.33,6.51033175,33.59
2021-06-30 13:25:09.320312500,-45.0,15.0,45.0,66.71843750000001,18.384999999999998,6.510451843749999,33.59
2021-06-30 13:25:09.328125000,-45.0,15.0,45.0,66.719375,18.44,6.5105719375,33.59
2021-06-30 13:25:09.335937500,-45.0,15.0,45.0,66.7203125,18.450000000000003,6.51069203125,33.59
2021-06-30 13:25:09.343750000,-45.0,15.0,45.0,66.72125,18.46,6.510812124999999,33.59
2021-06-30 13:25:09.351562500,-45.0,14.75,45.0,66.7221875,18.465,6.51093221875,33.59
2021-06-30 13:25:09.359375000,-45.0,14.5,45.0,66.72312500000001,18.47,6.5110523124999995,33.59
2021-06-30 13:25:09.367187500,-45.0,14.25,45.0,66.7240625,18.485,6.51117240625,33.59
2021-06-30 13:25:09.375000000,-45.0,14.0,45.0,66.72500000000001,18.5,6.5112925,33.59
2021-06-30 13:25:09.382812500,-45.0,14.0,44.75,66.7259375,18.52,6.511412593749999,33.59
2021-06-30 13:25:09.390625000,-45.0,14.0,44.5,66.726875,18.54,6.5115326875,33.59
2021-06-30 13:25:09.398437500,-45.0,14.0,44.25,66.7278125,18.56,6.51165278125,33.59
2021-06-30 13:25:09.406250000,-45.0,14.0,44.0,66.72875,18.58,6.511772875,33.59
2021-06-30 13:25:09.414062500,-45.0,14.0,44.25,66.7296875,18.6,6.51189296875,33.59
2021-06-30 13:25:09.421875000,-45.0,14.0,44.5,66.730625,18.62,6.5120130624999994,33.59
2021-06-30 13:25:09.429687500,-45.0,14.0,44.75,66.73156250000001,18.645000000000003,6.51213315625,33.59
2021-06-30 13:25:09.437500000,-45.0,14.0,45.0,66.7325,18.67,6.51225325,33.59
2021-06-30 13:25:09.445312500,-45.0,14.0,45.0,66.73343750000001,18.69,6.512373343749999,33.59
2021-06-30 13:25:09.453125000,-45.0,14.0,45.0,66.734375,18.71,6.5124934375,33.59
2021-06-30 13:25:09.460937500,-45.0,14.0,45.0,66.7353125,18.715,6.5126135312499995,33.59
2021-06-30 13:25:09.468750000,-45.0,14.0,45.0,66.73625,18.72,6.512733624999999,33.59
2021-06-30 13:25:09.476562500,-45.0,14.0,44.75,66.7371875,18.655,6.51285371875,33.59
2021-06-30 13:25:09.484375000,-45.0,14.0,44.5,66.738125,18.59,6.512973812499999,33.59
2021-06-30 13:25:09.492187500,-45.0,14.0,44.25,66.7390625,18.405,6.51309390625,33.59
2021-06-30 13:25:09.500000000,-45.0,14.0,44.0,66.74000000000001,18.22,6.513214,33.59
2021-06-30 13:25:09.507812500,-45.0,14.0,44.0,66.7409375,17.854999999999997,6.513173968749999,33.59
2021-06-30 13:25:09.515625000,-45.0,14.0,44.0,66.74187500000001,17.49,6.513133937499999,33.59
2021-06-30 13:25:09.523437500,-45.0,14.0,44.0,66.7428125,16.935,6.51309390625,33.59
2021-06-30 13:25:09.531250000,-45.0,14.0,44.0,66.74375,16.38,6.513053875,33.59
2021-06-30 13:25:09.539062500,-45.0,14.0,44.25,66.7446875,15.649999999999999,6.51301384375,33.59
2021-06-30 13:25:09.546875000,-45.0,14.0,44.5,66.745625,14.92,6.512973812499999,33.59
2021-06-30 13:25:09.554687500,-45.0,14.0,44.75,66.7465625,14.075,6.51293378125,33.59
2021-06-30 13:25:09.562500000,-45.0,14.0,45.0,66.7475,13.23,6.51289375,33.59
2021-06-30 13:25:09.570312500,-45.0,14.0,45.0,66.7484375,12.33,6.51285371875,33.59
2021-06-30 13:25:09.578125000,-45.0,14.0,45.0,66.749375,11.43,6.5128136875,33.59
2021-06-30 13:25:09.585937500,-45.0,14.0,45.0,66.7503125,10.530000000000001,6.512773656249999,33.59
2021-06-30 13:25:09.593750000,-45.0,14.0,45.0,66.75125,9.63,6.512733625,33.59
2021-06-30 13:25:09.601562500,-45.0,14.25,45.0,66.7521875,8.76,6.51269359375,33.59
2021-06-30 13:25:09.609375000,-45.0,14.5,45.0,66.753125,7.89,6.5126535625,33.59
2021-06-30 13:25:09.617187500,-45.0,14.75,45.0,66.7540625,7.055,6.5126135312499995,33.59
2021-06-30 13:25:09.625000000,-45.0,15.0,45.0,66.755,6.22,6.5125735,33.59
2021-06-30 13:25:09.632812500,-45.0,14.75,44.75,66.7559375,5.395,6.51253346875,33.59
2021-06-30 13:25:09.640625000,-45.0,14.5,44.5,66.756875,4.57,6.5124934375,33.59
2021-06-30 13:25:09.648437500,-45.0,14.25,44.25,66.7578125,3.71,6.51245340625,33.59
2021-06-30 13:25:09.656250000,-45.0,14.0,44.0,66.75875,2.85,6.5124133749999995,33.59
2021-06-30 13:25:09.664062500,-45.0,14.0,44.0,66.7596875,1.92,6.51237334375,33.59
2021-06-30 13:25:09.671875000,-45.0,14.0,44.0,66.760625,0.99,6.5123333125,33.59
2021-06-30 13:25:09.679687500,-45.0,14.0,44.0,66.7615625,-0.06000000000000005,6.51229328125,33.59
2021-06-30 13:25:09.687500000,-45.0,14.0,44.0,66.7625,-1.11,6.51225325,33.59
2021-06-30 13:25:09.695312500,-45.0,14.0,44.25,66.7634375,-2.2700000000000005,6.5122132187499995,33.59
2021-06-30 13:25:09.703125000,-45.0,14.0,44.5,66.764375,-3.43,6.5121731875,33.59
2021-06-30 13:25:09.710937500,-45.0,14.0,44.75,66.7653125,-4.65,6.51213315625,33.59
2021-06-30 13:25:09.718750000,-45.0,14.0,45.0,66.76625,-5.87,6.512093125,33.59
2021-06-30 13:25:09.726562500,-45.0,14.0,44.75,66.7671875,-7.07,6.51205309375,33.59
2021-06-30 13:25:09.734375000,-45.0,14.0,44.5,66.768125,-8.27,6.5120130625,33.59
2021-06-30 13:25:09.742187500,-45.0,14.0,44.25,66.7690625,-9.335,6.51197303125,33.59
2021-06-30 13:25:09.750000000,-45.0,14.0,44.0,66.77,-10.4,6.511933,33.59
2021-06-30 13:25:09.757812500,-45.0,14.0,44.25,66.7709375,-11.285,6.51189296875,33.59
2021-06-30 13:25:09.765625000,-45.0,14.0,44.5,66.771875,-12.17,6.5118529375,33.59
2021-06-30 13:25:09.773437500,-45.0,14.0,44.75,66.7728125,-12.9,6.51181290625,33.59
2021-06-30 13:25:09.781250000,-45.0,14.0,45.0,66.77374999999999,-13.63,6.511772875,33.59
2021-06-30 13:25:09.789062500,-45.0,14.0,45.0,66.7746875,-14.325,6.51173284375,33.59
2021-06-30 13:25:09.796875000,-45.0,14.0,45.0,66.775625,-15.02,6.5116928125,33.59
2021-06-30 13:25:09.804687500,-45.0,14.0,45.0,66.7765625,-15.89,6.5116527812500005,33.59
2021-06-30 13:25:09.812500000,-45.0,14.0,45.0,66.7775,-16.76,6.51161275,33.59
2021-06-30 13:25:09.820312500,-45.0,14.0,45.0,66.7784375,-18.005000000000003,6.51157271875,33.59
2021-06-30 13:25:09.828125000,-45.0,14.0,45.0,66.779375,-19.25,6.5115326875,33.59
2021-06-30 13:25:09.835937500,-45.0,14.0,45.0,66.7803125,-21.009999999999998,6.51149265625,33.59
2021-06-30 13:25:09.843750000,-45.0,14.0,45.0,66.78125,-22.77,6.511452625,33.59
2021-06-30 13:25:09.851562500,-45.0,14.0,45.0,66.78218749999999,-25.055,6.51141259375,33.59
2021-06-30 13:25:09.859375000,-45.0,14.0,45.0,66.783125,-27.34,6.5113725625,33.59
2021-06-30 13:25:09.867187500,-45.0,14.0,45.0,66.7840625,-29.985,6.51133253125,33.59
2021-06-30 13:25:09.875000000,-45.0,14.0,45.0,66.785,-32.63,6.5112925,33.59
2021-06-30 13:25:09.882812500,-45.0,14.0,45.0,66.7859375,-35.275000000000006,6.51125246875,33.59
2021-06-30 13:25:09.890625000,-45.0,14.0,45.0,66.786875,-37.92,6.5112124375,33.59
2021-06-30 13:25:09.898437500,-45.0,14.0,45.0,66.7878125,-40.075,6.51117240625,33.59
2021-06-30 13:25:09.906250000,-45.0,14.0,45.0,66.78875,-42.23,6.511132375,33.59
2021-06-30 13:25:09.914062500,-45.0,14.0,44.75,66.7896875,-43.385,6.511092343750001,33.59
2021-06-30 13:25:09.921875000,-45.0,14.0,44.5,66.79062499999999,-44.54,6.5110523125,33.59
2021-06-30 13:25:09.929687500,-45.0,14.0,44.25,66.7915625,-44.315,6.51101228125,33.59
2021-06-30 13:25:09.937500000,-45.0,14.0,44.0,66.7925,-44.09,6.51097225,33.59
2021-06-30 13:25:09.945312500,-45.0,14.0,44.25,66.7934375,-42.365,6.51093221875,33.59
2021-06-30 13:25:09.953125000,-45.0,14.0,44.5,66.794375,-40.64,6.5108921875000005,33.59
2021-06-30 13:25:09.960937500,-45.0,14.0,44.75,66.7953125,-37.644999999999996,6.51085215625,33.59
2021-06-30 13:25:09.968750000,-45.0,14.0,45.0,66.79625,-34.65,6.510812125,33.59
2021-06-30 13:25:09.976562500,-45.0,14.0,44.75,66.79718749999999,-30.869999999999997,6.51077209375,33.59
2021-06-30 13:25:09.984375000,-45.0,14.0,44.5,66.798125,-27.09,6.510732062500001,33.59
