TimeStamp,empatica.acc.x,empatica.acc.y,empatica.acc.z,empatica.hr,empatica.bvp,empatica.eda,empatica.temp
2021-06-23 11:20:48.562500000,-38.0,4.0,52.0,68.33500000000001,0.07,1.1591894999999999,33.71
2021-06-23 11:20:48.570312500,-38.0,4.0,52.0,68.333125,15.56,1.1591094375,33.71
2021-06-23 11:20:48.578125000,-38.0,4.0,52.0,68.33125,31.05,1.159029375,33.71
2021-06-23 11:20:48.585937500,-38.0,4.0,52.0,68.329375,43.315,1.1589493124999999,33.71
2021-06-23 11:20:48.593750000,-38.0,4.0,52.0,68.3275,55.58,1.15886925,33.71
2021-06-23 11:20:48.601562500,-38.0,4.0,52.0,68.325625,64.43,1.1587891875,33.71
2021-06-23 11:20:48.609375000,-38.0,4.0,52.0,68.32375,73.28,1.158709125,33.71
2021-06-23 11:20:48.617187500,-38.0,4.0,52.0,68.321875,78.93,1.1586290625,33.71
2021-06-23 11:20:48.625000000,-38.0,4.0,52.0,68.32000000000001,84.58,1.1585489999999998,33.71
2021-06-23 11:20:48.632812500,-38.0,4.0,52.0,68.31812500000001,87.49000000000001,1.1584689375,33.71
2021-06-23 11:20:48.640625000,-38.0,4.0,52.0,68.31625,90.4,1.158388875,33.71
2021-06-23 11:20:48.648437500,-38.0,4.0,52.0,68.314375,91.11500000000001,1.1583088124999998,33.71
2021-06-23 11:20:48.656250000,-38.0,4.0,52.0,68.3125,91.83,1.15822875,33.71
2021-06-23 11:20:48.664062500,-38.0,4.0,52.0,68.310625,90.91,1.1581486875,33.71
2021-06-23 11:20:48.671875000,-38.0,4.0,52.0,68.30875,89.99,1.1580686249999999,33.71
2021-06-23 11:20:48.679687500,-38.0,4.0,52.0,68.306875,87.94999999999999,1.1579885625,33.71
2021-06-23 11:20:48.687500000,-38.0,4.0,52.0,68.305,85.91,1.1579085,33.71
2021-06-23 11:20:48.695312500,-38.0,4.0,52.0,68.30312500000001,83.255,1.1578284374999999,33.71
2021-06-23 11:20:48.703125000,-38.0,4.0,52.0,68.30125,80.6,1.157748375,33.71
2021-06-23 11:20:48.710937500,-38.0,4.0,52.0,68.299375,77.805,1.1576683125,33.71
2021-06-23 11:20:48.718750000,-38.0,4.0,52.0,68.2975,75.01,1.1575882499999999,33.71
2021-06-23 11:20:48.726562500,-38.0,4.0,52.0,68.295625,72.545,1.1575081875,33.71
2021-06-23 11:20:48.734375000,-38.0,4.0,52.0,68.29375,70.08,1.157428125,33.71
2021-06-23 11:20:48.742187500,-38.0,4.0,52.0,68.291875,68.35,1.1573480624999999,33.71
2021-06-23 11:20:48.750000000,-38.0,4.0,52.0,68.29,66.62,1.157268,33.71
2021-06-23 11:20:48.757812500,-38.0,4.0,52.0,68.28812500000001,65.885,1.157268,33.71
2021-06-23 11:20:48.765625000,-38.0,4.0,52.0,68.28625000000001,65.15,1.157268,33.71
2021-06-23 11:20:48.773437500,-38.0,4.0,52.0,68.284375,65.49000000000001,1.157268,33.71
2021-06-23 11:20:48.781250000,-38.0,4.0,52.0,68.2825,65.83,1.157268,33.71
2021-06-23 11:20:48.789062500,-38.0,4.0,52.0,68.280625,67.13499999999999,1.157268,33.71
2021-06-23 11:20:48.796875000,-38.0,4.0,52.0,68.27875,68.44,1.157268,33.71
2021-06-23 11:20:48.804687500,-38.0,4.0,52.0,68.276875,70.42,1.157268,33.71
2021-06-23 11:20:48.812500000,-38.0,4.0,52.0,68.275,72.4,1.157268,33.71
2021-06-23 11:20:48.820312500,-38.0,4.0,52.0,68.27312500000001,74.735,1.157268,33.71
2021-06-23 11:20:48.828125000,-38.0,4.0,52.0,68.27125000000001,77.07,1.157268,33.71
2021-06-23 11:20:48.835937500,-38.0,4.0,52.0,68.269375,79.435,1.157268,33.71
2021-06-23 11:20:48.843750000,-38.0,4.0,52.0,68.2675,81.8,1.157268,33.71
2021-06-23 11:20:48.851562500,-38.0,4.0,52.0,68.265625,83.91,1.157268,33.71
2021-06-23 11:20:48.859375000,-38.0,4.0,52.0,68.26375,86.02,1.157268,33.71
2021-06-23 11:20:48.867187500,-38.0,4.0,52.0,68.261875,87.60499999999999,1.157268,33.71
2021-06-23 11:20:48.875000000,-38.0,4.0,52.0,68.26,89.19,1.157268,33.71
2021-06-23 11:20:48.882812500,-38.0,4.0,52.0,68.258125,90.0,1.157268,33.71
2021-06-23 11:20:48.890625000,-38.0,4.0,52.0,68.25625000000001,90.81,1.157268,33.71
2021-06-23 11:20:48.898437500,-38.0,4.0,52.0,68.25437500000001,90.64500000000001,1.157268,33.71
2021-06-23 11:20:48.906250000,-38.0,4.0,52.0,68.2525,90.48,1.157268,33.71
2021-06-23 11:20:48.914062500,-38.0,4.0,52.0,68.250625,89.215,1.157268,33.71
2021-06-23 11:20:48.921875000,-38.0,4.0,52.0,68.24875,87.95,1.157268,33.71
2021-06-23 11:20:48.929687500,-38.0,4.0,52.0,68.246875,85.555,1.157268,33.71
2021-06-23 11:20:48.937500000,-38.0,4.0,52.0,68.245,83.16,1.157268,33.71
2021-06-23 11:20:48.945312500,-38.0,4.0,52.0,68.243125,79.72,1.157268,33.71
2021-06-23 11:20:48.953125000,-38.0,4.0,52.0,68.24125000000001,76.28,1.157268,33.71
2021-06-23 11:20:48.960937500,-38.0,4.0,52.0,68.23937500000001,72.015,1.157268,33.71
2021-06-23 11:20:48.968750000,-38.0,4.0,52.0,68.2375,67.75,1.157268,33.71
2021-06-23 11:20:48.976562500,-38.0,4.0,52.0,68.235625,62.95,1.157268,33.71
2021-06-23 11:20:48.984375000,-38.0,4.0,52.0,68.23375,58.15,1.157268,33.71
2021-06-23 11:20:48.992187500,-38.0,4.0,52.0,68.231875,53.16,1.157268,33.71
2021-06-23 11:20:49.000000000,-38.0,4.0,52.0,68.23,48.17,1.157268,33.71
2021-06-23 11:20:49.007812500,-38.0,4.0,52.0,68.22820312500001,43.345,1.1571479062499999,33.710625
2021-06-23 11:20:49.015625000,-38.0,4.0,52.0,68.22640625000001,38.52,1.1570278125,33.71125
2021-06-23 11:20:49.023437500,-38.0,4.0,52.0,68.224609375,34.135000000000005,1.1569077187499999,33.711875
2021-06-23 11:20:49.031250000,-38.0,4.0,52.0,68.2228125,29.75,1.156787625,33.7125
2021-06-23 11:20:49.039062500,-38.0,4.0,52.0,68.221015625,25.95,1.1566675312499999,33.713125
2021-06-23 11:20:49.046875000,-38.0,4.0,52.0,68.21921875000001,22.15,1.1565474375,33.71375
2021-06-23 11:20:49.054687500,-38.0,4.0,52.0,68.217421875,18.945,1.15642734375,33.714375
2021-06-23 11:20:49.062500000,-38.0,4.0,52.0,68.215625,15.74,1.15630725,33.715
2021-06-23 11:20:49.070312500,-38.0,4.0,52.0,68.213828125,12.965,1.15618715625,33.715625
2021-06-23 11:20:49.078125000,-38.0,4.0,52.0,68.21203125000001,10.19,1.1560670625,33.71625
2021-06-23 11:20:49.085937500,-38.0,4.0,52.0,68.210234375,7.6,1.15594696875,33.716875
2021-06-23 11:20:49.093750000,-38.0,4.0,52.0,68.2084375,5.01,1.155826875,33.7175
2021-06-23 11:20:49.101562500,-38.0,4.0,52.0,68.206640625,2.36,1.15570678125,33.718125
2021-06-23 11:20:49.109375000,-38.0,4.0,52.0,68.20484375000001,-0.29,1.1555866875,33.71875
2021-06-23 11:20:49.117187500,-38.0,4.0,52.0,68.203046875,-3.21,1.15546659375,33.719375
2021-06-23 11:20:49.125000000,-38.0,4.0,52.0,68.20125,-6.13,1.1553464999999998,33.72
2021-06-23 11:20:49.132812500,-38.0,4.0,52.0,68.199453125,-9.415,1.15522640625,33.720625
2021-06-23 11:20:49.140625000,-38.0,4.0,52.0,68.19765625000001,-12.7,1.1551063124999998,33.72125
2021-06-23 11:20:49.148437500,-38.0,4.0,52.0,68.195859375,-16.32,1.15498621875,33.721875
2021-06-23 11:20:49.156250000,-38.0,4.0,52.0,68.1940625,-19.94,1.1548661249999999,33.7225
2021-06-23 11:20:49.164062500,-38.0,4.0,52.0,68.192265625,-23.765,1.15474603125,33.723124999999996
2021-06-23 11:20:49.171875000,-38.0,4.0,52.0,68.19046875000001,-27.59,1.1546259374999999,33.723749999999995
2021-06-23 11:20:49.179687500,-38.0,4.0,52.0,68.188671875,-31.405,1.15450584375,33.724374999999995
2021-06-23 11:20:49.187500000,-38.0,4.0,52.0,68.186875,-35.22,1.1543857499999999,33.724999999999994
2021-06-23 11:20:49.195312500,-38.0,4.0,52.0,68.185078125,-38.81,1.15426565625,33.725625
2021-06-23 11:20:49.203125000,-38.0,4.0,52.0,68.18328125000001,-42.4,1.1541455624999999,33.72625
2021-06-23 11:20:49.210937500,-38.0,4.0,52.0,68.181484375,-45.629999999999995,1.15402546875,33.726875
2021-06-23 11:20:49.218750000,-38.0,4.0,52.0,68.1796875,-48.86,1.153905375,33.7275
2021-06-23 11:20:49.226562500,-38.0,4.0,52.0,68.177890625,-51.739999999999995,1.15378528125,33.728125
2021-06-23 11:20:49.234375000,-38.0,4.0,52.0,68.17609375,-54.62,1.1536651875,33.72875
2021-06-23 11:20:49.242187500,-38.0,4.0,52.0,68.174296875,-57.345,1.15354509375,33.729375
2021-06-23 11:20:49.250000000,-38.0,4.0,52.0,68.1725,-60.07,1.153425,33.73
2021-06-23 11:20:49.257812500,-38.0,4.0,52.0,68.170703125,-63.015,1.15362515625,33.73
2021-06-23 11:20:49.265625000,-38.0,4.0,52.0,68.16890625,-65.96,1.1538253125,33.73
2021-06-23 11:20:49.273437500,-38.0,4.0,52.0,68.16710937500001,-69.61,1.15402546875,33.73
2021-06-23 11:20:49.281250000,-38.0,4.0,52.0,68.1653125,-73.26,1.154225625,33.73
2021-06-23 11:20:49.289062500,-38.0,4.0,52.0,68.163515625,-78.065,1.1544257812499998,33.73
2021-06-23 11:20:49.296875000,-38.0,4.0,52.0,68.16171875,-82.87,1.1546259374999999,33.73
2021-06-23 11:20:49.304687500,-38.0,4.0,52.0,68.15992187500001,-89.1,1.15482609375,33.73
2021-06-23 11:20:49.312500000,-38.0,4.0,52.0,68.158125,-95.33,1.15502625,33.73
2021-06-23 11:20:49.320312500,-38.0,4.0,52.0,68.156328125,-102.82,1.15522640625,33.73
2021-06-23 11:20:49.328125000,-38.0,4.0,52.0,68.15453125,-110.31,1.1554265625,33.73
2021-06-23 11:20:49.335937500,-38.0,4.0,52.0,68.15273437500001,-118.30000000000001,1.15562671875,33.73
2021-06-23 11:20:49.343750000,-38.0,4.0,52.0,68.1509375,-126.29,1.1558268749999998,33.73
2021-06-23 11:20:49.351562500,-38.0,4.0,52.0,68.149140625,-133.41,1.1560270312499998,33.73
2021-06-23 11:20:49.359375000,-38.0,4.0,52.0,68.14734375,-140.53,1.1562271874999999,33.73
2021-06-23 11:20:49.367187500,-38.0,4.0,52.0,68.14554687500001,-145.01,1.15642734375,33.73
2021-06-23 11:20:49.375000000,-38.0,4.0,52.0,68.14375,-149.49,1.1566275,33.73
2021-06-23 11:20:49.382812500,-38.0,4.0,52.0,68.141953125,-149.67000000000002,1.15682765625,33.73
2021-06-23 11:20:49.390625000,-38.0,4.0,52.0,68.14015625,-149.85,1.1570278125,33.73
2021-06-23 11:20:49.398437500,-38.0,4.0,52.0,68.13835937500001,-144.70999999999998,1.15722796875,33.73
2021-06-23 11:20:49.406250000,-38.0,4.0,52.0,68.1365625,-139.57,1.157428125,33.73
2021-06-23 11:20:49.414062500,-38.0,4.0,52.0,68.134765625,-129.17,1.1576282812499998,33.73
2021-06-23 11:20:49.421875000,-38.0,4.0,52.0,68.13296875,-118.77,1.1578284374999999,33.73
2021-06-23 11:20:49.429687500,-38.0,4.0,52.0,68.131171875,-104.285,1.15802859375,33.73
2021-06-23 11:20:49.437500000,-38.0,4.0,52.0,68.129375,-89.8,1.15822875,33.73
2021-06-23 11:20:49.445312500,-38.0,4.0,52.0,68.127578125,-73.19,1.15842890625,33.73
2021-06-23 11:20:49.453125000,-38.0,4.0,52.0,68.12578125,-56.58,1.1586290625,33.73
2021-06-23 11:20:49.460937500,-38.0,4.0,52.0,68.123984375,-39.965,1.15882921875,33.73
2021-06-23 11:20:49.468750000,-38.0,4.0,52.0,68.1221875,-23.35,1.1590293749999998,33.73
2021-06-23 11:20:49.476562500,-38.0,4.0,52.0,68.120390625,-8.445,1.1592295312499998,33.73
2021-06-23 11:20:49.484375000,-38.0,4.0,52.0,68.11859375,6.46,1.1594296874999999,33.73
2021-06-23 11:20:49.492187500,-38.0,4.0,52.0,68.116796875,18.669999999999998,1.15962984375,33.73
2021-06-23 11:20:49.500000000,-38.0,4.0,52.0,68.11500000000001,30.88,1.15983,33.73
2021-06-23 11:20:49.507812500,-38.0,4.0,52.0,68.113203125,40.1,1.1597499375,33.73
2021-06-23 11:20:49.515625000,-38.0,4.0,52.0,68.11140625,49.32,1.1596698749999999,33.73
2021-06-23 11:20:49.523437500,-38.0,4.0,52.0,68.109609375,55.739999999999995,1.1595898125,33.73
2021-06-23 11:20:49.531250000,-38.0,4.0,52.0,68.10781250000001,62.16,1.15950975,33.73
2021-06-23 11:20:49.539062500,-38.0,4.0,52.0,68.106015625,66.13,1.1594296874999999,33.73
2021-06-23 11:20:49.546875000,-38.0,4.0,52.0,68.10421875,70.1,1.159349625,33.73
2021-06-23 11:20:49.554687500,-38.0,4.0,52.0,68.102421875,72.0,1.1592695625,33.73
2021-06-23 11:20:49.562500000,-38.0,4.0,52.0,68.10062500000001,73.9,1.1591894999999999,33.73
2021-06-23 11:20:49.570312500,-38.0,4.0,52.0,68.098828125,74.1,1.1591094375,33.73
2021-06-23 11:20:49.578125000,-38.0,4.0,52.0,68.09703125,74.3,1.159029375,33.73
2021-06-23 11:20:49.585937500,-38.0,4.0,52.0,68.095234375,73.22,1.1589493124999999,33.73
2021-06-23 11:20:49.593750000,-38.0,4.0,52.0,68.09343750000001,72.14,1.15886925,33.73
2021-06-23 11:20:49.601562500,-38.0,4.0,52.0,68.091640625,70.31,1.1587891875,33.73
2021-06-23 11:20:49.609375000,-38.0,4.0,52.0,68.08984375,68.48,1.158709125,33.73
2021-06-23 11:20:49.617187500,-38.0,4.0,52.0,68.088046875,66.46000000000001,1.1586290625,33.73
2021-06-23 11:20:49.625000000,-38.0,4.0,52.0,68.08625,64.44,1.1585489999999998,33.73
2021-06-23 11:20:49.632812500,-38.0,4.0,52.0,68.084453125,62.75,1.1584689375,33.73
2021-06-23 11:20:49.640625000,-38.0,4.0,52.0,68.08265625,61.06,1.158388875,33.73
2021-06-23 11:20:49.648437500,-38.0,4.0,52.0,68.080859375,60.055,1.1583088124999998,33.73
2021-06-23 11:20:49.656250000,-38.0,4.0,52.0,68.0790625,59.05,1.15822875,33.73
2021-06-23 11:20:49.664062500,-38.0,4.0,52.0,68.077265625,58.879999999999995,1.1581486875,33.73
2021-06-23 11:20:49.671875000,-38.0,4.0,52.0,68.07546875,58.71,1.1580686249999999,33.73
2021-06-23 11:20:49.679687500,-38.0,4.0,52.0,68.073671875,59.3,1.1579885625,33.73
2021-06-23 11:20:49.687500000,-38.0,4.0,52.0,68.071875,59.89,1.1579085,33.73
2021-06-23 11:20:49.695312500,-38.0,4.0,52.0,68.070078125,61.055,1.1578284374999999,33.73
2021-06-23 11:20:49.703125000,-38.0,4.0,52.0,68.06828125,62.22,1.157748375,33.73
2021-06-23 11:20:49.710937500,-38.0,4.0,52.0,68.066484375,63.72,1.1576683125,33.73
2021-06-23 11:20:49.718750000,-38.0,4.0,52.0,68.0646875,65.22,1.1575882499999999,33.73
2021-06-23 11:20:49.726562500,-38.0,4.0,52.0,68.062890625,66.87,1.1575081875,33.73
2021-06-23 11:20:49.734375000,-38.0,4.0,52.0,68.06109375,68.52,1.157428125,33.73
2021-06-23 11:20:49.742187500,-38.0,4.0,52.0,68.059296875,70.16,1.1573480624999999,33.73
2021-06-23 11:20:49.750000000,-38.0,4.0,52.0,68.0575,71.8,1.157268,33.73
2021-06-23 11:20:49.757812500,-38.0,4.0,52.0,68.05570312500001,73.305,1.15722796875,33.73
2021-06-23 11:20:49.765625000,-38.0,4.0,52.0,68.05390625,74.81,1.1571879375,33.73
2021-06-23 11:20:49.773437500,-38.0,4.0,52.0,68.052109375,76.03,1.15714790625,33.73
2021-06-23 11:20:49.781250000,-38.0,4.0,52.0,68.0503125,77.25,1.157107875,33.73
2021-06-23 11:20:49.789062500,-38.0,4.0,52.0,68.04851562500001,78.0,1.15706784375,33.73
2021-06-23 11:20:49.796875000,-38.0,4.0,52.0,68.04671875,78.75,1.1570278125,33.73
2021-06-23 11:20:49.804687500,-38.0,4.0,52.0,68.044921875,78.825,1.15698778125,33.73
2021-06-23 11:20:49.812500000,-38.0,4.0,52.0,68.043125,78.9,1.15694775,33.73
2021-06-23 11:20:49.820312500,-38.0,4.0,52.0,68.041328125,78.13,1.15690771875,33.73
2021-06-23 11:20:49.828125000,-38.0,4.0,52.0,68.03953125,77.36,1.1568676875,33.73
2021-06-23 11:20:49.835937500,-38.0,4.0,52.0,68.037734375,75.65,1.15682765625,33.73
2021-06-23 11:20:49.843750000,-38.0,4.0,52.0,68.0359375,73.94,1.156787625,33.73
2021-06-23 11:20:49.851562500,-38.0,4.0,52.0,68.034140625,71.315,1.15674759375,33.73
2021-06-23 11:20:49.859375000,-38.0,4.0,52.0,68.03234375,68.69,1.1567075625,33.73
2021-06-23 11:20:49.867187500,-38.0,4.0,52.0,68.030546875,65.235,1.15666753125,33.73
2021-06-23 11:20:49.875000000,-38.0,4.0,52.0,68.02875,61.78,1.1566275,33.73
2021-06-23 11:20:49.882812500,-38.0,4.0,52.0,68.026953125,57.66,1.15658746875,33.73
2021-06-23 11:20:49.890625000,-38.0,4.0,52.0,68.02515625,53.54,1.1565474375,33.73
2021-06-23 11:20:49.898437500,-38.0,4.0,52.0,68.023359375,48.93,1.15650740625,33.73
2021-06-23 11:20:49.906250000,-38.0,4.0,52.0,68.0215625,44.32,1.156467375,33.73
2021-06-23 11:20:49.914062500,-38.0,4.0,52.0,68.019765625,39.455,1.1564273437500001,33.73
2021-06-23 11:20:49.921875000,-38.0,4.0,52.0,68.01796875,34.59,1.1563873125000002,33.73
2021-06-23 11:20:49.929687500,-38.0,4.0,52.0,68.016171875,29.700000000000003,1.15634728125,33.73
2021-06-23 11:20:49.937500000,-38.0,4.0,52.0,68.014375,24.81,1.15630725,33.73
2021-06-23 11:20:49.945312500,-38.0,4.0,52.0,68.012578125,20.16,1.15626721875,33.73
2021-06-23 11:20:49.953125000,-38.0,4.0,52.0,68.01078125,15.51,1.1562271875,33.73
2021-06-23 11:20:49.960937500,-38.0,4.0,52.0,68.008984375,11.3,1.1561871562500001,33.73
2021-06-23 11:20:49.968750000,-38.0,4.0,52.0,68.0071875,7.09,1.1561471250000002,33.73
2021-06-23 11:20:49.976562500,-38.0,4.0,52.0,68.005390625,3.41,1.15610709375,33.73
2021-06-23 11:20:49.984375000,-38.0,4.0,52.0,68.00359375,-0.27,1.1560670625,33.73
2021-06-23 11:20:49.992187500,-38.0,4.0,52.0,68.001796875,-3.4899999999999998,1.15602703125,33.73
2021-06-23 11:20:50.000000000,-38.0,4.0,52.0,68.0,-6.71,1.155987,33.73
2021-06-23 11:20:50.007812500,-38.0,4.0,52.0,67.997890625,-9.695,1.1561471250000002,33.729375
2021-06-23 11:20:50.015625000,-38.0,4.0,52.0,67.99578125,-12.68,1.15630725,33.72875
2021-06-23 11:20:50.023437500,-38.0,4.0,52.0,67.993671875,-15.705,1.156467375,33.728125
2021-06-23 11:20:50.031250000,-38.0,4.0,52.0,67.9915625,-18.73,1.1566275000000001,33.7275
2021-06-23 11:20:50.039062500,-38.0,4.0,52.0,67.989453125,-22.025,1.156787625,33.726875
2021-06-23 11:20:50.046875000,-38.0,4.0,52.0,67.98734375,-25.32,1.15694775,33.72625
2021-06-23 11:20:50.054687500,-38.0,4.0,52.0,67.985234375,-28.96,1.1571078750000001,33.725625
2021-06-23 11:20:50.062500000,-38.0,4.0,52.0,67.983125,-32.6,1.1572680000000002,33.724999999999994
2021-06-23 11:20:50.070312500,-38.0,4.0,52.0,67.981015625,-36.485,1.157428125,33.724374999999995
2021-06-23 11:20:50.078125000,-38.0,4.0,52.0,67.97890625,-40.37,1.15758825,33.723749999999995
2021-06-23 11:20:50.085937500,-38.0,4.0,52.0,67.976796875,-44.28,1.1577483750000002,33.723124999999996
2021-06-23 11:20:50.093750000,-38.0,4.0,52.0,67.9746875,-48.19,1.1579085,33.7225
2021-06-23 11:20:50.101562500,-38.0,4.0,52.0,67.972578125,-51.9,1.158068625,33.721875
2021-06-23 11:20:50.109375000,-38.0,4.0,52.0,67.97046875,-55.61,1.1582287500000001,33.72125
2021-06-23 11:20:50.117187500,-38.0,4.0,52.0,67.968359375,-59.019999999999996,1.158388875,33.720625
2021-06-23 11:20:50.125000000,-38.0,4.0,52.0,67.96625,-62.43,1.158549,33.72
2021-06-23 11:20:50.132812500,-38.0,4.0,52.0,67.964140625,-65.64,1.1587091250000001,33.719375
2021-06-23 11:20:50.140625000,-38.0,4.0,52.0,67.96203125,-68.85,1.15886925,33.71875
2021-06-23 11:20:50.148437500,-38.0,4.0,52.0,67.959921875,-72.12,1.159029375,33.718125
2021-06-23 11:20:50.156250000,-38.0,4.0,52.0,67.9578125,-75.39,1.1591895,33.7175
2021-06-23 11:20:50.164062500,-38.0,4.0,52.0,67.955703125,-79.12,1.159349625,33.716875
2021-06-23 11:20:50.171875000,-38.0,4.0,52.0,67.95359375,-82.85,1.15950975,33.71625
2021-06-23 11:20:50.179687500,-38.0,4.0,52.0,67.951484375,-87.455,1.159669875,33.715625
2021-06-23 11:20:50.187500000,-38.0,4.0,52.0,67.949375,-92.06,1.15983,33.715
2021-06-23 11:20:50.195312500,-38.0,4.0,52.0,67.947265625,-97.83500000000001,1.159990125,33.714375
2021-06-23 11:20:50.203125000,-38.0,4.0,52.0,67.94515625,-103.61,1.16015025,33.71375
2021-06-23 11:20:50.210937500,-38.0,4.0,52.0,67.94304687500001,-110.6,1.1603103750000001,33.713125
2021-06-23 11:20:50.218750000,-38.0,4.0,52.0,67.9409375,-117.59,1.1604705,33.7125
2021-06-23 11:20:50.226562500,-38.0,4.0,52.0,67.938828125,-125.39,1.160630625,33.711875
2021-06-23 11:20:50.234375000,-38.0,4.0,52.0,67.93671875,-133.19,1.16079075,33.71125
2021-06-23 11:20:50.242187500,-38.0,4.0,52.0,67.93460937500001,-140.875,1.160950875,33.710625
2021-06-23 11:20:50.250000000,-38.0,4.0,52.0,67.9325,-148.56,1.161111,33.71
2021-06-23 11:20:50.257812500,-38.0,4.0,52.0,67.930390625,-154.70499999999998,1.16083078125,33.71
2021-06-23 11:20:50.265625000,-38.0,4.0,52.0,67.92828125,-160.85,1.1605505625,33.71
2021-06-23 11:20:50.273437500,-38.0,4.0,52.0,67.926171875,-163.81,1.16027034375,33.71
2021-06-23 11:20:50.281250000,-38.0,4.0,52.0,67.9240625,-166.77,1.159990125,33.71
2021-06-23 11:20:50.289062500,-38.0,4.0,52.0,67.921953125,-165.12,1.15970990625,33.71
2021-06-23 11:20:50.296875000,-38.0,4.0,52.0,67.91984375,-163.47,1.1594296875,33.71
2021-06-23 11:20:50.304687500,-38.0,4.0,52.0,67.917734375,-156.505,1.15914946875,33.71
2021-06-23 11:20:50.312500000,-38.0,4.0,52.0,67.915625,-149.54,1.15886925,33.71
2021-06-23 11:20:50.320312500,-38.0,4.0,52.0,67.913515625,-137.57,1.15858903125,33.71
2021-06-23 11:20:50.328125000,-38.0,4.0,52.0,67.91140625,-125.6,1.1583088125,33.71
2021-06-23 11:20:50.335937500,-38.0,4.0,52.0,67.909296875,-109.94999999999999,1.1580285937500001,33.71
2021-06-23 11:20:50.343750000,-38.0,4.0,52.0,67.9071875,-94.3,1.157748375,33.71
2021-06-23 11:20:50.351562500,-38.0,4.0,52.0,67.905078125,-76.945,1.15746815625,33.71
2021-06-23 11:20:50.359375000,-38.0,4.0,52.0,67.90296875,-59.59,1.1571879375,33.71
2021-06-23 11:20:50.367187500,-38.0,4.0,52.0,67.900859375,-42.61,1.15690771875,33.71
2021-06-23 11:20:50.375000000,-38.0,4.0,52.0,67.89875,-25.63,1.1566275,33.71
2021-06-23 11:20:50.382812500,-37.75,4.0,52.0,67.896640625,-10.7,1.15634728125,33.71
2021-06-23 11:20:50.390625000,-37.5,4.0,52.0,67.89453125,4.23,1.1560670625,33.71
2021-06-23 11:20:50.398437500,-37.25,4.0,52.0,67.892421875,16.175,1.15578684375,33.71
2021-06-23 11:20:50.406250000,-37.0,4.0,52.0,67.89031250000001,28.12,1.1555066250000001,33.71
2021-06-23 11:20:50.414062500,-37.25,4.0,52.0,67.888203125,36.865,1.15522640625,33.71
2021-06-23 11:20:50.421875000,-37.5,4.0,52.0,67.88609375,45.61,1.1549461875,33.71
2021-06-23 11:20:50.429687500,-37.75,4.0,52.0,67.883984375,51.475,1.15466596875,33.71
2021-06-23 11:20:50.437500000,-38.0,4.0,52.0,67.88187500000001,57.34,1.15438575,33.71
2021-06-23 11:20:50.445312500,-38.0,4.0,52.0,67.879765625,60.895,1.1541055312500001,33.71
2021-06-23 11:20:50.453125000,-38.0,4.0,52.0,67.87765625,64.45,1.1538253125,33.71
2021-06-23 11:20:50.460937500,-38.0,4.0,52.0,67.875546875,66.32,1.15354509375,33.71
2021-06-23 11:20:50.468750000,-38.0,4.0,52.0,67.87343750000001,68.19,1.153264875,33.71
2021-06-23 11:20:50.476562500,-38.0,4.0,52.0,67.871328125,68.935,1.1529846562500001,33.71
2021-06-23 11:20:50.484375000,-38.0,4.0,52.0,67.86921875,69.68,1.1527044375,33.71
2021-06-23 11:20:50.492187500,-38.0,4.0,52.0,67.867109375,69.77000000000001,1.15242421875,33.71
2021-06-23 11:20:50.500000000,-38.0,4.0,52.0,67.86500000000001,69.86,1.152144,33.71
2021-06-23 11:20:50.507812500,-38.0,4.0,52.0,67.862890625,69.69,1.15242421875,33.71
2021-06-23 11:20:50.515625000,-38.0,4.0,52.0,67.86078125,69.52,1.1527044375,33.71
2021-06-23 11:20:50.523437500,-38.0,4.0,52.0,67.858671875,69.41,1.1529846562500001,33.71
2021-06-23 11:20:50.531250000,-38.0,4.0,52.0,67.8565625,69.3,1.153264875,33.71
2021-06-23 11:20:50.539062500,-38.0,4.0,52.0,67.854453125,69.475,1.15354509375,33.71
2021-06-23 11:20:50.546875000,-38.0,4.0,52.0,67.85234375,69.65,1.1538253125,33.71
2021-06-23 11:20:50.554687500,-38.0,4.0,52.0,67.850234375,70.21000000000001,1.1541055312500001,33.71
2021-06-23 11:20:50.562500000,-38.0,4.0,52.0,67.848125,70.77,1.15438575,33.71
2021-06-23 11:20:50.570312500,-38.0,4.0,52.0,67.846015625,71.695,1.15466596875,33.71
2021-06-23 11:20:50.578125000,-38.0,4.0,52.0,67.84390625,72.62,1.1549461875,33.71
2021-06-23 11:20:50.585937500,-38.0,4.0,52.0,67.841796875,73.755,1.15522640625,33.71
2021-06-23 11:20:50.593750000,-38.0,4.0,52.0,67.8396875,74.89,1.1555066250000001,33.71
2021-06-23 11:20:50.601562500,-38.0,4.0,52.0,67.83757812500001,76.035,1.15578684375,33.71
2021-06-23 11:20:50.609375000,-38.0,4.0,52.0,67.83546875,77.18,1.1560670625,33.71
2021-06-23 11:20:50.617187500,-38.0,4.0,52.0,67.833359375,78.15,1.15634728125,33.71
2021-06-23 11:20:50.625000000,-38.0,4.0,52.0,67.83125,79.12,1.1566275,33.71
2021-06-23 11:20:50.632812500,-38.0,4.0,52.0,67.82914062500001,79.815,1.15690771875,33.71
2021-06-23 11:20:50.640625000,-38.0,4.0,52.0,67.82703125,80.51,1.1571879375,33.71
2021-06-23 11:20:50.648437500,-38.0,4.0,52.0,67.824921875,80.94,1.15746815625,33.71
2021-06-23 11:20:50.656250000,-38.0,4.0,52.0,67.8228125,81.37,1.157748375,33.71
2021-06-23 11:20:50.664062500,-38.0,4.0,52.0,67.82070312500001,81.61,1.1580285937500001,33.71
2021-06-23 11:20:50.671875000,-38.0,4.0,52.0,67.81859375,81.85,1.1583088125,33.71
2021-06-23 11:20:50.679687500,-38.0,4.0,52.0,67.816484375,81.94,1.15858903125,33.71
2021-06-23 11:20:50.687500000,-38.0,4.0,52.0,67.814375,82.03,1.15886925,33.71
2021-06-23 11:20:50.695312500,-38.0,4.0,52.0,67.81226562500001,81.94,1.15914946875,33.71
2021-06-23 11:20:50.703125000,-38.0,4.0,52.0,67.81015625,81.85,1.1594296875,33.71
2021-06-23 11:20:50.710937500,-38.0,4.0,52.0,67.808046875,81.41,1.15970990625,33.71
2021-06-23 11:20:50.718750000,-38.0,4.0,52.0,67.8059375,80.97,1.159990125,33.71
2021-06-23 11:20:50.726562500,-38.0,4.0,52.0,67.80382812500001,79.97999999999999,1.16027034375,33.71
2021-06-23 11:20:50.734375000,-38.0,4.0,52.0,67.80171875,78.99,1.1605505625,33.71
2021-06-23 11:20:50.742187500,-38.0,4.0,52.0,67.799609375,77.25999999999999,1.16083078125,33.71
2021-06-23 11:20:50.750000000,-38.0,4.0,52.0,67.7975,75.53,1.161111,33.71
2021-06-23 11:20:50.757812500,-38.0,4.0,52.0,67.795390625,73.025,1.16079075,33.71
2021-06-23 11:20:50.765625000,-38.0,4.0,52.0,67.79328125,70.52,1.1604705,33.71
2021-06-23 11:20:50.773437500,-38.0,4.0,52.0,67.791171875,67.345,1.16015025,33.71
2021-06-23 11:20:50.781250000,-38.0,4.0,52.0,67.7890625,64.17,1.15983,33.71
2021-06-23 11:20:50.789062500,-38.0,4.0,52.0,67.786953125,60.55,1.15950975,33.71
2021-06-23 11:20:50.796875000,-38.0,4.0,52.0,67.78484375000001,56.93,1.1591895,33.71
2021-06-23 11:20:50.804687500,-38.0,4.0,52.0,67.782734375,53.08,1.15886925,33.71
2021-06-23 11:20:50.812500000,-38.0,4.0,52.0,67.780625,49.23,1.158549,33.71
2021-06-23 11:20:50.820312500,-38.0,4.0,52.0,67.778515625,45.325,1.15822875,33.71
2021-06-23 11:20:50.828125000,-38.0,4.0,52.0,67.77640625000001,41.42,1.1579085,33.71
2021-06-23 11:20:50.835937500,-38.0,4.0,52.0,67.774296875,37.54,1.15758825,33.71
2021-06-23 11:20:50.843750000,-38.0,4.0,52.0,67.7721875,33.66,1.157268,33.71
2021-06-23 11:20:50.851562500,-38.0,4.0,51.75,67.770078125,29.854999999999997,1.15694775,33.71
2021-06-23 11:20:50.859375000,-38.0,4.0,51.5,67.76796875000001,26.05,1.1566275,33.71
2021-06-23 11:20:50.867187500,-38.0,4.0,51.25,67.765859375,22.37,1.15630725,33.71
2021-06-23 11:20:50.875000000,-38.0,4.0,51.0,67.76375,18.69,1.155987,33.71
2021-06-23 11:20:50.882812500,-38.0,4.0,51.25,67.761640625,15.22,1.15566675,33.71
2021-06-23 11:20:50.890625000,-38.0,4.0,51.5,67.75953125000001,11.75,1.1553465,33.71
2021-06-23 11:20:50.898437500,-38.0,4.0,51.75,67.757421875,8.575,1.15502625,33.71
2021-06-23 11:20:50.906250000,-38.0,4.0,52.0,67.7553125,5.4,1.154706,33.71
2021-06-23 11:20:50.914062500,-38.0,4.0,52.0,67.753203125,2.5100000000000002,1.1543857499999999,33.71
2021-06-23 11:20:50.921875000,-38.0,4.0,52.0,67.75109375000001,-0.38,1.1540655,33.71
2021-06-23 11:20:50.929687500,-38.0,4.0,52.0,67.748984375,-3.0949999999999998,1.15374525,33.71
2021-06-23 11:20:50.937500000,-38.0,4.0,52.0,67.746875,-5.81,1.153425,33.71
2021-06-23 11:20:50.945312500,-38.0,4.0,52.0,67.744765625,-8.58,1.15310475,33.71
2021-06-23 11:20:50.953125000,-38.0,4.0,52.0,67.74265625000001,-11.35,1.1527844999999999,33.71
2021-06-23 11:20:50.960937500,-38.0,4.0,52.0,67.740546875,-14.405000000000001,1.15246425,33.71
2021-06-23 11:20:50.968750000,-38.0,4.0,52.0,67.7384375,-17.46,1.152144,33.71
2021-06-23 11:20:50.976562500,-38.0,4.0,52.0,67.736328125,-20.94,1.15182375,33.71
2021-06-23 11:20:50.984375000,-38.0,4.0,52.0,67.73421875000001,-24.42,1.1515035,33.71
2021-06-23 11:20:50.992187500,-38.0,4.0,52.0,67.73210937500001,-28.325,1.1511832499999999,33.71
2021-06-23 11:20:51.000000000,-38.0,4.0,52.0,67.73,-32.23,1.150863,33.71
2021-06-23 11:20:51.007812500,-38.0,4.0,52.0,67.72796875,-36.42,1.1509430625,33.710625
2021-06-23 11:20:51.015625000,-38.0,4.0,52.0,67.7259375,-40.61,1.151023125,33.71125
2021-06-23 11:20:51.023437500,-38.0,4.0,52.0,67.72390625,-44.86,1.1511031875,33.711875
2021-06-23 11:20:51.031250000,-38.0,4.0,52.0,67.721875,-49.11,1.1511832499999999,33.7125
2021-06-23 11:20:51.039062500,-38.0,4.0,52.0,67.71984375000001,-53.19,1.1512633125,33.713125
2021-06-23 11:20:51.046875000,-38.0,4.0,52.0,67.71781250000001,-57.27,1.151343375,33.71375
2021-06-23 11:20:51.054687500,-38.0,4.0,52.0,67.71578125,-61.06,1.1514234374999999,33.714375
2021-06-23 11:20:51.062500000,-38.0,4.0,52.0,67.71375,-64.85,1.1515035,33.715
2021-06-23 11:20:51.070312500,-38.0,4.0,52.0,67.71171875,-68.37,1.1515835625,33.715625
2021-06-23 11:20:51.078125000,-38.0,4.0,52.0,67.7096875,-71.89,1.1516636249999999,33.71625
2021-06-23 11:20:51.085937500,-38.0,4.0,52.0,67.70765625,-75.345,1.1517436875,33.716875
2021-06-23 11:20:51.093750000,-38.0,4.0,52.0,67.705625,-78.8,1.15182375,33.7175
2021-06-23 11:20:51.101562500,-38.0,4.0,52.0,67.70359375000001,-82.565,1.1519038124999998,33.718125
2021-06-23 11:20:51.109375000,-38.0,4.0,52.0,67.70156250000001,-86.33,1.151983875,33.71875
2021-06-23 11:20:51.117187500,-38.0,4.0,52.0,67.69953125,-90.89,1.1520639375,33.719375
2021-06-23 11:20:51.125000000,-38.0,4.0,52.0,67.6975,-95.45,1.1521439999999998,33.72
2021-06-23 11:20:51.132812500,-38.0,4.0,52.0,67.69546875,-101.235,1.1522240625,33.720625
2021-06-23 11:20:51.140625000,-38.0,4.0,52.0,67.6934375,-107.02,1.152304125,33.72125
2021-06-23 11:20:51.148437500,-38.0,4.0,52.0,67.69140625,-114.16999999999999,1.1523841875,33.721875
2021-06-23 11:20:51.156250000,-38.0,4.0,52.0,67.689375,-121.32,1.15246425,33.7225
2021-06-23 11:20:51.164062500,-38.0,4.0,52.0,67.68734375,-129.39,1.1525443125,33.723124999999996
2021-06-23 11:20:51.171875000,-38.0,4.0,52.0,67.68531250000001,-137.46,1.152624375,33.723749999999995
2021-06-23 11:20:51.179687500,-38.0,4.0,52.0,67.68328125000001,-145.315,1.1527044375,33.724374999999995
2021-06-23 11:20:51.187500000,-38.0,4.0,52.0,67.68125,-153.17,1.1527844999999999,33.724999999999994
2021-06-23 11:20:51.195312500,-38.0,4.0,52.0,67.67921875,-159.11,1.1528645625,33.725625
2021-06-23 11:20:51.203125000,-38.0,4.0,52.0,67.6771875,-165.05,1.152944625,33.72625
2021-06-23 11:20:51.210937500,-38.0,4.0,52.0,67.67515625,-167.235,1.1530246874999999,33.726875
2021-06-23 11:20:51.218750000,-38.0,4.0,52.0,67.673125,-169.42,1.15310475,33.7275
2021-06-23 11:20:51.226562500,-38.0,4.0,52.0,67.67109375,-166.45999999999998,1.1531848125,33.728125
2021-06-23 11:20:51.234375000,-38.0,4.0,52.0,67.66906250000001,-163.5,1.1532648749999999,33.72875
2021-06-23 11:20:51.242187500,-38.0,4.0,52.0,67.66703125000001,-154.95499999999998,1.1533449375,33.729375
2021-06-23 11:20:51.250000000,-38.0,4.0,52.0,67.665,-146.41,1.153425,33.73
2021-06-23 11:20:51.257812500,-38.0,4.0,52.0,67.66296875,-133.025,1.1533449375,33.73
2021-06-23 11:20:51.265625000,-38.0,4.0,52.0,67.6609375,-119.64,1.1532648749999999,33.73
2021-06-23 11:20:51.273437500,-38.0,4.0,52.0,67.65890625,-103.11,1.1531848125,33.73
2021-06-23 11:20:51.281250000,-38.0,4.0,52.0,67.656875,-86.58,1.15310475,33.73
2021-06-23 11:20:51.289062500,-38.0,4.0,52.0,67.65484375,-69.06,1.1530246874999999,33.73
2021-06-23 11:20:51.296875000,-38.0,4.0,52.0,67.6528125,-51.54,1.152944625,33.73
2021-06-23 11:20:51.304687500,-38.0,4.0,52.0,67.65078125000001,-35.015,1.1528645625,33.73
2021-06-23 11:20:51.312500000,-38.0,4.0,52.0,67.64875,-18.49,1.1527844999999999,33.73
2021-06-23 11:20:51.320312500,-38.0,4.0,52.0,67.64671875,-4.329999999999998,1.1527044375,33.73
2021-06-23 11:20:51.328125000,-38.0,4.0,52.0,67.6446875,9.83,1.152624375,33.73
2021-06-23 11:20:51.335937500,-38.0,4.0,52.0,67.64265625,21.055,1.1525443125,33.73
2021-06-23 11:20:51.343750000,-38.0,4.0,52.0,67.640625,32.28,1.15246425,33.73
2021-06-23 11:20:51.351562500,-38.0,4.0,52.0,67.63859375,40.620000000000005,1.1523841875,33.73
2021-06-23 11:20:51.359375000,-38.0,4.0,52.0,67.6365625,48.96,1.152304125,33.73
2021-06-23 11:20:51.367187500,-38.0,4.0,52.0,67.63453125000001,54.835,1.1522240625,33.73
2021-06-23 11:20:51.375000000,-38.0,4.0,52.0,67.63250000000001,60.71,1.1521439999999998,33.73
2021-06-23 11:20:51.382812500,-38.0,4.0,52.0,67.63046875,64.595,1.1520639375,33.73
2021-06-23 11:20:51.390625000,-38.0,4.0,52.0,67.6284375,68.48,1.151983875,33.73
2021-06-23 11:20:51.398437500,-38.0,4.0,52.0,67.62640625,70.795,1.1519038124999998,33.73
2021-06-23 11:20:51.406250000,-38.0,4.0,52.0,67.624375,73.11,1.15182375,33.73
2021-06-23 11:20:51.414062500,-38.0,4.0,52.0,67.62234375,74.175,1.1517436875,33.73
2021-06-23 11:20:51.421875000,-38.0,4.0,52.0,67.6203125,75.24,1.1516636249999999,33.73
2021-06-23 11:20:51.429687500,-38.0,4.0,52.0,67.61828125,75.38,1.1515835625,33.73
2021-06-23 11:20:51.437500000,-38.0,4.0,52.0,67.61625000000001,75.52,1.1515035,33.73
2021-06-23 11:20:51.445312500,-38.0,4.0,52.0,67.61421875,75.14,1.1514234374999999,33.73
2021-06-23 11:20:51.453125000,-38.0,4.0,52.0,67.6121875,74.76,1.151343375,33.73
2021-06-23 11:20:51.460937500,-38.0,4.0,52.0,67.61015625,74.285,1.1512633125,33.73
2021-06-23 11:20:51.468750000,-38.0,4.0,52.0,67.608125,73.81,1.1511832499999999,33.73
2021-06-23 11:20:51.476562500,-38.0,4.0,52.0,67.60609375,73.63,1.1511031875,33.73
2021-06-23 11:20:51.484375000,-38.0,4.0,52.0,67.6040625,73.45,1.151023125,33.73
2021-06-23 11:20:51.492187500,-38.0,4.0,52.0,67.60203125,73.795,1.1509430625,33.73
2021-06-23 11:20:51.500000000,-38.0,4.0,52.0,67.6,74.14,1.150863,33.73
2021-06-23 11:20:51.507812500,-38.0,4.0,52.0,67.59796875,74.99000000000001,1.15098309375,33.73
2021-06-23 11:20:51.515625000,-38.0,4.0,52.0,67.5959375,75.84,1.1511031875,33.73
2021-06-23 11:20:51.523437500,-38.0,4.0,52.0,67.59390625,76.98,1.15122328125,33.73
2021-06-23 11:20:51.531250000,-38.0,4.0,52.0,67.591875,78.12,1.151343375,33.73
2021-06-23 11:20:51.539062500,-38.0,4.0,52.0,67.58984375,79.255,1.15146346875,33.73
2021-06-23 11:20:51.546875000,-38.0,4.0,52.0,67.5878125,80.39,1.1515835625,33.73
2021-06-23 11:20:51.554687500,-38.0,4.0,52.0,67.58578125,81.285,1.15170365625,33.73
2021-06-23 11:20:51.562500000,-38.0,4.0,52.0,67.58375,82.18,1.15182375,33.73
2021-06-23 11:20:51.570312500,-38.0,4.0,52.0,67.58171875000001,82.78,1.15194384375,33.73
2021-06-23 11:20:51.578125000,-38.0,4.0,52.0,67.5796875,83.38,1.1520639375,33.73
2021-06-23 11:20:51.585937500,-38.0,4.0,52.0,67.57765625,83.75999999999999,1.15218403125,33.73
2021-06-23 11:20:51.593750000,-38.0,4.0,52.0,67.575625,84.14,1.152304125,33.73
2021-06-23 11:20:51.601562500,-38.0,4.0,52.0,67.57359375,84.41,1.15242421875,33.73
2021-06-23 11:20:51.609375000,-38.0,4.0,52.0,67.5715625,84.68,1.1525443125,33.73
2021-06-23 11:20:51.617187500,-38.0,4.0,52.0,67.56953125,84.86500000000001,1.15266440625,33.73
2021-06-23 11:20:51.625000000,-38.0,4.0,52.0,67.5675,85.05,1.1527845,33.73
2021-06-23 11:20:51.632812500,-38.0,4.0,52.0,67.56546875,85.005,1.15290459375,33.73
2021-06-23 11:20:51.640625000,-38.0,4.0,52.0,67.5634375,84.96,1.1530246875,33.73
2021-06-23 11:20:51.648437500,-38.0,4.0,52.0,67.56140625,84.4,1.15314478125,33.73
2021-06-23 11:20:51.656250000,-38.0,4.0,52.0,67.559375,83.84,1.153264875,33.73
2021-06-23 11:20:51.664062500,-38.0,4.0,52.0,67.55734375,82.49000000000001,1.15338496875,33.73
2021-06-23 11:20:51.671875000,-38.0,4.0,52.0,67.5553125,81.14,1.1535050625,33.73
2021-06-23 11:20:51.679687500,-38.0,4.0,52.0,67.55328125,78.86500000000001,1.15362515625,33.73
2021-06-23 11:20:51.687500000,-38.0,4.0,52.0,67.55125,76.59,1.15374525,33.73
2021-06-23 11:20:51.695312500,-38.0,4.0,52.0,67.54921875,73.475,1.15386534375,33.73
2021-06-23 11:20:51.703125000,-38.0,4.0,52.0,67.5471875,70.36,1.1539854375,33.73
2021-06-23 11:20:51.710937500,-38.0,4.0,52.0,67.54515625,66.7,1.15410553125,33.73
2021-06-23 11:20:51.718750000,-38.0,4.0,52.0,67.543125,63.04,1.154225625,33.73
2021-06-23 11:20:51.726562500,-38.0,4.0,52.0,67.54109375,59.215,1.15434571875,33.73
2021-06-23 11:20:51.734375000,-38.0,4.0,52.0,67.5390625,55.39,1.1544658125,33.73
2021-06-23 11:20:51.742187500,-38.0,4.0,52.0,67.53703125,51.735,1.15458590625,33.73
2021-06-23 11:20:51.750000000,-38.0,4.0,52.0,67.535,48.08,1.154706,33.73
2021-06-23 11:20:51.757812500,-38.0,4.0,52.0,67.53296875,44.754999999999995,1.1546259375,33.73
2021-06-23 11:20:51.765625000,-38.0,4.0,52.0,67.5309375,41.43,1.154545875,33.73
2021-06-23 11:20:51.773437500,-38.0,4.0,52.0,67.52890625,38.42,1.1544658125,33.73
2021-06-23 11:20:51.781250000,-38.0,4.0,52.0,67.526875,35.41,1.15438575,33.73
2021-06-23 11:20:51.789062500,-38.0,4.0,52.0,67.52484375,32.54,1.1543056875,33.73
2021-06-23 11:20:51.796875000,-38.0,4.0,52.0,67.5228125,29.67,1.154225625,33.73
2021-06-23 11:20:51.804687500,-38.0,4.0,52.0,67.52078125,26.75,1.1541455625,33.73
2021-06-23 11:20:51.812500000,-38.0,4.0,52.0,67.51875,23.83,1.1540655,33.73
2021-06-23 11:20:51.820312500,-38.0,4.0,52.0,67.51671875,20.75,1.1539854375,33.73
2021-06-23 11:20:51.828125000,-38.0,4.0,52.0,67.5146875,17.67,1.1539053750000001,33.73
2021-06-23 11:20:51.835937500,-38.0,4.0,52.0,67.51265625,14.465,1.1538253125,33.73
2021-06-23 11:20:51.843750000,-38.0,4.0,52.0,67.510625,11.26,1.15374525,33.73
2021-06-23 11:20:51.851562500,-38.0,4.0,52.0,67.50859375,8.08,1.1536651875000001,33.73
2021-06-23 11:20:51.859375000,-38.0,4.0,52.0,67.5065625,4.9,1.153585125,33.73
2021-06-23 11:20:51.867187500,-38.0,4.0,52.0,67.50453125,1.955,1.1535050625,33.73
2021-06-23 11:20:51.875000000,-38.0,4.0,52.0,67.5025,-0.99,1.153425,33.73
2021-06-23 11:20:51.882812500,-38.0,4.0,52.0,67.50046875,-3.58,1.1533449375,33.73
2021-06-23 11:20:51.890625000,-38.0,4.0,52.0,67.4984375,-6.17,1.153264875,33.73
2021-06-23 11:20:51.898437500,-38.0,4.0,52.0,67.49640624999999,-8.45,1.1531848125,33.73
2021-06-23 11:20:51.906250000,-38.0,4.0,52.0,67.494375,-10.73,1.15310475,33.73
2021-06-23 11:20:51.914062500,-38.0,4.0,52.0,67.49234375,-12.895,1.1530246875,33.73
2021-06-23 11:20:51.921875000,-38.0,4.0,52.0,67.4903125,-15.06,1.152944625,33.73
2021-06-23 11:20:51.929687500,-38.0,4.0,52.0,67.48828125,-17.425,1.1528645625,33.73
2021-06-23 11:20:51.937500000,-38.0,4.0,52.0,67.48625,-19.79,1.1527845,33.73
2021-06-23 11:20:51.945312500,-38.0,4.0,52.0,67.48421875,-22.61,1.1527044375,33.73
2021-06-23 11:20:51.953125000,-38.0,4.0,52.0,67.4821875,-25.43,1.152624375,33.73
2021-06-23 11:20:51.960937500,-38.0,4.0,52.0,67.48015625,-28.835,1.1525443125000001,33.73
2021-06-23 11:20:51.968750000,-38.0,4.0,52.0,67.478125,-32.24,1.15246425,33.73
2021-06-23 11:20:51.976562500,-38.0,4.0,52.0,67.47609375,-36.120000000000005,1.1523841875,33.73
2021-06-23 11:20:51.984375000,-38.0,4.0,52.0,67.4740625,-40.0,1.1523041250000001,33.73
2021-06-23 11:20:51.992187500,-38.0,4.0,52.0,67.47203125,-44.065,1.1522240625,33.73
2021-06-23 11:20:52.000000000,-38.0,4.0,52.0,67.47,-48.13,1.152144,33.73
2021-06-23 11:20:52.007812500,-38.0,4.0,52.0,67.468046875,-52.010000000000005,1.1522240625,33.73
2021-06-23 11:20:52.015625000,-38.0,4.0,52.0,67.46609375,-55.89,1.1523041250000001,33.73
2021-06-23 11:20:52.023437500,-38.0,4.0,52.0,67.464140625,-59.325,1.1523841875,33.73
2021-06-23 11:20:52.031250000,-38.0,4.0,52.0,67.4621875,-62.76,1.15246425,33.73
2021-06-23 11:20:52.039062500,-38.0,4.0,52.0,67.460234375,-65.715,1.1525443125000001,33.73
2021-06-23 11:20:52.046875000,-38.0,4.0,52.0,67.45828125,-68.67,1.152624375,33.73
2021-06-23 11:20:52.054687500,-38.0,4.0,52.0,67.456328125,-71.38,1.1527044375,33.73
2021-06-23 11:20:52.062500000,-38.0,4.0,52.0,67.454375,-74.09,1.1527845,33.73
2021-06-23 11:20:52.070312500,-38.0,4.0,52.0,67.452421875,-77.01,1.1528645625,33.73
2021-06-23 11:20:52.078125000,-38.0,4.0,52.0,67.45046875,-79.93,1.152944625,33.73
2021-06-23 11:20:52.085937500,-38.0,4.0,52.0,67.448515625,-83.62,1.1530246875,33.73
2021-06-23 11:20:52.093750000,-38.0,4.0,52.0,67.4465625,-87.31,1.15310475,33.73
2021-06-23 11:20:52.101562500,-38.0,4.0,52.0,67.444609375,-92.225,1.1531848125,33.73
2021-06-23 11:20:52.109375000,-38.0,4.0,52.0,67.44265625,-97.14,1.153264875,33.73
2021-06-23 11:20:52.117187500,-38.0,4.0,52.0,67.440703125,-103.435,1.1533449375,33.73
2021-06-23 11:20:52.125000000,-38.0,4.0,52.0,67.43875,-109.73,1.153425,33.73
2021-06-23 11:20:52.132812500,-38.0,4.0,52.0,67.436796875,-117.055,1.1535050625,33.73
2021-06-23 11:20:52.140625000,-38.0,4.0,52.0,67.43484375,-124.38,1.153585125,33.73
2021-06-23 11:20:52.148437500,-38.0,4.0,52.0,67.432890625,-131.8,1.1536651875000001,33.73
2021-06-23 11:20:52.156250000,-38.0,4.0,52.0,67.4309375,-139.22,1.15374525,33.73
2021-06-23 11:20:52.164062500,-38.0,4.0,52.0,67.428984375,-145.245,1.1538253125,33.73
2021-06-23 11:20:52.171875000,-38.0,4.0,52.0,67.42703125,-151.27,1.1539053750000001,33.73
2021-06-23 11:20:52.179687500,-38.0,4.0,52.0,67.425078125,-154.22500000000002,1.1539854375,33.73
2021-06-23 11:20:52.187500000,-38.0,4.0,52.0,67.423125,-157.18,1.1540655,33.73
2021-06-23 11:20:52.195312500,-38.0,4.0,52.0,67.421171875,-155.635,1.1541455625,33.73
2021-06-23 11:20:52.203125000,-38.0,4.0,52.0,67.41921875,-154.09,1.154225625,33.73
2021-06-23 11:20:52.210937500,-38.0,4.0,52.0,67.417265625,-147.375,1.1543056875,33.73
2021-06-23 11:20:52.218750000,-38.0,4.0,52.0,67.4153125,-140.66,1.15438575,33.73
2021-06-23 11:20:52.226562500,-38.0,4.0,52.0,67.413359375,-129.14499999999998,1.1544658125,33.73
2021-06-23 11:20:52.234375000,-38.0,4.0,52.0,67.41140625,-117.63,1.154545875,33.73
2021-06-23 11:20:52.242187500,-38.0,4.0,52.0,67.409453125,-102.66,1.1546259375,33.73
2021-06-23 11:20:52.250000000,-38.0,4.0,52.0,67.4075,-87.69,1.154706,33.73
2021-06-23 11:20:52.257812500,-38.0,4.0,52.0,67.405546875,-71.21,1.15458590625,33.73
2021-06-23 11:20:52.265625000,-38.0,4.0,52.0,67.40359375,-54.73,1.1544658125,33.73
2021-06-23 11:20:52.273437500,-38.0,4.0,52.0,67.401640625,-38.7,1.15434571875,33.73
2021-06-23 11:20:52.281250000,-38.0,4.0,52.0,67.3996875,-22.67,1.154225625,33.73
2021-06-23 11:20:52.289062500,-38.0,4.0,52.0,67.397734375,-8.575000000000001,1.15410553125,33.73
2021-06-23 11:20:52.296875000,-38.0,4.0,52.0,67.39578125,5.52,1.1539854375,33.73
2021-06-23 11:20:52.304687500,-38.0,4.0,52.0,67.393828125,16.905,1.15386534375,33.73
2021-06-23 11:20:52.312500000,-38.0,4.0,52.0,67.391875,28.29,1.15374525,33.73
2021-06-23 11:20:52.320312500,-38.0,4.0,52.0,67.389921875,36.84,1.15362515625,33.73
2021-06-23 11:20:52.328125000,-38.0,4.0,52.0,67.38796875,45.39,1.1535050625,33.73
2021-06-23 11:20:52.335937500,-38.0,4.0,52.0,67.386015625,51.39,1.15338496875,33.73
2021-06-23 11:20:52.343750000,-38.0,4.0,52.0,67.3840625,57.39,1.153264875,33.73
2021-06-23 11:20:52.351562500,-38.0,4.0,52.0,67.382109375,61.26,1.15314478125,33.73
2021-06-23 11:20:52.359375000,-38.0,4.0,52.0,67.38015625,65.13,1.1530246875,33.73
2021-06-23 11:20:52.367187500,-38.0,4.0,52.0,67.378203125,67.3,1.15290459375,33.73
2021-06-23 11:20:52.375000000,-38.0,4.0,52.0,67.37625,69.47,1.1527845,33.73
2021-06-23 11:20:52.382812500,-38.0,4.0,52.0,67.374296875,70.32,1.15266440625,33.73
2021-06-23 11:20:52.390625000,-38.0,4.0,52.0,67.37234375,71.17,1.1525443125,33.73
2021-06-23 11:20:52.398437500,-38.0,4.0,52.0,67.370390625,71.11,1.15242421875,33.73
2021-06-23 11:20:52.406250000,-38.0,4.0,52.0,67.3684375,71.05,1.152304125,33.73
2021-06-23 11:20:52.414062500,-38.0,4.0,52.0,67.366484375,70.49000000000001,1.15218403125,33.73
2021-06-23 11:20:52.421875000,-38.0,4.0,52.0,67.36453125,69.93,1.1520639375,33.73
2021-06-23 11:20:52.429687500,-38.0,4.0,52.0,67.362578125,69.275,1.15194384375,33.73
2021-06-23 11:20:52.437500000,-38.0,4.0,52.0,67.360625,68.62,1.15182375,33.73
2021-06-23 11:20:52.445312500,-38.0,4.0,52.0,67.358671875,68.18,1.15170365625,33.73
2021-06-23 11:20:52.453125000,-38.0,4.0,52.0,67.35671875,67.74,1.1515835625,33.73
2021-06-23 11:20:52.460937500,-38.0,4.0,52.0,67.354765625,67.675,1.15146346875,33.73
2021-06-23 11:20:52.468750000,-38.0,4.0,52.0,67.3528125,67.61,1.151343375,33.73
2021-06-23 11:20:52.476562500,-38.0,4.0,52.0,67.350859375,67.93,1.15122328125,33.73
2021-06-23 11:20:52.484375000,-38.0,4.0,52.0,67.34890625,68.25,1.1511031875,33.73
2021-06-23 11:20:52.492187500,-38.0,4.0,52.0,67.346953125,68.8,1.15098309375,33.73
2021-06-23 11:20:52.500000000,-38.0,4.0,52.0,67.345,69.35,1.150863,33.73
2021-06-23 11:20:52.507812500,-38.0,4.0,52.0,67.343046875,69.97,1.1511832499999999,33.73
2021-06-23 11:20:52.515625000,-38.0,4.0,52.0,67.34109375,70.59,1.1515035,33.73
2021-06-23 11:20:52.523437500,-38.0,4.0,52.0,67.339140625,71.14500000000001,1.15182375,33.73
2021-06-23 11:20:52.531250000,-38.0,4.0,52.0,67.3371875,71.7,1.152144,33.73
2021-06-23 11:20:52.539062500,-38.0,4.0,52.0,67.335234375,72.15,1.15246425,33.73
2021-06-23 11:20:52.546875000,-38.0,4.0,52.0,67.33328125,72.6,1.1527844999999999,33.73
2021-06-23 11:20:52.554687500,-38.0,4.0,52.0,67.331328125,73.03,1.15310475,33.73
2021-06-23 11:20:52.562500000,-38.0,4.0,52.0,67.329375,73.46,1.153425,33.73
2021-06-23 11:20:52.570312500,-38.0,4.0,52.0,67.327421875,73.965,1.15374525,33.73
2021-06-23 11:20:52.578125000,-38.0,4.0,52.0,67.32546875,74.47,1.1540655,33.73
2021-06-23 11:20:52.585937500,-38.0,4.0,52.0,67.323515625,75.095,1.1543857499999999,33.73
2021-06-23 11:20:52.593750000,-38.0,4.0,52.0,67.3215625,75.72,1.154706,33.73
2021-06-23 11:20:52.601562500,-38.0,4.0,52.0,67.319609375,76.33500000000001,1.15502625,33.73
2021-06-23 11:20:52.609375000,-38.0,4.0,52.0,67.31765625,76.95,1.1553465,33.73
2021-06-23 11:20:52.617187500,-38.0,4.0,52.0,67.315703125,77.265,1.15566675,33.73
2021-06-23 11:20:52.625000000,-38.0,4.0,52.0,67.31375,77.58,1.155987,33.73
2021-06-23 11:20:52.632812500,-38.0,4.0,52.0,67.311796875,77.255,1.15630725,33.73
2021-06-23 11:20:52.640625000,-38.0,4.0,52.0,67.30984375,76.93,1.1566275,33.73
2021-06-23 11:20:52.648437500,-38.0,4.0,52.0,67.307890625,75.69,1.15694775,33.73
2021-06-23 11:20:52.656250000,-38.0,4.0,52.0,67.3059375,74.45,1.157268,33.73
2021-06-23 11:20:52.664062500,-38.0,4.0,52.0,67.303984375,72.225,1.15758825,33.73
2021-06-23 11:20:52.671875000,-38.0,4.0,52.0,67.30203125,70.0,1.1579085,33.73
2021-06-23 11:20:52.679687500,-38.0,4.0,52.0,67.300078125,66.955,1.15822875,33.73
2021-06-23 11:20:52.687500000,-38.0,4.0,52.0,67.298125,63.91,1.158549,33.73
2021-06-23 11:20:52.695312500,-38.0,4.0,52.0,67.296171875,60.379999999999995,1.15886925,33.73
2021-06-23 11:20:52.703125000,-38.0,4.0,52.0,67.29421875,56.85,1.1591895,33.73
2021-06-23 11:20:52.710937500,-38.0,4.0,52.0,67.292265625,53.230000000000004,1.15950975,33.73
2021-06-23 11:20:52.718750000,-38.0,4.0,52.0,67.2903125,49.61,1.15983,33.73
2021-06-23 11:20:52.726562500,-38.0,4.0,52.0,67.288359375,46.235,1.16015025,33.73
2021-06-23 11:20:52.734375000,-38.0,4.0,52.0,67.28640625,42.86,1.1604705,33.73
2021-06-23 11:20:52.742187500,-38.0,4.0,52.0,67.284453125,39.885,1.16079075,33.73
2021-06-23 11:20:52.750000000,-38.0,4.0,52.0,67.2825,36.91,1.161111,33.73
2021-06-23 11:20:52.757812500,-38.0,4.0,52.0,67.280546875,34.33,1.16083078125,33.73
2021-06-23 11:20:52.765625000,-38.0,4.0,52.0,67.27859375,31.75,1.1605505625,33.73
2021-06-23 11:20:52.773437500,-38.0,4.0,52.0,67.276640625,29.425,1.16027034375,33.73
2021-06-23 11:20:52.781250000,-38.0,4.0,52.0,67.2746875,27.1,1.159990125,33.73
2021-06-23 11:20:52.789062500,-38.0,4.0,52.0,67.272734375,24.825000000000003,1.15970990625,33.73
2021-06-23 11:20:52.796875000,-38.0,4.0,52.0,67.27078125,22.55,1.1594296875,33.73
2021-06-23 11:20:52.804687500,-38.0,4.0,52.0,67.268828125,20.15,1.15914946875,33.73
2021-06-23 11:20:52.812500000,-38.0,4.0,52.0,67.266875,17.75,1.15886925,33.73
2021-06-23 11:20:52.820312500,-38.0,4.0,52.0,67.264921875,15.145,1.15858903125,33.73
2021-06-23 11:20:52.828125000,-38.0,4.0,52.0,67.26296875,12.54,1.1583088125,33.73
2021-06-23 11:20:52.835937500,-38.0,4.0,52.0,67.261015625,9.78,1.1580285937500001,33.73
2021-06-23 11:20:52.843750000,-38.0,4.0,52.0,67.2590625,7.02,1.157748375,33.73
2021-06-23 11:20:52.851562500,-38.0,4.0,52.0,67.257109375,4.26,1.15746815625,33.73
2021-06-23 11:20:52.859375000,-38.0,4.0,52.0,67.25515625,1.5,1.1571879375,33.73
2021-06-23 11:20:52.867187500,-38.0,4.0,52.0,67.253203125,-1.08,1.15690771875,33.73
2021-06-23 11:20:52.875000000,-38.0,4.0,52.0,67.25125,-3.66,1.1566275,33.73
2021-06-23 11:20:52.882812500,-38.0,4.0,52.0,67.249296875,-5.97,1.15634728125,33.73
2021-06-23 11:20:52.890625000,-38.0,4.0,52.0,67.24734375,-8.28,1.1560670625,33.73
2021-06-23 11:20:52.898437500,-38.0,4.0,52.0,67.245390625,-10.36,1.15578684375,33.73
2021-06-23 11:20:52.906250000,-38.0,4.0,52.0,67.2434375,-12.44,1.1555066250000001,33.73
2021-06-23 11:20:52.914062500,-38.0,4.0,52.0,67.241484375,-14.485,1.15522640625,33.73
2021-06-23 11:20:52.921875000,-38.0,4.0,52.0,67.23953125,-16.53,1.1549461875,33.73
2021-06-23 11:20:52.929687500,-38.0,4.0,52.0,67.237578125,-18.770000000000003,1.15466596875,33.73
2021-06-23 11:20:52.937500000,-38.0,4.0,52.0,67.235625,-21.01,1.15438575,33.73
2021-06-23 11:20:52.945312500,-38.0,4.0,52.0,67.233671875,-23.62,1.1541055312500001,33.73
2021-06-23 11:20:52.953125000,-38.0,4.0,52.0,67.23171875,-26.23,1.1538253125,33.73
2021-06-23 11:20:52.960937500,-38.0,4.0,52.0,67.229765625,-29.265,1.15354509375,33.73
2021-06-23 11:20:52.968750000,-38.0,4.0,52.0,67.2278125,-32.3,1.153264875,33.73
2021-06-23 11:20:52.976562500,-38.0,4.0,52.0,67.225859375,-35.644999999999996,1.1529846562500001,33.73
2021-06-23 11:20:52.984375000,-38.0,4.0,52.0,67.22390625,-38.99,1.1527044375,33.73
2021-06-23 11:20:52.992187500,-38.0,4.0,52.0,67.221953125,-42.44,1.15242421875,33.73
2021-06-23 11:20:53.000000000,-38.0,4.0,52.0,67.22,-45.89,1.152144,33.73
2021-06-23 11:20:53.007812500,-38.0,4.0,52.0,67.218671875,-49.254999999999995,1.1522240625,33.729375
2021-06-23 11:20:53.015625000,-38.0,4.0,52.0,67.21734375,-52.62,1.1523041250000001,33.72875
2021-06-23 11:20:53.023437500,-38.0,4.0,52.0,67.216015625,-55.775,1.1523841875,33.728125
2021-06-23 11:20:53.031250000,-38.0,4.0,52.0,67.2146875,-58.93,1.15246425,33.7275
2021-06-23 11:20:53.039062500,-38.0,4.0,52.0,67.213359375,-61.879999999999995,1.1525443125000001,33.726875
2021-06-23 11:20:53.046875000,-38.0,4.0,52.0,67.21203125,-64.83,1.152624375,33.72625
2021-06-23 11:20:53.054687500,-38.0,4.0,52.0,67.210703125,-67.745,1.1527044375,33.725625
2021-06-23 11:20:53.062500000,-38.0,4.0,52.0,67.209375,-70.66,1.1527845,33.724999999999994
2021-06-23 11:20:53.070312500,-38.0,4.0,52.0,67.208046875,-73.83500000000001,1.1528645625,33.724374999999995
2021-06-23 11:20:53.078125000,-38.0,4.0,52.0,67.20671875,-77.01,1.152944625,33.723749999999995
2021-06-23 11:20:53.085937500,-38.0,4.0,52.0,67.20539062499999,-80.84,1.1530246875,33.723124999999996
2021-06-23 11:20:53.093750000,-38.0,4.0,52.0,67.20406249999999,-84.67,1.15310475,33.7225
2021-06-23 11:20:53.101562500,-38.0,4.0,52.0,67.202734375,-89.50999999999999,1.1531848125,33.721875
2021-06-23 11:20:53.109375000,-38.0,4.0,52.0,67.20140625,-94.35,1.153264875,33.72125
2021-06-23 11:20:53.117187500,-38.0,4.0,52.0,67.200078125,-100.345,1.1533449375,33.720625
2021-06-23 11:20:53.125000000,-38.0,4.0,52.0,67.19875,-106.34,1.153425,33.72
2021-06-23 11:20:53.132812500,-38.0,4.0,52.0,67.197421875,-113.22,1.1535050625,33.719375
2021-06-23 11:20:53.140625000,-38.0,4.0,52.0,67.19609375,-120.1,1.153585125,33.71875
2021-06-23 11:20:53.148437500,-38.0,4.0,52.0,67.194765625,-127.00999999999999,1.1536651875000001,33.718125
2021-06-23 11:20:53.156250000,-38.0,4.0,52.0,67.1934375,-133.92,1.15374525,33.7175
2021-06-23 11:20:53.164062500,-38.0,4.0,52.0,67.192109375,-139.5,1.1538253125,33.716875
2021-06-23 11:20:53.171875000,-38.0,4.0,52.0,67.19078125,-145.08,1.1539053750000001,33.71625
2021-06-23 11:20:53.179687500,-38.0,4.0,52.0,67.189453125,-147.735,1.1539854375,33.715625
2021-06-23 11:20:53.187500000,-38.0,4.0,52.0,67.188125,-150.39,1.1540655,33.715
2021-06-23 11:20:53.195312500,-38.0,4.0,52.0,67.186796875,-148.76,1.1541455625,33.714375
2021-06-23 11:20:53.203125000,-38.0,4.0,52.0,67.18546875,-147.13,1.154225625,33.71375
2021-06-23 11:20:53.210937500,-38.0,4.0,52.0,67.184140625,-140.57,1.1543056875,33.713125
2021-06-23 11:20:53.218750000,-38.0,4.0,52.0,67.1828125,-134.01,1.15438575,33.7125
2021-06-23 11:20:53.226562500,-38.0,4.0,52.0,67.181484375,-122.88499999999999,1.1544658125,33.711875
2021-06-23 11:20:53.234375000,-38.0,4.0,52.0,67.18015625,-111.76,1.154545875,33.71125
2021-06-23 11:20:53.242187500,-38.0,4.0,52.0,67.178828125,-97.37,1.1546259375,33.710625
2021-06-23 11:20:53.250000000,-38.0,4.0,52.0,67.1775,-82.98,1.154706,33.71
2021-06-23 11:20:53.257812500,-38.0,4.0,52.0,67.176171875,-67.215,1.154706,33.71
2021-06-23 11:20:53.265625000,-38.0,4.0,52.0,67.17484375,-51.45,1.154706,33.71
2021-06-23 11:20:53.273437500,-38.0,4.0,52.0,67.173515625,-36.195,1.154706,33.71
2021-06-23 11:20:53.281250000,-38.0,4.0,52.0,67.17218749999999,-20.94,1.154706,33.71
2021-06-23 11:20:53.289062500,-38.0,4.0,52.0,67.17085937499999,-7.635000000000002,1.154706,33.71
2021-06-23 11:20:53.296875000,-38.0,4.0,52.0,67.16953124999999,5.67,1.154706,33.71
2021-06-23 11:20:53.304687500,-38.0,4.0,52.0,67.168203125,16.28,1.154706,33.71
2021-06-23 11:20:53.312500000,-38.0,4.0,52.0,67.166875,26.89,1.154706,33.71
2021-06-23 11:20:53.320312500,-38.0,4.0,52.0,67.165546875,34.7,1.154706,33.71
2021-06-23 11:20:53.328125000,-38.0,4.0,52.0,67.16421875,42.51,1.154706,33.71
2021-06-23 11:20:53.335937500,-38.0,4.0,52.0,67.162890625,47.82,1.154706,33.71
2021-06-23 11:20:53.343750000,-38.0,4.0,52.0,67.1615625,53.13,1.154706,33.71
2021-06-23 11:20:53.351562500,-38.0,4.0,52.0,67.160234375,56.365,1.154706,33.71
2021-06-23 11:20:53.359375000,-38.0,4.0,52.0,67.15890625,59.6,1.154706,33.71
2021-06-23 11:20:53.367187500,-38.0,4.0,52.0,67.157578125,61.129999999999995,1.154706,33.71
2021-06-23 11:20:53.375000000,-38.0,4.0,52.0,67.15625,62.66,1.154706,33.71
2021-06-23 11:20:53.382812500,-38.0,4.0,52.0,67.154921875,62.834999999999994,1.154706,33.71
2021-06-23 11:20:53.390625000,-38.0,4.0,52.0,67.15359375,63.01,1.154706,33.71
2021-06-23 11:20:53.398437500,-38.0,4.0,52.0,67.152265625,62.205,1.154706,33.71
2021-06-23 11:20:53.406250000,-38.0,4.0,52.0,67.1509375,61.4,1.154706,33.71
2021-06-23 11:20:53.414062500,-38.0,4.0,52.0,67.149609375,60.07,1.154706,33.71
2021-06-23 11:20:53.421875000,-38.0,4.0,52.0,67.14828125,58.74,1.154706,33.71
2021-06-23 11:20:53.429687500,-38.0,4.0,52.0,67.146953125,57.375,1.154706,33.71
2021-06-23 11:20:53.437500000,-38.0,4.0,52.0,67.145625,56.01,1.154706,33.71
2021-06-23 11:20:53.445312500,-38.0,4.0,52.0,67.144296875,55.065,1.154706,33.71
2021-06-23 11:20:53.453125000,-38.0,4.0,52.0,67.14296875,54.12,1.154706,33.71
2021-06-23 11:20:53.460937500,-38.0,4.0,52.0,67.141640625,53.845,1.154706,33.71
2021-06-23 11:20:53.468750000,-38.0,4.0,52.0,67.1403125,53.57,1.154706,33.71
2021-06-23 11:20:53.476562500,-37.75,4.0,52.0,67.13898437499999,53.995000000000005,1.154706,33.71
2021-06-23 11:20:53.484375000,-37.5,4.0,52.0,67.13765624999999,54.42,1.154706,33.71
2021-06-23 11:20:53.492187500,-37.25,4.0,52.0,67.13632812499999,55.385000000000005,1.154706,33.71
2021-06-23 11:20:53.500000000,-37.0,4.0,52.0,67.13499999999999,56.35,1.154706,33.71
2021-06-23 11:20:53.507812500,-37.25,4.0,52.0,67.133671875,57.625,1.154706,33.71
2021-06-23 11:20:53.515625000,-37.5,4.0,52.0,67.13234375,58.9,1.154706,33.71
2021-06-23 11:20:53.523437500,-37.75,4.0,52.0,67.131015625,60.28,1.154706,33.71
2021-06-23 11:20:53.531250000,-38.0,4.0,52.0,67.1296875,61.66,1.154706,33.71
2021-06-23 11:20:53.539062500,-38.0,4.0,52.0,67.128359375,63.04,1.154706,33.71
2021-06-23 11:20:53.546875000,-38.0,4.0,52.0,67.12703125,64.42,1.154706,33.71
2021-06-23 11:20:53.554687500,-38.0,4.0,52.0,67.125703125,65.75,1.154706,33.71
2021-06-23 11:20:53.562500000,-38.0,4.0,52.0,67.124375,67.08,1.154706,33.71
2021-06-23 11:20:53.570312500,-38.0,4.0,52.0,67.123046875,68.32,1.154706,33.71
2021-06-23 11:20:53.578125000,-38.0,4.0,52.0,67.12171875,69.56,1.154706,33.71
2021-06-23 11:20:53.585937500,-38.0,4.0,52.0,67.120390625,70.61,1.154706,33.71
2021-06-23 11:20:53.593750000,-38.0,4.0,52.0,67.1190625,71.66,1.154706,33.71
2021-06-23 11:20:53.601562500,-38.0,4.0,52.0,67.117734375,72.33,1.154706,33.71
2021-06-23 11:20:53.609375000,-38.0,4.0,52.0,67.11640625,73.0,1.154706,33.71
2021-06-23 11:20:53.617187500,-38.0,4.0,52.0,67.115078125,73.07,1.154706,33.71
2021-06-23 11:20:53.625000000,-38.0,4.0,52.0,67.11375,73.14,1.154706,33.71
2021-06-23 11:20:53.632812500,-38.0,4.0,52.0,67.112421875,72.39,1.154706,33.71
2021-06-23 11:20:53.640625000,-38.0,4.0,52.0,67.11109375,71.64,1.154706,33.71
2021-06-23 11:20:53.648437500,-38.0,4.0,52.0,67.109765625,69.97,1.154706,33.71
2021-06-23 11:20:53.656250000,-38.0,4.0,52.0,67.1084375,68.3,1.154706,33.71
2021-06-23 11:20:53.664062500,-38.0,4.0,52.0,67.107109375,65.72999999999999,1.154706,33.71
2021-06-23 11:20:53.671875000,-38.0,4.0,52.0,67.10578124999999,63.16,1.154706,33.71
2021-06-23 11:20:53.679687500,-38.0,4.0,52.0,67.10445312499999,59.86,1.154706,33.71
2021-06-23 11:20:53.687500000,-38.0,4.0,52.0,67.10312499999999,56.56,1.154706,33.71
2021-06-23 11:20:53.695312500,-38.0,4.0,52.0,67.10179687499999,52.825,1.154706,33.71
2021-06-23 11:20:53.703125000,-38.0,4.0,52.0,67.10046875,49.09,1.154706,33.71
2021-06-23 11:20:53.710937500,-38.0,4.0,52.0,67.099140625,45.295,1.154706,33.71
2021-06-23 11:20:53.718750000,-38.0,4.0,52.0,67.0978125,41.5,1.154706,33.71
2021-06-23 11:20:53.726562500,-38.0,4.0,52.0,67.096484375,37.975,1.154706,33.71
2021-06-23 11:20:53.734375000,-38.0,4.0,52.0,67.09515625,34.45,1.154706,33.71
2021-06-23 11:20:53.742187500,-38.0,4.0,52.0,67.093828125,31.415,1.154706,33.71
2021-06-23 11:20:53.750000000,-38.0,4.0,52.0,67.0925,28.38,1.154706,33.71
2021-06-23 11:20:53.757812500,-38.0,4.0,52.0,67.091171875,25.869999999999997,1.1546259375,33.71
2021-06-23 11:20:53.765625000,-38.0,4.0,52.0,67.08984375,23.36,1.154545875,33.71
2021-06-23 11:20:53.773437500,-38.0,4.0,52.0,67.088515625,21.22,1.1544658125,33.71
2021-06-23 11:20:53.781250000,-38.0,4.0,52.0,67.0871875,19.08,1.15438575,33.71
2021-06-23 11:20:53.789062500,-38.0,4.0,52.0,67.085859375,17.04,1.1543056875,33.71
2021-06-23 11:20:53.796875000,-38.0,4.0,52.0,67.08453125,15.0,1.154225625,33.71
2021-06-23 11:20:53.804687500,-38.0,4.0,52.0,67.083203125,12.805,1.1541455625,33.71
2021-06-23 11:20:53.812500000,-38.0,4.0,52.0,67.081875,10.61,1.1540655,33.71
2021-06-23 11:20:53.820312500,-38.0,4.0,52.0,67.080546875,8.105,1.1539854375,33.71
2021-06-23 11:20:53.828125000,-38.0,4.0,52.0,67.07921875,5.6,1.1539053750000001,33.71
2021-06-23 11:20:53.835937500,-38.0,4.0,52.0,67.077890625,2.835,1.1538253125,33.71
2021-06-23 11:20:53.843750000,-38.0,4.0,52.0,67.0765625,0.07,1.15374525,33.71
2021-06-23 11:20:53.851562500,-38.0,4.0,52.0,67.075234375,-2.765,1.1536651875000001,33.71
2021-06-23 11:20:53.859375000,-38.0,4.0,52.0,67.07390625,-5.6,1.153585125,33.71
2021-06-23 11:20:53.867187500,-38.0,4.0,52.0,67.07257812499999,-8.254999999999999,1.1535050625,33.71
2021-06-23 11:20:53.875000000,-38.0,4.0,52.0,67.07124999999999,-10.91,1.153425,33.71
2021-06-23 11:20:53.882812500,-38.0,4.0,52.0,67.06992187499999,-13.2,1.1533449375,33.71
2021-06-23 11:20:53.890625000,-38.0,4.0,52.0,67.06859374999999,-15.49,1.153264875,33.71
2021-06-23 11:20:53.898437500,-38.0,4.0,52.0,67.06726562499999,-17.4,1.1531848125,33.71
2021-06-23 11:20:53.906250000,-38.0,4.0,52.0,67.0659375,-19.31,1.15310475,33.71
2021-06-23 11:20:53.914062500,-38.0,4.0,52.0,67.064609375,-21.025,1.1530246875,33.71
2021-06-23 11:20:53.921875000,-38.0,4.0,52.0,67.06328125,-22.74,1.152944625,33.71
2021-06-23 11:20:53.929687500,-38.0,4.0,52.0,67.061953125,-24.59,1.1528645625,33.71
2021-06-23 11:20:53.937500000,-38.0,4.0,52.0,67.060625,-26.44,1.1527845,33.71
2021-06-23 11:20:53.945312500,-38.0,4.0,52.0,67.059296875,-28.755000000000003,1.1527044375,33.71
2021-06-23 11:20:53.953125000,-38.0,4.0,52.0,67.05796875,-31.07,1.152624375,33.71
2021-06-23 11:20:53.960937500,-38.0,4.0,52.0,67.056640625,-34.04,1.1525443125000001,33.71
2021-06-23 11:20:53.968750000,-38.0,4.0,52.0,67.0553125,-37.01,1.15246425,33.71
2021-06-23 11:20:53.976562500,-38.0,4.0,52.0,67.053984375,-40.595,1.1523841875,33.71
2021-06-23 11:20:53.984375000,-38.0,4.0,52.0,67.05265625,-44.18,1.1523041250000001,33.71
2021-06-23 11:20:53.992187500,-38.0,4.0,52.0,67.051328125,-48.155,1.1522240625,33.71
2021-06-23 11:20:54.000000000,-38.0,4.0,52.0,67.05,-52.13,1.152144,33.71
2021-06-23 11:20:54.007812500,-38.0,4.0,52.0,67.04859375,-56.135000000000005,1.15234415625,33.710625
2021-06-23 11:20:54.015625000,-38.0,4.0,52.0,67.04718749999999,-60.14,1.1525443125000001,33.71125
2021-06-23 11:20:54.023437500,-38.0,4.0,52.0,67.04578124999999,-63.855,1.1527444687500001,33.711875
2021-06-23 11:20:54.031250000,-38.0,4.0,52.0,67.044375,-67.57,1.152944625,33.7125
2021-06-23 11:20:54.039062500,-38.0,4.0,52.0,67.04296875,-70.85499999999999,1.15314478125,33.713125
2021-06-23 11:20:54.046875000,-38.0,4.0,52.0,67.0415625,-74.14,1.1533449375,33.71375
2021-06-23 11:20:54.054687500,-38.0,4.0,52.0,67.04015625,-77.09,1.15354509375,33.714375
2021-06-23 11:20:54.062500000,-38.0,4.0,52.0,67.03875,-80.04,1.15374525,33.715
2021-06-23 11:20:54.070312500,-38.0,4.0,52.0,67.03734374999999,-82.975,1.15394540625,33.715625
2021-06-23 11:20:54.078125000,-38.0,4.0,52.0,67.0359375,-85.91,1.1541455625,33.71625
2021-06-23 11:20:54.085937500,-38.0,4.0,52.0,67.03453125,-89.27,1.1543457187500001,33.716875
2021-06-23 11:20:54.093750000,-38.0,4.0,52.0,67.033125,-92.63,1.1545458750000002,33.7175
2021-06-23 11:20:54.101562500,-38.0,4.0,52.0,67.03171875,-96.86,1.15474603125,33.718125
2021-06-23 11:20:54.109375000,-38.0,4.0,52.0,67.0303125,-101.09,1.1549461875,33.71875
2021-06-23 11:20:54.117187500,-38.0,4.0,52.0,67.02890624999999,-106.39,1.15514634375,33.719375
2021-06-23 11:20:54.125000000,-38.0,4.0,52.0,67.0275,-111.69,1.1553465,33.72
2021-06-23 11:20:54.132812500,-38.0,4.0,52.0,67.02609375,-117.85499999999999,1.15554665625,33.720625
2021-06-23 11:20:54.140625000,-38.0,4.0,52.0,67.0246875,-124.02,1.1557468125,33.72125
2021-06-23 11:20:54.148437500,-38.0,4.0,52.0,67.02328125,-130.29,1.1559469687500001,33.721875
2021-06-23 11:20:54.156250000,-38.0,4.0,52.0,67.021875,-136.56,1.156147125,33.7225
2021-06-23 11:20:54.164062500,-38.0,4.0,52.0,67.02046874999999,-141.70499999999998,1.15634728125,33.723124999999996
2021-06-23 11:20:54.171875000,-38.0,4.0,52.0,67.0190625,-146.85,1.1565474375,33.723749999999995
2021-06-23 11:20:54.179687500,-38.0,4.0,52.0,67.01765625,-149.38,1.15674759375,33.724374999999995
2021-06-23 11:20:54.187500000,-38.0,4.0,52.0,67.01625,-151.91,1.15694775,33.724999999999994
2021-06-23 11:20:54.195312500,-38.0,4.0,52.0,67.01484375,-150.51,1.15714790625,33.725625
2021-06-23 11:20:54.203125000,-38.0,4.0,52.0,67.0134375,-149.11,1.1573480625,33.72625
2021-06-23 11:20:54.210937500,-38.0,4.0,52.0,67.01203124999999,-143.07,1.1575482187500001,33.726875
2021-06-23 11:20:54.218750000,-38.0,4.0,52.0,67.010625,-137.03,1.1577483750000002,33.7275
2021-06-23 11:20:54.226562500,-38.0,4.0,52.0,67.00921875,-126.505,1.15794853125,33.728125
2021-06-23 11:20:54.234375000,-38.0,4.0,52.0,67.0078125,-115.98,1.1581486875,33.72875
2021-06-23 11:20:54.242187500,-38.0,4.0,52.0,67.00640625,-102.025,1.15834884375,33.729375
2021-06-23 11:20:54.250000000,-38.0,4.0,52.0,67.005,-88.07,1.158549,33.73
2021-06-23 11:20:54.257812500,-38.0,4.0,52.0,67.00359375,-72.28999999999999,1.15834884375,33.73
2021-06-23 11:20:54.265625000,-38.0,4.0,52.0,67.0021875,-56.51,1.1581486875,33.73
2021-06-23 11:20:54.273437500,-38.0,4.0,52.0,67.00078125,-40.675,1.15794853125,33.73
2021-06-23 11:20:54.281250000,-38.0,4.0,52.0,66.999375,-24.84,1.1577483750000002,33.73
2021-06-23 11:20:54.289062500,-38.0,4.0,52.0,66.99796875,-10.465,1.1575482187500001,33.73
2021-06-23 11:20:54.296875000,-38.0,4.0,52.0,66.9965625,3.91,1.1573480625,33.73
2021-06-23 11:20:54.304687500,-38.0,4.0,52.0,66.99515625,15.835,1.15714790625,33.73
2021-06-23 11:20:54.312500000,-38.0,4.0,52.0,66.99375,27.76,1.15694775,33.73
2021-06-23 11:20:54.320312500,-38.0,4.0,52.0,66.99234375,36.795,1.15674759375,33.73
2021-06-23 11:20:54.328125000,-38.0,4.0,52.0,66.9909375,45.83,1.1565474375,33.73
2021-06-23 11:20:54.335937500,-38.0,4.0,52.0,66.98953125,51.980000000000004,1.15634728125,33.73
2021-06-23 11:20:54.343750000,-38.0,4.0,52.0,66.988125,58.13,1.156147125,33.73
2021-06-23 11:20:54.351562500,-38.0,4.0,52.0,66.98671875,61.705,1.1559469687500001,33.73
2021-06-23 11:20:54.359375000,-38.0,4.0,52.0,66.9853125,65.28,1.1557468125,33.73
2021-06-23 11:20:54.367187500,-38.0,4.0,52.0,66.98390625,66.725,1.15554665625,33.73
2021-06-23 11:20:54.375000000,-38.0,4.0,52.0,66.9825,68.17,1.1553465,33.73
2021-06-23 11:20:54.382812500,-38.0,4.0,52.0,66.98109375,67.985,1.15514634375,33.73
2021-06-23 11:20:54.390625000,-38.0,4.0,52.0,66.9796875,67.8,1.1549461875,33.73
2021-06-23 11:20:54.398437500,-38.0,4.0,52.0,66.97828125,66.495,1.15474603125,33.73
2021-06-23 11:20:54.406250000,-38.0,4.0,52.0,66.976875,65.19,1.1545458750000002,33.73
2021-06-23 11:20:54.414062500,-38.0,4.0,52.0,66.97546875,63.29,1.1543457187500001,33.73
2021-06-23 11:20:54.421875000,-38.0,4.0,52.0,66.9740625,61.39,1.1541455625,33.73
2021-06-23 11:20:54.429687500,-38.0,4.0,52.0,66.97265625,59.385000000000005,1.15394540625,33.73
2021-06-23 11:20:54.437500000,-38.0,4.0,52.0,66.97125,57.38,1.15374525,33.73
2021-06-23 11:20:54.445312500,-38.0,4.0,52.0,66.96984375,55.755,1.15354509375,33.73
2021-06-23 11:20:54.453125000,-38.0,4.0,52.0,66.96843750000001,54.13,1.1533449375,33.73
2021-06-23 11:20:54.460937500,-38.0,4.0,52.0,66.96703125,53.24,1.15314478125,33.73
2021-06-23 11:20:54.468750000,-38.0,4.0,52.0,66.965625,52.35,1.152944625,33.73
2021-06-23 11:20:54.476562500,-38.0,4.0,52.0,66.96421875,52.365,1.1527444687500001,33.73
2021-06-23 11:20:54.484375000,-38.0,4.0,52.0,66.9628125,52.38,1.1525443125000001,33.73
2021-06-23 11:20:54.492187500,-38.0,4.0,52.0,66.96140625,53.230000000000004,1.15234415625,33.73
2021-06-23 11:20:54.500000000,-38.0,4.0,52.0,66.96000000000001,54.08,1.152144,33.73
2021-06-23 11:20:54.507812500,-38.0,4.0,52.0,66.95859375,55.535,1.15218403125,33.73
2021-06-23 11:20:54.515625000,-38.0,4.0,52.0,66.9571875,56.99,1.1522240625,33.73
2021-06-23 11:20:54.523437500,-38.0,4.0,52.0,66.95578125,58.71,1.15226409375,33.73
2021-06-23 11:20:54.531250000,-38.0,4.0,52.0,66.954375,60.43,1.1523041250000001,33.73
2021-06-23 11:20:54.539062500,-38.0,4.0,52.0,66.95296875,62.135000000000005,1.15234415625,33.73
2021-06-23 11:20:54.546875000,-38.0,4.0,52.0,66.9515625,63.84,1.1523841875,33.73
2021-06-23 11:20:54.554687500,-38.0,4.0,52.0,66.95015625,65.355,1.15242421875,33.73
2021-06-23 11:20:54.562500000,-38.0,4.0,52.0,66.94875,66.87,1.15246425,33.73
2021-06-23 11:20:54.570312500,-38.0,4.0,52.0,66.94734375,68.14,1.15250428125,33.73
2021-06-23 11:20:54.578125000,-38.0,4.0,52.0,66.9459375,69.41,1.1525443125000001,33.73
2021-06-23 11:20:54.585937500,-38.0,4.0,52.0,66.94453125,70.405,1.15258434375,33.73
2021-06-23 11:20:54.593750000,-38.0,4.0,52.0,66.943125,71.4,1.152624375,33.73
2021-06-23 11:20:54.601562500,-38.0,4.0,52.0,66.94171875,72.035,1.15266440625,33.73
2021-06-23 11:20:54.609375000,-38.0,4.0,52.0,66.9403125,72.67,1.1527044375,33.73
2021-06-23 11:20:54.617187500,-38.0,4.0,52.0,66.93890625,72.77000000000001,1.15274446875,33.73
2021-06-23 11:20:54.625000000,-38.0,4.0,52.0,66.9375,72.87,1.1527845,33.73
2021-06-23 11:20:54.632812500,-38.0,4.0,52.0,66.93609375,72.225,1.15282453125,33.73
2021-06-23 11:20:54.640625000,-38.0,4.0,52.0,66.9346875,71.58,1.1528645625,33.73
2021-06-23 11:20:54.648437500,-38.0,4.0,52.0,66.93328125000001,70.08500000000001,1.15290459375,33.73
2021-06-23 11:20:54.656250000,-38.0,4.0,52.0,66.931875,68.59,1.152944625,33.73
2021-06-23 11:20:54.664062500,-38.0,4.0,52.0,66.93046875,66.28,1.15298465625,33.73
2021-06-23 11:20:54.671875000,-38.0,4.0,52.0,66.9290625,63.97,1.1530246874999999,33.73
2021-06-23 11:20:54.679687500,-38.0,4.0,52.0,66.92765625,61.075,1.15306471875,33.73
2021-06-23 11:20:54.687500000,-38.0,4.0,52.0,66.92625,58.18,1.15310475,33.73
2021-06-23 11:20:54.695312500,-38.0,4.0,52.0,66.92484375000001,55.03,1.15314478125,33.73
2021-06-23 11:20:54.703125000,-38.0,4.0,52.0,66.9234375,51.88,1.1531848125,33.73
2021-06-23 11:20:54.710937500,-38.0,4.0,52.0,66.92203125,48.790000000000006,1.15322484375,33.73
2021-06-23 11:20:54.718750000,-38.0,4.0,52.0,66.920625,45.7,1.1532648749999999,33.73
2021-06-23 11:20:54.726562500,-38.0,3.75,52.0,66.91921875,42.845,1.15330490625,33.73
2021-06-23 11:20:54.734375000,-38.0,3.5,52.0,66.9178125,39.99,1.1533449375,33.73
2021-06-23 11:20:54.742187500,-38.0,3.25,52.0,66.91640625000001,37.38,1.15338496875,33.73
2021-06-23 11:20:54.750000000,-38.0,3.0,52.0,66.915,34.77,1.153425,33.73
2021-06-23 11:20:54.757812500,-38.0,3.25,52.0,66.91359375,32.260000000000005,1.15338496875,33.73
2021-06-23 11:20:54.765625000,-38.0,3.5,52.0,66.9121875,29.75,1.1533449375,33.73
2021-06-23 11:20:54.773437500,-38.0,3.75,52.0,66.91078125,27.145,1.15330490625,33.73
2021-06-23 11:20:54.781250000,-38.0,4.0,52.0,66.909375,24.54,1.1532648749999999,33.73
2021-06-23 11:20:54.789062500,-38.0,4.0,52.0,66.90796875000001,21.705,1.15322484375,33.73
2021-06-23 11:20:54.796875000,-38.0,4.0,52.0,66.9065625,18.87,1.1531848125,33.73
2021-06-23 11:20:54.804687500,-38.0,4.0,52.0,66.90515625,15.82,1.15314478125,33.73
2021-06-23 11:20:54.812500000,-38.0,4.0,52.0,66.90375,12.77,1.15310475,33.73
2021-06-23 11:20:54.820312500,-38.0,4.0,52.0,66.90234375,9.66,1.15306471875,33.73
2021-06-23 11:20:54.828125000,-38.0,4.0,52.0,66.9009375,6.55,1.1530246874999999,33.73
2021-06-23 11:20:54.835937500,-38.0,4.0,52.0,66.89953125000001,3.5949999999999998,1.15298465625,33.73
2021-06-23 11:20:54.843750000,-38.0,4.0,52.0,66.89812500000001,0.64,1.152944625,33.73
2021-06-23 11:20:54.851562500,-38.0,4.0,52.0,66.89671875,-1.9799999999999995,1.15290459375,33.73
2021-06-23 11:20:54.859375000,-38.0,4.0,52.0,66.8953125,-4.6,1.1528645625,33.73
2021-06-23 11:20:54.867187500,-38.0,4.0,52.0,66.89390625,-6.885,1.15282453125,33.73
2021-06-23 11:20:54.875000000,-38.0,4.0,52.0,66.8925,-9.17,1.1527845,33.73
2021-06-23 11:20:54.882812500,-38.0,3.75,52.0,66.89109375000001,-11.29,1.15274446875,33.73
2021-06-23 11:20:54.890625000,-38.0,3.5,52.0,66.88968750000001,-13.41,1.1527044375,33.73
2021-06-23 11:20:54.898437500,-38.0,3.25,52.0,66.88828125,-15.66,1.15266440625,33.73
2021-06-23 11:20:54.906250000,-38.0,3.0,52.0,66.886875,-17.91,1.152624375,33.73
2021-06-23 11:20:54.914062500,-38.0,3.25,52.0,66.88546875,-20.560000000000002,1.15258434375,33.73
2021-06-23 11:20:54.921875000,-38.0,3.5,52.0,66.8840625,-23.21,1.1525443125000001,33.73
2021-06-23 11:20:54.929687500,-38.0,3.75,52.0,66.88265625000001,-26.384999999999998,1.15250428125,33.73
2021-06-23 11:20:54.937500000,-38.0,4.0,52.0,66.88125000000001,-29.56,1.15246425,33.73
2021-06-23 11:20:54.945312500,-38.0,3.75,52.0,66.87984375,-33.16,1.15242421875,33.73
2021-06-23 11:20:54.953125000,-38.0,3.5,52.0,66.8784375,-36.76,1.1523841875,33.73
2021-06-23 11:20:54.960937500,-38.0,3.25,52.0,66.87703125,-40.53,1.15234415625,33.73
2021-06-23 11:20:54.968750000,-38.0,3.0,52.0,66.875625,-44.3,1.1523041250000001,33.73
2021-06-23 11:20:54.976562500,-38.0,3.25,52.0,66.87421875000001,-47.94,1.15226409375,33.73
2021-06-23 11:20:54.984375000,-38.0,3.5,52.0,66.87281250000001,-51.58,1.1522240625,33.73
2021-06-23 11:20:54.992187500,-38.0,3.75,52.0,66.87140625,-54.905,1.15218403125,33.73
2021-06-23 11:20:55.000000000,-38.0,4.0,52.0,66.87,-58.23,1.152144,33.73
2021-06-23 11:20:55.007812500,-38.0,4.0,52.0,66.868515625,-61.25,1.15206390625,33.729375
2021-06-23 11:20:55.015625000,-38.0,4.0,52.0,66.86703125000001,-64.27,1.1519838125000001,33.72875
2021-06-23 11:20:55.023437500,-38.0,4.0,52.0,66.865546875,-67.19,1.15190371875,33.728125
2021-06-23 11:20:55.031250000,-38.0,4.0,52.0,66.8640625,-70.11,1.151823625,33.7275
2021-06-23 11:20:55.039062500,-38.0,4.0,52.0,66.862578125,-73.295,1.15174353125,33.726875
2021-06-23 11:20:55.046875000,-38.0,4.0,52.0,66.86109375000001,-76.48,1.1516634375,33.72625
2021-06-23 11:20:55.054687500,-38.0,4.0,52.0,66.859609375,-80.35,1.15158334375,33.725625
2021-06-23 11:20:55.062500000,-38.0,4.0,52.0,66.858125,-84.22,1.15150325,33.724999999999994
2021-06-23 11:20:55.070312500,-38.0,4.0,52.0,66.85664062500001,-89.11500000000001,1.1514231562500001,33.724374999999995
2021-06-23 11:20:55.078125000,-38.0,4.0,52.0,66.85515625000001,-94.01,1.1513430625,33.723749999999995
2021-06-23 11:20:55.085937500,-38.0,4.0,52.0,66.853671875,-100.03999999999999,1.15126296875,33.723124999999996
2021-06-23 11:20:55.093750000,-38.0,4.0,52.0,66.8521875,-106.07,1.151182875,33.7225
2021-06-23 11:20:55.101562500,-38.0,4.0,52.0,66.85070312500001,-112.925,1.15110278125,33.721875
2021-06-23 11:20:55.109375000,-38.0,4.0,52.0,66.84921875,-119.78,1.1510226875,33.72125
2021-06-23 11:20:55.117187500,-38.0,4.0,52.0,66.847734375,-126.66,1.15094259375,33.720625
2021-06-23 11:20:55.125000000,-38.0,4.0,52.0,66.84625,-133.54,1.1508625000000001,33.72
2021-06-23 11:20:55.132812500,-38.0,4.0,52.0,66.84476562500001,-139.195,1.15078240625,33.719375
2021-06-23 11:20:55.140625000,-38.0,4.0,52.0,66.84328125,-144.85,1.1507023125,33.71875
2021-06-23 11:20:55.148437500,-38.0,4.0,52.0,66.841796875,-147.84,1.15062221875,33.718125
2021-06-23 11:20:55.156250000,-38.0,4.0,52.0,66.84031250000001,-150.83,1.150542125,33.7175
2021-06-23 11:20:55.164062500,-38.0,4.0,52.0,66.838828125,-149.895,1.15046203125,33.716875
2021-06-23 11:20:55.171875000,-38.0,4.0,52.0,66.83734375,-148.96,1.1503819375,33.71625
2021-06-23 11:20:55.179687500,-38.0,4.0,52.0,66.835859375,-143.42000000000002,1.1503018437499999,33.715625
2021-06-23 11:20:55.187500000,-38.0,4.0,52.0,66.83437500000001,-137.88,1.15022175,33.715
2021-06-23 11:20:55.195312500,-38.0,4.0,52.0,66.832890625,-127.9,1.15014165625,33.714375
2021-06-23 11:20:55.203125000,-38.0,4.0,52.0,66.83140625,-117.92,1.1500615625,33.71375
2021-06-23 11:20:55.210937500,-38.0,4.0,52.0,66.82992187500001,-104.485,1.14998146875,33.713125
2021-06-23 11:20:55.218750000,-38.0,4.0,52.0,66.8284375,-91.05,1.149901375,33.7125
2021-06-23 11:20:55.226562500,-38.0,4.0,52.0,66.826953125,-75.71,1.14982128125,33.711875
2021-06-23 11:20:55.234375000,-38.0,4.0,52.0,66.82546875,-60.37,1.1497411874999999,33.71125
2021-06-23 11:20:55.242187500,-38.0,4.0,52.0,66.82398437500001,-44.815,1.14966109375,33.710625
2021-06-23 11:20:55.250000000,-38.0,4.0,52.0,66.8225,-29.26,1.149581,33.71
2021-06-23 11:20:55.257812500,-38.0,4.0,52.0,66.821015625,-14.965000000000002,1.149701125,33.71
2021-06-23 11:20:55.265625000,-38.0,4.0,52.0,66.81953125000001,-0.67,1.14982125,33.71
2021-06-23 11:20:55.273437500,-38.0,4.0,52.0,66.81804687500001,11.355,1.149941375,33.71
2021-06-23 11:20:55.281250000,-38.0,4.0,52.0,66.8165625,23.38,1.1500615,33.71
2021-06-23 11:20:55.289062500,-38.0,4.0,52.0,66.815078125,32.63,1.1501816249999999,33.71
2021-06-23 11:20:55.296875000,-38.0,4.0,52.0,66.81359375000001,41.88,1.15030175,33.71
2021-06-23 11:20:55.304687500,-38.0,4.0,52.0,66.812109375,48.25,1.150421875,33.71
2021-06-23 11:20:55.312500000,-38.0,4.0,52.0,66.810625,54.62,1.150542,33.71
2021-06-23 11:20:55.320312500,-38.0,4.0,52.0,66.80914062500001,58.275,1.150662125,33.71
2021-06-23 11:20:55.328125000,-38.0,4.0,52.0,66.80765625000001,61.93,1.15078225,33.71
2021-06-23 11:20:55.335937500,-38.0,4.0,52.0,66.806171875,63.19,1.150902375,33.71
2021-06-23 11:20:55.343750000,-38.0,4.0,52.0,66.8046875,64.45,1.1510224999999998,33.71
2021-06-23 11:20:55.351562500,-38.0,4.0,52.0,66.80320312500001,63.745000000000005,1.1511426249999999,33.71
2021-06-23 11:20:55.359375000,-38.0,4.0,52.0,66.80171875,63.04,1.15126275,33.71
2021-06-23 11:20:55.367187500,-38.0,4.0,52.0,66.800234375,60.945,1.151382875,33.71
2021-06-23 11:20:55.375000000,-38.0,4.0,52.0,66.79875000000001,58.85,1.151503,33.71
2021-06-23 11:20:55.382812500,-38.0,4.0,52.0,66.79726562500001,56.035,1.151623125,33.71
2021-06-23 11:20:55.390625000,-38.0,4.0,52.0,66.79578125,53.22,1.15174325,33.71
2021-06-23 11:20:55.398437500,-38.0,4.0,52.0,66.794296875,50.415,1.151863375,33.71
2021-06-23 11:20:55.406250000,-38.0,4.0,52.0,66.79281250000001,47.61,1.1519835,33.71
2021-06-23 11:20:55.414062500,-38.0,4.0,52.0,66.791328125,45.485,1.1521036249999999,33.71
2021-06-23 11:20:55.421875000,-38.0,4.0,52.0,66.78984375,43.36,1.1522237499999999,33.71
2021-06-23 11:20:55.429687500,-38.0,4.0,52.0,66.788359375,42.364999999999995,1.152343875,33.71
2021-06-23 11:20:55.437500000,-38.0,4.0,52.0,66.78687500000001,41.37,1.152464,33.71
2021-06-23 11:20:55.445312500,-38.0,4.0,52.0,66.785390625,41.66,1.152584125,33.71
2021-06-23 11:20:55.453125000,-38.0,4.0,52.0,66.78390625,41.95,1.15270425,33.71
2021-06-23 11:20:55.460937500,-38.0,4.0,52.0,66.78242187500001,43.345,1.152824375,33.71
2021-06-23 11:20:55.468750000,-38.0,4.0,52.0,66.78093750000001,44.74,1.1529444999999998,33.71
2021-06-23 11:20:55.476562500,-38.0,4.0,52.0,66.779453125,46.89,1.1530646249999998,33.71
2021-06-23 11:20:55.484375000,-38.0,4.0,52.0,66.77796875,49.04,1.1531847499999999,33.71
2021-06-23 11:20:55.492187500,-38.0,4.0,52.0,66.77648437500001,51.525,1.153304875,33.71
2021-06-23 11:20:55.500000000,-38.0,4.0,52.0,66.775,54.01,1.153425,33.71
2021-06-23 11:20:55.507812500,-38.0,4.0,52.0,66.773515625,56.474999999999994,1.1533449375,33.71
2021-06-23 11:20:55.515625000,-38.0,4.0,52.0,66.77203125000001,58.94,1.1532648749999999,33.71
2021-06-23 11:20:55.523437500,-38.0,4.0,52.0,66.77054687500001,61.165,1.1531848125,33.71
2021-06-23 11:20:55.531250000,-38.0,4.0,52.0,66.7690625,63.39,1.15310475,33.71
2021-06-23 11:20:55.539062500,-38.0,4.0,52.0,66.767578125,65.205,1.1530246874999999,33.71
2021-06-23 11:20:55.546875000,-38.0,4.0,52.0,66.76609375000001,67.02,1.152944625,33.71
2021-06-23 11:20:55.554687500,-38.0,4.0,52.0,66.764609375,68.265,1.1528645625,33.71
2021-06-23 11:20:55.562500000,-38.0,4.0,52.0,66.763125,69.51,1.1527844999999999,33.71
2021-06-23 11:20:55.570312500,-38.0,4.0,52.0,66.76164062500001,70.03,1.1527044375,33.71
2021-06-23 11:20:55.578125000,-38.0,4.0,52.0,66.76015625000001,70.55,1.152624375,33.71
2021-06-23 11:20:55.585937500,-38.0,4.0,52.0,66.758671875,70.185,1.1525443125,33.71
2021-06-23 11:20:55.593750000,-38.0,4.0,52.0,66.7571875,69.82,1.15246425,33.71
2021-06-23 11:20:55.601562500,-38.0,4.0,52.0,66.75570312500001,68.52,1.1523841875,33.71
2021-06-23 11:20:55.609375000,-38.0,4.0,52.0,66.75421875,67.22,1.152304125,33.71
2021-06-23 11:20:55.617187500,-38.0,4.0,52.0,66.752734375,65.045,1.1522240625,33.71
2021-06-23 11:20:55.625000000,-38.0,4.0,52.0,66.75125,62.87,1.1521439999999998,33.71
2021-06-23 11:20:55.632812500,-38.0,4.0,52.0,66.74976562500001,60.025,1.1520639375,33.71
2021-06-23 11:20:55.640625000,-38.0,4.0,52.0,66.74828125,57.18,1.151983875,33.71
2021-06-23 11:20:55.648437500,-38.0,4.0,52.0,66.746796875,53.905,1.1519038124999998,33.71
2021-06-23 11:20:55.656250000,-38.0,4.0,52.0,66.74531250000001,50.63,1.15182375,33.71
2021-06-23 11:20:55.664062500,-38.0,4.0,52.0,66.74382812500001,47.14,1.1517436875,33.71
2021-06-23 11:20:55.671875000,-38.0,4.0,52.0,66.74234375,43.65,1.1516636249999999,33.71
2021-06-23 11:20:55.679687500,-38.0,4.0,52.0,66.740859375,40.099999999999994,1.1515835625,33.71
2021-06-23 11:20:55.687500000,-38.0,4.0,52.0,66.73937500000001,36.55,1.1515035,33.71
2021-06-23 11:20:55.695312500,-38.0,4.0,52.0,66.737890625,33.03,1.1514234374999999,33.71
2021-06-23 11:20:55.703125000,-38.0,4.0,52.0,66.73640625,29.51,1.151343375,33.71
2021-06-23 11:20:55.710937500,-38.0,4.0,52.0,66.73492187500001,26.085,1.1512633125,33.71
2021-06-23 11:20:55.718750000,-38.0,4.0,52.0,66.73343750000001,22.66,1.1511832499999999,33.71
2021-06-23 11:20:55.726562500,-38.0,4.0,52.0,66.731953125,19.415,1.1511031875,33.71
2021-06-23 11:20:55.734375000,-38.0,4.0,52.0,66.73046875,16.17,1.151023125,33.71
2021-06-23 11:20:55.742187500,-38.0,4.0,52.0,66.72898437500001,13.18,1.1509430625,33.71
2021-06-23 11:20:55.750000000,-38.0,4.0,52.0,66.7275,10.19,1.150863,33.71
2021-06-23 11:20:55.757812500,-38.0,4.0,52.0,66.726015625,7.525,1.1509430625,33.71
2021-06-23 11:20:55.765625000,-38.0,4.0,52.0,66.72453125000001,4.86,1.151023125,33.71
2021-06-23 11:20:55.773437500,-38.0,4.0,52.0,66.72304687500001,2.515,1.1511031875,33.71
2021-06-23 11:20:55.781250000,-38.0,4.0,52.0,66.7215625,0.17,1.1511832499999999,33.71
2021-06-23 11:20:55.789062500,-38.0,4.0,52.0,66.720078125,-1.9500000000000002,1.1512633125,33.71
2021-06-23 11:20:55.796875000,-38.0,4.0,52.0,66.71859375000001,-4.07,1.151343375,33.71
2021-06-23 11:20:55.804687500,-38.0,4.0,52.0,66.717109375,-6.17,1.1514234374999999,33.71
2021-06-23 11:20:55.812500000,-38.0,4.0,52.0,66.715625,-8.27,1.1515035,33.71
2021-06-23 11:20:55.820312500,-38.0,4.0,52.0,66.71414062500001,-10.58,1.1515835625,33.71
2021-06-23 11:20:55.828125000,-38.0,4.0,52.0,66.71265625000001,-12.89,1.1516636249999999,33.71
2021-06-23 11:20:55.835937500,-38.0,4.0,52.0,66.711171875,-15.59,1.1517436875,33.71
2021-06-23 11:20:55.843750000,-38.0,4.0,52.0,66.7096875,-18.29,1.15182375,33.71
2021-06-23 11:20:55.851562500,-38.0,4.0,52.0,66.70820312500001,-21.45,1.1519038124999998,33.71
2021-06-23 11:20:55.859375000,-38.0,4.0,52.0,66.70671875000001,-24.61,1.151983875,33.71
2021-06-23 11:20:55.867187500,-38.0,4.0,52.0,66.705234375,-28.134999999999998,1.1520639375,33.71
2021-06-23 11:20:55.875000000,-38.0,4.0,52.0,66.70375000000001,-31.66,1.1521439999999998,33.71
2021-06-23 11:20:55.882812500,-38.0,4.0,52.0,66.70226562500001,-35.32,1.1522240625,33.71
2021-06-23 11:20:55.890625000,-38.0,4.0,52.0,66.70078125,-38.98,1.152304125,33.71
2021-06-23 11:20:55.898437500,-38.0,4.0,52.0,66.699296875,-42.519999999999996,1.1523841875,33.71
2021-06-23 11:20:55.906250000,-38.0,4.0,52.0,66.69781250000001,-46.06,1.15246425,33.71
2021-06-23 11:20:55.914062500,-38.0,4.0,52.0,66.69632812500001,-49.275000000000006,1.1525443125,33.71
2021-06-23 11:20:55.921875000,-38.0,4.0,52.0,66.69484375,-52.49,1.152624375,33.71
2021-06-23 11:20:55.929687500,-38.0,4.0,52.0,66.693359375,-55.355000000000004,1.1527044375,33.71
2021-06-23 11:20:55.937500000,-38.0,4.0,52.0,66.69187500000001,-58.22,1.1527844999999999,33.71
2021-06-23 11:20:55.945312500,-38.0,4.0,52.0,66.690390625,-60.86,1.1528645625,33.71
2021-06-23 11:20:55.953125000,-38.0,4.0,52.0,66.68890625,-63.5,1.152944625,33.71
2021-06-23 11:20:55.960937500,-38.0,4.0,52.0,66.68742187500001,-66.255,1.1530246874999999,33.71
2021-06-23 11:20:55.968750000,-38.0,4.0,52.0,66.68593750000001,-69.01,1.15310475,33.71
2021-06-23 11:20:55.976562500,-38.0,4.0,52.0,66.684453125,-72.34,1.1531848125,33.71
2021-06-23 11:20:55.984375000,-38.0,4.0,52.0,66.68296875,-75.67,1.1532648749999999,33.71
2021-06-23 11:20:55.992187500,-38.0,4.0,52.0,66.68148437500001,-80.07,1.1533449375,33.71
2021-06-23 11:20:56.000000000,-38.0,4.0,52.0,66.68,-84.47,1.153425,33.71
2021-06-23 11:20:56.007812500,-38.0,4.0,52.0,66.6784375,-90.245,1.15326484375,33.7090625
2021-06-23 11:20:56.015625000,-38.0,4.0,52.0,66.67687500000001,-96.02,1.1531046875,33.708125
2021-06-23 11:20:56.023437500,-38.0,4.0,52.0,66.6753125,-103.05,1.15294453125,33.7071875
2021-06-23 11:20:56.031250000,-38.0,4.0,52.0,66.67375000000001,-110.08,1.152784375,33.70625
2021-06-23 11:20:56.039062500,-38.0,4.0,52.0,66.6721875,-117.60499999999999,1.15262421875,33.7053125
2021-06-23 11:20:56.046875000,-38.0,4.0,52.0,66.670625,-125.13,1.1524640625,33.704375
2021-06-23 11:20:56.054687500,-38.0,4.0,52.0,66.66906250000001,-131.785,1.15230390625,33.7034375
2021-06-23 11:20:56.062500000,-38.0,4.0,52.0,66.6675,-138.44,1.15214375,33.7025
2021-06-23 11:20:56.070312500,-38.0,3.75,52.0,66.66593750000001,-142.505,1.15198359375,33.7015625
2021-06-23 11:20:56.078125000,-38.0,3.5,52.0,66.664375,-146.57,1.1518234375,33.700625
2021-06-23 11:20:56.085937500,-38.0,3.25,52.0,66.6628125,-146.49,1.15166328125,33.6996875
2021-06-23 11:20:56.093750000,-38.0,3.0,52.0,66.66125000000001,-146.41,1.151503125,33.698750000000004
2021-06-23 11:20:56.101562500,-38.0,3.25,52.0,66.6596875,-141.31,1.15134296875,33.6978125
2021-06-23 11:20:56.109375000,-38.0,3.5,52.0,66.65812500000001,-136.21,1.1511828125,33.696875
2021-06-23 11:20:56.117187500,-38.0,3.75,52.0,66.6565625,-126.26,1.15102265625,33.6959375
2021-06-23 11:20:56.125000000,-38.0,4.0,52.0,66.655,-116.31,1.1508625000000001,33.695
2021-06-23 11:20:56.132812500,-38.0,4.0,52.0,66.65343750000001,-102.64,1.15070234375,33.6940625
2021-06-23 11:20:56.140625000,-38.0,4.0,52.0,66.651875,-88.97,1.1505421875,33.693125
2021-06-23 11:20:56.148437500,-38.0,4.0,52.0,66.65031250000001,-73.325,1.15038203125,33.6921875
2021-06-23 11:20:56.156250000,-38.0,4.0,52.0,66.64875,-57.68,1.150221875,33.69125
2021-06-23 11:20:56.164062500,-38.0,4.0,52.0,66.6471875,-41.865,1.15006171875,33.6903125
2021-06-23 11:20:56.171875000,-38.0,4.0,52.0,66.64562500000001,-26.05,1.1499015625,33.689375
2021-06-23 11:20:56.179687500,-38.0,4.0,52.0,66.6440625,-11.505,1.14974140625,33.6884375
2021-06-23 11:20:56.187500000,-38.0,4.0,52.0,66.64250000000001,3.04,1.14958125,33.6875
2021-06-23 11:20:56.195312500,-38.0,4.0,52.0,66.6409375,15.425,1.14942109375,33.6865625
2021-06-23 11:20:56.203125000,-38.0,4.0,52.0,66.639375,27.81,1.1492609375,33.685625
2021-06-23 11:20:56.210937500,-38.0,4.0,52.0,66.63781250000001,37.66,1.14910078125,33.6846875
2021-06-23 11:20:56.218750000,-38.0,4.0,52.0,66.63625,47.51,1.148940625,33.68375
2021-06-23 11:20:56.226562500,-38.0,4.0,52.0,66.63468750000001,54.765,1.14878046875,33.6828125
2021-06-23 11:20:56.234375000,-38.0,4.0,52.0,66.633125,62.02,1.1486203125,33.681875
2021-06-23 11:20:56.242187500,-38.0,4.0,52.0,66.6315625,66.775,1.14846015625,33.6809375
2021-06-23 11:20:56.250000000,-38.0,4.0,52.0,66.63000000000001,71.53,1.1483,33.68
2021-06-23 11:20:56.257812500,-38.0,4.0,52.0,66.6284375,73.955,1.1483800937500002,33.68
2021-06-23 11:20:56.265625000,-38.0,4.0,52.0,66.62687500000001,76.38,1.1484601875,33.68
2021-06-23 11:20:56.273437500,-38.0,4.0,52.0,66.6253125,76.75999999999999,1.14854028125,33.68
2021-06-23 11:20:56.281250000,-38.0,4.0,52.0,66.62375,77.14,1.1486203750000001,33.68
2021-06-23 11:20:56.289062500,-38.0,4.0,52.0,66.62218750000001,75.88,1.14870046875,33.68
2021-06-23 11:20:56.296875000,-38.0,4.0,52.0,66.620625,74.62,1.1487805625,33.68
2021-06-23 11:20:56.304687500,-38.0,4.0,52.0,66.61906250000001,72.25,1.1488606562500001,33.68
2021-06-23 11:20:56.312500000,-38.0,4.0,52.0,66.6175,69.88,1.14894075,33.68
2021-06-23 11:20:56.320312500,-38.0,4.0,52.0,66.6159375,67.025,1.14902084375,33.68
2021-06-23 11:20:56.328125000,-38.0,4.0,52.0,66.61437500000001,64.17,1.1491009375,33.68
2021-06-23 11:20:56.335937500,-38.0,4.0,52.0,66.6128125,61.43,1.1491810312500002,33.68
2021-06-23 11:20:56.343750000,-38.0,4.0,52.0,66.61125000000001,58.69,1.149261125,33.68
2021-06-23 11:20:56.351562500,-38.0,4.0,52.0,66.6096875,56.59,1.14934121875,33.68
2021-06-23 11:20:56.359375000,-38.0,4.0,52.0,66.608125,54.49,1.1494213125000001,33.68
2021-06-23 11:20:56.367187500,-38.0,4.0,52.0,66.60656250000001,53.365,1.14950140625,33.68
2021-06-23 11:20:56.375000000,-38.0,4.0,52.0,66.605,52.24,1.1495815,33.68
2021-06-23 11:20:56.382812500,-38.0,4.0,52.0,66.60343750000001,52.215,1.14966159375,33.68
2021-06-23 11:20:56.390625000,-38.0,4.0,52.0,66.601875,52.19,1.1497416875,33.68
2021-06-23 11:20:56.398437500,-38.0,4.0,52.0,66.6003125,53.135,1.14982178125,33.68
2021-06-23 11:20:56.406250000,-38.0,4.0,52.0,66.59875000000001,54.08,1.149901875,33.68
2021-06-23 11:20:56.414062500,-38.0,4.0,52.0,66.5971875,55.715,1.14998196875,33.68
2021-06-23 11:20:56.421875000,-38.0,4.0,52.0,66.59562500000001,57.35,1.1500620625,33.68
2021-06-23 11:20:56.429687500,-38.0,4.0,52.0,66.5940625,59.3,1.15014215625,33.68
2021-06-23 11:20:56.437500000,-38.0,4.0,52.0,66.5925,61.25,1.1502222500000001,33.68
2021-06-23 11:20:56.445312500,-38.0,4.0,52.0,66.59093750000001,63.185,1.15030234375,33.68
2021-06-23 11:20:56.453125000,-38.0,4.0,52.0,66.589375,65.12,1.1503824375,33.68
2021-06-23 11:20:56.460937500,-38.0,4.0,52.0,66.58781250000001,66.83000000000001,1.15046253125,33.68
2021-06-23 11:20:56.468750000,-38.0,4.0,52.0,66.58625,68.54,1.150542625,33.68
2021-06-23 11:20:56.476562500,-38.0,4.0,52.0,66.5846875,69.92,1.15062271875,33.68
2021-06-23 11:20:56.484375000,-38.0,4.0,52.0,66.58312500000001,71.3,1.1507028125,33.68
2021-06-23 11:20:56.492187500,-38.0,4.0,52.0,66.5815625,72.285,1.15078290625,33.68
2021-06-23 11:20:56.500000000,-38.0,4.0,52.0,66.58000000000001,73.27,1.150863,33.68
2021-06-23 11:20:56.507812500,-38.0,4.0,52.0,66.5784375,73.755,1.15062278125,33.68
2021-06-23 11:20:56.515625000,-38.0,4.0,52.0,66.576875,74.24,1.1503825625,33.68
2021-06-23 11:20:56.523437500,-38.0,4.0,52.0,66.57531250000001,74.025,1.15014234375,33.68
2021-06-23 11:20:56.531250000,-38.0,4.0,52.0,66.57375,73.81,1.1499021249999999,33.68
2021-06-23 11:20:56.539062500,-38.0,4.0,52.0,66.5721875,72.64,1.14966190625,33.68
2021-06-23 11:20:56.546875000,-38.0,4.0,52.0,66.570625,71.47,1.1494216875,33.68
2021-06-23 11:20:56.554687500,-38.0,4.0,52.0,66.5690625,69.14,1.14918146875,33.68
2021-06-23 11:20:56.562500000,-38.0,4.0,52.0,66.56750000000001,66.81,1.14894125,33.68
2021-06-23 11:20:56.570312500,-38.0,4.0,52.0,66.5659375,63.269999999999996,1.14870103125,33.68
2021-06-23 11:20:56.578125000,-38.0,4.0,52.0,66.564375,59.73,1.1484608125,33.68
2021-06-23 11:20:56.585937500,-38.0,4.0,52.0,66.5628125,55.185,1.14822059375,33.68
2021-06-23 11:20:56.593750000,-38.0,4.0,52.0,66.56125,50.64,1.147980375,33.68
2021-06-23 11:20:56.601562500,-38.0,4.0,52.0,66.55968750000001,45.510000000000005,1.14774015625,33.68
2021-06-23 11:20:56.609375000,-38.0,4.0,52.0,66.558125,40.38,1.1474999375,33.68
2021-06-23 11:20:56.617187500,-38.0,4.0,52.0,66.5565625,35.19,1.14725971875,33.68
2021-06-23 11:20:56.625000000,-38.0,4.0,52.0,66.555,30.0,1.1470194999999999,33.68
2021-06-23 11:20:56.632812500,-38.0,4.0,52.0,66.5534375,25.23,1.14677928125,33.68
2021-06-23 11:20:56.640625000,-38.0,4.0,52.0,66.55187500000001,20.46,1.1465390625,33.68
2021-06-23 11:20:56.648437500,-38.0,4.0,52.0,66.5503125,16.385,1.14629884375,33.68
2021-06-23 11:20:56.656250000,-38.0,4.0,52.0,66.54875,12.31,1.146058625,33.68
2021-06-23 11:20:56.664062500,-38.0,4.0,52.0,66.5471875,8.925,1.1458184062499999,33.68
2021-06-23 11:20:56.671875000,-38.0,4.0,52.0,66.545625,5.54,1.1455781875,33.68
2021-06-23 11:20:56.679687500,-38.0,4.0,52.0,66.54406250000001,2.595,1.14533796875,33.68
2021-06-23 11:20:56.687500000,-38.0,4.0,52.0,66.5425,-0.35,1.14509775,33.68
2021-06-23 11:20:56.695312500,-38.0,4.0,52.0,66.5409375,-3.2100000000000004,1.14485753125,33.68
2021-06-23 11:20:56.703125000,-38.0,4.0,52.0,66.539375,-6.07,1.1446173124999999,33.68
2021-06-23 11:20:56.710937500,-38.0,4.0,52.0,66.5378125,-9.135,1.14437709375,33.68
2021-06-23 11:20:56.718750000,-38.0,4.0,52.0,66.53625000000001,-12.2,1.144136875,33.68
2021-06-23 11:20:56.726562500,-38.0,4.0,52.0,66.5346875,-15.59,1.14389665625,33.68
2021-06-23 11:20:56.734375000,-38.0,4.0,52.0,66.533125,-18.98,1.1436564375,33.68
2021-06-23 11:20:56.742187500,-38.0,4.0,52.0,66.5315625,-22.57,1.1434162187499999,33.68
2021-06-23 11:20:56.750000000,-38.0,4.0,52.0,66.53,-26.16,1.143176,33.68
2021-06-23 11:20:56.757812500,-38.0,4.0,52.0,66.52843750000001,-29.705,1.14337615625,33.68
2021-06-23 11:20:56.765625000,-38.0,4.0,52.0,66.526875,-33.25,1.1435763125,33.68
2021-06-23 11:20:56.773437500,-38.0,4.0,52.0,66.5253125,-36.504999999999995,1.14377646875,33.68
2021-06-23 11:20:56.781250000,-38.0,4.0,52.0,66.52375,-39.76,1.143976625,33.68
2021-06-23 11:20:56.789062500,-38.0,4.0,52.0,66.5221875,-42.595,1.1441767812499999,33.68
2021-06-23 11:20:56.796875000,-38.0,4.0,52.0,66.52062500000001,-45.43,1.1443769375,33.68
2021-06-23 11:20:56.804687500,-38.0,4.0,52.0,66.5190625,-47.955,1.14457709375,33.68
2021-06-23 11:20:56.812500000,-38.0,4.0,52.0,66.5175,-50.48,1.14477725,33.68
2021-06-23 11:20:56.820312500,-38.0,4.0,52.0,66.5159375,-52.97,1.14497740625,33.68
2021-06-23 11:20:56.828125000,-38.0,4.0,52.0,66.514375,-55.46,1.1451775625,33.68
2021-06-23 11:20:56.835937500,-38.0,4.0,52.0,66.51281250000001,-58.3,1.14537771875,33.68
2021-06-23 11:20:56.843750000,-38.0,4.0,52.0,66.51125,-61.14,1.1455778749999999,33.68
2021-06-23 11:20:56.851562500,-38.0,4.0,51.75,66.5096875,-64.69,1.1457780312499999,33.68
2021-06-23 11:20:56.859375000,-38.0,4.0,51.5,66.508125,-68.24,1.1459781875,33.68
2021-06-23 11:20:56.867187500,-38.0,4.0,51.25,66.5065625,-72.81,1.14617834375,33.68
2021-06-23 11:20:56.875000000,-38.0,4.0,51.0,66.50500000000001,-77.38,1.1463785,33.68
2021-06-23 11:20:56.882812500,-38.0,4.0,51.25,66.5034375,-83.10499999999999,1.14657865625,33.68
2021-06-23 11:20:56.890625000,-38.0,4.0,51.5,66.501875,-88.83,1.1467788125,33.68
2021-06-23 11:20:56.898437500,-38.0,4.0,51.75,66.5003125,-95.58,1.14697896875,33.68
2021-06-23 11:20:56.906250000,-38.0,4.0,52.0,66.49875,-102.33,1.147179125,33.68
2021-06-23 11:20:56.914062500,-38.0,4.0,52.0,66.49718750000001,-109.555,1.1473792812499999,33.68
2021-06-23 11:20:56.921875000,-38.0,4.0,52.0,66.495625,-116.78,1.1475794375,33.68
2021-06-23 11:20:56.929687500,-38.0,4.0,52.0,66.4940625,-123.47,1.14777959375,33.68
2021-06-23 11:20:56.937500000,-38.0,4.0,52.0,66.4925,-130.16,1.14797975,33.68
2021-06-23 11:20:56.945312500,-38.0,4.0,52.0,66.4909375,-134.875,1.14817990625,33.68
2021-06-23 11:20:56.953125000,-38.0,4.0,52.0,66.48937500000001,-139.59,1.1483800625,33.68
2021-06-23 11:20:56.960937500,-38.0,4.0,52.0,66.4878125,-140.785,1.14858021875,33.68
2021-06-23 11:20:56.968750000,-38.0,4.0,52.0,66.48625,-141.98,1.1487803749999999,33.68
2021-06-23 11:20:56.976562500,-38.0,4.0,52.0,66.4846875,-138.46499999999997,1.1489805312499999,33.68
2021-06-23 11:20:56.984375000,-38.0,4.0,52.0,66.483125,-134.95,1.1491806875,33.68
2021-06-23 11:20:56.992187500,-38.0,4.0,52.0,66.48156250000001,-126.345,1.14938084375,33.68
2021-06-23 11:20:57.000000000,-38.0,4.0,52.0,66.48,-117.74,1.149581,33.68
2021-06-23 11:20:57.007812500,-38.0,4.0,52.0,66.47859375,-104.69999999999999,1.1493408125,33.6815625
2021-06-23 11:20:57.015625000,-38.0,4.0,52.0,66.4771875,-91.66,1.149100625,33.683125
2021-06-23 11:20:57.023437500,-38.0,4.0,52.0,66.47578125,-75.74,1.1488604375,33.6846875
2021-06-23 11:20:57.031250000,-38.0,4.0,52.0,66.47437500000001,-59.82,1.14862025,33.68625
2021-06-23 11:20:57.039062500,-38.0,4.0,52.0,66.47296875,-43.025,1.1483800625,33.6878125
2021-06-23 11:20:57.046875000,-38.0,4.0,52.0,66.4715625,-26.23,1.148139875,33.689375
2021-06-23 11:20:57.054687500,-38.0,4.0,52.0,66.47015625,-10.435,1.1478996875,33.6909375
2021-06-23 11:20:57.062500000,-38.0,4.0,52.0,66.46875,5.36,1.1476595,33.692499999999995
2021-06-23 11:20:57.070312500,-38.0,4.0,52.0,66.46734375,18.855,1.1474193125,33.6940625
2021-06-23 11:20:57.078125000,-38.0,4.0,52.0,66.46593750000001,32.35,1.147179125,33.695625
2021-06-23 11:20:57.085937500,-38.0,4.0,52.0,66.46453125000001,42.980000000000004,1.1469389375,33.6971875
2021-06-23 11:20:57.093750000,-38.0,4.0,52.0,66.463125,53.61,1.14669875,33.69875
2021-06-23 11:20:57.101562500,-38.0,4.0,52.0,66.46171875,61.395,1.1464585625000001,33.700312499999995
2021-06-23 11:20:57.109375000,-38.0,4.0,52.0,66.4603125,69.18,1.1462183750000001,33.701875
2021-06-23 11:20:57.117187500,-38.0,4.0,52.0,66.45890625,74.48,1.1459781875000001,33.7034375
2021-06-23 11:20:57.125000000,-38.0,4.0,52.0,66.45750000000001,79.78,1.1457380000000001,33.705
2021-06-23 11:20:57.132812500,-38.0,4.0,52.0,66.45609375000001,83.015,1.1454978125,33.7065625
2021-06-23 11:20:57.140625000,-38.0,4.0,52.0,66.4546875,86.25,1.145257625,33.708124999999995
2021-06-23 11:20:57.148437500,-38.0,4.0,52.0,66.45328125,87.775,1.1450174375,33.7096875
2021-06-23 11:20:57.156250000,-38.0,4.0,52.0,66.451875,89.3,1.14477725,33.71125
2021-06-23 11:20:57.164062500,-38.0,4.0,52.0,66.45046875,89.445,1.1445370625,33.7128125
2021-06-23 11:20:57.171875000,-38.0,4.0,52.0,66.4490625,89.59,1.144296875,33.714375
2021-06-23 11:20:57.179687500,-38.0,4.0,52.0,66.44765625000001,88.72,1.1440566875,33.715937499999995
2021-06-23 11:20:57.187500000,-38.0,4.0,52.0,66.44625,87.85,1.1438165,33.7175
2021-06-23 11:20:57.195312500,-38.0,4.0,52.0,66.44484375,86.41499999999999,1.1435763125,33.7190625
2021-06-23 11:20:57.203125000,-38.0,4.0,52.0,66.4434375,84.98,1.143336125,33.720625
2021-06-23 11:20:57.210937500,-38.0,4.0,52.0,66.44203125,83.46000000000001,1.1430959375,33.7221875
2021-06-23 11:20:57.218750000,-38.0,4.0,52.0,66.440625,81.94,1.14285575,33.723749999999995
2021-06-23 11:20:57.226562500,-38.0,4.0,52.0,66.43921875000001,80.77,1.1426155625,33.725312499999994
2021-06-23 11:20:57.234375000,-38.0,4.0,52.0,66.4378125,79.6,1.142375375,33.726875
2021-06-23 11:20:57.242187500,-38.0,4.0,52.0,66.43640625,79.035,1.1421351875,33.7284375
2021-06-23 11:20:57.250000000,-38.0,4.0,52.0,66.435,78.47,1.141895,33.73
2021-06-23 11:20:57.257812500,-38.0,4.0,52.0,66.43359375,78.575,1.1419750625,33.73
2021-06-23 11:20:57.265625000,-38.0,4.0,52.0,66.4321875,78.68,1.1420551250000002,33.73
2021-06-23 11:20:57.273437500,-38.0,4.0,52.0,66.43078125,79.315,1.1421351875,33.73
2021-06-23 11:20:57.281250000,-38.0,4.0,52.0,66.42937500000001,79.95,1.14221525,33.73
2021-06-23 11:20:57.289062500,-38.0,4.0,52.0,66.42796875,80.875,1.1422953125000002,33.73
2021-06-23 11:20:57.296875000,-38.0,4.0,52.0,66.4265625,81.8,1.142375375,33.73
2021-06-23 11:20:57.304687500,-38.0,4.0,52.0,66.42515625,82.75,1.1424554375,33.73
2021-06-23 11:20:57.312500000,-38.0,4.0,52.0,66.42375,83.7,1.1425355000000001,33.73
2021-06-23 11:20:57.320312500,-38.0,4.0,52.0,66.42234375,84.49000000000001,1.1426155625,33.73
2021-06-23 11:20:57.328125000,-38.0,4.0,52.0,66.42093750000001,85.28,1.142695625,33.73
2021-06-23 11:20:57.335937500,-38.0,4.0,52.0,66.41953125,85.83,1.1427756875000001,33.73
2021-06-23 11:20:57.343750000,-38.0,4.0,52.0,66.418125,86.38,1.14285575,33.73
2021-06-23 11:20:57.351562500,-38.0,4.0,52.0,66.41671875,86.69999999999999,1.1429358125,33.73
2021-06-23 11:20:57.359375000,-38.0,4.0,52.0,66.4153125,87.02,1.1430158750000001,33.73
2021-06-23 11:20:57.367187500,-38.0,4.0,52.0,66.41390625,87.13,1.1430959375,33.73
2021-06-23 11:20:57.375000000,-38.0,4.0,52.0,66.4125,87.24,1.143176,33.73
2021-06-23 11:20:57.382812500,-38.0,4.0,52.0,66.41109375,87.12,1.1432560625000001,33.73
2021-06-23 11:20:57.390625000,-38.0,4.0,52.0,66.4096875,87.0,1.143336125,33.73
2021-06-23 11:20:57.398437500,-38.0,4.0,52.0,66.40828125,86.515,1.1434161875000002,33.73
2021-06-23 11:20:57.406250000,-38.0,4.0,52.0,66.406875,86.03,1.14349625,33.73
2021-06-23 11:20:57.414062500,-38.0,4.0,52.0,66.40546875,84.96000000000001,1.1435763125,33.73
2021-06-23 11:20:57.421875000,-38.0,4.0,52.0,66.4040625,83.89,1.1436563750000002,33.73
2021-06-23 11:20:57.429687500,-38.0,4.0,52.0,66.40265625,82.02000000000001,1.1437364375,33.73
2021-06-23 11:20:57.437500000,-38.0,4.0,52.0,66.40125,80.15,1.1438165,33.73
2021-06-23 11:20:57.445312500,-38.0,4.0,52.0,66.39984375,77.36500000000001,1.1438965625000002,33.73
2021-06-23 11:20:57.453125000,-38.0,4.0,52.0,66.3984375,74.58,1.143976625,33.73
2021-06-23 11:20:57.460937500,-38.0,4.0,52.0,66.39703125,70.925,1.1440566875,33.73
2021-06-23 11:20:57.468750000,-38.0,4.0,52.0,66.395625,67.27,1.1441367500000001,33.73
2021-06-23 11:20:57.476562500,-38.0,4.0,52.0,66.39421875000001,62.974999999999994,1.1442168125,33.73
2021-06-23 11:20:57.484375000,-38.0,4.0,52.0,66.3928125,58.68,1.144296875,33.73
2021-06-23 11:20:57.492187500,-38.0,4.0,52.0,66.39140625,54.06,1.1443769375000001,33.73
2021-06-23 11:20:57.500000000,-38.0,4.0,52.0,66.39,49.44,1.144457,33.73
2021-06-23 11:20:57.507812500,-38.0,4.0,52.0,66.38859375,44.83,1.144457,33.73
2021-06-23 11:20:57.515625000,-38.0,4.0,52.0,66.3871875,40.22,1.144457,33.73
2021-06-23 11:20:57.523437500,-38.0,4.0,52.0,66.38578125,35.845,1.144457,33.73
2021-06-23 11:20:57.531250000,-38.0,4.0,52.0,66.384375,31.47,1.144457,33.73
2021-06-23 11:20:57.539062500,-38.0,4.0,52.0,66.38296875,27.45,1.144457,33.73
2021-06-23 11:20:57.546875000,-38.0,4.0,52.0,66.3815625,23.43,1.144457,33.73
2021-06-23 11:20:57.554687500,-38.0,4.0,52.0,66.38015625,19.744999999999997,1.144457,33.73
2021-06-23 11:20:57.562500000,-38.0,4.0,52.0,66.37875,16.06,1.144457,33.73
2021-06-23 11:20:57.570312500,-38.0,4.0,52.0,66.37734375,12.605,1.144457,33.73
2021-06-23 11:20:57.578125000,-38.0,4.0,52.0,66.3759375,9.15,1.144457,33.73
2021-06-23 11:20:57.585937500,-38.0,4.0,52.0,66.37453125,5.795,1.144457,33.73
2021-06-23 11:20:57.593750000,-38.0,4.0,52.0,66.373125,2.44,1.144457,33.73
2021-06-23 11:20:57.601562500,-38.0,4.0,52.0,66.37171875,-0.9700000000000002,1.144457,33.73
2021-06-23 11:20:57.609375000,-38.0,4.0,52.0,66.3703125,-4.38,1.144457,33.73
2021-06-23 11:20:57.617187500,-38.0,4.0,52.0,66.36890625,-7.93,1.144457,33.73
2021-06-23 11:20:57.625000000,-38.0,4.0,52.0,66.3675,-11.48,1.144457,33.73
2021-06-23 11:20:57.632812500,-38.0,4.0,52.0,66.36609375,-15.16,1.144457,33.73
2021-06-23 11:20:57.640625000,-38.0,4.0,52.0,66.3646875,-18.84,1.144457,33.73
2021-06-23 11:20:57.648437500,-38.0,4.0,52.0,66.36328125,-22.555,1.144457,33.73
2021-06-23 11:20:57.656250000,-38.0,4.0,52.0,66.361875,-26.27,1.144457,33.73
2021-06-23 11:20:57.664062500,-38.0,4.0,52.0,66.36046875,-29.825000000000003,1.144457,33.73
2021-06-23 11:20:57.671875000,-38.0,4.0,52.0,66.3590625,-33.38,1.144457,33.73
2021-06-23 11:20:57.679687500,-38.0,4.0,52.0,66.35765625,-36.61,1.144457,33.73
2021-06-23 11:20:57.687500000,-38.0,4.0,52.0,66.35625,-39.84,1.144457,33.73
2021-06-23 11:20:57.695312500,-38.0,4.0,52.0,66.35484375,-42.675,1.144457,33.73
2021-06-23 11:20:57.703125000,-38.0,4.0,52.0,66.3534375,-45.51,1.144457,33.73
2021-06-23 11:20:57.710937500,-38.0,4.0,52.0,66.35203125,-48.09,1.144457,33.73
2021-06-23 11:20:57.718750000,-38.0,4.0,52.0,66.350625,-50.67,1.144457,33.73
2021-06-23 11:20:57.726562500,-38.0,4.0,52.0,66.34921875,-53.35,1.144457,33.73
2021-06-23 11:20:57.734375000,-38.0,4.0,52.0,66.3478125,-56.03,1.144457,33.73
2021-06-23 11:20:57.742187500,-38.0,4.0,52.0,66.34640625,-59.29,1.144457,33.73
2021-06-23 11:20:57.750000000,-38.0,4.0,52.0,66.345,-62.55,1.144457,33.73
2021-06-23 11:20:57.757812500,-38.0,4.0,52.0,66.34359375,-66.895,1.144457,33.73
2021-06-23 11:20:57.765625000,-38.0,4.0,52.0,66.3421875,-71.24,1.144457,33.73
2021-06-23 11:20:57.773437500,-38.0,4.0,52.0,66.34078124999999,-76.97,1.144457,33.73
2021-06-23 11:20:57.781250000,-38.0,4.0,52.0,66.339375,-82.7,1.144457,33.73
2021-06-23 11:20:57.789062500,-38.0,4.0,52.0,66.33796875,-89.75,1.144457,33.73
2021-06-23 11:20:57.796875000,-38.0,4.0,52.0,66.3365625,-96.8,1.144457,33.73
2021-06-23 11:20:57.804687500,-38.0,4.0,52.0,66.33515625,-104.56,1.144457,33.73
2021-06-23 11:20:57.812500000,-38.0,4.0,52.0,66.33375,-112.32,1.144457,33.73
2021-06-23 11:20:57.820312500,-38.0,4.0,52.0,66.33234374999999,-119.63,1.144457,33.73
2021-06-23 11:20:57.828125000,-38.0,4.0,52.0,66.3309375,-126.94,1.144457,33.73
2021-06-23 11:20:57.835937500,-38.0,4.0,52.0,66.32953125,-132.265,1.144457,33.73
2021-06-23 11:20:57.843750000,-38.0,4.0,52.0,66.328125,-137.59,1.144457,33.73
2021-06-23 11:20:57.851562500,-38.0,4.0,52.0,66.32671875,-139.345,1.144457,33.73
2021-06-23 11:20:57.859375000,-38.0,4.0,52.0,66.3253125,-141.1,1.144457,33.73
2021-06-23 11:20:57.867187500,-38.0,4.0,52.0,66.32390625,-138.165,1.144457,33.73
2021-06-23 11:20:57.875000000,-38.0,4.0,52.0,66.32249999999999,-135.23,1.144457,33.73
2021-06-23 11:20:57.882812500,-38.0,4.0,51.75,66.32109375,-127.31,1.144457,33.73
2021-06-23 11:20:57.890625000,-38.0,4.0,51.5,66.3196875,-119.39,1.144457,33.73
2021-06-23 11:20:57.898437500,-38.0,4.0,51.25,66.31828125,-107.18,1.144457,33.73
2021-06-23 11:20:57.906250000,-38.0,4.0,51.0,66.316875,-94.97,1.144457,33.73
2021-06-23 11:20:57.914062500,-38.0,4.0,51.25,66.31546875,-80.0,1.144457,33.73
2021-06-23 11:20:57.921875000,-38.0,4.0,51.5,66.31406249999999,-65.03,1.144457,33.73
2021-06-23 11:20:57.929687500,-38.0,4.0,51.75,66.31265625,-49.235,1.144457,33.73
2021-06-23 11:20:57.937500000,-38.0,4.0,52.0,66.31125,-33.44,1.144457,33.73
2021-06-23 11:20:57.945312500,-38.0,4.0,52.0,66.30984375,-18.619999999999997,1.144457,33.73
2021-06-23 11:20:57.953125000,-38.0,4.0,52.0,66.3084375,-3.8,1.144457,33.73
2021-06-23 11:20:57.960937500,-38.0,4.0,52.0,66.30703125,8.77,1.144457,33.73
2021-06-23 11:20:57.968750000,-38.0,4.0,52.0,66.30562499999999,21.34,1.144457,33.73
2021-06-23 11:20:57.976562500,-38.0,4.0,52.0,66.30421875,31.119999999999997,1.144457,33.73
2021-06-23 11:20:57.984375000,-38.0,4.0,52.0,66.3028125,40.9,1.144457,33.73
2021-06-23 11:20:57.992187500,-38.0,4.0,52.0,66.30140625,47.95,1.144457,33.73
2021-06-23 11:20:58.000000000,-38.0,4.0,52.0,66.3,55.0,1.144457,33.73
2021-06-23 11:20:58.007812500,-38.0,4.0,52.0,66.298671875,59.765,1.14441696875,33.729375
2021-06-23 11:20:58.015625000,-38.0,4.0,52.0,66.29734375,64.53,1.1443769375000001,33.72875
2021-06-23 11:20:58.023437500,-38.0,4.0,52.0,66.296015625,67.555,1.14433690625,33.728125
2021-06-23 11:20:58.031250000,-38.0,4.0,52.0,66.2946875,70.58,1.144296875,33.7275
2021-06-23 11:20:58.039062500,-38.0,4.0,52.0,66.293359375,72.33500000000001,1.14425684375,33.726875
2021-06-23 11:20:58.046875000,-38.0,4.0,52.0,66.29203125,74.09,1.1442168125,33.72625
2021-06-23 11:20:58.054687500,-38.0,4.0,52.0,66.290703125,74.91499999999999,1.14417678125,33.725625
2021-06-23 11:20:58.062500000,-38.0,4.0,52.0,66.28937499999999,75.74,1.14413675,33.724999999999994
2021-06-23 11:20:58.070312500,-38.0,4.0,52.0,66.28804687499999,75.89,1.14409671875,33.724374999999995
2021-06-23 11:20:58.078125000,-38.0,4.0,52.0,66.28671874999999,76.04,1.1440566875,33.723749999999995
2021-06-23 11:20:58.085937500,-38.0,4.0,52.0,66.28539062499999,75.745,1.14401665625,33.723124999999996
2021-06-23 11:20:58.093750000,-38.0,4.0,52.0,66.28406249999999,75.45,1.143976625,33.7225
2021-06-23 11:20:58.101562500,-38.0,4.0,52.0,66.282734375,74.935,1.1439365937500001,33.721875
2021-06-23 11:20:58.109375000,-38.0,4.0,52.0,66.28140625,74.42,1.1438965625,33.72125
2021-06-23 11:20:58.117187500,-38.0,4.0,52.0,66.280078125,73.92,1.14385653125,33.720625
2021-06-23 11:20:58.125000000,-38.0,4.0,52.0,66.27875,73.42,1.1438165,33.72
2021-06-23 11:20:58.132812500,-38.0,4.0,52.0,66.277421875,73.1,1.14377646875,33.719375
2021-06-23 11:20:58.140625000,-38.0,4.0,52.0,66.27609375,72.78,1.1437364375,33.71875
2021-06-23 11:20:58.148437500,-38.0,4.0,52.0,66.274765625,72.71000000000001,1.14369640625,33.718125
2021-06-23 11:20:58.156250000,-38.0,4.0,52.0,66.2734375,72.64,1.143656375,33.7175
2021-06-23 11:20:58.164062500,-38.0,4.0,52.0,66.272109375,72.785,1.14361634375,33.716875
2021-06-23 11:20:58.171875000,-38.0,4.0,52.0,66.27078125,72.93,1.1435763125,33.71625
2021-06-23 11:20:58.179687500,-38.0,4.0,52.0,66.269453125,73.20500000000001,1.14353628125,33.715625
2021-06-23 11:20:58.187500000,-38.0,4.0,52.0,66.268125,73.48,1.14349625,33.715
2021-06-23 11:20:58.195312500,-38.0,4.0,52.0,66.266796875,73.795,1.14345621875,33.714375
2021-06-23 11:20:58.203125000,-38.0,4.0,52.0,66.26546875,74.11,1.1434161875,33.71375
2021-06-23 11:20:58.210937500,-38.0,4.0,52.0,66.264140625,74.405,1.14337615625,33.713125
2021-06-23 11:20:58.218750000,-38.0,4.0,52.0,66.2628125,74.7,1.143336125,33.7125
2021-06-23 11:20:58.226562500,-38.0,4.0,52.0,66.261484375,74.965,1.14329609375,33.711875
2021-06-23 11:20:58.234375000,-38.0,4.0,52.0,66.26015625,75.23,1.1432560625,33.71125
2021-06-23 11:20:58.242187500,-38.0,4.0,52.0,66.258828125,75.41499999999999,1.14321603125,33.710625
2021-06-23 11:20:58.250000000,-38.0,4.0,52.0,66.2575,75.6,1.143176,33.71
2021-06-23 11:20:58.257812500,-38.0,4.0,52.0,66.25617187499999,75.645,1.14321603125,33.71
2021-06-23 11:20:58.265625000,-38.0,4.0,52.0,66.25484374999999,75.69,1.1432560625,33.71
2021-06-23 11:20:58.273437500,-38.0,4.0,52.0,66.25351562499999,75.465,1.14329609375,33.71
2021-06-23 11:20:58.281250000,-38.0,4.0,52.0,66.25218749999999,75.24,1.143336125,33.71
2021-06-23 11:20:58.289062500,-38.0,4.0,52.0,66.25085937499999,74.6,1.14337615625,33.71
2021-06-23 11:20:58.296875000,-38.0,4.0,52.0,66.24953124999999,73.96,1.1434161875,33.71
2021-06-23 11:20:58.304687500,-38.0,4.0,52.0,66.248203125,72.8,1.14345621875,33.71
2021-06-23 11:20:58.312500000,-38.0,4.0,52.0,66.246875,71.64,1.14349625,33.71
2021-06-23 11:20:58.320312500,-38.0,4.0,52.0,66.245546875,69.91,1.14353628125,33.71
2021-06-23 11:20:58.328125000,-38.0,4.0,52.0,66.24421875,68.18,1.1435763125,33.71
2021-06-23 11:20:58.335937500,-38.0,4.0,52.0,66.242890625,65.905,1.14361634375,33.71
2021-06-23 11:20:58.343750000,-38.0,4.0,52.0,66.2415625,63.63,1.143656375,33.71
2021-06-23 11:20:58.351562500,-38.0,4.0,52.0,66.240234375,60.915000000000006,1.14369640625,33.71
2021-06-23 11:20:58.359375000,-38.0,4.0,52.0,66.23890625,58.2,1.1437364375,33.71
2021-06-23 11:20:58.367187500,-38.0,4.0,52.0,66.237578125,55.17,1.14377646875,33.71
2021-06-23 11:20:58.375000000,-38.0,4.0,52.0,66.23625,52.14,1.1438165,33.71
2021-06-23 11:20:58.382812500,-38.0,4.0,52.0,66.234921875,48.97,1.14385653125,33.71
2021-06-23 11:20:58.390625000,-38.0,4.0,52.0,66.23359375,45.8,1.1438965625,33.71
2021-06-23 11:20:58.398437500,-38.0,4.0,52.0,66.232265625,42.625,1.1439365937500001,33.71
2021-06-23 11:20:58.406250000,-38.0,4.0,52.0,66.2309375,39.45,1.143976625,33.71
2021-06-23 11:20:58.414062500,-38.0,4.0,52.0,66.229609375,36.365,1.14401665625,33.71
2021-06-23 11:20:58.421875000,-38.0,4.0,52.0,66.22828125,33.28,1.1440566875,33.71
2021-06-23 11:20:58.429687500,-38.0,4.0,52.0,66.226953125,30.315,1.14409671875,33.71
2021-06-23 11:20:58.437500000,-38.0,4.0,52.0,66.225625,27.35,1.14413675,33.71
2021-06-23 11:20:58.445312500,-38.0,4.0,52.0,66.224296875,24.48,1.14417678125,33.71
2021-06-23 11:20:58.453125000,-38.0,4.0,52.0,66.22296874999999,21.61,1.1442168125,33.71
2021-06-23 11:20:58.460937500,-38.0,4.0,52.0,66.22164062499999,18.785,1.14425684375,33.71
2021-06-23 11:20:58.468750000,-38.0,4.0,52.0,66.22031249999999,15.96,1.144296875,33.71
2021-06-23 11:20:58.476562500,-38.0,4.0,52.0,66.21898437499999,13.135000000000002,1.14433690625,33.71
2021-06-23 11:20:58.484375000,-38.0,4.0,52.0,66.21765624999999,10.31,1.1443769375000001,33.71
2021-06-23 11:20:58.492187500,-38.0,4.0,52.0,66.21632812499999,7.42,1.14441696875,33.71
2021-06-23 11:20:58.500000000,-38.0,4.0,52.0,66.215,4.53,1.144457,33.71
2021-06-23 11:20:58.507812500,-38.0,4.0,52.0,66.213671875,1.52,1.14433690625,33.71
2021-06-23 11:20:58.515625000,-38.0,4.0,52.0,66.21234375,-1.49,1.1442168125,33.71
2021-06-23 11:20:58.523437500,-38.0,4.0,52.0,66.211015625,-4.665,1.14409671875,33.71
2021-06-23 11:20:58.531250000,-38.0,4.0,52.0,66.2096875,-7.84,1.143976625,33.71
2021-06-23 11:20:58.539062500,-38.0,4.0,52.0,66.208359375,-11.195,1.14385653125,33.71
2021-06-23 11:20:58.546875000,-38.0,4.0,52.0,66.20703125,-14.55,1.1437364375,33.71
2021-06-23 11:20:58.554687500,-38.0,4.0,52.0,66.205703125,-18.035,1.14361634375,33.71
2021-06-23 11:20:58.562500000,-38.0,4.0,52.0,66.204375,-21.52,1.14349625,33.71
2021-06-23 11:20:58.570312500,-38.25,4.0,52.0,66.203046875,-24.990000000000002,1.14337615625,33.71
2021-06-23 11:20:58.578125000,-38.5,4.0,52.0,66.20171875,-28.46,1.1432560625000001,33.71
2021-06-23 11:20:58.585937500,-38.75,4.0,52.0,66.200390625,-31.745,1.14313596875,33.71
2021-06-23 11:20:58.593750000,-39.0,4.0,52.0,66.1990625,-35.03,1.1430158750000001,33.71
2021-06-23 11:20:58.601562500,-38.75,4.0,51.75,66.197734375,-37.995000000000005,1.14289578125,33.71
2021-06-23 11:20:58.609375000,-38.5,4.0,51.5,66.19640625,-40.96,1.1427756875000001,33.71
2021-06-23 11:20:58.617187500,-38.25,4.0,51.25,66.195078125,-43.595,1.14265559375,33.71
2021-06-23 11:20:58.625000000,-38.0,4.0,51.0,66.19375,-46.23,1.1425355000000001,33.71
2021-06-23 11:20:58.632812500,-38.0,4.0,51.25,66.192421875,-48.69499999999999,1.14241540625,33.71
2021-06-23 11:20:58.640625000,-38.0,4.0,51.5,66.19109375,-51.16,1.1422953125,33.71
2021-06-23 11:20:58.648437500,-38.0,4.0,51.75,66.18976562499999,-53.754999999999995,1.14217521875,33.71
2021-06-23 11:20:58.656250000,-38.0,4.0,52.0,66.18843749999999,-56.35,1.142055125,33.71
2021-06-23 11:20:58.664062500,-38.0,4.0,52.0,66.18710937499999,-59.455,1.14193503125,33.71
2021-06-23 11:20:58.671875000,-38.0,4.0,52.0,66.18578124999999,-62.56,1.1418149375,33.71
2021-06-23 11:20:58.679687500,-38.0,4.0,52.0,66.18445312499999,-66.525,1.14169484375,33.71
2021-06-23 11:20:58.687500000,-38.0,4.0,52.0,66.18312499999999,-70.49,1.14157475,33.71
2021-06-23 11:20:58.695312500,-38.0,4.0,52.0,66.18179687499999,-75.50999999999999,1.14145465625,33.71
2021-06-23 11:20:58.703125000,-38.0,4.0,52.0,66.18046875,-80.53,1.1413345625,33.71
2021-06-23 11:20:58.710937500,-38.0,4.0,52.0,66.179140625,-86.52000000000001,1.14121446875,33.71
2021-06-23 11:20:58.718750000,-38.0,4.0,52.0,66.1778125,-92.51,1.141094375,33.71
2021-06-23 11:20:58.726562500,-38.0,4.0,52.0,66.176484375,-98.95500000000001,1.14097428125,33.71
2021-06-23 11:20:58.734375000,-38.0,4.0,52.0,66.17515625,-105.4,1.1408541875,33.71
2021-06-23 11:20:58.742187500,-38.0,4.0,52.0,66.173828125,-111.35,1.1407340937500001,33.71
2021-06-23 11:20:58.750000000,-38.0,4.0,52.0,66.1725,-117.3,1.140614,33.71
2021-06-23 11:20:58.757812500,-38.0,4.0,52.0,66.171171875,-121.465,1.1407340937500001,33.71
2021-06-23 11:20:58.765625000,-38.0,4.0,52.0,66.16984375,-125.63,1.1408541875,33.71
2021-06-23 11:20:58.773437500,-38.0,4.0,52.0,66.168515625,-126.715,1.14097428125,33.71
2021-06-23 11:20:58.781250000,-38.0,4.0,52.0,66.1671875,-127.8,1.141094375,33.71
2021-06-23 11:20:58.789062500,-38.0,4.0,52.0,66.165859375,-124.895,1.14121446875,33.71
2021-06-23 11:20:58.796875000,-38.0,4.0,52.0,66.16453125,-121.99,1.1413345625,33.71
2021-06-23 11:20:58.804687500,-38.0,4.0,52.0,66.163203125,-114.965,1.14145465625,33.71
2021-06-23 11:20:58.812500000,-38.0,4.0,52.0,66.161875,-107.94,1.14157475,33.71
2021-06-23 11:20:58.820312500,-38.0,4.0,52.0,66.160546875,-97.495,1.14169484375,33.71
2021-06-23 11:20:58.828125000,-38.0,4.0,52.0,66.15921875,-87.05,1.1418149375,33.71
2021-06-23 11:20:58.835937500,-38.0,4.0,52.0,66.157890625,-74.575,1.14193503125,33.71
2021-06-23 11:20:58.843750000,-38.0,4.0,52.0,66.15656249999999,-62.1,1.142055125,33.71
2021-06-23 11:20:58.851562500,-38.0,4.0,52.0,66.15523437499999,-49.195,1.14217521875,33.71
2021-06-23 11:20:58.859375000,-38.0,4.0,52.0,66.15390624999999,-36.29,1.1422953125,33.71
2021-06-23 11:20:58.867187500,-38.0,4.0,52.0,66.15257812499999,-24.33,1.14241540625,33.71
2021-06-23 11:20:58.875000000,-38.0,4.0,52.0,66.15124999999999,-12.37,1.1425355000000001,33.71
2021-06-23 11:20:58.882812500,-38.0,4.0,52.0,66.14992187499999,-2.2349999999999994,1.14265559375,33.71
2021-06-23 11:20:58.890625000,-38.0,4.0,52.0,66.14859374999999,7.9,1.1427756875000001,33.71
2021-06-23 11:20:58.898437500,-38.0,4.0,52.0,66.14726562499999,15.895,1.14289578125,33.71
2021-06-23 11:20:58.906250000,-38.0,4.0,52.0,66.1459375,23.89,1.1430158750000001,33.71
2021-06-23 11:20:58.914062500,-38.0,4.0,52.0,66.144609375,29.815,1.14313596875,33.71
2021-06-23 11:20:58.921875000,-38.0,4.0,52.0,66.14328125,35.74,1.1432560625000001,33.71
2021-06-23 11:20:58.929687500,-38.0,4.0,52.0,66.141953125,39.83,1.14337615625,33.71
2021-06-23 11:20:58.937500000,-38.0,4.0,52.0,66.140625,43.92,1.14349625,33.71
2021-06-23 11:20:58.945312500,-38.0,4.0,52.0,66.139296875,46.44,1.14361634375,33.71
2021-06-23 11:20:58.953125000,-38.0,4.0,52.0,66.13796875,48.96,1.1437364375,33.71
2021-06-23 11:20:58.960937500,-38.0,4.0,52.0,66.136640625,50.18,1.14385653125,33.71
2021-06-23 11:20:58.968750000,-38.0,4.0,52.0,66.1353125,51.4,1.143976625,33.71
2021-06-23 11:20:58.976562500,-38.0,4.0,52.0,66.133984375,51.61,1.14409671875,33.71
2021-06-23 11:20:58.984375000,-38.0,4.0,52.0,66.13265625,51.82,1.1442168125,33.71
2021-06-23 11:20:58.992187500,-38.0,4.0,52.0,66.131328125,51.379999999999995,1.14433690625,33.71
2021-06-23 11:20:59.000000000,-38.0,4.0,52.0,66.13,50.94,1.144457,33.71
2021-06-23 11:20:59.007812500,-38.0,4.0,52.0,66.128828125,50.26,1.144296875,33.710625
2021-06-23 11:20:59.015625000,-38.0,4.0,52.0,66.12765625,49.58,1.1441367500000001,33.71125
2021-06-23 11:20:59.023437500,-38.0,4.0,52.0,66.12648437499999,49.045,1.143976625,33.711875
2021-06-23 11:20:59.031250000,-38.0,4.0,52.0,66.12531249999999,48.51,1.1438165,33.7125
2021-06-23 11:20:59.039062500,-38.0,4.0,52.0,66.124140625,48.349999999999994,1.143656375,33.713125
2021-06-23 11:20:59.046875000,-38.0,4.0,52.0,66.12296875,48.19,1.14349625,33.71375
2021-06-23 11:20:59.054687500,-38.0,4.0,52.0,66.121796875,48.455,1.143336125,33.714375
2021-06-23 11:20:59.062500000,-38.0,4.0,52.0,66.12062499999999,48.72,1.143176,33.715
2021-06-23 11:20:59.070312500,-38.0,4.0,52.0,66.11945312499999,49.269999999999996,1.1430158750000001,33.715625
2021-06-23 11:20:59.078125000,-38.0,4.0,52.0,66.11828125,49.82,1.14285575,33.71625
2021-06-23 11:20:59.085937500,-38.0,4.0,52.0,66.117109375,50.455,1.142695625,33.716875
2021-06-23 11:20:59.093750000,-38.0,4.0,52.0,66.1159375,51.09,1.1425355,33.7175
2021-06-23 11:20:59.101562500,-38.0,4.0,52.0,66.11476562499999,51.650000000000006,1.142375375,33.718125
2021-06-23 11:20:59.109375000,-38.0,4.0,52.0,66.11359374999999,52.21,1.14221525,33.71875
2021-06-23 11:20:59.117187500,-38.0,4.0,52.0,66.112421875,52.650000000000006,1.142055125,33.719375
2021-06-23 11:20:59.125000000,-38.0,4.0,52.0,66.11125,53.09,1.1418949999999999,33.72
2021-06-23 11:20:59.132812500,-38.0,4.0,52.0,66.110078125,53.49,1.141734875,33.720625
2021-06-23 11:20:59.140625000,-38.0,4.0,52.0,66.10890624999999,53.89,1.14157475,33.72125
2021-06-23 11:20:59.148437500,-38.0,4.0,52.0,66.10773437499999,54.355000000000004,1.141414625,33.721875
2021-06-23 11:20:59.156250000,-38.0,4.0,52.0,66.1065625,54.82,1.1412545,33.7225
2021-06-23 11:20:59.164062500,-38.0,4.0,52.0,66.105390625,55.370000000000005,1.141094375,33.723124999999996
2021-06-23 11:20:59.171875000,-38.0,4.0,52.0,66.10421875,55.92,1.14093425,33.723749999999995
2021-06-23 11:20:59.179687500,-38.0,4.0,52.0,66.103046875,56.42,1.1407741249999999,33.724374999999995
2021-06-23 11:20:59.187500000,-38.0,4.0,52.0,66.10187499999999,56.92,1.140614,33.724999999999994
2021-06-23 11:20:59.195312500,-38.0,4.0,52.0,66.100703125,57.11,1.140453875,33.725625
2021-06-23 11:20:59.203125000,-38.0,4.0,52.0,66.09953125,57.3,1.1402937499999999,33.72625
2021-06-23 11:20:59.210937500,-38.0,4.0,52.0,66.098359375,56.91,1.140133625,33.726875
2021-06-23 11:20:59.218750000,-38.0,4.0,52.0,66.0971875,56.52,1.1399735,33.7275
2021-06-23 11:20:59.226562500,-38.0,4.0,52.0,66.09601562499999,55.39,1.139813375,33.728125
2021-06-23 11:20:59.234375000,-38.0,4.0,52.0,66.09484375,54.26,1.1396532499999998,33.72875
2021-06-23 11:20:59.242187500,-38.0,4.0,52.0,66.093671875,52.405,1.139493125,33.729375
2021-06-23 11:20:59.250000000,-38.0,4.0,52.0,66.0925,50.55,1.139333,33.73
2021-06-23 11:20:59.257812500,-38.0,4.0,52.0,66.091328125,48.175,1.1394130624999999,33.73
2021-06-23 11:20:59.265625000,-38.0,4.0,52.0,66.09015624999999,45.8,1.139493125,33.73
2021-06-23 11:20:59.273437500,-38.0,4.0,52.0,66.088984375,43.16,1.1395731875,33.73
2021-06-23 11:20:59.281250000,-38.0,4.0,52.0,66.0878125,40.52,1.1396532499999998,33.73
2021-06-23 11:20:59.289062500,-38.0,4.0,52.0,66.086640625,37.875,1.1397333125,33.73
2021-06-23 11:20:59.296875000,-38.0,4.0,52.0,66.08546875,35.23,1.139813375,33.73
2021-06-23 11:20:59.304687500,-38.0,4.0,52.0,66.08429687499999,32.714999999999996,1.1398934375,33.73
2021-06-23 11:20:59.312500000,-38.0,4.0,52.0,66.083125,30.2,1.1399735,33.73
2021-06-23 11:20:59.320312500,-38.0,4.0,52.0,66.081953125,27.869999999999997,1.1400535625,33.73
2021-06-23 11:20:59.328125000,-38.0,4.0,52.0,66.08078125,25.54,1.140133625,33.73
2021-06-23 11:20:59.335937500,-38.0,4.0,52.0,66.079609375,23.355,1.1402136875,33.73
2021-06-23 11:20:59.343750000,-38.0,4.0,52.0,66.07843749999999,21.17,1.14029375,33.73
2021-06-23 11:20:59.351562500,-38.0,4.0,52.0,66.077265625,19.04,1.1403738125,33.73
2021-06-23 11:20:59.359375000,-38.0,4.0,52.0,66.07609375,16.91,1.140453875,33.73
2021-06-23 11:20:59.367187500,-38.0,4.0,52.0,66.074921875,14.75,1.1405339375,33.73
2021-06-23 11:20:59.375000000,-38.0,4.0,52.0,66.07375,12.59,1.140614,33.73
2021-06-23 11:20:59.382812500,-38.0,4.0,52.0,66.07257812499999,10.344999999999999,1.1406940625,33.73
2021-06-23 11:20:59.390625000,-38.0,4.0,52.0,66.07140625,8.1,1.140774125,33.73
2021-06-23 11:20:59.398437500,-38.0,4.0,52.0,66.070234375,5.779999999999999,1.1408541875,33.73
2021-06-23 11:20:59.406250000,-38.0,4.0,52.0,66.0690625,3.46,1.14093425,33.73
2021-06-23 11:20:59.414062500,-38.0,4.0,52.0,66.067890625,1.1349999999999998,1.1410143125,33.73
2021-06-23 11:20:59.421875000,-38.0,4.0,52.0,66.06671874999999,-1.19,1.141094375,33.73
2021-06-23 11:20:59.429687500,-38.0,4.0,52.0,66.065546875,-3.4250000000000003,1.1411744375000001,33.73
2021-06-23 11:20:59.437500000,-38.0,4.0,52.0,66.064375,-5.66,1.1412545,33.73
2021-06-23 11:20:59.445312500,-38.0,4.0,52.0,66.063203125,-7.725,1.1413345625,33.73
2021-06-23 11:20:59.453125000,-38.0,4.0,52.0,66.06203125,-9.79,1.1414146250000001,33.73
2021-06-23 11:20:59.460937500,-38.0,4.0,52.0,66.06085937499999,-11.7,1.1414946875,33.73
2021-06-23 11:20:59.468750000,-38.0,4.0,52.0,66.0596875,-13.61,1.1415747500000002,33.73
2021-06-23 11:20:59.476562500,-38.0,4.0,52.0,66.058515625,-15.475,1.1416548125000001,33.73
2021-06-23 11:20:59.484375000,-38.0,4.0,52.0,66.05734375,-17.34,1.141734875,33.73
