TimeStamp,empatica.acc.x,empatica.acc.y,empatica.acc.z,empatica.hr,empatica.bvp,empatica.eda,empatica.temp
2021-06-23 11:05:13.945312500,-35.0,2.0,53.75,68.1890625,35.83,0.4745674375,33.59
2021-06-23 11:05:13.953125000,-35.0,2.0,53.5,68.190625,44.21,0.474487375,33.59
2021-06-23 11:05:13.960937500,-35.0,2.0,53.25,68.1921875,50.385000000000005,0.4744073125,33.59
2021-06-23 11:05:13.968750000,-35.0,2.0,53.0,68.19375000000001,56.56,0.47432725000000003,33.59
2021-06-23 11:05:13.976562500,-35.25,1.75,53.0,68.1953125,60.75,0.4742471875,33.59
2021-06-23 11:05:13.984375000,-35.5,1.5,53.0,68.196875,64.94,0.474167125,33.59
2021-06-23 11:05:13.992187500,-35.75,1.25,53.0,68.1984375,67.38499999999999,0.4740870625,33.59
2021-06-23 11:05:14.000000000,-36.0,1.0,53.0,68.2,69.83,0.474007,33.59
2021-06-23 11:05:14.007812500,-35.75,1.25,53.25,68.20140625,70.705,0.4740870625,33.589375000000004
2021-06-23 11:05:14.015625000,-35.5,1.5,53.5,68.20281250000001,71.58,0.474167125,33.588750000000005
2021-06-23 11:05:14.023437500,-35.25,1.75,53.75,68.20421875000001,71.05,0.4742471875,33.588125000000005
2021-06-23 11:05:14.031250000,-35.0,2.0,54.0,68.205625,70.52,0.47432725000000003,33.587500000000006
2021-06-23 11:05:14.039062500,-35.0,1.75,53.75,68.20703125,68.845,0.4744073125,33.586875000000006
2021-06-23 11:05:14.046875000,-35.0,1.5,53.5,68.2084375,67.17,0.474487375,33.58625
2021-06-23 11:05:14.054687500,-35.0,1.25,53.25,68.20984375,64.73,0.4745674375,33.585625
2021-06-23 11:05:14.062500000,-35.0,1.0,53.0,68.21125,62.29,0.4746475,33.585
2021-06-23 11:05:14.070312500,-35.0,1.0,53.25,68.21265625000001,59.57,0.47472756250000003,33.584375
2021-06-23 11:05:14.078125000,-35.0,1.0,53.5,68.2140625,56.85,0.474807625,33.58375
2021-06-23 11:05:14.085937500,-35.0,1.0,53.75,68.21546875,54.33,0.4748876875,33.583125
2021-06-23 11:05:14.093750000,-35.0,1.0,54.0,68.216875,51.81,0.47496775,33.5825
2021-06-23 11:05:14.101562500,-35.25,1.25,53.75,68.21828125,49.86,0.4750478125,33.581875000000004
2021-06-23 11:05:14.109375000,-35.5,1.5,53.5,68.2196875,47.91,0.47512787500000003,33.581250000000004
2021-06-23 11:05:14.117187500,-35.75,1.75,53.25,68.22109375000001,46.715,0.4752079375,33.580625000000005
2021-06-23 11:05:14.125000000,-36.0,2.0,53.0,68.2225,45.52,0.47528800000000004,33.58
2021-06-23 11:05:14.132812500,-35.75,2.0,53.25,68.22390625,45.040000000000006,0.4753680625,33.579375
2021-06-23 11:05:14.140625000,-35.5,2.0,53.5,68.2253125,44.56,0.475448125,33.57875
2021-06-23 11:05:14.148437500,-35.25,2.0,53.75,68.22671875,44.59,0.47552818750000003,33.578125
2021-06-23 11:05:14.156250000,-35.0,2.0,54.0,68.228125,44.62,0.47560825,33.5775
2021-06-23 11:05:14.164062500,-34.75,2.0,54.0,68.22953125000001,44.855000000000004,0.47568831250000004,33.576875
2021-06-23 11:05:14.171875000,-34.5,2.0,54.0,68.2309375,45.09,0.475768375,33.57625
2021-06-23 11:05:14.179687500,-34.25,2.0,54.0,68.23234375,45.215,0.4758484375,33.575625
2021-06-23 11:05:14.187500000,-34.0,2.0,54.0,68.23375,45.34,0.47592850000000003,33.575
2021-06-23 11:05:14.195312500,-34.5,1.75,53.75,68.23515625,45.13,0.4760085625,33.574375
2021-06-23 11:05:14.203125000,-35.0,1.5,53.5,68.2365625,44.92,0.47608862500000004,33.573750000000004
2021-06-23 11:05:14.210937500,-35.5,1.25,53.25,68.23796875000001,44.275000000000006,0.4761686875,33.573125
2021-06-23 11:05:14.218750000,-36.0,1.0,53.0,68.239375,43.63,0.47624875,33.5725
2021-06-23 11:05:14.226562500,-36.0,1.0,53.0,68.24078125,42.57,0.47632881250000003,33.571875
2021-06-23 11:05:14.234375000,-36.0,1.0,53.0,68.2421875,41.51,0.476408875,33.57125
2021-06-23 11:05:14.242187500,-36.0,1.0,53.0,68.24359375,40.084999999999994,0.47648893750000004,33.570625
2021-06-23 11:05:14.250000000,-36.0,1.0,53.0,68.245,38.66,0.476569,33.57
2021-06-23 11:05:14.257812500,-35.75,1.25,53.25,68.24640625,36.9,0.47648893750000004,33.57
2021-06-23 11:05:14.265625000,-35.5,1.5,53.5,68.2478125,35.14,0.476408875,33.57
2021-06-23 11:05:14.273437500,-35.25,1.75,53.75,68.24921875,33.03,0.47632881250000003,33.57
2021-06-23 11:05:14.281250000,-35.0,2.0,54.0,68.250625,30.92,0.47624875,33.57
2021-06-23 11:05:14.289062500,-35.0,2.0,53.75,68.25203125,28.375,0.4761686875,33.57
2021-06-23 11:05:14.296875000,-35.0,2.0,53.5,68.2534375,25.83,0.47608862500000004,33.57
2021-06-23 11:05:14.304687500,-35.0,2.0,53.25,68.25484375,22.79,0.4760085625,33.57
2021-06-23 11:05:14.312500000,-35.0,2.0,53.0,68.25625,19.75,0.47592850000000003,33.57
2021-06-23 11:05:14.320312500,-35.0,2.0,53.0,68.25765625,16.23,0.4758484375,33.57
2021-06-23 11:05:14.328125000,-35.0,2.0,53.0,68.2590625,12.71,0.475768375,33.57
2021-06-23 11:05:14.335937500,-35.0,2.0,53.0,68.26046875,8.825000000000001,0.47568831250000004,33.57
2021-06-23 11:05:14.343750000,-35.0,2.0,53.0,68.261875,4.94,0.47560825,33.57
2021-06-23 11:05:14.351562500,-35.0,2.0,53.0,68.26328125,0.8449999999999998,0.47552818750000003,33.57
2021-06-23 11:05:14.359375000,-35.0,2.0,53.0,68.2646875,-3.25,0.475448125,33.57
2021-06-23 11:05:14.367187500,-35.0,2.0,53.0,68.26609375,-7.365,0.4753680625,33.57
2021-06-23 11:05:14.375000000,-35.0,2.0,53.0,68.2675,-11.48,0.47528800000000004,33.57
2021-06-23 11:05:14.382812500,-35.25,1.75,53.25,68.26890625,-15.495000000000001,0.4752079375,33.57
2021-06-23 11:05:14.390625000,-35.5,1.5,53.5,68.2703125,-19.51,0.47512787500000003,33.57
2021-06-23 11:05:14.398437500,-35.75,1.25,53.75,68.27171875,-23.37,0.4750478125,33.57
2021-06-23 11:05:14.406250000,-36.0,1.0,54.0,68.273125,-27.23,0.47496775,33.57
2021-06-23 11:05:14.414062500,-36.0,1.0,54.0,68.27453125,-30.950000000000003,0.4748876875,33.57
2021-06-23 11:05:14.421875000,-36.0,1.0,54.0,68.2759375,-34.67,0.474807625,33.57
2021-06-23 11:05:14.429687500,-36.0,1.0,54.0,68.27734375,-38.3,0.47472756250000003,33.57
2021-06-23 11:05:14.437500000,-36.0,1.0,54.0,68.27875,-41.93,0.4746475,33.57
2021-06-23 11:05:14.445312500,-35.75,1.25,54.0,68.28015625,-45.535,0.4745674375,33.57
2021-06-23 11:05:14.453125000,-35.5,1.5,54.0,68.28156249999999,-49.14,0.474487375,33.57
2021-06-23 11:05:14.460937500,-35.25,1.75,54.0,68.28296875,-52.82,0.4744073125,33.57
2021-06-23 11:05:14.468750000,-35.0,2.0,54.0,68.284375,-56.5,0.47432725000000003,33.57
2021-06-23 11:05:14.476562500,-35.25,2.0,54.0,68.28578125,-60.405,0.4742471875,33.57
2021-06-23 11:05:14.484375000,-35.5,2.0,54.0,68.2871875,-64.31,0.474167125,33.57
2021-06-23 11:05:14.492187500,-35.75,2.0,54.0,68.28859375,-68.69,0.4740870625,33.57
2021-06-23 11:05:14.500000000,-36.0,2.0,54.0,68.28999999999999,-73.07,0.474007,33.57
2021-06-23 11:05:14.507812500,-35.75,1.75,54.0,68.29140625,-78.16,0.47412709375,33.57
2021-06-23 11:05:14.515625000,-35.5,1.5,54.0,68.2928125,-83.25,0.4742471875,33.57
2021-06-23 11:05:14.523437500,-35.25,1.25,54.0,68.29421875,-89.11,0.47436728125,33.57
2021-06-23 11:05:14.531250000,-35.0,1.0,54.0,68.295625,-94.97,0.474487375,33.57
2021-06-23 11:05:14.539062500,-35.0,1.25,53.75,68.29703125,-101.245,0.47460746875,33.57
2021-06-23 11:05:14.546875000,-35.0,1.5,53.5,68.2984375,-107.52,0.47472756250000003,33.57
2021-06-23 11:05:14.554687500,-35.0,1.75,53.25,68.29984375,-113.315,0.47484765625,33.57
2021-06-23 11:05:14.562500000,-35.0,2.0,53.0,68.30125,-119.11,0.47496775,33.57
2021-06-23 11:05:14.570312500,-35.25,2.0,53.0,68.30265625,-123.07,0.47508784375,33.57
2021-06-23 11:05:14.578125000,-35.5,2.0,53.0,68.3040625,-127.03,0.4752079375,33.57
2021-06-23 11:05:14.585937500,-35.75,2.0,53.0,68.30546875,-127.715,0.47532803125,33.57
2021-06-23 11:05:14.593750000,-36.0,2.0,53.0,68.306875,-128.4,0.475448125,33.57
2021-06-23 11:05:14.601562500,-35.75,1.75,53.25,68.30828125,-124.805,0.47556821875,33.57
2021-06-23 11:05:14.609375000,-35.5,1.5,53.5,68.3096875,-121.21,0.4756883125,33.57
2021-06-23 11:05:14.617187500,-35.25,1.25,53.75,68.31109375,-113.16499999999999,0.47580840625,33.57
2021-06-23 11:05:14.625000000,-35.0,1.0,54.0,68.3125,-105.12,0.4759285,33.57
2021-06-23 11:05:14.632812500,-35.0,1.25,53.75,68.31390625,-93.45500000000001,0.47604859375,33.57
2021-06-23 11:05:14.640625000,-35.0,1.5,53.5,68.3153125,-81.79,0.4761686875,33.57
2021-06-23 11:05:14.648437500,-35.0,1.75,53.25,68.31671874999999,-68.075,0.47628878125,33.57
2021-06-23 11:05:14.656250000,-35.0,2.0,53.0,68.318125,-54.36,0.476408875,33.57
2021-06-23 11:05:14.664062500,-35.0,2.0,53.25,68.31953125,-40.379999999999995,0.47652896875,33.57
2021-06-23 11:05:14.671875000,-35.0,2.0,53.5,68.3209375,-26.4,0.4766490625,33.57
2021-06-23 11:05:14.679687500,-35.0,2.0,53.75,68.32234375,-13.665,0.47676915625,33.57
2021-06-23 11:05:14.687500000,-35.0,2.0,54.0,68.32375,-0.93,0.47688925,33.57
2021-06-23 11:05:14.695312500,-35.25,2.0,53.75,68.32515624999999,9.715,0.47700934375,33.57
2021-06-23 11:05:14.703125000,-35.5,2.0,53.5,68.3265625,20.36,0.4771294375,33.57
2021-06-23 11:05:14.710937500,-35.75,2.0,53.25,68.32796875,28.69,0.47724953125,33.57
2021-06-23 11:05:14.718750000,-36.0,2.0,53.0,68.329375,37.02,0.477369625,33.57
2021-06-23 11:05:14.726562500,-35.75,2.0,53.25,68.33078125,43.245000000000005,0.47748971875,33.57
2021-06-23 11:05:14.734375000,-35.5,2.0,53.5,68.3321875,49.47,0.4776098125,33.57
2021-06-23 11:05:14.742187500,-35.25,2.0,53.75,68.33359374999999,53.95,0.47772990625,33.57
2021-06-23 11:05:14.750000000,-35.0,2.0,54.0,68.335,58.43,0.47785,33.57
2021-06-23 11:05:14.757812500,-35.25,1.75,53.75,68.33640625,61.474999999999994,0.477689875,33.57
2021-06-23 11:05:14.765625000,-35.5,1.5,53.5,68.3378125,64.52,0.47752975,33.57
2021-06-23 11:05:14.773437500,-35.75,1.25,53.25,68.33921875,66.35,0.477369625,33.57
2021-06-23 11:05:14.781250000,-36.0,1.0,53.0,68.340625,68.18,0.4772095,33.57
2021-06-23 11:05:14.789062500,-36.0,1.25,53.25,68.34203124999999,68.96000000000001,0.477049375,33.57
2021-06-23 11:05:14.796875000,-36.0,1.5,53.5,68.3434375,69.74,0.47688925,33.57
2021-06-23 11:05:14.804687500,-36.0,1.75,53.75,68.34484375,69.66,0.476729125,33.57
2021-06-23 11:05:14.812500000,-36.0,2.0,54.0,68.34625,69.58,0.476569,33.57
2021-06-23 11:05:14.820312500,-35.75,2.0,54.0,68.34765625,68.86500000000001,0.476408875,33.57
2021-06-23 11:05:14.828125000,-35.5,2.0,54.0,68.3490625,68.15,0.47624875,33.57
2021-06-23 11:05:14.835937500,-35.25,2.0,54.0,68.35046874999999,67.055,0.476088625,33.57
2021-06-23 11:05:14.843750000,-35.0,2.0,54.0,68.35187499999999,65.96,0.4759285,33.57
2021-06-23 11:05:14.851562500,-35.0,1.75,54.0,68.35328125,64.72,0.47576837499999997,33.57
2021-06-23 11:05:14.859375000,-35.0,1.5,54.0,68.3546875,63.48,0.47560825,33.57
2021-06-23 11:05:14.867187500,-35.0,1.25,54.0,68.35609375,62.29,0.475448125,33.57
2021-06-23 11:05:14.875000000,-35.0,1.0,54.0,68.3575,61.1,0.475288,33.57
2021-06-23 11:05:14.882812500,-35.0,1.25,53.75,68.35890624999999,60.075,0.475127875,33.57
2021-06-23 11:05:14.890625000,-35.0,1.5,53.5,68.36031249999999,59.05,0.47496774999999997,33.57
2021-06-23 11:05:14.898437500,-35.0,1.75,53.25,68.36171875,58.245,0.474807625,33.57
2021-06-23 11:05:14.906250000,-35.0,2.0,53.0,68.363125,57.44,0.4746475,33.57
2021-06-23 11:05:14.914062500,-35.25,1.75,53.0,68.36453125,56.84,0.474487375,33.57
2021-06-23 11:05:14.921875000,-35.5,1.5,53.0,68.3659375,56.24,0.47432725,33.57
2021-06-23 11:05:14.929687500,-35.75,1.25,53.0,68.36734374999999,55.790000000000006,0.47416712499999997,33.57
2021-06-23 11:05:14.937500000,-36.0,1.0,53.0,68.36874999999999,55.34,0.47400699999999996,33.57
2021-06-23 11:05:14.945312500,-36.0,1.25,53.0,68.37015625,54.965,0.473846875,33.57
2021-06-23 11:05:14.953125000,-36.0,1.5,53.0,68.3715625,54.59,0.47368675,33.57
2021-06-23 11:05:14.960937500,-36.0,1.75,53.0,68.37296875,54.2,0.473526625,33.57
2021-06-23 11:05:14.968750000,-36.0,2.0,53.0,68.374375,53.81,0.47336649999999997,33.57
2021-06-23 11:05:14.976562500,-35.75,2.0,53.25,68.37578124999999,53.285,0.47320637499999996,33.57
2021-06-23 11:05:14.984375000,-35.5,2.0,53.5,68.37718749999999,52.76,0.47304625,33.57
2021-06-23 11:05:14.992187500,-35.25,2.0,53.75,68.37859375,51.974999999999994,0.472886125,33.57
2021-06-23 11:05:15.000000000,-35.0,2.0,54.0,68.38,51.19,0.472726,33.57
2021-06-23 11:05:15.007812500,-35.0,1.75,53.75,68.38164062499999,49.995,0.47284609375,33.57125
2021-06-23 11:05:15.015625000,-35.0,1.5,53.5,68.38328125,48.8,0.47296618749999997,33.5725
2021-06-23 11:05:15.023437500,-35.0,1.25,53.25,68.38492187499999,47.07,0.47308628124999996,33.57375
2021-06-23 11:05:15.031250000,-35.0,1.0,53.0,68.3865625,45.34,0.47320637499999996,33.575
2021-06-23 11:05:15.039062500,-35.25,1.0,53.0,68.38820312499999,43.035,0.47332646875,33.57625
2021-06-23 11:05:15.046875000,-35.5,1.0,53.0,68.38984375,40.73,0.4734465625,33.5775
2021-06-23 11:05:15.054687500,-35.75,1.0,53.0,68.39148437499999,37.91,0.47356665625,33.57875
2021-06-23 11:05:15.062500000,-36.0,1.0,53.0,68.393125,35.09,0.47368675,33.58
2021-06-23 11:05:15.070312500,-35.75,1.25,53.25,68.39476562499999,31.910000000000004,0.47380684375,33.58125
2021-06-23 11:05:15.078125000,-35.5,1.5,53.5,68.39640625,28.73,0.4739269375,33.5825
2021-06-23 11:05:15.085937500,-35.25,1.75,53.75,68.39804687499999,25.36,0.47404703125,33.58375
2021-06-23 11:05:15.093750000,-35.0,2.0,54.0,68.3996875,21.99,0.474167125,33.585
2021-06-23 11:05:15.101562500,-35.0,2.0,53.75,68.40132812499999,18.525,0.47428721875,33.58625
2021-06-23 11:05:15.109375000,-35.0,2.0,53.5,68.40296875,15.06,0.4744073125,33.5875
2021-06-23 11:05:15.117187500,-35.0,2.0,53.25,68.40460937499999,11.48,0.47452740625,33.58875
2021-06-23 11:05:15.125000000,-35.0,2.0,53.0,68.40625,7.9,0.4746475,33.59
2021-06-23 11:05:15.132812500,-35.0,1.75,53.25,68.407890625,4.065,0.47476759375,33.59125
2021-06-23 11:05:15.140625000,-35.0,1.5,53.5,68.40953125,0.23,0.4748876875,33.5925
2021-06-23 11:05:15.148437500,-35.0,1.25,53.75,68.411171875,-4.005,0.47500778125,33.59375
2021-06-23 11:05:15.156250000,-35.0,1.0,54.0,68.4128125,-8.24,0.475127875,33.595
2021-06-23 11:05:15.164062500,-35.25,1.0,54.0,68.414453125,-12.940000000000001,0.47524796875,33.59625
2021-06-23 11:05:15.171875000,-35.5,1.0,54.0,68.41609375,-17.64,0.4753680625,33.5975
2021-06-23 11:05:15.179687500,-35.75,1.0,54.0,68.417734375,-22.65,0.47548815625,33.59875
2021-06-23 11:05:15.187500000,-36.0,1.0,54.0,68.419375,-27.66,0.47560825,33.6
2021-06-23 11:05:15.195312500,-35.75,1.0,54.0,68.421015625,-32.685,0.47572834375,33.60125
2021-06-23 11:05:15.203125000,-35.5,1.0,54.0,68.42265625,-37.71,0.4758484375,33.6025
2021-06-23 11:05:15.210937500,-35.25,1.0,54.0,68.424296875,-42.385000000000005,0.47596853125,33.60375
2021-06-23 11:05:15.218750000,-35.0,1.0,54.0,68.4259375,-47.06,0.47608862500000004,33.605
2021-06-23 11:05:15.226562500,-35.25,1.25,53.75,68.427578125,-51.14,0.47620871875000004,33.60625
2021-06-23 11:05:15.234375000,-35.5,1.5,53.5,68.42921875,-55.22,0.47632881250000003,33.6075
2021-06-23 11:05:15.242187500,-35.75,1.75,53.25,68.430859375,-58.675,0.47644890625,33.60875
2021-06-23 11:05:15.250000000,-36.0,2.0,53.0,68.4325,-62.13,0.476569,33.61
2021-06-23 11:05:15.257812500,-35.75,1.75,53.25,68.434140625,-65.185,0.47652896875,33.61
2021-06-23 11:05:15.265625000,-35.5,1.5,53.5,68.43578124999999,-68.24,0.47648893750000004,33.61
2021-06-23 11:05:15.273437500,-35.25,1.25,53.75,68.437421875,-71.35,0.47644890625,33.61
2021-06-23 11:05:15.281250000,-35.0,1.0,54.0,68.43906249999999,-74.46,0.476408875,33.61
2021-06-23 11:05:15.289062500,-35.0,1.0,54.0,68.440703125,-78.13499999999999,0.47636884375,33.61
2021-06-23 11:05:15.296875000,-35.0,1.0,54.0,68.44234374999999,-81.81,0.47632881250000003,33.61
2021-06-23 11:05:15.304687500,-35.0,1.0,54.0,68.443984375,-86.44,0.47628878125,33.61
2021-06-23 11:05:15.312500000,-35.0,1.0,54.0,68.44562499999999,-91.07,0.47624875,33.61
2021-06-23 11:05:15.320312500,-35.25,1.25,53.75,68.447265625,-96.72,0.47620871875000004,33.61
2021-06-23 11:05:15.328125000,-35.5,1.5,53.5,68.44890625,-102.37,0.4761686875,33.61
2021-06-23 11:05:15.335937500,-35.75,1.75,53.25,68.450546875,-108.55000000000001,0.47612865625,33.61
2021-06-23 11:05:15.343750000,-36.0,2.0,53.0,68.4521875,-114.73,0.476088625,33.61
2021-06-23 11:05:15.351562500,-36.0,1.75,53.0,68.453828125,-120.385,0.47604859375,33.61
2021-06-23 11:05:15.359375000,-36.0,1.5,53.0,68.45546875,-126.04,0.4760085625,33.61
2021-06-23 11:05:15.367187500,-36.0,1.25,53.0,68.457109375,-129.71,0.47596853125,33.61
2021-06-23 11:05:15.375000000,-36.0,1.0,53.0,68.45875,-133.38,0.4759285,33.61
2021-06-23 11:05:15.382812500,-35.75,1.0,53.0,68.460390625,-133.58499999999998,0.47588846875,33.61
2021-06-23 11:05:15.390625000,-35.5,1.0,53.0,68.46203125,-133.79,0.4758484375,33.61
2021-06-23 11:05:15.398437500,-35.25,1.0,53.0,68.463671875,-129.55,0.47580840625,33.61
2021-06-23 11:05:15.406250000,-35.0,1.0,53.0,68.4653125,-125.31,0.475768375,33.61
2021-06-23 11:05:15.414062500,-35.0,1.25,53.25,68.466953125,-116.53999999999999,0.47572834375,33.61
2021-06-23 11:05:15.421875000,-35.0,1.5,53.5,68.46859375,-107.77,0.4756883125,33.61
2021-06-23 11:05:15.429687500,-35.0,1.75,53.75,68.470234375,-95.38499999999999,0.47564828124999997,33.61
2021-06-23 11:05:15.437500000,-35.0,2.0,54.0,68.471875,-83.0,0.47560825,33.61
2021-06-23 11:05:15.445312500,-35.25,1.75,53.75,68.473515625,-68.67,0.47556821875,33.61
2021-06-23 11:05:15.453125000,-35.5,1.5,53.5,68.47515625,-54.34,0.4755281875,33.61
2021-06-23 11:05:15.460937500,-35.75,1.25,53.25,68.476796875,-39.945,0.47548815625,33.61
2021-06-23 11:05:15.468750000,-36.0,1.0,53.0,68.4784375,-25.55,0.475448125,33.61
2021-06-23 11:05:15.476562500,-36.0,1.25,53.0,68.480078125,-12.665000000000001,0.47540809375,33.61
2021-06-23 11:05:15.484375000,-36.0,1.5,53.0,68.48171875,0.22,0.47536806249999997,33.61
2021-06-23 11:05:15.492187500,-36.0,1.75,53.0,68.483359375,10.705000000000002,0.47532803125,33.61
2021-06-23 11:05:15.500000000,-36.0,2.0,53.0,68.485,21.19,0.475288,33.61
2021-06-23 11:05:15.507812500,-36.0,1.75,53.0,68.48664062499999,29.075000000000003,0.47532803125,33.61
2021-06-23 11:05:15.515625000,-36.0,1.5,53.0,68.48828125,36.96,0.47536806249999997,33.61
2021-06-23 11:05:15.523437500,-36.0,1.25,53.0,68.489921875,42.53,0.47540809375,33.61
2021-06-23 11:05:15.531250000,-36.0,1.0,53.0,68.4915625,48.1,0.475448125,33.61
2021-06-23 11:05:15.539062500,-35.75,1.0,53.0,68.493203125,51.845,0.47548815625,33.61
2021-06-23 11:05:15.546875000,-35.5,1.0,53.0,68.49484375,55.59,0.4755281875,33.61
2021-06-23 11:05:15.554687500,-35.25,1.0,53.0,68.496484375,57.985,0.47556821875,33.61
2021-06-23 11:05:15.562500000,-35.0,1.0,53.0,68.498125,60.38,0.47560825,33.61
2021-06-23 11:05:15.570312500,-35.25,1.0,53.0,68.499765625,61.775000000000006,0.47564828124999997,33.61
2021-06-23 11:05:15.578125000,-35.5,1.0,53.0,68.50140625,63.17,0.4756883125,33.61
2021-06-23 11:05:15.585937500,-35.75,1.0,53.0,68.503046875,63.825,0.47572834375,33.61
2021-06-23 11:05:15.593750000,-36.0,1.0,53.0,68.5046875,64.48,0.475768375,33.61
2021-06-23 11:05:15.601562500,-36.0,1.0,53.0,68.506328125,64.6,0.47580840625,33.61
2021-06-23 11:05:15.609375000,-36.0,1.0,53.0,68.50796875,64.72,0.4758484375,33.61
2021-06-23 11:05:15.617187500,-36.0,1.0,53.0,68.509609375,64.47,0.47588846875,33.61
2021-06-23 11:05:15.625000000,-36.0,1.0,53.0,68.51125,64.22,0.4759285,33.61
2021-06-23 11:05:15.632812500,-36.0,1.0,53.0,68.512890625,63.739999999999995,0.47596853125,33.61
2021-06-23 11:05:15.640625000,-36.0,1.0,53.0,68.51453125,63.26,0.4760085625,33.61
2021-06-23 11:05:15.648437500,-36.0,1.0,53.0,68.516171875,62.629999999999995,0.47604859375,33.61
2021-06-23 11:05:15.656250000,-36.0,1.0,53.0,68.5178125,62.0,0.476088625,33.61
2021-06-23 11:05:15.664062500,-36.0,1.25,53.0,68.519453125,61.235,0.47612865625,33.61
2021-06-23 11:05:15.671875000,-36.0,1.5,53.0,68.52109375,60.47,0.4761686875,33.61
2021-06-23 11:05:15.679687500,-36.0,1.75,53.0,68.522734375,59.54,0.47620871875000004,33.61
2021-06-23 11:05:15.687500000,-36.0,2.0,53.0,68.524375,58.61,0.47624875,33.61
2021-06-23 11:05:15.695312500,-36.0,1.75,53.0,68.526015625,57.489999999999995,0.47628878125,33.61
2021-06-23 11:05:15.703125000,-36.0,1.5,53.0,68.52765625,56.37,0.47632881250000003,33.61
2021-06-23 11:05:15.710937500,-36.0,1.25,53.0,68.529296875,55.075,0.47636884375,33.61
2021-06-23 11:05:15.718750000,-36.0,1.0,53.0,68.53093750000001,53.78,0.476408875,33.61
2021-06-23 11:05:15.726562500,-36.0,1.0,53.0,68.532578125,52.41,0.47644890625,33.61
2021-06-23 11:05:15.734375000,-36.0,1.0,53.0,68.53421875000001,51.04,0.47648893750000004,33.61
2021-06-23 11:05:15.742187500,-36.0,1.0,53.0,68.535859375,49.754999999999995,0.47652896875,33.61
2021-06-23 11:05:15.750000000,-36.0,1.0,53.0,68.5375,48.47,0.476569,33.61
2021-06-23 11:05:15.757812500,-36.0,1.0,53.0,68.539140625,47.42,0.47652896875,33.61
2021-06-23 11:05:15.765625000,-36.0,1.0,53.0,68.54078125,46.37,0.47648893750000004,33.61
2021-06-23 11:05:15.773437500,-36.0,1.0,53.0,68.542421875,45.62,0.47644890625,33.61
2021-06-23 11:05:15.781250000,-36.0,1.0,53.0,68.5440625,44.87,0.476408875,33.61
2021-06-23 11:05:15.789062500,-36.0,1.0,53.25,68.545703125,44.31,0.47636884375,33.61
2021-06-23 11:05:15.796875000,-36.0,1.0,53.5,68.54734375,43.75,0.47632881250000003,33.61
2021-06-23 11:05:15.804687500,-36.0,1.0,53.75,68.548984375,43.14,0.47628878125,33.61
2021-06-23 11:05:15.812500000,-36.0,1.0,54.0,68.550625,42.53,0.47624875,33.61
2021-06-23 11:05:15.820312500,-36.0,1.0,53.75,68.552265625,41.56,0.47620871875000004,33.61
2021-06-23 11:05:15.828125000,-36.0,1.0,53.5,68.55390625,40.59,0.4761686875,33.61
2021-06-23 11:05:15.835937500,-36.0,1.0,53.25,68.555546875,39.03,0.47612865625,33.61
2021-06-23 11:05:15.843750000,-36.0,1.0,53.0,68.5571875,37.47,0.476088625,33.61
2021-06-23 11:05:15.851562500,-36.0,1.0,53.0,68.558828125,35.269999999999996,0.47604859375,33.61
2021-06-23 11:05:15.859375000,-36.0,1.0,53.0,68.56046875,33.07,0.4760085625,33.61
2021-06-23 11:05:15.867187500,-36.0,1.0,53.0,68.562109375,30.355,0.47596853125,33.61
2021-06-23 11:05:15.875000000,-36.0,1.0,53.0,68.56375,27.64,0.4759285,33.61
2021-06-23 11:05:15.882812500,-35.75,1.0,53.25,68.565390625,24.64,0.47588846875,33.61
2021-06-23 11:05:15.890625000,-35.5,1.0,53.5,68.56703125,21.64,0.4758484375,33.61
2021-06-23 11:05:15.898437500,-35.25,1.0,53.75,68.568671875,18.55,0.47580840625,33.61
2021-06-23 11:05:15.906250000,-35.0,1.0,54.0,68.5703125,15.46,0.475768375,33.61
2021-06-23 11:05:15.914062500,-35.25,1.0,53.75,68.57195312500001,12.33,0.47572834375,33.61
2021-06-23 11:05:15.921875000,-35.5,1.0,53.5,68.57359375,9.2,0.4756883125,33.61
2021-06-23 11:05:15.929687500,-35.75,1.0,53.25,68.57523437500001,5.9399999999999995,0.47564828124999997,33.61
2021-06-23 11:05:15.937500000,-36.0,1.0,53.0,68.576875,2.68,0.47560825,33.61
2021-06-23 11:05:15.945312500,-35.75,1.0,53.25,68.57851562500001,-0.8800000000000003,0.47556821875,33.61
2021-06-23 11:05:15.953125000,-35.5,1.0,53.5,68.58015625,-4.44,0.4755281875,33.61
2021-06-23 11:05:15.960937500,-35.25,1.0,53.75,68.58179687500001,-8.415000000000001,0.47548815625,33.61
2021-06-23 11:05:15.968750000,-35.0,1.0,54.0,68.5834375,-12.39,0.475448125,33.61
2021-06-23 11:05:15.976562500,-35.25,1.0,54.0,68.58507812500001,-16.75,0.47540809375,33.61
2021-06-23 11:05:15.984375000,-35.5,1.0,54.0,68.58671875,-21.11,0.47536806249999997,33.61
2021-06-23 11:05:15.992187500,-35.75,1.0,54.0,68.58835937500001,-25.64,0.47532803125,33.61
2021-06-23 11:05:16.000000000,-36.0,1.0,54.0,68.59,-30.17,0.475288,33.61
2021-06-23 11:05:16.007812500,-36.0,1.0,53.75,68.591796875,-34.57,0.47532803125,33.609375
2021-06-23 11:05:16.015625000,-36.0,1.0,53.5,68.59359375,-38.97,0.47536806249999997,33.60875
2021-06-23 11:05:16.023437500,-36.0,1.0,53.25,68.59539062500001,-42.945,0.47540809375,33.608125
2021-06-23 11:05:16.031250000,-36.0,1.0,53.0,68.5971875,-46.92,0.475448125,33.6075
2021-06-23 11:05:16.039062500,-35.75,1.0,53.0,68.598984375,-50.305,0.47548815625,33.606875
2021-06-23 11:05:16.046875000,-35.5,1.0,53.0,68.60078125,-53.69,0.4755281875,33.60625
2021-06-23 11:05:16.054687500,-35.25,1.0,53.0,68.60257812500001,-56.53,0.47556821875,33.605625
2021-06-23 11:05:16.062500000,-35.0,1.0,53.0,68.604375,-59.37,0.47560825,33.605000000000004
2021-06-23 11:05:16.070312500,-35.25,1.25,53.0,68.606171875,-61.905,0.47564828124999997,33.604375
2021-06-23 11:05:16.078125000,-35.5,1.5,53.0,68.60796875,-64.44,0.4756883125,33.60375
2021-06-23 11:05:16.085937500,-35.75,1.75,53.0,68.60976562500001,-67.08500000000001,0.47572834375,33.603125
2021-06-23 11:05:16.093750000,-36.0,2.0,53.0,68.6115625,-69.73,0.475768375,33.6025
2021-06-23 11:05:16.101562500,-36.0,1.75,53.0,68.613359375,-73.015,0.47580840625,33.601875
2021-06-23 11:05:16.109375000,-36.0,1.5,53.0,68.61515625,-76.3,0.4758484375,33.60125
2021-06-23 11:05:16.117187500,-36.0,1.25,53.0,68.61695312500001,-80.69,0.47588846875,33.600625
2021-06-23 11:05:16.125000000,-36.0,1.0,53.0,68.61875,-85.08,0.4759285,33.6
2021-06-23 11:05:16.132812500,-36.0,1.0,53.0,68.620546875,-90.77,0.47596853125,33.599375
2021-06-23 11:05:16.140625000,-36.0,1.0,53.0,68.62234375,-96.46,0.4760085625,33.59875
2021-06-23 11:05:16.148437500,-36.0,1.0,53.0,68.624140625,-103.10499999999999,0.47604859375,33.598125
2021-06-23 11:05:16.156250000,-36.0,1.0,53.0,68.6259375,-109.75,0.476088625,33.597500000000004
2021-06-23 11:05:16.164062500,-36.0,1.0,53.0,68.627734375,-116.375,0.47612865625,33.596875000000004
2021-06-23 11:05:16.171875000,-36.0,1.0,53.0,68.62953125,-123.0,0.4761686875,33.596250000000005
2021-06-23 11:05:16.179687500,-36.0,1.0,53.0,68.631328125,-128.065,0.47620871875000004,33.595625000000005
2021-06-23 11:05:16.187500000,-36.0,1.0,53.0,68.633125,-133.13,0.47624875,33.595
2021-06-23 11:05:16.195312500,-35.75,1.0,53.25,68.634921875,-134.975,0.47628878125,33.594375
2021-06-23 11:05:16.203125000,-35.5,1.0,53.5,68.63671875,-136.82,0.47632881250000003,33.59375
2021-06-23 11:05:16.210937500,-35.25,1.0,53.75,68.638515625,-134.20999999999998,0.47636884375,33.593125
2021-06-23 11:05:16.218750000,-35.0,1.0,54.0,68.64031250000001,-131.6,0.476408875,33.5925
2021-06-23 11:05:16.226562500,-35.25,1.0,53.75,68.642109375,-124.21,0.47644890625,33.591875
2021-06-23 11:05:16.234375000,-35.5,1.0,53.5,68.64390625,-116.82,0.47648893750000004,33.59125
2021-06-23 11:05:16.242187500,-35.75,1.0,53.25,68.645703125,-105.38999999999999,0.47652896875,33.590625
2021-06-23 11:05:16.250000000,-36.0,1.0,53.0,68.64750000000001,-93.96,0.476569,33.59
2021-06-23 11:05:16.257812500,-35.75,1.0,53.25,68.649296875,-80.085,0.476569,33.59
2021-06-23 11:05:16.265625000,-35.5,1.0,53.5,68.65109375,-66.21,0.476569,33.59
2021-06-23 11:05:16.273437500,-35.25,1.0,53.75,68.652890625,-51.795,0.476569,33.59
2021-06-23 11:05:16.281250000,-35.0,1.0,54.0,68.6546875,-37.38,0.476569,33.59
2021-06-23 11:05:16.289062500,-35.25,1.0,53.75,68.656484375,-24.07,0.476569,33.59
2021-06-23 11:05:16.296875000,-35.5,1.0,53.5,68.65828125,-10.76,0.476569,33.59
2021-06-23 11:05:16.304687500,-35.75,1.0,53.25,68.660078125,0.4150000000000009,0.476569,33.59
2021-06-23 11:05:16.312500000,-36.0,1.0,53.0,68.661875,11.59,0.476569,33.59
2021-06-23 11:05:16.320312500,-36.0,1.0,53.0,68.663671875,20.29,0.476569,33.59
2021-06-23 11:05:16.328125000,-36.0,1.0,53.0,68.66546875,28.99,0.476569,33.59
2021-06-23 11:05:16.335937500,-36.0,1.0,53.0,68.667265625,35.38,0.476569,33.59
2021-06-23 11:05:16.343750000,-36.0,1.0,53.0,68.6690625,41.77,0.476569,33.59
2021-06-23 11:05:16.351562500,-35.75,1.0,53.25,68.670859375,46.24,0.476569,33.59
2021-06-23 11:05:16.359375000,-35.5,1.0,53.5,68.67265625,50.71,0.476569,33.59
2021-06-23 11:05:16.367187500,-35.25,1.0,53.75,68.674453125,53.68,0.476569,33.59
2021-06-23 11:05:16.375000000,-35.0,1.0,54.0,68.67625,56.65,0.476569,33.59
2021-06-23 11:05:16.382812500,-35.25,1.0,53.75,68.67804687499999,58.45,0.476569,33.59
2021-06-23 11:05:16.390625000,-35.5,1.0,53.5,68.67984375,60.25,0.476569,33.59
2021-06-23 11:05:16.398437500,-35.75,1.0,53.25,68.681640625,61.15,0.476569,33.59
2021-06-23 11:05:16.406250000,-36.0,1.0,53.0,68.6834375,62.05,0.476569,33.59
2021-06-23 11:05:16.414062500,-36.0,1.0,53.0,68.685234375,62.285,0.476569,33.59
2021-06-23 11:05:16.421875000,-36.0,1.0,53.0,68.68703125,62.52,0.476569,33.59
2021-06-23 11:05:16.429687500,-36.0,1.0,53.0,68.688828125,62.290000000000006,0.476569,33.59
2021-06-23 11:05:16.437500000,-36.0,1.0,53.0,68.690625,62.06,0.476569,33.59
2021-06-23 11:05:16.445312500,-35.75,1.0,53.25,68.692421875,61.535,0.476569,33.59
2021-06-23 11:05:16.453125000,-35.5,1.0,53.5,68.69421875,61.01,0.476569,33.59
2021-06-23 11:05:16.460937500,-35.25,1.0,53.75,68.696015625,60.3,0.476569,33.59
2021-06-23 11:05:16.468750000,-35.0,1.0,54.0,68.6978125,59.59,0.476569,33.59
2021-06-23 11:05:16.476562500,-35.25,1.0,53.75,68.699609375,58.725,0.476569,33.59
2021-06-23 11:05:16.484375000,-35.5,1.0,53.5,68.70140625,57.86,0.476569,33.59
2021-06-23 11:05:16.492187500,-35.75,1.0,53.25,68.703203125,56.815,0.476569,33.59
2021-06-23 11:05:16.500000000,-36.0,1.0,53.0,68.705,55.77,0.476569,33.59
2021-06-23 11:05:16.507812500,-35.75,1.0,53.25,68.706796875,54.58,0.476569,33.59
2021-06-23 11:05:16.515625000,-35.5,1.0,53.5,68.70859374999999,53.39,0.476569,33.59
2021-06-23 11:05:16.523437500,-35.25,1.0,53.75,68.710390625,52.144999999999996,0.476569,33.59
2021-06-23 11:05:16.531250000,-35.0,1.0,54.0,68.7121875,50.9,0.476569,33.59
2021-06-23 11:05:16.539062500,-35.25,1.0,53.75,68.713984375,49.795,0.476569,33.59
2021-06-23 11:05:16.546875000,-35.5,1.0,53.5,68.71578124999999,48.69,0.476569,33.59
2021-06-23 11:05:16.554687500,-35.75,1.0,53.25,68.717578125,47.92,0.476569,33.59
2021-06-23 11:05:16.562500000,-36.0,1.0,53.0,68.719375,47.15,0.476569,33.59
2021-06-23 11:05:16.570312500,-36.0,1.0,53.25,68.721171875,46.825,0.476569,33.59
2021-06-23 11:05:16.578125000,-36.0,1.0,53.5,68.72296874999999,46.5,0.476569,33.59
2021-06-23 11:05:16.585937500,-36.0,1.0,53.75,68.724765625,46.515,0.476569,33.59
2021-06-23 11:05:16.593750000,-36.0,1.0,54.0,68.7265625,46.53,0.476569,33.59
2021-06-23 11:05:16.601562500,-36.0,1.0,53.75,68.728359375,46.57,0.476569,33.59
2021-06-23 11:05:16.609375000,-36.0,1.0,53.5,68.73015625,46.61,0.476569,33.59
2021-06-23 11:05:16.617187500,-36.0,1.0,53.25,68.731953125,46.275,0.476569,33.59
2021-06-23 11:05:16.625000000,-36.0,1.0,53.0,68.73375,45.94,0.476569,33.59
2021-06-23 11:05:16.632812500,-35.75,1.0,53.25,68.735546875,44.864999999999995,0.476569,33.59
2021-06-23 11:05:16.640625000,-35.5,1.0,53.5,68.73734375,43.79,0.476569,33.59
2021-06-23 11:05:16.648437500,-35.25,1.0,53.75,68.73914062499999,41.825,0.476569,33.59
2021-06-23 11:05:16.656250000,-35.0,1.0,54.0,68.7409375,39.86,0.476569,33.59
2021-06-23 11:05:16.664062500,-35.0,1.0,54.0,68.742734375,37.08,0.476569,33.59
2021-06-23 11:05:16.671875000,-35.0,1.0,54.0,68.74453125,34.3,0.476569,33.59
2021-06-23 11:05:16.679687500,-35.0,1.0,54.0,68.74632812499999,30.95,0.476569,33.59
2021-06-23 11:05:16.687500000,-35.0,1.0,54.0,68.748125,27.6,0.476569,33.59
2021-06-23 11:05:16.695312500,-35.25,1.0,53.75,68.749921875,23.985,0.476569,33.59
2021-06-23 11:05:16.703125000,-35.5,1.0,53.5,68.75171875,20.37,0.476569,33.59
2021-06-23 11:05:16.710937500,-35.75,1.0,53.25,68.75351562499999,16.735,0.476569,33.59
2021-06-23 11:05:16.718750000,-36.0,1.0,53.0,68.7553125,13.1,0.476569,33.59
2021-06-23 11:05:16.726562500,-35.75,1.0,53.0,68.757109375,9.555,0.476569,33.59
2021-06-23 11:05:16.734375000,-35.5,1.0,53.0,68.75890625,6.01,0.476569,33.59
2021-06-23 11:05:16.742187500,-35.25,1.0,53.0,68.76070312499999,2.5749999999999997,0.476569,33.59
2021-06-23 11:05:16.750000000,-35.0,1.0,53.0,68.76249999999999,-0.86,0.476569,33.59
2021-06-23 11:05:16.757812500,-35.25,1.0,53.0,68.764296875,-4.27,0.47660903125000004,33.59
2021-06-23 11:05:16.765625000,-35.5,1.0,53.0,68.76609375,-7.68,0.4766490625,33.59
2021-06-23 11:05:16.773437500,-35.75,1.0,53.0,68.76789062499999,-11.129999999999999,0.47668909375,33.59
2021-06-23 11:05:16.781250000,-36.0,1.0,53.0,68.76968749999999,-14.58,0.47672912500000003,33.59
2021-06-23 11:05:16.789062500,-36.0,1.0,53.25,68.771484375,-18.115,0.47676915625,33.59
2021-06-23 11:05:16.796875000,-36.0,1.0,53.5,68.77328125,-21.65,0.4768091875,33.59
2021-06-23 11:05:16.804687500,-36.0,1.0,53.75,68.775078125,-25.22,0.47684921875,33.59
2021-06-23 11:05:16.812500000,-36.0,1.0,54.0,68.77687499999999,-28.79,0.47688925000000004,33.59
2021-06-23 11:05:16.820312500,-35.75,1.0,53.75,68.778671875,-32.295,0.47692928125,33.59
2021-06-23 11:05:16.828125000,-35.5,1.0,53.5,68.78046875,-35.8,0.4769693125,33.59
2021-06-23 11:05:16.835937500,-35.25,1.0,53.25,68.782265625,-39.114999999999995,0.47700934375000004,33.59
2021-06-23 11:05:16.843750000,-35.0,1.0,53.0,68.78406249999999,-42.43,0.477049375,33.59
2021-06-23 11:05:16.851562500,-35.0,1.0,53.25,68.785859375,-45.495000000000005,0.47708940625,33.59
2021-06-23 11:05:16.859375000,-35.0,1.0,53.5,68.78765625,-48.56,0.47712943750000003,33.59
2021-06-23 11:05:16.867187500,-35.0,1.0,53.75,68.789453125,-51.445,0.47716946875,33.59
2021-06-23 11:05:16.875000000,-35.0,1.0,54.0,68.79124999999999,-54.33,0.4772095,33.59
2021-06-23 11:05:16.882812500,-35.25,1.0,53.75,68.79304687499999,-57.25,0.47724953125,33.59
2021-06-23 11:05:16.890625000,-35.5,1.0,53.5,68.79484375,-60.17,0.4772895625,33.59
2021-06-23 11:05:16.898437500,-35.75,1.0,53.25,68.796640625,-63.455,0.47732959375,33.59
2021-06-23 11:05:16.906250000,-36.0,1.0,53.0,68.79843749999999,-66.74,0.477369625,33.59
2021-06-23 11:05:16.914062500,-36.0,1.0,53.0,68.80023437499999,-70.755,0.47740965625,33.59
2021-06-23 11:05:16.921875000,-36.0,1.0,53.0,68.80203125,-74.77,0.4774496875,33.59
2021-06-23 11:05:16.929687500,-36.0,1.0,53.0,68.803828125,-79.805,0.47748971875,33.59
2021-06-23 11:05:16.937500000,-36.0,1.0,53.0,68.80562499999999,-84.84,0.47752975,33.59
2021-06-23 11:05:16.945312500,-35.75,1.0,53.0,68.80742187499999,-90.91,0.47756978125,33.59
2021-06-23 11:05:16.953125000,-35.5,1.0,53.0,68.80921875,-96.98,0.4776098125,33.59
2021-06-23 11:05:16.960937500,-35.25,1.0,53.0,68.811015625,-103.67500000000001,0.47764984375,33.59
2021-06-23 11:05:16.968750000,-35.0,1.0,53.0,68.81281249999999,-110.37,0.477689875,33.59
2021-06-23 11:05:16.976562500,-35.25,1.0,53.0,68.81460937499999,-116.78,0.47772990625,33.59
2021-06-23 11:05:16.984375000,-35.5,1.0,53.0,68.81640625,-123.19,0.4777699375,33.59
2021-06-23 11:05:16.992187500,-35.75,1.0,53.0,68.818203125,-127.955,0.47780996875,33.59
2021-06-23 11:05:17.000000000,-36.0,1.0,53.0,68.82,-132.72,0.47785,33.59
2021-06-23 11:05:17.007812500,-35.75,1.0,53.25,68.821953125,-134.345,0.47780996875,33.589375000000004
2021-06-23 11:05:17.015625000,-35.5,1.0,53.5,68.82390625,-135.97,0.4777699375,33.588750000000005
2021-06-23 11:05:17.023437500,-35.25,1.0,53.75,68.825859375,-133.315,0.47772990625,33.588125000000005
2021-06-23 11:05:17.031250000,-35.0,1.0,54.0,68.8278125,-130.66,0.477689875,33.587500000000006
2021-06-23 11:05:17.039062500,-35.25,1.0,53.75,68.829765625,-123.38,0.47764984375,33.586875000000006
2021-06-23 11:05:17.046875000,-35.5,1.0,53.5,68.83171875,-116.1,0.4776098125,33.58625
2021-06-23 11:05:17.054687500,-35.75,1.0,53.25,68.833671875,-104.845,0.47756978125,33.585625
2021-06-23 11:05:17.062500000,-36.0,1.0,53.0,68.835625,-93.59,0.47752975,33.585
2021-06-23 11:05:17.070312500,-35.75,1.0,53.25,68.837578125,-79.85,0.47748971875,33.584375
2021-06-23 11:05:17.078125000,-35.5,1.0,53.5,68.83953125,-66.11,0.4774496875,33.58375
2021-06-23 11:05:17.085937500,-35.25,1.0,53.75,68.841484375,-51.72,0.47740965625,33.583125
2021-06-23 11:05:17.093750000,-35.0,1.0,54.0,68.8434375,-37.33,0.477369625,33.5825
2021-06-23 11:05:17.101562500,-35.25,1.0,53.75,68.845390625,-23.924999999999997,0.47732959375,33.581875000000004
2021-06-23 11:05:17.109375000,-35.5,1.0,53.5,68.84734375,-10.52,0.4772895625,33.581250000000004
2021-06-23 11:05:17.117187500,-35.75,1.0,53.25,68.849296875,0.870000000000001,0.47724953125,33.580625000000005
2021-06-23 11:05:17.125000000,-36.0,1.0,53.0,68.85125,12.26,0.4772095,33.58
2021-06-23 11:05:17.132812500,-36.0,1.0,53.0,68.853203125,21.28,0.47716946875,33.579375
2021-06-23 11:05:17.140625000,-36.0,1.0,53.0,68.85515625,30.3,0.47712943750000003,33.57875
2021-06-23 11:05:17.148437500,-36.0,1.0,53.0,68.857109375,37.065,0.47708940625,33.578125
2021-06-23 11:05:17.156250000,-36.0,1.0,53.0,68.8590625,43.83,0.477049375,33.5775
2021-06-23 11:05:17.164062500,-36.0,1.0,53.25,68.861015625,48.57,0.47700934375000004,33.576875
2021-06-23 11:05:17.171875000,-36.0,1.0,53.5,68.86296875,53.31,0.4769693125,33.57625
2021-06-23 11:05:17.179687500,-36.0,1.0,53.75,68.864921875,56.195,0.47692928125,33.575625
2021-06-23 11:05:17.187500000,-36.0,1.0,54.0,68.866875,59.08,0.47688925000000004,33.575
2021-06-23 11:05:17.195312500,-36.0,1.0,53.75,68.868828125,60.165,0.47684921875,33.574375
2021-06-23 11:05:17.203125000,-36.0,1.0,53.5,68.87078125,61.25,0.4768091875,33.573750000000004
2021-06-23 11:05:17.210937500,-36.0,1.0,53.25,68.872734375,60.635000000000005,0.47676915625,33.573125
2021-06-23 11:05:17.218750000,-36.0,1.0,53.0,68.8746875,60.02,0.47672912500000003,33.5725
2021-06-23 11:05:17.226562500,-35.75,1.0,53.25,68.876640625,57.985,0.47668909375,33.571875
2021-06-23 11:05:17.234375000,-35.5,1.0,53.5,68.87859375,55.95,0.4766490625,33.57125
2021-06-23 11:05:17.242187500,-35.25,1.0,53.75,68.880546875,53.045,0.47660903125000004,33.570625
2021-06-23 11:05:17.250000000,-35.0,1.0,54.0,68.8825,50.14,0.476569,33.57
2021-06-23 11:05:17.257812500,-35.25,1.0,53.75,68.884453125,47.05,0.476569,33.57
2021-06-23 11:05:17.265625000,-35.5,1.0,53.5,68.88640625,43.96,0.476569,33.57
2021-06-23 11:05:17.273437500,-35.75,1.0,53.25,68.888359375,41.355000000000004,0.476569,33.57
2021-06-23 11:05:17.281250000,-36.0,1.0,53.0,68.8903125,38.75,0.476569,33.57
2021-06-23 11:05:17.289062500,-36.0,1.0,53.0,68.892265625,37.1,0.476569,33.57
2021-06-23 11:05:17.296875000,-36.0,1.0,53.0,68.89421875,35.45,0.476569,33.57
2021-06-23 11:05:17.304687500,-36.0,1.0,53.0,68.896171875,34.91,0.476569,33.57
2021-06-23 11:05:17.312500000,-36.0,1.0,53.0,68.898125,34.37,0.476569,33.57
2021-06-23 11:05:17.320312500,-36.0,1.0,53.0,68.900078125,34.78,0.476569,33.57
2021-06-23 11:05:17.328125000,-36.0,1.0,53.0,68.90203125,35.19,0.476569,33.57
2021-06-23 11:05:17.335937500,-36.0,1.0,53.0,68.903984375,36.16,0.476569,33.57
2021-06-23 11:05:17.343750000,-36.0,1.0,53.0,68.9059375,37.13,0.476569,33.57
2021-06-23 11:05:17.351562500,-36.0,1.0,53.0,68.907890625,38.185,0.476569,33.57
2021-06-23 11:05:17.359375000,-36.0,1.0,53.0,68.90984375,39.24,0.476569,33.57
2021-06-23 11:05:17.367187500,-36.0,1.0,53.0,68.911796875,39.96,0.476569,33.57
2021-06-23 11:05:17.375000000,-36.0,1.0,53.0,68.91375,40.68,0.476569,33.57
2021-06-23 11:05:17.382812500,-35.75,1.25,53.25,68.915703125,40.815,0.476569,33.57
2021-06-23 11:05:17.390625000,-35.5,1.5,53.5,68.91765625,40.95,0.476569,33.57
2021-06-23 11:05:17.398437500,-35.25,1.75,53.75,68.919609375,40.46,0.476569,33.57
2021-06-23 11:05:17.406250000,-35.0,2.0,54.0,68.9215625,39.97,0.476569,33.57
2021-06-23 11:05:17.414062500,-35.0,1.75,54.0,68.923515625,38.97,0.476569,33.57
2021-06-23 11:05:17.421875000,-35.0,1.5,54.0,68.92546875,37.97,0.476569,33.57
2021-06-23 11:05:17.429687500,-35.0,1.25,54.0,68.927421875,36.66,0.476569,33.57
2021-06-23 11:05:17.437500000,-35.0,1.0,54.0,68.929375,35.35,0.476569,33.57
2021-06-23 11:05:17.445312500,-35.25,1.0,53.75,68.931328125,33.875,0.476569,33.57
2021-06-23 11:05:17.453125000,-35.5,1.0,53.5,68.93328125,32.4,0.476569,33.57
2021-06-23 11:05:17.460937500,-35.75,1.0,53.25,68.935234375,30.79,0.476569,33.57
2021-06-23 11:05:17.468750000,-36.0,1.0,53.0,68.9371875,29.18,0.476569,33.57
2021-06-23 11:05:17.476562500,-35.75,1.0,53.0,68.939140625,27.335,0.476569,33.57
2021-06-23 11:05:17.484375000,-35.5,1.0,53.0,68.94109375,25.49,0.476569,33.57
2021-06-23 11:05:17.492187500,-35.25,1.0,53.0,68.943046875,23.225,0.476569,33.57
2021-06-23 11:05:17.500000000,-35.0,1.0,53.0,68.945,20.96,0.476569,33.57
2021-06-23 11:05:17.507812500,-35.25,1.0,53.0,68.946953125,18.1,0.47648893750000004,33.57
2021-06-23 11:05:17.515625000,-35.5,1.0,53.0,68.94890625,15.24,0.476408875,33.57
2021-06-23 11:05:17.523437500,-35.75,1.0,53.0,68.950859375,11.7,0.47632881250000003,33.57
2021-06-23 11:05:17.531250000,-36.0,1.0,53.0,68.9528125,8.16,0.47624875,33.57
2021-06-23 11:05:17.539062500,-36.0,1.0,53.0,68.954765625,4.03,0.4761686875,33.57
2021-06-23 11:05:17.546875000,-36.0,1.0,53.0,68.95671875,-0.1,0.47608862500000004,33.57
2021-06-23 11:05:17.554687500,-36.0,1.0,53.0,68.958671875,-4.585,0.4760085625,33.57
2021-06-23 11:05:17.562500000,-36.0,1.0,53.0,68.960625,-9.07,0.47592850000000003,33.57
2021-06-23 11:05:17.570312500,-35.75,1.0,53.25,68.962578125,-13.6,0.4758484375,33.57
2021-06-23 11:05:17.578125000,-35.5,1.0,53.5,68.96453125,-18.13,0.475768375,33.57
2021-06-23 11:05:17.585937500,-35.25,1.0,53.75,68.966484375,-22.405,0.47568831250000004,33.57
2021-06-23 11:05:17.593750000,-35.0,1.0,54.0,68.9684375,-26.68,0.47560825,33.57
2021-06-23 11:05:17.601562500,-35.25,1.0,53.75,68.970390625,-30.565,0.47552818750000003,33.57
2021-06-23 11:05:17.609375000,-35.5,1.0,53.5,68.97234375,-34.45,0.475448125,33.57
2021-06-23 11:05:17.617187500,-35.75,1.0,53.25,68.974296875,-37.980000000000004,0.4753680625,33.57
2021-06-23 11:05:17.625000000,-36.0,1.0,53.0,68.97625,-41.51,0.47528800000000004,33.57
2021-06-23 11:05:17.632812500,-36.0,1.0,53.0,68.978203125,-44.925,0.4752079375,33.57
2021-06-23 11:05:17.640625000,-36.0,1.0,53.0,68.98015625,-48.34,0.47512787500000003,33.57
2021-06-23 11:05:17.648437500,-36.0,1.0,53.0,68.982109375,-52.005,0.4750478125,33.57
2021-06-23 11:05:17.656250000,-36.0,1.0,53.0,68.9840625,-55.67,0.47496775,33.57
2021-06-23 11:05:17.664062500,-35.75,1.0,53.25,68.986015625,-59.975,0.4748876875,33.57
2021-06-23 11:05:17.671875000,-35.5,1.0,53.5,68.98796875,-64.28,0.474807625,33.57
2021-06-23 11:05:17.679687500,-35.25,1.0,53.75,68.989921875,-69.48,0.47472756250000003,33.57
2021-06-23 11:05:17.687500000,-35.0,1.0,54.0,68.991875,-74.68,0.4746475,33.57
2021-06-23 11:05:17.695312500,-35.0,1.0,53.75,68.993828125,-80.76,0.4745674375,33.57
2021-06-23 11:05:17.703125000,-35.0,1.0,53.5,68.99578125,-86.84,0.474487375,33.57
2021-06-23 11:05:17.710937500,-35.0,1.0,53.25,68.997734375,-93.36500000000001,0.4744073125,33.57
2021-06-23 11:05:17.718750000,-35.0,1.0,53.0,68.9996875,-99.89,0.47432725000000003,33.57
2021-06-23 11:05:17.726562500,-35.25,1.0,53.25,69.001640625,-105.97999999999999,0.4742471875,33.57
2021-06-23 11:05:17.734375000,-35.5,1.0,53.5,69.00359375,-112.07,0.474167125,33.57
2021-06-23 11:05:17.742187500,-35.75,1.0,53.75,69.005546875,-116.47999999999999,0.4740870625,33.57
2021-06-23 11:05:17.750000000,-36.0,1.0,54.0,69.0075,-120.89,0.474007,33.57
2021-06-23 11:05:17.757812500,-36.0,1.0,53.75,69.009453125,-122.28,0.4740870625,33.57
2021-06-23 11:05:17.765625000,-36.0,1.0,53.5,69.01140625,-123.67,0.474167125,33.57
2021-06-23 11:05:17.773437500,-36.0,1.0,53.25,69.013359375,-121.00999999999999,0.4742471875,33.57
2021-06-23 11:05:17.781250000,-36.0,1.0,53.0,69.0153125,-118.35,0.47432725000000003,33.57
2021-06-23 11:05:17.789062500,-35.75,1.0,53.0,69.017265625,-111.285,0.4744073125,33.57
2021-06-23 11:05:17.796875000,-35.5,1.0,53.0,69.01921875,-104.22,0.474487375,33.57
2021-06-23 11:05:17.804687500,-35.25,1.0,53.0,69.021171875,-93.25999999999999,0.4745674375,33.57
2021-06-23 11:05:17.812500000,-35.0,1.0,53.0,69.023125,-82.3,0.4746475,33.57
2021-06-23 11:05:17.820312500,-35.0,1.0,53.25,69.025078125,-68.715,0.47472756250000003,33.57
2021-06-23 11:05:17.828125000,-35.0,1.0,53.5,69.02703125,-55.13,0.474807625,33.57
2021-06-23 11:05:17.835937500,-35.0,1.0,53.75,69.028984375,-40.625,0.4748876875,33.57
2021-06-23 11:05:17.843750000,-35.0,1.0,54.0,69.0309375,-26.12,0.47496775,33.57
2021-06-23 11:05:17.851562500,-35.0,1.0,54.0,69.032890625,-12.305,0.4750478125,33.57
2021-06-23 11:05:17.859375000,-35.0,1.0,54.0,69.03484375,1.51,0.47512787500000003,33.57
2021-06-23 11:05:17.867187500,-35.0,1.0,54.0,69.036796875,13.454999999999998,0.4752079375,33.57
2021-06-23 11:05:17.875000000,-35.0,1.0,54.0,69.03875,25.4,0.47528800000000004,33.57
2021-06-23 11:05:17.882812500,-35.25,1.0,53.75,69.040703125,34.91,0.4753680625,33.57
2021-06-23 11:05:17.890625000,-35.5,1.0,53.5,69.04265625,44.42,0.475448125,33.57
2021-06-23 11:05:17.898437500,-35.75,1.0,53.25,69.044609375,51.44,0.47552818750000003,33.57
2021-06-23 11:05:17.906250000,-36.0,1.0,53.0,69.0465625,58.46,0.47560825,33.57
2021-06-23 11:05:17.914062500,-35.75,1.0,53.0,69.048515625,63.19500000000001,0.47568831250000004,33.57
2021-06-23 11:05:17.921875000,-35.5,1.0,53.0,69.05046875,67.93,0.475768375,33.57
2021-06-23 11:05:17.929687500,-35.25,1.0,53.0,69.052421875,70.655,0.4758484375,33.57
2021-06-23 11:05:17.937500000,-35.0,1.0,53.0,69.054375,73.38,0.47592850000000003,33.57
2021-06-23 11:05:17.945312500,-35.25,1.0,53.0,69.056328125,74.31,0.4760085625,33.57
2021-06-23 11:05:17.953125000,-35.5,1.0,53.0,69.05828125,75.24,0.47608862500000004,33.57
2021-06-23 11:05:17.960937500,-35.75,1.0,53.0,69.060234375,74.59,0.4761686875,33.57
2021-06-23 11:05:17.968750000,-36.0,1.0,53.0,69.0621875,73.94,0.47624875,33.57
2021-06-23 11:05:17.976562500,-36.0,1.25,53.0,69.064140625,71.985,0.47632881250000003,33.57
2021-06-23 11:05:17.984375000,-36.0,1.5,53.0,69.06609375,70.03,0.476408875,33.57
2021-06-23 11:05:17.992187500,-36.0,1.75,53.0,69.068046875,67.19,0.47648893750000004,33.57
2021-06-23 11:05:18.000000000,-36.0,2.0,53.0,69.07,64.35,0.476569,33.57
2021-06-23 11:05:18.007812500,-35.75,1.75,53.25,69.07203125,61.185,0.47652896875,33.57
2021-06-23 11:05:18.015625000,-35.5,1.5,53.5,69.0740625,58.02,0.47648893750000004,33.57
2021-06-23 11:05:18.023437500,-35.25,1.25,53.75,69.07609375,55.105000000000004,0.47644890625,33.57
2021-06-23 11:05:18.031250000,-35.0,1.0,54.0,69.078125,52.19,0.476408875,33.57
2021-06-23 11:05:18.039062500,-35.25,1.0,53.75,69.08015624999999,49.97,0.47636884375,33.57
2021-06-23 11:05:18.046875000,-35.5,1.0,53.5,69.08218749999999,47.75,0.47632881250000003,33.57
2021-06-23 11:05:18.054687500,-35.75,1.0,53.25,69.08421874999999,46.4,0.47628878125,33.57
2021-06-23 11:05:18.062500000,-36.0,1.0,53.0,69.08624999999999,45.05,0.47624875,33.57
2021-06-23 11:05:18.070312500,-35.75,1.0,53.25,69.08828125,44.44,0.47620871875000004,33.57
2021-06-23 11:05:18.078125000,-35.5,1.0,53.5,69.0903125,43.83,0.4761686875,33.57
2021-06-23 11:05:18.085937500,-35.25,1.0,53.75,69.09234375,43.599999999999994,0.47612865625,33.57
2021-06-23 11:05:18.093750000,-35.0,1.0,54.0,69.094375,43.37,0.476088625,33.57
2021-06-23 11:05:18.101562500,-35.25,1.0,54.0,69.09640624999999,43.125,0.47604859375,33.57
2021-06-23 11:05:18.109375000,-35.5,1.0,54.0,69.09843749999999,42.88,0.4760085625,33.57
2021-06-23 11:05:18.117187500,-35.75,1.0,54.0,69.10046874999999,42.400000000000006,0.47596853125,33.57
2021-06-23 11:05:18.125000000,-36.0,1.0,54.0,69.10249999999999,41.92,0.4759285,33.57
2021-06-23 11:05:18.132812500,-35.75,1.0,54.0,69.10453125,41.205,0.47588846875,33.57
2021-06-23 11:05:18.140625000,-35.5,1.0,54.0,69.1065625,40.49,0.4758484375,33.57
2021-06-23 11:05:18.148437500,-35.25,1.0,54.0,69.10859375,39.705,0.47580840625,33.57
2021-06-23 11:05:18.156250000,-35.0,1.0,54.0,69.110625,38.92,0.475768375,33.57
2021-06-23 11:05:18.164062500,-35.0,1.25,54.0,69.11265625,38.2,0.47572834375,33.57
2021-06-23 11:05:18.171875000,-35.0,1.5,54.0,69.11468749999999,37.48,0.4756883125,33.57
2021-06-23 11:05:18.179687500,-35.0,1.75,54.0,69.11671874999999,36.754999999999995,0.47564828124999997,33.57
2021-06-23 11:05:18.187500000,-35.0,2.0,54.0,69.11874999999999,36.03,0.47560825,33.57
2021-06-23 11:05:18.195312500,-35.25,2.0,54.0,69.12078125,34.955,0.47556821875,33.57
2021-06-23 11:05:18.203125000,-35.5,2.0,54.0,69.1228125,33.88,0.4755281875,33.57
2021-06-23 11:05:18.210937500,-35.75,2.0,54.0,69.12484375,32.015,0.47548815625,33.57
2021-06-23 11:05:18.218750000,-36.0,2.0,54.0,69.126875,30.15,0.475448125,33.57
2021-06-23 11:05:18.226562500,-36.0,2.0,53.75,69.12890625,27.104999999999997,0.47540809375,33.57
2021-06-23 11:05:18.234375000,-36.0,2.0,53.5,69.13093749999999,24.06,0.47536806249999997,33.57
2021-06-23 11:05:18.242187500,-36.0,2.0,53.25,69.13296874999999,19.75,0.47532803125,33.57
2021-06-23 11:05:18.250000000,-36.0,2.0,53.0,69.13499999999999,15.44,0.475288,33.57
2021-06-23 11:05:18.257812500,-35.75,2.0,53.25,69.13703124999999,10.129999999999999,0.475288,33.57
2021-06-23 11:05:18.265625000,-35.5,2.0,53.5,69.1390625,4.82,0.475288,33.57
2021-06-23 11:05:18.273437500,-35.25,2.0,53.75,69.14109375,-0.9749999999999996,0.475288,33.57
2021-06-23 11:05:18.281250000,-35.0,2.0,54.0,69.143125,-6.77,0.475288,33.57
2021-06-23 11:05:18.289062500,-35.0,2.0,54.0,69.14515625,-12.485,0.475288,33.57
2021-06-23 11:05:18.296875000,-35.0,2.0,54.0,69.1471875,-18.2,0.475288,33.57
2021-06-23 11:05:18.304687500,-35.0,2.0,54.0,69.14921874999999,-23.424999999999997,0.475288,33.57
2021-06-23 11:05:18.312500000,-35.0,2.0,54.0,69.15124999999999,-28.65,0.475288,33.57
2021-06-23 11:05:18.320312500,-35.25,1.75,54.0,69.15328124999999,-33.254999999999995,0.475288,33.57
2021-06-23 11:05:18.328125000,-35.5,1.5,54.0,69.1553125,-37.86,0.475288,33.57
2021-06-23 11:05:18.335937500,-35.75,1.25,54.0,69.15734375,-42.01,0.475288,33.57
2021-06-23 11:05:18.343750000,-36.0,1.0,54.0,69.159375,-46.16,0.475288,33.57
2021-06-23 11:05:18.351562500,-36.0,1.25,53.75,69.16140625,-50.254999999999995,0.475288,33.57
2021-06-23 11:05:18.359375000,-36.0,1.5,53.5,69.1634375,-54.35,0.475288,33.57
2021-06-23 11:05:18.367187500,-36.0,1.75,53.25,69.16546874999999,-58.91,0.475288,33.57
2021-06-23 11:05:18.375000000,-36.0,2.0,53.0,69.16749999999999,-63.47,0.475288,33.57
2021-06-23 11:05:18.382812500,-35.75,1.75,53.0,69.16953124999999,-68.99000000000001,0.475288,33.57
2021-06-23 11:05:18.390625000,-35.5,1.5,53.0,69.1715625,-74.51,0.475288,33.57
2021-06-23 11:05:18.398437500,-35.25,1.25,53.0,69.17359375,-81.28,0.475288,33.57
2021-06-23 11:05:18.406250000,-35.0,1.0,53.0,69.175625,-88.05,0.475288,33.57
2021-06-23 11:05:18.414062500,-35.0,1.25,53.25,69.17765625,-95.97999999999999,0.475288,33.57
2021-06-23 11:05:18.421875000,-35.0,1.5,53.5,69.1796875,-103.91,0.475288,33.57
2021-06-23 11:05:18.429687500,-35.0,1.75,53.75,69.18171875,-112.36,0.475288,33.57
2021-06-23 11:05:18.437500000,-35.0,2.0,54.0,69.18374999999999,-120.81,0.475288,33.57
2021-06-23 11:05:18.445312500,-35.0,2.0,54.0,69.18578124999999,-128.585,0.475288,33.57
2021-06-23 11:05:18.453125000,-35.0,2.0,54.0,69.18781249999999,-136.36,0.475288,33.57
2021-06-23 11:05:18.460937500,-35.0,2.0,54.0,69.18984375,-141.905,0.475288,33.57
2021-06-23 11:05:18.468750000,-35.0,2.0,54.0,69.191875,-147.45,0.475288,33.57
2021-06-23 11:05:18.476562500,-35.0,2.0,54.0,69.19390625,-149.20999999999998,0.475288,33.57
2021-06-23 11:05:18.484375000,-35.0,2.0,54.0,69.1959375,-150.97,0.475288,33.57
2021-06-23 11:05:18.492187500,-35.0,2.0,54.0,69.19796875,-147.86,0.475288,33.57
2021-06-23 11:05:18.500000000,-35.0,2.0,54.0,69.19999999999999,-144.75,0.475288,33.57
2021-06-23 11:05:18.507812500,-35.25,1.75,53.75,69.20203124999999,-136.555,0.475288,33.57
2021-06-23 11:05:18.515625000,-35.5,1.5,53.5,69.20406249999999,-128.36,0.475288,33.57
2021-06-23 11:05:18.523437500,-35.75,1.25,53.25,69.20609375,-115.84,0.475288,33.57
2021-06-23 11:05:18.531250000,-36.0,1.0,53.0,69.208125,-103.32,0.475288,33.57
2021-06-23 11:05:18.539062500,-35.75,1.25,53.25,69.21015625,-88.08,0.475288,33.57
2021-06-23 11:05:18.546875000,-35.5,1.5,53.5,69.2121875,-72.84,0.475288,33.57
2021-06-23 11:05:18.554687500,-35.25,1.75,53.75,69.21421875,-56.865,0.475288,33.57
2021-06-23 11:05:18.562500000,-35.0,2.0,54.0,69.21625,-40.89,0.475288,33.57
2021-06-23 11:05:18.570312500,-35.25,2.0,53.75,69.21828124999999,-25.975,0.475288,33.57
2021-06-23 11:05:18.578125000,-35.5,2.0,53.5,69.22031249999999,-11.06,0.475288,33.57
2021-06-23 11:05:18.585937500,-35.75,2.0,53.25,69.22234375,1.584999999999999,0.475288,33.57
2021-06-23 11:05:18.593750000,-36.0,2.0,53.0,69.224375,14.23,0.475288,33.57
2021-06-23 11:05:18.601562500,-35.75,2.0,53.0,69.22640625,24.185000000000002,0.475288,33.57
2021-06-23 11:05:18.609375000,-35.5,2.0,53.0,69.2284375,34.14,0.475288,33.57
2021-06-23 11:05:18.617187500,-35.25,2.0,53.0,69.23046875,41.605000000000004,0.475288,33.57
2021-06-23 11:05:18.625000000,-35.0,2.0,53.0,69.2325,49.07,0.475288,33.57
2021-06-23 11:05:18.632812500,-35.0,1.75,53.25,69.23453125,54.59,0.475288,33.57
2021-06-23 11:05:18.640625000,-35.0,1.5,53.5,69.23656249999999,60.11,0.475288,33.57
2021-06-23 11:05:18.648437500,-35.0,1.25,53.75,69.23859374999999,64.21000000000001,0.475288,33.57
2021-06-23 11:05:18.656250000,-35.0,1.0,54.0,69.240625,68.31,0.475288,33.57
2021-06-23 11:05:18.664062500,-35.25,1.0,53.75,69.24265625,71.33,0.475288,33.57
2021-06-23 11:05:18.671875000,-35.5,1.0,53.5,69.2446875,74.35,0.475288,33.57
2021-06-23 11:05:18.679687500,-35.75,1.0,53.25,69.24671875,76.41499999999999,0.475288,33.57
2021-06-23 11:05:18.687500000,-36.0,1.0,53.0,69.24875,78.48,0.475288,33.57
2021-06-23 11:05:18.695312500,-35.75,1.0,53.25,69.25078125,79.64,0.475288,33.57
2021-06-23 11:05:18.703125000,-35.5,1.0,53.5,69.25281249999999,80.8,0.475288,33.57
2021-06-23 11:05:18.710937500,-35.25,1.0,53.75,69.25484374999999,81.14,0.475288,33.57
2021-06-23 11:05:18.718750000,-35.0,1.0,54.0,69.256875,81.48,0.475288,33.57
2021-06-23 11:05:18.726562500,-35.0,1.0,54.0,69.25890625,81.21000000000001,0.475288,33.57
2021-06-23 11:05:18.734375000,-35.0,1.0,54.0,69.2609375,80.94,0.475288,33.57
2021-06-23 11:05:18.742187500,-35.0,1.0,54.0,69.26296875,80.36500000000001,0.475288,33.57
2021-06-23 11:05:18.750000000,-35.0,1.0,54.0,69.265,79.79,0.475288,33.57
2021-06-23 11:05:18.757812500,-35.25,1.25,54.0,69.26703125,79.18,0.47532803125,33.57
2021-06-23 11:05:18.765625000,-35.5,1.5,54.0,69.2690625,78.57,0.47536806249999997,33.57
2021-06-23 11:05:18.773437500,-35.75,1.75,54.0,69.27109374999999,78.095,0.47540809375,33.57
2021-06-23 11:05:18.781250000,-36.0,2.0,54.0,69.273125,77.62,0.475448125,33.57
2021-06-23 11:05:18.789062500,-35.75,2.0,54.0,69.27515625,77.26,0.47548815625,33.57
2021-06-23 11:05:18.796875000,-35.5,2.0,54.0,69.2771875,76.9,0.4755281875,33.57
2021-06-23 11:05:18.804687500,-35.25,2.0,54.0,69.27921875,76.525,0.47556821875,33.57
2021-06-23 11:05:18.812500000,-35.0,2.0,54.0,69.28125,76.15,0.47560825,33.57
2021-06-23 11:05:18.820312500,-35.0,1.75,53.75,69.28328125,75.57,0.47564828124999997,33.57
2021-06-23 11:05:18.828125000,-35.0,1.5,53.5,69.2853125,74.99,0.4756883125,33.57
2021-06-23 11:05:18.835937500,-35.0,1.25,53.25,69.28734374999999,74.095,0.47572834375,33.57
2021-06-23 11:05:18.843750000,-35.0,1.0,53.0,69.28937499999999,73.2,0.475768375,33.57
2021-06-23 11:05:18.851562500,-35.25,1.25,53.0,69.29140625,72.015,0.47580840625,33.57
2021-06-23 11:05:18.859375000,-35.5,1.5,53.0,69.2934375,70.83,0.4758484375,33.57
2021-06-23 11:05:18.867187500,-35.75,1.75,53.0,69.29546875,69.495,0.47588846875,33.57
2021-06-23 11:05:18.875000000,-36.0,2.0,53.0,69.2975,68.16,0.4759285,33.57
2021-06-23 11:05:18.882812500,-35.75,1.75,53.25,69.29953125,66.88499999999999,0.47596853125,33.57
2021-06-23 11:05:18.890625000,-35.5,1.5,53.5,69.3015625,65.61,0.4760085625,33.57
2021-06-23 11:05:18.898437500,-35.25,1.25,53.75,69.30359375,64.485,0.47604859375,33.57
2021-06-23 11:05:18.906250000,-35.0,1.0,54.0,69.30562499999999,63.36,0.476088625,33.57
2021-06-23 11:05:18.914062500,-35.0,1.25,54.0,69.30765625,62.26,0.47612865625,33.57
2021-06-23 11:05:18.921875000,-35.0,1.5,54.0,69.3096875,61.16,0.4761686875,33.57
2021-06-23 11:05:18.929687500,-35.0,1.75,54.0,69.31171875,59.709999999999994,0.47620871875000004,33.57
2021-06-23 11:05:18.937500000,-35.0,2.0,54.0,69.31375,58.26,0.47624875,33.57
2021-06-23 11:05:18.945312500,-35.0,2.0,54.0,69.31578125,55.955,0.47628878125,33.57
2021-06-23 11:05:18.953125000,-35.0,2.0,54.0,69.3178125,53.65,0.47632881250000003,33.57
2021-06-23 11:05:18.960937500,-35.0,2.0,54.0,69.31984375,50.05,0.47636884375,33.57
2021-06-23 11:05:18.968750000,-35.0,2.0,54.0,69.32187499999999,46.45,0.476408875,33.57
2021-06-23 11:05:18.976562500,-35.0,2.0,53.75,69.32390625,41.42,0.47644890625,33.57
2021-06-23 11:05:18.984375000,-35.0,2.0,53.5,69.3259375,36.39,0.47648893750000004,33.57
2021-06-23 11:05:18.992187500,-35.0,2.0,53.25,69.32796875,30.189999999999998,0.47652896875,33.57
2021-06-23 11:05:19.000000000,-35.0,2.0,53.0,69.33,23.99,0.476569,33.57
2021-06-23 11:05:19.007812500,-35.0,2.0,53.25,69.331953125,17.185,0.47652896875,33.570625
2021-06-23 11:05:19.015625000,-35.0,2.0,53.5,69.33390625,10.38,0.47648893750000004,33.57125
2021-06-23 11:05:19.023437500,-35.0,2.0,53.75,69.335859375,3.6400000000000006,0.47644890625,33.571875
2021-06-23 11:05:19.031250000,-35.0,2.0,54.0,69.3378125,-3.1,0.476408875,33.5725
2021-06-23 11:05:19.039062500,-35.0,1.75,54.0,69.339765625,-9.265,0.47636884375,33.573125
2021-06-23 11:05:19.046875000,-35.0,1.5,54.0,69.34171875,-15.43,0.47632881250000003,33.573750000000004
2021-06-23 11:05:19.054687500,-35.0,1.25,54.0,69.343671875,-20.84,0.47628878125,33.574375
2021-06-23 11:05:19.062500000,-35.0,1.0,54.0,69.345625,-26.25,0.47624875,33.575
2021-06-23 11:05:19.070312500,-35.0,1.25,53.75,69.347578125,-31.065,0.47620871875000004,33.575625
2021-06-23 11:05:19.078125000,-35.0,1.5,53.5,69.34953125,-35.88,0.4761686875,33.57625
2021-06-23 11:05:19.085937500,-35.0,1.75,53.25,69.351484375,-40.47,0.47612865625,33.576875
2021-06-23 11:05:19.093750000,-35.0,2.0,53.0,69.3534375,-45.06,0.476088625,33.5775
2021-06-23 11:05:19.101562500,-35.0,2.0,53.25,69.355390625,-49.894999999999996,0.47604859375,33.578125
2021-06-23 11:05:19.109375000,-35.0,2.0,53.5,69.35734375,-54.73,0.4760085625,33.57875
2021-06-23 11:05:19.117187500,-35.0,2.0,53.75,69.359296875,-60.239999999999995,0.47596853125,33.579375
2021-06-23 11:05:19.125000000,-35.0,2.0,54.0,69.36125,-65.75,0.4759285,33.58
2021-06-23 11:05:19.132812500,-35.25,2.0,53.75,69.363203125,-72.28999999999999,0.47588846875,33.580625000000005
2021-06-23 11:05:19.140625000,-35.5,2.0,53.5,69.36515625,-78.83,0.4758484375,33.581250000000004
2021-06-23 11:05:19.148437500,-35.75,2.0,53.25,69.367109375,-86.53,0.47580840625,33.581875000000004
2021-06-23 11:05:19.156250000,-36.0,2.0,53.0,69.3690625,-94.23,0.475768375,33.5825
2021-06-23 11:05:19.164062500,-36.0,1.75,53.0,69.371015625,-102.82,0.47572834375,33.583125
2021-06-23 11:05:19.171875000,-36.0,1.5,53.0,69.37296875,-111.41,0.4756883125,33.58375
2021-06-23 11:05:19.179687500,-36.0,1.25,53.0,69.374921875,-120.065,0.47564828124999997,33.584375
2021-06-23 11:05:19.187500000,-36.0,1.0,53.0,69.376875,-128.72,0.47560825,33.585
2021-06-23 11:05:19.195312500,-35.75,1.0,53.25,69.378828125,-135.98000000000002,0.47556821875,33.585625
2021-06-23 11:05:19.203125000,-35.5,1.0,53.5,69.38078125,-143.24,0.4755281875,33.58625
2021-06-23 11:05:19.210937500,-35.25,1.0,53.75,69.382734375,-147.32,0.47548815625,33.586875000000006
2021-06-23 11:05:19.218750000,-35.0,1.0,54.0,69.3846875,-151.4,0.475448125,33.587500000000006
2021-06-23 11:05:19.226562500,-35.0,1.25,53.75,69.386640625,-150.67000000000002,0.47540809375,33.588125000000005
2021-06-23 11:05:19.234375000,-35.0,1.5,53.5,69.38859375,-149.94,0.47536806249999997,33.588750000000005
2021-06-23 11:05:19.242187500,-35.0,1.75,53.25,69.390546875,-143.515,0.47532803125,33.589375000000004
2021-06-23 11:05:19.250000000,-35.0,2.0,53.0,69.3925,-137.09,0.475288,33.59
2021-06-23 11:05:19.257812500,-35.25,1.75,53.0,69.394453125,-125.265,0.47532803125,33.59
2021-06-23 11:05:19.265625000,-35.5,1.5,53.0,69.39640625,-113.44,0.47536806249999997,33.59
2021-06-23 11:05:19.273437500,-35.75,1.25,53.0,69.398359375,-97.61500000000001,0.47540809375,33.59
2021-06-23 11:05:19.281250000,-36.0,1.0,53.0,69.4003125,-81.79,0.475448125,33.59
2021-06-23 11:05:19.289062500,-35.75,1.0,53.25,69.402265625,-64.105,0.47548815625,33.59
2021-06-23 11:05:19.296875000,-35.5,1.0,53.5,69.40421875,-46.42,0.4755281875,33.59
2021-06-23 11:05:19.304687500,-35.25,1.0,53.75,69.406171875,-29.065,0.47556821875,33.59
2021-06-23 11:05:19.312500000,-35.0,1.0,54.0,69.408125,-11.71,0.47560825,33.59
2021-06-23 11:05:19.320312500,-35.0,1.0,53.75,69.410078125,3.635,0.47564828124999997,33.59
2021-06-23 11:05:19.328125000,-35.0,1.0,53.5,69.41203125,18.98,0.4756883125,33.59
2021-06-23 11:05:19.335937500,-35.0,1.0,53.25,69.413984375,31.47,0.47572834375,33.59
2021-06-23 11:05:19.343750000,-35.0,1.0,53.0,69.4159375,43.96,0.475768375,33.59
2021-06-23 11:05:19.351562500,-35.0,1.25,53.0,69.417890625,53.53,0.47580840625,33.59
2021-06-23 11:05:19.359375000,-35.0,1.5,53.0,69.41984375,63.1,0.4758484375,33.59
2021-06-23 11:05:19.367187500,-35.0,1.75,53.0,69.421796875,70.19,0.47588846875,33.59
2021-06-23 11:05:19.375000000,-35.0,2.0,53.0,69.42375,77.28,0.4759285,33.59
2021-06-23 11:05:19.382812500,-35.25,1.75,53.0,69.425703125,82.48,0.47596853125,33.59
2021-06-23 11:05:19.390625000,-35.5,1.5,53.0,69.42765625,87.68,0.4760085625,33.59
2021-06-23 11:05:19.398437500,-35.75,1.25,53.0,69.429609375,91.46000000000001,0.47604859375,33.59
2021-06-23 11:05:19.406250000,-36.0,1.0,53.0,69.4315625,95.24,0.476088625,33.59
2021-06-23 11:05:19.414062500,-36.0,1.25,53.0,69.433515625,97.865,0.47612865625,33.59
2021-06-23 11:05:19.421875000,-36.0,1.5,53.0,69.43546875,100.49,0.4761686875,33.59
2021-06-23 11:05:19.429687500,-36.0,1.75,53.0,69.437421875,102.035,0.47620871875000004,33.59
2021-06-23 11:05:19.437500000,-36.0,2.0,53.0,69.439375,103.58,0.47624875,33.59
2021-06-23 11:05:19.445312500,-35.75,2.0,53.25,69.441328125,104.11,0.47628878125,33.59
2021-06-23 11:05:19.453125000,-35.5,2.0,53.5,69.44328125,104.64,0.47632881250000003,33.59
2021-06-23 11:05:19.460937500,-35.25,2.0,53.75,69.445234375,104.27000000000001,0.47636884375,33.59
2021-06-23 11:05:19.468750000,-35.0,2.0,54.0,69.4471875,103.9,0.476408875,33.59
2021-06-23 11:05:19.476562500,-35.0,1.75,53.75,69.449140625,102.86,0.47644890625,33.59
2021-06-23 11:05:19.484375000,-35.0,1.5,53.5,69.45109375,101.82,0.47648893750000004,33.59
2021-06-23 11:05:19.492187500,-35.0,1.25,53.25,69.453046875,100.4,0.47652896875,33.59
2021-06-23 11:05:19.500000000,-35.0,1.0,53.0,69.455,98.98,0.476569,33.59
2021-06-23 11:05:19.507812500,-35.25,1.0,53.0,69.456953125,97.465,0.47652896875,33.59
2021-06-23 11:05:19.515625000,-35.5,1.0,53.0,69.45890625,95.95,0.47648893750000004,33.59
2021-06-23 11:05:19.523437500,-35.75,1.0,53.0,69.460859375,94.505,0.47644890625,33.59
2021-06-23 11:05:19.531250000,-36.0,1.0,53.0,69.4628125,93.06,0.476408875,33.59
2021-06-23 11:05:19.539062500,-35.75,1.25,53.0,69.464765625,91.735,0.47636884375,33.59
2021-06-23 11:05:19.546875000,-35.5,1.5,53.0,69.46671875,90.41,0.47632881250000003,33.59
2021-06-23 11:05:19.554687500,-35.25,1.75,53.0,69.468671875,89.16,0.47628878125,33.59
2021-06-23 11:05:19.562500000,-35.0,2.0,53.0,69.470625,87.91,0.47624875,33.59
2021-06-23 11:05:19.570312500,-35.25,2.0,53.0,69.472578125,86.69,0.47620871875000004,33.59
2021-06-23 11:05:19.578125000,-35.5,2.0,53.0,69.47453125,85.47,0.4761686875,33.59
2021-06-23 11:05:19.585937500,-35.75,2.0,53.0,69.476484375,84.27,0.47612865625,33.59
2021-06-23 11:05:19.593750000,-36.0,2.0,53.0,69.4784375,83.07,0.476088625,33.59
2021-06-23 11:05:19.601562500,-35.75,2.0,53.25,69.480390625,81.91,0.47604859375,33.59
2021-06-23 11:05:19.609375000,-35.5,2.0,53.5,69.48234375,80.75,0.4760085625,33.59
2021-06-23 11:05:19.617187500,-35.25,2.0,53.75,69.484296875,79.61500000000001,0.47596853125,33.59
2021-06-23 11:05:19.625000000,-35.0,2.0,54.0,69.48625,78.48,0.4759285,33.59
2021-06-23 11:05:19.632812500,-35.25,1.75,53.75,69.488203125,77.30000000000001,0.47588846875,33.59
2021-06-23 11:05:19.640625000,-35.5,1.5,53.5,69.49015625,76.12,0.4758484375,33.59
2021-06-23 11:05:19.648437500,-35.75,1.25,53.25,69.492109375,74.74000000000001,0.47580840625,33.59
2021-06-23 11:05:19.656250000,-36.0,1.0,53.0,69.4940625,73.36,0.475768375,33.59
2021-06-23 11:05:19.664062500,-35.75,1.0,53.0,69.496015625,71.625,0.47572834375,33.59
2021-06-23 11:05:19.671875000,-35.5,1.0,53.0,69.49796875,69.89,0.4756883125,33.59
2021-06-23 11:05:19.679687500,-35.25,1.0,53.0,69.499921875,67.655,0.47564828124999997,33.59
2021-06-23 11:05:19.687500000,-35.0,1.0,53.0,69.501875,65.42,0.47560825,33.59
2021-06-23 11:05:19.695312500,-35.25,1.0,53.0,69.503828125,62.620000000000005,0.47556821875,33.59
2021-06-23 11:05:19.703125000,-35.5,1.0,53.0,69.50578125,59.82,0.4755281875,33.59
2021-06-23 11:05:19.710937500,-35.75,1.0,53.0,69.507734375,56.4,0.47548815625,33.59
2021-06-23 11:05:19.718750000,-36.0,1.0,53.0,69.5096875,52.98,0.475448125,33.59
2021-06-23 11:05:19.726562500,-35.75,1.25,53.0,69.511640625,48.905,0.47540809375,33.59
2021-06-23 11:05:19.734375000,-35.5,1.5,53.0,69.51359375,44.83,0.47536806249999997,33.59
2021-06-23 11:05:19.742187500,-35.25,1.75,53.0,69.515546875,40.085,0.47532803125,33.59
2021-06-23 11:05:19.750000000,-35.0,2.0,53.0,69.5175,35.34,0.475288,33.59
2021-06-23 11:05:19.757812500,-35.0,1.75,53.25,69.519453125,29.970000000000002,0.475288,33.59
2021-06-23 11:05:19.765625000,-35.0,1.5,53.5,69.52140625,24.6,0.475288,33.59
2021-06-23 11:05:19.773437500,-35.0,1.25,53.75,69.523359375,18.77,0.475288,33.59
2021-06-23 11:05:19.781250000,-35.0,1.0,54.0,69.5253125,12.94,0.475288,33.59
2021-06-23 11:05:19.789062500,-35.0,1.25,53.75,69.527265625,6.92,0.475288,33.59
2021-06-23 11:05:19.796875000,-35.0,1.5,53.5,69.52921875,0.9,0.475288,33.59
2021-06-23 11:05:19.804687500,-35.0,1.75,53.25,69.531171875,-4.99,0.475288,33.59
2021-06-23 11:05:19.812500000,-35.0,2.0,53.0,69.533125,-10.88,0.475288,33.59
2021-06-23 11:05:19.820312500,-35.0,1.75,53.0,69.535078125,-16.35,0.475288,33.59
2021-06-23 11:05:19.828125000,-35.0,1.5,53.0,69.53703125,-21.82,0.475288,33.59
2021-06-23 11:05:19.835937500,-35.0,1.25,53.0,69.538984375,-26.740000000000002,0.475288,33.59
2021-06-23 11:05:19.843750000,-35.0,1.0,53.0,69.5409375,-31.66,0.475288,33.59
2021-06-23 11:05:19.851562500,-35.25,1.25,53.25,69.542890625,-36.075,0.475288,33.59
2021-06-23 11:05:19.859375000,-35.5,1.5,53.5,69.54484375,-40.49,0.475288,33.59
2021-06-23 11:05:19.867187500,-35.75,1.75,53.75,69.546796875,-44.644999999999996,0.475288,33.59
2021-06-23 11:05:19.875000000,-36.0,2.0,54.0,69.54875,-48.8,0.475288,33.59
2021-06-23 11:05:19.882812500,-35.75,1.75,54.0,69.550703125,-53.095,0.475288,33.59
2021-06-23 11:05:19.890625000,-35.5,1.5,54.0,69.55265625,-57.39,0.475288,33.59
2021-06-23 11:05:19.898437500,-35.25,1.25,54.0,69.554609375,-62.305,0.475288,33.59
2021-06-23 11:05:19.906250000,-35.0,1.0,54.0,69.5565625,-67.22,0.475288,33.59
2021-06-23 11:05:19.914062500,-35.0,1.0,54.0,69.558515625,-73.22999999999999,0.475288,33.59
2021-06-23 11:05:19.921875000,-35.0,1.0,54.0,69.56046875,-79.24,0.475288,33.59
2021-06-23 11:05:19.929687500,-35.0,1.0,54.0,69.562421875,-86.595,0.475288,33.59
2021-06-23 11:05:19.937500000,-35.0,1.0,54.0,69.564375,-93.95,0.475288,33.59
2021-06-23 11:05:19.945312500,-35.25,1.25,53.75,69.566328125,-102.435,0.475288,33.59
2021-06-23 11:05:19.953125000,-35.5,1.5,53.5,69.56828125,-110.92,0.475288,33.59
2021-06-23 11:05:19.960937500,-35.75,1.75,53.25,69.570234375,-119.62,0.475288,33.59
2021-06-23 11:05:19.968750000,-36.0,2.0,53.0,69.5721875,-128.32,0.475288,33.59
2021-06-23 11:05:19.976562500,-35.75,2.0,53.0,69.574140625,-135.655,0.475288,33.59
2021-06-23 11:05:19.984375000,-35.5,2.0,53.0,69.57609375,-142.99,0.475288,33.59
2021-06-23 11:05:19.992187500,-35.25,2.0,53.0,69.578046875,-147.03,0.475288,33.59
2021-06-23 11:05:20.000000000,-35.0,2.0,53.0,69.58,-151.07,0.475288,33.59
2021-06-23 11:05:20.007812500,-35.0,1.75,53.25,69.581796875,-150.1,0.475288,33.589375000000004
2021-06-23 11:05:20.015625000,-35.0,1.5,53.5,69.58359374999999,-149.13,0.475288,33.588750000000005
2021-06-23 11:05:20.023437500,-35.0,1.25,53.75,69.585390625,-142.315,0.475288,33.588125000000005
2021-06-23 11:05:20.031250000,-35.0,1.0,54.0,69.5871875,-135.5,0.475288,33.587500000000006
2021-06-23 11:05:20.039062500,-35.25,1.0,53.75,69.588984375,-123.255,0.475288,33.586875000000006
2021-06-23 11:05:20.046875000,-35.5,1.0,53.5,69.59078124999999,-111.01,0.475288,33.58625
2021-06-23 11:05:20.054687500,-35.75,1.0,53.25,69.592578125,-94.92500000000001,0.475288,33.585625
2021-06-23 11:05:20.062500000,-36.0,1.0,53.0,69.594375,-78.84,0.475288,33.585
2021-06-23 11:05:20.070312500,-35.75,1.0,53.25,69.596171875,-61.18000000000001,0.475288,33.584375
2021-06-23 11:05:20.078125000,-35.5,1.0,53.5,69.59796874999999,-43.52,0.475288,33.58375
2021-06-23 11:05:20.085937500,-35.25,1.0,53.75,69.599765625,-26.465000000000003,0.475288,33.583125
2021-06-23 11:05:20.093750000,-35.0,1.0,54.0,69.6015625,-9.41,0.475288,33.5825
2021-06-23 11:05:20.101562500,-35.0,1.0,54.0,69.603359375,5.505000000000001,0.475288,33.581875000000004
2021-06-23 11:05:20.109375000,-35.0,1.0,54.0,69.60515625,20.42,0.475288,33.581250000000004
2021-06-23 11:05:20.117187500,-35.0,1.0,54.0,69.606953125,32.565,0.475288,33.580625000000005
2021-06-23 11:05:20.125000000,-35.0,1.0,54.0,69.60875,44.71,0.475288,33.58
2021-06-23 11:05:20.132812500,-35.0,1.0,54.0,69.610546875,54.2,0.475288,33.579375
2021-06-23 11:05:20.140625000,-35.0,1.0,54.0,69.61234375,63.69,0.475288,33.57875
2021-06-23 11:05:20.148437500,-35.0,1.0,54.0,69.614140625,70.965,0.475288,33.578125
2021-06-23 11:05:20.156250000,-35.0,1.0,54.0,69.6159375,78.24,0.475288,33.5775
2021-06-23 11:05:20.164062500,-35.0,1.0,54.0,69.617734375,83.75,0.475288,33.576875
2021-06-23 11:05:20.171875000,-35.0,1.0,54.0,69.61953125,89.26,0.475288,33.57625
2021-06-23 11:05:20.179687500,-35.0,1.0,54.0,69.621328125,93.27000000000001,0.475288,33.575625
2021-06-23 11:05:20.187500000,-35.0,1.0,54.0,69.623125,97.28,0.475288,33.575
2021-06-23 11:05:20.195312500,-35.0,1.0,53.75,69.624921875,99.92,0.475288,33.574375
2021-06-23 11:05:20.203125000,-35.0,1.0,53.5,69.62671875,102.56,0.475288,33.573750000000004
2021-06-23 11:05:20.210937500,-35.0,1.0,53.25,69.628515625,103.975,0.475288,33.573125
2021-06-23 11:05:20.218750000,-35.0,1.0,53.0,69.6303125,105.39,0.475288,33.5725
2021-06-23 11:05:20.226562500,-35.0,1.0,53.0,69.632109375,105.795,0.475288,33.571875
2021-06-23 11:05:20.234375000,-35.0,1.0,53.0,69.63390625,106.2,0.475288,33.57125
2021-06-23 11:05:20.242187500,-35.0,1.0,53.0,69.635703125,105.875,0.475288,33.570625
2021-06-23 11:05:20.250000000,-35.0,1.0,53.0,69.6375,105.55,0.475288,33.57
2021-06-23 11:05:20.257812500,-35.0,1.0,53.0,69.639296875,104.77,0.47532803125,33.57
2021-06-23 11:05:20.265625000,-35.0,1.0,53.0,69.64109375,103.99,0.47536806249999997,33.57
2021-06-23 11:05:20.273437500,-35.0,1.0,53.0,69.64289062499999,102.91499999999999,0.47540809375,33.57
2021-06-23 11:05:20.281250000,-35.0,1.0,53.0,69.6446875,101.84,0.475448125,33.57
2021-06-23 11:05:20.289062500,-35.0,1.0,53.25,69.646484375,100.53999999999999,0.47548815625,33.57
2021-06-23 11:05:20.296875000,-35.0,1.0,53.5,69.64828125,99.24,0.4755281875,33.57
2021-06-23 11:05:20.304687500,-35.0,1.0,53.75,69.650078125,97.74,0.47556821875,33.57
2021-06-23 11:05:20.312500000,-35.0,1.0,54.0,69.651875,96.24,0.47560825,33.57
2021-06-23 11:05:20.320312500,-35.25,1.0,53.75,69.653671875,94.645,0.47564828124999997,33.57
2021-06-23 11:05:20.328125000,-35.5,1.0,53.5,69.65546875,93.05,0.4756883125,33.57
2021-06-23 11:05:20.335937500,-35.75,1.0,53.25,69.657265625,91.52,0.47572834375,33.57
2021-06-23 11:05:20.343750000,-36.0,1.0,53.0,69.6590625,89.99,0.475768375,33.57
2021-06-23 11:05:20.351562500,-36.0,1.0,53.25,69.660859375,88.755,0.47580840625,33.57
2021-06-23 11:05:20.359375000,-36.0,1.0,53.5,69.66265625,87.52,0.4758484375,33.57
2021-06-23 11:05:20.367187500,-36.0,1.0,53.75,69.664453125,86.71000000000001,0.47588846875,33.57
2021-06-23 11:05:20.375000000,-36.0,1.0,54.0,69.66625,85.9,0.4759285,33.57
2021-06-23 11:05:20.382812500,-36.0,1.0,54.0,69.668046875,85.47,0.47596853125,33.57
2021-06-23 11:05:20.390625000,-36.0,1.0,54.0,69.66984375,85.04,0.4760085625,33.57
2021-06-23 11:05:20.398437500,-36.0,1.0,54.0,69.671640625,84.725,0.47604859375,33.57
2021-06-23 11:05:20.406250000,-36.0,1.0,54.0,69.6734375,84.41,0.476088625,33.57
2021-06-23 11:05:20.414062500,-35.75,1.0,54.0,69.675234375,83.765,0.47612865625,33.57
2021-06-23 11:05:20.421875000,-35.5,1.0,54.0,69.67703125,83.12,0.4761686875,33.57
2021-06-23 11:05:20.429687500,-35.25,1.0,54.0,69.678828125,81.71000000000001,0.47620871875000004,33.57
2021-06-23 11:05:20.437500000,-35.0,1.0,54.0,69.680625,80.3,0.47624875,33.57
2021-06-23 11:05:20.445312500,-35.0,1.0,54.0,69.682421875,77.85499999999999,0.47628878125,33.57
2021-06-23 11:05:20.453125000,-35.0,1.0,54.0,69.68421875,75.41,0.47632881250000003,33.57
2021-06-23 11:05:20.460937500,-35.0,1.0,54.0,69.686015625,71.975,0.47636884375,33.57
2021-06-23 11:05:20.468750000,-35.0,1.0,54.0,69.6878125,68.54,0.476408875,33.57
2021-06-23 11:05:20.476562500,-35.25,1.0,53.75,69.689609375,64.435,0.47644890625,33.57
2021-06-23 11:05:20.484375000,-35.5,1.0,53.5,69.69140625,60.33,0.47648893750000004,33.57
2021-06-23 11:05:20.492187500,-35.75,1.0,53.25,69.693203125,56.015,0.47652896875,33.57
2021-06-23 11:05:20.500000000,-36.0,1.0,53.0,69.695,51.7,0.476569,33.57
2021-06-23 11:05:20.507812500,-35.75,1.0,53.25,69.696796875,47.58,0.47652896875,33.57
2021-06-23 11:05:20.515625000,-35.5,1.0,53.5,69.69859375,43.46,0.47648893750000004,33.57
2021-06-23 11:05:20.523437500,-35.25,1.0,53.75,69.700390625,39.71,0.47644890625,33.57
2021-06-23 11:05:20.531250000,-35.0,1.0,54.0,69.7021875,35.96,0.476408875,33.57
2021-06-23 11:05:20.539062500,-35.0,1.0,54.0,69.703984375,32.445,0.47636884375,33.57
2021-06-23 11:05:20.546875000,-35.0,1.0,54.0,69.70578125,28.93,0.47632881250000003,33.57
2021-06-23 11:05:20.554687500,-35.0,1.0,54.0,69.707578125,25.335,0.47628878125,33.57
2021-06-23 11:05:20.562500000,-35.0,1.0,54.0,69.709375,21.74,0.47624875,33.57
2021-06-23 11:05:20.570312500,-35.0,1.0,54.0,69.711171875,17.71,0.47620871875000004,33.57
2021-06-23 11:05:20.578125000,-35.0,1.0,54.0,69.71296875,13.68,0.4761686875,33.57
2021-06-23 11:05:20.585937500,-35.0,1.0,54.0,69.714765625,8.995,0.47612865625,33.57
2021-06-23 11:05:20.593750000,-35.0,1.0,54.0,69.7165625,4.31,0.476088625,33.57
2021-06-23 11:05:20.601562500,-35.25,1.0,53.75,69.718359375,-1.0200000000000005,0.47604859375,33.57
2021-06-23 11:05:20.609375000,-35.5,1.0,53.5,69.72015625,-6.35,0.4760085625,33.57
2021-06-23 11:05:20.617187500,-35.75,1.0,53.25,69.721953125,-12.105,0.47596853125,33.57
2021-06-23 11:05:20.625000000,-36.0,1.0,53.0,69.72375,-17.86,0.4759285,33.57
2021-06-23 11:05:20.632812500,-36.0,1.0,53.25,69.725546875,-23.689999999999998,0.47588846875,33.57
2021-06-23 11:05:20.640625000,-36.0,1.0,53.5,69.72734375,-29.52,0.4758484375,33.57
2021-06-23 11:05:20.648437500,-36.0,1.0,53.75,69.729140625,-35.08,0.47580840625,33.57
2021-06-23 11:05:20.656250000,-36.0,1.0,54.0,69.7309375,-40.64,0.475768375,33.57
2021-06-23 11:05:20.664062500,-35.75,1.0,54.0,69.732734375,-45.685,0.47572834375,33.57
2021-06-23 11:05:20.671875000,-35.5,1.0,54.0,69.73453125,-50.73,0.4756883125,33.57
2021-06-23 11:05:20.679687500,-35.25,1.0,54.0,69.736328125,-55.224999999999994,0.47564828124999997,33.57
2021-06-23 11:05:20.687500000,-35.0,1.0,54.0,69.738125,-59.72,0.47560825,33.57
2021-06-23 11:05:20.695312500,-35.0,1.0,53.75,69.73992187500001,-63.88,0.47556821875,33.57
2021-06-23 11:05:20.703125000,-35.0,1.0,53.5,69.74171875,-68.04,0.4755281875,33.57
2021-06-23 11:05:20.710937500,-35.0,1.0,53.25,69.743515625,-72.36000000000001,0.47548815625,33.57
2021-06-23 11:05:20.718750000,-35.0,1.0,53.0,69.7453125,-76.68,0.475448125,33.57
2021-06-23 11:05:20.726562500,-35.0,1.0,53.0,69.74710937500001,-81.79,0.47540809375,33.57
2021-06-23 11:05:20.734375000,-35.0,1.0,53.0,69.74890625,-86.9,0.47536806249999997,33.57
2021-06-23 11:05:20.742187500,-35.0,1.0,53.0,69.750703125,-93.295,0.47532803125,33.57
2021-06-23 11:05:20.750000000,-35.0,1.0,53.0,69.7525,-99.69,0.475288,33.57
2021-06-23 11:05:20.757812500,-35.25,1.0,53.0,69.754296875,-107.42,0.47532803125,33.57
2021-06-23 11:05:20.765625000,-35.5,1.0,53.0,69.75609375,-115.15,0.47536806249999997,33.57
2021-06-23 11:05:20.773437500,-35.75,1.0,53.0,69.757890625,-123.47500000000001,0.47540809375,33.57
2021-06-23 11:05:20.781250000,-36.0,1.0,53.0,69.7596875,-131.8,0.475448125,33.57
2021-06-23 11:05:20.789062500,-36.0,1.0,53.0,69.761484375,-139.205,0.47548815625,33.57
2021-06-23 11:05:20.796875000,-36.0,1.0,53.0,69.76328125,-146.61,0.4755281875,33.57
2021-06-23 11:05:20.804687500,-36.0,1.0,53.0,69.765078125,-151.09500000000003,0.47556821875,33.57
2021-06-23 11:05:20.812500000,-36.0,1.0,53.0,69.766875,-155.58,0.47560825,33.57
2021-06-23 11:05:20.820312500,-35.75,1.0,53.25,69.768671875,-155.305,0.47564828124999997,33.57
2021-06-23 11:05:20.828125000,-35.5,1.0,53.5,69.77046875,-155.03,0.4756883125,33.57
2021-06-23 11:05:20.835937500,-35.25,1.0,53.75,69.772265625,-148.95999999999998,0.47572834375,33.57
2021-06-23 11:05:20.843750000,-35.0,1.0,54.0,69.7740625,-142.89,0.475768375,33.57
2021-06-23 11:05:20.851562500,-35.25,1.0,54.0,69.775859375,-131.255,0.47580840625,33.57
2021-06-23 11:05:20.859375000,-35.5,1.0,54.0,69.77765625,-119.62,0.4758484375,33.57
2021-06-23 11:05:20.867187500,-35.75,1.0,54.0,69.779453125,-103.855,0.47588846875,33.57
2021-06-23 11:05:20.875000000,-36.0,1.0,54.0,69.78125,-88.09,0.4759285,33.57
2021-06-23 11:05:20.882812500,-36.0,1.0,53.75,69.783046875,-70.39,0.47596853125,33.57
2021-06-23 11:05:20.890625000,-36.0,1.0,53.5,69.78484375000001,-52.69,0.4760085625,33.57
2021-06-23 11:05:20.898437500,-36.0,1.0,53.25,69.786640625,-35.33,0.47604859375,33.57
2021-06-23 11:05:20.906250000,-36.0,1.0,53.0,69.7884375,-17.97,0.476088625,33.57
2021-06-23 11:05:20.914062500,-35.75,1.0,53.25,69.790234375,-2.6950000000000003,0.47612865625,33.57
2021-06-23 11:05:20.921875000,-35.5,1.0,53.5,69.79203125000001,12.58,0.4761686875,33.57
2021-06-23 11:05:20.929687500,-35.25,1.0,53.75,69.793828125,24.85,0.47620871875000004,33.57
2021-06-23 11:05:20.937500000,-35.0,1.0,54.0,69.795625,37.12,0.47624875,33.57
2021-06-23 11:05:20.945312500,-35.0,1.0,54.0,69.797421875,46.239999999999995,0.47628878125,33.57
2021-06-23 11:05:20.953125000,-35.0,1.0,54.0,69.79921875000001,55.36,0.47632881250000003,33.57
2021-06-23 11:05:20.960937500,-35.0,1.0,54.0,69.801015625,61.705,0.47636884375,33.57
2021-06-23 11:05:20.968750000,-35.0,1.0,54.0,69.8028125,68.05,0.476408875,33.57
2021-06-23 11:05:20.976562500,-35.0,1.0,54.0,69.804609375,72.17,0.47644890625,33.57
2021-06-23 11:05:20.984375000,-35.0,1.0,54.0,69.80640625000001,76.29,0.47648893750000004,33.57
2021-06-23 11:05:20.992187500,-35.0,1.0,54.0,69.808203125,78.73500000000001,0.47652896875,33.57
2021-06-23 11:05:21.000000000,-35.0,1.0,54.0,69.81,81.18,0.476569,33.57
2021-06-23 11:05:21.007812500,-35.25,1.0,53.75,69.81171875,82.41,0.476569,33.570625
2021-06-23 11:05:21.015625000,-35.5,1.0,53.5,69.8134375,83.64,0.476569,33.57125
2021-06-23 11:05:21.023437500,-35.75,1.0,53.25,69.81515625,84.055,0.476569,33.571875
2021-06-23 11:05:21.031250000,-36.0,1.0,53.0,69.816875,84.47,0.476569,33.5725
2021-06-23 11:05:21.039062500,-35.75,1.0,53.25,69.81859375,84.42,0.476569,33.573125
2021-06-23 11:05:21.046875000,-35.5,1.0,53.5,69.8203125,84.37,0.476569,33.573750000000004
2021-06-23 11:05:21.054687500,-35.25,1.0,53.75,69.82203125000001,84.12,0.476569,33.574375
2021-06-23 11:05:21.062500000,-35.0,1.0,54.0,69.82375,83.87,0.476569,33.575
2021-06-23 11:05:21.070312500,-35.0,1.0,54.0,69.82546875,83.55000000000001,0.476569,33.575625
2021-06-23 11:05:21.078125000,-35.0,1.0,54.0,69.82718750000001,83.23,0.476569,33.57625
2021-06-23 11:05:21.085937500,-35.0,1.0,54.0,69.82890625,82.825,0.476569,33.576875
2021-06-23 11:05:21.093750000,-35.0,1.0,54.0,69.830625,82.42,0.476569,33.5775
2021-06-23 11:05:21.101562500,-35.25,1.0,53.75,69.83234375,81.81,0.476569,33.578125
2021-06-23 11:05:21.109375000,-35.5,1.0,53.5,69.8340625,81.2,0.476569,33.57875
2021-06-23 11:05:21.117187500,-35.75,1.0,53.25,69.83578125,80.255,0.476569,33.579375
2021-06-23 11:05:21.125000000,-36.0,1.0,53.0,69.8375,79.31,0.476569,33.58
2021-06-23 11:05:21.132812500,-35.75,1.0,53.25,69.83921875,77.995,0.476569,33.580625000000005
2021-06-23 11:05:21.140625000,-35.5,1.0,53.5,69.8409375,76.68,0.476569,33.581250000000004
2021-06-23 11:05:21.148437500,-35.25,1.0,53.75,69.84265625,75.125,0.476569,33.581875000000004
2021-06-23 11:05:21.156250000,-35.0,1.0,54.0,69.844375,73.57,0.476569,33.5825
2021-06-23 11:05:21.164062500,-35.25,1.0,54.0,69.84609375000001,72.00999999999999,0.476569,33.583125
2021-06-23 11:05:21.171875000,-35.5,1.0,54.0,69.8478125,70.45,0.476569,33.58375
2021-06-23 11:05:21.179687500,-35.75,1.0,54.0,69.84953125,69.16,0.476569,33.584375
2021-06-23 11:05:21.187500000,-36.0,1.0,54.0,69.85125000000001,67.87,0.476569,33.585
2021-06-23 11:05:21.195312500,-35.75,1.0,54.0,69.85296875,67.03,0.476569,33.585625
2021-06-23 11:05:21.203125000,-35.5,1.0,54.0,69.8546875,66.19,0.476569,33.58625
2021-06-23 11:05:21.210937500,-35.25,1.0,54.0,69.85640625,65.765,0.476569,33.586875000000006
2021-06-23 11:05:21.218750000,-35.0,1.0,54.0,69.858125,65.34,0.476569,33.587500000000006
2021-06-23 11:05:21.226562500,-35.0,1.0,54.0,69.85984375,65.1,0.476569,33.588125000000005
2021-06-23 11:05:21.234375000,-35.0,1.0,54.0,69.8615625,64.86,0.476569,33.588750000000005
2021-06-23 11:05:21.242187500,-35.0,1.0,54.0,69.86328125,64.41499999999999,0.476569,33.589375000000004
2021-06-23 11:05:21.250000000,-35.0,1.0,54.0,69.86500000000001,63.97,0.476569,33.59
2021-06-23 11:05:21.257812500,-35.25,1.0,53.75,69.86671875,62.92,0.47644890625,33.59
2021-06-23 11:05:21.265625000,-35.5,1.0,53.5,69.8684375,61.87,0.47632881250000003,33.59
2021-06-23 11:05:21.273437500,-35.75,1.0,53.25,69.87015625000001,59.905,0.47620871875000004,33.59
2021-06-23 11:05:21.281250000,-36.0,1.0,53.0,69.871875,57.94,0.47608862500000004,33.59
2021-06-23 11:05:21.289062500,-35.75,1.0,53.0,69.87359375,54.989999999999995,0.47596853125,33.59
2021-06-23 11:05:21.296875000,-35.5,1.0,53.0,69.8753125,52.04,0.4758484375,33.59
2021-06-23 11:05:21.304687500,-35.25,1.0,53.0,69.87703125,48.26,0.47572834375,33.59
2021-06-23 11:05:21.312500000,-35.0,1.0,53.0,69.87875,44.48,0.47560825,33.59
2021-06-23 11:05:21.320312500,-35.0,1.0,53.25,69.88046875,40.19499999999999,0.47548815625,33.59
2021-06-23 11:05:21.328125000,-35.0,1.0,53.5,69.8821875,35.91,0.4753680625,33.59
2021-06-23 11:05:21.335937500,-35.0,1.0,53.75,69.88390625,31.494999999999997,0.47524796875,33.59
2021-06-23 11:05:21.343750000,-35.0,1.0,54.0,69.885625,27.08,0.475127875,33.59
2021-06-23 11:05:21.351562500,-35.0,1.25,54.0,69.88734375,22.765,0.47500778125,33.59
2021-06-23 11:05:21.359375000,-35.0,1.5,54.0,69.88906250000001,18.45,0.4748876875,33.59
2021-06-23 11:05:21.367187500,-35.0,1.75,54.0,69.89078125,14.265,0.47476759375,33.59
2021-06-23 11:05:21.375000000,-35.0,2.0,54.0,69.8925,10.08,0.4746475,33.59
2021-06-23 11:05:21.382812500,-35.25,2.0,53.75,69.89421875000001,5.84,0.47452740625,33.59
2021-06-23 11:05:21.390625000,-35.5,2.0,53.5,69.8959375,1.6,0.4744073125,33.59
2021-06-23 11:05:21.398437500,-35.75,2.0,53.25,69.89765625,-2.9200000000000004,0.47428721875,33.59
2021-06-23 11:05:21.406250000,-36.0,2.0,53.0,69.899375,-7.44,0.474167125,33.59
2021-06-23 11:05:21.414062500,-35.75,1.75,53.25,69.90109375,-12.395,0.47404703125,33.59
2021-06-23 11:05:21.421875000,-35.5,1.5,53.5,69.9028125,-17.35,0.4739269375,33.59
2021-06-23 11:05:21.429687500,-35.25,1.25,53.75,69.90453125,-22.630000000000003,0.47380684375,33.59
2021-06-23 11:05:21.437500000,-35.0,1.0,54.0,69.90625,-27.91,0.47368675,33.59
2021-06-23 11:05:21.445312500,-35.0,1.25,53.75,69.90796875,-33.2,0.47356665625,33.59
2021-06-23 11:05:21.453125000,-35.0,1.5,53.5,69.9096875,-38.49,0.4734465625,33.59
2021-06-23 11:05:21.460937500,-35.0,1.75,53.25,69.91140625,-43.400000000000006,0.47332646875,33.59
2021-06-23 11:05:21.468750000,-35.0,2.0,53.0,69.91312500000001,-48.31,0.47320637499999996,33.59
2021-06-23 11:05:21.476562500,-35.0,2.0,53.0,69.91484375,-52.58,0.47308628124999996,33.59
2021-06-23 11:05:21.484375000,-35.0,2.0,53.0,69.9165625,-56.85,0.47296618749999997,33.59
2021-06-23 11:05:21.492187500,-35.0,2.0,53.0,69.91828125,-60.485,0.47284609375,33.59
2021-06-23 11:05:21.500000000,-35.0,2.0,53.0,69.92,-64.12,0.472726,33.59
2021-06-23 11:05:21.507812500,-35.0,1.75,53.25,69.92171875,-67.45,0.47280606249999996,33.59
2021-06-23 11:05:21.515625000,-35.0,1.5,53.5,69.9234375,-70.78,0.472886125,33.59
2021-06-23 11:05:21.523437500,-35.0,1.25,53.75,69.92515625,-74.355,0.47296618749999997,33.59
2021-06-23 11:05:21.531250000,-35.0,1.0,54.0,69.926875,-77.93,0.47304625,33.59
2021-06-23 11:05:21.539062500,-35.25,1.0,53.75,69.92859375,-82.36500000000001,0.4731263125,33.59
2021-06-23 11:05:21.546875000,-35.5,1.0,53.5,69.9303125,-86.8,0.47320637499999996,33.59
2021-06-23 11:05:21.554687500,-35.75,1.0,53.25,69.93203125000001,-92.52,0.4732864375,33.59
2021-06-23 11:05:21.562500000,-36.0,1.0,53.0,69.93375,-98.24,0.47336649999999997,33.59
2021-06-23 11:05:21.570312500,-35.75,1.25,53.25,69.93546875,-105.275,0.4734465625,33.59
2021-06-23 11:05:21.578125000,-35.5,1.5,53.5,69.93718750000001,-112.31,0.473526625,33.59
2021-06-23 11:05:21.585937500,-35.25,1.75,53.75,69.93890625,-120.105,0.47360668749999996,33.59
2021-06-23 11:05:21.593750000,-35.0,2.0,54.0,69.940625,-127.9,0.47368675,33.59
2021-06-23 11:05:21.601562500,-35.0,2.0,53.75,69.94234375,-135.29500000000002,0.47376681249999997,33.59
2021-06-23 11:05:21.609375000,-35.0,2.0,53.5,69.9440625,-142.69,0.473846875,33.59
2021-06-23 11:05:21.617187500,-35.0,2.0,53.25,69.94578125,-148.07999999999998,0.4739269375,33.59
2021-06-23 11:05:21.625000000,-35.0,2.0,53.0,69.9475,-153.47,0.47400699999999996,33.59
2021-06-23 11:05:21.632812500,-35.0,1.75,53.25,69.94921875,-155.2,0.4740870625,33.59
2021-06-23 11:05:21.640625000,-35.0,1.5,53.5,69.9509375,-156.93,0.47416712499999997,33.59
2021-06-23 11:05:21.648437500,-35.0,1.25,53.75,69.95265625,-153.755,0.4742471875,33.59
2021-06-23 11:05:21.656250000,-35.0,1.0,54.0,69.954375,-150.58,0.47432725,33.59
2021-06-23 11:05:21.664062500,-35.0,1.0,53.75,69.95609375000001,-142.155,0.4744073125,33.59
2021-06-23 11:05:21.671875000,-35.0,1.0,53.5,69.9578125,-133.73,0.474487375,33.59
2021-06-23 11:05:21.679687500,-35.0,1.0,53.25,69.95953125,-120.74,0.47456743749999997,33.59
2021-06-23 11:05:21.687500000,-35.0,1.0,53.0,69.96125,-107.75,0.4746475,33.59
2021-06-23 11:05:21.695312500,-35.0,1.25,53.25,69.96296875,-91.765,0.4747275625,33.59
2021-06-23 11:05:21.703125000,-35.0,1.5,53.5,69.9646875,-75.78,0.474807625,33.59
2021-06-23 11:05:21.710937500,-35.0,1.75,53.75,69.96640625,-58.835,0.4748876875,33.59
2021-06-23 11:05:21.718750000,-35.0,2.0,54.0,69.968125,-41.89,0.47496774999999997,33.59
2021-06-23 11:05:21.726562500,-35.0,1.75,53.75,69.96984375,-25.875,0.4750478125,33.59
2021-06-23 11:05:21.734375000,-35.0,1.5,53.5,69.9715625,-9.86,0.475127875,33.59
2021-06-23 11:05:21.742187500,-35.0,1.25,53.25,69.97328125,3.8599999999999994,0.4752079375,33.59
2021-06-23 11:05:21.750000000,-35.0,1.0,53.0,69.975,17.58,0.475288,33.59
2021-06-23 11:05:21.757812500,-35.0,1.0,53.0,69.97671875,28.34,0.47536806249999997,33.59
2021-06-23 11:05:21.765625000,-35.0,1.0,53.0,69.9784375,39.1,0.475448125,33.59
2021-06-23 11:05:21.773437500,-35.0,1.0,53.0,69.98015625000001,46.845,0.4755281875,33.59
2021-06-23 11:05:21.781250000,-35.0,1.0,53.0,69.981875,54.59,0.47560825,33.59
2021-06-23 11:05:21.789062500,-35.0,1.0,53.25,69.98359375,59.63,0.4756883125,33.59
2021-06-23 11:05:21.796875000,-35.0,1.0,53.5,69.9853125,64.67,0.47576837499999997,33.59
2021-06-23 11:05:21.804687500,-35.0,1.0,53.75,69.98703125,67.46000000000001,0.4758484375,33.59
2021-06-23 11:05:21.812500000,-35.0,1.0,54.0,69.98875,70.25,0.4759285,33.59
2021-06-23 11:05:21.820312500,-35.0,1.0,53.75,69.99046875,71.225,0.4760085625,33.59
2021-06-23 11:05:21.828125000,-35.0,1.0,53.5,69.9921875,72.2,0.476088625,33.59
2021-06-23 11:05:21.835937500,-35.0,1.0,53.25,69.99390625,71.745,0.47616868749999997,33.59
2021-06-23 11:05:21.843750000,-35.0,1.0,53.0,69.995625,71.29,0.47624875,33.59
2021-06-23 11:05:21.851562500,-35.0,1.25,53.0,69.99734375,69.76,0.4763288125,33.59
2021-06-23 11:05:21.859375000,-35.0,1.5,53.0,69.99906250000001,68.23,0.476408875,33.59
2021-06-23 11:05:21.867187500,-35.0,1.75,53.0,70.00078125,65.98,0.4764889375,33.59
2021-06-23 11:05:21.875000000,-35.0,2.0,53.0,70.0025,63.73,0.476569,33.59
2021-06-23 11:05:21.882812500,-35.25,2.0,53.25,70.00421875,61.135,0.4766490625,33.59
2021-06-23 11:05:21.890625000,-35.5,2.0,53.5,70.0059375,58.54,0.476729125,33.59
2021-06-23 11:05:21.898437500,-35.75,2.0,53.75,70.00765625,55.995000000000005,0.4768091875,33.59
2021-06-23 11:05:21.906250000,-36.0,2.0,54.0,70.009375,53.45,0.47688925,33.59
2021-06-23 11:05:21.914062500,-35.75,1.75,54.0,70.01109375,51.285,0.4769693125,33.59
2021-06-23 11:05:21.921875000,-35.5,1.5,54.0,70.0128125,49.12,0.477049375,33.59
2021-06-23 11:05:21.929687500,-35.25,1.25,54.0,70.01453125,47.56,0.4771294375,33.59
2021-06-23 11:05:21.937500000,-35.0,1.0,54.0,70.01625,46.0,0.4772095,33.59
2021-06-23 11:05:21.945312500,-35.0,1.0,54.0,70.01796875,45.125,0.4772895625,33.59
2021-06-23 11:05:21.953125000,-35.0,1.0,54.0,70.0196875,44.25,0.477369625,33.59
2021-06-23 11:05:21.960937500,-35.0,1.0,54.0,70.02140625,43.989999999999995,0.4774496875,33.59
2021-06-23 11:05:21.968750000,-35.0,1.0,54.0,70.02312500000001,43.73,0.47752975,33.59
2021-06-23 11:05:21.976562500,-35.25,1.25,53.75,70.02484375,43.9,0.4776098125,33.59
2021-06-23 11:05:21.984375000,-35.5,1.5,53.5,70.0265625,44.07,0.477689875,33.59
2021-06-23 11:05:21.992187500,-35.75,1.75,53.25,70.02828125,44.475,0.4777699375,33.59
2021-06-23 11:05:22.000000000,-36.0,2.0,53.0,70.03,44.88,0.47785,33.59
2021-06-23 11:05:22.007812500,-35.75,1.75,53.25,70.031640625,45.31,0.4777699375,33.59
2021-06-23 11:05:22.015625000,-35.5,1.5,53.5,70.03328125,45.74,0.477689875,33.59
2021-06-23 11:05:22.023437500,-35.25,1.25,53.75,70.034921875,46.03,0.4776098125,33.59
2021-06-23 11:05:22.031250000,-35.0,1.0,54.0,70.0365625,46.32,0.47752975,33.59
2021-06-23 11:05:22.039062500,-35.0,1.0,54.0,70.038203125,46.28,0.4774496875,33.59
2021-06-23 11:05:22.046875000,-35.0,1.0,54.0,70.03984375,46.24,0.477369625,33.59
2021-06-23 11:05:22.054687500,-35.0,1.0,54.0,70.041484375,45.67,0.4772895625,33.59
2021-06-23 11:05:22.062500000,-35.0,1.0,54.0,70.043125,45.1,0.4772095,33.59
2021-06-23 11:05:22.070312500,-35.25,1.0,53.75,70.044765625,43.79,0.4771294375,33.59
2021-06-23 11:05:22.078125000,-35.5,1.0,53.5,70.04640625,42.48,0.477049375,33.59
2021-06-23 11:05:22.085937500,-35.75,1.0,53.25,70.048046875,40.305,0.4769693125,33.59
2021-06-23 11:05:22.093750000,-36.0,1.0,53.0,70.0496875,38.13,0.47688925,33.59
2021-06-23 11:05:22.101562500,-36.0,1.0,53.0,70.051328125,35.11,0.4768091875,33.59
2021-06-23 11:05:22.109375000,-36.0,1.0,53.0,70.05296875,32.09,0.476729125,33.59
2021-06-23 11:05:22.117187500,-36.0,1.0,53.0,70.054609375,28.405,0.4766490625,33.59
2021-06-23 11:05:22.125000000,-36.0,1.0,53.0,70.05625,24.72,0.476569,33.59
2021-06-23 11:05:22.132812500,-35.75,1.25,53.25,70.057890625,20.695,0.4764889375,33.59
2021-06-23 11:05:22.140625000,-35.5,1.5,53.5,70.05953125,16.67,0.476408875,33.59
2021-06-23 11:05:22.148437500,-35.25,1.75,53.75,70.061171875,12.59,0.4763288125,33.59
2021-06-23 11:05:22.156250000,-35.0,2.0,54.0,70.0628125,8.51,0.47624875,33.59
2021-06-23 11:05:22.164062500,-35.0,2.0,54.0,70.064453125,4.555,0.47616868749999997,33.59
2021-06-23 11:05:22.171875000,-35.0,2.0,54.0,70.06609375,0.6,0.476088625,33.59
2021-06-23 11:05:22.179687500,-35.0,2.0,54.0,70.067734375,-3.255,0.4760085625,33.59
2021-06-23 11:05:22.187500000,-35.0,2.0,54.0,70.069375,-7.11,0.4759285,33.59
2021-06-23 11:05:22.195312500,-35.0,2.0,54.0,70.071015625,-10.995000000000001,0.4758484375,33.59
2021-06-23 11:05:22.203125000,-35.0,2.0,54.0,70.07265625,-14.88,0.47576837499999997,33.59
2021-06-23 11:05:22.210937500,-35.0,2.0,54.0,70.074296875,-18.96,0.4756883125,33.59
2021-06-23 11:05:22.218750000,-35.0,2.0,54.0,70.0759375,-23.04,0.47560825,33.59
2021-06-23 11:05:22.226562500,-35.0,1.75,54.0,70.077578125,-27.355,0.4755281875,33.59
2021-06-23 11:05:22.234375000,-35.0,1.5,54.0,70.07921875,-31.67,0.475448125,33.59
2021-06-23 11:05:22.242187500,-35.0,1.25,54.0,70.080859375,-36.115,0.47536806249999997,33.59
2021-06-23 11:05:22.250000000,-35.0,1.0,54.0,70.0825,-40.56,0.475288,33.59
2021-06-23 11:05:22.257812500,-35.25,1.25,53.75,70.084140625,-44.925,0.4752079375,33.59
2021-06-23 11:05:22.265625000,-35.5,1.5,53.5,70.08578125,-49.29,0.475127875,33.59
2021-06-23 11:05:22.273437500,-35.75,1.75,53.25,70.087421875,-53.415,0.4750478125,33.59
2021-06-23 11:05:22.281250000,-36.0,2.0,53.0,70.0890625,-57.54,0.47496774999999997,33.59
2021-06-23 11:05:22.289062500,-36.0,2.0,53.0,70.090703125,-61.405,0.4748876875,33.59
2021-06-23 11:05:22.296875000,-36.0,2.0,53.0,70.09234375,-65.27,0.474807625,33.59
2021-06-23 11:05:22.304687500,-36.0,2.0,53.0,70.093984375,-69.08,0.4747275625,33.59
2021-06-23 11:05:22.312500000,-36.0,2.0,53.0,70.095625,-72.89,0.4746475,33.59
2021-06-23 11:05:22.320312500,-35.75,2.0,53.25,70.097265625,-77.03,0.47456743749999997,33.59
2021-06-23 11:05:22.328125000,-35.5,2.0,53.5,70.09890625,-81.17,0.474487375,33.59
2021-06-23 11:05:22.335937500,-35.25,2.0,53.75,70.10054687499999,-86.11,0.4744073125,33.59
2021-06-23 11:05:22.343750000,-35.0,2.0,54.0,70.1021875,-91.05,0.47432725,33.59
2021-06-23 11:05:22.351562500,-35.25,1.75,54.0,70.10382812499999,-97.17,0.4742471875,33.59
2021-06-23 11:05:22.359375000,-35.5,1.5,54.0,70.10546875,-103.29,0.47416712499999997,33.59
2021-06-23 11:05:22.367187500,-35.75,1.25,54.0,70.107109375,-110.64,0.4740870625,33.59
2021-06-23 11:05:22.375000000,-36.0,1.0,54.0,70.10875,-117.99,0.47400699999999996,33.59
2021-06-23 11:05:22.382812500,-35.5,0.75,54.25,70.110390625,-126.08500000000001,0.4739269375,33.59
2021-06-23 11:05:22.390625000,-35.0,0.5,54.5,70.11203125,-134.18,0.473846875,33.59
2021-06-23 11:05:22.398437500,-34.5,0.25,54.75,70.113671875,-141.89,0.47376681249999997,33.59
2021-06-23 11:05:22.406250000,-34.0,0.0,55.0,70.1153125,-149.6,0.47368675,33.59
2021-06-23 11:05:22.414062500,-34.75,0.0,54.75,70.116953125,-155.3,0.47360668749999996,33.59
2021-06-23 11:05:22.421875000,-35.5,0.0,54.5,70.11859375,-161.0,0.473526625,33.59
2021-06-23 11:05:22.429687500,-36.25,0.0,54.25,70.120234375,-162.89,0.4734465625,33.59
2021-06-23 11:05:22.437500000,-37.0,0.0,54.0,70.121875,-164.78,0.47336649999999997,33.59
2021-06-23 11:05:22.445312500,-38.75,-0.25,54.0,70.123515625,-161.475,0.4732864375,33.59
2021-06-23 11:05:22.453125000,-40.5,-0.5,54.0,70.12515625,-158.17,0.47320637499999996,33.59
2021-06-23 11:05:22.460937500,-42.25,-0.75,54.0,70.126796875,-149.20499999999998,0.4731263125,33.59
2021-06-23 11:05:22.468750000,-44.0,-1.0,54.0,70.1284375,-140.24,0.47304625,33.59
2021-06-23 11:05:22.476562500,-44.75,-1.5,54.25,70.130078125,-126.295,0.47296618749999997,33.59
2021-06-23 11:05:22.484375000,-45.5,-2.0,54.5,70.13171875,-112.35,0.472886125,33.59
2021-06-23 11:05:22.492187500,-46.25,-2.5,54.75,70.133359375,-95.13499999999999,0.47280606249999996,33.59
2021-06-23 11:05:22.500000000,-47.0,-3.0,55.0,70.13499999999999,-77.92,0.472726,33.59
2021-06-23 11:05:22.507812500,-46.25,-2.25,54.25,70.136640625,-59.63,0.47280606249999996,33.59
2021-06-23 11:05:22.515625000,-45.5,-1.5,53.5,70.13828124999999,-41.34,0.472886125,33.59
2021-06-23 11:05:22.523437500,-44.75,-0.75,52.75,70.139921875,-24.065,0.47296618749999997,33.59
2021-06-23 11:05:22.531250000,-44.0,0.0,52.0,70.14156249999999,-6.79,0.47304625,33.59
2021-06-23 11:05:22.539062500,-43.25,1.0,51.75,70.143203125,8.024999999999999,0.4731263125,33.59
2021-06-23 11:05:22.546875000,-42.5,2.0,51.5,70.14484374999999,22.84,0.47320637499999996,33.59
2021-06-23 11:05:22.554687500,-41.75,3.0,51.25,70.146484375,34.53,0.4732864375,33.59
2021-06-23 11:05:22.562500000,-41.0,4.0,51.0,70.148125,46.22,0.47336649999999997,33.59
2021-06-23 11:05:22.570312500,-40.25,4.5,51.0,70.149765625,54.78,0.4734465625,33.59
2021-06-23 11:05:22.578125000,-39.5,5.0,51.0,70.15140625,63.34,0.473526625,33.59
2021-06-23 11:05:22.585937500,-38.75,5.5,51.0,70.153046875,69.11,0.47360668749999996,33.59
2021-06-23 11:05:22.593750000,-38.0,6.0,51.0,70.1546875,74.88,0.47368675,33.59
2021-06-23 11:05:22.601562500,-37.75,6.75,51.0,70.156328125,78.3,0.47376681249999997,33.59
2021-06-23 11:05:22.609375000,-37.5,7.5,51.0,70.15796875,81.72,0.473846875,33.59
2021-06-23 11:05:22.617187500,-37.25,8.25,51.0,70.159609375,83.185,0.4739269375,33.59
2021-06-23 11:05:22.625000000,-37.0,9.0,51.0,70.16125,84.65,0.47400699999999996,33.59
2021-06-23 11:05:22.632812500,-37.75,8.5,50.5,70.162890625,84.56,0.4740870625,33.59
2021-06-23 11:05:22.640625000,-38.5,8.0,50.0,70.16453125,84.47,0.47416712499999997,33.59
2021-06-23 11:05:22.648437500,-39.25,7.5,49.5,70.166171875,83.265,0.4742471875,33.59
2021-06-23 11:05:22.656250000,-40.0,7.0,49.0,70.1678125,82.06,0.47432725,33.59
2021-06-23 11:05:22.664062500,-40.25,7.25,49.0,70.169453125,80.22,0.4744073125,33.59
2021-06-23 11:05:22.671875000,-40.5,7.5,49.0,70.17109375,78.38,0.474487375,33.59
2021-06-23 11:05:22.679687500,-40.75,7.75,49.0,70.17273437499999,76.35,0.47456743749999997,33.59
2021-06-23 11:05:22.687500000,-41.0,8.0,49.0,70.174375,74.32,0.4746475,33.59
2021-06-23 11:05:22.695312500,-41.25,8.5,49.0,70.17601562499999,72.41499999999999,0.4747275625,33.59
2021-06-23 11:05:22.703125000,-41.5,9.0,49.0,70.17765625,70.51,0.474807625,33.59
2021-06-23 11:05:22.710937500,-41.75,9.5,49.0,70.17929687499999,68.845,0.4748876875,33.59
2021-06-23 11:05:22.718750000,-42.0,10.0,49.0,70.1809375,67.18,0.47496774999999997,33.59
2021-06-23 11:05:22.726562500,-40.75,10.25,49.0,70.18257812499999,65.71000000000001,0.4750478125,33.59
2021-06-23 11:05:22.734375000,-39.5,10.5,49.0,70.18421875,64.24,0.475127875,33.59
2021-06-23 11:05:22.742187500,-38.25,10.75,49.0,70.18585937499999,62.9,0.4752079375,33.59
2021-06-23 11:05:22.750000000,-37.0,11.0,49.0,70.1875,61.56,0.475288,33.59
2021-06-23 11:05:22.757812500,-36.0,11.0,48.5,70.189140625,60.335,0.47524796874999997,33.59
2021-06-23 11:05:22.765625000,-35.0,11.0,48.0,70.19078125,59.11,0.4752079375,33.59
2021-06-23 11:05:22.773437500,-34.0,11.0,47.5,70.192421875,58.105000000000004,0.47516790625,33.59
2021-06-23 11:05:22.781250000,-33.0,11.0,47.0,70.1940625,57.1,0.475127875,33.59
2021-06-23 11:05:22.789062500,-32.25,11.5,47.5,70.195703125,56.455,0.47508784375,33.59
2021-06-23 11:05:22.796875000,-31.5,12.0,48.0,70.19734375,55.81,0.4750478125,33.59
2021-06-23 11:05:22.804687500,-30.75,12.5,48.5,70.198984375,55.61,0.47500778125,33.59
2021-06-23 11:05:22.812500000,-30.0,13.0,49.0,70.200625,55.41,0.47496775,33.59
2021-06-23 11:05:22.820312500,-28.0,13.25,50.0,70.202265625,55.54,0.47492771875,33.59
2021-06-23 11:05:22.828125000,-26.0,13.5,51.0,70.20390625,55.67,0.4748876875,33.59
2021-06-23 11:05:22.835937500,-24.0,13.75,52.0,70.205546875,55.825,0.47484765624999997,33.59
2021-06-23 11:05:22.843750000,-22.0,14.0,53.0,70.20718749999999,55.98,0.474807625,33.59
2021-06-23 11:05:22.851562500,-21.5,13.5,54.25,70.208828125,55.709999999999994,0.47476759375,33.59
2021-06-23 11:05:22.859375000,-21.0,13.0,55.5,70.21046874999999,55.44,0.4747275625,33.59
2021-06-23 11:05:22.867187500,-20.5,12.5,56.75,70.212109375,54.315,0.47468753125,33.59
2021-06-23 11:05:22.875000000,-20.0,12.0,58.0,70.21374999999999,53.19,0.4746475,33.59
2021-06-23 11:05:22.882812500,-18.5,11.0,58.5,70.215390625,50.955,0.47460746875,33.59
2021-06-23 11:05:22.890625000,-17.0,10.0,59.0,70.21703124999999,48.72,0.4745674375,33.59
2021-06-23 11:05:22.898437500,-15.5,9.0,59.5,70.218671875,45.415,0.47452740625,33.59
2021-06-23 11:05:22.906250000,-14.0,8.0,60.0,70.22031249999999,42.11,0.474487375,33.59
2021-06-23 11:05:22.914062500,-14.25,8.0,60.5,70.221953125,38.04,0.47444734375000003,33.59
2021-06-23 11:05:22.921875000,-14.5,8.0,61.0,70.22359374999999,33.97,0.4744073125,33.59
2021-06-23 11:05:22.929687500,-14.75,8.0,61.5,70.225234375,29.59,0.47436728125,33.59
2021-06-23 11:05:22.937500000,-15.0,8.0,62.0,70.22687499999999,25.21,0.47432725,33.59
2021-06-23 11:05:22.945312500,-14.5,7.5,61.5,70.228515625,20.91,0.47428721875,33.59
2021-06-23 11:05:22.953125000,-14.0,7.0,61.0,70.23015625,16.61,0.4742471875,33.59
2021-06-23 11:05:22.960937500,-13.5,6.5,60.5,70.231796875,12.555,0.47420715625,33.59
2021-06-23 11:05:22.968750000,-13.0,6.0,60.0,70.2334375,8.5,0.474167125,33.59
2021-06-23 11:05:22.976562500,-13.25,5.25,60.5,70.235078125,4.55,0.47412709375,33.59
2021-06-23 11:05:22.984375000,-13.5,4.5,61.0,70.23671875,0.6,0.4740870625,33.59
2021-06-23 11:05:22.992187500,-13.75,3.75,61.5,70.238359375,-3.61,0.47404703125000003,33.59
2021-06-23 11:05:23.000000000,-14.0,3.0,62.0,70.24,-7.82,0.474007,33.59
2021-06-23 11:05:23.007812500,-15.25,3.0,62.25,70.24125,-12.685,0.474007,33.589375000000004
2021-06-23 11:05:23.015625000,-16.5,3.0,62.5,70.24249999999999,-17.55,0.474007,33.588750000000005
2021-06-23 11:05:23.023437500,-17.75,3.0,62.75,70.24374999999999,-23.27,0.474007,33.588125000000005
2021-06-23 11:05:23.031250000,-19.0,3.0,63.0,70.24499999999999,-28.99,0.474007,33.587500000000006
2021-06-23 11:05:23.039062500,-19.0,3.25,62.5,70.24624999999999,-35.44,0.474007,33.586875000000006
2021-06-23 11:05:23.046875000,-19.0,3.5,62.0,70.2475,-41.89,0.474007,33.58625
2021-06-23 11:05:23.054687500,-19.0,3.75,61.5,70.24875,-48.625,0.474007,33.585625
2021-06-23 11:05:23.062500000,-19.0,4.0,61.0,70.25,-55.36,0.474007,33.585
2021-06-23 11:05:23.070312500,-19.0,4.25,61.5,70.25125,-61.78,0.474007,33.584375
2021-06-23 11:05:23.078125000,-19.0,4.5,62.0,70.2525,-68.2,0.474007,33.58375
2021-06-23 11:05:23.085937500,-19.0,4.75,62.5,70.25375,-73.795,0.474007,33.583125
2021-06-23 11:05:23.093750000,-19.0,5.0,63.0,70.255,-79.39,0.474007,33.5825
2021-06-23 11:05:23.101562500,-19.0,5.25,62.75,70.25625,-83.935,0.474007,33.581875000000004
2021-06-23 11:05:23.109375000,-19.0,5.5,62.5,70.2575,-88.48,0.474007,33.581250000000004
2021-06-23 11:05:23.117187500,-19.0,5.75,62.25,70.25874999999999,-92.17,0.474007,33.580625000000005
2021-06-23 11:05:23.125000000,-19.0,6.0,62.0,70.25999999999999,-95.86,0.474007,33.58
2021-06-23 11:05:23.132812500,-19.25,6.0,62.0,70.26124999999999,-99.31,0.474007,33.579375
2021-06-23 11:05:23.140625000,-19.5,6.0,62.0,70.2625,-102.76,0.474007,33.57875
2021-06-23 11:05:23.148437500,-19.75,6.0,62.0,70.26375,-106.85,0.474007,33.578125
2021-06-23 11:05:23.156250000,-20.0,6.0,62.0,70.265,-110.94,0.474007,33.5775
2021-06-23 11:05:23.164062500,-18.75,6.0,62.0,70.26625,-116.49000000000001,0.474007,33.576875
2021-06-23 11:05:23.171875000,-17.5,6.0,62.0,70.2675,-122.04,0.474007,33.57625
2021-06-23 11:05:23.179687500,-16.25,6.0,62.0,70.26875,-129.42000000000002,0.474007,33.575625
2021-06-23 11:05:23.187500000,-15.0,6.0,62.0,70.27,-136.8,0.474007,33.575
2021-06-23 11:05:23.195312500,-15.5,6.0,62.25,70.27125,-145.53,0.474007,33.574375
2021-06-23 11:05:23.203125000,-16.0,6.0,62.5,70.2725,-154.26,0.474007,33.573750000000004
2021-06-23 11:05:23.210937500,-16.5,6.0,62.75,70.27374999999999,-162.885,0.474007,33.573125
2021-06-23 11:05:23.218750000,-17.0,6.0,63.0,70.27499999999999,-171.51,0.474007,33.5725
2021-06-23 11:05:23.226562500,-17.0,5.5,62.25,70.27624999999999,-177.82,0.474007,33.571875
2021-06-23 11:05:23.234375000,-17.0,5.0,61.5,70.2775,-184.13,0.474007,33.57125
2021-06-23 11:05:23.242187500,-17.0,4.5,60.75,70.27875,-185.765,0.474007,33.570625
2021-06-23 11:05:23.250000000,-17.0,4.0,60.0,70.28,-187.4,0.474007,33.57
2021-06-23 11:05:23.257812500,-17.25,4.0,60.0,70.28125,-182.685,0.47392693750000003,33.57
2021-06-23 11:05:23.265625000,-17.5,4.0,60.0,70.2825,-177.97,0.473846875,33.57
2021-06-23 11:05:23.273437500,-17.75,4.0,60.0,70.28375,-166.54500000000002,0.4737668125,33.57
2021-06-23 11:05:23.281250000,-18.0,4.0,60.0,70.285,-155.12,0.47368675,33.57
2021-06-23 11:05:23.289062500,-17.5,4.0,60.5,70.28625,-138.13,0.4736066875,33.57
2021-06-23 11:05:23.296875000,-17.0,4.0,61.0,70.2875,-121.14,0.47352662500000003,33.57
2021-06-23 11:05:23.304687500,-16.5,4.0,61.5,70.28875,-100.83,0.4734465625,33.57
2021-06-23 11:05:23.312500000,-16.0,4.0,62.0,70.28999999999999,-80.52,0.4733665,33.57
2021-06-23 11:05:23.320312500,-16.25,4.25,61.5,70.29125,-59.455,0.4732864375,33.57
2021-06-23 11:05:23.328125000,-16.5,4.5,61.0,70.2925,-38.39,0.473206375,33.57
2021-06-23 11:05:23.335937500,-16.75,4.75,60.5,70.29375,-18.635,0.47312631250000003,33.57
2021-06-23 11:05:23.343750000,-17.0,5.0,60.0,70.295,1.12,0.47304625,33.57
2021-06-23 11:05:23.351562500,-16.75,5.0,60.0,70.29625,18.435000000000002,0.4729661875,33.57
2021-06-23 11:05:23.359375000,-16.5,5.0,60.0,70.2975,35.75,0.472886125,33.57
2021-06-23 11:05:23.367187500,-16.25,5.0,60.0,70.29875,50.415,0.4728060625,33.57
2021-06-23 11:05:23.375000000,-16.0,5.0,60.0,70.3,65.08,0.472726,33.57
2021-06-23 11:05:23.382812500,-16.5,4.75,60.0,70.30125,77.42,0.4726459375,33.57
2021-06-23 11:05:23.390625000,-17.0,4.5,60.0,70.3025,89.76,0.472565875,33.57
2021-06-23 11:05:23.398437500,-17.5,4.25,60.0,70.30375,100.22,0.4724858125,33.57
2021-06-23 11:05:23.406250000,-18.0,4.0,60.0,70.30499999999999,110.68,0.47240575,33.57
2021-06-23 11:05:23.414062500,-17.5,4.0,60.25,70.30625,119.54,0.4723256875,33.57
2021-06-23 11:05:23.421875000,-17.0,4.0,60.5,70.3075,128.4,0.472245625,33.57
2021-06-23 11:05:23.429687500,-16.5,4.0,60.75,70.30875,135.87,0.4721655625,33.57
2021-06-23 11:05:23.437500000,-16.0,4.0,61.0,70.31,143.34,0.4720855,33.57
2021-06-23 11:05:23.445312500,-16.5,4.0,61.0,70.31125,149.64499999999998,0.4720054375,33.57
2021-06-23 11:05:23.453125000,-17.0,4.0,61.0,70.3125,155.95,0.471925375,33.57
2021-06-23 11:05:23.460937500,-17.5,4.0,61.0,70.31375,161.54,0.4718453125,33.57
2021-06-23 11:05:23.468750000,-18.0,4.0,61.0,70.315,167.13,0.47176525,33.57
2021-06-23 11:05:23.476562500,-17.75,4.0,61.0,70.31625,172.675,0.4716851875,33.57
2021-06-23 11:05:23.484375000,-17.5,4.0,61.0,70.3175,178.22,0.471605125,33.57
2021-06-23 11:05:23.492187500,-17.25,4.0,61.0,70.31875,184.57999999999998,0.4715250625,33.57
2021-06-23 11:05:23.500000000,-17.0,4.0,61.0,70.32,190.94,0.471445,33.57
2021-06-23 11:05:23.507812500,-17.25,4.0,61.0,70.32125,199.065,0.4715250625,33.57
2021-06-23 11:05:23.515625000,-17.5,4.0,61.0,70.3225,207.19,0.471605125,33.57
2021-06-23 11:05:23.523437500,-17.75,4.0,61.0,70.32375,218.09,0.4716851875,33.57
2021-06-23 11:05:23.531250000,-18.0,4.0,61.0,70.325,228.99,0.47176525,33.57
2021-06-23 11:05:23.539062500,-18.0,3.75,61.25,70.32625,243.64000000000001,0.4718453125,33.57
2021-06-23 11:05:23.546875000,-18.0,3.5,61.5,70.3275,258.29,0.471925375,33.57
2021-06-23 11:05:23.554687500,-18.0,3.25,61.75,70.32875,277.35,0.4720054375,33.57
2021-06-23 11:05:23.562500000,-18.0,3.0,62.0,70.33,296.41,0.4720855,33.57
2021-06-23 11:05:23.570312500,-17.5,3.25,61.75,70.33125,319.78,0.4721655625,33.57
2021-06-23 11:05:23.578125000,-17.0,3.5,61.5,70.3325,343.15,0.472245625,33.57
2021-06-23 11:05:23.585937500,-16.5,3.75,61.25,70.33375,369.59,0.4723256875,33.57
2021-06-23 11:05:23.593750000,-16.0,4.0,61.0,70.33500000000001,396.03,0.47240575,33.57
2021-06-23 11:05:23.601562500,-16.0,4.0,60.75,70.33625,423.085,0.4724858125,33.57
2021-06-23 11:05:23.609375000,-16.0,4.0,60.5,70.3375,450.14,0.472565875,33.57
2021-06-23 11:05:23.617187500,-16.0,4.0,60.25,70.33875,474.57,0.4726459375,33.57
2021-06-23 11:05:23.625000000,-16.0,4.0,60.0,70.34,499.0,0.472726,33.57
2021-06-23 11:05:23.632812500,-16.25,4.0,60.5,70.34125,517.69,0.4728060625,33.57
2021-06-23 11:05:23.640625000,-16.5,4.0,61.0,70.3425,536.38,0.472886125,33.57
2021-06-23 11:05:23.648437500,-16.75,4.0,61.5,70.34375,547.2850000000001,0.4729661875,33.57
2021-06-23 11:05:23.656250000,-17.0,4.0,62.0,70.345,558.19,0.47304625,33.57
2021-06-23 11:05:23.664062500,-16.5,4.0,61.75,70.34625,560.885,0.47312631250000003,33.57
2021-06-23 11:05:23.671875000,-16.0,4.0,61.5,70.3475,563.58,0.473206375,33.57
2021-06-23 11:05:23.679687500,-15.5,4.0,61.25,70.34875,559.1700000000001,0.4732864375,33.57
2021-06-23 11:05:23.687500000,-15.0,4.0,61.0,70.35000000000001,554.76,0.4733665,33.57
2021-06-23 11:05:23.695312500,-14.75,4.0,61.0,70.35125000000001,545.235,0.4734465625,33.57
2021-06-23 11:05:23.703125000,-14.5,4.0,61.0,70.3525,535.71,0.47352662500000003,33.57
2021-06-23 11:05:23.710937500,-14.25,4.0,61.0,70.35375,523.04,0.4736066875,33.57
2021-06-23 11:05:23.718750000,-14.0,4.0,61.0,70.355,510.37,0.47368675,33.57
2021-06-23 11:05:23.726562500,-14.5,4.0,61.0,70.35625,495.96000000000004,0.4737668125,33.57
2021-06-23 11:05:23.734375000,-15.0,4.0,61.0,70.3575,481.55,0.473846875,33.57
2021-06-23 11:05:23.742187500,-15.5,4.0,61.0,70.35875,466.12,0.47392693750000003,33.57
2021-06-23 11:05:23.750000000,-16.0,4.0,61.0,70.36,450.69,0.474007,33.57
2021-06-23 11:05:23.757812500,-16.25,4.0,61.0,70.36125,434.55,0.47396696875,33.57
2021-06-23 11:05:23.765625000,-16.5,4.0,61.0,70.3625,418.41,0.47392693750000003,33.57
2021-06-23 11:05:23.773437500,-16.75,4.0,61.0,70.36375000000001,401.86,0.47388690625,33.57
2021-06-23 11:05:23.781250000,-17.0,4.0,61.0,70.36500000000001,385.31,0.473846875,33.57
2021-06-23 11:05:23.789062500,-17.25,4.0,61.0,70.36625000000001,368.775,0.47380684375,33.57
2021-06-23 11:05:23.796875000,-17.5,4.0,61.0,70.3675,352.24,0.4737668125,33.57
2021-06-23 11:05:23.804687500,-17.75,4.0,61.0,70.36875,336.18,0.47372678125,33.57
2021-06-23 11:05:23.812500000,-18.0,4.0,61.0,70.37,320.12,0.47368675,33.57
2021-06-23 11:05:23.820312500,-18.0,4.0,61.0,70.37125,304.735,0.47364671875000003,33.57
2021-06-23 11:05:23.828125000,-18.0,4.0,61.0,70.3725,289.35,0.4736066875,33.57
2021-06-23 11:05:23.835937500,-18.0,4.0,61.0,70.37375,274.485,0.47356665625,33.57
2021-06-23 11:05:23.843750000,-18.0,4.0,61.0,70.375,259.62,0.473526625,33.57
2021-06-23 11:05:23.851562500,-18.0,4.25,60.75,70.37625,244.82,0.47348659375,33.57
2021-06-23 11:05:23.859375000,-18.0,4.5,60.5,70.3775,230.02,0.4734465625,33.57
2021-06-23 11:05:23.867187500,-18.0,4.75,60.25,70.37875000000001,214.84,0.47340653125,33.57
2021-06-23 11:05:23.875000000,-18.0,5.0,60.0,70.38000000000001,199.66,0.4733665,33.57
2021-06-23 11:05:23.882812500,-17.75,5.0,60.25,70.38125000000001,183.975,0.47332646875,33.57
2021-06-23 11:05:23.890625000,-17.5,5.0,60.5,70.38250000000001,168.29,0.4732864375,33.57
2021-06-23 11:05:23.898437500,-17.25,5.0,60.75,70.38375,152.425,0.47324640625,33.57
2021-06-23 11:05:23.906250000,-17.0,5.0,61.0,70.385,136.56,0.473206375,33.57
2021-06-23 11:05:23.914062500,-16.75,5.0,61.0,70.38625,121.125,0.47316634375,33.57
2021-06-23 11:05:23.921875000,-16.5,5.0,61.0,70.3875,105.69,0.4731263125,33.57
2021-06-23 11:05:23.929687500,-16.25,5.0,61.0,70.38875,91.38499999999999,0.47308628124999996,33.57
2021-06-23 11:05:23.937500000,-16.0,5.0,61.0,70.39,77.08,0.47304625,33.57
2021-06-23 11:05:23.945312500,-16.0,5.0,61.0,70.39125,64.31,0.47300621875,33.57
2021-06-23 11:05:23.953125000,-16.0,5.0,61.0,70.3925,51.54,0.47296618749999997,33.57
2021-06-23 11:05:23.960937500,-16.0,5.0,61.0,70.39375000000001,40.32,0.47292615625,33.57
2021-06-23 11:05:23.968750000,-16.0,5.0,61.0,70.39500000000001,29.1,0.472886125,33.57
2021-06-23 11:05:23.976562500,-16.5,5.0,61.0,70.39625000000001,19.060000000000002,0.47284609375,33.57
2021-06-23 11:05:23.984375000,-17.0,5.0,61.0,70.39750000000001,9.02,0.47280606249999996,33.57
2021-06-23 11:05:23.992187500,-17.5,5.0,61.0,70.39875,-0.379999999999999,0.47276603125,33.57
2021-06-23 11:05:24.000000000,-18.0,5.0,61.0,70.4,-9.78,0.472726,33.57
2021-06-23 11:05:24.007812500,-17.5,5.0,61.25,70.40125,-18.994999999999997,0.472726,33.57
2021-06-23 11:05:24.015625000,-17.0,5.0,61.5,70.4025,-28.21,0.472726,33.57
2021-06-23 11:05:24.023437500,-16.5,5.0,61.75,70.40375,-37.425,0.472726,33.57
2021-06-23 11:05:24.031250000,-16.0,5.0,62.0,70.405,-46.64,0.472726,33.57
2021-06-23 11:05:24.039062500,-16.25,5.0,61.75,70.40625,-55.72,0.472726,33.57
2021-06-23 11:05:24.046875000,-16.5,5.0,61.5,70.4075,-64.8,0.472726,33.57
2021-06-23 11:05:24.054687500,-16.75,5.0,61.25,70.40875000000001,-73.41499999999999,0.472726,33.57
2021-06-23 11:05:24.062500000,-17.0,5.0,61.0,70.41000000000001,-82.03,0.472726,33.57
2021-06-23 11:05:24.070312500,-17.0,5.0,60.75,70.41125000000001,-89.825,0.472726,33.57
2021-06-23 11:05:24.078125000,-17.0,5.0,60.5,70.41250000000001,-97.62,0.472726,33.57
2021-06-23 11:05:24.085937500,-17.0,5.0,60.25,70.41375000000001,-104.4,0.472726,33.57
2021-06-23 11:05:24.093750000,-17.0,5.0,60.0,70.415,-111.18,0.472726,33.57
2021-06-23 11:05:24.101562500,-16.75,5.0,60.5,70.41625,-117.0,0.472726,33.57
2021-06-23 11:05:24.109375000,-16.5,5.0,61.0,70.4175,-122.82,0.472726,33.57
2021-06-23 11:05:24.117187500,-16.25,5.0,61.5,70.41875,-127.92999999999999,0.472726,33.57
2021-06-23 11:05:24.125000000,-16.0,5.0,62.0,70.42,-133.04,0.472726,33.57
2021-06-23 11:05:24.132812500,-16.25,5.0,61.5,70.42125,-137.755,0.472726,33.57
2021-06-23 11:05:24.140625000,-16.5,5.0,61.0,70.4225,-142.47,0.472726,33.57
2021-06-23 11:05:24.148437500,-16.75,5.0,60.5,70.42375,-147.035,0.472726,33.57
2021-06-23 11:05:24.156250000,-17.0,5.0,60.0,70.42500000000001,-151.6,0.472726,33.57
2021-06-23 11:05:24.164062500,-17.0,5.0,60.0,70.42625000000001,-156.11,0.472726,33.57
2021-06-23 11:05:24.171875000,-17.0,5.0,60.0,70.42750000000001,-160.62,0.472726,33.57
2021-06-23 11:05:24.179687500,-17.0,5.0,60.0,70.42875000000001,-165.01,0.472726,33.57
2021-06-23 11:05:24.187500000,-17.0,5.0,60.0,70.43,-169.4,0.472726,33.57
2021-06-23 11:05:24.195312500,-15.25,5.0,60.5,70.43125,-173.54000000000002,0.472726,33.57
2021-06-23 11:05:24.203125000,-13.5,5.0,61.0,70.4325,-177.68,0.472726,33.57
2021-06-23 11:05:24.210937500,-11.75,5.0,61.5,70.43375,-181.43,0.472726,33.57
2021-06-23 11:05:24.218750000,-10.0,5.0,62.0,70.435,-185.18,0.472726,33.57
2021-06-23 11:05:24.226562500,-10.25,4.75,61.75,70.43625,-188.55,0.472726,33.57
2021-06-23 11:05:24.234375000,-10.5,4.5,61.5,70.4375,-191.92,0.472726,33.57
2021-06-23 11:05:24.242187500,-10.75,4.25,61.25,70.43875,-195.055,0.472726,33.57
2021-06-23 11:05:24.250000000,-11.0,4.0,61.0,70.44,-198.19,0.472726,33.57
2021-06-23 11:05:24.257812500,-11.0,4.0,61.5,70.44125000000001,-201.385,0.47260590625,33.57
2021-06-23 11:05:24.265625000,-11.0,4.0,62.0,70.44250000000001,-204.58,0.4724858125,33.57
2021-06-23 11:05:24.273437500,-11.0,4.0,62.5,70.44375000000001,-208.175,0.47236571875,33.57
2021-06-23 11:05:24.281250000,-11.0,4.0,63.0,70.44500000000001,-211.77,0.472245625,33.57
2021-06-23 11:05:24.289062500,-11.25,4.25,63.0,70.44625,-216.025,0.47212553125,33.57
2021-06-23 11:05:24.296875000,-11.5,4.5,63.0,70.4475,-220.28,0.47200543749999996,33.57
2021-06-23 11:05:24.304687500,-11.75,4.75,63.0,70.44875,-225.195,0.47188534374999996,33.57
2021-06-23 11:05:24.312500000,-12.0,5.0,63.0,70.45,-230.11,0.47176524999999997,33.57
2021-06-23 11:05:24.320312500,-12.5,5.25,62.25,70.45125,-235.34500000000003,0.47164515625,33.57
2021-06-23 11:05:24.328125000,-13.0,5.5,61.5,70.4525,-240.58,0.4715250625,33.57
2021-06-23 11:05:24.335937500,-13.5,5.75,60.75,70.45375,-245.48000000000002,0.47140496875,33.57
2021-06-23 11:05:24.343750000,-14.0,6.0,60.0,70.455,-250.38,0.471284875,33.57
2021-06-23 11:05:24.351562500,-13.5,6.25,60.25,70.45625000000001,-254.2,0.47116478125,33.57
2021-06-23 11:05:24.359375000,-13.0,6.5,60.5,70.45750000000001,-258.02,0.4710446875,33.57
2021-06-23 11:05:24.367187500,-12.5,6.75,60.75,70.45875000000001,-260.15,0.47092459375,33.57
2021-06-23 11:05:24.375000000,-12.0,7.0,61.0,70.46000000000001,-262.28,0.47080449999999996,33.57
2021-06-23 11:05:24.382812500,-12.25,7.25,60.75,70.46125,-262.5,0.47068440624999996,33.57
2021-06-23 11:05:24.390625000,-12.5,7.5,60.5,70.4625,-262.72,0.47056431249999997,33.57
2021-06-23 11:05:24.398437500,-12.75,7.75,60.25,70.46375,-261.26,0.47044421875,33.57
2021-06-23 11:05:24.406250000,-13.0,8.0,60.0,70.465,-259.8,0.470324125,33.57
2021-06-23 11:05:24.414062500,-12.75,7.75,60.5,70.46625,-257.225,0.47020403125,33.57
2021-06-23 11:05:24.421875000,-12.5,7.5,61.0,70.4675,-254.65,0.4700839375,33.57
2021-06-23 11:05:24.429687500,-12.25,7.25,61.5,70.46875,-251.635,0.46996384375,33.57
2021-06-23 11:05:24.437500000,-12.0,7.0,62.0,70.47,-248.62,0.46984375,33.57
2021-06-23 11:05:24.445312500,-11.75,6.75,62.0,70.47125,-245.72,0.46972365625,33.57
2021-06-23 11:05:24.453125000,-11.5,6.5,62.0,70.47250000000001,-242.82,0.4696035625,33.57
2021-06-23 11:05:24.460937500,-11.25,6.25,62.0,70.47375000000001,-240.385,0.46948346874999997,33.57
2021-06-23 11:05:24.468750000,-11.0,6.0,62.0,70.47500000000001,-237.95,0.46936337499999997,33.57
2021-06-23 11:05:24.476562500,-11.0,5.75,62.0,70.47625000000001,-236.08999999999997,0.46924328125,33.57
2021-06-23 11:05:24.484375000,-11.0,5.5,62.0,70.4775,-234.23,0.4691231875,33.57
2021-06-23 11:05:24.492187500,-11.0,5.25,62.0,70.47875,-232.945,0.46900309375,33.57
2021-06-23 11:05:24.500000000,-11.0,5.0,62.0,70.48,-231.66,0.468883,33.57
2021-06-23 11:05:24.507812500,-11.0,5.0,62.75,70.48125,-230.945,0.469043125,33.57
2021-06-23 11:05:24.515625000,-11.0,5.0,63.5,70.4825,-230.23,0.46920325,33.57
2021-06-23 11:05:24.523437500,-11.0,5.0,64.25,70.48375,-230.095,0.46936337499999997,33.57
2021-06-23 11:05:24.531250000,-11.0,5.0,65.0,70.485,-229.96,0.4695235,33.57
2021-06-23 11:05:24.539062500,-11.75,5.25,63.5,70.48625,-230.385,0.469683625,33.57
2021-06-23 11:05:24.546875000,-12.5,5.5,62.0,70.4875,-230.81,0.46984375,33.57
2021-06-23 11:05:24.554687500,-13.25,5.75,60.5,70.48875000000001,-231.66,0.470003875,33.57
2021-06-23 11:05:24.562500000,-14.0,6.0,59.0,70.49000000000001,-232.51,0.470164,33.57
2021-06-23 11:05:24.570312500,-13.0,6.25,59.25,70.49125000000001,-233.49,0.470324125,33.57
2021-06-23 11:05:24.578125000,-12.0,6.5,59.5,70.4925,-234.47,0.47048425,33.57
2021-06-23 11:05:24.585937500,-11.0,6.75,59.75,70.49375,-235.155,0.470644375,33.57
2021-06-23 11:05:24.593750000,-10.0,7.0,60.0,70.495,-235.84,0.4708045,33.57
2021-06-23 11:05:24.601562500,-12.0,7.0,60.5,70.49625,-235.79500000000002,0.470964625,33.57
2021-06-23 11:05:24.609375000,-14.0,7.0,61.0,70.4975,-235.75,0.47112475,33.57
2021-06-23 11:05:24.617187500,-16.0,7.0,61.5,70.49875,-234.70999999999998,0.471284875,33.57
2021-06-23 11:05:24.625000000,-18.0,7.0,62.0,70.5,-233.67,0.471445,33.57
2021-06-23 11:05:24.632812500,-17.5,6.75,61.0,70.50125,-231.67,0.471605125,33.57
2021-06-23 11:05:24.640625000,-17.0,6.5,60.0,70.5025,-229.67,0.47176525,33.57
2021-06-23 11:05:24.648437500,-16.5,6.25,59.0,70.50375,-227.08999999999997,0.471925375,33.57
2021-06-23 11:05:24.656250000,-16.0,6.0,58.0,70.50500000000001,-224.51,0.4720855,33.57
2021-06-23 11:05:24.664062500,-15.25,6.0,59.0,70.50625000000001,-221.97,0.472245625,33.57
2021-06-23 11:05:24.671875000,-14.5,6.0,60.0,70.50750000000001,-219.43,0.47240575,33.57
2021-06-23 11:05:24.679687500,-13.75,6.0,61.0,70.50875,-217.52,0.472565875,33.57
2021-06-23 11:05:24.687500000,-13.0,6.0,62.0,70.51,-215.61,0.472726,33.57
2021-06-23 11:05:24.695312500,-13.5,5.75,61.75,70.51125,-214.72000000000003,0.472886125,33.57
2021-06-23 11:05:24.703125000,-14.0,5.5,61.5,70.5125,-213.83,0.47304625,33.57
2021-06-23 11:05:24.710937500,-14.5,5.25,61.25,70.51375,-213.97500000000002,0.473206375,33.57
2021-06-23 11:05:24.718750000,-15.0,5.0,61.0,70.515,-214.12,0.4733665,33.57
2021-06-23 11:05:24.726562500,-14.25,5.0,60.5,70.51625,-215.035,0.47352662500000003,33.57
2021-06-23 11:05:24.734375000,-13.5,5.0,60.0,70.5175,-215.95,0.47368675,33.57
2021-06-23 11:05:24.742187500,-12.75,5.0,59.5,70.51875,-217.25,0.473846875,33.57
2021-06-23 11:05:24.750000000,-12.0,5.0,59.0,70.52000000000001,-218.55,0.474007,33.57
2021-06-23 11:05:24.757812500,-12.25,4.75,60.5,70.52125000000001,-219.95,0.47392693750000003,33.57
2021-06-23 11:05:24.765625000,-12.5,4.5,62.0,70.52250000000001,-221.35,0.473846875,33.57
2021-06-23 11:05:24.773437500,-12.75,4.25,63.5,70.52375,-222.715,0.4737668125,33.57
2021-06-23 11:05:24.781250000,-13.0,4.0,65.0,70.525,-224.08,0.47368675,33.57
2021-06-23 11:05:24.789062500,-12.75,3.75,64.75,70.52625,-225.445,0.4736066875,33.57
2021-06-23 11:05:24.796875000,-12.5,3.5,64.5,70.5275,-226.81,0.47352662500000003,33.57
2021-06-23 11:05:24.804687500,-12.25,3.25,64.25,70.52875,-228.29000000000002,0.4734465625,33.57
2021-06-23 11:05:24.812500000,-12.0,3.0,64.0,70.53,-229.77,0.4733665,33.57
2021-06-23 11:05:24.820312500,-11.5,3.0,63.25,70.53125,-231.59,0.4732864375,33.57
2021-06-23 11:05:24.828125000,-11.0,3.0,62.5,70.5325,-233.41,0.473206375,33.57
2021-06-23 11:05:24.835937500,-10.5,3.0,61.75,70.53375,-235.95,0.47312631250000003,33.57
