TimeStamp,empatica.acc.x,empatica.acc.y,empatica.acc.z,empatica.hr,empatica.bvp,empatica.eda,empatica.temp
2021-07-06 11:27:54.875000000,-65.0,5.0,4.0,139.0025,4.59,4.642474,32.31
2021-07-06 11:27:54.882812500,-65.0,5.0,4.25,138.98796875000002,2.985,4.642033625,32.31
2021-07-06 11:27:54.890625000,-65.0,5.0,4.5,138.97343750000002,1.38,4.64159325,32.31
2021-07-06 11:27:54.898437500,-65.0,5.0,4.75,138.95890625,-0.26,4.641152875,32.31
2021-07-06 11:27:54.906250000,-65.0,5.0,5.0,138.944375,-1.9,4.6407125,32.31
2021-07-06 11:27:54.914062500,-65.0,5.0,4.75,138.92984375,-3.545,4.640272125,32.31
2021-07-06 11:27:54.921875000,-65.0,5.0,4.5,138.9153125,-5.19,4.63983175,32.31
2021-07-06 11:27:54.929687500,-65.0,5.0,4.25,138.90078125000002,-6.835000000000001,4.639391375,32.31
2021-07-06 11:27:54.937500000,-65.0,5.0,4.0,138.88625000000002,-8.48,4.6389510000000005,32.31
2021-07-06 11:27:54.945312500,-65.0,5.0,4.0,138.87171875,-10.129999999999999,4.638510625,32.31
2021-07-06 11:27:54.953125000,-65.0,5.0,4.0,138.8571875,-11.78,4.63807025,32.31
2021-07-06 11:27:54.960937500,-65.0,5.0,4.0,138.84265625,-13.485,4.637629875,32.31
2021-07-06 11:27:54.968750000,-65.0,5.0,4.0,138.828125,-15.19,4.6371895,32.31
2021-07-06 11:27:54.976562500,-65.0,5.0,4.0,138.81359375000002,-17.015,4.636749125,32.31
2021-07-06 11:27:54.984375000,-65.0,5.0,4.0,138.79906250000002,-18.84,4.63630875,32.31
2021-07-06 11:27:54.992187500,-65.0,5.0,4.0,138.78453125000001,-20.865000000000002,4.635868375,32.31
2021-07-06 11:27:55.000000000,-65.0,5.0,4.0,138.77,-22.89,4.635428,32.31
2021-07-06 11:27:55.007812500,-65.0,5.0,4.25,138.75640625,-25.17,4.63606853125,32.30875
2021-07-06 11:27:55.015625000,-65.0,5.0,4.5,138.7428125,-27.45,4.6367090625000005,32.307500000000005
2021-07-06 11:27:55.023437500,-65.0,5.0,4.75,138.72921875,-29.975,4.63734959375,32.306250000000006
2021-07-06 11:27:55.031250000,-65.0,5.0,5.0,138.71562500000002,-32.5,4.637990125,32.305
2021-07-06 11:27:55.039062500,-65.0,5.0,5.0,138.70203125,-35.165,4.63863065625,32.30375
2021-07-06 11:27:55.046875000,-65.0,5.0,5.0,138.68843750000002,-37.83,4.6392711875,32.3025
2021-07-06 11:27:55.054687500,-65.0,5.0,5.0,138.67484375,-40.39,4.63991171875,32.30125
2021-07-06 11:27:55.062500000,-65.0,5.0,5.0,138.66125,-42.95,4.64055225,32.300000000000004
2021-07-06 11:27:55.070312500,-65.0,5.0,5.0,138.64765625,-45.055,4.64119278125,32.298750000000005
2021-07-06 11:27:55.078125000,-65.0,5.0,5.0,138.6340625,-47.16,4.6418333125,32.2975
2021-07-06 11:27:55.085937500,-65.0,5.0,5.0,138.62046875000001,-48.42,4.64247384375,32.29625
2021-07-06 11:27:55.093750000,-65.0,5.0,5.0,138.606875,-49.68,4.643114375,32.295
2021-07-06 11:27:55.101562500,-65.0,5.0,4.75,138.59328125000002,-49.754999999999995,4.64375490625,32.29375
2021-07-06 11:27:55.109375000,-65.0,5.0,4.5,138.5796875,-49.83,4.6443954375,32.292500000000004
2021-07-06 11:27:55.117187500,-65.0,5.0,4.25,138.56609375000002,-48.555,4.64503596875,32.291250000000005
2021-07-06 11:27:55.125000000,-65.0,5.0,4.0,138.5525,-47.28,4.6456765,32.290000000000006
2021-07-06 11:27:55.132812500,-65.0,5.0,4.0,138.53890625,-44.7,4.64631703125,32.28875
2021-07-06 11:27:55.140625000,-65.0,5.0,4.0,138.5253125,-42.12,4.6469575625,32.2875
2021-07-06 11:27:55.148437500,-65.0,5.0,4.0,138.51171875,-38.515,4.64759809375,32.28625
2021-07-06 11:27:55.156250000,-65.0,5.0,4.0,138.49812500000002,-34.91,4.648238625,32.285000000000004
2021-07-06 11:27:55.164062500,-65.0,5.0,4.0,138.48453125,-30.68,4.64887915625,32.283750000000005
2021-07-06 11:27:55.171875000,-65.0,5.0,4.0,138.47093750000002,-26.45,4.6495196875,32.282500000000006
2021-07-06 11:27:55.179687500,-65.0,5.0,4.0,138.45734375,-22.035,4.65016021875,32.28125
2021-07-06 11:27:55.187500000,-65.0,5.0,4.0,138.44375000000002,-17.62,4.65080075,32.28
2021-07-06 11:27:55.195312500,-65.0,5.0,4.0,138.43015625,-13.370000000000001,4.65144128125,32.27875
2021-07-06 11:27:55.203125000,-65.0,5.0,4.0,138.4165625,-9.12,4.6520818125,32.2775
2021-07-06 11:27:55.210937500,-65.0,5.0,4.0,138.40296875,-5.254999999999999,4.65272234375,32.276250000000005
2021-07-06 11:27:55.218750000,-65.0,5.0,4.0,138.389375,-1.39,4.653362875,32.275000000000006
2021-07-06 11:27:55.226562500,-65.0,5.0,4.0,138.37578125000002,1.9999999999999998,4.65400340625,32.27375
2021-07-06 11:27:55.234375000,-65.0,5.0,4.0,138.3621875,5.39,4.6546439374999995,32.2725
2021-07-06 11:27:55.242187500,-65.0,5.0,4.0,138.34859375000002,8.27,4.65528446875,32.27125
2021-07-06 11:27:55.250000000,-65.0,5.0,4.0,138.335,11.15,4.655925,32.27
2021-07-06 11:27:55.257812500,-65.0,5.0,4.0,138.32140625,13.49,4.65696590625,32.27
2021-07-06 11:27:55.265625000,-65.0,5.0,4.0,138.3078125,15.83,4.6580068125,32.27
2021-07-06 11:27:55.273437500,-65.0,5.0,4.0,138.29421875,17.6,4.65904771875,32.27
2021-07-06 11:27:55.281250000,-65.0,5.0,4.0,138.28062500000001,19.37,4.660088625,32.27
2021-07-06 11:27:55.289062500,-65.0,5.0,4.25,138.26703125,20.565,4.66112953125,32.27
2021-07-06 11:27:55.296875000,-65.0,5.0,4.5,138.25343750000002,21.76,4.6621704374999995,32.27
2021-07-06 11:27:55.304687500,-65.0,5.0,4.75,138.23984375,22.435000000000002,4.66321134375,32.27
2021-07-06 11:27:55.312500000,-65.0,5.0,5.0,138.22625,23.11,4.66425225,32.27
2021-07-06 11:27:55.320312500,-65.0,5.0,4.75,138.21265625,23.41,4.66529315625,32.27
2021-07-06 11:27:55.328125000,-65.0,5.0,4.5,138.1990625,23.71,4.6663340625,32.27
2021-07-06 11:27:55.335937500,-65.0,5.0,4.25,138.18546875,23.82,4.66737496875,32.27
2021-07-06 11:27:55.343750000,-65.0,5.0,4.0,138.171875,23.93,4.668415875,32.27
2021-07-06 11:27:55.351562500,-65.0,5.0,4.0,138.15828125000002,23.994999999999997,4.66945678125,32.27
2021-07-06 11:27:55.359375000,-65.0,5.0,4.0,138.1446875,24.06,4.6704976875,32.27
2021-07-06 11:27:55.367187500,-65.0,5.0,4.0,138.13109375000002,24.17,4.67153859375,32.27
2021-07-06 11:27:55.375000000,-65.0,5.0,4.0,138.1175,24.28,4.672579499999999,32.27
2021-07-06 11:27:55.382812500,-65.0,5.0,4.25,138.10390625,24.42,4.6736204062499995,32.27
2021-07-06 11:27:55.390625000,-65.0,5.0,4.5,138.0903125,24.56,4.6746613125,32.27
2021-07-06 11:27:55.398437500,-65.0,5.0,4.75,138.07671875,24.65,4.67570221875,32.27
2021-07-06 11:27:55.406250000,-65.0,5.0,5.0,138.063125,24.74,4.676743125,32.27
2021-07-06 11:27:55.414062500,-65.0,5.0,5.0,138.04953125,24.705,4.67778403125,32.27
2021-07-06 11:27:55.421875000,-65.0,5.0,5.0,138.03593750000002,24.67,4.6788249375,32.27
2021-07-06 11:27:55.429687500,-65.0,5.0,5.0,138.02234375,24.43,4.67986584375,32.27
2021-07-06 11:27:55.437500000,-65.0,5.0,5.0,138.00875000000002,24.19,4.68090675,32.27
2021-07-06 11:27:55.445312500,-65.0,5.0,5.0,137.99515625,23.740000000000002,4.68194765625,32.27
2021-07-06 11:27:55.453125000,-65.0,5.0,5.0,137.9815625,23.29,4.6829885625,32.27
2021-07-06 11:27:55.460937500,-65.0,5.0,5.0,137.96796875,22.665,4.6840294687499995,32.27
2021-07-06 11:27:55.468750000,-65.0,5.0,5.0,137.954375,22.04,4.685070375,32.27
2021-07-06 11:27:55.476562500,-65.0,5.0,5.0,137.94078125000001,21.29,4.68611128125,32.27
2021-07-06 11:27:55.484375000,-65.0,5.0,5.0,137.9271875,20.54,4.6871521875,32.27
2021-07-06 11:27:55.492187500,-65.0,5.0,5.0,137.91359375000002,19.73,4.68819309375,32.27
2021-07-06 11:27:55.500000000,-65.0,5.0,5.0,137.9,18.92,4.689234,32.27
2021-07-06 11:27:55.507812500,-65.0,5.0,5.0,137.88640625,18.08,4.69183625,32.27
2021-07-06 11:27:55.515625000,-65.0,5.0,5.0,137.8728125,17.24,4.6944384999999995,32.27
2021-07-06 11:27:55.523437500,-65.0,5.0,5.0,137.85921875,16.38,4.69704075,32.27
2021-07-06 11:27:55.531250000,-65.0,5.0,5.0,137.845625,15.52,4.699643,32.27
2021-07-06 11:27:55.539062500,-65.0,5.0,5.0,137.83203125,14.61,4.70224525,32.27
2021-07-06 11:27:55.546875000,-65.0,5.0,5.0,137.81843750000002,13.7,4.7048475,32.27
2021-07-06 11:27:55.554687500,-65.0,5.0,5.0,137.80484375,12.67,4.70744975,32.27
2021-07-06 11:27:55.562500000,-65.0,5.0,5.0,137.79125,11.64,4.710052,32.27
2021-07-06 11:27:55.570312500,-65.0,5.0,4.75,137.77765625,10.425,4.71265425,32.27
2021-07-06 11:27:55.578125000,-65.0,5.0,4.5,137.7640625,9.21,4.7152565,32.27
2021-07-06 11:27:55.585937500,-65.0,5.0,4.25,137.75046875,7.785,4.7178587499999995,32.27
2021-07-06 11:27:55.593750000,-65.0,5.0,4.0,137.736875,6.36,4.720461,32.27
2021-07-06 11:27:55.601562500,-65.0,5.0,4.25,137.72328125,4.78,4.72306325,32.27
2021-07-06 11:27:55.609375000,-65.0,5.0,4.5,137.7096875,3.2,4.7256655,32.27
2021-07-06 11:27:55.617187500,-65.0,5.0,4.75,137.69609375000002,1.5450000000000002,4.72826775,32.27
2021-07-06 11:27:55.625000000,-65.0,5.0,5.0,137.6825,-0.11,4.7308699999999995,32.27
2021-07-06 11:27:55.632812500,-65.0,5.0,5.0,137.66890625,-1.725,4.73347225,32.27
2021-07-06 11:27:55.640625000,-65.0,5.0,5.0,137.6553125,-3.34,4.7360745,32.27
2021-07-06 11:27:55.648437500,-65.0,5.0,5.0,137.64171875,-4.88,4.73867675,32.27
2021-07-06 11:27:55.656250000,-65.0,5.0,5.0,137.628125,-6.42,4.741279,32.27
2021-07-06 11:27:55.664062500,-65.0,5.0,5.0,137.61453125,-7.91,4.74388125,32.27
2021-07-06 11:27:55.671875000,-65.0,5.0,5.0,137.60093750000001,-9.4,4.7464835,32.27
2021-07-06 11:27:55.679687500,-65.0,5.0,5.0,137.58734375,-10.93,4.74908575,32.27
2021-07-06 11:27:55.687500000,-65.0,5.0,5.0,137.57375000000002,-12.46,4.751688,32.27
2021-07-06 11:27:55.695312500,-65.0,5.0,4.75,137.56015625,-14.115,4.7542902499999995,32.27
2021-07-06 11:27:55.703125000,-65.0,5.0,4.5,137.5465625,-15.77,4.7568925,32.27
2021-07-06 11:27:55.710937500,-65.0,5.0,4.25,137.53296875,-17.619999999999997,4.75949475,32.27
2021-07-06 11:27:55.718750000,-65.0,5.0,4.0,137.519375,-19.47,4.762097,32.27
2021-07-06 11:27:55.726562500,-65.0,5.0,4.0,137.50578125,-21.509999999999998,4.76469925,32.27
2021-07-06 11:27:55.734375000,-65.0,5.0,4.0,137.4921875,-23.55,4.7673015,32.27
2021-07-06 11:27:55.742187500,-65.0,5.0,4.0,137.47859375000002,-25.71,4.76990375,32.27
2021-07-06 11:27:55.750000000,-65.0,5.0,4.0,137.465,-27.87,4.772506,32.27
2021-07-06 11:27:55.757812500,-65.0,5.0,4.0,137.45140625,-29.975,4.7746278125,32.27
2021-07-06 11:27:55.765625000,-65.0,5.0,4.0,137.4378125,-32.08,4.776749625,32.27
2021-07-06 11:27:55.773437500,-65.0,5.0,4.0,137.42421875,-33.87,4.7788714375,32.27
2021-07-06 11:27:55.781250000,-65.0,5.0,4.0,137.410625,-35.66,4.78099325,32.27
2021-07-06 11:27:55.789062500,-65.0,5.0,4.25,137.39703125,-36.81999999999999,4.7831150625,32.27
2021-07-06 11:27:55.796875000,-65.0,5.0,4.5,137.3834375,-37.98,4.785236875,32.27
2021-07-06 11:27:55.804687500,-65.0,5.0,4.75,137.36984375,-38.22,4.7873586875,32.27
2021-07-06 11:27:55.812500000,-65.0,5.0,5.0,137.35625,-38.46,4.7894805,32.27
2021-07-06 11:27:55.820312500,-65.0,5.0,4.75,137.34265625,-37.585,4.7916023125,32.27
2021-07-06 11:27:55.828125000,-65.0,5.0,4.5,137.3290625,-36.71,4.793724125,32.27
2021-07-06 11:27:55.835937500,-65.0,5.0,4.25,137.31546875,-34.705,4.7958459375,32.27
2021-07-06 11:27:55.843750000,-65.0,5.0,4.0,137.301875,-32.7,4.79796775,32.27
2021-07-06 11:27:55.851562500,-65.0,5.0,4.0,137.28828125,-29.725,4.8000895625,32.27
2021-07-06 11:27:55.859375000,-65.0,5.0,4.0,137.2746875,-26.75,4.802211375,32.27
2021-07-06 11:27:55.867187500,-65.0,5.0,4.0,137.26109375000001,-23.105,4.8043331875,32.27
2021-07-06 11:27:55.875000000,-65.0,5.0,4.0,137.2475,-19.46,4.806455,32.27
2021-07-06 11:27:55.882812500,-65.0,5.0,4.0,137.23390625,-15.49,4.8085768125,32.27
2021-07-06 11:27:55.890625000,-65.0,5.0,4.0,137.2203125,-11.52,4.810698625000001,32.27
2021-07-06 11:27:55.898437500,-65.0,5.0,4.0,137.20671875,-7.5649999999999995,4.8128204375,32.27
2021-07-06 11:27:55.906250000,-65.0,5.0,4.0,137.193125,-3.61,4.8149422500000005,32.27
2021-07-06 11:27:55.914062500,-65.0,5.0,4.25,137.17953125,0.040000000000000036,4.8170640625,32.27
2021-07-06 11:27:55.921875000,-65.0,5.0,4.5,137.1659375,3.69,4.8191858750000005,32.27
2021-07-06 11:27:55.929687500,-65.0,5.0,4.75,137.15234375,6.825000000000001,4.8213076875,32.27
2021-07-06 11:27:55.937500000,-65.0,5.0,5.0,137.13875000000002,9.96,4.8234295000000005,32.27
2021-07-06 11:27:55.945312500,-65.0,5.0,5.0,137.12515625,12.43,4.8255513125,32.27
2021-07-06 11:27:55.953125000,-65.0,5.0,5.0,137.1115625,14.9,4.8276731250000005,32.27
2021-07-06 11:27:55.960937500,-65.0,5.0,5.0,137.09796875,16.65,4.8297949375,32.27
2021-07-06 11:27:55.968750000,-65.0,5.0,5.0,137.084375,18.4,4.83191675,32.27
2021-07-06 11:27:55.976562500,-65.0,5.0,4.75,137.07078125,19.45,4.8340385625,32.27
2021-07-06 11:27:55.984375000,-65.0,5.0,4.5,137.0571875,20.5,4.836160375,32.27
2021-07-06 11:27:55.992187500,-65.0,5.0,4.25,137.04359375,20.939999999999998,4.8382821875,32.27
2021-07-06 11:27:56.000000000,-65.0,5.0,4.0,137.03,21.38,4.840404,32.27
2021-07-06 11:27:56.007812500,-65.0,5.0,4.25,137.0171875,21.33,4.8423656875,32.27
2021-07-06 11:27:56.015625000,-65.0,5.0,4.5,137.004375,21.28,4.844327375000001,32.27
2021-07-06 11:27:56.023437500,-65.0,5.0,4.75,136.99156250000001,20.855,4.8462890625,32.27
2021-07-06 11:27:56.031250000,-65.0,5.0,5.0,136.97875,20.43,4.84825075,32.27
2021-07-06 11:27:56.039062500,-65.0,5.0,5.0,136.9659375,19.744999999999997,4.850212437500001,32.27
2021-07-06 11:27:56.046875000,-65.0,5.0,5.0,136.953125,19.06,4.852174125,32.27
2021-07-06 11:27:56.054687500,-65.0,5.0,5.0,136.9403125,18.229999999999997,4.8541358125,32.27
2021-07-06 11:27:56.062500000,-65.0,5.0,5.0,136.9275,17.4,4.856097500000001,32.27
2021-07-06 11:27:56.070312500,-65.0,5.0,5.0,136.9146875,16.59,4.8580591875,32.27
2021-07-06 11:27:56.078125000,-65.0,5.0,5.0,136.901875,15.78,4.860020875,32.27
2021-07-06 11:27:56.085937500,-65.0,5.0,5.0,136.8890625,15.149999999999999,4.8619825625,32.27
2021-07-06 11:27:56.093750000,-65.0,5.0,5.0,136.87625,14.52,4.86394425,32.27
2021-07-06 11:27:56.101562500,-65.0,5.0,5.0,136.8634375,14.219999999999999,4.8659059375,32.27
2021-07-06 11:27:56.109375000,-65.0,5.0,5.0,136.850625,13.92,4.867867625,32.27
2021-07-06 11:27:56.117187500,-65.0,5.0,5.0,136.8378125,13.99,4.8698293125,32.27
2021-07-06 11:27:56.125000000,-65.0,5.0,5.0,136.825,14.06,4.871791,32.27
2021-07-06 11:27:56.132812500,-65.0,5.0,4.75,136.8121875,14.42,4.8737526875,32.27
2021-07-06 11:27:56.140625000,-65.0,5.0,4.5,136.799375,14.78,4.875714375,32.27
2021-07-06 11:27:56.148437500,-65.0,5.0,4.25,136.7865625,15.254999999999999,4.8776760625,32.27
2021-07-06 11:27:56.156250000,-65.0,5.0,4.0,136.77375,15.73,4.87963775,32.27
2021-07-06 11:27:56.164062500,-65.0,5.0,4.0,136.7609375,16.105,4.8815994375,32.27
2021-07-06 11:27:56.171875000,-65.0,5.0,4.0,136.748125,16.48,4.883561125,32.27
2021-07-06 11:27:56.179687500,-65.0,5.0,4.0,136.7353125,16.57,4.8855228125,32.27
2021-07-06 11:27:56.187500000,-65.0,5.0,4.0,136.7225,16.66,4.887484499999999,32.27
2021-07-06 11:27:56.195312500,-65.0,5.0,4.25,136.7096875,16.365000000000002,4.8894461875,32.27
2021-07-06 11:27:56.203125000,-65.0,5.0,4.5,136.696875,16.07,4.891407875,32.27
2021-07-06 11:27:56.210937500,-65.0,5.0,4.75,136.6840625,15.355,4.893369562499999,32.27
2021-07-06 11:27:56.218750000,-65.0,5.0,5.0,136.67125,14.64,4.89533125,32.27
2021-07-06 11:27:56.226562500,-65.0,5.0,5.0,136.6584375,13.535,4.8972929375,32.27
2021-07-06 11:27:56.234375000,-65.0,5.0,5.0,136.645625,12.43,4.899254624999999,32.27
2021-07-06 11:27:56.242187500,-65.0,5.0,5.0,136.6328125,11.0,4.9012163125,32.27
2021-07-06 11:27:56.250000000,-65.0,5.0,5.0,136.62,9.57,4.903178,32.27
2021-07-06 11:27:56.257812500,-65.0,5.0,5.0,136.6071875,7.91,4.904499124999999,32.27
2021-07-06 11:27:56.265625000,-65.0,5.0,5.0,136.59437499999999,6.25,4.90582025,32.27
2021-07-06 11:27:56.273437500,-65.0,5.0,5.0,136.5815625,4.515,4.907141374999999,32.27
2021-07-06 11:27:56.281250000,-65.0,5.0,5.0,136.56875,2.78,4.9084625,32.27
2021-07-06 11:27:56.289062500,-65.0,5.0,5.0,136.5559375,1.1149999999999998,4.909783624999999,32.27
2021-07-06 11:27:56.296875000,-65.0,5.0,5.0,136.543125,-0.55,4.91110475,32.27
2021-07-06 11:27:56.304687500,-65.0,5.0,5.0,136.5303125,-2.01,4.912425874999999,32.27
2021-07-06 11:27:56.312500000,-65.0,5.0,5.0,136.51749999999998,-3.47,4.913747,32.27
2021-07-06 11:27:56.320312500,-65.0,5.0,4.75,136.5046875,-4.705,4.9150681249999995,32.27
2021-07-06 11:27:56.328125000,-65.0,5.0,4.5,136.491875,-5.94,4.91638925,32.27
2021-07-06 11:27:56.335937500,-65.0,5.0,4.25,136.4790625,-7.025,4.9177103749999995,32.27
2021-07-06 11:27:56.343750000,-65.0,5.0,4.0,136.46625,-8.11,4.9190315,32.27
2021-07-06 11:27:56.351562500,-65.0,5.0,4.0,136.4534375,-9.219999999999999,4.920352625,32.27
2021-07-06 11:27:56.359375000,-65.0,5.0,4.0,136.44062499999998,-10.33,4.92167375,32.27
2021-07-06 11:27:56.367187500,-65.0,5.0,4.0,136.4278125,-11.66,4.922994875,32.27
2021-07-06 11:27:56.375000000,-65.0,5.0,4.0,136.415,-12.99,4.924315999999999,32.27
2021-07-06 11:27:56.382812500,-65.0,5.0,4.25,136.4021875,-14.68,4.925637125,32.27
2021-07-06 11:27:56.390625000,-65.0,5.0,4.5,136.389375,-16.37,4.926958249999999,32.27
2021-07-06 11:27:56.398437500,-65.0,5.0,4.75,136.3765625,-18.455,4.928279375,32.27
2021-07-06 11:27:56.406250000,-65.0,5.0,5.0,136.36374999999998,-20.54,4.929600499999999,32.27
2021-07-06 11:27:56.414062500,-65.0,5.0,4.75,136.3509375,-22.91,4.930921625,32.27
2021-07-06 11:27:56.421875000,-65.0,5.0,4.5,136.338125,-25.28,4.9322427499999995,32.27
2021-07-06 11:27:56.429687500,-65.0,5.0,4.25,136.3253125,-27.73,4.933563875,32.27
2021-07-06 11:27:56.437500000,-65.0,5.0,4.0,136.3125,-30.18,4.9348849999999995,32.27
2021-07-06 11:27:56.445312500,-65.0,5.0,4.25,136.2996875,-32.39,4.936206125,32.27
2021-07-06 11:27:56.453125000,-65.0,5.0,4.5,136.28687499999998,-34.6,4.93752725,32.27
2021-07-06 11:27:56.460937500,-65.0,5.0,4.75,136.27406249999999,-36.225,4.938848375,32.27
2021-07-06 11:27:56.468750000,-65.0,5.0,5.0,136.26125,-37.85,4.9401695,32.27
2021-07-06 11:27:56.476562500,-65.0,5.0,5.0,136.2484375,-38.535,4.941490625,32.27
2021-07-06 11:27:56.484375000,-65.0,5.0,5.0,136.235625,-39.22,4.94281175,32.27
2021-07-06 11:27:56.492187500,-65.0,5.0,5.0,136.2228125,-38.724999999999994,4.944132875,32.27
2021-07-06 11:27:56.500000000,-65.0,5.0,5.0,136.20999999999998,-38.23,4.945454,32.27
2021-07-06 11:27:56.507812500,-65.0,5.0,4.75,136.19718749999998,-36.44,4.9455340625,32.27
2021-07-06 11:27:56.515625000,-65.0,5.0,4.5,136.184375,-34.65,4.945614125,32.27
2021-07-06 11:27:56.523437500,-65.0,5.0,4.25,136.1715625,-31.7,4.9456941875,32.27
2021-07-06 11:27:56.531250000,-65.0,5.0,4.0,136.15875,-28.75,4.9457742499999995,32.27
2021-07-06 11:27:56.539062500,-65.0,5.0,4.0,136.1459375,-24.975,4.9458543125,32.27
2021-07-06 11:27:56.546875000,-65.0,5.0,4.0,136.133125,-21.2,4.945934375,32.27
2021-07-06 11:27:56.554687500,-65.0,5.0,4.0,136.12031249999998,-17.07,4.9460144375,32.27
2021-07-06 11:27:56.562500000,-65.0,5.0,4.0,136.1075,-12.94,4.9460945,32.27
2021-07-06 11:27:56.570312500,-65.0,5.0,4.0,136.0946875,-8.934999999999999,4.9461745624999995,32.27
2021-07-06 11:27:56.578125000,-65.0,5.0,4.0,136.081875,-4.93,4.946254625,32.27
2021-07-06 11:27:56.585937500,-65.0,5.0,4.0,136.0690625,-1.4100000000000001,4.9463346875,32.27
2021-07-06 11:27:56.593750000,-65.0,5.0,4.0,136.05625,2.11,4.94641475,32.27
2021-07-06 11:27:56.601562500,-65.0,5.0,4.0,136.04343749999998,4.965,4.9464948125,32.27
2021-07-06 11:27:56.609375000,-65.0,5.0,4.0,136.030625,7.82,4.946574875,32.27
2021-07-06 11:27:56.617187500,-65.0,5.0,4.0,136.0178125,10.004999999999999,4.9466549375,32.27
2021-07-06 11:27:56.625000000,-65.0,5.0,4.0,136.005,12.19,4.946735,32.27
2021-07-06 11:27:56.632812500,-65.0,5.0,4.25,135.9921875,13.795,4.9468150625,32.27
2021-07-06 11:27:56.640625000,-65.0,5.0,4.5,135.979375,15.4,4.946895125,32.27
2021-07-06 11:27:56.648437500,-65.0,5.0,4.75,135.96656249999998,16.52,4.9469751875,32.27
2021-07-06 11:27:56.656250000,-65.0,5.0,5.0,135.95374999999999,17.64,4.94705525,32.27
2021-07-06 11:27:56.664062500,-65.0,5.0,4.75,135.9409375,18.32,4.9471353124999995,32.27
2021-07-06 11:27:56.671875000,-65.0,5.0,4.5,135.928125,19.0,4.947215375,32.27
2021-07-06 11:27:56.679687500,-65.0,5.0,4.25,135.9153125,19.275,4.9472954375,32.27
2021-07-06 11:27:56.687500000,-65.0,5.0,4.0,135.9025,19.55,4.9473755,32.27
2021-07-06 11:27:56.695312500,-65.0,5.0,4.0,135.88968749999998,19.495,4.9474555625,32.27
2021-07-06 11:27:56.703125000,-65.0,5.0,4.0,135.87687499999998,19.44,4.9475356249999995,32.27
2021-07-06 11:27:56.710937500,-65.0,5.0,4.0,135.8640625,19.16,4.9476156875,32.27
2021-07-06 11:27:56.718750000,-65.0,5.0,4.0,135.85125,18.88,4.94769575,32.27
2021-07-06 11:27:56.726562500,-65.0,5.0,4.0,135.8384375,18.545,4.9477758125,32.27
2021-07-06 11:27:56.734375000,-65.0,5.0,4.0,135.825625,18.21,4.947855875,32.27
2021-07-06 11:27:56.742187500,-65.0,5.0,4.0,135.81281249999998,17.98,4.9479359375,32.27
2021-07-06 11:27:56.750000000,-65.0,5.0,4.0,135.79999999999998,17.75,4.948016,32.27
2021-07-06 11:27:56.757812500,-65.0,5.0,4.0,135.7871875,17.685000000000002,4.94817615625,32.27
2021-07-06 11:27:56.765625000,-65.0,5.0,4.0,135.774375,17.62,4.9483363125,32.27
2021-07-06 11:27:56.773437500,-65.0,5.0,4.0,135.7615625,17.68,4.94849646875,32.27
2021-07-06 11:27:56.781250000,-65.0,5.0,4.0,135.74875,17.74,4.948656625,32.27
2021-07-06 11:27:56.789062500,-65.0,5.0,4.25,135.73593749999998,17.814999999999998,4.94881678125,32.27
2021-07-06 11:27:56.796875000,-65.0,5.0,4.5,135.72312499999998,17.89,4.9489769374999995,32.27
2021-07-06 11:27:56.804687500,-65.0,5.0,4.75,135.7103125,17.865000000000002,4.94913709375,32.27
2021-07-06 11:27:56.812500000,-65.0,5.0,5.0,135.6975,17.84,4.94929725,32.27
2021-07-06 11:27:56.820312500,-65.0,5.0,4.75,135.6846875,17.645,4.94945740625,32.27
2021-07-06 11:27:56.828125000,-65.0,5.0,4.5,135.671875,17.45,4.9496175625,32.27
2021-07-06 11:27:56.835937500,-65.0,5.0,4.25,135.65906249999998,17.11,4.94977771875,32.27
2021-07-06 11:27:56.843750000,-65.0,5.0,4.0,135.64624999999998,16.77,4.949937875,32.27
2021-07-06 11:27:56.851562500,-65.0,5.0,4.0,135.63343749999999,16.335,4.95009803125,32.27
2021-07-06 11:27:56.859375000,-65.0,5.0,4.0,135.620625,15.9,4.950258187499999,32.27
2021-07-06 11:27:56.867187500,-65.0,5.0,4.0,135.6078125,15.395,4.95041834375,32.27
2021-07-06 11:27:56.875000000,-65.0,5.0,4.0,135.595,14.89,4.9505785,32.27
2021-07-06 11:27:56.882812500,-65.0,5.0,4.0,135.58218749999997,14.265,4.9507386562499995,32.27
2021-07-06 11:27:56.890625000,-65.0,5.0,4.0,135.56937499999998,13.64,4.9508988125,32.27
2021-07-06 11:27:56.898437500,-65.0,5.0,4.0,135.55656249999998,12.775,4.95105896875,32.27
2021-07-06 11:27:56.906250000,-65.0,5.0,4.0,135.54375,11.91,4.951219125,32.27
2021-07-06 11:27:56.914062500,-65.0,5.0,4.25,135.5309375,10.695,4.9513792812499995,32.27
2021-07-06 11:27:56.921875000,-65.0,5.0,4.5,135.518125,9.48,4.951539437499999,32.27
2021-07-06 11:27:56.929687500,-65.0,5.0,4.75,135.50531249999997,7.885,4.95169959375,32.27
2021-07-06 11:27:56.937500000,-65.0,5.0,5.0,135.49249999999998,6.29,4.95185975,32.27
2021-07-06 11:27:56.945312500,-65.0,4.75,4.75,135.47968749999998,4.4,4.952019906249999,32.27
2021-07-06 11:27:56.953125000,-65.0,4.5,4.5,135.466875,2.51,4.9521800625,32.27
2021-07-06 11:27:56.960937500,-65.0,4.25,4.25,135.4540625,0.5099999999999998,4.95234021875,32.27
2021-07-06 11:27:56.968750000,-65.0,4.0,4.0,135.44125,-1.49,4.952500375,32.27
2021-07-06 11:27:56.976562500,-65.0,4.25,4.0,135.42843749999997,-3.385,4.952660531249999,32.27
2021-07-06 11:27:56.984375000,-65.0,4.5,4.0,135.41562499999998,-5.28,4.952820687499999,32.27
2021-07-06 11:27:56.992187500,-65.0,4.75,4.0,135.40281249999998,-6.945,4.95298084375,32.27
2021-07-06 11:27:57.000000000,-65.0,5.0,4.0,135.39,-8.61,4.953141,32.27
2021-07-06 11:27:57.007812500,-65.0,5.0,4.0,135.378203125,-10.02,4.952300281249999,32.27
2021-07-06 11:27:57.015625000,-65.0,5.0,4.0,135.36640624999998,-11.43,4.951459562499999,32.27
2021-07-06 11:27:57.023437500,-65.0,5.0,4.0,135.354609375,-12.715,4.950618843749999,32.27
2021-07-06 11:27:57.031250000,-65.0,5.0,4.0,135.34281249999998,-14.0,4.949778125,32.27
2021-07-06 11:27:57.039062500,-65.0,4.75,4.0,135.331015625,-15.36,4.94893740625,32.27
2021-07-06 11:27:57.046875000,-65.0,4.5,4.0,135.31921874999998,-16.72,4.9480966875,32.27
2021-07-06 11:27:57.054687500,-65.0,4.25,4.0,135.307421875,-18.369999999999997,4.9472559687499995,32.27
2021-07-06 11:27:57.062500000,-65.0,4.0,4.0,135.29562499999997,-20.02,4.946415249999999,32.27
2021-07-06 11:27:57.070312500,-65.0,4.0,4.0,135.28382812499999,-22.08,4.945574531249999,32.27
2021-07-06 11:27:57.078125000,-65.0,4.0,4.0,135.27203125,-24.14,4.9447338125,32.27
2021-07-06 11:27:57.085937500,-65.0,4.0,4.0,135.26023437499998,-26.58,4.94389309375,32.27
2021-07-06 11:27:57.093750000,-65.0,4.0,4.0,135.2484375,-29.02,4.943052375,32.27
2021-07-06 11:27:57.101562500,-65.0,4.25,4.0,135.23664062499998,-31.659999999999997,4.94221165625,32.27
2021-07-06 11:27:57.109375000,-65.0,4.5,4.0,135.22484375,-34.3,4.9413709374999994,32.27
2021-07-06 11:27:57.117187500,-65.0,4.75,4.0,135.21304687499997,-36.775,4.940530218749999,32.27
2021-07-06 11:27:57.125000000,-65.0,5.0,4.0,135.20125,-39.25,4.9396895,32.27
2021-07-06 11:27:57.132812500,-65.0,4.75,4.0,135.189453125,-41.114999999999995,4.93884878125,32.27
2021-07-06 11:27:57.140625000,-65.0,4.5,4.0,135.17765624999998,-42.98,4.9380080625,32.27
2021-07-06 11:27:57.148437500,-65.0,4.25,4.0,135.165859375,-43.785,4.93716734375,32.27
2021-07-06 11:27:57.156250000,-65.0,4.0,4.0,135.15406249999998,-44.59,4.9363266249999995,32.27
2021-07-06 11:27:57.164062500,-65.0,4.0,4.0,135.142265625,-43.985,4.935485906249999,32.27
2021-07-06 11:27:57.171875000,-65.0,4.0,4.0,135.13046874999998,-43.38,4.934645187499999,32.27
2021-07-06 11:27:57.179687500,-65.0,4.0,4.0,135.118671875,-41.25,4.93380446875,32.27
2021-07-06 11:27:57.187500000,-65.0,4.0,4.0,135.106875,-39.12,4.93296375,32.27
2021-07-06 11:27:57.195312500,-65.0,4.25,4.0,135.095078125,-35.629999999999995,4.93212303125,32.27
2021-07-06 11:27:57.203125000,-65.0,4.5,4.0,135.08328125,-32.14,4.9312823125,32.27
2021-07-06 11:27:57.210937500,-65.0,4.75,4.0,135.07148437499998,-27.695,4.9304415937499995,32.27
2021-07-06 11:27:57.218750000,-65.0,5.0,4.0,135.0596875,-23.25,4.929600874999999,32.27
2021-07-06 11:27:57.226562500,-65.0,5.0,4.0,135.04789062499998,-18.405,4.92876015625,32.27
2021-07-06 11:27:57.234375000,-65.0,5.0,4.0,135.03609375,-13.56,4.9279194375,32.27
2021-07-06 11:27:57.242187500,-65.0,5.0,4.0,135.02429687499998,-8.875,4.92707871875,32.27
2021-07-06 11:27:57.250000000,-65.0,5.0,4.0,135.0125,-4.19,4.926238,32.27
2021-07-06 11:27:57.257812500,-65.0,4.75,4.0,135.000703125,-0.05999999999999961,4.92563746875,32.27
2021-07-06 11:27:57.265625000,-65.0,4.5,4.0,134.98890624999999,4.07,4.9250369375,32.27
2021-07-06 11:27:57.273437500,-65.0,4.25,4.0,134.977109375,7.42,4.92443640625,32.27
2021-07-06 11:27:57.281250000,-65.0,4.0,4.0,134.96531249999998,10.77,4.923835875,32.27
2021-07-06 11:27:57.289062500,-65.0,4.0,4.0,134.953515625,13.33,4.92323534375,32.27
2021-07-06 11:27:57.296875000,-65.0,4.0,4.0,134.94171874999998,15.89,4.9226348125,32.27
2021-07-06 11:27:57.304687500,-65.0,4.0,4.0,134.929921875,17.73,4.92203428125,32.27
2021-07-06 11:27:57.312500000,-65.0,4.0,4.0,134.91812499999997,19.57,4.92143375,32.27
2021-07-06 11:27:57.320312500,-65.0,4.0,4.0,134.906328125,20.8,4.9208332187499995,32.27
2021-07-06 11:27:57.328125000,-65.0,4.0,4.0,134.89453125,22.03,4.9202326874999995,32.27
2021-07-06 11:27:57.335937500,-65.0,4.0,4.0,134.88273437499998,22.73,4.91963215625,32.27
2021-07-06 11:27:57.343750000,-65.0,4.0,4.0,134.8709375,23.43,4.919031625,32.27
2021-07-06 11:27:57.351562500,-65.0,4.0,4.0,134.85914062499998,23.675,4.91843109375,32.27
2021-07-06 11:27:57.359375000,-65.0,4.0,4.0,134.84734375,23.92,4.9178305625,32.27
2021-07-06 11:27:57.367187500,-65.0,4.0,4.0,134.83554687499998,23.82,4.91723003125,32.27
2021-07-06 11:27:57.375000000,-65.0,4.0,4.0,134.82375,23.72,4.9166295,32.27
2021-07-06 11:27:57.382812500,-65.0,4.0,4.0,134.811953125,23.445,4.91602896875,32.27
2021-07-06 11:27:57.390625000,-65.0,4.0,4.0,134.80015625,23.17,4.9154284375,32.27
2021-07-06 11:27:57.398437500,-65.0,4.0,4.0,134.788359375,22.895000000000003,4.91482790625,32.27
2021-07-06 11:27:57.406250000,-65.0,4.0,4.0,134.77656249999998,22.62,4.914227375,32.27
2021-07-06 11:27:57.414062500,-65.0,4.25,4.0,134.764765625,22.455,4.91362684375,32.27
2021-07-06 11:27:57.421875000,-65.0,4.5,4.0,134.75296874999998,22.29,4.9130263125,32.27
2021-07-06 11:27:57.429687500,-65.0,4.75,4.0,134.741171875,22.2,4.9124257812500005,32.27
2021-07-06 11:27:57.437500000,-65.0,5.0,4.0,134.729375,22.11,4.91182525,32.27
2021-07-06 11:27:57.445312500,-65.0,5.0,4.0,134.717578125,21.985,4.91122471875,32.27
2021-07-06 11:27:57.453125000,-65.0,5.0,4.0,134.70578125,21.86,4.9106241875,32.27
2021-07-06 11:27:57.460937500,-65.0,5.0,4.0,134.69398437499999,21.54,4.91002365625,32.27
2021-07-06 11:27:57.468750000,-65.0,5.0,4.0,134.6821875,21.22,4.909423125,32.27
2021-07-06 11:27:57.476562500,-65.0,5.0,4.0,134.67039062499998,20.655,4.90882259375,32.27
2021-07-06 11:27:57.484375000,-65.0,5.0,4.0,134.65859375,20.09,4.9082220625,32.27
2021-07-06 11:27:57.492187500,-65.0,5.0,4.0,134.64679687499998,19.34,4.90762153125,32.27
2021-07-06 11:27:57.500000000,-65.0,5.0,4.0,134.635,18.59,4.907021,32.27
2021-07-06 11:27:57.507812500,-65.0,5.0,4.0,134.623203125,17.795,4.9059400625,32.27
2021-07-06 11:27:57.515625000,-65.0,5.0,4.0,134.61140625,17.0,4.904859125000001,32.27
2021-07-06 11:27:57.523437500,-65.0,5.0,4.0,134.599609375,16.29,4.9037781875,32.27
2021-07-06 11:27:57.531250000,-65.0,5.0,4.0,134.58781249999998,15.58,4.90269725,32.27
2021-07-06 11:27:57.539062500,-65.0,4.75,4.0,134.576015625,14.975,4.9016163125,32.27
2021-07-06 11:27:57.546875000,-65.0,4.5,4.0,134.56421874999998,14.37,4.9005353750000005,32.27
2021-07-06 11:27:57.554687500,-65.0,4.25,4.0,134.552421875,13.785,4.8994544375,32.27
2021-07-06 11:27:57.562500000,-65.0,4.0,4.0,134.54062499999998,13.2,4.8983735,32.27
2021-07-06 11:27:57.570312500,-65.0,4.25,4.0,134.528828125,12.475,4.897292562500001,32.27
2021-07-06 11:27:57.578125000,-65.0,4.5,4.0,134.51703125,11.75,4.896211625,32.27
2021-07-06 11:27:57.585937500,-65.0,4.75,4.0,134.505234375,10.775,4.8951306875,32.27
2021-07-06 11:27:57.593750000,-65.0,5.0,4.0,134.4934375,9.8,4.89404975,32.27
2021-07-06 11:27:57.601562500,-65.0,4.75,4.0,134.48164062499998,8.530000000000001,4.8929688125,32.27
2021-07-06 11:27:57.609375000,-65.0,4.5,4.0,134.46984375,7.26,4.891887875,32.27
2021-07-06 11:27:57.617187500,-65.0,4.25,4.0,134.45804687499998,5.76,4.8908069375,32.27
2021-07-06 11:27:57.625000000,-65.0,4.0,4.0,134.44625,4.26,4.889726,32.27
2021-07-06 11:27:57.632812500,-65.0,4.25,4.0,134.434453125,2.645,4.8886450625,32.27
2021-07-06 11:27:57.640625000,-65.0,4.5,4.0,134.42265625,1.03,4.887564125,32.27
2021-07-06 11:27:57.648437500,-65.0,4.75,4.0,134.410859375,-0.575,4.8864831875,32.27
2021-07-06 11:27:57.656250000,-65.0,5.0,4.0,134.39906249999999,-2.18,4.88540225,32.27
2021-07-06 11:27:57.664062500,-65.0,4.75,4.0,134.387265625,-3.675,4.8843213125,32.27
2021-07-06 11:27:57.671875000,-65.0,4.5,4.0,134.37546874999998,-5.17,4.883240375,32.27
2021-07-06 11:27:57.679687500,-65.0,4.25,4.0,134.363671875,-6.54,4.8821594374999995,32.27
2021-07-06 11:27:57.687500000,-65.0,4.0,4.0,134.351875,-7.91,4.8810785,32.27
2021-07-06 11:27:57.695312500,-65.0,4.25,4.0,134.340078125,-9.215,4.8799975625,32.27
2021-07-06 11:27:57.703125000,-65.0,4.5,4.0,134.32828125,-10.52,4.878916625,32.27
2021-07-06 11:27:57.710937500,-65.0,4.75,4.0,134.316484375,-11.879999999999999,4.8778356875,32.27
2021-07-06 11:27:57.718750000,-65.0,5.0,4.0,134.3046875,-13.24,4.87675475,32.27
2021-07-06 11:27:57.726562500,-65.0,5.0,4.0,134.29289062499998,-14.850000000000001,4.8756738125,32.27
2021-07-06 11:27:57.734375000,-65.0,5.0,4.0,134.28109375,-16.46,4.874592874999999,32.27
2021-07-06 11:27:57.742187500,-65.0,5.0,4.0,134.26929687499998,-18.495,4.8735119375,32.27
2021-07-06 11:27:57.750000000,-65.0,5.0,4.0,134.2575,-20.53,4.872431,32.27
2021-07-06 11:27:57.757812500,-65.0,5.0,4.0,134.245703125,-23.055,4.87151021875,32.27
2021-07-06 11:27:57.765625000,-65.0,5.0,4.0,134.23390625,-25.58,4.8705894375,32.27
2021-07-06 11:27:57.773437500,-65.0,5.0,4.0,134.222109375,-28.49,4.86966865625,32.27
2021-07-06 11:27:57.781250000,-65.0,5.0,4.0,134.2103125,-31.4,4.8687478749999995,32.27
2021-07-06 11:27:57.789062500,-65.0,5.0,4.0,134.198515625,-34.370000000000005,4.86782709375,32.27
2021-07-06 11:27:57.796875000,-65.0,5.0,4.0,134.18671874999998,-37.34,4.866906312499999,32.27
2021-07-06 11:27:57.804687500,-65.0,5.0,4.0,134.174921875,-39.93000000000001,4.86598553125,32.27
2021-07-06 11:27:57.812500000,-65.0,5.0,4.0,134.16312499999998,-42.52,4.86506475,32.27
2021-07-06 11:27:57.820312500,-65.0,5.0,4.0,134.151328125,-44.24,4.86414396875,32.27
2021-07-06 11:27:57.828125000,-65.0,5.0,4.0,134.13953125,-45.96,4.8632231875,32.27
2021-07-06 11:27:57.835937500,-65.0,5.0,4.0,134.127734375,-46.45,4.8623024062499995,32.27
2021-07-06 11:27:57.843750000,-65.0,5.0,4.0,134.1159375,-46.94,4.861381625,32.27
2021-07-06 11:27:57.851562500,-65.0,4.75,4.0,134.10414062499999,-46.019999999999996,4.860460843749999,32.27
2021-07-06 11:27:57.859375000,-65.0,4.5,4.0,134.09234375,-45.1,4.8595400625,32.27
2021-07-06 11:27:57.867187500,-65.0,4.25,4.0,134.08054687499998,-42.86,4.858619281249999,32.27
2021-07-06 11:27:57.875000000,-65.0,4.0,4.0,134.06875,-40.62,4.8576985,32.27
2021-07-06 11:27:57.882812500,-65.0,4.25,4.0,134.056953125,-37.315,4.85677771875,32.27
2021-07-06 11:27:57.890625000,-65.0,4.5,4.0,134.04515625,-34.01,4.8558569375,32.27
2021-07-06 11:27:57.898437500,-65.0,4.75,4.0,134.033359375,-30.055,4.85493615625,32.27
2021-07-06 11:27:57.906250000,-65.0,5.0,4.0,134.0215625,-26.1,4.8540153749999995,32.27
2021-07-06 11:27:57.914062500,-65.0,4.75,4.0,134.009765625,-21.905,4.85309459375,32.27
2021-07-06 11:27:57.921875000,-65.0,4.5,4.0,133.99796874999998,-17.71,4.852173812499999,32.27
2021-07-06 11:27:57.929687500,-65.0,4.25,4.0,133.986171875,-13.635000000000002,4.85125303125,32.27
2021-07-06 11:27:57.937500000,-65.0,4.0,4.0,133.974375,-9.56,4.850332249999999,32.27
2021-07-06 11:27:57.945312500,-65.0,4.25,4.25,133.962578125,-5.855,4.84941146875,32.27
2021-07-06 11:27:57.953125000,-65.0,4.5,4.5,133.95078125,-2.15,4.8484906875,32.27
2021-07-06 11:27:57.960937500,-65.0,4.75,4.75,133.938984375,1.0749999999999997,4.8475699062499995,32.27
2021-07-06 11:27:57.968750000,-65.0,5.0,5.0,133.9271875,4.3,4.846649125,32.27
2021-07-06 11:27:57.976562500,-65.0,5.0,4.75,133.915390625,7.025,4.845728343749999,32.27
2021-07-06 11:27:57.984375000,-65.0,5.0,4.5,133.90359375,9.75,4.8448075625,32.27
2021-07-06 11:27:57.992187500,-65.0,5.0,4.25,133.89179687499998,12.01,4.843886781249999,32.27
2021-07-06 11:27:58.000000000,-65.0,5.0,4.0,133.88,14.27,4.842966,32.27
2021-07-06 11:27:58.007812500,-65.0,5.0,4.0,133.86890625,16.105,4.84220534375,32.270625
2021-07-06 11:27:58.015625000,-65.0,5.0,4.0,133.8578125,17.94,4.841444687499999,32.27125
2021-07-06 11:27:58.023437500,-65.0,5.0,4.0,133.84671875,19.36,4.8406840312499995,32.271875
2021-07-06 11:27:58.031250000,-65.0,5.0,4.0,133.835625,20.78,4.839923375,32.2725
2021-07-06 11:27:58.039062500,-65.0,5.0,4.0,133.82453125,21.79,4.83916271875,32.273125
2021-07-06 11:27:58.046875000,-65.0,5.0,4.0,133.8134375,22.8,4.8384020625,32.27375
2021-07-06 11:27:58.054687500,-65.0,5.0,4.0,133.80234375,23.42,4.8376414062499995,32.274375
2021-07-06 11:27:58.062500000,-65.0,5.0,4.0,133.79125,24.04,4.83688075,32.275000000000006
2021-07-06 11:27:58.070312500,-65.0,5.0,4.0,133.78015625,24.32,4.83612009375,32.275625000000005
2021-07-06 11:27:58.078125000,-65.0,5.0,4.0,133.7690625,24.6,4.835359437499999,32.276250000000005
2021-07-06 11:27:58.085937500,-65.0,5.0,4.0,133.75796875,24.64,4.8345987812499995,32.276875000000004
2021-07-06 11:27:58.093750000,-65.0,5.0,4.0,133.746875,24.68,4.833838125,32.2775
2021-07-06 11:27:58.101562500,-65.0,5.0,4.0,133.73578125,24.605,4.83307746875,32.278125
2021-07-06 11:27:58.109375000,-65.0,5.0,4.0,133.7246875,24.53,4.8323168125,32.27875
2021-07-06 11:27:58.117187500,-65.0,5.0,4.0,133.71359375,24.445,4.83155615625,32.279375
2021-07-06 11:27:58.125000000,-65.0,5.0,4.0,133.7025,24.36,4.8307955,32.28
2021-07-06 11:27:58.132812500,-65.0,5.0,4.0,133.69140625,24.34,4.83003484375,32.280625
2021-07-06 11:27:58.140625000,-65.0,5.0,4.0,133.68031249999999,24.32,4.829274187499999,32.28125
2021-07-06 11:27:58.148437500,-65.0,5.0,4.0,133.66921875,24.355,4.82851353125,32.281875
2021-07-06 11:27:58.156250000,-65.0,5.0,4.0,133.65812499999998,24.39,4.827752875,32.2825
2021-07-06 11:27:58.164062500,-65.0,5.0,4.0,133.64703125,24.445,4.82699221875,32.283125
2021-07-06 11:27:58.171875000,-65.0,5.0,4.0,133.6359375,24.5,4.8262315625,32.28375
2021-07-06 11:27:58.179687500,-65.0,5.0,4.0,133.62484375,24.505000000000003,4.82547090625,32.284375
2021-07-06 11:27:58.187500000,-65.0,5.0,4.0,133.61375,24.51,4.82471025,32.285
2021-07-06 11:27:58.195312500,-65.0,5.0,4.0,133.60265625,24.41,4.82394959375,32.285625
2021-07-06 11:27:58.203125000,-65.0,5.0,4.0,133.5915625,24.31,4.823188937499999,32.28625
2021-07-06 11:27:58.210937500,-65.0,5.0,4.0,133.58046875,24.064999999999998,4.82242828125,32.286875
2021-07-06 11:27:58.218750000,-65.0,5.0,4.0,133.569375,23.82,4.821667625,32.2875
2021-07-06 11:27:58.226562500,-65.0,5.0,4.0,133.55828125,23.39,4.82090696875,32.288125
2021-07-06 11:27:58.234375000,-65.0,5.0,4.0,133.5471875,22.96,4.8201463125,32.28875
2021-07-06 11:27:58.242187500,-65.0,5.0,4.0,133.53609375,22.3,4.81938565625,32.289375
2021-07-06 11:27:58.250000000,-65.0,5.0,4.0,133.525,21.64,4.818625,32.29
2021-07-06 11:27:58.257812500,-65.0,5.0,4.0,133.51390625,20.715,4.8175040312499995,32.29
2021-07-06 11:27:58.265625000,-65.0,5.0,4.0,133.5028125,19.79,4.8163830625,32.29
2021-07-06 11:27:58.273437500,-65.0,5.0,4.0,133.49171875,18.57,4.81526209375,32.29
2021-07-06 11:27:58.281250000,-65.0,5.0,4.0,133.480625,17.35,4.814141125,32.29
2021-07-06 11:27:58.289062500,-65.0,5.0,4.0,133.46953125,15.875,4.8130201562499995,32.29
2021-07-06 11:27:58.296875000,-65.0,5.0,4.0,133.4584375,14.4,4.8118991875,32.29
2021-07-06 11:27:58.304687500,-65.0,5.0,4.0,133.44734375,12.76,4.81077821875,32.29
2021-07-06 11:27:58.312500000,-65.0,5.0,4.0,133.43625,11.12,4.80965725,32.29
2021-07-06 11:27:58.320312500,-65.0,5.0,4.25,133.42515625,9.455,4.808536281249999,32.29
2021-07-06 11:27:58.328125000,-65.0,5.0,4.5,133.4140625,7.79,4.8074153125,32.29
2021-07-06 11:27:58.335937500,-65.0,5.0,4.75,133.40296875,6.220000000000001,4.80629434375,32.29
2021-07-06 11:27:58.343750000,-65.0,5.0,5.0,133.391875,4.65,4.805173375,32.29
2021-07-06 11:27:58.351562500,-65.0,5.0,4.75,133.38078125,3.2300000000000004,4.804052406249999,32.29
2021-07-06 11:27:58.359375000,-65.0,5.0,4.5,133.3696875,1.81,4.8029314375,32.29
2021-07-06 11:27:58.367187500,-65.0,5.0,4.25,133.35859375,0.49,4.80181046875,32.29
2021-07-06 11:27:58.375000000,-65.0,5.0,4.0,133.3475,-0.83,4.8006895,32.29
2021-07-06 11:27:58.382812500,-65.0,5.0,4.0,133.33640625,-2.19,4.799568531249999,32.29
2021-07-06 11:27:58.390625000,-65.0,5.0,4.0,133.3253125,-3.55,4.7984475625,32.29
2021-07-06 11:27:58.398437500,-65.0,5.0,4.0,133.31421875,-5.125,4.79732659375,32.29
2021-07-06 11:27:58.406250000,-65.0,5.0,4.0,133.303125,-6.7,4.796205625,32.29
2021-07-06 11:27:58.414062500,-65.0,4.75,4.0,133.29203125,-8.615,4.795084656249999,32.29
2021-07-06 11:27:58.421875000,-65.0,4.5,4.0,133.2809375,-10.53,4.7939636875,32.29
2021-07-06 11:27:58.429687500,-65.0,4.25,4.0,133.26984375,-12.815,4.79284271875,32.29
2021-07-06 11:27:58.437500000,-65.0,4.0,4.0,133.25875,-15.1,4.79172175,32.29
2021-07-06 11:27:58.445312500,-65.0,4.25,4.0,133.24765625,-17.669999999999998,4.790600781249999,32.29
2021-07-06 11:27:58.453125000,-65.0,4.5,4.0,133.2365625,-20.24,4.7894798125,32.29
2021-07-06 11:27:58.460937500,-65.0,4.75,4.0,133.22546875,-22.88,4.78835884375,32.29
2021-07-06 11:27:58.468750000,-65.0,5.0,4.0,133.214375,-25.52,4.787237875,32.29
2021-07-06 11:27:58.476562500,-65.0,5.0,4.0,133.20328125,-27.935000000000002,4.786116906249999,32.29
2021-07-06 11:27:58.484375000,-65.0,5.0,4.0,133.1921875,-30.35,4.7849959375,32.29
2021-07-06 11:27:58.492187500,-65.0,5.0,4.0,133.18109375,-32.18,4.78387496875,32.29
2021-07-06 11:27:58.500000000,-65.0,5.0,4.0,133.17000000000002,-34.01,4.782754,32.29
2021-07-06 11:27:58.507812500,-65.0,5.0,4.0,133.15890625,-34.875,4.7823936875,32.29
2021-07-06 11:27:58.515625000,-65.0,5.0,4.0,133.14781250000001,-35.74,4.782033375,32.29
2021-07-06 11:27:58.523437500,-65.0,5.0,4.0,133.13671875,-35.36,4.7816730624999995,32.29
2021-07-06 11:27:58.531250000,-65.0,5.0,4.0,133.125625,-34.98,4.78131275,32.29
2021-07-06 11:27:58.539062500,-65.0,5.0,4.0,133.11453125,-33.245,4.7809524375,32.29
2021-07-06 11:27:58.546875000,-65.0,5.0,4.0,133.1034375,-31.51,4.780592125,32.29
2021-07-06 11:27:58.554687500,-65.0,5.0,4.0,133.09234375,-28.525,4.780231812499999,32.29
2021-07-06 11:27:58.562500000,-65.0,5.0,4.0,133.08125,-25.54,4.7798715,32.29
2021-07-06 11:27:58.570312500,-65.0,5.0,4.0,133.07015625,-21.645,4.7795111875,32.29
2021-07-06 11:27:58.578125000,-65.0,5.0,4.0,133.0590625,-17.75,4.779150875,32.29
2021-07-06 11:27:58.585937500,-65.0,5.0,4.0,133.04796875,-13.425,4.7787905625,32.29
2021-07-06 11:27:58.593750000,-65.0,5.0,4.0,133.036875,-9.1,4.7784302499999995,32.29
2021-07-06 11:27:58.601562500,-65.0,5.0,4.25,133.02578125,-4.8549999999999995,4.7780699375,32.29
2021-07-06 11:27:58.609375000,-65.0,5.0,4.5,133.0146875,-0.61,4.777709625,32.29
2021-07-06 11:27:58.617187500,-65.0,5.0,4.75,133.00359375,3.1250000000000004,4.7773493125,32.29
2021-07-06 11:27:58.625000000,-65.0,5.0,5.0,132.9925,6.86,4.776989,32.29
2021-07-06 11:27:58.632812500,-65.0,5.0,5.0,132.98140625,9.835,4.7766286875,32.29
2021-07-06 11:27:58.640625000,-65.0,5.0,5.0,132.9703125,12.81,4.776268375,32.29
2021-07-06 11:27:58.648437500,-65.0,5.0,5.0,132.95921875,14.945,4.7759080625,32.29
2021-07-06 11:27:58.656250000,-65.0,5.0,5.0,132.948125,17.08,4.77554775,32.29
2021-07-06 11:27:58.664062500,-65.0,5.0,4.75,132.93703125,18.45,4.7751874375,32.29
2021-07-06 11:27:58.671875000,-65.0,5.0,4.5,132.9259375,19.82,4.774827125,32.29
2021-07-06 11:27:58.679687500,-65.0,5.0,4.25,132.91484375000002,20.54,4.7744668125,32.29
2021-07-06 11:27:58.687500000,-65.0,5.0,4.0,132.90375,21.26,4.7741065,32.29
2021-07-06 11:27:58.695312500,-65.0,5.0,4.0,132.89265625000002,21.490000000000002,4.7737461875000005,32.29
2021-07-06 11:27:58.703125000,-65.0,5.0,4.0,132.8815625,21.72,4.773385875,32.29
2021-07-06 11:27:58.710937500,-65.0,5.0,4.0,132.87046875000001,21.59,4.7730255625,32.29
2021-07-06 11:27:58.718750000,-65.0,5.0,4.0,132.859375,21.46,4.77266525,32.29
2021-07-06 11:27:58.726562500,-65.0,5.0,4.25,132.84828125,21.11,4.7723049375,32.29
2021-07-06 11:27:58.734375000,-65.0,5.0,4.5,132.8371875,20.76,4.771944625,32.29
2021-07-06 11:27:58.742187500,-65.0,5.0,4.75,132.82609375,20.345,4.7715843125,32.29
2021-07-06 11:27:58.750000000,-65.0,5.0,5.0,132.815,19.93,4.771224,32.29
2021-07-06 11:27:58.757812500,-65.0,5.0,5.0,132.80390625,19.59,4.7705034062500005,32.29
2021-07-06 11:27:58.765625000,-65.0,5.0,5.0,132.7928125,19.25,4.7697828125,32.29
2021-07-06 11:27:58.773437500,-65.0,5.0,5.0,132.78171875,19.085,4.76906221875,32.29
2021-07-06 11:27:58.781250000,-65.0,5.0,5.0,132.770625,18.92,4.768341625,32.29
2021-07-06 11:27:58.789062500,-65.0,5.0,4.75,132.75953125,18.94,4.76762103125,32.29
2021-07-06 11:27:58.796875000,-65.0,5.0,4.5,132.7484375,18.96,4.7669004375,32.29
2021-07-06 11:27:58.804687500,-65.0,5.0,4.25,132.73734375,19.08,4.76617984375,32.29
2021-07-06 11:27:58.812500000,-65.0,5.0,4.0,132.72625,19.2,4.76545925,32.29
2021-07-06 11:27:58.820312500,-65.0,5.0,4.25,132.71515625,19.259999999999998,4.7647386562500005,32.29
2021-07-06 11:27:58.828125000,-65.0,5.0,4.5,132.7040625,19.32,4.7640180625,32.29
2021-07-06 11:27:58.835937500,-65.0,5.0,4.75,132.69296875,19.17,4.76329746875,32.29
2021-07-06 11:27:58.843750000,-65.0,5.0,5.0,132.68187500000002,19.02,4.762576875000001,32.29
2021-07-06 11:27:58.851562500,-65.0,5.0,5.0,132.67078125,18.619999999999997,4.76185628125,32.29
2021-07-06 11:27:58.859375000,-65.0,5.0,5.0,132.65968750000002,18.22,4.7611356875,32.29
2021-07-06 11:27:58.867187500,-65.0,5.0,5.0,132.64859375,17.645,4.76041509375,32.29
2021-07-06 11:27:58.875000000,-65.0,5.0,5.0,132.63750000000002,17.07,4.7596945,32.29
2021-07-06 11:27:58.882812500,-65.0,5.0,4.75,132.62640625,16.490000000000002,4.7589739062500005,32.29
2021-07-06 11:27:58.890625000,-65.0,5.0,4.5,132.61531250000002,15.91,4.7582533125,32.29
2021-07-06 11:27:58.898437500,-65.0,5.0,4.25,132.60421875,15.469999999999999,4.75753271875,32.29
2021-07-06 11:27:58.906250000,-65.0,5.0,4.0,132.59312500000001,15.03,4.756812125,32.29
2021-07-06 11:27:58.914062500,-65.0,5.0,4.0,132.58203125,14.75,4.75609153125,32.29
2021-07-06 11:27:58.921875000,-65.0,5.0,4.0,132.5709375,14.47,4.7553709375,32.29
2021-07-06 11:27:58.929687500,-65.0,5.0,4.0,132.55984375,14.185,4.75465034375,32.29
2021-07-06 11:27:58.937500000,-65.0,5.0,4.0,132.54875,13.9,4.75392975,32.29
2021-07-06 11:27:58.945312500,-65.0,5.0,4.0,132.53765625,13.379999999999999,4.7532091562500005,32.29
2021-07-06 11:27:58.953125000,-65.0,5.0,4.0,132.5265625,12.86,4.7524885625,32.29
2021-07-06 11:27:58.960937500,-65.0,5.0,4.0,132.51546875,11.91,4.75176796875,32.29
2021-07-06 11:27:58.968750000,-65.0,5.0,4.0,132.504375,10.96,4.751047375000001,32.29
2021-07-06 11:27:58.976562500,-65.0,5.0,4.0,132.49328125,9.535,4.75032678125,32.29
2021-07-06 11:27:58.984375000,-65.0,5.0,4.0,132.4821875,8.11,4.7496061875,32.29
2021-07-06 11:27:58.992187500,-65.0,5.0,4.0,132.47109375,6.33,4.74888559375,32.29
2021-07-06 11:27:59.000000000,-65.0,5.0,4.0,132.46,4.55,4.748165,32.29
2021-07-06 11:27:59.007812500,-65.0,5.0,4.0,132.44945312500002,2.655,4.747764625,32.289375
2021-07-06 11:27:59.015625000,-65.0,5.0,4.0,132.43890625,0.76,4.74736425,32.28875
2021-07-06 11:27:59.023437500,-65.0,5.0,4.0,132.428359375,-1.03,4.7469638750000005,32.288125
2021-07-06 11:27:59.031250000,-65.0,5.0,4.0,132.4178125,-2.82,4.746563500000001,32.2875
2021-07-06 11:27:59.039062500,-65.0,5.0,4.0,132.407265625,-4.39,4.746163125,32.286875
2021-07-06 11:27:59.046875000,-65.0,5.0,4.0,132.39671875000002,-5.96,4.74576275,32.28625
2021-07-06 11:27:59.054687500,-65.0,5.0,4.0,132.386171875,-7.324999999999999,4.745362375,32.285625
2021-07-06 11:27:59.062500000,-65.0,5.0,4.0,132.375625,-8.69,4.744962,32.285
2021-07-06 11:27:59.070312500,-65.0,5.0,4.0,132.365078125,-10.01,4.744561625,32.284375
2021-07-06 11:27:59.078125000,-65.0,5.0,4.0,132.35453125,-11.33,4.74416125,32.28375
2021-07-06 11:27:59.085937500,-65.0,5.0,4.0,132.34398437500002,-12.805,4.743760875,32.283125
2021-07-06 11:27:59.093750000,-65.0,5.0,4.0,132.3334375,-14.28,4.7433605,32.2825
2021-07-06 11:27:59.101562500,-65.0,5.0,4.0,132.322890625,-16.085,4.742960125,32.281875
2021-07-06 11:27:59.109375000,-65.0,5.0,4.0,132.31234375,-17.89,4.74255975,32.28125
2021-07-06 11:27:59.117187500,-65.0,5.0,4.0,132.301796875,-20.105,4.742159375,32.280625
2021-07-06 11:27:59.125000000,-65.0,5.0,4.0,132.29125000000002,-22.32,4.741759,32.28
2021-07-06 11:27:59.132812500,-65.0,4.75,4.0,132.280703125,-24.880000000000003,4.741358625,32.279375
2021-07-06 11:27:59.140625000,-65.0,4.5,4.0,132.27015625,-27.44,4.74095825,32.27875
2021-07-06 11:27:59.148437500,-65.0,4.25,4.0,132.259609375,-30.090000000000003,4.740557875,32.278125
2021-07-06 11:27:59.156250000,-65.0,4.0,4.0,132.2490625,-32.74,4.7401575000000005,32.2775
2021-07-06 11:27:59.164062500,-65.0,4.25,4.0,132.23851562500002,-35.06,4.739757125,32.276875000000004
2021-07-06 11:27:59.171875000,-65.0,4.5,4.0,132.22796875,-37.38,4.73935675,32.276250000000005
2021-07-06 11:27:59.179687500,-65.0,4.75,4.0,132.217421875,-38.915000000000006,4.738956375,32.275625000000005
2021-07-06 11:27:59.187500000,-65.0,5.0,4.0,132.206875,-40.45,4.738556,32.275000000000006
2021-07-06 11:27:59.195312500,-65.0,4.75,4.0,132.196328125,-40.8,4.738155625,32.274375
2021-07-06 11:27:59.203125000,-65.0,4.5,4.0,132.18578125000002,-41.15,4.73775525,32.27375
2021-07-06 11:27:59.210937500,-65.0,4.25,4.0,132.175234375,-40.11,4.737354875,32.273125
2021-07-06 11:27:59.218750000,-65.0,4.0,4.0,132.1646875,-39.07,4.7369544999999995,32.2725
2021-07-06 11:27:59.226562500,-65.0,4.25,4.0,132.154140625,-36.685,4.736554125,32.271875
2021-07-06 11:27:59.234375000,-65.0,4.5,4.0,132.14359375,-34.3,4.73615375,32.27125
2021-07-06 11:27:59.242187500,-65.0,4.75,4.0,132.13304687500002,-30.854999999999997,4.735753375,32.270625
2021-07-06 11:27:59.250000000,-65.0,5.0,4.0,132.1225,-27.41,4.735353,32.27
2021-07-06 11:27:59.257812500,-65.0,5.0,4.0,132.111953125,-23.28,4.73503275,32.27
2021-07-06 11:27:59.265625000,-65.0,5.0,4.0,132.10140625,-19.15,4.7347125,32.27
2021-07-06 11:27:59.273437500,-65.0,5.0,4.0,132.090859375,-14.78,4.73439225,32.27
2021-07-06 11:27:59.281250000,-65.0,5.0,4.0,132.08031250000002,-10.41,4.734072,32.27
2021-07-06 11:27:59.289062500,-65.0,4.75,4.0,132.069765625,-6.17,4.73375175,32.27
2021-07-06 11:27:59.296875000,-65.0,4.5,4.0,132.05921875,-1.93,4.7334315,32.27
2021-07-06 11:27:59.304687500,-65.0,4.25,4.0,132.048671875,1.8749999999999998,4.73311125,32.27
2021-07-06 11:27:59.312500000,-65.0,4.0,4.0,132.038125,5.68,4.732791,32.27
2021-07-06 11:27:59.320312500,-65.0,4.25,4.0,132.02757812500002,8.85,4.73247075,32.27
2021-07-06 11:27:59.328125000,-65.0,4.5,4.0,132.01703125,12.02,4.7321505,32.27
2021-07-06 11:27:59.335937500,-65.0,4.75,4.0,132.006484375,14.475,4.73183025,32.27
2021-07-06 11:27:59.343750000,-65.0,5.0,4.0,131.9959375,16.93,4.73151,32.27
2021-07-06 11:27:59.351562500,-65.0,5.0,4.0,131.985390625,18.67,4.73118975,32.27
2021-07-06 11:27:59.359375000,-65.0,5.0,4.0,131.97484375000002,20.41,4.7308695,32.27
2021-07-06 11:27:59.367187500,-65.0,5.0,4.0,131.964296875,21.545,4.73054925,32.27
2021-07-06 11:27:59.375000000,-65.0,5.0,4.0,131.95375,22.68,4.730229,32.27
2021-07-06 11:27:59.382812500,-65.0,5.0,4.0,131.943203125,23.36,4.72990875,32.27
2021-07-06 11:27:59.390625000,-65.0,5.0,4.0,131.93265625,24.04,4.7295885,32.27
2021-07-06 11:27:59.398437500,-65.0,5.0,4.0,131.92210937500002,24.41,4.72926825,32.27
2021-07-06 11:27:59.406250000,-65.0,5.0,4.0,131.9115625,24.78,4.728948,32.27
2021-07-06 11:27:59.414062500,-65.0,5.0,4.0,131.901015625,24.955,4.72862775,32.27
2021-07-06 11:27:59.421875000,-65.0,5.0,4.0,131.89046875,25.13,4.7283075,32.27
2021-07-06 11:27:59.429687500,-65.0,5.0,4.0,131.879921875,25.17,4.72798725,32.27
2021-07-06 11:27:59.437500000,-65.0,5.0,4.0,131.86937500000002,25.21,4.727667,32.27
2021-07-06 11:27:59.445312500,-65.0,4.75,4.0,131.858828125,25.185000000000002,4.72734675,32.27
2021-07-06 11:27:59.453125000,-65.0,4.5,4.0,131.84828125,25.16,4.7270265,32.27
2021-07-06 11:27:59.460937500,-65.0,4.25,4.0,131.837734375,25.115000000000002,4.72670625,32.27
2021-07-06 11:27:59.468750000,-65.0,4.0,4.0,131.8271875,25.07,4.726386,32.27
2021-07-06 11:27:59.476562500,-65.0,4.25,4.0,131.81664062500002,25.055,4.72606575,32.27
2021-07-06 11:27:59.484375000,-65.0,4.5,4.0,131.80609375,25.04,4.7257455,32.27
2021-07-06 11:27:59.492187500,-65.0,4.75,4.0,131.795546875,25.055,4.72542525,32.27
2021-07-06 11:27:59.500000000,-65.0,5.0,4.0,131.78500000000003,25.07,4.725105,32.27
2021-07-06 11:27:59.507812500,-65.0,4.75,4.0,131.774453125,25.07,4.72506496875,32.27
2021-07-06 11:27:59.515625000,-65.0,4.5,4.0,131.76390625000002,25.07,4.7250249375,32.27
2021-07-06 11:27:59.523437500,-65.0,4.25,4.0,131.753359375,24.95,4.7249849062500004,32.27
2021-07-06 11:27:59.531250000,-65.0,4.0,4.0,131.7428125,24.83,4.724944875,32.27
2021-07-06 11:27:59.539062500,-65.0,4.25,4.0,131.73226562500003,24.49,4.72490484375,32.27
2021-07-06 11:27:59.546875000,-65.0,4.5,4.0,131.72171875,24.15,4.7248648125,32.27
2021-07-06 11:27:59.554687500,-65.0,4.75,4.0,131.71117187500002,23.545,4.72482478125,32.27
2021-07-06 11:27:59.562500000,-65.0,5.0,4.0,131.700625,22.94,4.7247847499999995,32.27
2021-07-06 11:27:59.570312500,-65.0,4.75,4.0,131.690078125,22.130000000000003,4.72474471875,32.27
2021-07-06 11:27:59.578125000,-65.0,4.5,4.0,131.67953125000003,21.32,4.7247046875,32.27
2021-07-06 11:27:59.585937500,-65.0,4.25,4.0,131.668984375,20.425,4.72466465625,32.27
2021-07-06 11:27:59.593750000,-65.0,4.0,4.0,131.65843750000002,19.53,4.724624625,32.27
2021-07-06 11:27:59.601562500,-65.0,4.25,4.0,131.647890625,18.66,4.7245845937499995,32.27
2021-07-06 11:27:59.609375000,-65.0,4.5,4.0,131.63734375,17.79,4.7245445625,32.27
2021-07-06 11:27:59.617187500,-65.0,4.75,4.0,131.62679687500003,17.0,4.72450453125,32.27
2021-07-06 11:27:59.625000000,-65.0,5.0,4.0,131.61625,16.21,4.7244645,32.27
2021-07-06 11:27:59.632812500,-65.0,5.0,4.0,131.60570312500002,15.440000000000001,4.72442446875,32.27
2021-07-06 11:27:59.640625000,-65.0,5.0,4.0,131.59515625,14.67,4.7243844374999995,32.27
2021-07-06 11:27:59.648437500,-65.0,5.0,4.0,131.584609375,13.785,4.72434440625,32.27
2021-07-06 11:27:59.656250000,-65.0,5.0,4.0,131.57406250000003,12.9,4.724304375,32.27
2021-07-06 11:27:59.664062500,-65.0,5.0,4.0,131.563515625,11.754999999999999,4.72426434375,32.27
2021-07-06 11:27:59.671875000,-65.0,5.0,4.0,131.55296875000002,10.61,4.7242243125,32.27
2021-07-06 11:27:59.679687500,-65.0,5.0,4.0,131.542421875,9.129999999999999,4.7241842812499995,32.27
2021-07-06 11:27:59.687500000,-65.0,5.0,4.0,131.531875,7.65,4.72414425,32.27
2021-07-06 11:27:59.695312500,-65.0,4.75,4.0,131.52132812500003,5.875,4.72410421875,32.27
2021-07-06 11:27:59.703125000,-65.0,4.5,4.0,131.51078125,4.1,4.7240641875,32.27
2021-07-06 11:27:59.710937500,-65.0,4.25,4.0,131.50023437500002,2.165,4.72402415625,32.27
2021-07-06 11:27:59.718750000,-65.0,4.0,4.0,131.4896875,0.23,4.723984124999999,32.27
2021-07-06 11:27:59.726562500,-65.0,4.0,4.0,131.479140625,-1.695,4.723944093749999,32.27
2021-07-06 11:27:59.734375000,-65.0,4.0,4.0,131.46859375000003,-3.62,4.7239040625,32.27
2021-07-06 11:27:59.742187500,-65.0,4.0,4.0,131.458046875,-5.405,4.72386403125,32.27
2021-07-06 11:27:59.750000000,-65.0,4.0,4.0,131.44750000000002,-7.19,4.723824,32.27
2021-07-06 11:27:59.757812500,-65.0,4.25,4.0,131.436953125,-8.8,4.723383624999999,32.27
2021-07-06 11:27:59.765625000,-65.0,4.5,4.0,131.42640625,-10.41,4.722943249999999,32.27
2021-07-06 11:27:59.773437500,-65.0,4.75,4.0,131.41585937500003,-11.945,4.722502875,32.27
2021-07-06 11:27:59.781250000,-65.0,5.0,4.0,131.4053125,-13.48,4.7220625,32.27
2021-07-06 11:27:59.789062500,-65.0,5.0,4.0,131.39476562500002,-15.105,4.721622125,32.27
2021-07-06 11:27:59.796875000,-65.0,5.0,4.0,131.38421875,-16.73,4.7211817499999995,32.27
2021-07-06 11:27:59.804687500,-65.0,5.0,4.0,131.373671875,-18.62,4.720741374999999,32.27
2021-07-06 11:27:59.812500000,-65.0,5.0,4.0,131.36312500000003,-20.51,4.720300999999999,32.27
2021-07-06 11:27:59.820312500,-65.0,5.0,4.0,131.352578125,-22.78,4.719860625,32.27
2021-07-06 11:27:59.828125000,-65.0,5.0,4.0,131.34203125000002,-25.05,4.71942025,32.27
2021-07-06 11:27:59.835937500,-65.0,5.0,4.0,131.331484375,-27.655,4.718979875,32.27
2021-07-06 11:27:59.843750000,-65.0,5.0,4.0,131.3209375,-30.26,4.718539499999999,32.27
2021-07-06 11:27:59.851562500,-65.0,4.75,4.0,131.31039062500003,-33.005,4.718099124999999,32.27
2021-07-06 11:27:59.859375000,-65.0,4.5,4.0,131.29984375,-35.75,4.71765875,32.27
2021-07-06 11:27:59.867187500,-65.0,4.25,4.0,131.28929687500002,-38.28,4.717218375,32.27
2021-07-06 11:27:59.875000000,-65.0,4.0,4.0,131.27875,-40.81,4.716778,32.27
2021-07-06 11:27:59.882812500,-65.0,4.0,4.0,131.268203125,-42.695,4.7163376249999995,32.27
2021-07-06 11:27:59.890625000,-65.0,4.0,4.0,131.25765625000003,-44.58,4.715897249999999,32.27
2021-07-06 11:27:59.898437500,-65.0,4.0,4.0,131.247109375,-45.41,4.715456875,32.27
2021-07-06 11:27:59.906250000,-65.0,4.0,4.0,131.23656250000002,-46.24,4.7150165,32.27
2021-07-06 11:27:59.914062500,-65.0,4.0,4.0,131.226015625,-45.75,4.714576125,32.27
2021-07-06 11:27:59.921875000,-65.0,4.0,4.0,131.21546875,-45.26,4.71413575,32.27
2021-07-06 11:27:59.929687500,-65.0,4.0,4.0,131.20492187500003,-43.41,4.7136953749999995,32.27
2021-07-06 11:27:59.937500000,-65.0,4.0,4.0,131.194375,-41.56,4.713255,32.27
2021-07-06 11:27:59.945312500,-65.0,4.25,4.0,131.18382812500002,-38.55,4.712814625,32.27
2021-07-06 11:27:59.953125000,-65.0,4.5,4.0,131.17328125,-35.54,4.71237425,32.27
2021-07-06 11:27:59.960937500,-65.0,4.75,4.0,131.162734375,-31.765,4.711933875,32.27
2021-07-06 11:27:59.968750000,-65.0,5.0,4.0,131.15218750000003,-27.99,4.7114935,32.27
2021-07-06 11:27:59.976562500,-65.0,4.75,4.0,131.141640625,-23.875,4.711053124999999,32.27
2021-07-06 11:27:59.984375000,-65.0,4.5,4.0,131.13109375000002,-19.76,4.71061275,32.27
2021-07-06 11:27:59.992187500,-65.0,4.25,4.0,131.120546875,-15.695,4.710172375,32.27
2021-07-06 11:28:00.000000000,-65.0,4.0,4.0,131.11,-11.63,4.709732,32.27
2021-07-06 11:28:00.007812500,-65.0,4.0,4.0,131.100078125,-7.82,4.709732,32.269375000000004
2021-07-06 11:28:00.015625000,-65.0,4.0,4.0,131.09015625,-4.01,4.709732,32.268750000000004
2021-07-06 11:28:00.023437500,-65.0,4.0,4.0,131.080234375,-0.5299999999999998,4.709732,32.268125000000005
2021-07-06 11:28:00.031250000,-65.0,4.0,4.0,131.0703125,2.95,4.709732,32.267500000000005
2021-07-06 11:28:00.039062500,-65.0,4.25,4.0,131.06039062500003,6.125,4.709732,32.266875000000006
2021-07-06 11:28:00.046875000,-65.0,4.5,4.0,131.05046875000002,9.3,4.709732,32.26625
2021-07-06 11:28:00.054687500,-65.0,4.75,4.0,131.04054687500002,12.17,4.709732,32.265625
2021-07-06 11:28:00.062500000,-65.0,5.0,4.0,131.03062500000001,15.04,4.709732,32.265
2021-07-06 11:28:00.070312500,-65.0,5.0,4.0,131.020703125,17.564999999999998,4.709732,32.264375
2021-07-06 11:28:00.078125000,-65.0,5.0,4.0,131.01078125,20.09,4.709732,32.26375
2021-07-06 11:28:00.085937500,-65.0,5.0,4.0,131.000859375,22.16,4.709732,32.263125
2021-07-06 11:28:00.093750000,-65.0,5.0,4.0,130.9909375,24.23,4.709732,32.2625
2021-07-06 11:28:00.101562500,-65.0,5.0,4.0,130.98101562500003,25.745,4.709732,32.261875
2021-07-06 11:28:00.109375000,-65.0,5.0,4.0,130.97109375000002,27.26,4.709732,32.261250000000004
2021-07-06 11:28:00.117187500,-65.0,5.0,4.0,130.96117187500002,28.200000000000003,4.709732,32.260625000000005
2021-07-06 11:28:00.125000000,-65.0,5.0,4.0,130.95125000000002,29.14,4.709732,32.260000000000005
2021-07-06 11:28:00.132812500,-65.0,4.75,4.0,130.941328125,29.560000000000002,4.709732,32.259375
2021-07-06 11:28:00.140625000,-65.0,4.5,4.0,130.93140625,29.98,4.709732,32.25875
2021-07-06 11:28:00.148437500,-65.0,4.25,4.0,130.921484375,29.995,4.709732,32.258125
2021-07-06 11:28:00.156250000,-65.0,4.0,4.0,130.9115625,30.01,4.709732,32.2575
2021-07-06 11:28:00.164062500,-65.0,4.25,4.0,130.901640625,29.740000000000002,4.709732,32.256875
2021-07-06 11:28:00.171875000,-65.0,4.5,4.0,130.89171875000002,29.47,4.709732,32.25625
2021-07-06 11:28:00.179687500,-65.0,4.75,4.0,130.88179687500002,29.025,4.709732,32.255625
2021-07-06 11:28:00.187500000,-65.0,5.0,4.0,130.87187500000002,28.58,4.709732,32.255
2021-07-06 11:28:00.195312500,-65.0,4.75,4.0,130.861953125,28.045,4.709732,32.254375
2021-07-06 11:28:00.203125000,-65.0,4.5,4.0,130.85203125,27.51,4.709732,32.253750000000004
2021-07-06 11:28:00.210937500,-65.0,4.25,4.0,130.842109375,26.975,4.709732,32.253125
2021-07-06 11:28:00.218750000,-65.0,4.0,4.0,130.8321875,26.44,4.709732,32.2525
2021-07-06 11:28:00.226562500,-65.0,4.0,4.0,130.822265625,25.955,4.709732,32.251875
2021-07-06 11:28:00.234375000,-65.0,4.0,4.0,130.81234375000003,25.47,4.709732,32.25125
2021-07-06 11:28:00.242187500,-65.0,4.0,4.0,130.80242187500002,25.064999999999998,4.709732,32.250625
2021-07-06 11:28:00.250000000,-65.0,4.0,4.0,130.79250000000002,24.66,4.709732,32.25
2021-07-06 11:28:00.257812500,-65.0,4.25,4.0,130.78257812500001,24.325,4.70977203125,32.25
2021-07-06 11:28:00.265625000,-65.0,4.5,4.0,130.77265625,23.99,4.7098120625,32.25
2021-07-06 11:28:00.273437500,-65.0,4.75,4.0,130.762734375,23.659999999999997,4.7098520937499995,32.25
2021-07-06 11:28:00.281250000,-65.0,5.0,4.0,130.7528125,23.33,4.709892125,32.25
2021-07-06 11:28:00.289062500,-65.0,5.0,4.0,130.742890625,22.924999999999997,4.70993215625,32.25
2021-07-06 11:28:00.296875000,-65.0,5.0,4.0,130.73296875,22.52,4.7099721875,32.25
2021-07-06 11:28:00.304687500,-65.0,5.0,4.0,130.72304687500002,21.965,4.71001221875,32.25
2021-07-06 11:28:00.312500000,-65.0,5.0,4.0,130.71312500000002,21.41,4.71005225,32.25
2021-07-06 11:28:00.320312500,-65.0,4.75,4.0,130.70320312500002,20.66,4.71009228125,32.25
2021-07-06 11:28:00.328125000,-65.0,4.5,4.0,130.69328125,19.91,4.7101323125,32.25
2021-07-06 11:28:00.335937500,-65.0,4.25,4.0,130.683359375,18.95,4.71017234375,32.25
2021-07-06 11:28:00.343750000,-65.0,4.0,4.0,130.6734375,17.99,4.710212375,32.25
2021-07-06 11:28:00.351562500,-65.0,4.25,4.0,130.663515625,16.825,4.71025240625,32.25
2021-07-06 11:28:00.359375000,-65.0,4.5,4.0,130.65359375,15.66,4.7102924375,32.25
2021-07-06 11:28:00.367187500,-65.0,4.75,4.0,130.64367187500002,14.295,4.71033246875,32.25
2021-07-06 11:28:00.375000000,-65.0,5.0,4.0,130.63375000000002,12.93,4.7103725,32.25
2021-07-06 11:28:00.382812500,-65.0,4.75,4.0,130.62382812500002,11.365,4.71041253125,32.25
2021-07-06 11:28:00.390625000,-65.0,4.5,4.0,130.61390625,9.8,4.7104525625,32.25
2021-07-06 11:28:00.398437500,-65.0,4.25,4.0,130.603984375,8.09,4.71049259375,32.25
2021-07-06 11:28:00.406250000,-65.0,4.0,4.0,130.5940625,6.38,4.710532625,32.25
2021-07-06 11:28:00.414062500,-65.0,4.25,4.0,130.584140625,4.58,4.71057265625,32.25
2021-07-06 11:28:00.421875000,-65.0,4.5,4.0,130.57421875,2.78,4.7106126875,32.25
2021-07-06 11:28:00.429687500,-65.0,4.75,4.0,130.564296875,0.97,4.7106527187500005,32.25
2021-07-06 11:28:00.437500000,-65.0,5.0,4.0,130.55437500000002,-0.84,4.71069275,32.25
2021-07-06 11:28:00.445312500,-65.0,5.0,4.0,130.54445312500002,-2.6,4.71073278125,32.25
2021-07-06 11:28:00.453125000,-65.0,5.0,4.0,130.53453125000001,-4.36,4.7107728125,32.25
2021-07-06 11:28:00.460937500,-65.0,5.0,4.0,130.524609375,-6.0600000000000005,4.71081284375,32.25
2021-07-06 11:28:00.468750000,-65.0,5.0,4.0,130.5146875,-7.76,4.7108528750000005,32.25
2021-07-06 11:28:00.476562500,-65.0,4.75,4.0,130.504765625,-9.425,4.710892906250001,32.25
2021-07-06 11:28:00.484375000,-65.0,4.5,4.0,130.49484375,-11.09,4.7109329375,32.25
2021-07-06 11:28:00.492187500,-65.0,4.25,4.0,130.484921875,-12.75,4.71097296875,32.25
2021-07-06 11:28:00.500000000,-65.0,4.0,4.0,130.47500000000002,-14.41,4.711013,32.25
2021-07-06 11:28:00.507812500,-65.0,4.0,4.0,130.46507812500002,-16.130000000000003,4.710572625,32.25
2021-07-06 11:28:00.515625000,-65.0,4.0,4.0,130.45515625000002,-17.85,4.71013225,32.25
2021-07-06 11:28:00.523437500,-65.0,4.0,4.0,130.445234375,-19.665,4.709691875,32.25
2021-07-06 11:28:00.531250000,-65.0,4.0,4.0,130.4353125,-21.48,4.709251500000001,32.25
2021-07-06 11:28:00.539062500,-65.0,4.25,4.0,130.425390625,-23.445,4.708811125,32.25
2021-07-06 11:28:00.546875000,-65.0,4.5,4.0,130.41546875,-25.41,4.70837075,32.25
2021-07-06 11:28:00.554687500,-65.0,4.75,4.0,130.405546875,-27.564999999999998,4.707930375,32.25
2021-07-06 11:28:00.562500000,-65.0,5.0,4.0,130.395625,-29.72,4.70749,32.25
2021-07-06 11:28:00.570312500,-65.0,5.0,4.0,130.38570312500002,-32.045,4.707049625,32.25
2021-07-06 11:28:00.578125000,-65.0,5.0,4.0,130.37578125000002,-34.37,4.7066092500000005,32.25
2021-07-06 11:28:00.585937500,-65.0,5.0,4.0,130.365859375,-36.754999999999995,4.706168875,32.25
2021-07-06 11:28:00.593750000,-65.0,5.0,4.0,130.3559375,-39.14,4.7057285,32.25
2021-07-06 11:28:00.601562500,-65.0,4.75,4.0,130.346015625,-41.345,4.705288125,32.25
2021-07-06 11:28:00.609375000,-65.0,4.5,4.0,130.33609375,-43.55,4.70484775,32.25
2021-07-06 11:28:00.617187500,-65.0,4.25,4.0,130.326171875,-45.224999999999994,4.704407375,32.25
2021-07-06 11:28:00.625000000,-65.0,4.0,4.0,130.31625,-46.9,4.7039670000000005,32.25
2021-07-06 11:28:00.632812500,-65.0,4.0,4.0,130.306328125,-47.665,4.703526625,32.25
2021-07-06 11:28:00.640625000,-65.0,4.0,4.0,130.29640625000002,-48.43,4.70308625,32.25
2021-07-06 11:28:00.648437500,-65.0,4.0,4.0,130.28648437500001,-47.989999999999995,4.702645875,32.25
2021-07-06 11:28:00.656250000,-65.0,4.0,4.0,130.2765625,-47.55,4.7022055,32.25
2021-07-06 11:28:00.664062500,-65.0,4.25,4.0,130.266640625,-45.82,4.701765125,32.25
2021-07-06 11:28:00.671875000,-65.0,4.5,4.0,130.25671875,-44.09,4.7013247499999995,32.25
2021-07-06 11:28:00.679687500,-65.0,4.75,4.0,130.246796875,-41.235,4.700884375,32.25
2021-07-06 11:28:00.687500000,-65.0,5.0,4.0,130.236875,-38.38,4.700444,32.25
2021-07-06 11:28:00.695312500,-65.0,5.0,4.0,130.226953125,-34.785000000000004,4.700003625,32.25
2021-07-06 11:28:00.703125000,-65.0,5.0,4.0,130.21703125000002,-31.19,4.69956325,32.25
2021-07-06 11:28:00.710937500,-65.0,5.0,4.0,130.20710937500002,-27.310000000000002,4.699122875,32.25
2021-07-06 11:28:00.718750000,-65.0,5.0,4.0,130.1971875,-23.43,4.698682499999999,32.25
2021-07-06 11:28:00.726562500,-65.0,5.0,4.0,130.187265625,-19.645,4.698242125,32.25
2021-07-06 11:28:00.734375000,-65.0,5.0,4.0,130.17734375,-15.86,4.69780175,32.25
2021-07-06 11:28:00.742187500,-65.0,5.0,4.0,130.167421875,-12.379999999999999,4.697361375,32.25
2021-07-06 11:28:00.750000000,-65.0,5.0,4.0,130.1575,-8.9,4.696921,32.25
2021-07-06 11:28:00.757812500,-65.0,4.75,4.0,130.147578125,-5.71,4.697041093749999,32.25
2021-07-06 11:28:00.765625000,-65.0,4.5,4.0,130.13765625,-2.52,4.6971611875,32.25
2021-07-06 11:28:00.773437500,-65.0,4.25,4.0,130.12773437500002,0.48999999999999977,4.6972812812499996,32.25
2021-07-06 11:28:00.781250000,-65.0,4.0,4.0,130.1178125,3.5,4.697401375,32.25
2021-07-06 11:28:00.789062500,-65.0,4.25,4.0,130.107890625,6.38,4.69752146875,32.25
2021-07-06 11:28:00.796875000,-65.0,4.5,4.0,130.09796875,9.26,4.697641562499999,32.25
2021-07-06 11:28:00.804687500,-65.0,4.75,4.0,130.088046875,11.92,4.69776165625,32.25
2021-07-06 11:28:00.812500000,-65.0,5.0,4.0,130.078125,14.58,4.69788175,32.25
2021-07-06 11:28:00.820312500,-65.0,5.0,4.0,130.068203125,16.83,4.69800184375,32.25
2021-07-06 11:28:00.828125000,-65.0,5.0,4.0,130.05828125,19.08,4.6981219375,32.25
2021-07-06 11:28:00.835937500,-65.0,5.0,4.0,130.04835937500002,20.71,4.6982420312499995,32.25
2021-07-06 11:28:00.843750000,-65.0,5.0,4.0,130.03843750000001,22.34,4.698362125,32.25
2021-07-06 11:28:00.851562500,-65.0,5.0,4.0,130.028515625,23.28,4.69848221875,32.25
2021-07-06 11:28:00.859375000,-65.0,5.0,4.0,130.01859375,24.22,4.6986023125,32.25
2021-07-06 11:28:00.867187500,-65.0,5.0,4.0,130.008671875,24.604999999999997,4.69872240625,32.25
2021-07-06 11:28:00.875000000,-65.0,5.0,4.0,129.99875,24.99,4.6988425,32.25
2021-07-06 11:28:00.882812500,-65.0,4.75,4.0,129.988828125,25.08,4.69896259375,32.25
2021-07-06 11:28:00.890625000,-65.0,4.5,4.0,129.97890625,25.17,4.6990826875,32.25
2021-07-06 11:28:00.898437500,-65.0,4.25,4.0,129.968984375,25.215000000000003,4.69920278125,32.25
2021-07-06 11:28:00.906250000,-65.0,4.0,4.0,129.95906250000002,25.26,4.699322875,32.25
2021-07-06 11:28:00.914062500,-65.0,4.25,4.0,129.949140625,25.39,4.699442968750001,32.25
2021-07-06 11:28:00.921875000,-65.0,4.5,4.0,129.93921875,25.52,4.6995630625,32.25
2021-07-06 11:28:00.929687500,-65.0,4.75,4.0,129.929296875,25.685000000000002,4.69968315625,32.25
2021-07-06 11:28:00.937500000,-65.0,5.0,4.0,129.919375,25.85,4.69980325,32.25
2021-07-06 11:28:00.945312500,-65.0,5.0,4.0,129.909453125,25.92,4.69992334375,32.25
2021-07-06 11:28:00.953125000,-65.0,5.0,4.0,129.89953125,25.99,4.700043437500001,32.25
2021-07-06 11:28:00.960937500,-65.0,5.0,4.0,129.889609375,25.83,4.70016353125,32.25
2021-07-06 11:28:00.968750000,-65.0,5.0,4.0,129.87968750000002,25.67,4.700283625,32.25
2021-07-06 11:28:00.976562500,-65.0,5.0,4.25,129.869765625,25.28,4.7004037187500005,32.25
2021-07-06 11:28:00.984375000,-65.0,5.0,4.5,129.85984375,24.89,4.7005238125,32.25
2021-07-06 11:28:00.992187500,-65.0,5.0,4.75,129.849921875,24.365000000000002,4.700643906250001,32.25
2021-07-06 11:28:01.000000000,-65.0,5.0,5.0,129.84,23.84,4.700764,32.25
2021-07-06 11:28:01.007812500,-65.0,5.0,5.0,129.83078125,23.32,4.700443718750001,32.25
2021-07-06 11:28:01.015625000,-65.0,5.0,5.0,129.8215625,22.8,4.7001234375,32.25
2021-07-06 11:28:01.023437500,-65.0,5.0,5.0,129.81234375,22.36,4.699803156250001,32.25
2021-07-06 11:28:01.031250000,-65.0,5.0,5.0,129.803125,21.92,4.699482875,32.25
2021-07-06 11:28:01.039062500,-65.0,5.0,4.75,129.79390625,21.545,4.699162593750001,32.25
2021-07-06 11:28:01.046875000,-65.0,5.0,4.5,129.7846875,21.17,4.6988423125,32.25
2021-07-06 11:28:01.054687500,-65.0,5.0,4.25,129.77546875000002,20.740000000000002,4.6985220312500005,32.25
2021-07-06 11:28:01.062500000,-65.0,5.0,4.0,129.76625,20.31,4.698201750000001,32.25
2021-07-06 11:28:01.070312500,-65.0,5.0,4.0,129.75703125,19.66,4.69788146875,32.25
2021-07-06 11:28:01.078125000,-65.0,5.0,4.0,129.7478125,19.01,4.697561187500001,32.25
2021-07-06 11:28:01.085937500,-65.0,5.0,4.0,129.73859375,18.020000000000003,4.69724090625,32.25
2021-07-06 11:28:01.093750000,-65.0,5.0,4.0,129.729375,17.03,4.696920625000001,32.25
2021-07-06 11:28:01.101562500,-65.0,5.0,4.0,129.72015625,15.665000000000001,4.69660034375,32.25
2021-07-06 11:28:01.109375000,-65.0,5.0,4.0,129.7109375,14.3,4.6962800625000005,32.25
2021-07-06 11:28:01.117187500,-65.0,5.0,4.0,129.70171875,12.625,4.69595978125,32.25
2021-07-06 11:28:01.125000000,-65.0,5.0,4.0,129.6925,10.95,4.6956395,32.25
2021-07-06 11:28:01.132812500,-65.0,5.0,4.25,129.68328125,9.145,4.695319218750001,32.25
2021-07-06 11:28:01.140625000,-65.0,5.0,4.5,129.6740625,7.34,4.6949989375,32.25
2021-07-06 11:28:01.148437500,-65.0,5.0,4.75,129.66484375,5.575,4.694678656250001,32.25
2021-07-06 11:28:01.156250000,-65.0,5.0,5.0,129.65562500000001,3.81,4.694358375,32.25
2021-07-06 11:28:01.164062500,-65.0,5.0,4.75,129.64640625,2.2,4.694038093750001,32.25
2021-07-06 11:28:01.171875000,-65.0,5.0,4.5,129.6371875,0.59,4.6937178125,32.25
2021-07-06 11:28:01.179687500,-65.0,5.0,4.25,129.62796875,-0.8549999999999999,4.6933975312500005,32.25
2021-07-06 11:28:01.187500000,-65.0,5.0,4.0,129.61875,-2.3,4.69307725,32.25
2021-07-06 11:28:01.195312500,-65.0,5.0,4.25,129.60953125,-3.655,4.69275696875,32.25
2021-07-06 11:28:01.203125000,-65.0,5.0,4.5,129.6003125,-5.01,4.692436687500001,32.25
2021-07-06 11:28:01.210937500,-65.0,5.0,4.75,129.59109375,-6.42,4.69211640625,32.25
2021-07-06 11:28:01.218750000,-65.0,5.0,5.0,129.581875,-7.83,4.691796125000001,32.25
2021-07-06 11:28:01.226562500,-65.0,5.0,4.75,129.57265625,-9.4,4.69147584375,32.25
2021-07-06 11:28:01.234375000,-65.0,5.0,4.5,129.5634375,-10.97,4.6911555625000005,32.25
2021-07-06 11:28:01.242187500,-65.0,5.0,4.25,129.55421875,-12.735,4.69083528125,32.25
2021-07-06 11:28:01.250000000,-65.0,5.0,4.0,129.54500000000002,-14.5,4.690515,32.25
2021-07-06 11:28:01.257812500,-65.0,5.0,4.0,129.53578125,-16.425,4.690555031250001,32.25
2021-07-06 11:28:01.265625000,-65.0,5.0,4.0,129.5265625,-18.35,4.690595062500001,32.25
2021-07-06 11:28:01.273437500,-65.0,5.0,4.0,129.51734375,-20.345,4.69063509375,32.25
2021-07-06 11:28:01.281250000,-65.0,5.0,4.0,129.508125,-22.34,4.690675125,32.25
2021-07-06 11:28:01.289062500,-65.0,5.0,4.0,129.49890625,-24.295,4.6907151562500005,32.25
2021-07-06 11:28:01.296875000,-65.0,5.0,4.0,129.4896875,-26.25,4.690755187500001,32.25
2021-07-06 11:28:01.304687500,-65.0,5.0,4.0,129.48046875,-28.035,4.69079521875,32.25
2021-07-06 11:28:01.312500000,-65.0,5.0,4.0,129.47125,-29.82,4.69083525,32.25
2021-07-06 11:28:01.320312500,-65.0,5.0,4.25,129.46203125,-31.225,4.69087528125,32.25
2021-07-06 11:28:01.328125000,-65.0,5.0,4.5,129.4528125,-32.63,4.6909153125000005,32.25
2021-07-06 11:28:01.335937500,-65.0,5.0,4.75,129.44359375,-33.39,4.690955343750001,32.25
2021-07-06 11:28:01.343750000,-65.0,5.0,5.0,129.434375,-34.15,4.690995375,32.25
2021-07-06 11:28:01.351562500,-65.0,5.0,4.75,129.42515625000001,-33.955,4.69103540625,32.25
2021-07-06 11:28:01.359375000,-65.0,5.0,4.5,129.4159375,-33.76,4.6910754375,32.25
2021-07-06 11:28:01.367187500,-65.0,5.0,4.25,129.40671875,-32.405,4.6911154687500005,32.25
2021-07-06 11:28:01.375000000,-65.0,5.0,4.0,129.3975,-31.05,4.691155500000001,32.25
2021-07-06 11:28:01.382812500,-65.0,5.0,4.0,129.38828125,-28.515,4.69119553125,32.25
2021-07-06 11:28:01.390625000,-65.0,5.0,4.0,129.3790625,-25.98,4.6912355625,32.25
2021-07-06 11:28:01.398437500,-65.0,5.0,4.0,129.36984375,-22.515,4.69127559375,32.25
2021-07-06 11:28:01.406250000,-65.0,5.0,4.0,129.360625,-19.05,4.6913156250000005,32.25
2021-07-06 11:28:01.414062500,-65.0,5.0,4.0,129.35140625,-15.085,4.69135565625,32.25
2021-07-06 11:28:01.421875000,-65.0,5.0,4.0,129.3421875,-11.12,4.6913956875,32.25
2021-07-06 11:28:01.429687500,-65.0,5.0,4.0,129.33296875,-7.154999999999999,4.69143571875,32.25
2021-07-06 11:28:01.437500000,-65.0,5.0,4.0,129.32375,-3.19,4.69147575,32.25
2021-07-06 11:28:01.445312500,-65.0,5.0,4.0,129.31453125,0.375,4.691515781250001,32.25
2021-07-06 11:28:01.453125000,-65.0,5.0,4.0,129.3053125,3.94,4.6915558125,32.25
2021-07-06 11:28:01.460937500,-65.0,5.0,4.0,129.29609375,6.915000000000001,4.69159584375,32.25
2021-07-06 11:28:01.468750000,-65.0,5.0,4.0,129.286875,9.89,4.691635875,32.25
2021-07-06 11:28:01.476562500,-65.0,5.0,4.25,129.27765625,12.254999999999999,4.69167590625,32.25
2021-07-06 11:28:01.484375000,-65.0,5.0,4.5,129.2684375,14.62,4.6917159375,32.25
2021-07-06 11:28:01.492187500,-65.0,5.0,4.75,129.25921875,16.46,4.69175596875,32.25
2021-07-06 11:28:01.500000000,-65.0,5.0,5.0,129.25,18.3,4.691796,32.25
2021-07-06 11:28:01.507812500,-65.0,5.0,5.0,129.24078125,19.675,4.69175596875,32.25
2021-07-06 11:28:01.515625000,-65.0,5.0,5.0,129.2315625,21.05,4.6917159375,32.25
2021-07-06 11:28:01.523437500,-65.0,5.0,5.0,129.22234375,21.97,4.69167590625,32.25
2021-07-06 11:28:01.531250000,-65.0,5.0,5.0,129.213125,22.89,4.691635875,32.25
2021-07-06 11:28:01.539062500,-65.0,4.75,4.75,129.20390625,23.325000000000003,4.69159584375,32.25
2021-07-06 11:28:01.546875000,-65.0,4.5,4.5,129.1946875,23.76,4.6915558125,32.25
2021-07-06 11:28:01.554687500,-65.0,4.25,4.25,129.18546875,23.71,4.691515781250001,32.25
2021-07-06 11:28:01.562500000,-65.0,4.0,4.0,129.17625,23.66,4.69147575,32.25
2021-07-06 11:28:01.570312500,-65.0,4.25,4.0,129.16703125,23.240000000000002,4.69143571875,32.25
2021-07-06 11:28:01.578125000,-65.0,4.5,4.0,129.1578125,22.82,4.6913956875,32.25
2021-07-06 11:28:01.585937500,-65.0,4.75,4.0,129.14859375,22.27,4.69135565625,32.25
2021-07-06 11:28:01.593750000,-65.0,5.0,4.0,129.139375,21.72,4.6913156250000005,32.25
2021-07-06 11:28:01.601562500,-65.0,5.0,4.25,129.13015625,21.28,4.69127559375,32.25
2021-07-06 11:28:01.609375000,-65.0,5.0,4.5,129.1209375,20.84,4.6912355625,32.25
2021-07-06 11:28:01.617187500,-65.0,5.0,4.75,129.11171875,20.7,4.69119553125,32.25
2021-07-06 11:28:01.625000000,-65.0,5.0,5.0,129.1025,20.56,4.691155500000001,32.25
2021-07-06 11:28:01.632812500,-65.0,4.75,4.75,129.09328125,20.705,4.6911154687500005,32.25
2021-07-06 11:28:01.640625000,-65.0,4.5,4.5,129.0840625,20.85,4.6910754375,32.25
2021-07-06 11:28:01.648437500,-65.0,4.25,4.25,129.07484374999999,21.105,4.69103540625,32.25
2021-07-06 11:28:01.656250000,-65.0,4.0,4.0,129.065625,21.36,4.690995375,32.25
2021-07-06 11:28:01.664062500,-65.0,4.25,4.0,129.05640625,21.475,4.690955343750001,32.25
2021-07-06 11:28:01.671875000,-65.0,4.5,4.0,129.0471875,21.59,4.6909153125000005,32.25
2021-07-06 11:28:01.679687500,-65.0,4.75,4.0,129.03796875,21.355,4.69087528125,32.25
2021-07-06 11:28:01.687500000,-65.0,5.0,4.0,129.02875,21.12,4.69083525,32.25
2021-07-06 11:28:01.695312500,-65.0,5.0,4.25,129.01953125,20.525,4.69079521875,32.25
2021-07-06 11:28:01.703125000,-65.0,5.0,4.5,129.0103125,19.93,4.690755187500001,32.25
2021-07-06 11:28:01.710937500,-65.0,5.0,4.75,129.00109375,19.1,4.6907151562500005,32.25
2021-07-06 11:28:01.718750000,-65.0,5.0,5.0,128.991875,18.27,4.690675125,32.25
2021-07-06 11:28:01.726562500,-65.0,5.0,4.75,128.98265625,17.41,4.69063509375,32.25
2021-07-06 11:28:01.734375000,-65.0,5.0,4.5,128.9734375,16.55,4.690595062500001,32.25
2021-07-06 11:28:01.742187500,-65.0,5.0,4.25,128.96421875,15.765,4.690555031250001,32.25
2021-07-06 11:28:01.750000000,-65.0,5.0,4.0,128.95499999999998,14.98,4.690515,32.25
2021-07-06 11:28:01.757812500,-65.0,5.0,4.0,128.94578125,14.25,4.6904349375,32.25
2021-07-06 11:28:01.765625000,-65.0,5.0,4.0,128.9365625,13.52,4.690354875000001,32.25
2021-07-06 11:28:01.773437500,-65.0,5.0,4.0,128.92734375,12.675,4.6902748125,32.25
2021-07-06 11:28:01.781250000,-65.0,5.0,4.0,128.918125,11.83,4.690194750000001,32.25
2021-07-06 11:28:01.789062500,-65.0,4.75,4.25,128.90890625,10.7,4.6901146875,32.25
2021-07-06 11:28:01.796875000,-65.0,4.5,4.5,128.8996875,9.57,4.690034625,32.25
2021-07-06 11:28:01.804687500,-65.0,4.25,4.75,128.89046875,8.07,4.6899545625000005,32.25
2021-07-06 11:28:01.812500000,-65.0,4.0,5.0,128.88125,6.57,4.6898745,32.25
2021-07-06 11:28:01.820312500,-65.0,4.25,4.75,128.87203125,4.79,4.689794437500001,32.25
2021-07-06 11:28:01.828125000,-65.0,4.5,4.5,128.8628125,3.01,4.689714375,32.25
2021-07-06 11:28:01.835937500,-65.0,4.75,4.25,128.85359375,1.15,4.6896343125,32.25
2021-07-06 11:28:01.843750000,-65.0,5.0,4.0,128.84437499999999,-0.71,4.6895542500000005,32.25
2021-07-06 11:28:01.851562500,-65.0,5.0,4.25,128.83515625,-2.42,4.6894741875,32.25
2021-07-06 11:28:01.859375000,-65.0,5.0,4.5,128.8259375,-4.13,4.689394125000001,32.25
2021-07-06 11:28:01.867187500,-65.0,5.0,4.75,128.81671875,-5.555,4.6893140625,32.25
2021-07-06 11:28:01.875000000,-65.0,5.0,5.0,128.8075,-6.98,4.689234000000001,32.25
2021-07-06 11:28:01.882812500,-65.0,4.75,4.75,128.79828125,-8.135,4.6891539375,32.25
2021-07-06 11:28:01.890625000,-65.0,4.5,4.5,128.7890625,-9.29,4.689073875,32.25
2021-07-06 11:28:01.898437500,-65.0,4.25,4.25,128.77984375,-10.309999999999999,4.688993812500001,32.25
2021-07-06 11:28:01.906250000,-65.0,4.0,4.0,128.770625,-11.33,4.68891375,32.25
2021-07-06 11:28:01.914062500,-65.0,4.25,4.0,128.76140625,-12.42,4.688833687500001,32.25
2021-07-06 11:28:01.921875000,-65.0,4.5,4.0,128.7521875,-13.51,4.688753625,32.25
2021-07-06 11:28:01.929687500,-65.0,4.75,4.0,128.74296875,-14.86,4.6886735625,32.25
2021-07-06 11:28:01.937500000,-65.0,5.0,4.0,128.73375,-16.21,4.6885935000000005,32.25
2021-07-06 11:28:01.945312500,-65.0,5.0,4.0,128.72453124999998,-17.935000000000002,4.6885134375,32.25
2021-07-06 11:28:01.953125000,-65.0,5.0,4.0,128.7153125,-19.66,4.688433375000001,32.25
2021-07-06 11:28:01.960937500,-65.0,5.0,4.0,128.70609375,-21.75,4.6883533125,32.25
2021-07-06 11:28:01.968750000,-65.0,5.0,4.0,128.696875,-23.84,4.68827325,32.25
2021-07-06 11:28:01.976562500,-65.0,4.75,4.0,128.68765625,-26.155,4.6881931875000005,32.25
2021-07-06 11:28:01.984375000,-65.0,4.5,4.0,128.6784375,-28.47,4.688113125,32.25
2021-07-06 11:28:01.992187500,-65.0,4.25,4.0,128.66921875,-30.759999999999998,4.688033062500001,32.25
2021-07-06 11:28:02.000000000,-65.0,4.0,4.0,128.66,-33.05,4.687953,32.25
2021-07-06 11:28:02.007812500,-65.0,4.25,4.0,128.65125,-34.955,4.6875926875000005,32.25
2021-07-06 11:28:02.015625000,-65.0,4.5,4.0,128.64249999999998,-36.86,4.687232375000001,32.25
2021-07-06 11:28:02.023437500,-65.0,4.75,4.0,128.63375,-37.975,4.6868720625,32.25
2021-07-06 11:28:02.031250000,-65.0,5.0,4.0,128.625,-39.09,4.68651175,32.25
2021-07-06 11:28:02.039062500,-65.0,5.0,4.0,128.61625,-39.07,4.6861514375,32.25
2021-07-06 11:28:02.046875000,-65.0,5.0,4.0,128.6075,-39.05,4.685791125,32.25
2021-07-06 11:28:02.054687500,-65.0,5.0,4.0,128.59875,-37.685,4.6854308125,32.25
2021-07-06 11:28:02.062500000,-65.0,5.0,4.0,128.59,-36.32,4.6850705,32.25
2021-07-06 11:28:02.070312500,-65.0,4.75,4.0,128.58125,-33.655,4.6847101875,32.25
2021-07-06 11:28:02.078125000,-65.0,4.5,4.0,128.5725,-30.99,4.6843498750000006,32.25
2021-07-06 11:28:02.085937500,-65.0,4.25,4.0,128.56375,-27.314999999999998,4.6839895625,32.25
2021-07-06 11:28:02.093750000,-65.0,4.0,4.0,128.555,-23.64,4.68362925,32.25
2021-07-06 11:28:02.101562500,-65.0,4.25,4.0,128.54625,-19.45,4.6832689375,32.25
2021-07-06 11:28:02.109375000,-65.0,4.5,4.0,128.5375,-15.26,4.682908625,32.25
2021-07-06 11:28:02.117187500,-65.0,4.75,4.0,128.52875,-11.105,4.6825483125,32.25
2021-07-06 11:28:02.125000000,-65.0,5.0,4.0,128.52,-6.95,4.682188,32.25
2021-07-06 11:28:02.132812500,-65.0,4.75,4.0,128.51125,-3.295,4.6818276875,32.25
2021-07-06 11:28:02.140625000,-65.0,4.5,4.0,128.5025,0.36,4.681467375,32.25
2021-07-06 11:28:02.148437500,-65.0,4.25,4.0,128.49375,3.2899999999999996,4.6811070625,32.25
2021-07-06 11:28:02.156250000,-65.0,4.0,4.0,128.48499999999999,6.22,4.68074675,32.25
2021-07-06 11:28:02.164062500,-65.0,4.0,4.25,128.47625,8.415,4.6803864375,32.25
2021-07-06 11:28:02.171875000,-65.0,4.0,4.5,128.4675,10.61,4.6800261249999995,32.25
2021-07-06 11:28:02.179687500,-65.0,4.0,4.75,128.45875,12.26,4.6796658125,32.25
2021-07-06 11:28:02.187500000,-65.0,4.0,5.0,128.45,13.91,4.6793055,32.25
2021-07-06 11:28:02.195312500,-65.0,4.25,4.75,128.44125,15.245,4.6789451875,32.25
2021-07-06 11:28:02.203125000,-65.0,4.5,4.5,128.4325,16.58,4.678584875,32.25
2021-07-06 11:28:02.210937500,-65.0,4.75,4.25,128.42375,17.765,4.6782245625,32.25
2021-07-06 11:28:02.218750000,-65.0,5.0,4.0,128.415,18.95,4.67786425,32.25
2021-07-06 11:28:02.226562500,-65.0,4.75,4.0,128.40625,20.025,4.6775039375,32.25
2021-07-06 11:28:02.234375000,-65.0,4.5,4.0,128.3975,21.1,4.677143624999999,32.25
2021-07-06 11:28:02.242187500,-65.0,4.25,4.0,128.38875,21.975,4.6767833125,32.25
2021-07-06 11:28:02.250000000,-65.0,4.0,4.0,128.38,22.85,4.676423,32.25
2021-07-06 11:28:02.257812500,-65.0,4.25,4.0,128.37125,23.445,4.675942593749999,32.25
2021-07-06 11:28:02.265625000,-65.0,4.5,4.0,128.3625,24.04,4.6754621875,32.25
2021-07-06 11:28:02.273437500,-65.0,4.75,4.0,128.35375,24.299999999999997,4.67498178125,32.25
2021-07-06 11:28:02.281250000,-65.0,5.0,4.0,128.345,24.56,4.674501375,32.25
2021-07-06 11:28:02.289062500,-65.0,5.0,4.0,128.33625,24.525,4.67402096875,32.25
2021-07-06 11:28:02.296875000,-65.0,5.0,4.0,128.3275,24.49,4.6735405624999995,32.25
2021-07-06 11:28:02.304687500,-65.0,5.0,4.0,128.31875,24.255,4.67306015625,32.25
2021-07-06 11:28:02.312500000,-65.0,5.0,4.0,128.31,24.02,4.67257975,32.25
2021-07-06 11:28:02.320312500,-65.0,5.0,4.0,128.30125,23.705,4.67209934375,32.25
2021-07-06 11:28:02.328125000,-65.0,5.0,4.0,128.2925,23.39,4.6716189375,32.25
2021-07-06 11:28:02.335937500,-65.0,5.0,4.0,128.28375,23.08,4.67113853125,32.25
2021-07-06 11:28:02.343750000,-65.0,5.0,4.0,128.275,22.77,4.670658125,32.25
2021-07-06 11:28:02.351562500,-65.0,5.0,4.0,128.26625,22.46,4.67017771875,32.25
2021-07-06 11:28:02.359375000,-65.0,5.0,4.0,128.2575,22.15,4.6696973125,32.25
2021-07-06 11:28:02.367187500,-65.0,5.0,4.0,128.24875,21.814999999999998,4.66921690625,32.25
2021-07-06 11:28:02.375000000,-65.0,5.0,4.0,128.24,21.48,4.6687365,32.25
2021-07-06 11:28:02.382812500,-65.0,4.75,4.0,128.23125,21.060000000000002,4.66825609375,32.25
2021-07-06 11:28:02.390625000,-65.0,4.5,4.0,128.2225,20.64,4.6677756875,32.25
2021-07-06 11:28:02.398437500,-65.0,4.25,4.0,128.21375,20.11,4.66729528125,32.25
2021-07-06 11:28:02.406250000,-65.0,4.0,4.0,128.205,19.58,4.666814875,32.25
2021-07-06 11:28:02.414062500,-65.0,4.0,4.0,128.19625,18.96,4.666334468750001,32.25
2021-07-06 11:28:02.421875000,-65.0,4.0,4.0,128.1875,18.34,4.6658540625,32.25
2021-07-06 11:28:02.429687500,-65.0,4.0,4.0,128.17875,17.68,4.66537365625,32.25
2021-07-06 11:28:02.437500000,-65.0,4.0,4.0,128.17,17.02,4.66489325,32.25
2021-07-06 11:28:02.445312500,-65.0,4.25,4.0,128.16125,16.365000000000002,4.66441284375,32.25
2021-07-06 11:28:02.453125000,-65.0,4.5,4.0,128.1525,15.71,4.663932437500001,32.25
2021-07-06 11:28:02.460937500,-65.0,4.75,4.0,128.14375,15.05,4.66345203125,32.25
2021-07-06 11:28:02.468750000,-65.0,5.0,4.0,128.135,14.39,4.662971625,32.25
2021-07-06 11:28:02.476562500,-65.0,5.0,4.0,128.12625,13.675,4.6624912187500005,32.25
2021-07-06 11:28:02.484375000,-65.0,5.0,4.0,128.1175,12.96,4.6620108125,32.25
2021-07-06 11:28:02.492187500,-65.0,5.0,4.0,128.10875000000001,12.08,4.661530406250001,32.25
2021-07-06 11:28:02.500000000,-65.0,5.0,4.0,128.1,11.2,4.66105,32.25
2021-07-06 11:28:02.507812500,-65.0,5.0,4.0,128.09125,10.075,4.661210125,32.25
2021-07-06 11:28:02.515625000,-65.0,5.0,4.0,128.0825,8.95,4.66137025,32.25
2021-07-06 11:28:02.523437500,-65.0,5.0,4.0,128.07375,7.555,4.661530375,32.25
2021-07-06 11:28:02.531250000,-65.0,5.0,4.0,128.065,6.16,4.661690500000001,32.25
2021-07-06 11:28:02.539062500,-65.0,5.0,4.0,128.05625,4.555,4.6618506250000005,32.25
2021-07-06 11:28:02.546875000,-65.0,5.0,4.0,128.0475,2.95,4.66201075,32.25
2021-07-06 11:28:02.554687500,-65.0,5.0,4.0,128.03875,1.2750000000000001,4.662170875,32.25
2021-07-06 11:28:02.562500000,-65.0,5.0,4.0,128.03,-0.4,4.662331,32.25
2021-07-06 11:28:02.570312500,-65.0,4.75,4.0,128.02125,-1.9900000000000002,4.662491125,32.25
2021-07-06 11:28:02.578125000,-65.0,4.5,4.0,128.0125,-3.58,4.662651250000001,32.25
2021-07-06 11:28:02.585937500,-65.0,4.25,4.0,128.00375,-5.0,4.662811375,32.25
2021-07-06 11:28:02.593750000,-65.0,4.0,4.0,127.995,-6.42,4.6629715,32.25
2021-07-06 11:28:02.601562500,-65.0,4.25,4.0,127.98625,-7.69,4.663131625,32.25
2021-07-06 11:28:02.609375000,-65.0,4.5,4.0,127.9775,-8.96,4.66329175,32.25
2021-07-06 11:28:02.617187500,-65.0,4.75,4.0,127.96875,-10.195,4.663451875,32.25
2021-07-06 11:28:02.625000000,-65.0,5.0,4.0,127.96000000000001,-11.43,4.6636120000000005,32.25
2021-07-06 11:28:02.632812500,-65.0,4.75,4.0,127.95125,-12.805,4.663772125,32.25
2021-07-06 11:28:02.640625000,-65.0,4.5,4.0,127.94250000000001,-14.18,4.66393225,32.25
2021-07-06 11:28:02.648437500,-65.0,4.25,4.0,127.93375,-15.815,4.664092375,32.25
2021-07-06 11:28:02.656250000,-65.0,4.0,4.0,127.925,-17.45,4.6642525,32.25
2021-07-06 11:28:02.664062500,-65.0,4.0,4.0,127.91625,-19.405,4.664412625,32.25
2021-07-06 11:28:02.671875000,-65.0,4.0,4.0,127.9075,-21.36,4.66457275,32.25
2021-07-06 11:28:02.679687500,-65.0,4.0,4.0,127.89875,-23.61,4.664732875,32.25
2021-07-06 11:28:02.687500000,-65.0,4.0,4.0,127.89,-25.86,4.664893,32.25
2021-07-06 11:28:02.695312500,-65.0,4.0,4.0,127.88125000000001,-28.29,4.665053125,32.25
2021-07-06 11:28:02.703125000,-65.0,4.0,4.0,127.8725,-30.72,4.66521325,32.25
2021-07-06 11:28:02.710937500,-65.0,4.0,4.0,127.86375000000001,-33.15,4.665373375,32.25
2021-07-06 11:28:02.718750000,-65.0,4.0,4.0,127.855,-35.58,4.6655335,32.25
2021-07-06 11:28:02.726562500,-65.0,4.0,4.0,127.84625,-37.76,4.665693625,32.25
2021-07-06 11:28:02.734375000,-65.0,4.0,4.0,127.8375,-39.94,4.66585375,32.25
2021-07-06 11:28:02.742187500,-65.0,4.0,4.0,127.82875,-41.545,4.666013875,32.25
2021-07-06 11:28:02.750000000,-65.0,4.0,4.0,127.82000000000001,-43.15,4.666174,32.25
2021-07-06 11:28:02.757812500,-65.0,4.25,4.0,127.81125,-43.84,4.665893781249999,32.25
2021-07-06 11:28:02.765625000,-65.0,4.5,4.0,127.80250000000001,-44.53,4.6656135625,32.25
2021-07-06 11:28:02.773437500,-65.0,4.75,4.0,127.79375,-44.065,4.6653333437499995,32.25
2021-07-06 11:28:02.781250000,-65.0,5.0,4.0,127.78500000000001,-43.6,4.665053125,32.25
2021-07-06 11:28:02.789062500,-65.0,4.75,4.0,127.77625,-41.894999999999996,4.66477290625,32.25
2021-07-06 11:28:02.796875000,-65.0,4.5,4.0,127.7675,-40.19,4.6644926875,32.25
2021-07-06 11:28:02.804687500,-65.0,4.25,4.0,127.75875,-37.394999999999996,4.66421246875,32.25
2021-07-06 11:28:02.812500000,-65.0,4.0,4.0,127.75,-34.6,4.66393225,32.25
2021-07-06 11:28:02.820312500,-65.0,4.0,4.0,127.74125000000001,-31.04,4.66365203125,32.25
2021-07-06 11:28:02.828125000,-65.0,4.0,4.0,127.7325,-27.48,4.663371812499999,32.25
2021-07-06 11:28:02.835937500,-65.0,4.0,4.0,127.72375000000001,-23.595,4.66309159375,32.25
2021-07-06 11:28:02.843750000,-65.0,4.0,4.0,127.715,-19.71,4.6628113749999995,32.25
2021-07-06 11:28:02.851562500,-65.0,4.25,4.0,127.70625000000001,-15.91,4.66253115625,32.25
2021-07-06 11:28:02.859375000,-65.0,4.5,4.0,127.6975,-12.11,4.6622509375,32.25
2021-07-06 11:28:02.867187500,-65.0,4.75,4.0,127.68875,-8.67,4.66197071875,32.25
2021-07-06 11:28:02.875000000,-65.0,5.0,4.0,127.68,-5.23,4.6616905,32.25
2021-07-06 11:28:02.882812500,-65.0,5.0,4.0,127.67125,-2.2600000000000002,4.661410281249999,32.25
2021-07-06 11:28:02.890625000,-65.0,5.0,4.0,127.66250000000001,0.71,4.6611300625,32.25
2021-07-06 11:28:02.898437500,-65.0,5.0,4.0,127.65375,3.23,4.660849843749999,32.25
2021-07-06 11:28:02.906250000,-65.0,5.0,4.0,127.64500000000001,5.75,4.660569625,32.25
2021-07-06 11:28:02.914062500,-65.0,5.0,4.0,127.63625,7.885,4.6602894062499995,32.25
2021-07-06 11:28:02.921875000,-65.0,5.0,4.0,127.62750000000001,10.02,4.6600091875,32.25
2021-07-06 11:28:02.929687500,-65.0,5.0,4.0,127.61875,11.815,4.65972896875,32.25
2021-07-06 11:28:02.937500000,-65.0,5.0,4.0,127.61,13.61,4.659448749999999,32.25
2021-07-06 11:28:02.945312500,-65.0,5.0,4.0,127.60125000000001,15.09,4.65916853125,32.25
2021-07-06 11:28:02.953125000,-65.0,5.0,4.0,127.5925,16.57,4.658888312499999,32.25
2021-07-06 11:28:02.960937500,-65.0,5.0,4.0,127.58375000000001,17.735,4.65860809375,32.25
2021-07-06 11:28:02.968750000,-65.0,5.0,4.0,127.575,18.9,4.6583278749999995,32.25
2021-07-06 11:28:02.976562500,-65.0,4.75,4.0,127.56625000000001,19.77,4.65804765625,32.25
2021-07-06 11:28:02.984375000,-65.0,4.5,4.0,127.5575,20.64,4.6577674374999996,32.25
2021-07-06 11:28:02.992187500,-65.0,4.25,4.0,127.54875000000001,21.245,4.65748721875,32.25
2021-07-06 11:28:03.000000000,-65.0,4.0,4.0,127.54,21.85,4.657207,32.25
2021-07-06 11:28:03.007812500,-65.0,4.0,4.0,127.53164062500001,22.275,4.657126906249999,32.250625
2021-07-06 11:28:03.015625000,-65.0,4.0,4.0,127.52328125000001,22.7,4.6570468125,32.25125
2021-07-06 11:28:03.023437500,-65.0,4.0,4.0,127.51492187500001,23.005,4.65696671875,32.251875
2021-07-06 11:28:03.031250000,-65.0,4.0,4.0,127.5065625,23.31,4.656886624999999,32.2525
2021-07-06 11:28:03.039062500,-65.0,4.0,4.0,127.498203125,23.56,4.65680653125,32.253125
2021-07-06 11:28:03.046875000,-65.0,4.0,4.0,127.48984375,23.81,4.6567264375,32.253750000000004
2021-07-06 11:28:03.054687500,-65.0,4.0,4.0,127.48148437500001,24.0,4.656646343749999,32.254375
2021-07-06 11:28:03.062500000,-65.0,4.0,4.0,127.47312500000001,24.19,4.65656625,32.255
2021-07-06 11:28:03.070312500,-65.0,4.0,4.0,127.46476562500001,24.29,4.65648615625,32.255625
2021-07-06 11:28:03.078125000,-65.0,4.0,4.0,127.45640625,24.39,4.656406062499999,32.25625
2021-07-06 11:28:03.085937500,-65.0,4.0,4.0,127.448046875,24.345,4.65632596875,32.256875
2021-07-06 11:28:03.093750000,-65.0,4.0,4.0,127.4396875,24.3,4.656245875,32.2575
2021-07-06 11:28:03.101562500,-65.0,4.0,4.0,127.43132812500001,24.085,4.6561657812499995,32.258125
2021-07-06 11:28:03.109375000,-65.0,4.0,4.0,127.42296875000001,23.87,4.6560856875,32.25875
2021-07-06 11:28:03.117187500,-65.0,4.0,4.0,127.41460937500001,23.490000000000002,4.65600559375,32.259375
2021-07-06 11:28:03.125000000,-65.0,4.0,4.0,127.40625,23.11,4.6559255,32.260000000000005
2021-07-06 11:28:03.132812500,-65.0,4.0,4.0,127.397890625,22.59,4.65584540625,32.260625000000005
2021-07-06 11:28:03.140625000,-65.0,4.0,4.0,127.38953125,22.07,4.6557653125,32.261250000000004
2021-07-06 11:28:03.148437500,-65.0,4.0,4.0,127.381171875,21.46,4.65568521875,32.261875
2021-07-06 11:28:03.156250000,-65.0,4.0,4.0,127.37281250000001,20.85,4.655605125,32.2625
2021-07-06 11:28:03.164062500,-65.0,4.25,4.0,127.36445312500001,20.200000000000003,4.65552503125,32.263125
2021-07-06 11:28:03.171875000,-65.0,4.5,4.0,127.35609375,19.55,4.6554449375,32.26375
2021-07-06 11:28:03.179687500,-65.0,4.75,4.0,127.347734375,18.875,4.65536484375,32.264375
2021-07-06 11:28:03.187500000,-65.0,5.0,4.0,127.339375,18.2,4.65528475,32.265
2021-07-06 11:28:03.195312500,-65.0,4.75,4.0,127.331015625,17.525,4.6552046562500005,32.265625
2021-07-06 11:28:03.203125000,-65.0,4.5,4.0,127.32265625000001,16.85,4.6551245625,32.26625
2021-07-06 11:28:03.210937500,-65.0,4.25,4.0,127.31429687500001,16.165,4.65504446875,32.266875000000006
2021-07-06 11:28:03.218750000,-65.0,4.0,4.0,127.3059375,15.48,4.6549643750000005,32.267500000000005
2021-07-06 11:28:03.226562500,-65.0,4.0,4.0,127.297578125,14.754999999999999,4.65488428125,32.268125000000005
2021-07-06 11:28:03.234375000,-65.0,4.0,4.0,127.28921875,14.03,4.6548041875,32.268750000000004
2021-07-06 11:28:03.242187500,-65.0,4.0,4.0,127.280859375,13.2,4.6547240937500005,32.269375000000004
2021-07-06 11:28:03.250000000,-65.0,4.0,4.0,127.27250000000001,12.37,4.654644,32.27
2021-07-06 11:28:03.257812500,-65.0,4.25,4.0,127.26414062500001,11.36,4.6545639375,32.27
2021-07-06 11:28:03.265625000,-65.0,4.5,4.0,127.25578125,10.35,4.654483875,32.27
2021-07-06 11:28:03.273437500,-65.0,4.75,4.0,127.247421875,9.094999999999999,4.6544038125,32.27
2021-07-06 11:28:03.281250000,-65.0,5.0,4.0,127.2390625,7.84,4.6543237500000005,32.27
2021-07-06 11:28:03.289062500,-65.0,4.75,4.0,127.230703125,6.33,4.6542436875,32.27
2021-07-06 11:28:03.296875000,-65.0,4.5,4.0,127.22234375000001,4.82,4.654163625,32.27
2021-07-06 11:28:03.304687500,-65.0,4.25,4.0,127.21398437500001,3.115,4.6540835625,32.27
2021-07-06 11:28:03.312500000,-65.0,4.0,4.0,127.205625,1.41,4.6540035,32.27
2021-07-06 11:28:03.320312500,-65.0,4.0,4.0,127.197265625,-0.365,4.6539234375000005,32.27
2021-07-06 11:28:03.328125000,-65.0,4.0,4.0,127.18890625,-2.14,4.653843375,32.27
2021-07-06 11:28:03.335937500,-65.0,4.0,4.0,127.180546875,-3.8449999999999998,4.6537633125,32.27
2021-07-06 11:28:03.343750000,-65.0,4.0,4.0,127.1721875,-5.55,4.65368325,32.27
2021-07-06 11:28:03.351562500,-65.0,4.25,4.0,127.16382812500001,-7.0600000000000005,4.6536031875,32.27
2021-07-06 11:28:03.359375000,-65.0,4.5,4.0,127.15546875,-8.57,4.653523125,32.27
2021-07-06 11:28:03.367187500,-65.0,4.75,4.0,127.147109375,-9.870000000000001,4.6534430625,32.27
2021-07-06 11:28:03.375000000,-65.0,5.0,4.0,127.13875,-11.17,4.653363000000001,32.27
2021-07-06 11:28:03.382812500,-65.0,4.75,4.0,127.130390625,-12.309999999999999,4.6532829375,32.27
2021-07-06 11:28:03.390625000,-65.0,4.5,4.0,127.12203125,-13.45,4.653202875,32.27
2021-07-06 11:28:03.398437500,-65.0,4.25,4.0,127.11367187500001,-14.555,4.6531228125,32.27
2021-07-06 11:28:03.406250000,-65.0,4.0,4.0,127.1053125,-15.66,4.65304275,32.27
2021-07-06 11:28:03.414062500,-65.0,4.25,4.0,127.096953125,-16.884999999999998,4.6529626875000005,32.27
2021-07-06 11:28:03.421875000,-65.0,4.5,4.0,127.08859375,-18.11,4.652882625,32.27
2021-07-06 11:28:03.429687500,-65.0,4.75,4.0,127.080234375,-19.59,4.6528025625,32.27
2021-07-06 11:28:03.437500000,-65.0,5.0,4.0,127.071875,-21.07,4.6527225,32.27
2021-07-06 11:28:03.445312500,-65.0,4.75,4.0,127.06351562500001,-22.884999999999998,4.6526424375,32.27
2021-07-06 11:28:03.453125000,-65.0,4.5,4.0,127.05515625,-24.7,4.6525623750000005,32.27
2021-07-06 11:28:03.460937500,-65.0,4.25,4.0,127.046796875,-26.845,4.6524823125,32.27
2021-07-06 11:28:03.468750000,-65.0,4.0,4.0,127.0384375,-28.99,4.65240225,32.27
2021-07-06 11:28:03.476562500,-65.0,4.0,4.0,127.030078125,-31.324999999999996,4.6523221875,32.27
2021-07-06 11:28:03.484375000,-65.0,4.0,4.0,127.02171875,-33.66,4.652242125,32.27
2021-07-06 11:28:03.492187500,-65.0,4.0,4.0,127.01335937500001,-35.95,4.6521620625,32.27
2021-07-06 11:28:03.500000000,-65.0,4.0,4.0,127.005,-38.24,4.652082,32.27
2021-07-06 11:28:03.507812500,-65.0,4.0,4.0,126.996640625,-40.125,4.651921875,32.27
2021-07-06 11:28:03.515625000,-65.0,4.0,4.0,126.98828125,-42.01,4.65176175,32.27
2021-07-06 11:28:03.523437500,-65.0,4.0,4.0,126.979921875,-43.129999999999995,4.651601625,32.27
2021-07-06 11:28:03.531250000,-65.0,4.0,4.0,126.9715625,-44.25,4.6514415,32.27
2021-07-06 11:28:03.539062500,-65.0,4.0,4.0,126.963203125,-44.28,4.651281375,32.27
2021-07-06 11:28:03.546875000,-65.0,4.0,4.0,126.95484375000001,-44.31,4.65112125,32.27
2021-07-06 11:28:03.554687500,-65.0,4.0,4.0,126.946484375,-43.085,4.650961125,32.27
2021-07-06 11:28:03.562500000,-65.0,4.0,4.0,126.938125,-41.86,4.6508009999999995,32.27
2021-07-06 11:28:03.570312500,-65.0,4.0,4.0,126.929765625,-39.415,4.650640875,32.27
2021-07-06 11:28:03.578125000,-65.0,4.0,4.0,126.92140625,-36.97,4.65048075,32.27
2021-07-06 11:28:03.585937500,-65.0,4.0,4.0,126.913046875,-33.555,4.650320625,32.27
2021-07-06 11:28:03.593750000,-65.0,4.0,4.0,126.90468750000001,-30.14,4.6501605,32.27
2021-07-06 11:28:03.601562500,-65.0,4.25,4.0,126.896328125,-26.175,4.650000375,32.27
2021-07-06 11:28:03.609375000,-65.0,4.5,4.0,126.88796875,-22.21,4.64984025,32.27
2021-07-06 11:28:03.617187500,-65.0,4.75,4.0,126.879609375,-18.165,4.649680125,32.27
2021-07-06 11:28:03.625000000,-65.0,5.0,4.0,126.87125,-14.12,4.64952,32.27
2021-07-06 11:28:03.632812500,-65.0,4.75,4.0,126.862890625,-10.42,4.649359875,32.27
2021-07-06 11:28:03.640625000,-65.0,4.5,4.0,126.85453125000001,-6.72,4.64919975,32.27
2021-07-06 11:28:03.648437500,-65.0,4.25,4.0,126.846171875,-3.625,4.6490396249999995,32.27
2021-07-06 11:28:03.656250000,-65.0,4.0,4.0,126.8378125,-0.53,4.6488795,32.27
2021-07-06 11:28:03.664062500,-65.0,4.0,4.0,126.829453125,1.885,4.648719375,32.27
2021-07-06 11:28:03.671875000,-65.0,4.0,4.0,126.82109375,4.3,4.64855925,32.27
2021-07-06 11:28:03.679687500,-65.0,4.0,4.0,126.812734375,6.095,4.648399125,32.27
2021-07-06 11:28:03.687500000,-65.0,4.0,4.0,126.80437500000001,7.89,4.648239,32.27
2021-07-06 11:28:03.695312500,-65.0,4.25,4.0,126.796015625,9.209999999999999,4.6480788749999995,32.27
2021-07-06 11:28:03.703125000,-65.0,4.5,4.0,126.78765625,10.53,4.64791875,32.27
2021-07-06 11:28:03.710937500,-65.0,4.75,4.0,126.779296875,11.475,4.647758625,32.27
2021-07-06 11:28:03.718750000,-65.0,5.0,4.0,126.7709375,12.42,4.6475985,32.27
2021-07-06 11:28:03.726562500,-65.0,5.0,4.0,126.762578125,13.059999999999999,4.647438375,32.27
2021-07-06 11:28:03.734375000,-65.0,5.0,4.0,126.75421875,13.7,4.647278249999999,32.27
2021-07-06 11:28:03.742187500,-65.0,5.0,4.0,126.745859375,14.055,4.6471181249999995,32.27
2021-07-06 11:28:03.750000000,-65.0,5.0,4.0,126.7375,14.41,4.646958,32.27
2021-07-06 11:28:03.757812500,-65.0,4.75,4.0,126.729140625,14.525,4.64683790625,32.27
2021-07-06 11:28:03.765625000,-65.0,4.5,4.0,126.72078125,14.64,4.6467178124999995,32.27
2021-07-06 11:28:03.773437500,-65.0,4.25,4.0,126.712421875,14.64,4.64659771875,32.27
2021-07-06 11:28:03.781250000,-65.0,4.0,4.0,126.7040625,14.64,4.646477624999999,32.27
2021-07-06 11:28:03.789062500,-65.0,4.0,4.0,126.695703125,14.675,4.64635753125,32.27
2021-07-06 11:28:03.796875000,-65.0,4.0,4.0,126.68734375,14.71,4.6462374375,32.27
2021-07-06 11:28:03.804687500,-65.0,4.0,4.0,126.678984375,14.945,4.646117343749999,32.27
2021-07-06 11:28:03.812500000,-65.0,4.0,4.0,126.670625,15.18,4.64599725,32.27
2021-07-06 11:28:03.820312500,-65.0,4.25,4.0,126.662265625,15.645,4.64587715625,32.27
2021-07-06 11:28:03.828125000,-65.0,4.5,4.0,126.65390625,16.11,4.6457570624999995,32.27
2021-07-06 11:28:03.835937500,-65.0,4.75,4.0,126.645546875,16.73,4.64563696875,32.27
2021-07-06 11:28:03.843750000,-65.0,5.0,4.0,126.6371875,17.35,4.645516875,32.27
2021-07-06 11:28:03.851562500,-65.0,5.0,4.0,126.628828125,17.94,4.64539678125,32.27
2021-07-06 11:28:03.859375000,-65.0,5.0,4.0,126.62046875,18.53,4.6452766875,32.27
2021-07-06 11:28:03.867187500,-65.0,5.0,4.0,126.612109375,18.895000000000003,4.6451565937499995,32.27
2021-07-06 11:28:03.875000000,-65.0,5.0,4.0,126.60375,19.26,4.6450365,32.27
2021-07-06 11:28:03.882812500,-65.0,4.75,4.0,126.595390625,19.295,4.64491640625,32.27
2021-07-06 11:28:03.890625000,-65.0,4.5,4.0,126.58703125,19.33,4.6447963125,32.27
2021-07-06 11:28:03.898437500,-65.0,4.25,4.0,126.578671875,19.049999999999997,4.64467621875,32.27
2021-07-06 11:28:03.906250000,-65.0,4.0,4.0,126.5703125,18.77,4.644556124999999,32.27
2021-07-06 11:28:03.914062500,-65.0,4.0,4.0,126.561953125,18.29,4.64443603125,32.27
2021-07-06 11:28:03.921875000,-65.0,4.0,4.0,126.55359375,17.81,4.6443159375,32.27
2021-07-06 11:28:03.929687500,-65.0,4.0,4.0,126.54523437499999,17.255,4.6441958437499995,32.27
2021-07-06 11:28:03.937500000,-65.0,4.0,4.0,126.536875,16.7,4.64407575,32.27
2021-07-06 11:28:03.945312500,-65.0,4.0,4.0,126.528515625,16.125,4.64395565625,32.27
2021-07-06 11:28:03.953125000,-65.0,4.0,4.0,126.52015625,15.55,4.6438355625,32.27
2021-07-06 11:28:03.960937500,-65.0,4.0,4.0,126.511796875,14.935,4.64371546875,32.27
2021-07-06 11:28:03.968750000,-65.0,4.0,4.0,126.5034375,14.32,4.643595375,32.27
2021-07-06 11:28:03.976562500,-65.0,4.25,4.0,126.49507812499999,13.555,4.64347528125,32.27
2021-07-06 11:28:03.984375000,-65.0,4.5,4.0,126.48671875,12.79,4.6433551875,32.27
2021-07-06 11:28:03.992187500,-65.0,4.75,4.0,126.478359375,11.79,4.6432350937499995,32.27
2021-07-06 11:28:04.000000000,-65.0,5.0,4.0,126.47,10.79,4.643115,32.27
2021-07-06 11:28:04.007812500,-65.0,5.0,4.25,126.462109375,9.504999999999999,4.64279471875,32.268750000000004
2021-07-06 11:28:04.015625000,-65.0,5.0,4.5,126.45421875,8.22,4.6424744375,32.267500000000005
2021-07-06 11:28:04.023437500,-65.0,5.0,4.75,126.446328125,6.705,4.64215415625,32.26625
2021-07-06 11:28:04.031250000,-65.0,5.0,5.0,126.43843749999999,5.19,4.641833875,32.265
2021-07-06 11:28:04.039062500,-65.0,5.0,4.75,126.430546875,3.575,4.64151359375,32.26375
2021-07-06 11:28:04.046875000,-65.0,5.0,4.5,126.42265625,1.96,4.6411933125,32.2625
2021-07-06 11:28:04.054687500,-65.0,5.0,4.25,126.414765625,0.365,4.64087303125,32.261250000000004
2021-07-06 11:28:04.062500000,-65.0,5.0,4.0,126.406875,-1.23,4.6405527499999994,32.260000000000005
2021-07-06 11:28:04.070312500,-65.0,4.75,4.25,126.398984375,-2.7350000000000003,4.64023246875,32.25875
2021-07-06 11:28:04.078125000,-65.0,4.5,4.5,126.39109375,-4.24,4.6399121875,32.2575
2021-07-06 11:28:04.085937500,-65.0,4.25,4.75,126.383203125,-5.65,4.63959190625,32.25625
2021-07-06 11:28:04.093750000,-65.0,4.0,5.0,126.37531249999999,-7.06,4.639271625,32.255
2021-07-06 11:28:04.101562500,-65.0,4.25,5.0,126.367421875,-8.459999999999999,4.63895134375,32.253750000000004
2021-07-06 11:28:04.109375000,-65.0,4.5,5.0,126.35953125,-9.86,4.6386310625,32.2525
2021-07-06 11:28:04.117187500,-65.0,4.75,5.0,126.351640625,-11.34,4.6383107812499995,32.25125
2021-07-06 11:28:04.125000000,-65.0,5.0,5.0,126.34375,-12.82,4.6379905,32.25
2021-07-06 11:28:04.132812500,-65.0,5.0,5.0,126.335859375,-14.435,4.63767021875,32.24875
2021-07-06 11:28:04.140625000,-65.0,5.0,5.0,126.32796875,-16.05,4.6373499375,32.2475
2021-07-06 11:28:04.148437500,-65.0,5.0,5.0,126.320078125,-17.805,4.63702965625,32.246249999999996
2021-07-06 11:28:04.156250000,-65.0,5.0,5.0,126.3121875,-19.56,4.636709375,32.245
2021-07-06 11:28:04.164062500,-65.0,4.75,5.0,126.30429687499999,-21.41,4.63638909375,32.24375
2021-07-06 11:28:04.171875000,-65.0,4.5,5.0,126.29640625,-23.26,4.6360688125,32.2425
2021-07-06 11:28:04.179687500,-65.0,4.25,5.0,126.288515625,-25.14,4.63574853125,32.24125
2021-07-06 11:28:04.187500000,-65.0,4.0,5.0,126.280625,-27.02,4.63542825,32.239999999999995
2021-07-06 11:28:04.195312500,-65.0,4.25,4.75,126.272734375,-28.82,4.63510796875,32.238749999999996
2021-07-06 11:28:04.203125000,-65.0,4.5,4.5,126.26484375,-30.62,4.6347876875,32.2375
2021-07-06 11:28:04.210937500,-65.0,4.75,4.25,126.256953125,-32.2,4.63446740625,32.23625
2021-07-06 11:28:04.218750000,-65.0,5.0,4.0,126.2490625,-33.78,4.634147125,32.235
2021-07-06 11:28:04.226562500,-65.0,5.0,4.25,126.24117187499999,-34.91,4.63382684375,32.23375
2021-07-06 11:28:04.234375000,-65.0,5.0,4.5,126.23328125,-36.04,4.6335065625,32.232499999999995
2021-07-06 11:28:04.242187500,-65.0,5.0,4.75,126.225390625,-36.455,4.6331862812499995,32.231249999999996
2021-07-06 11:28:04.250000000,-65.0,5.0,5.0,126.2175,-36.87,4.632866,32.23
2021-07-06 11:28:04.257812500,-65.0,5.0,5.0,126.209609375,-36.33,4.63274590625,32.23
2021-07-06 11:28:04.265625000,-65.0,5.0,5.0,126.20171875,-35.79,4.6326258125,32.23
2021-07-06 11:28:04.273437500,-65.0,5.0,5.0,126.193828125,-34.17,4.63250571875,32.23
2021-07-06 11:28:04.281250000,-65.0,5.0,5.0,126.1859375,-32.55,4.6323856249999995,32.23
2021-07-06 11:28:04.289062500,-65.0,4.75,5.0,126.17804687499999,-29.945,4.63226553125,32.23
2021-07-06 11:28:04.296875000,-65.0,4.5,5.0,126.17015624999999,-27.34,4.6321454375,32.23
2021-07-06 11:28:04.304687500,-65.0,4.25,5.0,126.162265625,-24.015,4.63202534375,32.23
2021-07-06 11:28:04.312500000,-65.0,4.0,5.0,126.154375,-20.69,4.63190525,32.23
2021-07-06 11:28:04.320312500,-65.0,4.0,5.0,126.146484375,-17.035,4.63178515625,32.23
2021-07-06 11:28:04.328125000,-65.0,4.0,5.0,126.13859375,-13.38,4.6316650625,32.23
2021-07-06 11:28:04.335937500,-65.0,4.0,5.0,126.130703125,-9.75,4.63154496875,32.23
2021-07-06 11:28:04.343750000,-65.0,4.0,5.0,126.1228125,-6.12,4.631424875,32.23
2021-07-06 11:28:04.351562500,-65.0,4.25,5.0,126.114921875,-2.79,4.63130478125,32.23
2021-07-06 11:28:04.359375000,-65.0,4.5,5.0,126.10703124999999,0.54,4.6311846875,32.23
2021-07-06 11:28:04.367187500,-65.0,4.75,5.0,126.099140625,3.45,4.63106459375,32.23
2021-07-06 11:28:04.375000000,-65.0,5.0,5.0,126.09125,6.36,4.6309445,32.23
2021-07-06 11:28:04.382812500,-65.0,5.0,5.0,126.083359375,8.785,4.63082440625,32.23
2021-07-06 11:28:04.390625000,-65.0,5.0,5.0,126.07546875,11.21,4.6307043125,32.23
2021-07-06 11:28:04.398437500,-65.0,5.0,5.0,126.067578125,13.13,4.63058421875,32.23
2021-07-06 11:28:04.406250000,-65.0,5.0,5.0,126.0596875,15.05,4.630464125,32.23
2021-07-06 11:28:04.414062500,-65.0,4.75,5.0,126.051796875,16.43,4.63034403125,32.23
2021-07-06 11:28:04.421875000,-65.0,4.5,5.0,126.04390624999999,17.81,4.6302239375,32.23
2021-07-06 11:28:04.429687500,-65.0,4.25,5.0,126.03601562499999,18.61,4.63010384375,32.23
2021-07-06 11:28:04.437500000,-65.0,4.0,5.0,126.028125,19.41,4.62998375,32.23
2021-07-06 11:28:04.445312500,-65.0,4.0,5.0,126.020234375,19.68,4.62986365625,32.23
2021-07-06 11:28:04.453125000,-65.0,4.0,5.0,126.01234375,19.95,4.6297435625,32.23
2021-07-06 11:28:04.460937500,-65.0,4.0,5.0,126.004453125,19.805,4.62962346875,32.23
2021-07-06 11:28:04.468750000,-65.0,4.0,5.0,125.9965625,19.66,4.6295033750000005,32.23
2021-07-06 11:28:04.476562500,-65.0,4.25,5.0,125.988671875,19.32,4.62938328125,32.23
2021-07-06 11:28:04.484375000,-65.0,4.5,5.0,125.98078124999999,18.98,4.6292631875,32.23
2021-07-06 11:28:04.492187500,-65.0,4.75,5.0,125.97289062499999,18.675,4.62914309375,32.23
2021-07-06 11:28:04.500000000,-65.0,5.0,5.0,125.965,18.37,4.629023,32.23
2021-07-06 11:28:04.507812500,-65.0,5.0,5.0,125.957109375,18.285,4.62874275,32.23
2021-07-06 11:28:04.515625000,-65.0,5.0,5.0,125.94921875,18.2,4.6284625,32.23
2021-07-06 11:28:04.523437500,-65.0,5.0,5.0,125.941328125,18.369999999999997,4.62818225,32.23
2021-07-06 11:28:04.531250000,-65.0,5.0,5.0,125.9334375,18.54,4.627902,32.23
2021-07-06 11:28:04.539062500,-65.0,5.0,5.0,125.925546875,18.88,4.62762175,32.23
2021-07-06 11:28:04.546875000,-65.0,5.0,5.0,125.91765625,19.22,4.6273415,32.23
2021-07-06 11:28:04.554687500,-65.0,5.0,5.0,125.90976562499999,19.535,4.62706125,32.23
2021-07-06 11:28:04.562500000,-65.0,5.0,5.0,125.90187499999999,19.85,4.626781,32.23
2021-07-06 11:28:04.570312500,-65.0,5.0,5.0,125.893984375,19.945,4.62650075,32.23
2021-07-06 11:28:04.578125000,-65.0,5.0,5.0,125.88609375,20.04,4.6262205,32.23
2021-07-06 11:28:04.585937500,-65.0,5.0,5.0,125.878203125,19.81,4.62594025,32.23
2021-07-06 11:28:04.593750000,-65.0,5.0,5.0,125.8703125,19.58,4.62566,32.23
2021-07-06 11:28:04.601562500,-65.0,5.0,5.0,125.862421875,19.025,4.62537975,32.23
2021-07-06 11:28:04.609375000,-65.0,5.0,5.0,125.85453125,18.47,4.6250995,32.23
2021-07-06 11:28:04.617187500,-65.0,5.0,5.0,125.84664062499999,17.715,4.62481925,32.23
2021-07-06 11:28:04.625000000,-65.0,5.0,5.0,125.83874999999999,16.96,4.624539,32.23
2021-07-06 11:28:04.632812500,-65.0,5.0,5.0,125.83085937499999,16.135,4.62425875,32.23
2021-07-06 11:28:04.640625000,-65.0,5.0,5.0,125.82296875,15.31,4.6239785,32.23
2021-07-06 11:28:04.648437500,-65.0,5.0,5.0,125.815078125,14.515,4.62369825,32.23
2021-07-06 11:28:04.656250000,-65.0,5.0,5.0,125.8071875,13.72,4.623418,32.23
2021-07-06 11:28:04.664062500,-65.0,5.0,5.0,125.799296875,12.945,4.62313775,32.23
2021-07-06 11:28:04.671875000,-65.0,5.0,5.0,125.79140625,12.17,4.6228575,32.23
2021-07-06 11:28:04.679687500,-65.0,5.0,5.0,125.78351562499999,11.344999999999999,4.62257725,32.23
2021-07-06 11:28:04.687500000,-65.0,5.0,5.0,125.77562499999999,10.52,4.622297,32.23
2021-07-06 11:28:04.695312500,-65.0,4.75,5.0,125.76773437499999,9.585,4.62201675,32.23
2021-07-06 11:28:04.703125000,-65.0,4.5,5.0,125.75984375,8.65,4.6217365,32.23
2021-07-06 11:28:04.710937500,-65.0,4.25,5.0,125.751953125,7.555,4.62145625,32.23
2021-07-06 11:28:04.718750000,-65.0,4.0,5.0,125.7440625,6.46,4.621176,32.23
2021-07-06 11:28:04.726562500,-65.0,4.25,5.0,125.736171875,5.255,4.62089575,32.23
2021-07-06 11:28:04.734375000,-65.0,4.5,5.0,125.72828125,4.05,4.6206154999999995,32.23
2021-07-06 11:28:04.742187500,-65.0,4.75,5.0,125.720390625,2.78,4.62033525,32.23
2021-07-06 11:28:04.750000000,-65.0,5.0,5.0,125.71249999999999,1.51,4.620055,32.23
2021-07-06 11:28:04.757812500,-65.0,5.0,5.0,125.70460937499999,0.21999999999999997,4.620495375,32.23
2021-07-06 11:28:04.765625000,-65.0,5.0,5.0,125.69671874999999,-1.07,4.62093575,32.23
2021-07-06 11:28:04.773437500,-65.0,5.0,5.0,125.688828125,-2.4000000000000004,4.621376124999999,32.23
2021-07-06 11:28:04.781250000,-65.0,5.0,5.0,125.6809375,-3.73,4.6218164999999996,32.23
2021-07-06 11:28:04.789062500,-65.0,4.75,5.0,125.673046875,-5.17,4.622256875,32.23
2021-07-06 11:28:04.796875000,-65.0,4.5,5.0,125.66515625,-6.61,4.62269725,32.23
2021-07-06 11:28:04.804687500,-65.0,4.25,5.0,125.657265625,-8.275,4.623137625,32.23
2021-07-06 11:28:04.812500000,-65.0,4.0,5.0,125.64937499999999,-9.94,4.623578,32.23
2021-07-06 11:28:04.820312500,-65.0,4.25,5.0,125.64148437499999,-11.91,4.6240183749999995,32.23
2021-07-06 11:28:04.828125000,-65.0,4.5,5.0,125.63359374999999,-13.88,4.62445875,32.23
2021-07-06 11:28:04.835937500,-65.0,4.75,5.0,125.625703125,-16.18,4.624899125,32.23
2021-07-06 11:28:04.843750000,-65.0,5.0,5.0,125.6178125,-18.48,4.6253395,32.23
2021-07-06 11:28:04.851562500,-65.0,5.0,5.0,125.609921875,-21.03,4.625779875,32.23
2021-07-06 11:28:04.859375000,-65.0,5.0,5.0,125.60203125,-23.58,4.626220249999999,32.23
2021-07-06 11:28:04.867187500,-65.0,5.0,5.0,125.594140625,-26.229999999999997,4.6266606249999995,32.23
2021-07-06 11:28:04.875000000,-65.0,5.0,5.0,125.58624999999999,-28.88,4.627101,32.23
2021-07-06 11:28:04.882812500,-65.0,5.0,5.0,125.57835937499999,-31.375,4.627541375,32.23
2021-07-06 11:28:04.890625000,-65.0,5.0,5.0,125.57046874999999,-33.87,4.62798175,32.23
2021-07-06 11:28:04.898437500,-65.0,5.0,5.0,125.56257812499999,-35.905,4.628422124999999,32.23
2021-07-06 11:28:04.906250000,-65.0,5.0,5.0,125.5546875,-37.94,4.628862499999999,32.23
2021-07-06 11:28:04.914062500,-65.0,5.0,5.0,125.546796875,-39.195,4.629302875,32.23
2021-07-06 11:28:04.921875000,-65.0,5.0,5.0,125.53890625,-40.45,4.62974325,32.23
2021-07-06 11:28:04.929687500,-65.0,5.0,5.0,125.531015625,-40.67,4.630183625,32.23
2021-07-06 11:28:04.937500000,-65.0,5.0,5.0,125.523125,-40.89,4.630623999999999,32.23
2021-07-06 11:28:04.945312500,-65.0,4.75,5.0,125.51523437499999,-39.93,4.631064374999999,32.23
2021-07-06 11:28:04.953125000,-65.0,4.5,5.0,125.50734374999999,-38.97,4.6315047499999995,32.23
2021-07-06 11:28:04.960937500,-65.0,4.25,5.0,125.49945312499999,-36.879999999999995,4.631945125,32.23
2021-07-06 11:28:04.968750000,-65.0,4.0,5.0,125.4915625,-34.79,4.6323855,32.23
2021-07-06 11:28:04.976562500,-65.0,4.25,5.0,125.483671875,-31.799999999999997,4.632825875,32.23
2021-07-06 11:28:04.984375000,-65.0,4.5,5.0,125.47578125,-28.81,4.633266249999999,32.23
2021-07-06 11:28:04.992187500,-65.0,4.75,5.0,125.467890625,-25.27,4.633706624999999,32.23
2021-07-06 11:28:05.000000000,-65.0,5.0,5.0,125.46,-21.73,4.634147,32.23
2021-07-06 11:28:05.007812500,-65.0,5.0,5.0,125.4525,-18.02,4.633866749999999,32.230624999999996
2021-07-06 11:28:05.015625000,-65.0,5.0,5.0,125.445,-14.31,4.6335865,32.231249999999996
2021-07-06 11:28:05.023437500,-65.0,5.0,5.0,125.4375,-10.755,4.6333062499999995,32.231874999999995
2021-07-06 11:28:05.031250000,-65.0,5.0,5.0,125.42999999999999,-7.2,4.633025999999999,32.232499999999995
2021-07-06 11:28:05.039062500,-65.0,5.0,5.0,125.4225,-4.005,4.63274575,32.233124999999994
2021-07-06 11:28:05.046875000,-65.0,5.0,5.0,125.41499999999999,-0.81,4.6324654999999995,32.23375
2021-07-06 11:28:05.054687500,-65.0,5.0,5.0,125.4075,1.935,4.63218525,32.234375
2021-07-06 11:28:05.062500000,-65.0,5.0,5.0,125.39999999999999,4.68,4.631905,32.235
2021-07-06 11:28:05.070312500,-65.0,5.0,5.0,125.3925,6.995,4.631624749999999,32.235625
2021-07-06 11:28:05.078125000,-65.0,5.0,5.0,125.38499999999999,9.31,4.6313445,32.23625
2021-07-06 11:28:05.085937500,-65.0,5.0,5.0,125.3775,11.23,4.63106425,32.236875
2021-07-06 11:28:05.093750000,-65.0,5.0,5.0,125.36999999999999,13.15,4.630784,32.2375
2021-07-06 11:28:05.101562500,-65.0,5.0,5.0,125.3625,14.715,4.63050375,32.238125
2021-07-06 11:28:05.109375000,-65.0,5.0,5.0,125.35499999999999,16.28,4.6302235,32.238749999999996
2021-07-06 11:28:05.117187500,-65.0,5.0,5.0,125.3475,17.495,4.62994325,32.239374999999995
2021-07-06 11:28:05.125000000,-65.0,5.0,5.0,125.33999999999999,18.71,4.629663,32.239999999999995
2021-07-06 11:28:05.132812500,-65.0,4.75,5.0,125.3325,19.55,4.6293827499999995,32.240625
2021-07-06 11:28:05.140625000,-65.0,4.5,5.0,125.32499999999999,20.39,4.6291025,32.24125
2021-07-06 11:28:05.148437500,-65.0,4.25,5.0,125.3175,20.845,4.62882225,32.241875
2021-07-06 11:28:05.156250000,-65.0,4.0,5.0,125.30999999999999,21.3,4.6285419999999995,32.2425
2021-07-06 11:28:05.164062500,-65.0,4.0,5.0,125.3025,21.395,4.62826175,32.243125
2021-07-06 11:28:05.171875000,-65.0,4.0,5.0,125.295,21.49,4.6279815,32.24375
2021-07-06 11:28:05.179687500,-65.0,4.0,5.0,125.2875,21.31,4.62770125,32.244375
2021-07-06 11:28:05.187500000,-65.0,4.0,5.0,125.28,21.13,4.627421,32.245
2021-07-06 11:28:05.195312500,-65.0,4.0,5.0,125.2725,20.79,4.62714075,32.245625
2021-07-06 11:28:05.203125000,-65.0,4.0,5.0,125.265,20.45,4.6268605,32.246249999999996
2021-07-06 11:28:05.210937500,-65.0,4.0,5.0,125.2575,20.075,4.62658025,32.246875
2021-07-06 11:28:05.218750000,-65.0,4.0,5.0,125.25,19.7,4.6263000000000005,32.2475
2021-07-06 11:28:05.226562500,-65.0,4.25,5.0,125.24249999999999,19.375,4.62601975,32.248125
2021-07-06 11:28:05.234375000,-65.0,4.5,5.0,125.235,19.05,4.6257395,32.24875
2021-07-06 11:28:05.242187500,-65.0,4.75,5.0,125.22749999999999,18.775,4.6254592500000005,32.249375
2021-07-06 11:28:05.250000000,-65.0,5.0,5.0,125.22,18.5,4.625179,32.25
2021-07-06 11:28:05.257812500,-65.0,5.0,5.0,125.21249999999999,18.23,4.625018875,32.25
2021-07-06 11:28:05.265625000,-65.0,5.0,5.0,125.205,17.96,4.6248587500000005,32.25
2021-07-06 11:28:05.273437500,-65.0,5.0,5.0,125.19749999999999,17.634999999999998,4.624698625,32.25
2021-07-06 11:28:05.281250000,-65.0,5.0,5.0,125.19,17.31,4.6245385,32.25
2021-07-06 11:28:05.289062500,-65.0,4.75,5.0,125.18249999999999,16.865000000000002,4.624378375,32.25
2021-07-06 11:28:05.296875000,-65.0,4.5,5.0,125.175,16.42,4.62421825,32.25
2021-07-06 11:28:05.304687500,-65.0,4.25,5.0,125.16749999999999,15.855,4.624058125,32.25
2021-07-06 11:28:05.312500000,-65.0,4.0,5.0,125.16,15.29,4.6238980000000005,32.25
2021-07-06 11:28:05.320312500,-65.0,4.0,5.0,125.15249999999999,14.61,4.623737875,32.25
2021-07-06 11:28:05.328125000,-65.0,4.0,5.0,125.145,13.93,4.62357775,32.25
2021-07-06 11:28:05.335937500,-65.0,4.0,5.0,125.1375,13.14,4.623417625,32.25
2021-07-06 11:28:05.343750000,-65.0,4.0,5.0,125.13,12.35,4.6232575,32.25
2021-07-06 11:28:05.351562500,-65.0,4.25,5.0,125.1225,11.425,4.623097375,32.25
2021-07-06 11:28:05.359375000,-65.0,4.5,5.0,125.115,10.5,4.62293725,32.25
2021-07-06 11:28:05.367187500,-65.0,4.75,5.0,125.1075,9.385,4.622777125,32.25
2021-07-06 11:28:05.375000000,-65.0,5.0,5.0,125.1,8.27,4.622617,32.25
2021-07-06 11:28:05.382812500,-65.0,4.75,5.0,125.0925,6.91,4.622456875,32.25
2021-07-06 11:28:05.390625000,-65.0,4.5,5.0,125.085,5.55,4.62229675,32.25
2021-07-06 11:28:05.398437500,-65.0,4.25,5.0,125.0775,3.96,4.6221366249999996,32.25
2021-07-06 11:28:05.406250000,-65.0,4.0,5.0,125.07,2.37,4.6219765,32.25
2021-07-06 11:28:05.414062500,-65.0,4.25,5.0,125.0625,0.6299999999999999,4.621816375,32.25
2021-07-06 11:28:05.421875000,-65.0,4.5,5.0,125.05499999999999,-1.11,4.62165625,32.25
2021-07-06 11:28:05.429687500,-65.0,4.75,5.0,125.0475,-2.8899999999999997,4.621496125,32.25
2021-07-06 11:28:05.437500000,-65.0,5.0,5.0,125.03999999999999,-4.67,4.6213359999999994,32.25
2021-07-06 11:28:05.445312500,-65.0,5.0,5.0,125.0325,-6.32,4.621175875,32.25
2021-07-06 11:28:05.453125000,-65.0,5.0,5.0,125.02499999999999,-7.97,4.62101575,32.25
2021-07-06 11:28:05.460937500,-65.0,5.0,5.0,125.0175,-9.405,4.620855625,32.25
2021-07-06 11:28:05.468750000,-65.0,5.0,5.0,125.00999999999999,-10.84,4.6206955,32.25
2021-07-06 11:28:05.476562500,-65.0,5.0,5.0,125.0025,-12.030000000000001,4.620535375,32.25
2021-07-06 11:28:05.484375000,-65.0,5.0,5.0,124.99499999999999,-13.22,4.6203752499999995,32.25
2021-07-06 11:28:05.492187500,-65.0,5.0,5.0,124.9875,-14.254999999999999,4.620215125,32.25
2021-07-06 11:28:05.500000000,-65.0,5.0,5.0,124.97999999999999,-15.29,4.620055,32.25
2021-07-06 11:28:05.507812500,-65.0,5.0,4.75,124.9725,-16.34,4.6201750937499995,32.25
2021-07-06 11:28:05.515625000,-65.0,5.0,4.5,124.965,-17.39,4.6202951875,32.25
2021-07-06 11:28:05.523437500,-65.0,5.0,4.25,124.9575,-18.66,4.62041528125,32.25
2021-07-06 11:28:05.531250000,-65.0,5.0,4.0,124.95,-19.93,4.620535374999999,32.25
2021-07-06 11:28:05.539062500,-65.0,5.0,4.25,124.9425,-21.58,4.62065546875,32.25
2021-07-06 11:28:05.546875000,-65.0,5.0,4.5,124.935,-23.23,4.6207755624999995,32.25
2021-07-06 11:28:05.554687500,-65.0,5.0,4.75,124.9275,-25.314999999999998,4.62089565625,32.25
2021-07-06 11:28:05.562500000,-65.0,5.0,5.0,124.92,-27.4,4.62101575,32.25
2021-07-06 11:28:05.570312500,-65.0,5.0,5.0,124.9125,-29.805,4.621135843749999,32.25
2021-07-06 11:28:05.578125000,-65.0,5.0,5.0,124.905,-32.21,4.6212559375,32.25
2021-07-06 11:28:05.585937500,-65.0,5.0,5.0,124.8975,-34.620000000000005,4.62137603125,32.25
2021-07-06 11:28:05.593750000,-65.0,5.0,5.0,124.89,-37.03,4.621496125,32.25
2021-07-06 11:28:05.601562500,-65.0,5.0,5.0,124.8825,-38.995000000000005,4.62161621875,32.25
2021-07-06 11:28:05.609375000,-65.0,5.0,5.0,124.875,-40.96,4.6217363124999995,32.25
2021-07-06 11:28:05.617187500,-65.0,5.0,5.0,124.86749999999999,-42.015,4.62185640625,32.25
2021-07-06 11:28:05.625000000,-65.0,5.0,5.0,124.86,-43.07,4.6219765,32.25
2021-07-06 11:28:05.632812500,-65.0,4.75,4.75,124.85249999999999,-42.855000000000004,4.622096593749999,32.25
2021-07-06 11:28:05.640625000,-65.0,4.5,4.5,124.845,-42.64,4.6222166875,32.25
2021-07-06 11:28:05.648437500,-65.0,4.25,4.25,124.83749999999999,-41.04,4.62233678125,32.25
2021-07-06 11:28:05.656250000,-65.0,4.0,4.0,124.83,-39.44,4.622456874999999,32.25
2021-07-06 11:28:05.664062500,-65.0,4.25,4.25,124.82249999999999,-36.61,4.62257696875,32.25
2021-07-06 11:28:05.671875000,-65.0,4.5,4.5,124.815,-33.78,4.6226970624999995,32.25
2021-07-06 11:28:05.679687500,-65.0,4.75,4.75,124.8075,-30.125,4.62281715625,32.25
2021-07-06 11:28:05.687500000,-65.0,5.0,5.0,124.8,-26.47,4.62293725,32.25
2021-07-06 11:28:05.695312500,-65.0,5.0,4.75,124.7925,-22.479999999999997,4.623057343749999,32.25
2021-07-06 11:28:05.703125000,-65.0,5.0,4.5,124.785,-18.49,4.6231774375,32.25
2021-07-06 11:28:05.710937500,-65.0,5.0,4.25,124.7775,-14.614999999999998,4.6232975312499995,32.25
2021-07-06 11:28:05.718750000,-65.0,5.0,4.0,124.77,-10.74,4.623417625,32.25
2021-07-06 11:28:05.726562500,-65.0,4.75,4.0,124.7625,-7.25,4.62353771875,32.25
2021-07-06 11:28:05.734375000,-65.0,4.5,4.0,124.755,-3.76,4.623657812499999,32.25
2021-07-06 11:28:05.742187500,-65.0,4.25,4.0,124.7475,-0.7249999999999996,4.62377790625,32.25
2021-07-06 11:28:05.750000000,-65.0,4.0,4.0,124.74,2.31,4.623898,32.25
2021-07-06 11:28:05.757812500,-65.0,4.25,4.25,124.7325,4.9399999999999995,4.62369784375,32.25
2021-07-06 11:28:05.765625000,-65.0,4.5,4.5,124.725,7.57,4.6234976875,32.25
2021-07-06 11:28:05.773437500,-65.0,4.75,4.75,124.7175,9.885,4.6232975312499995,32.25
2021-07-06 11:28:05.781250000,-65.0,5.0,5.0,124.71,12.2,4.6230973749999995,32.25
