TimeStamp,empatica.acc.x,empatica.acc.y,empatica.acc.z,empatica.hr,empatica.bvp,empatica.eda,empatica.temp
2021-07-06 11:37:32.750000000,-65.0,4.0,9.0,85.97749999999999,-10.33,2.387522,32.31
2021-07-06 11:37:32.757812500,-65.0,4.0,9.0,85.977265625,-5.465,2.3874819375,32.31
2021-07-06 11:37:32.765625000,-65.0,4.0,9.0,85.97703125,-0.6,2.387441875,32.31
2021-07-06 11:37:32.773437500,-65.0,4.0,9.0,85.976796875,3.5500000000000003,2.3874018125000003,32.31
2021-07-06 11:37:32.781250000,-65.0,4.0,9.0,85.9765625,7.7,2.38736175,32.31
2021-07-06 11:37:32.789062500,-65.0,4.0,9.0,85.976328125,11.145,2.3873216875,32.31
2021-07-06 11:37:32.796875000,-65.0,4.0,9.0,85.97609375,14.59,2.387281625,32.31
2021-07-06 11:37:32.804687500,-65.0,4.0,9.0,85.975859375,17.41,2.3872415625000003,32.31
2021-07-06 11:37:32.812500000,-65.0,4.0,9.0,85.975625,20.23,2.3872015,32.31
2021-07-06 11:37:32.820312500,-64.75,4.0,9.0,85.975390625,22.485,2.3871614375,32.31
2021-07-06 11:37:32.828125000,-64.5,4.0,9.0,85.97515625,24.74,2.387121375,32.31
2021-07-06 11:37:32.835937500,-64.25,4.0,9.0,85.97492187499999,26.47,2.3870813125,32.31
2021-07-06 11:37:32.843750000,-64.0,4.0,9.0,85.9746875,28.2,2.3870412500000002,32.31
2021-07-06 11:37:32.851562500,-64.25,4.0,9.0,85.974453125,29.43,2.3870011875,32.31
2021-07-06 11:37:32.859375000,-64.5,4.0,9.0,85.97421875,30.66,2.386961125,32.31
2021-07-06 11:37:32.867187500,-64.75,4.0,9.0,85.973984375,31.424999999999997,2.3869210625,32.31
2021-07-06 11:37:32.875000000,-65.0,4.0,9.0,85.97375,32.19,2.386881,32.31
2021-07-06 11:37:32.882812500,-65.0,4.0,9.0,85.973515625,32.575,2.3868409375,32.31
2021-07-06 11:37:32.890625000,-65.0,4.0,9.0,85.97328125,32.96,2.386800875,32.31
2021-07-06 11:37:32.898437500,-65.0,4.0,9.0,85.973046875,33.085,2.3867608125,32.31
2021-07-06 11:37:32.906250000,-65.0,4.0,9.0,85.9728125,33.21,2.38672075,32.31
2021-07-06 11:37:32.914062500,-64.75,4.0,9.0,85.972578125,33.19,2.3866806875,32.31
2021-07-06 11:37:32.921875000,-64.5,4.0,9.0,85.97234375,33.17,2.386640625,32.31
2021-07-06 11:37:32.929687500,-64.25,4.0,9.0,85.972109375,33.11,2.3866005625,32.31
2021-07-06 11:37:32.937500000,-64.0,4.0,9.0,85.971875,33.05,2.3865605,32.31
2021-07-06 11:37:32.945312500,-64.25,4.0,9.0,85.97164062499999,33.01,2.3865204374999998,32.31
2021-07-06 11:37:32.953125000,-64.5,4.0,9.0,85.97140625,32.97,2.386480375,32.31
2021-07-06 11:37:32.960937500,-64.75,4.0,9.0,85.971171875,32.965,2.3864403125,32.31
2021-07-06 11:37:32.968750000,-65.0,4.0,9.0,85.9709375,32.96,2.38640025,32.31
2021-07-06 11:37:32.976562500,-65.0,3.75,9.0,85.970703125,32.99,2.3863601875,32.31
2021-07-06 11:37:32.984375000,-65.0,3.5,9.0,85.97046875,33.02,2.386320125,32.31
2021-07-06 11:37:32.992187500,-65.0,3.25,9.0,85.970234375,33.085,2.3862800625,32.31
2021-07-06 11:37:33.000000000,-65.0,3.0,9.0,85.97,33.15,2.38624,32.31
2021-07-06 11:37:33.007812500,-65.0,3.25,9.0,85.970078125,33.26,2.38595978125,32.31
2021-07-06 11:37:33.015625000,-65.0,3.5,9.0,85.97015625,33.37,2.3856795625,32.31
2021-07-06 11:37:33.023437500,-65.0,3.75,9.0,85.970234375,33.535,2.38539934375,32.31
2021-07-06 11:37:33.031250000,-65.0,4.0,9.0,85.9703125,33.7,2.385119125,32.31
2021-07-06 11:37:33.039062500,-65.0,4.0,9.0,85.970390625,33.935,2.38483890625,32.31
2021-07-06 11:37:33.046875000,-65.0,4.0,9.0,85.97046875,34.17,2.3845586874999998,32.31
2021-07-06 11:37:33.054687500,-65.0,4.0,9.0,85.970546875,34.43,2.38427846875,32.31
2021-07-06 11:37:33.062500000,-65.0,4.0,9.0,85.970625,34.69,2.38399825,32.31
2021-07-06 11:37:33.070312500,-65.0,4.0,9.0,85.970703125,34.9,2.38371803125,32.31
2021-07-06 11:37:33.078125000,-65.0,4.0,9.0,85.97078125,35.11,2.3834378125,32.31
2021-07-06 11:37:33.085937500,-65.0,4.0,9.0,85.970859375,35.15,2.38315759375,32.31
2021-07-06 11:37:33.093750000,-65.0,4.0,9.0,85.9709375,35.19,2.382877375,32.31
2021-07-06 11:37:33.101562500,-65.0,4.0,9.0,85.97101562499999,34.93,2.38259715625,32.31
2021-07-06 11:37:33.109375000,-65.0,4.0,9.0,85.97109375,34.67,2.3823169375,32.31
2021-07-06 11:37:33.117187500,-65.0,4.0,9.0,85.971171875,34.005,2.3820367187500002,32.31
2021-07-06 11:37:33.125000000,-65.0,4.0,9.0,85.97125,33.34,2.3817565,32.31
2021-07-06 11:37:33.132812500,-65.0,3.75,9.0,85.971328125,32.245000000000005,2.38147628125,32.31
2021-07-06 11:37:33.140625000,-65.0,3.5,9.0,85.97140625,31.15,2.3811960625,32.31
2021-07-06 11:37:33.148437500,-65.0,3.25,9.0,85.971484375,29.674999999999997,2.38091584375,32.31
2021-07-06 11:37:33.156250000,-65.0,3.0,9.0,85.9715625,28.2,2.380635625,32.31
2021-07-06 11:37:33.164062500,-64.75,3.25,9.0,85.971640625,26.48,2.38035540625,32.31
2021-07-06 11:37:33.171875000,-64.5,3.5,9.0,85.97171875,24.76,2.3800751875,32.31
2021-07-06 11:37:33.179687500,-64.25,3.75,9.0,85.971796875,22.945,2.37979496875,32.31
2021-07-06 11:37:33.187500000,-64.0,4.0,9.0,85.971875,21.13,2.3795147500000002,32.31
2021-07-06 11:37:33.195312500,-64.25,4.0,9.0,85.971953125,19.335,2.3792345312500003,32.31
2021-07-06 11:37:33.203125000,-64.5,4.0,9.0,85.97203125,17.54,2.3789543125000003,32.31
2021-07-06 11:37:33.210937500,-64.75,4.0,9.0,85.972109375,15.82,2.37867409375,32.31
2021-07-06 11:37:33.218750000,-65.0,4.0,9.0,85.9721875,14.1,2.378393875,32.31
2021-07-06 11:37:33.226562500,-65.0,4.0,9.0,85.972265625,12.41,2.37811365625,32.31
2021-07-06 11:37:33.234375000,-65.0,4.0,9.0,85.97234375,10.72,2.3778334375,32.31
2021-07-06 11:37:33.242187500,-65.0,4.0,9.0,85.972421875,8.965,2.37755321875,32.31
2021-07-06 11:37:33.250000000,-65.0,4.0,9.0,85.9725,7.21,2.377273,32.31
2021-07-06 11:37:33.257812500,-64.75,4.0,9.0,85.972578125,5.305,2.377273,32.31
2021-07-06 11:37:33.265625000,-64.5,4.0,9.0,85.97265625,3.4,2.377273,32.31
2021-07-06 11:37:33.273437500,-64.25,4.0,9.0,85.972734375,1.3199999999999998,2.377273,32.31
2021-07-06 11:37:33.281250000,-64.0,4.0,9.0,85.9728125,-0.76,2.377273,32.31
2021-07-06 11:37:33.289062500,-64.25,4.0,9.0,85.972890625,-2.9350000000000005,2.377273,32.31
2021-07-06 11:37:33.296875000,-64.5,4.0,9.0,85.97296875,-5.11,2.377273,32.31
2021-07-06 11:37:33.304687500,-64.75,4.0,9.0,85.973046875,-7.23,2.377273,32.31
2021-07-06 11:37:33.312500000,-65.0,4.0,9.0,85.973125,-9.35,2.377273,32.31
2021-07-06 11:37:33.320312500,-65.0,4.0,9.0,85.973203125,-11.285,2.377273,32.31
2021-07-06 11:37:33.328125000,-65.0,4.0,9.0,85.97328125,-13.22,2.377273,32.31
2021-07-06 11:37:33.335937500,-65.0,4.0,9.0,85.973359375,-14.915,2.377273,32.31
2021-07-06 11:37:33.343750000,-65.0,4.0,9.0,85.9734375,-16.61,2.377273,32.31
2021-07-06 11:37:33.351562500,-64.75,4.0,9.0,85.973515625,-18.13,2.377273,32.31
2021-07-06 11:37:33.359375000,-64.5,4.0,9.0,85.97359375,-19.65,2.377273,32.31
2021-07-06 11:37:33.367187500,-64.25,4.0,9.0,85.973671875,-21.155,2.377273,32.31
2021-07-06 11:37:33.375000000,-64.0,4.0,9.0,85.97375,-22.66,2.377273,32.31
2021-07-06 11:37:33.382812500,-64.0,4.0,9.0,85.973828125,-24.32,2.377273,32.31
2021-07-06 11:37:33.390625000,-64.0,4.0,9.0,85.97390625,-25.98,2.377273,32.31
2021-07-06 11:37:33.398437500,-64.0,4.0,9.0,85.973984375,-27.92,2.377273,32.31
2021-07-06 11:37:33.406250000,-64.0,4.0,9.0,85.9740625,-29.86,2.377273,32.31
2021-07-06 11:37:33.414062500,-64.0,4.0,9.0,85.974140625,-32.114999999999995,2.377273,32.31
2021-07-06 11:37:33.421875000,-64.0,4.0,9.0,85.97421875,-34.37,2.377273,32.31
2021-07-06 11:37:33.429687500,-64.0,4.0,9.0,85.97429687500001,-36.855000000000004,2.377273,32.31
2021-07-06 11:37:33.437500000,-64.0,4.0,9.0,85.974375,-39.34,2.377273,32.31
2021-07-06 11:37:33.445312500,-64.0,4.0,9.0,85.974453125,-41.900000000000006,2.377273,32.31
2021-07-06 11:37:33.453125000,-64.0,4.0,9.0,85.97453125,-44.46,2.377273,32.31
2021-07-06 11:37:33.460937500,-64.0,4.0,9.0,85.974609375,-46.86,2.377273,32.31
2021-07-06 11:37:33.468750000,-64.0,4.0,9.0,85.9746875,-49.26,2.377273,32.31
2021-07-06 11:37:33.476562500,-64.0,4.0,9.0,85.974765625,-51.18,2.377273,32.31
2021-07-06 11:37:33.484375000,-64.0,4.0,9.0,85.97484375,-53.1,2.377273,32.31
2021-07-06 11:37:33.492187500,-64.0,4.0,9.0,85.974921875,-54.18,2.377273,32.31
2021-07-06 11:37:33.500000000,-64.0,4.0,9.0,85.975,-55.26,2.377273,32.31
2021-07-06 11:37:33.507812500,-64.0,4.0,9.0,85.975078125,-55.15,2.37703278125,32.31
2021-07-06 11:37:33.515625000,-64.0,4.0,9.0,85.97515625,-55.04,2.3767925625000004,32.31
2021-07-06 11:37:33.523437500,-64.0,4.0,9.0,85.975234375,-53.519999999999996,2.3765523437500002,32.31
2021-07-06 11:37:33.531250000,-64.0,4.0,9.0,85.9753125,-52.0,2.376312125,32.31
2021-07-06 11:37:33.539062500,-64.0,4.0,9.0,85.975390625,-49.065,2.37607190625,32.31
2021-07-06 11:37:33.546875000,-64.0,4.0,9.0,85.97546875,-46.13,2.3758316875000003,32.31
2021-07-06 11:37:33.554687500,-64.0,4.0,9.0,85.975546875,-42.025000000000006,2.37559146875,32.31
2021-07-06 11:37:33.562500000,-64.0,4.0,9.0,85.97562500000001,-37.92,2.37535125,32.31
2021-07-06 11:37:33.570312500,-64.25,4.0,9.0,85.975703125,-33.08,2.3751110312500003,32.31
2021-07-06 11:37:33.578125000,-64.5,4.0,9.0,85.97578125,-28.24,2.3748708125,32.31
2021-07-06 11:37:33.585937500,-64.75,4.0,9.0,85.975859375,-23.165,2.37463059375,32.31
2021-07-06 11:37:33.593750000,-65.0,4.0,9.0,85.9759375,-18.09,2.374390375,32.31
2021-07-06 11:37:33.601562500,-65.0,4.0,9.0,85.976015625,-13.205,2.3741501562500003,32.31
2021-07-06 11:37:33.609375000,-65.0,4.0,9.0,85.97609375,-8.32,2.3739099375,32.31
2021-07-06 11:37:33.617187500,-65.0,4.0,9.0,85.976171875,-3.91,2.37366971875,32.31
2021-07-06 11:37:33.625000000,-65.0,4.0,9.0,85.97625000000001,0.5,2.3734295000000003,32.31
2021-07-06 11:37:33.632812500,-64.75,4.0,9.0,85.97632812500001,4.33,2.37318928125,32.31
2021-07-06 11:37:33.640625000,-64.5,4.0,9.0,85.97640625,8.16,2.3729490625,32.31
2021-07-06 11:37:33.648437500,-64.25,4.0,9.0,85.976484375,11.425,2.37270884375,32.31
2021-07-06 11:37:33.656250000,-64.0,4.0,9.0,85.9765625,14.69,2.372468625,32.31
2021-07-06 11:37:33.664062500,-64.25,4.0,9.0,85.976640625,17.43,2.37222840625,32.31
2021-07-06 11:37:33.671875000,-64.5,4.0,9.0,85.97671875,20.17,2.3719881875,32.31
2021-07-06 11:37:33.679687500,-64.75,4.0,9.0,85.976796875,22.43,2.37174796875,32.31
2021-07-06 11:37:33.687500000,-65.0,4.0,9.0,85.976875,24.69,2.37150775,32.31
2021-07-06 11:37:33.695312500,-65.0,4.0,9.0,85.97695312500001,26.465,2.37126753125,32.31
2021-07-06 11:37:33.703125000,-65.0,4.0,9.0,85.97703125,28.24,2.3710273125,32.31
2021-07-06 11:37:33.710937500,-65.0,4.0,9.0,85.977109375,29.509999999999998,2.37078709375,32.31
2021-07-06 11:37:33.718750000,-65.0,4.0,9.0,85.9771875,30.78,2.370546875,32.31
2021-07-06 11:37:33.726562500,-64.75,4.0,9.0,85.977265625,31.515,2.37030665625,32.31
2021-07-06 11:37:33.734375000,-64.5,4.0,9.0,85.97734375,32.25,2.3700664375,32.31
2021-07-06 11:37:33.742187500,-64.25,4.0,9.0,85.977421875,32.489999999999995,2.36982621875,32.31
2021-07-06 11:37:33.750000000,-64.0,4.0,9.0,85.9775,32.73,2.369586,32.31
2021-07-06 11:37:33.757812500,-64.25,4.0,9.0,85.97757812500001,32.56,2.36962603125,32.31
2021-07-06 11:37:33.765625000,-64.5,4.0,9.0,85.97765625000001,32.39,2.3696660625,32.31
2021-07-06 11:37:33.773437500,-64.75,4.0,9.0,85.977734375,31.98,2.36970609375,32.31
2021-07-06 11:37:33.781250000,-65.0,4.0,9.0,85.9778125,31.57,2.369746125,32.31
2021-07-06 11:37:33.789062500,-65.0,4.0,9.0,85.977890625,31.1,2.36978615625,32.31
2021-07-06 11:37:33.796875000,-65.0,4.0,9.0,85.97796875,30.63,2.3698261875,32.31
2021-07-06 11:37:33.804687500,-65.0,4.0,9.0,85.978046875,30.244999999999997,2.36986621875,32.31
2021-07-06 11:37:33.812500000,-65.0,4.0,9.0,85.978125,29.86,2.36990625,32.31
2021-07-06 11:37:33.820312500,-64.75,4.0,9.0,85.97820312500001,29.63,2.36994628125,32.31
2021-07-06 11:37:33.828125000,-64.5,4.0,9.0,85.97828125000001,29.4,2.3699863125,32.31
2021-07-06 11:37:33.835937500,-64.25,4.0,9.0,85.978359375,29.31,2.37002634375,32.31
2021-07-06 11:37:33.843750000,-64.0,4.0,9.0,85.9784375,29.22,2.370066375,32.31
2021-07-06 11:37:33.851562500,-64.0,4.0,9.0,85.978515625,29.189999999999998,2.37010640625,32.31
2021-07-06 11:37:33.859375000,-64.0,4.0,9.0,85.97859375,29.16,2.3701464375,32.31
2021-07-06 11:37:33.867187500,-64.0,4.0,9.0,85.978671875,29.095,2.37018646875,32.31
2021-07-06 11:37:33.875000000,-64.0,4.0,9.0,85.97875,29.03,2.3702265000000002,32.31
2021-07-06 11:37:33.882812500,-64.25,4.0,9.0,85.978828125,28.87,2.37026653125,32.31
2021-07-06 11:37:33.890625000,-64.5,4.0,9.0,85.97890625000001,28.71,2.3703065625,32.31
2021-07-06 11:37:33.898437500,-64.75,4.0,9.0,85.97898437500001,28.384999999999998,2.37034659375,32.31
2021-07-06 11:37:33.906250000,-65.0,4.0,9.0,85.9790625,28.06,2.370386625,32.31
2021-07-06 11:37:33.914062500,-65.0,4.0,9.0,85.979140625,27.505,2.37042665625,32.31
2021-07-06 11:37:33.921875000,-65.0,4.0,9.0,85.97921875,26.95,2.3704666875,32.31
2021-07-06 11:37:33.929687500,-65.0,4.0,9.0,85.979296875,26.11,2.37050671875,32.31
2021-07-06 11:37:33.937500000,-65.0,4.0,9.0,85.979375,25.27,2.37054675,32.31
2021-07-06 11:37:33.945312500,-65.0,4.0,9.0,85.979453125,24.09,2.37058678125,32.31
2021-07-06 11:37:33.953125000,-65.0,4.0,9.0,85.97953125000001,22.91,2.3706268125,32.31
2021-07-06 11:37:33.960937500,-65.0,4.0,9.0,85.97960937500001,21.4,2.37066684375,32.31
2021-07-06 11:37:33.968750000,-65.0,4.0,9.0,85.9796875,19.89,2.370706875,32.31
2021-07-06 11:37:33.976562500,-65.0,4.0,9.0,85.979765625,18.11,2.37074690625,32.31
2021-07-06 11:37:33.984375000,-65.0,4.0,9.0,85.97984375,16.33,2.3707869375,32.31
2021-07-06 11:37:33.992187500,-65.0,4.0,9.0,85.979921875,14.41,2.37082696875,32.31
2021-07-06 11:37:34.000000000,-65.0,4.0,9.0,85.98,12.49,2.370867,32.31
2021-07-06 11:37:34.007812500,-65.0,4.0,9.25,85.97921875,10.55,2.37074690625,32.31
2021-07-06 11:37:34.015625000,-65.0,4.0,9.5,85.9784375,8.61,2.3706268125,32.31
2021-07-06 11:37:34.023437500,-65.0,4.0,9.75,85.97765625000001,6.744999999999999,2.37050671875,32.31
2021-07-06 11:37:34.031250000,-65.0,4.0,10.0,85.976875,4.88,2.370386625,32.31
2021-07-06 11:37:34.039062500,-65.0,4.0,9.75,85.97609375,3.11,2.37026653125,32.31
2021-07-06 11:37:34.046875000,-65.0,4.0,9.5,85.9753125,1.34,2.3701464375,32.31
2021-07-06 11:37:34.054687500,-65.0,4.0,9.25,85.97453125,-0.345,2.37002634375,32.31
2021-07-06 11:37:34.062500000,-65.0,4.0,9.0,85.97375000000001,-2.03,2.36990625,32.31
2021-07-06 11:37:34.070312500,-64.75,4.0,9.0,85.97296875,-3.6950000000000003,2.36978615625,32.31
2021-07-06 11:37:34.078125000,-64.5,4.0,9.0,85.9721875,-5.36,2.3696660625,32.31
2021-07-06 11:37:34.085937500,-64.25,4.0,9.0,85.97140625,-7.035,2.36954596875,32.31
2021-07-06 11:37:34.093750000,-64.0,4.0,9.0,85.970625,-8.71,2.369425875,32.31
2021-07-06 11:37:34.101562500,-64.0,4.0,9.25,85.96984375000001,-10.420000000000002,2.36930578125,32.31
2021-07-06 11:37:34.109375000,-64.0,4.0,9.5,85.9690625,-12.13,2.3691856875,32.31
2021-07-06 11:37:34.117187500,-64.0,4.0,9.75,85.96828125,-13.835,2.36906559375,32.31
2021-07-06 11:37:34.125000000,-64.0,4.0,10.0,85.9675,-15.54,2.3689454999999997,32.31
2021-07-06 11:37:34.132812500,-64.25,4.0,9.75,85.96671875,-17.195,2.36882540625,32.31
2021-07-06 11:37:34.140625000,-64.5,4.0,9.5,85.96593750000001,-18.85,2.3687053125,32.31
2021-07-06 11:37:34.148437500,-64.75,4.0,9.25,85.96515625,-20.395000000000003,2.36858521875,32.31
2021-07-06 11:37:34.156250000,-65.0,4.0,9.0,85.964375,-21.94,2.3684651249999997,32.31
2021-07-06 11:37:34.164062500,-64.75,4.0,9.25,85.96359375,-23.355,2.36834503125,32.31
2021-07-06 11:37:34.171875000,-64.5,4.0,9.5,85.9628125,-24.77,2.3682249375,32.31
2021-07-06 11:37:34.179687500,-64.25,4.0,9.75,85.96203125,-26.13,2.36810484375,32.31
2021-07-06 11:37:34.187500000,-64.0,4.0,10.0,85.96125,-27.49,2.3679847499999997,32.31
2021-07-06 11:37:34.195312500,-64.0,4.0,10.0,85.96046875,-28.935,2.3678646562499996,32.31
2021-07-06 11:37:34.203125000,-64.0,4.0,10.0,85.9596875,-30.38,2.3677445625,32.31
2021-07-06 11:37:34.210937500,-64.0,4.0,10.0,85.95890625,-32.115,2.36762446875,32.31
2021-07-06 11:37:34.218750000,-64.0,4.0,10.0,85.958125,-33.85,2.3675043749999998,32.31
2021-07-06 11:37:34.226562500,-64.25,4.0,9.75,85.95734375,-36.004999999999995,2.3673842812499997,32.31
2021-07-06 11:37:34.234375000,-64.5,4.0,9.5,85.9565625,-38.16,2.3672641875,32.31
2021-07-06 11:37:34.242187500,-64.75,4.0,9.25,85.95578125,-40.709999999999994,2.36714409375,32.31
2021-07-06 11:37:34.250000000,-65.0,4.0,9.0,85.955,-43.26,2.367024,32.31
2021-07-06 11:37:34.257812500,-64.75,4.0,9.25,85.95421875,-45.905,2.3669839687499996,32.31
2021-07-06 11:37:34.265625000,-64.5,4.0,9.5,85.9534375,-48.55,2.3669439375,32.31
2021-07-06 11:37:34.273437500,-64.25,4.0,9.75,85.95265625,-50.8,2.3669039062499997,32.31
2021-07-06 11:37:34.281250000,-64.0,4.0,10.0,85.951875,-53.05,2.366863875,32.31
2021-07-06 11:37:34.289062500,-64.0,4.0,10.0,85.95109375,-54.305,2.3668238437499998,32.31
2021-07-06 11:37:34.296875000,-64.0,4.0,10.0,85.9503125,-55.56,2.3667838125,32.31
2021-07-06 11:37:34.304687500,-64.0,4.0,10.0,85.94953125,-55.35,2.36674378125,32.31
2021-07-06 11:37:34.312500000,-64.0,4.0,10.0,85.94875,-55.14,2.36670375,32.31
2021-07-06 11:37:34.320312500,-64.25,4.0,9.75,85.94796875,-53.29,2.36666371875,32.31
2021-07-06 11:37:34.328125000,-64.5,4.0,9.5,85.9471875,-51.44,2.3666236874999997,32.31
2021-07-06 11:37:34.335937500,-64.75,4.0,9.25,85.94640625,-48.12,2.36658365625,32.31
2021-07-06 11:37:34.343750000,-65.0,4.0,9.0,85.945625,-44.8,2.366543625,32.31
2021-07-06 11:37:34.351562500,-64.75,4.0,9.0,85.94484375,-40.459999999999994,2.36650359375,32.31
2021-07-06 11:37:34.359375000,-64.5,4.0,9.0,85.9440625,-36.12,2.3664635625,32.31
2021-07-06 11:37:34.367187500,-64.25,4.0,9.0,85.94328125,-31.345,2.36642353125,32.31
2021-07-06 11:37:34.375000000,-64.0,4.0,9.0,85.9425,-26.57,2.3663835,32.31
2021-07-06 11:37:34.382812500,-64.0,4.0,9.25,85.94171875,-21.875,2.36634346875,32.31
2021-07-06 11:37:34.390625000,-64.0,4.0,9.5,85.9409375,-17.18,2.3663034375,32.31
2021-07-06 11:37:34.398437500,-64.0,4.0,9.75,85.94015625,-12.915,2.36626340625,32.31
2021-07-06 11:37:34.406250000,-64.0,4.0,10.0,85.939375,-8.65,2.366223375,32.31
2021-07-06 11:37:34.414062500,-64.25,4.0,10.0,85.93859375,-4.970000000000001,2.36618334375,32.31
2021-07-06 11:37:34.421875000,-64.5,4.0,10.0,85.9378125,-1.29,2.3661433125,32.31
2021-07-06 11:37:34.429687500,-64.75,4.0,10.0,85.93703125,1.7799999999999998,2.36610328125,32.31
2021-07-06 11:37:34.437500000,-65.0,4.0,10.0,85.93625,4.85,2.36606325,32.31
2021-07-06 11:37:34.445312500,-64.75,4.0,10.0,85.93546875,7.35,2.36602321875,32.31
2021-07-06 11:37:34.453125000,-64.5,4.0,10.0,85.9346875,9.85,2.3659831875,32.31
2021-07-06 11:37:34.460937500,-64.25,4.0,10.0,85.93390625,11.8,2.36594315625,32.31
2021-07-06 11:37:34.468750000,-64.0,4.0,10.0,85.933125,13.75,2.365903125,32.31
2021-07-06 11:37:34.476562500,-64.25,4.0,9.75,85.93234375,15.165,2.3658630937500003,32.31
2021-07-06 11:37:34.484375000,-64.5,4.0,9.5,85.9315625,16.58,2.3658230625,32.31
2021-07-06 11:37:34.492187500,-64.75,4.0,9.25,85.93078125,17.485,2.3657830312500003,32.31
2021-07-06 11:37:34.500000000,-65.0,4.0,9.0,85.93,18.39,2.365743,32.31
2021-07-06 11:37:34.507812500,-64.75,4.0,9.25,85.92921875,18.865000000000002,2.3656629375000002,32.31
2021-07-06 11:37:34.515625000,-64.5,4.0,9.5,85.9284375,19.34,2.3655828750000003,32.31
2021-07-06 11:37:34.523437500,-64.25,4.0,9.75,85.92765625,19.505000000000003,2.3655028125,32.31
2021-07-06 11:37:34.531250000,-64.0,4.0,10.0,85.926875,19.67,2.36542275,32.31
2021-07-06 11:37:34.539062500,-64.0,4.0,10.0,85.92609374999999,19.705,2.3653426875,32.31
2021-07-06 11:37:34.546875000,-64.0,4.0,10.0,85.9253125,19.74,2.365262625,32.31
2021-07-06 11:37:34.554687500,-64.0,4.0,10.0,85.92453125,19.805,2.3651825625000003,32.31
2021-07-06 11:37:34.562500000,-64.0,4.0,10.0,85.92375,19.87,2.3651025,32.31
2021-07-06 11:37:34.570312500,-64.25,4.0,10.0,85.92296875,20.065,2.3650224375,32.31
2021-07-06 11:37:34.578125000,-64.5,4.0,10.0,85.92218749999999,20.26,2.364942375,32.31
2021-07-06 11:37:34.585937500,-64.75,4.0,10.0,85.92140625,20.595,2.3648623125,32.31
2021-07-06 11:37:34.593750000,-65.0,4.0,10.0,85.920625,20.93,2.36478225,32.31
2021-07-06 11:37:34.601562500,-65.0,4.0,9.75,85.91984375,21.310000000000002,2.3647021875000003,32.31
2021-07-06 11:37:34.609375000,-65.0,4.0,9.5,85.9190625,21.69,2.364622125,32.31
2021-07-06 11:37:34.617187500,-65.0,4.0,9.25,85.91828124999999,21.98,2.3645420625,32.31
2021-07-06 11:37:34.625000000,-65.0,4.0,9.0,85.9175,22.27,2.364462,32.31
2021-07-06 11:37:34.632812500,-64.75,4.0,9.25,85.91671875,22.345,2.3643819375,32.31
2021-07-06 11:37:34.640625000,-64.5,4.0,9.5,85.9159375,22.42,2.364301875,32.31
2021-07-06 11:37:34.648437500,-64.25,4.0,9.75,85.91515625,22.195,2.3642218125,32.31
2021-07-06 11:37:34.656250000,-64.0,4.0,10.0,85.91437499999999,21.97,2.36414175,32.31
2021-07-06 11:37:34.664062500,-64.0,4.0,10.0,85.91359375,21.485,2.3640616875,32.31
2021-07-06 11:37:34.671875000,-64.0,4.0,10.0,85.9128125,21.0,2.363981625,32.31
2021-07-06 11:37:34.679687500,-64.0,4.0,10.0,85.91203125,20.345,2.3639015625,32.31
2021-07-06 11:37:34.687500000,-64.0,4.0,10.0,85.91125,19.69,2.3638215000000002,32.31
2021-07-06 11:37:34.695312500,-64.0,4.25,10.0,85.91046874999999,19.0,2.3637414375,32.31
2021-07-06 11:37:34.703125000,-64.0,4.5,10.0,85.9096875,18.31,2.363661375,32.31
2021-07-06 11:37:34.710937500,-64.0,4.75,10.0,85.90890625,17.68,2.3635813125,32.31
2021-07-06 11:37:34.718750000,-64.0,5.0,10.0,85.908125,17.05,2.36350125,32.31
2021-07-06 11:37:34.726562500,-64.25,4.75,10.0,85.90734375,16.5,2.3634211875,32.31
2021-07-06 11:37:34.734375000,-64.5,4.5,10.0,85.90656249999999,15.95,2.363341125,32.31
2021-07-06 11:37:34.742187500,-64.75,4.25,10.0,85.90578125,15.41,2.3632610625,32.31
2021-07-06 11:37:34.750000000,-65.0,4.0,10.0,85.905,14.87,2.363181,32.31
2021-07-06 11:37:34.757812500,-65.0,4.0,9.75,85.90421875,14.215,2.36290075,32.31
2021-07-06 11:37:34.765625000,-65.0,4.0,9.5,85.9034375,13.56,2.3626205,32.31
2021-07-06 11:37:34.773437500,-65.0,4.0,9.25,85.90265624999999,12.66,2.36234025,32.31
2021-07-06 11:37:34.781250000,-65.0,4.0,9.0,85.901875,11.76,2.36206,32.31
2021-07-06 11:37:34.789062500,-64.75,4.25,9.0,85.90109375,10.559999999999999,2.36177975,32.31
2021-07-06 11:37:34.796875000,-64.5,4.5,9.0,85.9003125,9.36,2.3614995,32.31
2021-07-06 11:37:34.804687500,-64.25,4.75,9.0,85.89953125,7.865,2.36121925,32.31
2021-07-06 11:37:34.812500000,-64.0,5.0,9.0,85.89874999999999,6.37,2.360939,32.31
2021-07-06 11:37:34.820312500,-64.0,4.75,9.0,85.89796875,4.67,2.36065875,32.31
2021-07-06 11:37:34.828125000,-64.0,4.5,9.0,85.8971875,2.97,2.3603785,32.31
2021-07-06 11:37:34.835937500,-64.0,4.25,9.0,85.89640625,1.1700000000000002,2.36009825,32.31
2021-07-06 11:37:34.843750000,-64.0,4.0,9.0,85.895625,-0.63,2.359818,32.31
2021-07-06 11:37:34.851562500,-64.25,4.0,9.0,85.89484374999999,-2.425,2.35953775,32.31
2021-07-06 11:37:34.859375000,-64.5,4.0,9.0,85.89406249999999,-4.22,2.3592575,32.31
2021-07-06 11:37:34.867187500,-64.75,4.0,9.0,85.89328125,-5.945,2.35897725,32.31
2021-07-06 11:37:34.875000000,-65.0,4.0,9.0,85.8925,-7.67,2.3586970000000003,32.31
2021-07-06 11:37:34.882812500,-64.75,4.25,9.0,85.89171875,-9.309999999999999,2.35841675,32.31
2021-07-06 11:37:34.890625000,-64.5,4.5,9.0,85.89093749999999,-10.95,2.3581365,32.31
2021-07-06 11:37:34.898437500,-64.25,4.75,9.0,85.89015624999999,-12.54,2.35785625,32.31
2021-07-06 11:37:34.906250000,-64.0,5.0,9.0,85.889375,-14.13,2.357576,32.31
2021-07-06 11:37:34.914062500,-64.25,4.75,9.0,85.88859375,-15.715,2.35729575,32.31
2021-07-06 11:37:34.921875000,-64.5,4.5,9.0,85.8878125,-17.3,2.3570155,32.31
2021-07-06 11:37:34.929687500,-64.75,4.25,9.0,85.88703124999999,-18.975,2.3567352500000003,32.31
2021-07-06 11:37:34.937500000,-65.0,4.0,9.0,85.88624999999999,-20.65,2.356455,32.31
2021-07-06 11:37:34.945312500,-65.0,4.0,9.0,85.88546875,-22.515,2.35617475,32.31
2021-07-06 11:37:34.953125000,-65.0,4.0,9.0,85.8846875,-24.38,2.3558945000000002,32.31
2021-07-06 11:37:34.960937500,-65.0,4.0,9.0,85.88390625,-26.485,2.35561425,32.31
2021-07-06 11:37:34.968750000,-65.0,4.0,9.0,85.88312499999999,-28.59,2.355334,32.31
2021-07-06 11:37:34.976562500,-65.0,4.0,8.75,85.88234374999999,-30.915,2.35505375,32.31
2021-07-06 11:37:34.984375000,-65.0,4.0,8.5,85.8815625,-33.24,2.3547735000000003,32.31
2021-07-06 11:37:34.992187500,-65.0,4.0,8.25,85.88078125,-35.64,2.35449325,32.31
2021-07-06 11:37:35.000000000,-65.0,4.0,8.0,85.88,-38.04,2.354213,32.31
2021-07-06 11:37:35.007812500,-65.0,4.0,8.25,85.87921874999999,-40.25,2.35433309375,32.31
2021-07-06 11:37:35.015625000,-65.0,4.0,8.5,85.87843749999999,-42.46,2.3544531875,32.31
2021-07-06 11:37:35.023437500,-65.0,4.0,8.75,85.87765625,-44.144999999999996,2.35457328125,32.31
2021-07-06 11:37:35.031250000,-65.0,4.0,9.0,85.876875,-45.83,2.354693375,32.31
2021-07-06 11:37:35.039062500,-65.0,4.0,9.0,85.87609375,-46.625,2.35481346875,32.31
2021-07-06 11:37:35.046875000,-65.0,4.0,9.0,85.87531249999999,-47.42,2.3549335625000003,32.31
2021-07-06 11:37:35.054687500,-65.0,4.0,9.0,85.87453124999999,-47.045,2.35505365625,32.31
2021-07-06 11:37:35.062500000,-65.0,4.0,9.0,85.87375,-46.67,2.35517375,32.31
2021-07-06 11:37:35.070312500,-65.0,4.0,8.75,85.87296875,-45.0,2.35529384375,32.31
2021-07-06 11:37:35.078125000,-65.0,4.0,8.5,85.8721875,-43.33,2.3554139375,32.31
2021-07-06 11:37:35.085937500,-65.0,4.0,8.25,85.87140624999999,-40.415,2.35553403125,32.31
2021-07-06 11:37:35.093750000,-65.0,4.0,8.0,85.87062499999999,-37.5,2.355654125,32.31
2021-07-06 11:37:35.101562500,-65.0,4.0,8.0,85.86984375,-33.62,2.35577421875,32.31
2021-07-06 11:37:35.109375000,-65.0,4.0,8.0,85.8690625,-29.74,2.3558943125000003,32.31
2021-07-06 11:37:35.117187500,-65.0,4.0,8.0,85.86828125,-25.33,2.35601440625,32.31
2021-07-06 11:37:35.125000000,-65.0,4.0,8.0,85.86749999999999,-20.92,2.3561345,32.31
2021-07-06 11:37:35.132812500,-65.0,4.0,8.25,85.86671874999999,-16.485,2.35625459375,32.31
2021-07-06 11:37:35.140625000,-65.0,4.0,8.5,85.8659375,-12.05,2.3563746875,32.31
2021-07-06 11:37:35.148437500,-65.0,4.0,8.75,85.86515625,-8.005,2.35649478125,32.31
2021-07-06 11:37:35.156250000,-65.0,4.0,9.0,85.864375,-3.96,2.356614875,32.31
2021-07-06 11:37:35.164062500,-65.0,4.0,9.0,85.86359374999999,-0.5499999999999998,2.35673496875,32.31
2021-07-06 11:37:35.171875000,-65.0,4.0,9.0,85.86281249999999,2.86,2.3568550625,32.31
2021-07-06 11:37:35.179687500,-65.0,4.0,9.0,85.86203125,5.595000000000001,2.35697515625,32.31
2021-07-06 11:37:35.187500000,-65.0,4.0,9.0,85.86125,8.33,2.35709525,32.31
2021-07-06 11:37:35.195312500,-65.0,4.0,9.0,85.86046875,10.515,2.35721534375,32.31
2021-07-06 11:37:35.203125000,-65.0,4.0,9.0,85.85968749999999,12.7,2.3573354374999997,32.31
2021-07-06 11:37:35.210937500,-65.0,4.0,9.0,85.85890624999999,14.49,2.35745553125,32.31
2021-07-06 11:37:35.218750000,-65.0,4.0,9.0,85.858125,16.28,2.357575625,32.31
2021-07-06 11:37:35.226562500,-65.0,4.0,9.0,85.85734375,17.770000000000003,2.35769571875,32.31
2021-07-06 11:37:35.234375000,-65.0,4.0,9.0,85.8565625,19.26,2.3578158125,32.31
2021-07-06 11:37:35.242187500,-65.0,4.0,9.0,85.85578124999999,20.465000000000003,2.35793590625,32.31
2021-07-06 11:37:35.250000000,-65.0,4.0,9.0,85.85499999999999,21.67,2.358056,32.31
2021-07-06 11:37:35.257812500,-64.75,4.25,9.0,85.85421875,22.525,2.3579759375,32.31
2021-07-06 11:37:35.265625000,-64.5,4.5,9.0,85.8534375,23.38,2.357895875,32.31
2021-07-06 11:37:35.273437500,-64.25,4.75,9.0,85.85265625,23.84,2.3578158125,32.31
2021-07-06 11:37:35.281250000,-64.0,5.0,9.0,85.85187499999999,24.3,2.35773575,32.31
2021-07-06 11:37:35.289062500,-64.25,5.0,8.75,85.85109375,24.42,2.3576556875,32.31
2021-07-06 11:37:35.296875000,-64.5,5.0,8.5,85.8503125,24.54,2.357575625,32.31
2021-07-06 11:37:35.304687500,-64.75,5.0,8.25,85.84953125,24.41,2.3574955625,32.31
2021-07-06 11:37:35.312500000,-65.0,5.0,8.0,85.84875,24.28,2.3574155,32.31
2021-07-06 11:37:35.320312500,-65.0,5.0,8.0,85.84796874999999,24.03,2.3573354375,32.31
2021-07-06 11:37:35.328125000,-65.0,5.0,8.0,85.8471875,23.78,2.357255375,32.31
2021-07-06 11:37:35.335937500,-65.0,5.0,8.0,85.84640625,23.490000000000002,2.3571753125,32.31
2021-07-06 11:37:35.343750000,-65.0,5.0,8.0,85.845625,23.2,2.35709525,32.31
2021-07-06 11:37:35.351562500,-65.0,4.75,8.0,85.84484375,22.905,2.3570151875,32.31
2021-07-06 11:37:35.359375000,-65.0,4.5,8.0,85.84406249999999,22.61,2.356935125,32.31
2021-07-06 11:37:35.367187500,-65.0,4.25,8.0,85.84328125,22.305,2.3568550625,32.31
2021-07-06 11:37:35.375000000,-65.0,4.0,8.0,85.8425,22.0,2.356775,32.31
2021-07-06 11:37:35.382812500,-65.0,4.0,8.0,85.84171875,21.7,2.3566949375,32.31
2021-07-06 11:37:35.390625000,-65.0,4.0,8.0,85.8409375,21.4,2.356614875,32.31
2021-07-06 11:37:35.398437500,-65.0,4.0,8.0,85.84015624999999,21.125,2.3565348125,32.31
2021-07-06 11:37:35.406250000,-65.0,4.0,8.0,85.839375,20.85,2.35645475,32.31
2021-07-06 11:37:35.414062500,-65.0,4.0,8.0,85.83859375,20.6,2.3563746875000002,32.31
2021-07-06 11:37:35.421875000,-65.0,4.0,8.0,85.8378125,20.35,2.3562946250000003,32.31
2021-07-06 11:37:35.429687500,-65.0,4.0,8.0,85.83703125,20.075000000000003,2.3562145625,32.31
2021-07-06 11:37:35.437500000,-65.0,4.0,8.0,85.83624999999999,19.8,2.3561345,32.31
2021-07-06 11:37:35.445312500,-64.75,4.0,8.0,85.83546875,19.39,2.3560544375,32.31
2021-07-06 11:37:35.453125000,-64.5,4.0,8.0,85.8346875,18.98,2.355974375,32.31
2021-07-06 11:37:35.460937500,-64.25,4.0,8.0,85.83390625,18.325000000000003,2.3558943125000003,32.31
2021-07-06 11:37:35.468750000,-64.0,4.0,8.0,85.833125,17.67,2.3558142500000003,32.31
2021-07-06 11:37:35.476562500,-64.25,4.0,8.0,85.83234374999999,16.705000000000002,2.3557341875,32.31
2021-07-06 11:37:35.484375000,-64.5,4.0,8.0,85.8315625,15.74,2.355654125,32.31
2021-07-06 11:37:35.492187500,-64.75,4.0,8.0,85.83078125,14.495000000000001,2.3555740625,32.31
2021-07-06 11:37:35.500000000,-65.0,4.0,8.0,85.83,13.25,2.355494,32.31
2021-07-06 11:37:35.507812500,-65.0,4.0,8.0,85.82921875,11.82,2.35545396875,32.31
2021-07-06 11:37:35.515625000,-65.0,4.0,8.0,85.82843749999999,10.39,2.3554139375000003,32.31
2021-07-06 11:37:35.523437500,-65.0,4.0,8.0,85.82765625,8.870000000000001,2.35537390625,32.31
2021-07-06 11:37:35.531250000,-65.0,4.0,8.0,85.826875,7.35,2.3553338750000004,32.31
2021-07-06 11:37:35.539062500,-65.0,4.0,8.0,85.82609375,5.79,2.35529384375,32.31
2021-07-06 11:37:35.546875000,-65.0,4.0,8.0,85.8253125,4.23,2.3552538125,32.31
2021-07-06 11:37:35.554687500,-65.0,4.0,8.0,85.82453124999999,2.6,2.3552137812500002,32.31
2021-07-06 11:37:35.562500000,-65.0,4.0,8.0,85.82375,0.97,2.35517375,32.31
2021-07-06 11:37:35.570312500,-65.0,4.0,8.25,85.82296875,-0.8150000000000002,2.3551337187500003,32.31
2021-07-06 11:37:35.578125000,-65.0,4.0,8.5,85.8221875,-2.6,2.3550936875,32.31
2021-07-06 11:37:35.585937500,-65.0,4.0,8.75,85.82140625,-4.609999999999999,2.35505365625,32.31
2021-07-06 11:37:35.593750000,-65.0,4.0,9.0,85.82062499999999,-6.62,2.355013625,32.31
2021-07-06 11:37:35.601562500,-65.0,4.0,9.0,85.81984375,-8.845,2.35497359375,32.31
2021-07-06 11:37:35.609375000,-65.0,4.0,9.0,85.8190625,-11.07,2.3549335625000003,32.31
2021-07-06 11:37:35.617187500,-65.0,4.0,9.0,85.81828125,-13.375,2.35489353125,32.31
2021-07-06 11:37:35.625000000,-65.0,4.0,9.0,85.8175,-15.68,2.3548535,32.31
2021-07-06 11:37:35.632812500,-65.0,4.0,9.0,85.81671874999999,-17.9,2.35481346875,32.31
2021-07-06 11:37:35.640625000,-65.0,4.0,9.0,85.8159375,-20.12,2.3547734375,32.31
2021-07-06 11:37:35.648437500,-65.0,4.0,9.0,85.81515625,-22.09,2.3547334062500003,32.31
2021-07-06 11:37:35.656250000,-65.0,4.0,9.0,85.814375,-24.06,2.354693375,32.31
2021-07-06 11:37:35.664062500,-65.0,4.0,8.75,85.81359375,-25.7,2.3546533437500003,32.31
2021-07-06 11:37:35.671875000,-65.0,4.0,8.5,85.81281249999999,-27.34,2.3546133125,32.31
2021-07-06 11:37:35.679687500,-65.0,4.0,8.25,85.81203125,-28.689999999999998,2.35457328125,32.31
2021-07-06 11:37:35.687500000,-65.0,4.0,8.0,85.81125,-30.04,2.3545332500000002,32.31
2021-07-06 11:37:35.695312500,-65.0,4.0,8.25,85.81046875,-31.24,2.35449321875,32.31
2021-07-06 11:37:35.703125000,-65.0,4.0,8.5,85.8096875,-32.44,2.3544531875000003,32.31
2021-07-06 11:37:35.710937500,-65.0,4.0,8.75,85.80890624999999,-33.705,2.35441315625,32.31
2021-07-06 11:37:35.718750000,-65.0,4.0,9.0,85.808125,-34.97,2.354373125,32.31
2021-07-06 11:37:35.726562500,-65.0,4.0,9.0,85.80734375,-36.519999999999996,2.35433309375,32.31
2021-07-06 11:37:35.734375000,-65.0,4.0,9.0,85.8065625,-38.07,2.3542930625,32.31
2021-07-06 11:37:35.742187500,-65.0,4.0,9.0,85.80578125,-40.085,2.3542530312500003,32.31
2021-07-06 11:37:35.750000000,-65.0,4.0,9.0,85.805,-42.1,2.354213,32.31
2021-07-06 11:37:35.757812500,-65.0,4.0,9.0,85.80421875,-44.675,2.35373259375,32.31
2021-07-06 11:37:35.765625000,-65.0,4.0,9.0,85.8034375,-47.25,2.3532521875,32.31
2021-07-06 11:37:35.773437500,-65.0,4.0,9.0,85.80265625,-50.325,2.35277178125,32.31
2021-07-06 11:37:35.781250000,-65.0,4.0,9.0,85.801875,-53.4,2.352291375,32.31
2021-07-06 11:37:35.789062500,-65.0,4.0,8.75,85.80109375,-56.724999999999994,2.35181096875,32.31
2021-07-06 11:37:35.796875000,-65.0,4.0,8.5,85.8003125,-60.05,2.3513305625000003,32.31
2021-07-06 11:37:35.804687500,-65.0,4.0,8.25,85.79953125,-63.14,2.35085015625,32.31
2021-07-06 11:37:35.812500000,-65.0,4.0,8.0,85.79875,-66.23,2.35036975,32.31
2021-07-06 11:37:35.820312500,-65.0,4.0,8.25,85.79796875,-68.435,2.34988934375,32.31
2021-07-06 11:37:35.828125000,-65.0,4.0,8.5,85.7971875,-70.64,2.3494089375,32.31
2021-07-06 11:37:35.835937500,-65.0,4.0,8.75,85.79640625,-71.245,2.34892853125,32.31
2021-07-06 11:37:35.843750000,-65.0,4.0,9.0,85.795625,-71.85,2.348448125,32.31
2021-07-06 11:37:35.851562500,-65.0,4.0,8.75,85.79484375,-70.35,2.34796771875,32.31
2021-07-06 11:37:35.859375000,-65.0,4.0,8.5,85.7940625,-68.85,2.3474873125,32.31
2021-07-06 11:37:35.867187500,-65.0,4.0,8.25,85.79328125,-65.1,2.34700690625,32.31
2021-07-06 11:37:35.875000000,-65.0,4.0,8.0,85.7925,-61.35,2.3465265,32.31
2021-07-06 11:37:35.882812500,-65.0,4.0,8.0,85.79171875,-55.735,2.34604609375,32.31
2021-07-06 11:37:35.890625000,-65.0,4.0,8.0,85.7909375,-50.12,2.3455656874999997,32.31
2021-07-06 11:37:35.898437500,-65.0,4.0,8.0,85.79015625,-43.485,2.34508528125,32.31
2021-07-06 11:37:35.906250000,-65.0,4.0,8.0,85.789375,-36.85,2.344604875,32.31
2021-07-06 11:37:35.914062500,-65.0,4.0,8.25,85.78859375,-30.240000000000002,2.34412446875,32.31
2021-07-06 11:37:35.921875000,-65.0,4.0,8.5,85.7878125,-23.63,2.3436440625,32.31
2021-07-06 11:37:35.929687500,-65.0,4.0,8.75,85.78703125,-17.97,2.34316365625,32.31
2021-07-06 11:37:35.937500000,-65.0,4.0,9.0,85.78625,-12.31,2.34268325,32.31
2021-07-06 11:37:35.945312500,-65.0,4.0,9.0,85.78546875,-8.085,2.34220284375,32.31
2021-07-06 11:37:35.953125000,-65.0,4.0,9.0,85.7846875,-3.86,2.3417224374999996,32.31
2021-07-06 11:37:35.960937500,-65.0,4.0,9.0,85.78390625,-1.0349999999999997,2.3412420312499997,32.31
2021-07-06 11:37:35.968750000,-65.0,4.0,9.0,85.783125,1.79,2.340761625,32.31
2021-07-06 11:37:35.976562500,-65.0,4.0,8.75,85.78234375,3.68,2.34028121875,32.31
2021-07-06 11:37:35.984375000,-65.0,4.0,8.5,85.7815625,5.57,2.3398008125,32.31
2021-07-06 11:37:35.992187500,-65.0,4.0,8.25,85.78078125,7.140000000000001,2.3393204062499997,32.31
2021-07-06 11:37:36.000000000,-65.0,4.0,8.0,85.78,8.71,2.33884,32.31
2021-07-06 11:37:36.007812500,-65.0,4.0,8.25,85.778203125,10.465,2.3392003124999996,32.310625
2021-07-06 11:37:36.015625000,-65.0,4.0,8.5,85.77640625000001,12.22,2.339560625,32.31125
2021-07-06 11:37:36.023437500,-65.0,4.0,8.75,85.774609375,14.370000000000001,2.3399209374999996,32.311875
2021-07-06 11:37:36.031250000,-65.0,4.0,9.0,85.7728125,16.52,2.34028125,32.3125
2021-07-06 11:37:36.039062500,-65.0,3.75,8.75,85.771015625,19.0,2.3406415624999997,32.313125
2021-07-06 11:37:36.046875000,-65.0,3.5,8.5,85.76921875000001,21.48,2.341001875,32.31375
2021-07-06 11:37:36.054687500,-65.0,3.25,8.25,85.767421875,24.05,2.3413621874999997,32.314375
2021-07-06 11:37:36.062500000,-65.0,3.0,8.0,85.765625,26.62,2.3417225,32.315
2021-07-06 11:37:36.070312500,-65.0,3.25,8.0,85.763828125,29.045,2.3420828124999997,32.315625000000004
2021-07-06 11:37:36.078125000,-65.0,3.5,8.0,85.76203125,31.47,2.342443125,32.316250000000004
2021-07-06 11:37:36.085937500,-65.0,3.75,8.0,85.760234375,33.599999999999994,2.3428034374999998,32.316875
2021-07-06 11:37:36.093750000,-65.0,4.0,8.0,85.7584375,35.73,2.34316375,32.3175
2021-07-06 11:37:36.101562500,-64.75,4.0,8.0,85.756640625,37.535,2.3435240625,32.318125
2021-07-06 11:37:36.109375000,-64.5,4.0,8.0,85.75484375,39.34,2.343884375,32.31875
2021-07-06 11:37:36.117187500,-64.25,4.0,8.0,85.753046875,40.865,2.3442446875,32.319375
2021-07-06 11:37:36.125000000,-64.0,4.0,8.0,85.75125,42.39,2.3446049999999996,32.32
2021-07-06 11:37:36.132812500,-64.25,4.0,8.25,85.749453125,43.69,2.3449653125,32.320625
2021-07-06 11:37:36.140625000,-64.5,4.0,8.5,85.74765625,44.99,2.3453256249999996,32.32125
2021-07-06 11:37:36.148437500,-64.75,4.0,8.75,85.745859375,46.095,2.3456859375,32.321875
2021-07-06 11:37:36.156250000,-65.0,4.0,9.0,85.7440625,47.2,2.3460462499999997,32.3225
2021-07-06 11:37:36.164062500,-65.0,4.0,8.75,85.742265625,48.095,2.3464065625,32.323125
2021-07-06 11:37:36.171875000,-65.0,4.0,8.5,85.74046875,48.99,2.3467668749999997,32.32375
2021-07-06 11:37:36.179687500,-65.0,4.0,8.25,85.738671875,49.620000000000005,2.3471271875,32.324374999999996
2021-07-06 11:37:36.187500000,-65.0,4.0,8.0,85.736875,50.25,2.3474874999999997,32.325
2021-07-06 11:37:36.195312500,-65.0,4.0,8.0,85.735078125,50.54,2.3478478125,32.325625
2021-07-06 11:37:36.203125000,-65.0,4.0,8.0,85.73328125,50.83,2.3482081249999998,32.32625
2021-07-06 11:37:36.210937500,-65.0,4.0,8.0,85.731484375,50.739999999999995,2.3485684375,32.326875
2021-07-06 11:37:36.218750000,-65.0,4.0,8.0,85.7296875,50.65,2.34892875,32.3275
2021-07-06 11:37:36.226562500,-65.0,4.25,8.25,85.727890625,50.16,2.3492890625,32.328125
2021-07-06 11:37:36.234375000,-65.0,4.5,8.5,85.72609375,49.67,2.349649375,32.32875
2021-07-06 11:37:36.242187500,-65.0,4.75,8.75,85.724296875,48.82,2.3500096875,32.329375
2021-07-06 11:37:36.250000000,-65.0,5.0,9.0,85.7225,47.97,2.35037,32.33
2021-07-06 11:37:36.257812500,-64.75,5.0,9.0,85.720703125,46.82,2.3501297812499997,32.33
2021-07-06 11:37:36.265625000,-64.5,5.0,9.0,85.71890625,45.67,2.3498895625,32.33
2021-07-06 11:37:36.273437500,-64.25,5.0,9.0,85.717109375,44.3,2.34964934375,32.33
2021-07-06 11:37:36.281250000,-64.0,5.0,9.0,85.7153125,42.93,2.3494091249999998,32.33
2021-07-06 11:37:36.289062500,-64.25,4.75,8.75,85.713515625,41.379999999999995,2.34916890625,32.33
2021-07-06 11:37:36.296875000,-64.5,4.5,8.5,85.71171875,39.83,2.3489286875,32.33
2021-07-06 11:37:36.304687500,-64.75,4.25,8.25,85.709921875,38.11,2.34868846875,32.33
2021-07-06 11:37:36.312500000,-65.0,4.0,8.0,85.708125,36.39,2.3484482499999997,32.33
2021-07-06 11:37:36.320312500,-65.0,3.75,8.0,85.706328125,34.475,2.34820803125,32.33
2021-07-06 11:37:36.328125000,-65.0,3.5,8.0,85.70453125,32.56,2.3479678125,32.33
2021-07-06 11:37:36.335937500,-65.0,3.25,8.0,85.702734375,30.42,2.3477275937499997,32.33
2021-07-06 11:37:36.343750000,-65.0,3.0,8.0,85.7009375,28.28,2.347487375,32.33
2021-07-06 11:37:36.351562500,-65.0,3.25,8.0,85.699140625,25.955,2.34724715625,32.33
2021-07-06 11:37:36.359375000,-65.0,3.5,8.0,85.69734375,23.63,2.3470069375,32.33
2021-07-06 11:37:36.367187500,-65.0,3.75,8.0,85.695546875,21.195,2.34676671875,32.33
2021-07-06 11:37:36.375000000,-65.0,4.0,8.0,85.69375,18.76,2.3465265,32.33
2021-07-06 11:37:36.382812500,-65.0,4.0,8.0,85.691953125,16.355,2.34628628125,32.33
2021-07-06 11:37:36.390625000,-65.0,4.0,8.0,85.69015625,13.95,2.3460460625,32.33
2021-07-06 11:37:36.398437500,-65.0,4.0,8.0,85.688359375,11.684999999999999,2.34580584375,32.33
2021-07-06 11:37:36.406250000,-65.0,4.0,8.0,85.6865625,9.42,2.345565625,32.33
2021-07-06 11:37:36.414062500,-65.0,4.0,8.0,85.684765625,7.390000000000001,2.34532540625,32.33
2021-07-06 11:37:36.421875000,-65.0,4.0,8.0,85.68296875,5.36,2.3450851875,32.33
2021-07-06 11:37:36.429687500,-65.0,4.0,8.0,85.681171875,3.6,2.34484496875,32.33
2021-07-06 11:37:36.437500000,-65.0,4.0,8.0,85.679375,1.84,2.3446047500000002,32.33
2021-07-06 11:37:36.445312500,-65.0,4.0,8.0,85.677578125,0.365,2.34436453125,32.33
2021-07-06 11:37:36.453125000,-65.0,4.0,8.0,85.67578125,-1.11,2.3441243125,32.33
2021-07-06 11:37:36.460937500,-65.0,4.0,8.0,85.673984375,-2.26,2.34388409375,32.33
2021-07-06 11:37:36.468750000,-65.0,4.0,8.0,85.67218749999999,-3.41,2.343643875,32.33
2021-07-06 11:37:36.476562500,-65.0,4.0,8.0,85.670390625,-4.225,2.34340365625,32.33
2021-07-06 11:37:36.484375000,-65.0,4.0,8.0,85.66859375,-5.04,2.3431634375,32.33
2021-07-06 11:37:36.492187500,-65.0,4.0,8.0,85.666796875,-5.54,2.34292321875,32.33
2021-07-06 11:37:36.500000000,-65.0,4.0,8.0,85.66499999999999,-6.04,2.342683,32.33
2021-07-06 11:37:36.507812500,-65.0,4.0,8.25,85.663203125,-6.37,2.3427230312500003,32.33
2021-07-06 11:37:36.515625000,-65.0,4.0,8.5,85.66140625,-6.7,2.3427630625,32.33
2021-07-06 11:37:36.523437500,-65.0,4.0,8.75,85.659609375,-7.140000000000001,2.34280309375,32.33
2021-07-06 11:37:36.531250000,-65.0,4.0,9.0,85.6578125,-7.58,2.342843125,32.33
2021-07-06 11:37:36.539062500,-65.0,4.25,8.75,85.656015625,-8.5,2.34288315625,32.33
2021-07-06 11:37:36.546875000,-65.0,4.5,8.5,85.65421875,-9.42,2.3429231875000003,32.33
2021-07-06 11:37:36.554687500,-65.0,4.75,8.25,85.652421875,-11.145,2.34296321875,32.33
2021-07-06 11:37:36.562500000,-65.0,5.0,8.0,85.650625,-12.87,2.34300325,32.33
2021-07-06 11:37:36.570312500,-64.75,5.0,8.0,85.648828125,-15.54,2.34304328125,32.33
2021-07-06 11:37:36.578125000,-64.5,5.0,8.0,85.64703125,-18.21,2.3430833125,32.33
2021-07-06 11:37:36.585937500,-64.25,5.0,8.0,85.645234375,-21.68,2.3431233437500003,32.33
2021-07-06 11:37:36.593750000,-64.0,5.0,8.0,85.6434375,-25.15,2.343163375,32.33
2021-07-06 11:37:36.601562500,-64.0,4.75,8.25,85.641640625,-28.965,2.3432034062500002,32.33
2021-07-06 11:37:36.609375000,-64.0,4.5,8.5,85.63984375,-32.78,2.3432434375,32.33
2021-07-06 11:37:36.617187500,-64.0,4.25,8.75,85.638046875,-36.295,2.34328346875,32.33
2021-07-06 11:37:36.625000000,-64.0,4.0,9.0,85.63625,-39.81,2.3433235000000003,32.33
2021-07-06 11:37:36.632812500,-64.25,3.75,8.75,85.634453125,-42.375,2.34336353125,32.33
2021-07-06 11:37:36.640625000,-64.5,3.5,8.5,85.63265625,-44.94,2.3434035625000003,32.33
2021-07-06 11:37:36.648437500,-64.75,3.25,8.25,85.630859375,-46.065,2.34344359375,32.33
2021-07-06 11:37:36.656250000,-65.0,3.0,8.0,85.6290625,-47.19,2.343483625,32.33
2021-07-06 11:37:36.664062500,-65.0,3.25,8.0,85.62726562499999,-46.665,2.34352365625,32.33
2021-07-06 11:37:36.671875000,-65.0,3.5,8.0,85.62546875,-46.14,2.3435636875,32.33
2021-07-06 11:37:36.679687500,-65.0,3.75,8.0,85.623671875,-44.105000000000004,2.3436037187500003,32.33
2021-07-06 11:37:36.687500000,-65.0,4.0,8.0,85.621875,-42.07,2.34364375,32.33
2021-07-06 11:37:36.695312500,-65.0,4.0,8.25,85.62007812499999,-38.894999999999996,2.34368378125,32.33
2021-07-06 11:37:36.703125000,-65.0,4.0,8.5,85.61828125,-35.72,2.3437238125,32.33
2021-07-06 11:37:36.710937500,-65.0,4.0,8.75,85.616484375,-31.915,2.34376384375,32.33
2021-07-06 11:37:36.718750000,-65.0,4.0,9.0,85.6146875,-28.11,2.3438038750000003,32.33
2021-07-06 11:37:36.726562500,-65.0,4.0,8.75,85.61289062499999,-24.17,2.34384390625,32.33
2021-07-06 11:37:36.734375000,-65.0,4.0,8.5,85.61109375,-20.23,2.3438839375000002,32.33
2021-07-06 11:37:36.742187500,-65.0,4.0,8.25,85.609296875,-16.53,2.34392396875,32.33
2021-07-06 11:37:36.750000000,-65.0,4.0,8.0,85.6075,-12.83,2.343964,32.33
2021-07-06 11:37:36.757812500,-65.0,4.0,8.0,85.605703125,-9.57,2.34364371875,32.33
2021-07-06 11:37:36.765625000,-65.0,4.0,8.0,85.60390625,-6.31,2.3433234375,32.33
2021-07-06 11:37:36.773437500,-65.0,4.0,8.0,85.602109375,-3.525,2.34300315625,32.33
2021-07-06 11:37:36.781250000,-65.0,4.0,8.0,85.6003125,-0.74,2.3426828750000004,32.33
2021-07-06 11:37:36.789062500,-65.0,4.0,8.0,85.598515625,1.6199999999999999,2.3423625937500003,32.33
2021-07-06 11:37:36.796875000,-65.0,4.0,8.0,85.59671875,3.98,2.3420423125000003,32.33
2021-07-06 11:37:36.804687500,-65.0,4.0,8.0,85.594921875,5.984999999999999,2.3417220312500002,32.33
2021-07-06 11:37:36.812500000,-65.0,4.0,8.0,85.593125,7.99,2.34140175,32.33
2021-07-06 11:37:36.820312500,-65.0,4.25,8.0,85.591328125,9.68,2.34108146875,32.33
2021-07-06 11:37:36.828125000,-65.0,4.5,8.0,85.58953125,11.37,2.3407611875,32.33
2021-07-06 11:37:36.835937500,-65.0,4.75,8.0,85.587734375,12.735,2.34044090625,32.33
2021-07-06 11:37:36.843750000,-65.0,5.0,8.0,85.5859375,14.1,2.340120625,32.33
2021-07-06 11:37:36.851562500,-64.75,5.0,8.25,85.584140625,15.14,2.3398003437500003,32.33
2021-07-06 11:37:36.859375000,-64.5,5.0,8.5,85.58234374999999,16.18,2.3394800625000003,32.33
2021-07-06 11:37:36.867187500,-64.25,5.0,8.75,85.580546875,16.89,2.3391597812500002,32.33
2021-07-06 11:37:36.875000000,-64.0,5.0,9.0,85.57875,17.6,2.3388395,32.33
2021-07-06 11:37:36.882812500,-64.25,4.75,8.75,85.576953125,18.045,2.33851921875,32.33
2021-07-06 11:37:36.890625000,-64.5,4.5,8.5,85.57515624999999,18.49,2.3381989375,32.33
2021-07-06 11:37:36.898437500,-64.75,4.25,8.25,85.573359375,18.755,2.33787865625,32.33
2021-07-06 11:37:36.906250000,-65.0,4.0,8.0,85.5715625,19.02,2.3375583750000004,32.33
2021-07-06 11:37:36.914062500,-65.0,3.75,8.0,85.569765625,19.185000000000002,2.3372380937500004,32.33
2021-07-06 11:37:36.921875000,-65.0,3.5,8.0,85.56796874999999,19.35,2.3369178125000003,32.33
2021-07-06 11:37:36.929687500,-65.0,3.25,8.0,85.566171875,19.485,2.3365975312500002,32.33
2021-07-06 11:37:36.937500000,-65.0,3.0,8.0,85.564375,19.62,2.33627725,32.33
2021-07-06 11:37:36.945312500,-65.0,3.25,8.0,85.562578125,19.715,2.33595696875,32.33
2021-07-06 11:37:36.953125000,-65.0,3.5,8.0,85.56078124999999,19.81,2.3356366875,32.33
2021-07-06 11:37:36.960937500,-65.0,3.75,8.0,85.558984375,19.854999999999997,2.33531640625,32.33
2021-07-06 11:37:36.968750000,-65.0,4.0,8.0,85.5571875,19.9,2.334996125,32.33
2021-07-06 11:37:36.976562500,-65.0,4.0,8.0,85.555390625,19.86,2.3346758437500004,32.33
2021-07-06 11:37:36.984375000,-65.0,4.0,8.0,85.55359374999999,19.82,2.3343555625000003,32.33
2021-07-06 11:37:36.992187500,-65.0,4.0,8.0,85.551796875,19.7,2.3340352812500003,32.33
2021-07-06 11:37:37.000000000,-65.0,4.0,8.0,85.55,19.58,2.333715,32.33
2021-07-06 11:37:37.007812500,-65.0,4.0,8.25,85.548984375,19.39,2.333715,32.33
2021-07-06 11:37:37.015625000,-65.0,4.0,8.5,85.54796875,19.2,2.333715,32.33
2021-07-06 11:37:37.023437500,-65.0,4.0,8.75,85.546953125,18.97,2.333715,32.33
2021-07-06 11:37:37.031250000,-65.0,4.0,9.0,85.5459375,18.74,2.333715,32.33
2021-07-06 11:37:37.039062500,-65.0,4.0,8.75,85.544921875,18.47,2.333715,32.33
2021-07-06 11:37:37.046875000,-65.0,4.0,8.5,85.54390624999999,18.2,2.333715,32.33
2021-07-06 11:37:37.054687500,-65.0,4.0,8.25,85.542890625,17.84,2.333715,32.33
2021-07-06 11:37:37.062500000,-65.0,4.0,8.0,85.541875,17.48,2.333715,32.33
2021-07-06 11:37:37.070312500,-64.75,4.0,8.25,85.540859375,16.965,2.333715,32.33
2021-07-06 11:37:37.078125000,-64.5,4.0,8.5,85.53984375,16.45,2.333715,32.33
2021-07-06 11:37:37.085937500,-64.25,4.0,8.75,85.538828125,15.67,2.333715,32.33
2021-07-06 11:37:37.093750000,-64.0,4.0,9.0,85.5378125,14.89,2.333715,32.33
2021-07-06 11:37:37.101562500,-64.25,4.0,9.0,85.536796875,13.780000000000001,2.333715,32.33
2021-07-06 11:37:37.109375000,-64.5,4.0,9.0,85.53578125,12.67,2.333715,32.33
2021-07-06 11:37:37.117187500,-64.75,4.0,9.0,85.53476562499999,11.195,2.333715,32.33
2021-07-06 11:37:37.125000000,-65.0,4.0,9.0,85.53375,9.72,2.333715,32.33
2021-07-06 11:37:37.132812500,-65.0,4.0,8.75,85.532734375,7.9350000000000005,2.333715,32.33
2021-07-06 11:37:37.140625000,-65.0,4.0,8.5,85.53171875,6.15,2.333715,32.33
2021-07-06 11:37:37.148437500,-65.0,4.0,8.25,85.530703125,4.1850000000000005,2.333715,32.33
2021-07-06 11:37:37.156250000,-65.0,4.0,8.0,85.5296875,2.22,2.333715,32.33
2021-07-06 11:37:37.164062500,-65.0,4.0,8.0,85.528671875,0.25,2.333715,32.33
2021-07-06 11:37:37.171875000,-65.0,4.0,8.0,85.52765624999999,-1.72,2.333715,32.33
2021-07-06 11:37:37.179687500,-65.0,4.0,8.0,85.526640625,-3.545,2.333715,32.33
2021-07-06 11:37:37.187500000,-65.0,4.0,8.0,85.52562499999999,-5.37,2.333715,32.33
2021-07-06 11:37:37.195312500,-65.0,4.0,8.0,85.524609375,-6.945,2.333715,32.33
2021-07-06 11:37:37.203125000,-65.0,4.0,8.0,85.52359375,-8.52,2.333715,32.33
2021-07-06 11:37:37.210937500,-65.0,4.0,8.0,85.522578125,-9.855,2.333715,32.33
2021-07-06 11:37:37.218750000,-65.0,4.0,8.0,85.5215625,-11.19,2.333715,32.33
2021-07-06 11:37:37.226562500,-65.0,4.0,8.25,85.520546875,-12.35,2.333715,32.33
2021-07-06 11:37:37.234375000,-65.0,4.0,8.5,85.51953125,-13.51,2.333715,32.33
2021-07-06 11:37:37.242187500,-65.0,4.0,8.75,85.51851562499999,-14.620000000000001,2.333715,32.33
2021-07-06 11:37:37.250000000,-65.0,4.0,9.0,85.5175,-15.73,2.333715,32.33
2021-07-06 11:37:37.257812500,-65.0,4.0,8.75,85.516484375,-16.91,2.3336349375000003,32.33
2021-07-06 11:37:37.265625000,-65.0,4.0,8.5,85.51546875,-18.09,2.3335548750000004,32.33
2021-07-06 11:37:37.273437500,-65.0,4.0,8.25,85.514453125,-19.439999999999998,2.3334748125,32.33
2021-07-06 11:37:37.281250000,-65.0,4.0,8.0,85.5134375,-20.79,2.33339475,32.33
2021-07-06 11:37:37.289062500,-65.0,4.0,8.0,85.512421875,-22.38,2.3333146875,32.33
2021-07-06 11:37:37.296875000,-65.0,4.0,8.0,85.51140625,-23.97,2.3332346250000002,32.33
2021-07-06 11:37:37.304687500,-65.0,4.0,8.0,85.510390625,-25.825,2.3331545625000003,32.33
2021-07-06 11:37:37.312500000,-65.0,4.0,8.0,85.509375,-27.68,2.3330745000000004,32.33
2021-07-06 11:37:37.320312500,-65.0,4.0,8.0,85.508359375,-29.785,2.3329944375,32.33
2021-07-06 11:37:37.328125000,-65.0,4.0,8.0,85.50734375,-31.89,2.332914375,32.33
2021-07-06 11:37:37.335937500,-65.0,4.0,8.0,85.506328125,-34.16,2.3328343125,32.33
2021-07-06 11:37:37.343750000,-65.0,4.0,8.0,85.5053125,-36.43,2.3327542500000003,32.33
2021-07-06 11:37:37.351562500,-64.75,4.0,8.0,85.504296875,-38.685,2.3326741875000003,32.33
2021-07-06 11:37:37.359375000,-64.5,4.0,8.0,85.50328125,-40.94,2.332594125,32.33
2021-07-06 11:37:37.367187500,-64.25,4.0,8.0,85.50226562499999,-42.925,2.3325140625,32.33
2021-07-06 11:37:37.375000000,-64.0,4.0,8.0,85.50125,-44.91,2.332434,32.33
2021-07-06 11:37:37.382812500,-64.25,4.0,8.0,85.500234375,-46.29,2.3323539375,32.33
2021-07-06 11:37:37.390625000,-64.5,4.0,8.0,85.49921875,-47.67,2.3322738750000003,32.33
2021-07-06 11:37:37.398437500,-64.75,4.0,8.0,85.498203125,-48.13,2.3321938125,32.33
2021-07-06 11:37:37.406250000,-65.0,4.0,8.0,85.4971875,-48.59,2.33211375,32.33
2021-07-06 11:37:37.414062500,-65.0,4.0,8.0,85.496171875,-47.925,2.3320336875,32.33
2021-07-06 11:37:37.421875000,-65.0,4.0,8.0,85.49515625,-47.26,2.331953625,32.33
2021-07-06 11:37:37.429687500,-65.0,4.0,8.0,85.494140625,-45.39,2.3318735625,32.33
2021-07-06 11:37:37.437500000,-65.0,4.0,8.0,85.49312499999999,-43.52,2.3317935,32.33
2021-07-06 11:37:37.445312500,-65.0,4.0,8.0,85.492109375,-40.575,2.3317134375,32.33
2021-07-06 11:37:37.453125000,-65.0,4.0,8.0,85.49109375,-37.63,2.331633375,32.33
2021-07-06 11:37:37.460937500,-65.0,4.0,8.0,85.490078125,-33.885000000000005,2.3315533125,32.33
2021-07-06 11:37:37.468750000,-65.0,4.0,8.0,85.4890625,-30.14,2.33147325,32.33
2021-07-06 11:37:37.476562500,-65.0,4.0,8.0,85.488046875,-25.935000000000002,2.3313931875000002,32.33
2021-07-06 11:37:37.484375000,-65.0,4.0,8.0,85.48703125,-21.73,2.331313125,32.33
2021-07-06 11:37:37.492187500,-65.0,4.0,8.0,85.486015625,-17.415,2.3312330625,32.33
2021-07-06 11:37:37.500000000,-65.0,4.0,8.0,85.485,-13.1,2.331153,32.33
2021-07-06 11:37:37.507812500,-65.0,4.0,8.0,85.483984375,-8.95,2.33103290625,32.33
2021-07-06 11:37:37.515625000,-65.0,4.0,8.0,85.48296875,-4.8,2.3309128125000003,32.33
2021-07-06 11:37:37.523437500,-65.0,4.0,8.0,85.481953125,-0.98,2.33079271875,32.33
2021-07-06 11:37:37.531250000,-65.0,4.0,8.0,85.4809375,2.84,2.330672625,32.33
2021-07-06 11:37:37.539062500,-65.0,4.0,8.0,85.479921875,6.225,2.33055253125,32.33
2021-07-06 11:37:37.546875000,-65.0,4.0,8.0,85.47890625,9.61,2.3304324375,32.33
2021-07-06 11:37:37.554687500,-65.0,4.0,8.0,85.477890625,12.51,2.33031234375,32.33
2021-07-06 11:37:37.562500000,-65.0,4.0,8.0,85.476875,15.41,2.33019225,32.33
2021-07-06 11:37:37.570312500,-65.0,4.0,8.0,85.475859375,17.78,2.33007215625,32.33
2021-07-06 11:37:37.578125000,-65.0,4.0,8.0,85.47484375,20.15,2.3299520625000003,32.33
2021-07-06 11:37:37.585937500,-65.0,4.0,8.0,85.473828125,21.939999999999998,2.32983196875,32.33
2021-07-06 11:37:37.593750000,-65.0,4.0,8.0,85.4728125,23.73,2.329711875,32.33
2021-07-06 11:37:37.601562500,-65.0,4.0,8.0,85.471796875,24.9,2.32959178125,32.33
2021-07-06 11:37:37.609375000,-65.0,4.0,8.0,85.47078125,26.07,2.3294716875,32.33
2021-07-06 11:37:37.617187500,-65.0,4.0,8.0,85.469765625,26.64,2.3293515937500002,32.33
2021-07-06 11:37:37.625000000,-65.0,4.0,8.0,85.46875,27.21,2.3292315,32.33
2021-07-06 11:37:37.632812500,-65.0,4.0,8.0,85.467734375,27.265,2.32911140625,32.33
2021-07-06 11:37:37.640625000,-65.0,4.0,8.0,85.46671875,27.32,2.3289913125000004,32.33
2021-07-06 11:37:37.648437500,-65.0,4.0,8.0,85.465703125,26.995,2.3288712187500002,32.33
2021-07-06 11:37:37.656250000,-65.0,4.0,8.0,85.4646875,26.67,2.328751125,32.33
2021-07-06 11:37:37.664062500,-65.0,4.0,8.0,85.463671875,26.14,2.32863103125,32.33
2021-07-06 11:37:37.671875000,-65.0,4.0,8.0,85.46265625,25.61,2.3285109375,32.33
2021-07-06 11:37:37.679687500,-65.0,4.0,8.0,85.461640625,25.035,2.3283908437500003,32.33
2021-07-06 11:37:37.687500000,-65.0,4.0,8.0,85.460625,24.46,2.32827075,32.33
2021-07-06 11:37:37.695312500,-65.0,4.0,8.0,85.459609375,23.950000000000003,2.32815065625,32.33
2021-07-06 11:37:37.703125000,-65.0,4.0,8.0,85.45859375,23.44,2.3280305625000004,32.33
2021-07-06 11:37:37.710937500,-65.0,4.0,8.0,85.457578125,23.035,2.3279104687500003,32.33
2021-07-06 11:37:37.718750000,-65.0,4.0,8.0,85.4565625,22.63,2.327790375,32.33
2021-07-06 11:37:37.726562500,-65.0,4.0,8.0,85.455546875,22.31,2.32767028125,32.33
2021-07-06 11:37:37.734375000,-65.0,4.0,8.0,85.45453125,21.99,2.3275501875,32.33
2021-07-06 11:37:37.742187500,-65.0,4.0,8.0,85.453515625,21.695,2.3274300937500003,32.33
2021-07-06 11:37:37.750000000,-65.0,4.0,8.0,85.4525,21.4,2.32731,32.33
2021-07-06 11:37:37.757812500,-65.0,4.0,8.25,85.451484375,21.064999999999998,2.3272299375000003,32.33
2021-07-06 11:37:37.765625000,-65.0,4.0,8.5,85.45046875,20.73,2.3271498750000004,32.33
2021-07-06 11:37:37.773437500,-65.0,4.0,8.75,85.449453125,20.32,2.3270698125,32.33
2021-07-06 11:37:37.781250000,-65.0,4.0,9.0,85.4484375,19.91,2.32698975,32.33
2021-07-06 11:37:37.789062500,-65.0,4.0,9.0,85.447421875,19.42,2.3269096875,32.33
2021-07-06 11:37:37.796875000,-65.0,4.0,9.0,85.44640625,18.93,2.3268296250000002,32.33
2021-07-06 11:37:37.804687500,-65.0,4.0,9.0,85.445390625,18.4,2.3267495625000003,32.33
2021-07-06 11:37:37.812500000,-65.0,4.0,9.0,85.44437500000001,17.87,2.3266695000000004,32.33
2021-07-06 11:37:37.820312500,-65.0,4.0,8.75,85.443359375,17.33,2.3265894375,32.33
2021-07-06 11:37:37.828125000,-65.0,4.0,8.5,85.44234375,16.79,2.326509375,32.33
2021-07-06 11:37:37.835937500,-65.0,4.0,8.25,85.441328125,16.23,2.3264293125,32.33
2021-07-06 11:37:37.843750000,-65.0,4.0,8.0,85.4403125,15.67,2.3263492500000003,32.33
2021-07-06 11:37:37.851562500,-65.0,4.0,8.0,85.439296875,15.030000000000001,2.3262691875000003,32.33
2021-07-06 11:37:37.859375000,-65.0,4.0,8.0,85.43828125,14.39,2.326189125,32.33
2021-07-06 11:37:37.867187500,-65.0,4.0,8.0,85.437265625,13.575,2.3261090625,32.33
2021-07-06 11:37:37.875000000,-65.0,4.0,8.0,85.43625,12.76,2.326029,32.33
2021-07-06 11:37:37.882812500,-65.0,4.0,8.25,85.43523437500001,11.675,2.3259489375,32.33
2021-07-06 11:37:37.890625000,-65.0,4.0,8.5,85.43421875,10.59,2.3258688750000003,32.33
2021-07-06 11:37:37.898437500,-65.0,4.0,8.75,85.433203125,9.225,2.3257888125,32.33
2021-07-06 11:37:37.906250000,-65.0,4.0,9.0,85.4321875,7.86,2.32570875,32.33
2021-07-06 11:37:37.914062500,-65.0,4.0,8.75,85.431171875,6.275,2.3256286875,32.33
2021-07-06 11:37:37.921875000,-65.0,4.0,8.5,85.43015625,4.69,2.325548625,32.33
2021-07-06 11:37:37.929687500,-65.0,4.0,8.25,85.429140625,3.0250000000000004,2.3254685625000002,32.33
2021-07-06 11:37:37.937500000,-65.0,4.0,8.0,85.428125,1.36,2.3253885,32.33
2021-07-06 11:37:37.945312500,-65.0,4.0,8.0,85.427109375,-0.2550000000000001,2.3253084375,32.33
2021-07-06 11:37:37.953125000,-65.0,4.0,8.0,85.42609375,-1.87,2.325228375,32.33
2021-07-06 11:37:37.960937500,-65.0,4.0,8.0,85.425078125,-3.375,2.3251483125,32.33
2021-07-06 11:37:37.968750000,-65.0,4.0,8.0,85.4240625,-4.88,2.32506825,32.33
2021-07-06 11:37:37.976562500,-65.0,4.0,8.0,85.423046875,-6.29,2.3249881875000002,32.33
2021-07-06 11:37:37.984375000,-65.0,4.0,8.0,85.42203125,-7.7,2.324908125,32.33
2021-07-06 11:37:37.992187500,-65.0,4.0,8.0,85.421015625,-9.135,2.3248280625,32.33
2021-07-06 11:37:38.000000000,-65.0,4.0,8.0,85.42,-10.57,2.324748,32.33
2021-07-06 11:37:38.007812500,-65.0,4.0,8.0,85.418828125,-12.195,2.3246679375,32.329375
2021-07-06 11:37:38.015625000,-65.0,4.0,8.0,85.41765625000001,-13.82,2.324587875,32.32875
2021-07-06 11:37:38.023437500,-65.0,4.0,8.0,85.416484375,-15.77,2.3245078125,32.328125
2021-07-06 11:37:38.031250000,-65.0,4.0,8.0,85.4153125,-17.72,2.32442775,32.3275
2021-07-06 11:37:38.039062500,-64.75,4.0,8.0,85.414140625,-20.08,2.3243476875,32.326875
2021-07-06 11:37:38.046875000,-64.5,4.0,8.0,85.41296875,-22.44,2.324267625,32.32625
2021-07-06 11:37:38.054687500,-64.25,4.0,8.0,85.41179687500001,-25.145000000000003,2.3241875625,32.325625
2021-07-06 11:37:38.062500000,-64.0,4.0,8.0,85.410625,-27.85,2.3241075,32.325
2021-07-06 11:37:38.070312500,-64.25,4.0,8.0,85.409453125,-30.705000000000002,2.3240274375,32.324374999999996
2021-07-06 11:37:38.078125000,-64.5,4.0,8.0,85.40828125,-33.56,2.323947375,32.32375
2021-07-06 11:37:38.085937500,-64.75,4.0,8.0,85.407109375,-36.205,2.3238673125,32.323125
2021-07-06 11:37:38.093750000,-65.0,4.0,8.0,85.40593750000001,-38.85,2.32378725,32.3225
2021-07-06 11:37:38.101562500,-65.0,4.0,8.0,85.404765625,-40.855000000000004,2.3237071875,32.321875
2021-07-06 11:37:38.109375000,-65.0,4.0,8.0,85.40359375,-42.86,2.323627125,32.32125
2021-07-06 11:37:38.117187500,-65.0,4.0,8.0,85.402421875,-43.8,2.3235470625,32.320625
2021-07-06 11:37:38.125000000,-65.0,4.0,8.0,85.40125,-44.74,2.323467,32.32
2021-07-06 11:37:38.132812500,-64.75,4.0,8.0,85.40007812500001,-44.35,2.3233869375,32.319375
2021-07-06 11:37:38.140625000,-64.5,4.0,8.0,85.39890625,-43.96,2.323306875,32.31875
2021-07-06 11:37:38.148437500,-64.25,4.0,8.0,85.397734375,-42.195,2.3232268124999997,32.318125
2021-07-06 11:37:38.156250000,-64.0,4.0,8.0,85.3965625,-40.43,2.32314675,32.3175
2021-07-06 11:37:38.164062500,-64.25,4.0,8.0,85.395390625,-37.504999999999995,2.3230666875,32.316875
2021-07-06 11:37:38.171875000,-64.5,4.0,8.0,85.39421875000001,-34.58,2.322986625,32.316250000000004
2021-07-06 11:37:38.179687500,-64.75,4.0,8.0,85.393046875,-30.88,2.3229065625,32.315625000000004
2021-07-06 11:37:38.187500000,-65.0,4.0,8.0,85.391875,-27.18,2.3228264999999997,32.315
2021-07-06 11:37:38.195312500,-65.0,4.0,8.0,85.390703125,-23.15,2.3227464374999998,32.314375
2021-07-06 11:37:38.203125000,-65.0,4.0,8.0,85.38953125,-19.12,2.322666375,32.31375
2021-07-06 11:37:38.210937500,-65.0,4.0,8.0,85.38835937500001,-15.15,2.3225863125,32.313125
2021-07-06 11:37:38.218750000,-65.0,4.0,8.0,85.3871875,-11.18,2.32250625,32.3125
2021-07-06 11:37:38.226562500,-65.0,4.0,8.0,85.386015625,-7.54,2.3224261875,32.311875
2021-07-06 11:37:38.234375000,-65.0,4.0,8.0,85.38484375,-3.9,2.3223461249999997,32.31125
2021-07-06 11:37:38.242187500,-65.0,4.0,8.0,85.383671875,-0.7549999999999999,2.3222660625,32.310625
2021-07-06 11:37:38.250000000,-65.0,4.0,8.0,85.3825,2.39,2.322186,32.31
2021-07-06 11:37:38.257812500,-65.0,4.0,8.25,85.381328125,4.975,2.32210590625,32.31
2021-07-06 11:37:38.265625000,-65.0,4.0,8.5,85.38015625,7.56,2.3220258124999997,32.31
2021-07-06 11:37:38.273437500,-65.0,4.0,8.75,85.378984375,9.555,2.32194571875,32.31
2021-07-06 11:37:38.281250000,-65.0,4.0,9.0,85.3778125,11.55,2.321865625,32.31
2021-07-06 11:37:38.289062500,-65.0,4.0,8.75,85.376640625,12.945,2.3217855312499998,32.31
2021-07-06 11:37:38.296875000,-65.0,4.0,8.5,85.37546875,14.34,2.3217054375,32.31
2021-07-06 11:37:38.304687500,-65.0,4.0,8.25,85.374296875,15.185,2.32162534375,32.31
2021-07-06 11:37:38.312500000,-65.0,4.0,8.0,85.373125,16.03,2.32154525,32.31
2021-07-06 11:37:38.320312500,-65.0,4.0,8.0,85.371953125,16.415,2.32146515625,32.31
2021-07-06 11:37:38.328125000,-65.0,4.0,8.0,85.37078125,16.8,2.3213850625,32.31
2021-07-06 11:37:38.335937500,-65.0,4.0,8.0,85.369609375,16.855,2.32130496875,32.31
2021-07-06 11:37:38.343750000,-65.0,4.0,8.0,85.3684375,16.91,2.321224875,32.31
2021-07-06 11:37:38.351562500,-65.0,4.0,8.0,85.367265625,16.79,2.32114478125,32.31
2021-07-06 11:37:38.359375000,-65.0,4.0,8.0,85.36609375,16.67,2.3210646875,32.31
2021-07-06 11:37:38.367187500,-65.0,4.0,8.0,85.364921875,16.51,2.32098459375,32.31
2021-07-06 11:37:38.375000000,-65.0,4.0,8.0,85.36375,16.35,2.3209045,32.31
2021-07-06 11:37:38.382812500,-65.0,4.0,8.0,85.362578125,16.25,2.32082440625,32.31
2021-07-06 11:37:38.390625000,-65.0,4.0,8.0,85.36140625,16.15,2.3207443125,32.31
2021-07-06 11:37:38.398437500,-65.0,4.0,8.0,85.360234375,16.115,2.3206642187499997,32.31
2021-07-06 11:37:38.406250000,-65.0,4.0,8.0,85.3590625,16.08,2.320584125,32.31
2021-07-06 11:37:38.414062500,-65.0,4.0,8.25,85.357890625,16.09,2.32050403125,32.31
2021-07-06 11:37:38.421875000,-65.0,4.0,8.5,85.35671875,16.1,2.3204239374999998,32.31
2021-07-06 11:37:38.429687500,-65.0,4.0,8.75,85.355546875,16.085,2.32034384375,32.31
2021-07-06 11:37:38.437500000,-65.0,4.0,9.0,85.354375,16.07,2.32026375,32.31
2021-07-06 11:37:38.445312500,-65.0,4.0,8.75,85.353203125,16.0,2.32018365625,32.31
2021-07-06 11:37:38.453125000,-65.0,4.0,8.5,85.35203125,15.93,2.3201035625,32.31
2021-07-06 11:37:38.460937500,-65.0,4.0,8.25,85.350859375,15.785,2.32002346875,32.31
2021-07-06 11:37:38.468750000,-65.0,4.0,8.0,85.3496875,15.64,2.319943375,32.31
2021-07-06 11:37:38.476562500,-65.0,4.0,8.0,85.348515625,15.46,2.31986328125,32.31
2021-07-06 11:37:38.484375000,-65.0,4.0,8.0,85.34734375,15.28,2.3197831875,32.31
2021-07-06 11:37:38.492187500,-65.0,4.0,8.0,85.346171875,15.09,2.31970309375,32.31
2021-07-06 11:37:38.500000000,-65.0,4.0,8.0,85.345,14.9,2.319623,32.31
2021-07-06 11:37:38.507812500,-65.0,4.0,8.0,85.343828125,14.715,2.31950290625,32.31
2021-07-06 11:37:38.515625000,-65.0,4.0,8.0,85.34265625,14.53,2.3193828125,32.31
2021-07-06 11:37:38.523437500,-65.0,4.0,8.0,85.341484375,14.309999999999999,2.31926271875,32.31
2021-07-06 11:37:38.531250000,-65.0,4.0,8.0,85.3403125,14.09,2.319142625,32.31
2021-07-06 11:37:38.539062500,-65.0,4.0,8.0,85.339140625,13.754999999999999,2.31902253125,32.31
2021-07-06 11:37:38.546875000,-65.0,4.0,8.0,85.33796875,13.42,2.3189024375000002,32.31
2021-07-06 11:37:38.554687500,-65.0,4.0,8.0,85.336796875,12.855,2.31878234375,32.31
2021-07-06 11:37:38.562500000,-65.0,4.0,8.0,85.335625,12.29,2.31866225,32.31
2021-07-06 11:37:38.570312500,-65.0,4.0,8.25,85.334453125,11.42,2.31854215625,32.31
2021-07-06 11:37:38.578125000,-65.0,4.0,8.5,85.33328125,10.55,2.3184220625,32.31
2021-07-06 11:37:38.585937500,-65.0,4.0,8.75,85.332109375,9.325,2.31830196875,32.31
2021-07-06 11:37:38.593750000,-65.0,4.0,9.0,85.3309375,8.1,2.318181875,32.31
2021-07-06 11:37:38.601562500,-65.0,4.0,8.75,85.329765625,6.529999999999999,2.31806178125,32.31
2021-07-06 11:37:38.609375000,-65.0,4.0,8.5,85.32859375,4.96,2.3179416875000003,32.31
2021-07-06 11:37:38.617187500,-65.0,4.0,8.25,85.327421875,3.13,2.31782159375,32.31
2021-07-06 11:37:38.625000000,-65.0,4.0,8.0,85.32625,1.3,2.3177015,32.31
2021-07-06 11:37:38.632812500,-65.0,4.0,8.0,85.325078125,-0.675,2.31758140625,32.31
2021-07-06 11:37:38.640625000,-65.0,4.0,8.0,85.32390625,-2.65,2.3174613125,32.31
2021-07-06 11:37:38.648437500,-65.0,4.0,8.0,85.322734375,-4.625,2.31734121875,32.31
2021-07-06 11:37:38.656250000,-65.0,4.0,8.0,85.3215625,-6.6,2.317221125,32.31
2021-07-06 11:37:38.664062500,-65.0,4.0,8.0,85.320390625,-8.455,2.31710103125,32.31
2021-07-06 11:37:38.671875000,-65.0,4.0,8.0,85.31921875,-10.31,2.3169809375000003,32.31
2021-07-06 11:37:38.679687500,-65.0,4.0,8.0,85.318046875,-11.98,2.3168608437500002,32.31
2021-07-06 11:37:38.687500000,-65.0,4.0,8.0,85.316875,-13.65,2.31674075,32.31
2021-07-06 11:37:38.695312500,-65.0,4.0,8.0,85.315703125,-15.18,2.31662065625,32.31
2021-07-06 11:37:38.703125000,-65.0,4.0,8.0,85.31453125,-16.71,2.3165005625,32.31
2021-07-06 11:37:38.710937500,-65.0,4.0,8.0,85.313359375,-18.245,2.3163804687500003,32.31
2021-07-06 11:37:38.718750000,-65.0,4.0,8.0,85.3121875,-19.78,2.316260375,32.31
2021-07-06 11:37:38.726562500,-65.0,4.0,8.0,85.311015625,-21.53,2.31614028125,32.31
2021-07-06 11:37:38.734375000,-65.0,4.0,8.0,85.30984375,-23.28,2.3160201875000004,32.31
2021-07-06 11:37:38.742187500,-65.0,4.0,8.0,85.308671875,-25.425,2.3159000937500003,32.31
2021-07-06 11:37:38.750000000,-65.0,4.0,8.0,85.3075,-27.57,2.31578,32.31
2021-07-06 11:37:38.757812500,-65.0,4.0,8.0,85.306328125,-30.135,2.31573996875,32.31
2021-07-06 11:37:38.765625000,-65.0,4.0,8.0,85.30515625,-32.7,2.3156999375000002,32.31
2021-07-06 11:37:38.773437500,-65.0,4.0,8.0,85.303984375,-35.515,2.31565990625,32.31
2021-07-06 11:37:38.781250000,-65.0,4.0,8.0,85.3028125,-38.33,2.3156198750000003,32.31
2021-07-06 11:37:38.789062500,-65.0,4.0,8.0,85.30164062499999,-41.01,2.31557984375,32.31
2021-07-06 11:37:38.796875000,-65.0,4.0,8.0,85.30046875,-43.69,2.3155398125,32.31
2021-07-06 11:37:38.804687500,-65.0,4.0,8.0,85.299296875,-45.730000000000004,2.31549978125,32.31
2021-07-06 11:37:38.812500000,-65.0,4.0,8.0,85.298125,-47.77,2.31545975,32.31
2021-07-06 11:37:38.820312500,-65.0,4.0,8.0,85.296953125,-48.695,2.3154197187500003,32.31
2021-07-06 11:37:38.828125000,-65.0,4.0,8.0,85.29578124999999,-49.62,2.3153796875,32.31
2021-07-06 11:37:38.835937500,-65.0,4.0,8.0,85.294609375,-49.12,2.31533965625,32.31
2021-07-06 11:37:38.843750000,-65.0,4.0,8.0,85.2934375,-48.62,2.315299625,32.31
2021-07-06 11:37:38.851562500,-65.0,4.0,8.0,85.292265625,-46.66,2.31525959375,32.31
2021-07-06 11:37:38.859375000,-65.0,4.0,8.0,85.29109375,-44.7,2.3152195625000003,32.31
2021-07-06 11:37:38.867187500,-65.0,4.0,8.0,85.28992187499999,-41.5,2.31517953125,32.31
2021-07-06 11:37:38.875000000,-65.0,4.0,8.0,85.28875,-38.3,2.3151395,32.31
2021-07-06 11:37:38.882812500,-65.0,4.0,8.25,85.287578125,-34.275,2.31509946875,32.31
2021-07-06 11:37:38.890625000,-65.0,4.0,8.5,85.28640625,-30.25,2.3150594375,32.31
2021-07-06 11:37:38.898437500,-65.0,4.0,8.75,85.285234375,-25.86,2.3150194062500002,32.31
2021-07-06 11:37:38.906250000,-65.0,4.0,9.0,85.28406249999999,-21.47,2.314979375,32.31
2021-07-06 11:37:38.914062500,-65.0,4.0,8.75,85.282890625,-17.095,2.3149393437500003,32.31
2021-07-06 11:37:38.921875000,-65.0,4.0,8.5,85.28171875,-12.72,2.3148993125,32.31
2021-07-06 11:37:38.929687500,-65.0,4.0,8.25,85.280546875,-8.620000000000001,2.31485928125,32.31
2021-07-06 11:37:38.937500000,-65.0,4.0,8.0,85.279375,-4.52,2.31481925,32.31
2021-07-06 11:37:38.945312500,-65.0,4.0,8.0,85.27820312499999,-0.8049999999999997,2.31477921875,32.31
2021-07-06 11:37:38.953125000,-65.0,4.0,8.0,85.27703125,2.91,2.3147391875000003,32.31
2021-07-06 11:37:38.960937500,-65.0,4.0,8.0,85.275859375,6.19,2.31469915625,32.31
2021-07-06 11:37:38.968750000,-65.0,4.0,8.0,85.2746875,9.47,2.314659125,32.31
2021-07-06 11:37:38.976562500,-65.0,4.0,8.0,85.273515625,12.3,2.31461909375,32.31
2021-07-06 11:37:38.984375000,-65.0,4.0,8.0,85.27234374999999,15.13,2.3145790625,32.31
2021-07-06 11:37:38.992187500,-65.0,4.0,8.0,85.271171875,17.45,2.3145390312500003,32.31
2021-07-06 11:37:39.000000000,-65.0,4.0,8.0,85.27,19.77,2.314499,32.31
2021-07-06 11:37:39.007812500,-65.0,4.0,8.0,85.26828125,21.52,2.31429884375,32.31
2021-07-06 11:37:39.015625000,-65.0,4.0,8.0,85.26656249999999,23.27,2.3140986875,32.31
2021-07-06 11:37:39.023437500,-65.0,4.0,8.0,85.26484375,24.4,2.31389853125,32.31
2021-07-06 11:37:39.031250000,-65.0,4.0,8.0,85.263125,25.53,2.313698375,32.31
2021-07-06 11:37:39.039062500,-65.0,4.0,8.0,85.26140625,26.07,2.31349821875,32.31
2021-07-06 11:37:39.046875000,-65.0,4.0,8.0,85.2596875,26.61,2.3132980625,32.31
2021-07-06 11:37:39.054687500,-65.0,4.0,8.0,85.25796874999999,26.65,2.31309790625,32.31
2021-07-06 11:37:39.062500000,-65.0,4.0,8.0,85.25625,26.69,2.3128977500000003,32.31
2021-07-06 11:37:39.070312500,-65.0,4.0,8.25,85.25453125,26.4,2.3126975937500003,32.31
2021-07-06 11:37:39.078125000,-65.0,4.0,8.5,85.25281249999999,26.11,2.3124974375000003,32.31
2021-07-06 11:37:39.085937500,-65.0,4.0,8.75,85.25109375,25.689999999999998,2.3122972812500002,32.31
2021-07-06 11:37:39.093750000,-65.0,4.0,9.0,85.249375,25.27,2.312097125,32.31
2021-07-06 11:37:39.101562500,-65.0,4.0,8.75,85.24765624999999,24.88,2.31189696875,32.31
2021-07-06 11:37:39.109375000,-65.0,4.0,8.5,85.2459375,24.49,2.3116968125,32.31
2021-07-06 11:37:39.117187500,-65.0,4.0,8.25,85.24421875,24.235,2.31149665625,32.31
2021-07-06 11:37:39.125000000,-65.0,4.0,8.0,85.24249999999999,23.98,2.3112965,32.31
2021-07-06 11:37:39.132812500,-65.0,4.0,8.0,85.24078125,23.855,2.31109634375,32.31
2021-07-06 11:37:39.140625000,-65.0,4.0,8.0,85.2390625,23.73,2.3108961875,32.31
2021-07-06 11:37:39.148437500,-65.0,4.0,8.0,85.23734375,23.68,2.31069603125,32.31
2021-07-06 11:37:39.156250000,-65.0,4.0,8.0,85.235625,23.63,2.310495875,32.31
2021-07-06 11:37:39.164062500,-65.0,4.0,8.25,85.23390624999999,23.54,2.31029571875,32.31
2021-07-06 11:37:39.171875000,-65.0,4.0,8.5,85.2321875,23.45,2.3100955625,32.31
2021-07-06 11:37:39.179687500,-65.0,4.0,8.75,85.23046875,23.235,2.30989540625,32.31
2021-07-06 11:37:39.187500000,-65.0,4.0,9.0,85.22874999999999,23.02,2.30969525,32.31
2021-07-06 11:37:39.195312500,-65.0,4.0,8.75,85.22703125,22.645,2.3094950937500003,32.31
2021-07-06 11:37:39.203125000,-65.0,4.0,8.5,85.2253125,22.27,2.3092949375000003,32.31
2021-07-06 11:37:39.210937500,-65.0,4.0,8.25,85.22359374999999,21.744999999999997,2.3090947812500002,32.31
2021-07-06 11:37:39.218750000,-65.0,4.0,8.0,85.221875,21.22,2.308894625,32.31
2021-07-06 11:37:39.226562500,-65.0,4.0,8.0,85.22015625,20.6,2.30869446875,32.31
2021-07-06 11:37:39.234375000,-65.0,4.0,8.0,85.2184375,19.98,2.3084943125,32.31
2021-07-06 11:37:39.242187500,-65.0,4.0,8.0,85.21671875,19.28,2.30829415625,32.31
2021-07-06 11:37:39.250000000,-65.0,4.0,8.0,85.215,18.58,2.308094,32.31
2021-07-06 11:37:39.257812500,-65.0,4.0,8.0,85.21328125,17.755,2.3078938125,32.31
2021-07-06 11:37:39.265625000,-65.0,4.0,8.0,85.2115625,16.93,2.307693625,32.31
2021-07-06 11:37:39.273437500,-65.0,4.0,8.0,85.20984374999999,15.895,2.3074934375000002,32.31
2021-07-06 11:37:39.281250000,-65.0,4.0,8.0,85.208125,14.86,2.30729325,32.31
2021-07-06 11:37:39.289062500,-65.0,4.0,8.0,85.20640625,13.55,2.3070930625,32.31
2021-07-06 11:37:39.296875000,-65.0,4.0,8.0,85.20468749999999,12.24,2.306892875,32.31
2021-07-06 11:37:39.304687500,-65.0,4.0,8.0,85.20296875,10.635,2.3066926875,32.31
2021-07-06 11:37:39.312500000,-65.0,4.0,8.0,85.20125,9.03,2.3064925,32.31
2021-07-06 11:37:39.320312500,-65.0,4.0,8.0,85.19953124999999,7.185,2.3062923125,32.31
2021-07-06 11:37:39.328125000,-65.0,4.0,8.0,85.1978125,5.34,2.306092125,32.31
2021-07-06 11:37:39.335937500,-65.0,4.0,8.0,85.19609375,3.375,2.3058919375,32.31
2021-07-06 11:37:39.343750000,-65.0,4.0,8.0,85.194375,1.41,2.3056917500000003,32.31
2021-07-06 11:37:39.351562500,-65.0,4.0,8.0,85.19265625,-0.5450000000000002,2.3054915625,32.31
2021-07-06 11:37:39.359375000,-65.0,4.0,8.0,85.19093749999999,-2.5,2.305291375,32.31
2021-07-06 11:37:39.367187500,-65.0,4.0,8.0,85.18921875,-4.335,2.3050911875,32.31
2021-07-06 11:37:39.375000000,-65.0,4.0,8.0,85.1875,-6.17,2.304891,32.31
2021-07-06 11:37:39.382812500,-65.0,4.0,8.0,85.18578124999999,-7.85,2.3046908125,32.31
2021-07-06 11:37:39.390625000,-65.0,4.0,8.0,85.1840625,-9.53,2.304490625,32.31
2021-07-06 11:37:39.398437500,-65.0,4.0,8.0,85.18234375,-11.1,2.3042904375,32.31
2021-07-06 11:37:39.406250000,-65.0,4.0,8.0,85.18062499999999,-12.67,2.30409025,32.31
2021-07-06 11:37:39.414062500,-65.0,4.0,8.0,85.17890625,-14.26,2.3038900625,32.31
2021-07-06 11:37:39.421875000,-65.0,4.0,8.0,85.1771875,-15.85,2.303689875,32.31
2021-07-06 11:37:39.429687500,-65.0,4.0,8.0,85.17546875,-17.625,2.3034896875,32.31
2021-07-06 11:37:39.437500000,-65.0,4.0,8.0,85.17375,-19.4,2.3032895,32.31
2021-07-06 11:37:39.445312500,-65.0,4.0,8.0,85.17203125,-21.535,2.3030893125,32.31
2021-07-06 11:37:39.453125000,-65.0,4.0,8.0,85.1703125,-23.67,2.302889125,32.31
2021-07-06 11:37:39.460937500,-65.0,4.0,8.0,85.16859375,-26.26,2.3026889375,32.31
2021-07-06 11:37:39.468750000,-65.0,4.0,8.0,85.16687499999999,-28.85,2.30248875,32.31
2021-07-06 11:37:39.476562500,-65.0,4.0,8.0,85.16515625,-31.830000000000002,2.3022885625,32.31
2021-07-06 11:37:39.484375000,-65.0,4.0,8.0,85.1634375,-34.81,2.302088375,32.31
2021-07-06 11:37:39.492187500,-65.0,4.0,8.0,85.16171874999999,-37.92,2.3018881875,32.31
2021-07-06 11:37:39.500000000,-65.0,4.0,8.0,85.16,-41.03,2.301688,32.31
2021-07-06 11:37:39.507812500,-65.0,4.0,8.0,85.15828125,-43.845,2.3016079375,32.31
2021-07-06 11:37:39.515625000,-65.0,4.0,8.0,85.15656249999999,-46.66,2.301527875,32.31
2021-07-06 11:37:39.523437500,-65.0,4.0,8.0,85.15484375,-48.665,2.3014478124999997,32.31
2021-07-06 11:37:39.531250000,-65.0,4.0,8.0,85.153125,-50.67,2.30136775,32.31
2021-07-06 11:37:39.539062500,-65.0,4.0,8.0,85.15140625,-51.385000000000005,2.3012876875,32.31
2021-07-06 11:37:39.546875000,-65.0,4.0,8.0,85.1496875,-52.1,2.301207625,32.31
2021-07-06 11:37:39.554687500,-65.0,4.0,8.0,85.14796874999999,-51.24,2.3011275625,32.31
2021-07-06 11:37:39.562500000,-65.0,4.0,8.0,85.14625,-50.38,2.3010475,32.31
2021-07-06 11:37:39.570312500,-65.0,4.0,8.0,85.14453125,-47.915000000000006,2.3009674374999998,32.31
2021-07-06 11:37:39.578125000,-65.0,4.0,8.0,85.14281249999999,-45.45,2.300887375,32.31
2021-07-06 11:37:39.585937500,-65.0,4.0,8.0,85.14109375,-41.655,2.3008073125,32.31
2021-07-06 11:37:39.593750000,-65.0,4.0,8.0,85.139375,-37.86,2.30072725,32.31
2021-07-06 11:37:39.601562500,-64.75,4.0,8.0,85.13765624999999,-33.21,2.3006471875,32.31
2021-07-06 11:37:39.609375000,-64.5,4.0,8.0,85.1359375,-28.56,2.3005671249999997,32.31
2021-07-06 11:37:39.617187500,-64.25,4.0,8.0,85.13421875,-23.63,2.3004870625,32.31
2021-07-06 11:37:39.625000000,-64.0,4.0,8.0,85.1325,-18.7,2.300407,32.31
2021-07-06 11:37:39.632812500,-64.25,4.0,8.25,85.13078125,-13.989999999999998,2.3003269375,32.31
2021-07-06 11:37:39.640625000,-64.5,4.0,8.5,85.1290625,-9.28,2.300246875,32.31
2021-07-06 11:37:39.648437500,-64.75,4.0,8.75,85.12734375,-5.125,2.3001668124999997,32.31
2021-07-06 11:37:39.656250000,-65.0,4.0,9.0,85.125625,-0.97,2.3000867499999997,32.31
2021-07-06 11:37:39.664062500,-64.75,4.0,9.0,85.12390624999999,2.51,2.3000066875,32.31
2021-07-06 11:37:39.671875000,-64.5,4.0,9.0,85.1221875,5.99,2.299926625,32.31
2021-07-06 11:37:39.679687500,-64.25,4.0,9.0,85.12046875,8.84,2.2998465625,32.31
2021-07-06 11:37:39.687500000,-64.0,4.0,9.0,85.11874999999999,11.69,2.2997664999999996,32.31
2021-07-06 11:37:39.695312500,-64.25,4.0,8.75,85.11703125,14.024999999999999,2.2996864374999997,32.31
2021-07-06 11:37:39.703125000,-64.5,4.0,8.5,85.1153125,16.36,2.2996063749999998,32.31
2021-07-06 11:37:39.710937500,-64.75,4.0,8.25,85.11359374999999,18.27,2.2995263125,32.31
2021-07-06 11:37:39.718750000,-65.0,4.0,8.0,85.111875,20.18,2.29944625,32.31
2021-07-06 11:37:39.726562500,-65.0,4.0,8.25,85.11015625,21.7,2.2993661875,32.31
2021-07-06 11:37:39.734375000,-65.0,4.0,8.5,85.1084375,23.22,2.2992861249999996,32.31
2021-07-06 11:37:39.742187500,-65.0,4.0,8.75,85.10671875,24.33,2.2992060624999997,32.31
2021-07-06 11:37:39.750000000,-65.0,4.0,9.0,85.10499999999999,25.44,2.299126,32.31
2021-07-06 11:37:39.757812500,-65.0,4.0,8.75,85.10328125,26.15,2.2988857812499996,32.31
2021-07-06 11:37:39.765625000,-65.0,4.0,8.5,85.1015625,26.86,2.2986455625,32.31
2021-07-06 11:37:39.773437500,-65.0,4.0,8.25,85.09984374999999,27.215,2.29840534375,32.31
2021-07-06 11:37:39.781250000,-65.0,4.0,8.0,85.098125,27.57,2.2981651249999997,32.31
2021-07-06 11:37:39.789062500,-64.75,4.0,8.25,85.09640625,27.71,2.29792490625,32.31
2021-07-06 11:37:39.796875000,-64.5,4.0,8.5,85.09468749999999,27.85,2.2976846875,32.31
2021-07-06 11:37:39.804687500,-64.25,4.0,8.75,85.09296875,27.915,2.2974444687499997,32.31
2021-07-06 11:37:39.812500000,-64.0,4.0,9.0,85.09125,27.98,2.29720425,32.31
2021-07-06 11:37:39.820312500,-64.25,4.0,8.75,85.08953125,28.085,2.29696403125,32.31
2021-07-06 11:37:39.828125000,-64.5,4.0,8.5,85.0878125,28.19,2.2967238125,32.31
2021-07-06 11:37:39.835937500,-64.75,4.0,8.25,85.08609375,28.380000000000003,2.2964835937499997,32.31
2021-07-06 11:37:39.843750000,-65.0,4.0,8.0,85.084375,28.57,2.296243375,32.31
2021-07-06 11:37:39.851562500,-64.75,4.0,8.0,85.08265625,28.82,2.29600315625,32.31
2021-07-06 11:37:39.859375000,-64.5,4.0,8.0,85.08093749999999,29.07,2.2957629374999997,32.31
2021-07-06 11:37:39.867187500,-64.25,4.0,8.0,85.07921875,29.335,2.29552271875,32.31
2021-07-06 11:37:39.875000000,-64.0,4.0,8.0,85.0775,29.6,2.2952825,32.31
2021-07-06 11:37:39.882812500,-64.25,4.0,8.0,85.07578124999999,29.8,2.2950422812499998,32.31
2021-07-06 11:37:39.890625000,-64.5,4.0,8.0,85.0740625,30.0,2.2948020625,32.31
2021-07-06 11:37:39.898437500,-64.75,4.0,8.0,85.07234375,30.07,2.29456184375,32.31
2021-07-06 11:37:39.906250000,-65.0,4.0,8.0,85.07062499999999,30.14,2.294321625,32.31
2021-07-06 11:37:39.914062500,-65.0,4.0,8.0,85.06890625,30.03,2.29408140625,32.31
2021-07-06 11:37:39.921875000,-65.0,4.0,8.0,85.0671875,29.92,2.2938411875,32.31
2021-07-06 11:37:39.929687500,-65.0,4.0,8.0,85.06546875,29.595,2.29360096875,32.31
2021-07-06 11:37:39.937500000,-65.0,4.0,8.0,85.06375,29.27,2.2933607499999997,32.31
2021-07-06 11:37:39.945312500,-64.75,4.0,8.25,85.06203125,28.715,2.29312053125,32.31
2021-07-06 11:37:39.953125000,-64.5,4.0,8.5,85.0603125,28.16,2.2928803125,32.31
2021-07-06 11:37:39.960937500,-64.25,4.0,8.75,85.05859375,27.395,2.2926400937499998,32.31
2021-07-06 11:37:39.968750000,-64.0,4.0,9.0,85.05687499999999,26.63,2.292399875,32.31
2021-07-06 11:37:39.976562500,-64.25,4.0,9.0,85.05515625,25.68,2.29215965625,32.31
2021-07-06 11:37:39.984375000,-64.5,4.0,9.0,85.0534375,24.73,2.2919194375,32.31
2021-07-06 11:37:39.992187500,-64.75,4.0,9.0,85.05171874999999,23.634999999999998,2.29167921875,32.31
2021-07-06 11:37:40.000000000,-65.0,4.0,9.0,85.05,22.54,2.291439,32.31
2021-07-06 11:37:40.007812500,-65.0,4.0,8.75,85.048671875,21.31,2.291278875,32.31
2021-07-06 11:37:40.015625000,-65.0,4.0,8.5,85.04734375,20.08,2.29111875,32.31
2021-07-06 11:37:40.023437500,-65.0,4.0,8.25,85.046015625,18.685,2.290958625,32.31
2021-07-06 11:37:40.031250000,-65.0,4.0,8.0,85.0446875,17.29,2.2907985,32.31
2021-07-06 11:37:40.039062500,-64.75,4.0,8.0,85.043359375,15.695,2.290638375,32.31
2021-07-06 11:37:40.046875000,-64.5,4.0,8.0,85.04203125,14.1,2.29047825,32.31
2021-07-06 11:37:40.054687500,-64.25,4.0,8.0,85.040703125,12.295,2.290318125,32.31
2021-07-06 11:37:40.062500000,-64.0,4.0,8.0,85.03937499999999,10.49,2.290158,32.31
2021-07-06 11:37:40.070312500,-64.25,4.0,8.0,85.03804687499999,8.51,2.289997875,32.31
2021-07-06 11:37:40.078125000,-64.5,4.0,8.0,85.03671874999999,6.53,2.2898377500000002,32.31
2021-07-06 11:37:40.085937500,-64.75,4.0,8.0,85.03539062499999,4.49,2.289677625,32.31
2021-07-06 11:37:40.093750000,-65.0,4.0,8.0,85.03406249999999,2.45,2.2895175,32.31
2021-07-06 11:37:40.101562500,-65.0,4.0,8.25,85.032734375,0.4750000000000001,2.2893573750000002,32.31
2021-07-06 11:37:40.109375000,-65.0,4.0,8.5,85.03140625,-1.5,2.28919725,32.31
2021-07-06 11:37:40.117187500,-65.0,4.0,8.75,85.030078125,-3.335,2.289037125,32.31
2021-07-06 11:37:40.125000000,-65.0,4.0,9.0,85.02875,-5.17,2.2888770000000003,32.31
2021-07-06 11:37:40.132812500,-65.0,4.0,8.75,85.027421875,-6.86,2.288716875,32.31
2021-07-06 11:37:40.140625000,-65.0,4.0,8.5,85.02609375,-8.55,2.28855675,32.31
2021-07-06 11:37:40.148437500,-65.0,4.0,8.25,85.024765625,-10.195,2.288396625,32.31
2021-07-06 11:37:40.156250000,-65.0,4.0,8.0,85.0234375,-11.84,2.2882365,32.31
2021-07-06 11:37:40.164062500,-65.0,4.0,8.0,85.022109375,-13.594999999999999,2.288076375,32.31
2021-07-06 11:37:40.171875000,-65.0,4.0,8.0,85.02078125,-15.35,2.28791625,32.31
2021-07-06 11:37:40.179687500,-65.0,4.0,8.0,85.019453125,-17.405,2.287756125,32.31
2021-07-06 11:37:40.187500000,-65.0,4.0,8.0,85.018125,-19.46,2.287596,32.31
2021-07-06 11:37:40.195312500,-65.0,4.0,8.0,85.016796875,-21.935000000000002,2.287435875,32.31
2021-07-06 11:37:40.203125000,-65.0,4.0,8.0,85.01546875,-24.41,2.28727575,32.31
2021-07-06 11:37:40.210937500,-65.0,4.0,8.0,85.014140625,-27.35,2.287115625,32.31
2021-07-06 11:37:40.218750000,-65.0,4.0,8.0,85.0128125,-30.29,2.2869555,32.31
2021-07-06 11:37:40.226562500,-64.75,4.0,8.25,85.011484375,-33.585,2.286795375,32.31
2021-07-06 11:37:40.234375000,-64.5,4.0,8.5,85.01015625,-36.88,2.2866352500000002,32.31
2021-07-06 11:37:40.242187500,-64.25,4.0,8.75,85.008828125,-40.245000000000005,2.286475125,32.31
2021-07-06 11:37:40.250000000,-64.0,4.0,9.0,85.0075,-43.61,2.286315,32.31
2021-07-06 11:37:40.257812500,-64.25,4.0,8.75,85.00617187499999,-46.629999999999995,2.2862349375,32.31
2021-07-06 11:37:40.265625000,-64.5,4.0,8.5,85.00484374999999,-49.65,2.2861548750000003,32.31
2021-07-06 11:37:40.273437500,-64.75,4.0,8.25,85.00351562499999,-51.815,2.2860748125,32.31
2021-07-06 11:37:40.281250000,-65.0,4.0,8.0,85.00218749999999,-53.98,2.28599475,32.31
2021-07-06 11:37:40.289062500,-65.0,4.0,8.0,85.00085937499999,-54.795,2.2859146875,32.31
2021-07-06 11:37:40.296875000,-65.0,4.0,8.0,84.99953124999999,-55.61,2.285834625,32.31
2021-07-06 11:37:40.304687500,-65.0,4.0,8.0,84.998203125,-54.775,2.2857545625,32.31
2021-07-06 11:37:40.312500000,-65.0,4.0,8.0,84.996875,-53.94,2.2856745,32.31
2021-07-06 11:37:40.320312500,-65.0,4.0,8.25,84.995546875,-51.425,2.2855944375,32.31
2021-07-06 11:37:40.328125000,-65.0,4.0,8.5,84.99421875,-48.91,2.285514375,32.31
2021-07-06 11:37:40.335937500,-65.0,4.0,8.75,84.992890625,-45.004999999999995,2.2854343125,32.31
2021-07-06 11:37:40.343750000,-65.0,4.0,9.0,84.9915625,-41.1,2.28535425,32.31
2021-07-06 11:37:40.351562500,-65.0,4.0,8.75,84.990234375,-36.33,2.2852741875,32.31
2021-07-06 11:37:40.359375000,-65.0,4.0,8.5,84.98890625,-31.56,2.285194125,32.31
2021-07-06 11:37:40.367187500,-65.0,4.0,8.25,84.987578125,-26.509999999999998,2.2851140625,32.31
2021-07-06 11:37:40.375000000,-65.0,4.0,8.0,84.98625,-21.46,2.285034,32.31
2021-07-06 11:37:40.382812500,-65.0,4.0,8.0,84.984921875,-16.615000000000002,2.2849539375,32.31
2021-07-06 11:37:40.390625000,-65.0,4.0,8.0,84.98359375,-11.77,2.284873875,32.31
2021-07-06 11:37:40.398437500,-65.0,4.0,8.0,84.982265625,-7.42,2.2847938125,32.31
2021-07-06 11:37:40.406250000,-65.0,4.0,8.0,84.9809375,-3.07,2.28471375,32.31
2021-07-06 11:37:40.414062500,-65.0,4.0,8.0,84.979609375,0.7100000000000004,2.2846336875,32.31
2021-07-06 11:37:40.421875000,-65.0,4.0,8.0,84.97828125,4.49,2.284553625,32.31
2021-07-06 11:37:40.429687500,-65.0,4.0,8.0,84.976953125,7.705,2.2844735625,32.31
2021-07-06 11:37:40.437500000,-65.0,4.0,8.0,84.975625,10.92,2.2843935,32.31
2021-07-06 11:37:40.445312500,-65.0,4.0,8.0,84.974296875,13.629999999999999,2.2843134375,32.31
2021-07-06 11:37:40.453125000,-65.0,4.0,8.0,84.97296874999999,16.34,2.284233375,32.31
2021-07-06 11:37:40.460937500,-65.0,4.0,8.0,84.97164062499999,18.560000000000002,2.2841533125,32.31
2021-07-06 11:37:40.468750000,-65.0,4.0,8.0,84.97031249999999,20.78,2.28407325,32.31
2021-07-06 11:37:40.476562500,-65.0,4.0,8.25,84.96898437499999,22.5,2.2839931875,32.31
2021-07-06 11:37:40.484375000,-65.0,4.0,8.5,84.96765624999999,24.22,2.2839131249999998,32.31
2021-07-06 11:37:40.492187500,-65.0,4.0,8.75,84.96632812499999,25.46,2.2838330625,32.31
2021-07-06 11:37:40.500000000,-65.0,4.0,9.0,84.965,26.7,2.283753,32.31
2021-07-06 11:37:40.507812500,-65.0,4.0,9.0,84.963671875,27.5,2.28379303125,32.31
2021-07-06 11:37:40.515625000,-65.0,4.0,9.0,84.96234375,28.3,2.2838330625,32.31
2021-07-06 11:37:40.523437500,-65.0,4.0,9.0,84.961015625,28.75,2.28387309375,32.31
2021-07-06 11:37:40.531250000,-65.0,4.0,9.0,84.9596875,29.2,2.2839131249999998,32.31
2021-07-06 11:37:40.539062500,-64.75,4.0,9.0,84.958359375,29.395,2.28395315625,32.31
2021-07-06 11:37:40.546875000,-64.5,4.0,9.0,84.95703125,29.59,2.2839931875,32.31
2021-07-06 11:37:40.554687500,-64.25,4.0,9.0,84.955703125,29.645,2.28403321875,32.31
2021-07-06 11:37:40.562500000,-64.0,4.0,9.0,84.954375,29.7,2.28407325,32.31
2021-07-06 11:37:40.570312500,-64.25,4.0,8.75,84.953046875,29.695,2.28411328125,32.31
2021-07-06 11:37:40.578125000,-64.5,4.0,8.5,84.95171875,29.69,2.2841533125,32.31
2021-07-06 11:37:40.585937500,-64.75,4.0,8.25,84.950390625,29.695,2.28419334375,32.31
2021-07-06 11:37:40.593750000,-65.0,4.0,8.0,84.9490625,29.7,2.284233375,32.31
2021-07-06 11:37:40.601562500,-65.0,4.0,8.0,84.947734375,29.765,2.28427340625,32.31
2021-07-06 11:37:40.609375000,-65.0,4.0,8.0,84.94640625,29.83,2.2843134375,32.31
2021-07-06 11:37:40.617187500,-65.0,4.0,8.0,84.945078125,29.96,2.28435346875,32.31
2021-07-06 11:37:40.625000000,-65.0,4.0,8.0,84.94375,30.09,2.2843935,32.31
2021-07-06 11:37:40.632812500,-65.0,4.0,8.25,84.942421875,30.225,2.28443353125,32.31
2021-07-06 11:37:40.640625000,-65.0,4.0,8.5,84.94109375,30.36,2.2844735625,32.31
2021-07-06 11:37:40.648437500,-65.0,4.0,8.75,84.93976562499999,30.405,2.28451359375,32.31
2021-07-06 11:37:40.656250000,-65.0,4.0,9.0,84.93843749999999,30.45,2.284553625,32.31
2021-07-06 11:37:40.664062500,-64.75,4.0,9.0,84.93710937499999,30.295,2.2845936562499998,32.31
2021-07-06 11:37:40.671875000,-64.5,4.0,9.0,84.93578124999999,30.14,2.2846336875,32.31
2021-07-06 11:37:40.679687500,-64.25,4.0,9.0,84.93445312499999,29.705,2.28467371875,32.31
2021-07-06 11:37:40.687500000,-64.0,4.0,9.0,84.93312499999999,29.27,2.28471375,32.31
2021-07-06 11:37:40.695312500,-64.25,4.0,8.75,84.93179687499999,28.560000000000002,2.28475378125,32.31
2021-07-06 11:37:40.703125000,-64.5,4.0,8.5,84.93046875,27.85,2.2847938125,32.31
2021-07-06 11:37:40.710937500,-64.75,4.0,8.25,84.929140625,26.925,2.28483384375,32.31
2021-07-06 11:37:40.718750000,-65.0,4.0,8.0,84.9278125,26.0,2.284873875,32.31
2021-07-06 11:37:40.726562500,-65.0,4.0,8.25,84.926484375,24.975,2.28491390625,32.31
2021-07-06 11:37:40.734375000,-65.0,4.0,8.5,84.92515625,23.95,2.2849539375,32.31
2021-07-06 11:37:40.742187500,-65.0,4.0,8.75,84.923828125,22.884999999999998,2.28499396875,32.31
2021-07-06 11:37:40.750000000,-65.0,4.0,9.0,84.9225,21.82,2.285034,32.31
2021-07-06 11:37:40.757812500,-65.0,4.0,9.0,84.921171875,20.73,2.28479378125,32.31
2021-07-06 11:37:40.765625000,-65.0,4.0,9.0,84.91984375,19.64,2.2845535625,32.31
2021-07-06 11:37:40.773437500,-65.0,4.0,9.0,84.918515625,18.450000000000003,2.28431334375,32.31
2021-07-06 11:37:40.781250000,-65.0,4.0,9.0,84.9171875,17.26,2.284073125,32.31
2021-07-06 11:37:40.789062500,-65.0,4.0,8.75,84.915859375,15.9,2.28383290625,32.31
2021-07-06 11:37:40.796875000,-65.0,4.0,8.5,84.91453125,14.54,2.2835926875,32.31
2021-07-06 11:37:40.804687500,-65.0,4.0,8.25,84.913203125,12.965,2.28335246875,32.31
2021-07-06 11:37:40.812500000,-65.0,4.0,8.0,84.911875,11.39,2.28311225,32.31
2021-07-06 11:37:40.820312500,-64.75,4.0,8.25,84.910546875,9.620000000000001,2.28287203125,32.31
2021-07-06 11:37:40.828125000,-64.5,4.0,8.5,84.90921875,7.85,2.2826318125,32.31
2021-07-06 11:37:40.835937500,-64.25,4.0,8.75,84.907890625,5.99,2.28239159375,32.31
2021-07-06 11:37:40.843750000,-64.0,4.0,9.0,84.90656249999999,4.13,2.2821513749999998,32.31
2021-07-06 11:37:40.851562500,-64.25,4.0,8.75,84.90523437499999,2.295,2.28191115625,32.31
2021-07-06 11:37:40.859375000,-64.5,4.0,8.5,84.90390624999999,0.46,2.2816709375,32.31
2021-07-06 11:37:40.867187500,-64.75,4.0,8.25,84.90257812499999,-1.275,2.28143071875,32.31
2021-07-06 11:37:40.875000000,-65.0,4.0,8.0,84.90124999999999,-3.01,2.2811905,32.31
2021-07-06 11:37:40.882812500,-65.0,4.0,8.0,84.89992187499999,-4.64,2.28095028125,32.31
2021-07-06 11:37:40.890625000,-65.0,4.0,8.0,84.89859374999999,-6.27,2.2807100625,32.31
2021-07-06 11:37:40.898437500,-65.0,4.0,8.0,84.89726562499999,-7.895,2.2804698437499997,32.31
2021-07-06 11:37:40.906250000,-65.0,4.0,8.0,84.8959375,-9.52,2.280229625,32.31
2021-07-06 11:37:40.914062500,-64.75,4.0,8.25,84.894609375,-11.26,2.27998940625,32.31
2021-07-06 11:37:40.921875000,-64.5,4.0,8.5,84.89328125,-13.0,2.2797491874999998,32.31
2021-07-06 11:37:40.929687500,-64.25,4.0,8.75,84.891953125,-14.95,2.2795089687499996,32.31
2021-07-06 11:37:40.937500000,-64.0,4.0,9.0,84.890625,-16.9,2.27926875,32.31
2021-07-06 11:37:40.945312500,-64.25,4.0,8.75,84.889296875,-19.13,2.27902853125,32.31
2021-07-06 11:37:40.953125000,-64.5,4.0,8.5,84.88796875,-21.36,2.2787883124999997,32.31
2021-07-06 11:37:40.960937500,-64.75,4.0,8.25,84.886640625,-23.875,2.27854809375,32.31
2021-07-06 11:37:40.968750000,-65.0,4.0,8.0,84.8853125,-26.39,2.278307875,32.31
2021-07-06 11:37:40.976562500,-65.0,4.0,8.0,84.883984375,-29.145,2.2780676562499997,32.31
2021-07-06 11:37:40.984375000,-65.0,4.0,8.0,84.88265625,-31.9,2.2778274374999996,32.31
2021-07-06 11:37:40.992187500,-65.0,4.0,8.0,84.881328125,-34.8,2.27758721875,32.31
2021-07-06 11:37:41.000000000,-65.0,4.0,8.0,84.88,-37.7,2.277347,32.31
2021-07-06 11:37:41.007812500,-65.0,4.0,8.0,84.87914062499999,-40.535,2.27738703125,32.3109375
2021-07-06 11:37:41.015625000,-65.0,4.0,8.0,84.87828125,-43.37,2.2774270624999997,32.311875
2021-07-06 11:37:41.023437500,-65.0,4.0,8.0,84.877421875,-45.83,2.27746709375,32.3128125
2021-07-06 11:37:41.031250000,-65.0,4.0,8.0,84.87656249999999,-48.29,2.2775071249999996,32.31375
2021-07-06 11:37:41.039062500,-65.0,4.0,8.0,84.875703125,-49.955,2.27754715625,32.314687500000005
2021-07-06 11:37:41.046875000,-65.0,4.0,8.0,84.87484375,-51.62,2.2775871875,32.315625000000004
2021-07-06 11:37:41.054687500,-65.0,4.0,8.0,84.87398437499999,-52.09,2.2776272187499997,32.3165625
2021-07-06 11:37:41.062500000,-65.0,4.0,8.0,84.873125,-52.56,2.27766725,32.3175
2021-07-06 11:37:41.070312500,-65.0,4.0,8.0,84.872265625,-51.565,2.2777072812499997,32.3184375
2021-07-06 11:37:41.078125000,-65.0,4.0,8.0,84.87140624999999,-50.57,2.2777473125,32.319375
2021-07-06 11:37:41.085937500,-65.0,4.0,8.0,84.870546875,-48.120000000000005,2.27778734375,32.3203125
2021-07-06 11:37:41.093750000,-65.0,4.0,8.0,84.8696875,-45.67,2.2778273749999998,32.321250000000006
2021-07-06 11:37:41.101562500,-65.0,4.0,8.0,84.868828125,-42.045,2.27786740625,32.322187500000005
2021-07-06 11:37:41.109375000,-65.0,4.0,8.0,84.86796874999999,-38.42,2.2779074374999997,32.323125000000005
2021-07-06 11:37:41.117187500,-65.0,4.0,8.0,84.867109375,-34.09,2.27794746875,32.324062500000004
2021-07-06 11:37:41.125000000,-65.0,4.0,8.0,84.86625,-29.76,2.2779875,32.325
2021-07-06 11:37:41.132812500,-65.0,4.0,8.0,84.86539062499999,-25.23,2.27802753125,32.3259375
2021-07-06 11:37:41.140625000,-65.0,4.0,8.0,84.86453125,-20.7,2.2780675625,32.326875
2021-07-06 11:37:41.148437500,-65.0,4.0,8.0,84.863671875,-16.345,2.2781075937499997,32.3278125
2021-07-06 11:37:41.156250000,-65.0,4.0,8.0,84.86281249999999,-11.99,2.278147625,32.32875
2021-07-06 11:37:41.164062500,-65.0,4.0,8.25,84.861953125,-7.985,2.2781876562499996,32.329687500000006
2021-07-06 11:37:41.171875000,-65.0,4.0,8.5,84.86109375,-3.98,2.2782276875,32.330625000000005
2021-07-06 11:37:41.179687500,-65.0,4.0,8.75,84.86023437499999,-0.3450000000000002,2.27826771875,32.331562500000004
2021-07-06 11:37:41.187500000,-65.0,4.0,9.0,84.859375,3.29,2.2783077499999997,32.3325
2021-07-06 11:37:41.195312500,-65.0,4.0,8.75,84.858515625,6.6,2.27834778125,32.3334375
2021-07-06 11:37:41.203125000,-65.0,4.0,8.5,84.85765624999999,9.91,2.2783878124999997,32.334375
2021-07-06 11:37:41.210937500,-65.0,4.0,8.25,84.856796875,12.905000000000001,2.27842784375,32.3353125
2021-07-06 11:37:41.218750000,-65.0,4.0,8.0,84.8559375,15.9,2.278467875,32.33625000000001
2021-07-06 11:37:41.226562500,-64.75,4.0,8.0,84.85507812499999,18.51,2.2785079062499998,32.337187500000006
2021-07-06 11:37:41.234375000,-64.5,4.0,8.0,84.85421875,21.12,2.2785479375,32.338125000000005
2021-07-06 11:37:41.242187500,-64.25,4.0,8.0,84.853359375,23.235,2.2785879687499997,32.339062500000004
2021-07-06 11:37:41.250000000,-64.0,4.0,8.0,84.85249999999999,25.35,2.278628,32.34
2021-07-06 11:37:41.257812500,-64.25,4.0,8.25,84.851640625,26.85,2.27834775,32.34
2021-07-06 11:37:41.265625000,-64.5,4.0,8.5,84.85078125,28.35,2.2780674999999997,32.34
2021-07-06 11:37:41.273437500,-64.75,4.0,8.75,84.84992187499999,29.205,2.27778725,32.34
2021-07-06 11:37:41.281250000,-65.0,4.0,9.0,84.8490625,30.06,2.277507,32.34
2021-07-06 11:37:41.289062500,-65.0,4.0,8.75,84.848203125,30.375,2.27722675,32.34
2021-07-06 11:37:41.296875000,-65.0,4.0,8.5,84.84734375,30.69,2.2769464999999998,32.34
2021-07-06 11:37:41.304687500,-65.0,4.0,8.25,84.84648437499999,30.634999999999998,2.27666625,32.34
2021-07-06 11:37:41.312500000,-65.0,4.0,8.0,84.845625,30.58,2.276386,32.34
2021-07-06 11:37:41.320312500,-65.0,4.0,8.0,84.844765625,30.384999999999998,2.2761057499999997,32.34
2021-07-06 11:37:41.328125000,-65.0,4.0,8.0,84.84390624999999,30.19,2.2758255,32.34
2021-07-06 11:37:41.335937500,-65.0,4.0,8.0,84.843046875,30.065,2.27554525,32.34
2021-07-06 11:37:41.343750000,-65.0,4.0,8.0,84.8421875,29.94,2.275265,32.34
2021-07-06 11:37:41.351562500,-65.0,4.0,8.0,84.84132812499999,30.0,2.27498475,32.34
2021-07-06 11:37:41.359375000,-65.0,4.0,8.0,84.84046875,30.06,2.2747045,32.34
2021-07-06 11:37:41.367187500,-65.0,4.0,8.0,84.839609375,30.325,2.27442425,32.34
2021-07-06 11:37:41.375000000,-65.0,4.0,8.0,84.83874999999999,30.59,2.2741439999999997,32.34
2021-07-06 11:37:41.382812500,-65.0,4.0,8.0,84.837890625,30.98,2.27386375,32.34
2021-07-06 11:37:41.390625000,-65.0,4.0,8.0,84.83703125,31.37,2.2735835,32.34
2021-07-06 11:37:41.398437500,-65.0,4.0,8.0,84.83617187499999,31.744999999999997,2.27330325,32.34
2021-07-06 11:37:41.406250000,-65.0,4.0,8.0,84.8353125,32.12,2.273023,32.34
2021-07-06 11:37:41.414062500,-65.0,4.0,8.0,84.834453125,32.345,2.27274275,32.34
2021-07-06 11:37:41.421875000,-65.0,4.0,8.0,84.83359374999999,32.57,2.2724625,32.34
2021-07-06 11:37:41.429687500,-65.0,4.0,8.0,84.832734375,32.555,2.27218225,32.34
2021-07-06 11:37:41.437500000,-65.0,4.0,8.0,84.831875,32.54,2.271902,32.34
2021-07-06 11:37:41.445312500,-65.0,4.0,8.0,84.83101562499999,32.269999999999996,2.27162175,32.34
2021-07-06 11:37:41.453125000,-65.0,4.0,8.0,84.83015625,32.0,2.2713415,32.34
2021-07-06 11:37:41.460937500,-65.0,4.0,8.0,84.829296875,31.509999999999998,2.27106125,32.34
2021-07-06 11:37:41.468750000,-65.0,4.0,8.0,84.82843749999999,31.02,2.270781,32.34
2021-07-06 11:37:41.476562500,-65.0,4.0,8.0,84.827578125,30.38,2.27050075,32.34
2021-07-06 11:37:41.484375000,-65.0,4.0,8.0,84.82671875,29.74,2.2702205,32.34
2021-07-06 11:37:41.492187500,-65.0,4.0,8.0,84.825859375,29.0,2.26994025,32.34
2021-07-06 11:37:41.500000000,-65.0,4.0,8.0,84.82499999999999,28.26,2.26966,32.34
2021-07-06 11:37:41.507812500,-65.0,4.0,8.0,84.824140625,27.42,2.26974009375,32.34
2021-07-06 11:37:41.515625000,-65.0,4.0,8.0,84.82328125,26.58,2.2698201875,32.34
2021-07-06 11:37:41.523437500,-65.0,4.0,8.0,84.82242187499999,25.595,2.26990028125,32.34
2021-07-06 11:37:41.531250000,-65.0,4.0,8.0,84.8215625,24.61,2.269980375,32.34
2021-07-06 11:37:41.539062500,-65.0,4.0,8.0,84.820703125,23.415,2.27006046875,32.34
2021-07-06 11:37:41.546875000,-65.0,4.0,8.0,84.81984374999999,22.22,2.2701405625,32.34
2021-07-06 11:37:41.554687500,-65.0,4.0,8.0,84.818984375,20.775,2.27022065625,32.34
2021-07-06 11:37:41.562500000,-65.0,4.0,8.0,84.818125,19.33,2.27030075,32.34
2021-07-06 11:37:41.570312500,-65.0,4.0,8.0,84.81726562499999,17.625,2.27038084375,32.34
2021-07-06 11:37:41.578125000,-65.0,4.0,8.0,84.81640625,15.92,2.2704609374999998,32.34
2021-07-06 11:37:41.585937500,-65.0,4.0,8.0,84.815546875,14.0,2.27054103125,32.34
2021-07-06 11:37:41.593750000,-65.0,4.0,8.0,84.81468749999999,12.08,2.270621125,32.34
2021-07-06 11:37:41.601562500,-65.0,4.0,8.0,84.813828125,10.015,2.2707012187499998,32.34
2021-07-06 11:37:41.609375000,-65.0,4.0,8.0,84.81296875,7.95,2.2707813125,32.34
2021-07-06 11:37:41.617187500,-65.0,4.0,8.0,84.81210937499999,5.815,2.27086140625,32.34
2021-07-06 11:37:41.625000000,-65.0,4.0,8.0,84.81125,3.68,2.2709415,32.34
2021-07-06 11:37:41.632812500,-65.0,4.0,8.0,84.810390625,1.5500000000000003,2.27102159375,32.34
2021-07-06 11:37:41.640625000,-65.0,4.0,8.0,84.80953124999999,-0.58,2.2711016875,32.34
2021-07-06 11:37:41.648437500,-65.0,4.0,8.0,84.808671875,-2.675,2.27118178125,32.34
2021-07-06 11:37:41.656250000,-65.0,4.0,8.0,84.8078125,-4.77,2.271261875,32.34
2021-07-06 11:37:41.664062500,-65.0,4.0,8.0,84.80695312499999,-6.825,2.27134196875,32.34
2021-07-06 11:37:41.671875000,-65.0,4.0,8.0,84.80609375,-8.88,2.2714220625,32.34
2021-07-06 11:37:41.679687500,-65.0,4.0,8.0,84.805234375,-10.955,2.27150215625,32.34
2021-07-06 11:37:41.687500000,-65.0,4.0,8.0,84.804375,-13.03,2.27158225,32.34
2021-07-06 11:37:41.695312500,-65.0,4.0,8.0,84.803515625,-15.23,2.27166234375,32.34
2021-07-06 11:37:41.703125000,-65.0,4.0,8.0,84.80265625,-17.43,2.2717424375,32.34
2021-07-06 11:37:41.710937500,-65.0,4.0,8.0,84.801796875,-19.89,2.2718225312499998,32.34
2021-07-06 11:37:41.718750000,-65.0,4.0,8.0,84.80093749999999,-22.35,2.271902625,32.34
2021-07-06 11:37:41.726562500,-64.75,4.0,8.25,84.800078125,-25.165,2.27198271875,32.34
2021-07-06 11:37:41.734375000,-64.5,4.0,8.5,84.79921875,-27.98,2.2720628124999998,32.34
2021-07-06 11:37:41.742187500,-64.25,4.0,8.75,84.79835937499999,-31.145000000000003,2.27214290625,32.34
2021-07-06 11:37:41.750000000,-64.0,4.0,9.0,84.7975,-34.31,2.272223,32.34
2021-07-06 11:37:41.757812500,-64.25,4.0,9.0,84.796640625,-37.7,2.27194275,32.34
2021-07-06 11:37:41.765625000,-64.5,4.0,9.0,84.79578124999999,-41.09,2.2716624999999997,32.34
2021-07-06 11:37:41.773437500,-64.75,4.0,9.0,84.794921875,-44.415000000000006,2.27138225,32.34
2021-07-06 11:37:41.781250000,-65.0,4.0,9.0,84.7940625,-47.74,2.271102,32.34
2021-07-06 11:37:41.789062500,-65.0,4.0,8.75,84.79320312499999,-50.615,2.27082175,32.34
2021-07-06 11:37:41.796875000,-65.0,4.0,8.5,84.79234375,-53.49,2.2705414999999998,32.34
2021-07-06 11:37:41.804687500,-65.0,4.0,8.25,84.791484375,-55.455,2.27026125,32.34
2021-07-06 11:37:41.812500000,-65.0,4.0,8.0,84.79062499999999,-57.42,2.269981,32.34
2021-07-06 11:37:41.820312500,-65.0,4.0,8.25,84.789765625,-58.055,2.2697007499999997,32.34
2021-07-06 11:37:41.828125000,-65.0,4.0,8.5,84.78890625,-58.69,2.2694205,32.34
2021-07-06 11:37:41.835937500,-65.0,4.0,8.75,84.78804687499999,-57.705,2.26914025,32.34
2021-07-06 11:37:41.843750000,-65.0,4.0,9.0,84.7871875,-56.72,2.26886,32.34
2021-07-06 11:37:41.851562500,-65.0,4.0,8.75,84.786328125,-54.06,2.26857975,32.34
2021-07-06 11:37:41.859375000,-65.0,4.0,8.5,84.78546874999999,-51.4,2.2682995,32.34
2021-07-06 11:37:41.867187500,-65.0,4.0,8.25,84.784609375,-47.3,2.26801925,32.34
2021-07-06 11:37:41.875000000,-65.0,4.0,8.0,84.78375,-43.2,2.2677389999999997,32.34
2021-07-06 11:37:41.882812500,-65.0,4.0,8.25,84.782890625,-38.155,2.26745875,32.34
2021-07-06 11:37:41.890625000,-65.0,4.0,8.5,84.78203125,-33.11,2.2671785,32.34
2021-07-06 11:37:41.898437500,-65.0,4.0,8.75,84.781171875,-27.765,2.26689825,32.34
2021-07-06 11:37:41.906250000,-65.0,4.0,9.0,84.7803125,-22.42,2.266618,32.34
2021-07-06 11:37:41.914062500,-65.0,4.0,9.0,84.77945312499999,-17.365000000000002,2.26633775,32.34
2021-07-06 11:37:41.921875000,-65.0,4.0,9.0,84.77859375,-12.31,2.2660575,32.34
2021-07-06 11:37:41.929687500,-65.0,4.0,9.0,84.777734375,-7.95,2.26577725,32.34
2021-07-06 11:37:41.937500000,-65.0,4.0,9.0,84.77687499999999,-3.59,2.265497,32.34
2021-07-06 11:37:41.945312500,-65.0,4.0,9.0,84.776015625,-0.03000000000000025,2.26521675,32.34
2021-07-06 11:37:41.953125000,-65.0,4.0,9.0,84.77515625,3.53,2.2649365,32.34
2021-07-06 11:37:41.960937500,-65.0,4.0,9.0,84.77429687499999,6.375,2.26465625,32.34
2021-07-06 11:37:41.968750000,-65.0,4.0,9.0,84.7734375,9.22,2.264376,32.34
2021-07-06 11:37:41.976562500,-65.0,4.0,8.75,84.772578125,11.54,2.26409575,32.34
2021-07-06 11:37:41.984375000,-65.0,4.0,8.5,84.77171874999999,13.86,2.2638155,32.34
2021-07-06 11:37:41.992187500,-65.0,4.0,8.25,84.770859375,15.795,2.26353525,32.34
2021-07-06 11:37:42.000000000,-65.0,4.0,8.0,84.77,17.73,2.263255,32.34
2021-07-06 11:37:42.007812500,-65.0,4.0,8.0,84.76921875,19.314999999999998,2.2633350625,32.339687500000004
2021-07-06 11:37:42.015625000,-65.0,4.0,8.0,84.76843749999999,20.9,2.263415125,32.339375000000004
2021-07-06 11:37:42.023437500,-65.0,4.0,8.0,84.76765625,22.085,2.2634951875000002,32.339062500000004
2021-07-06 11:37:42.031250000,-65.0,4.0,8.0,84.766875,23.27,2.26357525,32.338750000000005
2021-07-06 11:37:42.039062500,-65.0,4.0,8.25,84.76609375,24.02,2.2636553125,32.338437500000005
2021-07-06 11:37:42.046875000,-65.0,4.0,8.5,84.7653125,24.77,2.263735375,32.338125000000005
2021-07-06 11:37:42.054687500,-65.0,4.0,8.75,84.76453124999999,25.13,2.2638154375,32.337812500000005
2021-07-06 11:37:42.062500000,-65.0,4.0,9.0,84.76375,25.49,2.2638955000000003,32.337500000000006
2021-07-06 11:37:42.070312500,-65.0,4.0,8.75,84.76296875,25.585,2.2639755625,32.3371875
2021-07-06 11:37:42.078125000,-65.0,4.0,8.5,84.7621875,25.68,2.264055625,32.336875
2021-07-06 11:37:42.085937500,-65.0,4.0,8.25,84.76140625,25.675,2.2641356875,32.3365625
2021-07-06 11:37:42.093750000,-65.0,4.0,8.0,84.76062499999999,25.67,2.26421575,32.33625
2021-07-06 11:37:42.101562500,-65.0,4.0,8.0,84.75984375,25.705,2.2642958125,32.3359375
2021-07-06 11:37:42.109375000,-65.0,4.0,8.0,84.7590625,25.74,2.2643758750000003,32.335625
2021-07-06 11:37:42.117187500,-65.0,4.0,8.0,84.75828125,25.875,2.2644559375,32.3353125
2021-07-06 11:37:42.125000000,-65.0,4.0,8.0,84.7575,26.01,2.264536,32.335
2021-07-06 11:37:42.132812500,-65.0,4.0,8.0,84.75671874999999,26.200000000000003,2.2646160625,32.3346875
2021-07-06 11:37:42.140625000,-65.0,4.0,8.0,84.7559375,26.39,2.264696125,32.334375
2021-07-06 11:37:42.148437500,-65.0,4.0,8.0,84.75515625,26.55,2.2647761875000003,32.3340625
2021-07-06 11:37:42.156250000,-65.0,4.0,8.0,84.754375,26.71,2.2648562500000002,32.33375
2021-07-06 11:37:42.164062500,-65.0,4.0,8.25,84.75359375,26.78,2.2649363125,32.3334375
2021-07-06 11:37:42.171875000,-65.0,4.0,8.5,84.75281249999999,26.85,2.265016375,32.333125
2021-07-06 11:37:42.179687500,-65.0,4.0,8.75,84.75203125,26.785,2.2650964375,32.3328125
2021-07-06 11:37:42.187500000,-65.0,4.0,9.0,84.75125,26.72,2.2651765,32.332499999999996
2021-07-06 11:37:42.195312500,-65.0,4.0,8.75,84.75046875,26.535,2.2652565625000003,32.332187499999996
2021-07-06 11:37:42.203125000,-65.0,4.0,8.5,84.7496875,26.35,2.265336625,32.331875
2021-07-06 11:37:42.210937500,-65.0,4.0,8.25,84.74890624999999,26.045,2.2654166875,32.3315625
2021-07-06 11:37:42.218750000,-65.0,4.0,8.0,84.748125,25.74,2.26549675,32.33125
2021-07-06 11:37:42.226562500,-65.0,4.0,8.0,84.74734375,25.305,2.2655768125,32.3309375
2021-07-06 11:37:42.234375000,-65.0,4.0,8.0,84.7465625,24.87,2.2656568750000003,32.330625
2021-07-06 11:37:42.242187500,-65.0,4.0,8.0,84.74578125,24.25,2.2657369375000003,32.3303125
2021-07-06 11:37:42.250000000,-65.0,4.0,8.0,84.745,23.63,2.265817,32.33
2021-07-06 11:37:42.257812500,-65.0,4.0,8.0,84.74421875,22.759999999999998,2.26561684375,32.33
2021-07-06 11:37:42.265625000,-65.0,4.0,8.0,84.7434375,21.89,2.2654166875,32.33
2021-07-06 11:37:42.273437500,-65.0,4.0,8.0,84.74265625,20.705,2.26521653125,32.33
2021-07-06 11:37:42.281250000,-65.0,4.0,8.0,84.741875,19.52,2.265016375,32.33
2021-07-06 11:37:42.289062500,-65.0,4.0,8.0,84.74109375,18.025,2.26481621875,32.33
2021-07-06 11:37:42.296875000,-65.0,4.0,8.0,84.7403125,16.53,2.2646160625,32.33
2021-07-06 11:37:42.304687500,-65.0,4.0,8.0,84.73953125,14.775,2.26441590625,32.33
2021-07-06 11:37:42.312500000,-65.0,4.0,8.0,84.73875,13.02,2.26421575,32.33
2021-07-06 11:37:42.320312500,-65.0,4.0,8.0,84.73796875,11.125,2.2640155937500004,32.33
2021-07-06 11:37:42.328125000,-65.0,4.0,8.0,84.7371875,9.23,2.2638154375000004,32.33
2021-07-06 11:37:42.335937500,-65.0,4.0,8.0,84.73640625,7.34,2.2636152812500003,32.33
2021-07-06 11:37:42.343750000,-65.0,4.0,8.0,84.735625,5.45,2.2634151250000003,32.33
2021-07-06 11:37:42.351562500,-64.75,4.0,8.25,84.73484375,3.725,2.2632149687500003,32.33
2021-07-06 11:37:42.359375000,-64.5,4.0,8.5,84.7340625,2.0,2.2630148125000003,32.33
2021-07-06 11:37:42.367187500,-64.25,4.0,8.75,84.73328125,0.5150000000000001,2.2628146562500002,32.33
2021-07-06 11:37:42.375000000,-64.0,4.0,9.0,84.7325,-0.97,2.2626145,32.33
2021-07-06 11:37:42.382812500,-64.25,4.0,9.0,84.73171875,-2.1900000000000004,2.26241434375,32.33
2021-07-06 11:37:42.390625000,-64.5,4.0,9.0,84.7309375,-3.41,2.2622141875,32.33
2021-07-06 11:37:42.398437500,-64.75,4.0,9.0,84.73015625,-4.445,2.26201403125,32.33
2021-07-06 11:37:42.406250000,-65.0,4.0,9.0,84.729375,-5.48,2.261813875,32.33
2021-07-06 11:37:42.414062500,-65.0,4.0,8.75,84.72859375,-6.465,2.26161371875,32.33
2021-07-06 11:37:42.421875000,-65.0,4.0,8.5,84.7278125,-7.45,2.2614135625,32.33
2021-07-06 11:37:42.429687500,-65.0,4.0,8.25,84.72703125,-8.56,2.26121340625,32.33
2021-07-06 11:37:42.437500000,-65.0,4.0,8.0,84.72625,-9.67,2.2610132500000004,32.33
2021-07-06 11:37:42.445312500,-65.0,4.0,8.0,84.72546875,-11.059999999999999,2.2608130937500004,32.33
2021-07-06 11:37:42.453125000,-65.0,4.0,8.0,84.7246875,-12.45,2.2606129375000004,32.33
2021-07-06 11:37:42.460937500,-65.0,4.0,8.0,84.72390625,-14.2,2.2604127812500003,32.33
2021-07-06 11:37:42.468750000,-65.0,4.0,8.0,84.723125,-15.95,2.2602126250000003,32.33
2021-07-06 11:37:42.476562500,-65.0,4.0,8.0,84.72234375,-18.09,2.2600124687500003,32.33
2021-07-06 11:37:42.484375000,-65.0,4.0,8.0,84.7215625,-20.23,2.2598123125000003,32.33
2021-07-06 11:37:42.492187500,-65.0,4.0,8.0,84.72078125,-22.689999999999998,2.2596121562500002,32.33
2021-07-06 11:37:42.500000000,-65.0,4.0,8.0,84.72,-25.15,2.259412,32.33
2021-07-06 11:37:42.507812500,-65.0,4.0,8.0,84.71921875,-27.805,2.2594520312500004,32.33
2021-07-06 11:37:42.515625000,-65.0,4.0,8.0,84.7184375,-30.46,2.2594920625,32.33
2021-07-06 11:37:42.523437500,-65.0,4.0,8.0,84.71765625,-33.075,2.2595320937500003,32.33
2021-07-06 11:37:42.531250000,-65.0,4.0,8.0,84.716875,-35.69,2.259572125,32.33
2021-07-06 11:37:42.539062500,-65.0,4.0,8.0,84.71609375,-37.945,2.2596121562500002,32.33
2021-07-06 11:37:42.546875000,-65.0,4.0,8.0,84.7153125,-40.2,2.2596521875,32.33
2021-07-06 11:37:42.554687500,-65.0,4.0,8.0,84.71453125,-41.72,2.25969221875,32.33
2021-07-06 11:37:42.562500000,-65.0,4.0,8.0,84.71375,-43.24,2.25973225,32.33
2021-07-06 11:37:42.570312500,-65.0,4.0,8.0,84.71296875,-43.625,2.25977228125,32.33
2021-07-06 11:37:42.578125000,-65.0,4.0,8.0,84.7121875,-44.01,2.2598123125000003,32.33
2021-07-06 11:37:42.585937500,-65.0,4.0,8.0,84.71140625,-42.995,2.25985234375,32.33
2021-07-06 11:37:42.593750000,-65.0,4.0,8.0,84.710625,-41.98,2.259892375,32.33
2021-07-06 11:37:42.601562500,-65.0,4.0,8.0,84.70984375,-39.5,2.25993240625,32.33
2021-07-06 11:37:42.609375000,-65.0,4.0,8.0,84.7090625,-37.02,2.2599724375,32.33
2021-07-06 11:37:42.617187500,-65.0,4.0,8.0,84.70828125,-33.28,2.26001246875,32.33
2021-07-06 11:37:42.625000000,-65.0,4.0,8.0,84.7075,-29.54,2.2600525,32.33
2021-07-06 11:37:42.632812500,-65.0,4.0,8.0,84.70671875,-24.98,2.26009253125,32.33
2021-07-06 11:37:42.640625000,-65.0,4.0,8.0,84.7059375,-20.42,2.2601325625,32.33
2021-07-06 11:37:42.648437500,-65.0,4.0,8.0,84.70515625,-15.59,2.26017259375,32.33
2021-07-06 11:37:42.656250000,-65.0,4.0,8.0,84.704375,-10.76,2.260212625,32.33
2021-07-06 11:37:42.664062500,-65.0,3.75,8.0,84.70359375,-6.165,2.26025265625,32.33
2021-07-06 11:37:42.671875000,-65.0,3.5,8.0,84.7028125,-1.57,2.2602926875,32.33
2021-07-06 11:37:42.679687500,-65.0,3.25,8.0,84.70203125,2.46,2.26033271875,32.33
2021-07-06 11:37:42.687500000,-65.0,3.0,8.0,84.70125,6.49,2.26037275,32.33
2021-07-06 11:37:42.695312500,-65.0,3.25,8.0,84.70046875,9.83,2.26041278125,32.33
2021-07-06 11:37:42.703125000,-65.0,3.5,8.0,84.6996875,13.17,2.2604528125,32.33
2021-07-06 11:37:42.710937500,-65.0,3.75,8.0,84.69890625,15.86,2.26049284375,32.33
2021-07-06 11:37:42.718750000,-65.0,4.0,8.0,84.698125,18.55,2.260532875,32.33
2021-07-06 11:37:42.726562500,-65.0,4.0,8.0,84.69734375,20.689999999999998,2.2605729062499997,32.33
2021-07-06 11:37:42.734375000,-65.0,4.0,8.0,84.6965625,22.83,2.2606129375,32.33
2021-07-06 11:37:42.742187500,-65.0,4.0,8.0,84.69578125,24.505,2.2606529687499997,32.33
2021-07-06 11:37:42.750000000,-65.0,4.0,8.0,84.695,26.18,2.260693,32.33
2021-07-06 11:37:42.757812500,-65.0,4.0,8.0,84.69421875,27.42,2.2605729062499997,32.33
2021-07-06 11:37:42.765625000,-65.0,4.0,8.0,84.6934375,28.66,2.2604528124999996,32.33
2021-07-06 11:37:42.773437500,-65.0,4.0,8.0,84.69265625,29.475,2.26033271875,32.33
2021-07-06 11:37:42.781250000,-65.0,4.0,8.0,84.691875,30.29,2.260212625,32.33
2021-07-06 11:37:42.789062500,-65.0,3.75,8.0,84.69109375000001,30.715,2.2600925312499998,32.33
2021-07-06 11:37:42.796875000,-65.0,3.5,8.0,84.6903125,31.14,2.2599724375,32.33
2021-07-06 11:37:42.804687500,-65.0,3.25,8.0,84.68953125,31.314999999999998,2.25985234375,32.33
2021-07-06 11:37:42.812500000,-65.0,3.0,8.0,84.68875,31.49,2.25973225,32.33
2021-07-06 11:37:42.820312500,-65.0,3.25,8.0,84.68796875,31.575,2.25961215625,32.33
2021-07-06 11:37:42.828125000,-65.0,3.5,8.0,84.68718750000001,31.66,2.2594920624999997,32.33
2021-07-06 11:37:42.835937500,-65.0,3.75,8.0,84.68640625,31.814999999999998,2.25937196875,32.33
2021-07-06 11:37:42.843750000,-65.0,4.0,8.0,84.685625,31.97,2.259251875,32.33
2021-07-06 11:37:42.851562500,-65.0,4.0,8.25,84.68484375,32.265,2.25913178125,32.33
2021-07-06 11:37:42.859375000,-65.0,4.0,8.5,84.6840625,32.56,2.2590116875,32.33
2021-07-06 11:37:42.867187500,-65.0,4.0,8.75,84.68328125000001,32.905,2.25889159375,32.33
2021-07-06 11:37:42.875000000,-65.0,4.0,9.0,84.6825,33.25,2.2587715,32.33
2021-07-06 11:37:42.882812500,-65.0,4.0,8.75,84.68171875,33.43,2.25865140625,32.33
2021-07-06 11:37:42.890625000,-65.0,4.0,8.5,84.6809375,33.61,2.2585313124999997,32.33
2021-07-06 11:37:42.898437500,-65.0,4.0,8.25,84.68015625,33.415,2.25841121875,32.33
2021-07-06 11:37:42.906250000,-65.0,4.0,8.0,84.67937500000001,33.22,2.258291125,32.33
2021-07-06 11:37:42.914062500,-65.0,4.0,8.0,84.67859375,32.495,2.25817103125,32.33
2021-07-06 11:37:42.921875000,-65.0,4.0,8.0,84.6778125,31.77,2.2580509375,32.33
2021-07-06 11:37:42.929687500,-65.0,4.0,8.0,84.67703125,30.560000000000002,2.25793084375,32.33
2021-07-06 11:37:42.937500000,-65.0,4.0,8.0,84.67625,29.35,2.25781075,32.33
2021-07-06 11:37:42.945312500,-64.75,4.0,8.25,84.67546875000001,27.835,2.25769065625,32.33
2021-07-06 11:37:42.953125000,-64.5,4.0,8.5,84.6746875,26.32,2.2575705624999998,32.33
2021-07-06 11:37:42.960937500,-64.25,4.0,8.75,84.67390625,24.775,2.25745046875,32.33
2021-07-06 11:37:42.968750000,-64.0,4.0,9.0,84.673125,23.23,2.257330375,32.33
2021-07-06 11:37:42.976562500,-64.25,4.0,8.75,84.67234375,21.84,2.25721028125,32.33
2021-07-06 11:37:42.984375000,-64.5,4.0,8.5,84.67156250000001,20.45,2.2570901875000002,32.33
2021-07-06 11:37:42.992187500,-64.75,4.0,8.25,84.67078125,19.299999999999997,2.25697009375,32.33
2021-07-06 11:37:43.000000000,-65.0,4.0,8.0,84.67,18.15,2.25685,32.33
2021-07-06 11:37:43.007812500,-65.0,4.0,8.0,84.669296875,17.15,2.25652971875,32.329375
2021-07-06 11:37:43.015625000,-65.0,4.0,8.0,84.66859375,16.15,2.2562094375,32.32875
2021-07-06 11:37:43.023437500,-65.0,4.0,8.0,84.667890625,15.12,2.25588915625,32.328125
2021-07-06 11:37:43.031250000,-65.0,4.0,8.0,84.6671875,14.09,2.255568875,32.3275
2021-07-06 11:37:43.039062500,-65.0,4.0,8.0,84.666484375,12.89,2.25524859375,32.326875
2021-07-06 11:37:43.046875000,-65.0,4.0,8.0,84.66578125,11.69,2.2549283125,32.32625
2021-07-06 11:37:43.054687500,-65.0,4.0,8.0,84.66507812500001,10.235,2.25460803125,32.325625
2021-07-06 11:37:43.062500000,-65.0,4.0,8.0,84.664375,8.78,2.25428775,32.325
2021-07-06 11:37:43.070312500,-65.0,4.0,8.0,84.663671875,7.1,2.25396746875,32.324374999999996
2021-07-06 11:37:43.078125000,-65.0,4.0,8.0,84.66296875,5.42,2.2536471875,32.32375
2021-07-06 11:37:43.085937500,-65.0,4.0,8.0,84.662265625,3.61,2.25332690625,32.323125
2021-07-06 11:37:43.093750000,-65.0,4.0,8.0,84.6615625,1.8,2.2530066250000003,32.3225
2021-07-06 11:37:43.101562500,-65.0,4.0,8.0,84.660859375,-0.04499999999999993,2.25268634375,32.321875
2021-07-06 11:37:43.109375000,-65.0,4.0,8.0,84.66015625,-1.89,2.2523660625,32.32125
2021-07-06 11:37:43.117187500,-65.0,4.0,8.0,84.659453125,-3.7199999999999998,2.25204578125,32.320625
2021-07-06 11:37:43.125000000,-65.0,4.0,8.0,84.65875,-5.55,2.2517255,32.32
2021-07-06 11:37:43.132812500,-65.0,4.0,8.0,84.658046875,-7.345000000000001,2.25140521875,32.319375
2021-07-06 11:37:43.140625000,-65.0,4.0,8.0,84.65734375,-9.14,2.2510849375,32.31875
2021-07-06 11:37:43.148437500,-65.0,4.0,8.0,84.656640625,-10.940000000000001,2.25076465625,32.318125
2021-07-06 11:37:43.156250000,-65.0,4.0,8.0,84.65593750000001,-12.74,2.250444375,32.3175
2021-07-06 11:37:43.164062500,-65.0,4.0,8.0,84.655234375,-14.565000000000001,2.25012409375,32.316875
2021-07-06 11:37:43.171875000,-65.0,4.0,8.0,84.65453125,-16.39,2.2498038125,32.316250000000004
2021-07-06 11:37:43.179687500,-65.0,4.0,8.0,84.653828125,-18.265,2.24948353125,32.315625000000004
2021-07-06 11:37:43.187500000,-65.0,4.0,8.0,84.653125,-20.14,2.24916325,32.315
2021-07-06 11:37:43.195312500,-64.75,4.0,8.0,84.652421875,-22.085,2.24884296875,32.314375
2021-07-06 11:37:43.203125000,-64.5,4.0,8.0,84.65171875,-24.03,2.2485226875,32.31375
2021-07-06 11:37:43.210937500,-64.25,4.0,8.0,84.651015625,-26.065,2.24820240625,32.313125
2021-07-06 11:37:43.218750000,-64.0,4.0,8.0,84.6503125,-28.1,2.2478821250000003,32.3125
2021-07-06 11:37:43.226562500,-64.25,4.0,8.0,84.649609375,-30.25,2.2475618437500002,32.311875
2021-07-06 11:37:43.234375000,-64.5,4.0,8.0,84.64890625,-32.4,2.2472415625,32.31125
2021-07-06 11:37:43.242187500,-64.75,4.0,8.0,84.648203125,-34.68,2.24692128125,32.310625
2021-07-06 11:37:43.250000000,-65.0,4.0,8.0,84.64750000000001,-36.96,2.246601,32.31
2021-07-06 11:37:43.257812500,-64.75,4.0,8.0,84.646796875,-39.285,2.24672109375,32.31
2021-07-06 11:37:43.265625000,-64.5,4.0,8.0,84.64609375,-41.61,2.2468411875000003,32.31
2021-07-06 11:37:43.273437500,-64.25,4.0,8.0,84.645390625,-43.8,2.24696128125,32.31
2021-07-06 11:37:43.281250000,-64.0,4.0,8.0,84.6446875,-45.99,2.247081375,32.31
2021-07-06 11:37:43.289062500,-64.25,4.0,8.0,84.643984375,-47.735,2.24720146875,32.31
2021-07-06 11:37:43.296875000,-64.5,4.0,8.0,84.64328125,-49.48,2.2473215625,32.31
2021-07-06 11:37:43.304687500,-64.75,4.0,8.0,84.642578125,-50.39,2.24744165625,32.31
2021-07-06 11:37:43.312500000,-65.0,4.0,8.0,84.641875,-51.3,2.24756175,32.31
2021-07-06 11:37:43.320312500,-65.0,4.0,8.0,84.641171875,-51.035,2.24768184375,32.31
2021-07-06 11:37:43.328125000,-65.0,4.0,8.0,84.64046875,-50.77,2.2478019375000002,32.31
2021-07-06 11:37:43.335937500,-65.0,4.0,8.0,84.639765625,-49.135000000000005,2.24792203125,32.31
2021-07-06 11:37:43.343750000,-65.0,4.0,8.0,84.6390625,-47.5,2.248042125,32.31
2021-07-06 11:37:43.351562500,-65.0,4.0,8.0,84.63835937500001,-44.55,2.24816221875,32.31
2021-07-06 11:37:43.359375000,-65.0,4.0,8.0,84.63765625,-41.6,2.2482823124999998,32.31
2021-07-06 11:37:43.367187500,-65.0,4.0,8.0,84.636953125,-37.650000000000006,2.24840240625,32.31
2021-07-06 11:37:43.375000000,-65.0,4.0,8.0,84.63625,-33.7,2.2485225,32.31
2021-07-06 11:37:43.382812500,-65.0,4.0,8.0,84.635546875,-29.22,2.24864259375,32.31
2021-07-06 11:37:43.390625000,-65.0,4.0,8.0,84.63484375,-24.74,2.2487626875,32.31
2021-07-06 11:37:43.398437500,-65.0,4.0,8.0,84.634140625,-20.22,2.24888278125,32.31
2021-07-06 11:37:43.406250000,-65.0,4.0,8.0,84.6334375,-15.7,2.249002875,32.31
2021-07-06 11:37:43.414062500,-65.0,4.0,8.0,84.632734375,-11.535,2.24912296875,32.31
2021-07-06 11:37:43.421875000,-65.0,4.0,8.0,84.63203125,-7.37,2.2492430624999997,32.31
2021-07-06 11:37:43.429687500,-65.0,4.0,8.0,84.631328125,-3.765,2.24936315625,32.31
2021-07-06 11:37:43.437500000,-65.0,4.0,8.0,84.630625,-0.16,2.24948325,32.31
2021-07-06 11:37:43.445312500,-65.0,4.0,8.0,84.629921875,2.81,2.24960334375,32.31
2021-07-06 11:37:43.453125000,-65.0,4.0,8.0,84.62921875,5.78,2.2497234375,32.31
2021-07-06 11:37:43.460937500,-65.0,4.0,8.0,84.628515625,8.145,2.24984353125,32.31
2021-07-06 11:37:43.468750000,-65.0,4.0,8.0,84.6278125,10.51,2.249963625,32.31
2021-07-06 11:37:43.476562500,-65.0,4.0,8.25,84.627109375,12.3,2.25008371875,32.31
2021-07-06 11:37:43.484375000,-65.0,4.0,8.5,84.62640625,14.09,2.2502038124999997,32.31
2021-07-06 11:37:43.492187500,-65.0,4.0,8.75,84.625703125,15.32,2.25032390625,32.31
2021-07-06 11:37:43.500000000,-65.0,4.0,9.0,84.625,16.55,2.250444,32.31
2021-07-06 11:37:43.507812500,-65.0,4.0,8.75,84.624296875,17.245,2.2500836875,32.31
2021-07-06 11:37:43.515625000,-65.0,4.0,8.5,84.62359375,17.94,2.249723375,32.31
2021-07-06 11:37:43.523437500,-65.0,4.0,8.25,84.622890625,18.16,2.2493630625,32.31
2021-07-06 11:37:43.531250000,-65.0,4.0,8.0,84.6221875,18.38,2.24900275,32.31
2021-07-06 11:37:43.539062500,-65.0,4.0,8.0,84.621484375,18.27,2.2486424375,32.31
2021-07-06 11:37:43.546875000,-65.0,4.0,8.0,84.62078125,18.16,2.248282125,32.31
2021-07-06 11:37:43.554687500,-65.0,4.0,8.0,84.620078125,17.92,2.2479218125,32.31
2021-07-06 11:37:43.562500000,-65.0,4.0,8.0,84.619375,17.68,2.2475614999999998,32.31
2021-07-06 11:37:43.570312500,-65.0,4.0,8.0,84.618671875,17.509999999999998,2.2472011875,32.31
2021-07-06 11:37:43.578125000,-65.0,4.0,8.0,84.61796875,17.34,2.2468408749999997,32.31
2021-07-06 11:37:43.585937500,-65.0,4.0,8.0,84.617265625,17.365000000000002,2.2464805625,32.31
2021-07-06 11:37:43.593750000,-65.0,4.0,8.0,84.6165625,17.39,2.2461202499999997,32.31
2021-07-06 11:37:43.601562500,-65.0,4.0,8.0,84.615859375,17.634999999999998,2.2457599375,32.31
2021-07-06 11:37:43.609375000,-65.0,4.0,8.0,84.61515625,17.88,2.2453996249999997,32.31
2021-07-06 11:37:43.617187500,-65.0,4.0,8.0,84.614453125,18.259999999999998,2.2450393125,32.31
2021-07-06 11:37:43.625000000,-65.0,4.0,8.0,84.61375,18.64,2.2446789999999996,32.31
2021-07-06 11:37:43.632812500,-65.0,4.0,8.0,84.613046875,19.03,2.2443186875,32.31
2021-07-06 11:37:43.640625000,-65.0,4.0,8.0,84.61234375,19.42,2.243958375,32.31
2021-07-06 11:37:43.648437500,-65.0,4.0,8.0,84.61164062499999,19.69,2.2435980625,32.31
2021-07-06 11:37:43.656250000,-65.0,4.0,8.0,84.6109375,19.96,2.24323775,32.31
2021-07-06 11:37:43.664062500,-65.0,4.0,8.0,84.610234375,20.05,2.2428774375,32.31
2021-07-06 11:37:43.671875000,-65.0,4.0,8.0,84.60953125,20.14,2.242517125,32.31
2021-07-06 11:37:43.679687500,-65.0,4.0,8.0,84.608828125,20.055,2.2421568124999998,32.31
2021-07-06 11:37:43.687500000,-65.0,4.0,8.0,84.608125,19.97,2.2417965,32.31
2021-07-06 11:37:43.695312500,-65.0,4.0,8.0,84.607421875,19.755,2.2414361874999997,32.31
2021-07-06 11:37:43.703125000,-65.0,4.0,8.0,84.60671875,19.54,2.241075875,32.31
2021-07-06 11:37:43.710937500,-65.0,4.0,8.0,84.606015625,19.205,2.2407155624999997,32.31
2021-07-06 11:37:43.718750000,-65.0,4.0,8.0,84.6053125,18.87,2.24035525,32.31
2021-07-06 11:37:43.726562500,-65.0,4.0,8.25,84.604609375,18.39,2.2399949374999997,32.31
2021-07-06 11:37:43.734375000,-65.0,4.0,8.5,84.60390625,17.91,2.239634625,32.31
2021-07-06 11:37:43.742187500,-65.0,4.0,8.75,84.603203125,17.18,2.2392743124999996,32.31
2021-07-06 11:37:43.750000000,-65.0,4.0,9.0,84.60249999999999,16.45,2.238914,32.31
2021-07-06 11:37:43.757812500,-64.75,4.0,8.75,84.601796875,15.375,2.23903409375,32.31
2021-07-06 11:37:43.765625000,-64.5,4.0,8.5,84.60109375,14.3,2.2391541875,32.31
2021-07-06 11:37:43.773437500,-64.25,4.0,8.25,84.600390625,12.850000000000001,2.2392742812499997,32.31
