TimeStamp,empatica.acc.x,empatica.acc.y,empatica.acc.z,empatica.hr,empatica.bvp,empatica.eda,empatica.temp
2021-06-28 16:17:59.000000000,-45.0,3.0,47.0,65.0,20.04,7.811147,238.65
2021-06-28 16:17:59.007812500,-44.75,3.0,46.75,65.00390625,21.2,7.8110669375,238.65
2021-06-28 16:17:59.015625000,-44.5,3.0,46.5,65.0078125,22.36,7.810986875,238.65
2021-06-28 16:17:59.023437500,-44.25,3.0,46.25,65.01171875,23.205,7.8109068125,238.65
2021-06-28 16:17:59.031250000,-44.0,3.0,46.0,65.015625,24.05,7.81082675,238.65
2021-06-28 16:17:59.039062500,-44.25,3.0,46.25,65.01953125,24.645,7.8107466875,238.65
2021-06-28 16:17:59.046875000,-44.5,3.0,46.5,65.0234375,25.24,7.810666625,238.65
2021-06-28 16:17:59.054687500,-44.75,3.0,46.75,65.02734375,25.65,7.8105865625,238.65
2021-06-28 16:17:59.062500000,-45.0,3.0,47.0,65.03125,26.06,7.8105065,238.65
2021-06-28 16:17:59.070312500,-45.0,3.0,46.75,65.03515625,26.34,7.8104264375,238.65
2021-06-28 16:17:59.078125000,-45.0,3.0,46.5,65.0390625,26.62,7.810346375,238.65
2021-06-28 16:17:59.085937500,-45.0,3.0,46.25,65.04296875,26.82,7.8102663125,238.65
2021-06-28 16:17:59.093750000,-45.0,3.0,46.0,65.046875,27.02,7.81018625,238.65
2021-06-28 16:17:59.101562500,-45.0,3.0,46.25,65.05078125,27.189999999999998,7.8101061875,238.65
2021-06-28 16:17:59.109375000,-45.0,3.0,46.5,65.0546875,27.36,7.810026125,238.65
2021-06-28 16:17:59.117187500,-45.0,3.0,46.75,65.05859375,27.490000000000002,7.8099460625,238.65
2021-06-28 16:17:59.125000000,-45.0,3.0,47.0,65.0625,27.62,7.8098659999999995,238.65
2021-06-28 16:17:59.132812500,-44.75,3.0,47.0,65.06640625,27.68,7.8097859375,238.65
2021-06-28 16:17:59.140625000,-44.5,3.0,47.0,65.0703125,27.74,7.809705875,238.65
2021-06-28 16:17:59.148437500,-44.25,3.0,47.0,65.07421875,27.68,7.8096258125,238.65
2021-06-28 16:17:59.156250000,-44.0,3.0,47.0,65.078125,27.62,7.80954575,238.65
2021-06-28 16:17:59.164062500,-44.25,3.0,46.75,65.08203125,27.39,7.8094656875,238.65
2021-06-28 16:17:59.171875000,-44.5,3.0,46.5,65.0859375,27.16,7.809385625,238.65
2021-06-28 16:17:59.179687500,-44.75,3.0,46.25,65.08984375,26.740000000000002,7.8093055625,238.65
2021-06-28 16:17:59.187500000,-45.0,3.0,46.0,65.09375,26.32,7.8092255,238.65
2021-06-28 16:17:59.195312500,-44.75,3.0,46.25,65.09765625,25.705,7.8091454375,238.65
2021-06-28 16:17:59.203125000,-44.5,3.0,46.5,65.1015625,25.09,7.809065375,238.65
2021-06-28 16:17:59.210937500,-44.25,3.0,46.75,65.10546875,24.314999999999998,7.8089853125,238.65
2021-06-28 16:17:59.218750000,-44.0,3.0,47.0,65.109375,23.54,7.80890525,238.65
2021-06-28 16:17:59.226562500,-44.25,3.0,47.0,65.11328125,22.64,7.8088251875,238.65
2021-06-28 16:17:59.234375000,-44.5,3.0,47.0,65.1171875,21.74,7.808745125,238.65
2021-06-28 16:17:59.242187500,-44.75,3.0,47.0,65.12109375,20.77,7.8086650625,238.65
2021-06-28 16:17:59.250000000,-45.0,3.0,47.0,65.125,19.8,7.808585,238.65
2021-06-28 16:17:59.257812500,-44.75,3.0,47.0,65.12890625,18.78,7.8083848125,238.65
2021-06-28 16:17:59.265625000,-44.5,3.0,47.0,65.1328125,17.76,7.808184625,238.65
2021-06-28 16:17:59.273437500,-44.25,3.0,47.0,65.13671875,16.72,7.8079844375,238.65
2021-06-28 16:17:59.281250000,-44.0,3.0,47.0,65.140625,15.68,7.80778425,238.65
2021-06-28 16:17:59.289062500,-44.0,3.0,47.0,65.14453125,14.620000000000001,7.8075840625,238.65
2021-06-28 16:17:59.296875000,-44.0,3.0,47.0,65.1484375,13.56,7.807383875,238.65
2021-06-28 16:17:59.304687500,-44.0,3.0,47.0,65.15234375,12.440000000000001,7.8071836875,238.65
2021-06-28 16:17:59.312500000,-44.0,3.0,47.0,65.15625,11.32,7.806983499999999,238.65
2021-06-28 16:17:59.320312500,-44.25,3.0,47.0,65.16015625,10.09,7.8067833124999995,238.65
2021-06-28 16:17:59.328125000,-44.5,3.0,47.0,65.1640625,8.86,7.8065831249999995,238.65
2021-06-28 16:17:59.335937500,-44.75,3.0,47.0,65.16796875,7.47,7.8063829375,238.65
2021-06-28 16:17:59.343750000,-45.0,3.0,47.0,65.171875,6.08,7.80618275,238.65
2021-06-28 16:17:59.351562500,-44.75,3.0,47.0,65.17578125,4.505,7.8059825625,238.65
2021-06-28 16:17:59.359375000,-44.5,3.0,47.0,65.1796875,2.93,7.805782375,238.65
2021-06-28 16:17:59.367187500,-44.25,3.0,47.0,65.18359375,1.2000000000000002,7.8055821875,238.65
2021-06-28 16:17:59.375000000,-44.0,3.0,47.0,65.1875,-0.53,7.805382,238.65
2021-06-28 16:17:59.382812500,-44.25,3.0,47.0,65.19140625,-2.3149999999999995,7.8051818125,238.65
2021-06-28 16:17:59.390625000,-44.5,3.0,47.0,65.1953125,-4.1,7.804981625,238.65
2021-06-28 16:17:59.398437500,-44.75,3.0,47.0,65.19921875,-5.824999999999999,7.8047814375,238.65
2021-06-28 16:17:59.406250000,-45.0,3.0,47.0,65.203125,-7.55,7.80458125,238.65
2021-06-28 16:17:59.414062500,-45.0,3.0,46.75,65.20703125,-9.125,7.8043810625,238.65
2021-06-28 16:17:59.421875000,-45.0,3.0,46.5,65.2109375,-10.7,7.804180875,238.65
2021-06-28 16:17:59.429687500,-45.0,3.0,46.25,65.21484375,-12.1,7.8039806875,238.65
2021-06-28 16:17:59.437500000,-45.0,3.0,46.0,65.21875,-13.5,7.8037805,238.65
2021-06-28 16:17:59.445312500,-45.0,3.0,46.25,65.22265625,-14.79,7.803580312499999,238.65
2021-06-28 16:17:59.453125000,-45.0,3.0,46.5,65.2265625,-16.08,7.8033801249999994,238.65
2021-06-28 16:17:59.460937500,-45.0,3.0,46.75,65.23046875,-17.395,7.8031799374999995,238.65
2021-06-28 16:17:59.468750000,-45.0,3.0,47.0,65.234375,-18.71,7.8029797499999995,238.65
2021-06-28 16:17:59.476562500,-45.0,3.0,47.0,65.23828125,-20.19,7.8027795625,238.65
2021-06-28 16:17:59.484375000,-45.0,3.0,47.0,65.2421875,-21.67,7.802579375,238.65
2021-06-28 16:17:59.492187500,-45.0,3.0,47.0,65.24609375,-23.425,7.8023791875,238.65
2021-06-28 16:17:59.500000000,-45.0,3.0,47.0,65.25,-25.18,7.802179,238.65
2021-06-28 16:17:59.507812500,-45.0,2.75,47.0,65.25390625,-27.225,7.802179,238.65
2021-06-28 16:17:59.515625000,-45.0,2.5,47.0,65.2578125,-29.27,7.802179,238.65
2021-06-28 16:17:59.523437500,-45.0,2.25,47.0,65.26171875,-31.494999999999997,7.802179,238.65
2021-06-28 16:17:59.531250000,-45.0,2.0,47.0,65.265625,-33.72,7.802179,238.65
2021-06-28 16:17:59.539062500,-45.0,2.0,46.75,65.26953125,-35.905,7.802179,238.65
2021-06-28 16:17:59.546875000,-45.0,2.0,46.5,65.2734375,-38.09,7.802179,238.65
2021-06-28 16:17:59.554687500,-45.0,2.0,46.25,65.27734375,-39.975,7.802179,238.65
2021-06-28 16:17:59.562500000,-45.0,2.0,46.0,65.28125,-41.86,7.802179,238.65
2021-06-28 16:17:59.570312500,-45.0,2.25,46.0,65.28515625,-43.19,7.802179,238.65
2021-06-28 16:17:59.578125000,-45.0,2.5,46.0,65.2890625,-44.52,7.802179,238.65
2021-06-28 16:17:59.585937500,-45.0,2.75,46.0,65.29296875,-45.125,7.802179,238.65
2021-06-28 16:17:59.593750000,-45.0,3.0,46.0,65.296875,-45.73,7.802179,238.65
2021-06-28 16:17:59.601562500,-44.75,2.75,46.25,65.30078125,-45.53,7.802179,238.65
2021-06-28 16:17:59.609375000,-44.5,2.5,46.5,65.3046875,-45.33,7.802179,238.65
2021-06-28 16:17:59.617187500,-44.25,2.25,46.75,65.30859375,-44.335,7.802179,238.65
2021-06-28 16:17:59.625000000,-44.0,2.0,47.0,65.3125,-43.34,7.802179,238.65
2021-06-28 16:17:59.632812500,-44.25,2.0,47.0,65.31640625,-41.63,7.802179,238.65
2021-06-28 16:17:59.640625000,-44.5,2.0,47.0,65.3203125,-39.92,7.802179,238.65
2021-06-28 16:17:59.648437500,-44.75,2.0,47.0,65.32421875,-37.61,7.802179,238.65
2021-06-28 16:17:59.656250000,-45.0,2.0,47.0,65.328125,-35.3,7.802179,238.65
2021-06-28 16:17:59.664062500,-45.0,2.25,47.0,65.33203125,-32.504999999999995,7.802179,238.65
2021-06-28 16:17:59.671875000,-45.0,2.5,47.0,65.3359375,-29.71,7.802179,238.65
2021-06-28 16:17:59.679687500,-45.0,2.75,47.0,65.33984375,-26.545,7.802179,238.65
2021-06-28 16:17:59.687500000,-45.0,3.0,47.0,65.34375,-23.38,7.802179,238.65
2021-06-28 16:17:59.695312500,-45.0,3.0,47.0,65.34765625,-19.96,7.802179,238.65
2021-06-28 16:17:59.703125000,-45.0,3.0,47.0,65.3515625,-16.54,7.802179,238.65
2021-06-28 16:17:59.710937500,-45.0,3.0,47.0,65.35546875,-13.004999999999999,7.802179,238.65
2021-06-28 16:17:59.718750000,-45.0,3.0,47.0,65.359375,-9.47,7.802179,238.65
2021-06-28 16:17:59.726562500,-45.0,3.0,47.0,65.36328125,-5.98,7.802179,238.65
2021-06-28 16:17:59.734375000,-45.0,3.0,47.0,65.3671875,-2.49,7.802179,238.65
2021-06-28 16:17:59.742187500,-45.0,3.0,47.0,65.37109375,0.7849999999999997,7.802179,238.65
2021-06-28 16:17:59.750000000,-45.0,3.0,47.0,65.375,4.06,7.802179,238.65
2021-06-28 16:17:59.757812500,-45.0,3.0,46.75,65.37890625,6.970000000000001,7.8022190625,238.65
2021-06-28 16:17:59.765625000,-45.0,3.0,46.5,65.3828125,9.88,7.802259125,238.65
2021-06-28 16:17:59.773437500,-45.0,3.0,46.25,65.38671875,12.315000000000001,7.8022991875,238.65
2021-06-28 16:17:59.781250000,-45.0,3.0,46.0,65.390625,14.75,7.80233925,238.65
2021-06-28 16:17:59.789062500,-45.0,3.0,46.25,65.39453125,16.665,7.8023793125,238.65
2021-06-28 16:17:59.796875000,-45.0,3.0,46.5,65.3984375,18.58,7.8024193749999995,238.65
2021-06-28 16:17:59.804687500,-45.0,3.0,46.75,65.40234375,20.005,7.8024594375,238.65
2021-06-28 16:17:59.812500000,-45.0,3.0,47.0,65.40625,21.43,7.8024995,238.65
2021-06-28 16:17:59.820312500,-45.0,2.75,46.75,65.41015625,22.42,7.8025395625,238.65
2021-06-28 16:17:59.828125000,-45.0,2.5,46.5,65.4140625,23.41,7.802579625,238.65
2021-06-28 16:17:59.835937500,-45.0,2.25,46.25,65.41796875,24.064999999999998,7.8026196875,238.65
2021-06-28 16:17:59.843750000,-45.0,2.0,46.0,65.421875,24.72,7.80265975,238.65
2021-06-28 16:17:59.851562500,-45.0,2.0,46.25,65.42578125,25.13,7.8026998125,238.65
2021-06-28 16:17:59.859375000,-45.0,2.0,46.5,65.4296875,25.54,7.802739875,238.65
2021-06-28 16:17:59.867187500,-45.0,2.0,46.75,65.43359375,25.805,7.8027799375,238.65
2021-06-28 16:17:59.875000000,-45.0,2.0,47.0,65.4375,26.07,7.8028200000000005,238.65
2021-06-28 16:17:59.882812500,-45.0,2.25,47.0,65.44140625,26.285,7.8028600625,238.65
2021-06-28 16:17:59.890625000,-45.0,2.5,47.0,65.4453125,26.5,7.802900125,238.65
2021-06-28 16:17:59.898437500,-45.0,2.75,47.0,65.44921875,26.705,7.8029401875,238.65
2021-06-28 16:17:59.906250000,-45.0,3.0,47.0,65.453125,26.91,7.80298025,238.65
2021-06-28 16:17:59.914062500,-45.0,3.0,46.75,65.45703125,27.095,7.8030203125,238.65
2021-06-28 16:17:59.921875000,-45.0,3.0,46.5,65.4609375,27.28,7.803060375,238.65
2021-06-28 16:17:59.929687500,-45.0,3.0,46.25,65.46484375,27.39,7.8031004375,238.65
2021-06-28 16:17:59.937500000,-45.0,3.0,46.0,65.46875,27.5,7.8031405000000005,238.65
2021-06-28 16:17:59.945312500,-45.0,3.0,46.25,65.47265625,27.45,7.803180562500001,238.65
2021-06-28 16:17:59.953125000,-45.0,3.0,46.5,65.4765625,27.4,7.803220625000001,238.65
2021-06-28 16:17:59.960937500,-45.0,3.0,46.75,65.48046875,27.15,7.8032606875,238.65
2021-06-28 16:17:59.968750000,-45.0,3.0,47.0,65.484375,26.9,7.80330075,238.65
2021-06-28 16:17:59.976562500,-45.0,3.0,46.75,65.48828125,26.46,7.8033408125,238.65
2021-06-28 16:17:59.984375000,-45.0,3.0,46.5,65.4921875,26.02,7.803380875,238.65
2021-06-28 16:17:59.992187500,-45.0,3.0,46.25,65.49609375,25.455,7.8034209375,238.65
2021-06-28 16:18:00.000000000,-45.0,3.0,46.0,65.5,24.89,7.803461,238.65
2021-06-28 16:18:00.007812500,-45.0,3.0,46.25,65.498671875,24.29,7.80322078125,238.65
2021-06-28 16:18:00.015625000,-45.0,3.0,46.5,65.49734375,23.69,7.8029805625,238.65
2021-06-28 16:18:00.023437500,-45.0,3.0,46.75,65.496015625,23.095,7.80274034375,238.65
2021-06-28 16:18:00.031250000,-45.0,3.0,47.0,65.4946875,22.5,7.802500125,238.65
2021-06-28 16:18:00.039062500,-45.0,2.75,47.0,65.493359375,21.875,7.802259906250001,238.65
2021-06-28 16:18:00.046875000,-45.0,2.5,47.0,65.49203125,21.25,7.8020196875000005,238.65
2021-06-28 16:18:00.054687500,-45.0,2.25,47.0,65.490703125,20.52,7.80177946875,238.65
2021-06-28 16:18:00.062500000,-45.0,2.0,47.0,65.489375,19.79,7.80153925,238.65
2021-06-28 16:18:00.070312500,-45.0,2.25,46.75,65.488046875,18.91,7.80129903125,238.65
2021-06-28 16:18:00.078125000,-45.0,2.5,46.5,65.48671875,18.03,7.8010588125,238.65
2021-06-28 16:18:00.085937500,-45.0,2.75,46.25,65.485390625,17.025,7.80081859375,238.65
2021-06-28 16:18:00.093750000,-45.0,3.0,46.0,65.4840625,16.02,7.800578375000001,238.65
2021-06-28 16:18:00.101562500,-45.0,3.0,46.0,65.482734375,14.969999999999999,7.8003381562500005,238.65
2021-06-28 16:18:00.109375000,-45.0,3.0,46.0,65.48140625,13.92,7.8000979375,238.65
2021-06-28 16:18:00.117187500,-45.0,3.0,46.0,65.480078125,12.92,7.79985771875,238.65
2021-06-28 16:18:00.125000000,-45.0,3.0,46.0,65.47875,11.92,7.7996175,238.65
2021-06-28 16:18:00.132812500,-45.0,3.0,46.0,65.477421875,11.004999999999999,7.79937728125,238.65
2021-06-28 16:18:00.140625000,-45.0,3.0,46.0,65.47609375,10.09,7.7991370625,238.65
2021-06-28 16:18:00.148437500,-45.0,3.0,46.0,65.474765625,9.19,7.79889684375,238.65
2021-06-28 16:18:00.156250000,-45.0,3.0,46.0,65.4734375,8.29,7.798656625,238.65
2021-06-28 16:18:00.164062500,-45.0,3.0,46.0,65.472109375,7.26,7.79841640625,238.65
2021-06-28 16:18:00.171875000,-45.0,3.0,46.0,65.47078125,6.23,7.7981761875,238.65
2021-06-28 16:18:00.179687500,-45.0,3.0,46.0,65.469453125,4.94,7.79793596875,238.65
2021-06-28 16:18:00.187500000,-45.0,3.0,46.0,65.468125,3.65,7.79769575,238.65
2021-06-28 16:18:00.195312500,-45.0,2.75,46.25,65.466796875,2.06,7.79745553125,238.65
2021-06-28 16:18:00.203125000,-45.0,2.5,46.5,65.46546875,0.47,7.7972153125,238.65
2021-06-28 16:18:00.210937500,-45.0,2.25,46.75,65.464140625,-1.3350000000000002,7.7969750937499995,238.65
2021-06-28 16:18:00.218750000,-45.0,2.0,47.0,65.4628125,-3.14,7.796734875,238.65
2021-06-28 16:18:00.226562500,-45.0,2.0,47.0,65.461484375,-5.0,7.79649465625,238.65
2021-06-28 16:18:00.234375000,-45.0,2.0,47.0,65.46015625,-6.86,7.7962544375,238.65
2021-06-28 16:18:00.242187500,-45.0,2.0,47.0,65.458828125,-8.59,7.79601421875,238.65
2021-06-28 16:18:00.250000000,-45.0,2.0,47.0,65.4575,-10.32,7.795774,238.65
2021-06-28 16:18:00.257812500,-44.75,2.25,47.0,65.456171875,-11.825,7.7953336562499995,238.65
2021-06-28 16:18:00.265625000,-44.5,2.5,47.0,65.45484375,-13.33,7.7948933125,238.65
2021-06-28 16:18:00.273437500,-44.25,2.75,47.0,65.453515625,-14.605,7.79445296875,238.65
2021-06-28 16:18:00.281250000,-44.0,3.0,47.0,65.4521875,-15.88,7.794012625,238.65
2021-06-28 16:18:00.289062500,-44.25,3.0,47.0,65.450859375,-17.07,7.7935722812499995,238.65
2021-06-28 16:18:00.296875000,-44.5,3.0,47.0,65.44953124999999,-18.26,7.7931319375,238.65
2021-06-28 16:18:00.304687500,-44.75,3.0,47.0,65.448203125,-19.55,7.79269159375,238.65
2021-06-28 16:18:00.312500000,-45.0,3.0,47.0,65.446875,-20.84,7.79225125,238.65
2021-06-28 16:18:00.320312500,-45.0,3.0,47.0,65.445546875,-22.384999999999998,7.79181090625,238.65
2021-06-28 16:18:00.328125000,-45.0,3.0,47.0,65.44421875,-23.93,7.7913705625,238.65
2021-06-28 16:18:00.335937500,-45.0,3.0,47.0,65.442890625,-25.8,7.79093021875,238.65
2021-06-28 16:18:00.343750000,-45.0,3.0,47.0,65.4415625,-27.67,7.790489875,238.65
2021-06-28 16:18:00.351562500,-45.0,2.75,46.75,65.440234375,-29.795,7.79004953125,238.65
2021-06-28 16:18:00.359375000,-45.0,2.5,46.5,65.43890625,-31.92,7.7896091875,238.65
2021-06-28 16:18:00.367187500,-45.0,2.25,46.25,65.437578125,-34.095,7.78916884375,238.65
2021-06-28 16:18:00.375000000,-45.0,2.0,46.0,65.43625,-36.27,7.7887284999999995,238.65
2021-06-28 16:18:00.382812500,-45.0,2.0,46.0,65.434921875,-38.21,7.78828815625,238.65
2021-06-28 16:18:00.390625000,-45.0,2.0,46.0,65.43359375,-40.15,7.7878478125,238.65
2021-06-28 16:18:00.398437500,-45.0,2.0,46.0,65.432265625,-41.56,7.78740746875,238.65
2021-06-28 16:18:00.406250000,-45.0,2.0,46.0,65.4309375,-42.97,7.786967125,238.65
2021-06-28 16:18:00.414062500,-45.0,2.25,46.25,65.429609375,-43.635,7.78652678125,238.65
2021-06-28 16:18:00.421875000,-45.0,2.5,46.5,65.42828125,-44.3,7.7860864375,238.65
2021-06-28 16:18:00.429687500,-45.0,2.75,46.75,65.426953125,-44.129999999999995,7.78564609375,238.65
2021-06-28 16:18:00.437500000,-45.0,3.0,47.0,65.425625,-43.96,7.78520575,238.65
2021-06-28 16:18:00.445312500,-45.0,2.75,47.0,65.424296875,-42.975,7.78476540625,238.65
2021-06-28 16:18:00.453125000,-45.0,2.5,47.0,65.42296875,-41.99,7.7843250625,238.65
2021-06-28 16:18:00.460937500,-45.0,2.25,47.0,65.421640625,-40.295,7.78388471875,238.65
2021-06-28 16:18:00.468750000,-45.0,2.0,47.0,65.4203125,-38.6,7.783444375,238.65
2021-06-28 16:18:00.476562500,-45.0,2.25,46.75,65.418984375,-36.325,7.78300403125,238.65
2021-06-28 16:18:00.484375000,-45.0,2.5,46.5,65.41765625,-34.05,7.7825636875,238.65
2021-06-28 16:18:00.492187500,-45.0,2.75,46.25,65.41632812499999,-31.339999999999996,7.78212334375,238.65
2021-06-28 16:18:00.500000000,-45.0,3.0,46.0,65.41499999999999,-28.63,7.781683,238.65
2021-06-28 16:18:00.507812500,-45.0,3.0,46.25,65.413671875,-25.619999999999997,7.78180309375,238.65
2021-06-28 16:18:00.515625000,-45.0,3.0,46.5,65.41234375,-22.61,7.7819231875,238.65
2021-06-28 16:18:00.523437500,-45.0,3.0,46.75,65.411015625,-19.43,7.78204328125,238.65
2021-06-28 16:18:00.531250000,-45.0,3.0,47.0,65.4096875,-16.25,7.782163375,238.65
2021-06-28 16:18:00.539062500,-45.0,3.0,46.75,65.408359375,-13.055,7.78228346875,238.65
2021-06-28 16:18:00.546875000,-45.0,3.0,46.5,65.40703125,-9.86,7.7824035625,238.65
2021-06-28 16:18:00.554687500,-45.0,3.0,46.25,65.405703125,-6.79,7.78252365625,238.65
2021-06-28 16:18:00.562500000,-45.0,3.0,46.0,65.404375,-3.72,7.78264375,238.65
2021-06-28 16:18:00.570312500,-45.0,3.0,46.0,65.403046875,-0.8850000000000002,7.78276384375,238.65
2021-06-28 16:18:00.578125000,-45.0,3.0,46.0,65.40171875,1.95,7.7828839375,238.65
2021-06-28 16:18:00.585937500,-45.0,3.0,46.0,65.400390625,4.45,7.78300403125,238.65
2021-06-28 16:18:00.593750000,-45.0,3.0,46.0,65.3990625,6.95,7.7831241250000005,238.65
2021-06-28 16:18:00.601562500,-45.0,3.0,46.25,65.397734375,9.1,7.78324421875,238.65
2021-06-28 16:18:00.609375000,-45.0,3.0,46.5,65.39640625,11.25,7.7833643125,238.65
2021-06-28 16:18:00.617187500,-45.0,3.0,46.75,65.395078125,13.035,7.78348440625,238.65
2021-06-28 16:18:00.625000000,-45.0,3.0,47.0,65.39375,14.82,7.7836045,238.65
2021-06-28 16:18:00.632812500,-45.0,2.75,46.75,65.392421875,16.27,7.78372459375,238.65
2021-06-28 16:18:00.640625000,-45.0,2.5,46.5,65.39109375,17.72,7.7838446875,238.65
2021-06-28 16:18:00.648437500,-45.0,2.25,46.25,65.389765625,18.865000000000002,7.78396478125,238.65
2021-06-28 16:18:00.656250000,-45.0,2.0,46.0,65.3884375,20.01,7.784084875,238.65
2021-06-28 16:18:00.664062500,-45.0,2.25,46.25,65.387109375,20.89,7.78420496875,238.65
2021-06-28 16:18:00.671875000,-45.0,2.5,46.5,65.38578125,21.77,7.7843250625,238.65
2021-06-28 16:18:00.679687500,-45.0,2.75,46.75,65.384453125,22.424999999999997,7.78444515625,238.65
2021-06-28 16:18:00.687500000,-45.0,3.0,47.0,65.38312499999999,23.08,7.78456525,238.65
2021-06-28 16:18:00.695312500,-45.0,3.0,47.0,65.38179687499999,23.54,7.78468534375,238.65
2021-06-28 16:18:00.703125000,-45.0,3.0,47.0,65.38046875,24.0,7.7848054375,238.65
2021-06-28 16:18:00.710937500,-45.0,3.0,47.0,65.379140625,24.285,7.78492553125,238.65
2021-06-28 16:18:00.718750000,-45.0,3.0,47.0,65.3778125,24.57,7.785045625,238.65
2021-06-28 16:18:00.726562500,-45.0,2.75,47.0,65.376484375,24.685000000000002,7.78516571875,238.65
2021-06-28 16:18:00.734375000,-45.0,2.5,47.0,65.37515625,24.8,7.7852858125,238.65
2021-06-28 16:18:00.742187500,-45.0,2.25,47.0,65.373828125,24.78,7.78540590625,238.65
2021-06-28 16:18:00.750000000,-45.0,2.0,47.0,65.3725,24.76,7.785526,238.65
2021-06-28 16:18:00.757812500,-45.0,2.0,46.75,65.371171875,24.625,7.78520575,238.65
2021-06-28 16:18:00.765625000,-45.0,2.0,46.5,65.36984375,24.49,7.7848855,238.65
2021-06-28 16:18:00.773437500,-45.0,2.0,46.25,65.368515625,24.299999999999997,7.78456525,238.65
2021-06-28 16:18:00.781250000,-45.0,2.0,46.0,65.3671875,24.11,7.784245,238.65
2021-06-28 16:18:00.789062500,-44.75,2.0,46.25,65.365859375,23.9,7.78392475,238.65
2021-06-28 16:18:00.796875000,-44.5,2.0,46.5,65.36453125,23.69,7.7836045,238.65
2021-06-28 16:18:00.804687500,-44.25,2.0,46.75,65.363203125,23.495,7.78328425,238.65
2021-06-28 16:18:00.812500000,-44.0,2.0,47.0,65.361875,23.3,7.782964,238.65
2021-06-28 16:18:00.820312500,-44.25,2.25,46.75,65.360546875,23.09,7.78264375,238.65
2021-06-28 16:18:00.828125000,-44.5,2.5,46.5,65.35921875,22.88,7.7823235,238.65
2021-06-28 16:18:00.835937500,-44.75,2.75,46.25,65.357890625,22.6,7.78200325,238.65
2021-06-28 16:18:00.843750000,-45.0,3.0,46.0,65.3565625,22.32,7.781683,238.65
2021-06-28 16:18:00.851562500,-45.0,2.75,46.0,65.355234375,21.915,7.78136275,238.65
2021-06-28 16:18:00.859375000,-45.0,2.5,46.0,65.35390625,21.51,7.7810425,238.65
2021-06-28 16:18:00.867187500,-45.0,2.25,46.0,65.352578125,20.92,7.78072225,238.65
2021-06-28 16:18:00.875000000,-45.0,2.0,46.0,65.35125,20.33,7.7804020000000005,238.65
2021-06-28 16:18:00.882812500,-45.0,2.25,46.0,65.34992187499999,19.534999999999997,7.78008175,238.65
2021-06-28 16:18:00.890625000,-45.0,2.5,46.0,65.34859374999999,18.74,7.7797615,238.65
2021-06-28 16:18:00.898437500,-45.0,2.75,46.0,65.34726562499999,17.759999999999998,7.77944125,238.65
2021-06-28 16:18:00.906250000,-45.0,3.0,46.0,65.3459375,16.78,7.779121,238.65
2021-06-28 16:18:00.914062500,-45.0,3.0,46.25,65.344609375,15.665000000000001,7.77880075,238.65
2021-06-28 16:18:00.921875000,-45.0,3.0,46.5,65.34328125,14.55,7.7784805,238.65
2021-06-28 16:18:00.929687500,-45.0,3.0,46.75,65.341953125,13.36,7.77816025,238.65
2021-06-28 16:18:00.937500000,-45.0,3.0,47.0,65.340625,12.17,7.77784,238.65
2021-06-28 16:18:00.945312500,-45.0,2.75,46.75,65.339296875,10.955,7.77751975,238.65
2021-06-28 16:18:00.953125000,-45.0,2.5,46.5,65.33796875,9.74,7.7771995,238.65
2021-06-28 16:18:00.960937500,-45.0,2.25,46.25,65.336640625,8.525,7.77687925,238.65
2021-06-28 16:18:00.968750000,-45.0,2.0,46.0,65.3353125,7.31,7.776559,238.65
2021-06-28 16:18:00.976562500,-45.0,2.25,46.0,65.333984375,6.09,7.77623875,238.65
2021-06-28 16:18:00.984375000,-45.0,2.5,46.0,65.33265625,4.87,7.7759185,238.65
2021-06-28 16:18:00.992187500,-45.0,2.75,46.0,65.331328125,3.625,7.77559825,238.65
2021-06-28 16:18:01.000000000,-45.0,3.0,46.0,65.33,2.38,7.775278,238.65
2021-06-28 16:18:01.007812500,-45.0,3.0,46.0,65.331328125,1.0799999999999998,7.77539809375,238.65
2021-06-28 16:18:01.015625000,-45.0,3.0,46.0,65.33265625,-0.22,7.7755181875,238.65
2021-06-28 16:18:01.023437500,-45.0,3.0,46.0,65.333984375,-1.555,7.77563828125,238.65
2021-06-28 16:18:01.031250000,-45.0,3.0,46.0,65.3353125,-2.89,7.7757583750000006,238.65
2021-06-28 16:18:01.039062500,-45.0,3.0,46.25,65.336640625,-4.24,7.77587846875,238.65
2021-06-28 16:18:01.046875000,-45.0,3.0,46.5,65.33796875,-5.59,7.7759985625,238.65
2021-06-28 16:18:01.054687500,-45.0,3.0,46.75,65.339296875,-6.93,7.77611865625,238.65
2021-06-28 16:18:01.062500000,-45.0,3.0,47.0,65.340625,-8.27,7.77623875,238.65
2021-06-28 16:18:01.070312500,-45.0,3.0,46.75,65.341953125,-9.58,7.77635884375,238.65
2021-06-28 16:18:01.078125000,-45.0,3.0,46.5,65.34328125,-10.89,7.7764789375,238.65
2021-06-28 16:18:01.085937500,-45.0,3.0,46.25,65.344609375,-12.185,7.77659903125,238.65
2021-06-28 16:18:01.093750000,-45.0,3.0,46.0,65.3459375,-13.48,7.776719125,238.65
2021-06-28 16:18:01.101562500,-45.0,2.75,46.0,65.34726562499999,-14.785,7.77683921875,238.65
2021-06-28 16:18:01.109375000,-45.0,2.5,46.0,65.34859374999999,-16.09,7.7769593125,238.65
2021-06-28 16:18:01.117187500,-45.0,2.25,46.0,65.34992187499999,-17.43,7.77707940625,238.65
2021-06-28 16:18:01.125000000,-45.0,2.0,46.0,65.35125,-18.77,7.7771995,238.65
2021-06-28 16:18:01.132812500,-45.0,2.25,46.0,65.352578125,-20.185000000000002,7.77731959375,238.65
2021-06-28 16:18:01.140625000,-45.0,2.5,46.0,65.35390625,-21.6,7.7774396875,238.65
2021-06-28 16:18:01.148437500,-45.0,2.75,46.0,65.355234375,-23.14,7.77755978125,238.65
2021-06-28 16:18:01.156250000,-45.0,3.0,46.0,65.3565625,-24.68,7.7776798750000005,238.65
2021-06-28 16:18:01.164062500,-45.0,3.0,46.0,65.357890625,-26.395,7.77779996875,238.65
2021-06-28 16:18:01.171875000,-45.0,3.0,46.0,65.35921875,-28.11,7.7779200625,238.65
2021-06-28 16:18:01.179687500,-45.0,3.0,46.0,65.360546875,-30.03,7.77804015625,238.65
2021-06-28 16:18:01.187500000,-45.0,3.0,46.0,65.361875,-31.95,7.77816025,238.65
2021-06-28 16:18:01.195312500,-45.0,3.0,46.0,65.363203125,-34.02,7.77828034375,238.65
2021-06-28 16:18:01.203125000,-45.0,3.0,46.0,65.36453125,-36.09,7.7784004375,238.65
2021-06-28 16:18:01.210937500,-45.0,3.0,46.0,65.365859375,-38.145,7.77852053125,238.65
2021-06-28 16:18:01.218750000,-45.0,3.0,46.0,65.3671875,-40.2,7.7786406249999995,238.65
2021-06-28 16:18:01.226562500,-45.0,3.0,46.25,65.368515625,-41.965,7.77876071875,238.65
2021-06-28 16:18:01.234375000,-45.0,3.0,46.5,65.36984375,-43.73,7.7788808125,238.65
2021-06-28 16:18:01.242187500,-45.0,3.0,46.75,65.371171875,-44.894999999999996,7.77900090625,238.65
2021-06-28 16:18:01.250000000,-45.0,3.0,47.0,65.3725,-46.06,7.779121,238.65
2021-06-28 16:18:01.257812500,-45.0,3.0,46.75,65.373828125,-46.365,7.77892084375,238.65
2021-06-28 16:18:01.265625000,-45.0,3.0,46.5,65.37515625,-46.67,7.7787206875,238.65
2021-06-28 16:18:01.273437500,-45.0,3.0,46.25,65.376484375,-46.0,7.77852053125,238.65
2021-06-28 16:18:01.281250000,-45.0,3.0,46.0,65.3778125,-45.33,7.778320375,238.65
2021-06-28 16:18:01.289062500,-45.0,3.0,46.25,65.379140625,-43.730000000000004,7.77812021875,238.65
2021-06-28 16:18:01.296875000,-45.0,3.0,46.5,65.38046875,-42.13,7.7779200625,238.65
2021-06-28 16:18:01.304687500,-45.0,3.0,46.75,65.38179687499999,-39.765,7.77771990625,238.65
2021-06-28 16:18:01.312500000,-45.0,3.0,47.0,65.38312499999999,-37.4,7.77751975,238.65
2021-06-28 16:18:01.320312500,-45.0,2.75,46.75,65.384453125,-34.504999999999995,7.77731959375,238.65
2021-06-28 16:18:01.328125000,-45.0,2.5,46.5,65.38578125,-31.61,7.7771194375,238.65
2021-06-28 16:18:01.335937500,-45.0,2.25,46.25,65.387109375,-28.38,7.77691928125,238.65
2021-06-28 16:18:01.343750000,-45.0,2.0,46.0,65.3884375,-25.15,7.776719125,238.65
2021-06-28 16:18:01.351562500,-45.0,2.25,46.25,65.389765625,-21.74,7.77651896875,238.65
2021-06-28 16:18:01.359375000,-45.0,2.5,46.5,65.39109375,-18.33,7.7763188125,238.65
2021-06-28 16:18:01.367187500,-45.0,2.75,46.75,65.392421875,-14.84,7.7761186562499995,238.65
2021-06-28 16:18:01.375000000,-45.0,3.0,47.0,65.39375,-11.35,7.7759184999999995,238.65
2021-06-28 16:18:01.382812500,-45.0,3.0,46.75,65.395078125,-7.88,7.77571834375,238.65
2021-06-28 16:18:01.390625000,-45.0,3.0,46.5,65.39640625,-4.41,7.7755181875,238.65
2021-06-28 16:18:01.398437500,-45.0,3.0,46.25,65.397734375,-1.0899999999999999,7.77531803125,238.65
2021-06-28 16:18:01.406250000,-45.0,3.0,46.0,65.3990625,2.23,7.775117875,238.65
2021-06-28 16:18:01.414062500,-45.0,3.0,46.25,65.400390625,5.254999999999999,7.77491771875,238.65
2021-06-28 16:18:01.421875000,-45.0,3.0,46.5,65.40171875,8.28,7.7747175625,238.65
2021-06-28 16:18:01.429687500,-45.0,3.0,46.75,65.403046875,10.85,7.77451740625,238.65
2021-06-28 16:18:01.437500000,-45.0,3.0,47.0,65.404375,13.42,7.77431725,238.65
2021-06-28 16:18:01.445312500,-45.0,3.0,47.0,65.405703125,15.425,7.77411709375,238.65
2021-06-28 16:18:01.453125000,-45.0,3.0,47.0,65.40703125,17.43,7.7739169375,238.65
2021-06-28 16:18:01.460937500,-45.0,3.0,47.0,65.408359375,18.85,7.77371678125,238.65
2021-06-28 16:18:01.468750000,-45.0,3.0,47.0,65.4096875,20.27,7.773516625,238.65
2021-06-28 16:18:01.476562500,-45.0,3.0,46.75,65.411015625,21.16,7.77331646875,238.65
2021-06-28 16:18:01.484375000,-45.0,3.0,46.5,65.41234375,22.05,7.7731163125,238.65
2021-06-28 16:18:01.492187500,-45.0,3.0,46.25,65.413671875,22.555,7.77291615625,238.65
2021-06-28 16:18:01.500000000,-45.0,3.0,46.0,65.41499999999999,23.06,7.772716,238.65
2021-06-28 16:18:01.507812500,-45.0,3.0,46.25,65.41632812499999,23.33,7.772876125,238.65
2021-06-28 16:18:01.515625000,-45.0,3.0,46.5,65.41765625,23.6,7.77303625,238.65
2021-06-28 16:18:01.523437500,-45.0,3.0,46.75,65.418984375,23.775,7.773196375,238.65
2021-06-28 16:18:01.531250000,-45.0,3.0,47.0,65.4203125,23.95,7.7733565,238.65
2021-06-28 16:18:01.539062500,-45.0,2.75,46.75,65.421640625,24.105,7.773516625,238.65
2021-06-28 16:18:01.546875000,-45.0,2.5,46.5,65.42296875,24.26,7.77367675,238.65
2021-06-28 16:18:01.554687500,-45.0,2.25,46.25,65.424296875,24.415,7.773836875,238.65
2021-06-28 16:18:01.562500000,-45.0,2.0,46.0,65.425625,24.57,7.773997,238.65
2021-06-28 16:18:01.570312500,-45.0,2.25,46.25,65.426953125,24.72,7.774157125,238.65
2021-06-28 16:18:01.578125000,-45.0,2.5,46.5,65.42828125,24.87,7.77431725,238.65
2021-06-28 16:18:01.585937500,-45.0,2.75,46.75,65.429609375,24.995,7.774477375,238.65
2021-06-28 16:18:01.593750000,-45.0,3.0,47.0,65.4309375,25.12,7.7746375,238.65
2021-06-28 16:18:01.601562500,-45.0,3.0,47.0,65.432265625,25.23,7.774797625,238.65
2021-06-28 16:18:01.609375000,-45.0,3.0,47.0,65.43359375,25.34,7.7749577500000004,238.65
2021-06-28 16:18:01.617187500,-45.0,3.0,47.0,65.434921875,25.439999999999998,7.775117875,238.65
2021-06-28 16:18:01.625000000,-45.0,3.0,47.0,65.43625,25.54,7.775278,238.65
2021-06-28 16:18:01.632812500,-45.0,3.0,47.0,65.437578125,25.63,7.775438125,238.65
2021-06-28 16:18:01.640625000,-45.0,3.0,47.0,65.43890625,25.72,7.77559825,238.65
2021-06-28 16:18:01.648437500,-45.0,3.0,47.0,65.440234375,25.755,7.7757583750000006,238.65
2021-06-28 16:18:01.656250000,-45.0,3.0,47.0,65.4415625,25.79,7.7759185,238.65
2021-06-28 16:18:01.664062500,-45.0,2.75,46.75,65.442890625,25.715,7.776078625,238.65
2021-06-28 16:18:01.671875000,-45.0,2.5,46.5,65.44421875,25.64,7.77623875,238.65
2021-06-28 16:18:01.679687500,-45.0,2.25,46.25,65.445546875,25.39,7.776398875,238.65
2021-06-28 16:18:01.687500000,-45.0,2.0,46.0,65.446875,25.14,7.776559000000001,238.65
2021-06-28 16:18:01.695312500,-44.75,2.25,46.25,65.448203125,24.68,7.7767191250000005,238.65
2021-06-28 16:18:01.703125000,-44.5,2.5,46.5,65.44953124999999,24.22,7.77687925,238.65
2021-06-28 16:18:01.710937500,-44.25,2.75,46.75,65.450859375,23.545,7.777039375,238.65
2021-06-28 16:18:01.718750000,-44.0,3.0,47.0,65.4521875,22.87,7.7771995,238.65
2021-06-28 16:18:01.726562500,-44.25,3.0,46.75,65.453515625,22.035,7.777359625,238.65
2021-06-28 16:18:01.734375000,-44.5,3.0,46.5,65.45484375,21.2,7.777519750000001,238.65
2021-06-28 16:18:01.742187500,-44.75,3.0,46.25,65.456171875,20.259999999999998,7.7776798750000005,238.65
2021-06-28 16:18:01.750000000,-45.0,3.0,46.0,65.4575,19.32,7.77784,238.65
2021-06-28 16:18:01.757812500,-45.0,3.0,46.0,65.458828125,18.310000000000002,7.777519750000001,238.65
2021-06-28 16:18:01.765625000,-45.0,3.0,46.0,65.46015625,17.3,7.7771995,238.65
2021-06-28 16:18:01.773437500,-45.0,3.0,46.0,65.461484375,16.225,7.77687925,238.65
2021-06-28 16:18:01.781250000,-45.0,3.0,46.0,65.4628125,15.15,7.776559000000001,238.65
2021-06-28 16:18:01.789062500,-45.0,2.75,46.0,65.464140625,13.96,7.77623875,238.65
2021-06-28 16:18:01.796875000,-45.0,2.5,46.0,65.46546875,12.77,7.7759185,238.65
2021-06-28 16:18:01.804687500,-45.0,2.25,46.0,65.466796875,11.445,7.77559825,238.65
2021-06-28 16:18:01.812500000,-45.0,2.0,46.0,65.468125,10.12,7.775278,238.65
2021-06-28 16:18:01.820312500,-44.75,2.25,46.25,65.469453125,8.684999999999999,7.7749577500000004,238.65
2021-06-28 16:18:01.828125000,-44.5,2.5,46.5,65.47078125,7.25,7.7746375,238.65
2021-06-28 16:18:01.835937500,-44.25,2.75,46.75,65.472109375,5.8,7.77431725,238.65
2021-06-28 16:18:01.843750000,-44.0,3.0,47.0,65.4734375,4.35,7.773997,238.65
2021-06-28 16:18:01.851562500,-44.25,3.0,47.0,65.474765625,3.01,7.77367675,238.65
2021-06-28 16:18:01.859375000,-44.5,3.0,47.0,65.47609375,1.67,7.7733565,238.65
2021-06-28 16:18:01.867187500,-44.75,3.0,47.0,65.477421875,0.53,7.77303625,238.65
2021-06-28 16:18:01.875000000,-45.0,3.0,47.0,65.47875,-0.61,7.772716,238.65
2021-06-28 16:18:01.882812500,-45.0,3.0,47.0,65.480078125,-1.565,7.77239575,238.65
2021-06-28 16:18:01.890625000,-45.0,3.0,47.0,65.48140625,-2.52,7.7720755,238.65
2021-06-28 16:18:01.898437500,-45.0,3.0,47.0,65.482734375,-3.4050000000000002,7.77175525,238.65
2021-06-28 16:18:01.906250000,-45.0,3.0,47.0,65.4840625,-4.29,7.771435,238.65
2021-06-28 16:18:01.914062500,-45.0,3.0,46.75,65.485390625,-5.275,7.77111475,238.65
2021-06-28 16:18:01.921875000,-45.0,3.0,46.5,65.48671875,-6.26,7.7707945,238.65
2021-06-28 16:18:01.929687500,-45.0,3.0,46.25,65.488046875,-7.485,7.7704742499999995,238.65
2021-06-28 16:18:01.937500000,-45.0,3.0,46.0,65.489375,-8.71,7.770154,238.65
2021-06-28 16:18:01.945312500,-45.0,3.0,46.0,65.490703125,-10.23,7.76983375,238.65
2021-06-28 16:18:01.953125000,-45.0,3.0,46.0,65.49203125,-11.75,7.7695134999999995,238.65
2021-06-28 16:18:01.960937500,-45.0,3.0,46.0,65.493359375,-13.530000000000001,7.76919325,238.65
2021-06-28 16:18:01.968750000,-45.0,3.0,46.0,65.4946875,-15.31,7.768872999999999,238.65
2021-06-28 16:18:01.976562500,-45.0,2.75,46.25,65.496015625,-17.29,7.76855275,238.65
2021-06-28 16:18:01.984375000,-45.0,2.5,46.5,65.49734375,-19.27,7.7682325,238.65
2021-06-28 16:18:01.992187500,-45.0,2.25,46.75,65.498671875,-21.365000000000002,7.767912249999999,238.65
2021-06-28 16:18:02.000000000,-45.0,2.0,47.0,65.5,-23.46,7.767592,238.65
2021-06-28 16:18:02.007812500,-45.0,2.0,47.0,65.50234375,-25.605,7.767712093749999,238.65
2021-06-28 16:18:02.015625000,-45.0,2.0,47.0,65.5046875,-27.75,7.7678321875,238.65
2021-06-28 16:18:02.023437500,-45.0,2.0,47.0,65.50703125,-29.825,7.7679522812499995,238.65
2021-06-28 16:18:02.031250000,-45.0,2.0,47.0,65.509375,-31.9,7.768072375,238.65
2021-06-28 16:18:02.039062500,-45.0,2.25,47.0,65.51171875,-33.705,7.76819246875,238.65
2021-06-28 16:18:02.046875000,-45.0,2.5,47.0,65.5140625,-35.51,7.768312562499999,238.65
2021-06-28 16:18:02.054687500,-45.0,2.75,47.0,65.51640625,-36.775,7.76843265625,238.65
2021-06-28 16:18:02.062500000,-45.0,3.0,47.0,65.51875,-38.04,7.76855275,238.65
2021-06-28 16:18:02.070312500,-45.0,3.0,47.0,65.52109375,-38.489999999999995,7.76867284375,238.65
2021-06-28 16:18:02.078125000,-45.0,3.0,47.0,65.5234375,-38.94,7.7687929375,238.65
2021-06-28 16:18:02.085937500,-45.0,3.0,47.0,65.52578125,-38.405,7.768913031249999,238.65
2021-06-28 16:18:02.093750000,-45.0,3.0,47.0,65.528125,-37.87,7.769033125,238.65
2021-06-28 16:18:02.101562500,-45.0,3.0,46.75,65.53046875,-36.32,7.76915321875,238.65
2021-06-28 16:18:02.109375000,-45.0,3.0,46.5,65.5328125,-34.77,7.7692733125,238.65
2021-06-28 16:18:02.117187500,-45.0,3.0,46.25,65.53515625,-32.385000000000005,7.76939340625,238.65
2021-06-28 16:18:02.125000000,-45.0,3.0,46.0,65.5375,-30.0,7.7695135,238.65
2021-06-28 16:18:02.132812500,-45.0,3.0,46.25,65.53984375,-27.05,7.76963359375,238.65
2021-06-28 16:18:02.140625000,-45.0,3.0,46.5,65.5421875,-24.1,7.7697536875,238.65
2021-06-28 16:18:02.148437500,-45.0,3.0,46.75,65.54453125,-20.885,7.76987378125,238.65
2021-06-28 16:18:02.156250000,-45.0,3.0,47.0,65.546875,-17.67,7.769993875,238.65
2021-06-28 16:18:02.164062500,-45.0,3.0,47.0,65.54921875,-14.420000000000002,7.7701139687500005,238.65
2021-06-28 16:18:02.171875000,-45.0,3.0,47.0,65.5515625,-11.17,7.7702340625,238.65
2021-06-28 16:18:02.179687500,-45.0,3.0,47.0,65.55390625,-8.045,7.77035415625,238.65
2021-06-28 16:18:02.187500000,-45.0,3.0,47.0,65.55625,-4.92,7.77047425,238.65
2021-06-28 16:18:02.195312500,-45.0,3.0,47.0,65.55859375,-2.0,7.77059434375,238.65
2021-06-28 16:18:02.203125000,-45.0,3.0,47.0,65.5609375,0.92,7.770714437500001,238.65
2021-06-28 16:18:02.210937500,-45.0,3.0,47.0,65.56328125,3.555,7.77083453125,238.65
2021-06-28 16:18:02.218750000,-45.0,3.0,47.0,65.565625,6.19,7.770954625,238.65
2021-06-28 16:18:02.226562500,-44.75,3.0,47.0,65.56796875,8.47,7.77107471875,238.65
2021-06-28 16:18:02.234375000,-44.5,3.0,47.0,65.5703125,10.75,7.7711948125,238.65
2021-06-28 16:18:02.242187500,-44.25,3.0,47.0,65.57265625,12.594999999999999,7.771314906250001,238.65
2021-06-28 16:18:02.250000000,-44.0,3.0,47.0,65.575,14.44,7.771435,238.65
2021-06-28 16:18:02.257812500,-44.0,3.0,46.75,65.57734375,15.809999999999999,7.771314906250001,238.65
2021-06-28 16:18:02.265625000,-44.0,3.0,46.5,65.5796875,17.18,7.7711948125,238.65
2021-06-28 16:18:02.273437500,-44.0,3.0,46.25,65.58203125,18.11,7.77107471875,238.65
2021-06-28 16:18:02.281250000,-44.0,3.0,46.0,65.584375,19.04,7.770954625,238.65
2021-06-28 16:18:02.289062500,-44.25,3.0,46.25,65.58671875,19.625,7.77083453125,238.65
2021-06-28 16:18:02.296875000,-44.5,3.0,46.5,65.5890625,20.21,7.770714437500001,238.65
2021-06-28 16:18:02.304687500,-44.75,3.0,46.75,65.59140625,20.6,7.77059434375,238.65
2021-06-28 16:18:02.312500000,-45.0,3.0,47.0,65.59375,20.99,7.77047425,238.65
2021-06-28 16:18:02.320312500,-44.75,3.0,47.0,65.59609375,21.32,7.77035415625,238.65
2021-06-28 16:18:02.328125000,-44.5,3.0,47.0,65.5984375,21.65,7.7702340625,238.65
2021-06-28 16:18:02.335937500,-44.25,3.0,47.0,65.60078125,21.994999999999997,7.7701139687500005,238.65
2021-06-28 16:18:02.343750000,-44.0,3.0,47.0,65.603125,22.34,7.769993875,238.65
2021-06-28 16:18:02.351562500,-44.25,3.0,47.0,65.60546875,22.71,7.76987378125,238.65
2021-06-28 16:18:02.359375000,-44.5,3.0,47.0,65.6078125,23.08,7.7697536875,238.65
2021-06-28 16:18:02.367187500,-44.75,3.0,47.0,65.61015625,23.42,7.76963359375,238.65
2021-06-28 16:18:02.375000000,-45.0,3.0,47.0,65.6125,23.76,7.7695135,238.65
2021-06-28 16:18:02.382812500,-45.0,3.0,46.75,65.61484375,24.005000000000003,7.76939340625,238.65
2021-06-28 16:18:02.390625000,-45.0,3.0,46.5,65.6171875,24.25,7.7692733125,238.65
2021-06-28 16:18:02.398437500,-45.0,3.0,46.25,65.61953125,24.384999999999998,7.76915321875,238.65
2021-06-28 16:18:02.406250000,-45.0,3.0,46.0,65.621875,24.52,7.769033125,238.65
2021-06-28 16:18:02.414062500,-45.0,3.0,46.0,65.62421875,24.57,7.768913031249999,238.65
2021-06-28 16:18:02.421875000,-45.0,3.0,46.0,65.6265625,24.62,7.7687929375,238.65
2021-06-28 16:18:02.429687500,-45.0,3.0,46.0,65.62890625,24.645000000000003,7.76867284375,238.65
2021-06-28 16:18:02.437500000,-45.0,3.0,46.0,65.63125,24.67,7.76855275,238.65
2021-06-28 16:18:02.445312500,-44.75,2.75,46.0,65.63359375,24.700000000000003,7.76843265625,238.65
2021-06-28 16:18:02.453125000,-44.5,2.5,46.0,65.6359375,24.73,7.768312562499999,238.65
2021-06-28 16:18:02.460937500,-44.25,2.25,46.0,65.63828125,24.740000000000002,7.76819246875,238.65
2021-06-28 16:18:02.468750000,-44.0,2.0,46.0,65.640625,24.75,7.768072375,238.65
2021-06-28 16:18:02.476562500,-44.25,2.25,46.25,65.64296875,24.65,7.7679522812499995,238.65
2021-06-28 16:18:02.484375000,-44.5,2.5,46.5,65.6453125,24.55,7.7678321875,238.65
2021-06-28 16:18:02.492187500,-44.75,2.75,46.75,65.64765625,24.23,7.767712093749999,238.65
2021-06-28 16:18:02.500000000,-45.0,3.0,47.0,65.65,23.91,7.767592,238.65
2021-06-28 16:18:02.507812500,-45.0,3.0,47.0,65.65234375,23.29,7.7676720625,238.65
2021-06-28 16:18:02.515625000,-45.0,3.0,47.0,65.6546875,22.67,7.7677521249999995,238.65
2021-06-28 16:18:02.523437500,-45.0,3.0,47.0,65.65703125,21.735,7.7678321875,238.65
2021-06-28 16:18:02.531250000,-45.0,3.0,47.0,65.659375,20.8,7.767912249999999,238.65
2021-06-28 16:18:02.539062500,-45.0,3.0,47.0,65.66171874999999,19.59,7.7679923125,238.65
2021-06-28 16:18:02.546875000,-45.0,3.0,47.0,65.6640625,18.38,7.768072375,238.65
2021-06-28 16:18:02.554687500,-45.0,3.0,47.0,65.66640625,16.965,7.7681524374999995,238.65
2021-06-28 16:18:02.562500000,-45.0,3.0,47.0,65.66875,15.55,7.7682325,238.65
2021-06-28 16:18:02.570312500,-44.75,3.0,46.75,65.67109375,14.005,7.768312562499999,238.65
2021-06-28 16:18:02.578125000,-44.5,3.0,46.5,65.67343749999999,12.46,7.768392625,238.65
2021-06-28 16:18:02.585937500,-44.25,3.0,46.25,65.67578125,10.845,7.7684726875,238.65
2021-06-28 16:18:02.593750000,-44.0,3.0,46.0,65.678125,9.23,7.76855275,238.65
2021-06-28 16:18:02.601562500,-44.25,3.0,46.25,65.68046875,7.6,7.7686328125,238.65
2021-06-28 16:18:02.609375000,-44.5,3.0,46.5,65.6828125,5.97,7.768712874999999,238.65
2021-06-28 16:18:02.617187500,-44.75,3.0,46.75,65.68515624999999,4.38,7.7687929375,238.65
2021-06-28 16:18:02.625000000,-45.0,3.0,47.0,65.6875,2.79,7.768872999999999,238.65
2021-06-28 16:18:02.632812500,-45.0,3.0,47.0,65.68984375,1.28,7.7689530625,238.65
2021-06-28 16:18:02.640625000,-45.0,3.0,47.0,65.6921875,-0.23,7.769033125,238.65
2021-06-28 16:18:02.648437500,-45.0,3.0,47.0,65.69453125,-1.63,7.7691131874999995,238.65
2021-06-28 16:18:02.656250000,-45.0,3.0,47.0,65.69687499999999,-3.03,7.76919325,238.65
2021-06-28 16:18:02.664062500,-45.0,3.0,47.0,65.69921875,-4.31,7.769273312499999,238.65
2021-06-28 16:18:02.671875000,-45.0,3.0,47.0,65.7015625,-5.59,7.769353375,238.65
2021-06-28 16:18:02.679687500,-45.0,3.0,47.0,65.70390625,-6.8,7.7694334375,238.65
2021-06-28 16:18:02.687500000,-45.0,3.0,47.0,65.70625,-8.01,7.7695134999999995,238.65
2021-06-28 16:18:02.695312500,-44.75,2.75,47.0,65.70859374999999,-9.21,7.7695935625,238.65
2021-06-28 16:18:02.703125000,-44.5,2.5,47.0,65.7109375,-10.41,7.769673624999999,238.65
2021-06-28 16:18:02.710937500,-44.25,2.25,47.0,65.71328125,-11.7,7.7697536875,238.65
2021-06-28 16:18:02.718750000,-44.0,2.0,47.0,65.715625,-12.99,7.76983375,238.65
2021-06-28 16:18:02.726562500,-44.25,2.25,46.75,65.71796875,-14.455,7.7699138125,238.65
2021-06-28 16:18:02.734375000,-44.5,2.5,46.5,65.72031249999999,-15.92,7.769993875,238.65
2021-06-28 16:18:02.742187500,-44.75,2.75,46.25,65.72265625,-17.635,7.770073937499999,238.65
2021-06-28 16:18:02.750000000,-45.0,3.0,46.0,65.725,-19.35,7.770154,238.65
2021-06-28 16:18:02.757812500,-45.0,3.0,46.25,65.72734375,-21.33,7.77011396875,238.65
2021-06-28 16:18:02.765625000,-45.0,3.0,46.5,65.7296875,-23.31,7.770073937499999,238.65
2021-06-28 16:18:02.773437500,-45.0,3.0,46.75,65.73203124999999,-25.545,7.77003390625,238.65
2021-06-28 16:18:02.781250000,-45.0,3.0,47.0,65.734375,-27.78,7.769993875,238.65
2021-06-28 16:18:02.789062500,-44.75,3.0,47.0,65.73671875,-30.175,7.76995384375,238.65
2021-06-28 16:18:02.796875000,-44.5,3.0,47.0,65.7390625,-32.57,7.7699138125,238.65
2021-06-28 16:18:02.804687500,-44.25,3.0,47.0,65.74140625,-34.96,7.76987378125,238.65
2021-06-28 16:18:02.812500000,-44.0,3.0,47.0,65.74374999999999,-37.35,7.76983375,238.65
2021-06-28 16:18:02.820312500,-44.25,3.0,47.0,65.74609375,-39.525000000000006,7.76979371875,238.65
2021-06-28 16:18:02.828125000,-44.5,3.0,47.0,65.7484375,-41.7,7.7697536875,238.65
2021-06-28 16:18:02.835937500,-44.75,3.0,47.0,65.75078125,-43.405,7.7697136562499995,238.65
2021-06-28 16:18:02.843750000,-45.0,3.0,47.0,65.753125,-45.11,7.769673625,238.65
2021-06-28 16:18:02.851562500,-45.0,3.0,46.75,65.75546874999999,-46.1,7.76963359375,238.65
2021-06-28 16:18:02.859375000,-45.0,3.0,46.5,65.7578125,-47.09,7.7695935625,238.65
2021-06-28 16:18:02.867187500,-45.0,3.0,46.25,65.76015625,-47.195,7.76955353125,238.65
2021-06-28 16:18:02.875000000,-45.0,3.0,46.0,65.7625,-47.3,7.7695135,238.65
2021-06-28 16:18:02.882812500,-44.75,3.0,46.25,65.76484375,-46.485,7.76947346875,238.65
2021-06-28 16:18:02.890625000,-44.5,3.0,46.5,65.76718749999999,-45.67,7.7694334375,238.65
2021-06-28 16:18:02.898437500,-44.25,3.0,46.75,65.76953125,-44.019999999999996,7.76939340625,238.65
2021-06-28 16:18:02.906250000,-44.0,3.0,47.0,65.771875,-42.37,7.769353375,238.65
2021-06-28 16:18:02.914062500,-44.25,3.0,47.0,65.77421875,-40.084999999999994,7.76931334375,238.65
2021-06-28 16:18:02.921875000,-44.5,3.0,47.0,65.7765625,-37.8,7.7692733125,238.65
2021-06-28 16:18:02.929687500,-44.75,3.0,47.0,65.77890624999999,-35.07,7.76923328125,238.65
2021-06-28 16:18:02.937500000,-45.0,3.0,47.0,65.78125,-32.34,7.76919325,238.65
2021-06-28 16:18:02.945312500,-45.0,3.0,47.0,65.78359375,-29.35,7.76915321875,238.65
2021-06-28 16:18:02.953125000,-45.0,3.0,47.0,65.7859375,-26.36,7.7691131875,238.65
2021-06-28 16:18:02.960937500,-45.0,3.0,47.0,65.78828125,-23.16,7.76907315625,238.65
2021-06-28 16:18:02.968750000,-45.0,3.0,47.0,65.79062499999999,-19.96,7.769033125,238.65
2021-06-28 16:18:02.976562500,-45.0,3.0,47.0,65.79296875,-16.565,7.76899309375,238.65
2021-06-28 16:18:02.984375000,-45.0,3.0,47.0,65.7953125,-13.17,7.7689530625000005,238.65
2021-06-28 16:18:02.992187500,-45.0,3.0,47.0,65.79765625,-9.605,7.76891303125,238.65
2021-06-28 16:18:03.000000000,-45.0,3.0,47.0,65.8,-6.04,7.768873,238.65
2021-06-28 16:18:03.007812500,-45.0,2.75,47.0,65.808046875,-2.4050000000000002,7.76899309375,238.65
2021-06-28 16:18:03.015625000,-45.0,2.5,47.0,65.81609375,1.23,7.7691131875,238.65
2021-06-28 16:18:03.023437500,-45.0,2.25,47.0,65.824140625,4.709999999999999,7.76923328125,238.65
2021-06-28 16:18:03.031250000,-45.0,2.0,47.0,65.8321875,8.19,7.769353375,238.65
2021-06-28 16:18:03.039062500,-45.0,2.25,47.0,65.840234375,11.274999999999999,7.76947346875,238.65
2021-06-28 16:18:03.046875000,-45.0,2.5,47.0,65.84828125,14.36,7.7695935625,238.65
2021-06-28 16:18:03.054687500,-45.0,2.75,47.0,65.85632812499999,16.845,7.76971365625,238.65
2021-06-28 16:18:03.062500000,-45.0,3.0,47.0,65.864375,19.33,7.76983375,238.65
2021-06-28 16:18:03.070312500,-45.0,3.0,47.0,65.872421875,21.13,7.76995384375,238.65
2021-06-28 16:18:03.078125000,-45.0,3.0,47.0,65.88046874999999,22.93,7.7700739375,238.65
2021-06-28 16:18:03.085937500,-45.0,3.0,47.0,65.888515625,24.115000000000002,7.77019403125,238.65
2021-06-28 16:18:03.093750000,-45.0,3.0,47.0,65.8965625,25.3,7.7703141250000005,238.65
2021-06-28 16:18:03.101562500,-44.75,3.0,47.0,65.90460937499999,26.035,7.77043421875,238.65
2021-06-28 16:18:03.109375000,-44.5,3.0,47.0,65.91265625,26.77,7.7705543125,238.65
2021-06-28 16:18:03.117187500,-44.25,3.0,47.0,65.920703125,27.235,7.77067440625,238.65
2021-06-28 16:18:03.125000000,-44.0,3.0,47.0,65.92875,27.7,7.7707945,238.65
2021-06-28 16:18:03.132812500,-44.25,3.0,46.75,65.936796875,28.045,7.77091459375,238.65
2021-06-28 16:18:03.140625000,-44.5,3.0,46.5,65.94484375,28.39,7.7710346875,238.65
2021-06-28 16:18:03.148437500,-44.75,3.0,46.25,65.952890625,28.685000000000002,7.77115478125,238.65
2021-06-28 16:18:03.156250000,-45.0,3.0,46.0,65.9609375,28.98,7.771274875,238.65
2021-06-28 16:18:03.164062500,-45.0,3.0,46.25,65.96898437499999,29.259999999999998,7.77139496875,238.65
2021-06-28 16:18:03.171875000,-45.0,3.0,46.5,65.97703125,29.54,7.7715150625,238.65
2021-06-28 16:18:03.179687500,-45.0,3.0,46.75,65.985078125,29.805,7.77163515625,238.65
2021-06-28 16:18:03.187500000,-45.0,3.0,47.0,65.99312499999999,30.07,7.77175525,238.65
2021-06-28 16:18:03.195312500,-45.0,3.0,46.75,66.001171875,30.335,7.77187534375,238.65
2021-06-28 16:18:03.203125000,-45.0,3.0,46.5,66.00921875,30.6,7.7719954375,238.65
2021-06-28 16:18:03.210937500,-45.0,3.0,46.25,66.017265625,30.865000000000002,7.77211553125,238.65
2021-06-28 16:18:03.218750000,-45.0,3.0,46.0,66.0253125,31.13,7.772235625,238.65
2021-06-28 16:18:03.226562500,-45.0,3.0,46.25,66.033359375,31.354999999999997,7.77235571875,238.65
2021-06-28 16:18:03.234375000,-45.0,3.0,46.5,66.04140625,31.58,7.7724758125,238.65
2021-06-28 16:18:03.242187500,-45.0,3.0,46.75,66.049453125,31.685,7.77259590625,238.65
2021-06-28 16:18:03.250000000,-45.0,3.0,47.0,66.0575,31.79,7.772716,238.65
2021-06-28 16:18:03.257812500,-45.0,3.0,47.0,66.065546875,31.645,7.77251584375,238.65
2021-06-28 16:18:03.265625000,-45.0,3.0,47.0,66.07359375,31.5,7.7723156875,238.65
2021-06-28 16:18:03.273437500,-45.0,3.0,47.0,66.08164062499999,30.975,7.77211553125,238.65
2021-06-28 16:18:03.281250000,-45.0,3.0,47.0,66.0896875,30.45,7.771915375,238.65
2021-06-28 16:18:03.289062500,-45.0,3.0,47.0,66.097734375,29.490000000000002,7.77171521875,238.65
2021-06-28 16:18:03.296875000,-45.0,3.0,47.0,66.10578124999999,28.53,7.7715150625,238.65
2021-06-28 16:18:03.304687500,-45.0,3.0,47.0,66.113828125,27.195,7.77131490625,238.65
2021-06-28 16:18:03.312500000,-45.0,3.0,47.0,66.121875,25.86,7.77111475,238.65
2021-06-28 16:18:03.320312500,-45.0,3.0,46.75,66.129921875,24.325,7.77091459375,238.65
2021-06-28 16:18:03.328125000,-45.0,3.0,46.5,66.13796875,22.79,7.7707144375,238.65
2021-06-28 16:18:03.335937500,-45.0,3.0,46.25,66.146015625,21.27,7.77051428125,238.65
2021-06-28 16:18:03.343750000,-45.0,3.0,46.0,66.1540625,19.75,7.770314125,238.65
2021-06-28 16:18:03.351562500,-44.75,3.0,46.25,66.162109375,18.415,7.77011396875,238.65
2021-06-28 16:18:03.359375000,-44.5,3.0,46.5,66.17015624999999,17.08,7.7699138125,238.65
2021-06-28 16:18:03.367187500,-44.25,3.0,46.75,66.178203125,15.965,7.7697136562499995,238.65
2021-06-28 16:18:03.375000000,-44.0,3.0,47.0,66.18625,14.85,7.7695135,238.65
2021-06-28 16:18:03.382812500,-44.25,2.75,47.0,66.19429687499999,13.83,7.76931334375,238.65
2021-06-28 16:18:03.390625000,-44.5,2.5,47.0,66.20234375,12.81,7.7691131875,238.65
2021-06-28 16:18:03.398437500,-44.75,2.25,47.0,66.210390625,11.705,7.76891303125,238.65
2021-06-28 16:18:03.406250000,-45.0,2.0,47.0,66.2184375,10.6,7.768712875,238.65
2021-06-28 16:18:03.414062500,-44.75,2.25,47.0,66.226484375,9.25,7.76851271875,238.65
2021-06-28 16:18:03.421875000,-44.5,2.5,47.0,66.23453125,7.9,7.7683125625,238.65
2021-06-28 16:18:03.429687500,-44.25,2.75,47.0,66.242578125,6.275,7.76811240625,238.65
2021-06-28 16:18:03.437500000,-44.0,3.0,47.0,66.250625,4.65,7.76791225,238.65
2021-06-28 16:18:03.445312500,-44.0,3.0,47.0,66.258671875,2.8150000000000004,7.76771209375,238.65
2021-06-28 16:18:03.453125000,-44.0,3.0,47.0,66.26671875,0.98,7.7675119375,238.65
2021-06-28 16:18:03.460937500,-44.0,3.0,47.0,66.274765625,-0.94,7.76731178125,238.65
2021-06-28 16:18:03.468750000,-44.0,3.0,47.0,66.28281249999999,-2.86,7.767111625,238.65
2021-06-28 16:18:03.476562500,-44.25,2.75,47.0,66.290859375,-4.74,7.76691146875,238.65
2021-06-28 16:18:03.484375000,-44.5,2.5,47.0,66.29890625,-6.62,7.7667113125,238.65
2021-06-28 16:18:03.492187500,-44.75,2.25,47.0,66.30695312499999,-8.38,7.76651115625,238.65
2021-06-28 16:18:03.500000000,-45.0,2.0,47.0,66.315,-10.14,7.766311,238.65
2021-06-28 16:18:03.507812500,-45.0,2.25,47.0,66.323046875,-11.780000000000001,7.7662309375,238.65
2021-06-28 16:18:03.515625000,-45.0,2.5,47.0,66.33109375,-13.42,7.766150875,238.65
2021-06-28 16:18:03.523437500,-45.0,2.75,47.0,66.339140625,-14.965,7.7660708125,238.65
2021-06-28 16:18:03.531250000,-45.0,3.0,47.0,66.3471875,-16.51,7.76599075,238.65
2021-06-28 16:18:03.539062500,-45.0,3.0,47.0,66.355234375,-18.01,7.7659106875,238.65
2021-06-28 16:18:03.546875000,-45.0,3.0,47.0,66.36328125,-19.51,7.7658306249999995,238.65
2021-06-28 16:18:03.554687500,-45.0,3.0,47.0,66.37132812499999,-21.07,7.7657505625,238.65
2021-06-28 16:18:03.562500000,-45.0,3.0,47.0,66.379375,-22.63,7.7656705,238.65
2021-06-28 16:18:03.570312500,-45.0,2.75,47.0,66.387421875,-24.34,7.7655904375,238.65
2021-06-28 16:18:03.578125000,-45.0,2.5,47.0,66.39546874999999,-26.05,7.765510375,238.65
2021-06-28 16:18:03.585937500,-45.0,2.25,47.0,66.403515625,-28.02,7.7654303124999995,238.65
2021-06-28 16:18:03.593750000,-45.0,2.0,47.0,66.4115625,-29.99,7.76535025,238.65
2021-06-28 16:18:03.601562500,-45.0,2.25,47.0,66.419609375,-32.22,7.7652701875,238.65
2021-06-28 16:18:03.609375000,-45.0,2.5,47.0,66.42765625,-34.45,7.765190125,238.65
2021-06-28 16:18:03.617187500,-45.0,2.75,47.0,66.435703125,-36.785,7.7651100625,238.65
2021-06-28 16:18:03.625000000,-45.0,3.0,47.0,66.44375,-39.12,7.765029999999999,238.65
2021-06-28 16:18:03.632812500,-45.0,3.0,46.75,66.451796875,-41.285,7.7649499375,238.65
2021-06-28 16:18:03.640625000,-45.0,3.0,46.5,66.45984375,-43.45,7.764869875,238.65
2021-06-28 16:18:03.648437500,-45.0,3.0,46.25,66.467890625,-45.075,7.7647898125,238.65
2021-06-28 16:18:03.656250000,-45.0,3.0,46.0,66.4759375,-46.7,7.76470975,238.65
2021-06-28 16:18:03.664062500,-44.75,2.75,46.25,66.48398437499999,-47.49,7.7646296875,238.65
2021-06-28 16:18:03.671875000,-44.5,2.5,46.5,66.49203125,-48.28,7.764549625,238.65
2021-06-28 16:18:03.679687500,-44.25,2.25,46.75,66.500078125,-48.075,7.7644695624999995,238.65
2021-06-28 16:18:03.687500000,-44.0,2.0,47.0,66.50812499999999,-47.87,7.7643895,238.65
2021-06-28 16:18:03.695312500,-44.25,2.25,47.0,66.516171875,-46.685,7.7643094375,238.65
2021-06-28 16:18:03.703125000,-44.5,2.5,47.0,66.52421875,-45.5,7.764229375,238.65
2021-06-28 16:18:03.710937500,-44.75,2.75,47.0,66.532265625,-43.475,7.7641493125,238.65
2021-06-28 16:18:03.718750000,-45.0,3.0,47.0,66.5403125,-41.45,7.7640692499999995,238.65
2021-06-28 16:18:03.726562500,-45.0,3.0,47.0,66.548359375,-38.77,7.7639891875,238.65
2021-06-28 16:18:03.734375000,-45.0,3.0,47.0,66.55640625,-36.09,7.763909125,238.65
2021-06-28 16:18:03.742187500,-45.0,3.0,47.0,66.564453125,-32.935,7.7638290625,238.65
2021-06-28 16:18:03.750000000,-45.0,3.0,47.0,66.57249999999999,-29.78,7.763749,238.65
2021-06-28 16:18:03.757812500,-45.0,2.75,46.75,66.580546875,-26.255000000000003,7.7635088125,238.65
2021-06-28 16:18:03.765625000,-45.0,2.5,46.5,66.58859375,-22.73,7.763268625,238.65
2021-06-28 16:18:03.773437500,-45.0,2.25,46.25,66.59664062499999,-18.955,7.7630284375,238.65
2021-06-28 16:18:03.781250000,-45.0,2.0,46.0,66.6046875,-15.18,7.76278825,238.65
2021-06-28 16:18:03.789062500,-45.0,2.25,46.25,66.612734375,-11.285,7.7625480625,238.65
2021-06-28 16:18:03.796875000,-45.0,2.5,46.5,66.62078125,-7.39,7.762307874999999,238.65
2021-06-28 16:18:03.804687500,-45.0,2.75,46.75,66.628828125,-3.5549999999999997,7.7620676875,238.65
2021-06-28 16:18:03.812500000,-45.0,3.0,47.0,66.636875,0.28,7.7618275,238.65
2021-06-28 16:18:03.820312500,-45.0,2.75,46.75,66.644921875,3.8449999999999998,7.7615873125,238.65
2021-06-28 16:18:03.828125000,-45.0,2.5,46.5,66.65296875,7.41,7.761347125,238.65
2021-06-28 16:18:03.835937500,-45.0,2.25,46.25,66.661015625,10.48,7.7611069375,238.65
2021-06-28 16:18:03.843750000,-45.0,2.0,46.0,66.6690625,13.55,7.76086675,238.65
2021-06-28 16:18:03.851562500,-45.0,2.0,46.0,66.677109375,15.975,7.7606265625,238.65
2021-06-28 16:18:03.859375000,-45.0,2.0,46.0,66.68515624999999,18.4,7.7603863749999995,238.65
2021-06-28 16:18:03.867187500,-45.0,2.0,46.0,66.693203125,20.145,7.7601461875,238.65
2021-06-28 16:18:03.875000000,-45.0,2.0,46.0,66.70125,21.89,7.759906,238.65
2021-06-28 16:18:03.882812500,-45.0,2.0,46.0,66.70929687499999,23.045,7.7596658125,238.65
2021-06-28 16:18:03.890625000,-45.0,2.0,46.0,66.71734375,24.2,7.759425625,238.65
2021-06-28 16:18:03.898437500,-45.0,2.0,46.0,66.725390625,24.965,7.7591854375,238.65
2021-06-28 16:18:03.906250000,-45.0,2.0,46.0,66.7334375,25.73,7.75894525,238.65
2021-06-28 16:18:03.914062500,-45.0,2.0,46.25,66.741484375,26.314999999999998,7.7587050625,238.65
2021-06-28 16:18:03.921875000,-45.0,2.0,46.5,66.74953125,26.9,7.758464875,238.65
2021-06-28 16:18:03.929687500,-45.0,2.0,46.75,66.757578125,27.465,7.7582246875,238.65
2021-06-28 16:18:03.937500000,-45.0,2.0,47.0,66.765625,28.03,7.7579845,238.65
2021-06-28 16:18:03.945312500,-45.0,2.0,47.0,66.773671875,28.64,7.7577443125,238.65
2021-06-28 16:18:03.953125000,-45.0,2.0,47.0,66.78171875,29.25,7.7575041250000005,238.65
2021-06-28 16:18:03.960937500,-45.0,2.0,47.0,66.789765625,29.89,7.7572639375,238.65
2021-06-28 16:18:03.968750000,-45.0,2.0,47.0,66.79781249999999,30.53,7.75702375,238.65
2021-06-28 16:18:03.976562500,-45.0,2.25,46.75,66.805859375,31.115000000000002,7.7567835625,238.65
2021-06-28 16:18:03.984375000,-45.0,2.5,46.5,66.81390625,31.7,7.756543375,238.65
2021-06-28 16:18:03.992187500,-45.0,2.75,46.25,66.821953125,32.15,7.7563031875,238.65
2021-06-28 16:18:04.000000000,-45.0,3.0,46.0,66.83,32.6,7.756063,238.65
2021-06-28 16:18:04.007812500,-45.0,2.75,46.0,66.838046875,32.855000000000004,7.75602296875,238.65
2021-06-28 16:18:04.015625000,-45.0,2.5,46.0,66.84609375,33.11,7.7559829375,238.65
2021-06-28 16:18:04.023437500,-45.0,2.25,46.0,66.854140625,33.165,7.7559429062500005,238.65
2021-06-28 16:18:04.031250000,-45.0,2.0,46.0,66.8621875,33.22,7.755902875,238.65
2021-06-28 16:18:04.039062500,-45.0,2.25,46.0,66.870234375,33.065,7.75586284375,238.65
2021-06-28 16:18:04.046875000,-45.0,2.5,46.0,66.87828125,32.91,7.7558228125,238.65
2021-06-28 16:18:04.054687500,-45.0,2.75,46.0,66.88632812499999,32.56999999999999,7.75578278125,238.65
2021-06-28 16:18:04.062500000,-45.0,3.0,46.0,66.894375,32.23,7.75574275,238.65
2021-06-28 16:18:04.070312500,-45.0,2.75,46.0,66.902421875,31.72,7.75570271875,238.65
2021-06-28 16:18:04.078125000,-45.0,2.5,46.0,66.91046874999999,31.21,7.7556626875,238.65
2021-06-28 16:18:04.085937500,-45.0,2.25,46.0,66.918515625,30.535,7.75562265625,238.65
2021-06-28 16:18:04.093750000,-45.0,2.0,46.0,66.9265625,29.86,7.755582625,238.65
2021-06-28 16:18:04.101562500,-45.0,2.0,46.25,66.934609375,29.03,7.7555425937499995,238.65
2021-06-28 16:18:04.109375000,-45.0,2.0,46.5,66.94265625,28.2,7.7555025625,238.65
2021-06-28 16:18:04.117187500,-45.0,2.0,46.75,66.950703125,27.23,7.75546253125,238.65
2021-06-28 16:18:04.125000000,-45.0,2.0,47.0,66.95875,26.26,7.7554225,238.65
2021-06-28 16:18:04.132812500,-45.0,2.0,46.75,66.966796875,25.185000000000002,7.75538246875,238.65
2021-06-28 16:18:04.140625000,-45.0,2.0,46.5,66.97484375,24.11,7.7553424374999995,238.65
2021-06-28 16:18:04.148437500,-45.0,2.0,46.25,66.982890625,22.96,7.75530240625,238.65
2021-06-28 16:18:04.156250000,-45.0,2.0,46.0,66.9909375,21.81,7.755262375,238.65
2021-06-28 16:18:04.164062500,-45.0,2.25,46.0,66.99898437499999,20.634999999999998,7.75522234375,238.65
2021-06-28 16:18:04.171875000,-45.0,2.5,46.0,67.00703125,19.46,7.7551823125,238.65
2021-06-28 16:18:04.179687500,-45.0,2.75,46.0,67.015078125,18.285,7.7551422812499995,238.65
2021-06-28 16:18:04.187500000,-45.0,3.0,46.0,67.023125,17.11,7.75510225,238.65
2021-06-28 16:18:04.195312500,-45.0,2.75,46.0,67.031171875,15.93,7.75506221875,238.65
2021-06-28 16:18:04.203125000,-45.0,2.5,46.0,67.03921875,14.75,7.7550221875,238.65
2021-06-28 16:18:04.210937500,-45.0,2.25,46.0,67.047265625,13.5,7.75498215625,238.65
2021-06-28 16:18:04.218750000,-45.0,2.0,46.0,67.0553125,12.25,7.7549421249999995,238.65
2021-06-28 16:18:04.226562500,-45.0,2.25,46.0,67.063359375,10.870000000000001,7.754902093749999,238.65
2021-06-28 16:18:04.234375000,-45.0,2.5,46.0,67.07140625,9.49,7.7548620625,238.65
2021-06-28 16:18:04.242187500,-45.0,2.75,46.0,67.079453125,7.945,7.75482203125,238.65
2021-06-28 16:18:04.250000000,-45.0,3.0,46.0,67.0875,6.4,7.754782,238.65
2021-06-28 16:18:04.257812500,-45.0,3.0,46.0,67.095546875,4.71,7.754782,238.65
2021-06-28 16:18:04.265625000,-45.0,3.0,46.0,67.10359375,3.02,7.754782,238.65
2021-06-28 16:18:04.273437500,-45.0,3.0,46.0,67.11164062499999,1.28,7.754782,238.65
2021-06-28 16:18:04.281250000,-45.0,3.0,46.0,67.1196875,-0.46,7.754782,238.65
2021-06-28 16:18:04.289062500,-45.0,2.75,46.25,67.127734375,-2.125,7.754782,238.65
2021-06-28 16:18:04.296875000,-45.0,2.5,46.5,67.13578125,-3.79,7.754782,238.65
2021-06-28 16:18:04.304687500,-45.0,2.25,46.75,67.143828125,-5.295,7.754782,238.65
2021-06-28 16:18:04.312500000,-45.0,2.0,47.0,67.151875,-6.8,7.754782,238.65
2021-06-28 16:18:04.320312500,-45.0,2.0,46.75,67.159921875,-8.14,7.754782,238.65
2021-06-28 16:18:04.328125000,-45.0,2.0,46.5,67.16796875,-9.48,7.754782,238.65
2021-06-28 16:18:04.335937500,-45.0,2.0,46.25,67.176015625,-10.73,7.754782,238.65
2021-06-28 16:18:04.343750000,-45.0,2.0,46.0,67.1840625,-11.98,7.754782,238.65
2021-06-28 16:18:04.351562500,-45.0,2.25,46.25,67.192109375,-13.27,7.754782,238.65
2021-06-28 16:18:04.359375000,-45.0,2.5,46.5,67.20015624999999,-14.56,7.754782,238.65
2021-06-28 16:18:04.367187500,-45.0,2.75,46.75,67.208203125,-16.045,7.754782,238.65
2021-06-28 16:18:04.375000000,-45.0,3.0,47.0,67.21625,-17.53,7.754782,238.65
2021-06-28 16:18:04.382812500,-45.0,2.75,47.0,67.224296875,-19.36,7.754782,238.65
2021-06-28 16:18:04.390625000,-45.0,2.5,47.0,67.23234375,-21.19,7.754782,238.65
2021-06-28 16:18:04.398437500,-45.0,2.25,47.0,67.240390625,-23.43,7.754782,238.65
2021-06-28 16:18:04.406250000,-45.0,2.0,47.0,67.2484375,-25.67,7.754782,238.65
2021-06-28 16:18:04.414062500,-45.0,2.0,46.75,67.256484375,-28.29,7.754782,238.65
2021-06-28 16:18:04.421875000,-45.0,2.0,46.5,67.26453125,-30.91,7.754782,238.65
2021-06-28 16:18:04.429687500,-45.0,2.0,46.25,67.272578125,-33.73,7.754782,238.65
2021-06-28 16:18:04.437500000,-45.0,2.0,46.0,67.280625,-36.55,7.754782,238.65
2021-06-28 16:18:04.445312500,-45.0,2.0,46.0,67.288671875,-39.254999999999995,7.754782,238.65
2021-06-28 16:18:04.453125000,-45.0,2.0,46.0,67.29671875,-41.96,7.754782,238.65
2021-06-28 16:18:04.460937500,-45.0,2.0,46.0,67.304765625,-44.17,7.754782,238.65
2021-06-28 16:18:04.468750000,-45.0,2.0,46.0,67.31281249999999,-46.38,7.754782,238.65
2021-06-28 16:18:04.476562500,-45.0,2.0,46.0,67.320859375,-47.725,7.754782,238.65
2021-06-28 16:18:04.484375000,-45.0,2.0,46.0,67.32890625,-49.07,7.754782,238.65
2021-06-28 16:18:04.492187500,-45.0,2.0,46.0,67.336953125,-49.32,7.754782,238.65
2021-06-28 16:18:04.500000000,-45.0,2.0,46.0,67.345,-49.57,7.754782,238.65
2021-06-28 16:18:04.507812500,-45.0,2.0,46.0,67.353046875,-48.68,7.7547419374999995,238.65
2021-06-28 16:18:04.515625000,-45.0,2.0,46.0,67.36109375,-47.79,7.754701874999999,238.65
2021-06-28 16:18:04.523437500,-45.0,2.0,46.0,67.369140625,-45.875,7.754661812499999,238.65
2021-06-28 16:18:04.531250000,-45.0,2.0,46.0,67.3771875,-43.96,7.75462175,238.65
2021-06-28 16:18:04.539062500,-45.0,2.25,46.0,67.385234375,-41.260000000000005,7.7545816875,238.65
2021-06-28 16:18:04.546875000,-45.0,2.5,46.0,67.39328125,-38.56,7.754541625,238.65
2021-06-28 16:18:04.554687500,-45.0,2.75,46.0,67.40132812499999,-35.345,7.7545015625,238.65
2021-06-28 16:18:04.562500000,-45.0,3.0,46.0,67.409375,-32.13,7.7544615,238.65
2021-06-28 16:18:04.570312500,-45.0,2.75,46.25,67.417421875,-28.615000000000002,7.7544214375,238.65
2021-06-28 16:18:04.578125000,-45.0,2.5,46.5,67.42546875,-25.1,7.7543813749999995,238.65
2021-06-28 16:18:04.585937500,-45.0,2.25,46.75,67.433515625,-21.475,7.754341312499999,238.65
2021-06-28 16:18:04.593750000,-45.0,2.0,47.0,67.4415625,-17.85,7.754301249999999,238.65
2021-06-28 16:18:04.601562500,-45.0,2.25,46.75,67.449609375,-14.265,7.7542611875,238.65
2021-06-28 16:18:04.609375000,-45.0,2.5,46.5,67.45765625,-10.68,7.754221125,238.65
2021-06-28 16:18:04.617187500,-45.0,2.75,46.25,67.465703125,-7.265,7.7541810625,238.65
2021-06-28 16:18:04.625000000,-45.0,3.0,46.0,67.47375,-3.85,7.754141,238.65
2021-06-28 16:18:04.632812500,-45.0,2.75,46.0,67.481796875,-0.7450000000000001,7.7541009375,238.65
2021-06-28 16:18:04.640625000,-45.0,2.5,46.0,67.48984375,2.36,7.7540608749999995,238.65
2021-06-28 16:18:04.648437500,-45.0,2.25,46.0,67.497890625,5.039999999999999,7.754020812499999,238.65
2021-06-28 16:18:04.656250000,-45.0,2.0,46.0,67.5059375,7.72,7.75398075,238.65
2021-06-28 16:18:04.664062500,-45.0,2.25,46.0,67.51398437499999,9.89,7.7539406875,238.65
2021-06-28 16:18:04.671875000,-45.0,2.5,46.0,67.52203125,12.06,7.753900625,238.65
2021-06-28 16:18:04.679687500,-45.0,2.75,46.0,67.530078125,13.72,7.7538605625,238.65
2021-06-28 16:18:04.687500000,-45.0,3.0,46.0,67.538125,15.38,7.7538205,238.65
2021-06-28 16:18:04.695312500,-45.0,3.0,46.25,67.546171875,16.585,7.7537804375,238.65
2021-06-28 16:18:04.703125000,-45.0,3.0,46.5,67.55421875,17.79,7.753740375,238.65
2021-06-28 16:18:04.710937500,-45.0,3.0,46.75,67.562265625,18.68,7.7537003124999995,238.65
2021-06-28 16:18:04.718750000,-45.0,3.0,47.0,67.5703125,19.57,7.753660249999999,238.65
2021-06-28 16:18:04.726562500,-45.0,3.0,46.75,67.578359375,20.29,7.7536201875,238.65
2021-06-28 16:18:04.734375000,-45.0,3.0,46.5,67.58640625,21.01,7.753580125,238.65
2021-06-28 16:18:04.742187500,-45.0,3.0,46.25,67.594453125,21.67,7.7535400625,238.65
2021-06-28 16:18:04.750000000,-45.0,3.0,46.0,67.60249999999999,22.33,7.7535,238.65
2021-06-28 16:18:04.757812500,-45.0,3.0,46.0,67.610546875,22.97,7.7533799375,238.65
2021-06-28 16:18:04.765625000,-45.0,3.0,46.0,67.61859375,23.61,7.7532598749999995,238.65
2021-06-28 16:18:04.773437500,-45.0,3.0,46.0,67.626640625,24.155,7.7531398125,238.65
2021-06-28 16:18:04.781250000,-45.0,3.0,46.0,67.6346875,24.7,7.75301975,238.65
2021-06-28 16:18:04.789062500,-45.0,2.75,46.0,67.642734375,25.064999999999998,7.7528996875,238.65
2021-06-28 16:18:04.796875000,-45.0,2.5,46.0,67.65078125,25.43,7.752779625,238.65
2021-06-28 16:18:04.804687500,-45.0,2.25,46.0,67.658828125,25.575,7.7526595625,238.65
2021-06-28 16:18:04.812500000,-45.0,2.0,46.0,67.666875,25.72,7.7525395,238.65
2021-06-28 16:18:04.820312500,-45.0,2.25,46.0,67.674921875,25.685,7.7524194374999995,238.65
2021-06-28 16:18:04.828125000,-45.0,2.5,46.0,67.68296875,25.65,7.752299375,238.65
2021-06-28 16:18:04.835937500,-45.0,2.75,46.0,67.691015625,25.564999999999998,7.7521793125,238.65
2021-06-28 16:18:04.843750000,-45.0,3.0,46.0,67.6990625,25.48,7.75205925,238.65
2021-06-28 16:18:04.851562500,-45.0,3.0,46.0,67.707109375,25.47,7.7519391875,238.65
2021-06-28 16:18:04.859375000,-45.0,3.0,46.0,67.71515624999999,25.46,7.751819125,238.65
2021-06-28 16:18:04.867187500,-45.0,3.0,46.0,67.723203125,25.560000000000002,7.7516990625,238.65
2021-06-28 16:18:04.875000000,-45.0,3.0,46.0,67.73125,25.66,7.7515789999999996,238.65
2021-06-28 16:18:04.882812500,-45.0,2.75,46.0,67.739296875,25.78,7.7514589375,238.65
2021-06-28 16:18:04.890625000,-45.0,2.5,46.0,67.74734375,25.9,7.751338875,238.65
2021-06-28 16:18:04.898437500,-45.0,2.25,46.0,67.755390625,25.875,7.7512188125,238.65
2021-06-28 16:18:04.906250000,-45.0,2.0,46.0,67.7634375,25.85,7.75109875,238.65
2021-06-28 16:18:04.914062500,-45.0,2.25,46.0,67.771484375,25.51,7.7509786875,238.65
2021-06-28 16:18:04.921875000,-45.0,2.5,46.0,67.77953125,25.17,7.750858625,238.65
2021-06-28 16:18:04.929687500,-45.0,2.75,46.0,67.787578125,24.455,7.7507385625000005,238.65
2021-06-28 16:18:04.937500000,-45.0,3.0,46.0,67.795625,23.74,7.7506185,238.65
2021-06-28 16:18:04.945312500,-45.0,2.75,46.0,67.803671875,22.685,7.7504984375,238.65
2021-06-28 16:18:04.953125000,-45.0,2.5,46.0,67.81171875,21.63,7.750378375,238.65
2021-06-28 16:18:04.960937500,-45.0,2.25,46.0,67.819765625,20.39,7.7502583125,238.65
2021-06-28 16:18:04.968750000,-45.0,2.0,46.0,67.8278125,19.15,7.75013825,238.65
2021-06-28 16:18:04.976562500,-45.0,2.25,46.25,67.835859375,17.869999999999997,7.7500181875,238.65
2021-06-28 16:18:04.984375000,-45.0,2.5,46.5,67.84390625,16.59,7.7498981250000005,238.65
2021-06-28 16:18:04.992187500,-45.0,2.75,46.75,67.851953125,15.379999999999999,7.7497780625,238.65
2021-06-28 16:18:05.000000000,-45.0,3.0,47.0,67.86,14.17,7.749658,238.65
2021-06-28 16:18:05.007812500,-45.0,3.0,47.0,67.866953125,13.07,7.74909753125,238.65
2021-06-28 16:18:05.015625000,-45.0,3.0,47.0,67.87390625,11.97,7.7485370625000005,238.65
2021-06-28 16:18:05.023437500,-45.0,3.0,47.0,67.880859375,10.955,7.74797659375,238.65
2021-06-28 16:18:05.031250000,-45.0,3.0,47.0,67.8878125,9.94,7.747416125,238.65
2021-06-28 16:18:05.039062500,-45.0,3.0,46.75,67.894765625,8.96,7.74685565625,238.65
2021-06-28 16:18:05.046875000,-45.0,3.0,46.5,67.90171875,7.98,7.7462951875,238.65
2021-06-28 16:18:05.054687500,-45.0,3.0,46.25,67.908671875,6.98,7.74573471875,238.65
2021-06-28 16:18:05.062500000,-45.0,3.0,46.0,67.915625,5.98,7.74517425,238.65
2021-06-28 16:18:05.070312500,-45.0,3.0,46.0,67.922578125,4.905,7.74461378125,238.65
2021-06-28 16:18:05.078125000,-45.0,3.0,46.0,67.92953125,3.83,7.7440533125,238.65
2021-06-28 16:18:05.085937500,-45.0,3.0,46.0,67.936484375,2.66,7.74349284375,238.65
2021-06-28 16:18:05.093750000,-45.0,3.0,46.0,67.9434375,1.49,7.742932375,238.65
2021-06-28 16:18:05.101562500,-45.0,3.0,46.25,67.950390625,0.22499999999999987,7.74237190625,238.65
2021-06-28 16:18:05.109375000,-45.0,3.0,46.5,67.95734374999999,-1.04,7.7418114375,238.65
2021-06-28 16:18:05.117187500,-45.0,3.0,46.75,67.964296875,-2.37,7.74125096875,238.65
2021-06-28 16:18:05.125000000,-45.0,3.0,47.0,67.97125,-3.7,7.7406904999999995,238.65
2021-06-28 16:18:05.132812500,-45.0,3.0,46.75,67.978203125,-5.07,7.74013003125,238.65
2021-06-28 16:18:05.140625000,-45.0,3.0,46.5,67.98515625,-6.44,7.7395695625,238.65
2021-06-28 16:18:05.148437500,-45.0,3.0,46.25,67.992109375,-7.83,7.73900909375,238.65
2021-06-28 16:18:05.156250000,-45.0,3.0,46.0,67.9990625,-9.22,7.738448625,238.65
2021-06-28 16:18:05.164062500,-45.0,3.0,46.0,68.006015625,-10.66,7.7378881562499995,238.65
2021-06-28 16:18:05.171875000,-45.0,3.0,46.0,68.01296875,-12.1,7.7373276875,238.65
2021-06-28 16:18:05.179687500,-45.0,3.0,46.0,68.019921875,-13.625,7.73676721875,238.65
2021-06-28 16:18:05.187500000,-45.0,3.0,46.0,68.026875,-15.15,7.73620675,238.65
2021-06-28 16:18:05.195312500,-45.0,3.0,46.25,68.033828125,-16.805,7.73564628125,238.65
2021-06-28 16:18:05.203125000,-45.0,3.0,46.5,68.04078125,-18.46,7.7350858124999995,238.65
2021-06-28 16:18:05.210937500,-45.0,3.0,46.75,68.047734375,-20.259999999999998,7.73452534375,238.65
2021-06-28 16:18:05.218750000,-45.0,3.0,47.0,68.0546875,-22.06,7.733964875,238.65
2021-06-28 16:18:05.226562500,-45.0,3.0,46.75,68.061640625,-23.979999999999997,7.73340440625,238.65
2021-06-28 16:18:05.234375000,-45.0,3.0,46.5,68.06859375,-25.9,7.732843937499999,238.65
2021-06-28 16:18:05.242187500,-45.0,3.0,46.25,68.075546875,-27.865,7.7322834687499995,238.65
2021-06-28 16:18:05.250000000,-45.0,3.0,46.0,68.0825,-29.83,7.731723,238.65
2021-06-28 16:18:05.257812500,-45.0,3.0,46.0,68.089453125,-31.74,7.731723,238.65
2021-06-28 16:18:05.265625000,-45.0,3.0,46.0,68.09640625,-33.65,7.731723,238.65
2021-06-28 16:18:05.273437500,-45.0,3.0,46.0,68.103359375,-35.349999999999994,7.731723,238.65
2021-06-28 16:18:05.281250000,-45.0,3.0,46.0,68.1103125,-37.05,7.731723,238.65
2021-06-28 16:18:05.289062500,-45.0,3.0,46.0,68.117265625,-38.355,7.731723,238.65
2021-06-28 16:18:05.296875000,-45.0,3.0,46.0,68.12421875,-39.66,7.731723,238.65
2021-06-28 16:18:05.304687500,-45.0,3.0,46.0,68.13117187499999,-40.34,7.731723,238.65
2021-06-28 16:18:05.312500000,-45.0,3.0,46.0,68.138125,-41.02,7.731723,238.65
2021-06-28 16:18:05.320312500,-45.0,2.75,46.25,68.145078125,-40.89,7.731723,238.65
2021-06-28 16:18:05.328125000,-45.0,2.5,46.5,68.15203125,-40.76,7.731723,238.65
2021-06-28 16:18:05.335937500,-45.0,2.25,46.75,68.158984375,-39.709999999999994,7.731723,238.65
2021-06-28 16:18:05.343750000,-45.0,2.0,47.0,68.1659375,-38.66,7.731723,238.65
2021-06-28 16:18:05.351562500,-45.0,2.25,46.75,68.172890625,-36.72,7.731723,238.65
2021-06-28 16:18:05.359375000,-45.0,2.5,46.5,68.17984375,-34.78,7.731723,238.65
2021-06-28 16:18:05.367187500,-45.0,2.75,46.25,68.186796875,-32.1,7.731723,238.65
2021-06-28 16:18:05.375000000,-45.0,3.0,46.0,68.19375,-29.42,7.731723,238.65
2021-06-28 16:18:05.382812500,-44.75,3.0,46.0,68.200703125,-26.22,7.731723,238.65
2021-06-28 16:18:05.390625000,-44.5,3.0,46.0,68.20765625,-23.02,7.731723,238.65
2021-06-28 16:18:05.398437500,-44.25,3.0,46.0,68.214609375,-19.545,7.731723,238.65
2021-06-28 16:18:05.406250000,-44.0,3.0,46.0,68.2215625,-16.07,7.731723,238.65
2021-06-28 16:18:05.414062500,-44.25,3.0,46.25,68.228515625,-12.530000000000001,7.731723,238.65
2021-06-28 16:18:05.421875000,-44.5,3.0,46.5,68.23546875,-8.99,7.731723,238.65
2021-06-28 16:18:05.429687500,-44.75,3.0,46.75,68.242421875,-5.555,7.731723,238.65
2021-06-28 16:18:05.437500000,-45.0,3.0,47.0,68.249375,-2.12,7.731723,238.65
2021-06-28 16:18:05.445312500,-45.0,3.0,47.0,68.256328125,1.0499999999999998,7.731723,238.65
2021-06-28 16:18:05.453125000,-45.0,3.0,47.0,68.26328125,4.22,7.731723,238.65
2021-06-28 16:18:05.460937500,-45.0,3.0,47.0,68.270234375,6.98,7.731723,238.65
2021-06-28 16:18:05.468750000,-45.0,3.0,47.0,68.2771875,9.74,7.731723,238.65
2021-06-28 16:18:05.476562500,-44.75,3.0,46.75,68.284140625,11.975000000000001,7.731723,238.65
2021-06-28 16:18:05.484375000,-44.5,3.0,46.5,68.29109375,14.21,7.731723,238.65
2021-06-28 16:18:05.492187500,-44.25,3.0,46.25,68.298046875,15.85,7.731723,238.65
2021-06-28 16:18:05.500000000,-44.0,3.0,46.0,68.305,17.49,7.731723,238.65
2021-06-28 16:18:05.507812500,-44.25,2.75,46.25,68.311953125,18.54,7.73176303125,238.65
2021-06-28 16:18:05.515625000,-44.5,2.5,46.5,68.31890625,19.59,7.7318030625,238.65
2021-06-28 16:18:05.523437500,-44.75,2.25,46.75,68.325859375,20.14,7.731843093749999,238.65
2021-06-28 16:18:05.531250000,-45.0,2.0,47.0,68.3328125,20.69,7.7318831249999995,238.65
2021-06-28 16:18:05.539062500,-45.0,2.0,46.75,68.339765625,20.884999999999998,7.73192315625,238.65
2021-06-28 16:18:05.546875000,-45.0,2.0,46.5,68.34671875,21.08,7.7319631875,238.65
2021-06-28 16:18:05.554687500,-45.0,2.0,46.25,68.353671875,21.104999999999997,7.73200321875,238.65
2021-06-28 16:18:05.562500000,-45.0,2.0,46.0,68.360625,21.13,7.73204325,238.65
2021-06-28 16:18:05.570312500,-45.0,2.25,46.0,68.367578125,21.155,7.7320832812499996,238.65
2021-06-28 16:18:05.578125000,-45.0,2.5,46.0,68.37453125,21.18,7.7321233125,238.65
2021-06-28 16:18:05.585937500,-45.0,2.75,46.0,68.381484375,21.33,7.73216334375,238.65
2021-06-28 16:18:05.593750000,-45.0,3.0,46.0,68.3884375,21.48,7.732203375,238.65
2021-06-28 16:18:05.601562500,-45.0,3.0,46.25,68.395390625,21.8,7.73224340625,238.65
2021-06-28 16:18:05.609375000,-45.0,3.0,46.5,68.40234375,22.12,7.7322834375,238.65
2021-06-28 16:18:05.617187500,-45.0,3.0,46.75,68.409296875,22.585,7.73232346875,238.65
2021-06-28 16:18:05.625000000,-45.0,3.0,47.0,68.41625,23.05,7.7323635,238.65
2021-06-28 16:18:05.632812500,-44.75,3.0,46.75,68.423203125,23.560000000000002,7.73240353125,238.65
2021-06-28 16:18:05.640625000,-44.5,3.0,46.5,68.43015625,24.07,7.7324435625,238.65
2021-06-28 16:18:05.648437500,-44.25,3.0,46.25,68.437109375,24.515,7.73248359375,238.65
2021-06-28 16:18:05.656250000,-44.0,3.0,46.0,68.4440625,24.96,7.732523625,238.65
2021-06-28 16:18:05.664062500,-44.0,3.0,46.25,68.451015625,25.255000000000003,7.73256365625,238.65
2021-06-28 16:18:05.671875000,-44.0,3.0,46.5,68.45796875,25.55,7.7326036875,238.65
2021-06-28 16:18:05.679687500,-44.0,3.0,46.75,68.464921875,25.66,7.73264371875,238.65
2021-06-28 16:18:05.687500000,-44.0,3.0,47.0,68.471875,25.77,7.73268375,238.65
2021-06-28 16:18:05.695312500,-44.25,2.75,47.0,68.478828125,25.67,7.73272378125,238.65
2021-06-28 16:18:05.703125000,-44.5,2.5,47.0,68.48578125,25.57,7.7327638125,238.65
2021-06-28 16:18:05.710937500,-44.75,2.25,47.0,68.492734375,25.25,7.73280384375,238.65
2021-06-28 16:18:05.718750000,-45.0,2.0,47.0,68.4996875,24.93,7.732843875,238.65
2021-06-28 16:18:05.726562500,-45.0,2.25,47.0,68.506640625,24.375,7.7328839062500005,238.65
2021-06-28 16:18:05.734375000,-45.0,2.5,47.0,68.51359375,23.82,7.7329239375,238.65
2021-06-28 16:18:05.742187500,-45.0,2.75,47.0,68.520546875,23.02,7.73296396875,238.65
2021-06-28 16:18:05.750000000,-45.0,3.0,47.0,68.5275,22.22,7.733004,238.65
2021-06-28 16:18:05.757812500,-45.0,3.0,47.0,68.534453125,21.229999999999997,7.73296396875,238.65
2021-06-28 16:18:05.765625000,-45.0,3.0,47.0,68.54140625,20.24,7.7329239375,238.65
2021-06-28 16:18:05.773437500,-45.0,3.0,47.0,68.548359375,19.159999999999997,7.7328839062500005,238.65
2021-06-28 16:18:05.781250000,-45.0,3.0,47.0,68.5553125,18.08,7.732843875,238.65
2021-06-28 16:18:05.789062500,-45.0,3.0,46.75,68.562265625,17.049999999999997,7.73280384375,238.65
2021-06-28 16:18:05.796875000,-45.0,3.0,46.5,68.56921875,16.02,7.7327638125,238.65
2021-06-28 16:18:05.804687500,-45.0,3.0,46.25,68.576171875,15.125,7.73272378125,238.65
2021-06-28 16:18:05.812500000,-45.0,3.0,46.0,68.583125,14.23,7.73268375,238.65
2021-06-28 16:18:05.820312500,-44.75,3.0,46.25,68.590078125,13.475000000000001,7.73264371875,238.65
2021-06-28 16:18:05.828125000,-44.5,3.0,46.5,68.59703125,12.72,7.7326036875,238.65
2021-06-28 16:18:05.835937500,-44.25,3.0,46.75,68.603984375,12.0,7.73256365625,238.65
2021-06-28 16:18:05.843750000,-44.0,3.0,47.0,68.6109375,11.28,7.732523625,238.65
2021-06-28 16:18:05.851562500,-44.25,3.0,47.0,68.617890625,10.475,7.73248359375,238.65
2021-06-28 16:18:05.859375000,-44.5,3.0,47.0,68.62484375,9.67,7.7324435625,238.65
2021-06-28 16:18:05.867187500,-44.75,3.0,47.0,68.631796875,8.675,7.73240353125,238.65
2021-06-28 16:18:05.875000000,-45.0,3.0,47.0,68.63875,7.68,7.7323635,238.65
2021-06-28 16:18:05.882812500,-45.0,3.0,46.75,68.645703125,6.455,7.73232346875,238.65
2021-06-28 16:18:05.890625000,-45.0,3.0,46.5,68.65265625,5.23,7.7322834375,238.65
2021-06-28 16:18:05.898437500,-45.0,3.0,46.25,68.659609375,3.8200000000000003,7.73224340625,238.65
2021-06-28 16:18:05.906250000,-45.0,3.0,46.0,68.6665625,2.41,7.732203375,238.65
2021-06-28 16:18:05.914062500,-45.0,3.0,46.25,68.673515625,0.885,7.73216334375,238.65
2021-06-28 16:18:05.921875000,-45.0,3.0,46.5,68.68046875,-0.64,7.7321233125,238.65
2021-06-28 16:18:05.929687500,-45.0,3.0,46.75,68.687421875,-2.2199999999999998,7.7320832812499996,238.65
2021-06-28 16:18:05.937500000,-45.0,3.0,47.0,68.694375,-3.8,7.73204325,238.65
2021-06-28 16:18:05.945312500,-45.0,3.0,46.75,68.701328125,-5.38,7.73200321875,238.65
2021-06-28 16:18:05.953125000,-45.0,3.0,46.5,68.70828125,-6.96,7.7319631875,238.65
2021-06-28 16:18:05.960937500,-45.0,3.0,46.25,68.715234375,-8.535,7.73192315625,238.65
2021-06-28 16:18:05.968750000,-45.0,3.0,46.0,68.7221875,-10.11,7.7318831249999995,238.65
2021-06-28 16:18:05.976562500,-45.0,3.0,46.25,68.729140625,-11.69,7.731843093749999,238.65
2021-06-28 16:18:05.984375000,-45.0,3.0,46.5,68.73609375,-13.27,7.7318030625,238.65
2021-06-28 16:18:05.992187500,-45.0,3.0,46.75,68.743046875,-14.89,7.73176303125,238.65
2021-06-28 16:18:06.000000000,-45.0,3.0,47.0,68.75,-16.51,7.731723,238.65
2021-06-28 16:18:06.007812500,-45.0,3.0,47.0,68.75453125,-18.200000000000003,7.731562875,238.65
2021-06-28 16:18:06.015625000,-45.0,3.0,47.0,68.7590625,-19.89,7.73140275,238.65
2021-06-28 16:18:06.023437500,-45.0,3.0,47.0,68.76359375,-21.665,7.731242625,238.65
2021-06-28 16:18:06.031250000,-45.0,3.0,47.0,68.768125,-23.44,7.731082499999999,238.65
2021-06-28 16:18:06.039062500,-45.0,3.0,47.0,68.77265625,-25.265,7.730922375,238.65
2021-06-28 16:18:06.046875000,-45.0,3.0,47.0,68.7771875,-27.09,7.73076225,238.65
2021-06-28 16:18:06.054687500,-45.0,3.0,47.0,68.78171875,-28.82,7.730602125,238.65
2021-06-28 16:18:06.062500000,-45.0,3.0,47.0,68.78625,-30.55,7.730442,238.65
2021-06-28 16:18:06.070312500,-45.0,3.0,47.0,68.79078125,-31.994999999999997,7.730281875,238.65
2021-06-28 16:18:06.078125000,-45.0,3.0,47.0,68.7953125,-33.44,7.7301217499999995,238.65
2021-06-28 16:18:06.085937500,-45.0,3.0,47.0,68.79984375,-34.355000000000004,7.729961625,238.65
2021-06-28 16:18:06.093750000,-45.0,3.0,47.0,68.804375,-35.27,7.7298015,238.65
2021-06-28 16:18:06.101562500,-45.0,2.75,47.0,68.80890625,-35.45,7.729641375,238.65
2021-06-28 16:18:06.109375000,-45.0,2.5,47.0,68.8134375,-35.63,7.72948125,238.65
2021-06-28 16:18:06.117187500,-45.0,2.25,47.0,68.81796875,-34.965,7.729321125,238.65
2021-06-28 16:18:06.125000000,-45.0,2.0,47.0,68.8225,-34.3,7.7291609999999995,238.65
2021-06-28 16:18:06.132812500,-45.0,2.25,47.0,68.82703125,-32.785,7.729000875,238.65
2021-06-28 16:18:06.140625000,-45.0,2.5,47.0,68.8315625,-31.27,7.72884075,238.65
2021-06-28 16:18:06.148437500,-45.0,2.75,47.0,68.83609375,-29.005,7.728680625,238.65
2021-06-28 16:18:06.156250000,-45.0,3.0,47.0,68.840625,-26.74,7.7285205,238.65
2021-06-28 16:18:06.164062500,-45.0,3.0,46.75,68.84515625,-23.895,7.728360375,238.65
2021-06-28 16:18:06.171875000,-45.0,3.0,46.5,68.8496875,-21.05,7.72820025,238.65
2021-06-28 16:18:06.179687500,-45.0,3.0,46.25,68.85421875,-17.84,7.728040125,238.65
2021-06-28 16:18:06.187500000,-45.0,3.0,46.0,68.85875,-14.63,7.72788,238.65
2021-06-28 16:18:06.195312500,-45.0,3.0,46.25,68.86328125,-11.26,7.727719875,238.65
2021-06-28 16:18:06.203125000,-45.0,3.0,46.5,68.8678125,-7.89,7.72755975,238.65
2021-06-28 16:18:06.210937500,-45.0,3.0,46.75,68.87234375,-4.57,7.727399625,238.65
2021-06-28 16:18:06.218750000,-45.0,3.0,47.0,68.876875,-1.25,7.7272395000000005,238.65
2021-06-28 16:18:06.226562500,-45.0,3.0,47.0,68.88140625,1.815,7.727079375,238.65
2021-06-28 16:18:06.234375000,-45.0,3.0,47.0,68.8859375,4.88,7.72691925,238.65
2021-06-28 16:18:06.242187500,-45.0,3.0,47.0,68.89046875,7.525,7.726759125,238.65
2021-06-28 16:18:06.250000000,-45.0,3.0,47.0,68.895,10.17,7.726599,238.65
2021-06-28 16:18:06.257812500,-44.75,3.0,47.0,68.89953125,12.280000000000001,7.7265189375,238.65
2021-06-28 16:18:06.265625000,-44.5,3.0,47.0,68.9040625,14.39,7.726438875,238.65
2021-06-28 16:18:06.273437500,-44.25,3.0,47.0,68.90859375,15.94,7.7263588125,238.65
2021-06-28 16:18:06.281250000,-44.0,3.0,47.0,68.913125,17.49,7.7262787500000005,238.65
2021-06-28 16:18:06.289062500,-44.25,2.75,47.0,68.91765625,18.57,7.7261986875,238.65
2021-06-28 16:18:06.296875000,-44.5,2.5,47.0,68.92218749999999,19.65,7.726118625,238.65
2021-06-28 16:18:06.304687500,-44.75,2.25,47.0,68.92671875,20.405,7.7260385625,238.65
2021-06-28 16:18:06.312500000,-45.0,2.0,47.0,68.93125,21.16,7.7259585,238.65
2021-06-28 16:18:06.320312500,-44.75,2.25,47.0,68.93578125,21.77,7.7258784375000005,238.65
2021-06-28 16:18:06.328125000,-44.5,2.5,47.0,68.9403125,22.38,7.725798375,238.65
2021-06-28 16:18:06.335937500,-44.25,2.75,47.0,68.94484375,22.96,7.7257183125,238.65
2021-06-28 16:18:06.343750000,-44.0,3.0,47.0,68.949375,23.54,7.72563825,238.65
2021-06-28 16:18:06.351562500,-44.25,2.75,47.0,68.95390625,24.13,7.7255581875,238.65
2021-06-28 16:18:06.359375000,-44.5,2.5,47.0,68.9584375,24.72,7.725478125,238.65
2021-06-28 16:18:06.367187500,-44.75,2.25,47.0,68.96296875,25.28,7.7253980625,238.65
2021-06-28 16:18:06.375000000,-45.0,2.0,47.0,68.9675,25.84,7.725318,238.65
2021-06-28 16:18:06.382812500,-44.75,2.25,47.0,68.97203125,26.32,7.7252379375,238.65
2021-06-28 16:18:06.390625000,-44.5,2.5,47.0,68.9765625,26.8,7.725157875,238.65
2021-06-28 16:18:06.398437500,-44.25,2.75,47.0,68.98109375,27.185000000000002,7.7250778125,238.65
2021-06-28 16:18:06.406250000,-44.0,3.0,47.0,68.985625,27.57,7.72499775,238.65
2021-06-28 16:18:06.414062500,-44.0,2.75,47.0,68.99015625,27.865000000000002,7.7249176875000005,238.65
2021-06-28 16:18:06.421875000,-44.0,2.5,47.0,68.9946875,28.16,7.724837625,238.65
2021-06-28 16:18:06.429687500,-44.0,2.25,47.0,68.99921875,28.384999999999998,7.7247575625,238.65
2021-06-28 16:18:06.437500000,-44.0,2.0,47.0,69.00375,28.61,7.7246775,238.65
2021-06-28 16:18:06.445312500,-44.25,2.25,47.0,69.00828125,28.744999999999997,7.7245974375,238.65
2021-06-28 16:18:06.453125000,-44.5,2.5,47.0,69.0128125,28.88,7.7245173750000005,238.65
2021-06-28 16:18:06.460937500,-44.75,2.75,47.0,69.01734375,28.84,7.7244373125,238.65
2021-06-28 16:18:06.468750000,-45.0,3.0,47.0,69.021875,28.8,7.72435725,238.65
2021-06-28 16:18:06.476562500,-44.75,3.0,47.0,69.02640625,28.47,7.7242771875,238.65
2021-06-28 16:18:06.484375000,-44.5,3.0,47.0,69.0309375,28.14,7.724197125,238.65
2021-06-28 16:18:06.492187500,-44.25,3.0,47.0,69.03546874999999,27.46,7.7241170625,238.65
2021-06-28 16:18:06.500000000,-44.0,3.0,47.0,69.03999999999999,26.78,7.724037,238.65
2021-06-28 16:18:06.507812500,-44.25,2.75,47.0,69.04453125,25.78,7.72367671875,238.65
2021-06-28 16:18:06.515625000,-44.5,2.5,47.0,69.0490625,24.78,7.7233164375,238.65
2021-06-28 16:18:06.523437500,-44.75,2.25,47.0,69.05359375,23.585,7.72295615625,238.65
2021-06-28 16:18:06.531250000,-45.0,2.0,47.0,69.058125,22.39,7.722595875,238.65
2021-06-28 16:18:06.539062500,-45.0,2.25,47.0,69.06265625,21.165,7.72223559375,238.65
2021-06-28 16:18:06.546875000,-45.0,2.5,47.0,69.0671875,19.94,7.7218753125,238.65
2021-06-28 16:18:06.554687500,-45.0,2.75,47.0,69.07171875,18.805,7.72151503125,238.65
2021-06-28 16:18:06.562500000,-45.0,3.0,47.0,69.07625,17.67,7.72115475,238.65
2021-06-28 16:18:06.570312500,-45.0,3.0,47.0,69.08078125,16.66,7.72079446875,238.65
2021-06-28 16:18:06.578125000,-45.0,3.0,47.0,69.0853125,15.65,7.7204341874999995,238.65
2021-06-28 16:18:06.585937500,-45.0,3.0,47.0,69.08984375,14.71,7.72007390625,238.65
2021-06-28 16:18:06.593750000,-45.0,3.0,47.0,69.094375,13.77,7.719713625,238.65
2021-06-28 16:18:06.601562500,-45.0,2.75,47.0,69.09890625,12.825,7.71935334375,238.65
2021-06-28 16:18:06.609375000,-45.0,2.5,47.0,69.1034375,11.88,7.7189930625,238.65
2021-06-28 16:18:06.617187500,-45.0,2.25,47.0,69.10796875,10.865,7.71863278125,238.65
2021-06-28 16:18:06.625000000,-45.0,2.0,47.0,69.1125,9.85,7.718272499999999,238.65
2021-06-28 16:18:06.632812500,-45.0,2.25,47.0,69.11703125,8.719999999999999,7.7179122187499996,238.65
2021-06-28 16:18:06.640625000,-45.0,2.5,47.0,69.1215625,7.59,7.7175519375,238.65
2021-06-28 16:18:06.648437500,-45.0,2.75,47.0,69.12609375,6.3100000000000005,7.71719165625,238.65
2021-06-28 16:18:06.656250000,-45.0,3.0,47.0,69.130625,5.03,7.716831375,238.65
2021-06-28 16:18:06.664062500,-44.75,3.0,47.0,69.13515625,3.575,7.71647109375,238.65
2021-06-28 16:18:06.671875000,-44.5,3.0,47.0,69.1396875,2.12,7.7161108125,238.65
2021-06-28 16:18:06.679687500,-44.25,3.0,47.0,69.14421875,0.43999999999999995,7.715750531249999,238.65
2021-06-28 16:18:06.687500000,-44.0,3.0,47.0,69.14874999999999,-1.24,7.71539025,238.65
2021-06-28 16:18:06.695312500,-44.25,3.0,47.0,69.15328124999999,-3.135,7.71502996875,238.65
2021-06-28 16:18:06.703125000,-44.5,3.0,47.0,69.1578125,-5.03,7.7146696875,238.65
2021-06-28 16:18:06.710937500,-44.75,3.0,47.0,69.16234375,-7.055,7.71430940625,238.65
2021-06-28 16:18:06.718750000,-45.0,3.0,47.0,69.166875,-9.08,7.713949125,238.65
2021-06-28 16:18:06.726562500,-45.0,2.75,47.0,69.17140625,-11.08,7.713588843749999,238.65
2021-06-28 16:18:06.734375000,-45.0,2.5,47.0,69.1759375,-13.08,7.713228562499999,238.65
2021-06-28 16:18:06.742187500,-45.0,2.25,47.0,69.18046875,-14.875,7.71286828125,238.65
2021-06-28 16:18:06.750000000,-45.0,2.0,47.0,69.185,-16.67,7.712508,238.65
2021-06-28 16:18:06.757812500,-44.75,2.25,47.0,69.18953125,-18.135,7.71254803125,238.65
2021-06-28 16:18:06.765625000,-44.5,2.5,47.0,69.1940625,-19.6,7.7125880625,238.65
2021-06-28 16:18:06.773437500,-44.25,2.75,47.0,69.19859375,-20.75,7.712628093749999,238.65
2021-06-28 16:18:06.781250000,-44.0,3.0,47.0,69.203125,-21.9,7.7126681249999995,238.65
2021-06-28 16:18:06.789062500,-44.0,3.0,47.0,69.20765625,-22.915,7.71270815625,238.65
2021-06-28 16:18:06.796875000,-44.0,3.0,47.0,69.2121875,-23.93,7.7127481875,238.65
2021-06-28 16:18:06.804687500,-44.0,3.0,47.0,69.21671875,-25.1,7.71278821875,238.65
2021-06-28 16:18:06.812500000,-44.0,3.0,47.0,69.22125,-26.27,7.712828249999999,238.65
2021-06-28 16:18:06.820312500,-44.25,3.0,46.75,69.22578125,-27.86,7.71286828125,238.65
2021-06-28 16:18:06.828125000,-44.5,3.0,46.5,69.2303125,-29.45,7.7129083125,238.65
2021-06-28 16:18:06.835937500,-44.75,3.0,46.25,69.23484375,-31.555,7.71294834375,238.65
2021-06-28 16:18:06.843750000,-45.0,3.0,46.0,69.239375,-33.66,7.712988375,238.65
2021-06-28 16:18:06.851562500,-45.0,3.0,46.0,69.24390625,-36.125,7.71302840625,238.65
2021-06-28 16:18:06.859375000,-45.0,3.0,46.0,69.2484375,-38.59,7.7130684375,238.65
2021-06-28 16:18:06.867187500,-45.0,3.0,46.0,69.25296875,-41.02,7.71310846875,238.65
2021-06-28 16:18:06.875000000,-45.0,3.0,46.0,69.2575,-43.45,7.7131485,238.65
2021-06-28 16:18:06.882812500,-44.75,2.75,46.25,69.26203124999999,-45.325,7.71318853125,238.65
2021-06-28 16:18:06.890625000,-44.5,2.5,46.5,69.26656249999999,-47.2,7.7132285625,238.65
2021-06-28 16:18:06.898437500,-44.25,2.25,46.75,69.27109374999999,-48.08,7.71326859375,238.65
2021-06-28 16:18:06.906250000,-44.0,2.0,47.0,69.275625,-48.96,7.713308625,238.65
2021-06-28 16:18:06.914062500,-44.0,2.25,47.0,69.28015625,-48.61,7.71334865625,238.65
2021-06-28 16:18:06.921875000,-44.0,2.5,47.0,69.2846875,-48.26,7.7133886875,238.65
2021-06-28 16:18:06.929687500,-44.0,2.75,47.0,69.28921875,-46.735,7.71342871875,238.65
2021-06-28 16:18:06.937500000,-44.0,3.0,47.0,69.29375,-45.21,7.7134687500000005,238.65
2021-06-28 16:18:06.945312500,-44.25,2.75,46.75,69.29828125,-42.754999999999995,7.71350878125,238.65
2021-06-28 16:18:06.953125000,-44.5,2.5,46.5,69.3028125,-40.3,7.7135488125,238.65
2021-06-28 16:18:06.960937500,-44.75,2.25,46.25,69.30734375,-37.245,7.71358884375,238.65
2021-06-28 16:18:06.968750000,-45.0,2.0,46.0,69.311875,-34.19,7.713628875,238.65
2021-06-28 16:18:06.976562500,-45.0,2.0,46.25,69.31640625,-30.81,7.713668906250001,238.65
2021-06-28 16:18:06.984375000,-45.0,2.0,46.5,69.3209375,-27.43,7.7137089375,238.65
2021-06-28 16:18:06.992187500,-45.0,2.0,46.75,69.32546875,-23.91,7.71374896875,238.65
2021-06-28 16:18:07.000000000,-45.0,2.0,47.0,69.33,-20.39,7.713789,238.65
2021-06-28 16:18:07.007812500,-45.0,2.25,46.75,69.333671875,-16.845,7.7133886875,238.65
2021-06-28 16:18:07.015625000,-45.0,2.5,46.5,69.33734375,-13.3,7.712988375,238.65
2021-06-28 16:18:07.023437500,-45.0,2.75,46.25,69.341015625,-9.845,7.7125880625,238.65
2021-06-28 16:18:07.031250000,-45.0,3.0,46.0,69.34468749999999,-6.39,7.71218775,238.65
2021-06-28 16:18:07.039062500,-45.0,2.75,46.0,69.348359375,-3.165,7.7117874375,238.65
2021-06-28 16:18:07.046875000,-45.0,2.5,46.0,69.35203125,0.06,7.711387125,238.65
2021-06-28 16:18:07.054687500,-45.0,2.25,46.0,69.355703125,2.9000000000000004,7.7109868125,238.65
2021-06-28 16:18:07.062500000,-45.0,2.0,46.0,69.359375,5.74,7.7105865,238.65
2021-06-28 16:18:07.070312500,-45.0,2.0,46.0,69.363046875,8.105,7.710186187500001,238.65
2021-06-28 16:18:07.078125000,-45.0,2.0,46.0,69.36671875,10.47,7.709785875000001,238.65
2021-06-28 16:18:07.085937500,-45.0,2.0,46.0,69.370390625,12.385000000000002,7.7093855625000005,238.65
2021-06-28 16:18:07.093750000,-45.0,2.0,46.0,69.3740625,14.3,7.7089852500000005,238.65
2021-06-28 16:18:07.101562500,-45.0,2.25,46.0,69.377734375,15.885,7.7085849375,238.65
2021-06-28 16:18:07.109375000,-45.0,2.5,46.0,69.38140625,17.47,7.708184625,238.65
2021-06-28 16:18:07.117187500,-45.0,2.75,46.0,69.38507812499999,18.88,7.7077843125,238.65
2021-06-28 16:18:07.125000000,-45.0,3.0,46.0,69.38875,20.29,7.707384,238.65
2021-06-28 16:18:07.132812500,-45.0,2.75,46.25,69.392421875,21.63,7.7069836875,238.65
2021-06-28 16:18:07.140625000,-45.0,2.5,46.5,69.39609374999999,22.97,7.706583375,238.65
2021-06-28 16:18:07.148437500,-45.0,2.25,46.75,69.399765625,24.22,7.7061830625,238.65
2021-06-28 16:18:07.156250000,-45.0,2.0,47.0,69.4034375,25.47,7.70578275,238.65
2021-06-28 16:18:07.164062500,-45.0,2.0,47.0,69.407109375,26.535,7.7053824375,238.65
2021-06-28 16:18:07.171875000,-45.0,2.0,47.0,69.41078125,27.6,7.704982125,238.65
2021-06-28 16:18:07.179687500,-45.0,2.0,47.0,69.414453125,28.35,7.7045818125,238.65
2021-06-28 16:18:07.187500000,-45.0,2.0,47.0,69.418125,29.1,7.704181500000001,238.65
2021-06-28 16:18:07.195312500,-45.0,2.25,46.75,69.421796875,29.435000000000002,7.703781187500001,238.65
2021-06-28 16:18:07.203125000,-45.0,2.5,46.5,69.42546875,29.77,7.703380875000001,238.65
2021-06-28 16:18:07.210937500,-45.0,2.75,46.25,69.429140625,29.705,7.7029805625000005,238.65
2021-06-28 16:18:07.218750000,-45.0,3.0,46.0,69.4328125,29.64,7.7025802500000005,238.65
2021-06-28 16:18:07.226562500,-45.0,2.75,46.25,69.43648437499999,29.275,7.7021799375,238.65
2021-06-28 16:18:07.234375000,-45.0,2.5,46.5,69.44015625,28.91,7.701779625,238.65
2021-06-28 16:18:07.242187500,-45.0,2.25,46.75,69.443828125,28.425,7.7013793125,238.65
2021-06-28 16:18:07.250000000,-45.0,2.0,47.0,69.44749999999999,27.94,7.700979,238.65
2021-06-28 16:18:07.257812500,-45.0,2.0,46.75,69.451171875,27.5,7.70101903125,238.65
2021-06-28 16:18:07.265625000,-45.0,2.0,46.5,69.45484375,27.06,7.701059062500001,238.65
2021-06-28 16:18:07.273437500,-45.0,2.0,46.25,69.458515625,26.775,7.70109909375,238.65
2021-06-28 16:18:07.281250000,-45.0,2.0,46.0,69.4621875,26.49,7.701139125,238.65
2021-06-28 16:18:07.289062500,-45.0,2.0,46.0,69.465859375,26.354999999999997,7.70117915625,238.65
2021-06-28 16:18:07.296875000,-45.0,2.0,46.0,69.46953125,26.22,7.7012191875000005,238.65
2021-06-28 16:18:07.304687500,-45.0,2.0,46.0,69.473203125,26.125,7.70125921875,238.65
2021-06-28 16:18:07.312500000,-45.0,2.0,46.0,69.47687499999999,26.03,7.70129925,238.65
2021-06-28 16:18:07.320312500,-45.0,2.25,46.0,69.480546875,25.805,7.70133928125,238.65
2021-06-28 16:18:07.328125000,-45.0,2.5,46.0,69.48421875,25.58,7.7013793125,238.65
2021-06-28 16:18:07.335937500,-45.0,2.75,46.0,69.48789062499999,25.075,7.7014193437500005,238.65
2021-06-28 16:18:07.343750000,-45.0,3.0,46.0,69.4915625,24.57,7.701459375,238.65
2021-06-28 16:18:07.351562500,-45.0,3.0,46.25,69.495234375,23.75,7.70149940625,238.65
2021-06-28 16:18:07.359375000,-45.0,3.0,46.5,69.49890625,22.93,7.7015394375,238.65
2021-06-28 16:18:07.367187500,-45.0,3.0,46.75,69.502578125,21.845,7.70157946875,238.65
2021-06-28 16:18:07.375000000,-45.0,3.0,47.0,69.50625,20.76,7.7016195,238.65
2021-06-28 16:18:07.382812500,-45.0,3.0,46.75,69.509921875,19.53,7.70165953125,238.65
2021-06-28 16:18:07.390625000,-45.0,3.0,46.5,69.51359375,18.3,7.7016995625,238.65
2021-06-28 16:18:07.398437500,-45.0,3.0,46.25,69.517265625,17.035,7.70173959375,238.65
2021-06-28 16:18:07.406250000,-45.0,3.0,46.0,69.5209375,15.77,7.701779625,238.65
2021-06-28 16:18:07.414062500,-45.0,3.0,46.0,69.524609375,14.515,7.70181965625,238.65
2021-06-28 16:18:07.421875000,-45.0,3.0,46.0,69.52828124999999,13.26,7.7018596875,238.65
2021-06-28 16:18:07.429687500,-45.0,3.0,46.0,69.531953125,12.004999999999999,7.70189971875,238.65
2021-06-28 16:18:07.437500000,-45.0,3.0,46.0,69.535625,10.75,7.70193975,238.65
2021-06-28 16:18:07.445312500,-45.0,3.0,46.0,69.53929687499999,9.45,7.70197978125,238.65
2021-06-28 16:18:07.453125000,-45.0,3.0,46.0,69.54296875,8.15,7.7020198125,238.65
2021-06-28 16:18:07.460937500,-45.0,3.0,46.0,69.546640625,6.78,7.70205984375,238.65
2021-06-28 16:18:07.468750000,-45.0,3.0,46.0,69.5503125,5.41,7.702099875,238.65
2021-06-28 16:18:07.476562500,-45.0,2.75,46.0,69.553984375,3.98,7.70213990625,238.65
2021-06-28 16:18:07.484375000,-45.0,2.5,46.0,69.55765625,2.55,7.7021799374999995,238.65
2021-06-28 16:18:07.492187500,-45.0,2.25,46.0,69.561328125,1.095,7.70221996875,238.65
2021-06-28 16:18:07.500000000,-45.0,2.0,46.0,69.565,-0.36,7.70226,238.65
2021-06-28 16:18:07.507812500,-45.0,2.0,46.0,69.56867187499999,-1.81,7.7016595,238.65
2021-06-28 16:18:07.515625000,-45.0,2.0,46.0,69.57234375,-3.26,7.701059,238.65
2021-06-28 16:18:07.523437500,-45.0,2.0,46.0,69.576015625,-4.71,7.7004585,238.65
2021-06-28 16:18:07.531250000,-45.0,2.0,46.0,69.57968749999999,-6.16,7.699858,238.65
2021-06-28 16:18:07.539062500,-45.0,2.25,46.0,69.583359375,-7.63,7.6992575,238.65
2021-06-28 16:18:07.546875000,-45.0,2.5,46.0,69.58703125,-9.1,7.698657,238.65
2021-06-28 16:18:07.554687500,-45.0,2.75,46.0,69.590703125,-10.620000000000001,7.6980565,238.65
2021-06-28 16:18:07.562500000,-45.0,3.0,46.0,69.594375,-12.14,7.697456,238.65
2021-06-28 16:18:07.570312500,-45.0,3.0,46.25,69.598046875,-13.74,7.6968555,238.65
2021-06-28 16:18:07.578125000,-45.0,3.0,46.5,69.60171875,-15.34,7.696255,238.65
2021-06-28 16:18:07.585937500,-45.0,3.0,46.75,69.605390625,-17.05,7.6956545,238.65
2021-06-28 16:18:07.593750000,-45.0,3.0,47.0,69.6090625,-18.76,7.695054,238.65
2021-06-28 16:18:07.601562500,-45.0,2.75,46.75,69.612734375,-20.625,7.6944535,238.65
2021-06-28 16:18:07.609375000,-45.0,2.5,46.5,69.61640625,-22.49,7.693853,238.65
2021-06-28 16:18:07.617187500,-45.0,2.25,46.25,69.62007812499999,-24.52,7.6932525,238.65
2021-06-28 16:18:07.625000000,-45.0,2.0,46.0,69.62375,-26.55,7.692652,238.65
2021-06-28 16:18:07.632812500,-45.0,2.25,46.0,69.627421875,-28.72,7.6920515,238.65
2021-06-28 16:18:07.640625000,-45.0,2.5,46.0,69.63109374999999,-30.89,7.691451,238.65
2021-06-28 16:18:07.648437500,-45.0,2.75,46.0,69.634765625,-33.105000000000004,7.6908505,238.65
2021-06-28 16:18:07.656250000,-45.0,3.0,46.0,69.6384375,-35.32,7.69025,238.65
2021-06-28 16:18:07.664062500,-45.0,2.75,46.0,69.642109375,-37.39,7.6896495,238.65
2021-06-28 16:18:07.671875000,-45.0,2.5,46.0,69.64578125,-39.46,7.689049,238.65
2021-06-28 16:18:07.679687500,-45.0,2.25,46.0,69.649453125,-41.155,7.6884485,238.65
2021-06-28 16:18:07.687500000,-45.0,2.0,46.0,69.653125,-42.85,7.687848,238.65
2021-06-28 16:18:07.695312500,-45.0,2.25,46.25,69.656796875,-43.945,7.6872475,238.65
2021-06-28 16:18:07.703125000,-45.0,2.5,46.5,69.66046874999999,-45.04,7.686647,238.65
2021-06-28 16:18:07.710937500,-45.0,2.75,46.75,69.664140625,-45.370000000000005,7.6860465,238.65
2021-06-28 16:18:07.718750000,-45.0,3.0,47.0,69.6678125,-45.7,7.685446,238.65
2021-06-28 16:18:07.726562500,-45.0,3.0,46.75,69.67148437499999,-45.205,7.6848455,238.65
2021-06-28 16:18:07.734375000,-45.0,3.0,46.5,69.67515625,-44.71,7.684245,238.65
2021-06-28 16:18:07.742187500,-45.0,3.0,46.25,69.678828125,-43.405,7.6836445,238.65
2021-06-28 16:18:07.750000000,-45.0,3.0,46.0,69.6825,-42.1,7.683044,238.65
2021-06-28 16:18:07.757812500,-45.0,3.0,46.0,69.686171875,-40.09,7.68328421875,238.65
2021-06-28 16:18:07.765625000,-45.0,3.0,46.0,69.68984375,-38.08,7.6835244375,238.65
2021-06-28 16:18:07.773437500,-45.0,3.0,46.0,69.693515625,-35.515,7.68376465625,238.65
2021-06-28 16:18:07.781250000,-45.0,3.0,46.0,69.6971875,-32.95,7.684004874999999,238.65
2021-06-28 16:18:07.789062500,-45.0,3.0,46.0,69.700859375,-30.01,7.6842450937499995,238.65
2021-06-28 16:18:07.796875000,-45.0,3.0,46.0,69.70453125,-27.07,7.6844853125,238.65
2021-06-28 16:18:07.804687500,-45.0,3.0,46.0,69.708203125,-23.92,7.68472553125,238.65
2021-06-28 16:18:07.812500000,-45.0,3.0,46.0,69.71187499999999,-20.77,7.68496575,238.65
2021-06-28 16:18:07.820312500,-45.0,2.75,46.0,69.715546875,-17.58,7.68520596875,238.65
2021-06-28 16:18:07.828125000,-45.0,2.5,46.0,69.71921875,-14.39,7.6854461875,238.65
2021-06-28 16:18:07.835937500,-45.0,2.25,46.0,69.72289062499999,-11.280000000000001,7.68568640625,238.65
2021-06-28 16:18:07.843750000,-45.0,2.0,46.0,69.7265625,-8.17,7.6859266250000005,238.65
2021-06-28 16:18:07.851562500,-44.75,2.25,46.0,69.730234375,-5.24,7.68616684375,238.65
2021-06-28 16:18:07.859375000,-44.5,2.5,46.0,69.73390625,-2.31,7.6864070625,238.65
2021-06-28 16:18:07.867187500,-44.25,2.75,46.0,69.737578125,0.36499999999999977,7.68664728125,238.65
2021-06-28 16:18:07.875000000,-44.0,3.0,46.0,69.74125,3.04,7.6868875,238.65
2021-06-28 16:18:07.882812500,-44.25,3.0,46.25,69.744921875,5.41,7.68712771875,238.65
2021-06-28 16:18:07.890625000,-44.5,3.0,46.5,69.74859375,7.78,7.6873679375,238.65
2021-06-28 16:18:07.898437500,-44.75,3.0,46.75,69.75226562499999,9.81,7.6876081562500005,238.65
2021-06-28 16:18:07.906250000,-45.0,3.0,47.0,69.7559375,11.84,7.687848375,238.65
2021-06-28 16:18:07.914062500,-45.0,3.0,46.75,69.759609375,13.515,7.68808859375,238.65
2021-06-28 16:18:07.921875000,-45.0,3.0,46.5,69.76328124999999,15.19,7.6883288125,238.65
2021-06-28 16:18:07.929687500,-45.0,3.0,46.25,69.766953125,16.505,7.68856903125,238.65
2021-06-28 16:18:07.937500000,-45.0,3.0,46.0,69.770625,17.82,7.68880925,238.65
2021-06-28 16:18:07.945312500,-45.0,2.75,46.0,69.77429687499999,18.759999999999998,7.68904946875,238.65
2021-06-28 16:18:07.953125000,-45.0,2.5,46.0,69.77796875,19.7,7.6892896875000005,238.65
2021-06-28 16:18:07.960937500,-45.0,2.25,46.0,69.781640625,20.265,7.689529906250001,238.65
2021-06-28 16:18:07.968750000,-45.0,2.0,46.0,69.7853125,20.83,7.689770125000001,238.65
2021-06-28 16:18:07.976562500,-44.75,2.25,46.25,69.788984375,21.06,7.69001034375,238.65
2021-06-28 16:18:07.984375000,-44.5,2.5,46.5,69.79265625,21.29,7.6902505625,238.65
2021-06-28 16:18:07.992187500,-44.25,2.75,46.75,69.796328125,21.259999999999998,7.69049078125,238.65
2021-06-28 16:18:08.000000000,-44.0,3.0,47.0,69.8,21.23,7.690731,238.65
2021-06-28 16:18:08.007812500,-44.25,3.0,46.75,69.80296874999999,21.045,7.690410718750001,238.65
2021-06-28 16:18:08.015625000,-44.5,3.0,46.5,69.8059375,20.86,7.6900904375,238.65
2021-06-28 16:18:08.023437500,-44.75,3.0,46.25,69.80890624999999,20.655,7.689770156250001,238.65
2021-06-28 16:18:08.031250000,-45.0,3.0,46.0,69.811875,20.45,7.689449875,238.65
2021-06-28 16:18:08.039062500,-45.0,3.0,46.0,69.81484375,20.325,7.689129593750001,238.65
2021-06-28 16:18:08.046875000,-45.0,3.0,46.0,69.8178125,20.2,7.6888093125,238.65
2021-06-28 16:18:08.054687500,-45.0,3.0,46.0,69.82078125,20.165,7.6884890312500005,238.65
2021-06-28 16:18:08.062500000,-45.0,3.0,46.0,69.82375,20.13,7.68816875,238.65
2021-06-28 16:18:08.070312500,-45.0,2.75,46.0,69.82671875,20.14,7.68784846875,238.65
2021-06-28 16:18:08.078125000,-45.0,2.5,46.0,69.82968749999999,20.15,7.6875281875,238.65
2021-06-28 16:18:08.085937500,-45.0,2.25,46.0,69.83265625,20.104999999999997,7.68720790625,238.65
2021-06-28 16:18:08.093750000,-45.0,2.0,46.0,69.835625,20.06,7.686887625,238.65
2021-06-28 16:18:08.101562500,-45.0,2.25,46.0,69.83859375,19.869999999999997,7.68656734375,238.65
2021-06-28 16:18:08.109375000,-45.0,2.5,46.0,69.8415625,19.68,7.6862470625,238.65
2021-06-28 16:18:08.117187500,-45.0,2.75,46.0,69.84453125,19.305,7.68592678125,238.65
2021-06-28 16:18:08.125000000,-45.0,3.0,46.0,69.8475,18.93,7.6856065000000005,238.65
2021-06-28 16:18:08.132812500,-45.0,2.75,46.25,69.85046875,18.365000000000002,7.68528621875,238.65
2021-06-28 16:18:08.140625000,-45.0,2.5,46.5,69.8534375,17.8,7.6849659375,238.65
2021-06-28 16:18:08.148437500,-45.0,2.25,46.75,69.85640624999999,17.08,7.68464565625,238.65
2021-06-28 16:18:08.156250000,-45.0,2.0,47.0,69.859375,16.36,7.684325375,238.65
2021-06-28 16:18:08.164062500,-45.0,2.0,47.0,69.86234375,15.52,7.68400509375,238.65
2021-06-28 16:18:08.171875000,-45.0,2.0,47.0,69.8653125,14.68,7.6836848125,238.65
2021-06-28 16:18:08.179687500,-45.0,2.0,47.0,69.86828125,13.754999999999999,7.68336453125,238.65
2021-06-28 16:18:08.187500000,-45.0,2.0,47.0,69.87125,12.83,7.68304425,238.65
2021-06-28 16:18:08.195312500,-45.0,2.25,46.75,69.87421875,11.86,7.6827239687499995,238.65
2021-06-28 16:18:08.203125000,-45.0,2.5,46.5,69.8771875,10.89,7.6824036875,238.65
2021-06-28 16:18:08.210937500,-45.0,2.75,46.25,69.88015625,9.91,7.682083406249999,238.65
2021-06-28 16:18:08.218750000,-45.0,3.0,46.0,69.88312499999999,8.93,7.681763125,238.65
2021-06-28 16:18:08.226562500,-45.0,3.0,46.0,69.88609375,7.965,7.681442843749999,238.65
2021-06-28 16:18:08.234375000,-45.0,3.0,46.0,69.8890625,7.0,7.6811225625,238.65
2021-06-28 16:18:08.242187500,-45.0,3.0,46.0,69.89203125,6.045,7.680802281249999,238.65
2021-06-28 16:18:08.250000000,-45.0,3.0,46.0,69.895,5.09,7.680482,238.65
2021-06-28 16:18:08.257812500,-45.0,2.75,46.0,69.89796875,4.115,7.680482,238.65
2021-06-28 16:18:08.265625000,-45.0,2.5,46.0,69.9009375,3.14,7.680482,238.65
2021-06-28 16:18:08.273437500,-45.0,2.25,46.0,69.90390625,2.075,7.680482,238.65
2021-06-28 16:18:08.281250000,-45.0,2.0,46.0,69.906875,1.01,7.680482,238.65
2021-06-28 16:18:08.289062500,-45.0,2.0,46.0,69.90984375,-0.19500000000000006,7.680482,238.65
2021-06-28 16:18:08.296875000,-45.0,2.0,46.0,69.9128125,-1.4,7.680482,238.65
2021-06-28 16:18:08.304687500,-45.0,2.0,46.0,69.91578125,-2.75,7.680482,238.65
2021-06-28 16:18:08.312500000,-45.0,2.0,46.0,69.91875,-4.1,7.680482,238.65
2021-06-28 16:18:08.320312500,-45.0,2.0,46.25,69.92171875,-5.55,7.680482,238.65
2021-06-28 16:18:08.328125000,-45.0,2.0,46.5,69.9246875,-7.0,7.680482,238.65
2021-06-28 16:18:08.335937500,-45.0,2.0,46.75,69.92765625,-8.49,7.680482,238.65
2021-06-28 16:18:08.343750000,-45.0,2.0,47.0,69.930625,-9.98,7.680482,238.65
2021-06-28 16:18:08.351562500,-45.0,2.0,46.75,69.93359375,-11.425,7.680482,238.65
2021-06-28 16:18:08.359375000,-45.0,2.0,46.5,69.9365625,-12.87,7.680482,238.65
2021-06-28 16:18:08.367187500,-45.0,2.0,46.25,69.93953125,-14.239999999999998,7.680482,238.65
2021-06-28 16:18:08.375000000,-45.0,2.0,46.0,69.9425,-15.61,7.680482,238.65
2021-06-28 16:18:08.382812500,-45.0,2.0,46.0,69.94546875,-16.915,7.680482,238.65
2021-06-28 16:18:08.390625000,-45.0,2.0,46.0,69.9484375,-18.22,7.680482,238.65
2021-06-28 16:18:08.398437500,-45.0,2.0,46.0,69.95140625,-19.509999999999998,7.680482,238.65
2021-06-28 16:18:08.406250000,-45.0,2.0,46.0,69.954375,-20.8,7.680482,238.65
2021-06-28 16:18:08.414062500,-45.0,2.25,46.0,69.95734375,-22.14,7.680482,238.65
2021-06-28 16:18:08.421875000,-45.0,2.5,46.0,69.9603125,-23.48,7.680482,238.65
2021-06-28 16:18:08.429687500,-45.0,2.75,46.0,69.96328125,-24.925,7.680482,238.65
2021-06-28 16:18:08.437500000,-45.0,3.0,46.0,69.96625,-26.37,7.680482,238.65
2021-06-28 16:18:08.445312500,-45.0,2.75,46.0,69.96921875,-27.925,7.680482,238.65
2021-06-28 16:18:08.453125000,-45.0,2.5,46.0,69.9721875,-29.48,7.680482,238.65
2021-06-28 16:18:08.460937500,-45.0,2.25,46.0,69.97515625,-31.060000000000002,7.680482,238.65
2021-06-28 16:18:08.468750000,-45.0,2.0,46.0,69.978125,-32.64,7.680482,238.65
2021-06-28 16:18:08.476562500,-45.0,2.25,46.25,69.98109375,-34.1,7.680482,238.65
2021-06-28 16:18:08.484375000,-45.0,2.5,46.5,69.98406250000001,-35.56,7.680482,238.65
2021-06-28 16:18:08.492187500,-45.0,2.75,46.75,69.98703125,-36.68,7.680482,238.65
2021-06-28 16:18:08.500000000,-45.0,3.0,47.0,69.99000000000001,-37.8,7.680482,238.65
2021-06-28 16:18:08.507812500,-45.0,2.75,46.75,69.99296875,-38.415,7.680201781249999,238.65
2021-06-28 16:18:08.515625000,-45.0,2.5,46.5,69.9959375,-39.03,7.6799215625,238.65
2021-06-28 16:18:08.523437500,-45.0,2.25,46.25,69.99890625,-39.03,7.679641343749999,238.65
2021-06-28 16:18:08.531250000,-45.0,2.0,46.0,70.001875,-39.03,7.679361125,238.65
2021-06-28 16:18:08.539062500,-45.0,2.0,46.0,70.00484375,-38.415,7.679080906249999,238.65
2021-06-28 16:18:08.546875000,-45.0,2.0,46.0,70.0078125,-37.8,7.6788006875,238.65
2021-06-28 16:18:08.554687500,-45.0,2.0,46.0,70.01078125000001,-36.625,7.6785204687499995,238.65
2021-06-28 16:18:08.562500000,-45.0,2.0,46.0,70.01375,-35.45,7.67824025,238.65
2021-06-28 16:18:08.570312500,-45.0,2.25,46.0,70.01671875000001,-33.795,7.67796003125,238.65
2021-06-28 16:18:08.578125000,-45.0,2.5,46.0,70.0196875,-32.14,7.6776798125,238.65
2021-06-28 16:18:08.585937500,-45.0,2.75,46.0,70.02265625,-30.035,7.67739959375,238.65
2021-06-28 16:18:08.593750000,-45.0,3.0,46.0,70.025625,-27.93,7.677119375,238.65
2021-06-28 16:18:08.601562500,-45.0,2.75,46.0,70.02859375,-25.38,7.67683915625,238.65
2021-06-28 16:18:08.609375000,-45.0,2.5,46.0,70.0315625,-22.83,7.6765589375,238.65
2021-06-28 16:18:08.617187500,-45.0,2.25,46.0,70.03453125,-19.875,7.67627871875,238.65
2021-06-28 16:18:08.625000000,-45.0,2.0,46.0,70.03750000000001,-16.92,7.6759985,238.65
2021-06-28 16:18:08.632812500,-44.75,2.25,46.25,70.04046875,-13.695,7.67571828125,238.65
2021-06-28 16:18:08.640625000,-44.5,2.5,46.5,70.04343750000001,-10.47,7.6754380625,238.65
2021-06-28 16:18:08.648437500,-44.25,2.75,46.75,70.04640625,-7.1850000000000005,7.67515784375,238.65
2021-06-28 16:18:08.656250000,-44.0,3.0,47.0,70.049375,-3.9,7.674877625,238.65
2021-06-28 16:18:08.664062500,-44.25,2.75,46.75,70.05234375,-0.8450000000000002,7.67459740625,238.65
2021-06-28 16:18:08.671875000,-44.5,2.5,46.5,70.0553125,2.21,7.6743171875,238.65
2021-06-28 16:18:08.679687500,-44.75,2.25,46.25,70.05828125000001,4.79,7.67403696875,238.65
2021-06-28 16:18:08.687500000,-45.0,2.0,46.0,70.06125,7.37,7.67375675,238.65
2021-06-28 16:18:08.695312500,-45.0,2.0,46.25,70.06421875000001,9.35,7.67347653125,238.65
2021-06-28 16:18:08.703125000,-45.0,2.0,46.5,70.0671875,11.33,7.6731963125,238.65
2021-06-28 16:18:08.710937500,-45.0,2.0,46.75,70.07015625000001,12.715,7.6729160937500005,238.65
2021-06-28 16:18:08.718750000,-45.0,2.0,47.0,70.073125,14.1,7.672635875,238.65
2021-06-28 16:18:08.726562500,-45.0,2.0,46.75,70.07609375,15.01,7.672355656250001,238.65
2021-06-28 16:18:08.734375000,-45.0,2.0,46.5,70.0790625,15.92,7.6720754375,238.65
2021-06-28 16:18:08.742187500,-45.0,2.0,46.25,70.08203125,16.53,7.671795218750001,238.65
2021-06-28 16:18:08.750000000,-45.0,2.0,46.0,70.08500000000001,17.14,7.671515,238.65
2021-06-28 16:18:08.757812500,-45.0,2.25,46.0,70.08796875,17.6,7.6714349375,238.65
2021-06-28 16:18:08.765625000,-45.0,2.5,46.0,70.09093750000001,18.06,7.6713548750000005,238.65
2021-06-28 16:18:08.773437500,-45.0,2.75,46.0,70.09390625,18.505,7.6712748125,238.65
2021-06-28 16:18:08.781250000,-45.0,3.0,46.0,70.09687500000001,18.95,7.671194750000001,238.65
2021-06-28 16:18:08.789062500,-45.0,2.75,46.0,70.09984375,19.445,7.6711146875,238.65
2021-06-28 16:18:08.796875000,-45.0,2.5,46.0,70.1028125,19.94,7.671034625,238.65
2021-06-28 16:18:08.804687500,-45.0,2.25,46.0,70.10578125,20.48,7.6709545625,238.65
2021-06-28 16:18:08.812500000,-45.0,2.0,46.0,70.10875,21.02,7.6708745,238.65
2021-06-28 16:18:08.820312500,-45.0,2.0,46.25,70.11171875000001,21.564999999999998,7.670794437500001,238.65
2021-06-28 16:18:08.828125000,-45.0,2.0,46.5,70.1146875,22.11,7.670714375,238.65
2021-06-28 16:18:08.835937500,-45.0,2.0,46.75,70.11765625000001,22.575,7.6706343125,238.65
2021-06-28 16:18:08.843750000,-45.0,2.0,47.0,70.120625,23.04,7.67055425,238.65
2021-06-28 16:18:08.851562500,-45.0,2.25,47.0,70.12359375000001,23.345,7.6704741875,238.65
2021-06-28 16:18:08.859375000,-45.0,2.5,47.0,70.1265625,23.65,7.6703941250000005,238.65
2021-06-28 16:18:08.867187500,-45.0,2.75,47.0,70.12953125,23.759999999999998,7.6703140625,238.65
2021-06-28 16:18:08.875000000,-45.0,3.0,47.0,70.13250000000001,23.87,7.670234000000001,238.65
2021-06-28 16:18:08.882812500,-45.0,3.0,46.75,70.13546875,23.755000000000003,7.6701539375,238.65
2021-06-28 16:18:08.890625000,-45.0,3.0,46.5,70.13843750000001,23.64,7.670073875,238.65
2021-06-28 16:18:08.898437500,-45.0,3.0,46.25,70.14140625,23.310000000000002,7.6699938125000005,238.65
2021-06-28 16:18:08.906250000,-45.0,3.0,46.0,70.14437500000001,22.98,7.66991375,238.65
2021-06-28 16:18:08.914062500,-45.0,3.0,46.0,70.14734375,22.455,7.669833687500001,238.65
2021-06-28 16:18:08.921875000,-45.0,3.0,46.0,70.15031250000001,21.93,7.669753625,238.65
2021-06-28 16:18:08.929687500,-45.0,3.0,46.0,70.15328125,21.240000000000002,7.6696735625,238.65
2021-06-28 16:18:08.937500000,-45.0,3.0,46.0,70.15625,20.55,7.6695935,238.65
2021-06-28 16:18:08.945312500,-45.0,3.0,46.25,70.15921875000001,19.735,7.6695134375,238.65
2021-06-28 16:18:08.953125000,-45.0,3.0,46.5,70.1621875,18.92,7.6694333750000006,238.65
2021-06-28 16:18:08.960937500,-45.0,3.0,46.75,70.16515625000001,18.045,7.6693533125,238.65
2021-06-28 16:18:08.968750000,-45.0,3.0,47.0,70.168125,17.17,7.66927325,238.65
2021-06-28 16:18:08.976562500,-45.0,3.0,46.75,70.17109375000001,16.3,7.6691931875,238.65
2021-06-28 16:18:08.984375000,-45.0,3.0,46.5,70.1740625,15.43,7.669113125,238.65
2021-06-28 16:18:08.992187500,-45.0,3.0,46.25,70.17703125000001,14.620000000000001,7.6690330625000005,238.65
2021-06-28 16:18:09.000000000,-45.0,3.0,46.0,70.18,13.81,7.668953,238.65
2021-06-28 16:18:09.007812500,-45.0,3.0,46.25,70.1825,13.065000000000001,7.66867278125,238.65
2021-06-28 16:18:09.015625000,-45.0,3.0,46.5,70.185,12.32,7.6683925625,238.65
2021-06-28 16:18:09.023437500,-45.0,3.0,46.75,70.1875,11.615,7.66811234375,238.65
2021-06-28 16:18:09.031250000,-45.0,3.0,47.0,70.19000000000001,10.91,7.667832125,238.65
2021-06-28 16:18:09.039062500,-45.0,2.75,46.75,70.19250000000001,10.16,7.66755190625,238.65
2021-06-28 16:18:09.046875000,-45.0,2.5,46.5,70.19500000000001,9.41,7.6672716875,238.65
2021-06-28 16:18:09.054687500,-45.0,2.25,46.25,70.1975,8.55,7.66699146875,238.65
2021-06-28 16:18:09.062500000,-45.0,2.0,46.0,70.2,7.69,7.6667112500000005,238.65
2021-06-28 16:18:09.070312500,-45.0,2.25,46.25,70.2025,6.640000000000001,7.66643103125,238.65
2021-06-28 16:18:09.078125000,-45.0,2.5,46.5,70.20500000000001,5.59,7.6661508125,238.65
2021-06-28 16:18:09.085937500,-45.0,2.75,46.75,70.20750000000001,4.32,7.66587059375,238.65
2021-06-28 16:18:09.093750000,-45.0,3.0,47.0,70.21000000000001,3.05,7.665590375,238.65
2021-06-28 16:18:09.101562500,-44.75,2.75,46.75,70.2125,1.565,7.66531015625,238.65
2021-06-28 16:18:09.109375000,-44.5,2.5,46.5,70.215,0.08,7.6650299375,238.65
2021-06-28 16:18:09.117187500,-44.25,2.25,46.25,70.2175,-1.58,7.66474971875,238.65
2021-06-28 16:18:09.125000000,-44.0,2.0,46.0,70.22,-3.24,7.6644695,238.65
2021-06-28 16:18:09.132812500,-44.25,2.25,46.0,70.22250000000001,-5.0,7.66418928125,238.65
2021-06-28 16:18:09.140625000,-44.5,2.5,46.0,70.22500000000001,-6.76,7.6639090625,238.65
2021-06-28 16:18:09.148437500,-44.75,2.75,46.0,70.2275,-8.530000000000001,7.66362884375,238.65
2021-06-28 16:18:09.156250000,-45.0,3.0,46.0,70.23,-10.3,7.663348625,238.65
2021-06-28 16:18:09.164062500,-45.0,2.75,46.0,70.2325,-12.0,7.66306840625,238.65
2021-06-28 16:18:09.171875000,-45.0,2.5,46.0,70.235,-13.7,7.6627881875,238.65
2021-06-28 16:18:09.179687500,-45.0,2.25,46.0,70.23750000000001,-15.315,7.66250796875,238.65
2021-06-28 16:18:09.187500000,-45.0,2.0,46.0,70.24000000000001,-16.93,7.66222775,238.65
2021-06-28 16:18:09.195312500,-45.0,2.25,46.0,70.2425,-18.485,7.66194753125,238.65
2021-06-28 16:18:09.203125000,-45.0,2.5,46.0,70.245,-20.04,7.6616673125,238.65
2021-06-28 16:18:09.210937500,-45.0,2.75,46.0,70.2475,-21.56,7.66138709375,238.65
2021-06-28 16:18:09.218750000,-45.0,3.0,46.0,70.25,-23.08,7.661106875,238.65
2021-06-28 16:18:09.226562500,-44.75,3.0,46.0,70.25250000000001,-24.564999999999998,7.66082665625,238.65
2021-06-28 16:18:09.234375000,-44.5,3.0,46.0,70.25500000000001,-26.05,7.6605464375,238.65
2021-06-28 16:18:09.242187500,-44.25,3.0,46.0,70.25750000000001,-27.43,7.66026621875,238.65
2021-06-28 16:18:09.250000000,-44.0,3.0,46.0,70.26,-28.81,7.659986,238.65
2021-06-28 16:18:09.257812500,-44.25,2.75,46.25,70.2625,-29.95,7.659986,238.65
2021-06-28 16:18:09.265625000,-44.5,2.5,46.5,70.265,-31.09,7.659986,238.65
2021-06-28 16:18:09.273437500,-44.75,2.25,46.75,70.2675,-31.840000000000003,7.659986,238.65
2021-06-28 16:18:09.281250000,-45.0,2.0,47.0,70.27000000000001,-32.59,7.659986,238.65
2021-06-28 16:18:09.289062500,-45.0,2.25,47.0,70.27250000000001,-32.835,7.659986,238.65
2021-06-28 16:18:09.296875000,-45.0,2.5,47.0,70.275,-33.08,7.659986,238.65
2021-06-28 16:18:09.304687500,-45.0,2.75,47.0,70.2775,-32.745,7.659986,238.65
2021-06-28 16:18:09.312500000,-45.0,3.0,47.0,70.28,-32.41,7.659986,238.65
2021-06-28 16:18:09.320312500,-45.0,2.75,46.75,70.2825,-31.47,7.659986,238.65
2021-06-28 16:18:09.328125000,-45.0,2.5,46.5,70.28500000000001,-30.53,7.659986,238.65
2021-06-28 16:18:09.335937500,-45.0,2.25,46.25,70.28750000000001,-28.975,7.659986,238.65
2021-06-28 16:18:09.343750000,-45.0,2.0,46.0,70.29,-27.42,7.659986,238.65
2021-06-28 16:18:09.351562500,-44.75,2.25,46.0,70.2925,-25.275,7.659986,238.65
2021-06-28 16:18:09.359375000,-44.5,2.5,46.0,70.295,-23.13,7.659986,238.65
2021-06-28 16:18:09.367187500,-44.25,2.75,46.0,70.2975,-20.45,7.659986,238.65
2021-06-28 16:18:09.375000000,-44.0,3.0,46.0,70.30000000000001,-17.77,7.659986,238.65
2021-06-28 16:18:09.382812500,-44.25,3.0,46.25,70.30250000000001,-14.695,7.659986,238.65
2021-06-28 16:18:09.390625000,-44.5,3.0,46.5,70.305,-11.62,7.659986,238.65
2021-06-28 16:18:09.398437500,-44.75,3.0,46.75,70.3075,-8.379999999999999,7.659986,238.65
2021-06-28 16:18:09.406250000,-45.0,3.0,47.0,70.31,-5.14,7.659986,238.65
2021-06-28 16:18:09.414062500,-45.0,2.75,47.0,70.3125,-2.005,7.659986,238.65
2021-06-28 16:18:09.421875000,-45.0,2.5,47.0,70.315,1.13,7.659986,238.65
2021-06-28 16:18:09.429687500,-45.0,2.25,47.0,70.31750000000001,3.9,7.659986,238.65
2021-06-28 16:18:09.437500000,-45.0,2.0,47.0,70.32000000000001,6.67,7.659986,238.65
2021-06-28 16:18:09.445312500,-45.0,2.25,47.0,70.3225,8.875,7.659986,238.65
2021-06-28 16:18:09.453125000,-45.0,2.5,47.0,70.325,11.08,7.659986,238.65
2021-06-28 16:18:09.460937500,-45.0,2.75,47.0,70.3275,12.635,7.659986,238.65
2021-06-28 16:18:09.468750000,-45.0,3.0,47.0,70.33,14.19,7.659986,238.65
2021-06-28 16:18:09.476562500,-45.0,2.75,47.0,70.33250000000001,15.14,7.659986,238.65
2021-06-28 16:18:09.484375000,-45.0,2.5,47.0,70.33500000000001,16.09,7.659986,238.65
2021-06-28 16:18:09.492187500,-45.0,2.25,47.0,70.3375,16.55,7.659986,238.65
2021-06-28 16:18:09.500000000,-45.0,2.0,47.0,70.34,17.01,7.659986,238.65
2021-06-28 16:18:09.507812500,-45.0,2.25,46.75,70.3425,17.17,7.659986,238.65
2021-06-28 16:18:09.515625000,-45.0,2.5,46.5,70.345,17.33,7.659986,238.65
2021-06-28 16:18:09.523437500,-45.0,2.75,46.25,70.3475,17.375,7.659986,238.65
2021-06-28 16:18:09.531250000,-45.0,3.0,46.0,70.35000000000001,17.42,7.659986,238.65
2021-06-28 16:18:09.539062500,-45.0,3.0,46.25,70.3525,17.520000000000003,7.659986,238.65
2021-06-28 16:18:09.546875000,-45.0,3.0,46.5,70.355,17.62,7.659986,238.65
2021-06-28 16:18:09.554687500,-45.0,3.0,46.75,70.3575,17.845,7.659986,238.65
2021-06-28 16:18:09.562500000,-45.0,3.0,47.0,70.36,18.07,7.659986,238.65
2021-06-28 16:18:09.570312500,-45.0,3.0,47.0,70.3625,18.425,7.659986,238.65
2021-06-28 16:18:09.578125000,-45.0,3.0,47.0,70.36500000000001,18.78,7.659986,238.65
2021-06-28 16:18:09.585937500,-45.0,3.0,47.0,70.3675,19.175,7.659986,238.65
2021-06-28 16:18:09.593750000,-45.0,3.0,47.0,70.37,19.57,7.659986,238.65
2021-06-28 16:18:09.601562500,-45.0,3.0,46.75,70.3725,19.91,7.659986,238.65
2021-06-28 16:18:09.609375000,-45.0,3.0,46.5,70.375,20.25,7.659986,238.65
2021-06-28 16:18:09.617187500,-45.0,3.0,46.25,70.3775,20.439999999999998,7.659986,238.65
2021-06-28 16:18:09.625000000,-45.0,3.0,46.0,70.38,20.63,7.659986,238.65
2021-06-28 16:18:09.632812500,-45.0,3.0,46.0,70.38250000000001,20.615000000000002,7.659986,238.65
2021-06-28 16:18:09.640625000,-45.0,3.0,46.0,70.385,20.6,7.659986,238.65
2021-06-28 16:18:09.648437500,-45.0,3.0,46.0,70.3875,20.375,7.659986,238.65
2021-06-28 16:18:09.656250000,-45.0,3.0,46.0,70.39,20.15,7.659986,238.65
2021-06-28 16:18:09.664062500,-45.0,3.0,46.0,70.3925,19.765,7.659986,238.65
2021-06-28 16:18:09.671875000,-45.0,3.0,46.0,70.395,19.38,7.659986,238.65
2021-06-28 16:18:09.679687500,-45.0,3.0,46.0,70.39750000000001,18.895,7.659986,238.65
2021-06-28 16:18:09.687500000,-45.0,3.0,46.0,70.4,18.41,7.659986,238.65
2021-06-28 16:18:09.695312500,-44.75,3.0,46.25,70.4025,17.9,7.659986,238.65
2021-06-28 16:18:09.703125000,-44.5,3.0,46.5,70.405,17.39,7.659986,238.65
2021-06-28 16:18:09.710937500,-44.25,3.0,46.75,70.4075,16.9,7.659986,238.65
2021-06-28 16:18:09.718750000,-44.0,3.0,47.0,70.41,16.41,7.659986,238.65
2021-06-28 16:18:09.726562500,-44.25,3.0,47.0,70.41250000000001,15.93,7.659986,238.65
2021-06-28 16:18:09.734375000,-44.5,3.0,47.0,70.415,15.45,7.659986,238.65
2021-06-28 16:18:09.742187500,-44.75,3.0,47.0,70.4175,14.934999999999999,7.659986,238.65
2021-06-28 16:18:09.750000000,-45.0,3.0,47.0,70.42,14.42,7.659986,238.65
2021-06-28 16:18:09.757812500,-45.0,3.0,47.0,70.4225,13.75,7.659986,238.65
2021-06-28 16:18:09.765625000,-45.0,3.0,47.0,70.425,13.08,7.659986,238.65
2021-06-28 16:18:09.773437500,-45.0,3.0,47.0,70.4275,12.135,7.659986,238.65
2021-06-28 16:18:09.781250000,-45.0,3.0,47.0,70.43,11.19,7.659986,238.65
2021-06-28 16:18:09.789062500,-45.0,3.0,47.0,70.4325,9.899999999999999,7.659986,238.65
2021-06-28 16:18:09.796875000,-45.0,3.0,47.0,70.435,8.61,7.659986,238.65
2021-06-28 16:18:09.804687500,-45.0,3.0,47.0,70.4375,6.984999999999999,7.659986,238.65
2021-06-28 16:18:09.812500000,-45.0,3.0,47.0,70.44,5.36,7.659986,238.65
2021-06-28 16:18:09.820312500,-44.75,3.0,46.75,70.4425,3.495,7.659986,238.65
2021-06-28 16:18:09.828125000,-44.5,3.0,46.5,70.44500000000001,1.63,7.659986,238.65
2021-06-28 16:18:09.835937500,-44.25,3.0,46.25,70.4475,-0.3500000000000001,7.659986,238.65
2021-06-28 16:18:09.843750000,-44.0,3.0,46.0,70.45,-2.33,7.659986,238.65
2021-06-28 16:18:09.851562500,-44.25,3.0,46.0,70.4525,-4.305,7.659986,238.65
2021-06-28 16:18:09.859375000,-44.5,3.0,46.0,70.455,-6.28,7.659986,238.65
2021-06-28 16:18:09.867187500,-44.75,3.0,46.0,70.4575,-8.215,7.659986,238.65
2021-06-28 16:18:09.875000000,-45.0,3.0,46.0,70.46000000000001,-10.15,7.659986,238.65
2021-06-28 16:18:09.882812500,-44.75,3.0,46.25,70.4625,-12.07,7.659986,238.65
2021-06-28 16:18:09.890625000,-44.5,3.0,46.5,70.465,-13.99,7.659986,238.65
2021-06-28 16:18:09.898437500,-44.25,3.0,46.75,70.4675,-15.96,7.659986,238.65
2021-06-28 16:18:09.906250000,-44.0,3.0,47.0,70.47,-17.93,7.659986,238.65
2021-06-28 16:18:09.914062500,-44.0,2.75,47.0,70.4725,-19.990000000000002,7.659986,238.65
2021-06-28 16:18:09.921875000,-44.0,2.5,47.0,70.475,-22.05,7.659986,238.65
2021-06-28 16:18:09.929687500,-44.0,2.25,47.0,70.4775,-24.205,7.659986,238.65
2021-06-28 16:18:09.937500000,-44.0,2.0,47.0,70.48,-26.36,7.659986,238.65
2021-06-28 16:18:09.945312500,-44.25,2.25,47.0,70.4825,-28.549999999999997,7.659986,238.65
2021-06-28 16:18:09.953125000,-44.5,2.5,47.0,70.485,-30.74,7.659986,238.65
2021-06-28 16:18:09.960937500,-44.75,2.75,47.0,70.4875,-32.86,7.659986,238.65
2021-06-28 16:18:09.968750000,-45.0,3.0,47.0,70.49,-34.98,7.659986,238.65
2021-06-28 16:18:09.976562500,-45.0,3.0,47.0,70.4925,-36.875,7.659986,238.65
2021-06-28 16:18:09.984375000,-45.0,3.0,47.0,70.495,-38.77,7.659986,238.65
2021-06-28 16:18:09.992187500,-45.0,3.0,47.0,70.4975,-40.245000000000005,7.659986,238.65
2021-06-28 16:18:10.000000000,-45.0,3.0,47.0,70.5,-41.72,7.659986,238.65
2021-06-28 16:18:10.007812500,-45.0,3.0,47.0,70.502734375,-42.585,7.65986590625,238.65
