TimeStamp,empatica.acc.x,empatica.acc.y,empatica.acc.z,empatica.hr,empatica.bvp,empatica.eda,empatica.temp
2021-06-28 16:30:47.359375000,-64.0,2.5,12.5,80.83140625,19.53,14.997104375000001,238.65
2021-06-28 16:30:47.367187500,-64.0,2.75,12.25,80.828828125,18.795,14.9962636875,238.65
2021-06-28 16:30:47.375000000,-64.0,3.0,12.0,80.82625,18.06,14.995423,238.65
2021-06-28 16:30:47.382812500,-64.0,2.75,12.25,80.823671875,17.455,14.9945823125,238.65
2021-06-28 16:30:47.390625000,-64.0,2.5,12.5,80.82109375,16.85,14.993741625,238.65
2021-06-28 16:30:47.398437500,-64.0,2.25,12.75,80.818515625,16.355,14.9929009375,238.65
2021-06-28 16:30:47.406250000,-64.0,2.0,13.0,80.8159375,15.86,14.992060250000002,238.65
2021-06-28 16:30:47.414062500,-64.0,2.25,12.75,80.813359375,15.399999999999999,14.991219562500001,238.65
2021-06-28 16:30:47.421875000,-64.0,2.5,12.5,80.81078125,14.94,14.990378875000001,238.65
2021-06-28 16:30:47.429687500,-64.0,2.75,12.25,80.808203125,14.42,14.9895381875,238.65
2021-06-28 16:30:47.437500000,-64.0,3.0,12.0,80.805625,13.9,14.9886975,238.65
2021-06-28 16:30:47.445312500,-64.0,2.75,12.25,80.803046875,13.275,14.9878568125,238.65
2021-06-28 16:30:47.453125000,-64.0,2.5,12.5,80.80046875000001,12.65,14.987016125,238.65
2021-06-28 16:30:47.460937500,-64.0,2.25,12.75,80.79789062500001,11.9,14.9861754375,238.65
2021-06-28 16:30:47.468750000,-64.0,2.0,13.0,80.79531250000001,11.15,14.98533475,238.65
2021-06-28 16:30:47.476562500,-64.0,2.25,13.0,80.79273437500001,10.285,14.984494062500001,238.65
2021-06-28 16:30:47.484375000,-64.0,2.5,13.0,80.79015625000001,9.42,14.983653375000001,238.65
2021-06-28 16:30:47.492187500,-64.0,2.75,13.0,80.78757812500001,8.44,14.982812687500001,238.65
2021-06-28 16:30:47.500000000,-64.0,3.0,13.0,80.785,7.46,14.981972,238.65
2021-06-28 16:30:47.507812500,-64.0,2.75,13.0,80.782421875,6.35,14.98229225,238.65
2021-06-28 16:30:47.515625000,-64.0,2.5,13.0,80.77984375,5.24,14.9826125,238.65
2021-06-28 16:30:47.523437500,-64.0,2.25,13.0,80.777265625,3.9850000000000003,14.98293275,238.65
2021-06-28 16:30:47.531250000,-64.0,2.0,13.0,80.7746875,2.73,14.983253000000001,238.65
2021-06-28 16:30:47.539062500,-64.0,2.0,13.0,80.772109375,1.34,14.983573250000001,238.65
2021-06-28 16:30:47.546875000,-64.0,2.0,13.0,80.76953125,-0.05,14.9838935,238.65
2021-06-28 16:30:47.554687500,-64.0,2.0,13.0,80.766953125,-1.5050000000000001,14.98421375,238.65
2021-06-28 16:30:47.562500000,-64.0,2.0,13.0,80.764375,-2.96,14.984534,238.65
2021-06-28 16:30:47.570312500,-64.0,2.0,12.75,80.761796875,-4.395,14.98485425,238.65
2021-06-28 16:30:47.578125000,-64.0,2.0,12.5,80.75921875,-5.83,14.985174500000001,238.65
2021-06-28 16:30:47.585937500,-64.0,2.0,12.25,80.756640625,-7.155,14.98549475,238.65
2021-06-28 16:30:47.593750000,-64.0,2.0,12.0,80.7540625,-8.48,14.985815,238.65
2021-06-28 16:30:47.601562500,-64.0,2.0,12.0,80.751484375,-9.675,14.98613525,238.65
2021-06-28 16:30:47.609375000,-64.0,2.0,12.0,80.74890625,-10.87,14.9864555,238.65
2021-06-28 16:30:47.617187500,-64.0,2.0,12.0,80.746328125,-12.004999999999999,14.98677575,238.65
2021-06-28 16:30:47.625000000,-64.0,2.0,12.0,80.74375,-13.14,14.987096000000001,238.65
2021-06-28 16:30:47.632812500,-64.0,2.0,12.0,80.741171875,-14.345,14.98741625,238.65
2021-06-28 16:30:47.640625000,-64.0,2.0,12.0,80.73859375,-15.55,14.9877365,238.65
2021-06-28 16:30:47.648437500,-64.0,2.0,12.0,80.73601562500001,-16.945,14.98805675,238.65
2021-06-28 16:30:47.656250000,-64.0,2.0,12.0,80.73343750000001,-18.34,14.988377,238.65
2021-06-28 16:30:47.664062500,-64.0,2.0,12.25,80.73085937500001,-19.97,14.98869725,238.65
2021-06-28 16:30:47.671875000,-64.0,2.0,12.5,80.72828125000001,-21.6,14.9890175,238.65
2021-06-28 16:30:47.679687500,-64.0,2.0,12.75,80.72570312500001,-23.375,14.98933775,238.65
2021-06-28 16:30:47.687500000,-64.0,2.0,13.0,80.72312500000001,-25.15,14.989658,238.65
2021-06-28 16:30:47.695312500,-64.0,2.0,12.75,80.72054687500001,-26.85,14.98997825,238.65
2021-06-28 16:30:47.703125000,-64.0,2.0,12.5,80.71796875,-28.55,14.9902985,238.65
2021-06-28 16:30:47.710937500,-64.0,2.0,12.25,80.715390625,-29.880000000000003,14.99061875,238.65
2021-06-28 16:30:47.718750000,-64.0,2.0,12.0,80.7128125,-31.21,14.990939,238.65
2021-06-28 16:30:47.726562500,-64.25,2.0,12.0,80.710234375,-31.88,14.99125925,238.65
2021-06-28 16:30:47.734375000,-64.5,2.0,12.0,80.70765625,-32.55,14.9915795,238.65
2021-06-28 16:30:47.742187500,-64.75,2.0,12.0,80.705078125,-32.33,14.99189975,238.65
2021-06-28 16:30:47.750000000,-65.0,2.0,12.0,80.7025,-32.11,14.99222,238.65
2021-06-28 16:30:47.757812500,-64.75,2.0,12.25,80.699921875,-30.935000000000002,14.9924201875,238.65
2021-06-28 16:30:47.765625000,-64.5,2.0,12.5,80.69734375,-29.76,14.992620375,238.65
2021-06-28 16:30:47.773437500,-64.25,2.0,12.75,80.694765625,-27.700000000000003,14.9928205625,238.65
2021-06-28 16:30:47.781250000,-64.0,2.0,13.0,80.6921875,-25.64,14.99302075,238.65
2021-06-28 16:30:47.789062500,-64.0,2.0,12.75,80.689609375,-22.925,14.9932209375,238.65
2021-06-28 16:30:47.796875000,-64.0,2.0,12.5,80.68703125,-20.21,14.993421125,238.65
2021-06-28 16:30:47.804687500,-64.0,2.0,12.25,80.684453125,-17.1,14.9936213125,238.65
2021-06-28 16:30:47.812500000,-64.0,2.0,12.0,80.681875,-13.99,14.9938215,238.65
2021-06-28 16:30:47.820312500,-64.0,2.0,12.25,80.679296875,-10.76,14.9940216875,238.65
2021-06-28 16:30:47.828125000,-64.0,2.0,12.5,80.67671875,-7.53,14.994221875,238.65
2021-06-28 16:30:47.835937500,-64.0,2.0,12.75,80.674140625,-4.37,14.9944220625,238.65
2021-06-28 16:30:47.843750000,-64.0,2.0,13.0,80.67156250000001,-1.21,14.994622249999999,238.65
2021-06-28 16:30:47.851562500,-64.0,2.0,13.0,80.66898437500001,1.7349999999999999,14.9948224375,238.65
2021-06-28 16:30:47.859375000,-64.0,2.0,13.0,80.66640625000001,4.68,14.995022624999999,238.65
2021-06-28 16:30:47.867187500,-64.0,2.0,13.0,80.66382812500001,7.32,14.9952228125,238.65
2021-06-28 16:30:47.875000000,-64.0,2.0,13.0,80.66125000000001,9.96,14.995422999999999,238.65
2021-06-28 16:30:47.882812500,-64.0,2.0,13.0,80.65867187500001,12.2,14.9956231875,238.65
2021-06-28 16:30:47.890625000,-64.0,2.0,13.0,80.65609375000001,14.44,14.995823375,238.65
2021-06-28 16:30:47.898437500,-64.0,2.0,13.0,80.65351562500001,16.14,14.9960235625,238.65
2021-06-28 16:30:47.906250000,-64.0,2.0,13.0,80.6509375,17.84,14.99622375,238.65
2021-06-28 16:30:47.914062500,-64.0,2.0,13.0,80.648359375,18.884999999999998,14.9964239375,238.65
2021-06-28 16:30:47.921875000,-64.0,2.0,13.0,80.64578125,19.93,14.996624125,238.65
2021-06-28 16:30:47.929687500,-64.0,2.0,13.0,80.643203125,20.285,14.9968243125,238.65
2021-06-28 16:30:47.937500000,-64.0,2.0,13.0,80.640625,20.64,14.9970245,238.65
2021-06-28 16:30:47.945312500,-64.0,2.0,12.75,80.638046875,20.42,14.9972246875,238.65
2021-06-28 16:30:47.953125000,-64.0,2.0,12.5,80.63546875,20.2,14.997424875,238.65
2021-06-28 16:30:47.960937500,-64.0,2.0,12.25,80.632890625,19.64,14.9976250625,238.65
2021-06-28 16:30:47.968750000,-64.0,2.0,12.0,80.6303125,19.08,14.99782525,238.65
2021-06-28 16:30:47.976562500,-64.0,2.0,12.25,80.627734375,18.485,14.998025437499999,238.65
2021-06-28 16:30:47.984375000,-64.0,2.0,12.5,80.62515625,17.89,14.998225625,238.65
2021-06-28 16:30:47.992187500,-64.0,2.0,12.75,80.622578125,17.505000000000003,14.998425812499999,238.65
2021-06-28 16:30:48.000000000,-64.0,2.0,13.0,80.62,17.12,14.998626,238.65
2021-06-28 16:30:48.007812500,-64.0,2.0,13.0,80.61695312500001,17.020000000000003,14.998465874999999,238.65
2021-06-28 16:30:48.015625000,-64.0,2.0,13.0,80.61390625,16.92,14.99830575,238.65
2021-06-28 16:30:48.023437500,-64.0,2.0,13.0,80.610859375,17.005000000000003,14.998145625,238.65
2021-06-28 16:30:48.031250000,-64.0,2.0,13.0,80.60781250000001,17.09,14.9979855,238.65
2021-06-28 16:30:48.039062500,-64.0,2.0,12.75,80.604765625,17.155,14.997825375,238.65
2021-06-28 16:30:48.046875000,-64.0,2.0,12.5,80.60171875,17.22,14.997665249999999,238.65
2021-06-28 16:30:48.054687500,-64.0,2.0,12.25,80.59867187500001,17.09,14.997505125,238.65
2021-06-28 16:30:48.062500000,-64.0,2.0,12.0,80.595625,16.96,14.997345,238.65
2021-06-28 16:30:48.070312500,-64.0,2.0,12.25,80.592578125,16.560000000000002,14.997184875,238.65
2021-06-28 16:30:48.078125000,-64.0,2.0,12.5,80.58953125000001,16.16,14.99702475,238.65
2021-06-28 16:30:48.085937500,-64.0,2.0,12.75,80.586484375,15.55,14.996864624999999,238.65
2021-06-28 16:30:48.093750000,-64.0,2.0,13.0,80.5834375,14.94,14.9967045,238.65
2021-06-28 16:30:48.101562500,-64.0,2.0,13.0,80.580390625,14.26,14.996544375,238.65
2021-06-28 16:30:48.109375000,-64.0,2.0,13.0,80.57734375000001,13.58,14.99638425,238.65
2021-06-28 16:30:48.117187500,-64.0,2.0,13.0,80.574296875,12.945,14.996224125,238.65
2021-06-28 16:30:48.125000000,-64.0,2.0,13.0,80.57125,12.31,14.996064,238.65
2021-06-28 16:30:48.132812500,-64.0,2.0,13.0,80.56820312500001,11.760000000000002,14.995903875,238.65
2021-06-28 16:30:48.140625000,-64.0,2.0,13.0,80.56515625,11.21,14.995743749999999,238.65
2021-06-28 16:30:48.148437500,-64.0,2.0,13.0,80.562109375,10.685,14.995583625,238.65
2021-06-28 16:30:48.156250000,-64.0,2.0,13.0,80.55906250000001,10.16,14.9954235,238.65
2021-06-28 16:30:48.164062500,-64.0,2.0,13.0,80.556015625,9.59,14.995263375,238.65
2021-06-28 16:30:48.171875000,-64.0,2.0,13.0,80.55296875,9.02,14.99510325,238.65
2021-06-28 16:30:48.179687500,-64.0,2.0,13.0,80.54992187500001,8.35,14.994943124999999,238.65
2021-06-28 16:30:48.187500000,-64.0,2.0,13.0,80.546875,7.68,14.994783,238.65
2021-06-28 16:30:48.195312500,-64.0,2.0,12.75,80.543828125,6.904999999999999,14.994622875,238.65
2021-06-28 16:30:48.203125000,-64.0,2.0,12.5,80.54078125000001,6.13,14.99446275,238.65
2021-06-28 16:30:48.210937500,-64.0,2.0,12.25,80.537734375,5.3100000000000005,14.994302625,238.65
2021-06-28 16:30:48.218750000,-64.0,2.0,12.0,80.5346875,4.49,14.994142499999999,238.65
2021-06-28 16:30:48.226562500,-64.0,2.0,12.25,80.53164062500001,3.6900000000000004,14.993982375,238.65
2021-06-28 16:30:48.234375000,-64.0,2.0,12.5,80.52859375,2.89,14.99382225,238.65
2021-06-28 16:30:48.242187500,-64.0,2.0,12.75,80.525546875,2.17,14.993662125,238.65
2021-06-28 16:30:48.250000000,-64.0,2.0,13.0,80.52250000000001,1.45,14.993502,238.65
2021-06-28 16:30:48.257812500,-64.0,2.0,12.75,80.519453125,0.8049999999999999,14.993341874999999,238.65
2021-06-28 16:30:48.265625000,-64.0,2.0,12.5,80.51640625,0.16,14.99318175,238.65
2021-06-28 16:30:48.273437500,-64.0,2.0,12.25,80.51335937500001,-0.475,14.993021624999999,238.65
2021-06-28 16:30:48.281250000,-64.0,2.0,12.0,80.5103125,-1.11,14.9928615,238.65
2021-06-28 16:30:48.289062500,-64.25,2.0,12.0,80.507265625,-1.835,14.992701375,238.65
2021-06-28 16:30:48.296875000,-64.5,2.0,12.0,80.50421875,-2.56,14.99254125,238.65
2021-06-28 16:30:48.304687500,-64.75,2.0,12.0,80.50117187500001,-3.465,14.992381125,238.65
2021-06-28 16:30:48.312500000,-65.0,2.0,12.0,80.498125,-4.37,14.992221,238.65
2021-06-28 16:30:48.320312500,-64.5,2.0,12.25,80.495078125,-5.5,14.992060875,238.65
2021-06-28 16:30:48.328125000,-64.0,2.0,12.5,80.49203125000001,-6.63,14.99190075,238.65
2021-06-28 16:30:48.335937500,-63.5,2.0,12.75,80.488984375,-7.959999999999999,14.991740625,238.65
2021-06-28 16:30:48.343750000,-63.0,2.0,13.0,80.4859375,-9.29,14.9915805,238.65
2021-06-28 16:30:48.351562500,-63.5,2.0,12.75,80.48289062500001,-10.71,14.991420375,238.65
2021-06-28 16:30:48.359375000,-64.0,2.0,12.5,80.47984375,-12.13,14.99126025,238.65
2021-06-28 16:30:48.367187500,-64.5,2.0,12.25,80.476796875,-13.495000000000001,14.991100125,238.65
2021-06-28 16:30:48.375000000,-65.0,2.0,12.0,80.47375000000001,-14.86,14.99094,238.65
2021-06-28 16:30:48.382812500,-64.75,2.0,12.0,80.470703125,-16.03,14.990779875,238.65
2021-06-28 16:30:48.390625000,-64.5,2.0,12.0,80.46765625,-17.2,14.99061975,238.65
2021-06-28 16:30:48.398437500,-64.25,2.0,12.0,80.46460937500001,-18.14,14.990459625,238.65
2021-06-28 16:30:48.406250000,-64.0,2.0,12.0,80.4615625,-19.08,14.9902995,238.65
2021-06-28 16:30:48.414062500,-64.0,2.0,12.25,80.458515625,-19.825,14.990139375,238.65
2021-06-28 16:30:48.421875000,-64.0,2.0,12.5,80.45546875000001,-20.57,14.989979250000001,238.65
2021-06-28 16:30:48.429687500,-64.0,2.0,12.75,80.452421875,-21.265,14.989819125,238.65
2021-06-28 16:30:48.437500000,-64.0,2.0,13.0,80.449375,-21.96,14.989659,238.65
2021-06-28 16:30:48.445312500,-64.0,2.0,12.75,80.44632812500001,-22.775,14.989498875,238.65
2021-06-28 16:30:48.453125000,-64.0,2.0,12.5,80.44328125,-23.59,14.98933875,238.65
2021-06-28 16:30:48.460937500,-64.0,2.0,12.25,80.440234375,-24.675,14.989178625000001,238.65
2021-06-28 16:30:48.468750000,-64.0,2.0,12.0,80.43718750000001,-25.76,14.9890185,238.65
2021-06-28 16:30:48.476562500,-64.0,2.0,12.0,80.434140625,-27.200000000000003,14.988858375000001,238.65
2021-06-28 16:30:48.484375000,-64.0,2.0,12.0,80.43109375,-28.64,14.98869825,238.65
2021-06-28 16:30:48.492187500,-64.0,2.0,12.0,80.428046875,-30.42,14.988538125000002,238.65
2021-06-28 16:30:48.500000000,-64.0,2.0,12.0,80.42500000000001,-32.2,14.988378,238.65
2021-06-28 16:30:48.507812500,-64.0,2.0,12.0,80.421953125,-34.2,14.988538125000002,238.65
2021-06-28 16:30:48.515625000,-64.0,2.0,12.0,80.41890625,-36.2,14.98869825,238.65
2021-06-28 16:30:48.523437500,-64.0,2.0,12.0,80.41585937500001,-38.17,14.988858375000001,238.65
2021-06-28 16:30:48.531250000,-64.0,2.0,12.0,80.4128125,-40.14,14.9890185,238.65
2021-06-28 16:30:48.539062500,-64.0,2.0,12.25,80.409765625,-41.760000000000005,14.989178625000001,238.65
2021-06-28 16:30:48.546875000,-64.0,2.0,12.5,80.40671875000001,-43.38,14.98933875,238.65
2021-06-28 16:30:48.554687500,-64.0,2.0,12.75,80.403671875,-44.28,14.989498875,238.65
2021-06-28 16:30:48.562500000,-64.0,2.0,13.0,80.400625,-45.18,14.989659,238.65
2021-06-28 16:30:48.570312500,-64.0,2.0,13.0,80.39757812500001,-45.085,14.989819125,238.65
2021-06-28 16:30:48.578125000,-64.0,2.0,13.0,80.39453125,-44.99,14.989979250000001,238.65
2021-06-28 16:30:48.585937500,-64.0,2.0,13.0,80.391484375,-43.760000000000005,14.990139375,238.65
2021-06-28 16:30:48.593750000,-64.0,2.0,13.0,80.38843750000001,-42.53,14.9902995,238.65
2021-06-28 16:30:48.601562500,-64.0,2.0,13.0,80.385390625,-40.269999999999996,14.990459625,238.65
2021-06-28 16:30:48.609375000,-64.0,2.0,13.0,80.38234375,-38.01,14.99061975,238.65
2021-06-28 16:30:48.617187500,-64.0,2.0,13.0,80.37929687500001,-34.995,14.990779875,238.65
2021-06-28 16:30:48.625000000,-64.0,2.0,13.0,80.37625,-31.98,14.99094,238.65
2021-06-28 16:30:48.632812500,-64.0,2.0,13.0,80.373203125,-28.575000000000003,14.991100125,238.65
2021-06-28 16:30:48.640625000,-64.0,2.0,13.0,80.37015625000001,-25.17,14.99126025,238.65
2021-06-28 16:30:48.648437500,-64.0,2.0,13.0,80.367109375,-21.68,14.991420375,238.65
2021-06-28 16:30:48.656250000,-64.0,2.0,13.0,80.3640625,-18.19,14.9915805,238.65
2021-06-28 16:30:48.664062500,-64.0,2.0,13.0,80.36101562500001,-14.785,14.991740625,238.65
2021-06-28 16:30:48.671875000,-64.0,2.0,13.0,80.35796875,-11.38,14.99190075,238.65
2021-06-28 16:30:48.679687500,-64.0,2.0,13.0,80.354921875,-8.095,14.992060875,238.65
2021-06-28 16:30:48.687500000,-64.0,2.0,13.0,80.351875,-4.81,14.992221,238.65
2021-06-28 16:30:48.695312500,-64.25,2.0,12.75,80.348828125,-1.6099999999999999,14.992381125,238.65
2021-06-28 16:30:48.703125000,-64.5,2.0,12.5,80.34578125,1.59,14.99254125,238.65
2021-06-28 16:30:48.710937500,-64.75,2.0,12.25,80.342734375,4.695,14.992701375,238.65
2021-06-28 16:30:48.718750000,-65.0,2.0,12.0,80.33968750000001,7.8,14.9928615,238.65
2021-06-28 16:30:48.726562500,-64.5,2.0,12.25,80.336640625,10.75,14.993021624999999,238.65
2021-06-28 16:30:48.734375000,-64.0,2.0,12.5,80.33359375,13.7,14.99318175,238.65
2021-06-28 16:30:48.742187500,-63.5,2.0,12.75,80.33054687500001,16.325,14.993341874999999,238.65
2021-06-28 16:30:48.750000000,-63.0,2.0,13.0,80.3275,18.95,14.993502,238.65
2021-06-28 16:30:48.757812500,-62.75,2.0,13.25,80.324453125,21.105,14.9934619375,238.65
2021-06-28 16:30:48.765625000,-62.5,2.0,13.5,80.32140625000001,23.26,14.993421875,238.65
2021-06-28 16:30:48.773437500,-62.25,2.0,13.75,80.318359375,24.82,14.9933818125,238.65
2021-06-28 16:30:48.781250000,-62.0,2.0,14.0,80.3153125,26.38,14.993341749999999,238.65
2021-06-28 16:30:48.789062500,-62.5,2.0,13.75,80.31226562500001,27.314999999999998,14.993301687499999,238.65
2021-06-28 16:30:48.796875000,-63.0,2.0,13.5,80.30921875,28.25,14.993261624999999,238.65
2021-06-28 16:30:48.804687500,-63.5,2.0,13.25,80.306171875,28.625,14.993221562499999,238.65
2021-06-28 16:30:48.812500000,-64.0,2.0,13.0,80.30312500000001,29.0,14.993181499999999,238.65
2021-06-28 16:30:48.820312500,-64.0,2.0,12.75,80.300078125,28.945,14.9931414375,238.65
2021-06-28 16:30:48.828125000,-64.0,2.0,12.5,80.29703125,28.89,14.993101375,238.65
2021-06-28 16:30:48.835937500,-64.0,2.0,12.25,80.29398437500001,28.564999999999998,14.9930613125,238.65
2021-06-28 16:30:48.843750000,-64.0,2.0,12.0,80.2909375,28.24,14.99302125,238.65
2021-06-28 16:30:48.851562500,-64.0,2.0,12.0,80.287890625,27.814999999999998,14.9929811875,238.65
2021-06-28 16:30:48.859375000,-64.0,2.0,12.0,80.28484375000001,27.39,14.992941125,238.65
2021-06-28 16:30:48.867187500,-64.0,2.0,12.0,80.281796875,27.02,14.9929010625,238.65
2021-06-28 16:30:48.875000000,-64.0,2.0,12.0,80.27875,26.65,14.992861,238.65
2021-06-28 16:30:48.882812500,-64.0,2.0,12.0,80.275703125,26.415,14.9928209375,238.65
2021-06-28 16:30:48.890625000,-64.0,2.0,12.0,80.27265625,26.18,14.992780875,238.65
2021-06-28 16:30:48.898437500,-64.0,2.0,12.0,80.269609375,26.095,14.9927408125,238.65
2021-06-28 16:30:48.906250000,-64.0,2.0,12.0,80.2665625,26.01,14.99270075,238.65
2021-06-28 16:30:48.914062500,-64.0,2.0,12.25,80.26351562500001,26.025,14.992660687499999,238.65
2021-06-28 16:30:48.921875000,-64.0,2.0,12.5,80.26046875,26.04,14.992620624999999,238.65
2021-06-28 16:30:48.929687500,-64.0,2.0,12.75,80.257421875,26.06,14.992580562499999,238.65
2021-06-28 16:30:48.937500000,-64.0,2.0,13.0,80.25437500000001,26.08,14.9925405,238.65
2021-06-28 16:30:48.945312500,-64.0,2.0,12.75,80.251328125,26.015,14.9925004375,238.65
2021-06-28 16:30:48.953125000,-64.0,2.0,12.5,80.24828125,25.95,14.992460375,238.65
2021-06-28 16:30:48.960937500,-64.0,2.0,12.25,80.24523437500001,25.75,14.9924203125,238.65
2021-06-28 16:30:48.968750000,-64.0,2.0,12.0,80.2421875,25.55,14.99238025,238.65
2021-06-28 16:30:48.976562500,-64.0,2.0,12.0,80.239140625,25.185000000000002,14.9923401875,238.65
2021-06-28 16:30:48.984375000,-64.0,2.0,12.0,80.23609375000001,24.82,14.992300125,238.65
2021-06-28 16:30:48.992187500,-64.0,2.0,12.0,80.233046875,24.27,14.9922600625,238.65
2021-06-28 16:30:49.000000000,-64.0,2.0,12.0,80.23,23.72,14.99222,238.65
2021-06-28 16:30:49.007812500,-64.0,2.0,12.0,80.227265625,22.95,14.992099937499999,238.65
2021-06-28 16:30:49.015625000,-64.0,2.0,12.0,80.22453125,22.18,14.991979875,238.65
2021-06-28 16:30:49.023437500,-64.0,2.0,12.0,80.22179687500001,21.145,14.9918598125,238.65
2021-06-28 16:30:49.031250000,-64.0,2.0,12.0,80.2190625,20.11,14.99173975,238.65
2021-06-28 16:30:49.039062500,-64.0,2.0,12.25,80.216328125,18.79,14.9916196875,238.65
2021-06-28 16:30:49.046875000,-64.0,2.0,12.5,80.21359375,17.47,14.991499625,238.65
2021-06-28 16:30:49.054687500,-64.0,2.0,12.75,80.210859375,15.93,14.9913795625,238.65
2021-06-28 16:30:49.062500000,-64.0,2.0,13.0,80.20812500000001,14.39,14.9912595,238.65
2021-06-28 16:30:49.070312500,-64.0,2.0,12.75,80.205390625,12.754999999999999,14.9911394375,238.65
2021-06-28 16:30:49.078125000,-64.0,2.0,12.5,80.20265625,11.12,14.991019375,238.65
2021-06-28 16:30:49.085937500,-64.0,2.0,12.25,80.199921875,9.555,14.9908993125,238.65
2021-06-28 16:30:49.093750000,-64.0,2.0,12.0,80.1971875,7.99,14.99077925,238.65
2021-06-28 16:30:49.101562500,-64.0,2.0,12.0,80.19445312500001,6.62,14.9906591875,238.65
2021-06-28 16:30:49.109375000,-64.0,2.0,12.0,80.19171875,5.25,14.990539125,238.65
2021-06-28 16:30:49.117187500,-64.0,2.0,12.0,80.188984375,4.09,14.990419062500001,238.65
2021-06-28 16:30:49.125000000,-64.0,2.0,12.0,80.18625,2.93,14.990299,238.65
2021-06-28 16:30:49.132812500,-64.0,2.0,12.25,80.183515625,1.885,14.9901789375,238.65
2021-06-28 16:30:49.140625000,-64.0,2.0,12.5,80.18078125000001,0.84,14.990058875,238.65
2021-06-28 16:30:49.148437500,-64.0,2.0,12.75,80.178046875,-0.2400000000000001,14.9899388125,238.65
2021-06-28 16:30:49.156250000,-64.0,2.0,13.0,80.1753125,-1.32,14.989818750000001,238.65
2021-06-28 16:30:49.164062500,-64.5,2.0,12.5,80.172578125,-2.535,14.9896986875,238.65
2021-06-28 16:30:49.171875000,-65.0,2.0,12.0,80.16984375,-3.75,14.989578625,238.65
2021-06-28 16:30:49.179687500,-65.5,2.0,11.5,80.167109375,-5.115,14.989458562500001,238.65
2021-06-28 16:30:49.187500000,-66.0,2.0,11.0,80.164375,-6.48,14.9893385,238.65
2021-06-28 16:30:49.195312500,-65.25,2.0,11.5,80.161640625,-7.9,14.9892184375,238.65
2021-06-28 16:30:49.203125000,-64.5,2.0,12.0,80.15890625,-9.32,14.989098375000001,238.65
2021-06-28 16:30:49.210937500,-63.75,2.0,12.5,80.156171875,-10.675,14.9889783125,238.65
2021-06-28 16:30:49.218750000,-63.0,2.0,13.0,80.1534375,-12.03,14.98885825,238.65
2021-06-28 16:30:49.226562500,-63.25,2.0,13.0,80.150703125,-13.23,14.988738187500001,238.65
2021-06-28 16:30:49.234375000,-63.5,2.0,13.0,80.14796875,-14.43,14.988618125,238.65
2021-06-28 16:30:49.242187500,-63.75,2.0,13.0,80.145234375,-15.48,14.988498062500001,238.65
2021-06-28 16:30:49.250000000,-64.0,2.0,13.0,80.1425,-16.53,14.988378,238.65
2021-06-28 16:30:49.257812500,-64.25,2.0,12.75,80.139765625,-17.520000000000003,14.987657406250001,238.65
2021-06-28 16:30:49.265625000,-64.5,2.0,12.5,80.13703125,-18.51,14.986936812500002,238.65
2021-06-28 16:30:49.273437500,-64.75,2.0,12.25,80.134296875,-19.555,14.98621621875,238.65
2021-06-28 16:30:49.281250000,-65.0,2.0,12.0,80.1315625,-20.6,14.985495625,238.65
2021-06-28 16:30:49.289062500,-64.75,2.0,12.0,80.128828125,-21.8,14.98477503125,238.65
2021-06-28 16:30:49.296875000,-64.5,2.0,12.0,80.12609375,-23.0,14.984054437500001,238.65
2021-06-28 16:30:49.304687500,-64.25,2.0,12.0,80.123359375,-24.439999999999998,14.98333384375,238.65
2021-06-28 16:30:49.312500000,-64.0,2.0,12.0,80.120625,-25.88,14.98261325,238.65
2021-06-28 16:30:49.320312500,-64.0,2.0,12.25,80.117890625,-27.585,14.98189265625,238.65
2021-06-28 16:30:49.328125000,-64.0,2.0,12.5,80.11515625,-29.29,14.9811720625,238.65
2021-06-28 16:30:49.335937500,-64.0,2.0,12.75,80.112421875,-31.23,14.980451468750001,238.65
2021-06-28 16:30:49.343750000,-64.0,2.0,13.0,80.1096875,-33.17,14.979730875,238.65
2021-06-28 16:30:49.351562500,-64.0,2.0,13.0,80.106953125,-35.24,14.97901028125,238.65
2021-06-28 16:30:49.359375000,-64.0,2.0,13.0,80.10421875,-37.31,14.9782896875,238.65
2021-06-28 16:30:49.367187500,-64.0,2.0,13.0,80.101484375,-39.285,14.97756909375,238.65
2021-06-28 16:30:49.375000000,-64.0,2.0,13.0,80.09875,-41.26,14.9768485,238.65
2021-06-28 16:30:49.382812500,-64.0,2.0,12.75,80.096015625,-42.825,14.97612790625,238.65
2021-06-28 16:30:49.390625000,-64.0,2.0,12.5,80.09328125,-44.39,14.9754073125,238.65
2021-06-28 16:30:49.398437500,-64.0,2.0,12.25,80.090546875,-45.185,14.97468671875,238.65
2021-06-28 16:30:49.406250000,-64.0,2.0,12.0,80.0878125,-45.98,14.973966125,238.65
2021-06-28 16:30:49.414062500,-64.0,2.0,12.0,80.085078125,-45.739999999999995,14.973245531249999,238.65
2021-06-28 16:30:49.421875000,-64.0,2.0,12.0,80.08234375,-45.5,14.9725249375,238.65
2021-06-28 16:30:49.429687500,-64.0,2.0,12.0,80.079609375,-44.129999999999995,14.97180434375,238.65
2021-06-28 16:30:49.437500000,-64.0,2.0,12.0,80.076875,-42.76,14.97108375,238.65
2021-06-28 16:30:49.445312500,-64.0,2.0,12.25,80.074140625,-40.394999999999996,14.97036315625,238.65
2021-06-28 16:30:49.453125000,-64.0,2.0,12.5,80.07140625,-38.03,14.969642562499999,238.65
2021-06-28 16:30:49.460937500,-64.0,2.0,12.75,80.068671875,-34.95,14.96892196875,238.65
2021-06-28 16:30:49.468750000,-64.0,2.0,13.0,80.0659375,-31.87,14.968201375,238.65
2021-06-28 16:30:49.476562500,-64.0,2.0,12.75,80.063203125,-28.415,14.96748078125,238.65
2021-06-28 16:30:49.484375000,-64.0,2.0,12.5,80.06046875,-24.96,14.966760187499998,238.65
2021-06-28 16:30:49.492187500,-64.0,2.0,12.25,80.057734375,-21.380000000000003,14.966039593749999,238.65
2021-06-28 16:30:49.500000000,-64.0,2.0,12.0,80.055,-17.8,14.965319,238.65
2021-06-28 16:30:49.507812500,-64.0,2.0,12.0,80.052265625,-14.225000000000001,14.963894,238.65
2021-06-28 16:30:49.515625000,-64.0,2.0,12.0,80.04953125,-10.65,14.962468999999999,238.65
2021-06-28 16:30:49.523437500,-64.0,2.0,12.0,80.046796875,-7.11,14.961044,238.65
2021-06-28 16:30:49.531250000,-64.0,2.0,12.0,80.0440625,-3.57,14.959619,238.65
2021-06-28 16:30:49.539062500,-64.0,2.0,12.25,80.04132812499999,-0.08499999999999996,14.958193999999999,238.65
2021-06-28 16:30:49.546875000,-64.0,2.0,12.5,80.03859375,3.4,14.956769,238.65
2021-06-28 16:30:49.554687500,-64.0,2.0,12.75,80.035859375,6.699999999999999,14.955344,238.65
2021-06-28 16:30:49.562500000,-64.0,2.0,13.0,80.033125,10.0,14.953918999999999,238.65
2021-06-28 16:30:49.570312500,-64.0,2.0,13.0,80.030390625,12.895,14.952494,238.65
2021-06-28 16:30:49.578125000,-64.0,2.0,13.0,80.02765624999999,15.79,14.951069,238.65
2021-06-28 16:30:49.585937500,-64.0,2.0,13.0,80.024921875,18.04,14.949644,238.65
2021-06-28 16:30:49.593750000,-64.0,2.0,13.0,80.0221875,20.29,14.948219,238.65
2021-06-28 16:30:49.601562500,-64.0,2.0,12.75,80.019453125,21.740000000000002,14.946794,238.65
2021-06-28 16:30:49.609375000,-64.0,2.0,12.5,80.01671875,23.19,14.945369,238.65
2021-06-28 16:30:49.617187500,-64.0,2.0,12.25,80.01398437499999,23.884999999999998,14.943944,238.65
2021-06-28 16:30:49.625000000,-64.0,2.0,12.0,80.01125,24.58,14.942519,238.65
2021-06-28 16:30:49.632812500,-64.0,2.25,12.0,80.008515625,24.744999999999997,14.941094,238.65
2021-06-28 16:30:49.640625000,-64.0,2.5,12.0,80.00578125,24.91,14.939669,238.65
2021-06-28 16:30:49.648437500,-64.0,2.75,12.0,80.003046875,24.86,14.938244,238.65
2021-06-28 16:30:49.656250000,-64.0,3.0,12.0,80.00031249999999,24.81,14.936819,238.65
2021-06-28 16:30:49.664062500,-64.0,2.75,12.0,79.997578125,24.83,14.935394,238.65
2021-06-28 16:30:49.671875000,-64.0,2.5,12.0,79.99484375,24.85,14.933969,238.65
2021-06-28 16:30:49.679687500,-64.0,2.25,12.0,79.992109375,25.05,14.932544,238.65
2021-06-28 16:30:49.687500000,-64.0,2.0,12.0,79.989375,25.25,14.931119,238.65
2021-06-28 16:30:49.695312500,-64.0,2.0,12.0,79.98664062499999,25.585,14.929694,238.65
2021-06-28 16:30:49.703125000,-64.0,2.0,12.0,79.98390625,25.92,14.928269,238.65
2021-06-28 16:30:49.710937500,-64.0,2.0,12.0,79.981171875,26.235,14.926844000000001,238.65
2021-06-28 16:30:49.718750000,-64.0,2.0,12.0,79.9784375,26.55,14.925419,238.65
2021-06-28 16:30:49.726562500,-64.0,2.0,12.0,79.975703125,26.72,14.923994,238.65
2021-06-28 16:30:49.734375000,-64.0,2.0,12.0,79.97296874999999,26.89,14.922569000000001,238.65
2021-06-28 16:30:49.742187500,-64.0,2.0,12.0,79.970234375,26.865000000000002,14.921144,238.65
2021-06-28 16:30:49.750000000,-64.0,2.0,12.0,79.9675,26.84,14.919719,238.65
2021-06-28 16:30:49.757812500,-64.0,2.0,12.0,79.964765625,26.689999999999998,14.91991915625,238.65
2021-06-28 16:30:49.765625000,-64.0,2.0,12.0,79.96203125,26.54,14.9201193125,238.65
2021-06-28 16:30:49.773437500,-64.0,2.0,12.0,79.95929687499999,26.369999999999997,14.92031946875,238.65
2021-06-28 16:30:49.781250000,-64.0,2.0,12.0,79.9565625,26.2,14.920519625,238.65
2021-06-28 16:30:49.789062500,-64.0,2.0,12.0,79.953828125,26.060000000000002,14.92071978125,238.65
2021-06-28 16:30:49.796875000,-64.0,2.0,12.0,79.95109375,25.92,14.9209199375,238.65
2021-06-28 16:30:49.804687500,-64.0,2.0,12.0,79.948359375,25.785,14.92112009375,238.65
2021-06-28 16:30:49.812500000,-64.0,2.0,12.0,79.94562499999999,25.65,14.92132025,238.65
2021-06-28 16:30:49.820312500,-64.0,2.0,12.25,79.942890625,25.42,14.92152040625,238.65
2021-06-28 16:30:49.828125000,-64.0,2.0,12.5,79.94015625,25.19,14.921720562500001,238.65
2021-06-28 16:30:49.835937500,-64.0,2.0,12.75,79.937421875,24.765,14.92192071875,238.65
2021-06-28 16:30:49.843750000,-64.0,2.0,13.0,79.9346875,24.34,14.922120875000001,238.65
2021-06-28 16:30:49.851562500,-64.25,2.0,12.75,79.93195312499999,23.675,14.92232103125,238.65
2021-06-28 16:30:49.859375000,-64.5,2.0,12.5,79.92921874999999,23.01,14.922521187500001,238.65
2021-06-28 16:30:49.867187500,-64.75,2.0,12.25,79.926484375,22.105,14.92272134375,238.65
2021-06-28 16:30:49.875000000,-65.0,2.0,12.0,79.92375,21.2,14.922921500000001,238.65
2021-06-28 16:30:49.882812500,-64.75,2.0,12.0,79.921015625,20.125,14.92312165625,238.65
2021-06-28 16:30:49.890625000,-64.5,2.0,12.0,79.91828124999999,19.05,14.9233218125,238.65
2021-06-28 16:30:49.898437500,-64.25,2.0,12.0,79.91554687499999,17.875,14.92352196875,238.65
2021-06-28 16:30:49.906250000,-64.0,2.0,12.0,79.9128125,16.7,14.923722125,238.65
2021-06-28 16:30:49.914062500,-64.0,2.0,12.0,79.910078125,15.48,14.92392228125,238.65
2021-06-28 16:30:49.921875000,-64.0,2.0,12.0,79.90734375,14.26,14.9241224375,238.65
2021-06-28 16:30:49.929687500,-64.0,2.0,12.0,79.90460937499999,13.05,14.92432259375,238.65
2021-06-28 16:30:49.937500000,-64.0,2.0,12.0,79.90187499999999,11.84,14.92452275,238.65
2021-06-28 16:30:49.945312500,-64.25,2.0,11.75,79.899140625,10.665,14.92472290625,238.65
2021-06-28 16:30:49.953125000,-64.5,2.0,11.5,79.89640625,9.49,14.9249230625,238.65
2021-06-28 16:30:49.960937500,-64.75,2.0,11.25,79.893671875,8.375,14.92512321875,238.65
2021-06-28 16:30:49.968750000,-65.0,2.0,11.0,79.89093749999999,7.26,14.925323375,238.65
2021-06-28 16:30:49.976562500,-65.0,2.0,11.25,79.88820312499999,6.205,14.92552353125,238.65
2021-06-28 16:30:49.984375000,-65.0,2.0,11.5,79.88546875,5.15,14.9257236875,238.65
2021-06-28 16:30:49.992187500,-65.0,2.0,11.75,79.882734375,4.12,14.92592384375,238.65
2021-06-28 16:30:50.000000000,-65.0,2.0,12.0,79.88,3.09,14.926124,238.65
2021-06-28 16:30:50.007812500,-64.75,2.0,12.0,79.877421875,2.03,14.92532334375,238.65
2021-06-28 16:30:50.015625000,-64.5,2.0,12.0,79.87484375,0.97,14.9245226875,238.65
2021-06-28 16:30:50.023437500,-64.25,2.0,12.0,79.872265625,-0.17999999999999994,14.92372203125,238.65
2021-06-28 16:30:50.031250000,-64.0,2.0,12.0,79.8696875,-1.33,14.922921375,238.65
2021-06-28 16:30:50.039062500,-64.0,2.0,12.0,79.867109375,-2.625,14.92212071875,238.65
2021-06-28 16:30:50.046875000,-64.0,2.0,12.0,79.86453125,-3.92,14.9213200625,238.65
2021-06-28 16:30:50.054687500,-64.0,2.0,12.0,79.861953125,-5.325,14.92051940625,238.65
2021-06-28 16:30:50.062500000,-64.0,2.0,12.0,79.859375,-6.73,14.91971875,238.65
2021-06-28 16:30:50.070312500,-64.0,2.0,12.0,79.856796875,-8.190000000000001,14.91891809375,238.65
2021-06-28 16:30:50.078125000,-64.0,2.0,12.0,79.85421875,-9.65,14.9181174375,238.65
2021-06-28 16:30:50.085937500,-64.0,2.0,12.0,79.851640625,-11.085,14.91731678125,238.65
2021-06-28 16:30:50.093750000,-64.0,2.0,12.0,79.8490625,-12.52,14.916516125,238.65
2021-06-28 16:30:50.101562500,-64.0,2.0,12.0,79.84648437499999,-13.855,14.91571546875,238.65
2021-06-28 16:30:50.109375000,-64.0,2.0,12.0,79.84390624999999,-15.19,14.9149148125,238.65
2021-06-28 16:30:50.117187500,-64.0,2.0,12.0,79.84132812499999,-16.419999999999998,14.91411415625,238.65
2021-06-28 16:30:50.125000000,-64.0,2.0,12.0,79.83874999999999,-17.65,14.913313500000001,238.65
2021-06-28 16:30:50.132812500,-64.0,2.0,12.0,79.83617187499999,-18.814999999999998,14.912512843750001,238.65
2021-06-28 16:30:50.140625000,-64.0,2.0,12.0,79.83359374999999,-19.98,14.911712187500001,238.65
2021-06-28 16:30:50.148437500,-64.0,2.0,12.0,79.83101562499999,-21.175,14.910911531250001,238.65
2021-06-28 16:30:50.156250000,-64.0,2.0,12.0,79.82843749999999,-22.37,14.910110875,238.65
2021-06-28 16:30:50.164062500,-64.0,2.0,12.0,79.825859375,-23.68,14.90931021875,238.65
2021-06-28 16:30:50.171875000,-64.0,2.0,12.0,79.82328125,-24.99,14.9085095625,238.65
2021-06-28 16:30:50.179687500,-64.0,2.0,12.0,79.820703125,-26.479999999999997,14.90770890625,238.65
2021-06-28 16:30:50.187500000,-64.0,2.0,12.0,79.818125,-27.97,14.90690825,238.65
2021-06-28 16:30:50.195312500,-64.0,2.0,12.0,79.815546875,-29.634999999999998,14.90610759375,238.65
2021-06-28 16:30:50.203125000,-64.0,2.0,12.0,79.81296875,-31.3,14.9053069375,238.65
2021-06-28 16:30:50.210937500,-64.0,2.0,12.0,79.810390625,-33.085,14.90450628125,238.65
2021-06-28 16:30:50.218750000,-64.0,2.0,12.0,79.8078125,-34.87,14.903705625,238.65
2021-06-28 16:30:50.226562500,-64.0,2.0,12.0,79.805234375,-36.65,14.90290496875,238.65
2021-06-28 16:30:50.234375000,-64.0,2.0,12.0,79.80265625,-38.43,14.9021043125,238.65
2021-06-28 16:30:50.242187500,-64.0,2.0,12.0,79.800078125,-40.035,14.90130365625,238.65
2021-06-28 16:30:50.250000000,-64.0,2.0,12.0,79.7975,-41.64,14.900503,238.65
2021-06-28 16:30:50.257812500,-64.0,2.0,12.0,79.794921875,-42.83,14.90014271875,238.65
2021-06-28 16:30:50.265625000,-64.0,2.0,12.0,79.79234375,-44.02,14.8997824375,238.65
2021-06-28 16:30:50.273437500,-64.0,2.0,12.0,79.789765625,-44.56,14.89942215625,238.65
2021-06-28 16:30:50.281250000,-64.0,2.0,12.0,79.7871875,-45.1,14.899061875000001,238.65
2021-06-28 16:30:50.289062500,-64.0,2.0,12.0,79.784609375,-44.795,14.898701593750001,238.65
2021-06-28 16:30:50.296875000,-64.0,2.0,12.0,79.78203125,-44.49,14.8983413125,238.65
2021-06-28 16:30:50.304687500,-64.0,2.0,12.0,79.77945312499999,-43.22,14.89798103125,238.65
2021-06-28 16:30:50.312500000,-64.0,2.0,12.0,79.77687499999999,-41.95,14.89762075,238.65
2021-06-28 16:30:50.320312500,-64.0,2.0,12.0,79.77429687499999,-39.785,14.89726046875,238.65
2021-06-28 16:30:50.328125000,-64.0,2.0,12.0,79.77171874999999,-37.62,14.8969001875,238.65
2021-06-28 16:30:50.335937500,-64.0,2.0,12.0,79.76914062499999,-34.754999999999995,14.89653990625,238.65
2021-06-28 16:30:50.343750000,-64.0,2.0,12.0,79.76656249999999,-31.89,14.896179625,238.65
2021-06-28 16:30:50.351562500,-64.0,2.0,12.0,79.76398437499999,-28.62,14.89581934375,238.65
2021-06-28 16:30:50.359375000,-64.0,2.0,12.0,79.76140625,-25.35,14.8954590625,238.65
2021-06-28 16:30:50.367187500,-64.0,2.0,12.0,79.758828125,-21.955,14.89509878125,238.65
2021-06-28 16:30:50.375000000,-64.0,2.0,12.0,79.75625,-18.56,14.894738499999999,238.65
2021-06-28 16:30:50.382812500,-64.25,2.25,11.75,79.753671875,-15.219999999999999,14.89437821875,238.65
2021-06-28 16:30:50.390625000,-64.5,2.5,11.5,79.75109375,-11.88,14.8940179375,238.65
2021-06-28 16:30:50.398437500,-64.75,2.75,11.25,79.748515625,-8.655000000000001,14.89365765625,238.65
2021-06-28 16:30:50.406250000,-65.0,3.0,11.0,79.7459375,-5.43,14.893297375,238.65
2021-06-28 16:30:50.414062500,-64.75,3.0,11.25,79.743359375,-2.3049999999999997,14.89293709375,238.65
2021-06-28 16:30:50.421875000,-64.5,3.0,11.5,79.74078125,0.82,14.8925768125,238.65
2021-06-28 16:30:50.429687500,-64.25,3.0,11.75,79.738203125,3.8149999999999995,14.89221653125,238.65
2021-06-28 16:30:50.437500000,-64.0,3.0,12.0,79.735625,6.81,14.89185625,238.65
2021-06-28 16:30:50.445312500,-64.0,2.75,12.0,79.733046875,9.555,14.89149596875,238.65
2021-06-28 16:30:50.453125000,-64.0,2.5,12.0,79.73046875,12.3,14.8911356875,238.65
2021-06-28 16:30:50.460937500,-64.0,2.25,12.0,79.727890625,14.595,14.890775406249999,238.65
2021-06-28 16:30:50.468750000,-64.0,2.0,12.0,79.7253125,16.89,14.890415124999999,238.65
2021-06-28 16:30:50.476562500,-64.0,2.0,12.0,79.722734375,18.545,14.890054843749999,238.65
2021-06-28 16:30:50.484375000,-64.0,2.0,12.0,79.72015625,20.2,14.889694562499999,238.65
2021-06-28 16:30:50.492187500,-64.0,2.0,12.0,79.717578125,21.134999999999998,14.88933428125,238.65
2021-06-28 16:30:50.500000000,-64.0,2.0,12.0,79.715,22.07,14.888974,238.65
2021-06-28 16:30:50.507812500,-64.0,2.0,12.0,79.71242187499999,22.39,14.88857365625,238.65
2021-06-28 16:30:50.515625000,-64.0,2.0,12.0,79.70984374999999,22.71,14.8881733125,238.65
2021-06-28 16:30:50.523437500,-64.0,2.0,12.0,79.70726562499999,22.615000000000002,14.88777296875,238.65
2021-06-28 16:30:50.531250000,-64.0,2.0,12.0,79.70468749999999,22.52,14.887372625,238.65
2021-06-28 16:30:50.539062500,-64.0,2.0,12.0,79.70210937499999,22.235,14.88697228125,238.65
2021-06-28 16:30:50.546875000,-64.0,2.0,12.0,79.69953124999999,21.95,14.8865719375,238.65
2021-06-28 16:30:50.554687500,-64.0,2.0,12.0,79.696953125,21.64,14.88617159375,238.65
2021-06-28 16:30:50.562500000,-64.0,2.0,12.0,79.694375,21.33,14.88577125,238.65
2021-06-28 16:30:50.570312500,-64.0,2.0,12.0,79.691796875,21.03,14.88537090625,238.65
2021-06-28 16:30:50.578125000,-64.0,2.0,12.0,79.68921875,20.73,14.8849705625,238.65
2021-06-28 16:30:50.585937500,-64.0,2.0,12.0,79.686640625,20.439999999999998,14.88457021875,238.65
2021-06-28 16:30:50.593750000,-64.0,2.0,12.0,79.6840625,20.15,14.884169875,238.65
2021-06-28 16:30:50.601562500,-64.0,2.0,12.0,79.681484375,19.869999999999997,14.88376953125,238.65
2021-06-28 16:30:50.609375000,-64.0,2.0,12.0,79.67890625,19.59,14.8833691875,238.65
2021-06-28 16:30:50.617187500,-64.0,2.0,12.0,79.676328125,19.375,14.88296884375,238.65
2021-06-28 16:30:50.625000000,-64.0,2.0,12.0,79.67375,19.16,14.8825685,238.65
2021-06-28 16:30:50.632812500,-64.0,2.0,12.0,79.671171875,19.085,14.88216815625,238.65
2021-06-28 16:30:50.640625000,-64.0,2.0,12.0,79.66859375,19.01,14.8817678125,238.65
2021-06-28 16:30:50.648437500,-64.0,2.0,12.0,79.666015625,19.11,14.88136746875,238.65
2021-06-28 16:30:50.656250000,-64.0,2.0,12.0,79.6634375,19.21,14.880967125,238.65
2021-06-28 16:30:50.664062500,-64.0,2.0,12.0,79.660859375,19.4,14.88056678125,238.65
2021-06-28 16:30:50.671875000,-64.0,2.0,12.0,79.65828125,19.59,14.8801664375,238.65
2021-06-28 16:30:50.679687500,-64.0,2.0,12.0,79.655703125,19.735,14.87976609375,238.65
2021-06-28 16:30:50.687500000,-64.0,2.0,12.0,79.653125,19.88,14.87936575,238.65
2021-06-28 16:30:50.695312500,-64.0,2.0,12.0,79.650546875,19.825,14.87896540625,238.65
2021-06-28 16:30:50.703125000,-64.0,2.0,12.0,79.64796874999999,19.77,14.8785650625,238.65
2021-06-28 16:30:50.710937500,-64.0,2.0,12.0,79.64539062499999,19.445,14.87816471875,238.65
2021-06-28 16:30:50.718750000,-64.0,2.0,12.0,79.64281249999999,19.12,14.877764375,238.65
2021-06-28 16:30:50.726562500,-64.0,2.0,12.0,79.64023437499999,18.595,14.87736403125,238.65
2021-06-28 16:30:50.734375000,-64.0,2.0,12.0,79.63765624999999,18.07,14.8769636875,238.65
2021-06-28 16:30:50.742187500,-64.0,2.0,12.0,79.63507812499999,17.495,14.87656334375,238.65
2021-06-28 16:30:50.750000000,-64.0,2.0,12.0,79.6325,16.92,14.876163,238.65
2021-06-28 16:30:50.757812500,-64.0,2.0,12.0,79.629921875,16.445,14.876283125,238.65
2021-06-28 16:30:50.765625000,-64.0,2.0,12.0,79.62734375,15.97,14.87640325,238.65
2021-06-28 16:30:50.773437500,-64.0,2.0,12.0,79.624765625,15.68,14.876523375,238.65
2021-06-28 16:30:50.781250000,-64.0,2.0,12.0,79.6221875,15.39,14.8766435,238.65
2021-06-28 16:30:50.789062500,-64.0,2.0,12.0,79.619609375,15.22,14.876763625,238.65
2021-06-28 16:30:50.796875000,-64.0,2.0,12.0,79.61703125,15.05,14.876883750000001,238.65
2021-06-28 16:30:50.804687500,-64.0,2.0,12.0,79.614453125,14.88,14.877003875,238.65
2021-06-28 16:30:50.812500000,-64.0,2.0,12.0,79.611875,14.71,14.877124,238.65
2021-06-28 16:30:50.820312500,-64.0,2.0,12.0,79.609296875,14.41,14.877244125,238.65
2021-06-28 16:30:50.828125000,-64.0,2.0,12.0,79.60671875,14.11,14.87736425,238.65
2021-06-28 16:30:50.835937500,-64.0,2.0,12.0,79.604140625,13.625,14.877484375,238.65
2021-06-28 16:30:50.843750000,-64.0,2.0,12.0,79.6015625,13.14,14.8776045,238.65
2021-06-28 16:30:50.851562500,-64.0,2.0,12.0,79.598984375,12.485,14.877724625,238.65
2021-06-28 16:30:50.859375000,-64.0,2.0,12.0,79.59640625,11.83,14.877844750000001,238.65
2021-06-28 16:30:50.867187500,-64.0,2.0,12.0,79.593828125,11.075,14.877964875,238.65
2021-06-28 16:30:50.875000000,-64.0,2.0,12.0,79.59125,10.32,14.878085,238.65
2021-06-28 16:30:50.882812500,-64.0,2.0,12.0,79.588671875,9.504999999999999,14.878205125000001,238.65
2021-06-28 16:30:50.890625000,-64.0,2.0,12.0,79.58609375,8.69,14.87832525,238.65
2021-06-28 16:30:50.898437500,-64.0,2.0,12.0,79.583515625,7.84,14.878445375,238.65
2021-06-28 16:30:50.906250000,-64.0,2.0,12.0,79.58093749999999,6.99,14.8785655,238.65
2021-06-28 16:30:50.914062500,-64.0,2.0,12.0,79.57835937499999,6.085,14.878685625000001,238.65
2021-06-28 16:30:50.921875000,-64.0,2.0,12.0,79.57578124999999,5.18,14.878805750000001,238.65
2021-06-28 16:30:50.929687500,-64.0,2.0,12.0,79.57320312499999,4.234999999999999,14.878925875,238.65
2021-06-28 16:30:50.937500000,-64.0,2.0,12.0,79.57062499999999,3.29,14.879046,238.65
2021-06-28 16:30:50.945312500,-64.0,2.0,12.0,79.568046875,2.3200000000000003,14.879166125000001,238.65
2021-06-28 16:30:50.953125000,-64.0,2.0,12.0,79.56546875,1.35,14.87928625,238.65
2021-06-28 16:30:50.960937500,-64.0,2.0,12.0,79.562890625,0.41000000000000003,14.879406375,238.65
2021-06-28 16:30:50.968750000,-64.0,2.0,12.0,79.5603125,-0.53,14.8795265,238.65
2021-06-28 16:30:50.976562500,-64.0,2.0,12.0,79.557734375,-1.415,14.879646625000001,238.65
2021-06-28 16:30:50.984375000,-64.0,2.0,12.0,79.55515625,-2.3,14.879766750000002,238.65
2021-06-28 16:30:50.992187500,-64.0,2.0,12.0,79.552578125,-3.17,14.879886875,238.65
2021-06-28 16:30:51.000000000,-64.0,2.0,12.0,79.55,-4.04,14.880007,238.65
2021-06-28 16:30:51.007812500,-64.0,2.0,12.0,79.547421875,-4.975,14.87996696875,238.65
2021-06-28 16:30:51.015625000,-64.0,2.0,12.0,79.54484375,-5.91,14.8799269375,238.65
2021-06-28 16:30:51.023437500,-64.0,2.0,12.0,79.542265625,-6.99,14.87988690625,238.65
2021-06-28 16:30:51.031250000,-64.0,2.0,12.0,79.5396875,-8.07,14.879846875,238.65
2021-06-28 16:30:51.039062500,-64.0,2.0,12.0,79.537109375,-9.379999999999999,14.87980684375,238.65
2021-06-28 16:30:51.046875000,-64.0,2.0,12.0,79.53453125,-10.69,14.879766812500002,238.65
2021-06-28 16:30:51.054687500,-64.0,2.0,12.0,79.531953125,-12.219999999999999,14.879726781250001,238.65
2021-06-28 16:30:51.062500000,-64.0,2.0,12.0,79.529375,-13.75,14.879686750000001,238.65
2021-06-28 16:30:51.070312500,-64.0,2.0,12.0,79.526796875,-15.46,14.879646718750001,238.65
2021-06-28 16:30:51.078125000,-64.0,2.0,12.0,79.52421875,-17.17,14.8796066875,238.65
2021-06-28 16:30:51.085937500,-64.0,2.0,12.0,79.521640625,-18.97,14.87956665625,238.65
2021-06-28 16:30:51.093750000,-64.0,2.0,12.0,79.5190625,-20.77,14.879526625,238.65
2021-06-28 16:30:51.101562500,-64.0,2.0,12.0,79.51648437499999,-22.525,14.87948659375,238.65
2021-06-28 16:30:51.109375000,-64.0,2.0,12.0,79.51390624999999,-24.28,14.8794465625,238.65
2021-06-28 16:30:51.117187500,-64.0,2.0,12.0,79.51132812499999,-25.805,14.87940653125,238.65
2021-06-28 16:30:51.125000000,-64.0,2.0,12.0,79.50874999999999,-27.33,14.8793665,238.65
2021-06-28 16:30:51.132812500,-64.0,2.0,12.0,79.50617187499999,-28.395,14.879326468750001,238.65
2021-06-28 16:30:51.140625000,-64.0,2.0,12.0,79.50359375,-29.46,14.879286437500001,238.65
2021-06-28 16:30:51.148437500,-64.0,2.0,12.0,79.501015625,-29.82,14.879246406250001,238.65
2021-06-28 16:30:51.156250000,-64.0,2.0,12.0,79.4984375,-30.18,14.879206375,238.65
2021-06-28 16:30:51.164062500,-64.0,2.0,12.0,79.495859375,-29.619999999999997,14.87916634375,238.65
2021-06-28 16:30:51.171875000,-64.0,2.0,12.0,79.49328125,-29.06,14.8791263125,238.65
2021-06-28 16:30:51.179687500,-64.0,2.0,12.0,79.490703125,-27.485,14.87908628125,238.65
2021-06-28 16:30:51.187500000,-64.0,2.0,12.0,79.488125,-25.91,14.87904625,238.65
2021-06-28 16:30:51.195312500,-64.0,2.0,12.0,79.485546875,-23.369999999999997,14.87900621875,238.65
2021-06-28 16:30:51.203125000,-64.0,2.0,12.0,79.48296875,-20.83,14.8789661875,238.65
2021-06-28 16:30:51.210937500,-64.0,2.0,12.0,79.480390625,-17.555,14.878926156250001,238.65
2021-06-28 16:30:51.218750000,-64.0,2.0,12.0,79.4778125,-14.28,14.878886125000001,238.65
2021-06-28 16:30:51.226562500,-64.0,2.0,12.0,79.475234375,-10.565,14.878846093750001,238.65
2021-06-28 16:30:51.234375000,-64.0,2.0,12.0,79.47265625,-6.85,14.8788060625,238.65
2021-06-28 16:30:51.242187500,-64.0,2.0,12.0,79.470078125,-3.03,14.87876603125,238.65
2021-06-28 16:30:51.250000000,-64.0,2.0,12.0,79.4675,0.79,14.878726,238.65
2021-06-28 16:30:51.257812500,-64.0,2.0,12.0,79.464921875,4.42,14.87840575,238.65
2021-06-28 16:30:51.265625000,-64.0,2.0,12.0,79.46234375,8.05,14.878085500000001,238.65
2021-06-28 16:30:51.273437500,-64.0,2.0,12.0,79.459765625,11.27,14.87776525,238.65
2021-06-28 16:30:51.281250000,-64.0,2.0,12.0,79.4571875,14.49,14.877445,238.65
2021-06-28 16:30:51.289062500,-64.0,2.0,12.0,79.454609375,17.17,14.87712475,238.65
2021-06-28 16:30:51.296875000,-64.0,2.0,12.0,79.45203125,19.85,14.8768045,238.65
2021-06-28 16:30:51.304687500,-64.0,2.0,12.0,79.44945312499999,21.935000000000002,14.87648425,238.65
2021-06-28 16:30:51.312500000,-64.0,2.0,12.0,79.44687499999999,24.02,14.876164,238.65
2021-06-28 16:30:51.320312500,-64.0,2.0,12.0,79.44429687499999,25.46,14.87584375,238.65
2021-06-28 16:30:51.328125000,-64.0,2.0,12.0,79.44171874999999,26.9,14.8755235,238.65
2021-06-28 16:30:51.335937500,-64.0,2.0,12.0,79.439140625,27.715,14.87520325,238.65
2021-06-28 16:30:51.343750000,-64.0,2.0,12.0,79.4365625,28.53,14.874883,238.65
2021-06-28 16:30:51.351562500,-64.0,2.0,12.25,79.433984375,28.759999999999998,14.87456275,238.65
2021-06-28 16:30:51.359375000,-64.0,2.0,12.5,79.43140625,28.99,14.8742425,238.65
2021-06-28 16:30:51.367187500,-64.0,2.0,12.75,79.428828125,28.715,14.87392225,238.65
2021-06-28 16:30:51.375000000,-64.0,2.0,13.0,79.42625,28.44,14.873602,238.65
2021-06-28 16:30:51.382812500,-64.0,2.0,12.75,79.423671875,27.795,14.87328175,238.65
2021-06-28 16:30:51.390625000,-64.0,2.0,12.5,79.42109375,27.15,14.8729615,238.65
2021-06-28 16:30:51.398437500,-64.0,2.0,12.25,79.418515625,26.305,14.87264125,238.65
2021-06-28 16:30:51.406250000,-64.0,2.0,12.0,79.4159375,25.46,14.872321,238.65
2021-06-28 16:30:51.414062500,-64.0,2.0,12.0,79.413359375,24.585,14.87200075,238.65
2021-06-28 16:30:51.421875000,-64.0,2.0,12.0,79.41078125,23.71,14.8716805,238.65
2021-06-28 16:30:51.429687500,-64.0,2.0,12.0,79.408203125,22.925,14.87136025,238.65
2021-06-28 16:30:51.437500000,-64.0,2.0,12.0,79.405625,22.14,14.87104,238.65
2021-06-28 16:30:51.445312500,-64.0,2.0,12.0,79.403046875,21.490000000000002,14.87071975,238.65
2021-06-28 16:30:51.453125000,-64.0,2.0,12.0,79.40046875,20.84,14.8703995,238.65
2021-06-28 16:30:51.460937500,-64.0,2.0,12.0,79.397890625,20.295,14.87007925,238.65
2021-06-28 16:30:51.468750000,-64.0,2.0,12.0,79.3953125,19.75,14.869759,238.65
2021-06-28 16:30:51.476562500,-64.0,2.0,12.25,79.392734375,19.25,14.86943875,238.65
2021-06-28 16:30:51.484375000,-64.0,2.0,12.5,79.39015625,18.75,14.869118499999999,238.65
2021-06-28 16:30:51.492187500,-64.0,2.0,12.75,79.387578125,18.259999999999998,14.86879825,238.65
2021-06-28 16:30:51.500000000,-64.0,2.0,13.0,79.38499999999999,17.77,14.868478,238.65
2021-06-28 16:30:51.507812500,-64.0,2.0,12.75,79.38242187499999,17.285,14.86851803125,238.65
2021-06-28 16:30:51.515625000,-64.0,2.0,12.5,79.37984374999999,16.8,14.8685580625,238.65
2021-06-28 16:30:51.523437500,-64.0,2.0,12.25,79.37726562499999,16.36,14.86859809375,238.65
2021-06-28 16:30:51.531250000,-64.0,2.0,12.0,79.3746875,15.92,14.868638125,238.65
2021-06-28 16:30:51.539062500,-64.0,2.0,12.0,79.372109375,15.535,14.86867815625,238.65
2021-06-28 16:30:51.546875000,-64.0,2.0,12.0,79.36953125,15.15,14.868718187499999,238.65
2021-06-28 16:30:51.554687500,-64.0,2.0,12.0,79.366953125,14.805,14.86875821875,238.65
2021-06-28 16:30:51.562500000,-64.0,2.0,12.0,79.364375,14.46,14.86879825,238.65
2021-06-28 16:30:51.570312500,-64.0,2.0,12.0,79.361796875,14.085,14.86883828125,238.65
2021-06-28 16:30:51.578125000,-64.0,2.0,12.0,79.35921875,13.71,14.8688783125,238.65
2021-06-28 16:30:51.585937500,-64.0,2.0,12.0,79.356640625,13.22,14.86891834375,238.65
2021-06-28 16:30:51.593750000,-64.0,2.0,12.0,79.3540625,12.73,14.868958375,238.65
2021-06-28 16:30:51.601562500,-64.0,2.0,12.25,79.351484375,12.09,14.86899840625,238.65
2021-06-28 16:30:51.609375000,-64.0,2.0,12.5,79.34890625,11.45,14.8690384375,238.65
2021-06-28 16:30:51.617187500,-64.0,2.0,12.75,79.346328125,10.67,14.86907846875,238.65
2021-06-28 16:30:51.625000000,-64.0,2.0,13.0,79.34375,9.89,14.869118499999999,238.65
2021-06-28 16:30:51.632812500,-64.0,2.0,12.75,79.341171875,9.015,14.86915853125,238.65
2021-06-28 16:30:51.640625000,-64.0,2.0,12.5,79.33859375,8.14,14.8691985625,238.65
2021-06-28 16:30:51.648437500,-64.0,2.0,12.25,79.336015625,7.2,14.86923859375,238.65
2021-06-28 16:30:51.656250000,-64.0,2.0,12.0,79.3334375,6.26,14.869278625,238.65
2021-06-28 16:30:51.664062500,-64.0,2.0,12.0,79.330859375,5.26,14.86931865625,238.65
2021-06-28 16:30:51.671875000,-64.0,2.0,12.0,79.32828125,4.26,14.8693586875,238.65
2021-06-28 16:30:51.679687500,-64.0,2.0,12.0,79.325703125,3.17,14.86939871875,238.65
2021-06-28 16:30:51.687500000,-64.0,2.0,12.0,79.323125,2.08,14.86943875,238.65
2021-06-28 16:30:51.695312500,-64.0,2.0,12.25,79.320546875,0.865,14.86947878125,238.65
2021-06-28 16:30:51.703125000,-64.0,2.0,12.5,79.31796874999999,-0.35,14.8695188125,238.65
2021-06-28 16:30:51.710937500,-64.0,2.0,12.75,79.31539062499999,-1.665,14.86955884375,238.65
2021-06-28 16:30:51.718750000,-64.0,2.0,13.0,79.31281249999999,-2.98,14.869598875,238.65
2021-06-28 16:30:51.726562500,-64.0,2.0,12.75,79.310234375,-4.325,14.86963890625,238.65
2021-06-28 16:30:51.734375000,-64.0,2.0,12.5,79.30765625,-5.67,14.8696789375,238.65
2021-06-28 16:30:51.742187500,-64.0,2.0,12.25,79.305078125,-6.965,14.86971896875,238.65
2021-06-28 16:30:51.750000000,-64.0,2.0,12.0,79.3025,-8.26,14.869759,238.65
2021-06-28 16:30:51.757812500,-64.0,2.0,12.0,79.299921875,-9.44,14.870559625,238.65
2021-06-28 16:30:51.765625000,-64.0,2.0,12.0,79.29734375,-10.62,14.87136025,238.65
2021-06-28 16:30:51.773437500,-64.0,2.0,12.0,79.294765625,-11.67,14.872160875,238.65
2021-06-28 16:30:51.781250000,-64.0,2.0,12.0,79.2921875,-12.72,14.8729615,238.65
2021-06-28 16:30:51.789062500,-64.0,2.0,12.25,79.289609375,-13.71,14.873762125,238.65
2021-06-28 16:30:51.796875000,-64.0,2.0,12.5,79.28703125,-14.7,14.87456275,238.65
2021-06-28 16:30:51.804687500,-64.0,2.0,12.75,79.284453125,-15.709999999999999,14.875363375000001,238.65
2021-06-28 16:30:51.812500000,-64.0,2.0,13.0,79.281875,-16.72,14.876164,238.65
2021-06-28 16:30:51.820312500,-64.0,2.0,13.0,79.279296875,-17.869999999999997,14.876964625,238.65
2021-06-28 16:30:51.828125000,-64.0,2.0,13.0,79.27671875,-19.02,14.87776525,238.65
2021-06-28 16:30:51.835937500,-64.0,2.0,13.0,79.274140625,-20.395,14.878565875,238.65
2021-06-28 16:30:51.843750000,-64.0,2.0,13.0,79.2715625,-21.77,14.8793665,238.65
2021-06-28 16:30:51.851562500,-64.0,2.0,13.0,79.268984375,-23.415,14.880167125,238.65
2021-06-28 16:30:51.859375000,-64.0,2.0,13.0,79.26640625,-25.06,14.88096775,238.65
2021-06-28 16:30:51.867187500,-64.0,2.0,13.0,79.263828125,-26.96,14.881768375,238.65
2021-06-28 16:30:51.875000000,-64.0,2.0,13.0,79.26125,-28.86,14.882569,238.65
2021-06-28 16:30:51.882812500,-64.0,2.0,13.0,79.258671875,-30.91,14.883369625,238.65
2021-06-28 16:30:51.890625000,-64.0,2.0,13.0,79.25609375,-32.96,14.88417025,238.65
2021-06-28 16:30:51.898437500,-64.0,2.0,13.0,79.253515625,-34.935,14.884970875,238.65
2021-06-28 16:30:51.906250000,-64.0,2.0,13.0,79.25093749999999,-36.91,14.8857715,238.65
2021-06-28 16:30:51.914062500,-64.0,2.0,12.75,79.24835937499999,-38.504999999999995,14.886572125,238.65
2021-06-28 16:30:51.921875000,-64.0,2.0,12.5,79.24578125,-40.1,14.88737275,238.65
2021-06-28 16:30:51.929687500,-64.0,2.0,12.25,79.243203125,-41.004999999999995,14.888173375000001,238.65
2021-06-28 16:30:51.937500000,-64.0,2.0,12.0,79.240625,-41.91,14.888974000000001,238.65
2021-06-28 16:30:51.945312500,-64.0,2.0,12.0,79.238046875,-41.864999999999995,14.889774625,238.65
2021-06-28 16:30:51.953125000,-64.0,2.0,12.0,79.23546875,-41.82,14.89057525,238.65
2021-06-28 16:30:51.960937500,-64.0,2.0,12.0,79.232890625,-40.725,14.891375875,238.65
2021-06-28 16:30:51.968750000,-64.0,2.0,12.0,79.2303125,-39.63,14.8921765,238.65
2021-06-28 16:30:51.976562500,-64.0,2.0,12.0,79.227734375,-37.59,14.892977125,238.65
2021-06-28 16:30:51.984375000,-64.0,2.0,12.0,79.22515625,-35.55,14.89377775,238.65
2021-06-28 16:30:51.992187500,-64.0,2.0,12.0,79.222578125,-32.805,14.894578375,238.65
2021-06-28 16:30:52.000000000,-64.0,2.0,12.0,79.22,-30.06,14.895379,238.65
2021-06-28 16:30:52.007812500,-64.0,2.0,12.0,79.21734375,-26.955,14.89497865625,238.65
2021-06-28 16:30:52.015625000,-64.0,2.0,12.0,79.2146875,-23.85,14.8945783125,238.65
2021-06-28 16:30:52.023437500,-64.0,2.0,12.0,79.21203125,-20.705,14.89417796875,238.65
2021-06-28 16:30:52.031250000,-64.0,2.0,12.0,79.209375,-17.56,14.893777625,238.65
2021-06-28 16:30:52.039062500,-64.0,2.0,12.0,79.20671875,-14.59,14.89337728125,238.65
2021-06-28 16:30:52.046875000,-64.0,2.0,12.0,79.20406249999999,-11.62,14.8929769375,238.65
2021-06-28 16:30:52.054687500,-64.0,2.0,12.0,79.20140625,-8.925,14.89257659375,238.65
2021-06-28 16:30:52.062500000,-64.0,2.0,12.0,79.19875,-6.23,14.89217625,238.65
2021-06-28 16:30:52.070312500,-64.0,2.0,12.25,79.19609375,-3.845,14.89177590625,238.65
2021-06-28 16:30:52.078125000,-64.0,2.0,12.5,79.1934375,-1.46,14.8913755625,238.65
2021-06-28 16:30:52.085937500,-64.0,2.0,12.75,79.19078125,0.6200000000000001,14.89097521875,238.65
2021-06-28 16:30:52.093750000,-64.0,2.0,13.0,79.188125,2.7,14.890574875,238.65
2021-06-28 16:30:52.101562500,-64.0,2.0,12.75,79.18546875,4.425000000000001,14.89017453125,238.65
2021-06-28 16:30:52.109375000,-64.0,2.0,12.5,79.1828125,6.15,14.8897741875,238.65
2021-06-28 16:30:52.117187500,-64.0,2.0,12.25,79.18015625,7.465,14.88937384375,238.65
2021-06-28 16:30:52.125000000,-64.0,2.0,12.0,79.1775,8.78,14.888973499999999,238.65
2021-06-28 16:30:52.132812500,-64.0,2.0,12.0,79.17484375,9.64,14.888573156249999,238.65
2021-06-28 16:30:52.140625000,-64.0,2.0,12.0,79.17218749999999,10.5,14.888172812499999,238.65
2021-06-28 16:30:52.148437500,-64.0,2.0,12.0,79.16953124999999,10.93,14.887772468749999,238.65
2021-06-28 16:30:52.156250000,-64.0,2.0,12.0,79.166875,11.36,14.887372124999999,238.65
2021-06-28 16:30:52.164062500,-64.0,2.0,12.25,79.16421875,11.465,14.886971781249999,238.65
2021-06-28 16:30:52.171875000,-64.0,2.0,12.5,79.1615625,11.57,14.886571437499999,238.65
2021-06-28 16:30:52.179687500,-64.0,2.0,12.75,79.15890625,11.5,14.886171093749999,238.65
2021-06-28 16:30:52.187500000,-64.0,2.0,13.0,79.15625,11.43,14.885770749999999,238.65
2021-06-28 16:30:52.195312500,-64.0,2.0,13.0,79.15359375,11.335,14.885370406249999,238.65
2021-06-28 16:30:52.203125000,-64.0,2.0,13.0,79.1509375,11.24,14.884970062499999,238.65
2021-06-28 16:30:52.210937500,-64.0,2.0,13.0,79.14828125,11.190000000000001,14.884569718749999,238.65
2021-06-28 16:30:52.218750000,-64.0,2.0,13.0,79.145625,11.14,14.884169374999999,238.65
2021-06-28 16:30:52.226562500,-64.0,2.0,12.75,79.14296875,11.165,14.883769031249999,238.65
2021-06-28 16:30:52.234375000,-64.0,2.0,12.5,79.1403125,11.19,14.883368687499999,238.65
2021-06-28 16:30:52.242187500,-64.0,2.0,12.25,79.13765624999999,11.245000000000001,14.882968343749999,238.65
2021-06-28 16:30:52.250000000,-64.0,2.0,12.0,79.13499999999999,11.3,14.882568,238.65
2021-06-28 16:30:52.257812500,-64.0,2.25,12.25,79.13234375,11.370000000000001,14.8819275,238.65
2021-06-28 16:30:52.265625000,-64.0,2.5,12.5,79.1296875,11.44,14.881286999999999,238.65
2021-06-28 16:30:52.273437500,-64.0,2.75,12.75,79.12703125,11.535,14.8806465,238.65
2021-06-28 16:30:52.281250000,-64.0,3.0,13.0,79.124375,11.63,14.880006,238.65
2021-06-28 16:30:52.289062500,-64.0,2.75,13.0,79.12171875,11.765,14.879365499999999,238.65
2021-06-28 16:30:52.296875000,-64.0,2.5,13.0,79.1190625,11.9,14.878725,238.65
2021-06-28 16:30:52.304687500,-64.0,2.25,13.0,79.11640625,12.08,14.8780845,238.65
2021-06-28 16:30:52.312500000,-64.0,2.0,13.0,79.11375,12.26,14.877443999999999,238.65
2021-06-28 16:30:52.320312500,-64.0,2.0,12.75,79.11109375,12.434999999999999,14.8768035,238.65
2021-06-28 16:30:52.328125000,-64.0,2.0,12.5,79.1084375,12.61,14.876163,238.65
2021-06-28 16:30:52.335937500,-64.0,2.0,12.25,79.10578124999999,12.675,14.875522499999999,238.65
2021-06-28 16:30:52.343750000,-64.0,2.0,12.0,79.10312499999999,12.74,14.874882,238.65
2021-06-28 16:30:52.351562500,-64.0,2.0,12.0,79.10046875,12.594999999999999,14.8742415,238.65
2021-06-28 16:30:52.359375000,-64.0,2.0,12.0,79.0978125,12.45,14.873600999999999,238.65
2021-06-28 16:30:52.367187500,-64.0,2.0,12.0,79.09515625,12.024999999999999,14.8729605,238.65
2021-06-28 16:30:52.375000000,-64.0,2.0,12.0,79.0925,11.6,14.872319999999998,238.65
2021-06-28 16:30:52.382812500,-64.0,2.0,12.25,79.08984375,10.885,14.871679499999999,238.65
2021-06-28 16:30:52.390625000,-64.0,2.0,12.5,79.0871875,10.17,14.871039,238.65
2021-06-28 16:30:52.398437500,-64.0,2.0,12.75,79.08453125,9.205,14.870398499999999,238.65
2021-06-28 16:30:52.406250000,-64.0,2.0,13.0,79.081875,8.24,14.869758,238.65
2021-06-28 16:30:52.414062500,-64.0,2.0,13.0,79.07921875,7.105,14.8691175,238.65
2021-06-28 16:30:52.421875000,-64.0,2.0,13.0,79.0765625,5.97,14.868476999999999,238.65
2021-06-28 16:30:52.429687500,-64.0,2.0,13.0,79.07390625,4.715,14.8678365,238.65
2021-06-28 16:30:52.437500000,-64.0,2.0,13.0,79.07124999999999,3.46,14.867196,238.65
2021-06-28 16:30:52.445312500,-64.0,2.0,13.0,79.06859374999999,2.125,14.866555499999999,238.65
2021-06-28 16:30:52.453125000,-64.0,2.0,13.0,79.0659375,0.79,14.865915,238.65
2021-06-28 16:30:52.460937500,-64.0,2.0,13.0,79.06328125,-0.595,14.8652745,238.65
2021-06-28 16:30:52.468750000,-64.0,2.0,13.0,79.060625,-1.98,14.864633999999999,238.65
2021-06-28 16:30:52.476562500,-64.0,2.0,13.0,79.05796875,-3.425,14.8639935,238.65
2021-06-28 16:30:52.484375000,-64.0,2.0,13.0,79.0553125,-4.87,14.863353,238.65
2021-06-28 16:30:52.492187500,-64.0,2.0,13.0,79.05265625,-6.34,14.862712499999999,238.65
2021-06-28 16:30:52.500000000,-64.0,2.0,13.0,79.05,-7.81,14.862072,238.65
2021-06-28 16:30:52.507812500,-64.0,2.0,13.0,79.04734375,-9.299999999999999,14.86175175,238.65
2021-06-28 16:30:52.515625000,-64.0,2.0,13.0,79.0446875,-10.79,14.8614315,238.65
2021-06-28 16:30:52.523437500,-64.0,2.0,13.0,79.04203125,-12.245,14.86111125,238.65
2021-06-28 16:30:52.531250000,-64.0,2.0,13.0,79.03937499999999,-13.7,14.860790999999999,238.65
2021-06-28 16:30:52.539062500,-64.0,2.0,12.75,79.03671874999999,-15.07,14.86047075,238.65
2021-06-28 16:30:52.546875000,-64.0,2.0,12.5,79.03406249999999,-16.44,14.8601505,238.65
2021-06-28 16:30:52.554687500,-64.0,2.0,12.25,79.03140625,-17.685000000000002,14.85983025,238.65
2021-06-28 16:30:52.562500000,-64.0,2.0,12.0,79.02875,-18.93,14.85951,238.65
2021-06-28 16:30:52.570312500,-64.0,2.0,12.25,79.02609375,-20.060000000000002,14.85918975,238.65
2021-06-28 16:30:52.578125000,-64.0,2.0,12.5,79.0234375,-21.19,14.858869499999999,238.65
2021-06-28 16:30:52.585937500,-64.0,2.0,12.75,79.02078125,-22.28,14.85854925,238.65
2021-06-28 16:30:52.593750000,-64.0,2.0,13.0,79.018125,-23.37,14.858229,238.65
2021-06-28 16:30:52.601562500,-64.0,2.0,13.0,79.01546875,-24.55,14.85790875,238.65
2021-06-28 16:30:52.609375000,-64.0,2.0,13.0,79.0128125,-25.73,14.8575885,238.65
2021-06-28 16:30:52.617187500,-64.0,2.0,13.0,79.01015625,-27.134999999999998,14.85726825,238.65
2021-06-28 16:30:52.625000000,-64.0,2.0,13.0,79.0075,-28.54,14.856948,238.65
2021-06-28 16:30:52.632812500,-64.0,2.0,12.75,79.00484374999999,-30.240000000000002,14.85662775,238.65
2021-06-28 16:30:52.640625000,-64.0,2.0,12.5,79.00218749999999,-31.94,14.8563075,238.65
2021-06-28 16:30:52.648437500,-64.0,2.0,12.25,78.99953124999999,-33.885,14.85598725,238.65
2021-06-28 16:30:52.656250000,-64.0,2.0,12.0,78.996875,-35.83,14.855667,238.65
2021-06-28 16:30:52.664062500,-64.0,2.0,12.25,78.99421875,-37.805,14.85534675,238.65
2021-06-28 16:30:52.671875000,-64.0,2.0,12.5,78.9915625,-39.78,14.855026500000001,238.65
2021-06-28 16:30:52.679687500,-64.0,2.0,12.75,78.98890625,-41.5,14.85470625,238.65
2021-06-28 16:30:52.687500000,-64.0,2.0,13.0,78.98625,-43.22,14.854386,238.65
2021-06-28 16:30:52.695312500,-64.0,2.0,12.75,78.98359375,-44.335,14.85406575,238.65
2021-06-28 16:30:52.703125000,-64.0,2.0,12.5,78.9809375,-45.45,14.8537455,238.65
2021-06-28 16:30:52.710937500,-64.0,2.0,12.25,78.97828125,-45.715,14.85342525,238.65
2021-06-28 16:30:52.718750000,-64.0,2.0,12.0,78.975625,-45.98,14.853105000000001,238.65
2021-06-28 16:30:52.726562500,-64.0,2.25,12.25,78.97296874999999,-45.254999999999995,14.85278475,238.65
2021-06-28 16:30:52.734375000,-64.0,2.5,12.5,78.97031249999999,-44.53,14.8524645,238.65
2021-06-28 16:30:52.742187500,-64.0,2.75,12.75,78.96765624999999,-42.83,14.85214425,238.65
2021-06-28 16:30:52.750000000,-64.0,3.0,13.0,78.965,-41.13,14.851824,238.65
2021-06-28 16:30:52.757812500,-64.0,2.75,13.0,78.96234375,-38.6,14.8518640625,238.65
2021-06-28 16:30:52.765625000,-64.0,2.5,13.0,78.9596875,-36.07,14.851904125,238.65
2021-06-28 16:30:52.773437500,-64.0,2.25,13.0,78.95703125,-32.935,14.851944187500001,238.65
2021-06-28 16:30:52.781250000,-64.0,2.0,13.0,78.954375,-29.8,14.851984250000001,238.65
2021-06-28 16:30:52.789062500,-64.0,2.0,12.75,78.95171875,-26.325000000000003,14.852024312500001,238.65
2021-06-28 16:30:52.796875000,-64.0,2.0,12.5,78.9490625,-22.85,14.852064375000001,238.65
2021-06-28 16:30:52.804687500,-64.0,2.0,12.25,78.94640625,-19.275,14.852104437500001,238.65
2021-06-28 16:30:52.812500000,-64.0,2.0,12.0,78.94375,-15.7,14.852144500000001,238.65
2021-06-28 16:30:52.820312500,-64.0,2.0,12.25,78.94109375,-12.195,14.8521845625,238.65
2021-06-28 16:30:52.828125000,-64.0,2.0,12.5,78.93843749999999,-8.69,14.852224625,238.65
2021-06-28 16:30:52.835937500,-64.0,2.0,12.75,78.93578124999999,-5.3549999999999995,14.8522646875,238.65
2021-06-28 16:30:52.843750000,-64.0,2.0,13.0,78.93312499999999,-2.02,14.85230475,238.65
2021-06-28 16:30:52.851562500,-64.0,2.0,13.0,78.93046875,1.1199999999999997,14.8523448125,238.65
2021-06-28 16:30:52.859375000,-64.0,2.0,13.0,78.9278125,4.26,14.852384875,238.65
2021-06-28 16:30:52.867187500,-64.0,2.0,13.0,78.92515625,7.175,14.8524249375,238.65
2021-06-28 16:30:52.875000000,-64.0,2.0,13.0,78.9225,10.09,14.852465,238.65
2021-06-28 16:30:52.882812500,-64.0,2.0,13.0,78.91984375,12.725,14.8525050625,238.65
2021-06-28 16:30:52.890625000,-64.0,2.0,13.0,78.9171875,15.36,14.852545125,238.65
2021-06-28 16:30:52.898437500,-64.0,2.0,13.0,78.91453125,17.585,14.8525851875,238.65
2021-06-28 16:30:52.906250000,-64.0,2.0,13.0,78.911875,19.81,14.852625250000001,238.65
2021-06-28 16:30:52.914062500,-64.0,2.0,13.0,78.90921875,21.485,14.852665312500001,238.65
2021-06-28 16:30:52.921875000,-64.0,2.0,13.0,78.90656249999999,23.16,14.852705375000001,238.65
2021-06-28 16:30:52.929687500,-64.0,2.0,13.0,78.90390624999999,24.205,14.852745437500001,238.65
2021-06-28 16:30:52.937500000,-64.0,2.0,13.0,78.90124999999999,25.25,14.8527855,238.65
2021-06-28 16:30:52.945312500,-64.25,2.0,12.75,78.89859374999999,25.705,14.8528255625,238.65
2021-06-28 16:30:52.953125000,-64.5,2.0,12.5,78.8959375,26.16,14.852865625,238.65
2021-06-28 16:30:52.960937500,-64.75,2.0,12.25,78.89328125,26.185000000000002,14.8529056875,238.65
2021-06-28 16:30:52.968750000,-65.0,2.0,12.0,78.890625,26.21,14.85294575,238.65
2021-06-28 16:30:52.976562500,-64.75,2.0,12.25,78.88796875,26.04,14.8529858125,238.65
2021-06-28 16:30:52.984375000,-64.5,2.0,12.5,78.8853125,25.87,14.853025875,238.65
2021-06-28 16:30:52.992187500,-64.25,2.0,12.75,78.88265625,25.695,14.8530659375,238.65
2021-06-28 16:30:53.000000000,-64.0,2.0,13.0,78.88,25.52,14.853106,238.65
2021-06-28 16:30:53.007812500,-64.0,2.0,12.75,78.877421875,25.415,14.852865781250001,238.65
2021-06-28 16:30:53.015625000,-64.0,2.0,12.5,78.87484375,25.31,14.8526255625,238.65
2021-06-28 16:30:53.023437500,-64.0,2.0,12.25,78.872265625,25.255,14.85238534375,238.65
2021-06-28 16:30:53.031250000,-64.0,2.0,12.0,78.8696875,25.2,14.852145125,238.65
2021-06-28 16:30:53.039062500,-64.0,2.25,12.0,78.867109375,25.11,14.85190490625,238.65
2021-06-28 16:30:53.046875000,-64.0,2.5,12.0,78.86453125,25.02,14.8516646875,238.65
2021-06-28 16:30:53.054687500,-64.0,2.75,12.0,78.861953125,24.865000000000002,14.85142446875,238.65
2021-06-28 16:30:53.062500000,-64.0,3.0,12.0,78.859375,24.71,14.85118425,238.65
2021-06-28 16:30:53.070312500,-64.0,3.0,12.25,78.856796875,24.515,14.85094403125,238.65
2021-06-28 16:30:53.078125000,-64.0,3.0,12.5,78.85421875,24.32,14.8507038125,238.65
2021-06-28 16:30:53.085937500,-64.0,3.0,12.75,78.851640625,24.189999999999998,14.85046359375,238.65
2021-06-28 16:30:53.093750000,-64.0,3.0,13.0,78.8490625,24.06,14.850223375,238.65
2021-06-28 16:30:53.101562500,-64.0,2.75,13.0,78.84648437499999,24.07,14.84998315625,238.65
2021-06-28 16:30:53.109375000,-64.0,2.5,13.0,78.84390624999999,24.08,14.8497429375,238.65
2021-06-28 16:30:53.117187500,-64.0,2.25,13.0,78.84132812499999,24.22,14.84950271875,238.65
2021-06-28 16:30:53.125000000,-64.0,2.0,13.0,78.83874999999999,24.36,14.8492625,238.65
2021-06-28 16:30:53.132812500,-64.0,2.0,13.0,78.83617187499999,24.494999999999997,14.84902228125,238.65
2021-06-28 16:30:53.140625000,-64.0,2.0,13.0,78.83359374999999,24.63,14.8487820625,238.65
2021-06-28 16:30:53.148437500,-64.0,2.0,13.0,78.83101562499999,24.564999999999998,14.84854184375,238.65
2021-06-28 16:30:53.156250000,-64.0,2.0,13.0,78.82843749999999,24.5,14.848301625,238.65
2021-06-28 16:30:53.164062500,-64.0,2.0,13.0,78.825859375,24.055,14.84806140625,238.65
2021-06-28 16:30:53.171875000,-64.0,2.0,13.0,78.82328125,23.61,14.8478211875,238.65
2021-06-28 16:30:53.179687500,-64.0,2.0,13.0,78.820703125,22.685000000000002,14.84758096875,238.65
2021-06-28 16:30:53.187500000,-64.0,2.0,13.0,78.818125,21.76,14.84734075,238.65
2021-06-28 16:30:53.195312500,-64.0,2.0,12.75,78.815546875,20.42,14.84710053125,238.65
2021-06-28 16:30:53.203125000,-64.0,2.0,12.5,78.81296875,19.08,14.8468603125,238.65
2021-06-28 16:30:53.210937500,-64.0,2.0,12.25,78.810390625,17.494999999999997,14.84662009375,238.65
2021-06-28 16:30:53.218750000,-64.0,2.0,12.0,78.8078125,15.91,14.846379875,238.65
2021-06-28 16:30:53.226562500,-64.0,2.0,12.0,78.805234375,14.285,14.84613965625,238.65
2021-06-28 16:30:53.234375000,-64.0,2.0,12.0,78.80265625,12.66,14.8458994375,238.65
2021-06-28 16:30:53.242187500,-64.0,2.0,12.0,78.800078125,11.155000000000001,14.845659218749999,238.65
2021-06-28 16:30:53.250000000,-64.0,2.0,12.0,78.7975,9.65,14.845419,238.65
2021-06-28 16:30:53.257812500,-64.0,2.0,12.0,78.794921875,8.34,14.84457834375,238.65
2021-06-28 16:30:53.265625000,-64.0,2.0,12.0,78.79234375,7.03,14.843737687499999,238.65
2021-06-28 16:30:53.273437500,-64.0,2.0,12.0,78.789765625,5.865,14.842897031249999,238.65
2021-06-28 16:30:53.281250000,-64.0,2.0,12.0,78.7871875,4.7,14.842056375,238.65
2021-06-28 16:30:53.289062500,-64.0,2.0,12.0,78.784609375,3.555,14.84121571875,238.65
2021-06-28 16:30:53.296875000,-64.0,2.0,12.0,78.78203125,2.41,14.8403750625,238.65
2021-06-28 16:30:53.304687500,-64.0,2.0,12.0,78.77945312499999,1.1400000000000001,14.83953440625,238.65
2021-06-28 16:30:53.312500000,-64.0,2.0,12.0,78.77687499999999,-0.13,14.83869375,238.65
2021-06-28 16:30:53.320312500,-64.0,2.0,12.0,78.77429687499999,-1.605,14.837853093749999,238.65
2021-06-28 16:30:53.328125000,-64.0,2.0,12.0,78.77171874999999,-3.08,14.8370124375,238.65
2021-06-28 16:30:53.335937500,-64.0,2.0,12.0,78.76914062499999,-4.775,14.83617178125,238.65
2021-06-28 16:30:53.343750000,-64.0,2.0,12.0,78.76656249999999,-6.47,14.835331125,238.65
2021-06-28 16:30:53.351562500,-64.0,2.0,12.0,78.76398437499999,-8.32,14.83449046875,238.65
2021-06-28 16:30:53.359375000,-64.0,2.0,12.0,78.76140625,-10.17,14.8336498125,238.65
2021-06-28 16:30:53.367187500,-64.0,2.0,12.0,78.758828125,-12.05,14.832809156249999,238.65
2021-06-28 16:30:53.375000000,-64.0,2.0,12.0,78.75625,-13.93,14.831968499999999,238.65
2021-06-28 16:30:53.382812500,-64.0,2.0,12.25,78.753671875,-15.695,14.83112784375,238.65
2021-06-28 16:30:53.390625000,-64.0,2.0,12.5,78.75109375,-17.46,14.8302871875,238.65
2021-06-28 16:30:53.398437500,-64.0,2.0,12.75,78.748515625,-19.005000000000003,14.82944653125,238.65
2021-06-28 16:30:53.406250000,-64.0,2.0,13.0,78.7459375,-20.55,14.828605875,238.65
2021-06-28 16:30:53.414062500,-64.0,2.0,12.75,78.743359375,-21.85,14.827765218749999,238.65
2021-06-28 16:30:53.421875000,-64.0,2.0,12.5,78.74078125,-23.15,14.826924562499999,238.65
2021-06-28 16:30:53.429687500,-64.0,2.0,12.25,78.738203125,-24.259999999999998,14.82608390625,238.65
2021-06-28 16:30:53.437500000,-64.0,2.0,12.0,78.735625,-25.37,14.82524325,238.65
2021-06-28 16:30:53.445312500,-64.0,2.0,12.0,78.733046875,-26.435000000000002,14.82440259375,238.65
2021-06-28 16:30:53.453125000,-64.0,2.0,12.0,78.73046875,-27.5,14.8235619375,238.65
2021-06-28 16:30:53.460937500,-64.0,2.0,12.0,78.727890625,-28.689999999999998,14.822721281249999,238.65
2021-06-28 16:30:53.468750000,-64.0,2.0,12.0,78.7253125,-29.88,14.821880624999999,238.65
2021-06-28 16:30:53.476562500,-64.0,2.0,12.0,78.722734375,-31.32,14.82103996875,238.65
2021-06-28 16:30:53.484375000,-64.0,2.0,12.0,78.72015625,-32.76,14.8201993125,238.65
2021-06-28 16:30:53.492187500,-64.0,2.0,12.0,78.717578125,-34.465,14.81935865625,238.65
2021-06-28 16:30:53.500000000,-64.0,2.0,12.0,78.715,-36.17,14.818518,238.65
2021-06-28 16:30:53.507812500,-64.0,2.25,12.25,78.71242187499999,-38.015,14.81827778125,238.65
2021-06-28 16:30:53.515625000,-64.0,2.5,12.5,78.70984374999999,-39.86,14.818037562499999,238.65
2021-06-28 16:30:53.523437500,-64.0,2.75,12.75,78.70726562499999,-41.58,14.81779734375,238.65
2021-06-28 16:30:53.531250000,-64.0,3.0,13.0,78.70468749999999,-43.3,14.817557124999999,238.65
2021-06-28 16:30:53.539062500,-64.0,2.75,12.75,78.70210937499999,-44.565,14.81731690625,238.65
2021-06-28 16:30:53.546875000,-64.0,2.5,12.5,78.69953124999999,-45.83,14.8170766875,238.65
2021-06-28 16:30:53.554687500,-64.0,2.25,12.25,78.696953125,-46.34,14.81683646875,238.65
2021-06-28 16:30:53.562500000,-64.0,2.0,12.0,78.694375,-46.85,14.81659625,238.65
2021-06-28 16:30:53.570312500,-64.0,2.0,12.25,78.691796875,-46.385000000000005,14.816356031249999,238.65
2021-06-28 16:30:53.578125000,-64.0,2.0,12.5,78.68921875,-45.92,14.8161158125,238.65
2021-06-28 16:30:53.585937500,-64.0,2.0,12.75,78.686640625,-44.435,14.81587559375,238.65
2021-06-28 16:30:53.593750000,-64.0,2.0,13.0,78.6840625,-42.95,14.815635375,238.65
2021-06-28 16:30:53.601562500,-64.0,2.0,12.75,78.681484375,-40.545,14.81539515625,238.65
2021-06-28 16:30:53.609375000,-64.0,2.0,12.5,78.67890625,-38.14,14.8151549375,238.65
2021-06-28 16:30:53.617187500,-64.0,2.0,12.25,78.676328125,-35.019999999999996,14.81491471875,238.65
2021-06-28 16:30:53.625000000,-64.0,2.0,12.0,78.67375,-31.9,14.814674499999999,238.65
2021-06-28 16:30:53.632812500,-64.0,2.0,12.0,78.671171875,-28.335,14.81443428125,238.65
2021-06-28 16:30:53.640625000,-64.0,2.0,12.0,78.66859375,-24.77,14.8141940625,238.65
2021-06-28 16:30:53.648437500,-64.0,2.0,12.0,78.666015625,-21.0,14.81395384375,238.65
2021-06-28 16:30:53.656250000,-64.0,2.0,12.0,78.6634375,-17.23,14.813713625,238.65
2021-06-28 16:30:53.664062500,-64.0,2.0,12.0,78.660859375,-13.435,14.813473406249999,238.65
2021-06-28 16:30:53.671875000,-64.0,2.0,12.0,78.65828125,-9.64,14.8132331875,238.65
2021-06-28 16:30:53.679687500,-64.0,2.0,12.0,78.655703125,-5.94,14.81299296875,238.65
2021-06-28 16:30:53.687500000,-64.0,2.0,12.0,78.653125,-2.24,14.81275275,238.65
2021-06-28 16:30:53.695312500,-64.0,2.0,12.0,78.650546875,1.255,14.81251253125,238.65
2021-06-28 16:30:53.703125000,-64.0,2.0,12.0,78.64796874999999,4.75,14.8122723125,238.65
2021-06-28 16:30:53.710937500,-64.0,2.0,12.0,78.64539062499999,7.96,14.81203209375,238.65
2021-06-28 16:30:53.718750000,-64.0,2.0,12.0,78.64281249999999,11.17,14.811791875,238.65
2021-06-28 16:30:53.726562500,-64.0,2.0,12.0,78.64023437499999,13.995000000000001,14.81155165625,238.65
2021-06-28 16:30:53.734375000,-64.0,2.0,12.0,78.63765624999999,16.82,14.8113114375,238.65
2021-06-28 16:30:53.742187500,-64.0,2.0,12.0,78.63507812499999,19.185000000000002,14.81107121875,238.65
2021-06-28 16:30:53.750000000,-64.0,2.0,12.0,78.6325,21.55,14.810831,238.65
2021-06-28 16:30:53.757812500,-64.0,2.0,12.0,78.629921875,23.42,14.81175175,238.65
2021-06-28 16:30:53.765625000,-64.0,2.0,12.0,78.62734375,25.29,14.8126725,238.65
2021-06-28 16:30:53.773437500,-64.0,2.0,12.0,78.624765625,26.689999999999998,14.81359325,238.65
2021-06-28 16:30:53.781250000,-64.0,2.0,12.0,78.6221875,28.09,14.814514,238.65
2021-06-28 16:30:53.789062500,-64.0,2.0,12.25,78.619609375,29.119999999999997,14.81543475,238.65
2021-06-28 16:30:53.796875000,-64.0,2.0,12.5,78.61703125,30.15,14.8163555,238.65
2021-06-28 16:30:53.804687500,-64.0,2.0,12.75,78.614453125,30.92,14.81727625,238.65
2021-06-28 16:30:53.812500000,-64.0,2.0,13.0,78.611875,31.69,14.818197,238.65
2021-06-28 16:30:53.820312500,-64.0,2.0,12.75,78.609296875,32.315,14.81911775,238.65
2021-06-28 16:30:53.828125000,-64.0,2.0,12.5,78.60671875,32.94,14.8200385,238.65
2021-06-28 16:30:53.835937500,-64.0,2.0,12.25,78.604140625,33.47,14.82095925,238.65
2021-06-28 16:30:53.843750000,-64.0,2.0,12.0,78.6015625,34.0,14.82188,238.65
2021-06-28 16:30:53.851562500,-64.0,2.0,12.0,78.598984375,34.42,14.82280075,238.65
2021-06-28 16:30:53.859375000,-64.0,2.0,12.0,78.59640625,34.84,14.8237215,238.65
2021-06-28 16:30:53.867187500,-64.0,2.0,12.0,78.593828125,35.115,14.82464225,238.65
2021-06-28 16:30:53.875000000,-64.0,2.0,12.0,78.59125,35.39,14.825562999999999,238.65
2021-06-28 16:30:53.882812500,-64.0,2.0,12.25,78.588671875,35.495000000000005,14.82648375,238.65
2021-06-28 16:30:53.890625000,-64.0,2.0,12.5,78.58609375,35.6,14.8274045,238.65
2021-06-28 16:30:53.898437500,-64.0,2.0,12.75,78.583515625,35.54,14.828325249999999,238.65
2021-06-28 16:30:53.906250000,-64.0,2.0,13.0,78.58093749999999,35.48,14.829246,238.65
2021-06-28 16:30:53.914062500,-64.0,2.25,13.0,78.57835937499999,35.31,14.83016675,238.65
2021-06-28 16:30:53.921875000,-64.0,2.5,13.0,78.57578124999999,35.14,14.831087499999999,238.65
2021-06-28 16:30:53.929687500,-64.0,2.75,13.0,78.57320312499999,34.93,14.83200825,238.65
2021-06-28 16:30:53.937500000,-64.0,3.0,13.0,78.57062499999999,34.72,14.832929,238.65
2021-06-28 16:30:53.945312500,-64.0,2.75,12.75,78.568046875,34.489999999999995,14.833849749999999,238.65
2021-06-28 16:30:53.953125000,-64.0,2.5,12.5,78.56546875,34.26,14.8347705,238.65
2021-06-28 16:30:53.960937500,-64.0,2.25,12.25,78.562890625,34.019999999999996,14.83569125,238.65
2021-06-28 16:30:53.968750000,-64.0,2.0,12.0,78.5603125,33.78,14.836611999999999,238.65
2021-06-28 16:30:53.976562500,-64.0,2.0,12.0,78.557734375,33.495000000000005,14.83753275,238.65
2021-06-28 16:30:53.984375000,-64.0,2.0,12.0,78.55515625,33.21,14.8384535,238.65
2021-06-28 16:30:53.992187500,-64.0,2.0,12.0,78.552578125,32.835,14.839374249999999,238.65
2021-06-28 16:30:54.000000000,-64.0,2.0,12.0,78.55,32.46,14.840295,238.65
2021-06-28 16:30:54.007812500,-64.0,2.0,12.25,78.54765625,31.965,14.83929421875,238.65
2021-06-28 16:30:54.015625000,-64.0,2.0,12.5,78.5453125,31.47,14.838293437499999,238.65
2021-06-28 16:30:54.023437500,-64.0,2.0,12.75,78.54296875,30.82,14.83729265625,238.65
2021-06-28 16:30:54.031250000,-64.0,2.0,13.0,78.54062499999999,30.17,14.836291874999999,238.65
2021-06-28 16:30:54.039062500,-64.0,2.25,13.0,78.53828125,29.32,14.83529109375,238.65
2021-06-28 16:30:54.046875000,-64.0,2.5,13.0,78.5359375,28.47,14.8342903125,238.65
2021-06-28 16:30:54.054687500,-64.0,2.75,13.0,78.53359375,27.384999999999998,14.83328953125,238.65
2021-06-28 16:30:54.062500000,-64.0,3.0,13.0,78.53125,26.3,14.83228875,238.65
2021-06-28 16:30:54.070312500,-64.0,2.75,12.75,78.52890624999999,24.98,14.831287968749999,238.65
2021-06-28 16:30:54.078125000,-64.0,2.5,12.5,78.5265625,23.66,14.8302871875,238.65
2021-06-28 16:30:54.085937500,-64.0,2.25,12.25,78.52421875,22.18,14.82928640625,238.65
2021-06-28 16:30:54.093750000,-64.0,2.0,12.0,78.521875,20.7,14.828285625,238.65
2021-06-28 16:30:54.101562500,-64.0,2.0,12.0,78.51953125,19.185000000000002,14.82728484375,238.65
2021-06-28 16:30:54.109375000,-64.0,2.0,12.0,78.51718749999999,17.67,14.8262840625,238.65
2021-06-28 16:30:54.117187500,-64.0,2.0,12.0,78.51484375,16.27,14.82528328125,238.65
2021-06-28 16:30:54.125000000,-64.0,2.0,12.0,78.5125,14.87,14.824282499999999,238.65
2021-06-28 16:30:54.132812500,-64.0,2.0,12.25,78.51015625,13.684999999999999,14.82328171875,238.65
2021-06-28 16:30:54.140625000,-64.0,2.0,12.5,78.5078125,12.5,14.8222809375,238.65
2021-06-28 16:30:54.148437500,-64.0,2.0,12.75,78.50546874999999,11.535,14.82128015625,238.65
2021-06-28 16:30:54.156250000,-64.0,2.0,13.0,78.503125,10.57,14.820279375,238.65
2021-06-28 16:30:54.164062500,-64.0,2.0,12.75,78.50078125,9.719999999999999,14.81927859375,238.65
2021-06-28 16:30:54.171875000,-64.0,2.0,12.5,78.4984375,8.87,14.8182778125,238.65
2021-06-28 16:30:54.179687500,-64.0,2.0,12.25,78.49609375,7.97,14.81727703125,238.65
2021-06-28 16:30:54.187500000,-64.0,2.0,12.0,78.49374999999999,7.07,14.81627625,238.65
2021-06-28 16:30:54.195312500,-64.0,2.0,12.0,78.49140625,5.985,14.81527546875,238.65
2021-06-28 16:30:54.203125000,-64.0,2.0,12.0,78.4890625,4.9,14.8142746875,238.65
2021-06-28 16:30:54.210937500,-64.0,2.0,12.0,78.48671875,3.59,14.81327390625,238.65
2021-06-28 16:30:54.218750000,-64.0,2.0,12.0,78.484375,2.28,14.812273125,238.65
2021-06-28 16:30:54.226562500,-64.0,2.0,12.0,78.48203124999999,0.79,14.81127234375,238.65
2021-06-28 16:30:54.234375000,-64.0,2.0,12.0,78.4796875,-0.7,14.8102715625,238.65
2021-06-28 16:30:54.242187500,-64.0,2.0,12.0,78.47734375,-2.2350000000000003,14.80927078125,238.65
2021-06-28 16:30:54.250000000,-64.0,2.0,12.0,78.475,-3.77,14.80827,238.65
2021-06-28 16:30:54.257812500,-64.0,2.0,12.0,78.47265625,-5.22,14.808069843750001,238.65
2021-06-28 16:30:54.265625000,-64.0,2.0,12.0,78.47031249999999,-6.67,14.8078696875,238.65
2021-06-28 16:30:54.273437500,-64.0,2.0,12.0,78.46796875,-7.96,14.80766953125,238.65
2021-06-28 16:30:54.281250000,-64.0,2.0,12.0,78.465625,-9.25,14.807469375,238.65
2021-06-28 16:30:54.289062500,-64.0,2.0,12.0,78.46328125,-10.365,14.807269218750001,238.65
2021-06-28 16:30:54.296875000,-64.0,2.0,12.0,78.4609375,-11.48,14.8070690625,238.65
2021-06-28 16:30:54.304687500,-64.0,2.0,12.0,78.45859374999999,-12.48,14.80686890625,238.65
2021-06-28 16:30:54.312500000,-64.0,2.0,12.0,78.45625,-13.48,14.80666875,238.65
2021-06-28 16:30:54.320312500,-64.0,2.0,12.0,78.45390625,-14.47,14.806468593750001,238.65
2021-06-28 16:30:54.328125000,-64.0,2.0,12.0,78.4515625,-15.46,14.8062684375,238.65
2021-06-28 16:30:54.335937500,-64.0,2.0,12.0,78.44921875,-16.53,14.806068281249999,238.65
2021-06-28 16:30:54.343750000,-64.0,2.0,12.0,78.44687499999999,-17.6,14.805868125,238.65
2021-06-28 16:30:54.351562500,-64.0,2.0,12.0,78.44453125,-18.82,14.80566796875,238.65
2021-06-28 16:30:54.359375000,-64.0,2.0,12.0,78.4421875,-20.04,14.8054678125,238.65
2021-06-28 16:30:54.367187500,-64.0,2.0,12.0,78.43984375,-21.455,14.805267656249999,238.65
2021-06-28 16:30:54.375000000,-64.0,2.0,12.0,78.4375,-22.87,14.8050675,238.65
2021-06-28 16:30:54.382812500,-64.0,2.0,12.0,78.43515624999999,-24.509999999999998,14.80486734375,238.65
2021-06-28 16:30:54.390625000,-64.0,2.0,12.0,78.4328125,-26.15,14.8046671875,238.65
2021-06-28 16:30:54.398437500,-64.0,2.0,12.0,78.43046875,-27.975,14.804467031249999,238.65
2021-06-28 16:30:54.406250000,-64.0,2.0,12.0,78.428125,-29.8,14.804266875,238.65
2021-06-28 16:30:54.414062500,-64.0,2.0,12.25,78.42578125,-31.674999999999997,14.80406671875,238.65
2021-06-28 16:30:54.421875000,-64.0,2.0,12.5,78.42343749999999,-33.55,14.8038665625,238.65
2021-06-28 16:30:54.429687500,-64.0,2.0,12.75,78.42109375,-35.224999999999994,14.803666406249999,238.65
2021-06-28 16:30:54.437500000,-64.0,2.0,13.0,78.41875,-36.9,14.80346625,238.65
2021-06-28 16:30:54.445312500,-64.0,2.0,12.75,78.41640625,-38.019999999999996,14.80326609375,238.65
2021-06-28 16:30:54.453125000,-64.0,2.0,12.5,78.4140625,-39.14,14.8030659375,238.65
2021-06-28 16:30:54.460937500,-64.0,2.0,12.25,78.41171874999999,-39.355000000000004,14.802865781249999,238.65
2021-06-28 16:30:54.468750000,-64.0,2.0,12.0,78.409375,-39.57,14.802665625,238.65
2021-06-28 16:30:54.476562500,-64.0,2.0,12.0,78.40703125,-38.665,14.80246546875,238.65
2021-06-28 16:30:54.484375000,-64.0,2.0,12.0,78.4046875,-37.76,14.8022653125,238.65
2021-06-28 16:30:54.492187500,-64.0,2.0,12.0,78.40234375,-35.75,14.802065156249999,238.65
2021-06-28 16:30:54.500000000,-64.0,2.0,12.0,78.4,-33.74,14.801865,238.65
2021-06-28 16:30:54.507812500,-64.0,2.0,12.25,78.39765625,-30.86,14.800463875,238.65
2021-06-28 16:30:54.515625000,-64.0,2.0,12.5,78.3953125,-27.98,14.79906275,238.65
2021-06-28 16:30:54.523437500,-64.0,2.0,12.75,78.39296875,-24.58,14.797661625,238.65
2021-06-28 16:30:54.531250000,-64.0,2.0,13.0,78.390625,-21.18,14.796260499999999,238.65
2021-06-28 16:30:54.539062500,-64.0,2.0,12.75,78.38828125,-17.605,14.794859375,238.65
2021-06-28 16:30:54.546875000,-64.0,2.0,12.5,78.3859375,-14.03,14.793458249999999,238.65
2021-06-28 16:30:54.554687500,-64.0,2.0,12.25,78.38359375,-10.515,14.792057125,238.65
2021-06-28 16:30:54.562500000,-64.0,2.0,12.0,78.38125,-7.0,14.790655999999998,238.65
2021-06-28 16:30:54.570312500,-64.0,2.25,12.25,78.37890625,-3.63,14.789254875,238.65
2021-06-28 16:30:54.578125000,-64.0,2.5,12.5,78.3765625,-0.26,14.78785375,238.65
2021-06-28 16:30:54.585937500,-64.0,2.75,12.75,78.37421875,2.9450000000000003,14.786452624999999,238.65
2021-06-28 16:30:54.593750000,-64.0,3.0,13.0,78.371875,6.15,14.7850515,238.65
2021-06-28 16:30:54.601562500,-64.0,2.75,12.75,78.36953125,9.135,14.783650374999999,238.65
2021-06-28 16:30:54.609375000,-64.0,2.5,12.5,78.3671875,12.12,14.78224925,238.65
2021-06-28 16:30:54.617187500,-64.0,2.25,12.25,78.36484375,14.754999999999999,14.780848124999999,238.65
2021-06-28 16:30:54.625000000,-64.0,2.0,12.0,78.3625,17.39,14.779447,238.65
2021-06-28 16:30:54.632812500,-64.0,2.25,12.0,78.36015625,19.490000000000002,14.778045875,238.65
2021-06-28 16:30:54.640625000,-64.0,2.5,12.0,78.3578125,21.59,14.776644749999999,238.65
2021-06-28 16:30:54.648437500,-64.0,2.75,12.0,78.35546875,22.97,14.775243625,238.65
2021-06-28 16:30:54.656250000,-64.0,3.0,12.0,78.353125,24.35,14.773842499999999,238.65
2021-06-28 16:30:54.664062500,-64.0,2.75,12.0,78.35078125,24.935000000000002,14.772441375,238.65
2021-06-28 16:30:54.671875000,-64.0,2.5,12.0,78.3484375,25.52,14.771040249999999,238.65
2021-06-28 16:30:54.679687500,-64.0,2.25,12.0,78.34609375,25.41,14.769639125,238.65
2021-06-28 16:30:54.687500000,-64.0,2.0,12.0,78.34375,25.3,14.768238,238.65
2021-06-28 16:30:54.695312500,-64.25,2.0,12.0,78.34140625,24.715,14.766836875,238.65
2021-06-28 16:30:54.703125000,-64.5,2.0,12.0,78.3390625,24.13,14.76543575,238.65
2021-06-28 16:30:54.710937500,-64.75,2.0,12.0,78.33671875,23.384999999999998,14.764034624999999,238.65
2021-06-28 16:30:54.718750000,-65.0,2.0,12.0,78.334375,22.64,14.7626335,238.65
2021-06-28 16:30:54.726562500,-64.5,2.0,12.25,78.33203125,22.0,14.761232374999999,238.65
2021-06-28 16:30:54.734375000,-64.0,2.0,12.5,78.3296875,21.36,14.75983125,238.65
2021-06-28 16:30:54.742187500,-63.5,2.0,12.75,78.32734375,20.994999999999997,14.758430124999999,238.65
2021-06-28 16:30:54.750000000,-63.0,2.0,13.0,78.325,20.63,14.757029,238.65
2021-06-28 16:30:54.757812500,-63.25,2.0,12.75,78.32265625,20.54,14.757229124999999,238.65
2021-06-28 16:30:54.765625000,-63.5,2.0,12.5,78.3203125,20.45,14.75742925,238.65
2021-06-28 16:30:54.773437500,-63.75,2.0,12.25,78.31796875,20.53,14.757629374999999,238.65
2021-06-28 16:30:54.781250000,-64.0,2.0,12.0,78.315625,20.61,14.7578295,238.65
2021-06-28 16:30:54.789062500,-64.0,2.0,12.0,78.31328125,20.71,14.758029624999999,238.65
2021-06-28 16:30:54.796875000,-64.0,2.0,12.0,78.3109375,20.81,14.75822975,238.65
2021-06-28 16:30:54.804687500,-64.0,2.0,12.0,78.30859375,20.845,14.758429875,238.65
2021-06-28 16:30:54.812500000,-64.0,2.0,12.0,78.30625,20.88,14.75863,238.65
2021-06-28 16:30:54.820312500,-63.75,2.0,12.25,78.30390625,20.84,14.758830125,238.65
2021-06-28 16:30:54.828125000,-63.5,2.0,12.5,78.3015625,20.8,14.759030249999999,238.65
2021-06-28 16:30:54.835937500,-63.25,2.0,12.75,78.29921875,20.740000000000002,14.759230375,238.65
2021-06-28 16:30:54.843750000,-63.0,2.0,13.0,78.296875,20.68,14.759430499999999,238.65
2021-06-28 16:30:54.851562500,-63.25,2.0,13.0,78.29453125,20.685000000000002,14.759630625,238.65
2021-06-28 16:30:54.859375000,-63.5,2.0,13.0,78.2921875,20.69,14.759830749999999,238.65
2021-06-28 16:30:54.867187500,-63.75,2.0,13.0,78.28984375,20.785,14.760030875,238.65
2021-06-28 16:30:54.875000000,-64.0,2.0,13.0,78.2875,20.88,14.760231,238.65
2021-06-28 16:30:54.882812500,-64.0,2.0,12.75,78.28515625,21.009999999999998,14.760431124999998,238.65
2021-06-28 16:30:54.890625000,-64.0,2.0,12.5,78.2828125,21.14,14.76063125,238.65
2021-06-28 16:30:54.898437500,-64.0,2.0,12.25,78.28046875,21.21,14.760831374999999,238.65
2021-06-28 16:30:54.906250000,-64.0,2.0,12.0,78.278125,21.28,14.7610315,238.65
2021-06-28 16:30:54.914062500,-64.0,2.0,12.0,78.27578125,21.165,14.761231624999999,238.65
2021-06-28 16:30:54.921875000,-64.0,2.0,12.0,78.2734375,21.05,14.76143175,238.65
2021-06-28 16:30:54.929687500,-64.0,2.0,12.0,78.27109375,20.695,14.761631874999999,238.65
2021-06-28 16:30:54.937500000,-64.0,2.0,12.0,78.26875,20.34,14.761831999999998,238.65
2021-06-28 16:30:54.945312500,-64.0,2.0,12.0,78.26640625,19.725,14.762032125,238.65
2021-06-28 16:30:54.953125000,-64.0,2.0,12.0,78.2640625,19.11,14.762232249999999,238.65
2021-06-28 16:30:54.960937500,-64.0,2.0,12.0,78.26171875,18.295,14.762432375,238.65
2021-06-28 16:30:54.968750000,-64.0,2.0,12.0,78.259375,17.48,14.762632499999999,238.65
2021-06-28 16:30:54.976562500,-64.0,2.0,12.0,78.25703125,16.57,14.762832625,238.65
2021-06-28 16:30:54.984375000,-64.0,2.0,12.0,78.2546875,15.66,14.763032749999999,238.65
2021-06-28 16:30:54.992187500,-64.0,2.0,12.0,78.25234375,14.76,14.763232875,238.65
2021-06-28 16:30:55.000000000,-64.0,2.0,12.0,78.25,13.86,14.763433,238.65
2021-06-28 16:30:55.007812500,-64.0,2.0,12.0,78.24765625,13.065,14.763312906249999,238.65
2021-06-28 16:30:55.015625000,-64.0,2.0,12.0,78.2453125,12.27,14.7631928125,238.65
2021-06-28 16:30:55.023437500,-64.0,2.0,12.0,78.24296875,11.594999999999999,14.76307271875,238.65
2021-06-28 16:30:55.031250000,-64.0,2.0,12.0,78.240625,10.92,14.762952624999999,238.65
2021-06-28 16:30:55.039062500,-64.0,2.0,12.25,78.23828125,10.295,14.76283253125,238.65
2021-06-28 16:30:55.046875000,-64.0,2.0,12.5,78.2359375,9.67,14.7627124375,238.65
2021-06-28 16:30:55.054687500,-64.0,2.0,12.75,78.23359375,8.969999999999999,14.762592343749999,238.65
2021-06-28 16:30:55.062500000,-64.0,2.0,13.0,78.23125,8.27,14.762472249999998,238.65
2021-06-28 16:30:55.070312500,-64.0,2.25,12.75,78.22890625,7.375,14.76235215625,238.65
2021-06-28 16:30:55.078125000,-64.0,2.5,12.5,78.2265625,6.48,14.762232062499999,238.65
2021-06-28 16:30:55.085937500,-64.0,2.75,12.25,78.22421875,5.36,14.762111968749998,238.65
2021-06-28 16:30:55.093750000,-64.0,3.0,12.0,78.221875,4.24,14.761991875,238.65
2021-06-28 16:30:55.101562500,-64.0,2.75,12.0,78.21953125,2.97,14.761871781249999,238.65
2021-06-28 16:30:55.109375000,-64.0,2.5,12.0,78.2171875,1.7,14.761751687499999,238.65
2021-06-28 16:30:55.117187500,-64.0,2.25,12.0,78.21484375,0.42999999999999994,14.76163159375,238.65
2021-06-28 16:30:55.125000000,-64.0,2.0,12.0,78.2125,-0.84,14.7615115,238.65
2021-06-28 16:30:55.132812500,-64.0,2.0,12.0,78.21015625,-1.9700000000000002,14.761391406249999,238.65
2021-06-28 16:30:55.140625000,-64.0,2.0,12.0,78.2078125,-3.1,14.7612713125,238.65
2021-06-28 16:30:55.148437500,-64.0,2.0,12.0,78.20546875,-4.055,14.76115121875,238.65
2021-06-28 16:30:55.156250000,-64.0,2.0,12.0,78.203125,-5.01,14.761031124999999,238.65
2021-06-28 16:30:55.164062500,-64.0,2.0,12.0,78.20078125,-5.84,14.76091103125,238.65
2021-06-28 16:30:55.171875000,-64.0,2.0,12.0,78.1984375,-6.67,14.7607909375,238.65
2021-06-28 16:30:55.179687500,-64.0,2.0,12.0,78.19609375,-7.525,14.760670843749999,238.65
2021-06-28 16:30:55.187500000,-64.0,2.0,12.0,78.19375,-8.38,14.76055075,238.65
2021-06-28 16:30:55.195312500,-64.0,2.0,12.25,78.19140625,-9.395,14.76043065625,238.65
2021-06-28 16:30:55.203125000,-64.0,2.0,12.5,78.1890625,-10.41,14.760310562499999,238.65
2021-06-28 16:30:55.210937500,-64.0,2.0,12.75,78.18671875,-11.67,14.760190468749999,238.65
2021-06-28 16:30:55.218750000,-64.0,2.0,13.0,78.184375,-12.93,14.760070375,238.65
2021-06-28 16:30:55.226562500,-64.0,2.0,13.0,78.18203125,-14.44,14.75995028125,238.65
2021-06-28 16:30:55.234375000,-64.0,2.0,13.0,78.1796875,-15.95,14.759830187499999,238.65
2021-06-28 16:30:55.242187500,-64.0,2.0,13.0,78.17734375,-17.705,14.75971009375,238.65
2021-06-28 16:30:55.250000000,-64.0,2.0,13.0,78.175,-19.46,14.75959,238.65
2021-06-28 16:30:55.257812500,-64.0,2.0,12.75,78.17265625,-21.415,14.75954996875,238.65
2021-06-28 16:30:55.265625000,-64.0,2.0,12.5,78.1703125,-23.37,14.759509937499999,238.65
2021-06-28 16:30:55.273437500,-64.0,2.0,12.25,78.16796875,-25.475,14.759469906249999,238.65
2021-06-28 16:30:55.281250000,-64.0,2.0,12.0,78.165625,-27.58,14.759429874999999,238.65
2021-06-28 16:30:55.289062500,-64.0,2.0,12.25,78.16328125,-29.67,14.75938984375,238.65
2021-06-28 16:30:55.296875000,-64.0,2.0,12.5,78.1609375,-31.76,14.7593498125,238.65
2021-06-28 16:30:55.304687500,-64.0,2.0,12.75,78.15859375,-33.550000000000004,14.75930978125,238.65
2021-06-28 16:30:55.312500000,-64.0,2.0,13.0,78.15625,-35.34,14.75926975,238.65
2021-06-28 16:30:55.320312500,-64.0,2.0,12.75,78.15390625,-36.455,14.75922971875,238.65
2021-06-28 16:30:55.328125000,-64.0,2.0,12.5,78.1515625,-37.57,14.7591896875,238.65
2021-06-28 16:30:55.335937500,-64.0,2.0,12.25,78.14921875,-37.66,14.759149656249999,238.65
2021-06-28 16:30:55.343750000,-64.0,2.0,12.0,78.146875,-37.75,14.759109625,238.65
2021-06-28 16:30:55.351562500,-64.0,2.0,12.0,78.14453125,-36.675,14.75906959375,238.65
2021-06-28 16:30:55.359375000,-64.0,2.0,12.0,78.1421875,-35.6,14.7590295625,238.65
2021-06-28 16:30:55.367187500,-64.0,2.0,12.0,78.13984375,-33.46,14.75898953125,238.65
2021-06-28 16:30:55.375000000,-64.0,2.0,12.0,78.1375,-31.32,14.7589495,238.65
2021-06-28 16:30:55.382812500,-64.0,2.0,12.0,78.13515625,-28.47,14.75890946875,238.65
2021-06-28 16:30:55.390625000,-64.0,2.0,12.0,78.1328125,-25.62,14.7588694375,238.65
2021-06-28 16:30:55.398437500,-64.0,2.0,12.0,78.13046875,-22.495,14.75882940625,238.65
2021-06-28 16:30:55.406250000,-64.0,2.0,12.0,78.128125,-19.37,14.758789375,238.65
2021-06-28 16:30:55.414062500,-64.0,2.0,12.0,78.12578125,-16.345,14.75874934375,238.65
2021-06-28 16:30:55.421875000,-64.0,2.0,12.0,78.1234375,-13.32,14.7587093125,238.65
2021-06-28 16:30:55.429687500,-64.0,2.0,12.0,78.12109375,-10.58,14.75866928125,238.65
2021-06-28 16:30:55.437500000,-64.0,2.0,12.0,78.11875,-7.84,14.75862925,238.65
2021-06-28 16:30:55.445312500,-64.0,2.0,12.0,78.11640625,-5.41,14.75858921875,238.65
2021-06-28 16:30:55.453125000,-64.0,2.0,12.0,78.1140625,-2.98,14.7585491875,238.65
2021-06-28 16:30:55.460937500,-64.0,2.0,12.0,78.11171875,-0.79,14.75850915625,238.65
2021-06-28 16:30:55.468750000,-64.0,2.0,12.0,78.109375,1.4,14.758469125000001,238.65
2021-06-28 16:30:55.476562500,-64.0,2.0,12.0,78.10703125,3.3899999999999997,14.758429093750001,238.65
2021-06-28 16:30:55.484375000,-64.0,2.0,12.0,78.1046875,5.38,14.758389062500001,238.65
2021-06-28 16:30:55.492187500,-64.0,2.0,12.0,78.10234375,7.140000000000001,14.75834903125,238.65
2021-06-28 16:30:55.500000000,-64.0,2.0,12.0,78.1,8.9,14.758309,238.65
2021-06-28 16:30:55.507812500,-64.0,2.0,12.0,78.09765625,10.33,14.758068843750001,238.65
2021-06-28 16:30:55.515625000,-64.0,2.0,12.0,78.0953125,11.76,14.7578286875,238.65
2021-06-28 16:30:55.523437500,-64.0,2.0,12.0,78.09296875,12.77,14.75758853125,238.65
2021-06-28 16:30:55.531250000,-64.0,2.0,12.0,78.090625,13.78,14.757348375000001,238.65
2021-06-28 16:30:55.539062500,-64.0,2.0,12.25,78.08828125000001,14.344999999999999,14.75710821875,238.65
2021-06-28 16:30:55.546875000,-64.0,2.0,12.5,78.0859375,14.91,14.7568680625,238.65
2021-06-28 16:30:55.554687500,-64.0,2.0,12.75,78.08359375,15.1,14.756627906250001,238.65
2021-06-28 16:30:55.562500000,-64.0,2.0,13.0,78.08125,15.29,14.75638775,238.65
2021-06-28 16:30:55.570312500,-64.0,2.0,12.75,78.07890625,15.23,14.75614759375,238.65
2021-06-28 16:30:55.578125000,-64.0,2.0,12.5,78.07656250000001,15.17,14.755907437500001,238.65
2021-06-28 16:30:55.585937500,-64.0,2.0,12.25,78.07421875,14.995000000000001,14.75566728125,238.65
2021-06-28 16:30:55.593750000,-64.0,2.0,12.0,78.071875,14.82,14.755427125,238.65
2021-06-28 16:30:55.601562500,-64.0,2.0,12.0,78.06953125,14.61,14.755186968750001,238.65
2021-06-28 16:30:55.609375000,-64.0,2.0,12.0,78.0671875,14.4,14.7549468125,238.65
2021-06-28 16:30:55.617187500,-64.0,2.0,12.0,78.06484375000001,14.2,14.75470665625,238.65
2021-06-28 16:30:55.625000000,-64.0,2.0,12.0,78.0625,14.0,14.7544665,238.65
2021-06-28 16:30:55.632812500,-64.0,2.0,12.0,78.06015625,13.815000000000001,14.75422634375,238.65
2021-06-28 16:30:55.640625000,-64.0,2.0,12.0,78.0578125,13.63,14.7539861875,238.65
2021-06-28 16:30:55.648437500,-64.0,2.0,12.0,78.05546875,13.46,14.75374603125,238.65
2021-06-28 16:30:55.656250000,-64.0,2.0,12.0,78.05312500000001,13.29,14.753505875,238.65
2021-06-28 16:30:55.664062500,-64.0,2.0,12.0,78.05078125,13.12,14.75326571875,238.65
2021-06-28 16:30:55.671875000,-64.0,2.0,12.0,78.0484375,12.95,14.7530255625,238.65
2021-06-28 16:30:55.679687500,-64.0,2.0,12.0,78.04609375,12.79,14.75278540625,238.65
2021-06-28 16:30:55.687500000,-64.0,2.0,12.0,78.04375,12.63,14.75254525,238.65
2021-06-28 16:30:55.695312500,-64.0,2.0,12.0,78.04140625000001,12.465,14.75230509375,238.65
2021-06-28 16:30:55.703125000,-64.0,2.0,12.0,78.0390625,12.3,14.7520649375,238.65
2021-06-28 16:30:55.710937500,-64.0,2.0,12.0,78.03671875,12.100000000000001,14.75182478125,238.65
2021-06-28 16:30:55.718750000,-64.0,2.0,12.0,78.034375,11.9,14.751584625,238.65
2021-06-28 16:30:55.726562500,-64.0,2.0,12.25,78.03203125,11.620000000000001,14.75134446875,238.65
2021-06-28 16:30:55.734375000,-64.0,2.0,12.5,78.02968750000001,11.34,14.7511043125,238.65
2021-06-28 16:30:55.742187500,-64.0,2.0,12.75,78.02734375,10.955,14.75086415625,238.65
2021-06-28 16:30:55.750000000,-64.0,2.0,13.0,78.025,10.57,14.750624,238.65
2021-06-28 16:30:55.757812500,-64.0,2.0,12.75,78.02265625,10.055,14.75070403125,238.65
2021-06-28 16:30:55.765625000,-64.0,2.0,12.5,78.0203125,9.54,14.7507840625,238.65
2021-06-28 16:30:55.773437500,-64.0,2.0,12.25,78.01796875000001,8.91,14.75086409375,238.65
2021-06-28 16:30:55.781250000,-64.0,2.0,12.0,78.015625,8.28,14.750944125,238.65
2021-06-28 16:30:55.789062500,-64.0,2.0,12.25,78.01328125,7.574999999999999,14.75102415625,238.65
2021-06-28 16:30:55.796875000,-64.0,2.0,12.5,78.0109375,6.87,14.751104187500001,238.65
2021-06-28 16:30:55.804687500,-64.0,2.0,12.75,78.00859375,6.13,14.75118421875,238.65
2021-06-28 16:30:55.812500000,-64.0,2.0,13.0,78.00625000000001,5.39,14.75126425,238.65
2021-06-28 16:30:55.820312500,-64.0,2.0,12.75,78.00390625,4.645,14.75134428125,238.65
2021-06-28 16:30:55.828125000,-64.0,2.0,12.5,78.0015625,3.9,14.7514243125,238.65
2021-06-28 16:30:55.835937500,-64.0,2.0,12.25,77.99921875,3.15,14.75150434375,238.65
2021-06-28 16:30:55.843750000,-64.0,2.0,12.0,77.996875,2.4,14.751584375,238.65
2021-06-28 16:30:55.851562500,-64.0,2.0,12.25,77.99453125000001,1.65,14.75166440625,238.65
2021-06-28 16:30:55.859375000,-64.0,2.0,12.5,77.9921875,0.9,14.751744437500001,238.65
2021-06-28 16:30:55.867187500,-64.0,2.0,12.75,77.98984375,0.17499999999999993,14.75182446875,238.65
2021-06-28 16:30:55.875000000,-64.0,2.0,13.0,77.9875,-0.55,14.7519045,238.65
2021-06-28 16:30:55.882812500,-64.0,2.0,12.75,77.98515625,-1.21,14.75198453125,238.65
2021-06-28 16:30:55.890625000,-64.0,2.0,12.5,77.98281250000001,-1.87,14.7520645625,238.65
2021-06-28 16:30:55.898437500,-64.0,2.0,12.25,77.98046875,-2.415,14.75214459375,238.65
2021-06-28 16:30:55.906250000,-64.0,2.0,12.0,77.978125,-2.96,14.752224625,238.65
2021-06-28 16:30:55.914062500,-64.0,2.0,12.25,77.97578125,-3.365,14.75230465625,238.65
2021-06-28 16:30:55.921875000,-64.0,2.0,12.5,77.9734375,-3.77,14.752384687500001,238.65
2021-06-28 16:30:55.929687500,-64.0,2.0,12.75,77.97109375000001,-4.08,14.75246471875,238.65
2021-06-28 16:30:55.937500000,-64.0,2.0,13.0,77.96875,-4.39,14.75254475,238.65
2021-06-28 16:30:55.945312500,-64.0,2.0,12.75,77.96640625,-4.695,14.75262478125,238.65
2021-06-28 16:30:55.953125000,-64.0,2.0,12.5,77.9640625,-5.0,14.7527048125,238.65
2021-06-28 16:30:55.960937500,-64.0,2.0,12.25,77.96171875,-5.43,14.75278484375,238.65
2021-06-28 16:30:55.968750000,-64.0,2.0,12.0,77.95937500000001,-5.86,14.752864875,238.65
2021-06-28 16:30:55.976562500,-64.0,2.0,12.0,77.95703125,-6.495,14.75294490625,238.65
2021-06-28 16:30:55.984375000,-64.0,2.0,12.0,77.9546875,-7.13,14.753024937500001,238.65
2021-06-28 16:30:55.992187500,-64.0,2.0,12.0,77.95234375,-7.984999999999999,14.75310496875,238.65
2021-06-28 16:30:56.000000000,-64.0,2.0,12.0,77.95,-8.84,14.753185,238.65
2021-06-28 16:30:56.007812500,-64.0,2.0,12.0,77.94765625000001,-9.855,14.7524644375,238.65
2021-06-28 16:30:56.015625000,-64.0,2.0,12.0,77.9453125,-10.87,14.751743875,238.65
2021-06-28 16:30:56.023437500,-64.0,2.0,12.0,77.94296875,-11.969999999999999,14.751023312500001,238.65
2021-06-28 16:30:56.031250000,-64.0,2.0,12.0,77.940625,-13.07,14.75030275,238.65
2021-06-28 16:30:56.039062500,-64.0,2.0,12.25,77.93828125,-14.219999999999999,14.7495821875,238.65
2021-06-28 16:30:56.046875000,-64.0,2.0,12.5,77.93593750000001,-15.37,14.748861625,238.65
2021-06-28 16:30:56.054687500,-64.0,2.0,12.75,77.93359375,-16.575,14.7481410625,238.65
2021-06-28 16:30:56.062500000,-64.0,2.0,13.0,77.93125,-17.78,14.7474205,238.65
2021-06-28 16:30:56.070312500,-64.0,2.0,12.75,77.92890625,-19.07,14.7466999375,238.65
2021-06-28 16:30:56.078125000,-64.0,2.0,12.5,77.9265625,-20.36,14.745979375,238.65
2021-06-28 16:30:56.085937500,-64.0,2.0,12.25,77.92421875000001,-21.665,14.7452588125,238.65
2021-06-28 16:30:56.093750000,-64.0,2.0,12.0,77.921875,-22.97,14.74453825,238.65
2021-06-28 16:30:56.101562500,-64.0,2.0,12.0,77.91953125,-24.1,14.7438176875,238.65
2021-06-28 16:30:56.109375000,-64.0,2.0,12.0,77.9171875,-25.23,14.743097125,238.65
2021-06-28 16:30:56.117187500,-64.0,2.0,12.0,77.91484375,-25.884999999999998,14.7423765625,238.65
2021-06-28 16:30:56.125000000,-64.0,2.0,12.0,77.91250000000001,-26.54,14.741655999999999,238.65
2021-06-28 16:30:56.132812500,-64.0,2.25,12.0,77.91015625,-26.42,14.7409354375,238.65
2021-06-28 16:30:56.140625000,-64.0,2.5,12.0,77.9078125,-26.3,14.740214875,238.65
2021-06-28 16:30:56.148437500,-64.0,2.75,12.0,77.90546875,-25.22,14.7394943125,238.65
2021-06-28 16:30:56.156250000,-64.0,3.0,12.0,77.903125,-24.14,14.73877375,238.65
2021-06-28 16:30:56.164062500,-64.0,2.75,12.25,77.90078125000001,-22.165,14.7380531875,238.65
2021-06-28 16:30:56.171875000,-64.0,2.5,12.5,77.8984375,-20.19,14.737332625,238.65
2021-06-28 16:30:56.179687500,-64.0,2.25,12.75,77.89609375,-17.57,14.736612062499999,238.65
2021-06-28 16:30:56.187500000,-64.0,2.0,13.0,77.89375,-14.95,14.7358915,238.65
2021-06-28 16:30:56.195312500,-64.0,2.0,12.75,77.89140625,-12.045,14.7351709375,238.65
2021-06-28 16:30:56.203125000,-64.0,2.0,12.5,77.88906250000001,-9.14,14.734450375,238.65
2021-06-28 16:30:56.210937500,-64.0,2.0,12.25,77.88671875,-6.255000000000001,14.7337298125,238.65
2021-06-28 16:30:56.218750000,-64.0,2.0,12.0,77.884375,-3.37,14.73300925,238.65
2021-06-28 16:30:56.226562500,-64.0,2.0,12.0,77.88203125,-0.6950000000000003,14.732288687499999,238.65
2021-06-28 16:30:56.234375000,-64.0,2.0,12.0,77.8796875,1.98,14.731568124999999,238.65
2021-06-28 16:30:56.242187500,-64.0,2.0,12.0,77.87734375000001,4.385,14.7308475625,238.65
2021-06-28 16:30:56.250000000,-64.0,2.0,12.0,77.875,6.79,14.730127,238.65
2021-06-28 16:30:56.257812500,-64.0,2.0,12.0,77.87265625,8.895,14.7302070625,238.65
2021-06-28 16:30:56.265625000,-64.0,2.0,12.0,77.8703125,11.0,14.730287125,238.65
2021-06-28 16:30:56.273437500,-64.0,2.0,12.0,77.86796875,12.74,14.730367187499999,238.65
2021-06-28 16:30:56.281250000,-64.0,2.0,12.0,77.86562500000001,14.48,14.73044725,238.65
2021-06-28 16:30:56.289062500,-64.0,2.0,12.0,77.86328125,15.72,14.7305273125,238.65
2021-06-28 16:30:56.296875000,-64.0,2.0,12.0,77.8609375,16.96,14.730607375,238.65
2021-06-28 16:30:56.304687500,-64.0,2.0,12.0,77.85859375,17.59,14.7306874375,238.65
2021-06-28 16:30:56.312500000,-64.0,2.0,12.0,77.85625,18.22,14.730767499999999,238.65
2021-06-28 16:30:56.320312500,-64.0,2.0,12.0,77.85390625000001,18.244999999999997,14.7308475625,238.65
2021-06-28 16:30:56.328125000,-64.0,2.0,12.0,77.8515625,18.27,14.730927625,238.65
2021-06-28 16:30:56.335937500,-64.0,2.0,12.0,77.84921875,17.855,14.7310076875,238.65
2021-06-28 16:30:56.343750000,-64.0,2.0,12.0,77.846875,17.44,14.73108775,238.65
2021-06-28 16:30:56.351562500,-64.0,2.25,12.0,77.84453125,16.86,14.7311678125,238.65
2021-06-28 16:30:56.359375000,-64.0,2.5,12.0,77.84218750000001,16.28,14.731247875,238.65
2021-06-28 16:30:56.367187500,-64.0,2.75,12.0,77.83984375,15.815000000000001,14.7313279375,238.65
2021-06-28 16:30:56.375000000,-64.0,3.0,12.0,77.8375,15.35,14.731408,238.65
2021-06-28 16:30:56.382812500,-64.0,2.75,12.0,77.83515625,15.19,14.7314880625,238.65
2021-06-28 16:30:56.390625000,-64.0,2.5,12.0,77.8328125,15.03,14.731568125,238.65
2021-06-28 16:30:56.398437500,-64.0,2.25,12.0,77.83046875000001,15.19,14.7316481875,238.65
2021-06-28 16:30:56.406250000,-64.0,2.0,12.0,77.828125,15.35,14.73172825,238.65
2021-06-28 16:30:56.414062500,-64.0,2.0,12.25,77.82578125,15.715,14.7318083125,238.65
2021-06-28 16:30:56.421875000,-64.0,2.0,12.5,77.8234375,16.08,14.731888375,238.65
2021-06-28 16:30:56.429687500,-64.0,2.0,12.75,77.82109375,16.49,14.7319684375,238.65
2021-06-28 16:30:56.437500000,-64.0,2.0,13.0,77.81875000000001,16.9,14.732048500000001,238.65
2021-06-28 16:30:56.445312500,-64.0,2.0,12.75,77.81640625,17.189999999999998,14.7321285625,238.65
2021-06-28 16:30:56.453125000,-64.0,2.0,12.5,77.8140625,17.48,14.732208625,238.65
2021-06-28 16:30:56.460937500,-64.0,2.0,12.25,77.81171875,17.545,14.7322886875,238.65
2021-06-28 16:30:56.468750000,-64.0,2.0,12.0,77.809375,17.61,14.732368750000001,238.65
2021-06-28 16:30:56.476562500,-64.0,2.25,12.0,77.80703125000001,17.39,14.732448812500001,238.65
2021-06-28 16:30:56.484375000,-64.0,2.5,12.0,77.8046875,17.17,14.732528875,238.65
2021-06-28 16:30:56.492187500,-64.0,2.75,12.0,77.80234375,16.655,14.7326089375,238.65
2021-06-28 16:30:56.500000000,-64.0,3.0,12.0,77.80000000000001,16.14,14.732689,238.65
2021-06-28 16:30:56.507812500,-64.0,2.75,12.25,77.79765625,15.36,14.7315280625,238.65
2021-06-28 16:30:56.515625000,-64.0,2.5,12.5,77.79531250000001,14.58,14.730367125,238.65
2021-06-28 16:30:56.523437500,-64.0,2.25,12.75,77.79296875,13.605,14.7292061875,238.65
2021-06-28 16:30:56.531250000,-64.0,2.0,13.0,77.790625,12.63,14.728045250000001,238.65
2021-06-28 16:30:56.539062500,-64.0,2.0,12.75,77.78828125000001,11.555,14.726884312500001,238.65
2021-06-28 16:30:56.546875000,-64.0,2.0,12.5,77.7859375,10.48,14.725723375000001,238.65
2021-06-28 16:30:56.554687500,-64.0,2.0,12.25,77.78359375000001,9.425,14.724562437500001,238.65
2021-06-28 16:30:56.562500000,-64.0,2.0,12.0,77.78125,8.37,14.723401500000001,238.65
2021-06-28 16:30:56.570312500,-64.25,2.0,12.0,77.77890625,7.43,14.7222405625,238.65
2021-06-28 16:30:56.578125000,-64.5,2.0,12.0,77.77656250000001,6.49,14.721079625,238.65
2021-06-28 16:30:56.585937500,-64.75,2.0,12.0,77.77421875,5.71,14.7199186875,238.65
2021-06-28 16:30:56.593750000,-65.0,2.0,12.0,77.77187500000001,4.93,14.71875775,238.65
2021-06-28 16:30:56.601562500,-64.75,2.0,12.0,77.76953125,4.29,14.7175968125,238.65
2021-06-28 16:30:56.609375000,-64.5,2.0,12.0,77.7671875,3.65,14.716435875,238.65
2021-06-28 16:30:56.617187500,-64.25,2.0,12.0,77.76484375000001,3.065,14.7152749375,238.65
2021-06-28 16:30:56.625000000,-64.0,2.0,12.0,77.7625,2.48,14.714114,238.65
2021-06-28 16:30:56.632812500,-64.0,2.0,12.25,77.76015625000001,1.845,14.7129530625,238.65
2021-06-28 16:30:56.640625000,-64.0,2.0,12.5,77.7578125,1.21,14.711792125,238.65
2021-06-28 16:30:56.648437500,-64.0,2.0,12.75,77.75546875,0.4099999999999999,14.7106311875,238.65
2021-06-28 16:30:56.656250000,-64.0,2.0,13.0,77.75312500000001,-0.39,14.70947025,238.65
2021-06-28 16:30:56.664062500,-64.0,2.0,12.75,77.75078125,-1.415,14.7083093125,238.65
2021-06-28 16:30:56.671875000,-64.0,2.0,12.5,77.74843750000001,-2.44,14.707148375000001,238.65
2021-06-28 16:30:56.679687500,-64.0,2.0,12.25,77.74609375,-3.715,14.705987437500001,238.65
2021-06-28 16:30:56.687500000,-64.0,2.0,12.0,77.74375,-4.99,14.7048265,238.65
2021-06-28 16:30:56.695312500,-64.25,2.0,12.0,77.74140625000001,-6.49,14.7036655625,238.65
2021-06-28 16:30:56.703125000,-64.5,2.0,12.0,77.7390625,-7.99,14.702504625,238.65
2021-06-28 16:30:56.710937500,-64.75,2.0,12.0,77.73671875000001,-9.655000000000001,14.7013436875,238.65
2021-06-28 16:30:56.718750000,-65.0,2.0,12.0,77.734375,-11.32,14.70018275,238.65
2021-06-28 16:30:56.726562500,-64.75,2.0,12.0,77.73203125,-13.05,14.6990218125,238.65
2021-06-28 16:30:56.734375000,-64.5,2.0,12.0,77.72968750000001,-14.78,14.697860875,238.65
2021-06-28 16:30:56.742187500,-64.25,2.0,12.0,77.72734375,-16.509999999999998,14.6966999375,238.65
2021-06-28 16:30:56.750000000,-64.0,2.0,12.0,77.72500000000001,-18.24,14.695539,238.65
2021-06-28 16:30:56.757812500,-64.0,2.0,12.0,77.72265625,-19.939999999999998,14.6963796875,238.65
2021-06-28 16:30:56.765625000,-64.0,2.0,12.0,77.7203125,-21.64,14.697220375,238.65
2021-06-28 16:30:56.773437500,-64.0,2.0,12.0,77.71796875000001,-23.310000000000002,14.6980610625,238.65
2021-06-28 16:30:56.781250000,-64.0,2.0,12.0,77.715625,-24.98,14.698901750000001,238.65
2021-06-28 16:30:56.789062500,-64.0,2.0,12.25,77.71328125000001,-26.675,14.6997424375,238.65
2021-06-28 16:30:56.796875000,-64.0,2.0,12.5,77.7109375,-28.37,14.700583125,238.65
2021-06-28 16:30:56.804687500,-64.0,2.0,12.75,77.70859375,-30.130000000000003,14.7014238125,238.65
2021-06-28 16:30:56.812500000,-64.0,2.0,13.0,77.70625000000001,-31.89,14.7022645,238.65
2021-06-28 16:30:56.820312500,-64.0,2.0,12.75,77.70390625,-33.72,14.7031051875,238.65
2021-06-28 16:30:56.828125000,-64.0,2.0,12.5,77.70156250000001,-35.55,14.703945875,238.65
2021-06-28 16:30:56.835937500,-64.0,2.0,12.25,77.69921875,-37.33,14.7047865625,238.65
2021-06-28 16:30:56.843750000,-64.0,2.0,12.0,77.696875,-39.11,14.70562725,238.65
2021-06-28 16:30:56.851562500,-64.0,2.0,12.25,77.69453125000001,-40.620000000000005,14.7064679375,238.65
2021-06-28 16:30:56.859375000,-64.0,2.0,12.5,77.6921875,-42.13,14.707308625,238.65
2021-06-28 16:30:56.867187500,-64.0,2.0,12.75,77.68984375000001,-43.06,14.7081493125,238.65
2021-06-28 16:30:56.875000000,-64.0,2.0,13.0,77.6875,-43.99,14.70899,238.65
2021-06-28 16:30:56.882812500,-64.0,2.25,13.0,77.68515625,-44.05,14.7098306875,238.65
2021-06-28 16:30:56.890625000,-64.0,2.5,13.0,77.68281250000001,-44.11,14.710671375,238.65
2021-06-28 16:30:56.898437500,-64.0,2.75,13.0,77.68046875,-43.135,14.7115120625,238.65
2021-06-28 16:30:56.906250000,-64.0,3.0,13.0,77.67812500000001,-42.16,14.71235275,238.65
2021-06-28 16:30:56.914062500,-64.0,2.75,13.0,77.67578125,-40.19,14.7131934375,238.65
2021-06-28 16:30:56.921875000,-64.0,2.5,13.0,77.6734375,-38.22,14.714034125,238.65
2021-06-28 16:30:56.929687500,-64.0,2.25,13.0,77.67109375000001,-35.5,14.7148748125,238.65
2021-06-28 16:30:56.937500000,-64.0,2.0,13.0,77.66875,-32.78,14.7157155,238.65
2021-06-28 16:30:56.945312500,-64.0,2.0,12.75,77.66640625000001,-29.685000000000002,14.7165561875,238.65
2021-06-28 16:30:56.953125000,-64.0,2.0,12.5,77.6640625,-26.59,14.717396875,238.65
2021-06-28 16:30:56.960937500,-64.0,2.0,12.25,77.66171875,-23.46,14.7182375625,238.65
2021-06-28 16:30:56.968750000,-64.0,2.0,12.0,77.65937500000001,-20.33,14.719078249999999,238.65
2021-06-28 16:30:56.976562500,-64.0,2.0,12.25,77.65703125,-17.395,14.7199189375,238.65
2021-06-28 16:30:56.984375000,-64.0,2.0,12.5,77.65468750000001,-14.46,14.720759625,238.65
2021-06-28 16:30:56.992187500,-64.0,2.0,12.75,77.65234375,-11.77,14.7216003125,238.65
2021-06-28 16:30:57.000000000,-64.0,2.0,13.0,77.65,-9.08,14.722441,238.65
2021-06-28 16:30:57.007812500,-64.0,2.0,13.0,77.647890625,-6.58,14.7225210625,238.65
2021-06-28 16:30:57.015625000,-64.0,2.0,13.0,77.64578125,-4.08,14.722601125,238.65
2021-06-28 16:30:57.023437500,-64.0,2.0,13.0,77.64367187500001,-1.7349999999999999,14.7226811875,238.65
2021-06-28 16:30:57.031250000,-64.0,2.0,13.0,77.6415625,0.61,14.72276125,238.65
2021-06-28 16:30:57.039062500,-64.0,2.0,12.75,77.639453125,2.7699999999999996,14.7228413125,238.65
2021-06-28 16:30:57.046875000,-64.0,2.0,12.5,77.63734375,4.93,14.722921375,238.65
2021-06-28 16:30:57.054687500,-64.0,2.0,12.25,77.63523437500001,6.7749999999999995,14.723001437499999,238.65
2021-06-28 16:30:57.062500000,-64.0,2.0,12.0,77.633125,8.62,14.7230815,238.65
2021-06-28 16:30:57.070312500,-64.0,2.0,12.0,77.631015625,9.985,14.7231615625,238.65
2021-06-28 16:30:57.078125000,-64.0,2.0,12.0,77.62890625,11.35,14.723241625,238.65
2021-06-28 16:30:57.085937500,-64.0,2.0,12.0,77.62679687500001,12.16,14.7233216875,238.65
2021-06-28 16:30:57.093750000,-64.0,2.0,12.0,77.62468750000001,12.97,14.723401749999999,238.65
2021-06-28 16:30:57.101562500,-64.0,2.0,12.25,77.622578125,13.254999999999999,14.7234818125,238.65
2021-06-28 16:30:57.109375000,-64.0,2.0,12.5,77.62046875,13.54,14.723561875,238.65
2021-06-28 16:30:57.117187500,-64.0,2.0,12.75,77.61835937500001,13.5,14.7236419375,238.65
2021-06-28 16:30:57.125000000,-64.0,2.0,13.0,77.61625000000001,13.46,14.723721999999999,238.65
2021-06-28 16:30:57.132812500,-64.0,2.0,12.75,77.614140625,13.31,14.723802062499999,238.65
2021-06-28 16:30:57.140625000,-64.0,2.0,12.5,77.61203125,13.16,14.723882125,238.65
2021-06-28 16:30:57.148437500,-64.0,2.0,12.25,77.609921875,13.094999999999999,14.7239621875,238.65
2021-06-28 16:30:57.156250000,-64.0,2.0,12.0,77.60781250000001,13.03,14.72404225,238.65
2021-06-28 16:30:57.164062500,-64.0,2.0,12.0,77.605703125,13.1,14.724122312499999,238.65
2021-06-28 16:30:57.171875000,-64.0,2.0,12.0,77.60359375,13.17,14.724202374999999,238.65
2021-06-28 16:30:57.179687500,-64.0,2.0,12.0,77.601484375,13.32,14.7242824375,238.65
2021-06-28 16:30:57.187500000,-64.0,2.0,12.0,77.59937500000001,13.47,14.7243625,238.65
2021-06-28 16:30:57.195312500,-64.0,2.0,12.0,77.597265625,13.585,14.7244425625,238.65
2021-06-28 16:30:57.203125000,-64.0,2.0,12.0,77.59515625,13.7,14.724522624999999,238.65
2021-06-28 16:30:57.210937500,-64.0,2.0,12.0,77.593046875,13.705,14.7246026875,238.65
2021-06-28 16:30:57.218750000,-64.0,2.0,12.0,77.59093750000001,13.71,14.72468275,238.65
2021-06-28 16:30:57.226562500,-64.0,2.0,12.0,77.588828125,13.615,14.7247628125,238.65
2021-06-28 16:30:57.234375000,-64.0,2.0,12.0,77.58671875,13.52,14.724842874999998,238.65
2021-06-28 16:30:57.242187500,-64.0,2.0,12.0,77.584609375,13.405,14.724922937499999,238.65
2021-06-28 16:30:57.250000000,-64.0,2.0,12.0,77.58250000000001,13.29,14.725003,238.65
2021-06-28 16:30:57.257812500,-64.0,2.0,12.25,77.580390625,13.26,14.72520315625,238.65
2021-06-28 16:30:57.265625000,-64.0,2.0,12.5,77.57828125,13.23,14.7254033125,238.65
2021-06-28 16:30:57.273437500,-64.0,2.0,12.75,77.576171875,13.29,14.725603468749998,238.65
2021-06-28 16:30:57.281250000,-64.0,2.0,13.0,77.5740625,13.35,14.725803625,238.65
2021-06-28 16:30:57.289062500,-64.0,2.0,12.75,77.57195312500001,13.445,14.72600378125,238.65
2021-06-28 16:30:57.296875000,-64.0,2.0,12.5,77.56984375,13.54,14.7262039375,238.65
2021-06-28 16:30:57.304687500,-64.0,2.0,12.25,77.567734375,13.51,14.726404093749998,238.65
2021-06-28 16:30:57.312500000,-64.0,2.0,12.0,77.565625,13.48,14.72660425,238.65
2021-06-28 16:30:57.320312500,-64.0,2.25,12.25,77.56351562500001,13.2,14.72680440625,238.65
2021-06-28 16:30:57.328125000,-64.0,2.5,12.5,77.56140625,12.92,14.7270045625,238.65
2021-06-28 16:30:57.335937500,-64.0,2.75,12.75,77.559296875,12.33,14.727204718749999,238.65
2021-06-28 16:30:57.343750000,-64.0,3.0,13.0,77.5571875,11.74,14.727404875,238.65
2021-06-28 16:30:57.351562500,-64.0,2.75,13.0,77.55507812500001,10.895,14.72760503125,238.65
2021-06-28 16:30:57.359375000,-64.0,2.5,13.0,77.55296875,10.05,14.7278051875,238.65
2021-06-28 16:30:57.367187500,-64.0,2.25,13.0,77.550859375,9.045,14.728005343749999,238.65
2021-06-28 16:30:57.375000000,-64.0,2.0,13.0,77.54875,8.04,14.7282055,238.65
2021-06-28 16:30:57.382812500,-64.0,2.25,13.0,77.546640625,6.959999999999999,14.72840565625,238.65
2021-06-28 16:30:57.390625000,-64.0,2.5,13.0,77.54453125,5.88,14.7286058125,238.65
2021-06-28 16:30:57.398437500,-64.0,2.75,13.0,77.542421875,4.765,14.728805968749999,238.65
2021-06-28 16:30:57.406250000,-64.0,3.0,13.0,77.5403125,3.65,14.729006125,238.65
2021-06-28 16:30:57.414062500,-64.0,2.75,12.75,77.538203125,2.465,14.72920628125,238.65
2021-06-28 16:30:57.421875000,-64.0,2.5,12.5,77.53609375,1.28,14.7294064375,238.65
2021-06-28 16:30:57.429687500,-64.0,2.25,12.25,77.533984375,-0.020000000000000018,14.729606593749999,238.65
2021-06-28 16:30:57.437500000,-64.0,2.0,12.0,77.531875,-1.32,14.72980675,238.65
2021-06-28 16:30:57.445312500,-64.0,2.0,12.25,77.529765625,-2.74,14.73000690625,238.65
2021-06-28 16:30:57.453125000,-64.0,2.0,12.5,77.52765625,-4.16,14.7302070625,238.65
2021-06-28 16:30:57.460937500,-64.0,2.0,12.75,77.525546875,-5.68,14.730407218749999,238.65
2021-06-28 16:30:57.468750000,-64.0,2.0,13.0,77.5234375,-7.2,14.730607375,238.65
2021-06-28 16:30:57.476562500,-64.0,2.0,13.0,77.521328125,-8.77,14.73080753125,238.65
2021-06-28 16:30:57.484375000,-64.0,2.0,13.0,77.51921875000001,-10.34,14.7310076875,238.65
2021-06-28 16:30:57.492187500,-64.0,2.0,13.0,77.517109375,-11.925,14.73120784375,238.65
2021-06-28 16:30:57.500000000,-64.0,2.0,13.0,77.515,-13.51,14.731408,238.65
2021-06-28 16:30:57.507812500,-64.0,2.0,13.0,77.512890625,-15.14,14.73136796875,238.65
2021-06-28 16:30:57.515625000,-64.0,2.0,13.0,77.51078125,-16.77,14.7313279375,238.65
2021-06-28 16:30:57.523437500,-64.0,2.0,13.0,77.508671875,-18.53,14.73128790625,238.65
2021-06-28 16:30:57.531250000,-64.0,2.0,13.0,77.5065625,-20.29,14.731247875,238.65
2021-06-28 16:30:57.539062500,-64.0,2.25,13.0,77.504453125,-22.27,14.73120784375,238.65
2021-06-28 16:30:57.546875000,-64.0,2.5,13.0,77.50234375,-24.25,14.7311678125,238.65
2021-06-28 16:30:57.554687500,-64.0,2.75,13.0,77.500234375,-26.494999999999997,14.73112778125,238.65
2021-06-28 16:30:57.562500000,-64.0,3.0,13.0,77.498125,-28.74,14.73108775,238.65
2021-06-28 16:30:57.570312500,-64.0,2.75,12.75,77.496015625,-31.18,14.73104771875,238.65
2021-06-28 16:30:57.578125000,-64.0,2.5,12.5,77.49390625,-33.62,14.7310076875,238.65
2021-06-28 16:30:57.585937500,-64.0,2.25,12.25,77.491796875,-36.04,14.73096765625,238.65
2021-06-28 16:30:57.593750000,-64.0,2.0,12.0,77.4896875,-38.46,14.730927625,238.65
2021-06-28 16:30:57.601562500,-64.0,2.0,12.0,77.487578125,-40.510000000000005,14.73088759375,238.65
2021-06-28 16:30:57.609375000,-64.0,2.0,12.0,77.48546875,-42.56,14.7308475625,238.65
2021-06-28 16:30:57.617187500,-64.0,2.0,12.0,77.483359375,-43.84,14.730807531249999,238.65
2021-06-28 16:30:57.625000000,-64.0,2.0,12.0,77.48125,-45.12,14.730767499999999,238.65
2021-06-28 16:30:57.632812500,-64.0,2.0,12.25,77.479140625,-45.305,14.73072746875,238.65
2021-06-28 16:30:57.640625000,-64.0,2.0,12.5,77.47703125,-45.49,14.7306874375,238.65
2021-06-28 16:30:57.648437500,-64.0,2.0,12.75,77.47492187499999,-44.45,14.73064740625,238.65
2021-06-28 16:30:57.656250000,-64.0,2.0,13.0,77.4728125,-43.41,14.730607375,238.65
2021-06-28 16:30:57.664062500,-64.0,2.0,12.75,77.470703125,-41.239999999999995,14.73056734375,238.65
2021-06-28 16:30:57.671875000,-64.0,2.0,12.5,77.46859375,-39.07,14.7305273125,238.65
2021-06-28 16:30:57.679687500,-64.0,2.0,12.25,77.466484375,-36.085,14.73048728125,238.65
2021-06-28 16:30:57.687500000,-64.0,2.0,12.0,77.464375,-33.1,14.73044725,238.65
2021-06-28 16:30:57.695312500,-64.0,2.0,12.25,77.462265625,-29.69,14.730407218749999,238.65
2021-06-28 16:30:57.703125000,-64.0,2.0,12.5,77.46015625,-26.28,14.730367187499999,238.65
2021-06-28 16:30:57.710937500,-64.0,2.0,12.75,77.458046875,-22.78,14.73032715625,238.65
2021-06-28 16:30:57.718750000,-64.0,2.0,13.0,77.4559375,-19.28,14.730287125,238.65
2021-06-28 16:30:57.726562500,-64.0,2.0,12.75,77.453828125,-15.91,14.73024709375,238.65
2021-06-28 16:30:57.734375000,-64.0,2.0,12.5,77.45171875,-12.54,14.7302070625,238.65
2021-06-28 16:30:57.742187500,-64.0,2.0,12.25,77.449609375,-9.375,14.73016703125,238.65
2021-06-28 16:30:57.750000000,-64.0,2.0,12.0,77.44749999999999,-6.21,14.730127,238.65
2021-06-28 16:30:57.757812500,-63.75,2.0,12.25,77.445390625,-3.27,14.7300469375,238.65
2021-06-28 16:30:57.765625000,-63.5,2.0,12.5,77.44328125,-0.33,14.729966874999999,238.65
2021-06-28 16:30:57.773437500,-63.25,2.0,12.75,77.441171875,2.375,14.7298868125,238.65
2021-06-28 16:30:57.781250000,-63.0,2.0,13.0,77.43906249999999,5.08,14.72980675,238.65
2021-06-28 16:30:57.789062500,-63.5,2.0,12.75,77.436953125,7.495,14.7297266875,238.65
2021-06-28 16:30:57.796875000,-64.0,2.0,12.5,77.43484375,9.91,14.729646624999999,238.65
2021-06-28 16:30:57.804687500,-64.5,2.0,12.25,77.432734375,11.935,14.7295665625,238.65
2021-06-28 16:30:57.812500000,-65.0,2.0,12.0,77.43062499999999,13.96,14.7294865,238.65
2021-06-28 16:30:57.820312500,-64.75,2.0,12.25,77.428515625,15.55,14.7294064375,238.65
2021-06-28 16:30:57.828125000,-64.5,2.0,12.5,77.42640625,17.14,14.729326375,238.65
2021-06-28 16:30:57.835937500,-64.25,2.0,12.75,77.424296875,18.275,14.729246312499999,238.65
2021-06-28 16:30:57.843750000,-64.0,2.0,13.0,77.42218749999999,19.41,14.72916625,238.65
2021-06-28 16:30:57.851562500,-64.0,2.0,12.75,77.420078125,20.15,14.7290861875,238.65
2021-06-28 16:30:57.859375000,-64.0,2.0,12.5,77.41796875,20.89,14.729006125,238.65
2021-06-28 16:30:57.867187500,-64.0,2.0,12.25,77.415859375,21.335,14.7289260625,238.65
2021-06-28 16:30:57.875000000,-64.0,2.0,12.0,77.41375,21.78,14.728846,238.65
2021-06-28 16:30:57.882812500,-64.0,2.0,12.25,77.41164062499999,22.04,14.7287659375,238.65
2021-06-28 16:30:57.890625000,-64.0,2.0,12.5,77.40953125,22.3,14.728685875,238.65
2021-06-28 16:30:57.898437500,-64.0,2.0,12.75,77.407421875,22.435000000000002,14.7286058125,238.65
2021-06-28 16:30:57.906250000,-64.0,2.0,13.0,77.4053125,22.57,14.72852575,238.65
2021-06-28 16:30:57.914062500,-64.0,2.0,12.75,77.40320312499999,22.62,14.7284456875,238.65
2021-06-28 16:30:57.921875000,-64.0,2.0,12.5,77.40109375,22.67,14.728365625,238.65
2021-06-28 16:30:57.929687500,-64.0,2.0,12.25,77.398984375,22.64,14.7282855625,238.65
2021-06-28 16:30:57.937500000,-64.0,2.0,12.0,77.396875,22.61,14.7282055,238.65
2021-06-28 16:30:57.945312500,-64.0,2.0,12.25,77.39476562499999,22.494999999999997,14.7281254375,238.65
2021-06-28 16:30:57.953125000,-64.0,2.0,12.5,77.39265625,22.38,14.728045375,238.65
2021-06-28 16:30:57.960937500,-64.0,2.0,12.75,77.390546875,22.16,14.7279653125,238.65
2021-06-28 16:30:57.968750000,-64.0,2.0,13.0,77.3884375,21.94,14.72788525,238.65
2021-06-28 16:30:57.976562500,-64.0,2.0,13.0,77.38632812499999,21.630000000000003,14.7278051875,238.65
2021-06-28 16:30:57.984375000,-64.0,2.0,13.0,77.38421875,21.32,14.727725125000001,238.65
2021-06-28 16:30:57.992187500,-64.0,2.0,13.0,77.382109375,20.955,14.7276450625,238.65
2021-06-28 16:30:58.000000000,-64.0,2.0,13.0,77.38,20.59,14.727565,238.65
2021-06-28 16:30:58.007812500,-64.0,2.0,12.75,77.378359375,20.165,14.72672434375,238.65
2021-06-28 16:30:58.015625000,-64.0,2.0,12.5,77.37671875,19.74,14.7258836875,238.65
2021-06-28 16:30:58.023437500,-64.0,2.0,12.25,77.375078125,19.259999999999998,14.72504303125,238.65
2021-06-28 16:30:58.031250000,-64.0,2.0,12.0,77.3734375,18.78,14.724202375,238.65
2021-06-28 16:30:58.039062500,-64.0,2.0,12.0,77.371796875,18.200000000000003,14.72336171875,238.65
2021-06-28 16:30:58.046875000,-64.0,2.0,12.0,77.37015625,17.62,14.7225210625,238.65
