TimeStamp,empatica.acc.x,empatica.acc.y,empatica.acc.z,empatica.hr,empatica.bvp,empatica.eda,empatica.temp
2021-06-29 16:17:24.914062500,-23.0,-10.0,58.0,97.542421875,8.0,5.1007469062499995,33.95
2021-06-29 16:17:24.921875000,-23.0,-10.0,58.0,97.54765624999999,6.57,5.099906187499999,33.95
2021-06-29 16:17:24.929687500,-23.0,-10.0,58.0,97.55289062499999,4.985,5.09906546875,33.95
2021-06-29 16:17:24.937500000,-23.0,-10.0,58.0,97.55812499999999,3.4,5.09822475,33.95
2021-06-29 16:17:24.945312500,-23.0,-10.0,58.0,97.56335937499999,1.7,5.09738403125,33.95
2021-06-29 16:17:24.953125000,-23.0,-10.0,58.0,97.56859374999999,0.0,5.0965433125,33.95
2021-06-29 16:17:24.960937500,-23.0,-10.0,58.0,97.57382812499999,-1.785,5.09570259375,33.95
2021-06-29 16:17:24.968750000,-23.0,-10.0,58.0,97.57906249999999,-3.57,5.094861874999999,33.95
2021-06-29 16:17:24.976562500,-23.0,-10.0,58.0,97.58429687499999,-5.445,5.09402115625,33.95
2021-06-29 16:17:24.984375000,-23.0,-10.0,58.0,97.58953125,-7.32,5.0931804375,33.95
2021-06-29 16:17:24.992187500,-23.0,-10.0,58.0,97.594765625,-9.335,5.09233971875,33.95
2021-06-29 16:17:25.000000000,-23.0,-10.0,58.0,97.6,-11.35,5.091499,33.95
2021-06-29 16:17:25.007812500,-23.0,-10.0,58.0,97.605234375,-13.575,5.09109865625,33.95
2021-06-29 16:17:25.015625000,-23.0,-10.0,58.0,97.61046875,-15.8,5.0906983125,33.95
2021-06-29 16:17:25.023437500,-23.0,-10.0,58.0,97.615703125,-18.35,5.09029796875,33.95
2021-06-29 16:17:25.031250000,-23.0,-10.0,58.0,97.6209375,-20.9,5.089897625,33.95
2021-06-29 16:17:25.039062500,-23.0,-10.0,58.0,97.626171875,-23.865,5.08949728125,33.95
2021-06-29 16:17:25.046875000,-23.0,-10.0,58.0,97.63140625,-26.83,5.0890969375,33.95
2021-06-29 16:17:25.054687500,-23.0,-10.0,58.0,97.636640625,-30.2,5.08869659375,33.95
2021-06-29 16:17:25.062500000,-23.0,-10.0,58.0,97.641875,-33.57,5.08829625,33.95
2021-06-29 16:17:25.070312500,-23.0,-10.0,58.0,97.647109375,-37.17,5.08789590625,33.95
2021-06-29 16:17:25.078125000,-23.0,-10.0,58.0,97.65234375,-40.77,5.0874955625,33.95
2021-06-29 16:17:25.085937500,-23.0,-10.0,58.0,97.657578125,-44.2,5.08709521875,33.95
2021-06-29 16:17:25.093750000,-23.0,-10.0,58.0,97.6628125,-47.63,5.086694875,33.95
2021-06-29 16:17:25.101562500,-23.0,-10.0,58.0,97.66804687499999,-50.35,5.08629453125,33.95
2021-06-29 16:17:25.109375000,-23.0,-10.0,58.0,97.67328124999999,-53.07,5.0858941875,33.95
2021-06-29 16:17:25.117187500,-23.0,-10.0,58.0,97.67851562499999,-54.5,5.08549384375,33.95
2021-06-29 16:17:25.125000000,-23.0,-10.0,58.0,97.68374999999999,-55.93,5.085093499999999,33.95
2021-06-29 16:17:25.132812500,-23.0,-10.0,58.0,97.68898437499999,-55.675,5.084693156249999,33.95
2021-06-29 16:17:25.140625000,-23.0,-10.0,58.0,97.69421874999999,-55.42,5.084292812499999,33.95
2021-06-29 16:17:25.148437500,-23.0,-10.0,58.0,97.69945312499999,-53.355000000000004,5.083892468749999,33.95
2021-06-29 16:17:25.156250000,-23.0,-10.0,58.0,97.70468749999999,-51.29,5.083492124999999,33.95
2021-06-29 16:17:25.164062500,-23.0,-10.0,58.0,97.70992187499999,-47.625,5.083091781249999,33.95
2021-06-29 16:17:25.171875000,-23.0,-10.0,58.0,97.71515624999999,-43.96,5.082691437499999,33.95
2021-06-29 16:17:25.179687500,-23.0,-10.0,58.0,97.720390625,-39.150000000000006,5.082291093749999,33.95
2021-06-29 16:17:25.187500000,-23.0,-10.0,58.0,97.725625,-34.34,5.0818907499999995,33.95
2021-06-29 16:17:25.195312500,-23.0,-10.0,58.0,97.730859375,-28.905,5.0814904062499995,33.95
2021-06-29 16:17:25.203125000,-23.0,-10.0,58.0,97.73609375,-23.47,5.0810900624999995,33.95
2021-06-29 16:17:25.210937500,-23.0,-10.0,58.0,97.741328125,-17.9,5.0806897187499995,33.95
2021-06-29 16:17:25.218750000,-23.0,-10.0,58.0,97.7465625,-12.33,5.0802893749999996,33.95
2021-06-29 16:17:25.226562500,-23.0,-10.0,58.0,97.751796875,-6.96,5.07988903125,33.95
2021-06-29 16:17:25.234375000,-23.0,-10.0,58.0,97.75703125,-1.59,5.0794886875,33.95
2021-06-29 16:17:25.242187500,-23.0,-10.0,58.0,97.762265625,3.3600000000000003,5.07908834375,33.95
2021-06-29 16:17:25.250000000,-23.0,-10.0,58.0,97.7675,8.31,5.078688,33.95
2021-06-29 16:17:25.257812500,-23.0,-10.0,58.0,97.772734375,12.66,5.0776471249999995,33.95
2021-06-29 16:17:25.265625000,-23.0,-10.0,58.0,97.77796875,17.01,5.076606249999999,33.95
2021-06-29 16:17:25.273437500,-23.0,-10.0,58.0,97.783203125,20.590000000000003,5.075565375,33.95
2021-06-29 16:17:25.281250000,-23.0,-10.0,58.0,97.7884375,24.17,5.0745245,33.95
2021-06-29 16:17:25.289062500,-23.0,-10.25,58.0,97.793671875,26.79,5.073483625,33.95
2021-06-29 16:17:25.296875000,-23.0,-10.5,58.0,97.79890625,29.41,5.07244275,33.95
2021-06-29 16:17:25.304687500,-23.0,-10.75,58.0,97.80414062499999,30.945,5.071401874999999,33.95
2021-06-29 16:17:25.312500000,-23.0,-11.0,58.0,97.80937499999999,32.48,5.070361,33.95
2021-06-29 16:17:25.320312500,-23.0,-10.75,58.0,97.81460937499999,32.94499999999999,5.069320125,33.95
2021-06-29 16:17:25.328125000,-23.0,-10.5,58.0,97.81984374999999,33.41,5.06827925,33.95
2021-06-29 16:17:25.335937500,-23.0,-10.25,58.0,97.82507812499999,33.004999999999995,5.067238375,33.95
2021-06-29 16:17:25.343750000,-23.0,-10.0,58.0,97.83031249999999,32.6,5.0661974999999995,33.95
2021-06-29 16:17:25.351562500,-23.0,-10.0,58.0,97.83554687499999,31.65,5.065156624999999,33.95
2021-06-29 16:17:25.359375000,-23.0,-10.0,58.0,97.84078124999999,30.7,5.06411575,33.95
2021-06-29 16:17:25.367187500,-23.0,-10.0,58.0,97.84601562499999,29.575,5.063074875,33.95
2021-06-29 16:17:25.375000000,-23.0,-10.0,58.0,97.85125,28.45,5.062034,33.95
2021-06-29 16:17:25.382812500,-23.0,-10.0,58.0,97.856484375,27.455,5.0609931249999995,33.95
2021-06-29 16:17:25.390625000,-23.0,-10.0,58.0,97.86171875,26.46,5.059952249999999,33.95
2021-06-29 16:17:25.398437500,-23.0,-10.0,58.0,97.866953125,25.725,5.058911375,33.95
2021-06-29 16:17:25.406250000,-23.0,-10.0,58.0,97.8721875,24.99,5.0578705,33.95
2021-06-29 16:17:25.414062500,-23.25,-10.0,58.0,97.877421875,24.435,5.056829625,33.95
2021-06-29 16:17:25.421875000,-23.5,-10.0,58.0,97.88265625,23.88,5.05578875,33.95
2021-06-29 16:17:25.429687500,-23.75,-10.0,58.0,97.887890625,23.335,5.0547478749999994,33.95
2021-06-29 16:17:25.437500000,-24.0,-10.0,58.0,97.893125,22.79,5.053706999999999,33.95
2021-06-29 16:17:25.445312500,-24.0,-10.0,58.0,97.898359375,22.055,5.052666125,33.95
2021-06-29 16:17:25.453125000,-24.0,-10.0,58.0,97.90359375,21.32,5.05162525,33.95
2021-06-29 16:17:25.460937500,-24.0,-10.0,58.0,97.908828125,20.275,5.050584375,33.95
2021-06-29 16:17:25.468750000,-24.0,-10.0,58.0,97.9140625,19.23,5.0495434999999995,33.95
2021-06-29 16:17:25.476562500,-23.75,-10.0,58.0,97.919296875,17.880000000000003,5.048502624999999,33.95
2021-06-29 16:17:25.484375000,-23.5,-10.0,58.0,97.92453125,16.53,5.04746175,33.95
2021-06-29 16:17:25.492187500,-23.25,-10.0,58.0,97.929765625,14.95,5.046420875,33.95
2021-06-29 16:17:25.500000000,-23.0,-10.0,58.0,97.935,13.37,5.04538,33.95
2021-06-29 16:17:25.507812500,-23.0,-10.0,58.25,97.94023437499999,11.665,5.045259875,33.95
2021-06-29 16:17:25.515625000,-23.0,-10.0,58.5,97.94546874999999,9.96,5.04513975,33.95
2021-06-29 16:17:25.523437500,-23.0,-10.0,58.75,97.95070312499999,8.200000000000001,5.045019625,33.95
2021-06-29 16:17:25.531250000,-23.0,-10.0,59.0,97.95593749999999,6.44,5.0448995,33.95
2021-06-29 16:17:25.539062500,-23.0,-10.0,58.75,97.96117187499999,4.63,5.044779375,33.95
2021-06-29 16:17:25.546875000,-23.0,-10.0,58.5,97.96640624999999,2.82,5.04465925,33.95
2021-06-29 16:17:25.554687500,-23.0,-10.0,58.25,97.97164062499999,0.9299999999999999,5.044539125,33.95
2021-06-29 16:17:25.562500000,-23.0,-10.0,58.0,97.97687499999999,-0.96,5.0444189999999995,33.95
2021-06-29 16:17:25.570312500,-23.25,-10.0,58.0,97.982109375,-2.94,5.044298875,33.95
2021-06-29 16:17:25.578125000,-23.5,-10.0,58.0,97.98734375,-4.92,5.0441787499999995,33.95
2021-06-29 16:17:25.585937500,-23.75,-10.0,58.0,97.992578125,-6.995,5.044058625,33.95
2021-06-29 16:17:25.593750000,-24.0,-10.0,58.0,97.9978125,-9.07,5.043938499999999,33.95
2021-06-29 16:17:25.601562500,-23.75,-10.0,58.0,98.003046875,-11.225000000000001,5.043818375,33.95
2021-06-29 16:17:25.609375000,-23.5,-10.0,58.0,98.00828125,-13.38,5.043698249999999,33.95
2021-06-29 16:17:25.617187500,-23.25,-10.0,58.0,98.013515625,-15.61,5.043578125,33.95
2021-06-29 16:17:25.625000000,-23.0,-10.0,58.0,98.01875,-17.84,5.043457999999999,33.95
2021-06-29 16:17:25.632812500,-23.0,-10.0,58.25,98.023984375,-20.215,5.043337875,33.95
2021-06-29 16:17:25.640625000,-23.0,-10.0,58.5,98.02921875,-22.59,5.04321775,33.95
2021-06-29 16:17:25.648437500,-23.0,-10.0,58.75,98.034453125,-25.2,5.043097625,33.95
2021-06-29 16:17:25.656250000,-23.0,-10.0,59.0,98.0396875,-27.81,5.0429775,33.95
2021-06-29 16:17:25.664062500,-23.25,-10.0,58.75,98.044921875,-30.725,5.042857375,33.95
2021-06-29 16:17:25.671875000,-23.5,-10.0,58.5,98.05015625,-33.64,5.04273725,33.95
2021-06-29 16:17:25.679687500,-23.75,-10.0,58.25,98.055390625,-36.765,5.042617125,33.95
2021-06-29 16:17:25.687500000,-24.0,-10.0,58.0,98.060625,-39.89,5.042497,33.95
2021-06-29 16:17:25.695312500,-23.75,-10.0,58.0,98.065859375,-42.92,5.0423768749999995,33.95
2021-06-29 16:17:25.703125000,-23.5,-10.0,58.0,98.07109374999999,-45.95,5.04225675,33.95
2021-06-29 16:17:25.710937500,-23.25,-10.0,58.0,98.07632812499999,-48.36,5.0421366249999995,33.95
2021-06-29 16:17:25.718750000,-23.0,-10.0,58.0,98.08156249999999,-50.77,5.0420165,33.95
2021-06-29 16:17:25.726562500,-23.0,-10.0,58.0,98.08679687499999,-51.985,5.041896374999999,33.95
2021-06-29 16:17:25.734375000,-23.0,-10.0,58.0,98.09203124999999,-53.2,5.04177625,33.95
2021-06-29 16:17:25.742187500,-23.0,-10.0,58.0,98.09726562499999,-52.760000000000005,5.041656124999999,33.95
2021-06-29 16:17:25.750000000,-23.0,-10.0,58.0,98.10249999999999,-52.32,5.041536,33.95
2021-06-29 16:17:25.757812500,-23.0,-10.0,58.0,98.10773437499999,-50.08,5.041856281249999,33.95
2021-06-29 16:17:25.765625000,-23.0,-10.0,58.0,98.11296875,-47.84,5.0421765625,33.95
2021-06-29 16:17:25.773437500,-23.0,-10.0,58.0,98.118203125,-43.995000000000005,5.0424968437499995,33.95
2021-06-29 16:17:25.781250000,-23.0,-10.0,58.0,98.1234375,-40.15,5.042817125,33.95
2021-06-29 16:17:25.789062500,-23.0,-10.0,58.0,98.128671875,-35.18,5.04313740625,33.95
2021-06-29 16:17:25.796875000,-23.0,-10.0,58.0,98.13390625,-30.21,5.0434576875,33.95
2021-06-29 16:17:25.804687500,-23.0,-10.0,58.0,98.139140625,-24.67,5.04377796875,33.95
2021-06-29 16:17:25.812500000,-23.0,-10.0,58.0,98.144375,-19.13,5.044098249999999,33.95
2021-06-29 16:17:25.820312500,-23.0,-10.0,58.0,98.149609375,-13.535,5.04441853125,33.95
2021-06-29 16:17:25.828125000,-23.0,-10.0,58.0,98.15484375,-7.94,5.0447388124999994,33.95
2021-06-29 16:17:25.835937500,-23.0,-10.0,58.0,98.160078125,-2.6500000000000004,5.04505909375,33.95
2021-06-29 16:17:25.843750000,-23.0,-10.0,58.0,98.1653125,2.64,5.0453793749999996,33.95
2021-06-29 16:17:25.851562500,-23.0,-10.0,58.0,98.170546875,7.369999999999999,5.04569965625,33.95
2021-06-29 16:17:25.859375000,-23.0,-10.0,58.0,98.17578125,12.1,5.0460199375,33.95
2021-06-29 16:17:25.867187500,-23.0,-10.0,58.0,98.181015625,16.105,5.04634021875,33.95
2021-06-29 16:17:25.875000000,-23.0,-10.0,58.0,98.18625,20.11,5.0466605,33.95
2021-06-29 16:17:25.882812500,-23.0,-10.0,58.0,98.191484375,23.215,5.046980781249999,33.95
2021-06-29 16:17:25.890625000,-23.0,-10.0,58.0,98.19671875,26.32,5.0473010625,33.95
2021-06-29 16:17:25.898437500,-23.0,-10.0,58.0,98.201953125,28.439999999999998,5.0476213437499995,33.95
2021-06-29 16:17:25.906250000,-23.0,-10.0,58.0,98.20718749999999,30.56,5.047941625,33.95
2021-06-29 16:17:25.914062500,-23.0,-10.0,58.0,98.21242187499999,31.67,5.04826190625,33.95
2021-06-29 16:17:25.921875000,-23.0,-10.0,58.0,98.21765624999999,32.78,5.0485821875,33.95
2021-06-29 16:17:25.929687500,-23.0,-10.0,58.0,98.22289062499999,33.010000000000005,5.04890246875,33.95
2021-06-29 16:17:25.937500000,-23.0,-10.0,58.0,98.22812499999999,33.24,5.04922275,33.95
2021-06-29 16:17:25.945312500,-23.0,-10.0,58.0,98.23335937499999,32.83,5.04954303125,33.95
2021-06-29 16:17:25.953125000,-23.0,-10.0,58.0,98.23859374999999,32.42,5.049863312499999,33.95
2021-06-29 16:17:25.960937500,-23.0,-10.0,58.0,98.243828125,31.655,5.05018359375,33.95
2021-06-29 16:17:25.968750000,-23.0,-10.0,58.0,98.2490625,30.89,5.0505038749999995,33.95
2021-06-29 16:17:25.976562500,-23.0,-10.0,58.0,98.254296875,30.025,5.05082415625,33.95
2021-06-29 16:17:25.984375000,-23.0,-10.0,58.0,98.25953125,29.16,5.0511444375,33.95
2021-06-29 16:17:25.992187500,-23.0,-10.0,58.0,98.264765625,28.36,5.05146471875,33.95
2021-06-29 16:17:26.000000000,-23.0,-10.0,58.0,98.27,27.56,5.051785,33.95
2021-06-29 16:17:26.007812500,-23.0,-10.0,58.0,98.275078125,26.875,5.052785875,33.949375
2021-06-29 16:17:26.015625000,-23.0,-10.0,58.0,98.28015624999999,26.19,5.0537867499999996,33.948750000000004
2021-06-29 16:17:26.023437500,-23.0,-10.0,58.0,98.285234375,25.58,5.0547876249999995,33.948125000000005
2021-06-29 16:17:26.031250000,-23.0,-10.0,58.0,98.2903125,24.97,5.0557885,33.947500000000005
2021-06-29 16:17:26.039062500,-23.0,-10.0,58.0,98.295390625,24.35,5.056789375,33.946875000000006
2021-06-29 16:17:26.046875000,-23.0,-10.0,58.0,98.30046875,23.73,5.05779025,33.94625
2021-06-29 16:17:26.054687500,-23.0,-10.0,58.0,98.30554687499999,23.0,5.058791125,33.945625
2021-06-29 16:17:26.062500000,-23.0,-10.0,58.0,98.310625,22.27,5.059792,33.945
2021-06-29 16:17:26.070312500,-23.0,-10.0,58.0,98.315703125,21.345,5.060792875,33.944375
2021-06-29 16:17:26.078125000,-23.0,-10.0,58.0,98.32078125,20.42,5.06179375,33.94375
2021-06-29 16:17:26.085937500,-23.0,-10.0,58.0,98.325859375,19.245,5.0627946249999995,33.943125
2021-06-29 16:17:26.093750000,-23.0,-10.0,58.0,98.33093749999999,18.07,5.0637954999999994,33.9425
2021-06-29 16:17:26.101562500,-23.0,-10.0,58.0,98.336015625,16.65,5.064796375,33.941875
2021-06-29 16:17:26.109375000,-23.0,-10.0,58.0,98.34109375,15.23,5.06579725,33.941250000000004
2021-06-29 16:17:26.117187500,-23.0,-10.0,58.0,98.346171875,13.585,5.066798125,33.940625000000004
2021-06-29 16:17:26.125000000,-23.0,-10.0,58.0,98.35125,11.94,5.067799,33.94
2021-06-29 16:17:26.132812500,-23.0,-10.0,58.0,98.35632812499999,10.14,5.068799875,33.939375
2021-06-29 16:17:26.140625000,-23.0,-10.0,58.0,98.36140625,8.34,5.06980075,33.93875
2021-06-29 16:17:26.148437500,-23.0,-10.0,58.0,98.366484375,6.449999999999999,5.070801625,33.938125
2021-06-29 16:17:26.156250000,-23.0,-10.0,58.0,98.3715625,4.56,5.0718025,33.9375
2021-06-29 16:17:26.164062500,-23.0,-10.0,58.0,98.376640625,2.6599999999999997,5.072803375,33.936875
2021-06-29 16:17:26.171875000,-23.0,-10.0,58.0,98.38171874999999,0.76,5.07380425,33.93625
2021-06-29 16:17:26.179687500,-23.0,-10.0,58.0,98.386796875,-1.0799999999999998,5.074805125,33.935625
2021-06-29 16:17:26.187500000,-23.0,-10.0,58.0,98.391875,-2.92,5.075806,33.935
2021-06-29 16:17:26.195312500,-23.0,-10.0,58.0,98.396953125,-4.67,5.076806875,33.934375
2021-06-29 16:17:26.203125000,-23.0,-10.0,58.0,98.40203125,-6.42,5.07780775,33.93375
2021-06-29 16:17:26.210937500,-23.0,-10.0,58.0,98.40710937499999,-8.075,5.078808625,33.933125
2021-06-29 16:17:26.218750000,-23.0,-10.0,58.0,98.4121875,-9.73,5.0798095,33.9325
2021-06-29 16:17:26.226562500,-23.0,-10.0,58.25,98.417265625,-11.355,5.080810375,33.931875
2021-06-29 16:17:26.234375000,-23.0,-10.0,58.5,98.42234375,-12.98,5.08181125,33.93125
2021-06-29 16:17:26.242187500,-23.0,-10.0,58.75,98.427421875,-14.695,5.082812125,33.930625
2021-06-29 16:17:26.250000000,-23.0,-10.0,59.0,98.4325,-16.41,5.083813,33.93
2021-06-29 16:17:26.257812500,-23.0,-10.0,58.75,98.437578125,-18.39,5.085134125,33.93
2021-06-29 16:17:26.265625000,-23.0,-10.0,58.5,98.44265625,-20.37,5.08645525,33.93
2021-06-29 16:17:26.273437500,-23.0,-10.0,58.25,98.447734375,-22.770000000000003,5.087776375,33.93
2021-06-29 16:17:26.281250000,-23.0,-10.0,58.0,98.4528125,-25.17,5.0890975,33.93
2021-06-29 16:17:26.289062500,-23.0,-10.0,58.0,98.457890625,-28.025,5.090418625,33.93
2021-06-29 16:17:26.296875000,-23.0,-10.0,58.0,98.46296875,-30.88,5.09173975,33.93
2021-06-29 16:17:26.304687500,-23.0,-10.0,58.0,98.468046875,-34.025,5.093060875,33.93
2021-06-29 16:17:26.312500000,-23.0,-10.0,58.0,98.473125,-37.17,5.094382,33.93
2021-06-29 16:17:26.320312500,-23.0,-10.0,58.0,98.478203125,-40.21,5.095703125,33.93
2021-06-29 16:17:26.328125000,-23.0,-10.0,58.0,98.48328125,-43.25,5.0970242500000005,33.93
2021-06-29 16:17:26.335937500,-23.0,-10.0,58.0,98.488359375,-45.61,5.098345375,33.93
2021-06-29 16:17:26.343750000,-23.0,-10.0,58.0,98.4934375,-47.97,5.0996665000000005,33.93
2021-06-29 16:17:26.351562500,-23.0,-10.0,58.0,98.498515625,-49.04,5.100987625,33.93
2021-06-29 16:17:26.359375000,-23.0,-10.0,58.0,98.50359375,-50.11,5.102308750000001,33.93
2021-06-29 16:17:26.367187500,-23.0,-10.0,58.0,98.508671875,-49.455,5.103629875,33.93
2021-06-29 16:17:26.375000000,-23.0,-10.0,58.0,98.51375,-48.8,5.104951,33.93
2021-06-29 16:17:26.382812500,-23.0,-10.0,58.0,98.518828125,-46.295,5.106272125,33.93
2021-06-29 16:17:26.390625000,-23.0,-10.0,58.0,98.52390625,-43.79,5.10759325,33.93
2021-06-29 16:17:26.398437500,-23.0,-10.0,58.0,98.528984375,-39.69,5.108914375,33.93
2021-06-29 16:17:26.406250000,-23.0,-10.0,58.0,98.5340625,-35.59,5.1102355,33.93
2021-06-29 16:17:26.414062500,-23.0,-10.0,58.0,98.539140625,-30.465000000000003,5.111556625,33.93
2021-06-29 16:17:26.421875000,-23.0,-10.0,58.0,98.54421875,-25.34,5.11287775,33.93
2021-06-29 16:17:26.429687500,-23.0,-10.0,58.0,98.549296875,-19.87,5.1141988750000005,33.93
2021-06-29 16:17:26.437500000,-23.0,-10.0,58.0,98.554375,-14.4,5.11552,33.93
2021-06-29 16:17:26.445312500,-23.0,-10.0,58.0,98.559453125,-9.2,5.1168411250000005,33.93
2021-06-29 16:17:26.453125000,-23.0,-10.0,58.0,98.56453125,-4.0,5.11816225,33.93
2021-06-29 16:17:26.460937500,-23.0,-10.0,58.0,98.569609375,0.5250000000000004,5.119483375000001,33.93
2021-06-29 16:17:26.468750000,-23.0,-10.0,58.0,98.5746875,5.05,5.1208045,33.93
2021-06-29 16:17:26.476562500,-23.0,-10.0,58.0,98.579765625,8.715,5.122125625000001,33.93
2021-06-29 16:17:26.484375000,-23.0,-10.0,58.0,98.58484375,12.38,5.12344675,33.93
2021-06-29 16:17:26.492187500,-23.0,-10.0,58.0,98.589921875,15.150000000000002,5.124767875000001,33.93
2021-06-29 16:17:26.500000000,-23.0,-10.0,58.0,98.595,17.92,5.126089,33.93
2021-06-29 16:17:26.507812500,-23.0,-10.0,58.0,98.600078125,19.8,5.127169937500001,33.93
2021-06-29 16:17:26.515625000,-23.0,-10.0,58.0,98.60515625,21.68,5.128250875,33.93
2021-06-29 16:17:26.523437500,-23.0,-10.0,58.0,98.610234375,22.7,5.1293318125,33.93
2021-06-29 16:17:26.531250000,-23.0,-10.0,58.0,98.6153125,23.72,5.1304127500000005,33.93
2021-06-29 16:17:26.539062500,-23.0,-10.0,58.0,98.620390625,23.939999999999998,5.1314936875,33.93
2021-06-29 16:17:26.546875000,-23.0,-10.0,58.0,98.62546875,24.16,5.132574625,33.93
2021-06-29 16:17:26.554687500,-23.0,-10.0,58.0,98.630546875,23.735,5.1336555625,33.93
2021-06-29 16:17:26.562500000,-23.0,-10.0,58.0,98.635625,23.31,5.134736500000001,33.93
2021-06-29 16:17:26.570312500,-23.0,-10.0,58.0,98.640703125,22.490000000000002,5.1358174375,33.93
2021-06-29 16:17:26.578125000,-23.0,-10.0,58.0,98.64578125,21.67,5.136898375,33.93
2021-06-29 16:17:26.585937500,-23.0,-10.0,58.0,98.650859375,20.755000000000003,5.137979312500001,33.93
2021-06-29 16:17:26.593750000,-23.0,-10.0,58.0,98.6559375,19.84,5.13906025,33.93
2021-06-29 16:17:26.601562500,-23.0,-10.0,58.0,98.661015625,19.064999999999998,5.1401411875,33.93
2021-06-29 16:17:26.609375000,-23.0,-10.0,58.0,98.66609375,18.29,5.1412221250000005,33.93
2021-06-29 16:17:26.617187500,-23.0,-10.0,58.0,98.671171875,17.759999999999998,5.1423030625,33.93
2021-06-29 16:17:26.625000000,-23.0,-10.0,58.0,98.67625,17.23,5.143384,33.93
2021-06-29 16:17:26.632812500,-23.0,-10.0,58.0,98.681328125,16.875,5.1444649375000004,33.93
2021-06-29 16:17:26.640625000,-23.0,-10.0,58.0,98.68640625,16.52,5.145545875,33.93
2021-06-29 16:17:26.648437500,-23.0,-10.0,58.0,98.691484375,16.16,5.1466268125,33.93
2021-06-29 16:17:26.656250000,-23.0,-10.0,58.0,98.6965625,15.8,5.14770775,33.93
2021-06-29 16:17:26.664062500,-23.0,-10.0,58.0,98.701640625,15.255,5.1487886875,33.93
2021-06-29 16:17:26.671875000,-23.0,-10.0,58.0,98.70671875,14.71,5.149869625,33.93
2021-06-29 16:17:26.679687500,-23.0,-10.0,58.0,98.711796875,13.885000000000002,5.1509505625,33.93
2021-06-29 16:17:26.687500000,-23.0,-10.0,58.0,98.716875,13.06,5.1520315,33.93
2021-06-29 16:17:26.695312500,-23.0,-10.0,58.0,98.721953125,11.985,5.1531124375,33.93
2021-06-29 16:17:26.703125000,-23.0,-10.0,58.0,98.72703125,10.91,5.154193375,33.93
2021-06-29 16:17:26.710937500,-23.0,-10.0,58.0,98.732109375,9.68,5.1552743125000005,33.93
2021-06-29 16:17:26.718750000,-23.0,-10.0,58.0,98.7371875,8.45,5.15635525,33.93
2021-06-29 16:17:26.726562500,-23.0,-10.0,58.0,98.742265625,7.17,5.1574361875,33.93
2021-06-29 16:17:26.734375000,-23.0,-10.0,58.0,98.74734375,5.89,5.158517125,33.93
2021-06-29 16:17:26.742187500,-23.0,-10.0,58.0,98.752421875,4.63,5.1595980625,33.93
2021-06-29 16:17:26.750000000,-23.0,-10.0,58.0,98.7575,3.37,5.160679,33.93
2021-06-29 16:17:26.757812500,-23.0,-10.0,58.0,98.762578125,2.13,5.16115940625,33.93
2021-06-29 16:17:26.765625000,-23.0,-10.0,58.0,98.76765625,0.89,5.1616398125,33.93
2021-06-29 16:17:26.773437500,-23.0,-10.0,58.0,98.772734375,-0.39,5.16212021875,33.93
2021-06-29 16:17:26.781250000,-23.0,-10.0,58.0,98.7778125,-1.67,5.162600625,33.93
2021-06-29 16:17:26.789062500,-23.0,-10.0,58.0,98.78289062500001,-3.065,5.16308103125,33.93
2021-06-29 16:17:26.796875000,-23.0,-10.0,58.0,98.78796875,-4.46,5.1635614375,33.93
2021-06-29 16:17:26.804687500,-23.0,-10.0,58.0,98.793046875,-6.055,5.16404184375,33.93
2021-06-29 16:17:26.812500000,-23.0,-10.0,58.0,98.798125,-7.65,5.16452225,33.93
2021-06-29 16:17:26.820312500,-23.0,-10.0,58.0,98.803203125,-9.495000000000001,5.16500265625,33.93
2021-06-29 16:17:26.828125000,-23.0,-10.0,58.0,98.80828125000001,-11.34,5.1654830625,33.93
2021-06-29 16:17:26.835937500,-23.0,-10.0,58.0,98.813359375,-13.415,5.16596346875,33.93
2021-06-29 16:17:26.843750000,-23.0,-10.0,58.0,98.8184375,-15.49,5.166443875000001,33.93
2021-06-29 16:17:26.851562500,-23.0,-10.0,58.0,98.823515625,-17.755,5.16692428125,33.93
2021-06-29 16:17:26.859375000,-23.0,-10.0,58.0,98.82859375,-20.02,5.1674046875,33.93
2021-06-29 16:17:26.867187500,-23.0,-10.0,58.0,98.83367187500001,-22.395,5.16788509375,33.93
2021-06-29 16:17:26.875000000,-23.0,-10.0,58.0,98.83875,-24.77,5.1683655,33.93
2021-06-29 16:17:26.882812500,-23.0,-10.0,58.0,98.843828125,-27.195,5.1688459062500005,33.93
2021-06-29 16:17:26.890625000,-23.0,-10.0,58.0,98.84890625,-29.62,5.1693263125,33.93
2021-06-29 16:17:26.898437500,-23.0,-10.0,58.0,98.853984375,-31.985,5.16980671875,33.93
2021-06-29 16:17:26.906250000,-23.0,-10.0,58.0,98.85906250000001,-34.35,5.170287125,33.93
2021-06-29 16:17:26.914062500,-23.0,-10.0,58.0,98.864140625,-36.495000000000005,5.17076753125,33.93
2021-06-29 16:17:26.921875000,-23.0,-10.0,58.0,98.86921875,-38.64,5.1712479375000004,33.93
2021-06-29 16:17:26.929687500,-23.0,-10.0,58.0,98.874296875,-40.269999999999996,5.17172834375,33.93
2021-06-29 16:17:26.937500000,-23.0,-10.0,58.0,98.879375,-41.9,5.17220875,33.93
2021-06-29 16:17:26.945312500,-23.0,-10.0,58.0,98.88445312500001,-42.64,5.172689156250001,33.93
2021-06-29 16:17:26.953125000,-23.0,-10.0,58.0,98.88953125,-43.38,5.1731695625,33.93
2021-06-29 16:17:26.960937500,-23.0,-10.0,58.0,98.894609375,-42.88,5.17364996875,33.93
2021-06-29 16:17:26.968750000,-23.0,-10.0,58.0,98.8996875,-42.38,5.174130375000001,33.93
2021-06-29 16:17:26.976562500,-23.0,-10.0,58.0,98.904765625,-40.45,5.17461078125,33.93
2021-06-29 16:17:26.984375000,-23.0,-10.0,58.0,98.90984375000001,-38.52,5.1750911875000005,33.93
2021-06-29 16:17:26.992187500,-23.0,-10.0,58.0,98.914921875,-35.255,5.17557159375,33.93
2021-06-29 16:17:27.000000000,-23.0,-10.0,58.0,98.92,-31.99,5.176052,33.93
2021-06-29 16:17:27.007812500,-23.0,-10.0,58.0,98.92515625,-27.765,5.1760920312500005,33.93
2021-06-29 16:17:27.015625000,-23.0,-10.0,58.0,98.9303125,-23.54,5.176132062500001,33.93
2021-06-29 16:17:27.023437500,-23.0,-10.0,58.0,98.93546875,-18.89,5.17617209375,33.93
2021-06-29 16:17:27.031250000,-23.0,-10.0,58.0,98.940625,-14.24,5.176212125,33.93
2021-06-29 16:17:27.039062500,-23.0,-10.0,58.0,98.94578125,-9.68,5.17625215625,33.93
2021-06-29 16:17:27.046875000,-23.0,-10.0,58.0,98.9509375,-5.12,5.1762921875000005,33.93
2021-06-29 16:17:27.054687500,-23.0,-10.0,58.0,98.95609375000001,-1.0350000000000001,5.17633221875,33.93
2021-06-29 16:17:27.062500000,-23.0,-10.0,58.0,98.96125,3.05,5.17637225,33.93
2021-06-29 16:17:27.070312500,-23.0,-10.0,58.0,98.96640625,6.494999999999999,5.17641228125,33.93
2021-06-29 16:17:27.078125000,-23.0,-10.0,58.0,98.9715625,9.94,5.1764523125,33.93
2021-06-29 16:17:27.085937500,-23.0,-10.0,58.0,98.97671875,12.67,5.176492343750001,33.93
2021-06-29 16:17:27.093750000,-23.0,-10.0,58.0,98.981875,15.4,5.176532375,33.93
2021-06-29 16:17:27.101562500,-23.0,-10.0,58.0,98.98703125,17.395,5.17657240625,33.93
2021-06-29 16:17:27.109375000,-23.0,-10.0,58.0,98.9921875,19.39,5.1766124375,33.93
2021-06-29 16:17:27.117187500,-23.0,-10.0,58.0,98.99734375,20.630000000000003,5.17665246875,33.93
2021-06-29 16:17:27.125000000,-23.0,-10.0,58.0,99.0025,21.87,5.1766925,33.93
2021-06-29 16:17:27.132812500,-23.0,-10.0,58.0,99.00765625,22.34,5.17673253125,33.93
2021-06-29 16:17:27.140625000,-23.0,-10.0,58.0,99.0128125,22.81,5.1767725625,33.93
2021-06-29 16:17:27.148437500,-23.0,-10.0,58.0,99.01796875,22.549999999999997,5.17681259375,33.93
2021-06-29 16:17:27.156250000,-23.0,-10.0,58.0,99.02312500000001,22.29,5.176852625,33.93
2021-06-29 16:17:27.164062500,-23.0,-10.0,58.0,99.02828125,21.48,5.17689265625,33.93
2021-06-29 16:17:27.171875000,-23.0,-10.0,58.0,99.0334375,20.67,5.1769326875,33.93
2021-06-29 16:17:27.179687500,-23.0,-10.0,58.0,99.03859375,19.560000000000002,5.17697271875,33.93
2021-06-29 16:17:27.187500000,-23.0,-10.0,58.0,99.04375,18.45,5.17701275,33.93
2021-06-29 16:17:27.195312500,-23.0,-10.0,58.0,99.04890625,17.33,5.1770527812500005,33.93
2021-06-29 16:17:27.203125000,-23.0,-10.0,58.0,99.0540625,16.21,5.1770928125,33.93
2021-06-29 16:17:27.210937500,-23.0,-10.0,58.0,99.05921875,15.3,5.17713284375,33.93
2021-06-29 16:17:27.218750000,-23.0,-10.0,58.0,99.064375,14.39,5.177172875,33.93
2021-06-29 16:17:27.226562500,-23.0,-10.0,58.0,99.06953125,13.785,5.17721290625,33.93
2021-06-29 16:17:27.234375000,-23.0,-10.0,58.0,99.0746875,13.18,5.1772529375,33.93
2021-06-29 16:17:27.242187500,-23.0,-10.0,58.0,99.07984375,12.83,5.17729296875,33.93
2021-06-29 16:17:27.250000000,-23.0,-10.0,58.0,99.08500000000001,12.48,5.177333,33.93
2021-06-29 16:17:27.257812500,-23.0,-10.0,58.0,99.09015625,12.25,5.17713284375,33.93
2021-06-29 16:17:27.265625000,-23.0,-10.0,58.0,99.0953125,12.02,5.1769326875,33.93
2021-06-29 16:17:27.273437500,-23.0,-10.0,58.0,99.10046875,11.74,5.17673253125,33.93
2021-06-29 16:17:27.281250000,-23.0,-10.0,58.0,99.105625,11.46,5.176532375,33.93
2021-06-29 16:17:27.289062500,-23.0,-10.0,58.0,99.11078125,10.98,5.17633221875,33.93
2021-06-29 16:17:27.296875000,-23.0,-10.0,58.0,99.1159375,10.5,5.1761320625,33.93
2021-06-29 16:17:27.304687500,-23.0,-10.0,58.0,99.12109375,9.745000000000001,5.17593190625,33.93
2021-06-29 16:17:27.312500000,-23.0,-10.0,58.0,99.12625,8.99,5.17573175,33.93
2021-06-29 16:17:27.320312500,-23.0,-10.0,58.0,99.13140625,7.9350000000000005,5.17553159375,33.93
2021-06-29 16:17:27.328125000,-23.0,-10.0,58.0,99.1365625,6.88,5.1753314375,33.93
2021-06-29 16:17:27.335937500,-23.0,-10.0,58.0,99.14171875,5.5649999999999995,5.17513128125,33.93
2021-06-29 16:17:27.343750000,-23.0,-10.0,58.0,99.146875,4.25,5.174931125,33.93
2021-06-29 16:17:27.351562500,-23.0,-10.0,58.0,99.15203125000001,2.715,5.17473096875,33.93
2021-06-29 16:17:27.359375000,-23.0,-10.0,58.0,99.1571875,1.18,5.1745308125,33.93
2021-06-29 16:17:27.367187500,-23.0,-10.0,58.0,99.16234375,-0.5050000000000001,5.1743306562499995,33.93
2021-06-29 16:17:27.375000000,-23.0,-10.0,58.0,99.1675,-2.19,5.1741305,33.93
2021-06-29 16:17:27.382812500,-23.0,-10.0,58.0,99.17265625,-3.9699999999999998,5.17393034375,33.93
2021-06-29 16:17:27.390625000,-23.0,-10.0,58.0,99.1778125,-5.75,5.1737301875,33.93
2021-06-29 16:17:27.398437500,-23.0,-10.0,58.0,99.18296875,-7.59,5.17353003125,33.93
2021-06-29 16:17:27.406250000,-23.0,-10.0,58.0,99.188125,-9.43,5.173329875,33.93
2021-06-29 16:17:27.414062500,-23.0,-10.0,58.0,99.19328125,-11.305,5.17312971875,33.93
2021-06-29 16:17:27.421875000,-23.0,-10.0,58.0,99.1984375,-13.18,5.1729295625,33.93
2021-06-29 16:17:27.429687500,-23.0,-10.0,58.0,99.20359375,-15.095,5.17272940625,33.93
2021-06-29 16:17:27.437500000,-23.0,-10.0,58.0,99.20875,-17.01,5.17252925,33.93
2021-06-29 16:17:27.445312500,-23.0,-10.0,58.0,99.21390625,-19.03,5.17232909375,33.93
2021-06-29 16:17:27.453125000,-23.0,-10.0,58.0,99.2190625,-21.05,5.1721289375,33.93
2021-06-29 16:17:27.460937500,-23.0,-10.0,58.0,99.22421875,-23.27,5.17192878125,33.93
2021-06-29 16:17:27.468750000,-23.0,-10.0,58.0,99.229375,-25.49,5.171728625,33.93
2021-06-29 16:17:27.476562500,-23.0,-10.0,58.0,99.23453125,-28.005,5.17152846875,33.93
2021-06-29 16:17:27.484375000,-23.0,-10.0,58.0,99.2396875,-30.52,5.1713283125,33.93
2021-06-29 16:17:27.492187500,-23.0,-10.0,58.0,99.24484375,-33.339999999999996,5.17112815625,33.93
2021-06-29 16:17:27.500000000,-23.0,-10.0,58.0,99.25,-36.16,5.170928,33.93
2021-06-29 16:17:27.507812500,-23.0,-10.25,58.0,99.25515625,-39.15,5.17060771875,33.93
2021-06-29 16:17:27.515625000,-23.0,-10.5,58.0,99.2603125,-42.14,5.1702874375,33.93
2021-06-29 16:17:27.523437500,-23.0,-10.75,58.0,99.26546875,-44.945,5.16996715625,33.93
2021-06-29 16:17:27.531250000,-23.0,-11.0,58.0,99.270625,-47.75,5.169646875,33.93
2021-06-29 16:17:27.539062500,-23.0,-10.75,58.0,99.27578125,-49.885000000000005,5.16932659375,33.93
2021-06-29 16:17:27.546875000,-23.0,-10.5,58.0,99.2809375,-52.02,5.1690063125,33.93
2021-06-29 16:17:27.554687500,-23.0,-10.25,58.0,99.28609375,-52.975,5.16868603125,33.93
2021-06-29 16:17:27.562500000,-23.0,-10.0,58.0,99.29125,-53.93,5.1683657499999995,33.93
2021-06-29 16:17:27.570312500,-23.0,-10.0,58.0,99.29640625,-53.35,5.16804546875,33.93
2021-06-29 16:17:27.578125000,-23.0,-10.0,58.0,99.3015625,-52.77,5.1677251875,33.93
2021-06-29 16:17:27.585937500,-23.0,-10.0,58.0,99.30671875,-50.565,5.16740490625,33.93
2021-06-29 16:17:27.593750000,-23.0,-10.0,58.0,99.311875,-48.36,5.167084625,33.93
2021-06-29 16:17:27.601562500,-23.0,-10.0,58.25,99.31703125,-44.754999999999995,5.16676434375,33.93
2021-06-29 16:17:27.609375000,-23.0,-10.0,58.5,99.3221875,-41.15,5.1664440625,33.93
2021-06-29 16:17:27.617187500,-23.0,-10.0,58.75,99.32734375,-36.57,5.16612378125,33.93
2021-06-29 16:17:27.625000000,-23.0,-10.0,59.0,99.3325,-31.99,5.1658035,33.93
2021-06-29 16:17:27.632812500,-23.0,-10.0,58.75,99.33765625,-26.979999999999997,5.16548321875,33.93
2021-06-29 16:17:27.640625000,-23.0,-10.0,58.5,99.3428125,-21.97,5.1651629375,33.93
2021-06-29 16:17:27.648437500,-23.0,-10.0,58.25,99.34796874999999,-17.005,5.16484265625,33.93
2021-06-29 16:17:27.656250000,-23.0,-10.0,58.0,99.353125,-12.04,5.164522375,33.93
2021-06-29 16:17:27.664062500,-23.25,-10.0,58.0,99.35828125,-7.449999999999999,5.16420209375,33.93
2021-06-29 16:17:27.671875000,-23.5,-10.0,58.0,99.3634375,-2.86,5.1638818125,33.93
2021-06-29 16:17:27.679687500,-23.75,-10.0,58.0,99.36859375,1.1400000000000001,5.16356153125,33.93
2021-06-29 16:17:27.687500000,-24.0,-10.0,58.0,99.37375,5.14,5.1632412500000004,33.93
2021-06-29 16:17:27.695312500,-23.75,-10.0,58.0,99.37890625,8.459999999999999,5.16292096875,33.93
2021-06-29 16:17:27.703125000,-23.5,-10.0,58.0,99.3840625,11.78,5.1626006875,33.93
2021-06-29 16:17:27.710937500,-23.25,-10.0,58.0,99.38921875,14.350000000000001,5.16228040625,33.93
2021-06-29 16:17:27.718750000,-23.0,-10.0,58.0,99.394375,16.92,5.161960125,33.93
2021-06-29 16:17:27.726562500,-23.0,-10.0,58.0,99.39953125,18.69,5.16163984375,33.93
2021-06-29 16:17:27.734375000,-23.0,-10.0,58.0,99.4046875,20.46,5.1613195625,33.93
2021-06-29 16:17:27.742187500,-23.0,-10.0,58.0,99.40984375,21.415,5.16099928125,33.93
2021-06-29 16:17:27.750000000,-23.0,-10.0,58.0,99.41499999999999,22.37,5.160679,33.93
2021-06-29 16:17:27.757812500,-23.0,-10.0,58.0,99.42015625,22.545,5.16039875,33.93
2021-06-29 16:17:27.765625000,-23.0,-10.0,58.0,99.4253125,22.72,5.1601185,33.93
2021-06-29 16:17:27.773437500,-23.0,-10.0,58.0,99.43046875,22.235,5.15983825,33.93
2021-06-29 16:17:27.781250000,-23.0,-10.0,58.0,99.435625,21.75,5.159558,33.93
2021-06-29 16:17:27.789062500,-23.0,-10.0,58.0,99.44078125,20.835,5.15927775,33.93
2021-06-29 16:17:27.796875000,-23.0,-10.0,58.0,99.4459375,19.92,5.1589975,33.93
2021-06-29 16:17:27.804687500,-23.0,-10.0,58.0,99.45109375,18.840000000000003,5.15871725,33.93
2021-06-29 16:17:27.812500000,-23.0,-10.0,58.0,99.45625,17.76,5.158437,33.93
2021-06-29 16:17:27.820312500,-23.0,-10.0,58.0,99.46140625,16.8,5.15815675,33.93
2021-06-29 16:17:27.828125000,-23.0,-10.0,58.0,99.4665625,15.84,5.1578764999999995,33.93
2021-06-29 16:17:27.835937500,-23.0,-10.0,58.0,99.47171875,15.17,5.15759625,33.93
2021-06-29 16:17:27.843750000,-23.0,-10.0,58.0,99.47687499999999,14.5,5.157316,33.93
2021-06-29 16:17:27.851562500,-23.0,-10.0,58.0,99.48203125,14.15,5.1570357499999995,33.93
2021-06-29 16:17:27.859375000,-23.0,-10.0,58.0,99.4871875,13.8,5.1567555,33.93
2021-06-29 16:17:27.867187500,-23.0,-10.0,58.0,99.49234375,13.615,5.15647525,33.93
2021-06-29 16:17:27.875000000,-23.0,-10.0,58.0,99.4975,13.43,5.156195,33.93
2021-06-29 16:17:27.882812500,-23.0,-10.0,58.0,99.50265625,13.149999999999999,5.15591475,33.93
2021-06-29 16:17:27.890625000,-23.0,-10.0,58.0,99.5078125,12.87,5.1556345,33.93
2021-06-29 16:17:27.898437500,-23.0,-10.0,58.0,99.51296875,12.254999999999999,5.15535425,33.93
2021-06-29 16:17:27.906250000,-23.0,-10.0,58.0,99.518125,11.64,5.155074,33.93
2021-06-29 16:17:27.914062500,-23.0,-10.25,58.0,99.52328125,10.565000000000001,5.15479375,33.93
2021-06-29 16:17:27.921875000,-23.0,-10.5,58.0,99.5284375,9.49,5.1545135,33.93
2021-06-29 16:17:27.929687500,-23.0,-10.75,58.0,99.53359375,8.01,5.15423325,33.93
2021-06-29 16:17:27.937500000,-23.0,-11.0,58.0,99.53875,6.53,5.153953,33.93
2021-06-29 16:17:27.945312500,-23.0,-10.75,58.0,99.54390624999999,4.805,5.15367275,33.93
2021-06-29 16:17:27.953125000,-23.0,-10.5,58.0,99.5490625,3.08,5.1533925,33.93
2021-06-29 16:17:27.960937500,-23.0,-10.25,58.0,99.55421875,1.295,5.1531122499999995,33.93
2021-06-29 16:17:27.968750000,-23.0,-10.0,58.0,99.559375,-0.49,5.152832,33.93
2021-06-29 16:17:27.976562500,-23.0,-10.0,58.0,99.56453125,-2.205,5.15255175,33.93
2021-06-29 16:17:27.984375000,-23.0,-10.0,58.0,99.5696875,-3.92,5.1522714999999994,33.93
2021-06-29 16:17:27.992187500,-23.0,-10.0,58.0,99.57484375,-5.5600000000000005,5.15199125,33.93
2021-06-29 16:17:28.000000000,-23.0,-10.0,58.0,99.58,-7.2,5.151711,33.93
2021-06-29 16:17:28.007812500,-23.0,-10.0,58.0,99.585078125,-8.845,5.151831093749999,33.93
2021-06-29 16:17:28.015625000,-23.0,-10.0,58.0,99.59015624999999,-10.49,5.1519511875,33.93
2021-06-29 16:17:28.023437500,-23.0,-10.0,58.0,99.595234375,-12.254999999999999,5.15207128125,33.93
2021-06-29 16:17:28.031250000,-23.0,-10.0,58.0,99.6003125,-14.02,5.152191375,33.93
2021-06-29 16:17:28.039062500,-23.0,-10.0,58.0,99.605390625,-16.0,5.15231146875,33.93
2021-06-29 16:17:28.046875000,-23.0,-10.0,58.0,99.61046875,-17.98,5.1524315624999995,33.93
2021-06-29 16:17:28.054687500,-23.0,-10.0,58.0,99.61554687499999,-20.255000000000003,5.15255165625,33.93
2021-06-29 16:17:28.062500000,-23.0,-10.0,58.0,99.620625,-22.53,5.15267175,33.93
2021-06-29 16:17:28.070312500,-23.0,-10.0,58.0,99.625703125,-25.145000000000003,5.15279184375,33.93
2021-06-29 16:17:28.078125000,-23.0,-10.0,58.0,99.63078125,-27.76,5.1529119375,33.93
2021-06-29 16:17:28.085937500,-23.0,-10.0,58.0,99.635859375,-30.675000000000004,5.1530320312499995,33.93
2021-06-29 16:17:28.093750000,-23.0,-10.0,58.0,99.64093749999999,-33.59,5.153152125,33.93
2021-06-29 16:17:28.101562500,-23.0,-10.0,58.0,99.646015625,-36.635000000000005,5.15327221875,33.93
2021-06-29 16:17:28.109375000,-23.0,-10.0,58.0,99.65109375,-39.68,5.1533923125,33.93
2021-06-29 16:17:28.117187500,-23.0,-10.0,58.0,99.656171875,-42.489999999999995,5.15351240625,33.93
2021-06-29 16:17:28.125000000,-23.0,-10.0,58.0,99.66125,-45.3,5.1536325000000005,33.93
2021-06-29 16:17:28.132812500,-23.0,-10.0,58.0,99.66632812499999,-47.334999999999994,5.15375259375,33.93
2021-06-29 16:17:28.140625000,-23.0,-10.0,58.0,99.67140625,-49.37,5.1538726875,33.93
2021-06-29 16:17:28.148437500,-23.0,-10.0,58.0,99.676484375,-50.075,5.15399278125,33.93
2021-06-29 16:17:28.156250000,-23.0,-10.0,58.0,99.6815625,-50.78,5.154112875,33.93
2021-06-29 16:17:28.164062500,-23.0,-10.0,58.0,99.686640625,-49.78,5.154232968750001,33.93
2021-06-29 16:17:28.171875000,-23.0,-10.0,58.0,99.69171874999999,-48.78,5.1543530625,33.93
2021-06-29 16:17:28.179687500,-23.0,-10.0,58.0,99.696796875,-46.035,5.15447315625,33.93
2021-06-29 16:17:28.187500000,-23.0,-10.0,58.0,99.701875,-43.29,5.1545932500000005,33.93
2021-06-29 16:17:28.195312500,-23.0,-10.0,58.0,99.706953125,-39.135,5.15471334375,33.93
2021-06-29 16:17:28.203125000,-23.0,-10.0,58.0,99.71203125,-34.98,5.154833437500001,33.93
2021-06-29 16:17:28.210937500,-23.0,-10.0,58.0,99.71710937499999,-30.009999999999998,5.15495353125,33.93
2021-06-29 16:17:28.218750000,-23.0,-10.0,58.0,99.7221875,-25.04,5.155073625,33.93
2021-06-29 16:17:28.226562500,-23.0,-10.0,58.0,99.727265625,-19.86,5.1551937187500005,33.93
2021-06-29 16:17:28.234375000,-23.0,-10.0,58.0,99.73234375,-14.68,5.1553138125,33.93
2021-06-29 16:17:28.242187500,-23.0,-10.0,58.0,99.737421875,-9.75,5.155433906250001,33.93
2021-06-29 16:17:28.250000000,-23.0,-10.0,58.0,99.7425,-4.82,5.155554,33.93
2021-06-29 16:17:28.257812500,-23.0,-10.0,58.0,99.747578125,-0.3849999999999998,5.1559143125,33.93
2021-06-29 16:17:28.265625000,-23.0,-10.0,58.0,99.75265625,4.05,5.156274625,33.93
2021-06-29 16:17:28.273437500,-23.0,-10.0,58.0,99.757734375,7.904999999999999,5.156634937500001,33.93
2021-06-29 16:17:28.281250000,-23.0,-10.0,58.0,99.7628125,11.76,5.1569952500000005,33.93
2021-06-29 16:17:28.289062500,-23.0,-10.0,58.0,99.767890625,14.965,5.1573555625,33.93
2021-06-29 16:17:28.296875000,-23.0,-10.0,58.0,99.77296875,18.17,5.157715875,33.93
2021-06-29 16:17:28.304687500,-23.0,-10.0,58.0,99.778046875,20.62,5.158076187500001,33.93
2021-06-29 16:17:28.312500000,-23.0,-10.0,58.0,99.783125,23.07,5.1584365000000005,33.93
2021-06-29 16:17:28.320312500,-23.0,-10.0,58.0,99.788203125,24.65,5.1587968125,33.93
2021-06-29 16:17:28.328125000,-23.0,-10.0,58.0,99.79328125,26.23,5.159157125,33.93
2021-06-29 16:17:28.335937500,-23.0,-10.0,58.0,99.798359375,26.905,5.1595174375,33.93
2021-06-29 16:17:28.343750000,-23.0,-10.0,58.0,99.8034375,27.58,5.159877750000001,33.93
2021-06-29 16:17:28.351562500,-23.0,-10.0,58.0,99.808515625,27.479999999999997,5.1602380625,33.93
2021-06-29 16:17:28.359375000,-23.0,-10.0,58.0,99.81359375,27.38,5.160598375,33.93
2021-06-29 16:17:28.367187500,-23.0,-10.0,58.0,99.818671875,26.81,5.1609586875,33.93
2021-06-29 16:17:28.375000000,-23.0,-10.0,58.0,99.82375,26.24,5.161319000000001,33.93
2021-06-29 16:17:28.382812500,-23.0,-10.0,58.0,99.828828125,25.545,5.1616793125000004,33.93
2021-06-29 16:17:28.390625000,-23.0,-10.0,58.0,99.83390625,24.85,5.162039625,33.93
2021-06-29 16:17:28.398437500,-23.0,-10.0,58.0,99.838984375,24.285,5.1623999375,33.93
2021-06-29 16:17:28.406250000,-23.0,-10.0,58.0,99.8440625,23.72,5.16276025,33.93
2021-06-29 16:17:28.414062500,-23.0,-10.0,58.25,99.849140625,23.375,5.1631205625000005,33.93
2021-06-29 16:17:28.421875000,-23.0,-10.0,58.5,99.85421875,23.03,5.163480875,33.93
2021-06-29 16:17:28.429687500,-23.0,-10.0,58.75,99.859296875,22.815,5.1638411875,33.93
2021-06-29 16:17:28.437500000,-23.0,-10.0,59.0,99.864375,22.6,5.1642015,33.93
2021-06-29 16:17:28.445312500,-23.0,-10.0,58.75,99.869453125,22.310000000000002,5.1645618125,33.93
2021-06-29 16:17:28.453125000,-23.0,-10.0,58.5,99.87453125,22.02,5.164922125,33.93
2021-06-29 16:17:28.460937500,-23.0,-10.0,58.25,99.879609375,21.455,5.1652824375,33.93
2021-06-29 16:17:28.468750000,-23.0,-10.0,58.0,99.8846875,20.89,5.16564275,33.93
2021-06-29 16:17:28.476562500,-23.0,-10.0,58.0,99.889765625,19.905,5.1660030625,33.93
2021-06-29 16:17:28.484375000,-23.0,-10.0,58.0,99.89484375,18.92,5.166363375,33.93
2021-06-29 16:17:28.492187500,-23.0,-10.0,58.0,99.899921875,17.520000000000003,5.1667236875,33.93
2021-06-29 16:17:28.500000000,-23.0,-10.0,58.0,99.905,16.12,5.167084,33.93
2021-06-29 16:17:28.507812500,-23.0,-10.0,58.0,99.910078125,14.405000000000001,5.1672841875,33.93
2021-06-29 16:17:28.515625000,-23.0,-10.0,58.0,99.91515625,12.69,5.167484375,33.93
2021-06-29 16:17:28.523437500,-23.0,-10.0,58.0,99.920234375,10.844999999999999,5.1676845625,33.93
2021-06-29 16:17:28.531250000,-23.0,-10.0,58.0,99.9253125,9.0,5.16788475,33.93
2021-06-29 16:17:28.539062500,-23.0,-10.0,58.0,99.930390625,7.2,5.1680849375,33.93
2021-06-29 16:17:28.546875000,-23.0,-10.0,58.0,99.93546875,5.4,5.168285125,33.93
2021-06-29 16:17:28.554687500,-23.0,-10.0,58.0,99.940546875,3.765,5.1684853125,33.93
2021-06-29 16:17:28.562500000,-23.0,-10.0,58.0,99.945625,2.13,5.1686855000000005,33.93
2021-06-29 16:17:28.570312500,-23.0,-10.0,58.0,99.950703125,0.6499999999999999,5.1688856875,33.93
2021-06-29 16:17:28.578125000,-23.0,-10.0,58.0,99.95578125,-0.83,5.169085875,33.93
2021-06-29 16:17:28.585937500,-23.0,-10.0,58.0,99.960859375,-2.26,5.1692860625,33.93
2021-06-29 16:17:28.593750000,-23.0,-10.0,58.0,99.9659375,-3.69,5.16948625,33.93
2021-06-29 16:17:28.601562500,-23.0,-10.0,58.0,99.971015625,-5.255,5.1696864375,33.93
2021-06-29 16:17:28.609375000,-23.0,-10.0,58.0,99.97609375,-6.82,5.169886625,33.93
2021-06-29 16:17:28.617187500,-23.0,-10.0,58.0,99.981171875,-8.7,5.1700868125,33.93
2021-06-29 16:17:28.625000000,-23.0,-10.0,58.0,99.98625,-10.58,5.170287,33.93
2021-06-29 16:17:28.632812500,-23.0,-10.25,58.0,99.991328125,-12.875,5.1704871875,33.93
2021-06-29 16:17:28.640625000,-23.0,-10.5,58.0,99.99640625,-15.17,5.170687375,33.93
2021-06-29 16:17:28.648437500,-23.0,-10.75,58.0,100.001484375,-17.87,5.1708875625,33.93
2021-06-29 16:17:28.656250000,-23.0,-11.0,58.0,100.0065625,-20.57,5.17108775,33.93
2021-06-29 16:17:28.664062500,-23.0,-10.75,58.0,100.011640625,-23.560000000000002,5.1712879375,33.93
2021-06-29 16:17:28.671875000,-23.0,-10.5,58.0,100.01671875,-26.55,5.171488125,33.93
2021-06-29 16:17:28.679687500,-23.0,-10.25,58.0,100.021796875,-29.564999999999998,5.1716883125,33.93
2021-06-29 16:17:28.687500000,-23.0,-10.0,58.0,100.026875,-32.58,5.1718885,33.93
2021-06-29 16:17:28.695312500,-23.0,-10.0,58.0,100.031953125,-35.28,5.1720886875000005,33.93
2021-06-29 16:17:28.703125000,-23.0,-10.0,58.0,100.03703125,-37.98,5.1722888750000005,33.93
2021-06-29 16:17:28.710937500,-23.0,-10.0,58.0,100.042109375,-39.94499999999999,5.1724890625,33.93
2021-06-29 16:17:28.718750000,-23.0,-10.0,58.0,100.0471875,-41.91,5.17268925,33.93
2021-06-29 16:17:28.726562500,-23.0,-10.0,58.0,100.052265625,-42.72,5.1728894375,33.93
2021-06-29 16:17:28.734375000,-23.0,-10.0,58.0,100.05734375,-43.53,5.173089625,33.93
2021-06-29 16:17:28.742187500,-23.0,-10.0,58.0,100.062421875,-42.89,5.1732898125,33.93
2021-06-29 16:17:28.750000000,-23.0,-10.0,58.0,100.0675,-42.25,5.17349,33.93
2021-06-29 16:17:28.757812500,-23.0,-10.25,58.0,100.072578125,-40.075,5.1735700625000005,33.93
2021-06-29 16:17:28.765625000,-23.0,-10.5,58.0,100.07765625,-37.9,5.173650125,33.93
2021-06-29 16:17:28.773437500,-23.0,-10.75,58.0,100.082734375,-34.375,5.1737301875,33.93
2021-06-29 16:17:28.781250000,-23.0,-11.0,58.0,100.0878125,-30.85,5.17381025,33.93
2021-06-29 16:17:28.789062500,-23.0,-10.75,58.0,100.09289062500001,-26.37,5.1738903125,33.93
2021-06-29 16:17:28.796875000,-23.0,-10.5,58.0,100.09796875,-21.89,5.173970375000001,33.93
2021-06-29 16:17:28.804687500,-23.0,-10.25,58.0,100.103046875,-16.98,5.1740504375,33.93
2021-06-29 16:17:28.812500000,-23.0,-10.0,58.0,100.108125,-12.07,5.1741305,33.93
2021-06-29 16:17:28.820312500,-23.0,-10.0,58.0,100.113203125,-7.21,5.1742105625,33.93
2021-06-29 16:17:28.828125000,-23.0,-10.0,58.0,100.11828125000001,-2.35,5.174290625,33.93
2021-06-29 16:17:28.835937500,-23.0,-10.0,58.0,100.123359375,2.055,5.174370687500001,33.93
2021-06-29 16:17:28.843750000,-23.0,-10.0,58.0,100.1284375,6.46,5.17445075,33.93
2021-06-29 16:17:28.851562500,-23.0,-10.0,58.0,100.133515625,10.165,5.1745308125000005,33.93
2021-06-29 16:17:28.859375000,-23.0,-10.0,58.0,100.13859375,13.87,5.174610875,33.93
2021-06-29 16:17:28.867187500,-23.0,-10.0,58.0,100.14367187500001,16.735,5.1746909375,33.93
2021-06-29 16:17:28.875000000,-23.0,-10.0,58.0,100.14875,19.6,5.174771,33.93
2021-06-29 16:17:28.882812500,-23.0,-10.0,58.0,100.153828125,21.55,5.1748510625,33.93
2021-06-29 16:17:28.890625000,-23.0,-10.0,58.0,100.15890625,23.5,5.1749311250000005,33.93
2021-06-29 16:17:28.898437500,-23.0,-10.0,58.0,100.163984375,24.54,5.1750111875,33.93
2021-06-29 16:17:28.906250000,-23.0,-10.0,58.0,100.16906250000001,25.58,5.17509125,33.93
2021-06-29 16:17:28.914062500,-23.0,-10.0,58.0,100.174140625,25.814999999999998,5.1751713125,33.93
2021-06-29 16:17:28.921875000,-23.0,-10.0,58.0,100.17921875,26.05,5.175251375,33.93
2021-06-29 16:17:28.929687500,-23.0,-10.0,58.0,100.184296875,25.68,5.175331437500001,33.93
2021-06-29 16:17:28.937500000,-23.0,-10.0,58.0,100.189375,25.31,5.1754115,33.93
2021-06-29 16:17:28.945312500,-23.0,-10.0,58.0,100.19445312500001,24.615000000000002,5.1754915625,33.93
2021-06-29 16:17:28.953125000,-23.0,-10.0,58.0,100.19953125,23.92,5.175571625,33.93
2021-06-29 16:17:28.960937500,-23.0,-10.0,58.0,100.204609375,23.195,5.1756516875,33.93
2021-06-29 16:17:28.968750000,-23.0,-10.0,58.0,100.2096875,22.47,5.175731750000001,33.93
2021-06-29 16:17:28.976562500,-23.0,-10.0,58.0,100.214765625,21.939999999999998,5.1758118125,33.93
2021-06-29 16:17:28.984375000,-23.0,-10.0,58.0,100.21984375000001,21.41,5.1758918750000005,33.93
2021-06-29 16:17:28.992187500,-23.0,-10.0,58.0,100.224921875,21.16,5.1759719375,33.93
2021-06-29 16:17:29.000000000,-23.0,-10.0,58.0,100.23,20.91,5.176052,33.93
2021-06-29 16:17:29.007812500,-23.0,-10.0,58.0,100.235625,20.865000000000002,5.1759719375,33.93
2021-06-29 16:17:29.015625000,-23.0,-10.0,58.0,100.24125000000001,20.82,5.1758918750000005,33.93
2021-06-29 16:17:29.023437500,-23.0,-10.0,58.0,100.246875,20.79,5.1758118125,33.93
2021-06-29 16:17:29.031250000,-23.0,-10.0,58.0,100.2525,20.76,5.175731750000001,33.93
2021-06-29 16:17:29.039062500,-23.0,-10.0,58.0,100.258125,20.515,5.1756516875,33.93
2021-06-29 16:17:29.046875000,-23.0,-10.0,58.0,100.26375,20.27,5.175571625,33.93
2021-06-29 16:17:29.054687500,-23.0,-10.0,58.0,100.26937500000001,19.63,5.1754915625,33.93
2021-06-29 16:17:29.062500000,-23.0,-10.0,58.0,100.275,18.99,5.1754115,33.93
2021-06-29 16:17:29.070312500,-23.0,-10.0,58.0,100.280625,17.895,5.175331437500001,33.93
2021-06-29 16:17:29.078125000,-23.0,-10.0,58.0,100.28625000000001,16.8,5.175251375,33.93
2021-06-29 16:17:29.085937500,-23.0,-10.0,58.0,100.291875,15.33,5.1751713125,33.93
2021-06-29 16:17:29.093750000,-23.0,-10.0,58.0,100.2975,13.86,5.17509125,33.93
2021-06-29 16:17:29.101562500,-23.0,-10.0,58.25,100.30312500000001,12.18,5.1750111875,33.93
2021-06-29 16:17:29.109375000,-23.0,-10.0,58.5,100.30875,10.5,5.1749311250000005,33.93
2021-06-29 16:17:29.117187500,-23.0,-10.0,58.75,100.314375,8.785,5.1748510625,33.93
2021-06-29 16:17:29.125000000,-23.0,-10.0,59.0,100.32000000000001,7.07,5.174771,33.93
2021-06-29 16:17:29.132812500,-23.0,-10.0,58.75,100.325625,5.405,5.1746909375,33.93
2021-06-29 16:17:29.140625000,-23.0,-10.0,58.5,100.33125,3.74,5.174610875,33.93
2021-06-29 16:17:29.148437500,-23.0,-10.0,58.25,100.336875,2.105,5.1745308125000005,33.93
2021-06-29 16:17:29.156250000,-23.0,-10.0,58.0,100.3425,0.47,5.17445075,33.93
2021-06-29 16:17:29.164062500,-23.0,-10.0,58.0,100.34812500000001,-1.265,5.174370687500001,33.93
2021-06-29 16:17:29.171875000,-23.0,-10.0,58.0,100.35375,-3.0,5.174290625,33.93
2021-06-29 16:17:29.179687500,-23.0,-10.0,58.0,100.359375,-4.984999999999999,5.1742105625,33.93
2021-06-29 16:17:29.187500000,-23.0,-10.0,58.0,100.36500000000001,-6.97,5.1741305,33.93
2021-06-29 16:17:29.195312500,-23.0,-10.0,58.0,100.370625,-9.31,5.1740504375,33.93
2021-06-29 16:17:29.203125000,-23.0,-10.0,58.0,100.37625,-11.65,5.173970375000001,33.93
2021-06-29 16:17:29.210937500,-23.0,-10.0,58.0,100.38187500000001,-14.344999999999999,5.1738903125,33.93
2021-06-29 16:17:29.218750000,-23.0,-10.0,58.0,100.3875,-17.04,5.17381025,33.93
2021-06-29 16:17:29.226562500,-23.0,-10.0,58.0,100.393125,-19.95,5.1737301875,33.93
2021-06-29 16:17:29.234375000,-23.0,-10.0,58.0,100.39875,-22.86,5.173650125,33.93
2021-06-29 16:17:29.242187500,-23.0,-10.0,58.0,100.404375,-25.71,5.1735700625000005,33.93
2021-06-29 16:17:29.250000000,-23.0,-10.0,58.0,100.41,-28.56,5.17349,33.93
2021-06-29 16:17:29.257812500,-23.0,-10.0,58.0,100.415625,-30.964999999999996,5.1734099375,33.93
2021-06-29 16:17:29.265625000,-23.0,-10.0,58.0,100.42125,-33.37,5.173329875,33.93
2021-06-29 16:17:29.273437500,-23.0,-10.0,58.0,100.42687500000001,-34.92,5.1732498125,33.93
2021-06-29 16:17:29.281250000,-23.0,-10.0,58.0,100.4325,-36.47,5.1731697500000005,33.93
2021-06-29 16:17:29.289062500,-23.0,-10.0,58.0,100.438125,-36.8,5.1730896875,33.93
2021-06-29 16:17:29.296875000,-23.0,-10.0,58.0,100.44375000000001,-37.13,5.173009625,33.93
2021-06-29 16:17:29.304687500,-23.0,-10.0,58.0,100.449375,-36.035,5.1729295625,33.93
2021-06-29 16:17:29.312500000,-23.0,-10.0,58.0,100.455,-34.94,5.1728495,33.93
2021-06-29 16:17:29.320312500,-23.0,-10.0,58.0,100.46062500000001,-32.45,5.1727694375,33.93
2021-06-29 16:17:29.328125000,-23.0,-10.0,58.0,100.46625,-29.96,5.172689375,33.93
2021-06-29 16:17:29.335937500,-23.0,-10.0,58.0,100.471875,-26.35,5.1726093125,33.93
2021-06-29 16:17:29.343750000,-23.0,-10.0,58.0,100.4775,-22.74,5.17252925,33.93
2021-06-29 16:17:29.351562500,-23.0,-10.0,58.0,100.483125,-18.43,5.1724491875,33.93
2021-06-29 16:17:29.359375000,-23.0,-10.0,58.0,100.48875000000001,-14.12,5.172369125,33.93
2021-06-29 16:17:29.367187500,-23.0,-10.0,58.0,100.494375,-9.58,5.1722890625,33.93
2021-06-29 16:17:29.375000000,-23.0,-10.0,58.0,100.5,-5.04,5.1722090000000005,33.93
2021-06-29 16:17:29.382812500,-23.0,-10.0,58.0,100.50562500000001,-0.6749999999999998,5.1721289375,33.93
2021-06-29 16:17:29.390625000,-23.0,-10.0,58.0,100.51125,3.69,5.172048875,33.93
2021-06-29 16:17:29.398437500,-23.0,-10.0,58.0,100.516875,7.58,5.1719688125,33.93
2021-06-29 16:17:29.406250000,-23.0,-10.0,58.0,100.52250000000001,11.47,5.17188875,33.93
2021-06-29 16:17:29.414062500,-23.0,-10.0,58.25,100.528125,14.675,5.1718086875000004,33.93
2021-06-29 16:17:29.421875000,-23.0,-10.0,58.5,100.53375,17.88,5.171728625,33.93
2021-06-29 16:17:29.429687500,-23.0,-10.0,58.75,100.539375,20.259999999999998,5.1716485625,33.93
2021-06-29 16:17:29.437500000,-23.0,-10.0,59.0,100.545,22.64,5.1715685,33.93
2021-06-29 16:17:29.445312500,-23.0,-10.0,59.0,100.550625,24.12,5.1714884375,33.93
2021-06-29 16:17:29.453125000,-23.0,-10.0,59.0,100.55625,25.6,5.171408375,33.93
2021-06-29 16:17:29.460937500,-23.0,-10.0,59.0,100.561875,26.200000000000003,5.1713283125,33.93
2021-06-29 16:17:29.468750000,-23.0,-10.0,59.0,100.56750000000001,26.8,5.17124825,33.93
2021-06-29 16:17:29.476562500,-23.25,-10.0,58.75,100.573125,26.665,5.1711681875,33.93
2021-06-29 16:17:29.484375000,-23.5,-10.0,58.5,100.57875,26.53,5.171088125,33.93
2021-06-29 16:17:29.492187500,-23.75,-10.0,58.25,100.58437500000001,25.915,5.1710080625,33.93
2021-06-29 16:17:29.500000000,-24.0,-10.0,58.0,100.59,25.3,5.170928,33.93
2021-06-29 16:17:29.507812500,-23.75,-10.0,58.0,100.595625,24.495,5.17076784375,33.93
2021-06-29 16:17:29.515625000,-23.5,-10.0,58.0,100.60125000000001,23.69,5.1706076875,33.93
2021-06-29 16:17:29.523437500,-23.25,-10.0,58.0,100.606875,22.945,5.17044753125,33.93
2021-06-29 16:17:29.531250000,-23.0,-10.0,58.0,100.6125,22.2,5.170287375,33.93
2021-06-29 16:17:29.539062500,-23.0,-10.0,58.0,100.618125,21.595,5.17012721875,33.93
2021-06-29 16:17:29.546875000,-23.0,-10.0,58.0,100.62375,20.99,5.1699670625,33.93
2021-06-29 16:17:29.554687500,-23.0,-10.0,58.0,100.62937500000001,20.46,5.16980690625,33.93
2021-06-29 16:17:29.562500000,-23.0,-10.0,58.0,100.635,19.93,5.16964675,33.93
2021-06-29 16:17:29.570312500,-23.0,-10.0,58.0,100.640625,19.295,5.16948659375,33.93
2021-06-29 16:17:29.578125000,-23.0,-10.0,58.0,100.64625000000001,18.66,5.1693264375000005,33.93
2021-06-29 16:17:29.585937500,-23.0,-10.0,58.0,100.651875,17.695,5.16916628125,33.93
2021-06-29 16:17:29.593750000,-23.0,-10.0,58.0,100.6575,16.73,5.169006125,33.93
2021-06-29 16:17:29.601562500,-23.0,-10.0,58.0,100.66312500000001,15.3,5.16884596875,33.93
2021-06-29 16:17:29.609375000,-23.0,-10.0,58.0,100.66875,13.87,5.1686858125,33.93
2021-06-29 16:17:29.617187500,-23.0,-10.0,58.0,100.674375,11.969999999999999,5.16852565625,33.93
2021-06-29 16:17:29.625000000,-23.0,-10.0,58.0,100.68,10.07,5.1683655,33.93
2021-06-29 16:17:29.632812500,-23.0,-10.0,58.0,100.685625,7.855,5.16820534375,33.93
2021-06-29 16:17:29.640625000,-23.0,-10.0,58.0,100.69125,5.64,5.168045187500001,33.93
2021-06-29 16:17:29.648437500,-23.0,-10.0,58.0,100.696875,3.34,5.16788503125,33.93
2021-06-29 16:17:29.656250000,-23.0,-10.0,58.0,100.7025,1.04,5.167724875,33.93
2021-06-29 16:17:29.664062500,-23.0,-10.0,58.0,100.70812500000001,-1.085,5.1675647187500005,33.93
2021-06-29 16:17:29.671875000,-23.0,-10.0,58.0,100.71375,-3.21,5.1674045625,33.93
2021-06-29 16:17:29.679687500,-23.0,-10.0,58.0,100.719375,-4.995,5.16724440625,33.93
2021-06-29 16:17:29.687500000,-23.0,-10.0,58.0,100.72500000000001,-6.78,5.16708425,33.93
2021-06-29 16:17:29.695312500,-23.0,-10.0,58.0,100.730625,-8.205,5.1669240937500005,33.93
2021-06-29 16:17:29.703125000,-23.0,-10.0,58.0,100.73625,-9.63,5.166763937500001,33.93
2021-06-29 16:17:29.710937500,-23.0,-10.0,58.0,100.74187500000001,-10.815000000000001,5.16660378125,33.93
2021-06-29 16:17:29.718750000,-23.0,-10.0,58.0,100.7475,-12.0,5.166443625,33.93
2021-06-29 16:17:29.726562500,-23.0,-10.0,58.0,100.753125,-13.16,5.1662834687500006,33.93
2021-06-29 16:17:29.734375000,-23.0,-10.0,58.0,100.75875,-14.32,5.1661233125,33.93
2021-06-29 16:17:29.742187500,-23.0,-10.0,58.0,100.764375,-15.695,5.16596315625,33.93
2021-06-29 16:17:29.750000000,-23.0,-10.0,58.0,100.77000000000001,-17.07,5.165803,33.93
2021-06-29 16:17:29.757812500,-23.0,-10.0,58.0,100.775625,-18.84,5.165282562500001,33.93
2021-06-29 16:17:29.765625000,-23.0,-10.0,58.0,100.78125,-20.61,5.164762125,33.93
2021-06-29 16:17:29.773437500,-23.0,-10.0,58.0,100.78687500000001,-22.814999999999998,5.164241687500001,33.93
2021-06-29 16:17:29.781250000,-23.0,-10.0,58.0,100.7925,-25.02,5.16372125,33.93
2021-06-29 16:17:29.789062500,-23.0,-10.0,58.0,100.798125,-27.555,5.1632008125,33.93
2021-06-29 16:17:29.796875000,-23.0,-10.0,58.0,100.80375000000001,-30.09,5.162680375000001,33.93
2021-06-29 16:17:29.804687500,-23.0,-10.0,58.0,100.809375,-32.66,5.1621599375,33.93
2021-06-29 16:17:29.812500000,-23.0,-10.0,58.0,100.815,-35.23,5.161639500000001,33.93
2021-06-29 16:17:29.820312500,-23.0,-10.0,58.0,100.820625,-37.41,5.1611190625,33.93
2021-06-29 16:17:29.828125000,-23.0,-10.0,58.0,100.82625,-39.59,5.160598625,33.93
2021-06-29 16:17:29.835937500,-23.0,-10.0,58.0,100.831875,-40.89,5.160078187500001,33.93
2021-06-29 16:17:29.843750000,-23.0,-10.0,58.0,100.8375,-42.19,5.15955775,33.93
2021-06-29 16:17:29.851562500,-23.0,-10.0,58.0,100.843125,-42.2,5.159037312500001,33.93
2021-06-29 16:17:29.859375000,-23.0,-10.0,58.0,100.84875000000001,-42.21,5.158516875,33.93
2021-06-29 16:17:29.867187500,-23.0,-10.0,58.0,100.854375,-40.71,5.1579964375000005,33.93
2021-06-29 16:17:29.875000000,-23.0,-10.0,58.0,100.86,-39.21,5.157476000000001,33.93
2021-06-29 16:17:29.882812500,-23.0,-10.0,58.0,100.86562500000001,-36.260000000000005,5.1569555625,33.93
2021-06-29 16:17:29.890625000,-23.0,-10.0,58.0,100.87125,-33.31,5.156435125000001,33.93
2021-06-29 16:17:29.898437500,-23.0,-10.0,58.0,100.876875,-29.23,5.1559146875,33.93
2021-06-29 16:17:29.906250000,-23.0,-10.0,58.0,100.88250000000001,-25.15,5.1553942500000005,33.93
2021-06-29 16:17:29.914062500,-23.0,-10.0,58.25,100.888125,-20.419999999999998,5.1548738125,33.93
2021-06-29 16:17:29.921875000,-23.0,-10.0,58.5,100.89375,-15.69,5.154353375,33.93
2021-06-29 16:17:29.929687500,-23.0,-10.0,58.75,100.899375,-10.815,5.153832937500001,33.93
2021-06-29 16:17:29.937500000,-23.0,-10.0,59.0,100.905,-5.94,5.1533125,33.93
2021-06-29 16:17:29.945312500,-23.0,-10.0,58.75,100.910625,-1.3400000000000007,5.1527920625000005,33.93
2021-06-29 16:17:29.953125000,-23.0,-10.0,58.5,100.91625,3.26,5.152271625,33.93
2021-06-29 16:17:29.960937500,-23.0,-10.0,58.25,100.921875,7.295,5.1517511875,33.93
2021-06-29 16:17:29.968750000,-23.0,-10.0,58.0,100.92750000000001,11.33,5.151230750000001,33.93
2021-06-29 16:17:29.976562500,-23.0,-10.0,58.0,100.933125,14.64,5.1507103125,33.93
2021-06-29 16:17:29.984375000,-23.0,-10.0,58.0,100.93875,17.95,5.150189875000001,33.93
2021-06-29 16:17:29.992187500,-23.0,-10.0,58.0,100.94437500000001,20.43,5.1496694375,33.93
2021-06-29 16:17:30.000000000,-23.0,-10.0,58.0,100.95,22.91,5.149149,33.93
2021-06-29 16:17:30.007812500,-23.0,-10.0,58.0,100.956015625,24.52,5.149189031250001,33.93
2021-06-29 16:17:30.015625000,-23.0,-10.0,58.0,100.96203125000001,26.13,5.149229062500001,33.93
2021-06-29 16:17:30.023437500,-23.0,-10.0,58.0,100.968046875,26.905,5.14926909375,33.93
2021-06-29 16:17:30.031250000,-23.0,-10.0,58.0,100.9740625,27.68,5.149309125,33.93
2021-06-29 16:17:30.039062500,-23.0,-10.0,58.0,100.980078125,27.744999999999997,5.1493491562500004,33.93
2021-06-29 16:17:30.046875000,-23.0,-10.0,58.0,100.98609375000001,27.81,5.149389187500001,33.93
2021-06-29 16:17:30.054687500,-23.0,-10.0,58.0,100.992109375,27.395,5.14942921875,33.93
2021-06-29 16:17:30.062500000,-23.0,-10.0,58.0,100.998125,26.98,5.14946925,33.93
2021-06-29 16:17:30.070312500,-23.0,-10.0,58.0,101.004140625,26.36,5.14950928125,33.93
2021-06-29 16:17:30.078125000,-23.0,-10.0,58.0,101.01015625000001,25.74,5.1495493125000005,33.93
2021-06-29 16:17:30.085937500,-23.0,-10.0,58.0,101.016171875,25.145,5.149589343750001,33.93
2021-06-29 16:17:30.093750000,-23.0,-10.0,58.0,101.0221875,24.55,5.149629375,33.93
2021-06-29 16:17:30.101562500,-23.0,-10.0,58.0,101.028203125,24.075000000000003,5.14966940625,33.93
2021-06-29 16:17:30.109375000,-23.0,-10.0,58.0,101.03421875000001,23.6,5.1497094375,33.93
2021-06-29 16:17:30.117187500,-23.0,-10.0,58.0,101.040234375,23.200000000000003,5.1497494687500005,33.93
2021-06-29 16:17:30.125000000,-23.0,-10.0,58.0,101.04625,22.8,5.149789500000001,33.93
2021-06-29 16:17:30.132812500,-23.25,-10.25,58.0,101.052265625,22.310000000000002,5.14982953125,33.93
2021-06-29 16:17:30.140625000,-23.5,-10.5,58.0,101.05828125000001,21.82,5.1498695625,33.93
2021-06-29 16:17:30.148437500,-23.75,-10.75,58.0,101.064296875,21.085,5.14990959375,33.93
2021-06-29 16:17:30.156250000,-24.0,-11.0,58.0,101.0703125,20.35,5.1499496250000005,33.93
2021-06-29 16:17:30.164062500,-23.75,-10.75,58.25,101.076328125,19.28,5.14998965625,33.93
2021-06-29 16:17:30.171875000,-23.5,-10.5,58.5,101.08234375,18.21,5.1500296875,33.93
2021-06-29 16:17:30.179687500,-23.25,-10.25,58.75,101.088359375,16.855,5.15006971875,33.93
2021-06-29 16:17:30.187500000,-23.0,-10.0,59.0,101.094375,15.5,5.15010975,33.93
2021-06-29 16:17:30.195312500,-23.0,-10.0,58.75,101.100390625,14.030000000000001,5.150149781250001,33.93
2021-06-29 16:17:30.203125000,-23.0,-10.0,58.5,101.10640625,12.56,5.1501898125,33.93
2021-06-29 16:17:30.210937500,-23.0,-10.0,58.25,101.112421875,11.17,5.15022984375,33.93
2021-06-29 16:17:30.218750000,-23.0,-10.0,58.0,101.1184375,9.78,5.150269875,33.93
2021-06-29 16:17:30.226562500,-23.0,-10.0,58.0,101.124453125,8.61,5.15030990625,33.93
2021-06-29 16:17:30.234375000,-23.0,-10.0,58.0,101.13046875,7.44,5.1503499375,33.93
2021-06-29 16:17:30.242187500,-23.0,-10.0,58.0,101.136484375,6.49,5.15038996875,33.93
2021-06-29 16:17:30.250000000,-23.0,-10.0,58.0,101.1425,5.54,5.15043,33.93
2021-06-29 16:17:30.257812500,-23.0,-10.0,58.0,101.148515625,4.7,5.1499095625,33.93
2021-06-29 16:17:30.265625000,-23.0,-10.0,58.0,101.15453125,3.86,5.149389125,33.93
2021-06-29 16:17:30.273437500,-23.0,-10.0,58.0,101.16054687500001,2.92,5.1488686875,33.93
2021-06-29 16:17:30.281250000,-23.0,-10.0,58.0,101.1665625,1.98,5.14834825,33.93
2021-06-29 16:17:30.289062500,-23.0,-10.0,58.0,101.172578125,0.7050000000000001,5.1478278125,33.93
2021-06-29 16:17:30.296875000,-23.0,-10.0,58.0,101.17859375,-0.57,5.1473073750000005,33.93
2021-06-29 16:17:30.304687500,-23.0,-10.0,58.0,101.18460937500001,-2.33,5.1467869375,33.93
2021-06-29 16:17:30.312500000,-23.0,-10.0,58.0,101.190625,-4.09,5.1462665,33.93
2021-06-29 16:17:30.320312500,-23.0,-10.0,58.0,101.196640625,-6.39,5.1457460625,33.93
2021-06-29 16:17:30.328125000,-23.0,-10.0,58.0,101.20265625,-8.69,5.145225625,33.93
2021-06-29 16:17:30.335937500,-23.0,-10.0,58.0,101.20867187500001,-11.41,5.1447051875000005,33.93
2021-06-29 16:17:30.343750000,-23.0,-10.0,58.0,101.2146875,-14.13,5.14418475,33.93
2021-06-29 16:17:30.351562500,-23.0,-10.0,58.0,101.220703125,-17.0,5.1436643125,33.93
2021-06-29 16:17:30.359375000,-23.0,-10.0,58.0,101.22671875,-19.87,5.143143875,33.93
2021-06-29 16:17:30.367187500,-23.0,-10.0,58.0,101.232734375,-22.48,5.1426234375,33.93
2021-06-29 16:17:30.375000000,-23.0,-10.0,58.0,101.23875,-25.09,5.1421030000000005,33.93
2021-06-29 16:17:30.382812500,-23.0,-10.0,58.0,101.244765625,-26.965,5.1415825625,33.93
2021-06-29 16:17:30.390625000,-23.0,-10.0,58.0,101.25078125,-28.84,5.141062125,33.93
2021-06-29 16:17:30.398437500,-23.0,-10.0,58.0,101.256796875,-29.555,5.1405416875,33.93
2021-06-29 16:17:30.406250000,-23.0,-10.0,58.0,101.2628125,-30.27,5.14002125,33.93
2021-06-29 16:17:30.414062500,-23.0,-10.0,58.0,101.268828125,-29.545,5.1395008125,33.93
2021-06-29 16:17:30.421875000,-23.0,-10.0,58.0,101.27484375,-28.82,5.138980375,33.93
2021-06-29 16:17:30.429687500,-23.0,-10.0,58.0,101.280859375,-26.625,5.1384599375,33.93
2021-06-29 16:17:30.437500000,-23.0,-10.0,58.0,101.286875,-24.43,5.1379395,33.93
2021-06-29 16:17:30.445312500,-23.0,-10.0,58.0,101.292890625,-20.965,5.1374190625,33.93
2021-06-29 16:17:30.453125000,-23.0,-10.0,58.0,101.29890625,-17.5,5.136898625,33.93
2021-06-29 16:17:30.460937500,-23.0,-10.0,58.0,101.304921875,-13.15,5.1363781875,33.93
2021-06-29 16:17:30.468750000,-23.0,-10.0,58.0,101.3109375,-8.8,5.13585775,33.93
2021-06-29 16:17:30.476562500,-23.0,-10.0,58.0,101.316953125,-4.010000000000001,5.1353373125,33.93
2021-06-29 16:17:30.484375000,-23.0,-10.0,58.0,101.32296875,0.78,5.134816875,33.93
2021-06-29 16:17:30.492187500,-23.0,-10.0,58.0,101.328984375,5.57,5.1342964375,33.93
2021-06-29 16:17:30.500000000,-23.0,-10.0,58.0,101.33500000000001,10.36,5.133776,33.93
2021-06-29 16:17:30.507812500,-23.0,-10.0,58.0,101.341015625,14.805,5.133936125,33.93
2021-06-29 16:17:30.515625000,-23.0,-10.0,58.0,101.34703125,19.25,5.13409625,33.93
2021-06-29 16:17:30.523437500,-23.0,-10.0,58.0,101.353046875,23.055,5.134256375,33.93
2021-06-29 16:17:30.531250000,-23.0,-10.0,58.0,101.35906250000001,26.86,5.1344165,33.93
2021-06-29 16:17:30.539062500,-23.0,-10.0,58.0,101.365078125,29.805,5.134576625,33.93
2021-06-29 16:17:30.546875000,-23.0,-10.0,58.0,101.37109375,32.75,5.13473675,33.93
2021-06-29 16:17:30.554687500,-23.0,-10.0,58.0,101.377109375,34.685,5.134896875,33.93
2021-06-29 16:17:30.562500000,-23.0,-10.0,58.0,101.383125,36.62,5.135057,33.93
2021-06-29 16:17:30.570312500,-23.0,-10.25,58.0,101.389140625,37.474999999999994,5.135217125,33.93
2021-06-29 16:17:30.578125000,-23.0,-10.5,58.0,101.39515625,38.33,5.13537725,33.93
2021-06-29 16:17:30.585937500,-23.0,-10.75,58.0,101.401171875,38.21,5.135537375,33.93
2021-06-29 16:17:30.593750000,-23.0,-11.0,58.0,101.4071875,38.09,5.1356975,33.93
2021-06-29 16:17:30.601562500,-23.0,-10.75,58.0,101.413203125,37.235,5.135857625,33.93
2021-06-29 16:17:30.609375000,-23.0,-10.5,58.0,101.41921875,36.38,5.13601775,33.93
2021-06-29 16:17:30.617187500,-23.0,-10.25,58.0,101.425234375,35.13,5.136177875,33.93
2021-06-29 16:17:30.625000000,-23.0,-10.0,58.0,101.43125,33.88,5.136338,33.93
2021-06-29 16:17:30.632812500,-23.0,-10.0,58.25,101.437265625,32.57,5.136498125,33.93
2021-06-29 16:17:30.640625000,-23.0,-10.0,58.5,101.44328125,31.26,5.13665825,33.93
2021-06-29 16:17:30.648437500,-23.0,-10.0,58.75,101.449296875,30.14,5.136818375,33.93
2021-06-29 16:17:30.656250000,-23.0,-10.0,59.0,101.4553125,29.02,5.1369785,33.93
2021-06-29 16:17:30.664062500,-23.0,-10.25,58.75,101.461328125,28.155,5.1371386249999995,33.93
2021-06-29 16:17:30.671875000,-23.0,-10.5,58.5,101.46734375,27.29,5.137298749999999,33.93
2021-06-29 16:17:30.679687500,-23.0,-10.75,58.25,101.473359375,26.605,5.137458875,33.93
2021-06-29 16:17:30.687500000,-23.0,-11.0,58.0,101.479375,25.92,5.137619,33.93
2021-06-29 16:17:30.695312500,-23.0,-10.75,58.0,101.485390625,25.255000000000003,5.137779125,33.93
2021-06-29 16:17:30.703125000,-23.0,-10.5,58.0,101.49140625,24.59,5.13793925,33.93
2021-06-29 16:17:30.710937500,-23.0,-10.25,58.0,101.497421875,23.79,5.1380993749999995,33.93
2021-06-29 16:17:30.718750000,-23.0,-10.0,58.0,101.5034375,22.99,5.138259499999999,33.93
2021-06-29 16:17:30.726562500,-23.0,-10.0,58.0,101.509453125,21.97,5.138419625,33.93
2021-06-29 16:17:30.734375000,-23.0,-10.0,58.0,101.51546875,20.95,5.13857975,33.93
2021-06-29 16:17:30.742187500,-23.0,-10.0,58.0,101.521484375,19.705,5.138739875,33.93
2021-06-29 16:17:30.750000000,-23.0,-10.0,58.0,101.5275,18.46,5.1389,33.93
2021-06-29 16:17:30.757812500,-23.0,-10.0,58.0,101.533515625,17.04,5.138659812499999,33.93
2021-06-29 16:17:30.765625000,-23.0,-10.0,58.0,101.53953125,15.62,5.138419624999999,33.93
2021-06-29 16:17:30.773437500,-23.0,-10.0,58.0,101.545546875,14.11,5.1381794375,33.93
2021-06-29 16:17:30.781250000,-23.0,-10.0,58.0,101.5515625,12.6,5.13793925,33.93
2021-06-29 16:17:30.789062500,-23.0,-10.0,58.0,101.557578125,11.07,5.137699062499999,33.93
2021-06-29 16:17:30.796875000,-23.0,-10.0,58.0,101.56359375,9.54,5.137458875,33.93
2021-06-29 16:17:30.804687500,-23.0,-10.0,58.0,101.569609375,8.035,5.1372186875,33.93
2021-06-29 16:17:30.812500000,-23.0,-10.0,58.0,101.575625,6.53,5.1369785,33.93
2021-06-29 16:17:30.820312500,-23.0,-10.0,58.0,101.581640625,5.03,5.1367383124999995,33.93
2021-06-29 16:17:30.828125000,-23.0,-10.0,58.0,101.58765625,3.53,5.136498124999999,33.93
2021-06-29 16:17:30.835937500,-23.0,-10.0,58.0,101.593671875,1.97,5.1362579375,33.93
2021-06-29 16:17:30.843750000,-23.0,-10.0,58.0,101.5996875,0.41,5.13601775,33.93
2021-06-29 16:17:30.851562500,-23.0,-10.25,58.25,101.605703125,-1.3250000000000002,5.1357775624999995,33.93
2021-06-29 16:17:30.859375000,-23.0,-10.5,58.5,101.61171875,-3.06,5.135537375,33.93
2021-06-29 16:17:30.867187500,-23.0,-10.75,58.75,101.617734375,-5.074999999999999,5.1352971875,33.93
2021-06-29 16:17:30.875000000,-23.0,-11.0,59.0,101.62375,-7.09,5.135057,33.93
2021-06-29 16:17:30.882812500,-23.0,-10.75,58.75,101.629765625,-9.42,5.1348168124999995,33.93
2021-06-29 16:17:30.890625000,-23.0,-10.5,58.5,101.63578125,-11.75,5.134576624999999,33.93
2021-06-29 16:17:30.898437500,-23.0,-10.25,58.25,101.641796875,-14.295,5.1343364375,33.93
2021-06-29 16:17:30.906250000,-23.0,-10.0,58.0,101.6478125,-16.84,5.13409625,33.93
2021-06-29 16:17:30.914062500,-23.0,-10.0,58.0,101.653828125,-19.33,5.1338560625,33.93
2021-06-29 16:17:30.921875000,-23.0,-10.0,58.0,101.65984375,-21.82,5.133615875,33.93
2021-06-29 16:17:30.929687500,-23.0,-10.0,58.0,101.665859375,-23.845,5.1333756875,33.93
2021-06-29 16:17:30.937500000,-23.0,-10.0,58.0,101.671875,-25.87,5.1331355,33.93
2021-06-29 16:17:30.945312500,-23.0,-10.0,58.0,101.677890625,-27.0,5.1328953125,33.93
2021-06-29 16:17:30.953125000,-23.0,-10.0,58.0,101.68390624999999,-28.13,5.132655124999999,33.93
2021-06-29 16:17:30.960937500,-23.0,-10.0,58.0,101.689921875,-28.03,5.1324149375,33.93
2021-06-29 16:17:30.968750000,-23.0,-10.0,58.0,101.6959375,-27.93,5.13217475,33.93
2021-06-29 16:17:30.976562500,-23.0,-10.0,58.0,101.701953125,-26.5,5.1319345625,33.93
2021-06-29 16:17:30.984375000,-23.0,-10.0,58.0,101.70796874999999,-25.07,5.131694375,33.93
2021-06-29 16:17:30.992187500,-23.0,-10.0,58.0,101.713984375,-22.475,5.1314541875,33.93
2021-06-29 16:17:31.000000000,-23.0,-10.0,58.0,101.72,-19.88,5.131214,33.93
2021-06-29 16:17:31.007812500,-23.0,-10.0,58.0,101.7259375,-16.475,5.131374125,33.93
2021-06-29 16:17:31.015625000,-23.0,-10.0,58.0,101.731875,-13.07,5.13153425,33.93
2021-06-29 16:17:31.023437500,-23.0,-10.0,58.0,101.7378125,-9.3,5.131694375,33.93
2021-06-29 16:17:31.031250000,-23.0,-10.0,58.0,101.74375,-5.53,5.1318545,33.93
2021-06-29 16:17:31.039062500,-23.0,-10.0,58.0,101.7496875,-1.81,5.132014625,33.93
2021-06-29 16:17:31.046875000,-23.0,-10.0,58.0,101.755625,1.91,5.13217475,33.93
2021-06-29 16:17:31.054687500,-23.0,-10.0,58.0,101.7615625,5.275,5.132334875,33.93
2021-06-29 16:17:31.062500000,-23.0,-10.0,58.0,101.7675,8.64,5.1324950000000005,33.93
2021-06-29 16:17:31.070312500,-23.0,-10.0,58.0,101.7734375,11.465,5.132655125,33.93
2021-06-29 16:17:31.078125000,-23.0,-10.0,58.0,101.779375,14.29,5.13281525,33.93
2021-06-29 16:17:31.085937500,-23.0,-10.0,58.0,101.7853125,16.43,5.132975375,33.93
2021-06-29 16:17:31.093750000,-23.0,-10.0,58.0,101.79125,18.57,5.1331355,33.93
2021-06-29 16:17:31.101562500,-23.0,-10.0,58.0,101.79718749999999,19.925,5.133295625,33.93
2021-06-29 16:17:31.109375000,-23.0,-10.0,58.0,101.803125,21.28,5.13345575,33.93
2021-06-29 16:17:31.117187500,-23.0,-10.0,58.0,101.8090625,21.795,5.133615875,33.93
2021-06-29 16:17:31.125000000,-23.0,-10.0,58.0,101.815,22.31,5.133776,33.93
2021-06-29 16:17:31.132812500,-23.0,-10.0,58.0,101.8209375,22.045,5.133936125,33.93
2021-06-29 16:17:31.140625000,-23.0,-10.0,58.0,101.826875,21.78,5.13409625,33.93
2021-06-29 16:17:31.148437500,-23.0,-10.0,58.0,101.8328125,20.94,5.1342563750000005,33.93
2021-06-29 16:17:31.156250000,-23.0,-10.0,58.0,101.83875,20.1,5.1344165,33.93
2021-06-29 16:17:31.164062500,-23.0,-10.0,58.0,101.8446875,19.005000000000003,5.134576625,33.93
2021-06-29 16:17:31.171875000,-23.0,-10.0,58.0,101.850625,17.91,5.13473675,33.93
2021-06-29 16:17:31.179687500,-23.0,-10.0,58.0,101.8565625,16.89,5.134896875,33.93
2021-06-29 16:17:31.187500000,-23.0,-10.0,58.0,101.8625,15.87,5.135057,33.93
2021-06-29 16:17:31.195312500,-23.0,-10.0,58.0,101.8684375,15.155,5.1352171250000005,33.93
2021-06-29 16:17:31.203125000,-23.0,-10.0,58.0,101.874375,14.44,5.13537725,33.93
2021-06-29 16:17:31.210937500,-23.0,-10.0,58.0,101.8803125,14.065,5.135537375,33.93
2021-06-29 16:17:31.218750000,-23.0,-10.0,58.0,101.88625,13.69,5.1356975,33.93
2021-06-29 16:17:31.226562500,-23.0,-10.0,58.0,101.8921875,13.5,5.135857625,33.93
2021-06-29 16:17:31.234375000,-23.0,-10.0,58.0,101.898125,13.31,5.136017750000001,33.93
2021-06-29 16:17:31.242187500,-23.0,-10.0,58.0,101.9040625,13.085,5.1361778750000004,33.93
2021-06-29 16:17:31.250000000,-23.0,-10.0,58.0,101.91,12.86,5.136338,33.93
2021-06-29 16:17:31.257812500,-23.0,-10.0,58.25,101.9159375,12.41,5.136498125,33.93
2021-06-29 16:17:31.265625000,-23.0,-10.0,58.5,101.921875,11.96,5.13665825,33.93
2021-06-29 16:17:31.273437500,-23.0,-10.0,58.75,101.9278125,11.225000000000001,5.136818375,33.93
2021-06-29 16:17:31.281250000,-23.0,-10.0,59.0,101.93375,10.49,5.136978500000001,33.93
2021-06-29 16:17:31.289062500,-23.0,-10.0,58.75,101.9396875,9.515,5.137138625,33.93
2021-06-29 16:17:31.296875000,-23.0,-10.0,58.5,101.945625,8.54,5.13729875,33.93
2021-06-29 16:17:31.304687500,-23.0,-10.0,58.25,101.9515625,7.444999999999999,5.137458875,33.93
2021-06-29 16:17:31.312500000,-23.0,-10.0,58.0,101.9575,6.35,5.137619,33.93
2021-06-29 16:17:31.320312500,-23.0,-10.0,58.0,101.9634375,5.244999999999999,5.137779125,33.93
2021-06-29 16:17:31.328125000,-23.0,-10.0,58.0,101.969375,4.14,5.1379392500000005,33.93
2021-06-29 16:17:31.335937500,-23.0,-10.0,58.0,101.9753125,3.0599999999999996,5.138099375,33.93
2021-06-29 16:17:31.343750000,-23.0,-10.0,58.0,101.98125,1.98,5.1382595,33.93
2021-06-29 16:17:31.351562500,-23.0,-10.0,58.0,101.9871875,0.9199999999999999,5.138419625,33.93
2021-06-29 16:17:31.359375000,-23.0,-10.0,58.0,101.993125,-0.14,5.13857975,33.93
2021-06-29 16:17:31.367187500,-23.0,-10.0,58.0,101.9990625,-1.2399999999999998,5.138739875,33.93
2021-06-29 16:17:31.375000000,-23.0,-10.0,58.0,102.005,-2.34,5.1389,33.93
2021-06-29 16:17:31.382812500,-23.0,-10.0,58.0,102.0109375,-3.565,5.139060125,33.93
2021-06-29 16:17:31.390625000,-23.0,-10.0,58.0,102.016875,-4.79,5.13922025,33.93
2021-06-29 16:17:31.398437500,-23.0,-10.0,58.0,102.0228125,-6.26,5.139380375,33.93
2021-06-29 16:17:31.406250000,-23.0,-10.0,58.0,102.02875,-7.73,5.1395405,33.93
2021-06-29 16:17:31.414062500,-23.0,-10.0,58.0,102.0346875,-9.56,5.139700625,33.93
2021-06-29 16:17:31.421875000,-23.0,-10.0,58.0,102.040625,-11.39,5.1398607499999995,33.93
2021-06-29 16:17:31.429687500,-23.0,-10.0,58.0,102.04656250000001,-13.595,5.140020875,33.93
2021-06-29 16:17:31.437500000,-23.0,-10.0,58.0,102.0525,-15.8,5.140181,33.93
2021-06-29 16:17:31.445312500,-23.0,-10.0,58.25,102.0584375,-18.275,5.140341125,33.93
2021-06-29 16:17:31.453125000,-23.0,-10.0,58.5,102.064375,-20.75,5.14050125,33.93
2021-06-29 16:17:31.460937500,-23.0,-10.0,58.75,102.0703125,-23.155,5.140661375,33.93
2021-06-29 16:17:31.468750000,-23.0,-10.0,59.0,102.07625,-25.56,5.1408214999999995,33.93
2021-06-29 16:17:31.476562500,-23.0,-10.0,58.75,102.0821875,-27.43,5.140981625,33.93
2021-06-29 16:17:31.484375000,-23.0,-10.0,58.5,102.088125,-29.3,5.14114175,33.93
2021-06-29 16:17:31.492187500,-23.0,-10.0,58.25,102.0940625,-30.145,5.141301875,33.93
2021-06-29 16:17:31.500000000,-23.0,-10.0,58.0,102.1,-30.99,5.141462,33.93
2021-06-29 16:17:31.507812500,-23.0,-10.0,58.0,102.1059375,-30.49,5.141582124999999,33.93
2021-06-29 16:17:31.515625000,-23.0,-10.0,58.0,102.111875,-29.99,5.14170225,33.93
2021-06-29 16:17:31.523437500,-23.0,-10.0,58.0,102.1178125,-28.125,5.141822374999999,33.93
2021-06-29 16:17:31.531250000,-23.0,-10.0,58.0,102.12375,-26.26,5.1419425,33.93
2021-06-29 16:17:31.539062500,-23.0,-10.25,58.0,102.1296875,-23.305,5.142062624999999,33.93
2021-06-29 16:17:31.546875000,-23.0,-10.5,58.0,102.135625,-20.35,5.14218275,33.93
2021-06-29 16:17:31.554687500,-23.0,-10.75,58.0,102.1415625,-16.8,5.1423028749999995,33.93
2021-06-29 16:17:31.562500000,-23.0,-11.0,58.0,102.14750000000001,-13.25,5.142423,33.93
2021-06-29 16:17:31.570312500,-23.0,-10.75,58.0,102.1534375,-9.605,5.1425431249999995,33.93
2021-06-29 16:17:31.578125000,-23.0,-10.5,58.0,102.159375,-5.96,5.14266325,33.93
2021-06-29 16:17:31.585937500,-23.0,-10.25,58.0,102.1653125,-2.64,5.142783375,33.93
2021-06-29 16:17:31.593750000,-23.0,-10.0,58.0,102.17125,0.68,5.1429035,33.93
2021-06-29 16:17:31.601562500,-23.0,-10.0,58.0,102.1771875,3.4250000000000003,5.143023625,33.93
2021-06-29 16:17:31.609375000,-23.0,-10.0,58.0,102.183125,6.17,5.14314375,33.93
2021-06-29 16:17:31.617187500,-23.0,-10.0,58.0,102.1890625,8.235,5.143263875,33.93
2021-06-29 16:17:31.625000000,-23.0,-10.0,58.0,102.19500000000001,10.3,5.143383999999999,33.93
2021-06-29 16:17:31.632812500,-23.0,-10.0,58.0,102.20093750000001,11.65,5.143504125,33.93
2021-06-29 16:17:31.640625000,-23.0,-10.0,58.0,102.206875,13.0,5.143624249999999,33.93
2021-06-29 16:17:31.648437500,-23.0,-10.0,58.0,102.2128125,13.65,5.143744375,33.93
2021-06-29 16:17:31.656250000,-23.0,-10.0,58.0,102.21875,14.3,5.143864499999999,33.93
2021-06-29 16:17:31.664062500,-23.0,-10.0,58.0,102.2246875,14.34,5.143984625,33.93
2021-06-29 16:17:31.671875000,-23.0,-10.0,58.0,102.230625,14.38,5.1441047499999994,33.93
2021-06-29 16:17:31.679687500,-23.0,-10.0,58.0,102.2365625,13.95,5.144224875,33.93
2021-06-29 16:17:31.687500000,-23.0,-10.0,58.0,102.2425,13.52,5.1443449999999995,33.93
2021-06-29 16:17:31.695312500,-23.0,-10.0,58.0,102.24843750000001,12.835,5.144465125,33.93
2021-06-29 16:17:31.703125000,-23.0,-10.0,58.0,102.254375,12.15,5.1445852499999996,33.93
2021-06-29 16:17:31.710937500,-23.0,-10.0,58.0,102.2603125,11.440000000000001,5.144705375,33.93
2021-06-29 16:17:31.718750000,-23.0,-10.0,58.0,102.26625,10.73,5.1448255,33.93
2021-06-29 16:17:31.726562500,-23.0,-10.0,58.0,102.2721875,10.135,5.144945625,33.93
2021-06-29 16:17:31.734375000,-23.0,-10.0,58.0,102.278125,9.54,5.14506575,33.93
2021-06-29 16:17:31.742187500,-23.0,-10.0,58.0,102.2840625,9.094999999999999,5.145185875,33.93
2021-06-29 16:17:31.750000000,-23.0,-10.0,58.0,102.29,8.65,5.145306,33.93
2021-06-29 16:17:31.757812500,-23.0,-10.0,58.0,102.29593750000001,8.25,5.1453860625,33.93
2021-06-29 16:17:31.765625000,-23.0,-10.0,58.0,102.30187500000001,7.85,5.145466125,33.93
2021-06-29 16:17:31.773437500,-23.0,-10.0,58.0,102.3078125,7.345,5.1455461875,33.93
2021-06-29 16:17:31.781250000,-23.0,-10.0,58.0,102.31375,6.84,5.145626249999999,33.93
2021-06-29 16:17:31.789062500,-23.0,-10.0,58.0,102.3196875,6.1,5.1457063125,33.93
2021-06-29 16:17:31.796875000,-23.0,-10.0,58.0,102.325625,5.36,5.145786375,33.93
2021-06-29 16:17:31.804687500,-23.0,-10.0,58.0,102.3315625,4.355,5.1458664375,33.93
2021-06-29 16:17:31.812500000,-23.0,-10.0,58.0,102.3375,3.35,5.1459465,33.93
2021-06-29 16:17:31.820312500,-23.0,-10.0,58.0,102.34343750000001,2.165,5.1460265624999995,33.93
2021-06-29 16:17:31.828125000,-23.0,-10.0,58.0,102.34937500000001,0.98,5.146106625,33.93
2021-06-29 16:17:31.835937500,-23.0,-10.0,58.0,102.3553125,-0.25,5.1461866875,33.93
2021-06-29 16:17:31.843750000,-23.0,-10.0,58.0,102.36125,-1.48,5.14626675,33.93
2021-06-29 16:17:31.851562500,-23.25,-10.25,58.0,102.3671875,-2.635,5.1463468125,33.93
2021-06-29 16:17:31.859375000,-23.5,-10.5,58.0,102.373125,-3.79,5.1464268749999995,33.93
2021-06-29 16:17:31.867187500,-23.75,-10.75,58.0,102.3790625,-4.84,5.1465069375,33.93
2021-06-29 16:17:31.875000000,-24.0,-11.0,58.0,102.385,-5.89,5.146587,33.93
2021-06-29 16:17:31.882812500,-23.75,-10.75,58.0,102.3909375,-6.885,5.1466670625,33.93
2021-06-29 16:17:31.890625000,-23.5,-10.5,58.0,102.39687500000001,-7.88,5.146747125,33.93
2021-06-29 16:17:31.898437500,-23.25,-10.25,58.0,102.40281250000001,-8.92,5.1468271875,33.93
2021-06-29 16:17:31.906250000,-23.0,-10.0,58.0,102.40875,-9.96,5.14690725,33.93
2021-06-29 16:17:31.914062500,-23.0,-10.0,58.0,102.4146875,-11.175,5.146987312499999,33.93
2021-06-29 16:17:31.921875000,-23.0,-10.0,58.0,102.420625,-12.39,5.147067375,33.93
2021-06-29 16:17:31.929687500,-23.0,-10.0,58.0,102.4265625,-13.865,5.1471474375,33.93
2021-06-29 16:17:31.937500000,-23.0,-10.0,58.0,102.4325,-15.34,5.1472275,33.93
2021-06-29 16:17:31.945312500,-23.0,-10.0,58.0,102.4384375,-17.119999999999997,5.1473075625,33.93
2021-06-29 16:17:31.953125000,-23.0,-10.0,58.0,102.44437500000001,-18.9,5.1473876249999995,33.93
2021-06-29 16:17:31.960937500,-23.0,-10.0,58.0,102.45031250000001,-20.95,5.1474676875,33.93
2021-06-29 16:17:31.968750000,-23.0,-10.0,58.0,102.45625,-23.0,5.14754775,33.93
2021-06-29 16:17:31.976562500,-23.0,-10.0,58.0,102.4621875,-25.17,5.1476278125,33.93
2021-06-29 16:17:31.984375000,-23.0,-10.0,58.0,102.468125,-27.34,5.147707875,33.93
2021-06-29 16:17:31.992187500,-23.0,-10.0,58.0,102.4740625,-29.384999999999998,5.1477879374999995,33.93
2021-06-29 16:17:32.000000000,-23.0,-10.0,58.0,102.48,-31.43,5.147868,33.93
2021-06-29 16:17:32.007812500,-23.0,-10.0,58.0,102.48578125,-32.980000000000004,5.1479880937499995,33.93
2021-06-29 16:17:32.015625000,-23.0,-10.0,58.0,102.4915625,-34.53,5.1481081875,33.93
2021-06-29 16:17:32.023437500,-23.0,-10.0,58.0,102.49734375,-35.195,5.14822828125,33.93
2021-06-29 16:17:32.031250000,-23.0,-10.0,58.0,102.503125,-35.86,5.148348374999999,33.93
2021-06-29 16:17:32.039062500,-23.0,-10.0,58.0,102.50890625000001,-35.345,5.14846846875,33.93
2021-06-29 16:17:32.046875000,-23.0,-10.0,58.0,102.51468750000001,-34.83,5.1485885625,33.93
2021-06-29 16:17:32.054687500,-23.0,-10.0,58.0,102.52046875,-33.045,5.14870865625,33.93
2021-06-29 16:17:32.062500000,-23.0,-10.0,58.0,102.52625,-31.26,5.14882875,33.93
2021-06-29 16:17:32.070312500,-23.0,-10.0,58.0,102.53203125,-28.375,5.1489488437499995,33.93
2021-06-29 16:17:32.078125000,-23.0,-10.0,58.0,102.5378125,-25.49,5.1490689375,33.93
2021-06-29 16:17:32.085937500,-23.0,-10.0,58.0,102.54359375,-21.865,5.14918903125,33.93
2021-06-29 16:17:32.093750000,-23.0,-10.0,58.0,102.549375,-18.24,5.149309125,33.93
2021-06-29 16:17:32.101562500,-23.0,-10.0,58.0,102.55515625000001,-14.344999999999999,5.14942921875,33.93
2021-06-29 16:17:32.109375000,-23.0,-10.0,58.0,102.56093750000001,-10.45,5.1495493125,33.93
2021-06-29 16:17:32.117187500,-23.0,-10.0,58.0,102.56671875,-6.68,5.14966940625,33.93
2021-06-29 16:17:32.125000000,-23.0,-10.0,58.0,102.5725,-2.91,5.1497895,33.93
2021-06-29 16:17:32.132812500,-23.0,-10.0,58.25,102.57828125,0.4349999999999996,5.1499095937499995,33.93
2021-06-29 16:17:32.140625000,-23.0,-10.0,58.5,102.5840625,3.78,5.1500296875,33.93
2021-06-29 16:17:32.148437500,-23.0,-10.0,58.75,102.58984375,6.535,5.15014978125,33.93
2021-06-29 16:17:32.156250000,-23.0,-10.0,59.0,102.595625,9.29,5.150269874999999,33.93
2021-06-29 16:17:32.164062500,-23.0,-10.0,58.75,102.60140625,11.36,5.15038996875,33.93
2021-06-29 16:17:32.171875000,-23.0,-10.0,58.5,102.60718750000001,13.43,5.1505100624999995,33.93
2021-06-29 16:17:32.179687500,-23.0,-10.0,58.25,102.61296875000001,14.75,5.15063015625,33.93
2021-06-29 16:17:32.187500000,-23.0,-10.0,58.0,102.61875,16.07,5.15075025,33.93
2021-06-29 16:17:32.195312500,-23.25,-10.0,58.0,102.62453125,16.655,5.150870343749999,33.93
2021-06-29 16:17:32.203125000,-23.5,-10.0,58.0,102.6303125,17.24,5.1509904375,33.93
2021-06-29 16:17:32.210937500,-23.75,-10.0,58.0,102.63609375,17.174999999999997,5.15111053125,33.93
2021-06-29 16:17:32.218750000,-24.0,-10.0,58.0,102.641875,17.11,5.151230625,33.93
2021-06-29 16:17:32.226562500,-23.75,-10.0,58.25,102.64765625,16.615000000000002,5.15135071875,33.93
2021-06-29 16:17:32.234375000,-23.5,-10.0,58.5,102.65343750000001,16.12,5.1514708124999995,33.93
2021-06-29 16:17:32.242187500,-23.25,-10.0,58.75,102.65921875000001,15.465,5.15159090625,33.93
2021-06-29 16:17:32.250000000,-23.0,-10.0,59.0,102.665,14.81,5.151711,33.93
2021-06-29 16:17:32.257812500,-23.0,-10.0,58.75,102.67078125,14.260000000000002,5.15175103125,33.93
2021-06-29 16:17:32.265625000,-23.0,-10.0,58.5,102.6765625,13.71,5.1517910625,33.93
2021-06-29 16:17:32.273437500,-23.0,-10.0,58.25,102.68234375,13.385000000000002,5.151831093749999,33.93
2021-06-29 16:17:32.281250000,-23.0,-10.0,58.0,102.688125,13.06,5.1518711249999996,33.93
2021-06-29 16:17:32.289062500,-23.0,-10.0,58.0,102.69390625,12.92,5.15191115625,33.93
2021-06-29 16:17:32.296875000,-23.0,-10.0,58.0,102.6996875,12.78,5.1519511875,33.93
2021-06-29 16:17:32.304687500,-23.0,-10.0,58.0,102.70546875000001,12.635,5.15199121875,33.93
2021-06-29 16:17:32.312500000,-23.0,-10.0,58.0,102.71125,12.49,5.15203125,33.93
2021-06-29 16:17:32.320312500,-23.0,-10.0,58.0,102.71703125,12.11,5.15207128125,33.93
2021-06-29 16:17:32.328125000,-23.0,-10.0,58.0,102.7228125,11.73,5.1521113125,33.93
2021-06-29 16:17:32.335937500,-23.0,-10.0,58.0,102.72859375,10.95,5.15215134375,33.93
2021-06-29 16:17:32.343750000,-23.0,-10.0,58.0,102.734375,10.17,5.152191375,33.93
2021-06-29 16:17:32.351562500,-23.0,-10.0,58.0,102.74015625,8.985,5.15223140625,33.93
2021-06-29 16:17:32.359375000,-23.0,-10.0,58.0,102.7459375,7.8,5.1522714375,33.93
2021-06-29 16:17:32.367187500,-23.0,-10.0,58.0,102.75171875000001,6.359999999999999,5.15231146875,33.93
2021-06-29 16:17:32.375000000,-23.0,-10.0,58.0,102.75750000000001,4.92,5.1523515,33.93
2021-06-29 16:17:32.382812500,-23.0,-10.0,58.0,102.76328125,3.465,5.15239153125,33.93
2021-06-29 16:17:32.390625000,-23.0,-10.0,58.0,102.7690625,2.01,5.1524315625,33.93
2021-06-29 16:17:32.398437500,-23.0,-10.0,58.0,102.77484375,0.7399999999999998,5.15247159375,33.93
2021-06-29 16:17:32.406250000,-23.0,-10.0,58.0,102.780625,-0.53,5.152511625,33.93
2021-06-29 16:17:32.414062500,-23.0,-10.0,58.0,102.78640625,-1.5299999999999998,5.15255165625,33.93
2021-06-29 16:17:32.421875000,-23.0,-10.0,58.0,102.7921875,-2.53,5.1525916875,33.93
2021-06-29 16:17:32.429687500,-23.0,-10.0,58.0,102.79796875,-3.3449999999999998,5.15263171875,33.93
2021-06-29 16:17:32.437500000,-23.0,-10.0,58.0,102.80375000000001,-4.16,5.15267175,33.93
2021-06-29 16:17:32.445312500,-23.0,-10.0,58.0,102.80953125,-4.995,5.15271178125,33.93
2021-06-29 16:17:32.453125000,-23.0,-10.0,58.0,102.8153125,-5.83,5.1527518125,33.93
2021-06-29 16:17:32.460937500,-23.0,-10.0,58.0,102.82109375,-6.915,5.15279184375,33.93
2021-06-29 16:17:32.468750000,-23.0,-10.0,58.0,102.826875,-8.0,5.152831875,33.93
2021-06-29 16:17:32.476562500,-23.0,-10.0,58.0,102.83265625,-9.5,5.152871906250001,33.93
2021-06-29 16:17:32.484375000,-23.0,-10.0,58.0,102.8384375,-11.0,5.1529119375,33.93
2021-06-29 16:17:32.492187500,-23.0,-10.0,58.0,102.84421875,-12.945,5.15295196875,33.93
2021-06-29 16:17:32.500000000,-23.0,-10.0,58.0,102.85,-14.89,5.152992,33.93
2021-06-29 16:17:32.507812500,-23.0,-10.0,58.25,102.85578125,-17.175,5.15359253125,33.93
2021-06-29 16:17:32.515625000,-23.0,-10.0,58.5,102.8615625,-19.46,5.1541930625,33.93
2021-06-29 16:17:32.523437500,-23.0,-10.0,58.75,102.86734375,-21.83,5.15479359375,33.93
2021-06-29 16:17:32.531250000,-23.0,-10.0,59.0,102.873125,-24.2,5.155394125,33.93
2021-06-29 16:17:32.539062500,-23.0,-10.0,59.0,102.87890625,-26.310000000000002,5.15599465625,33.93
2021-06-29 16:17:32.546875000,-23.0,-10.0,59.0,102.8846875,-28.42,5.1565951875,33.93
2021-06-29 16:17:32.554687500,-23.0,-10.0,59.0,102.89046875,-29.89,5.15719571875,33.93
2021-06-29 16:17:32.562500000,-23.0,-10.0,59.0,102.89625,-31.36,5.1577962500000005,33.93
2021-06-29 16:17:32.570312500,-23.0,-10.0,58.75,102.90203125000001,-31.835,5.1583967812500005,33.93
2021-06-29 16:17:32.578125000,-23.0,-10.0,58.5,102.9078125,-32.31,5.1589973125,33.93
2021-06-29 16:17:32.585937500,-23.0,-10.0,58.25,102.91359375,-31.565,5.15959784375,33.93
2021-06-29 16:17:32.593750000,-23.0,-10.0,58.0,102.919375,-30.82,5.160198375,33.93
2021-06-29 16:17:32.601562500,-23.0,-10.25,58.0,102.92515625,-28.810000000000002,5.16079890625,33.93
2021-06-29 16:17:32.609375000,-23.0,-10.5,58.0,102.9309375,-26.8,5.1613994375,33.93
2021-06-29 16:17:32.617187500,-23.0,-10.75,58.0,102.93671875,-23.700000000000003,5.16199996875,33.93
2021-06-29 16:17:32.625000000,-23.0,-11.0,58.0,102.9425,-20.6,5.1626005,33.93
2021-06-29 16:17:32.632812500,-23.0,-10.75,58.0,102.94828125,-16.76,5.16320103125,33.93
2021-06-29 16:17:32.640625000,-23.0,-10.5,58.0,102.9540625,-12.92,5.1638015625,33.93
2021-06-29 16:17:32.648437500,-23.0,-10.25,58.0,102.95984375,-8.79,5.16440209375,33.93
2021-06-29 16:17:32.656250000,-23.0,-10.0,58.0,102.965625,-4.66,5.165002625,33.93
2021-06-29 16:17:32.664062500,-23.0,-10.0,58.0,102.97140625,-0.6749999999999998,5.1656031562499996,33.93
2021-06-29 16:17:32.671875000,-23.0,-10.0,58.0,102.9771875,3.31,5.1662036874999995,33.93
2021-06-29 16:17:32.679687500,-23.0,-10.0,58.0,102.98296875,6.789999999999999,5.166804218749999,33.93
2021-06-29 16:17:32.687500000,-23.0,-10.0,58.0,102.98875,10.27,5.167404749999999,33.93
2021-06-29 16:17:32.695312500,-23.0,-10.0,58.0,102.99453125,13.0,5.16800528125,33.93
2021-06-29 16:17:32.703125000,-23.0,-10.0,58.0,103.0003125,15.73,5.1686058125,33.93
2021-06-29 16:17:32.710937500,-23.0,-10.0,58.0,103.00609375,17.58,5.16920634375,33.93
2021-06-29 16:17:32.718750000,-23.0,-10.0,58.0,103.011875,19.43,5.169806875,33.93
2021-06-29 16:17:32.726562500,-23.0,-10.0,58.0,103.01765625,20.384999999999998,5.17040740625,33.93
2021-06-29 16:17:32.734375000,-23.0,-10.0,58.0,103.0234375,21.34,5.1710079375,33.93
2021-06-29 16:17:32.742187500,-23.0,-10.0,58.0,103.02921875,21.52,5.17160846875,33.93
2021-06-29 16:17:32.750000000,-23.0,-10.0,58.0,103.035,21.7,5.172209,33.93
2021-06-29 16:17:32.757812500,-23.0,-10.0,58.0,103.04078125,21.33,5.1744108749999995,33.93
2021-06-29 16:17:32.765625000,-23.0,-10.0,58.0,103.0465625,20.96,5.176612749999999,33.93
2021-06-29 16:17:32.773437500,-23.0,-10.0,58.0,103.05234375,20.335,5.178814624999999,33.93
2021-06-29 16:17:32.781250000,-23.0,-10.0,58.0,103.058125,19.71,5.1810165,33.93
2021-06-29 16:17:32.789062500,-23.0,-10.25,58.0,103.06390625,19.125,5.183218375,33.93
2021-06-29 16:17:32.796875000,-23.0,-10.5,58.0,103.0696875,18.54,5.18542025,33.93
2021-06-29 16:17:32.804687500,-23.0,-10.75,58.0,103.07546875,18.195,5.187622125,33.93
2021-06-29 16:17:32.812500000,-23.0,-11.0,58.0,103.08125,17.85,5.189824,33.93
2021-06-29 16:17:32.820312500,-23.0,-10.75,58.0,103.08703125,17.78,5.192025875,33.93
2021-06-29 16:17:32.828125000,-23.0,-10.5,58.0,103.0928125,17.71,5.19422775,33.93
2021-06-29 16:17:32.835937500,-23.0,-10.25,58.0,103.09859375,17.82,5.1964296249999995,33.93
2021-06-29 16:17:32.843750000,-23.0,-10.0,58.0,103.104375,17.93,5.198631499999999,33.93
2021-06-29 16:17:32.851562500,-23.0,-10.0,58.25,103.11015625,18.04,5.200833375,33.93
2021-06-29 16:17:32.859375000,-23.0,-10.0,58.5,103.1159375,18.15,5.20303525,33.93
2021-06-29 16:17:32.867187500,-23.0,-10.0,58.75,103.12171875,18.045,5.205237125,33.93
2021-06-29 16:17:32.875000000,-23.0,-10.0,59.0,103.1275,17.94,5.207439,33.93
2021-06-29 16:17:32.882812500,-23.0,-10.25,58.75,103.13328125,17.47,5.209640875,33.93
2021-06-29 16:17:32.890625000,-23.0,-10.5,58.5,103.1390625,17.0,5.21184275,33.93
2021-06-29 16:17:32.898437500,-23.0,-10.75,58.25,103.14484374999999,16.065,5.214044625,33.93
2021-06-29 16:17:32.906250000,-23.0,-11.0,58.0,103.150625,15.13,5.2162465000000005,33.93
2021-06-29 16:17:32.914062500,-23.0,-10.75,58.0,103.15640625,13.760000000000002,5.218448375,33.93
2021-06-29 16:17:32.921875000,-23.0,-10.5,58.0,103.1621875,12.39,5.22065025,33.93
2021-06-29 16:17:32.929687500,-23.0,-10.25,58.0,103.16796875,10.695,5.222852125,33.93
2021-06-29 16:17:32.937500000,-23.0,-10.0,58.0,103.17375,9.0,5.225054,33.93
2021-06-29 16:17:32.945312500,-23.0,-10.0,58.0,103.17953125,7.175,5.227255875,33.93
2021-06-29 16:17:32.953125000,-23.0,-10.0,58.0,103.1853125,5.35,5.22945775,33.93
2021-06-29 16:17:32.960937500,-23.0,-10.0,58.0,103.19109375,3.59,5.231659625,33.93
2021-06-29 16:17:32.968750000,-23.0,-10.0,58.0,103.196875,1.83,5.2338615,33.93
2021-06-29 16:17:32.976562500,-23.0,-10.0,58.0,103.20265625,0.28500000000000014,5.2360633750000005,33.93
2021-06-29 16:17:32.984375000,-23.0,-10.0,58.0,103.2084375,-1.26,5.23826525,33.93
2021-06-29 16:17:32.992187500,-23.0,-10.0,58.0,103.21421875,-2.575,5.240467125,33.93
2021-06-29 16:17:33.000000000,-23.0,-10.0,58.0,103.22,-3.89,5.242669,33.93
2021-06-29 16:17:33.007812500,-23.0,-10.25,58.0,103.22554687499999,-5.11,5.24583171875,33.930625
2021-06-29 16:17:33.015625000,-23.0,-10.5,58.0,103.23109375,-6.33,5.2489944375,33.93125
2021-06-29 16:17:33.023437500,-23.0,-10.75,58.0,103.23664062499999,-7.685,5.25215715625,33.931875
2021-06-29 16:17:33.031250000,-23.0,-11.0,58.0,103.2421875,-9.04,5.2553198750000005,33.9325
2021-06-29 16:17:33.039062500,-23.0,-10.75,58.0,103.247734375,-10.76,5.25848259375,33.933125
2021-06-29 16:17:33.046875000,-23.0,-10.5,58.0,103.25328125,-12.48,5.2616453125,33.93375
2021-06-29 16:17:33.054687500,-23.0,-10.25,58.0,103.258828125,-14.685,5.26480803125,33.934375
2021-06-29 16:17:33.062500000,-23.0,-10.0,58.0,103.264375,-16.89,5.26797075,33.935
2021-06-29 16:17:33.070312500,-23.0,-10.0,58.0,103.269921875,-19.490000000000002,5.27113346875,33.935625
2021-06-29 16:17:33.078125000,-23.0,-10.0,58.0,103.27546875,-22.09,5.2742961875,33.93625
2021-06-29 16:17:33.085937500,-23.0,-10.0,58.0,103.281015625,-24.765,5.27745890625,33.936875
2021-06-29 16:17:33.093750000,-23.0,-10.0,58.0,103.2865625,-27.44,5.280621625,33.9375
2021-06-29 16:17:33.101562500,-23.0,-10.0,58.0,103.292109375,-29.730000000000004,5.28378434375,33.938125
2021-06-29 16:17:33.109375000,-23.0,-10.0,58.0,103.29765625,-32.02,5.2869470625,33.93875
2021-06-29 16:17:33.117187500,-23.0,-10.0,58.0,103.303203125,-33.395,5.29010978125,33.939375
2021-06-29 16:17:33.125000000,-23.0,-10.0,58.0,103.30875,-34.77,5.2932725000000005,33.94
2021-06-29 16:17:33.132812500,-23.0,-10.0,58.0,103.314296875,-34.835,5.29643521875,33.940625000000004
2021-06-29 16:17:33.140625000,-23.0,-10.0,58.0,103.31984375,-34.9,5.2995979375,33.941250000000004
2021-06-29 16:17:33.148437500,-23.0,-10.0,58.0,103.325390625,-33.515,5.30276065625,33.941875
2021-06-29 16:17:33.156250000,-23.0,-10.0,58.0,103.3309375,-32.13,5.305923375,33.9425
2021-06-29 16:17:33.164062500,-23.0,-10.0,58.0,103.336484375,-29.46,5.30908609375,33.943125
2021-06-29 16:17:33.171875000,-23.0,-10.0,58.0,103.34203125,-26.79,5.3122488125,33.94375
2021-06-29 16:17:33.179687500,-23.0,-10.0,58.0,103.347578125,-23.240000000000002,5.31541153125,33.944375
2021-06-29 16:17:33.187500000,-23.0,-10.0,58.0,103.353125,-19.69,5.31857425,33.945
2021-06-29 16:17:33.195312500,-23.0,-10.0,58.0,103.358671875,-15.760000000000002,5.32173696875,33.945625
2021-06-29 16:17:33.203125000,-23.0,-10.0,58.0,103.36421875,-11.83,5.3248996875,33.94625
2021-06-29 16:17:33.210937500,-23.0,-10.0,58.0,103.369765625,-7.975,5.32806240625,33.946875000000006
2021-06-29 16:17:33.218750000,-23.0,-10.0,58.0,103.3753125,-4.12,5.331225125,33.947500000000005
2021-06-29 16:17:33.226562500,-23.0,-10.0,58.0,103.380859375,-0.6349999999999998,5.33438784375,33.948125000000005
2021-06-29 16:17:33.234375000,-23.0,-10.0,58.0,103.38640625000001,2.85,5.3375505625,33.948750000000004
2021-06-29 16:17:33.242187500,-23.0,-10.0,58.0,103.391953125,5.825000000000001,5.34071328125,33.949375
2021-06-29 16:17:33.250000000,-23.0,-10.0,58.0,103.39750000000001,8.8,5.343876,33.95
2021-06-29 16:17:33.257812500,-23.0,-10.0,58.0,103.403046875,11.21,5.34631809375,33.95
2021-06-29 16:17:33.265625000,-23.0,-10.0,58.0,103.40859375,13.62,5.3487601875,33.95
2021-06-29 16:17:33.273437500,-23.0,-10.0,58.0,103.414140625,15.41,5.35120228125,33.95
2021-06-29 16:17:33.281250000,-23.0,-10.0,58.0,103.4196875,17.2,5.353644375,33.95
2021-06-29 16:17:33.289062500,-23.0,-10.0,58.0,103.425234375,18.299999999999997,5.35608646875,33.95
2021-06-29 16:17:33.296875000,-23.0,-10.0,58.0,103.43078125,19.4,5.3585285625,33.95
2021-06-29 16:17:33.304687500,-23.0,-10.0,58.0,103.436328125,19.775,5.36097065625,33.95
2021-06-29 16:17:33.312500000,-23.0,-10.0,58.0,103.441875,20.15,5.36341275,33.95
2021-06-29 16:17:33.320312500,-23.0,-10.0,58.0,103.447421875,19.86,5.36585484375,33.95
2021-06-29 16:17:33.328125000,-23.0,-10.0,58.0,103.45296875,19.57,5.3682969375,33.95
2021-06-29 16:17:33.335937500,-23.0,-10.0,58.0,103.458515625,18.84,5.37073903125,33.95
2021-06-29 16:17:33.343750000,-23.0,-10.0,58.0,103.4640625,18.11,5.373181125,33.95
2021-06-29 16:17:33.351562500,-23.0,-10.0,58.0,103.469609375,17.259999999999998,5.37562321875,33.95
2021-06-29 16:17:33.359375000,-23.0,-10.0,58.0,103.47515625,16.41,5.3780653125,33.95
2021-06-29 16:17:33.367187500,-23.0,-10.0,58.0,103.480703125,15.75,5.3805074062500005,33.95
2021-06-29 16:17:33.375000000,-23.0,-10.0,58.0,103.48625,15.09,5.3829495000000005,33.95
2021-06-29 16:17:33.382812500,-23.0,-10.0,58.0,103.491796875,14.76,5.38539159375,33.95
2021-06-29 16:17:33.390625000,-23.0,-10.0,58.0,103.49734375,14.43,5.3878336875,33.95
2021-06-29 16:17:33.398437500,-23.0,-10.0,58.0,103.502890625,14.39,5.39027578125,33.95
2021-06-29 16:17:33.406250000,-23.0,-10.0,58.0,103.5084375,14.35,5.392717875,33.95
2021-06-29 16:17:33.414062500,-23.0,-10.0,58.0,103.513984375,14.365,5.39515996875,33.95
2021-06-29 16:17:33.421875000,-23.0,-10.0,58.0,103.51953125,14.38,5.3976020625,33.95
2021-06-29 16:17:33.429687500,-23.0,-10.0,58.0,103.52507812500001,14.185,5.40004415625,33.95
2021-06-29 16:17:33.437500000,-23.0,-10.0,58.0,103.530625,13.99,5.40248625,33.95
2021-06-29 16:17:33.445312500,-23.0,-10.0,58.0,103.53617187500001,13.405000000000001,5.40492834375,33.95
2021-06-29 16:17:33.453125000,-23.0,-10.0,58.0,103.54171875,12.82,5.4073704375,33.95
2021-06-29 16:17:33.460937500,-23.0,-10.0,58.0,103.54726562500001,11.835,5.40981253125,33.95
2021-06-29 16:17:33.468750000,-23.0,-10.0,58.0,103.5528125,10.85,5.412254625,33.95
2021-06-29 16:17:33.476562500,-23.0,-10.0,58.0,103.55835937500001,9.585,5.41469671875,33.95
2021-06-29 16:17:33.484375000,-23.0,-10.0,58.0,103.56390625,8.32,5.4171388125,33.95
2021-06-29 16:17:33.492187500,-23.0,-10.0,58.0,103.56945312500001,6.96,5.41958090625,33.95
2021-06-29 16:17:33.500000000,-23.0,-10.0,58.0,103.575,5.6,5.422023,33.95
2021-06-29 16:17:33.507812500,-23.0,-10.0,58.0,103.580546875,4.3,5.423570000000001,33.95
2021-06-29 16:17:33.515625000,-23.0,-10.0,58.0,103.58609375,3.0,5.425117,33.95
2021-06-29 16:17:33.523437500,-23.0,-10.0,58.0,103.591640625,1.775,5.426664000000001,33.95
2021-06-29 16:17:33.531250000,-23.0,-10.0,58.0,103.5971875,0.55,5.428211,33.95
2021-06-29 16:17:33.539062500,-23.0,-10.0,58.0,103.602734375,-0.6799999999999999,5.4297580000000005,33.95
2021-06-29 16:17:33.546875000,-23.0,-10.0,58.0,103.60828125,-1.91,5.431305,33.95
2021-06-29 16:17:33.554687500,-23.0,-10.0,58.0,103.613828125,-3.2800000000000002,5.4328520000000005,33.95
2021-06-29 16:17:33.562500000,-23.0,-10.0,58.0,103.619375,-4.65,5.434399,33.95
2021-06-29 16:17:33.570312500,-23.0,-10.0,58.0,103.624921875,-6.28,5.435946,33.95
2021-06-29 16:17:33.578125000,-23.0,-10.0,58.0,103.63046875,-7.91,5.437493,33.95
2021-06-29 16:17:33.585937500,-23.0,-10.0,58.0,103.636015625,-9.86,5.43904,33.95
2021-06-29 16:17:33.593750000,-23.0,-10.0,58.0,103.6415625,-11.81,5.440587,33.95
2021-06-29 16:17:33.601562500,-23.0,-10.0,58.0,103.647109375,-14.05,5.442134,33.95
2021-06-29 16:17:33.609375000,-23.0,-10.0,58.0,103.65265625,-16.29,5.443681,33.95
2021-06-29 16:17:33.617187500,-23.0,-10.0,58.0,103.658203125,-18.73,5.445228,33.95
2021-06-29 16:17:33.625000000,-23.0,-10.0,58.0,103.66375000000001,-21.17,5.446775000000001,33.95
2021-06-29 16:17:33.632812500,-23.0,-10.0,58.0,103.669296875,-23.61,5.448322,33.95
2021-06-29 16:17:33.640625000,-23.0,-10.0,58.0,103.67484375000001,-26.05,5.4498690000000005,33.95
2021-06-29 16:17:33.648437500,-23.0,-10.0,58.0,103.680390625,-28.23,5.451416,33.95
2021-06-29 16:17:33.656250000,-23.0,-10.0,58.0,103.68593750000001,-30.41,5.4529630000000004,33.95
2021-06-29 16:17:33.664062500,-23.0,-10.0,58.0,103.691484375,-31.985,5.45451,33.95
2021-06-29 16:17:33.671875000,-23.0,-10.0,58.0,103.69703125000001,-33.56,5.456057,33.95
2021-06-29 16:17:33.679687500,-23.0,-10.0,58.0,103.702578125,-34.16,5.457604,33.95
2021-06-29 16:17:33.687500000,-23.0,-10.0,58.0,103.70812500000001,-34.76,5.459151,33.95
2021-06-29 16:17:33.695312500,-23.0,-10.0,58.0,103.713671875,-34.125,5.460698,33.95
2021-06-29 16:17:33.703125000,-23.0,-10.0,58.0,103.71921875000001,-33.49,5.462245,33.95
2021-06-29 16:17:33.710937500,-23.0,-10.0,58.0,103.724765625,-31.53,5.463792,33.95
2021-06-29 16:17:33.718750000,-23.0,-10.0,58.0,103.73031250000001,-29.57,5.465339,33.95
2021-06-29 16:17:33.726562500,-23.0,-10.0,58.0,103.735859375,-26.465,5.466886,33.95
2021-06-29 16:17:33.734375000,-23.0,-10.0,58.0,103.74140625000001,-23.36,5.468433,33.95
2021-06-29 16:17:33.742187500,-23.0,-10.0,58.0,103.746953125,-19.505,5.46998,33.95
2021-06-29 16:17:33.750000000,-23.0,-10.0,58.0,103.7525,-15.65,5.471527,33.95
2021-06-29 16:17:33.757812500,-23.0,-10.0,58.0,103.758046875,-11.545,5.4714469375,33.95
2021-06-29 16:17:33.765625000,-23.0,-10.0,58.0,103.76359375,-7.44,5.471366875,33.95
2021-06-29 16:17:33.773437500,-23.0,-10.0,58.0,103.769140625,-3.56,5.4712868125,33.95
2021-06-29 16:17:33.781250000,-23.0,-10.0,58.0,103.7746875,0.32,5.47120675,33.95
2021-06-29 16:17:33.789062500,-23.0,-10.0,58.0,103.780234375,3.6249999999999996,5.4711266875,33.95
2021-06-29 16:17:33.796875000,-23.0,-10.0,58.0,103.78578125,6.93,5.471046625,33.95
2021-06-29 16:17:33.804687500,-23.0,-10.0,58.0,103.791328125,9.48,5.4709665625,33.95
2021-06-29 16:17:33.812500000,-23.0,-10.0,58.0,103.796875,12.03,5.4708865,33.95
2021-06-29 16:17:33.820312500,-23.0,-10.0,58.0,103.80242187500001,13.76,5.4708064375,33.95
2021-06-29 16:17:33.828125000,-23.0,-10.0,58.0,103.80796875,15.49,5.470726375,33.95
2021-06-29 16:17:33.835937500,-23.0,-10.0,58.0,103.81351562500001,16.42,5.4706463124999996,33.95
2021-06-29 16:17:33.843750000,-23.0,-10.0,58.0,103.8190625,17.35,5.47056625,33.95
2021-06-29 16:17:33.851562500,-23.0,-10.0,58.0,103.82460937500001,17.560000000000002,5.4704861875,33.95
2021-06-29 16:17:33.859375000,-23.0,-10.0,58.0,103.83015625,17.77,5.470406125,33.95
2021-06-29 16:17:33.867187500,-23.0,-10.0,58.0,103.83570312500001,17.39,5.4703260625,33.95
2021-06-29 16:17:33.875000000,-23.0,-10.0,58.0,103.84125,17.01,5.4702459999999995,33.95
2021-06-29 16:17:33.882812500,-23.0,-10.0,58.0,103.84679687500001,16.26,5.4701659375,33.95
2021-06-29 16:17:33.890625000,-23.0,-10.0,58.0,103.85234375,15.51,5.470085875,33.95
2021-06-29 16:17:33.898437500,-23.0,-10.0,58.0,103.85789062500001,14.635,5.4700058125,33.95
2021-06-29 16:17:33.906250000,-23.0,-10.0,58.0,103.8634375,13.76,5.46992575,33.95
2021-06-29 16:17:33.914062500,-23.0,-10.0,58.0,103.86898437500001,12.985,5.4698456875,33.95
2021-06-29 16:17:33.921875000,-23.0,-10.0,58.0,103.87453125,12.21,5.469765625,33.95
2021-06-29 16:17:33.929687500,-23.0,-10.0,58.0,103.88007812500001,11.665,5.4696855625,33.95
2021-06-29 16:17:33.937500000,-23.0,-10.0,58.0,103.885625,11.12,5.4696055,33.95
2021-06-29 16:17:33.945312500,-23.0,-10.0,58.0,103.89117187500001,10.785,5.4695254375,33.95
2021-06-29 16:17:33.953125000,-23.0,-10.0,58.0,103.89671875,10.45,5.469445375,33.95
2021-06-29 16:17:33.960937500,-23.0,-10.0,58.0,103.90226562500001,10.17,5.4693653125,33.95
2021-06-29 16:17:33.968750000,-23.0,-10.0,58.0,103.9078125,9.89,5.4692852499999995,33.95
2021-06-29 16:17:33.976562500,-23.25,-10.0,58.0,103.91335937500001,9.45,5.4692051875,33.95
2021-06-29 16:17:33.984375000,-23.5,-10.0,58.0,103.91890625,9.01,5.469125125,33.95
2021-06-29 16:17:33.992187500,-23.75,-10.0,58.0,103.92445312500001,8.24,5.4690450625,33.95
2021-06-29 16:17:34.000000000,-24.0,-10.0,58.0,103.93,7.47,5.468965,33.95
2021-06-29 16:17:34.007812500,-23.75,-10.0,58.0,103.93578125,6.32,5.46884490625,33.95
2021-06-29 16:17:34.015625000,-23.5,-10.0,58.0,103.9415625,5.17,5.4687248125,33.95
2021-06-29 16:17:34.023437500,-23.25,-10.0,58.0,103.94734375,3.73,5.46860471875,33.95
2021-06-29 16:17:34.031250000,-23.0,-10.0,58.0,103.953125,2.29,5.468484625,33.95
2021-06-29 16:17:34.039062500,-23.0,-10.0,58.0,103.95890625000001,0.7450000000000001,5.46836453125,33.95
2021-06-29 16:17:34.046875000,-23.0,-10.0,58.0,103.96468750000001,-0.8,5.4682444375,33.95
2021-06-29 16:17:34.054687500,-23.0,-10.0,58.0,103.97046875000001,-2.26,5.46812434375,33.95
2021-06-29 16:17:34.062500000,-23.0,-10.0,58.0,103.97625000000001,-3.72,5.46800425,33.95
2021-06-29 16:17:34.070312500,-23.0,-10.25,58.0,103.98203125,-5.0,5.46788415625,33.95
2021-06-29 16:17:34.078125000,-23.0,-10.5,58.0,103.9878125,-6.28,5.4677640625,33.95
2021-06-29 16:17:34.085937500,-23.0,-10.75,58.0,103.99359375,-7.415000000000001,5.46764396875,33.95
2021-06-29 16:17:34.093750000,-23.0,-11.0,58.0,103.999375,-8.55,5.4675238749999995,33.95
2021-06-29 16:17:34.101562500,-23.0,-10.75,58.0,104.00515625000001,-9.695,5.46740378125,33.95
2021-06-29 16:17:34.109375000,-23.0,-10.5,58.0,104.01093750000001,-10.84,5.4672836875,33.95
2021-06-29 16:17:34.117187500,-23.0,-10.25,58.0,104.01671875000001,-12.205,5.46716359375,33.95
2021-06-29 16:17:34.125000000,-23.0,-10.0,58.0,104.02250000000001,-13.57,5.4670435,33.95
2021-06-29 16:17:34.132812500,-23.0,-10.25,58.0,104.02828125,-15.35,5.46692340625,33.95
2021-06-29 16:17:34.140625000,-23.0,-10.5,58.0,104.0340625,-17.13,5.4668033125,33.95
2021-06-29 16:17:34.148437500,-23.0,-10.75,58.0,104.03984375,-19.439999999999998,5.46668321875,33.95
2021-06-29 16:17:34.156250000,-23.0,-11.0,58.0,104.045625,-21.75,5.466563125,33.95
2021-06-29 16:17:34.164062500,-23.0,-10.75,58.0,104.05140625,-24.545,5.46644303125,33.95
2021-06-29 16:17:34.171875000,-23.0,-10.5,58.0,104.05718750000001,-27.34,5.4663229375,33.95
2021-06-29 16:17:34.179687500,-23.0,-10.25,58.0,104.06296875000001,-30.395000000000003,5.46620284375,33.95
2021-06-29 16:17:34.187500000,-23.0,-10.0,58.0,104.06875000000001,-33.45,5.46608275,33.95
2021-06-29 16:17:34.195312500,-23.0,-10.0,58.0,104.07453125,-36.370000000000005,5.46596265625,33.95
2021-06-29 16:17:34.203125000,-23.0,-10.0,58.0,104.0803125,-39.29,5.4658425625,33.95
2021-06-29 16:17:34.210937500,-23.0,-10.0,58.0,104.08609375,-41.565,5.46572246875,33.95
2021-06-29 16:17:34.218750000,-23.0,-10.0,58.0,104.091875,-43.84,5.465602375,33.95
2021-06-29 16:17:34.226562500,-23.0,-10.0,58.0,104.09765625,-44.97,5.46548228125,33.95
2021-06-29 16:17:34.234375000,-23.0,-10.0,58.0,104.10343750000001,-46.1,5.4653621875,33.95
2021-06-29 16:17:34.242187500,-23.0,-10.0,58.0,104.10921875000001,-45.760000000000005,5.46524209375,33.95
2021-06-29 16:17:34.250000000,-23.0,-10.0,58.0,104.11500000000001,-45.42,5.465122,33.95
2021-06-29 16:17:34.257812500,-23.0,-10.0,58.0,104.12078125000001,-43.545,5.46416115625,33.95
2021-06-29 16:17:34.265625000,-23.0,-10.0,58.0,104.1265625,-41.67,5.4632003125,33.95
2021-06-29 16:17:34.273437500,-23.0,-10.0,58.0,104.13234375,-38.495000000000005,5.46223946875,33.95
2021-06-29 16:17:34.281250000,-23.0,-10.0,58.0,104.138125,-35.32,5.461278625,33.95
2021-06-29 16:17:34.289062500,-23.0,-10.0,58.0,104.14390625,-31.285,5.46031778125,33.95
2021-06-29 16:17:34.296875000,-23.0,-10.0,58.0,104.1496875,-27.25,5.4593569375,33.95
2021-06-29 16:17:34.304687500,-23.0,-10.0,58.0,104.15546875000001,-22.835,5.45839609375,33.95
2021-06-29 16:17:34.312500000,-23.0,-10.0,58.0,104.16125000000001,-18.42,5.45743525,33.95
2021-06-29 16:17:34.320312500,-23.0,-10.0,58.0,104.16703125000001,-14.035,5.45647440625,33.95
2021-06-29 16:17:34.328125000,-23.0,-10.0,58.0,104.1728125,-9.65,5.4555135625,33.95
2021-06-29 16:17:34.335937500,-23.0,-10.0,58.0,104.17859375,-5.595000000000001,5.4545527187500005,33.95
2021-06-29 16:17:34.343750000,-23.0,-10.0,58.0,104.184375,-1.54,5.453591875,33.95
2021-06-29 16:17:34.351562500,-23.0,-10.0,58.0,104.19015625,2.005,5.45263103125,33.95
2021-06-29 16:17:34.359375000,-23.0,-10.0,58.0,104.1959375,5.55,5.4516701875,33.95
2021-06-29 16:17:34.367187500,-23.0,-10.0,58.0,104.20171875000001,8.435,5.45070934375,33.95
2021-06-29 16:17:34.375000000,-23.0,-10.0,58.0,104.20750000000001,11.32,5.4497485,33.95
2021-06-29 16:17:34.382812500,-23.0,-10.0,58.0,104.21328125000001,13.440000000000001,5.44878765625,33.95
2021-06-29 16:17:34.390625000,-23.0,-10.0,58.0,104.2190625,15.56,5.4478268125,33.95
2021-06-29 16:17:34.398437500,-23.0,-10.0,58.0,104.22484375,16.85,5.44686596875,33.95
2021-06-29 16:17:34.406250000,-23.0,-10.0,58.0,104.230625,18.14,5.445905125,33.95
2021-06-29 16:17:34.414062500,-23.0,-10.0,58.0,104.23640625,18.689999999999998,5.44494428125,33.95
2021-06-29 16:17:34.421875000,-23.0,-10.0,58.0,104.2421875,19.24,5.4439834375,33.95
2021-06-29 16:17:34.429687500,-23.0,-10.0,58.0,104.24796875,19.284999999999997,5.44302259375,33.95
2021-06-29 16:17:34.437500000,-23.0,-10.0,58.0,104.25375000000001,19.33,5.442061750000001,33.95
2021-06-29 16:17:34.445312500,-23.0,-10.0,58.0,104.25953125000001,19.17,5.44110090625,33.95
2021-06-29 16:17:34.453125000,-23.0,-10.0,58.0,104.26531250000001,19.01,5.4401400625,33.95
2021-06-29 16:17:34.460937500,-23.0,-10.0,58.0,104.27109375,18.925,5.4391792187500005,33.95
2021-06-29 16:17:34.468750000,-23.0,-10.0,58.0,104.276875,18.84,5.438218375,33.95
2021-06-29 16:17:34.476562500,-23.0,-10.0,58.25,104.28265625,18.915,5.43725753125,33.95
2021-06-29 16:17:34.484375000,-23.0,-10.0,58.5,104.2884375,18.99,5.4362966875000005,33.95
2021-06-29 16:17:34.492187500,-23.0,-10.0,58.75,104.29421875,19.14,5.43533584375,33.95
2021-06-29 16:17:34.500000000,-23.0,-10.0,59.0,104.30000000000001,19.29,5.434375,33.95
2021-06-29 16:17:34.507812500,-23.0,-10.25,58.75,104.30578125000001,19.325,5.4332540625000005,33.95
2021-06-29 16:17:34.515625000,-23.0,-10.5,58.5,104.31156250000001,19.36,5.432133125,33.95
2021-06-29 16:17:34.523437500,-23.0,-10.75,58.25,104.31734375,19.085,5.4310121875,33.95
2021-06-29 16:17:34.531250000,-23.0,-11.0,58.0,104.323125,18.81,5.42989125,33.95
2021-06-29 16:17:34.539062500,-23.0,-10.75,58.0,104.32890625,18.115000000000002,5.4287703125,33.95
2021-06-29 16:17:34.546875000,-23.0,-10.5,58.0,104.3346875,17.42,5.4276493750000006,33.95
2021-06-29 16:17:34.554687500,-23.0,-10.25,58.0,104.34046875,16.345,5.4265284375,33.95
2021-06-29 16:17:34.562500000,-23.0,-10.0,58.0,104.34625,15.27,5.4254075,33.95
2021-06-29 16:17:34.570312500,-23.0,-10.0,58.0,104.35203125000001,13.915,5.4242865625,33.95
2021-06-29 16:17:34.578125000,-23.0,-10.0,58.0,104.35781250000001,12.56,5.423165625,33.95
2021-06-29 16:17:34.585937500,-23.0,-10.0,58.0,104.36359375,11.05,5.422044687500001,33.95
2021-06-29 16:17:34.593750000,-23.0,-10.0,58.0,104.369375,9.54,5.42092375,33.95
2021-06-29 16:17:34.601562500,-23.0,-10.25,58.0,104.37515625,7.955,5.4198028125,33.95
2021-06-29 16:17:34.609375000,-23.0,-10.5,58.0,104.3809375,6.37,5.418681875,33.95
2021-06-29 16:17:34.617187500,-23.0,-10.75,58.0,104.38671875,4.77,5.4175609375,33.95
2021-06-29 16:17:34.625000000,-23.0,-11.0,58.0,104.3925,3.17,5.41644,33.95
2021-06-29 16:17:34.632812500,-23.0,-10.75,58.0,104.39828125,1.585,5.4153190625,33.95
2021-06-29 16:17:34.640625000,-23.0,-10.5,58.0,104.40406250000001,0.0,5.414198125,33.95
2021-06-29 16:17:34.648437500,-23.0,-10.25,58.0,104.40984375000001,-1.575,5.4130771875,33.95
2021-06-29 16:17:34.656250000,-23.0,-10.0,58.0,104.415625,-3.15,5.41195625,33.95
2021-06-29 16:17:34.664062500,-23.0,-10.0,58.0,104.42140625,-4.76,5.4108353125,33.95
2021-06-29 16:17:34.671875000,-23.0,-10.0,58.0,104.4271875,-6.37,5.409714375,33.95
2021-06-29 16:17:34.679687500,-23.0,-10.0,58.0,104.43296875,-8.125,5.4085934375,33.95
2021-06-29 16:17:34.687500000,-23.0,-10.0,58.0,104.43875,-9.88,5.4074725,33.95
2021-06-29 16:17:34.695312500,-23.0,-10.0,58.0,104.44453125,-11.89,5.4063515625,33.95
2021-06-29 16:17:34.703125000,-23.0,-10.0,58.0,104.45031250000001,-13.9,5.405230625,33.95
2021-06-29 16:17:34.710937500,-23.0,-10.0,58.0,104.45609375000001,-16.225,5.4041096875,33.95
2021-06-29 16:17:34.718750000,-23.0,-10.0,58.0,104.461875,-18.55,5.4029887500000005,33.95
2021-06-29 16:17:34.726562500,-23.25,-10.0,58.0,104.46765625,-21.1,5.4018678125,33.95
2021-06-29 16:17:34.734375000,-23.5,-10.0,58.0,104.4734375,-23.65,5.400746875,33.95
2021-06-29 16:17:34.742187500,-23.75,-10.0,58.0,104.47921875,-26.155,5.3996259375,33.95
2021-06-29 16:17:34.750000000,-24.0,-10.0,58.0,104.485,-28.66,5.398505,33.95
2021-06-29 16:17:34.757812500,-23.75,-10.0,58.0,104.49078125,-30.700000000000003,5.39710378125,33.95
2021-06-29 16:17:34.765625000,-23.5,-10.0,58.0,104.4965625,-32.74,5.3957025625,33.95
2021-06-29 16:17:34.773437500,-23.25,-10.0,58.0,104.50234375000001,-33.88,5.3943013437500005,33.95
2021-06-29 16:17:34.781250000,-23.0,-10.0,58.0,104.508125,-35.02,5.392900125,33.95
2021-06-29 16:17:34.789062500,-23.25,-10.0,58.0,104.51390625,-34.915000000000006,5.39149890625,33.95
2021-06-29 16:17:34.796875000,-23.5,-10.0,58.0,104.5196875,-34.81,5.3900976875,33.95
2021-06-29 16:17:34.804687500,-23.75,-10.0,58.0,104.52546875,-33.295,5.38869646875,33.95
2021-06-29 16:17:34.812500000,-24.0,-10.0,58.0,104.53125,-31.78,5.38729525,33.95
2021-06-29 16:17:34.820312500,-23.75,-10.0,58.0,104.53703125,-28.93,5.38589403125,33.95
2021-06-29 16:17:34.828125000,-23.5,-10.0,58.0,104.5428125,-26.08,5.3844928125,33.95
2021-06-29 16:17:34.835937500,-23.25,-10.0,58.0,104.54859375000001,-22.17,5.38309159375,33.95
2021-06-29 16:17:34.843750000,-23.0,-10.0,58.0,104.55437500000001,-18.26,5.381690375,33.95
2021-06-29 16:17:34.851562500,-23.0,-10.0,58.0,104.56015625,-13.695,5.38028915625,33.95
2021-06-29 16:17:34.859375000,-23.0,-10.0,58.0,104.5659375,-9.13,5.3788879375,33.95
2021-06-29 16:17:34.867187500,-23.0,-10.0,58.0,104.57171875,-4.36,5.37748671875,33.95
2021-06-29 16:17:34.875000000,-23.0,-10.0,58.0,104.5775,0.41,5.3760855,33.95
2021-06-29 16:17:34.882812500,-23.0,-10.0,58.0,104.58328125,4.965,5.3746842812499995,33.95
2021-06-29 16:17:34.890625000,-23.0,-10.0,58.0,104.5890625,9.52,5.3732830625,33.95
2021-06-29 16:17:34.898437500,-23.0,-10.0,58.0,104.59484375,13.555,5.37188184375,33.95
2021-06-29 16:17:34.906250000,-23.0,-10.0,58.0,104.60062500000001,17.59,5.370480625,33.95
2021-06-29 16:17:34.914062500,-23.0,-10.0,58.0,104.60640625,20.92,5.36907940625,33.95
2021-06-29 16:17:34.921875000,-23.0,-10.0,58.0,104.6121875,24.25,5.3676781875,33.95
2021-06-29 16:17:34.929687500,-23.0,-10.0,58.0,104.61796875,26.8,5.366276968749999,33.95
2021-06-29 16:17:34.937500000,-23.0,-10.0,58.0,104.62375,29.35,5.3648757499999995,33.95
2021-06-29 16:17:34.945312500,-23.0,-10.0,58.0,104.62953125,31.135,5.36347453125,33.95
2021-06-29 16:17:34.953125000,-23.0,-10.0,58.0,104.6353125,32.92,5.3620733125,33.95
2021-06-29 16:17:34.960937500,-23.0,-10.0,58.0,104.64109375,33.99,5.36067209375,33.95
2021-06-29 16:17:34.968750000,-23.0,-10.0,58.0,104.64687500000001,35.06,5.359270875,33.95
2021-06-29 16:17:34.976562500,-23.0,-10.0,58.0,104.65265625,35.515,5.357869656249999,33.95
2021-06-29 16:17:34.984375000,-23.0,-10.0,58.0,104.6584375,35.97,5.356468437499999,33.95
2021-06-29 16:17:34.992187500,-23.0,-10.0,58.0,104.66421875,35.945,5.3550672187499995,33.95
2021-06-29 16:17:35.000000000,-23.0,-10.0,58.0,104.67,35.92,5.353666,33.95
2021-06-29 16:17:35.007812500,-23.0,-10.0,58.0,104.6746875,35.585,5.352785249999999,33.95
2021-06-29 16:17:35.015625000,-23.0,-10.0,58.0,104.67937500000001,35.25,5.3519045,33.95
2021-06-29 16:17:35.023437500,-23.0,-10.0,58.0,104.6840625,34.769999999999996,5.3510237499999995,33.95
2021-06-29 16:17:35.031250000,-23.0,-10.0,58.0,104.68875,34.29,5.350142999999999,33.95
2021-06-29 16:17:35.039062500,-23.0,-10.0,58.0,104.6934375,33.775,5.34926225,33.95
2021-06-29 16:17:35.046875000,-23.0,-10.0,58.0,104.698125,33.26,5.3483814999999995,33.95
2021-06-29 16:17:35.054687500,-23.0,-10.0,58.0,104.70281250000001,32.730000000000004,5.34750075,33.95
2021-06-29 16:17:35.062500000,-23.0,-10.0,58.0,104.7075,32.2,5.34662,33.95
2021-06-29 16:17:35.070312500,-23.0,-10.0,58.0,104.7121875,31.585,5.345739249999999,33.95
2021-06-29 16:17:35.078125000,-23.0,-10.0,58.0,104.716875,30.97,5.3448585,33.95
2021-06-29 16:17:35.085937500,-23.0,-10.0,58.0,104.7215625,30.14,5.34397775,33.95
2021-06-29 16:17:35.093750000,-23.0,-10.0,58.0,104.72625000000001,29.31,5.343097,33.95
2021-06-29 16:17:35.101562500,-23.0,-10.0,58.0,104.7309375,28.155,5.34221625,33.95
2021-06-29 16:17:35.109375000,-23.0,-10.0,58.0,104.735625,27.0,5.3413355,33.95
2021-06-29 16:17:35.117187500,-23.0,-10.0,58.0,104.7403125,25.5,5.34045475,33.95
2021-06-29 16:17:35.125000000,-23.0,-10.0,58.0,104.745,24.0,5.339574,33.95
2021-06-29 16:17:35.132812500,-23.0,-10.0,58.0,104.74968750000001,22.215,5.3386932499999995,33.95
2021-06-29 16:17:35.140625000,-23.0,-10.0,58.0,104.754375,20.43,5.3378125,33.95
2021-06-29 16:17:35.148437500,-23.0,-10.0,58.0,104.7590625,18.509999999999998,5.33693175,33.95
2021-06-29 16:17:35.156250000,-23.0,-10.0,58.0,104.76375,16.59,5.336050999999999,33.95
2021-06-29 16:17:35.164062500,-23.0,-10.0,58.0,104.7684375,14.675,5.33517025,33.95
2021-06-29 16:17:35.171875000,-23.0,-10.0,58.0,104.77312500000001,12.76,5.3342895,33.95
2021-06-29 16:17:35.179687500,-23.0,-10.0,58.0,104.7778125,10.945,5.33340875,33.95
2021-06-29 16:17:35.187500000,-23.0,-10.0,58.0,104.7825,9.13,5.332528,33.95
2021-06-29 16:17:35.195312500,-23.0,-10.25,58.0,104.7871875,7.460000000000001,5.33164725,33.95
2021-06-29 16:17:35.203125000,-23.0,-10.5,58.0,104.791875,5.79,5.3307665,33.95
2021-06-29 16:17:35.210937500,-23.0,-10.75,58.0,104.79656250000001,4.22,5.32988575,33.95
2021-06-29 16:17:35.218750000,-23.0,-11.0,58.0,104.80125,2.65,5.329005,33.95
2021-06-29 16:17:35.226562500,-23.25,-10.75,58.0,104.8059375,1.06,5.32812425,33.95
2021-06-29 16:17:35.234375000,-23.5,-10.5,58.0,104.810625,-0.53,5.3272435,33.95
2021-06-29 16:17:35.242187500,-23.75,-10.25,58.0,104.8153125,-2.3149999999999995,5.32636275,33.95
2021-06-29 16:17:35.250000000,-24.0,-10.0,58.0,104.82,-4.1,5.325482,33.95
2021-06-29 16:17:35.257812500,-23.75,-10.0,58.0,104.8246875,-6.28,5.32460121875,33.95
2021-06-29 16:17:35.265625000,-23.5,-10.0,58.0,104.829375,-8.46,5.3237204375000005,33.95
2021-06-29 16:17:35.273437500,-23.25,-10.0,58.0,104.8340625,-11.155000000000001,5.32283965625,33.95
2021-06-29 16:17:35.281250000,-23.0,-10.0,58.0,104.83875,-13.85,5.321958875,33.95
2021-06-29 16:17:35.289062500,-23.0,-10.0,58.0,104.8434375,-16.985,5.32107809375,33.95
2021-06-29 16:17:35.296875000,-23.0,-10.0,58.0,104.848125,-20.12,5.3201973125,33.95
2021-06-29 16:17:35.304687500,-23.0,-10.0,58.0,104.8528125,-23.37,5.31931653125,33.95
2021-06-29 16:17:35.312500000,-23.0,-10.0,58.0,104.8575,-26.62,5.31843575,33.95
2021-06-29 16:17:35.320312500,-23.0,-10.0,58.0,104.8621875,-29.445,5.3175549687500006,33.95
2021-06-29 16:17:35.328125000,-23.0,-10.0,58.0,104.866875,-32.27,5.3166741875,33.95
2021-06-29 16:17:35.335937500,-23.0,-10.0,58.0,104.8715625,-34.035,5.31579340625,33.95
2021-06-29 16:17:35.343750000,-23.0,-10.0,58.0,104.87625,-35.8,5.314912625,33.95
2021-06-29 16:17:35.351562500,-23.0,-10.0,58.0,104.8809375,-35.98,5.3140318437500005,33.95
2021-06-29 16:17:35.359375000,-23.0,-10.0,58.0,104.885625,-36.16,5.3131510625,33.95
2021-06-29 16:17:35.367187500,-23.0,-10.0,58.0,104.8903125,-34.535,5.31227028125,33.95
2021-06-29 16:17:35.375000000,-23.0,-10.0,58.0,104.895,-32.91,5.311389500000001,33.95
2021-06-29 16:17:35.382812500,-23.0,-10.0,58.0,104.8996875,-29.659999999999997,5.31050871875,33.95
2021-06-29 16:17:35.390625000,-23.0,-10.0,58.0,104.904375,-26.41,5.3096279375,33.95
2021-06-29 16:17:35.398437500,-23.0,-10.0,58.0,104.9090625,-22.035,5.30874715625,33.95
2021-06-29 16:17:35.406250000,-23.0,-10.0,58.0,104.91375,-17.66,5.307866375000001,33.95
2021-06-29 16:17:35.414062500,-23.0,-10.0,58.25,104.9184375,-12.825,5.30698559375,33.95
2021-06-29 16:17:35.421875000,-23.0,-10.0,58.5,104.923125,-7.99,5.3061048125,33.95
2021-06-29 16:17:35.429687500,-23.0,-10.0,58.75,104.9278125,-3.3100000000000005,5.30522403125,33.95
2021-06-29 16:17:35.437500000,-23.0,-10.0,59.0,104.9325,1.37,5.3043432500000005,33.95
2021-06-29 16:17:35.445312500,-23.0,-10.0,58.75,104.9371875,5.485,5.30346246875,33.95
2021-06-29 16:17:35.453125000,-23.0,-10.0,58.5,104.941875,9.6,5.3025816875,33.95
2021-06-29 16:17:35.460937500,-23.0,-10.0,58.25,104.9465625,12.965,5.301700906250001,33.95
2021-06-29 16:17:35.468750000,-23.0,-10.0,58.0,104.95125,16.33,5.300820125,33.95
2021-06-29 16:17:35.476562500,-23.25,-10.0,58.0,104.9559375,18.93,5.29993934375,33.95
2021-06-29 16:17:35.484375000,-23.5,-10.0,58.0,104.960625,21.53,5.2990585625,33.95
2021-06-29 16:17:35.492187500,-23.75,-10.0,58.0,104.9653125,23.41,5.298177781250001,33.95
2021-06-29 16:17:35.500000000,-24.0,-10.0,58.0,104.97,25.29,5.297297,33.95
2021-06-29 16:17:35.507812500,-23.75,-10.0,58.0,104.9746875,26.475,5.297176906250001,33.95
2021-06-29 16:17:35.515625000,-23.5,-10.0,58.0,104.979375,27.66,5.2970568125,33.95
2021-06-29 16:17:35.523437500,-23.25,-10.0,58.0,104.9840625,28.16,5.2969367187500005,33.95
2021-06-29 16:17:35.531250000,-23.0,-10.0,58.0,104.98875,28.66,5.296816625,33.95
2021-06-29 16:17:35.539062500,-23.0,-10.0,58.0,104.9934375,28.509999999999998,5.29669653125,33.95
2021-06-29 16:17:35.546875000,-23.0,-10.0,58.0,104.998125,28.36,5.296576437500001,33.95
2021-06-29 16:17:35.554687500,-23.0,-10.0,58.0,105.0028125,27.665,5.29645634375,33.95
2021-06-29 16:17:35.562500000,-23.0,-10.0,58.0,105.0075,26.97,5.29633625,33.95
2021-06-29 16:17:35.570312500,-23.0,-10.25,58.0,105.0121875,25.895,5.29621615625,33.95
2021-06-29 16:17:35.578125000,-23.0,-10.5,58.0,105.016875,24.82,5.2960960625,33.95
2021-06-29 16:17:35.585937500,-23.0,-10.75,58.0,105.0215625,23.54,5.2959759687500005,33.95
2021-06-29 16:17:35.593750000,-23.0,-11.0,58.0,105.02625,22.26,5.295855875,33.95
