TimeStamp,empatica.acc.x,empatica.acc.y,empatica.acc.z,empatica.hr,empatica.bvp,empatica.eda,empatica.temp
2021-06-29 16:33:33.492187500,-38.0,-13.0,50.0,114.22742187499999,-20.89,20.647472625,33.83
2021-06-29 16:33:33.500000000,-38.0,-13.0,50.0,114.225,-24.53,20.647873,33.83
2021-06-29 16:33:33.507812500,-38.0,-13.25,50.0,114.222578125,-28.76,20.64771284375,33.83
2021-06-29 16:33:33.515625000,-38.0,-13.5,50.0,114.22015624999999,-32.99,20.6475526875,33.83
2021-06-29 16:33:33.523437500,-38.0,-13.75,50.0,114.21773437499999,-37.760000000000005,20.647392531250002,33.83
2021-06-29 16:33:33.531250000,-38.0,-14.0,50.0,114.2153125,-42.53,20.647232375,33.83
2021-06-29 16:33:33.539062500,-38.0,-13.75,50.0,114.212890625,-47.525000000000006,20.64707221875,33.83
2021-06-29 16:33:33.546875000,-38.0,-13.5,50.0,114.21046874999999,-52.52,20.6469120625,33.83
2021-06-29 16:33:33.554687500,-38.0,-13.25,50.0,114.208046875,-57.215,20.64675190625,33.83
2021-06-29 16:33:33.562500000,-38.0,-13.0,50.0,114.205625,-61.91,20.64659175,33.83
2021-06-29 16:33:33.570312500,-38.0,-13.0,50.0,114.20320312499999,-65.60499999999999,20.646431593750002,33.83
2021-06-29 16:33:33.578125000,-38.0,-13.0,50.0,114.20078124999999,-69.3,20.6462714375,33.83
2021-06-29 16:33:33.585937500,-38.0,-13.0,50.0,114.198359375,-71.305,20.64611128125,33.83
2021-06-29 16:33:33.593750000,-38.0,-13.0,50.0,114.1959375,-73.31,20.645951125,33.83
2021-06-29 16:33:33.601562500,-38.0,-13.0,50.0,114.19351562499999,-73.13499999999999,20.64579096875,33.83
2021-06-29 16:33:33.609375000,-38.0,-13.0,50.0,114.19109375,-72.96,20.645630812500002,33.83
2021-06-29 16:33:33.617187500,-38.0,-13.0,50.0,114.188671875,-70.455,20.64547065625,33.83
2021-06-29 16:33:33.625000000,-38.0,-13.0,50.0,114.18625,-67.95,20.6453105,33.83
2021-06-29 16:33:33.632812500,-38.0,-13.0,50.0,114.18382812499999,-63.355000000000004,20.64515034375,33.83
2021-06-29 16:33:33.640625000,-38.0,-13.0,50.0,114.18140625,-58.76,20.6449901875,33.83
2021-06-29 16:33:33.648437500,-38.0,-13.0,50.0,114.178984375,-52.555,20.644830031250002,33.83
2021-06-29 16:33:33.656250000,-38.0,-13.0,50.0,114.17656249999999,-46.35,20.644669875,33.83
2021-06-29 16:33:33.664062500,-38.0,-13.0,50.0,114.17414062499999,-39.105000000000004,20.64450971875,33.83
2021-06-29 16:33:33.671875000,-38.0,-13.0,50.0,114.17171875,-31.86,20.6443495625,33.83
2021-06-29 16:33:33.679687500,-38.0,-13.0,50.0,114.169296875,-24.085,20.64418940625,33.83
2021-06-29 16:33:33.687500000,-38.0,-13.0,50.0,114.16687499999999,-16.31,20.644029250000003,33.83
2021-06-29 16:33:33.695312500,-38.0,-13.0,50.0,114.164453125,-8.39,20.643869093750002,33.83
2021-06-29 16:33:33.703125000,-38.0,-13.0,50.0,114.16203125,-0.47,20.6437089375,33.83
2021-06-29 16:33:33.710937500,-38.0,-13.0,50.0,114.15960937499999,7.265000000000001,20.64354878125,33.83
2021-06-29 16:33:33.718750000,-38.0,-13.0,50.0,114.15718749999999,15.0,20.643388625,33.83
2021-06-29 16:33:33.726562500,-38.0,-13.0,50.0,114.154765625,22.17,20.64322846875,33.83
2021-06-29 16:33:33.734375000,-38.0,-13.0,50.0,114.15234375,29.34,20.643068312500002,33.83
2021-06-29 16:33:33.742187500,-38.0,-13.0,50.0,114.14992187499999,35.47,20.64290815625,33.83
2021-06-29 16:33:33.750000000,-38.0,-13.0,50.0,114.1475,41.6,20.642748,33.83
2021-06-29 16:33:33.757812500,-38.0,-13.25,50.0,114.145078125,46.18,20.64322840625,33.83
2021-06-29 16:33:33.765625000,-38.0,-13.5,50.0,114.14265624999999,50.76,20.6437088125,33.83
2021-06-29 16:33:33.773437500,-38.0,-13.75,50.0,114.14023437499999,53.4,20.64418921875,33.83
2021-06-29 16:33:33.781250000,-38.0,-14.0,50.0,114.1378125,56.04,20.644669625000002,33.83
2021-06-29 16:33:33.789062500,-38.0,-13.75,50.0,114.135390625,56.685,20.64515003125,33.83
2021-06-29 16:33:33.796875000,-38.0,-13.5,50.0,114.13296874999999,57.33,20.6456304375,33.83
2021-06-29 16:33:33.804687500,-38.0,-13.25,50.0,114.130546875,56.32,20.64611084375,33.83
2021-06-29 16:33:33.812500000,-38.0,-13.0,50.0,114.128125,55.31,20.64659125,33.83
2021-06-29 16:33:33.820312500,-38.0,-13.0,50.0,114.12570312499999,53.305,20.647071656250002,33.83
2021-06-29 16:33:33.828125000,-38.0,-13.0,50.0,114.12328124999999,51.3,20.6475520625,33.83
2021-06-29 16:33:33.835937500,-38.0,-13.0,50.0,114.120859375,49.04,20.64803246875,33.83
2021-06-29 16:33:33.843750000,-38.0,-13.0,50.0,114.1184375,46.78,20.648512875,33.83
2021-06-29 16:33:33.851562500,-38.0,-13.0,50.0,114.11601562499999,44.8,20.64899328125,33.83
2021-06-29 16:33:33.859375000,-38.0,-13.0,50.0,114.11359374999999,42.82,20.649473687500002,33.83
2021-06-29 16:33:33.867187500,-38.0,-13.0,50.0,114.111171875,41.31,20.64995409375,33.83
2021-06-29 16:33:33.875000000,-38.0,-13.0,50.0,114.10874999999999,39.8,20.650434500000003,33.83
2021-06-29 16:33:33.882812500,-38.0,-13.0,50.0,114.10632812499999,38.584999999999994,20.65091490625,33.83
2021-06-29 16:33:33.890625000,-38.0,-13.0,50.0,114.10390625,37.37,20.6513953125,33.83
2021-06-29 16:33:33.898437500,-38.0,-13.0,50.0,114.101484375,36.07,20.651875718750002,33.83
2021-06-29 16:33:33.906250000,-38.0,-13.0,50.0,114.09906249999999,34.77,20.652356125,33.83
2021-06-29 16:33:33.914062500,-38.0,-13.0,50.0,114.09664062499999,33.075,20.652836531250003,33.83
2021-06-29 16:33:33.921875000,-38.0,-13.0,50.0,114.09421875,31.38,20.6533169375,33.83
2021-06-29 16:33:33.929687500,-38.0,-13.0,50.0,114.091796875,29.2,20.65379734375,33.83
2021-06-29 16:33:33.937500000,-38.0,-13.0,50.0,114.08937499999999,27.02,20.654277750000002,33.83
2021-06-29 16:33:33.945312500,-38.0,-13.25,50.0,114.086953125,24.509999999999998,20.65475815625,33.83
2021-06-29 16:33:33.953125000,-38.0,-13.5,50.0,114.08453125,22.0,20.655238562500003,33.83
2021-06-29 16:33:33.960937500,-38.0,-13.75,50.0,114.08210937499999,19.4,20.65571896875,33.83
2021-06-29 16:33:33.968750000,-38.0,-14.0,50.0,114.07968749999999,16.8,20.656199375,33.83
2021-06-29 16:33:33.976562500,-38.0,-14.0,50.0,114.077265625,14.295,20.656679781250002,33.83
2021-06-29 16:33:33.984375000,-38.0,-14.0,50.0,114.07484375,11.79,20.6571601875,33.83
2021-06-29 16:33:33.992187500,-38.0,-14.0,50.0,114.07242187499999,9.355,20.657640593750003,33.83
2021-06-29 16:33:34.000000000,-38.0,-14.0,50.0,114.07,6.92,20.658121,33.83
2021-06-29 16:33:34.007812500,-38.0,-14.0,50.0,114.06773437499999,4.359999999999999,20.657920843750002,33.83
2021-06-29 16:33:34.015625000,-38.0,-14.0,50.0,114.06546875,1.8,20.657720687500003,33.83
2021-06-29 16:33:34.023437500,-38.0,-14.0,50.0,114.06320312499999,-1.1899999999999997,20.65752053125,33.83
2021-06-29 16:33:34.031250000,-38.0,-14.0,50.0,114.0609375,-4.18,20.657320375,33.83
2021-06-29 16:33:34.039062500,-38.0,-13.75,50.0,114.05867187499999,-7.82,20.657120218750002,33.83
2021-06-29 16:33:34.046875000,-38.0,-13.5,50.0,114.05640625,-11.46,20.6569200625,33.83
2021-06-29 16:33:34.054687500,-38.0,-13.25,50.0,114.05414062499999,-15.81,20.65671990625,33.83
2021-06-29 16:33:34.062500000,-38.0,-13.0,50.0,114.051875,-20.16,20.65651975,33.83
2021-06-29 16:33:34.070312500,-38.0,-13.25,50.0,114.04960937499999,-25.064999999999998,20.656319593750002,33.83
2021-06-29 16:33:34.078125000,-38.0,-13.5,50.0,114.04734375,-29.97,20.656119437500003,33.83
2021-06-29 16:33:34.085937500,-38.0,-13.75,50.0,114.04507812499999,-35.035,20.65591928125,33.83
2021-06-29 16:33:34.093750000,-38.0,-14.0,50.0,114.0428125,-40.1,20.655719125,33.83
2021-06-29 16:33:34.101562500,-38.0,-13.75,50.0,114.04054687499999,-44.685,20.655518968750002,33.83
2021-06-29 16:33:34.109375000,-38.0,-13.5,50.0,114.03828125,-49.27,20.6553188125,33.83
2021-06-29 16:33:34.117187500,-38.0,-13.25,50.0,114.03601562499999,-52.59,20.65511865625,33.83
2021-06-29 16:33:34.125000000,-38.0,-13.0,50.0,114.03375,-55.91,20.6549185,33.83
2021-06-29 16:33:34.132812500,-38.0,-13.25,50.0,114.03148437499999,-57.235,20.65471834375,33.83
2021-06-29 16:33:34.140625000,-38.0,-13.5,50.0,114.02921875,-58.56,20.654518187500003,33.83
2021-06-29 16:33:34.148437500,-38.0,-13.75,50.0,114.02695312499999,-57.394999999999996,20.65431803125,33.83
2021-06-29 16:33:34.156250000,-38.0,-14.0,50.0,114.0246875,-56.23,20.654117875,33.83
2021-06-29 16:33:34.164062500,-38.0,-13.75,50.0,114.02242187499999,-52.55,20.65391771875,33.83
2021-06-29 16:33:34.171875000,-38.0,-13.5,50.0,114.02015625,-48.87,20.6537175625,33.83
2021-06-29 16:33:34.179687500,-38.0,-13.25,50.0,114.01789062499999,-43.105000000000004,20.65351740625,33.83
2021-06-29 16:33:34.187500000,-38.0,-13.0,50.0,114.015625,-37.34,20.65331725,33.83
2021-06-29 16:33:34.195312500,-38.0,-13.0,50.0,114.013359375,-30.245,20.65311709375,33.83
2021-06-29 16:33:34.203125000,-38.0,-13.0,50.0,114.01109375,-23.15,20.652916937500002,33.83
2021-06-29 16:33:34.210937500,-38.0,-13.0,50.0,114.008828125,-15.549999999999999,20.65271678125,33.83
2021-06-29 16:33:34.218750000,-38.0,-13.0,50.0,114.0065625,-7.95,20.652516625,33.83
2021-06-29 16:33:34.226562500,-38.0,-13.0,50.0,114.004296875,-0.47500000000000053,20.65231646875,33.83
2021-06-29 16:33:34.234375000,-38.0,-13.0,50.0,114.00203125,7.0,20.6521163125,33.83
2021-06-29 16:33:34.242187500,-38.0,-13.0,50.0,113.999765625,13.965,20.65191615625,33.83
2021-06-29 16:33:34.250000000,-38.0,-13.0,50.0,113.9975,20.93,20.651716,33.83
2021-06-29 16:33:34.257812500,-38.0,-13.25,50.0,113.995234375,27.14,20.6525166875,33.83
2021-06-29 16:33:34.265625000,-38.0,-13.5,50.0,113.99296874999999,33.35,20.653317375,33.83
2021-06-29 16:33:34.273437500,-38.0,-13.75,50.0,113.990703125,38.565,20.6541180625,33.83
2021-06-29 16:33:34.281250000,-38.0,-14.0,50.0,113.98843749999999,43.78,20.65491875,33.83
2021-06-29 16:33:34.289062500,-38.0,-13.75,50.0,113.986171875,47.685,20.6557194375,33.83
2021-06-29 16:33:34.296875000,-38.0,-13.5,50.0,113.98390624999999,51.59,20.656520125,33.83
2021-06-29 16:33:34.304687500,-38.0,-13.25,50.0,113.981640625,53.905,20.6573208125,33.83
2021-06-29 16:33:34.312500000,-38.0,-13.0,50.0,113.97937499999999,56.22,20.6581215,33.83
2021-06-29 16:33:34.320312500,-38.0,-13.25,50.0,113.977109375,56.885,20.6589221875,33.83
2021-06-29 16:33:34.328125000,-38.0,-13.5,50.0,113.97484374999999,57.55,20.659722875,33.83
2021-06-29 16:33:34.335937500,-38.0,-13.75,50.0,113.972578125,56.86,20.6605235625,33.83
2021-06-29 16:33:34.343750000,-38.0,-14.0,50.0,113.97031249999999,56.17,20.66132425,33.83
2021-06-29 16:33:34.351562500,-38.0,-13.75,50.0,113.968046875,54.72,20.6621249375,33.83
2021-06-29 16:33:34.359375000,-38.0,-13.5,50.0,113.96578124999999,53.27,20.662925625,33.83
2021-06-29 16:33:34.367187500,-38.0,-13.25,50.0,113.963515625,51.730000000000004,20.6637263125,33.83
2021-06-29 16:33:34.375000000,-38.0,-13.0,50.0,113.96124999999999,50.19,20.664527,33.83
2021-06-29 16:33:34.382812500,-38.0,-13.0,50.0,113.958984375,49.055,20.6653276875,33.83
2021-06-29 16:33:34.390625000,-38.0,-13.0,50.0,113.95671875,47.92,20.666128375,33.83
2021-06-29 16:33:34.398437500,-38.0,-13.0,50.0,113.954453125,47.335,20.6669290625,33.83
2021-06-29 16:33:34.406250000,-38.0,-13.0,50.0,113.9521875,46.75,20.66772975,33.83
2021-06-29 16:33:34.414062500,-38.0,-13.0,50.0,113.949921875,46.519999999999996,20.6685304375,33.83
2021-06-29 16:33:34.421875000,-38.0,-13.0,50.0,113.94765625,46.29,20.669331125,33.83
2021-06-29 16:33:34.429687500,-38.0,-13.0,50.0,113.945390625,46.035,20.6701318125,33.83
2021-06-29 16:33:34.437500000,-38.0,-13.0,50.0,113.943125,45.78,20.6709325,33.83
2021-06-29 16:33:34.445312500,-38.0,-13.25,50.0,113.940859375,45.150000000000006,20.6717331875,33.83
2021-06-29 16:33:34.453125000,-38.0,-13.5,50.0,113.93859375,44.52,20.672533875,33.83
2021-06-29 16:33:34.460937500,-38.0,-13.75,50.0,113.936328125,43.335,20.6733345625,33.83
2021-06-29 16:33:34.468750000,-38.0,-14.0,50.0,113.9340625,42.15,20.67413525,33.83
2021-06-29 16:33:34.476562500,-38.0,-14.0,50.0,113.931796875,40.43,20.6749359375,33.83
2021-06-29 16:33:34.484375000,-38.0,-14.0,50.0,113.92953125,38.71,20.675736625,33.83
2021-06-29 16:33:34.492187500,-38.0,-14.0,50.0,113.927265625,36.615,20.6765373125,33.83
2021-06-29 16:33:34.500000000,-38.0,-14.0,50.0,113.925,34.52,20.677338,33.83
2021-06-29 16:33:34.507812500,-38.0,-13.75,50.0,113.92273437499999,32.260000000000005,20.682862749999998,33.83
2021-06-29 16:33:34.515625000,-38.0,-13.5,50.0,113.92046875,30.0,20.688387499999997,33.83
2021-06-29 16:33:34.523437500,-38.0,-13.25,50.0,113.91820312499999,27.71,20.69391225,33.83
2021-06-29 16:33:34.531250000,-38.0,-13.0,50.0,113.9159375,25.42,20.699437,33.83
2021-06-29 16:33:34.539062500,-38.0,-13.25,50.0,113.91367187499999,23.15,20.70496175,33.83
2021-06-29 16:33:34.546875000,-38.0,-13.5,50.0,113.91140625,20.88,20.7104865,33.83
2021-06-29 16:33:34.554687500,-38.0,-13.75,50.0,113.90914062499999,18.52,20.71601125,33.83
2021-06-29 16:33:34.562500000,-38.0,-14.0,50.0,113.906875,16.16,20.721536,33.83
2021-06-29 16:33:34.570312500,-38.0,-13.75,50.0,113.90460937499999,13.54,20.72706075,33.83
2021-06-29 16:33:34.578125000,-38.0,-13.5,50.0,113.90234375,10.92,20.7325855,33.83
2021-06-29 16:33:34.585937500,-38.0,-13.25,50.0,113.900078125,7.83,20.73811025,33.83
2021-06-29 16:33:34.593750000,-38.0,-13.0,50.0,113.8978125,4.74,20.743635,33.83
2021-06-29 16:33:34.601562500,-38.0,-13.25,50.0,113.895546875,1.005,20.74915975,33.83
2021-06-29 16:33:34.609375000,-38.0,-13.5,50.0,113.89328125,-2.73,20.7546845,33.83
2021-06-29 16:33:34.617187500,-38.0,-13.75,50.0,113.891015625,-7.1850000000000005,20.76020925,33.83
2021-06-29 16:33:34.625000000,-38.0,-14.0,50.0,113.88875,-11.64,20.765734000000002,33.83
2021-06-29 16:33:34.632812500,-38.0,-13.75,50.0,113.886484375,-16.695,20.77125875,33.83
2021-06-29 16:33:34.640625000,-38.0,-13.5,50.0,113.88421875,-21.75,20.7767835,33.83
2021-06-29 16:33:34.648437500,-38.0,-13.25,50.0,113.881953125,-27.03,20.78230825,33.83
2021-06-29 16:33:34.656250000,-38.0,-13.0,50.0,113.8796875,-32.31,20.787833,33.83
2021-06-29 16:33:34.664062500,-38.0,-13.0,50.0,113.877421875,-37.175,20.793357750000002,33.83
2021-06-29 16:33:34.671875000,-38.0,-13.0,50.0,113.87515625,-42.04,20.7988825,33.83
2021-06-29 16:33:34.679687500,-38.0,-13.0,50.0,113.872890625,-45.685,20.80440725,33.83
2021-06-29 16:33:34.687500000,-38.0,-13.0,50.0,113.870625,-49.33,20.809932,33.83
2021-06-29 16:33:34.695312500,-38.0,-13.0,50.0,113.868359375,-50.94,20.81545675,33.83
2021-06-29 16:33:34.703125000,-38.0,-13.0,50.0,113.86609375,-52.55,20.820981500000002,33.83
2021-06-29 16:33:34.710937500,-38.0,-13.0,50.0,113.863828125,-51.575,20.82650625,33.83
2021-06-29 16:33:34.718750000,-38.0,-13.0,50.0,113.8615625,-50.6,20.832031,33.83
2021-06-29 16:33:34.726562500,-38.0,-13.25,50.0,113.859296875,-46.965,20.83755575,33.83
2021-06-29 16:33:34.734375000,-38.0,-13.5,50.0,113.85703125,-43.33,20.843080500000003,33.83
2021-06-29 16:33:34.742187500,-38.0,-13.75,50.0,113.854765625,-37.475,20.848605250000002,33.83
2021-06-29 16:33:34.750000000,-38.0,-14.0,50.0,113.85249999999999,-31.62,20.85413,33.83
2021-06-29 16:33:34.757812500,-38.0,-13.75,50.0,113.850234375,-24.36,20.85841365625,33.83
2021-06-29 16:33:34.765625000,-38.0,-13.5,50.0,113.84796874999999,-17.1,20.8626973125,33.83
2021-06-29 16:33:34.773437500,-38.0,-13.25,50.0,113.845703125,-9.38,20.866980968750003,33.83
2021-06-29 16:33:34.781250000,-38.0,-13.0,50.0,113.8434375,-1.66,20.871264625000002,33.83
2021-06-29 16:33:34.789062500,-37.75,-13.0,50.0,113.841171875,5.77,20.87554828125,33.83
2021-06-29 16:33:34.796875000,-37.5,-13.0,50.0,113.83890625,13.2,20.8798319375,33.83
2021-06-29 16:33:34.804687500,-37.25,-13.0,50.0,113.836640625,19.865000000000002,20.88411559375,33.83
2021-06-29 16:33:34.812500000,-37.0,-13.0,50.0,113.834375,26.53,20.88839925,33.83
2021-06-29 16:33:34.820312500,-37.25,-13.25,50.0,113.832109375,32.24,20.892682906250002,33.83
2021-06-29 16:33:34.828125000,-37.5,-13.5,50.0,113.82984375,37.95,20.8969665625,33.83
2021-06-29 16:33:34.835937500,-37.75,-13.75,50.0,113.827578125,42.605000000000004,20.90125021875,33.83
2021-06-29 16:33:34.843750000,-38.0,-14.0,50.0,113.8253125,47.26,20.905533875,33.83
2021-06-29 16:33:34.851562500,-38.0,-13.75,50.0,113.823046875,50.75,20.90981753125,33.83
2021-06-29 16:33:34.859375000,-38.0,-13.5,50.0,113.82078125,54.24,20.914101187500002,33.83
2021-06-29 16:33:34.867187500,-38.0,-13.25,50.0,113.818515625,56.415000000000006,20.91838484375,33.83
2021-06-29 16:33:34.875000000,-38.0,-13.0,50.0,113.81625,58.59,20.9226685,33.83
2021-06-29 16:33:34.882812500,-38.0,-13.0,50.25,113.813984375,59.375,20.92695215625,33.83
2021-06-29 16:33:34.890625000,-38.0,-13.0,50.5,113.81171875,60.16,20.9312358125,33.83
2021-06-29 16:33:34.898437500,-38.0,-13.0,50.75,113.809453125,59.69499999999999,20.93551946875,33.83
2021-06-29 16:33:34.906250000,-38.0,-13.0,51.0,113.8071875,59.23,20.939803125,33.83
2021-06-29 16:33:34.914062500,-38.0,-13.0,50.75,113.804921875,57.9,20.94408678125,33.83
2021-06-29 16:33:34.921875000,-38.0,-13.0,50.5,113.80265625,56.57,20.9483704375,33.83
2021-06-29 16:33:34.929687500,-38.0,-13.0,50.25,113.800390625,54.94,20.95265409375,33.83
2021-06-29 16:33:34.937500000,-38.0,-13.0,50.0,113.798125,53.31,20.95693775,33.83
2021-06-29 16:33:34.945312500,-38.0,-13.25,50.0,113.795859375,51.894999999999996,20.96122140625,33.83
2021-06-29 16:33:34.953125000,-38.0,-13.5,50.0,113.79359375,50.48,20.9655050625,33.83
2021-06-29 16:33:34.960937500,-38.0,-13.75,50.0,113.791328125,49.599999999999994,20.96978871875,33.83
2021-06-29 16:33:34.968750000,-38.0,-14.0,50.0,113.7890625,48.72,20.974072375,33.83
2021-06-29 16:33:34.976562500,-38.0,-13.75,50.0,113.78679687500001,48.36,20.978356031249998,33.83
2021-06-29 16:33:34.984375000,-38.0,-13.5,50.0,113.78453125,48.0,20.9826396875,33.83
2021-06-29 16:33:34.992187500,-38.0,-13.25,50.0,113.78226562500001,47.885000000000005,20.98692334375,33.83
2021-06-29 16:33:35.000000000,-38.0,-13.0,50.0,113.78,47.77,20.991207,33.83
2021-06-29 16:33:35.007812500,-38.0,-13.25,50.0,113.7778125,47.475,20.99244809375,33.83
2021-06-29 16:33:35.015625000,-38.0,-13.5,50.0,113.775625,47.18,20.9936891875,33.83
2021-06-29 16:33:35.023437500,-38.0,-13.75,50.0,113.7734375,46.33,20.99493028125,33.83
2021-06-29 16:33:35.031250000,-38.0,-14.0,50.0,113.77125,45.48,20.996171375,33.83
2021-06-29 16:33:35.039062500,-38.0,-13.75,50.0,113.7690625,43.92,20.99741246875,33.83
2021-06-29 16:33:35.046875000,-38.0,-13.5,50.0,113.766875,42.36,20.9986535625,33.83
2021-06-29 16:33:35.054687500,-38.0,-13.25,50.0,113.76468750000001,40.155,20.99989465625,33.83
2021-06-29 16:33:35.062500000,-38.0,-13.0,50.0,113.7625,37.95,21.00113575,33.83
2021-06-29 16:33:35.070312500,-37.75,-13.25,50.0,113.7603125,35.325,21.00237684375,33.83
2021-06-29 16:33:35.078125000,-37.5,-13.5,50.0,113.758125,32.7,21.0036179375,33.83
2021-06-29 16:33:35.085937500,-37.25,-13.75,50.0,113.7559375,29.915,21.00485903125,33.83
2021-06-29 16:33:35.093750000,-37.0,-14.0,50.0,113.75375,27.13,21.006100125,33.83
2021-06-29 16:33:35.101562500,-37.25,-13.75,50.0,113.7515625,24.345,21.00734121875,33.83
2021-06-29 16:33:35.109375000,-37.5,-13.5,50.0,113.749375,21.56,21.0085823125,33.83
2021-06-29 16:33:35.117187500,-37.75,-13.25,50.0,113.7471875,18.79,21.00982340625,33.83
2021-06-29 16:33:35.125000000,-38.0,-13.0,50.0,113.745,16.02,21.0110645,33.83
2021-06-29 16:33:35.132812500,-38.0,-13.25,50.0,113.7428125,13.165,21.01230559375,33.83
2021-06-29 16:33:35.140625000,-38.0,-13.5,50.0,113.740625,10.31,21.0135466875,33.83
2021-06-29 16:33:35.148437500,-38.0,-13.75,50.0,113.7384375,7.215,21.01478778125,33.83
2021-06-29 16:33:35.156250000,-38.0,-14.0,50.0,113.73625,4.12,21.016028875,33.83
2021-06-29 16:33:35.164062500,-37.75,-13.75,50.0,113.73406250000001,0.6600000000000001,21.01726996875,33.83
2021-06-29 16:33:35.171875000,-37.5,-13.5,50.0,113.731875,-2.8,21.0185110625,33.83
2021-06-29 16:33:35.179687500,-37.25,-13.25,50.0,113.7296875,-6.6850000000000005,21.01975215625,33.83
2021-06-29 16:33:35.187500000,-37.0,-13.0,50.0,113.7275,-10.57,21.02099325,33.83
2021-06-29 16:33:35.195312500,-37.25,-13.25,50.0,113.7253125,-14.895,21.02223434375,33.83
2021-06-29 16:33:35.203125000,-37.5,-13.5,50.0,113.723125,-19.22,21.0234754375,33.83
2021-06-29 16:33:35.210937500,-37.75,-13.75,50.0,113.7209375,-23.92,21.02471653125,33.83
2021-06-29 16:33:35.218750000,-38.0,-14.0,50.0,113.71875,-28.62,21.025957625,33.83
2021-06-29 16:33:35.226562500,-38.0,-14.0,50.0,113.7165625,-33.515,21.02719871875,33.83
2021-06-29 16:33:35.234375000,-38.0,-14.0,50.0,113.714375,-38.41,21.0284398125,33.83
2021-06-29 16:33:35.242187500,-38.0,-14.0,50.0,113.7121875,-43.114999999999995,21.02968090625,33.83
2021-06-29 16:33:35.250000000,-38.0,-14.0,50.0,113.71000000000001,-47.82,21.030922,33.83
2021-06-29 16:33:35.257812500,-38.0,-13.75,50.25,113.7078125,-51.72,21.03799559375,33.83
2021-06-29 16:33:35.265625000,-38.0,-13.5,50.5,113.705625,-55.62,21.0450691875,33.83
2021-06-29 16:33:35.273437500,-38.0,-13.25,50.75,113.7034375,-57.995,21.05214278125,33.83
2021-06-29 16:33:35.281250000,-38.0,-13.0,51.0,113.70125,-60.37,21.059216375,33.83
2021-06-29 16:33:35.289062500,-37.75,-13.25,50.75,113.6990625,-60.56,21.06628996875,33.83
2021-06-29 16:33:35.296875000,-37.5,-13.5,50.5,113.696875,-60.75,21.0733635625,33.83
2021-06-29 16:33:35.304687500,-37.25,-13.75,50.25,113.6946875,-58.435,21.08043715625,33.83
2021-06-29 16:33:35.312500000,-37.0,-14.0,50.0,113.6925,-56.12,21.08751075,33.83
2021-06-29 16:33:35.320312500,-37.25,-13.75,50.0,113.6903125,-51.44,21.09458434375,33.83
2021-06-29 16:33:35.328125000,-37.5,-13.5,50.0,113.688125,-46.76,21.1016579375,33.83
2021-06-29 16:33:35.335937500,-37.75,-13.25,50.0,113.6859375,-40.345,21.10873153125,33.83
2021-06-29 16:33:35.343750000,-38.0,-13.0,50.0,113.68375,-33.93,21.115805125,33.83
2021-06-29 16:33:35.351562500,-38.0,-13.25,50.0,113.6815625,-26.634999999999998,21.12287871875,33.83
2021-06-29 16:33:35.359375000,-38.0,-13.5,50.0,113.67937500000001,-19.34,21.1299523125,33.83
2021-06-29 16:33:35.367187500,-38.0,-13.75,50.0,113.6771875,-12.04,21.13702590625,33.83
2021-06-29 16:33:35.375000000,-38.0,-14.0,50.0,113.675,-4.74,21.1440995,33.83
2021-06-29 16:33:35.382812500,-38.0,-14.0,50.0,113.6728125,1.9100000000000001,21.15117309375,33.83
2021-06-29 16:33:35.390625000,-38.0,-14.0,50.0,113.670625,8.56,21.1582466875,33.83
2021-06-29 16:33:35.398437500,-38.0,-14.0,50.0,113.6684375,14.170000000000002,21.16532028125,33.83
2021-06-29 16:33:35.406250000,-38.0,-14.0,50.0,113.66625,19.78,21.172393874999997,33.83
2021-06-29 16:33:35.414062500,-38.0,-13.75,50.0,113.6640625,24.15,21.179467468749998,33.83
2021-06-29 16:33:35.421875000,-38.0,-13.5,50.0,113.661875,28.52,21.186541062499998,33.83
2021-06-29 16:33:35.429687500,-38.0,-13.25,50.0,113.6596875,31.54,21.19361465625,33.83
2021-06-29 16:33:35.437500000,-38.0,-13.0,50.0,113.6575,34.56,21.20068825,33.83
2021-06-29 16:33:35.445312500,-38.0,-13.25,50.0,113.6553125,36.155,21.20776184375,33.83
2021-06-29 16:33:35.453125000,-38.0,-13.5,50.0,113.653125,37.75,21.2148354375,33.83
2021-06-29 16:33:35.460937500,-38.0,-13.75,50.0,113.6509375,37.96,21.22190903125,33.83
2021-06-29 16:33:35.468750000,-38.0,-14.0,50.0,113.64875,38.17,21.228982625,33.83
2021-06-29 16:33:35.476562500,-38.0,-13.75,50.25,113.6465625,37.185,21.236056218749997,33.83
2021-06-29 16:33:35.484375000,-38.0,-13.5,50.5,113.644375,36.2,21.243129812499998,33.83
2021-06-29 16:33:35.492187500,-38.0,-13.25,50.75,113.6421875,34.49,21.250203406249998,33.83
2021-06-29 16:33:35.500000000,-38.0,-13.0,51.0,113.64,32.78,21.257277,33.83
2021-06-29 16:33:35.507812500,-38.0,-13.0,50.75,113.6378125,30.96,21.2554754375,33.83
2021-06-29 16:33:35.515625000,-38.0,-13.0,50.5,113.635625,29.14,21.253673874999997,33.83
2021-06-29 16:33:35.523437500,-38.0,-13.0,50.25,113.6334375,27.775,21.251872312499998,33.83
2021-06-29 16:33:35.531250000,-38.0,-13.0,50.0,113.63125,26.41,21.25007075,33.83
2021-06-29 16:33:35.539062500,-38.0,-13.0,50.0,113.6290625,25.825,21.2482691875,33.83
2021-06-29 16:33:35.546875000,-38.0,-13.0,50.0,113.626875,25.24,21.246467624999998,33.83
2021-06-29 16:33:35.554687500,-38.0,-13.0,50.0,113.62468750000001,25.354999999999997,21.2446660625,33.83
2021-06-29 16:33:35.562500000,-38.0,-13.0,50.0,113.6225,25.47,21.2428645,33.83
2021-06-29 16:33:35.570312500,-38.0,-13.25,50.0,113.6203125,25.884999999999998,21.241062937499997,33.83
2021-06-29 16:33:35.578125000,-38.0,-13.5,50.0,113.618125,26.3,21.239261374999998,33.83
2021-06-29 16:33:35.585937500,-38.0,-13.75,50.0,113.6159375,26.465,21.2374598125,33.83
2021-06-29 16:33:35.593750000,-38.0,-14.0,50.0,113.61375,26.63,21.23565825,33.83
2021-06-29 16:33:35.601562500,-38.0,-14.0,50.0,113.6115625,26.125,21.233856687499998,33.83
2021-06-29 16:33:35.609375000,-38.0,-14.0,50.0,113.609375,25.62,21.232055125,33.83
2021-06-29 16:33:35.617187500,-38.0,-14.0,50.0,113.6071875,24.315,21.2302535625,33.83
2021-06-29 16:33:35.625000000,-38.0,-14.0,50.0,113.605,23.01,21.228451999999997,33.83
2021-06-29 16:33:35.632812500,-38.0,-13.75,50.0,113.6028125,21.060000000000002,21.2266504375,33.83
2021-06-29 16:33:35.640625000,-38.0,-13.5,50.0,113.600625,19.11,21.224848875,33.83
2021-06-29 16:33:35.648437500,-38.0,-13.25,50.0,113.5984375,16.83,21.2230473125,33.83
2021-06-29 16:33:35.656250000,-38.0,-13.0,50.0,113.59625,14.55,21.221245749999998,33.83
2021-06-29 16:33:35.664062500,-38.0,-13.0,50.0,113.5940625,12.235,21.2194441875,33.83
2021-06-29 16:33:35.671875000,-38.0,-13.0,50.0,113.591875,9.92,21.217642625,33.83
2021-06-29 16:33:35.679687500,-38.0,-13.0,50.0,113.5896875,7.68,21.2158410625,33.83
2021-06-29 16:33:35.687500000,-38.0,-13.0,50.0,113.5875,5.44,21.2140395,33.83
2021-06-29 16:33:35.695312500,-38.0,-13.25,50.0,113.5853125,3.25,21.2122379375,33.83
2021-06-29 16:33:35.703125000,-38.0,-13.5,50.0,113.583125,1.06,21.210436375,33.83
2021-06-29 16:33:35.710937500,-38.0,-13.75,50.0,113.5809375,-1.205,21.208634812499998,33.83
2021-06-29 16:33:35.718750000,-38.0,-14.0,50.0,113.57875,-3.47,21.20683325,33.83
2021-06-29 16:33:35.726562500,-38.0,-14.0,50.0,113.5765625,-5.9399999999999995,21.2050316875,33.83
2021-06-29 16:33:35.734375000,-38.0,-14.0,50.0,113.574375,-8.41,21.203230125,33.83
2021-06-29 16:33:35.742187500,-38.0,-14.0,50.0,113.5721875,-11.205,21.2014285625,33.83
2021-06-29 16:33:35.750000000,-38.0,-14.0,50.0,113.57,-14.0,21.199627,33.83
2021-06-29 16:33:35.757812500,-38.0,-14.0,50.0,113.5678125,-17.22,21.19810571875,33.83
2021-06-29 16:33:35.765625000,-38.0,-14.0,50.0,113.565625,-20.44,21.1965844375,33.83
2021-06-29 16:33:35.773437500,-38.0,-14.0,50.0,113.5634375,-24.165,21.19506315625,33.83
2021-06-29 16:33:35.781250000,-38.0,-14.0,50.0,113.56125,-27.89,21.193541875,33.83
2021-06-29 16:33:35.789062500,-38.0,-14.0,50.0,113.5590625,-32.035,21.19202059375,33.83
2021-06-29 16:33:35.796875000,-38.0,-14.0,50.0,113.556875,-36.18,21.1904993125,33.83
2021-06-29 16:33:35.804687500,-38.0,-14.0,50.0,113.5546875,-40.405,21.18897803125,33.83
2021-06-29 16:33:35.812500000,-38.0,-14.0,50.0,113.5525,-44.63,21.18745675,33.83
2021-06-29 16:33:35.820312500,-37.75,-13.75,50.0,113.5503125,-48.25,21.18593546875,33.83
2021-06-29 16:33:35.828125000,-37.5,-13.5,50.0,113.548125,-51.87,21.1844141875,33.83
2021-06-29 16:33:35.835937500,-37.25,-13.25,50.0,113.5459375,-54.01,21.18289290625,33.83
2021-06-29 16:33:35.843750000,-37.0,-13.0,50.0,113.54375,-56.15,21.181371625,33.83
2021-06-29 16:33:35.851562500,-37.25,-13.0,50.0,113.5415625,-56.0,21.17985034375,33.83
2021-06-29 16:33:35.859375000,-37.5,-13.0,50.0,113.539375,-55.85,21.1783290625,33.83
2021-06-29 16:33:35.867187500,-37.75,-13.0,50.0,113.5371875,-53.025000000000006,21.17680778125,33.83
2021-06-29 16:33:35.875000000,-38.0,-13.0,50.0,113.535,-50.2,21.1752865,33.83
2021-06-29 16:33:35.882812500,-38.0,-13.0,50.0,113.5328125,-44.900000000000006,21.17376521875,33.83
2021-06-29 16:33:35.890625000,-38.0,-13.0,50.0,113.530625,-39.6,21.1722439375,33.83
2021-06-29 16:33:35.898437500,-38.0,-13.0,50.0,113.5284375,-32.605000000000004,21.17072265625,33.83
2021-06-29 16:33:35.906250000,-38.0,-13.0,50.0,113.52625,-25.61,21.169201375,33.83
2021-06-29 16:33:35.914062500,-38.0,-13.0,50.0,113.5240625,-17.96,21.16768009375,33.83
2021-06-29 16:33:35.921875000,-38.0,-13.0,50.0,113.521875,-10.31,21.1661588125,33.83
2021-06-29 16:33:35.929687500,-38.0,-13.0,50.0,113.5196875,-3.0549999999999997,21.16463753125,33.83
2021-06-29 16:33:35.937500000,-38.0,-13.0,50.0,113.5175,4.2,21.16311625,33.83
2021-06-29 16:33:35.945312500,-38.0,-13.0,50.0,113.5153125,10.335,21.161594968750002,33.83
2021-06-29 16:33:35.953125000,-38.0,-13.0,50.0,113.513125,16.47,21.160073687500002,33.83
2021-06-29 16:33:35.960937500,-38.0,-13.0,50.0,113.5109375,21.085,21.15855240625,33.83
2021-06-29 16:33:35.968750000,-38.0,-13.0,50.0,113.50875,25.7,21.157031125,33.83
2021-06-29 16:33:35.976562500,-38.0,-13.0,50.0,113.5065625,28.685000000000002,21.15550984375,33.83
2021-06-29 16:33:35.984375000,-38.0,-13.0,50.0,113.504375,31.67,21.1539885625,33.83
2021-06-29 16:33:35.992187500,-38.0,-13.0,50.0,113.5021875,33.105000000000004,21.15246728125,33.83
2021-06-29 16:33:36.000000000,-38.0,-13.0,50.0,113.5,34.54,21.150946,33.83
2021-06-29 16:33:36.007812500,-38.0,-13.25,50.0,113.4975,34.614999999999995,21.14858390625,33.8303125
2021-06-29 16:33:36.015625000,-38.0,-13.5,50.0,113.495,34.69,21.146221812500002,33.830625
2021-06-29 16:33:36.023437500,-38.0,-13.75,50.0,113.4925,33.715,21.14385971875,33.8309375
2021-06-29 16:33:36.031250000,-38.0,-14.0,50.0,113.49,32.74,21.141497625,33.83125
2021-06-29 16:33:36.039062500,-37.75,-13.75,50.0,113.4875,31.145000000000003,21.13913553125,33.8315625
2021-06-29 16:33:36.046875000,-37.5,-13.5,50.0,113.485,29.55,21.1367734375,33.831875
2021-06-29 16:33:36.054687500,-37.25,-13.25,50.0,113.4825,27.835,21.13441134375,33.832187499999996
2021-06-29 16:33:36.062500000,-37.0,-13.0,50.0,113.48,26.12,21.13204925,33.832499999999996
2021-06-29 16:33:36.070312500,-37.25,-13.25,50.0,113.4775,24.700000000000003,21.12968715625,33.8328125
2021-06-29 16:33:36.078125000,-37.5,-13.5,50.0,113.475,23.28,21.1273250625,33.833125
2021-06-29 16:33:36.085937500,-37.75,-13.75,50.0,113.4725,22.395000000000003,21.12496296875,33.8334375
2021-06-29 16:33:36.093750000,-38.0,-14.0,50.0,113.47,21.51,21.122600875,33.83375
2021-06-29 16:33:36.101562500,-38.0,-14.0,50.0,113.4675,21.145000000000003,21.12023878125,33.8340625
2021-06-29 16:33:36.109375000,-38.0,-14.0,50.0,113.465,20.78,21.1178766875,33.834375
2021-06-29 16:33:36.117187500,-38.0,-14.0,50.0,113.4625,20.705,21.11551459375,33.8346875
2021-06-29 16:33:36.125000000,-38.0,-14.0,50.0,113.46000000000001,20.63,21.113152499999998,33.835
2021-06-29 16:33:36.132812500,-38.0,-13.75,50.0,113.4575,20.52,21.11079040625,33.8353125
2021-06-29 16:33:36.140625000,-38.0,-13.5,50.0,113.455,20.41,21.1084283125,33.835625
2021-06-29 16:33:36.148437500,-38.0,-13.25,50.0,113.4525,19.965,21.10606621875,33.8359375
2021-06-29 16:33:36.156250000,-38.0,-13.0,50.0,113.45,19.52,21.103704125,33.83625
2021-06-29 16:33:36.164062500,-38.0,-13.0,50.0,113.4475,18.564999999999998,21.10134203125,33.8365625
2021-06-29 16:33:36.171875000,-38.0,-13.0,50.0,113.44500000000001,17.61,21.0989799375,33.836875
2021-06-29 16:33:36.179687500,-38.0,-13.0,50.0,113.4425,16.115,21.09661784375,33.8371875
2021-06-29 16:33:36.187500000,-38.0,-13.0,50.0,113.44,14.62,21.09425575,33.837500000000006
2021-06-29 16:33:36.195312500,-38.0,-13.0,50.0,113.4375,12.665,21.09189365625,33.837812500000005
2021-06-29 16:33:36.203125000,-38.0,-13.0,50.0,113.435,10.71,21.0895315625,33.838125000000005
2021-06-29 16:33:36.210937500,-38.0,-13.0,50.0,113.4325,8.43,21.087169468749998,33.838437500000005
2021-06-29 16:33:36.218750000,-38.0,-13.0,50.0,113.43,6.15,21.084807375,33.838750000000005
2021-06-29 16:33:36.226562500,-38.0,-13.25,50.0,113.4275,3.645,21.08244528125,33.839062500000004
2021-06-29 16:33:36.234375000,-38.0,-13.5,50.0,113.425,1.14,21.080083187499998,33.839375000000004
2021-06-29 16:33:36.242187500,-38.0,-13.75,50.0,113.4225,-1.55,21.07772109375,33.839687500000004
2021-06-29 16:33:36.250000000,-38.0,-14.0,50.0,113.42,-4.24,21.075359,33.84
2021-06-29 16:33:36.257812500,-38.0,-14.0,50.0,113.4175,-7.18,21.07287690625,33.84
2021-06-29 16:33:36.265625000,-38.0,-14.0,50.0,113.415,-10.12,21.0703948125,33.84
2021-06-29 16:33:36.273437500,-38.0,-14.0,50.0,113.41250000000001,-13.454999999999998,21.067912718749998,33.84
2021-06-29 16:33:36.281250000,-38.0,-14.0,50.0,113.41,-16.79,21.065430624999998,33.84
2021-06-29 16:33:36.289062500,-38.0,-14.0,50.0,113.4075,-20.66,21.062948531249997,33.84
2021-06-29 16:33:36.296875000,-38.0,-14.0,50.0,113.405,-24.53,21.0604664375,33.84
2021-06-29 16:33:36.304687500,-38.0,-14.0,50.0,113.4025,-29.0,21.05798434375,33.84
2021-06-29 16:33:36.312500000,-38.0,-14.0,50.0,113.4,-33.47,21.05550225,33.84
2021-06-29 16:33:36.320312500,-38.0,-14.0,50.0,113.39750000000001,-38.394999999999996,21.05302015625,33.84
2021-06-29 16:33:36.328125000,-38.0,-14.0,50.0,113.395,-43.32,21.0505380625,33.84
2021-06-29 16:33:36.335937500,-38.0,-14.0,50.0,113.3925,-48.260000000000005,21.04805596875,33.84
2021-06-29 16:33:36.343750000,-38.0,-14.0,50.0,113.39,-53.2,21.045573875,33.84
2021-06-29 16:33:36.351562500,-38.0,-13.75,50.0,113.3875,-57.44,21.04309178125,33.84
2021-06-29 16:33:36.359375000,-38.0,-13.5,50.0,113.385,-61.68,21.040609687499998,33.84
2021-06-29 16:33:36.367187500,-38.0,-13.25,50.0,113.38250000000001,-64.365,21.038127593749998,33.84
2021-06-29 16:33:36.375000000,-38.0,-13.0,50.0,113.38,-67.05,21.0356455,33.84
2021-06-29 16:33:36.382812500,-38.0,-13.0,50.0,113.3775,-67.435,21.03316340625,33.84
2021-06-29 16:33:36.390625000,-38.0,-13.0,50.0,113.375,-67.82,21.0306813125,33.84
2021-06-29 16:33:36.398437500,-38.0,-13.0,50.0,113.3725,-65.535,21.02819921875,33.84
2021-06-29 16:33:36.406250000,-38.0,-13.0,50.0,113.37,-63.25,21.025717125,33.84
2021-06-29 16:33:36.414062500,-38.0,-13.25,50.0,113.3675,-58.445,21.02323503125,33.84
2021-06-29 16:33:36.421875000,-38.0,-13.5,50.0,113.36500000000001,-53.64,21.0207529375,33.84
2021-06-29 16:33:36.429687500,-38.0,-13.75,50.0,113.3625,-46.945,21.01827084375,33.84
2021-06-29 16:33:36.437500000,-38.0,-14.0,50.0,113.36,-40.25,21.01578875,33.84
2021-06-29 16:33:36.445312500,-37.75,-13.75,50.25,113.3575,-32.575,21.01330665625,33.84
2021-06-29 16:33:36.453125000,-37.5,-13.5,50.5,113.355,-24.9,21.010824562499998,33.84
2021-06-29 16:33:36.460937500,-37.25,-13.25,50.75,113.3525,-17.18,21.00834246875,33.84
2021-06-29 16:33:36.468750000,-37.0,-13.0,51.0,113.35000000000001,-9.46,21.005860375,33.84
2021-06-29 16:33:36.476562500,-37.0,-13.0,50.75,113.3475,-2.3950000000000005,21.00337828125,33.84
2021-06-29 16:33:36.484375000,-37.0,-13.0,50.5,113.345,4.67,21.0008961875,33.84
2021-06-29 16:33:36.492187500,-37.0,-13.0,50.25,113.3425,10.645,20.99841409375,33.84
2021-06-29 16:33:36.500000000,-37.0,-13.0,50.0,113.34,16.62,20.995932,33.84
2021-06-29 16:33:36.507812500,-37.25,-13.25,50.0,113.3375,21.305,20.99537153125,33.84
2021-06-29 16:33:36.515625000,-37.5,-13.5,50.0,113.33500000000001,25.99,20.9948110625,33.84
2021-06-29 16:33:36.523437500,-37.75,-13.75,50.0,113.33250000000001,29.275,20.99425059375,33.84
2021-06-29 16:33:36.531250000,-38.0,-14.0,50.0,113.33,32.56,20.993690125,33.84
2021-06-29 16:33:36.539062500,-38.0,-13.75,50.0,113.3275,34.375,20.993129656249998,33.84
2021-06-29 16:33:36.546875000,-38.0,-13.5,50.0,113.325,36.19,20.9925691875,33.84
2021-06-29 16:33:36.554687500,-38.0,-13.25,50.0,113.3225,36.56,20.99200871875,33.84
2021-06-29 16:33:36.562500000,-38.0,-13.0,50.0,113.32000000000001,36.93,20.991448249999998,33.84
2021-06-29 16:33:36.570312500,-38.0,-13.0,50.0,113.31750000000001,36.04,20.99088778125,33.84
2021-06-29 16:33:36.578125000,-38.0,-13.0,50.0,113.315,35.15,20.9903273125,33.84
2021-06-29 16:33:36.585937500,-38.0,-13.0,50.0,113.3125,33.405,20.98976684375,33.84
2021-06-29 16:33:36.593750000,-38.0,-13.0,50.0,113.31,31.66,20.989206375,33.84
2021-06-29 16:33:36.601562500,-38.0,-13.0,50.0,113.3075,29.605,20.98864590625,33.84
2021-06-29 16:33:36.609375000,-38.0,-13.0,50.0,113.305,27.55,20.9880854375,33.84
2021-06-29 16:33:36.617187500,-38.0,-13.0,50.0,113.30250000000001,25.71,20.987524968749998,33.84
2021-06-29 16:33:36.625000000,-38.0,-13.0,50.0,113.30000000000001,23.87,20.9869645,33.84
2021-06-29 16:33:36.632812500,-38.0,-13.0,50.0,113.2975,22.545,20.98640403125,33.84
2021-06-29 16:33:36.640625000,-38.0,-13.0,50.0,113.295,21.22,20.985843562499998,33.84
2021-06-29 16:33:36.648437500,-38.0,-13.0,50.0,113.2925,20.405,20.98528309375,33.84
2021-06-29 16:33:36.656250000,-38.0,-13.0,50.0,113.29,19.59,20.984722625,33.84
2021-06-29 16:33:36.664062500,-38.0,-13.0,50.0,113.28750000000001,18.990000000000002,20.984162156249997,33.84
2021-06-29 16:33:36.671875000,-38.0,-13.0,50.0,113.28500000000001,18.39,20.9836016875,33.84
2021-06-29 16:33:36.679687500,-38.0,-13.0,50.0,113.2825,17.65,20.98304121875,33.84
2021-06-29 16:33:36.687500000,-38.0,-13.0,50.0,113.28,16.91,20.98248075,33.84
2021-06-29 16:33:36.695312500,-38.0,-13.0,50.0,113.2775,15.745000000000001,20.981920281249998,33.84
2021-06-29 16:33:36.703125000,-38.0,-13.0,50.0,113.275,14.58,20.9813598125,33.84
2021-06-29 16:33:36.710937500,-38.0,-13.0,50.0,113.27250000000001,12.93,20.98079934375,33.84
2021-06-29 16:33:36.718750000,-38.0,-13.0,50.0,113.27000000000001,11.28,20.980238874999998,33.84
2021-06-29 16:33:36.726562500,-38.0,-13.25,50.0,113.2675,9.295,20.97967840625,33.84
2021-06-29 16:33:36.734375000,-38.0,-13.5,50.0,113.265,7.31,20.9791179375,33.84
2021-06-29 16:33:36.742187500,-38.0,-13.75,50.0,113.2625,5.22,20.978557468749997,33.84
2021-06-29 16:33:36.750000000,-38.0,-14.0,50.0,113.26,3.13,20.977997,33.84
2021-06-29 16:33:36.757812500,-38.0,-13.75,50.0,113.25750000000001,1.0949999999999998,20.976515687499997,33.84
2021-06-29 16:33:36.765625000,-38.0,-13.5,50.0,113.25500000000001,-0.94,20.975034375,33.84
2021-06-29 16:33:36.773437500,-38.0,-13.25,50.0,113.25250000000001,-2.915,20.9735530625,33.84
2021-06-29 16:33:36.781250000,-38.0,-13.0,50.0,113.25,-4.89,20.972071749999998,33.84
2021-06-29 16:33:36.789062500,-38.0,-13.0,50.0,113.2475,-6.984999999999999,20.9705904375,33.84
2021-06-29 16:33:36.796875000,-38.0,-13.0,50.0,113.245,-9.08,20.969109125,33.84
2021-06-29 16:33:36.804687500,-38.0,-13.0,50.0,113.2425,-11.565000000000001,20.967627812499998,33.84
2021-06-29 16:33:36.812500000,-38.0,-13.0,50.0,113.24000000000001,-14.05,20.9661465,33.84
2021-06-29 16:33:36.820312500,-38.0,-13.25,50.0,113.23750000000001,-17.200000000000003,20.9646651875,33.84
2021-06-29 16:33:36.828125000,-38.0,-13.5,50.0,113.235,-20.35,20.963183875,33.84
2021-06-29 16:33:36.835937500,-38.0,-13.75,50.0,113.2325,-24.325000000000003,20.961702562499998,33.84
2021-06-29 16:33:36.843750000,-38.0,-14.0,50.0,113.23,-28.3,20.96022125,33.84
2021-06-29 16:33:36.851562500,-38.0,-14.0,50.0,113.2275,-33.02,20.9587399375,33.84
2021-06-29 16:33:36.859375000,-38.0,-14.0,50.0,113.22500000000001,-37.74,20.957258624999998,33.84
2021-06-29 16:33:36.867187500,-38.0,-14.0,50.0,113.22250000000001,-42.84,20.9557773125,33.84
2021-06-29 16:33:36.875000000,-38.0,-14.0,50.0,113.22,-47.94,20.954296,33.84
2021-06-29 16:33:36.882812500,-38.0,-13.75,50.0,113.2175,-52.754999999999995,20.9528146875,33.84
2021-06-29 16:33:36.890625000,-38.0,-13.5,50.0,113.215,-57.57,20.951333375,33.84
2021-06-29 16:33:36.898437500,-38.0,-13.25,50.0,113.2125,-61.260000000000005,20.9498520625,33.84
2021-06-29 16:33:36.906250000,-38.0,-13.0,50.0,113.21000000000001,-64.95,20.94837075,33.84
2021-06-29 16:33:36.914062500,-38.0,-13.0,50.0,113.20750000000001,-66.66,20.9468894375,33.84
2021-06-29 16:33:36.921875000,-38.0,-13.0,50.0,113.20500000000001,-68.37,20.945408125,33.84
2021-06-29 16:33:36.929687500,-38.0,-13.0,50.0,113.2025,-67.51,20.9439268125,33.84
2021-06-29 16:33:36.937500000,-38.0,-13.0,50.0,113.2,-66.65,20.942445499999998,33.84
2021-06-29 16:33:36.945312500,-38.0,-13.25,50.0,113.1975,-63.07000000000001,20.9409641875,33.84
2021-06-29 16:33:36.953125000,-38.0,-13.5,50.0,113.19500000000001,-59.49,20.939482875,33.84
2021-06-29 16:33:36.960937500,-38.0,-13.75,50.0,113.19250000000001,-53.565,20.9380015625,33.84
2021-06-29 16:33:36.968750000,-38.0,-14.0,50.0,113.19000000000001,-47.64,20.93652025,33.84
2021-06-29 16:33:36.976562500,-38.0,-14.0,50.0,113.1875,-40.115,20.9350389375,33.84
2021-06-29 16:33:36.984375000,-38.0,-14.0,50.0,113.185,-32.59,20.933557625,33.84
2021-06-29 16:33:36.992187500,-38.0,-14.0,50.0,113.1825,-24.355000000000004,20.9320763125,33.84
2021-06-29 16:33:37.000000000,-38.0,-14.0,50.0,113.18,-16.12,20.930595,33.84
2021-06-29 16:33:37.007812500,-38.0,-13.75,50.0,113.17742187500001,-7.970000000000001,20.92935396875,33.839687500000004
2021-06-29 16:33:37.015625000,-38.0,-13.5,50.0,113.17484375000001,0.18,20.9281129375,33.839375000000004
2021-06-29 16:33:37.023437500,-38.0,-13.25,50.0,113.17226562500001,7.685,20.92687190625,33.839062500000004
2021-06-29 16:33:37.031250000,-38.0,-13.0,50.0,113.16968750000001,15.19,20.925630875,33.838750000000005
2021-06-29 16:33:37.039062500,-38.0,-13.0,50.0,113.16710937500001,21.715,20.92438984375,33.838437500000005
2021-06-29 16:33:37.046875000,-38.0,-13.0,50.0,113.16453125000001,28.24,20.9231488125,33.838125000000005
2021-06-29 16:33:37.054687500,-38.0,-13.0,50.0,113.16195312500001,33.585,20.92190778125,33.837812500000005
2021-06-29 16:33:37.062500000,-38.0,-13.0,50.0,113.15937500000001,38.93,20.920666750000002,33.837500000000006
2021-06-29 16:33:37.070312500,-38.0,-13.0,50.0,113.15679687500001,42.915,20.919425718750002,33.8371875
2021-06-29 16:33:37.078125000,-38.0,-13.0,50.0,113.15421875000001,46.9,20.918184687500002,33.836875
2021-06-29 16:33:37.085937500,-38.0,-13.0,50.0,113.151640625,49.394999999999996,20.91694365625,33.8365625
2021-06-29 16:33:37.093750000,-38.0,-13.0,50.0,113.1490625,51.89,20.915702625,33.83625
2021-06-29 16:33:37.101562500,-38.0,-13.0,50.0,113.146484375,52.875,20.91446159375,33.8359375
2021-06-29 16:33:37.109375000,-38.0,-13.0,50.0,113.14390625,53.86,20.9132205625,33.835625
2021-06-29 16:33:37.117187500,-38.0,-13.0,50.0,113.141328125,53.51,20.91197953125,33.8353125
2021-06-29 16:33:37.125000000,-38.0,-13.0,50.0,113.13875,53.16,20.9107385,33.835
2021-06-29 16:33:37.132812500,-38.0,-13.25,50.0,113.136171875,51.875,20.90949746875,33.8346875
2021-06-29 16:33:37.140625000,-38.0,-13.5,50.0,113.13359375,50.59,20.9082564375,33.834375
2021-06-29 16:33:37.148437500,-38.0,-13.75,50.0,113.131015625,48.885000000000005,20.90701540625,33.8340625
2021-06-29 16:33:37.156250000,-38.0,-14.0,50.0,113.1284375,47.18,20.905774375,33.83375
2021-06-29 16:33:37.164062500,-38.0,-13.75,50.0,113.125859375,45.54,20.90453334375,33.8334375
2021-06-29 16:33:37.171875000,-38.0,-13.5,50.0,113.12328125,43.9,20.9032923125,33.833125
2021-06-29 16:33:37.179687500,-38.0,-13.25,50.0,113.120703125,42.605000000000004,20.90205128125,33.8328125
2021-06-29 16:33:37.187500000,-38.0,-13.0,50.0,113.118125,41.31,20.90081025,33.832499999999996
2021-06-29 16:33:37.195312500,-38.0,-13.25,50.0,113.115546875,40.35,20.899569218750003,33.832187499999996
2021-06-29 16:33:37.203125000,-38.0,-13.5,50.0,113.11296875000001,39.39,20.898328187500002,33.831875
2021-06-29 16:33:37.210937500,-38.0,-13.75,50.0,113.11039062500001,38.519999999999996,20.897087156250002,33.8315625
2021-06-29 16:33:37.218750000,-38.0,-14.0,50.0,113.10781250000001,37.65,20.895846125000002,33.83125
2021-06-29 16:33:37.226562500,-38.0,-14.0,50.0,113.10523437500001,36.53,20.894605093750002,33.8309375
2021-06-29 16:33:37.234375000,-38.0,-14.0,50.0,113.10265625000001,35.41,20.8933640625,33.830625
2021-06-29 16:33:37.242187500,-38.0,-14.0,50.0,113.10007812500001,33.769999999999996,20.89212303125,33.8303125
2021-06-29 16:33:37.250000000,-38.0,-14.0,50.0,113.0975,32.13,20.890882,33.83
2021-06-29 16:33:37.257812500,-38.0,-14.0,50.0,113.094921875,29.93,20.8892405625,33.83
2021-06-29 16:33:37.265625000,-38.0,-14.0,50.0,113.09234375,27.73,20.887599125,33.83
2021-06-29 16:33:37.273437500,-38.0,-14.0,50.0,113.089765625,25.12,20.885957687500003,33.83
2021-06-29 16:33:37.281250000,-38.0,-14.0,50.0,113.0871875,22.51,20.88431625,33.83
2021-06-29 16:33:37.289062500,-38.0,-13.75,50.0,113.084609375,19.810000000000002,20.8826748125,33.83
2021-06-29 16:33:37.296875000,-38.0,-13.5,50.0,113.08203125,17.11,20.881033375,33.83
2021-06-29 16:33:37.304687500,-38.0,-13.25,50.0,113.079453125,14.59,20.879391937500003,33.83
2021-06-29 16:33:37.312500000,-38.0,-13.0,50.0,113.076875,12.07,20.8777505,33.83
2021-06-29 16:33:37.320312500,-38.0,-13.0,50.0,113.074296875,9.865,20.8761090625,33.83
2021-06-29 16:33:37.328125000,-38.0,-13.0,50.0,113.07171875,7.66,20.874467625,33.83
2021-06-29 16:33:37.335937500,-38.0,-13.0,50.0,113.069140625,5.67,20.872826187500003,33.83
2021-06-29 16:33:37.343750000,-38.0,-13.0,50.0,113.0665625,3.68,20.87118475,33.83
2021-06-29 16:33:37.351562500,-38.0,-13.25,50.0,113.063984375,1.585,20.8695433125,33.83
2021-06-29 16:33:37.359375000,-38.0,-13.5,50.0,113.06140625,-0.51,20.867901875,33.83
2021-06-29 16:33:37.367187500,-38.0,-13.75,50.0,113.058828125,-3.1399999999999997,20.866260437500003,33.83
2021-06-29 16:33:37.375000000,-38.0,-14.0,50.0,113.05625,-5.77,20.864619,33.83
2021-06-29 16:33:37.382812500,-38.0,-14.0,50.0,113.053671875,-9.295,20.8629775625,33.83
2021-06-29 16:33:37.390625000,-38.0,-14.0,50.0,113.05109375,-12.82,20.861336125,33.83
2021-06-29 16:33:37.398437500,-38.0,-14.0,50.0,113.04851562500001,-17.365000000000002,20.859694687500003,33.83
2021-06-29 16:33:37.406250000,-38.0,-14.0,50.0,113.04593750000001,-21.91,20.85805325,33.83
2021-06-29 16:33:37.414062500,-38.0,-13.75,50.0,113.04335937500001,-27.21,20.8564118125,33.83
2021-06-29 16:33:37.421875000,-38.0,-13.5,50.0,113.04078125,-32.51,20.854770375,33.83
2021-06-29 16:33:37.429687500,-38.0,-13.25,50.0,113.038203125,-37.89,20.853128937500003,33.83
2021-06-29 16:33:37.437500000,-38.0,-13.0,50.0,113.035625,-43.27,20.8514875,33.83
2021-06-29 16:33:37.445312500,-38.0,-13.0,50.25,113.033046875,-47.78,20.8498460625,33.83
2021-06-29 16:33:37.453125000,-38.0,-13.0,50.5,113.03046875,-52.29,20.848204625,33.83
2021-06-29 16:33:37.460937500,-38.0,-13.0,50.75,113.027890625,-54.955,20.846563187500003,33.83
2021-06-29 16:33:37.468750000,-38.0,-13.0,51.0,113.0253125,-57.62,20.84492175,33.83
2021-06-29 16:33:37.476562500,-38.0,-13.0,50.75,113.022734375,-57.730000000000004,20.8432803125,33.83
2021-06-29 16:33:37.484375000,-38.0,-13.0,50.5,113.02015625,-57.84,20.841638875,33.83
2021-06-29 16:33:37.492187500,-38.0,-13.0,50.25,113.017578125,-55.185,20.839997437500003,33.83
2021-06-29 16:33:37.500000000,-38.0,-13.0,50.0,113.015,-52.53,20.838356,33.83
2021-06-29 16:33:37.507812500,-38.0,-13.0,50.0,113.012421875,-47.47,20.838596218750002,33.83
2021-06-29 16:33:37.515625000,-38.0,-13.0,50.0,113.00984375,-42.41,20.8388364375,33.83
2021-06-29 16:33:37.523437500,-38.0,-13.0,50.0,113.007265625,-35.705,20.83907665625,33.83
2021-06-29 16:33:37.531250000,-38.0,-13.0,50.0,113.0046875,-29.0,20.839316875,33.83
2021-06-29 16:33:37.539062500,-38.0,-13.0,50.0,113.002109375,-21.55,20.839557093750003,33.83
2021-06-29 16:33:37.546875000,-38.0,-13.0,50.0,112.99953125,-14.1,20.8397973125,33.83
2021-06-29 16:33:37.554687500,-38.0,-13.0,50.0,112.996953125,-6.725,20.84003753125,33.83
2021-06-29 16:33:37.562500000,-38.0,-13.0,50.0,112.994375,0.65,20.840277750000002,33.83
2021-06-29 16:33:37.570312500,-38.0,-13.25,50.0,112.991796875,7.41,20.84051796875,33.83
2021-06-29 16:33:37.578125000,-38.0,-13.5,50.0,112.98921875,14.17,20.8407581875,33.83
2021-06-29 16:33:37.585937500,-38.0,-13.75,50.0,112.98664062499999,19.975,20.84099840625,33.83
2021-06-29 16:33:37.593750000,-38.0,-14.0,50.0,112.9840625,25.78,20.841238625000003,33.83
2021-06-29 16:33:37.601562500,-38.0,-14.0,50.0,112.981484375,30.455000000000002,20.84147884375,33.83
2021-06-29 16:33:37.609375000,-38.0,-14.0,50.0,112.97890625,35.13,20.8417190625,33.83
2021-06-29 16:33:37.617187500,-38.0,-14.0,50.0,112.976328125,38.525000000000006,20.841959281250002,33.83
2021-06-29 16:33:37.625000000,-38.0,-14.0,50.0,112.97375,41.92,20.8421995,33.83
2021-06-29 16:33:37.632812500,-38.0,-13.75,50.0,112.971171875,43.935,20.84243971875,33.83
2021-06-29 16:33:37.640625000,-38.0,-13.5,50.0,112.96859375,45.95,20.8426799375,33.83
2021-06-29 16:33:37.648437500,-38.0,-13.25,50.0,112.966015625,46.58,20.842920156250003,33.83
2021-06-29 16:33:37.656250000,-38.0,-13.0,50.0,112.9634375,47.21,20.843160375,33.83
2021-06-29 16:33:37.664062500,-38.0,-13.0,50.0,112.960859375,46.655,20.84340059375,33.83
2021-06-29 16:33:37.671875000,-38.0,-13.0,50.0,112.95828125,46.1,20.843640812500002,33.83
2021-06-29 16:33:37.679687500,-38.0,-13.0,50.0,112.955703125,44.74,20.843881031250003,33.83
2021-06-29 16:33:37.687500000,-38.0,-13.0,50.0,112.953125,43.38,20.84412125,33.83
2021-06-29 16:33:37.695312500,-38.0,-13.25,50.0,112.950546875,41.7,20.84436146875,33.83
2021-06-29 16:33:37.703125000,-38.0,-13.5,50.0,112.94796875,40.02,20.844601687500003,33.83
2021-06-29 16:33:37.710937500,-38.0,-13.75,50.0,112.945390625,38.455,20.84484190625,33.83
2021-06-29 16:33:37.718750000,-38.0,-14.0,50.0,112.9428125,36.89,20.845082125,33.83
2021-06-29 16:33:37.726562500,-37.75,-14.0,50.0,112.940234375,35.644999999999996,20.845322343750002,33.83
2021-06-29 16:33:37.734375000,-37.5,-14.0,50.0,112.93765625,34.4,20.845562562500003,33.83
2021-06-29 16:33:37.742187500,-37.25,-14.0,50.0,112.935078125,33.42,20.84580278125,33.83
2021-06-29 16:33:37.750000000,-37.0,-14.0,50.0,112.9325,32.44,20.846043,33.83
2021-06-29 16:33:37.757812500,-37.25,-13.75,50.0,112.92992187499999,31.46,20.845882875,33.83
2021-06-29 16:33:37.765625000,-37.5,-13.5,50.0,112.92734374999999,30.48,20.84572275,33.83
2021-06-29 16:33:37.773437500,-37.75,-13.25,50.0,112.92476562499999,29.21,20.845562625000003,33.83
2021-06-29 16:33:37.781250000,-38.0,-13.0,50.0,112.92218749999999,27.94,20.845402500000002,33.83
2021-06-29 16:33:37.789062500,-38.0,-13.25,50.0,112.919609375,26.200000000000003,20.845242375,33.83
2021-06-29 16:33:37.796875000,-38.0,-13.5,50.0,112.91703125,24.46,20.84508225,33.83
2021-06-29 16:33:37.804687500,-38.0,-13.75,50.0,112.914453125,22.295,20.844922125,33.83
2021-06-29 16:33:37.812500000,-38.0,-14.0,50.0,112.911875,20.13,20.844762000000003,33.83
2021-06-29 16:33:37.820312500,-38.0,-13.75,50.0,112.909296875,17.74,20.844601875000002,33.83
2021-06-29 16:33:37.828125000,-38.0,-13.5,50.0,112.90671875,15.35,20.84444175,33.83
2021-06-29 16:33:37.835937500,-38.0,-13.25,50.0,112.904140625,12.985,20.844281625,33.83
2021-06-29 16:33:37.843750000,-38.0,-13.0,50.0,112.9015625,10.62,20.8441215,33.83
2021-06-29 16:33:37.851562500,-38.0,-13.25,50.0,112.898984375,8.45,20.843961375,33.83
2021-06-29 16:33:37.859375000,-38.0,-13.5,50.0,112.89640625,6.28,20.843801250000002,33.83
2021-06-29 16:33:37.867187500,-38.0,-13.75,50.0,112.893828125,4.295,20.843641125,33.83
2021-06-29 16:33:37.875000000,-38.0,-14.0,50.0,112.89125,2.31,20.843481,33.83
2021-06-29 16:33:37.882812500,-38.0,-14.0,50.0,112.888671875,0.345,20.843320875,33.83
2021-06-29 16:33:37.890625000,-38.0,-14.0,50.0,112.88609375,-1.62,20.84316075,33.83
2021-06-29 16:33:37.898437500,-38.0,-14.0,50.0,112.883515625,-3.845,20.843000625000002,33.83
2021-06-29 16:33:37.906250000,-38.0,-14.0,50.0,112.8809375,-6.07,20.8428405,33.83
2021-06-29 16:33:37.914062500,-38.0,-14.0,50.0,112.878359375,-8.835,20.842680375,33.83
2021-06-29 16:33:37.921875000,-38.0,-14.0,50.0,112.87578124999999,-11.6,20.84252025,33.83
2021-06-29 16:33:37.929687500,-38.0,-14.0,50.0,112.87320312499999,-15.105,20.842360125,33.83
2021-06-29 16:33:37.937500000,-38.0,-14.0,50.0,112.87062499999999,-18.61,20.8422,33.83
2021-06-29 16:33:37.945312500,-38.0,-13.75,50.0,112.86804687499999,-22.91,20.842039875,33.83
2021-06-29 16:33:37.953125000,-38.0,-13.5,50.0,112.86546874999999,-27.21,20.84187975,33.83
2021-06-29 16:33:37.960937500,-38.0,-13.25,50.0,112.86289062499999,-32.135000000000005,20.841719625,33.83
2021-06-29 16:33:37.968750000,-38.0,-13.0,50.0,112.86031249999999,-37.06,20.8415595,33.83
2021-06-29 16:33:37.976562500,-38.0,-13.25,50.0,112.85773437499999,-42.155,20.841399374999998,33.83
2021-06-29 16:33:37.984375000,-38.0,-13.5,50.0,112.85515625,-47.25,20.84123925,33.83
2021-06-29 16:33:37.992187500,-38.0,-13.75,50.0,112.852578125,-51.82,20.841079125,33.83
2021-06-29 16:33:38.000000000,-38.0,-14.0,50.0,112.85,-56.39,20.840919,33.83
2021-06-29 16:33:38.007812500,-38.0,-13.75,50.0,112.84710937499999,-59.620000000000005,20.840598687499998,33.83
2021-06-29 16:33:38.015625000,-38.0,-13.5,50.0,112.84421875,-62.85,20.840278375,33.83
2021-06-29 16:33:38.023437500,-38.0,-13.25,50.0,112.84132812499999,-63.995000000000005,20.8399580625,33.83
2021-06-29 16:33:38.031250000,-38.0,-13.0,50.0,112.8384375,-65.14,20.83963775,33.83
2021-06-29 16:33:38.039062500,-38.0,-13.0,50.0,112.83554687499999,-63.760000000000005,20.8393174375,33.83
2021-06-29 16:33:38.046875000,-38.0,-13.0,50.0,112.83265625,-62.38,20.838997125,33.83
2021-06-29 16:33:38.054687500,-38.0,-13.0,50.0,112.829765625,-58.515,20.8386768125,33.83
2021-06-29 16:33:38.062500000,-38.0,-13.0,50.0,112.826875,-54.65,20.8383565,33.83
2021-06-29 16:33:38.070312500,-38.0,-13.0,50.0,112.823984375,-48.78,20.8380361875,33.83
2021-06-29 16:33:38.078125000,-38.0,-13.0,50.0,112.82109374999999,-42.91,20.837715875,33.83
2021-06-29 16:33:38.085937500,-38.0,-13.0,50.0,112.818203125,-35.86,20.8373955625,33.83
2021-06-29 16:33:38.093750000,-38.0,-13.0,50.0,112.81531249999999,-28.81,20.837075249999998,33.83
2021-06-29 16:33:38.101562500,-37.75,-13.0,50.0,112.812421875,-21.47,20.8367549375,33.83
2021-06-29 16:33:38.109375000,-37.5,-13.0,50.0,112.80953124999999,-14.13,20.836434625,33.83
2021-06-29 16:33:38.117187500,-37.25,-13.0,50.0,112.806640625,-7.265000000000001,20.8361143125,33.83
2021-06-29 16:33:38.125000000,-37.0,-13.0,50.0,112.80375,-0.4,20.835794,33.83
2021-06-29 16:33:38.132812500,-37.25,-13.25,50.0,112.800859375,5.465,20.8354736875,33.83
2021-06-29 16:33:38.140625000,-37.5,-13.5,50.0,112.79796875,11.33,20.835153375,33.83
2021-06-29 16:33:38.148437500,-37.75,-13.75,50.0,112.79507812499999,15.905000000000001,20.8348330625,33.83
2021-06-29 16:33:38.156250000,-38.0,-14.0,50.0,112.7921875,20.48,20.834512750000002,33.83
2021-06-29 16:33:38.164062500,-38.0,-14.0,50.0,112.78929687499999,23.66,20.8341924375,33.83
2021-06-29 16:33:38.171875000,-38.0,-14.0,50.0,112.78640625,26.84,20.833872125,33.83
2021-06-29 16:33:38.179687500,-38.0,-14.0,50.0,112.78351562499999,28.619999999999997,20.8335518125,33.83
2021-06-29 16:33:38.187500000,-38.0,-14.0,50.0,112.780625,30.4,20.8332315,33.83
2021-06-29 16:33:38.195312500,-38.0,-14.0,50.0,112.777734375,30.865,20.8329111875,33.83
2021-06-29 16:33:38.203125000,-38.0,-14.0,50.0,112.77484375,31.33,20.832590875,33.83
2021-06-29 16:33:38.210937500,-38.0,-14.0,50.0,112.771953125,30.695,20.8322705625,33.83
2021-06-29 16:33:38.218750000,-38.0,-14.0,50.0,112.76906249999999,30.06,20.83195025,33.83
2021-06-29 16:33:38.226562500,-37.75,-13.75,50.25,112.766171875,28.68,20.8316299375,33.83
2021-06-29 16:33:38.234375000,-37.5,-13.5,50.5,112.76328124999999,27.3,20.831309625,33.83
2021-06-29 16:33:38.242187500,-37.25,-13.25,50.75,112.760390625,25.634999999999998,20.8309893125,33.83
2021-06-29 16:33:38.250000000,-37.0,-13.0,51.0,112.7575,23.97,20.830669,33.83
2021-06-29 16:33:38.257812500,-37.25,-13.25,50.75,112.754609375,22.45,20.8309893125,33.83
2021-06-29 16:33:38.265625000,-37.5,-13.5,50.5,112.75171875,20.93,20.831309625,33.83
2021-06-29 16:33:38.273437500,-37.75,-13.75,50.25,112.748828125,19.83,20.8316299375,33.83
2021-06-29 16:33:38.281250000,-38.0,-14.0,50.0,112.7459375,18.73,20.83195025,33.83
2021-06-29 16:33:38.289062500,-38.0,-13.75,50.0,112.74304687499999,18.060000000000002,20.8322705625,33.83
2021-06-29 16:33:38.296875000,-38.0,-13.5,50.0,112.74015625,17.39,20.832590875,33.83
2021-06-29 16:33:38.304687500,-38.0,-13.25,50.0,112.73726562499999,16.93,20.8329111875,33.83
2021-06-29 16:33:38.312500000,-38.0,-13.0,50.0,112.734375,16.47,20.8332315,33.83
2021-06-29 16:33:38.320312500,-38.0,-13.25,50.0,112.731484375,15.875,20.8335518125,33.83
2021-06-29 16:33:38.328125000,-38.0,-13.5,50.0,112.72859375,15.28,20.833872125,33.83
2021-06-29 16:33:38.335937500,-38.0,-13.75,50.0,112.725703125,14.3,20.8341924375,33.83
2021-06-29 16:33:38.343750000,-38.0,-14.0,50.0,112.7228125,13.32,20.834512750000002,33.83
2021-06-29 16:33:38.351562500,-38.0,-13.75,50.0,112.719921875,11.91,20.8348330625,33.83
2021-06-29 16:33:38.359375000,-38.0,-13.5,50.0,112.71703124999999,10.5,20.835153375,33.83
2021-06-29 16:33:38.367187500,-38.0,-13.25,50.0,112.714140625,8.8,20.8354736875,33.83
2021-06-29 16:33:38.375000000,-38.0,-13.0,50.0,112.71124999999999,7.1,20.835794,33.83
2021-06-29 16:33:38.382812500,-38.0,-13.0,50.0,112.708359375,5.35,20.8361143125,33.83
2021-06-29 16:33:38.390625000,-38.0,-13.0,50.0,112.70546875,3.6,20.836434625,33.83
2021-06-29 16:33:38.398437500,-38.0,-13.0,50.0,112.702578125,1.94,20.8367549375,33.83
2021-06-29 16:33:38.406250000,-38.0,-13.0,50.0,112.6996875,0.28,20.837075249999998,33.83
2021-06-29 16:33:38.414062500,-37.75,-13.25,50.0,112.696796875,-1.305,20.8373955625,33.83
2021-06-29 16:33:38.421875000,-37.5,-13.5,50.0,112.69390625,-2.89,20.837715875,33.83
2021-06-29 16:33:38.429687500,-37.25,-13.75,50.0,112.69101562499999,-4.61,20.8380361875,33.83
2021-06-29 16:33:38.437500000,-37.0,-14.0,50.0,112.688125,-6.33,20.8383565,33.83
2021-06-29 16:33:38.445312500,-37.25,-14.0,50.0,112.685234375,-8.440000000000001,20.8386768125,33.83
2021-06-29 16:33:38.453125000,-37.5,-14.0,50.0,112.68234375,-10.55,20.838997125,33.83
2021-06-29 16:33:38.460937500,-37.75,-14.0,50.0,112.679453125,-13.265,20.8393174375,33.83
2021-06-29 16:33:38.468750000,-38.0,-14.0,50.0,112.6765625,-15.98,20.83963775,33.83
2021-06-29 16:33:38.476562500,-37.75,-14.0,50.0,112.673671875,-19.384999999999998,20.8399580625,33.83
2021-06-29 16:33:38.484375000,-37.5,-14.0,50.0,112.67078125,-22.79,20.840278375,33.83
2021-06-29 16:33:38.492187500,-37.25,-14.0,50.0,112.667890625,-26.785,20.840598687499998,33.83
2021-06-29 16:33:38.500000000,-37.0,-14.0,50.0,112.66499999999999,-30.78,20.840919,33.83
2021-06-29 16:33:38.507812500,-37.25,-13.75,50.25,112.662109375,-35.09,20.8409990625,33.83
2021-06-29 16:33:38.515625000,-37.5,-13.5,50.5,112.65921875,-39.4,20.841079125,33.83
2021-06-29 16:33:38.523437500,-37.75,-13.25,50.75,112.656328125,-43.535,20.8411591875,33.83
2021-06-29 16:33:38.531250000,-38.0,-13.0,51.0,112.6534375,-47.67,20.84123925,33.83
2021-06-29 16:33:38.539062500,-38.0,-13.25,50.75,112.650546875,-50.96,20.8413193125,33.83
2021-06-29 16:33:38.546875000,-38.0,-13.5,50.5,112.64765625,-54.25,20.841399374999998,33.83
2021-06-29 16:33:38.554687500,-38.0,-13.75,50.25,112.644765625,-55.95,20.8414794375,33.83
2021-06-29 16:33:38.562500000,-38.0,-14.0,50.0,112.641875,-57.65,20.8415595,33.83
2021-06-29 16:33:38.570312500,-38.0,-14.0,50.0,112.638984375,-57.15,20.8416395625,33.83
2021-06-29 16:33:38.578125000,-38.0,-14.0,50.0,112.63609375,-56.65,20.841719625,33.83
2021-06-29 16:33:38.585937500,-38.0,-14.0,50.0,112.633203125,-53.695,20.8417996875,33.83
2021-06-29 16:33:38.593750000,-38.0,-14.0,50.0,112.6303125,-50.74,20.84187975,33.83
2021-06-29 16:33:38.601562500,-38.0,-13.75,50.25,112.627421875,-45.585,20.8419598125,33.83
2021-06-29 16:33:38.609375000,-38.0,-13.5,50.5,112.62453125,-40.43,20.842039875,33.83
2021-06-29 16:33:38.617187500,-38.0,-13.25,50.75,112.621640625,-33.79,20.8421199375,33.83
2021-06-29 16:33:38.625000000,-38.0,-13.0,51.0,112.61875,-27.15,20.8422,33.83
2021-06-29 16:33:38.632812500,-38.0,-13.0,50.75,112.615859375,-19.994999999999997,20.8422800625,33.83
2021-06-29 16:33:38.640625000,-38.0,-13.0,50.5,112.61296875000001,-12.84,20.842360125,33.83
2021-06-29 16:33:38.648437500,-38.0,-13.0,50.25,112.610078125,-6.125,20.8424401875,33.83
2021-06-29 16:33:38.656250000,-38.0,-13.0,50.0,112.6071875,0.59,20.84252025,33.83
2021-06-29 16:33:38.664062500,-38.0,-13.25,50.0,112.604296875,6.17,20.8426003125,33.83
2021-06-29 16:33:38.671875000,-38.0,-13.5,50.0,112.60140625,11.75,20.842680375,33.83
2021-06-29 16:33:38.679687500,-38.0,-13.75,50.0,112.598515625,15.85,20.8427604375,33.83
2021-06-29 16:33:38.687500000,-38.0,-14.0,50.0,112.595625,19.95,20.8428405,33.83
2021-06-29 16:33:38.695312500,-38.0,-14.0,50.0,112.592734375,22.53,20.8429205625,33.83
2021-06-29 16:33:38.703125000,-38.0,-14.0,50.0,112.58984375,25.11,20.843000625000002,33.83
2021-06-29 16:33:38.710937500,-38.0,-14.0,50.0,112.58695312500001,26.299999999999997,20.8430806875,33.83
2021-06-29 16:33:38.718750000,-38.0,-14.0,50.0,112.5840625,27.49,20.84316075,33.83
2021-06-29 16:33:38.726562500,-38.25,-13.75,50.0,112.581171875,27.505,20.8432408125,33.83
2021-06-29 16:33:38.734375000,-38.5,-13.5,50.0,112.57828125,27.52,20.843320875,33.83
2021-06-29 16:33:38.742187500,-38.75,-13.25,50.0,112.575390625,26.64,20.8434009375,33.83
2021-06-29 16:33:38.750000000,-39.0,-13.0,50.0,112.5725,25.76,20.843481,33.83
2021-06-29 16:33:38.757812500,-38.25,-13.0,50.25,112.569609375,24.32,20.84404146875,33.83
2021-06-29 16:33:38.765625000,-37.5,-13.0,50.5,112.56671875,22.88,20.844601937500002,33.83
2021-06-29 16:33:38.773437500,-36.75,-13.0,50.75,112.563828125,21.244999999999997,20.84516240625,33.83
2021-06-29 16:33:38.781250000,-36.0,-13.0,51.0,112.56093750000001,19.61,20.845722875,33.83
2021-06-29 16:33:38.789062500,-36.5,-13.0,50.75,112.558046875,18.125,20.84628334375,33.83
2021-06-29 16:33:38.796875000,-37.0,-13.0,50.5,112.55515625,16.64,20.8468438125,33.83
2021-06-29 16:33:38.804687500,-37.5,-13.0,50.25,112.552265625,15.495000000000001,20.84740428125,33.83
2021-06-29 16:33:38.812500000,-38.0,-13.0,50.0,112.549375,14.35,20.84796475,33.83
2021-06-29 16:33:38.820312500,-38.0,-13.0,50.0,112.546484375,13.55,20.84852521875,33.83
2021-06-29 16:33:38.828125000,-38.0,-13.0,50.0,112.54359375,12.75,20.8490856875,33.83
2021-06-29 16:33:38.835937500,-38.0,-13.0,50.0,112.54070312500001,12.115,20.84964615625,33.83
2021-06-29 16:33:38.843750000,-38.0,-13.0,50.0,112.5378125,11.48,20.850206625,33.83
2021-06-29 16:33:38.851562500,-38.0,-13.0,50.0,112.53492187500001,10.745000000000001,20.85076709375,33.83
2021-06-29 16:33:38.859375000,-38.0,-13.0,50.0,112.53203125,10.01,20.8513275625,33.83
2021-06-29 16:33:38.867187500,-38.0,-13.0,50.0,112.529140625,8.93,20.85188803125,33.83
2021-06-29 16:33:38.875000000,-38.0,-13.0,50.0,112.52625,7.85,20.8524485,33.83
2021-06-29 16:33:38.882812500,-38.0,-13.0,50.25,112.523359375,6.305,20.85300896875,33.83
2021-06-29 16:33:38.890625000,-38.0,-13.0,50.5,112.52046875,4.76,20.8535694375,33.83
2021-06-29 16:33:38.898437500,-38.0,-13.0,50.75,112.517578125,2.78,20.854129906249998,33.83
2021-06-29 16:33:38.906250000,-38.0,-13.0,51.0,112.51468750000001,0.8,20.854690375,33.83
2021-06-29 16:33:38.914062500,-38.0,-13.0,50.75,112.511796875,-1.4799999999999998,20.85525084375,33.83
2021-06-29 16:33:38.921875000,-38.0,-13.0,50.5,112.50890625000001,-3.76,20.8558113125,33.83
2021-06-29 16:33:38.929687500,-38.0,-13.0,50.25,112.506015625,-6.17,20.856371781249997,33.83
2021-06-29 16:33:38.937500000,-38.0,-13.0,50.0,112.503125,-8.58,20.85693225,33.83
2021-06-29 16:33:38.945312500,-37.75,-13.25,50.25,112.500234375,-11.04,20.85749271875,33.83
2021-06-29 16:33:38.953125000,-37.5,-13.5,50.5,112.49734375,-13.5,20.858053187499998,33.83
2021-06-29 16:33:38.960937500,-37.25,-13.75,50.75,112.494453125,-16.025,20.85861365625,33.83
2021-06-29 16:33:38.968750000,-37.0,-14.0,51.0,112.4915625,-18.55,20.859174125,33.83
2021-06-29 16:33:38.976562500,-37.0,-14.0,51.0,112.48867187500001,-21.295,20.859734593749998,33.83
2021-06-29 16:33:38.984375000,-37.0,-14.0,51.0,112.48578125,-24.04,20.860295062499997,33.83
2021-06-29 16:33:38.992187500,-37.0,-14.0,51.0,112.48289062500001,-27.22,20.86085553125,33.83
2021-06-29 16:33:39.000000000,-37.0,-14.0,51.0,112.48,-30.4,20.861416,33.83
2021-06-29 16:33:39.007812500,-37.25,-14.0,50.75,112.47703125000001,-34.2,20.8623768125,33.83
2021-06-29 16:33:39.015625000,-37.5,-14.0,50.5,112.4740625,-38.0,20.863337625,33.83
2021-06-29 16:33:39.023437500,-37.75,-14.0,50.25,112.47109375000001,-42.455,20.864298437499997,33.83
2021-06-29 16:33:39.031250000,-38.0,-14.0,50.0,112.468125,-46.91,20.865259249999998,33.83
2021-06-29 16:33:39.039062500,-38.0,-13.75,50.0,112.46515625,-51.754999999999995,20.8662200625,33.83
2021-06-29 16:33:39.046875000,-38.0,-13.5,50.0,112.4621875,-56.6,20.867180875,33.83
2021-06-29 16:33:39.054687500,-38.0,-13.25,50.0,112.45921875,-61.239999999999995,20.8681416875,33.83
2021-06-29 16:33:39.062500000,-38.0,-13.0,50.0,112.45625,-65.88,20.869102499999997,33.83
2021-06-29 16:33:39.070312500,-38.0,-13.0,50.0,112.45328125,-69.44,20.870063312499997,33.83
2021-06-29 16:33:39.078125000,-38.0,-13.0,50.0,112.45031250000001,-73.0,20.871024124999998,33.83
2021-06-29 16:33:39.085937500,-38.0,-13.0,50.0,112.44734375,-74.555,20.8719849375,33.83
2021-06-29 16:33:39.093750000,-38.0,-13.0,50.0,112.44437500000001,-76.11,20.87294575,33.83
2021-06-29 16:33:39.101562500,-38.0,-13.25,50.25,112.44140625,-74.97999999999999,20.8739065625,33.83
2021-06-29 16:33:39.109375000,-38.0,-13.5,50.5,112.4384375,-73.85,20.874867374999997,33.83
2021-06-29 16:33:39.117187500,-38.0,-13.75,50.75,112.43546875,-69.86,20.875828187499998,33.83
2021-06-29 16:33:39.125000000,-38.0,-14.0,51.0,112.4325,-65.87,20.876789,33.83
2021-06-29 16:33:39.132812500,-38.0,-14.0,50.75,112.42953125,-59.435,20.8777498125,33.83
2021-06-29 16:33:39.140625000,-38.0,-14.0,50.5,112.4265625,-53.0,20.878710625,33.83
2021-06-29 16:33:39.148437500,-38.0,-14.0,50.25,112.42359375000001,-44.995000000000005,20.879671437499997,33.83
2021-06-29 16:33:39.156250000,-38.0,-14.0,50.0,112.420625,-36.99,20.880632249999998,33.83
2021-06-29 16:33:39.164062500,-38.0,-14.0,50.0,112.41765625000001,-28.455000000000002,20.8815930625,33.83
2021-06-29 16:33:39.171875000,-38.0,-14.0,50.0,112.4146875,-19.92,20.882553875,33.83
2021-06-29 16:33:39.179687500,-38.0,-14.0,50.0,112.41171875,-11.770000000000001,20.8835146875,33.83
2021-06-29 16:33:39.187500000,-38.0,-14.0,50.0,112.40875,-3.62,20.8844755,33.83
2021-06-29 16:33:39.195312500,-38.0,-14.0,50.0,112.40578125,3.5550000000000006,20.885436312499998,33.83
2021-06-29 16:33:39.203125000,-38.0,-14.0,50.0,112.4028125,10.73,20.886397125,33.83
2021-06-29 16:33:39.210937500,-38.0,-14.0,50.0,112.39984375,16.645,20.8873579375,33.83
2021-06-29 16:33:39.218750000,-38.0,-14.0,50.0,112.39687500000001,22.56,20.88831875,33.83
2021-06-29 16:33:39.226562500,-38.0,-13.75,50.0,112.39390625,27.1,20.8892795625,33.83
2021-06-29 16:33:39.234375000,-38.0,-13.5,50.0,112.3909375,31.64,20.890240374999998,33.83
2021-06-29 16:33:39.242187500,-38.0,-13.25,50.0,112.38796875,34.760000000000005,20.8912011875,33.83
2021-06-29 16:33:39.250000000,-38.0,-13.0,50.0,112.385,37.88,20.892162,33.83
2021-06-29 16:33:39.257812500,-38.0,-13.0,50.0,112.38203125,39.57,20.892362218749998,33.83
2021-06-29 16:33:39.265625000,-38.0,-13.0,50.0,112.3790625,41.26,20.8925624375,33.83
2021-06-29 16:33:39.273437500,-38.0,-13.0,50.0,112.37609375,41.605000000000004,20.89276265625,33.83
2021-06-29 16:33:39.281250000,-38.0,-13.0,50.0,112.373125,41.95,20.892962875,33.83
2021-06-29 16:33:39.289062500,-38.0,-13.0,50.0,112.37015625000001,41.260000000000005,20.893163093749997,33.83
2021-06-29 16:33:39.296875000,-38.0,-13.0,50.0,112.3671875,40.57,20.8933633125,33.83
2021-06-29 16:33:39.304687500,-38.0,-13.0,50.0,112.36421875,39.31,20.89356353125,33.83
2021-06-29 16:33:39.312500000,-38.0,-13.0,50.0,112.36125,38.05,20.893763749999998,33.83
2021-06-29 16:33:39.320312500,-38.0,-13.25,50.0,112.35828125,36.739999999999995,20.89396396875,33.83
2021-06-29 16:33:39.328125000,-38.0,-13.5,50.0,112.3553125,35.43,20.8941641875,33.83
2021-06-29 16:33:39.335937500,-38.0,-13.75,50.0,112.35234375,34.41,20.89436440625,33.83
2021-06-29 16:33:39.343750000,-38.0,-14.0,50.0,112.349375,33.39,20.894564624999997,33.83
2021-06-29 16:33:39.351562500,-38.0,-13.75,50.0,112.34640625,32.7,20.89476484375,33.83
2021-06-29 16:33:39.359375000,-38.0,-13.5,50.0,112.34343750000001,32.01,20.8949650625,33.83
2021-06-29 16:33:39.367187500,-38.0,-13.25,50.0,112.34046875,31.419999999999998,20.895165281249998,33.83
2021-06-29 16:33:39.375000000,-38.0,-13.0,50.0,112.3375,30.83,20.895365499999997,33.83
2021-06-29 16:33:39.382812500,-38.0,-13.25,50.0,112.33453125,29.99,20.89556571875,33.83
2021-06-29 16:33:39.390625000,-38.0,-13.5,50.0,112.3315625,29.15,20.8957659375,33.83
2021-06-29 16:33:39.398437500,-38.0,-13.75,50.0,112.32859375,27.795,20.895966156249997,33.83
2021-06-29 16:33:39.406250000,-38.0,-14.0,50.0,112.325625,26.44,20.896166375,33.83
2021-06-29 16:33:39.414062500,-38.0,-13.75,50.0,112.32265625,24.54,20.89636659375,33.83
2021-06-29 16:33:39.421875000,-38.0,-13.5,50.0,112.3196875,22.64,20.896566812499998,33.83
2021-06-29 16:33:39.429687500,-38.0,-13.25,50.0,112.31671875,20.405,20.896767031249997,33.83
2021-06-29 16:33:39.437500000,-38.0,-13.0,50.0,112.31375,18.17,20.89696725,33.83
2021-06-29 16:33:39.445312500,-38.0,-13.0,50.0,112.31078125,15.885000000000002,20.89716746875,33.83
2021-06-29 16:33:39.453125000,-38.0,-13.0,50.0,112.3078125,13.6,20.897367687499997,33.83
2021-06-29 16:33:39.460937500,-38.0,-13.0,50.0,112.30484375,11.465,20.89756790625,33.83
2021-06-29 16:33:39.468750000,-38.0,-13.0,50.0,112.301875,9.33,20.897768125,33.83
2021-06-29 16:33:39.476562500,-38.0,-13.0,50.0,112.29890625,7.345000000000001,20.897968343749998,33.83
2021-06-29 16:33:39.484375000,-38.0,-13.0,50.0,112.2959375,5.36,20.898168562499997,33.83
2021-06-29 16:33:39.492187500,-38.0,-13.0,50.0,112.29296875,3.29,20.89836878125,33.83
2021-06-29 16:33:39.500000000,-38.0,-13.0,50.0,112.28999999999999,1.22,20.898569,33.83
2021-06-29 16:33:39.507812500,-38.0,-13.0,50.0,112.28703125,-1.3,20.8992495625,33.83
2021-06-29 16:33:39.515625000,-38.0,-13.0,50.0,112.2840625,-3.82,20.899930124999997,33.83
2021-06-29 16:33:39.523437500,-38.0,-13.0,50.0,112.28109375,-7.119999999999999,20.9006106875,33.83
2021-06-29 16:33:39.531250000,-38.0,-13.0,50.0,112.278125,-10.42,20.90129125,33.83
2021-06-29 16:33:39.539062500,-38.0,-13.25,50.0,112.27515625,-14.68,20.901971812499998,33.83
2021-06-29 16:33:39.546875000,-38.0,-13.5,50.0,112.2721875,-18.94,20.902652375,33.83
2021-06-29 16:33:39.554687500,-38.0,-13.75,50.0,112.26921875,-24.045,20.9033329375,33.83
2021-06-29 16:33:39.562500000,-38.0,-14.0,50.0,112.26625,-29.15,20.904013499999998,33.83
2021-06-29 16:33:39.570312500,-38.0,-13.75,50.0,112.26328124999999,-34.695,20.9046940625,33.83
2021-06-29 16:33:39.578125000,-38.0,-13.5,50.0,112.2603125,-40.24,20.905374625,33.83
2021-06-29 16:33:39.585937500,-38.0,-13.25,50.0,112.25734375,-45.5,20.906055187499998,33.83
2021-06-29 16:33:39.593750000,-38.0,-13.0,50.0,112.254375,-50.76,20.90673575,33.83
2021-06-29 16:33:39.601562500,-38.0,-13.0,50.0,112.25140625,-54.834999999999994,20.9074163125,33.83
2021-06-29 16:33:39.609375000,-38.0,-13.0,50.0,112.2484375,-58.91,20.908096875,33.83
2021-06-29 16:33:39.617187500,-38.0,-13.0,50.0,112.24546875,-60.91,20.9087774375,33.83
2021-06-29 16:33:39.625000000,-38.0,-13.0,50.0,112.24249999999999,-62.91,20.909458,33.83
2021-06-29 16:33:39.632812500,-38.0,-13.25,50.0,112.23953125,-62.17,20.9101385625,33.83
2021-06-29 16:33:39.640625000,-38.0,-13.5,50.0,112.23656249999999,-61.43,20.910819125,33.83
2021-06-29 16:33:39.648437500,-38.0,-13.75,50.0,112.23359375,-57.775,20.911499687499997,33.83
2021-06-29 16:33:39.656250000,-38.0,-14.0,50.0,112.230625,-54.12,20.91218025,33.83
2021-06-29 16:33:39.664062500,-38.0,-13.75,50.0,112.22765625,-47.885,20.9128608125,33.83
2021-06-29 16:33:39.671875000,-38.0,-13.5,50.0,112.2246875,-41.65,20.913541374999998,33.83
2021-06-29 16:33:39.679687500,-38.0,-13.25,50.0,112.22171875,-33.65,20.9142219375,33.83
2021-06-29 16:33:39.687500000,-38.0,-13.0,50.0,112.21875,-25.65,20.9149025,33.83
2021-06-29 16:33:39.695312500,-38.0,-13.25,50.0,112.21578124999999,-16.895,20.915583062499998,33.83
2021-06-29 16:33:39.703125000,-38.0,-13.5,50.0,112.2128125,-8.14,20.916263625,33.83
2021-06-29 16:33:39.710937500,-38.0,-13.75,50.0,112.20984374999999,0.4299999999999997,20.9169441875,33.83
2021-06-29 16:33:39.718750000,-38.0,-14.0,50.0,112.206875,9.0,20.917624749999998,33.83
2021-06-29 16:33:39.726562500,-37.75,-13.75,50.0,112.20390625,16.725,20.9183053125,33.83
2021-06-29 16:33:39.734375000,-37.5,-13.5,50.0,112.2009375,24.45,20.918985875,33.83
2021-06-29 16:33:39.742187500,-37.25,-13.25,50.0,112.19796875,30.975,20.9196664375,33.83
2021-06-29 16:33:39.750000000,-37.0,-13.0,50.0,112.195,37.5,20.920347,33.83
2021-06-29 16:33:39.757812500,-37.25,-13.0,50.0,112.19203125,42.7,20.92306934375,33.83
2021-06-29 16:33:39.765625000,-37.5,-13.0,50.0,112.18906249999999,47.9,20.9257916875,33.83
2021-06-29 16:33:39.773437500,-37.75,-13.0,50.0,112.18609375,51.705,20.92851403125,33.83
2021-06-29 16:33:39.781250000,-38.0,-13.0,50.0,112.18312499999999,55.51,20.931236375,33.83
2021-06-29 16:33:39.789062500,-38.0,-13.25,50.0,112.18015625,57.864999999999995,20.93395871875,33.83
2021-06-29 16:33:39.796875000,-38.0,-13.5,50.0,112.1771875,60.22,20.9366810625,33.83
2021-06-29 16:33:39.804687500,-38.0,-13.75,50.0,112.17421875,61.125,20.93940340625,33.83
2021-06-29 16:33:39.812500000,-38.0,-14.0,50.0,112.17125,62.03,20.94212575,33.83
2021-06-29 16:33:39.820312500,-38.0,-13.75,50.0,112.16828124999999,61.66,20.94484809375,33.83
2021-06-29 16:33:39.828125000,-38.0,-13.5,50.0,112.1653125,61.29,20.9475704375,33.83
2021-06-29 16:33:39.835937500,-38.0,-13.25,50.0,112.16234374999999,60.06,20.95029278125,33.83
2021-06-29 16:33:39.843750000,-38.0,-13.0,50.0,112.159375,58.83,20.953015125,33.83
2021-06-29 16:33:39.851562500,-38.0,-13.25,50.0,112.15640624999999,57.325,20.95573746875,33.83
2021-06-29 16:33:39.859375000,-38.0,-13.5,50.0,112.1534375,55.82,20.9584598125,33.83
2021-06-29 16:33:39.867187500,-38.0,-13.75,50.0,112.15046875,54.59,20.96118215625,33.83
2021-06-29 16:33:39.875000000,-38.0,-14.0,50.0,112.1475,53.36,20.963904499999998,33.83
2021-06-29 16:33:39.882812500,-38.0,-13.75,50.0,112.14453125,52.69,20.96662684375,33.83
2021-06-29 16:33:39.890625000,-38.0,-13.5,50.0,112.14156249999999,52.02,20.9693491875,33.83
2021-06-29 16:33:39.898437500,-38.0,-13.25,50.0,112.13859375,51.8,20.97207153125,33.83
2021-06-29 16:33:39.906250000,-38.0,-13.0,50.0,112.13562499999999,51.58,20.974793875,33.83
2021-06-29 16:33:39.914062500,-38.0,-13.25,50.0,112.13265625,51.385,20.97751621875,33.83
2021-06-29 16:33:39.921875000,-38.0,-13.5,50.0,112.12968749999999,51.19,20.9802385625,33.83
2021-06-29 16:33:39.929687500,-38.0,-13.75,50.0,112.12671875,50.495,20.98296090625,33.83
2021-06-29 16:33:39.937500000,-38.0,-14.0,50.0,112.12375,49.8,20.98568325,33.83
2021-06-29 16:33:39.945312500,-38.0,-14.0,50.0,112.12078125,48.265,20.98840559375,33.83
2021-06-29 16:33:39.953125000,-38.0,-14.0,50.0,112.1178125,46.73,20.9911279375,33.83
2021-06-29 16:33:39.960937500,-38.0,-14.0,50.0,112.11484374999999,44.334999999999994,20.99385028125,33.83
2021-06-29 16:33:39.968750000,-38.0,-14.0,50.0,112.111875,41.94,20.996572625,33.83
2021-06-29 16:33:39.976562500,-37.75,-14.0,50.25,112.10890624999999,38.974999999999994,20.99929496875,33.83
2021-06-29 16:33:39.984375000,-37.5,-14.0,50.5,112.1059375,36.01,21.0020173125,33.83
2021-06-29 16:33:39.992187500,-37.25,-14.0,50.75,112.10296874999999,32.885,21.00473965625,33.83
2021-06-29 16:33:40.000000000,-37.0,-14.0,51.0,112.1,29.76,21.007462,33.83
2021-06-29 16:33:40.007812500,-37.0,-13.75,51.0,112.09703125,26.8,21.0111851875,33.83
2021-06-29 16:33:40.015625000,-37.0,-13.5,51.0,112.09406249999999,23.84,21.014908375,33.83
2021-06-29 16:33:40.023437500,-37.0,-13.25,51.0,112.09109375,21.105,21.0186315625,33.83
2021-06-29 16:33:40.031250000,-37.0,-13.0,51.0,112.08812499999999,18.37,21.02235475,33.83
2021-06-29 16:33:40.039062500,-37.25,-13.0,50.75,112.08515625,15.685,21.026077937500002,33.83
2021-06-29 16:33:40.046875000,-37.5,-13.0,50.5,112.08218749999999,13.0,21.029801125,33.83
2021-06-29 16:33:40.054687500,-37.75,-13.0,50.25,112.07921875,9.995000000000001,21.0335243125,33.83
2021-06-29 16:33:40.062500000,-38.0,-13.0,50.0,112.07624999999999,6.99,21.0372475,33.83
2021-06-29 16:33:40.070312500,-38.0,-13.25,50.0,112.07328125,3.3200000000000003,21.0409706875,33.83
2021-06-29 16:33:40.078125000,-38.0,-13.5,50.0,112.0703125,-0.35,21.044693875,33.83
2021-06-29 16:33:40.085937500,-38.0,-13.75,50.0,112.06734374999999,-4.885,21.0484170625,33.83
2021-06-29 16:33:40.093750000,-38.0,-14.0,50.0,112.064375,-9.42,21.05214025,33.83
2021-06-29 16:33:40.101562500,-37.75,-13.75,50.0,112.06140624999999,-14.785,21.0558634375,33.83
2021-06-29 16:33:40.109375000,-37.5,-13.5,50.0,112.0584375,-20.15,21.059586625,33.83
2021-06-29 16:33:40.117187500,-37.25,-13.25,50.0,112.05546874999999,-25.975,21.063309812500002,33.83
2021-06-29 16:33:40.125000000,-37.0,-13.0,50.0,112.0525,-31.8,21.067033000000002,33.83
2021-06-29 16:33:40.132812500,-37.0,-13.25,50.0,112.04953125,-37.44,21.0707561875,33.83
2021-06-29 16:33:40.140625000,-37.0,-13.5,50.0,112.0465625,-43.08,21.074479375,33.83
2021-06-29 16:33:40.148437500,-37.0,-13.75,50.0,112.04359375,-47.695,21.0782025625,33.83
2021-06-29 16:33:40.156250000,-37.0,-14.0,50.0,112.04062499999999,-52.31,21.08192575,33.83
2021-06-29 16:33:40.164062500,-37.25,-13.75,50.0,112.03765625,-55.075,21.0856489375,33.83
2021-06-29 16:33:40.171875000,-37.5,-13.5,50.0,112.03468749999999,-57.84,21.089372125,33.83
2021-06-29 16:33:40.179687500,-37.75,-13.25,50.0,112.03171875,-58.175,21.0930953125,33.83
2021-06-29 16:33:40.187500000,-38.0,-13.0,50.0,112.02875,-58.51,21.0968185,33.83
2021-06-29 16:33:40.195312500,-38.0,-13.0,50.0,112.02578125,-56.239999999999995,21.1005416875,33.83
2021-06-29 16:33:40.203125000,-38.0,-13.0,50.0,112.0228125,-53.97,21.104264875000002,33.83
2021-06-29 16:33:40.210937500,-38.0,-13.0,50.0,112.01984374999999,-49.370000000000005,21.1079880625,33.83
2021-06-29 16:33:40.218750000,-38.0,-13.0,50.0,112.016875,-44.77,21.11171125,33.83
2021-06-29 16:33:40.226562500,-38.0,-13.25,50.0,112.01390624999999,-38.45,21.1154344375,33.83
2021-06-29 16:33:40.234375000,-38.0,-13.5,50.0,112.0109375,-32.13,21.119157625,33.83
2021-06-29 16:33:40.242187500,-38.0,-13.75,50.0,112.00796874999999,-24.830000000000002,21.1228808125,33.83
2021-06-29 16:33:40.250000000,-38.0,-14.0,50.0,112.005,-17.53,21.126604,33.83
2021-06-29 16:33:40.257812500,-37.75,-14.0,50.0,112.00203125,-9.96,21.12856571875,33.83
2021-06-29 16:33:40.265625000,-37.5,-14.0,50.0,111.9990625,-2.39,21.1305274375,33.83
2021-06-29 16:33:40.273437500,-37.25,-14.0,50.0,111.99609375,4.865,21.13248915625,33.83
2021-06-29 16:33:40.281250000,-37.0,-14.0,50.0,111.99312499999999,12.12,21.134450875,33.83
2021-06-29 16:33:40.289062500,-37.0,-14.0,50.0,111.99015625,18.57,21.13641259375,33.83
2021-06-29 16:33:40.296875000,-37.0,-14.0,50.0,111.98718749999999,25.02,21.1383743125,33.83
2021-06-29 16:33:40.304687500,-37.0,-14.0,50.0,111.98421875,30.259999999999998,21.14033603125,33.83
2021-06-29 16:33:40.312500000,-37.0,-14.0,50.0,111.98124999999999,35.5,21.14229775,33.83
2021-06-29 16:33:40.320312500,-37.25,-13.75,50.0,111.97828125,39.165,21.14425946875,33.83
2021-06-29 16:33:40.328125000,-37.5,-13.5,50.0,111.9753125,42.83,21.1462211875,33.83
2021-06-29 16:33:40.335937500,-37.75,-13.25,50.0,111.97234375,44.71,21.14818290625,33.83
2021-06-29 16:33:40.343750000,-38.0,-13.0,50.0,111.969375,46.59,21.150144625,33.83
2021-06-29 16:33:40.351562500,-38.0,-13.25,50.0,111.96640624999999,46.715,21.15210634375,33.83
2021-06-29 16:33:40.359375000,-38.0,-13.5,50.0,111.9634375,46.84,21.1540680625,33.83
2021-06-29 16:33:40.367187500,-38.0,-13.75,50.0,111.96046874999999,45.56,21.156029781249998,33.83
2021-06-29 16:33:40.375000000,-38.0,-14.0,50.0,111.9575,44.28,21.1579915,33.83
2021-06-29 16:33:40.382812500,-37.75,-13.75,50.0,111.95453125,42.165,21.15995321875,33.83
2021-06-29 16:33:40.390625000,-37.5,-13.5,50.0,111.9515625,40.05,21.1619149375,33.83
2021-06-29 16:33:40.398437500,-37.25,-13.25,50.0,111.94859375,37.76,21.16387665625,33.83
2021-06-29 16:33:40.406250000,-37.0,-13.0,50.0,111.94562499999999,35.47,21.165838375,33.83
2021-06-29 16:33:40.414062500,-37.0,-13.0,50.0,111.94265625,33.565,21.16780009375,33.83
2021-06-29 16:33:40.421875000,-37.0,-13.0,50.0,111.93968749999999,31.66,21.1697618125,33.83
2021-06-29 16:33:40.429687500,-37.0,-13.0,50.0,111.93671875,30.395,21.17172353125,33.83
2021-06-29 16:33:40.437500000,-37.0,-13.0,50.0,111.93375,29.13,21.17368525,33.83
2021-06-29 16:33:40.445312500,-37.25,-13.0,50.0,111.93078125,28.485,21.175646968749998,33.83
2021-06-29 16:33:40.453125000,-37.5,-13.0,50.0,111.9278125,27.84,21.177608687499998,33.83
2021-06-29 16:33:40.460937500,-37.75,-13.0,50.0,111.92484375,27.509999999999998,21.17957040625,33.83
2021-06-29 16:33:40.468750000,-38.0,-13.0,50.0,111.921875,27.18,21.181532125,33.83
2021-06-29 16:33:40.476562500,-38.0,-13.0,50.0,111.91890624999999,26.765,21.18349384375,33.83
2021-06-29 16:33:40.484375000,-38.0,-13.0,50.0,111.9159375,26.35,21.1854555625,33.83
2021-06-29 16:33:40.492187500,-38.0,-13.0,50.0,111.91296874999999,25.515,21.18741728125,33.83
2021-06-29 16:33:40.500000000,-38.0,-13.0,50.0,111.91,24.68,21.189379,33.83
2021-06-29 16:33:40.507812500,-37.75,-13.0,50.25,111.90703125,23.265,21.19090028125,33.83
2021-06-29 16:33:40.515625000,-37.5,-13.0,50.5,111.9040625,21.85,21.192421562499998,33.83
2021-06-29 16:33:40.523437500,-37.25,-13.0,50.75,111.90109375,19.925,21.193942843749998,33.83
2021-06-29 16:33:40.531250000,-37.0,-13.0,51.0,111.898125,18.0,21.195464125,33.83
2021-06-29 16:33:40.539062500,-37.25,-13.25,50.75,111.89515625,15.795,21.19698540625,33.83
2021-06-29 16:33:40.546875000,-37.5,-13.5,50.5,111.89218749999999,13.59,21.1985066875,33.83
2021-06-29 16:33:40.554687500,-37.75,-13.75,50.25,111.88921875,11.375,21.20002796875,33.83
2021-06-29 16:33:40.562500000,-38.0,-14.0,50.0,111.88624999999999,9.16,21.20154925,33.83
2021-06-29 16:33:40.570312500,-38.0,-13.75,50.0,111.88328125,7.075,21.20307053125,33.83
2021-06-29 16:33:40.578125000,-38.0,-13.5,50.0,111.8803125,4.99,21.2045918125,33.83
2021-06-29 16:33:40.585937500,-38.0,-13.25,50.0,111.87734375,3.035,21.206113093749998,33.83
2021-06-29 16:33:40.593750000,-38.0,-13.0,50.0,111.874375,1.08,21.207634374999998,33.83
2021-06-29 16:33:40.601562500,-38.0,-13.25,50.0,111.87140624999999,-0.935,21.20915565625,33.83
2021-06-29 16:33:40.609375000,-38.0,-13.5,50.0,111.8684375,-2.95,21.2106769375,33.83
2021-06-29 16:33:40.617187500,-38.0,-13.75,50.0,111.86546874999999,-5.325,21.21219821875,33.83
2021-06-29 16:33:40.625000000,-38.0,-14.0,50.0,111.8625,-7.7,21.2137195,33.83
2021-06-29 16:33:40.632812500,-38.0,-13.75,50.0,111.85953125,-10.755,21.21524078125,33.83
2021-06-29 16:33:40.640625000,-38.0,-13.5,50.0,111.8565625,-13.81,21.2167620625,33.83
2021-06-29 16:33:40.648437500,-38.0,-13.25,50.0,111.85359375,-17.75,21.21828334375,33.83
2021-06-29 16:33:40.656250000,-38.0,-13.0,50.0,111.850625,-21.69,21.219804625000002,33.83
2021-06-29 16:33:40.664062500,-38.0,-13.25,50.0,111.84765625,-26.515,21.22132590625,33.83
2021-06-29 16:33:40.671875000,-38.0,-13.5,50.0,111.84468749999999,-31.34,21.2228471875,33.83
2021-06-29 16:33:40.679687500,-38.0,-13.75,50.0,111.84171875,-36.75,21.22436846875,33.83
2021-06-29 16:33:40.687500000,-38.0,-14.0,50.0,111.83875,-42.16,21.22588975,33.83
2021-06-29 16:33:40.695312500,-38.0,-13.75,50.0,111.83578125,-47.48,21.22741103125,33.83
2021-06-29 16:33:40.703125000,-38.0,-13.5,50.0,111.8328125,-52.8,21.2289323125,33.83
2021-06-29 16:33:40.710937500,-38.0,-13.25,50.0,111.82984375,-57.11,21.23045359375,33.83
2021-06-29 16:33:40.718750000,-38.0,-13.0,50.0,111.826875,-61.42,21.231974875,33.83
2021-06-29 16:33:40.726562500,-38.0,-13.0,50.0,111.82390625,-63.775,21.233496156250002,33.83
2021-06-29 16:33:40.734375000,-38.0,-13.0,50.0,111.8209375,-66.13,21.2350174375,33.83
2021-06-29 16:33:40.742187500,-38.0,-13.0,50.0,111.81796874999999,-65.84,21.23653871875,33.83
2021-06-29 16:33:40.750000000,-38.0,-13.0,50.0,111.815,-65.55,21.23806,33.83
2021-06-29 16:33:40.757812500,-38.0,-13.0,50.25,111.81203125,-62.459999999999994,21.2370991875,33.83
2021-06-29 16:33:40.765625000,-38.0,-13.0,50.5,111.8090625,-59.37,21.236138375,33.83
2021-06-29 16:33:40.773437500,-38.0,-13.0,50.75,111.80609375,-53.91,21.235177562500002,33.83
2021-06-29 16:33:40.781250000,-38.0,-13.0,51.0,111.803125,-48.45,21.23421675,33.83
2021-06-29 16:33:40.789062500,-38.0,-13.25,50.75,111.80015625,-41.49,21.2332559375,33.83
2021-06-29 16:33:40.796875000,-38.0,-13.5,50.5,111.79718749999999,-34.53,21.232295125,33.83
2021-06-29 16:33:40.804687500,-38.0,-13.75,50.25,111.79421875,-27.065,21.2313343125,33.83
2021-06-29 16:33:40.812500000,-38.0,-14.0,50.0,111.79124999999999,-19.6,21.2303735,33.83
2021-06-29 16:33:40.820312500,-38.0,-13.75,50.0,111.78828125,-12.485000000000001,21.2294126875,33.83
2021-06-29 16:33:40.828125000,-38.0,-13.5,50.0,111.7853125,-5.37,21.228451875,33.83
2021-06-29 16:33:40.835937500,-38.0,-13.25,50.0,111.78234375,0.8849999999999998,21.2274910625,33.83
2021-06-29 16:33:40.843750000,-38.0,-13.0,50.0,111.779375,7.14,21.22653025,33.83
2021-06-29 16:33:40.851562500,-38.0,-13.25,50.0,111.77640625,12.239999999999998,21.2255694375,33.83
2021-06-29 16:33:40.859375000,-38.0,-13.5,50.0,111.7734375,17.34,21.224608625000002,33.83
2021-06-29 16:33:40.867187500,-38.0,-13.75,50.0,111.77046874999999,21.155,21.2236478125,33.83
2021-06-29 16:33:40.875000000,-38.0,-14.0,50.0,111.7675,24.97,21.222687,33.83
2021-06-29 16:33:40.882812500,-37.75,-14.0,50.25,111.76453125,27.369999999999997,21.2217261875,33.83
2021-06-29 16:33:40.890625000,-37.5,-14.0,50.5,111.7615625,29.77,21.220765375,33.83
2021-06-29 16:33:40.898437500,-37.25,-14.0,50.75,111.75859375,30.715,21.219804562500002,33.83
2021-06-29 16:33:40.906250000,-37.0,-14.0,51.0,111.755625,31.66,21.21884375,33.83
2021-06-29 16:33:40.914062500,-37.0,-13.75,50.75,111.75265625,31.265,21.2178829375,33.83
2021-06-29 16:33:40.921875000,-37.0,-13.5,50.5,111.7496875,30.87,21.216922125,33.83
2021-06-29 16:33:40.929687500,-37.0,-13.25,50.25,111.74671875,29.520000000000003,21.2159613125,33.83
2021-06-29 16:33:40.937500000,-37.0,-13.0,50.0,111.74375,28.17,21.215000500000002,33.83
2021-06-29 16:33:40.945312500,-37.25,-13.0,50.0,111.74078125,26.455,21.2140396875,33.83
2021-06-29 16:33:40.953125000,-37.5,-13.0,50.0,111.7378125,24.74,21.213078875,33.83
2021-06-29 16:33:40.960937500,-37.75,-13.0,50.0,111.73484375,23.235,21.2121180625,33.83
2021-06-29 16:33:40.968750000,-38.0,-13.0,50.0,111.731875,21.73,21.21115725,33.83
2021-06-29 16:33:40.976562500,-38.0,-13.0,50.0,111.72890625,20.82,21.2101964375,33.83
2021-06-29 16:33:40.984375000,-38.0,-13.0,50.0,111.7259375,19.91,21.209235625,33.83
2021-06-29 16:33:40.992187500,-38.0,-13.0,50.0,111.72296874999999,19.585,21.2082748125,33.83
2021-06-29 16:33:41.000000000,-38.0,-13.0,50.0,111.72,19.26,21.207314,33.83
2021-06-29 16:33:41.007812500,-37.75,-13.25,50.0,111.716953125,19.185000000000002,21.206913625,33.83
2021-06-29 16:33:41.015625000,-37.5,-13.5,50.0,111.71390625,19.11,21.20651325,33.83
2021-06-29 16:33:41.023437500,-37.25,-13.75,50.0,111.710859375,18.814999999999998,21.206112875,33.83
2021-06-29 16:33:41.031250000,-37.0,-14.0,50.0,111.7078125,18.52,21.2057125,33.83
2021-06-29 16:33:41.039062500,-37.25,-14.0,50.0,111.704765625,17.64,21.205312125,33.83
2021-06-29 16:33:41.046875000,-37.5,-14.0,50.0,111.70171875,16.76,21.20491175,33.83
2021-06-29 16:33:41.054687500,-37.75,-14.0,50.0,111.698671875,15.195,21.204511375,33.83
2021-06-29 16:33:41.062500000,-38.0,-14.0,50.0,111.69562499999999,13.63,21.204111,33.83
2021-06-29 16:33:41.070312500,-38.0,-14.0,50.0,111.692578125,11.54,21.203710625,33.83
2021-06-29 16:33:41.078125000,-38.0,-14.0,50.0,111.68953125,9.45,21.20331025,33.83
2021-06-29 16:33:41.085937500,-38.0,-14.0,50.0,111.68648437499999,7.154999999999999,21.202909875,33.83
2021-06-29 16:33:41.093750000,-38.0,-14.0,50.0,111.6834375,4.86,21.2025095,33.83
2021-06-29 16:33:41.101562500,-38.0,-13.75,50.25,111.680390625,2.645,21.202109125,33.83
2021-06-29 16:33:41.109375000,-38.0,-13.5,50.5,111.67734375,0.43,21.20170875,33.83
2021-06-29 16:33:41.117187500,-38.0,-13.25,50.75,111.674296875,-1.575,21.201308375,33.83
2021-06-29 16:33:41.125000000,-38.0,-13.0,51.0,111.67125,-3.58,21.200908,33.83
2021-06-29 16:33:41.132812500,-38.0,-13.0,50.75,111.668203125,-5.4350000000000005,21.200507625,33.83
2021-06-29 16:33:41.140625000,-38.0,-13.0,50.5,111.66515625,-7.29,21.20010725,33.83
2021-06-29 16:33:41.148437500,-38.0,-13.0,50.25,111.662109375,-9.19,21.199706875,33.83
2021-06-29 16:33:41.156250000,-38.0,-13.0,50.0,111.6590625,-11.09,21.1993065,33.83
2021-06-29 16:33:41.164062500,-38.0,-13.25,50.0,111.656015625,-13.295,21.198906125,33.83
2021-06-29 16:33:41.171875000,-38.0,-13.5,50.0,111.65296875,-15.5,21.19850575,33.83
2021-06-29 16:33:41.179687500,-38.0,-13.75,50.0,111.649921875,-18.25,21.198105375,33.83
2021-06-29 16:33:41.187500000,-38.0,-14.0,50.0,111.646875,-21.0,21.197705,33.83
2021-06-29 16:33:41.195312500,-38.0,-13.75,50.0,111.643828125,-24.455,21.197304625,33.83
2021-06-29 16:33:41.203125000,-38.0,-13.5,50.0,111.64078125,-27.91,21.19690425,33.83
2021-06-29 16:33:41.210937500,-38.0,-13.25,50.0,111.637734375,-32.055,21.196503875,33.83
2021-06-29 16:33:41.218750000,-38.0,-13.0,50.0,111.6346875,-36.2,21.1961035,33.83
2021-06-29 16:33:41.226562500,-37.75,-13.25,50.0,111.631640625,-40.790000000000006,21.195703125,33.83
2021-06-29 16:33:41.234375000,-37.5,-13.5,50.0,111.62859375,-45.38,21.19530275,33.83
2021-06-29 16:33:41.242187500,-37.25,-13.75,50.0,111.625546875,-49.855000000000004,21.194902375,33.83
2021-06-29 16:33:41.250000000,-37.0,-14.0,50.0,111.6225,-54.33,21.194502,33.83
2021-06-29 16:33:41.257812500,-37.25,-13.75,50.0,111.61945312499999,-57.93,21.193461125,33.83
2021-06-29 16:33:41.265625000,-37.5,-13.5,50.0,111.61640625,-61.53,21.19242025,33.83
2021-06-29 16:33:41.273437500,-37.75,-13.25,50.0,111.613359375,-63.415,21.191379375,33.83
2021-06-29 16:33:41.281250000,-38.0,-13.0,50.0,111.61031249999999,-65.3,21.1903385,33.83
2021-06-29 16:33:41.289062500,-38.0,-13.25,50.0,111.607265625,-64.85,21.189297625,33.83
2021-06-29 16:33:41.296875000,-38.0,-13.5,50.0,111.60421875,-64.4,21.18825675,33.83
2021-06-29 16:33:41.304687500,-38.0,-13.75,50.0,111.601171875,-61.39,21.187215875,33.83
2021-06-29 16:33:41.312500000,-38.0,-14.0,50.0,111.598125,-58.38,21.186175,33.83
2021-06-29 16:33:41.320312500,-38.0,-14.0,50.0,111.595078125,-53.13,21.185134125,33.83
2021-06-29 16:33:41.328125000,-38.0,-14.0,50.0,111.59203125,-47.88,21.18409325,33.83
2021-06-29 16:33:41.335937500,-38.0,-14.0,50.0,111.588984375,-41.115,21.183052375,33.83
2021-06-29 16:33:41.343750000,-38.0,-14.0,50.0,111.5859375,-34.35,21.182011499999998,33.83
2021-06-29 16:33:41.351562500,-38.0,-13.75,50.0,111.582890625,-26.97,21.180970625,33.83
2021-06-29 16:33:41.359375000,-38.0,-13.5,50.0,111.57984375,-19.59,21.17992975,33.83
2021-06-29 16:33:41.367187500,-38.0,-13.25,50.0,111.576796875,-12.415,21.178888875,33.83
2021-06-29 16:33:41.375000000,-38.0,-13.0,50.0,111.57375,-5.24,21.177847999999997,33.83
2021-06-29 16:33:41.382812500,-38.0,-13.0,50.0,111.570703125,1.1399999999999997,21.176807125,33.83
2021-06-29 16:33:41.390625000,-38.0,-13.0,50.0,111.56765625,7.52,21.17576625,33.83
2021-06-29 16:33:41.398437500,-38.0,-13.0,50.0,111.564609375,12.78,21.174725374999998,33.83
2021-06-29 16:33:41.406250000,-38.0,-13.0,50.0,111.5615625,18.04,21.1736845,33.83
2021-06-29 16:33:41.414062500,-38.0,-13.25,50.0,111.558515625,22.02,21.172643625,33.83
2021-06-29 16:33:41.421875000,-38.0,-13.5,50.0,111.55546875,26.0,21.171602749999998,33.83
2021-06-29 16:33:41.429687500,-38.0,-13.75,50.0,111.552421875,28.619999999999997,21.170561874999997,33.83
2021-06-29 16:33:41.437500000,-38.0,-14.0,50.0,111.549375,31.24,21.169521,33.83
2021-06-29 16:33:41.445312500,-38.0,-13.75,50.0,111.546328125,32.5,21.168480125,33.83
2021-06-29 16:33:41.453125000,-38.0,-13.5,50.0,111.54328124999999,33.76,21.167439249999997,33.83
2021-06-29 16:33:41.460937500,-38.0,-13.25,50.0,111.540234375,33.765,21.166398375,33.83
2021-06-29 16:33:41.468750000,-38.0,-13.0,50.0,111.5371875,33.77,21.1653575,33.83
2021-06-29 16:33:41.476562500,-38.0,-13.0,50.0,111.53414062499999,32.825,21.164316624999998,33.83
2021-06-29 16:33:41.484375000,-38.0,-13.0,50.0,111.53109375,31.88,21.163275749999997,33.83
2021-06-29 16:33:41.492187500,-38.0,-13.0,50.0,111.528046875,30.415,21.162234875,33.83
2021-06-29 16:33:41.500000000,-38.0,-13.0,50.0,111.525,28.95,21.161194,33.83
2021-06-29 16:33:41.507812500,-38.0,-13.0,50.0,111.521953125,27.445,21.1603933125,33.83
2021-06-29 16:33:41.515625000,-38.0,-13.0,50.0,111.51890625,25.94,21.159592625,33.83
2021-06-29 16:33:41.523437500,-38.0,-13.0,50.0,111.515859375,24.740000000000002,21.1587919375,33.83
2021-06-29 16:33:41.531250000,-38.0,-13.0,50.0,111.5128125,23.54,21.15799125,33.83
2021-06-29 16:33:41.539062500,-38.0,-13.0,50.0,111.509765625,22.744999999999997,21.1571905625,33.83
2021-06-29 16:33:41.546875000,-38.0,-13.0,50.0,111.50671875,21.95,21.156389875,33.83
2021-06-29 16:33:41.554687500,-38.0,-13.0,50.0,111.503671875,21.41,21.1555891875,33.83
2021-06-29 16:33:41.562500000,-38.0,-13.0,50.0,111.500625,20.87,21.1547885,33.83
2021-06-29 16:33:41.570312500,-38.0,-13.25,50.0,111.497578125,20.270000000000003,21.1539878125,33.83
2021-06-29 16:33:41.578125000,-38.0,-13.5,50.0,111.49453125,19.67,21.153187125,33.83
2021-06-29 16:33:41.585937500,-38.0,-13.75,50.0,111.491484375,18.72,21.1523864375,33.83
2021-06-29 16:33:41.593750000,-38.0,-14.0,50.0,111.4884375,17.77,21.15158575,33.83
2021-06-29 16:33:41.601562500,-38.0,-13.75,50.25,111.485390625,16.31,21.1507850625,33.83
2021-06-29 16:33:41.609375000,-38.0,-13.5,50.5,111.48234375,14.85,21.149984375,33.83
2021-06-29 16:33:41.617187500,-38.0,-13.25,50.75,111.479296875,12.92,21.1491836875,33.83
2021-06-29 16:33:41.625000000,-38.0,-13.0,51.0,111.47625,10.99,21.148383,33.83
2021-06-29 16:33:41.632812500,-38.0,-13.25,50.75,111.473203125,8.780000000000001,21.1475823125,33.83
2021-06-29 16:33:41.640625000,-38.0,-13.5,50.5,111.47015625,6.57,21.146781625,33.83
2021-06-29 16:33:41.648437500,-38.0,-13.75,50.25,111.46710937499999,4.315,21.1459809375,33.83
2021-06-29 16:33:41.656250000,-38.0,-14.0,50.0,111.4640625,2.06,21.14518025,33.83
2021-06-29 16:33:41.664062500,-38.0,-13.75,50.0,111.461015625,-0.06499999999999995,21.1443795625,33.83
2021-06-29 16:33:41.671875000,-38.0,-13.5,50.0,111.45796874999999,-2.19,21.143578875,33.83
2021-06-29 16:33:41.679687500,-38.0,-13.25,50.0,111.454921875,-4.17,21.1427781875,33.83
2021-06-29 16:33:41.687500000,-38.0,-13.0,50.0,111.451875,-6.15,21.1419775,33.83
2021-06-29 16:33:41.695312500,-38.0,-13.25,50.0,111.44882812499999,-8.125,21.1411768125,33.83
2021-06-29 16:33:41.703125000,-38.0,-13.5,50.0,111.44578125,-10.1,21.140376125,33.83
2021-06-29 16:33:41.710937500,-38.0,-13.75,50.0,111.442734375,-12.35,21.1395754375,33.83
2021-06-29 16:33:41.718750000,-38.0,-14.0,50.0,111.4396875,-14.6,21.13877475,33.83
2021-06-29 16:33:41.726562500,-38.0,-14.0,50.0,111.436640625,-17.419999999999998,21.1379740625,33.83
2021-06-29 16:33:41.734375000,-38.0,-14.0,50.0,111.43359375,-20.24,21.137173375,33.83
2021-06-29 16:33:41.742187500,-38.0,-14.0,50.0,111.430546875,-23.86,21.1363726875,33.83
2021-06-29 16:33:41.750000000,-38.0,-14.0,50.0,111.4275,-27.48,21.135572,33.83
2021-06-29 16:33:41.757812500,-38.0,-14.0,50.0,111.424453125,-31.92,21.13541184375,33.83
2021-06-29 16:33:41.765625000,-38.0,-14.0,50.0,111.42140625,-36.36,21.1352516875,33.83
2021-06-29 16:33:41.773437500,-38.0,-14.0,50.0,111.418359375,-41.305,21.13509153125,33.83
2021-06-29 16:33:41.781250000,-38.0,-14.0,50.0,111.4153125,-46.25,21.134931375,33.83
2021-06-29 16:33:41.789062500,-38.0,-13.75,50.0,111.412265625,-51.04,21.13477121875,33.83
2021-06-29 16:33:41.796875000,-38.0,-13.5,50.0,111.40921875,-55.83,21.1346110625,33.83
2021-06-29 16:33:41.804687500,-38.0,-13.25,50.0,111.406171875,-59.55,21.13445090625,33.83
2021-06-29 16:33:41.812500000,-38.0,-13.0,50.0,111.403125,-63.27,21.134290749999998,33.83
2021-06-29 16:33:41.820312500,-38.0,-13.0,50.0,111.400078125,-64.97500000000001,21.13413059375,33.83
2021-06-29 16:33:41.828125000,-38.0,-13.0,50.0,111.39703125,-66.68,21.1339704375,33.83
2021-06-29 16:33:41.835937500,-38.0,-13.0,50.0,111.393984375,-65.695,21.13381028125,33.83
2021-06-29 16:33:41.843750000,-38.0,-13.0,50.0,111.39093749999999,-64.71,21.133650125,33.83
2021-06-29 16:33:41.851562500,-38.0,-13.0,50.0,111.387890625,-60.894999999999996,21.13348996875,33.83
2021-06-29 16:33:41.859375000,-38.0,-13.0,50.0,111.38484375,-57.08,21.1333298125,33.83
2021-06-29 16:33:41.867187500,-38.0,-13.0,50.0,111.38179687499999,-50.885,21.13316965625,33.83
2021-06-29 16:33:41.875000000,-38.0,-13.0,50.0,111.37875,-44.69,21.1330095,33.83
2021-06-29 16:33:41.882812500,-38.0,-13.0,50.25,111.375703125,-37.004999999999995,21.13284934375,33.83
2021-06-29 16:33:41.890625000,-38.0,-13.0,50.5,111.37265624999999,-29.32,21.1326891875,33.83
2021-06-29 16:33:41.898437500,-38.0,-13.0,50.75,111.369609375,-21.145,21.13252903125,33.83
2021-06-29 16:33:41.906250000,-38.0,-13.0,51.0,111.3665625,-12.97,21.132368875,33.83
2021-06-29 16:33:41.914062500,-38.0,-13.25,50.75,111.363515625,-5.12,21.13220871875,33.83
2021-06-29 16:33:41.921875000,-38.0,-13.5,50.5,111.36046875,2.73,21.1320485625,33.83
2021-06-29 16:33:41.929687500,-38.0,-13.75,50.25,111.357421875,9.795,21.13188840625,33.83
2021-06-29 16:33:41.937500000,-38.0,-14.0,50.0,111.354375,16.86,21.131728250000002,33.83
2021-06-29 16:33:41.945312500,-38.0,-13.75,50.0,111.351328125,22.955,21.13156809375,33.83
2021-06-29 16:33:41.953125000,-38.0,-13.5,50.0,111.34828125,29.05,21.1314079375,33.83
2021-06-29 16:33:41.960937500,-38.0,-13.25,50.0,111.345234375,34.1,21.13124778125,33.83
2021-06-29 16:33:41.968750000,-38.0,-13.0,50.0,111.3421875,39.15,21.131087625,33.83
2021-06-29 16:33:41.976562500,-38.0,-13.25,50.0,111.339140625,43.004999999999995,21.13092746875,33.83
2021-06-29 16:33:41.984375000,-38.0,-13.5,50.0,111.33609375,46.86,21.1307673125,33.83
2021-06-29 16:33:41.992187500,-38.0,-13.75,50.0,111.333046875,49.325,21.13060715625,33.83
2021-06-29 16:33:42.000000000,-38.0,-14.0,50.0,111.33,51.79,21.130447,33.83
2021-06-29 16:33:42.007812500,-38.0,-13.75,50.0,111.32703125,52.75,21.128365187500002,33.8303125
2021-06-29 16:33:42.015625000,-38.0,-13.5,50.0,111.3240625,53.71,21.126283375,33.830625
2021-06-29 16:33:42.023437500,-38.0,-13.25,50.0,111.32109375,53.3,21.1242015625,33.8309375
2021-06-29 16:33:42.031250000,-38.0,-13.0,50.0,111.318125,52.89,21.12211975,33.83125
2021-06-29 16:33:42.039062500,-38.0,-13.0,50.0,111.31515625,51.53,21.1200379375,33.8315625
2021-06-29 16:33:42.046875000,-38.0,-13.0,50.0,111.3121875,50.17,21.117956125,33.831875
2021-06-29 16:33:42.054687500,-38.0,-13.0,50.0,111.30921875,48.465,21.1158743125,33.832187499999996
2021-06-29 16:33:42.062500000,-38.0,-13.0,50.0,111.30625,46.76,21.1137925,33.832499999999996
2021-06-29 16:33:42.070312500,-38.0,-13.0,50.0,111.30328125,45.209999999999994,21.1117106875,33.8328125
2021-06-29 16:33:42.078125000,-38.0,-13.0,50.0,111.3003125,43.66,21.109628875,33.833125
2021-06-29 16:33:42.085937500,-38.0,-13.0,50.0,111.29734375,42.51,21.1075470625,33.8334375
2021-06-29 16:33:42.093750000,-38.0,-13.0,50.0,111.294375,41.36,21.105465249999998,33.83375
2021-06-29 16:33:42.101562500,-38.0,-13.25,50.0,111.29140625,40.504999999999995,21.1033834375,33.8340625
2021-06-29 16:33:42.109375000,-38.0,-13.5,50.0,111.2884375,39.65,21.101301624999998,33.834375
2021-06-29 16:33:42.117187500,-38.0,-13.75,50.0,111.28546874999999,38.754999999999995,21.0992198125,33.8346875
2021-06-29 16:33:42.125000000,-38.0,-14.0,50.0,111.2825,37.86,21.097138,33.835
2021-06-29 16:33:42.132812500,-37.75,-13.75,50.0,111.27953125,36.565,21.0950561875,33.8353125
2021-06-29 16:33:42.140625000,-37.5,-13.5,50.0,111.2765625,35.27,21.092974375,33.835625
2021-06-29 16:33:42.148437500,-37.25,-13.25,50.0,111.27359375,33.395,21.0908925625,33.8359375
2021-06-29 16:33:42.156250000,-37.0,-13.0,50.0,111.270625,31.52,21.08881075,33.83625
2021-06-29 16:33:42.164062500,-37.0,-13.0,50.0,111.26765625,29.1,21.0867289375,33.8365625
2021-06-29 16:33:42.171875000,-37.0,-13.0,50.0,111.2646875,26.68,21.084647125,33.836875
2021-06-29 16:33:42.179687500,-37.0,-13.0,50.0,111.26171875,23.965,21.082565312499998,33.8371875
2021-06-29 16:33:42.187500000,-37.0,-13.0,50.0,111.25874999999999,21.25,21.0804835,33.837500000000006
2021-06-29 16:33:42.195312500,-37.25,-13.25,50.0,111.25578125,18.545,21.078401687499998,33.837812500000005
2021-06-29 16:33:42.203125000,-37.5,-13.5,50.0,111.2528125,15.84,21.076319875,33.838125000000005
2021-06-29 16:33:42.210937500,-37.75,-13.75,50.0,111.24984375,13.36,21.074238062499997,33.838437500000005
2021-06-29 16:33:42.218750000,-38.0,-14.0,50.0,111.246875,10.88,21.07215625,33.838750000000005
2021-06-29 16:33:42.226562500,-38.0,-13.75,50.0,111.24390625,8.67,21.070074437499997,33.839062500000004
2021-06-29 16:33:42.234375000,-38.0,-13.5,50.0,111.2409375,6.46,21.067992625,33.839375000000004
2021-06-29 16:33:42.242187500,-38.0,-13.25,50.0,111.23796875,4.335,21.065910812499997,33.839687500000004
2021-06-29 16:33:42.250000000,-38.0,-13.0,50.0,111.235,2.21,21.063829,33.84
2021-06-29 16:33:42.257812500,-38.0,-13.25,50.0,111.23203125,-0.1299999999999999,21.063829,33.84
2021-06-29 16:33:42.265625000,-38.0,-13.5,50.0,111.2290625,-2.47,21.063829,33.84
2021-06-29 16:33:42.273437500,-38.0,-13.75,50.0,111.22609375,-5.369999999999999,21.063829,33.84
2021-06-29 16:33:42.281250000,-38.0,-14.0,50.0,111.223125,-8.27,21.063829,33.84
2021-06-29 16:33:42.289062500,-38.0,-14.0,50.0,111.22015625,-11.965,21.063829,33.84
2021-06-29 16:33:42.296875000,-38.0,-14.0,50.0,111.2171875,-15.66,21.063829,33.84
2021-06-29 16:33:42.304687500,-38.0,-14.0,50.0,111.21421875,-20.195,21.063829,33.84
2021-06-29 16:33:42.312500000,-38.0,-14.0,50.0,111.21125,-24.73,21.063829,33.84
2021-06-29 16:33:42.320312500,-38.0,-14.0,50.0,111.20828125,-29.92,21.063829,33.84
2021-06-29 16:33:42.328125000,-38.0,-14.0,50.0,111.2053125,-35.11,21.063829,33.84
2021-06-29 16:33:42.335937500,-38.0,-14.0,50.0,111.20234375,-40.485,21.063829,33.84
2021-06-29 16:33:42.343750000,-38.0,-14.0,50.0,111.199375,-45.86,21.063829,33.84
2021-06-29 16:33:42.351562500,-38.0,-13.75,50.0,111.19640625,-50.725,21.063829,33.84
2021-06-29 16:33:42.359375000,-38.0,-13.5,50.0,111.1934375,-55.59,21.063829,33.84
2021-06-29 16:33:42.367187500,-38.0,-13.25,50.0,111.19046875,-59.120000000000005,21.063829,33.84
2021-06-29 16:33:42.375000000,-38.0,-13.0,50.0,111.1875,-62.65,21.063829,33.84
2021-06-29 16:33:42.382812500,-38.0,-13.25,50.0,111.18453125,-64.075,21.063829,33.84
2021-06-29 16:33:42.390625000,-38.0,-13.5,50.0,111.1815625,-65.5,21.063829,33.84
2021-06-29 16:33:42.398437500,-38.0,-13.75,50.0,111.17859375,-64.34,21.063829,33.84
2021-06-29 16:33:42.406250000,-38.0,-14.0,50.0,111.175625,-63.18,21.063829,33.84
2021-06-29 16:33:42.414062500,-38.0,-13.75,50.0,111.17265625,-59.41,21.063829,33.84
2021-06-29 16:33:42.421875000,-38.0,-13.5,50.0,111.1696875,-55.64,21.063829,33.84
2021-06-29 16:33:42.429687500,-38.0,-13.25,50.0,111.16671875,-49.71,21.063829,33.84
2021-06-29 16:33:42.437500000,-38.0,-13.0,50.0,111.16375,-43.78,21.063829,33.84
2021-06-29 16:33:42.445312500,-37.75,-13.25,50.0,111.16078125,-36.480000000000004,21.063829,33.84
2021-06-29 16:33:42.453125000,-37.5,-13.5,50.0,111.1578125,-29.18,21.063829,33.84
2021-06-29 16:33:42.460937500,-37.25,-13.75,50.0,111.15484375,-21.395,21.063829,33.84
2021-06-29 16:33:42.468750000,-37.0,-14.0,50.0,111.151875,-13.61,21.063829,33.84
2021-06-29 16:33:42.476562500,-37.25,-13.75,50.0,111.14890625,-6.085,21.063829,33.84
2021-06-29 16:33:42.484375000,-37.5,-13.5,50.0,111.1459375,1.44,21.063829,33.84
2021-06-29 16:33:42.492187500,-37.75,-13.25,50.0,111.14296875,8.23,21.063829,33.84
2021-06-29 16:33:42.500000000,-38.0,-13.0,50.0,111.14,15.02,21.063829,33.84
2021-06-29 16:33:42.507812500,-38.0,-13.0,50.0,111.13703125,20.795,21.062708093749997,33.84
2021-06-29 16:33:42.515625000,-38.0,-13.0,50.0,111.1340625,26.57,21.0615871875,33.84
2021-06-29 16:33:42.523437500,-38.0,-13.0,50.0,111.13109375,31.11,21.060466281249997,33.84
2021-06-29 16:33:42.531250000,-38.0,-13.0,50.0,111.128125,35.65,21.059345375,33.84
2021-06-29 16:33:42.539062500,-38.0,-13.0,50.0,111.12515625,38.775,21.058224468749998,33.84
2021-06-29 16:33:42.546875000,-38.0,-13.0,50.0,111.1221875,41.9,21.0571035625,33.84
2021-06-29 16:33:42.554687500,-38.0,-13.0,50.0,111.11921875,43.445,21.05598265625,33.84
2021-06-29 16:33:42.562500000,-38.0,-13.0,50.0,111.11625000000001,44.99,21.05486175,33.84
2021-06-29 16:33:42.570312500,-38.0,-13.0,50.0,111.11328125,44.985,21.05374084375,33.84
2021-06-29 16:33:42.578125000,-38.0,-13.0,50.0,111.1103125,44.98,21.052619937499998,33.84
2021-06-29 16:33:42.585937500,-38.0,-13.0,50.0,111.10734375,43.745,21.05149903125,33.84
2021-06-29 16:33:42.593750000,-38.0,-13.0,50.0,111.104375,42.51,21.050378124999998,33.84
2021-06-29 16:33:42.601562500,-37.75,-13.0,50.0,111.10140625,40.62,21.04925721875,33.84
2021-06-29 16:33:42.609375000,-37.5,-13.0,50.0,111.0984375,38.73,21.0481363125,33.84
2021-06-29 16:33:42.617187500,-37.25,-13.0,50.0,111.09546875,36.87,21.04701540625,33.84
2021-06-29 16:33:42.625000000,-37.0,-13.0,50.0,111.0925,35.01,21.0458945,33.84
2021-06-29 16:33:42.632812500,-37.25,-13.0,50.0,111.08953125000001,33.67,21.044773593749998,33.84
2021-06-29 16:33:42.640625000,-37.5,-13.0,50.0,111.0865625,32.33,21.0436526875,33.84
2021-06-29 16:33:42.648437500,-37.75,-13.0,50.0,111.08359375,31.655,21.04253178125,33.84
2021-06-29 16:33:42.656250000,-38.0,-13.0,50.0,111.080625,30.98,21.041410875,33.84
2021-06-29 16:33:42.664062500,-37.75,-13.25,50.25,111.07765625,30.735,21.04028996875,33.84
2021-06-29 16:33:42.671875000,-37.5,-13.5,50.5,111.0746875,30.49,21.0391690625,33.84
2021-06-29 16:33:42.679687500,-37.25,-13.75,50.75,111.07171875,30.225,21.03804815625,33.84
2021-06-29 16:33:42.687500000,-37.0,-14.0,51.0,111.06875,29.96,21.036927249999998,33.84
2021-06-29 16:33:42.695312500,-37.0,-14.0,50.75,111.06578125,29.225,21.03580634375,33.84
2021-06-29 16:33:42.703125000,-37.0,-14.0,50.5,111.0628125,28.49,21.0346854375,33.84
2021-06-29 16:33:42.710937500,-37.0,-14.0,50.25,111.05984375,27.075,21.03356453125,33.84
2021-06-29 16:33:42.718750000,-37.0,-14.0,50.0,111.056875,25.66,21.032443625,33.84
2021-06-29 16:33:42.726562500,-37.25,-13.75,50.0,111.05390625,23.625,21.03132271875,33.84
2021-06-29 16:33:42.734375000,-37.5,-13.5,50.0,111.0509375,21.59,21.0302018125,33.84
2021-06-29 16:33:42.742187500,-37.75,-13.25,50.0,111.04796875,19.21,21.02908090625,33.84
2021-06-29 16:33:42.750000000,-38.0,-13.0,50.0,111.045,16.83,21.02796,33.84
2021-06-29 16:33:42.757812500,-37.75,-13.0,50.0,111.04203125000001,14.434999999999999,21.02840034375,33.84
2021-06-29 16:33:42.765625000,-37.5,-13.0,50.0,111.0390625,12.04,21.0288406875,33.84
2021-06-29 16:33:42.773437500,-37.25,-13.0,50.0,111.03609375,9.825,21.02928103125,33.84
2021-06-29 16:33:42.781250000,-37.0,-13.0,50.0,111.033125,7.61,21.029721375,33.84
2021-06-29 16:33:42.789062500,-37.25,-13.25,50.0,111.03015625,5.605,21.03016171875,33.84
2021-06-29 16:33:42.796875000,-37.5,-13.5,50.0,111.0271875,3.6,21.0306020625,33.84
2021-06-29 16:33:42.804687500,-37.75,-13.75,50.0,111.02421875,1.6400000000000001,21.031042406250002,33.84
2021-06-29 16:33:42.812500000,-38.0,-14.0,50.0,111.02125000000001,-0.32,21.031482750000002,33.84
2021-06-29 16:33:42.820312500,-38.0,-14.0,50.0,111.01828125,-2.4599999999999995,21.03192309375,33.84
2021-06-29 16:33:42.828125000,-38.0,-14.0,50.0,111.01531250000001,-4.6,21.0323634375,33.84
2021-06-29 16:33:42.835937500,-38.0,-14.0,50.0,111.01234375,-7.155,21.03280378125,33.84
2021-06-29 16:33:42.843750000,-38.0,-14.0,50.0,111.009375,-9.71,21.033244125,33.84
2021-06-29 16:33:42.851562500,-37.75,-14.0,50.0,111.00640625,-12.850000000000001,21.03368446875,33.84
2021-06-29 16:33:42.859375000,-37.5,-14.0,50.0,111.0034375,-15.99,21.0341248125,33.84
2021-06-29 16:33:42.867187500,-37.25,-14.0,50.0,111.00046875,-19.755,21.03456515625,33.84
2021-06-29 16:33:42.875000000,-37.0,-14.0,50.0,110.9975,-23.52,21.0350055,33.84
2021-06-29 16:33:42.882812500,-37.25,-13.75,50.0,110.99453125000001,-27.799999999999997,21.03544584375,33.84
2021-06-29 16:33:42.890625000,-37.5,-13.5,50.0,110.9915625,-32.08,21.0358861875,33.84
2021-06-29 16:33:42.898437500,-37.75,-13.25,50.0,110.98859375,-36.54,21.03632653125,33.84
2021-06-29 16:33:42.906250000,-38.0,-13.0,50.0,110.985625,-41.0,21.036766875,33.84
2021-06-29 16:33:42.914062500,-38.0,-13.0,50.0,110.98265625,-45.04,21.03720721875,33.84
2021-06-29 16:33:42.921875000,-38.0,-13.0,50.0,110.9796875,-49.08,21.037647562500002,33.84
2021-06-29 16:33:42.929687500,-38.0,-13.0,50.0,110.97671875,-51.945,21.038087906250002,33.84
2021-06-29 16:33:42.937500000,-38.0,-13.0,50.0,110.97375,-54.81,21.03852825,33.84
2021-06-29 16:33:42.945312500,-38.0,-13.25,50.0,110.97078125,-55.725,21.03896859375,33.84
2021-06-29 16:33:42.953125000,-38.0,-13.5,50.0,110.96781250000001,-56.64,21.0394089375,33.84
2021-06-29 16:33:42.960937500,-38.0,-13.75,50.0,110.96484375,-55.11,21.03984928125,33.84
2021-06-29 16:33:42.968750000,-38.0,-14.0,50.0,110.961875,-53.58,21.040289625,33.84
2021-06-29 16:33:42.976562500,-38.0,-14.0,50.0,110.95890625,-49.58,21.04072996875,33.84
2021-06-29 16:33:42.984375000,-38.0,-14.0,50.0,110.9559375,-45.58,21.0411703125,33.84
2021-06-29 16:33:42.992187500,-38.0,-14.0,50.0,110.95296875,-39.599999999999994,21.04161065625,33.84
2021-06-29 16:33:43.000000000,-38.0,-14.0,50.0,110.95,-33.62,21.042051,33.84
2021-06-29 16:33:43.007812500,-38.0,-13.75,50.0,110.94632812500001,-26.549999999999997,21.04233128125,33.839687500000004
2021-06-29 16:33:43.015625000,-38.0,-13.5,50.0,110.94265625,-19.48,21.0426115625,33.839375000000004
2021-06-29 16:33:43.023437500,-38.0,-13.25,50.0,110.938984375,-12.335,21.042891843750002,33.839062500000004
2021-06-29 16:33:43.031250000,-38.0,-13.0,50.0,110.93531250000001,-5.19,21.043172125,33.838750000000005
2021-06-29 16:33:43.039062500,-38.0,-13.0,50.0,110.931640625,1.1949999999999994,21.04345240625,33.838437500000005
2021-06-29 16:33:43.046875000,-38.0,-13.0,50.0,110.92796875,7.58,21.0437326875,33.838125000000005
2021-06-29 16:33:43.054687500,-38.0,-13.0,50.0,110.924296875,12.7,21.04401296875,33.837812500000005
2021-06-29 16:33:43.062500000,-38.0,-13.0,50.0,110.920625,17.82,21.044293250000003,33.837500000000006
2021-06-29 16:33:43.070312500,-38.0,-13.25,50.0,110.916953125,21.47,21.044573531250002,33.8371875
2021-06-29 16:33:43.078125000,-38.0,-13.5,50.0,110.91328125,25.12,21.0448538125,33.836875
2021-06-29 16:33:43.085937500,-38.0,-13.75,50.0,110.909609375,27.315,21.04513409375,33.8365625
2021-06-29 16:33:43.093750000,-38.0,-14.0,50.0,110.90593750000001,29.51,21.045414375,33.83625
2021-06-29 16:33:43.101562500,-38.0,-14.0,50.0,110.902265625,30.355,21.04569465625,33.8359375
2021-06-29 16:33:43.109375000,-38.0,-14.0,50.0,110.89859375,31.2,21.045974937500002,33.835625
2021-06-29 16:33:43.117187500,-38.0,-14.0,50.0,110.89492187500001,30.875,21.04625521875,33.8353125
2021-06-29 16:33:43.125000000,-38.0,-14.0,50.0,110.89125,30.55,21.0465355,33.835
2021-06-29 16:33:43.132812500,-38.0,-14.0,50.0,110.887578125,29.335,21.04681578125,33.8346875
2021-06-29 16:33:43.140625000,-38.0,-14.0,50.0,110.88390625000001,28.12,21.0470960625,33.834375
2021-06-29 16:33:43.148437500,-38.0,-14.0,50.0,110.880234375,26.42,21.047376343750003,33.8340625
2021-06-29 16:33:43.156250000,-38.0,-14.0,50.0,110.8765625,24.72,21.047656625000002,33.83375
2021-06-29 16:33:43.164062500,-37.75,-14.0,50.0,110.872890625,23.03,21.04793690625,33.8334375
2021-06-29 16:33:43.171875000,-37.5,-14.0,50.0,110.86921875,21.34,21.0482171875,33.833125
2021-06-29 16:33:43.179687500,-37.25,-14.0,50.0,110.865546875,20.055,21.04849746875,33.8328125
2021-06-29 16:33:43.187500000,-37.0,-14.0,50.0,110.861875,18.77,21.04877775,33.832499999999996
2021-06-29 16:33:43.195312500,-37.25,-14.0,50.0,110.858203125,18.060000000000002,21.049058031250002,33.832187499999996
2021-06-29 16:33:43.203125000,-37.5,-14.0,50.0,110.85453125000001,17.35,21.0493383125,33.831875
2021-06-29 16:33:43.210937500,-37.75,-14.0,50.0,110.850859375,17.08,21.04961859375,33.8315625
2021-06-29 16:33:43.218750000,-38.0,-14.0,50.0,110.8471875,16.81,21.049898875,33.83125
2021-06-29 16:33:43.226562500,-38.0,-14.0,50.0,110.84351562500001,16.615000000000002,21.05017915625,33.8309375
2021-06-29 16:33:43.234375000,-38.0,-14.0,50.0,110.83984375,16.42,21.050459437500002,33.830625
2021-06-29 16:33:43.242187500,-38.0,-14.0,50.0,110.836171875,15.870000000000001,21.050739718750002,33.8303125
2021-06-29 16:33:43.250000000,-38.0,-14.0,50.0,110.83250000000001,15.32,21.05102,33.83
2021-06-29 16:33:43.257812500,-37.75,-13.75,50.0,110.828828125,14.125,21.051620500000002,33.83
2021-06-29 16:33:43.265625000,-37.5,-13.5,50.0,110.82515625,12.93,21.052221000000003,33.83
2021-06-29 16:33:43.273437500,-37.25,-13.25,50.0,110.821484375,11.075,21.0528215,33.83
2021-06-29 16:33:43.281250000,-37.0,-13.0,50.0,110.8178125,9.22,21.053422,33.83
2021-06-29 16:33:43.289062500,-37.25,-13.0,50.25,110.81414062500001,6.94,21.054022500000002,33.83
2021-06-29 16:33:43.296875000,-37.5,-13.0,50.5,110.81046875,4.66,21.054623,33.83
2021-06-29 16:33:43.304687500,-37.75,-13.0,50.75,110.806796875,2.31,21.0552235,33.83
2021-06-29 16:33:43.312500000,-38.0,-13.0,51.0,110.80312500000001,-0.04,21.055824,33.83
2021-06-29 16:33:43.320312500,-38.0,-13.25,50.75,110.799453125,-2.14,21.056424500000002,33.83
2021-06-29 16:33:43.328125000,-38.0,-13.5,50.5,110.79578125,-4.24,21.057025000000003,33.83
2021-06-29 16:33:43.335937500,-38.0,-13.75,50.25,110.79210937500001,-5.975,21.0576255,33.83
2021-06-29 16:33:43.343750000,-38.0,-14.0,50.0,110.7884375,-7.71,21.058226,33.83
2021-06-29 16:33:43.351562500,-38.0,-14.0,50.0,110.784765625,-9.195,21.058826500000002,33.83
2021-06-29 16:33:43.359375000,-38.0,-14.0,50.0,110.78109375,-10.68,21.059427,33.83
2021-06-29 16:33:43.367187500,-38.0,-14.0,50.0,110.777421875,-12.23,21.0600275,33.83
2021-06-29 16:33:43.375000000,-38.0,-14.0,50.0,110.77375,-13.78,21.060628,33.83
2021-06-29 16:33:43.382812500,-38.0,-13.75,50.25,110.770078125,-15.825,21.061228500000002,33.83
2021-06-29 16:33:43.390625000,-38.0,-13.5,50.5,110.76640625,-17.87,21.061829000000003,33.83
2021-06-29 16:33:43.398437500,-38.0,-13.25,50.75,110.76273437500001,-20.810000000000002,21.0624295,33.83
2021-06-29 16:33:43.406250000,-38.0,-13.0,51.0,110.7590625,-23.75,21.06303,33.83
2021-06-29 16:33:43.414062500,-38.0,-13.0,50.75,110.755390625,-27.740000000000002,21.063630500000002,33.83
2021-06-29 16:33:43.421875000,-38.0,-13.0,50.5,110.75171875000001,-31.73,21.064231,33.83
2021-06-29 16:33:43.429687500,-38.0,-13.0,50.25,110.748046875,-36.57,21.0648315,33.83
2021-06-29 16:33:43.437500000,-38.0,-13.0,50.0,110.744375,-41.41,21.065432,33.83
2021-06-29 16:33:43.445312500,-38.0,-13.25,50.0,110.74070312500001,-46.485,21.066032500000002,33.83
2021-06-29 16:33:43.453125000,-38.0,-13.5,50.0,110.73703125,-51.56,21.066633000000003,33.83
2021-06-29 16:33:43.460937500,-38.0,-13.75,50.0,110.733359375,-55.915000000000006,21.0672335,33.83
2021-06-29 16:33:43.468750000,-38.0,-14.0,50.0,110.7296875,-60.27,21.067834,33.83
2021-06-29 16:33:43.476562500,-38.0,-13.75,50.0,110.726015625,-62.864999999999995,21.068434500000002,33.83
2021-06-29 16:33:43.484375000,-38.0,-13.5,50.0,110.72234375000001,-65.46,21.069035,33.83
2021-06-29 16:33:43.492187500,-38.0,-13.25,50.0,110.718671875,-65.50999999999999,21.0696355,33.83
2021-06-29 16:33:43.500000000,-38.0,-13.0,50.0,110.715,-65.56,21.070236,33.83
2021-06-29 16:33:43.507812500,-37.75,-13.0,50.0,110.71132812500001,-62.765,21.070396093750002,33.83
2021-06-29 16:33:43.515625000,-37.5,-13.0,50.0,110.70765625,-59.97,21.070556187500003,33.83
2021-06-29 16:33:43.523437500,-37.25,-13.0,50.0,110.703984375,-54.66,21.07071628125,33.83
2021-06-29 16:33:43.531250000,-37.0,-13.0,50.0,110.70031250000001,-49.35,21.070876375,33.83
2021-06-29 16:33:43.539062500,-37.0,-13.0,50.25,110.696640625,-42.355000000000004,21.071036468750002,33.83
2021-06-29 16:33:43.546875000,-37.0,-13.0,50.5,110.69296875,-35.36,21.0711965625,33.83
2021-06-29 16:33:43.554687500,-37.0,-13.0,50.75,110.689296875,-27.71,21.07135665625,33.83
2021-06-29 16:33:43.562500000,-37.0,-13.0,51.0,110.685625,-20.06,21.07151675,33.83
2021-06-29 16:33:43.570312500,-37.25,-13.0,50.75,110.681953125,-12.745,21.07167684375,33.83
2021-06-29 16:33:43.578125000,-37.5,-13.0,50.5,110.67828125,-5.43,21.071836937500002,33.83
2021-06-29 16:33:43.585937500,-37.75,-13.0,50.25,110.674609375,0.8499999999999996,21.07199703125,33.83
2021-06-29 16:33:43.593750000,-38.0,-13.0,50.0,110.67093750000001,7.13,21.072157125,33.83
2021-06-29 16:33:43.601562500,-38.0,-13.25,50.0,110.667265625,11.969999999999999,21.07231721875,33.83
2021-06-29 16:33:43.609375000,-38.0,-13.5,50.0,110.66359375,16.81,21.0724773125,33.83
2021-06-29 16:33:43.617187500,-38.0,-13.75,50.0,110.65992187500001,20.08,21.07263740625,33.83
2021-06-29 16:33:43.625000000,-38.0,-14.0,50.0,110.65625,23.35,21.0727975,33.83
2021-06-29 16:33:43.632812500,-37.75,-14.0,50.0,110.652578125,25.075000000000003,21.07295759375,33.83
2021-06-29 16:33:43.640625000,-37.5,-14.0,50.0,110.64890625000001,26.8,21.0731176875,33.83
2021-06-29 16:33:43.648437500,-37.25,-14.0,50.0,110.645234375,27.130000000000003,21.07327778125,33.83
2021-06-29 16:33:43.656250000,-37.0,-14.0,50.0,110.6415625,27.46,21.073437875,33.83
2021-06-29 16:33:43.664062500,-37.25,-13.75,50.0,110.637890625,26.68,21.07359796875,33.83
2021-06-29 16:33:43.671875000,-37.5,-13.5,50.0,110.63421875,25.9,21.073758062499998,33.83
2021-06-29 16:33:43.679687500,-37.75,-13.25,50.0,110.63054687500001,24.424999999999997,21.07391815625,33.83
2021-06-29 16:33:43.687500000,-38.0,-13.0,50.0,110.626875,22.95,21.07407825,33.83
2021-06-29 16:33:43.695312500,-38.0,-13.25,50.0,110.623203125,21.255,21.07423834375,33.83
2021-06-29 16:33:43.703125000,-38.0,-13.5,50.0,110.61953125000001,19.56,21.0743984375,33.83
2021-06-29 16:33:43.710937500,-38.0,-13.75,50.0,110.615859375,18.06,21.07455853125,33.83
2021-06-29 16:33:43.718750000,-38.0,-14.0,50.0,110.6121875,16.56,21.074718625,33.83
2021-06-29 16:33:43.726562500,-38.0,-13.75,50.0,110.60851562500001,15.5,21.07487871875,33.83
2021-06-29 16:33:43.734375000,-38.0,-13.5,50.0,110.60484375,14.44,21.075038812499997,33.83
2021-06-29 16:33:43.742187500,-38.0,-13.25,50.0,110.601171875,13.79,21.075198906249998,33.83
2021-06-29 16:33:43.750000000,-38.0,-13.0,50.0,110.5975,13.14,21.075359,33.83
2021-06-29 16:33:43.757812500,-38.0,-13.0,50.0,110.593828125,12.675,21.074678437499998,33.83
2021-06-29 16:33:43.765625000,-38.0,-13.0,50.0,110.59015625,12.21,21.073997875,33.83
2021-06-29 16:33:43.773437500,-38.0,-13.0,50.0,110.586484375,11.600000000000001,21.0733173125,33.83
2021-06-29 16:33:43.781250000,-38.0,-13.0,50.0,110.5828125,10.99,21.07263675,33.83
2021-06-29 16:33:43.789062500,-38.0,-13.25,50.0,110.57914062500001,9.965,21.0719561875,33.83
2021-06-29 16:33:43.796875000,-38.0,-13.5,50.0,110.57546875,8.94,21.071275625,33.83
2021-06-29 16:33:43.804687500,-38.0,-13.75,50.0,110.571796875,7.414999999999999,21.0705950625,33.83
2021-06-29 16:33:43.812500000,-38.0,-14.0,50.0,110.56812500000001,5.89,21.0699145,33.83
2021-06-29 16:33:43.820312500,-37.75,-13.75,50.25,110.564453125,3.96,21.069233937499998,33.83
2021-06-29 16:33:43.828125000,-37.5,-13.5,50.5,110.56078125,2.03,21.068553375,33.83
2021-06-29 16:33:43.835937500,-37.25,-13.25,50.75,110.55710937500001,-0.07500000000000018,21.0678728125,33.83
2021-06-29 16:33:43.843750000,-37.0,-13.0,51.0,110.5534375,-2.18,21.067192249999998,33.83
2021-06-29 16:33:43.851562500,-37.25,-13.25,50.75,110.549765625,-4.26,21.0665116875,33.83
2021-06-29 16:33:43.859375000,-37.5,-13.5,50.5,110.54609375,-6.34,21.065831125,33.83
2021-06-29 16:33:43.867187500,-37.75,-13.75,50.25,110.542421875,-8.3,21.0651505625,33.83
2021-06-29 16:33:43.875000000,-38.0,-14.0,50.0,110.53875000000001,-10.26,21.06447,33.83
2021-06-29 16:33:43.882812500,-38.0,-14.0,50.0,110.535078125,-12.195,21.0637894375,33.83
2021-06-29 16:33:43.890625000,-38.0,-14.0,50.0,110.53140625,-14.13,21.063108875,33.83
2021-06-29 16:33:43.898437500,-38.0,-14.0,50.0,110.52773437500001,-16.31,21.0624283125,33.83
