TimeStamp,empatica.acc.x,empatica.acc.y,empatica.acc.z,empatica.hr,empatica.bvp,empatica.eda,empatica.temp
2021-06-29 16:16:41.125000000,-64.0,-9.0,4.0,76.7625,-96.06,3.9078825,33.995000000000005
2021-06-29 16:16:41.132812500,-64.0,-9.0,4.0,76.77203125,-95.945,3.90840296875,33.9946875
2021-06-29 16:16:41.140625000,-64.0,-9.0,4.0,76.78156249999999,-95.83,3.9089234375,33.994375
2021-06-29 16:16:41.148437500,-64.0,-9.0,4.0,76.79109375,-92.17,3.90944390625,33.9940625
2021-06-29 16:16:41.156250000,-64.0,-9.0,4.0,76.800625,-88.51,3.909964375,33.99375
2021-06-29 16:16:41.164062500,-64.0,-9.0,4.0,76.81015625,-81.535,3.91048484375,33.9934375
2021-06-29 16:16:41.171875000,-64.0,-9.0,4.0,76.8196875,-74.56,3.9110053125,33.993125
2021-06-29 16:16:41.179687500,-64.0,-9.0,4.0,76.82921875,-65.18,3.91152578125,33.9928125
2021-06-29 16:16:41.187500000,-64.0,-9.0,4.0,76.83875,-55.8,3.91204625,33.9925
2021-06-29 16:16:41.195312500,-64.0,-9.0,4.0,76.84828125,-45.29,3.91256671875,33.9921875
2021-06-29 16:16:41.203125000,-64.0,-9.0,4.0,76.8578125,-34.78,3.9130871875,33.991875
2021-06-29 16:16:41.210937500,-64.0,-9.0,4.0,76.86734375,-24.4,3.91360765625,33.9915625
2021-06-29 16:16:41.218750000,-64.0,-9.0,4.0,76.876875,-14.02,3.914128125,33.99125
2021-06-29 16:16:41.226562500,-64.25,-8.75,3.75,76.88640625,-4.699999999999999,3.91464859375,33.9909375
2021-06-29 16:16:41.234375000,-64.5,-8.5,3.5,76.8959375,4.62,3.9151690625,33.990625
2021-06-29 16:16:41.242187500,-64.75,-8.25,3.25,76.90546875,12.41,3.91568953125,33.9903125
2021-06-29 16:16:41.250000000,-65.0,-8.0,3.0,76.91499999999999,20.2,3.91621,33.99
2021-06-29 16:16:41.257812500,-65.0,-8.0,3.0,76.92453125,26.369999999999997,3.91623378125,33.99
2021-06-29 16:16:41.265625000,-65.0,-8.0,3.0,76.9340625,32.54,3.9162575625,33.99
2021-06-29 16:16:41.273437500,-65.0,-8.0,3.0,76.94359375,37.2,3.91628134375,33.99
2021-06-29 16:16:41.281250000,-65.0,-8.0,3.0,76.953125,41.86,3.916305125,33.99
2021-06-29 16:16:41.289062500,-65.0,-8.0,3.0,76.96265625,45.175,3.91632890625,33.99
2021-06-29 16:16:41.296875000,-65.0,-8.0,3.0,76.9721875,48.49,3.9163526875,33.99
2021-06-29 16:16:41.304687500,-65.0,-8.0,3.0,76.98171875,50.575,3.9163764687500002,33.99
2021-06-29 16:16:41.312500000,-65.0,-8.0,3.0,76.99125,52.66,3.91640025,33.99
2021-06-29 16:16:41.320312500,-65.0,-8.0,3.0,77.00078125,53.62,3.91642403125,33.99
2021-06-29 16:16:41.328125000,-65.0,-8.0,3.0,77.0103125,54.58,3.9164478125,33.99
2021-06-29 16:16:41.335937500,-65.0,-8.0,3.0,77.01984374999999,54.545,3.91647159375,33.99
2021-06-29 16:16:41.343750000,-65.0,-8.0,3.0,77.029375,54.51,3.9164953750000002,33.99
2021-06-29 16:16:41.351562500,-64.75,-8.25,3.0,77.03890625,53.709999999999994,3.91651915625,33.99
2021-06-29 16:16:41.359375000,-64.5,-8.5,3.0,77.0484375,52.91,3.9165429375,33.99
2021-06-29 16:16:41.367187500,-64.25,-8.75,3.0,77.05796875,51.644999999999996,3.91656671875,33.99
2021-06-29 16:16:41.375000000,-64.0,-9.0,3.0,77.0675,50.38,3.9165905,33.99
2021-06-29 16:16:41.382812500,-64.25,-9.0,3.0,77.07703125,48.97,3.91661428125,33.99
2021-06-29 16:16:41.390625000,-64.5,-9.0,3.0,77.0865625,47.56,3.9166380625,33.99
2021-06-29 16:16:41.398437500,-64.75,-9.0,3.0,77.09609375,46.255,3.91666184375,33.99
2021-06-29 16:16:41.406250000,-65.0,-9.0,3.0,77.105625,44.95,3.916685625,33.99
2021-06-29 16:16:41.414062500,-65.0,-9.0,3.25,77.11515625,43.870000000000005,3.9167094062500003,33.99
2021-06-29 16:16:41.421875000,-65.0,-9.0,3.5,77.1246875,42.79,3.9167331875,33.99
2021-06-29 16:16:41.429687500,-65.0,-9.0,3.75,77.13421875,41.925,3.91675696875,33.99
2021-06-29 16:16:41.437500000,-65.0,-9.0,4.0,77.14375,41.06,3.91678075,33.99
2021-06-29 16:16:41.445312500,-65.25,-8.75,4.0,77.15328124999999,40.269999999999996,3.91680453125,33.99
2021-06-29 16:16:41.453125000,-65.5,-8.5,4.0,77.1628125,39.48,3.9168283125000003,33.99
2021-06-29 16:16:41.460937500,-65.75,-8.25,4.0,77.17234375,38.595,3.91685209375,33.99
2021-06-29 16:16:41.468750000,-66.0,-8.0,4.0,77.181875,37.71,3.916875875,33.99
2021-06-29 16:16:41.476562500,-65.5,-8.0,4.0,77.19140625,36.575,3.91689965625,33.99
2021-06-29 16:16:41.484375000,-65.0,-8.0,4.0,77.2009375,35.44,3.9169234375000004,33.99
2021-06-29 16:16:41.492187500,-64.5,-8.0,4.0,77.21046875,33.959999999999994,3.9169472187500003,33.99
2021-06-29 16:16:41.500000000,-64.0,-8.0,4.0,77.22,32.48,3.916971,33.99
2021-06-29 16:16:41.507812500,-64.5,-8.0,4.0,77.22953125,30.589999999999996,3.9172112187500003,33.99
2021-06-29 16:16:41.515625000,-65.0,-8.0,4.0,77.2390625,28.7,3.9174514375,33.99
2021-06-29 16:16:41.523437500,-65.5,-8.0,4.0,77.24859375,26.369999999999997,3.91769165625,33.99
2021-06-29 16:16:41.531250000,-66.0,-8.0,4.0,77.25812499999999,24.04,3.9179318750000003,33.99
2021-06-29 16:16:41.539062500,-68.0,-9.0,1.25,77.26765625,21.28,3.91817209375,33.99
2021-06-29 16:16:41.546875000,-70.0,-10.0,-1.5,77.2771875,18.52,3.9184123125,33.99
2021-06-29 16:16:41.554687500,-72.0,-11.0,-4.25,77.28671875,15.375,3.9186525312500002,33.99
2021-06-29 16:16:41.562500000,-74.0,-12.0,-7.0,77.29625,12.23,3.9188927500000004,33.99
2021-06-29 16:16:41.570312500,-73.25,-10.75,-8.75,77.30578125,8.815000000000001,3.91913296875,33.99
2021-06-29 16:16:41.578125000,-72.5,-9.5,-10.5,77.3153125,5.4,3.9193731875,33.99
2021-06-29 16:16:41.585937500,-71.75,-8.25,-12.25,77.32484375,1.8650000000000002,3.9196134062500003,33.99
2021-06-29 16:16:41.593750000,-71.0,-7.0,-14.0,77.334375,-1.67,3.919853625,33.99
2021-06-29 16:16:41.601562500,-70.5,-7.0,-4.5,77.34390625,-5.15,3.92009384375,33.99
2021-06-29 16:16:41.609375000,-70.0,-7.0,5.0,77.3534375,-8.63,3.9203340625000003,33.99
2021-06-29 16:16:41.617187500,-69.5,-7.0,14.5,77.36296875,-11.925,3.92057428125,33.99
2021-06-29 16:16:41.625000000,-69.0,-7.0,24.0,77.3725,-15.22,3.9208145,33.99
2021-06-29 16:16:41.632812500,-64.25,-7.75,24.75,77.38203125,-18.295,3.9210547187500002,33.99
2021-06-29 16:16:41.640625000,-59.5,-8.5,25.5,77.39156249999999,-21.37,3.9212949375,33.99
2021-06-29 16:16:41.648437500,-54.75,-9.25,26.25,77.40109375,-24.33,3.92153515625,33.99
2021-06-29 16:16:41.656250000,-50.0,-10.0,27.0,77.410625,-27.29,3.921775375,33.99
2021-06-29 16:16:41.664062500,-55.0,-8.75,21.75,77.42015625,-30.36,3.92201559375,33.99
2021-06-29 16:16:41.671875000,-60.0,-7.5,16.5,77.4296875,-33.43,3.9222558125,33.99
2021-06-29 16:16:41.679687500,-65.0,-6.25,11.25,77.43921875,-36.885000000000005,3.92249603125,33.99
2021-06-29 16:16:41.687500000,-70.0,-5.0,6.0,77.44875,-40.34,3.92273625,33.99
2021-06-29 16:16:41.695312500,-70.75,-5.75,9.5,77.45828125,-44.365,3.92297646875,33.99
2021-06-29 16:16:41.703125000,-71.5,-6.5,13.0,77.4678125,-48.39,3.9232166875,33.99
2021-06-29 16:16:41.710937500,-72.25,-7.25,16.5,77.47734375,-52.945,3.92345690625,33.99
2021-06-29 16:16:41.718750000,-73.0,-8.0,20.0,77.486875,-57.5,3.923697125,33.99
2021-06-29 16:16:41.726562500,-71.0,-9.25,21.25,77.49640624999999,-62.19,3.92393734375,33.99
2021-06-29 16:16:41.734375000,-69.0,-10.5,22.5,77.5059375,-66.88,3.9241775625,33.99
2021-06-29 16:16:41.742187500,-67.0,-11.75,23.75,77.51546875,-70.96000000000001,3.92441778125,33.99
2021-06-29 16:16:41.750000000,-65.0,-13.0,25.0,77.525,-75.04,3.924658,33.99
2021-06-29 16:16:41.757812500,-66.0,-11.5,23.25,77.53453125,-77.555,3.92441778125,33.99
2021-06-29 16:16:41.765625000,-67.0,-10.0,21.5,77.5440625,-80.07,3.9241775625,33.99
2021-06-29 16:16:41.773437500,-68.0,-8.5,19.75,77.55359375,-80.16999999999999,3.92393734375,33.99
2021-06-29 16:16:41.781250000,-69.0,-7.0,18.0,77.563125,-80.27,3.923697125,33.99
2021-06-29 16:16:41.789062500,-65.5,-9.75,20.5,77.57265625,-77.47999999999999,3.92345690625,33.99
2021-06-29 16:16:41.796875000,-62.0,-12.5,23.0,77.5821875,-74.69,3.9232166875,33.99
2021-06-29 16:16:41.804687500,-58.5,-15.25,25.5,77.59171875,-69.1,3.92297646875,33.99
2021-06-29 16:16:41.812500000,-55.0,-18.0,28.0,77.60125,-63.51,3.92273625,33.99
2021-06-29 16:16:41.820312500,-52.5,-19.5,30.25,77.61078125,-55.795,3.92249603125,33.99
2021-06-29 16:16:41.828125000,-50.0,-21.0,32.5,77.6203125,-48.08,3.9222558125,33.99
2021-06-29 16:16:41.835937500,-47.5,-22.5,34.75,77.62984374999999,-39.245,3.92201559375,33.99
2021-06-29 16:16:41.843750000,-45.0,-24.0,37.0,77.639375,-30.41,3.921775375,33.99
2021-06-29 16:16:41.851562500,-43.25,-24.25,37.5,77.64890625,-21.509999999999998,3.92153515625,33.99
2021-06-29 16:16:41.859375000,-41.5,-24.5,38.0,77.6584375,-12.61,3.9212949375,33.99
2021-06-29 16:16:41.867187500,-39.75,-24.75,38.5,77.66796875,-4.51,3.9210547187500002,33.99
2021-06-29 16:16:41.875000000,-38.0,-25.0,39.0,77.6775,3.59,3.9208145,33.99
2021-06-29 16:16:41.882812500,-34.0,-25.75,39.5,77.68703125,10.37,3.92057428125,33.99
2021-06-29 16:16:41.890625000,-30.0,-26.5,40.0,77.6965625,17.15,3.9203340625000003,33.99
2021-06-29 16:16:41.898437500,-26.0,-27.25,40.5,77.70609375,22.38,3.92009384375,33.99
2021-06-29 16:16:41.906250000,-22.0,-28.0,41.0,77.715625,27.61,3.919853625,33.99
2021-06-29 16:16:41.914062500,-28.25,-26.25,38.25,77.72515625,31.24,3.9196134062500003,33.99
2021-06-29 16:16:41.921875000,-34.5,-24.5,35.5,77.73468749999999,34.87,3.9193731875,33.99
2021-06-29 16:16:41.929687500,-40.75,-22.75,32.75,77.74421875,36.97,3.91913296875,33.99
2021-06-29 16:16:41.937500000,-47.0,-21.0,30.0,77.75375,39.07,3.9188927500000004,33.99
2021-06-29 16:16:41.945312500,-40.0,-21.5,33.0,77.76328124999999,39.78,3.9186525312500002,33.99
2021-06-29 16:16:41.953125000,-33.0,-22.0,36.0,77.7728125,40.49,3.9184123125,33.99
2021-06-29 16:16:41.960937500,-26.0,-22.5,39.0,77.78234375,40.040000000000006,3.91817209375,33.99
2021-06-29 16:16:41.968750000,-19.0,-23.0,42.0,77.791875,39.59,3.9179318750000003,33.99
2021-06-29 16:16:41.976562500,-20.75,-22.25,40.75,77.80140625,38.335,3.91769165625,33.99
2021-06-29 16:16:41.984375000,-22.5,-21.5,39.5,77.8109375,37.08,3.9174514375,33.99
2021-06-29 16:16:41.992187500,-24.25,-20.75,38.25,77.82046875,35.45,3.9172112187500003,33.99
2021-06-29 16:16:42.000000000,-26.0,-20.0,37.0,77.83,33.82,3.916971,33.99
2021-06-29 16:16:42.007812500,-24.75,-18.5,39.25,77.838515625,32.225,3.9161703125000003,33.9903125
2021-06-29 16:16:42.015625000,-23.5,-17.0,41.5,77.84703125,30.63,3.9153696250000003,33.990625
2021-06-29 16:16:42.023437500,-22.25,-15.5,43.75,77.855546875,29.34,3.9145689375000003,33.9909375
2021-06-29 16:16:42.031250000,-21.0,-14.0,46.0,77.8640625,28.05,3.9137682500000004,33.99125
2021-06-29 16:16:42.039062500,-22.0,-12.5,49.75,77.872578125,27.134999999999998,3.9129675625,33.9915625
2021-06-29 16:16:42.046875000,-23.0,-11.0,53.5,77.88109375,26.22,3.912166875,33.991875
2021-06-29 16:16:42.054687500,-24.0,-9.5,57.25,77.88960937499999,25.564999999999998,3.9113661875,33.9921875
2021-06-29 16:16:42.062500000,-25.0,-8.0,61.0,77.898125,24.91,3.9105655,33.9925
2021-06-29 16:16:42.070312500,-27.0,-7.5,60.25,77.906640625,24.305,3.9097648125,33.9928125
2021-06-29 16:16:42.078125000,-29.0,-7.0,59.5,77.91515625,23.7,3.9089641250000002,33.993125
2021-06-29 16:16:42.085937500,-31.0,-6.5,58.75,77.923671875,22.92,3.9081634375000003,33.9934375
2021-06-29 16:16:42.093750000,-33.0,-6.0,58.0,77.9321875,22.14,3.90736275,33.99375
2021-06-29 16:16:42.101562500,-34.0,-2.5,60.25,77.940703125,21.015,3.9065620625,33.9940625
2021-06-29 16:16:42.109375000,-35.0,1.0,62.5,77.94921875,19.89,3.905761375,33.994375
2021-06-29 16:16:42.117187500,-36.0,4.5,64.75,77.957734375,18.375,3.9049606875,33.9946875
2021-06-29 16:16:42.125000000,-37.0,8.0,67.0,77.96625,16.86,3.90416,33.995000000000005
2021-06-29 16:16:42.132812500,-29.25,5.0,68.75,77.974765625,14.975,3.9033593125,33.995312500000004
2021-06-29 16:16:42.140625000,-21.5,2.0,70.5,77.98328125,13.09,3.902558625,33.995625000000004
2021-06-29 16:16:42.148437500,-13.75,-1.0,72.25,77.991796875,10.885,3.9017579375,33.995937500000004
2021-06-29 16:16:42.156250000,-6.0,-4.0,74.0,78.00031249999999,8.68,3.9009572500000003,33.99625
2021-06-29 16:16:42.164062500,-11.75,-4.75,67.75,78.008828125,6.175,3.9001565625,33.9965625
2021-06-29 16:16:42.171875000,-17.5,-5.5,61.5,78.01734375,3.67,3.899355875,33.996875
2021-06-29 16:16:42.179687500,-23.25,-6.25,55.25,78.025859375,0.8500000000000001,3.8985551875,33.9971875
2021-06-29 16:16:42.187500000,-29.0,-7.0,49.0,78.034375,-1.97,3.8977545,33.9975
2021-06-29 16:16:42.195312500,-28.5,-8.75,50.5,78.042890625,-5.12,3.8969538125,33.9978125
2021-06-29 16:16:42.203125000,-28.0,-10.5,52.0,78.05140625,-8.27,3.896153125,33.998125
2021-06-29 16:16:42.210937500,-27.5,-12.25,53.5,78.059921875,-11.69,3.8953524375,33.9984375
2021-06-29 16:16:42.218750000,-27.0,-14.0,55.0,78.0684375,-15.11,3.8945517499999998,33.99875
2021-06-29 16:16:42.226562500,-27.0,-16.75,54.5,78.076953125,-18.63,3.8937510625,33.9990625
2021-06-29 16:16:42.234375000,-27.0,-19.5,54.0,78.08546875,-22.15,3.892950375,33.999375
2021-06-29 16:16:42.242187500,-27.0,-22.25,53.5,78.093984375,-25.564999999999998,3.8921496875,33.9996875
2021-06-29 16:16:42.250000000,-27.0,-25.0,53.0,78.10249999999999,-28.98,3.891349,34.0
2021-06-29 16:16:42.257812500,-26.0,-24.0,53.25,78.111015625,-32.105,3.89279025,34.0
2021-06-29 16:16:42.265625000,-25.0,-23.0,53.5,78.11953125,-35.23,3.8942315,34.0
2021-06-29 16:16:42.273437500,-24.0,-22.0,53.75,78.128046875,-38.095,3.89567275,34.0
2021-06-29 16:16:42.281250000,-23.0,-21.0,54.0,78.1365625,-40.96,3.897114,34.0
2021-06-29 16:16:42.289062500,-24.0,-21.0,53.5,78.145078125,-43.84,3.89855525,34.0
2021-06-29 16:16:42.296875000,-25.0,-21.0,53.0,78.15359375,-46.72,3.8999965,34.0
2021-06-29 16:16:42.304687500,-26.0,-21.0,52.5,78.162109375,-50.114999999999995,3.90143775,34.0
2021-06-29 16:16:42.312500000,-27.0,-21.0,52.0,78.170625,-53.51,3.902879,34.0
2021-06-29 16:16:42.320312500,-26.0,-20.5,54.0,78.179140625,-57.91,3.90432025,34.0
2021-06-29 16:16:42.328125000,-25.0,-20.0,56.0,78.18765625,-62.31,3.9057615,34.0
2021-06-29 16:16:42.335937500,-24.0,-19.5,58.0,78.196171875,-67.86,3.90720275,34.0
2021-06-29 16:16:42.343750000,-23.0,-19.0,60.0,78.2046875,-73.41,3.908644,34.0
2021-06-29 16:16:42.351562500,-25.0,-17.25,60.0,78.21320312499999,-79.625,3.91008525,34.0
2021-06-29 16:16:42.359375000,-27.0,-15.5,60.0,78.22171875,-85.84,3.9115265,34.0
2021-06-29 16:16:42.367187500,-29.0,-13.75,60.0,78.230234375,-91.6,3.91296775,34.0
2021-06-29 16:16:42.375000000,-31.0,-12.0,60.0,78.23875,-97.36,3.914409,34.0
2021-06-29 16:16:42.382812500,-31.5,-11.5,59.25,78.247265625,-101.185,3.91585025,34.0
2021-06-29 16:16:42.390625000,-32.0,-11.0,58.5,78.25578125,-105.01,3.9172915,34.0
2021-06-29 16:16:42.398437500,-32.5,-10.5,57.75,78.264296875,-105.62,3.91873275,34.0
2021-06-29 16:16:42.406250000,-33.0,-10.0,57.0,78.2728125,-106.23,3.9201740000000003,34.0
2021-06-29 16:16:42.414062500,-30.0,-10.0,56.75,78.281328125,-103.075,3.92161525,34.0
2021-06-29 16:16:42.421875000,-27.0,-10.0,56.5,78.28984375,-99.92,3.9230565,34.0
2021-06-29 16:16:42.429687500,-24.0,-10.0,56.25,78.298359375,-93.495,3.92449775,34.0
2021-06-29 16:16:42.437500000,-21.0,-10.0,56.0,78.306875,-87.07,3.925939,34.0
2021-06-29 16:16:42.445312500,-20.0,-10.75,57.5,78.315390625,-78.84,3.92738025,34.0
2021-06-29 16:16:42.453125000,-19.0,-11.5,59.0,78.32390625,-70.61,3.9288215,34.0
2021-06-29 16:16:42.460937500,-18.0,-12.25,60.5,78.332421875,-62.5,3.9302627500000002,34.0
2021-06-29 16:16:42.468750000,-17.0,-13.0,62.0,78.3409375,-54.39,3.931704,34.0
2021-06-29 16:16:42.476562500,-14.75,-14.0,62.25,78.349453125,-48.1,3.93314525,34.0
2021-06-29 16:16:42.484375000,-12.5,-15.0,62.5,78.35796875,-41.81,3.9345865,34.0
2021-06-29 16:16:42.492187500,-10.25,-16.0,62.75,78.366484375,-38.150000000000006,3.93602775,34.0
2021-06-29 16:16:42.500000000,-8.0,-17.0,63.0,78.375,-34.49,3.937469,34.0
2021-06-29 16:16:42.507812500,-8.5,-17.5,59.75,78.383515625,-33.24,3.9384298125,34.0
2021-06-29 16:16:42.515625000,-9.0,-18.0,56.5,78.39203125,-31.99,3.939390625,34.0
2021-06-29 16:16:42.523437500,-9.5,-18.5,53.25,78.400546875,-32.175,3.9403514375,34.0
2021-06-29 16:16:42.531250000,-10.0,-19.0,50.0,78.4090625,-32.36,3.94131225,34.0
2021-06-29 16:16:42.539062500,-12.0,-18.75,50.25,78.417578125,-32.989999999999995,3.9422730625,34.0
2021-06-29 16:16:42.546875000,-14.0,-18.5,50.5,78.42609375,-33.62,3.943233875,34.0
2021-06-29 16:16:42.554687500,-16.0,-18.25,50.75,78.434609375,-34.205,3.9441946875,34.0
2021-06-29 16:16:42.562500000,-18.0,-18.0,51.0,78.443125,-34.79,3.9451555000000003,34.0
2021-06-29 16:16:42.570312500,-18.25,-17.0,51.75,78.451640625,-35.655,3.9461163125,34.0
2021-06-29 16:16:42.578125000,-18.5,-16.0,52.5,78.46015625,-36.52,3.947077125,34.0
2021-06-29 16:16:42.585937500,-18.75,-15.0,53.25,78.468671875,-38.545,3.9480379375,34.0
2021-06-29 16:16:42.593750000,-19.0,-14.0,54.0,78.4771875,-40.57,3.94899875,34.0
2021-06-29 16:16:42.601562500,-19.5,-13.5,54.5,78.485703125,-44.735,3.9499595625,34.0
2021-06-29 16:16:42.609375000,-20.0,-13.0,55.0,78.49421875,-48.9,3.950920375,34.0
2021-06-29 16:16:42.617187500,-20.5,-12.5,55.5,78.502734375,-55.599999999999994,3.9518811875,34.0
2021-06-29 16:16:42.625000000,-21.0,-12.0,56.0,78.51125,-62.3,3.952842,34.0
2021-06-29 16:16:42.632812500,-21.75,-11.75,57.25,78.519765625,-71.03,3.9538028124999998,34.0
2021-06-29 16:16:42.640625000,-22.5,-11.5,58.5,78.52828125,-79.76,3.954763625,34.0
2021-06-29 16:16:42.648437500,-23.25,-11.25,59.75,78.53679687500001,-89.30000000000001,3.9557244375,34.0
2021-06-29 16:16:42.656250000,-24.0,-11.0,61.0,78.5453125,-98.84,3.95668525,34.0
2021-06-29 16:16:42.664062500,-24.75,-11.0,61.0,78.553828125,-107.58500000000001,3.9576460625,34.0
2021-06-29 16:16:42.671875000,-25.5,-11.0,61.0,78.56234375,-116.33,3.958606875,34.0
2021-06-29 16:16:42.679687500,-26.25,-11.0,61.0,78.570859375,-122.60999999999999,3.9595676875,34.0
2021-06-29 16:16:42.687500000,-27.0,-11.0,61.0,78.579375,-128.89,3.9605284999999997,34.0
2021-06-29 16:16:42.695312500,-27.5,-10.25,61.5,78.587890625,-130.86,3.9614893125,34.0
2021-06-29 16:16:42.703125000,-28.0,-9.5,62.0,78.59640625,-132.83,3.9624501249999997,34.0
2021-06-29 16:16:42.710937500,-28.5,-8.75,62.5,78.604921875,-128.48000000000002,3.9634109375,34.0
2021-06-29 16:16:42.718750000,-29.0,-8.0,63.0,78.6134375,-124.13,3.9643717499999998,34.0
2021-06-29 16:16:42.726562500,-29.0,-8.0,63.25,78.621953125,-111.755,3.9653325625,34.0
2021-06-29 16:16:42.734375000,-29.0,-8.0,63.5,78.63046875,-99.38,3.966293375,34.0
2021-06-29 16:16:42.742187500,-29.0,-8.0,63.75,78.638984375,-78.66,3.9672541875,34.0
2021-06-29 16:16:42.750000000,-29.0,-8.0,64.0,78.64750000000001,-57.94,3.968215,34.0
2021-06-29 16:16:42.757812500,-26.75,-8.5,63.25,78.656015625,-30.709999999999997,3.96845521875,34.0
2021-06-29 16:16:42.765625000,-24.5,-9.0,62.5,78.66453125,-3.48,3.9686954374999996,34.0
2021-06-29 16:16:42.773437500,-22.25,-9.5,61.75,78.673046875,26.24,3.9689356562499998,34.0
2021-06-29 16:16:42.781250000,-20.0,-10.0,61.0,78.6815625,55.96,3.969175875,34.0
2021-06-29 16:16:42.789062500,-19.5,-10.0,60.75,78.690078125,83.05,3.96941609375,34.0
2021-06-29 16:16:42.796875000,-19.0,-10.0,60.5,78.69859375,110.14,3.9696563124999997,34.0
2021-06-29 16:16:42.804687500,-18.5,-10.0,60.25,78.707109375,130.135,3.96989653125,34.0
2021-06-29 16:16:42.812500000,-18.0,-10.0,60.0,78.715625,150.13,3.97013675,34.0
2021-06-29 16:16:42.820312500,-17.0,-11.0,60.5,78.724140625,160.68,3.9703769687499997,34.0
2021-06-29 16:16:42.828125000,-16.0,-12.0,61.0,78.73265625,171.23,3.9706171875,34.0
2021-06-29 16:16:42.835937500,-15.0,-13.0,61.5,78.741171875,172.845,3.97085740625,34.0
2021-06-29 16:16:42.843750000,-14.0,-14.0,62.0,78.74968750000001,174.46,3.971097625,34.0
2021-06-29 16:16:42.851562500,-14.0,-13.75,60.75,78.758203125,169.805,3.9713378437499998,34.0
2021-06-29 16:16:42.859375000,-14.0,-13.5,59.5,78.76671875,165.15,3.9715780625,34.0
2021-06-29 16:16:42.867187500,-14.0,-13.25,58.25,78.775234375,157.445,3.97181828125,34.0
2021-06-29 16:16:42.875000000,-14.0,-13.0,57.0,78.78375,149.74,3.9720585,34.0
2021-06-29 16:16:42.882812500,-14.5,-13.25,56.75,78.792265625,141.19,3.97229871875,34.0
2021-06-29 16:16:42.890625000,-15.0,-13.5,56.5,78.80078125,132.64,3.9725389375,34.0
2021-06-29 16:16:42.898437500,-15.5,-13.75,56.25,78.809296875,123.98499999999999,3.97277915625,34.0
2021-06-29 16:16:42.906250000,-16.0,-14.0,56.0,78.8178125,115.33,3.973019375,34.0
2021-06-29 16:16:42.914062500,-16.5,-13.25,57.25,78.826328125,106.505,3.97325959375,34.0
2021-06-29 16:16:42.921875000,-17.0,-12.5,58.5,78.83484375,97.68,3.9734998125,34.0
2021-06-29 16:16:42.929687500,-17.5,-11.75,59.75,78.843359375,88.775,3.97374003125,34.0
2021-06-29 16:16:42.937500000,-18.0,-11.0,61.0,78.851875,79.87,3.97398025,34.0
2021-06-29 16:16:42.945312500,-19.0,-10.25,61.75,78.86039062500001,71.795,3.97422046875,34.0
2021-06-29 16:16:42.953125000,-20.0,-9.5,62.5,78.86890625,63.72,3.9744606875,34.0
2021-06-29 16:16:42.960937500,-21.0,-8.75,63.25,78.877421875,57.845,3.97470090625,34.0
2021-06-29 16:16:42.968750000,-22.0,-8.0,64.0,78.8859375,51.97,3.974941125,34.0
2021-06-29 16:16:42.976562500,-21.5,-8.0,63.25,78.894453125,49.555,3.97518134375,34.0
2021-06-29 16:16:42.984375000,-21.0,-8.0,62.5,78.90296875,47.14,3.9754215625000002,34.0
2021-06-29 16:16:42.992187500,-20.5,-8.0,61.75,78.911484375,48.545,3.97566178125,34.0
2021-06-29 16:16:43.000000000,-20.0,-8.0,61.0,78.92,49.95,3.975902,34.0
2021-06-29 16:16:43.007812500,-22.0,-8.25,61.5,78.9278125,54.805,3.97566178125,33.9996875
2021-06-29 16:16:43.015625000,-24.0,-8.5,62.0,78.935625,59.66,3.9754215625000002,33.999375
2021-06-29 16:16:43.023437500,-26.0,-8.75,62.5,78.9434375,66.16499999999999,3.97518134375,33.9990625
2021-06-29 16:16:43.031250000,-28.0,-9.0,63.0,78.95125,72.67,3.974941125,33.99875
2021-06-29 16:16:43.039062500,-23.75,-10.75,60.75,78.9590625,77.685,3.97470090625,33.9984375
2021-06-29 16:16:43.046875000,-19.5,-12.5,58.5,78.966875,82.7,3.9744606875,33.998125
2021-06-29 16:16:43.054687500,-15.25,-14.25,56.25,78.9746875,83.23,3.97422046875,33.9978125
2021-06-29 16:16:43.062500000,-11.0,-16.0,54.0,78.9825,83.76,3.97398025,33.9975
2021-06-29 16:16:43.070312500,-11.25,-17.25,53.25,78.9903125,78.71000000000001,3.97374003125,33.9971875
2021-06-29 16:16:43.078125000,-11.5,-18.5,52.5,78.998125,73.66,3.9734998125,33.996875
2021-06-29 16:16:43.085937500,-11.75,-19.75,51.75,79.0059375,64.53,3.97325959375,33.9965625
2021-06-29 16:16:43.093750000,-12.0,-21.0,51.0,79.01375,55.4,3.973019375,33.99625
2021-06-29 16:16:43.101562500,-14.75,-17.5,52.5,79.0215625,45.025,3.97277915625,33.995937500000004
2021-06-29 16:16:43.109375000,-17.5,-14.0,54.0,79.029375,34.65,3.9725389375,33.995625000000004
2021-06-29 16:16:43.117187500,-20.25,-10.5,55.5,79.0371875,25.81,3.97229871875,33.995312500000004
2021-06-29 16:16:43.125000000,-23.0,-7.0,57.0,79.045,16.97,3.9720585,33.995000000000005
2021-06-29 16:16:43.132812500,-23.5,-6.75,57.0,79.0528125,11.139999999999999,3.97181828125,33.9946875
2021-06-29 16:16:43.140625000,-24.0,-6.5,57.0,79.060625,5.31,3.9715780625,33.994375
2021-06-29 16:16:43.148437500,-24.5,-6.25,57.0,79.0684375,2.0949999999999998,3.9713378437499998,33.9940625
2021-06-29 16:16:43.156250000,-25.0,-6.0,57.0,79.07625,-1.12,3.971097625,33.99375
2021-06-29 16:16:43.164062500,-23.75,-7.25,57.75,79.0840625,-3.645,3.97085740625,33.9934375
2021-06-29 16:16:43.171875000,-22.5,-8.5,58.5,79.091875,-6.17,3.9706171875,33.993125
2021-06-29 16:16:43.179687500,-21.25,-9.75,59.25,79.0996875,-10.14,3.9703769687499997,33.9928125
2021-06-29 16:16:43.187500000,-20.0,-11.0,60.0,79.1075,-14.11,3.97013675,33.9925
2021-06-29 16:16:43.195312500,-20.25,-12.0,59.75,79.1153125,-20.384999999999998,3.96989653125,33.9921875
2021-06-29 16:16:43.203125000,-20.5,-13.0,59.5,79.123125,-26.66,3.9696563124999997,33.991875
2021-06-29 16:16:43.210937500,-20.75,-14.0,59.25,79.1309375,-35.06,3.96941609375,33.9915625
2021-06-29 16:16:43.218750000,-21.0,-15.0,59.0,79.13875,-43.46,3.969175875,33.99125
2021-06-29 16:16:43.226562500,-19.0,-15.75,58.25,79.1465625,-51.435,3.9689356562499998,33.9909375
2021-06-29 16:16:43.234375000,-17.0,-16.5,57.5,79.154375,-59.41,3.9686954374999996,33.990625
2021-06-29 16:16:43.242187500,-15.0,-17.25,56.75,79.1621875,-64.265,3.96845521875,33.9903125
2021-06-29 16:16:43.250000000,-13.0,-18.0,56.0,79.17,-69.12,3.968215,33.99
2021-06-29 16:16:43.257812500,-14.75,-17.25,56.0,79.1778125,-68.92500000000001,3.9692959374999996,33.99
2021-06-29 16:16:43.265625000,-16.5,-16.5,56.0,79.185625,-68.73,3.970376875,33.99
2021-06-29 16:16:43.273437500,-18.25,-15.75,56.0,79.1934375,-62.910000000000004,3.9714578124999997,33.99
2021-06-29 16:16:43.281250000,-20.0,-15.0,56.0,79.20125,-57.09,3.97253875,33.99
2021-06-29 16:16:43.289062500,-19.25,-14.25,56.25,79.2090625,-46.395,3.9736196875,33.99
2021-06-29 16:16:43.296875000,-18.5,-13.5,56.5,79.216875,-35.7,3.974700625,33.99
2021-06-29 16:16:43.304687500,-17.75,-12.75,56.75,79.2246875,-22.090000000000003,3.9757815625,33.99
2021-06-29 16:16:43.312500000,-17.0,-12.0,57.0,79.2325,-8.48,3.9768625,33.99
2021-06-29 16:16:43.320312500,-18.5,-11.25,58.25,79.2403125,5.43,3.9779434375,33.99
2021-06-29 16:16:43.328125000,-20.0,-10.5,59.5,79.248125,19.34,3.979024375,33.99
2021-06-29 16:16:43.335937500,-21.5,-9.75,60.75,79.2559375,30.835,3.9801053125,33.99
2021-06-29 16:16:43.343750000,-23.0,-9.0,62.0,79.26375,42.33,3.98118625,33.99
2021-06-29 16:16:43.351562500,-22.5,-8.75,62.5,79.2715625,49.015,3.9822671875,33.99
2021-06-29 16:16:43.359375000,-22.0,-8.5,63.0,79.279375,55.7,3.983348125,33.99
2021-06-29 16:16:43.367187500,-21.5,-8.25,63.5,79.2871875,55.945,3.9844290625000003,33.99
2021-06-29 16:16:43.375000000,-21.0,-8.0,64.0,79.295,56.19,3.98551,33.99
2021-06-29 16:16:43.382812500,-21.0,-7.25,64.0,79.3028125,49.36,3.9865909375,33.99
2021-06-29 16:16:43.390625000,-21.0,-6.5,64.0,79.310625,42.53,3.987671875,33.99
2021-06-29 16:16:43.398437500,-21.0,-5.75,64.0,79.3184375,29.415,3.9887528125,33.99
2021-06-29 16:16:43.406250000,-21.0,-5.0,64.0,79.32625,16.3,3.9898337500000003,33.99
2021-06-29 16:16:43.414062500,-21.25,-5.25,64.0,79.3340625,-0.995000000000001,3.9909146875,33.99
2021-06-29 16:16:43.421875000,-21.5,-5.5,64.0,79.341875,-18.29,3.9919956250000004,33.99
2021-06-29 16:16:43.429687500,-21.75,-5.75,64.0,79.3496875,-36.15,3.9930765625,33.99
2021-06-29 16:16:43.437500000,-22.0,-6.0,64.0,79.3575,-54.01,3.9941575,33.99
2021-06-29 16:16:43.445312500,-22.0,-6.75,63.25,79.3653125,-68.785,3.9952384375000003,33.99
2021-06-29 16:16:43.453125000,-22.0,-7.5,62.5,79.373125,-83.56,3.996319375,33.99
2021-06-29 16:16:43.460937500,-22.0,-8.25,61.75,79.3809375,-92.83,3.9974003125000004,33.99
2021-06-29 16:16:43.468750000,-22.0,-9.0,61.0,79.38875,-102.1,3.99848125,33.99
2021-06-29 16:16:43.476562500,-21.75,-9.0,60.75,79.3965625,-105.4,3.9995621875000005,33.99
2021-06-29 16:16:43.484375000,-21.5,-9.0,60.5,79.404375,-108.7,4.000643125000001,33.99
2021-06-29 16:16:43.492187500,-21.25,-9.0,60.25,79.4121875,-107.15,4.0017240625,33.99
2021-06-29 16:16:43.500000000,-21.0,-9.0,60.0,79.42,-105.6,4.002805,33.99
2021-06-29 16:16:43.507812500,-21.0,-9.0,60.0,79.4278125,-100.835,4.00464659375,33.99
2021-06-29 16:16:43.515625000,-21.0,-9.0,60.0,79.435625,-96.07,4.0064881875000005,33.99
2021-06-29 16:16:43.523437500,-21.0,-9.0,60.0,79.4434375,-89.51499999999999,4.0083297812500005,33.99
2021-06-29 16:16:43.531250000,-21.0,-9.0,60.0,79.45125,-82.96,4.0101713750000005,33.99
2021-06-29 16:16:43.539062500,-20.75,-9.0,60.0,79.4590625,-75.31,4.012012968750001,33.99
2021-06-29 16:16:43.546875000,-20.5,-9.0,60.0,79.466875,-67.66,4.013854562500001,33.99
2021-06-29 16:16:43.554687500,-20.25,-9.0,60.0,79.4746875,-59.215,4.015696156250001,33.99
2021-06-29 16:16:43.562500000,-20.0,-9.0,60.0,79.4825,-50.77,4.017537750000001,33.99
2021-06-29 16:16:43.570312500,-20.5,-9.0,59.75,79.4903125,-41.995000000000005,4.01937934375,33.99
2021-06-29 16:16:43.578125000,-21.0,-9.0,59.5,79.498125,-33.22,4.0212209375,33.99
2021-06-29 16:16:43.585937500,-21.5,-9.0,59.25,79.5059375,-25.134999999999998,4.02306253125,33.99
2021-06-29 16:16:43.593750000,-22.0,-9.0,59.0,79.51375,-17.05,4.024904125,33.99
2021-06-29 16:16:43.601562500,-22.5,-9.0,58.25,79.5215625,-10.835,4.02674571875,33.99
2021-06-29 16:16:43.609375000,-23.0,-9.0,57.5,79.529375,-4.62,4.0285873125,33.99
2021-06-29 16:16:43.617187500,-23.5,-9.0,56.75,79.5371875,-0.9649999999999999,4.03042890625,33.99
2021-06-29 16:16:43.625000000,-24.0,-9.0,56.0,79.545,2.69,4.0322705,33.99
2021-06-29 16:16:43.632812500,-24.5,-9.25,55.75,79.5528125,3.9799999999999995,4.03411209375,33.99
2021-06-29 16:16:43.640625000,-25.0,-9.5,55.5,79.560625,5.27,4.0359536875,33.99
2021-06-29 16:16:43.648437500,-25.5,-9.75,55.25,79.5684375,5.07,4.03779528125,33.99
2021-06-29 16:16:43.656250000,-26.0,-10.0,55.0,79.57625,4.87,4.039636875,33.99
2021-06-29 16:16:43.664062500,-25.5,-10.25,54.75,79.5840625,3.8200000000000003,4.04147846875,33.99
2021-06-29 16:16:43.671875000,-25.0,-10.5,54.5,79.591875,2.77,4.0433200625,33.99
2021-06-29 16:16:43.679687500,-24.5,-10.75,54.25,79.5996875,0.75,4.04516165625,33.99
2021-06-29 16:16:43.687500000,-24.0,-11.0,54.0,79.6075,-1.27,4.0470032499999995,33.99
2021-06-29 16:16:43.695312500,-24.0,-11.0,53.75,79.6153125,-5.17,4.0488448437499995,33.99
2021-06-29 16:16:43.703125000,-24.0,-11.0,53.5,79.623125,-9.07,4.0506864375,33.99
2021-06-29 16:16:43.710937500,-24.0,-11.0,53.25,79.6309375,-15.83,4.05252803125,33.99
2021-06-29 16:16:43.718750000,-24.0,-11.0,53.0,79.63875,-22.59,4.054369625,33.99
2021-06-29 16:16:43.726562500,-25.0,-10.75,53.75,79.6465625,-32.505,4.05621121875,33.99
2021-06-29 16:16:43.734375000,-26.0,-10.5,54.5,79.654375,-42.42,4.0580528125,33.99
2021-06-29 16:16:43.742187500,-27.0,-10.25,55.25,79.6621875,-54.57,4.05989440625,33.99
2021-06-29 16:16:43.750000000,-28.0,-10.0,56.0,79.67,-66.72,4.061736,33.99
2021-06-29 16:16:43.757812500,-28.0,-10.0,56.25,79.6778125,-79.125,4.06425815625,33.99
2021-06-29 16:16:43.765625000,-28.0,-10.0,56.5,79.685625,-91.53,4.0667803125,33.99
2021-06-29 16:16:43.773437500,-28.0,-10.0,56.75,79.6934375,-101.88,4.06930246875,33.99
2021-06-29 16:16:43.781250000,-28.0,-10.0,57.0,79.70125,-112.23,4.071824625,33.99
2021-06-29 16:16:43.789062500,-26.5,-9.5,58.25,79.7090625,-118.755,4.07434678125,33.99
2021-06-29 16:16:43.796875000,-25.0,-9.0,59.5,79.716875,-125.28,4.0768689375,33.99
2021-06-29 16:16:43.804687500,-23.5,-8.5,60.75,79.7246875,-127.355,4.07939109375,33.99
2021-06-29 16:16:43.812500000,-22.0,-8.0,62.0,79.7325,-129.43,4.0819132499999995,33.99
2021-06-29 16:16:43.820312500,-21.5,-8.0,62.25,79.7403125,-127.53,4.08443540625,33.99
2021-06-29 16:16:43.828125000,-21.0,-8.0,62.5,79.748125,-125.63,4.0869575625,33.99
2021-06-29 16:16:43.835937500,-20.5,-8.0,62.75,79.7559375,-120.91999999999999,4.08947971875,33.99
2021-06-29 16:16:43.843750000,-20.0,-8.0,63.0,79.76375,-116.21,4.092001875,33.99
2021-06-29 16:16:43.851562500,-20.0,-8.0,63.0,79.7715625,-109.935,4.09452403125,33.99
2021-06-29 16:16:43.859375000,-20.0,-8.0,63.0,79.779375,-103.66,4.0970461875,33.99
2021-06-29 16:16:43.867187500,-20.0,-8.0,63.0,79.7871875,-96.85499999999999,4.09956834375,33.99
2021-06-29 16:16:43.875000000,-20.0,-8.0,63.0,79.795,-90.05,4.1020905,33.99
2021-06-29 16:16:43.882812500,-20.75,-8.0,62.0,79.8028125,-83.34,4.1046126562500005,33.99
2021-06-29 16:16:43.890625000,-21.5,-8.0,61.0,79.810625,-76.63,4.1071348125,33.99
2021-06-29 16:16:43.898437500,-22.25,-8.0,60.0,79.8184375,-70.27,4.10965696875,33.99
2021-06-29 16:16:43.906250000,-23.0,-8.0,59.0,79.82625,-63.91,4.112179125,33.99
2021-06-29 16:16:43.914062500,-23.25,-8.25,58.75,79.8340625,-57.87,4.11470128125,33.99
2021-06-29 16:16:43.921875000,-23.5,-8.5,58.5,79.841875,-51.83,4.1172234375,33.99
2021-06-29 16:16:43.929687500,-23.75,-8.75,58.25,79.8496875,-46.04,4.11974559375,33.99
2021-06-29 16:16:43.937500000,-24.0,-9.0,58.0,79.8575,-40.25,4.122267750000001,33.99
2021-06-29 16:16:43.945312500,-24.25,-9.25,57.5,79.8653125,-34.8,4.12478990625,33.99
2021-06-29 16:16:43.953125000,-24.5,-9.5,57.0,79.873125,-29.35,4.127312062500001,33.99
2021-06-29 16:16:43.960937500,-24.75,-9.75,56.5,79.8809375,-24.58,4.12983421875,33.99
2021-06-29 16:16:43.968750000,-25.0,-10.0,56.0,79.88875,-19.81,4.1323563750000005,33.99
2021-06-29 16:16:43.976562500,-25.0,-10.0,56.0,79.8965625,-16.46,4.13487853125,33.99
2021-06-29 16:16:43.984375000,-25.0,-10.0,56.0,79.904375,-13.11,4.1374006875000005,33.99
2021-06-29 16:16:43.992187500,-25.0,-10.0,56.0,79.9121875,-12.11,4.13992284375,33.99
2021-06-29 16:16:44.000000000,-25.0,-10.0,56.0,79.92,-11.11,4.142445,33.99
2021-06-29 16:16:44.007812500,-24.75,-10.0,56.25,79.926953125,-13.465,4.14540753125,33.989375
2021-06-29 16:16:44.015625000,-24.5,-10.0,56.5,79.93390625,-15.82,4.148370062500001,33.98875
2021-06-29 16:16:44.023437500,-24.25,-10.0,56.75,79.940859375,-22.265,4.15133259375,33.988125000000004
2021-06-29 16:16:44.031250000,-24.0,-10.0,57.0,79.9478125,-28.71,4.154295125,33.987500000000004
2021-06-29 16:16:44.039062500,-23.75,-10.0,57.25,79.95476562500001,-39.42,4.1572576562500005,33.986875000000005
2021-06-29 16:16:44.046875000,-23.5,-10.0,57.5,79.96171875,-50.13,4.1602201875,33.98625
2021-06-29 16:16:44.054687500,-23.25,-10.0,57.75,79.968671875,-64.365,4.16318271875,33.985625
2021-06-29 16:16:44.062500000,-23.0,-10.0,58.0,79.97562500000001,-78.6,4.1661452500000005,33.985
2021-06-29 16:16:44.070312500,-23.0,-10.0,58.25,79.982578125,-94.54499999999999,4.16910778125,33.984375
2021-06-29 16:16:44.078125000,-23.0,-10.0,58.5,79.98953125,-110.49,4.1720703125,33.98375
2021-06-29 16:16:44.085937500,-23.0,-10.0,58.75,79.99648437500001,-125.41999999999999,4.17503284375,33.983125
2021-06-29 16:16:44.093750000,-23.0,-10.0,59.0,80.0034375,-140.35,4.177995375,33.9825
2021-06-29 16:16:44.101562500,-23.0,-10.0,59.0,80.010390625,-151.18,4.18095790625,33.981875
2021-06-29 16:16:44.109375000,-23.0,-10.0,59.0,80.01734375,-162.01,4.1839204375,33.98125
2021-06-29 16:16:44.117187500,-23.0,-10.0,59.0,80.024296875,-166.23,4.18688296875,33.980625
2021-06-29 16:16:44.125000000,-23.0,-10.0,59.0,80.03125,-170.45,4.1898455000000006,33.980000000000004
2021-06-29 16:16:44.132812500,-23.0,-10.0,58.75,80.038203125,-166.945,4.19280803125,33.979375
2021-06-29 16:16:44.140625000,-23.0,-10.0,58.5,80.04515625,-163.44,4.1957705625,33.97875
2021-06-29 16:16:44.148437500,-23.0,-10.0,58.25,80.052109375,-153.10500000000002,4.1987330937500005,33.978125
2021-06-29 16:16:44.156250000,-23.0,-10.0,58.0,80.0590625,-142.77,4.201695625,33.9775
2021-06-29 16:16:44.164062500,-23.0,-10.0,58.0,80.066015625,-128.275,4.20465815625,33.976875
2021-06-29 16:16:44.171875000,-23.0,-10.0,58.0,80.07296875,-113.78,4.2076206875,33.97625
2021-06-29 16:16:44.179687500,-23.0,-10.0,58.0,80.079921875,-98.75,4.21058321875,33.975625
2021-06-29 16:16:44.187500000,-23.0,-10.0,58.0,80.086875,-83.72,4.21354575,33.975
2021-06-29 16:16:44.195312500,-23.0,-10.0,58.0,80.093828125,-71.605,4.21650828125,33.974375
2021-06-29 16:16:44.203125000,-23.0,-10.0,58.0,80.10078125,-59.49,4.2194708125,33.97375
2021-06-29 16:16:44.210937500,-23.0,-10.0,58.0,80.107734375,-52.59,4.22243334375,33.973124999999996
2021-06-29 16:16:44.218750000,-23.0,-10.0,58.0,80.1146875,-45.69,4.225395875,33.9725
2021-06-29 16:16:44.226562500,-23.0,-10.0,58.0,80.121640625,-44.705,4.22835840625,33.971875
2021-06-29 16:16:44.234375000,-23.0,-10.0,58.0,80.12859375000001,-43.72,4.2313209375,33.97125
2021-06-29 16:16:44.242187500,-23.0,-10.0,58.0,80.135546875,-47.83,4.23428346875,33.970625
2021-06-29 16:16:44.250000000,-23.0,-10.0,58.0,80.1425,-51.94,4.237246,33.97
2021-06-29 16:16:44.257812500,-23.0,-10.0,58.0,80.14945312500001,-59.3,4.239728125,33.97
2021-06-29 16:16:44.265625000,-23.0,-10.0,58.0,80.15640625,-66.66,4.242210249999999,33.97
2021-06-29 16:16:44.273437500,-23.0,-10.0,58.0,80.163359375,-74.865,4.244692375,33.97
2021-06-29 16:16:44.281250000,-23.0,-10.0,58.0,80.17031250000001,-83.07,4.2471745,33.97
2021-06-29 16:16:44.289062500,-23.0,-10.0,58.0,80.177265625,-89.54499999999999,4.249656625,33.97
2021-06-29 16:16:44.296875000,-23.0,-10.0,58.0,80.18421875,-96.02,4.25213875,33.97
2021-06-29 16:16:44.304687500,-23.0,-10.0,58.0,80.191171875,-98.44,4.254620875,33.97
2021-06-29 16:16:44.312500000,-23.0,-10.0,58.0,80.198125,-100.86,4.257103,33.97
2021-06-29 16:16:44.320312500,-23.0,-10.0,58.0,80.205078125,-97.47,4.259585125,33.97
2021-06-29 16:16:44.328125000,-23.0,-10.0,58.0,80.21203125,-94.08,4.262067249999999,33.97
2021-06-29 16:16:44.335937500,-23.0,-10.0,58.0,80.218984375,-84.265,4.264549375,33.97
2021-06-29 16:16:44.343750000,-23.0,-10.0,58.0,80.2259375,-74.45,4.2670315,33.97
2021-06-29 16:16:44.351562500,-23.0,-10.0,58.0,80.232890625,-59.135000000000005,4.269513625,33.97
2021-06-29 16:16:44.359375000,-23.0,-10.0,58.0,80.23984375,-43.82,4.27199575,33.97
2021-06-29 16:16:44.367187500,-23.0,-10.0,58.0,80.246796875,-25.455,4.274477875,33.97
2021-06-29 16:16:44.375000000,-23.0,-10.0,58.0,80.25375,-7.09,4.27696,33.97
2021-06-29 16:16:44.382812500,-23.0,-10.0,58.0,80.260703125,11.05,4.279442125,33.97
2021-06-29 16:16:44.390625000,-23.0,-10.0,58.0,80.26765625,29.19,4.281924249999999,33.97
2021-06-29 16:16:44.398437500,-23.0,-10.0,58.0,80.274609375,44.145,4.284406375,33.97
2021-06-29 16:16:44.406250000,-23.0,-10.0,58.0,80.2815625,59.1,4.2868885,33.97
2021-06-29 16:16:44.414062500,-23.0,-10.0,58.0,80.288515625,69.42,4.289370625,33.97
2021-06-29 16:16:44.421875000,-23.0,-10.0,58.0,80.29546875,79.74,4.29185275,33.97
2021-06-29 16:16:44.429687500,-23.0,-10.0,58.0,80.30242187500001,85.87,4.294334875,33.97
2021-06-29 16:16:44.437500000,-23.0,-10.0,58.0,80.309375,92.0,4.296817,33.97
2021-06-29 16:16:44.445312500,-23.0,-10.0,58.0,80.316328125,95.905,4.299299125,33.97
2021-06-29 16:16:44.453125000,-23.0,-10.0,58.0,80.32328125000001,99.81,4.3017812499999994,33.97
2021-06-29 16:16:44.460937500,-23.0,-10.0,58.0,80.330234375,103.89,4.304263375,33.97
2021-06-29 16:16:44.468750000,-23.0,-10.0,58.0,80.3371875,107.97,4.3067455,33.97
2021-06-29 16:16:44.476562500,-23.0,-10.0,58.0,80.34414062500001,113.845,4.309227625,33.97
2021-06-29 16:16:44.484375000,-23.0,-10.0,58.0,80.35109375,119.72,4.31170975,33.97
2021-06-29 16:16:44.492187500,-23.0,-10.0,58.0,80.358046875,127.6,4.314191875,33.97
2021-06-29 16:16:44.500000000,-23.0,-10.0,58.0,80.36500000000001,135.48,4.316674,33.97
2021-06-29 16:16:44.507812500,-23.0,-10.0,58.0,80.371953125,144.365,4.31791509375,33.97
2021-06-29 16:16:44.515625000,-23.0,-10.0,58.0,80.37890625,153.25,4.3191561875,33.97
2021-06-29 16:16:44.523437500,-23.0,-10.0,58.0,80.385859375,161.70999999999998,4.32039728125,33.97
2021-06-29 16:16:44.531250000,-23.0,-10.0,58.0,80.3928125,170.17,4.321638375,33.97
2021-06-29 16:16:44.539062500,-23.0,-10.0,58.25,80.399765625,177.14499999999998,4.32287946875,33.97
2021-06-29 16:16:44.546875000,-23.0,-10.0,58.5,80.40671875,184.12,4.3241205625,33.97
2021-06-29 16:16:44.554687500,-23.0,-10.0,58.75,80.413671875,189.325,4.32536165625,33.97
2021-06-29 16:16:44.562500000,-23.0,-10.0,59.0,80.420625,194.53,4.32660275,33.97
2021-06-29 16:16:44.570312500,-23.0,-10.0,59.0,80.427578125,198.315,4.32784384375,33.97
2021-06-29 16:16:44.578125000,-23.0,-10.0,59.0,80.43453125,202.1,4.3290849375,33.97
2021-06-29 16:16:44.585937500,-23.0,-10.0,59.0,80.441484375,204.95,4.33032603125,33.97
2021-06-29 16:16:44.593750000,-23.0,-10.0,59.0,80.4484375,207.8,4.331567125,33.97
2021-06-29 16:16:44.601562500,-23.0,-10.0,58.75,80.455390625,209.905,4.33280821875,33.97
2021-06-29 16:16:44.609375000,-23.0,-10.0,58.5,80.46234375,212.01,4.3340493125,33.97
2021-06-29 16:16:44.617187500,-23.0,-10.0,58.25,80.469296875,213.14499999999998,4.33529040625,33.97
2021-06-29 16:16:44.625000000,-23.0,-10.0,58.0,80.47625000000001,214.28,4.3365314999999995,33.97
2021-06-29 16:16:44.632812500,-23.0,-10.0,58.0,80.483203125,214.10500000000002,4.33777259375,33.97
2021-06-29 16:16:44.640625000,-23.0,-10.0,58.0,80.49015625,213.93,4.3390136875,33.97
2021-06-29 16:16:44.648437500,-23.0,-10.0,58.0,80.49710937500001,212.275,4.34025478125,33.97
2021-06-29 16:16:44.656250000,-23.0,-10.0,58.0,80.5040625,210.62,4.341495875,33.97
2021-06-29 16:16:44.664062500,-23.0,-10.0,58.0,80.511015625,207.615,4.34273696875,33.97
2021-06-29 16:16:44.671875000,-23.0,-10.0,58.0,80.51796875000001,204.61,4.3439780625,33.97
2021-06-29 16:16:44.679687500,-23.0,-10.0,58.0,80.524921875,200.63,4.34521915625,33.97
2021-06-29 16:16:44.687500000,-23.0,-10.0,58.0,80.531875,196.65,4.34646025,33.97
2021-06-29 16:16:44.695312500,-23.0,-10.0,58.0,80.53882812500001,191.99,4.34770134375,33.97
2021-06-29 16:16:44.703125000,-23.0,-10.0,58.0,80.54578125,187.33,4.3489424375,33.97
2021-06-29 16:16:44.710937500,-23.0,-10.0,58.0,80.552734375,182.03500000000003,4.35018353125,33.97
2021-06-29 16:16:44.718750000,-23.0,-10.0,58.0,80.5596875,176.74,4.351424625,33.97
2021-06-29 16:16:44.726562500,-23.0,-10.0,58.0,80.566640625,170.54500000000002,4.35266571875,33.97
2021-06-29 16:16:44.734375000,-23.0,-10.0,58.0,80.57359375,164.35,4.3539068125,33.97
2021-06-29 16:16:44.742187500,-23.0,-10.0,58.0,80.580546875,156.86,4.35514790625,33.97
2021-06-29 16:16:44.750000000,-23.0,-10.0,58.0,80.5875,149.37,4.356389,33.97
2021-06-29 16:16:44.757812500,-23.0,-10.0,58.0,80.594453125,140.245,4.35799034375,33.97
2021-06-29 16:16:44.765625000,-23.0,-10.0,58.0,80.60140625,131.12,4.3595916875,33.97
2021-06-29 16:16:44.773437500,-23.0,-10.0,58.0,80.608359375,120.385,4.36119303125,33.97
2021-06-29 16:16:44.781250000,-23.0,-10.0,58.0,80.6153125,109.65,4.362794375,33.97
2021-06-29 16:16:44.789062500,-23.0,-10.0,58.0,80.622265625,97.735,4.36439571875,33.97
2021-06-29 16:16:44.796875000,-23.0,-10.0,58.0,80.62921875,85.82,4.3659970625,33.97
2021-06-29 16:16:44.804687500,-23.0,-10.0,58.0,80.636171875,73.46,4.36759840625,33.97
2021-06-29 16:16:44.812500000,-23.0,-10.0,58.0,80.643125,61.1,4.36919975,33.97
2021-06-29 16:16:44.820312500,-23.0,-10.0,58.0,80.65007812500001,49.129999999999995,4.37080109375,33.97
2021-06-29 16:16:44.828125000,-23.0,-10.0,58.0,80.65703125,37.16,4.3724024375,33.97
2021-06-29 16:16:44.835937500,-23.0,-10.0,58.0,80.663984375,26.224999999999998,4.37400378125,33.97
2021-06-29 16:16:44.843750000,-23.0,-10.0,58.0,80.67093750000001,15.29,4.375605125,33.97
2021-06-29 16:16:44.851562500,-23.0,-10.0,58.0,80.677890625,5.75,4.37720646875,33.97
2021-06-29 16:16:44.859375000,-23.0,-10.0,58.0,80.68484375,-3.79,4.3788078125,33.97
2021-06-29 16:16:44.867187500,-23.0,-10.0,58.0,80.69179687500001,-11.835,4.38040915625,33.97
2021-06-29 16:16:44.875000000,-23.0,-10.0,58.0,80.69875,-19.88,4.3820105,33.97
2021-06-29 16:16:44.882812500,-23.0,-10.0,58.0,80.705703125,-26.354999999999997,4.383611843750001,33.97
2021-06-29 16:16:44.890625000,-23.0,-10.0,58.0,80.71265625000001,-32.83,4.385213187500001,33.97
2021-06-29 16:16:44.898437500,-23.0,-10.0,58.0,80.719609375,-37.54,4.386814531250001,33.97
2021-06-29 16:16:44.906250000,-23.0,-10.0,58.0,80.7265625,-42.25,4.388415875000001,33.97
2021-06-29 16:16:44.914062500,-23.0,-10.0,58.0,80.733515625,-44.75,4.390017218750001,33.97
2021-06-29 16:16:44.921875000,-23.0,-10.0,58.0,80.74046875,-47.25,4.391618562500001,33.97
2021-06-29 16:16:44.929687500,-23.0,-10.0,58.0,80.747421875,-47.075,4.393219906250001,33.97
2021-06-29 16:16:44.937500000,-23.0,-10.0,58.0,80.754375,-46.9,4.394821250000001,33.97
2021-06-29 16:16:44.945312500,-23.0,-10.0,58.0,80.761328125,-43.815,4.3964225937500006,33.97
2021-06-29 16:16:44.953125000,-23.0,-10.0,58.0,80.76828125,-40.73,4.3980239375000005,33.97
2021-06-29 16:16:44.960937500,-23.0,-10.0,58.0,80.775234375,-34.97,4.3996252812500005,33.97
2021-06-29 16:16:44.968750000,-23.0,-10.0,58.0,80.7821875,-29.21,4.4012266250000005,33.97
2021-06-29 16:16:44.976562500,-23.0,-10.0,58.0,80.789140625,-21.555,4.4028279687500005,33.97
2021-06-29 16:16:44.984375000,-23.0,-10.0,58.0,80.79609375,-13.9,4.4044293125000005,33.97
2021-06-29 16:16:44.992187500,-23.0,-10.0,58.0,80.803046875,-5.505000000000001,4.4060306562500005,33.97
2021-06-29 16:16:45.000000000,-23.0,-10.0,58.0,80.81,2.89,4.407632,33.97
2021-06-29 16:16:45.007812500,-23.0,-10.0,58.0,80.816484375,10.755,4.407511906250001,33.97
2021-06-29 16:16:45.015625000,-23.0,-10.0,58.0,80.82296875,18.62,4.4073918125,33.97
2021-06-29 16:16:45.023437500,-23.0,-10.0,58.0,80.829453125,24.8,4.407271718750001,33.97
2021-06-29 16:16:45.031250000,-23.0,-10.0,58.0,80.8359375,30.98,4.407151625,33.97
2021-06-29 16:16:45.039062500,-23.0,-10.0,58.0,80.842421875,34.585,4.40703153125,33.97
2021-06-29 16:16:45.046875000,-23.0,-10.0,58.0,80.84890625,38.19,4.406911437500001,33.97
2021-06-29 16:16:45.054687500,-23.0,-10.0,58.0,80.855390625,38.625,4.40679134375,33.97
2021-06-29 16:16:45.062500000,-23.0,-10.0,58.0,80.861875,39.06,4.4066712500000005,33.97
2021-06-29 16:16:45.070312500,-23.25,-10.0,58.0,80.868359375,36.1,4.40655115625,33.97
2021-06-29 16:16:45.078125000,-23.5,-10.0,58.0,80.87484375,33.14,4.4064310625,33.97
2021-06-29 16:16:45.085937500,-23.75,-10.0,58.0,80.881328125,26.93,4.406310968750001,33.97
2021-06-29 16:16:45.093750000,-24.0,-10.0,58.0,80.8878125,20.72,4.406190875,33.97
2021-06-29 16:16:45.101562500,-23.75,-10.0,58.0,80.89429687500001,11.924999999999999,4.40607078125,33.97
2021-06-29 16:16:45.109375000,-23.5,-10.0,58.0,80.90078125000001,3.13,4.4059506875,33.97
2021-06-29 16:16:45.117187500,-23.25,-10.0,58.0,80.90726562500001,-7.06,4.40583059375,33.97
2021-06-29 16:16:45.125000000,-23.0,-10.0,58.0,80.91375000000001,-17.25,4.4057105,33.97
2021-06-29 16:16:45.132812500,-23.0,-10.0,58.0,80.920234375,-27.31,4.40559040625,33.97
2021-06-29 16:16:45.140625000,-23.0,-10.0,58.0,80.92671875,-37.37,4.4054703125,33.97
2021-06-29 16:16:45.148437500,-23.0,-10.0,58.0,80.933203125,-45.724999999999994,4.40535021875,33.97
2021-06-29 16:16:45.156250000,-23.0,-10.0,58.0,80.9396875,-54.08,4.405230125,33.97
2021-06-29 16:16:45.164062500,-23.0,-10.0,58.0,80.946171875,-59.47,4.40511003125,33.97
2021-06-29 16:16:45.171875000,-23.0,-10.0,58.0,80.95265625,-64.86,4.4049899375,33.97
2021-06-29 16:16:45.179687500,-23.0,-10.0,58.0,80.959140625,-66.58500000000001,4.40486984375,33.97
2021-06-29 16:16:45.187500000,-23.0,-10.0,58.0,80.965625,-68.31,4.40474975,33.97
2021-06-29 16:16:45.195312500,-23.0,-10.0,58.0,80.972109375,-66.325,4.40462965625,33.97
2021-06-29 16:16:45.203125000,-23.0,-10.0,58.0,80.97859375,-64.34,4.4045095624999995,33.97
2021-06-29 16:16:45.210937500,-23.0,-10.0,58.0,80.985078125,-59.185,4.40438946875,33.97
2021-06-29 16:16:45.218750000,-23.0,-10.0,58.0,80.9915625,-54.03,4.404269375,33.97
2021-06-29 16:16:45.226562500,-23.0,-10.0,58.0,80.998046875,-46.695,4.40414928125,33.97
2021-06-29 16:16:45.234375000,-23.0,-10.0,58.0,81.00453125,-39.36,4.4040291875,33.97
2021-06-29 16:16:45.242187500,-23.0,-10.0,58.0,81.011015625,-31.060000000000002,4.403909093749999,33.97
2021-06-29 16:16:45.250000000,-23.0,-10.0,58.0,81.0175,-22.76,4.403789,33.97
2021-06-29 16:16:45.257812500,-23.0,-10.0,58.0,81.023984375,-14.715,4.4031484687499995,33.97
2021-06-29 16:16:45.265625000,-23.0,-10.0,58.0,81.03046875,-6.67,4.402507937499999,33.97
2021-06-29 16:16:45.273437500,-23.0,-10.0,58.0,81.036953125,0.14499999999999957,4.40186740625,33.97
2021-06-29 16:16:45.281250000,-23.0,-10.0,58.0,81.0434375,6.96,4.401226875,33.97
2021-06-29 16:16:45.289062500,-23.0,-10.0,58.0,81.049921875,11.954999999999998,4.40058634375,33.97
2021-06-29 16:16:45.296875000,-23.0,-10.0,58.0,81.05640625,16.95,4.3999458124999995,33.97
2021-06-29 16:16:45.304687500,-23.0,-10.0,58.0,81.06289062500001,20.02,4.39930528125,33.97
2021-06-29 16:16:45.312500000,-23.0,-10.0,58.0,81.06937500000001,23.09,4.39866475,33.97
2021-06-29 16:16:45.320312500,-23.0,-10.0,58.25,81.07585937500001,24.52,4.39802421875,33.97
2021-06-29 16:16:45.328125000,-23.0,-10.0,58.5,81.08234375,25.95,4.3973836875,33.97
2021-06-29 16:16:45.335937500,-23.0,-10.0,58.75,81.088828125,26.215,4.3967431562499995,33.97
2021-06-29 16:16:45.343750000,-23.0,-10.0,59.0,81.0953125,26.48,4.396102625,33.97
2021-06-29 16:16:45.351562500,-23.0,-10.0,58.75,81.101796875,26.035,4.39546209375,33.97
2021-06-29 16:16:45.359375000,-23.0,-10.0,58.5,81.10828125,25.59,4.3948215625,33.97
2021-06-29 16:16:45.367187500,-23.0,-10.0,58.25,81.114765625,24.735,4.39418103125,33.97
2021-06-29 16:16:45.375000000,-23.0,-10.0,58.0,81.12125,23.88,4.3935405,33.97
2021-06-29 16:16:45.382812500,-23.0,-10.0,58.0,81.127734375,22.759999999999998,4.39289996875,33.97
2021-06-29 16:16:45.390625000,-23.0,-10.0,58.0,81.13421875,21.64,4.3922594375,33.97
2021-06-29 16:16:45.398437500,-23.0,-10.0,58.0,81.140703125,20.335,4.39161890625,33.97
2021-06-29 16:16:45.406250000,-23.0,-10.0,58.0,81.1471875,19.03,4.3909783749999995,33.97
2021-06-29 16:16:45.414062500,-23.0,-10.0,58.0,81.153671875,17.655,4.39033784375,33.97
2021-06-29 16:16:45.421875000,-23.0,-10.0,58.0,81.16015625,16.28,4.3896973125,33.97
2021-06-29 16:16:45.429687500,-23.0,-10.0,58.0,81.166640625,15.005,4.38905678125,33.97
2021-06-29 16:16:45.437500000,-23.0,-10.0,58.0,81.173125,13.73,4.38841625,33.97
2021-06-29 16:16:45.445312500,-23.0,-10.0,58.0,81.179609375,12.690000000000001,4.3877757187499995,33.97
2021-06-29 16:16:45.453125000,-23.0,-10.0,58.0,81.18609375,11.65,4.3871351875,33.97
2021-06-29 16:16:45.460937500,-23.0,-10.0,58.0,81.192578125,10.870000000000001,4.38649465625,33.97
2021-06-29 16:16:45.468750000,-23.0,-10.0,58.0,81.1990625,10.09,4.385854125,33.97
2021-06-29 16:16:45.476562500,-23.0,-10.0,58.0,81.205546875,9.425,4.38521359375,33.97
2021-06-29 16:16:45.484375000,-23.0,-10.0,58.0,81.21203125,8.76,4.3845730625,33.97
2021-06-29 16:16:45.492187500,-23.0,-10.0,58.0,81.218515625,7.945,4.38393253125,33.97
2021-06-29 16:16:45.500000000,-23.0,-10.0,58.0,81.225,7.13,4.383292,33.97
2021-06-29 16:16:45.507812500,-23.0,-10.0,58.0,81.23148437500001,5.904999999999999,4.38477325,33.97
2021-06-29 16:16:45.515625000,-23.0,-10.0,58.0,81.23796875000001,4.68,4.3862545,33.97
2021-06-29 16:16:45.523437500,-23.0,-10.0,58.0,81.244453125,2.88,4.38773575,33.97
2021-06-29 16:16:45.531250000,-23.0,-10.0,58.0,81.2509375,1.08,4.389217,33.97
2021-06-29 16:16:45.539062500,-23.0,-10.0,58.25,81.257421875,-1.335,4.39069825,33.97
2021-06-29 16:16:45.546875000,-23.0,-10.0,58.5,81.26390625,-3.75,4.3921795,33.97
2021-06-29 16:16:45.554687500,-23.0,-10.0,58.75,81.270390625,-6.745,4.39366075,33.97
2021-06-29 16:16:45.562500000,-23.0,-10.0,59.0,81.276875,-9.74,4.395142,33.97
2021-06-29 16:16:45.570312500,-23.0,-10.0,58.75,81.283359375,-13.225000000000001,4.39662325,33.97
2021-06-29 16:16:45.578125000,-23.0,-10.0,58.5,81.28984375,-16.71,4.3981045,33.97
2021-06-29 16:16:45.585937500,-23.0,-10.0,58.25,81.296328125,-20.560000000000002,4.39958575,33.97
2021-06-29 16:16:45.593750000,-23.0,-10.0,58.0,81.3028125,-24.41,4.401066999999999,33.97
2021-06-29 16:16:45.601562500,-23.0,-10.0,58.0,81.309296875,-28.4,4.40254825,33.97
2021-06-29 16:16:45.609375000,-23.0,-10.0,58.0,81.31578125,-32.39,4.4040295,33.97
2021-06-29 16:16:45.617187500,-23.0,-10.0,58.0,81.322265625,-36.14,4.4055107499999995,33.97
2021-06-29 16:16:45.625000000,-23.0,-10.0,58.0,81.32875,-39.89,4.406992,33.97
2021-06-29 16:16:45.632812500,-23.0,-10.0,58.25,81.335234375,-42.835,4.40847325,33.97
2021-06-29 16:16:45.640625000,-23.0,-10.0,58.5,81.34171875,-45.78,4.4099544999999996,33.97
2021-06-29 16:16:45.648437500,-23.0,-10.0,58.75,81.348203125,-47.295,4.41143575,33.97
2021-06-29 16:16:45.656250000,-23.0,-10.0,59.0,81.3546875,-48.81,4.412917,33.97
2021-06-29 16:16:45.664062500,-23.0,-10.0,58.75,81.361171875,-48.375,4.41439825,33.97
2021-06-29 16:16:45.671875000,-23.0,-10.0,58.5,81.36765625,-47.94,4.4158795,33.97
2021-06-29 16:16:45.679687500,-23.0,-10.0,58.25,81.374140625,-45.305,4.417360749999999,33.97
2021-06-29 16:16:45.687500000,-23.0,-10.0,58.0,81.380625,-42.67,4.418842,33.97
2021-06-29 16:16:45.695312500,-23.0,-10.0,58.0,81.387109375,-37.980000000000004,4.42032325,33.97
2021-06-29 16:16:45.703125000,-23.0,-10.0,58.0,81.39359375000001,-33.29,4.4218044999999995,33.97
2021-06-29 16:16:45.710937500,-23.0,-10.0,58.0,81.40007812500001,-27.02,4.42328575,33.97
2021-06-29 16:16:45.718750000,-23.0,-10.0,58.0,81.4065625,-20.75,4.424766999999999,33.97
2021-06-29 16:16:45.726562500,-23.0,-10.0,58.0,81.413046875,-13.57,4.4262482499999996,33.97
2021-06-29 16:16:45.734375000,-23.0,-10.0,58.0,81.41953125,-6.39,4.4277295,33.97
2021-06-29 16:16:45.742187500,-23.0,-10.0,58.0,81.426015625,0.9950000000000001,4.429210749999999,33.97
2021-06-29 16:16:45.750000000,-23.0,-10.0,58.0,81.4325,8.38,4.430692,33.97
2021-06-29 16:16:45.757812500,-23.0,-10.0,58.0,81.438984375,15.39,4.435829312499999,33.97
2021-06-29 16:16:45.765625000,-23.0,-10.0,58.0,81.44546875,22.4,4.440966625,33.97
2021-06-29 16:16:45.773437500,-23.0,-10.0,58.0,81.451953125,28.595,4.446103937499999,33.97
2021-06-29 16:16:45.781250000,-23.0,-10.0,58.0,81.4584375,34.79,4.45124125,33.97
2021-06-29 16:16:45.789062500,-23.0,-10.0,58.25,81.464921875,39.885,4.456378562499999,33.97
2021-06-29 16:16:45.796875000,-23.0,-10.0,58.5,81.47140625,44.98,4.461515875,33.97
2021-06-29 16:16:45.804687500,-23.0,-10.0,58.75,81.477890625,48.79,4.4666531874999995,33.97
2021-06-29 16:16:45.812500000,-23.0,-10.0,59.0,81.484375,52.6,4.4717905,33.97
2021-06-29 16:16:45.820312500,-23.0,-10.0,58.75,81.490859375,55.04,4.4769278125,33.97
2021-06-29 16:16:45.828125000,-23.0,-10.0,58.5,81.49734375,57.48,4.482065125,33.97
2021-06-29 16:16:45.835937500,-23.0,-10.0,58.25,81.503828125,58.575,4.4872024375,33.97
2021-06-29 16:16:45.843750000,-23.0,-10.0,58.0,81.5103125,59.67,4.49233975,33.97
2021-06-29 16:16:45.851562500,-23.0,-10.0,58.0,81.516796875,59.58,4.4974770625,33.97
2021-06-29 16:16:45.859375000,-23.0,-10.0,58.0,81.52328125,59.49,4.502614375,33.97
2021-06-29 16:16:45.867187500,-23.0,-10.0,58.0,81.529765625,58.515,4.5077516875,33.97
2021-06-29 16:16:45.875000000,-23.0,-10.0,58.0,81.53625,57.54,4.5128889999999995,33.97
2021-06-29 16:16:45.882812500,-23.0,-10.0,58.0,81.542734375,56.015,4.5180263125,33.97
2021-06-29 16:16:45.890625000,-23.0,-10.0,58.0,81.54921875,54.49,4.523163625,33.97
2021-06-29 16:16:45.898437500,-23.0,-10.0,58.0,81.555703125,52.760000000000005,4.5283009375,33.97
2021-06-29 16:16:45.906250000,-23.0,-10.0,58.0,81.56218750000001,51.03,4.53343825,33.97
2021-06-29 16:16:45.914062500,-23.0,-10.0,58.0,81.568671875,49.31,4.5385755625,33.97
2021-06-29 16:16:45.921875000,-23.0,-10.0,58.0,81.57515625,47.59,4.543712875,33.97
2021-06-29 16:16:45.929687500,-23.0,-10.0,58.0,81.581640625,45.985,4.5488501875,33.97
2021-06-29 16:16:45.937500000,-23.0,-10.0,58.0,81.588125,44.38,4.5539875,33.97
2021-06-29 16:16:45.945312500,-23.0,-10.0,58.0,81.594609375,42.86,4.5591248125,33.97
2021-06-29 16:16:45.953125000,-23.0,-10.0,58.0,81.60109375,41.34,4.564262125,33.97
2021-06-29 16:16:45.960937500,-23.0,-10.0,58.0,81.607578125,39.815,4.5693994375,33.97
2021-06-29 16:16:45.968750000,-23.0,-10.0,58.0,81.6140625,38.29,4.57453675,33.97
2021-06-29 16:16:45.976562500,-23.0,-10.0,58.0,81.620546875,36.67,4.5796740625000005,33.97
2021-06-29 16:16:45.984375000,-23.0,-10.0,58.0,81.62703125,35.05,4.584811375,33.97
2021-06-29 16:16:45.992187500,-23.0,-10.0,58.0,81.633515625,33.3,4.589948687500001,33.97
2021-06-29 16:16:46.000000000,-23.0,-10.0,58.0,81.64,31.55,4.595086,33.97
2021-06-29 16:16:46.007812500,-23.0,-10.0,58.0,81.64578125,29.655,4.59948978125,33.970625
2021-06-29 16:16:46.015625000,-23.0,-10.0,58.0,81.6515625,27.76,4.603893562500001,33.97125
2021-06-29 16:16:46.023437500,-23.0,-10.0,58.0,81.65734375,25.715000000000003,4.60829734375,33.971875
2021-06-29 16:16:46.031250000,-23.0,-10.0,58.0,81.663125,23.67,4.612701125,33.9725
2021-06-29 16:16:46.039062500,-23.0,-10.0,58.0,81.66890625,21.47,4.61710490625,33.973124999999996
2021-06-29 16:16:46.046875000,-23.0,-10.0,58.0,81.6746875,19.27,4.6215086875,33.97375
2021-06-29 16:16:46.054687500,-23.0,-10.0,58.0,81.68046875,16.835,4.62591246875,33.974375
2021-06-29 16:16:46.062500000,-23.0,-10.0,58.0,81.68625,14.4,4.63031625,33.975
2021-06-29 16:16:46.070312500,-23.0,-10.0,58.25,81.69203125,11.605,4.6347200312500005,33.975625
2021-06-29 16:16:46.078125000,-23.0,-10.0,58.5,81.6978125,8.81,4.6391238125,33.97625
2021-06-29 16:16:46.085937500,-23.0,-10.0,58.75,81.70359375,5.54,4.64352759375,33.976875
2021-06-29 16:16:46.093750000,-23.0,-10.0,59.0,81.709375,2.27,4.647931375,33.9775
2021-06-29 16:16:46.101562500,-23.0,-10.0,58.75,81.71515625,-1.56,4.65233515625,33.978125
2021-06-29 16:16:46.109375000,-23.0,-10.0,58.5,81.7209375,-5.39,4.6567389375,33.97875
2021-06-29 16:16:46.117187500,-23.0,-10.0,58.25,81.72671875,-9.695,4.66114271875,33.979375
2021-06-29 16:16:46.125000000,-23.0,-10.0,58.0,81.7325,-14.0,4.6655465,33.980000000000004
2021-06-29 16:16:46.132812500,-23.0,-10.0,58.0,81.73828125,-18.48,4.66995028125,33.980625
2021-06-29 16:16:46.140625000,-23.0,-10.0,58.0,81.7440625,-22.96,4.6743540625,33.98125
2021-06-29 16:16:46.148437500,-23.0,-10.0,58.0,81.74984375,-27.065,4.67875784375,33.981875
2021-06-29 16:16:46.156250000,-23.0,-10.0,58.0,81.755625,-31.17,4.683161625,33.9825
2021-06-29 16:16:46.164062500,-23.0,-10.0,58.0,81.76140625,-34.21,4.68756540625,33.983125
2021-06-29 16:16:46.171875000,-23.0,-10.0,58.0,81.7671875,-37.25,4.6919691875,33.98375
2021-06-29 16:16:46.179687500,-23.0,-10.0,58.0,81.77296875,-38.555,4.6963729687499995,33.984375
2021-06-29 16:16:46.187500000,-23.0,-10.0,58.0,81.77875,-39.86,4.70077675,33.985
2021-06-29 16:16:46.195312500,-23.0,-10.0,58.0,81.78453125,-39.01,4.70518053125,33.985625
2021-06-29 16:16:46.203125000,-23.0,-10.0,58.0,81.7903125,-38.16,4.7095843125,33.98625
2021-06-29 16:16:46.210937500,-23.0,-10.0,58.0,81.79609375,-35.099999999999994,4.71398809375,33.986875000000005
2021-06-29 16:16:46.218750000,-23.0,-10.0,58.0,81.801875,-32.04,4.718391875,33.987500000000004
2021-06-29 16:16:46.226562500,-23.0,-10.0,58.25,81.80765625,-27.085,4.72279565625,33.988125000000004
2021-06-29 16:16:46.234375000,-23.0,-10.0,58.5,81.8134375,-22.13,4.7271994374999995,33.98875
2021-06-29 16:16:46.242187500,-23.0,-10.0,58.75,81.81921875,-15.834999999999999,4.73160321875,33.989375
2021-06-29 16:16:46.250000000,-23.0,-10.0,59.0,81.825,-9.54,4.736007,33.99
2021-06-29 16:16:46.257812500,-23.0,-10.0,58.75,81.83078125,-2.5,4.737608375,33.99
2021-06-29 16:16:46.265625000,-23.0,-10.0,58.5,81.8365625,4.54,4.73920975,33.99
2021-06-29 16:16:46.273437500,-23.0,-10.0,58.25,81.84234375,11.785,4.740811125,33.99
2021-06-29 16:16:46.281250000,-23.0,-10.0,58.0,81.848125,19.03,4.7424125,33.99
2021-06-29 16:16:46.289062500,-23.0,-10.0,58.25,81.85390625,26.035,4.744013875,33.99
2021-06-29 16:16:46.296875000,-23.0,-10.0,58.5,81.85968749999999,33.04,4.74561525,33.99
2021-06-29 16:16:46.304687500,-23.0,-10.0,58.75,81.86546875,39.394999999999996,4.747216625,33.99
2021-06-29 16:16:46.312500000,-23.0,-10.0,59.0,81.87125,45.75,4.748818,33.99
2021-06-29 16:16:46.320312500,-23.0,-10.0,59.0,81.87703125,51.04,4.750419375,33.99
2021-06-29 16:16:46.328125000,-23.0,-10.0,59.0,81.8828125,56.33,4.75202075,33.99
2021-06-29 16:16:46.335937500,-23.0,-10.0,59.0,81.88859375,60.175,4.753622125,33.99
2021-06-29 16:16:46.343750000,-23.0,-10.0,59.0,81.894375,64.02,4.7552235,33.99
2021-06-29 16:16:46.351562500,-23.0,-10.0,59.0,81.90015625,66.215,4.756824875,33.99
2021-06-29 16:16:46.359375000,-23.0,-10.0,59.0,81.9059375,68.41,4.75842625,33.99
2021-06-29 16:16:46.367187500,-23.0,-10.0,59.0,81.91171875,69.02,4.760027625,33.99
2021-06-29 16:16:46.375000000,-23.0,-10.0,59.0,81.9175,69.63,4.761629,33.99
2021-06-29 16:16:46.382812500,-23.0,-10.0,58.75,81.92328125,68.97999999999999,4.763230375,33.99
2021-06-29 16:16:46.390625000,-23.0,-10.0,58.5,81.9290625,68.33,4.76483175,33.99
2021-06-29 16:16:46.398437500,-23.0,-10.0,58.25,81.93484375,66.925,4.766433125,33.99
2021-06-29 16:16:46.406250000,-23.0,-10.0,58.0,81.940625,65.52,4.768034500000001,33.99
2021-06-29 16:16:46.414062500,-23.0,-10.0,58.0,81.94640625,63.8,4.7696358750000005,33.99
2021-06-29 16:16:46.421875000,-23.0,-10.0,58.0,81.9521875,62.08,4.77123725,33.99
2021-06-29 16:16:46.429687500,-23.0,-10.0,58.0,81.95796874999999,60.315,4.772838625,33.99
2021-06-29 16:16:46.437500000,-23.0,-10.0,58.0,81.96375,58.55,4.77444,33.99
2021-06-29 16:16:46.445312500,-23.0,-10.0,58.0,81.96953125,56.79,4.776041375,33.99
2021-06-29 16:16:46.453125000,-23.0,-10.0,58.0,81.9753125,55.03,4.77764275,33.99
2021-06-29 16:16:46.460937500,-23.0,-10.0,58.0,81.98109375,53.175,4.779244125,33.99
2021-06-29 16:16:46.468750000,-23.0,-10.0,58.0,81.986875,51.32,4.7808455,33.99
2021-06-29 16:16:46.476562500,-23.0,-10.0,58.0,81.99265625,49.25,4.782446875000001,33.99
2021-06-29 16:16:46.484375000,-23.0,-10.0,58.0,81.9984375,47.18,4.784048250000001,33.99
2021-06-29 16:16:46.492187500,-23.0,-10.0,58.0,82.00421874999999,44.855000000000004,4.7856496250000005,33.99
2021-06-29 16:16:46.500000000,-23.0,-10.0,58.0,82.00999999999999,42.53,4.787251,33.99
2021-06-29 16:16:46.507812500,-23.0,-10.0,58.0,82.01578125,39.995000000000005,4.78625015625,33.99
2021-06-29 16:16:46.515625000,-23.0,-10.0,58.0,82.0215625,37.46,4.7852493125,33.99
2021-06-29 16:16:46.523437500,-23.0,-10.0,58.0,82.02734375,34.785,4.78424846875,33.99
2021-06-29 16:16:46.531250000,-23.0,-10.0,58.0,82.033125,32.11,4.7832476250000004,33.99
2021-06-29 16:16:46.539062500,-23.0,-10.0,58.0,82.03890625,29.375,4.7822467812500005,33.99
2021-06-29 16:16:46.546875000,-23.0,-10.0,58.0,82.0446875,26.64,4.7812459375000005,33.99
2021-06-29 16:16:46.554687500,-23.0,-10.0,58.0,82.05046875,23.87,4.7802450937500005,33.99
2021-06-29 16:16:46.562500000,-23.0,-10.0,58.0,82.05624999999999,21.1,4.7792442500000005,33.99
2021-06-29 16:16:46.570312500,-23.0,-10.0,58.25,82.06203125,18.3,4.7782434062500005,33.99
2021-06-29 16:16:46.578125000,-23.0,-10.0,58.5,82.0678125,15.5,4.777242562500001,33.99
2021-06-29 16:16:46.585937500,-23.0,-10.0,58.75,82.07359375,12.655000000000001,4.776241718750001,33.99
2021-06-29 16:16:46.593750000,-23.0,-10.0,59.0,82.079375,9.81,4.775240875000001,33.99
2021-06-29 16:16:46.601562500,-23.0,-10.0,58.75,82.08515625,6.865,4.774240031250001,33.99
2021-06-29 16:16:46.609375000,-23.0,-10.0,58.5,82.0909375,3.92,4.773239187500001,33.99
2021-06-29 16:16:46.617187500,-23.0,-10.0,58.25,82.09671875,0.79,4.772238343750001,33.99
2021-06-29 16:16:46.625000000,-23.0,-10.0,58.0,82.10249999999999,-2.34,4.7712375,33.99
2021-06-29 16:16:46.632812500,-23.0,-10.0,58.0,82.10828124999999,-5.785,4.77023665625,33.99
2021-06-29 16:16:46.640625000,-23.0,-10.0,58.0,82.1140625,-9.23,4.7692358125,33.99
2021-06-29 16:16:46.648437500,-23.0,-10.0,58.0,82.11984375,-13.1,4.76823496875,33.99
2021-06-29 16:16:46.656250000,-23.0,-10.0,58.0,82.125625,-16.97,4.767234125,33.99
2021-06-29 16:16:46.664062500,-23.0,-10.25,58.0,82.13140625,-21.27,4.76623328125,33.99
2021-06-29 16:16:46.671875000,-23.0,-10.5,58.0,82.1371875,-25.57,4.7652324375,33.99
2021-06-29 16:16:46.679687500,-23.0,-10.75,58.0,82.14296875,-30.055,4.76423159375,33.99
2021-06-29 16:16:46.687500000,-23.0,-11.0,58.0,82.14874999999999,-34.54,4.76323075,33.99
2021-06-29 16:16:46.695312500,-23.0,-10.75,58.0,82.15453124999999,-38.724999999999994,4.76222990625,33.99
2021-06-29 16:16:46.703125000,-23.0,-10.5,58.0,82.1603125,-42.91,4.7612290625,33.99
2021-06-29 16:16:46.710937500,-23.0,-10.25,58.0,82.16609375,-46.105,4.76022821875,33.99
2021-06-29 16:16:46.718750000,-23.0,-10.0,58.0,82.171875,-49.3,4.759227375,33.99
2021-06-29 16:16:46.726562500,-23.0,-10.0,58.25,82.17765625,-50.8,4.75822653125,33.99
2021-06-29 16:16:46.734375000,-23.0,-10.0,58.5,82.1834375,-52.3,4.7572256875,33.99
2021-06-29 16:16:46.742187500,-23.0,-10.0,58.75,82.18921875,-51.62,4.75622484375,33.99
2021-06-29 16:16:46.750000000,-23.0,-10.0,59.0,82.195,-50.94,4.755224,33.99
2021-06-29 16:16:46.757812500,-23.0,-10.0,58.75,82.20078124999999,-47.989999999999995,4.75354253125,33.99
2021-06-29 16:16:46.765625000,-23.0,-10.0,58.5,82.20656249999999,-45.04,4.7518610625,33.99
2021-06-29 16:16:46.773437500,-23.0,-10.0,58.25,82.21234375,-40.144999999999996,4.75017959375,33.99
2021-06-29 16:16:46.781250000,-23.0,-10.0,58.0,82.218125,-35.25,4.748498125,33.99
2021-06-29 16:16:46.789062500,-23.0,-10.0,58.0,82.22390625,-29.05,4.74681665625,33.99
2021-06-29 16:16:46.796875000,-23.0,-10.0,58.0,82.2296875,-22.85,4.7451351875,33.99
2021-06-29 16:16:46.804687500,-23.0,-10.0,58.0,82.23546875,-16.095,4.7434537187500005,33.99
2021-06-29 16:16:46.812500000,-23.0,-10.0,58.0,82.24125,-9.34,4.74177225,33.99
2021-06-29 16:16:46.820312500,-23.0,-10.0,58.0,82.24703124999999,-2.6950000000000003,4.74009078125,33.99
2021-06-29 16:16:46.828125000,-23.0,-10.0,58.0,82.25281249999999,3.95,4.7384093125,33.99
2021-06-29 16:16:46.835937500,-23.0,-10.0,58.0,82.25859375,10.004999999999999,4.73672784375,33.99
2021-06-29 16:16:46.843750000,-23.0,-10.0,58.0,82.264375,16.06,4.7350463750000005,33.99
2021-06-29 16:16:46.851562500,-23.0,-10.0,58.0,82.27015625,21.235,4.73336490625,33.99
2021-06-29 16:16:46.859375000,-23.0,-10.0,58.0,82.2759375,26.41,4.7316834375,33.99
2021-06-29 16:16:46.867187500,-23.0,-10.0,58.0,82.28171875,30.545,4.73000196875,33.99
2021-06-29 16:16:46.875000000,-23.0,-10.0,58.0,82.2875,34.68,4.728320500000001,33.99
2021-06-29 16:16:46.882812500,-23.0,-10.0,58.25,82.29328124999999,37.66,4.72663903125,33.99
2021-06-29 16:16:46.890625000,-23.0,-10.0,58.5,82.29906249999999,40.64,4.7249575625,33.99
2021-06-29 16:16:46.898437500,-23.0,-10.0,58.75,82.30484374999999,42.425,4.72327609375,33.99
2021-06-29 16:16:46.906250000,-23.0,-10.0,59.0,82.310625,44.21,4.721594625,33.99
2021-06-29 16:16:46.914062500,-23.0,-10.0,58.75,82.31640625,44.83,4.7199131562500005,33.99
2021-06-29 16:16:46.921875000,-23.0,-10.0,58.5,82.3221875,45.45,4.7182316875,33.99
2021-06-29 16:16:46.929687500,-23.0,-10.0,58.25,82.32796875,45.105000000000004,4.71655021875,33.99
2021-06-29 16:16:46.937500000,-23.0,-10.0,58.0,82.33375,44.76,4.71486875,33.99
2021-06-29 16:16:46.945312500,-23.0,-10.0,58.0,82.33953125,43.79,4.71318728125,33.99
2021-06-29 16:16:46.953125000,-23.0,-10.0,58.0,82.34531249999999,42.82,4.7115058125000004,33.99
2021-06-29 16:16:46.960937500,-23.0,-10.0,58.0,82.35109374999999,41.614999999999995,4.70982434375,33.99
2021-06-29 16:16:46.968750000,-23.0,-10.0,58.0,82.356875,40.41,4.708142875,33.99
2021-06-29 16:16:46.976562500,-22.75,-10.0,58.0,82.36265625,39.3,4.70646140625,33.99
2021-06-29 16:16:46.984375000,-22.5,-10.0,58.0,82.3684375,38.19,4.704779937500001,33.99
2021-06-29 16:16:46.992187500,-22.25,-10.0,58.0,82.37421875,37.325,4.70309846875,33.99
2021-06-29 16:16:47.000000000,-22.0,-10.0,58.0,82.38,36.46,4.701417,33.99
2021-06-29 16:16:47.007812500,-22.25,-10.0,58.0,82.385390625,35.765,4.69945534375,33.989375
2021-06-29 16:16:47.015625000,-22.5,-10.0,58.0,82.39078124999999,35.07,4.6974936875,33.98875
2021-06-29 16:16:47.023437500,-22.75,-10.0,58.0,82.396171875,34.315,4.69553203125,33.988125000000004
2021-06-29 16:16:47.031250000,-23.0,-10.0,58.0,82.4015625,33.56,4.693570375,33.987500000000004
2021-06-29 16:16:47.039062500,-23.0,-10.0,58.0,82.406953125,32.46,4.69160871875,33.986875000000005
2021-06-29 16:16:47.046875000,-23.0,-10.0,58.0,82.41234374999999,31.36,4.689647062500001,33.98625
2021-06-29 16:16:47.054687500,-23.0,-10.0,58.0,82.417734375,29.75,4.68768540625,33.985625
2021-06-29 16:16:47.062500000,-23.0,-10.0,58.0,82.423125,28.14,4.68572375,33.985
2021-06-29 16:16:47.070312500,-23.0,-10.0,58.0,82.42851562499999,26.005000000000003,4.68376209375,33.984375
2021-06-29 16:16:47.078125000,-23.0,-10.0,58.0,82.43390624999999,23.87,4.6818004375,33.98375
2021-06-29 16:16:47.085937500,-23.0,-10.0,58.0,82.439296875,21.4,4.67983878125,33.983125
2021-06-29 16:16:47.093750000,-23.0,-10.0,58.0,82.4446875,18.93,4.677877125,33.9825
2021-06-29 16:16:47.101562500,-23.0,-10.0,58.0,82.45007812499999,16.375,4.67591546875,33.981875
2021-06-29 16:16:47.109375000,-23.0,-10.0,58.0,82.45546875,13.82,4.673953812500001,33.98125
2021-06-29 16:16:47.117187500,-23.0,-10.0,58.0,82.460859375,11.375,4.67199215625,33.980625
2021-06-29 16:16:47.125000000,-23.0,-10.0,58.0,82.46625,8.93,4.6700305,33.980000000000004
2021-06-29 16:16:47.132812500,-23.0,-10.0,58.0,82.47164062499999,6.6850000000000005,4.66806884375,33.979375
2021-06-29 16:16:47.140625000,-23.0,-10.0,58.0,82.47703125,4.44,4.6661071875,33.97875
2021-06-29 16:16:47.148437500,-23.0,-10.0,58.0,82.482421875,2.29,4.66414553125,33.978125
2021-06-29 16:16:47.156250000,-23.0,-10.0,58.0,82.48781249999999,0.14,4.662183875,33.9775
2021-06-29 16:16:47.164062500,-23.0,-10.0,58.25,82.493203125,-2.1249999999999996,4.66022221875,33.976875
2021-06-29 16:16:47.171875000,-23.0,-10.0,58.5,82.49859375,-4.39,4.658260562500001,33.97625
2021-06-29 16:16:47.179687500,-23.0,-10.0,58.75,82.503984375,-6.994999999999999,4.65629890625,33.975625
2021-06-29 16:16:47.187500000,-23.0,-10.0,59.0,82.50937499999999,-9.6,4.65433725,33.975
2021-06-29 16:16:47.195312500,-23.0,-10.0,58.75,82.514765625,-12.695,4.65237559375,33.974375
2021-06-29 16:16:47.203125000,-23.0,-10.0,58.5,82.52015625,-15.79,4.6504139375,33.97375
2021-06-29 16:16:47.210937500,-23.0,-10.0,58.25,82.52554687499999,-19.36,4.64845228125,33.973124999999996
2021-06-29 16:16:47.218750000,-23.0,-10.0,58.0,82.5309375,-22.93,4.646490625,33.9725
2021-06-29 16:16:47.226562500,-23.0,-10.0,58.0,82.536328125,-26.744999999999997,4.64452896875,33.971875
2021-06-29 16:16:47.234375000,-23.0,-10.0,58.0,82.54171875,-30.56,4.642567312500001,33.97125
2021-06-29 16:16:47.242187500,-23.0,-10.0,58.0,82.54710937499999,-34.21,4.64060565625,33.970625
2021-06-29 16:16:47.250000000,-23.0,-10.0,58.0,82.5525,-37.86,4.638644,33.97
2021-06-29 16:16:47.257812500,-23.0,-10.0,58.0,82.557890625,-40.815,4.6357615,33.97
2021-06-29 16:16:47.265625000,-23.0,-10.0,58.0,82.56328124999999,-43.77,4.632879,33.97
2021-06-29 16:16:47.273437500,-23.0,-10.0,58.0,82.56867187499999,-45.49,4.6299965,33.97
2021-06-29 16:16:47.281250000,-23.0,-10.0,58.0,82.5740625,-47.21,4.627114000000001,33.97
2021-06-29 16:16:47.289062500,-23.0,-10.0,58.0,82.579453125,-47.285,4.6242315000000005,33.97
2021-06-29 16:16:47.296875000,-23.0,-10.0,58.0,82.58484374999999,-47.36,4.621349,33.97
2021-06-29 16:16:47.304687500,-23.0,-10.0,58.0,82.590234375,-45.614999999999995,4.6184665,33.97
2021-06-29 16:16:47.312500000,-23.0,-10.0,58.0,82.595625,-43.87,4.615584,33.97
2021-06-29 16:16:47.320312500,-23.0,-10.0,58.0,82.60101562499999,-40.415,4.6127015,33.97
2021-06-29 16:16:47.328125000,-23.0,-10.0,58.0,82.60640624999999,-36.96,4.609819,33.97
2021-06-29 16:16:47.335937500,-23.0,-10.0,58.0,82.611796875,-32.15,4.6069365,33.97
2021-06-29 16:16:47.343750000,-23.0,-10.0,58.0,82.6171875,-27.34,4.604054,33.97
2021-06-29 16:16:47.351562500,-23.0,-10.0,58.0,82.62257812499999,-21.689999999999998,4.6011715,33.97
2021-06-29 16:16:47.359375000,-23.0,-10.0,58.0,82.62796875,-16.04,4.598289,33.97
2021-06-29 16:16:47.367187500,-23.0,-10.0,58.0,82.633359375,-10.09,4.5954065,33.97
2021-06-29 16:16:47.375000000,-23.0,-10.0,58.0,82.63874999999999,-4.14,4.592524,33.97
2021-06-29 16:16:47.382812500,-23.0,-10.0,58.0,82.64414062499999,1.6450000000000005,4.5896415,33.97
2021-06-29 16:16:47.390625000,-23.0,-10.0,58.0,82.64953125,7.43,4.586759,33.97
2021-06-29 16:16:47.398437500,-23.0,-10.0,58.0,82.654921875,12.665,4.5838765,33.97
2021-06-29 16:16:47.406250000,-23.0,-10.0,58.0,82.66031249999999,17.9,4.5809940000000005,33.97
2021-06-29 16:16:47.414062500,-23.0,-10.0,58.25,82.665703125,22.295,4.5781115,33.97
2021-06-29 16:16:47.421875000,-23.0,-10.0,58.5,82.67109375,26.69,4.575229,33.97
2021-06-29 16:16:47.429687500,-23.0,-10.0,58.75,82.676484375,30.009999999999998,4.5723465,33.97
2021-06-29 16:16:47.437500000,-23.0,-10.0,59.0,82.68187499999999,33.33,4.569464,33.97
2021-06-29 16:16:47.445312500,-23.0,-10.0,58.75,82.687265625,35.435,4.5665815,33.97
2021-06-29 16:16:47.453125000,-23.0,-10.0,58.5,82.69265625,37.54,4.563699,33.97
2021-06-29 16:16:47.460937500,-23.0,-10.0,58.25,82.69804687499999,38.415,4.5608165,33.97
2021-06-29 16:16:47.468750000,-23.0,-10.0,58.0,82.70343749999999,39.29,4.5579339999999995,33.97
2021-06-29 16:16:47.476562500,-23.0,-10.0,58.0,82.708828125,39.075,4.5550515,33.97
2021-06-29 16:16:47.484375000,-23.0,-10.0,58.0,82.71421875,38.86,4.552169,33.97
2021-06-29 16:16:47.492187500,-23.0,-10.0,58.0,82.71960937499999,37.855000000000004,4.5492865,33.97
2021-06-29 16:16:47.500000000,-23.0,-10.0,58.0,82.725,36.85,4.546404,33.97
2021-06-29 16:16:47.507812500,-23.0,-10.0,58.0,82.730390625,35.435,4.54336140625,33.97
2021-06-29 16:16:47.515625000,-23.0,-10.0,58.0,82.73578124999999,34.02,4.5403188125,33.97
2021-06-29 16:16:47.523437500,-23.0,-10.0,58.0,82.74117187499999,32.53,4.53727621875,33.97
2021-06-29 16:16:47.531250000,-23.0,-10.0,58.0,82.7465625,31.04,4.534233625,33.97
2021-06-29 16:16:47.539062500,-23.0,-10.0,58.0,82.751953125,29.695,4.53119103125,33.97
2021-06-29 16:16:47.546875000,-23.0,-10.0,58.0,82.75734374999999,28.35,4.5281484375,33.97
2021-06-29 16:16:47.554687500,-23.0,-10.0,58.0,82.762734375,27.19,4.52510584375,33.97
2021-06-29 16:16:47.562500000,-23.0,-10.0,58.0,82.768125,26.03,4.52206325,33.97
2021-06-29 16:16:47.570312500,-23.0,-10.0,58.0,82.77351562499999,24.94,4.51902065625,33.97
2021-06-29 16:16:47.578125000,-23.0,-10.0,58.0,82.77890624999999,23.85,4.5159780625,33.97
2021-06-29 16:16:47.585937500,-23.0,-10.0,58.0,82.784296875,22.625,4.51293546875,33.97
2021-06-29 16:16:47.593750000,-23.0,-10.0,58.0,82.7896875,21.4,4.509892875,33.97
2021-06-29 16:16:47.601562500,-23.0,-10.0,58.0,82.79507812499999,19.884999999999998,4.50685028125,33.97
2021-06-29 16:16:47.609375000,-23.0,-10.0,58.0,82.80046875,18.37,4.5038076875,33.97
2021-06-29 16:16:47.617187500,-23.0,-10.0,58.0,82.805859375,16.5,4.50076509375,33.97
2021-06-29 16:16:47.625000000,-23.0,-10.0,58.0,82.81125,14.63,4.4977225,33.97
2021-06-29 16:16:47.632812500,-23.0,-10.0,58.0,82.81664062499999,12.465,4.49467990625,33.97
2021-06-29 16:16:47.640625000,-23.0,-10.0,58.0,82.82203125,10.3,4.4916373125,33.97
2021-06-29 16:16:47.648437500,-23.0,-10.0,58.0,82.827421875,8.015,4.48859471875,33.97
2021-06-29 16:16:47.656250000,-23.0,-10.0,58.0,82.83281249999999,5.73,4.485552125,33.97
2021-06-29 16:16:47.664062500,-23.0,-10.0,58.0,82.83820312499999,3.515,4.48250953125,33.97
2021-06-29 16:16:47.671875000,-23.0,-10.0,58.0,82.84359375,1.3,4.4794669375,33.97
2021-06-29 16:16:47.679687500,-23.0,-10.0,58.0,82.848984375,-0.7350000000000001,4.47642434375,33.97
2021-06-29 16:16:47.687500000,-23.0,-10.0,58.0,82.85437499999999,-2.77,4.47338175,33.97
2021-06-29 16:16:47.695312500,-22.75,-10.0,58.0,82.859765625,-4.625,4.470339156250001,33.97
2021-06-29 16:16:47.703125000,-22.5,-10.0,58.0,82.86515625,-6.48,4.4672965625000005,33.97
2021-06-29 16:16:47.710937500,-22.25,-10.0,58.0,82.87054687499999,-8.32,4.4642539687500005,33.97
2021-06-29 16:16:47.718750000,-22.0,-10.0,58.0,82.87593749999999,-10.16,4.461211375,33.97
2021-06-29 16:16:47.726562500,-22.25,-10.0,58.0,82.881328125,-12.2,4.45816878125,33.97
2021-06-29 16:16:47.734375000,-22.5,-10.0,58.0,82.88671875,-14.24,4.4551261875,33.97
2021-06-29 16:16:47.742187500,-22.75,-10.0,58.0,82.89210937499999,-16.72,4.45208359375,33.97
2021-06-29 16:16:47.750000000,-23.0,-10.0,58.0,82.8975,-19.2,4.449041,33.97
2021-06-29 16:16:47.757812500,-23.0,-10.0,58.0,82.902890625,-22.240000000000002,4.44631865625,33.97
2021-06-29 16:16:47.765625000,-23.0,-10.0,58.0,82.90828124999999,-25.28,4.4435963125,33.97
2021-06-29 16:16:47.773437500,-23.0,-10.0,58.0,82.91367187499999,-28.835,4.44087396875,33.97
2021-06-29 16:16:47.781250000,-23.0,-10.0,58.0,82.9190625,-32.39,4.438151625000001,33.97
2021-06-29 16:16:47.789062500,-23.0,-10.0,58.0,82.924453125,-36.18,4.43542928125,33.97
2021-06-29 16:16:47.796875000,-23.0,-10.0,58.0,82.92984374999999,-39.97,4.4327069375,33.97
2021-06-29 16:16:47.804687500,-23.0,-10.0,58.0,82.935234375,-43.515,4.42998459375,33.97
2021-06-29 16:16:47.812500000,-23.0,-10.0,58.0,82.940625,-47.06,4.42726225,33.97
2021-06-29 16:16:47.820312500,-22.75,-10.0,58.25,82.94601562499999,-49.74,4.424539906250001,33.97
2021-06-29 16:16:47.828125000,-22.5,-10.0,58.5,82.95140624999999,-52.42,4.4218175625,33.97
2021-06-29 16:16:47.835937500,-22.25,-10.0,58.75,82.956796875,-53.595,4.41909521875,33.97
2021-06-29 16:16:47.843750000,-22.0,-10.0,59.0,82.9621875,-54.77,4.416372875,33.97
2021-06-29 16:16:47.851562500,-22.25,-10.0,58.75,82.96757812499999,-53.99,4.41365053125,33.97
2021-06-29 16:16:47.859375000,-22.5,-10.0,58.5,82.97296874999999,-53.21,4.410928187500001,33.97
2021-06-29 16:16:47.867187500,-22.75,-10.0,58.25,82.978359375,-50.325,4.40820584375,33.97
2021-06-29 16:16:47.875000000,-23.0,-10.0,58.0,82.98374999999999,-47.44,4.405483500000001,33.97
2021-06-29 16:16:47.882812500,-23.0,-10.0,58.25,82.98914062499999,-42.72,4.40276115625,33.97
2021-06-29 16:16:47.890625000,-23.0,-10.0,58.5,82.99453125,-38.0,4.4000388125,33.97
2021-06-29 16:16:47.898437500,-23.0,-10.0,58.75,82.999921875,-32.075,4.397316468750001,33.97
2021-06-29 16:16:47.906250000,-23.0,-10.0,59.0,83.00531249999999,-26.15,4.394594125,33.97
2021-06-29 16:16:47.914062500,-23.0,-10.0,58.75,83.01070312499999,-19.78,4.391871781250001,33.97
2021-06-29 16:16:47.921875000,-23.0,-10.0,58.5,83.01609375,-13.41,4.3891494375,33.97
2021-06-29 16:16:47.929687500,-23.0,-10.0,58.25,83.021484375,-7.285,4.38642709375,33.97
2021-06-29 16:16:47.937500000,-23.0,-10.0,58.0,83.02687499999999,-1.16,4.383704750000001,33.97
2021-06-29 16:16:47.945312500,-23.0,-10.0,58.0,83.032265625,4.2299999999999995,4.38098240625,33.97
2021-06-29 16:16:47.953125000,-23.0,-10.0,58.0,83.03765625,9.62,4.378260062500001,33.97
2021-06-29 16:16:47.960937500,-23.0,-10.0,58.0,83.04304687499999,14.07,4.37553771875,33.97
2021-06-29 16:16:47.968750000,-23.0,-10.0,58.0,83.04843749999999,18.52,4.372815375,33.97
2021-06-29 16:16:47.976562500,-22.75,-10.0,58.25,83.053828125,21.945,4.370093031250001,33.97
2021-06-29 16:16:47.984375000,-22.5,-10.0,58.5,83.05921875,25.37,4.3673706875,33.97
2021-06-29 16:16:47.992187500,-22.25,-10.0,58.75,83.06460937499999,27.745,4.364648343750001,33.97
2021-06-29 16:16:48.000000000,-22.0,-10.0,59.0,83.07,30.12,4.361926,33.97
2021-06-29 16:16:48.007812500,-22.25,-10.0,58.75,83.075234375,31.42,4.35904353125,33.970625
2021-06-29 16:16:48.015625000,-22.5,-10.0,58.5,83.08046875,32.72,4.3561610625,33.97125
2021-06-29 16:16:48.023437500,-22.75,-10.0,58.25,83.085703125,32.985,4.353278593750001,33.971875
2021-06-29 16:16:48.031250000,-23.0,-10.0,58.0,83.0909375,33.25,4.3503961250000005,33.9725
2021-06-29 16:16:48.039062500,-23.0,-10.0,58.0,83.096171875,32.635000000000005,4.34751365625,33.973124999999996
2021-06-29 16:16:48.046875000,-23.0,-10.0,58.0,83.10140625,32.02,4.3446311875,33.97375
2021-06-29 16:16:48.054687500,-23.0,-10.0,58.0,83.106640625,30.875,4.341748718750001,33.974375
2021-06-29 16:16:48.062500000,-23.0,-10.0,58.0,83.111875,29.73,4.338866250000001,33.975
2021-06-29 16:16:48.070312500,-23.0,-10.0,58.25,83.117109375,28.450000000000003,4.33598378125,33.975625
2021-06-29 16:16:48.078125000,-23.0,-10.0,58.5,83.12234375,27.17,4.3331013125,33.97625
2021-06-29 16:16:48.085937500,-23.0,-10.0,58.75,83.127578125,26.07,4.33021884375,33.976875
2021-06-29 16:16:48.093750000,-23.0,-10.0,59.0,83.1328125,24.97,4.327336375000001,33.9775
2021-06-29 16:16:48.101562500,-23.0,-10.0,58.75,83.13804687499999,24.134999999999998,4.3244539062500005,33.978125
2021-06-29 16:16:48.109375000,-23.0,-10.0,58.5,83.14328124999999,23.3,4.3215714375,33.97875
2021-06-29 16:16:48.117187500,-23.0,-10.0,58.25,83.14851562499999,22.55,4.31868896875,33.979375
2021-06-29 16:16:48.125000000,-23.0,-10.0,58.0,83.15374999999999,21.8,4.315806500000001,33.980000000000004
2021-06-29 16:16:48.132812500,-23.0,-10.0,58.25,83.15898437499999,20.83,4.312924031250001,33.980625
2021-06-29 16:16:48.140625000,-23.0,-10.0,58.5,83.16421874999999,19.86,4.3100415625,33.98125
2021-06-29 16:16:48.148437500,-23.0,-10.0,58.75,83.16945312499999,18.405,4.30715909375,33.981875
2021-06-29 16:16:48.156250000,-23.0,-10.0,59.0,83.17468749999999,16.95,4.304276625,33.9825
2021-06-29 16:16:48.164062500,-23.0,-10.0,58.75,83.17992187499999,14.945,4.301394156250001,33.983125
2021-06-29 16:16:48.171875000,-23.0,-10.0,58.5,83.18515624999999,12.94,4.2985116875000005,33.98375
2021-06-29 16:16:48.179687500,-23.0,-10.0,58.25,83.19039062499999,10.53,4.29562921875,33.984375
2021-06-29 16:16:48.187500000,-23.0,-10.0,58.0,83.19562499999999,8.12,4.29274675,33.985
2021-06-29 16:16:48.195312500,-23.0,-10.0,58.0,83.200859375,5.595,4.28986428125,33.985625
2021-06-29 16:16:48.203125000,-23.0,-10.0,58.0,83.20609375,3.07,4.2869818125000005,33.98625
2021-06-29 16:16:48.210937500,-23.0,-10.0,58.0,83.211328125,0.7149999999999999,4.28409934375,33.986875000000005
2021-06-29 16:16:48.218750000,-23.0,-10.0,58.0,83.2165625,-1.64,4.281216875,33.987500000000004
2021-06-29 16:16:48.226562500,-23.0,-10.0,58.0,83.221796875,-3.67,4.27833440625,33.988125000000004
2021-06-29 16:16:48.234375000,-23.0,-10.0,58.0,83.22703125,-5.7,4.275451937500001,33.98875
2021-06-29 16:16:48.242187500,-23.0,-10.0,58.0,83.232265625,-7.415000000000001,4.27256946875,33.989375
2021-06-29 16:16:48.250000000,-23.0,-10.0,58.0,83.2375,-9.13,4.269687,33.99
2021-06-29 16:16:48.257812500,-23.0,-10.0,58.0,83.242734375,-10.690000000000001,4.268085625,33.99
2021-06-29 16:16:48.265625000,-23.0,-10.0,58.0,83.24796875,-12.25,4.26648425,33.99
2021-06-29 16:16:48.273437500,-23.0,-10.0,58.0,83.253203125,-13.92,4.2648828750000005,33.99
2021-06-29 16:16:48.281250000,-23.0,-10.0,58.0,83.2584375,-15.59,4.2632815,33.99
2021-06-29 16:16:48.289062500,-23.0,-10.0,58.0,83.263671875,-17.630000000000003,4.261680125,33.99
2021-06-29 16:16:48.296875000,-23.0,-10.0,58.0,83.26890625,-19.67,4.26007875,33.99
2021-06-29 16:16:48.304687500,-23.0,-10.0,58.0,83.27414062499999,-22.275,4.258477375,33.99
2021-06-29 16:16:48.312500000,-23.0,-10.0,58.0,83.27937499999999,-24.88,4.256876,33.99
2021-06-29 16:16:48.320312500,-23.0,-10.0,58.0,83.28460937499999,-28.09,4.255274625,33.99
2021-06-29 16:16:48.328125000,-23.0,-10.0,58.0,83.28984374999999,-31.3,4.25367325,33.99
2021-06-29 16:16:48.335937500,-23.0,-10.0,58.0,83.29507812499999,-34.955,4.252071875,33.99
2021-06-29 16:16:48.343750000,-23.0,-10.0,58.0,83.30031249999999,-38.61,4.2504705000000005,33.99
2021-06-29 16:16:48.351562500,-23.0,-10.0,58.0,83.30554687499999,-42.335,4.248869125,33.99
2021-06-29 16:16:48.359375000,-23.0,-10.0,58.0,83.31078124999999,-46.06,4.24726775,33.99
2021-06-29 16:16:48.367187500,-23.0,-10.0,58.0,83.31601562499999,-49.285,4.245666375,33.99
2021-06-29 16:16:48.375000000,-23.0,-10.0,58.0,83.32124999999999,-52.51,4.244065,33.99
2021-06-29 16:16:48.382812500,-23.0,-10.0,58.0,83.32648437499999,-54.625,4.242463625,33.99
2021-06-29 16:16:48.390625000,-23.0,-10.0,58.0,83.33171875,-56.74,4.24086225,33.99
2021-06-29 16:16:48.398437500,-23.0,-10.0,58.0,83.336953125,-57.235,4.239260875,33.99
2021-06-29 16:16:48.406250000,-23.0,-10.0,58.0,83.3421875,-57.73,4.2376594999999995,33.99
2021-06-29 16:16:48.414062500,-23.0,-10.0,58.25,83.347421875,-56.345,4.236058125,33.99
2021-06-29 16:16:48.421875000,-23.0,-10.0,58.5,83.35265625,-54.96,4.23445675,33.99
2021-06-29 16:16:48.429687500,-23.0,-10.0,58.75,83.357890625,-51.745000000000005,4.232855375,33.99
2021-06-29 16:16:48.437500000,-23.0,-10.0,59.0,83.363125,-48.53,4.231254,33.99
2021-06-29 16:16:48.445312500,-23.0,-10.0,58.75,83.368359375,-43.82,4.229652625,33.99
2021-06-29 16:16:48.453125000,-23.0,-10.0,58.5,83.37359375,-39.11,4.22805125,33.99
2021-06-29 16:16:48.460937500,-23.0,-10.0,58.25,83.378828125,-33.41,4.226449875,33.99
2021-06-29 16:16:48.468750000,-23.0,-10.0,58.0,83.3840625,-27.71,4.2248485,33.99
2021-06-29 16:16:48.476562500,-23.0,-10.0,58.25,83.389296875,-21.555,4.223247124999999,33.99
2021-06-29 16:16:48.484375000,-23.0,-10.0,58.5,83.39453125,-15.4,4.2216457499999995,33.99
2021-06-29 16:16:48.492187500,-23.0,-10.0,58.75,83.399765625,-9.24,4.220044375,33.99
2021-06-29 16:16:48.500000000,-23.0,-10.0,59.0,83.405,-3.08,4.218443,33.99
2021-06-29 16:16:48.507812500,-23.0,-10.0,58.75,83.41023437499999,2.75,4.2167615624999994,33.99
2021-06-29 16:16:48.515625000,-23.0,-10.0,58.5,83.41546874999999,8.58,4.215080125,33.99
2021-06-29 16:16:48.523437500,-23.0,-10.0,58.25,83.42070312499999,13.82,4.2133986875,33.99
2021-06-29 16:16:48.531250000,-23.0,-10.0,58.0,83.42593749999999,19.06,4.2117172499999995,33.99
2021-06-29 16:16:48.539062500,-23.0,-10.0,58.0,83.43117187499999,23.485,4.2100358125,33.99
2021-06-29 16:16:48.546875000,-23.0,-10.0,58.0,83.43640624999999,27.91,4.208354375,33.99
2021-06-29 16:16:48.554687500,-23.0,-10.0,58.0,83.44164062499999,31.325000000000003,4.2066729375,33.99
2021-06-29 16:16:48.562500000,-23.0,-10.0,58.0,83.44687499999999,34.74,4.2049915,33.99
2021-06-29 16:16:48.570312500,-23.0,-10.0,58.0,83.45210937499999,37.005,4.2033100625,33.99
2021-06-29 16:16:48.578125000,-23.0,-10.0,58.0,83.45734374999999,39.27,4.201628625,33.99
2021-06-29 16:16:48.585937500,-23.0,-10.0,58.0,83.462578125,40.35,4.199947187499999,33.99
2021-06-29 16:16:48.593750000,-23.0,-10.0,58.0,83.4678125,41.43,4.19826575,33.99
2021-06-29 16:16:48.601562500,-23.0,-10.0,58.0,83.473046875,41.46,4.1965843125,33.99
2021-06-29 16:16:48.609375000,-23.0,-10.0,58.0,83.47828125,41.49,4.1949028749999995,33.99
2021-06-29 16:16:48.617187500,-23.0,-10.0,58.0,83.483515625,40.765,4.1932214375,33.99
2021-06-29 16:16:48.625000000,-23.0,-10.0,58.0,83.48875,40.04,4.19154,33.99
2021-06-29 16:16:48.632812500,-23.0,-10.0,58.0,83.493984375,38.945,4.1898585624999996,33.99
2021-06-29 16:16:48.640625000,-23.0,-10.0,58.0,83.49921875,37.85,4.188177125,33.99
2021-06-29 16:16:48.648437500,-23.0,-10.0,58.0,83.504453125,36.754999999999995,4.1864956875,33.99
2021-06-29 16:16:48.656250000,-23.0,-10.0,58.0,83.5096875,35.66,4.18481425,33.99
2021-06-29 16:16:48.664062500,-23.0,-10.0,58.0,83.514921875,34.81,4.1831328125,33.99
2021-06-29 16:16:48.671875000,-23.0,-10.0,58.0,83.52015625,33.96,4.181451375,33.99
2021-06-29 16:16:48.679687500,-23.0,-10.0,58.0,83.525390625,33.39,4.1797699375,33.99
2021-06-29 16:16:48.687500000,-23.0,-10.0,58.0,83.530625,32.82,4.178088499999999,33.99
2021-06-29 16:16:48.695312500,-23.0,-10.0,58.0,83.535859375,32.39,4.1764070625,33.99
2021-06-29 16:16:48.703125000,-23.0,-10.0,58.0,83.54109374999999,31.96,4.174725625,33.99
2021-06-29 16:16:48.710937500,-23.0,-10.0,58.0,83.54632812499999,31.4,4.1730441874999995,33.99
2021-06-29 16:16:48.718750000,-23.0,-10.0,58.0,83.55156249999999,30.84,4.17136275,33.99
2021-06-29 16:16:48.726562500,-23.0,-10.0,58.25,83.55679687499999,29.905,4.1696813125,33.99
2021-06-29 16:16:48.734375000,-23.0,-10.0,58.5,83.56203124999999,28.97,4.167999875,33.99
2021-06-29 16:16:48.742187500,-23.0,-10.0,58.75,83.56726562499999,27.505,4.1663184375,33.99
2021-06-29 16:16:48.750000000,-23.0,-10.0,59.0,83.57249999999999,26.04,4.164637,33.99
2021-06-29 16:16:48.757812500,-23.0,-10.0,58.75,83.57773437499999,24.08,4.1638363125,33.99
2021-06-29 16:16:48.765625000,-23.0,-10.0,58.5,83.58296874999999,22.12,4.163035625,33.99
2021-06-29 16:16:48.773437500,-23.0,-10.0,58.25,83.58820312499999,19.795,4.1622349375,33.99
2021-06-29 16:16:48.781250000,-23.0,-10.0,58.0,83.5934375,17.47,4.16143425,33.99
2021-06-29 16:16:48.789062500,-23.0,-10.25,58.0,83.598671875,14.98,4.1606335625,33.99
2021-06-29 16:16:48.796875000,-23.0,-10.5,58.0,83.60390625,12.49,4.159832875,33.99
2021-06-29 16:16:48.804687500,-23.0,-10.75,58.0,83.609140625,9.985,4.1590321875,33.99
2021-06-29 16:16:48.812500000,-23.0,-11.0,58.0,83.614375,7.48,4.158231499999999,33.99
2021-06-29 16:16:48.820312500,-23.0,-10.75,58.25,83.619609375,5.025,4.1574308124999995,33.99
2021-06-29 16:16:48.828125000,-23.0,-10.5,58.5,83.62484375,2.57,4.1566301249999995,33.99
2021-06-29 16:16:48.835937500,-23.0,-10.25,58.75,83.630078125,0.11499999999999977,4.1558294375,33.99
2021-06-29 16:16:48.843750000,-23.0,-10.0,59.0,83.6353125,-2.34,4.15502875,33.99
2021-06-29 16:16:48.851562500,-23.0,-10.0,58.75,83.640546875,-4.890000000000001,4.1542280625,33.99
2021-06-29 16:16:48.859375000,-23.0,-10.0,58.5,83.64578125,-7.44,4.153427375,33.99
2021-06-29 16:16:48.867187500,-23.0,-10.0,58.25,83.651015625,-10.21,4.1526266875,33.99
2021-06-29 16:16:48.875000000,-23.0,-10.0,58.0,83.65625,-12.98,4.151826,33.99
2021-06-29 16:16:48.882812500,-23.0,-10.0,58.0,83.661484375,-16.035,4.1510253125,33.99
2021-06-29 16:16:48.890625000,-23.0,-10.0,58.0,83.66671875,-19.09,4.150224625,33.99
2021-06-29 16:16:48.898437500,-23.0,-10.0,58.0,83.671953125,-22.5,4.1494239375,33.99
2021-06-29 16:16:48.906250000,-23.0,-10.0,58.0,83.67718749999999,-25.91,4.14862325,33.99
2021-06-29 16:16:48.914062500,-23.25,-10.0,58.0,83.68242187499999,-29.655,4.1478225625,33.99
2021-06-29 16:16:48.921875000,-23.5,-10.0,58.0,83.68765624999999,-33.4,4.147021875,33.99
2021-06-29 16:16:48.929687500,-23.75,-10.0,58.0,83.69289062499999,-37.385,4.1462211875,33.99
2021-06-29 16:16:48.937500000,-24.0,-10.0,58.0,83.69812499999999,-41.37,4.1454205,33.99
2021-06-29 16:16:48.945312500,-23.75,-10.0,58.0,83.70335937499999,-45.34,4.144619812499999,33.99
2021-06-29 16:16:48.953125000,-23.5,-10.0,58.0,83.70859374999999,-49.31,4.143819124999999,33.99
2021-06-29 16:16:48.960937500,-23.25,-10.0,58.0,83.71382812499999,-52.835,4.143018437499999,33.99
2021-06-29 16:16:48.968750000,-23.0,-10.0,58.0,83.71906249999999,-56.36,4.1422177499999995,33.99
2021-06-29 16:16:48.976562500,-23.0,-10.0,58.0,83.724296875,-58.86,4.1414170624999995,33.99
2021-06-29 16:16:48.984375000,-23.0,-10.0,58.0,83.72953125,-61.36,4.140616375,33.99
2021-06-29 16:16:48.992187500,-23.0,-10.0,58.0,83.734765625,-62.269999999999996,4.1398156875,33.99
2021-06-29 16:16:49.000000000,-23.0,-10.0,58.0,83.74,-63.18,4.139015,33.99
2021-06-29 16:16:49.007812500,-23.0,-10.0,58.0,83.745234375,-62.095,4.137934062499999,33.989375
2021-06-29 16:16:49.015625000,-23.0,-10.0,58.0,83.75046875,-61.01,4.136853125,33.98875
2021-06-29 16:16:49.023437500,-23.0,-10.0,58.0,83.755703125,-57.86,4.1357721875,33.988125000000004
2021-06-29 16:16:49.031250000,-23.0,-10.0,58.0,83.7609375,-54.71,4.1346912499999995,33.987500000000004
2021-06-29 16:16:49.039062500,-23.0,-10.0,58.0,83.766171875,-49.785,4.1336103125,33.986875000000005
2021-06-29 16:16:49.046875000,-23.0,-10.0,58.0,83.77140625,-44.86,4.132529375,33.98625
2021-06-29 16:16:49.054687500,-23.0,-10.0,58.0,83.776640625,-38.730000000000004,4.1314484375,33.985625
2021-06-29 16:16:49.062500000,-23.0,-10.0,58.0,83.781875,-32.6,4.1303675,33.985
2021-06-29 16:16:49.070312500,-23.0,-10.25,58.0,83.787109375,-25.935000000000002,4.1292865625,33.984375
2021-06-29 16:16:49.078125000,-23.0,-10.5,58.0,83.79234375,-19.27,4.128205625,33.98375
2021-06-29 16:16:49.085937500,-23.0,-10.75,58.0,83.797578125,-12.7,4.127124687499999,33.983125
2021-06-29 16:16:49.093750000,-23.0,-11.0,58.0,83.8028125,-6.13,4.12604375,33.9825
2021-06-29 16:16:49.101562500,-22.75,-10.75,58.25,83.80804687499999,-0.09499999999999975,4.1249628125,33.981875
2021-06-29 16:16:49.109375000,-22.5,-10.5,58.5,83.81328124999999,5.94,4.1238818749999995,33.98125
2021-06-29 16:16:49.117187500,-22.25,-10.25,58.75,83.81851562499999,11.195,4.1228009375,33.980625
2021-06-29 16:16:49.125000000,-22.0,-10.0,59.0,83.82374999999999,16.45,4.12172,33.980000000000004
2021-06-29 16:16:49.132812500,-22.25,-10.25,59.0,83.82898437499999,20.805,4.1206390625,33.979375
2021-06-29 16:16:49.140625000,-22.5,-10.5,59.0,83.83421874999999,25.16,4.119558125,33.97875
2021-06-29 16:16:49.148437500,-22.75,-10.75,59.0,83.83945312499999,28.590000000000003,4.1184771875,33.978125
2021-06-29 16:16:49.156250000,-23.0,-11.0,59.0,83.84468749999999,32.02,4.11739625,33.9775
2021-06-29 16:16:49.164062500,-23.0,-10.75,58.75,83.84992187499999,34.52,4.1163153125,33.976875
2021-06-29 16:16:49.171875000,-23.0,-10.5,58.5,83.85515625,37.02,4.115234375,33.97625
2021-06-29 16:16:49.179687500,-23.0,-10.25,58.25,83.860390625,38.595,4.1141534375,33.975625
2021-06-29 16:16:49.187500000,-23.0,-10.0,58.0,83.865625,40.17,4.1130724999999995,33.975
2021-06-29 16:16:49.195312500,-23.0,-10.0,58.25,83.870859375,40.91,4.1119915625,33.974375
2021-06-29 16:16:49.203125000,-23.0,-10.0,58.5,83.87609375,41.65,4.110910625,33.97375
2021-06-29 16:16:49.210937500,-23.0,-10.0,58.75,83.881328125,41.67,4.1098296874999996,33.973124999999996
2021-06-29 16:16:49.218750000,-23.0,-10.0,59.0,83.8865625,41.69,4.10874875,33.9725
2021-06-29 16:16:49.226562500,-23.0,-10.0,58.75,83.891796875,41.19,4.1076678125,33.971875
2021-06-29 16:16:49.234375000,-23.0,-10.0,58.5,83.89703125,40.69,4.106586875,33.97125
2021-06-29 16:16:49.242187500,-23.0,-10.0,58.25,83.902265625,39.86,4.1055059375,33.970625
2021-06-29 16:16:49.250000000,-23.0,-10.0,58.0,83.9075,39.03,4.104425,33.97
2021-06-29 16:16:49.257812500,-22.75,-10.0,58.0,83.912734375,38.04,4.10446503125,33.97
2021-06-29 16:16:49.265625000,-22.5,-10.0,58.0,83.91796875,37.05,4.1045050625,33.97
2021-06-29 16:16:49.273437500,-22.25,-10.0,58.0,83.923203125,36.0,4.10454509375,33.97
2021-06-29 16:16:49.281250000,-22.0,-10.0,58.0,83.9284375,34.95,4.104585125,33.97
2021-06-29 16:16:49.289062500,-22.25,-10.0,58.0,83.933671875,33.88,4.10462515625,33.97
2021-06-29 16:16:49.296875000,-22.5,-10.0,58.0,83.93890625,32.81,4.1046651875,33.97
2021-06-29 16:16:49.304687500,-22.75,-10.0,58.0,83.94414062499999,31.725,4.1047052187499995,33.97
2021-06-29 16:16:49.312500000,-23.0,-10.0,58.0,83.94937499999999,30.64,4.10474525,33.97
2021-06-29 16:16:49.320312500,-23.0,-10.0,58.25,83.95460937499999,29.55,4.10478528125,33.97
2021-06-29 16:16:49.328125000,-23.0,-10.0,58.5,83.95984374999999,28.46,4.1048253125,33.97
2021-06-29 16:16:49.335937500,-23.0,-10.0,58.75,83.96507812499999,27.395,4.10486534375,33.97
2021-06-29 16:16:49.343750000,-23.0,-10.0,59.0,83.97031249999999,26.33,4.1049053749999995,33.97
2021-06-29 16:16:49.351562500,-23.0,-10.0,59.0,83.97554687499999,25.31,4.10494540625,33.97
2021-06-29 16:16:49.359375000,-23.0,-10.0,59.0,83.98078124999999,24.29,4.1049854375,33.97
2021-06-29 16:16:49.367187500,-23.0,-10.0,59.0,83.986015625,23.285,4.10502546875,33.97
2021-06-29 16:16:49.375000000,-23.0,-10.0,59.0,83.99125,22.28,4.1050655,33.97
2021-06-29 16:16:49.382812500,-23.0,-10.25,58.75,83.996484375,21.175,4.1051055312499996,33.97
2021-06-29 16:16:49.390625000,-23.0,-10.5,58.5,84.00171875,20.07,4.1051455625,33.97
2021-06-29 16:16:49.398437500,-23.0,-10.75,58.25,84.006953125,18.689999999999998,4.10518559375,33.97
2021-06-29 16:16:49.406250000,-23.0,-11.0,58.0,84.0121875,17.31,4.105225625,33.97
2021-06-29 16:16:49.414062500,-23.0,-10.75,58.25,84.017421875,15.515,4.105265656249999,33.97
2021-06-29 16:16:49.421875000,-23.0,-10.5,58.5,84.02265625,13.72,4.1053056875,33.97
2021-06-29 16:16:49.429687500,-23.0,-10.25,58.75,84.027890625,11.465,4.10534571875,33.97
2021-06-29 16:16:49.437500000,-23.0,-10.0,59.0,84.033125,9.21,4.10538575,33.97
2021-06-29 16:16:49.445312500,-23.0,-10.0,58.75,84.038359375,6.605,4.10542578125,33.97
2021-06-29 16:16:49.453125000,-23.0,-10.0,58.5,84.04359375,4.0,4.105465812499999,33.97
2021-06-29 16:16:49.460937500,-23.0,-10.0,58.25,84.048828125,1.23,4.10550584375,33.97
2021-06-29 16:16:49.468750000,-23.0,-10.0,58.0,84.0540625,-1.54,4.105545875,33.97
2021-06-29 16:16:49.476562500,-23.0,-10.0,58.0,84.059296875,-4.255,4.10558590625,33.97
2021-06-29 16:16:49.484375000,-23.0,-10.0,58.0,84.06453125,-6.97,4.105625937499999,33.97
2021-06-29 16:16:49.492187500,-23.0,-10.0,58.0,84.069765625,-9.54,4.1056659687499995,33.97
2021-06-29 16:16:49.500000000,-23.0,-10.0,58.0,84.07499999999999,-12.11,4.105706,33.97
2021-06-29 16:16:49.507812500,-23.0,-10.0,58.0,84.08023437499999,-14.545,4.106066312499999,33.97
2021-06-29 16:16:49.515625000,-23.0,-10.0,58.0,84.08546874999999,-16.98,4.106426624999999,33.97
2021-06-29 16:16:49.523437500,-23.0,-10.0,58.0,84.09070312499999,-19.395,4.1067869375,33.97
2021-06-29 16:16:49.531250000,-23.0,-10.0,58.0,84.09593749999999,-21.81,4.10714725,33.97
2021-06-29 16:16:49.539062500,-23.0,-10.0,58.0,84.10117187499999,-24.365000000000002,4.1075075624999995,33.97
2021-06-29 16:16:49.546875000,-23.0,-10.0,58.0,84.10640624999999,-26.92,4.107867875,33.97
2021-06-29 16:16:49.554687500,-23.0,-10.0,58.0,84.11164062499999,-29.745,4.1082281875,33.97
2021-06-29 16:16:49.562500000,-23.0,-10.0,58.0,84.116875,-32.57,4.1085885,33.97
2021-06-29 16:16:49.570312500,-23.0,-10.0,58.0,84.122109375,-35.695,4.1089488124999995,33.97
2021-06-29 16:16:49.578125000,-23.0,-10.0,58.0,84.12734375,-38.82,4.109309124999999,33.97
2021-06-29 16:16:49.585937500,-23.0,-10.0,58.0,84.132578125,-42.144999999999996,4.1096694375,33.97
2021-06-29 16:16:49.593750000,-23.0,-10.0,58.0,84.1378125,-45.47,4.11002975,33.97
2021-06-29 16:16:49.601562500,-23.0,-10.0,58.0,84.143046875,-48.730000000000004,4.1103900625,33.97
2021-06-29 16:16:49.609375000,-23.0,-10.0,58.0,84.14828125,-51.99,4.110750375,33.97
2021-06-29 16:16:49.617187500,-23.0,-10.0,58.0,84.153515625,-54.765,4.1111106875,33.97
2021-06-29 16:16:49.625000000,-23.0,-10.0,58.0,84.15875,-57.54,4.111471,33.97
2021-06-29 16:16:49.632812500,-23.0,-10.0,58.0,84.163984375,-59.33,4.1118313125,33.97
2021-06-29 16:16:49.640625000,-23.0,-10.0,58.0,84.16921875,-61.12,4.1121916249999995,33.97
2021-06-29 16:16:49.648437500,-23.0,-10.0,58.0,84.174453125,-61.45,4.1125519375,33.97
2021-06-29 16:16:49.656250000,-23.0,-10.0,58.0,84.1796875,-61.78,4.11291225,33.97
2021-06-29 16:16:49.664062500,-23.0,-10.0,58.0,84.184921875,-60.36,4.1132725625,33.97
2021-06-29 16:16:49.671875000,-23.0,-10.0,58.0,84.19015625,-58.94,4.113632875,33.97
2021-06-29 16:16:49.679687500,-23.0,-10.0,58.0,84.195390625,-55.76,4.1139931875,33.97
2021-06-29 16:16:49.687500000,-23.0,-10.0,58.0,84.200625,-52.58,4.1143535,33.97
2021-06-29 16:16:49.695312500,-23.0,-10.0,58.0,84.205859375,-47.94,4.1147138125,33.97
2021-06-29 16:16:49.703125000,-23.0,-10.0,58.0,84.21109374999999,-43.3,4.115074125,33.97
2021-06-29 16:16:49.710937500,-23.0,-10.0,58.0,84.21632812499999,-37.68,4.1154344375,33.97
2021-06-29 16:16:49.718750000,-23.0,-10.0,58.0,84.22156249999999,-32.06,4.11579475,33.97
2021-06-29 16:16:49.726562500,-23.0,-10.0,58.0,84.22679687499999,-26.01,4.1161550625,33.97
2021-06-29 16:16:49.734375000,-23.0,-10.0,58.0,84.23203124999999,-19.96,4.1165153750000005,33.97
2021-06-29 16:16:49.742187500,-23.0,-10.0,58.0,84.23726562499999,-13.950000000000001,4.1168756875,33.97
2021-06-29 16:16:49.750000000,-23.0,-10.0,58.0,84.24249999999999,-7.94,4.117236,33.97
2021-06-29 16:16:49.757812500,-23.0,-10.0,58.0,84.247734375,-2.3200000000000003,4.11727603125,33.97
2021-06-29 16:16:49.765625000,-23.0,-10.0,58.0,84.25296875,3.3,4.1173160625000005,33.97
2021-06-29 16:16:49.773437500,-23.0,-10.0,58.0,84.258203125,8.274999999999999,4.11735609375,33.97
2021-06-29 16:16:49.781250000,-23.0,-10.0,58.0,84.2634375,13.25,4.117396125,33.97
2021-06-29 16:16:49.789062500,-23.0,-10.0,58.0,84.268671875,17.39,4.11743615625,33.97
2021-06-29 16:16:49.796875000,-23.0,-10.0,58.0,84.27390625,21.53,4.1174761875,33.97
2021-06-29 16:16:49.804687500,-23.0,-10.0,58.0,84.279140625,24.66,4.11751621875,33.97
2021-06-29 16:16:49.812500000,-23.0,-10.0,58.0,84.284375,27.79,4.11755625,33.97
2021-06-29 16:16:49.820312500,-23.0,-10.0,58.25,84.289609375,29.83,4.11759628125,33.97
2021-06-29 16:16:49.828125000,-23.0,-10.0,58.5,84.29484375,31.87,4.1176363125,33.97
2021-06-29 16:16:49.835937500,-23.0,-10.0,58.75,84.300078125,32.85,4.11767634375,33.97
2021-06-29 16:16:49.843750000,-23.0,-10.0,59.0,84.3053125,33.83,4.117716375,33.97
2021-06-29 16:16:49.851562500,-23.0,-10.0,58.75,84.310546875,33.92,4.11775640625,33.97
2021-06-29 16:16:49.859375000,-23.0,-10.0,58.5,84.31578125,34.01,4.1177964375,33.97
2021-06-29 16:16:49.867187500,-23.0,-10.0,58.25,84.321015625,33.485,4.11783646875,33.97
2021-06-29 16:16:49.875000000,-23.0,-10.0,58.0,84.32625,32.96,4.1178764999999995,33.97
2021-06-29 16:16:49.882812500,-23.0,-10.0,58.0,84.331484375,32.15,4.11791653125,33.97
2021-06-29 16:16:49.890625000,-23.0,-10.0,58.0,84.33671875,31.34,4.1179565625,33.97
2021-06-29 16:16:49.898437500,-23.0,-10.0,58.0,84.341953125,30.48,4.11799659375,33.97
2021-06-29 16:16:49.906250000,-23.0,-10.0,58.0,84.34718749999999,29.62,4.118036625,33.97
2021-06-29 16:16:49.914062500,-23.0,-10.0,58.0,84.35242187499999,28.875,4.1180766562499995,33.97
2021-06-29 16:16:49.921875000,-23.0,-10.0,58.0,84.35765624999999,28.13,4.1181166875,33.97
2021-06-29 16:16:49.929687500,-23.0,-10.0,58.0,84.36289062499999,27.52,4.11815671875,33.97
2021-06-29 16:16:49.937500000,-23.0,-10.0,58.0,84.36812499999999,26.91,4.11819675,33.97
2021-06-29 16:16:49.945312500,-23.0,-10.0,58.25,84.37335937499999,26.380000000000003,4.11823678125,33.97
2021-06-29 16:16:49.953125000,-23.0,-10.0,58.5,84.37859375,25.85,4.1182768124999996,33.97
2021-06-29 16:16:49.960937500,-23.0,-10.0,58.75,84.383828125,25.305,4.11831684375,33.97
2021-06-29 16:16:49.968750000,-23.0,-10.0,59.0,84.3890625,24.76,4.118356875,33.97
2021-06-29 16:16:49.976562500,-23.0,-10.0,58.75,84.394296875,24.135,4.11839690625,33.97
2021-06-29 16:16:49.984375000,-23.0,-10.0,58.5,84.39953125,23.51,4.118436937499999,33.97
2021-06-29 16:16:49.992187500,-23.0,-10.0,58.25,84.404765625,22.745,4.11847696875,33.97
2021-06-29 16:16:50.000000000,-23.0,-10.0,58.0,84.41,21.98,4.118517,33.97
2021-06-29 16:16:50.007812500,-23.0,-10.0,58.0,84.41484375,21.035,4.11855703125,33.97
2021-06-29 16:16:50.015625000,-23.0,-10.0,58.0,84.4196875,20.09,4.1185970625,33.97
2021-06-29 16:16:50.023437500,-23.0,-10.0,58.0,84.42453125,18.925,4.118637093749999,33.97
2021-06-29 16:16:50.031250000,-23.0,-10.0,58.0,84.429375,17.76,4.118677125,33.97
2021-06-29 16:16:50.039062500,-23.0,-10.0,58.25,84.43421875,16.32,4.11871715625,33.97
2021-06-29 16:16:50.046875000,-23.0,-10.0,58.5,84.43906249999999,14.88,4.1187571875,33.97
2021-06-29 16:16:50.054687500,-23.0,-10.0,58.75,84.44390625,13.11,4.11879721875,33.97
2021-06-29 16:16:50.062500000,-23.0,-10.0,59.0,84.44874999999999,11.34,4.11883725,33.97
2021-06-29 16:16:50.070312500,-23.0,-10.0,58.75,84.45359375,9.24,4.11887728125,33.97
2021-06-29 16:16:50.078125000,-23.0,-10.0,58.5,84.4584375,7.14,4.1189173125,33.97
2021-06-29 16:16:50.085937500,-23.0,-10.0,58.25,84.46328125,4.755,4.11895734375,33.97
2021-06-29 16:16:50.093750000,-23.0,-10.0,58.0,84.468125,2.37,4.118997375,33.97
2021-06-29 16:16:50.101562500,-23.0,-10.0,58.0,84.47296874999999,-0.1299999999999999,4.11903740625,33.97
2021-06-29 16:16:50.109375000,-23.0,-10.0,58.0,84.4778125,-2.63,4.1190774375,33.97
2021-06-29 16:16:50.117187500,-23.0,-10.0,58.0,84.48265624999999,-5.07,4.11911746875,33.97
2021-06-29 16:16:50.125000000,-23.0,-10.0,58.0,84.4875,-7.51,4.1191575,33.97
2021-06-29 16:16:50.132812500,-23.0,-10.0,58.0,84.49234375,-9.725,4.11919753125,33.97
2021-06-29 16:16:50.140625000,-23.0,-10.0,58.0,84.4971875,-11.94,4.1192375625,33.97
2021-06-29 16:16:50.148437500,-23.0,-10.0,58.0,84.50203125,-13.864999999999998,4.11927759375,33.97
2021-06-29 16:16:50.156250000,-23.0,-10.0,58.0,84.506875,-15.79,4.119317625,33.97
2021-06-29 16:16:50.164062500,-23.0,-10.0,58.0,84.51171875,-17.5,4.11935765625,33.97
2021-06-29 16:16:50.171875000,-23.0,-10.0,58.0,84.51656249999999,-19.21,4.1193976875,33.97
2021-06-29 16:16:50.179687500,-23.0,-10.0,58.0,84.52140625,-20.875,4.11943771875,33.97
2021-06-29 16:16:50.187500000,-23.0,-10.0,58.0,84.52625,-22.54,4.11947775,33.97
2021-06-29 16:16:50.195312500,-23.0,-10.0,58.0,84.53109375,-24.38,4.11951778125,33.97
2021-06-29 16:16:50.203125000,-23.0,-10.0,58.0,84.5359375,-26.22,4.1195578125,33.97
2021-06-29 16:16:50.210937500,-23.0,-10.0,58.0,84.54078125,-28.4,4.11959784375,33.97
2021-06-29 16:16:50.218750000,-23.0,-10.0,58.0,84.545625,-30.58,4.1196378750000004,33.97
2021-06-29 16:16:50.226562500,-23.0,-10.0,58.0,84.55046875,-33.175,4.119677906250001,33.97
2021-06-29 16:16:50.234375000,-23.0,-10.0,58.0,84.5553125,-35.77,4.1197179375,33.97
2021-06-29 16:16:50.242187500,-23.0,-10.0,58.0,84.56015624999999,-38.685,4.11975796875,33.97
2021-06-29 16:16:50.250000000,-23.0,-10.0,58.0,84.565,-41.6,4.119798,33.97
2021-06-29 16:16:50.257812500,-23.0,-10.0,58.0,84.56984375,-44.575,4.119677906250001,33.97
2021-06-29 16:16:50.265625000,-23.0,-10.0,58.0,84.5746875,-47.55,4.1195578125,33.97
2021-06-29 16:16:50.273437500,-23.0,-10.0,58.0,84.57953125,-50.205,4.11943771875,33.97
2021-06-29 16:16:50.281250000,-23.0,-10.0,58.0,84.584375,-52.86,4.119317625,33.97
2021-06-29 16:16:50.289062500,-23.0,-10.0,58.0,84.58921875,-54.71,4.11919753125,33.97
2021-06-29 16:16:50.296875000,-23.0,-10.0,58.0,84.59406249999999,-56.56,4.1190774375000005,33.97
2021-06-29 16:16:50.304687500,-23.0,-10.0,58.0,84.59890625,-57.14,4.11895734375,33.97
2021-06-29 16:16:50.312500000,-23.0,-10.0,58.0,84.60374999999999,-57.72,4.11883725,33.97
2021-06-29 16:16:50.320312500,-23.0,-10.0,58.0,84.60859375,-56.715,4.11871715625,33.97
2021-06-29 16:16:50.328125000,-23.0,-10.0,58.0,84.6134375,-55.71,4.1185970625,33.97
2021-06-29 16:16:50.335937500,-23.0,-10.0,58.0,84.61828125,-53.05,4.1184769687500005,33.97
2021-06-29 16:16:50.343750000,-23.0,-10.0,58.0,84.623125,-50.39,4.118356875,33.97
2021-06-29 16:16:50.351562500,-23.0,-10.0,58.0,84.62796875,-46.315,4.11823678125,33.97
2021-06-29 16:16:50.359375000,-23.0,-10.0,58.0,84.6328125,-42.24,4.1181166875,33.97
2021-06-29 16:16:50.367187500,-23.0,-10.0,58.0,84.63765624999999,-37.225,4.11799659375,33.97
2021-06-29 16:16:50.375000000,-23.0,-10.0,58.0,84.6425,-32.21,4.1178764999999995,33.97
2021-06-29 16:16:50.382812500,-23.0,-10.0,58.0,84.64734375,-26.82,4.11775640625,33.97
2021-06-29 16:16:50.390625000,-23.0,-10.0,58.0,84.6521875,-21.43,4.1176363125,33.97
2021-06-29 16:16:50.398437500,-23.0,-10.0,58.0,84.65703125,-16.195,4.11751621875,33.97
2021-06-29 16:16:50.406250000,-23.0,-10.0,58.0,84.661875,-10.96,4.117396125,33.97
2021-06-29 16:16:50.414062500,-23.0,-10.0,58.0,84.66671875,-6.235,4.117276031249999,33.97
2021-06-29 16:16:50.421875000,-23.0,-10.0,58.0,84.6715625,-1.51,4.1171559375,33.97
2021-06-29 16:16:50.429687500,-23.0,-10.0,58.0,84.67640625,2.5150000000000006,4.11703584375,33.97
2021-06-29 16:16:50.437500000,-23.0,-10.0,58.0,84.68125,6.54,4.1169157499999995,33.97
2021-06-29 16:16:50.445312500,-23.0,-10.25,58.0,84.68609375,9.8,4.11679565625,33.97
2021-06-29 16:16:50.453125000,-23.0,-10.5,58.0,84.6909375,13.06,4.116675562499999,33.97
2021-06-29 16:16:50.460937500,-23.0,-10.75,58.0,84.69578125,15.559999999999999,4.11655546875,33.97
2021-06-29 16:16:50.468750000,-23.0,-11.0,58.0,84.700625,18.06,4.116435375,33.97
2021-06-29 16:16:50.476562500,-23.0,-10.75,58.0,84.70546875,19.82,4.1163152812499995,33.97
2021-06-29 16:16:50.484375000,-23.0,-10.5,58.0,84.7103125,21.58,4.1161951875,33.97
2021-06-29 16:16:50.492187500,-23.0,-10.25,58.0,84.71515624999999,22.65,4.116075093749999,33.97
2021-06-29 16:16:50.500000000,-23.0,-10.0,58.0,84.72,23.72,4.115955,33.97
2021-06-29 16:16:50.507812500,-23.0,-10.0,58.25,84.72484375,24.18,4.115874937499999,33.97
2021-06-29 16:16:50.515625000,-23.0,-10.0,58.5,84.7296875,24.64,4.115794875,33.97
2021-06-29 16:16:50.523437500,-23.0,-10.0,58.75,84.73453125,24.61,4.115714812499999,33.97
2021-06-29 16:16:50.531250000,-23.0,-10.0,59.0,84.739375,24.58,4.11563475,33.97
2021-06-29 16:16:50.539062500,-23.0,-10.0,58.75,84.74421875,24.205,4.1155546874999995,33.97
2021-06-29 16:16:50.546875000,-23.0,-10.0,58.5,84.7490625,23.83,4.115474625,33.97
2021-06-29 16:16:50.554687500,-23.0,-10.0,58.25,84.75390625,23.25,4.1153945625,33.97
2021-06-29 16:16:50.562500000,-23.0,-10.0,58.0,84.75874999999999,22.67,4.1153145,33.97
2021-06-29 16:16:50.570312500,-23.0,-10.0,58.25,84.76359375,21.990000000000002,4.1152344375,33.97
2021-06-29 16:16:50.578125000,-23.0,-10.0,58.5,84.7684375,21.31,4.1151543749999995,33.97
2021-06-29 16:16:50.585937500,-23.0,-10.0,58.75,84.77328125,20.604999999999997,4.1150743125,33.97
2021-06-29 16:16:50.593750000,-23.0,-10.0,59.0,84.778125,19.9,4.11499425,33.97
2021-06-29 16:16:50.601562500,-23.0,-10.0,58.75,84.78296875,19.229999999999997,4.1149141875,33.97
2021-06-29 16:16:50.609375000,-23.0,-10.0,58.5,84.7878125,18.56,4.114834125,33.97
2021-06-29 16:16:50.617187500,-23.0,-10.0,58.25,84.79265625,17.979999999999997,4.1147540625,33.97
2021-06-29 16:16:50.625000000,-23.0,-10.0,58.0,84.7975,17.4,4.114674,33.97
2021-06-29 16:16:50.632812500,-23.0,-10.0,58.25,84.80234375,16.945,4.1145939375,33.97
2021-06-29 16:16:50.640625000,-23.0,-10.0,58.5,84.8071875,16.49,4.114513875,33.97
2021-06-29 16:16:50.648437500,-23.0,-10.0,58.75,84.81203125,16.145,4.1144338125,33.97
2021-06-29 16:16:50.656250000,-23.0,-10.0,59.0,84.816875,15.8,4.11435375,33.97
2021-06-29 16:16:50.664062500,-23.0,-10.0,58.75,84.82171875,15.5,4.1142736875,33.97
2021-06-29 16:16:50.671875000,-23.0,-10.0,58.5,84.8265625,15.2,4.114193625,33.97
2021-06-29 16:16:50.679687500,-23.0,-10.0,58.25,84.83140625,14.84,4.1141135625,33.97
2021-06-29 16:16:50.687500000,-23.0,-10.0,58.0,84.83625,14.48,4.1140335,33.97
2021-06-29 16:16:50.695312500,-23.0,-10.0,58.0,84.84109375,13.91,4.1139534375,33.97
2021-06-29 16:16:50.703125000,-23.0,-10.0,58.0,84.8459375,13.34,4.113873375,33.97
2021-06-29 16:16:50.710937500,-23.0,-10.0,58.0,84.85078125,12.469999999999999,4.1137933125,33.97
2021-06-29 16:16:50.718750000,-23.0,-10.0,58.0,84.855625,11.6,4.11371325,33.97
2021-06-29 16:16:50.726562500,-23.0,-10.0,58.0,84.86046875,10.385,4.1136331875000005,33.97
2021-06-29 16:16:50.734375000,-23.0,-10.0,58.0,84.8653125,9.17,4.113553125,33.97
2021-06-29 16:16:50.742187500,-23.0,-10.0,58.0,84.87015625,7.635,4.113473062500001,33.97
2021-06-29 16:16:50.750000000,-23.0,-10.0,58.0,84.875,6.1,4.113393,33.97
2021-06-29 16:16:50.757812500,-23.0,-10.25,58.0,84.87984375,4.3,4.11315278125,33.97
2021-06-29 16:16:50.765625000,-23.0,-10.5,58.0,84.8846875,2.5,4.1129125625,33.97
2021-06-29 16:16:50.773437500,-23.0,-10.75,58.0,84.88953125,0.51,4.11267234375,33.97
2021-06-29 16:16:50.781250000,-23.0,-11.0,58.0,84.894375,-1.48,4.112432125,33.97
2021-06-29 16:16:50.789062500,-23.0,-10.75,58.0,84.89921875,-3.5749999999999997,4.1121919062500005,33.97
2021-06-29 16:16:50.796875000,-23.0,-10.5,58.0,84.9040625,-5.67,4.1119516875,33.97
2021-06-29 16:16:50.804687500,-23.0,-10.25,58.0,84.90890625,-7.805,4.11171146875,33.97
2021-06-29 16:16:50.812500000,-23.0,-10.0,58.0,84.91375,-9.94,4.11147125,33.97
2021-06-29 16:16:50.820312500,-23.0,-10.0,58.0,84.91859375,-12.085,4.11123103125,33.97
2021-06-29 16:16:50.828125000,-23.0,-10.0,58.0,84.9234375,-14.23,4.1109908125,33.97
2021-06-29 16:16:50.835937500,-23.0,-10.0,58.0,84.92828125,-16.395,4.11075059375,33.97
2021-06-29 16:16:50.843750000,-23.0,-10.0,58.0,84.933125,-18.56,4.1105103750000005,33.97
2021-06-29 16:16:50.851562500,-23.0,-10.0,58.0,84.93796875,-20.85,4.11027015625,33.97
2021-06-29 16:16:50.859375000,-23.0,-10.0,58.0,84.9428125,-23.14,4.1100299375,33.97
2021-06-29 16:16:50.867187500,-23.0,-10.0,58.0,84.94765625,-25.73,4.10978971875,33.97
2021-06-29 16:16:50.875000000,-23.0,-10.0,58.0,84.9525,-28.32,4.1095495,33.97
2021-06-29 16:16:50.882812500,-23.0,-10.0,58.0,84.95734375,-31.34,4.10930928125,33.97
2021-06-29 16:16:50.890625000,-23.0,-10.0,58.0,84.9621875,-34.36,4.1090690625,33.97
2021-06-29 16:16:50.898437500,-23.0,-10.0,58.0,84.96703125,-37.775,4.10882884375,33.97
2021-06-29 16:16:50.906250000,-23.0,-10.0,58.0,84.971875,-41.19,4.108588624999999,33.97
2021-06-29 16:16:50.914062500,-23.0,-10.0,58.0,84.97671875,-44.67,4.10834840625,33.97
2021-06-29 16:16:50.921875000,-23.0,-10.0,58.0,84.9815625,-48.15,4.1081081875,33.97
2021-06-29 16:16:50.929687500,-23.0,-10.0,58.0,84.98640625,-51.075,4.10786796875,33.97
2021-06-29 16:16:50.937500000,-23.0,-10.0,58.0,84.99125000000001,-54.0,4.10762775,33.97
2021-06-29 16:16:50.945312500,-23.0,-10.0,58.25,84.99609375,-55.64,4.10738753125,33.97
2021-06-29 16:16:50.953125000,-23.0,-10.0,58.5,85.0009375,-57.28,4.1071473124999995,33.97
2021-06-29 16:16:50.960937500,-23.0,-10.0,58.75,85.00578125,-57.045,4.106907093749999,33.97
2021-06-29 16:16:50.968750000,-23.0,-10.0,59.0,85.010625,-56.81,4.106666875,33.97
2021-06-29 16:16:50.976562500,-22.75,-10.25,58.75,85.01546875,-54.47,4.10642665625,33.97
2021-06-29 16:16:50.984375000,-22.5,-10.5,58.5,85.0203125,-52.13,4.1061864375,33.97
2021-06-29 16:16:50.992187500,-22.25,-10.75,58.25,85.02515625,-47.92,4.10594621875,33.97
2021-06-29 16:16:51.000000000,-22.0,-11.0,58.0,85.03,-43.71,4.105706,33.97
2021-06-29 16:16:51.007812500,-22.25,-11.0,58.0,85.034609375,-38.225,4.10558590625,33.969375
2021-06-29 16:16:51.015625000,-22.5,-11.0,58.0,85.03921875,-32.74,4.105465812499999,33.96875
2021-06-29 16:16:51.023437500,-22.75,-11.0,58.0,85.043828125,-26.745,4.10534571875,33.968125
2021-06-29 16:16:51.031250000,-23.0,-11.0,58.0,85.0484375,-20.75,4.105225624999999,33.9675
2021-06-29 16:16:51.039062500,-23.0,-10.75,58.0,85.053046875,-14.9,4.1051055312499996,33.966875
2021-06-29 16:16:51.046875000,-23.0,-10.5,58.0,85.05765625000001,-9.05,4.1049854375,33.96625
2021-06-29 16:16:51.054687500,-23.0,-10.25,58.0,85.062265625,-3.795,4.104865343749999,33.965625
2021-06-29 16:16:51.062500000,-23.0,-10.0,58.0,85.066875,1.46,4.10474525,33.965
2021-06-29 16:16:51.070312500,-23.0,-10.0,58.25,85.071484375,5.8999999999999995,4.10462515625,33.964375
2021-06-29 16:16:51.078125000,-23.0,-10.0,58.5,85.07609375,10.34,4.1045050624999995,33.96375
2021-06-29 16:16:51.085937500,-23.0,-10.0,58.75,85.080703125,13.845,4.10438496875,33.963125
2021-06-29 16:16:51.093750000,-23.0,-10.0,59.0,85.0853125,17.35,4.104264875,33.9625
2021-06-29 16:16:51.101562500,-23.0,-10.0,59.0,85.089921875,19.85,4.10414478125,33.961875
2021-06-29 16:16:51.109375000,-23.0,-10.0,59.0,85.09453125,22.35,4.1040246875,33.96125
2021-06-29 16:16:51.117187500,-23.0,-10.0,59.0,85.099140625,23.795,4.103904593749999,33.960625
2021-06-29 16:16:51.125000000,-23.0,-10.0,59.0,85.10375,25.24,4.1037845,33.96
2021-06-29 16:16:51.132812500,-23.0,-10.0,58.75,85.108359375,25.64,4.10366440625,33.959375
2021-06-29 16:16:51.140625000,-23.0,-10.0,58.5,85.11296875000001,26.04,4.1035443124999995,33.95875
2021-06-29 16:16:51.148437500,-23.0,-10.0,58.25,85.11757812500001,25.549999999999997,4.10342421875,33.958125
2021-06-29 16:16:51.156250000,-23.0,-10.0,58.0,85.1221875,25.06,4.103304124999999,33.9575
2021-06-29 16:16:51.164062500,-23.0,-10.0,58.25,85.126796875,23.975,4.10318403125,33.956875000000004
2021-06-29 16:16:51.171875000,-23.0,-10.0,58.5,85.13140625,22.89,4.1030639375,33.956250000000004
2021-06-29 16:16:51.179687500,-23.0,-10.0,58.75,85.136015625,21.58,4.102943843749999,33.955625000000005
2021-06-29 16:16:51.187500000,-23.0,-10.0,59.0,85.140625,20.27,4.10282375,33.955
2021-06-29 16:16:51.195312500,-23.0,-10.0,58.75,85.145234375,19.1,4.10270365625,33.954375
2021-06-29 16:16:51.203125000,-23.0,-10.0,58.5,85.14984375,17.93,4.1025835625,33.95375
2021-06-29 16:16:51.210937500,-23.0,-10.0,58.25,85.154453125,17.134999999999998,4.10246346875,33.953125
2021-06-29 16:16:51.218750000,-23.0,-10.0,58.0,85.1590625,16.34,4.102343375,33.9525
2021-06-29 16:16:51.226562500,-23.0,-10.0,58.0,85.163671875,15.96,4.10222328125,33.951875
2021-06-29 16:16:51.234375000,-23.0,-10.0,58.0,85.16828125,15.58,4.1021031875,33.95125
2021-06-29 16:16:51.242187500,-23.0,-10.0,58.0,85.17289062500001,15.51,4.1019830937499995,33.950625
2021-06-29 16:16:51.250000000,-23.0,-10.0,58.0,85.17750000000001,15.44,4.101863,33.95
2021-06-29 16:16:51.257812500,-23.0,-10.0,58.0,85.182109375,15.43,4.101342531249999,33.95
2021-06-29 16:16:51.265625000,-23.0,-10.0,58.0,85.18671875,15.42,4.1008220625,33.95
2021-06-29 16:16:51.273437500,-23.0,-10.0,58.0,85.191328125,15.235,4.10030159375,33.95
2021-06-29 16:16:51.281250000,-23.0,-10.0,58.0,85.1959375,15.05,4.099781125,33.95
2021-06-29 16:16:51.289062500,-23.0,-10.25,58.0,85.200546875,14.515,4.099260656249999,33.95
2021-06-29 16:16:51.296875000,-23.0,-10.5,58.0,85.20515625,13.98,4.0987401875,33.95
2021-06-29 16:16:51.304687500,-23.0,-10.75,58.0,85.209765625,13.02,4.09821971875,33.95
2021-06-29 16:16:51.312500000,-23.0,-11.0,58.0,85.214375,12.06,4.09769925,33.95
2021-06-29 16:16:51.320312500,-23.0,-10.75,58.0,85.218984375,10.71,4.097178781249999,33.95
2021-06-29 16:16:51.328125000,-23.0,-10.5,58.0,85.22359375,9.36,4.0966583125,33.95
2021-06-29 16:16:51.335937500,-23.0,-10.25,58.0,85.22820312500001,7.72,4.09613784375,33.95
2021-06-29 16:16:51.343750000,-23.0,-10.0,58.0,85.23281250000001,6.08,4.095617375,33.95
2021-06-29 16:16:51.351562500,-23.0,-10.0,58.0,85.237421875,4.255,4.095096906249999,33.95
2021-06-29 16:16:51.359375000,-23.0,-10.0,58.0,85.24203125,2.43,4.0945764375,33.95
2021-06-29 16:16:51.367187500,-23.0,-10.0,58.0,85.246640625,0.5,4.09405596875,33.95
2021-06-29 16:16:51.375000000,-23.0,-10.0,58.0,85.25125,-1.43,4.0935355,33.95
2021-06-29 16:16:51.382812500,-23.0,-10.0,58.0,85.255859375,-3.41,4.093015031249999,33.95
2021-06-29 16:16:51.390625000,-23.0,-10.0,58.0,85.26046875,-5.39,4.0924945625,33.95
2021-06-29 16:16:51.398437500,-23.0,-10.0,58.0,85.265078125,-7.379999999999999,4.09197409375,33.95
2021-06-29 16:16:51.406250000,-23.0,-10.0,58.0,85.2696875,-9.37,4.091453625,33.95
2021-06-29 16:16:51.414062500,-23.0,-10.0,58.0,85.274296875,-11.36,4.090933156249999,33.95
2021-06-29 16:16:51.421875000,-23.0,-10.0,58.0,85.27890625,-13.35,4.0904126875,33.95
2021-06-29 16:16:51.429687500,-23.0,-10.0,58.0,85.283515625,-15.335,4.08989221875,33.95
2021-06-29 16:16:51.437500000,-23.0,-10.0,58.0,85.28812500000001,-17.32,4.08937175,33.95
2021-06-29 16:16:51.445312500,-23.0,-10.0,58.0,85.29273437500001,-19.32,4.088851281249999,33.95
2021-06-29 16:16:51.453125000,-23.0,-10.0,58.0,85.29734375,-21.32,4.0883308125,33.95
2021-06-29 16:16:51.460937500,-23.0,-10.0,58.0,85.301953125,-23.415,4.08781034375,33.95
2021-06-29 16:16:51.468750000,-23.0,-10.0,58.0,85.3065625,-25.51,4.087289875,33.95
2021-06-29 16:16:51.476562500,-23.0,-10.0,58.25,85.311171875,-27.805,4.086769406249999,33.95
2021-06-29 16:16:51.484375000,-23.0,-10.0,58.5,85.31578125,-30.1,4.0862489375,33.95
2021-06-29 16:16:51.492187500,-23.0,-10.0,58.75,85.320390625,-32.715,4.08572846875,33.95
2021-06-29 16:16:51.500000000,-23.0,-10.0,59.0,85.325,-35.33,4.085208,33.95
2021-06-29 16:16:51.507812500,-23.0,-10.0,58.75,85.329609375,-38.295,4.0851679999999995,33.95
2021-06-29 16:16:51.515625000,-23.0,-10.0,58.5,85.33421875,-41.26,4.085128,33.95
2021-06-29 16:16:51.523437500,-23.0,-10.0,58.25,85.338828125,-44.45,4.085088,33.95
2021-06-29 16:16:51.531250000,-23.0,-10.0,58.0,85.34343750000001,-47.64,4.085048,33.95
2021-06-29 16:16:51.539062500,-23.0,-10.0,58.0,85.34804687500001,-50.71,4.085008,33.95
2021-06-29 16:16:51.546875000,-23.0,-10.0,58.0,85.35265625000001,-53.78,4.084968,33.95
2021-06-29 16:16:51.554687500,-23.0,-10.0,58.0,85.357265625,-56.230000000000004,4.084928,33.95
2021-06-29 16:16:51.562500000,-23.0,-10.0,58.0,85.361875,-58.68,4.084887999999999,33.95
2021-06-29 16:16:51.570312500,-23.0,-10.0,58.25,85.366484375,-59.955,4.084848,33.95
2021-06-29 16:16:51.578125000,-23.0,-10.0,58.5,85.37109375,-61.23,4.084808,33.95
2021-06-29 16:16:51.585937500,-23.0,-10.0,58.75,85.375703125,-60.89,4.0847679999999995,33.95
2021-06-29 16:16:51.593750000,-23.0,-10.0,59.0,85.3803125,-60.55,4.084728,33.95
2021-06-29 16:16:51.601562500,-23.0,-10.0,58.75,85.384921875,-58.394999999999996,4.084688,33.95
2021-06-29 16:16:51.609375000,-23.0,-10.0,58.5,85.38953125,-56.24,4.084648,33.95
2021-06-29 16:16:51.617187500,-23.0,-10.0,58.25,85.394140625,-52.400000000000006,4.084608,33.95
2021-06-29 16:16:51.625000000,-23.0,-10.0,58.0,85.39875,-48.56,4.084568,33.95
2021-06-29 16:16:51.632812500,-23.0,-10.0,58.0,85.40335937500001,-43.465,4.084528,33.95
2021-06-29 16:16:51.640625000,-23.0,-10.0,58.0,85.40796875000001,-38.37,4.084488,33.95
2021-06-29 16:16:51.648437500,-23.0,-10.0,58.0,85.41257812500001,-32.605,4.084448,33.95
2021-06-29 16:16:51.656250000,-23.0,-10.0,58.0,85.4171875,-26.84,4.084408,33.95
2021-06-29 16:16:51.664062500,-23.0,-10.0,58.0,85.421796875,-21.005,4.084368,33.95
2021-06-29 16:16:51.671875000,-23.0,-10.0,58.0,85.42640625,-15.17,4.084328,33.95
2021-06-29 16:16:51.679687500,-23.0,-10.0,58.0,85.431015625,-9.745000000000001,4.084288,33.95
2021-06-29 16:16:51.687500000,-23.0,-10.0,58.0,85.435625,-4.32,4.0842480000000005,33.95
2021-06-29 16:16:51.695312500,-23.0,-10.0,58.0,85.440234375,0.3849999999999998,4.084208,33.95
2021-06-29 16:16:51.703125000,-23.0,-10.0,58.0,85.44484375,5.09,4.084168,33.95
2021-06-29 16:16:51.710937500,-23.0,-10.0,58.0,85.449453125,8.925,4.084128,33.95
2021-06-29 16:16:51.718750000,-23.0,-10.0,58.0,85.4540625,12.76,4.084088,33.95
2021-06-29 16:16:51.726562500,-23.0,-10.0,58.0,85.45867187500001,15.635000000000002,4.084048,33.95
