TimeStamp,empatica.acc.x,empatica.acc.y,empatica.acc.z,empatica.hr,empatica.bvp,empatica.eda,empatica.temp
2021-06-29 16:25:58.734375000,-54.0,-14.0,33.0,109.331875,36.21,14.8299781875,33.59
2021-06-29 16:25:58.742187500,-54.0,-14.0,33.0,109.3309375,42.245000000000005,14.83045859375,33.59
2021-06-29 16:25:58.750000000,-54.0,-14.0,33.0,109.33,48.28,14.830939,33.59
2021-06-29 16:25:58.757812500,-54.25,-14.0,33.0,109.32906249999999,52.004999999999995,14.830178375000001,33.59
2021-06-29 16:25:58.765625000,-54.5,-14.0,33.0,109.328125,55.73,14.829417750000001,33.59
2021-06-29 16:25:58.773437500,-54.75,-14.0,33.0,109.3271875,57.125,14.828657125000001,33.59
2021-06-29 16:25:58.781250000,-55.0,-14.0,33.0,109.32625,58.52,14.827896500000001,33.59
2021-06-29 16:25:58.789062500,-54.75,-14.0,32.75,109.3253125,57.795,14.827135875000002,33.59
2021-06-29 16:25:58.796875000,-54.5,-14.0,32.5,109.324375,57.07,14.82637525,33.59
2021-06-29 16:25:58.804687500,-54.25,-14.0,32.25,109.3234375,54.685,14.825614625,33.59
2021-06-29 16:25:58.812500000,-54.0,-14.0,32.0,109.32249999999999,52.3,14.824854,33.59
2021-06-29 16:25:58.820312500,-54.25,-14.0,32.25,109.3215625,48.985,14.824093375,33.59
2021-06-29 16:25:58.828125000,-54.5,-14.0,32.5,109.32062499999999,45.67,14.82333275,33.59
2021-06-29 16:25:58.835937500,-54.75,-14.0,32.75,109.3196875,42.285,14.822572125,33.59
2021-06-29 16:25:58.843750000,-55.0,-14.0,33.0,109.31875,38.9,14.8218115,33.59
2021-06-29 16:25:58.851562500,-55.0,-14.0,33.0,109.3178125,36.16,14.821050875000001,33.59
2021-06-29 16:25:58.859375000,-55.0,-14.0,33.0,109.316875,33.42,14.820290250000001,33.59
2021-06-29 16:25:58.867187500,-55.0,-14.0,33.0,109.3159375,31.72,14.819529625000001,33.59
2021-06-29 16:25:58.875000000,-55.0,-14.0,33.0,109.315,30.02,14.818769,33.59
2021-06-29 16:25:58.882812500,-55.0,-14.0,32.75,109.31406249999999,29.285,14.818008375,33.59
2021-06-29 16:25:58.890625000,-55.0,-14.0,32.5,109.313125,28.55,14.81724775,33.59
2021-06-29 16:25:58.898437500,-55.0,-14.0,32.25,109.3121875,28.35,14.816487125,33.59
2021-06-29 16:25:58.906250000,-55.0,-14.0,32.0,109.31125,28.15,14.8157265,33.59
2021-06-29 16:25:58.914062500,-55.0,-14.0,32.25,109.3103125,27.92,14.814965875,33.59
2021-06-29 16:25:58.921875000,-55.0,-14.0,32.5,109.309375,27.69,14.81420525,33.59
2021-06-29 16:25:58.929687500,-55.0,-14.0,32.75,109.3084375,26.975,14.813444625,33.59
2021-06-29 16:25:58.937500000,-55.0,-14.0,33.0,109.3075,26.26,14.812684,33.59
2021-06-29 16:25:58.945312500,-54.75,-14.0,33.0,109.3065625,24.87,14.811923375000001,33.59
2021-06-29 16:25:58.953125000,-54.5,-14.0,33.0,109.30562499999999,23.48,14.811162750000001,33.59
2021-06-29 16:25:58.960937500,-54.25,-14.0,33.0,109.3046875,21.53,14.810402125,33.59
2021-06-29 16:25:58.968750000,-54.0,-14.0,33.0,109.30375,19.58,14.8096415,33.59
2021-06-29 16:25:58.976562500,-54.0,-14.0,33.0,109.3028125,17.325,14.808880875,33.59
2021-06-29 16:25:58.984375000,-54.0,-14.0,33.0,109.301875,15.07,14.80812025,33.59
2021-06-29 16:25:58.992187500,-54.0,-14.0,33.0,109.3009375,12.780000000000001,14.807359625,33.59
2021-06-29 16:25:59.000000000,-54.0,-14.0,33.0,109.3,10.49,14.806599,33.59
2021-06-29 16:25:59.007812500,-54.0,-14.0,33.0,109.29921875,8.27,14.80591840625,33.59
2021-06-29 16:25:59.015625000,-54.0,-14.0,33.0,109.29843749999999,6.05,14.8052378125,33.59
2021-06-29 16:25:59.023437500,-54.0,-14.0,33.0,109.29765625,3.81,14.80455721875,33.59
2021-06-29 16:25:59.031250000,-54.0,-14.0,33.0,109.296875,1.57,14.803876625000001,33.59
2021-06-29 16:25:59.039062500,-54.0,-14.0,33.0,109.29609375,-0.9549999999999998,14.80319603125,33.59
2021-06-29 16:25:59.046875000,-54.0,-14.0,33.0,109.2953125,-3.48,14.8025154375,33.59
2021-06-29 16:25:59.054687500,-54.0,-14.0,33.0,109.29453124999999,-6.619999999999999,14.801834843750001,33.59
2021-06-29 16:25:59.062500000,-54.0,-14.0,33.0,109.29375,-9.76,14.80115425,33.59
2021-06-29 16:25:59.070312500,-54.0,-14.0,33.0,109.29296875,-13.794999999999998,14.80047365625,33.59
2021-06-29 16:25:59.078125000,-54.0,-14.0,33.0,109.2921875,-17.83,14.799793062500001,33.59
2021-06-29 16:25:59.085937500,-54.0,-14.0,33.0,109.29140625,-22.85,14.79911246875,33.59
2021-06-29 16:25:59.093750000,-54.0,-14.0,33.0,109.29062499999999,-27.87,14.798431875,33.59
2021-06-29 16:25:59.101562500,-54.0,-14.0,33.0,109.28984375,-33.660000000000004,14.797751281250001,33.59
2021-06-29 16:25:59.109375000,-54.0,-14.0,33.0,109.2890625,-39.45,14.7970706875,33.59
2021-06-29 16:25:59.117187500,-54.0,-14.0,33.0,109.28828125,-45.43,14.79639009375,33.59
2021-06-29 16:25:59.125000000,-54.0,-14.0,33.0,109.2875,-51.41,14.795709500000001,33.59
2021-06-29 16:25:59.132812500,-54.0,-14.0,33.0,109.28671874999999,-56.655,14.79502890625,33.59
2021-06-29 16:25:59.140625000,-54.0,-14.0,33.0,109.2859375,-61.9,14.7943483125,33.59
2021-06-29 16:25:59.148437500,-54.0,-14.0,33.0,109.28515625,-65.30499999999999,14.79366771875,33.59
2021-06-29 16:25:59.156250000,-54.0,-14.0,33.0,109.284375,-68.71,14.792987125,33.59
2021-06-29 16:25:59.164062500,-54.25,-14.0,33.0,109.28359375,-69.32499999999999,14.79230653125,33.59
2021-06-29 16:25:59.171875000,-54.5,-14.0,33.0,109.28281249999999,-69.94,14.7916259375,33.59
2021-06-29 16:25:59.179687500,-54.75,-14.0,33.0,109.28203125,-67.235,14.79094534375,33.59
2021-06-29 16:25:59.187500000,-55.0,-14.0,33.0,109.28125,-64.53,14.79026475,33.59
2021-06-29 16:25:59.195312500,-54.75,-14.0,33.0,109.28046875,-58.655,14.78958415625,33.59
2021-06-29 16:25:59.203125000,-54.5,-14.0,33.0,109.2796875,-52.78,14.7889035625,33.59
2021-06-29 16:25:59.210937500,-54.25,-14.0,33.0,109.27890624999999,-44.519999999999996,14.78822296875,33.59
2021-06-29 16:25:59.218750000,-54.0,-14.0,33.0,109.278125,-36.26,14.787542375,33.59
2021-06-29 16:25:59.226562500,-54.0,-14.0,33.0,109.27734375,-26.805,14.78686178125,33.59
2021-06-29 16:25:59.234375000,-54.0,-14.0,33.0,109.2765625,-17.35,14.7861811875,33.59
2021-06-29 16:25:59.242187500,-54.0,-14.0,33.0,109.27578125,-7.925000000000001,14.78550059375,33.59
2021-06-29 16:25:59.250000000,-54.0,-14.0,33.0,109.275,1.5,14.78482,33.59
2021-06-29 16:25:59.257812500,-54.0,-14.0,33.0,109.27421875,9.895,14.783538875,33.59
2021-06-29 16:25:59.265625000,-54.0,-14.0,33.0,109.2734375,18.29,14.78225775,33.59
2021-06-29 16:25:59.273437500,-54.0,-14.0,33.0,109.27265625,25.025,14.780976625,33.59
2021-06-29 16:25:59.281250000,-54.0,-14.0,33.0,109.271875,31.76,14.779695499999999,33.59
2021-06-29 16:25:59.289062500,-54.25,-14.0,33.0,109.27109375,36.51,14.778414375,33.59
2021-06-29 16:25:59.296875000,-54.5,-14.0,33.0,109.2703125,41.26,14.77713325,33.59
2021-06-29 16:25:59.304687500,-54.75,-14.0,33.0,109.26953125,43.91,14.775852125,33.59
2021-06-29 16:25:59.312500000,-55.0,-14.0,33.0,109.26875,46.56,14.774571,33.59
2021-06-29 16:25:59.320312500,-54.75,-14.0,33.0,109.26796875,47.175,14.773289875,33.59
2021-06-29 16:25:59.328125000,-54.5,-14.0,33.0,109.2671875,47.79,14.77200875,33.59
2021-06-29 16:25:59.335937500,-54.25,-14.0,33.0,109.26640625,46.61,14.770727625,33.59
2021-06-29 16:25:59.343750000,-54.0,-14.0,33.0,109.265625,45.43,14.7694465,33.59
2021-06-29 16:25:59.351562500,-54.0,-14.0,33.0,109.26484375,42.94,14.768165375,33.59
2021-06-29 16:25:59.359375000,-54.0,-14.0,33.0,109.2640625,40.45,14.76688425,33.59
2021-06-29 16:25:59.367187500,-54.0,-14.0,33.0,109.26328125,37.31,14.765603125,33.59
2021-06-29 16:25:59.375000000,-54.0,-14.0,33.0,109.2625,34.17,14.764322,33.59
2021-06-29 16:25:59.382812500,-54.0,-14.0,33.0,109.26171875,31.095,14.763040875,33.59
2021-06-29 16:25:59.390625000,-54.0,-14.0,33.0,109.2609375,28.02,14.76175975,33.59
2021-06-29 16:25:59.398437500,-54.0,-14.0,33.0,109.26015625,25.509999999999998,14.760478625,33.59
2021-06-29 16:25:59.406250000,-54.0,-14.0,33.0,109.259375,23.0,14.759197499999999,33.59
2021-06-29 16:25:59.414062500,-54.0,-14.0,33.0,109.25859375,21.244999999999997,14.757916375,33.59
2021-06-29 16:25:59.421875000,-54.0,-14.0,33.0,109.2578125,19.49,14.75663525,33.59
2021-06-29 16:25:59.429687500,-54.0,-14.0,33.0,109.25703125,18.325,14.755354125,33.59
2021-06-29 16:25:59.437500000,-54.0,-14.0,33.0,109.25625,17.16,14.754073,33.59
2021-06-29 16:25:59.445312500,-54.0,-14.0,33.0,109.25546875,16.22,14.752791875,33.59
2021-06-29 16:25:59.453125000,-54.0,-14.0,33.0,109.2546875,15.28,14.75151075,33.59
2021-06-29 16:25:59.460937500,-54.0,-14.0,33.0,109.25390625,14.19,14.750229625,33.59
2021-06-29 16:25:59.468750000,-54.0,-14.0,33.0,109.253125,13.1,14.748948500000001,33.59
2021-06-29 16:25:59.476562500,-54.25,-14.0,32.75,109.25234375,11.629999999999999,14.747667375,33.59
2021-06-29 16:25:59.484375000,-54.5,-14.0,32.5,109.2515625,10.16,14.74638625,33.59
2021-06-29 16:25:59.492187500,-54.75,-14.0,32.25,109.25078125,8.285,14.745105125,33.59
2021-06-29 16:25:59.500000000,-55.0,-14.0,32.0,109.25,6.41,14.743824,33.59
2021-06-29 16:25:59.507812500,-54.75,-14.0,32.25,109.24921875,4.22,14.74370390625,33.59
2021-06-29 16:25:59.515625000,-54.5,-14.0,32.5,109.2484375,2.03,14.7435838125,33.59
2021-06-29 16:25:59.523437500,-54.25,-14.0,32.75,109.24765625,-0.33000000000000007,14.74346371875,33.59
2021-06-29 16:25:59.531250000,-54.0,-14.0,33.0,109.246875,-2.69,14.743343625,33.59
2021-06-29 16:25:59.539062500,-54.0,-14.0,33.0,109.24609375,-5.140000000000001,14.74322353125,33.59
2021-06-29 16:25:59.546875000,-54.0,-14.0,33.0,109.2453125,-7.59,14.7431034375,33.59
2021-06-29 16:25:59.554687500,-54.0,-14.0,33.0,109.24453125,-10.145,14.74298334375,33.59
2021-06-29 16:25:59.562500000,-54.0,-14.0,33.0,109.24375,-12.7,14.74286325,33.59
2021-06-29 16:25:59.570312500,-54.0,-14.0,32.75,109.24296875,-15.48,14.74274315625,33.59
2021-06-29 16:25:59.578125000,-54.0,-14.0,32.5,109.2421875,-18.26,14.7426230625,33.59
2021-06-29 16:25:59.585937500,-54.0,-14.0,32.25,109.24140625,-21.5,14.74250296875,33.59
2021-06-29 16:25:59.593750000,-54.0,-14.0,32.0,109.240625,-24.74,14.742382875,33.59
2021-06-29 16:25:59.601562500,-54.0,-14.0,32.25,109.23984375,-28.685000000000002,14.74226278125,33.59
2021-06-29 16:25:59.609375000,-54.0,-14.0,32.5,109.2390625,-32.63,14.7421426875,33.59
2021-06-29 16:25:59.617187500,-54.0,-14.0,32.75,109.23828125,-37.425,14.74202259375,33.59
2021-06-29 16:25:59.625000000,-54.0,-14.0,33.0,109.2375,-42.22,14.7419025,33.59
2021-06-29 16:25:59.632812500,-54.0,-14.0,33.0,109.23671875,-47.730000000000004,14.74178240625,33.59
2021-06-29 16:25:59.640625000,-54.0,-14.0,33.0,109.2359375,-53.24,14.7416623125,33.59
2021-06-29 16:25:59.648437500,-54.0,-14.0,33.0,109.23515625,-58.900000000000006,14.74154221875,33.59
2021-06-29 16:25:59.656250000,-54.0,-14.0,33.0,109.234375,-64.56,14.741422125,33.59
2021-06-29 16:25:59.664062500,-54.0,-14.0,33.0,109.23359375,-69.43,14.741302031250001,33.59
2021-06-29 16:25:59.671875000,-54.0,-14.0,33.0,109.2328125,-74.3,14.7411819375,33.59
2021-06-29 16:25:59.679687500,-54.0,-14.0,33.0,109.23203125,-77.22,14.74106184375,33.59
2021-06-29 16:25:59.687500000,-54.0,-14.0,33.0,109.23125,-80.14,14.740941750000001,33.59
2021-06-29 16:25:59.695312500,-54.25,-14.0,32.75,109.23046875,-80.14,14.74082165625,33.59
2021-06-29 16:25:59.703125000,-54.5,-14.0,32.5,109.2296875,-80.14,14.7407015625,33.59
2021-06-29 16:25:59.710937500,-54.75,-14.0,32.25,109.22890625,-76.72,14.74058146875,33.59
2021-06-29 16:25:59.718750000,-55.0,-14.0,32.0,109.228125,-73.3,14.740461375,33.59
2021-06-29 16:25:59.726562500,-54.75,-14.0,32.25,109.22734375,-66.68,14.74034128125,33.59
2021-06-29 16:25:59.734375000,-54.5,-14.0,32.5,109.2265625,-60.06,14.7402211875,33.59
2021-06-29 16:25:59.742187500,-54.25,-14.0,32.75,109.22578125,-51.085,14.74010109375,33.59
2021-06-29 16:25:59.750000000,-54.0,-14.0,33.0,109.225,-42.11,14.739981,33.59
2021-06-29 16:25:59.757812500,-54.0,-14.0,33.0,109.22421875,-31.975,14.74026125,33.59
2021-06-29 16:25:59.765625000,-54.0,-14.0,33.0,109.2234375,-21.84,14.7405415,33.59
2021-06-29 16:25:59.773437500,-54.0,-14.0,33.0,109.22265625,-11.77,14.74082175,33.59
2021-06-29 16:25:59.781250000,-54.0,-14.0,33.0,109.221875,-1.7,14.741102,33.59
2021-06-29 16:25:59.789062500,-54.25,-14.0,32.75,109.22109375000001,7.335,14.741382250000001,33.59
2021-06-29 16:25:59.796875000,-54.5,-14.0,32.5,109.2203125,16.37,14.7416625,33.59
2021-06-29 16:25:59.804687500,-54.75,-14.0,32.25,109.21953125,23.745,14.74194275,33.59
2021-06-29 16:25:59.812500000,-55.0,-14.0,32.0,109.21875,31.12,14.742223,33.59
2021-06-29 16:25:59.820312500,-55.0,-14.0,32.0,109.21796875,36.53,14.74250325,33.59
2021-06-29 16:25:59.828125000,-55.0,-14.0,32.0,109.21718750000001,41.94,14.7427835,33.59
2021-06-29 16:25:59.835937500,-55.0,-14.0,32.0,109.21640625,45.3,14.74306375,33.59
2021-06-29 16:25:59.843750000,-55.0,-14.0,32.0,109.215625,48.66,14.743344,33.59
2021-06-29 16:25:59.851562500,-54.75,-14.0,32.25,109.21484375,50.065,14.74362425,33.59
2021-06-29 16:25:59.859375000,-54.5,-14.0,32.5,109.2140625,51.47,14.7439045,33.59
2021-06-29 16:25:59.867187500,-54.25,-14.0,32.75,109.21328125000001,51.120000000000005,14.74418475,33.59
2021-06-29 16:25:59.875000000,-54.0,-14.0,33.0,109.2125,50.77,14.744465,33.59
2021-06-29 16:25:59.882812500,-54.0,-14.0,33.0,109.21171875,49.035,14.74474525,33.59
2021-06-29 16:25:59.890625000,-54.0,-14.0,33.0,109.2109375,47.3,14.7450255,33.59
2021-06-29 16:25:59.898437500,-54.0,-14.0,33.0,109.21015625,44.665,14.74530575,33.59
2021-06-29 16:25:59.906250000,-54.0,-14.0,33.0,109.20937500000001,42.03,14.745586,33.59
2021-06-29 16:25:59.914062500,-54.0,-14.0,32.75,109.20859375,39.035,14.74586625,33.59
2021-06-29 16:25:59.921875000,-54.0,-14.0,32.5,109.2078125,36.04,14.7461465,33.59
2021-06-29 16:25:59.929687500,-54.0,-14.0,32.25,109.20703125,33.144999999999996,14.74642675,33.59
2021-06-29 16:25:59.937500000,-54.0,-14.0,32.0,109.20625,30.25,14.746707,33.59
2021-06-29 16:25:59.945312500,-54.25,-14.0,32.25,109.20546875000001,27.725,14.74698725,33.59
2021-06-29 16:25:59.953125000,-54.5,-14.0,32.5,109.2046875,25.2,14.7472675,33.59
2021-06-29 16:25:59.960937500,-54.75,-14.0,32.75,109.20390625,23.060000000000002,14.747547749999999,33.59
2021-06-29 16:25:59.968750000,-55.0,-14.0,33.0,109.203125,20.92,14.747828,33.59
2021-06-29 16:25:59.976562500,-54.75,-14.0,33.0,109.20234375,18.975,14.74810825,33.59
2021-06-29 16:25:59.984375000,-54.5,-14.0,33.0,109.20156250000001,17.03,14.748388499999999,33.59
2021-06-29 16:25:59.992187500,-54.25,-14.0,33.0,109.20078125,15.030000000000001,14.74866875,33.59
2021-06-29 16:26:00.000000000,-54.0,-14.0,33.0,109.2,13.03,14.748949,33.59
2021-06-29 16:26:00.007812500,-54.0,-14.0,33.0,109.19921875,10.795,14.74942940625,33.59
2021-06-29 16:26:00.015625000,-54.0,-14.0,33.0,109.1984375,8.56,14.7499098125,33.59
2021-06-29 16:26:00.023437500,-54.0,-14.0,33.0,109.19765625000001,6.07,14.750390218749999,33.59
2021-06-29 16:26:00.031250000,-54.0,-14.0,33.0,109.196875,3.58,14.750870625,33.59
2021-06-29 16:26:00.039062500,-54.0,-14.0,33.0,109.19609375,0.9450000000000003,14.75135103125,33.59
2021-06-29 16:26:00.046875000,-54.0,-14.0,33.0,109.1953125,-1.69,14.7518314375,33.59
2021-06-29 16:26:00.054687500,-54.0,-14.0,33.0,109.19453125,-4.33,14.75231184375,33.59
2021-06-29 16:26:00.062500000,-54.0,-14.0,33.0,109.19375000000001,-6.97,14.752792249999999,33.59
2021-06-29 16:26:00.070312500,-54.0,-14.0,33.0,109.19296875,-9.575,14.75327265625,33.59
2021-06-29 16:26:00.078125000,-54.0,-14.0,33.0,109.1921875,-12.18,14.7537530625,33.59
2021-06-29 16:26:00.085937500,-54.0,-14.0,33.0,109.19140625,-14.875,14.75423346875,33.59
2021-06-29 16:26:00.093750000,-54.0,-14.0,33.0,109.190625,-17.57,14.754713875,33.59
2021-06-29 16:26:00.101562500,-54.0,-14.0,33.0,109.18984375000001,-20.61,14.75519428125,33.59
2021-06-29 16:26:00.109375000,-54.0,-14.0,33.0,109.1890625,-23.65,14.755674687499999,33.59
2021-06-29 16:26:00.117187500,-54.0,-14.0,33.0,109.18828125,-27.34,14.75615509375,33.59
2021-06-29 16:26:00.125000000,-54.0,-14.0,33.0,109.1875,-31.03,14.7566355,33.59
2021-06-29 16:26:00.132812500,-54.0,-14.0,33.0,109.18671875,-35.55,14.75711590625,33.59
2021-06-29 16:26:00.140625000,-54.0,-14.0,33.0,109.18593750000001,-40.07,14.7575963125,33.59
2021-06-29 16:26:00.148437500,-54.0,-14.0,33.0,109.18515625,-45.335,14.758076718749999,33.59
2021-06-29 16:26:00.156250000,-54.0,-14.0,33.0,109.184375,-50.6,14.758557125,33.59
2021-06-29 16:26:00.164062500,-54.25,-14.0,33.0,109.18359375,-56.165,14.75903753125,33.59
2021-06-29 16:26:00.171875000,-54.5,-14.0,33.0,109.1828125,-61.73,14.7595179375,33.59
2021-06-29 16:26:00.179687500,-54.75,-14.0,33.0,109.18203125,-66.8,14.75999834375,33.59
2021-06-29 16:26:00.187500000,-55.0,-14.0,33.0,109.18125,-71.87,14.76047875,33.59
2021-06-29 16:26:00.195312500,-54.75,-14.0,33.0,109.18046875,-75.405,14.76095915625,33.59
2021-06-29 16:26:00.203125000,-54.5,-14.0,33.0,109.1796875,-78.94,14.7614395625,33.59
2021-06-29 16:26:00.210937500,-54.25,-14.0,33.0,109.17890625,-79.925,14.76191996875,33.59
2021-06-29 16:26:00.218750000,-54.0,-14.0,33.0,109.178125,-80.91,14.762400375,33.59
2021-06-29 16:26:00.226562500,-54.25,-14.0,32.75,109.17734375,-78.64,14.76288078125,33.59
2021-06-29 16:26:00.234375000,-54.5,-14.0,32.5,109.1765625,-76.37,14.7633611875,33.59
2021-06-29 16:26:00.242187500,-54.75,-14.0,32.25,109.17578125,-70.755,14.76384159375,33.59
2021-06-29 16:26:00.250000000,-55.0,-14.0,32.0,109.175,-65.14,14.764322,33.59
2021-06-29 16:26:00.257812500,-54.75,-14.0,32.25,109.17421875,-56.75,14.7650025625,33.59
2021-06-29 16:26:00.265625000,-54.5,-14.0,32.5,109.1734375,-48.36,14.765683125,33.59
2021-06-29 16:26:00.273437500,-54.25,-14.0,32.75,109.17265625,-38.32,14.7663636875,33.59
2021-06-29 16:26:00.281250000,-54.0,-14.0,33.0,109.171875,-28.28,14.76704425,33.59
2021-06-29 16:26:00.289062500,-54.0,-14.0,33.0,109.17109375,-17.87,14.7677248125,33.59
2021-06-29 16:26:00.296875000,-54.0,-14.0,33.0,109.1703125,-7.46,14.768405375,33.59
2021-06-29 16:26:00.304687500,-54.0,-14.0,33.0,109.16953125,2.1949999999999994,14.7690859375,33.59
2021-06-29 16:26:00.312500000,-54.0,-14.0,33.0,109.16875,11.85,14.7697665,33.59
2021-06-29 16:26:00.320312500,-54.0,-14.0,33.0,109.16796875,20.04,14.7704470625,33.59
2021-06-29 16:26:00.328125000,-54.0,-14.0,33.0,109.1671875,28.23,14.771127625,33.59
2021-06-29 16:26:00.335937500,-54.0,-14.0,33.0,109.16640625,34.660000000000004,14.7718081875,33.59
2021-06-29 16:26:00.343750000,-54.0,-14.0,33.0,109.165625,41.09,14.772488749999999,33.59
2021-06-29 16:26:00.351562500,-54.25,-14.0,33.0,109.16484375,45.7,14.7731693125,33.59
2021-06-29 16:26:00.359375000,-54.5,-14.0,33.0,109.1640625,50.31,14.773849875,33.59
2021-06-29 16:26:00.367187500,-54.75,-14.0,33.0,109.16328125,53.144999999999996,14.7745304375,33.59
2021-06-29 16:26:00.375000000,-55.0,-14.0,33.0,109.1625,55.98,14.775210999999999,33.59
2021-06-29 16:26:00.382812500,-55.0,-14.0,33.0,109.16171875,57.095,14.7758915625,33.59
2021-06-29 16:26:00.390625000,-55.0,-14.0,33.0,109.1609375,58.21,14.776572125,33.59
2021-06-29 16:26:00.398437500,-55.0,-14.0,33.0,109.16015625,57.745000000000005,14.777252687499999,33.59
2021-06-29 16:26:00.406250000,-55.0,-14.0,33.0,109.159375,57.28,14.77793325,33.59
2021-06-29 16:26:00.414062500,-54.75,-14.0,33.0,109.15859375,55.55,14.7786138125,33.59
2021-06-29 16:26:00.421875000,-54.5,-14.0,33.0,109.1578125,53.82,14.779294375,33.59
2021-06-29 16:26:00.429687500,-54.25,-14.0,33.0,109.15703125,51.335,14.779974937499999,33.59
2021-06-29 16:26:00.437500000,-54.0,-14.0,33.0,109.15625,48.85,14.7806555,33.59
2021-06-29 16:26:00.445312500,-54.25,-14.0,33.0,109.15546875,46.185,14.7813360625,33.59
2021-06-29 16:26:00.453125000,-54.5,-14.0,33.0,109.1546875,43.52,14.782016624999999,33.59
2021-06-29 16:26:00.460937500,-54.75,-14.0,33.0,109.15390625,41.13,14.7826971875,33.59
2021-06-29 16:26:00.468750000,-55.0,-14.0,33.0,109.153125,38.74,14.78337775,33.59
2021-06-29 16:26:00.476562500,-54.75,-14.0,33.0,109.15234375,36.805,14.7840583125,33.59
2021-06-29 16:26:00.484375000,-54.5,-14.0,33.0,109.1515625,34.87,14.784738874999999,33.59
2021-06-29 16:26:00.492187500,-54.25,-14.0,33.0,109.15078125,33.224999999999994,14.7854194375,33.59
2021-06-29 16:26:00.500000000,-54.0,-14.0,33.0,109.15,31.58,14.7861,33.59
2021-06-29 16:26:00.507812500,-54.0,-14.0,33.0,109.14921875,29.905,14.787220999999999,33.59
2021-06-29 16:26:00.515625000,-54.0,-14.0,33.0,109.1484375,28.23,14.788342,33.59
2021-06-29 16:26:00.523437500,-54.0,-14.0,33.0,109.14765625,26.205,14.789463,33.59
2021-06-29 16:26:00.531250000,-54.0,-14.0,33.0,109.146875,24.18,14.790583999999999,33.59
2021-06-29 16:26:00.539062500,-54.25,-14.0,32.75,109.14609374999999,21.675,14.791705,33.59
2021-06-29 16:26:00.546875000,-54.5,-14.0,32.5,109.1453125,19.17,14.792826,33.59
2021-06-29 16:26:00.554687500,-54.75,-14.0,32.25,109.14453125,16.295,14.793947,33.59
2021-06-29 16:26:00.562500000,-55.0,-14.0,32.0,109.14375,13.42,14.795068,33.59
2021-06-29 16:26:00.570312500,-54.75,-14.0,32.25,109.14296875,10.43,14.796189,33.59
2021-06-29 16:26:00.578125000,-54.5,-14.0,32.5,109.14218749999999,7.44,14.79731,33.59
2021-06-29 16:26:00.585937500,-54.25,-14.0,32.75,109.14140625,4.555,14.798430999999999,33.59
2021-06-29 16:26:00.593750000,-54.0,-14.0,33.0,109.140625,1.67,14.799552,33.59
2021-06-29 16:26:00.601562500,-54.0,-14.0,33.0,109.13984375,-1.0499999999999998,14.800673,33.59
2021-06-29 16:26:00.609375000,-54.0,-14.0,33.0,109.1390625,-3.77,14.801794,33.59
2021-06-29 16:26:00.617187500,-54.0,-14.0,33.0,109.13828124999999,-6.51,14.802915,33.59
2021-06-29 16:26:00.625000000,-54.0,-14.0,33.0,109.1375,-9.25,14.804036,33.59
2021-06-29 16:26:00.632812500,-54.25,-14.0,32.75,109.13671875,-12.36,14.805157,33.59
2021-06-29 16:26:00.640625000,-54.5,-14.0,32.5,109.1359375,-15.47,14.806278,33.59
2021-06-29 16:26:00.648437500,-54.75,-14.0,32.25,109.13515625,-19.325,14.807399,33.59
2021-06-29 16:26:00.656250000,-55.0,-14.0,32.0,109.13437499999999,-23.18,14.80852,33.59
2021-06-29 16:26:00.664062500,-55.0,-14.0,32.0,109.13359375,-27.995,14.809641000000001,33.59
2021-06-29 16:26:00.671875000,-55.0,-14.0,32.0,109.1328125,-32.81,14.810762,33.59
2021-06-29 16:26:00.679687500,-55.0,-14.0,32.0,109.13203125,-38.49,14.811883,33.59
2021-06-29 16:26:00.687500000,-55.0,-14.0,32.0,109.13125,-44.17,14.813004,33.59
2021-06-29 16:26:00.695312500,-54.75,-14.0,32.25,109.13046874999999,-50.19,14.814125,33.59
2021-06-29 16:26:00.703125000,-54.5,-14.0,32.5,109.1296875,-56.21,14.815246,33.59
2021-06-29 16:26:00.710937500,-54.25,-14.0,32.75,109.12890625,-61.665000000000006,14.816367,33.59
2021-06-29 16:26:00.718750000,-54.0,-14.0,33.0,109.128125,-67.12,14.817488,33.59
2021-06-29 16:26:00.726562500,-54.0,-14.0,33.0,109.12734375,-70.89500000000001,14.818609,33.59
2021-06-29 16:26:00.734375000,-54.0,-14.0,33.0,109.12656249999999,-74.67,14.81973,33.59
2021-06-29 16:26:00.742187500,-54.0,-14.0,33.0,109.12578125,-75.73,14.820851000000001,33.59
2021-06-29 16:26:00.750000000,-54.0,-14.0,33.0,109.125,-76.79,14.821972,33.59
2021-06-29 16:26:00.757812500,-54.25,-14.0,32.75,109.12421875,-74.5,14.8225725,33.59
2021-06-29 16:26:00.765625000,-54.5,-14.0,32.5,109.1234375,-72.21,14.823173,33.59
2021-06-29 16:26:00.773437500,-54.75,-14.0,32.25,109.12265624999999,-66.55499999999999,14.823773500000001,33.59
2021-06-29 16:26:00.781250000,-55.0,-14.0,32.0,109.121875,-60.9,14.824374,33.59
2021-06-29 16:26:00.789062500,-55.0,-14.0,32.25,109.12109375,-52.525,14.8249745,33.59
2021-06-29 16:26:00.796875000,-55.0,-14.0,32.5,109.1203125,-44.15,14.825575,33.59
2021-06-29 16:26:00.804687500,-55.0,-14.0,32.75,109.11953125,-34.18,14.826175500000002,33.59
2021-06-29 16:26:00.812500000,-55.0,-14.0,33.0,109.11874999999999,-24.21,14.826776,33.59
2021-06-29 16:26:00.820312500,-54.75,-14.0,32.75,109.11796875,-13.925,14.8273765,33.59
2021-06-29 16:26:00.828125000,-54.5,-14.0,32.5,109.1171875,-3.64,14.827977,33.59
2021-06-29 16:26:00.835937500,-54.25,-14.0,32.25,109.11640625,5.859999999999999,14.828577500000002,33.59
2021-06-29 16:26:00.843750000,-54.0,-14.0,32.0,109.115625,15.36,14.829178,33.59
2021-06-29 16:26:00.851562500,-54.25,-14.0,32.0,109.11484374999999,23.365000000000002,14.8297785,33.59
2021-06-29 16:26:00.859375000,-54.5,-14.0,32.0,109.11406249999999,31.37,14.830379,33.59
2021-06-29 16:26:00.867187500,-54.75,-14.0,32.0,109.11328125,37.585,14.830979500000002,33.59
2021-06-29 16:26:00.875000000,-55.0,-14.0,32.0,109.1125,43.8,14.83158,33.59
2021-06-29 16:26:00.882812500,-55.0,-14.0,32.25,109.11171875,48.19,14.8321805,33.59
2021-06-29 16:26:00.890625000,-55.0,-14.0,32.5,109.11093749999999,52.58,14.832781,33.59
2021-06-29 16:26:00.898437500,-55.0,-14.0,32.75,109.11015624999999,55.25,14.833381500000002,33.59
2021-06-29 16:26:00.906250000,-55.0,-14.0,33.0,109.109375,57.92,14.833982,33.59
2021-06-29 16:26:00.914062500,-54.75,-14.0,33.0,109.10859375,58.980000000000004,14.8345825,33.59
2021-06-29 16:26:00.921875000,-54.5,-14.0,33.0,109.1078125,60.04,14.835183,33.59
2021-06-29 16:26:00.929687500,-54.25,-14.0,33.0,109.10703124999999,59.685,14.835783500000002,33.59
2021-06-29 16:26:00.937500000,-54.0,-14.0,33.0,109.10624999999999,59.33,14.836384,33.59
2021-06-29 16:26:00.945312500,-54.25,-14.0,33.0,109.10546875,57.864999999999995,14.8369845,33.59
2021-06-29 16:26:00.953125000,-54.5,-14.0,33.0,109.1046875,56.4,14.837585,33.59
2021-06-29 16:26:00.960937500,-54.75,-14.0,33.0,109.10390625,54.26,14.838185500000002,33.59
2021-06-29 16:26:00.968750000,-55.0,-14.0,33.0,109.10312499999999,52.12,14.838786,33.59
2021-06-29 16:26:00.976562500,-54.75,-14.0,33.0,109.10234374999999,49.805,14.8393865,33.59
2021-06-29 16:26:00.984375000,-54.5,-14.0,33.0,109.1015625,47.49,14.839987,33.59
2021-06-29 16:26:00.992187500,-54.25,-14.0,33.0,109.10078125,45.375,14.840587500000002,33.59
2021-06-29 16:26:01.000000000,-54.0,-14.0,33.0,109.1,43.26,14.841188,33.59
2021-06-29 16:26:01.007812500,-54.0,-14.0,33.0,109.099453125,41.465,14.84226890625,33.590625
2021-06-29 16:26:01.015625000,-54.0,-14.0,33.0,109.09890625,39.67,14.843349812500001,33.59125
2021-06-29 16:26:01.023437500,-54.0,-14.0,33.0,109.098359375,38.085,14.84443071875,33.591875
2021-06-29 16:26:01.031250000,-54.0,-14.0,33.0,109.09781249999999,36.5,14.845511625,33.5925
2021-06-29 16:26:01.039062500,-54.25,-14.0,32.75,109.09726562499999,34.84,14.84659253125,33.593125
2021-06-29 16:26:01.046875000,-54.5,-14.0,32.5,109.09671875,33.18,14.847673437500001,33.59375
2021-06-29 16:26:01.054687500,-54.75,-14.0,32.25,109.096171875,31.195,14.84875434375,33.594375
2021-06-29 16:26:01.062500000,-55.0,-14.0,32.0,109.095625,29.21,14.84983525,33.595
2021-06-29 16:26:01.070312500,-55.0,-14.0,32.25,109.095078125,26.82,14.850916156250001,33.595625000000005
2021-06-29 16:26:01.078125000,-55.0,-14.0,32.5,109.09453124999999,24.43,14.8519970625,33.596250000000005
2021-06-29 16:26:01.085937500,-55.0,-14.0,32.75,109.09398437499999,21.75,14.85307796875,33.596875000000004
2021-06-29 16:26:01.093750000,-55.0,-14.0,33.0,109.0934375,19.07,14.854158875,33.597500000000004
2021-06-29 16:26:01.101562500,-54.75,-14.0,33.0,109.092890625,16.345,14.85523978125,33.598125
2021-06-29 16:26:01.109375000,-54.5,-14.0,33.0,109.09234375,13.62,14.8563206875,33.59875
2021-06-29 16:26:01.117187500,-54.25,-14.0,33.0,109.091796875,11.04,14.85740159375,33.599375
2021-06-29 16:26:01.125000000,-54.0,-14.0,33.0,109.09125,8.46,14.858482500000001,33.6
2021-06-29 16:26:01.132812500,-54.0,-14.0,33.0,109.09070312499999,6.08,14.85956340625,33.600625
2021-06-29 16:26:01.140625000,-54.0,-14.0,33.0,109.09015624999999,3.7,14.8606443125,33.60125
2021-06-29 16:26:01.148437500,-54.0,-14.0,33.0,109.089609375,1.3450000000000002,14.86172521875,33.601875
2021-06-29 16:26:01.156250000,-54.0,-14.0,33.0,109.0890625,-1.01,14.862806125,33.6025
2021-06-29 16:26:01.164062500,-54.25,-14.0,32.75,109.088515625,-3.6500000000000004,14.86388703125,33.603125
2021-06-29 16:26:01.171875000,-54.5,-14.0,32.5,109.08796875,-6.29,14.8649679375,33.60375
2021-06-29 16:26:01.179687500,-54.75,-14.0,32.25,109.08742187499999,-9.585,14.866048843749999,33.604375
2021-06-29 16:26:01.187500000,-55.0,-14.0,32.0,109.08687499999999,-12.88,14.86712975,33.605000000000004
2021-06-29 16:26:01.195312500,-54.75,-14.0,32.25,109.086328125,-17.12,14.86821065625,33.605625
2021-06-29 16:26:01.203125000,-54.5,-14.0,32.5,109.08578125,-21.36,14.869291562499999,33.60625
2021-06-29 16:26:01.210937500,-54.25,-14.0,32.75,109.085234375,-26.585,14.87037246875,33.606875
2021-06-29 16:26:01.218750000,-54.0,-14.0,33.0,109.0846875,-31.81,14.871453375,33.6075
2021-06-29 16:26:01.226562500,-54.0,-14.0,33.0,109.08414062499999,-37.695,14.87253428125,33.608125
2021-06-29 16:26:01.234375000,-54.0,-14.0,33.0,109.08359374999999,-43.58,14.873615187499999,33.60875
2021-06-29 16:26:01.242187500,-54.0,-14.0,33.0,109.083046875,-49.39,14.87469609375,33.609375
2021-06-29 16:26:01.250000000,-54.0,-14.0,33.0,109.0825,-55.2,14.875777,33.61
2021-06-29 16:26:01.257812500,-54.25,-14.0,32.75,109.081953125,-59.895,14.8794601875,33.61
2021-06-29 16:26:01.265625000,-54.5,-14.0,32.5,109.08140625,-64.59,14.883143375,33.61
2021-06-29 16:26:01.273437500,-54.75,-14.0,32.25,109.080859375,-67.08,14.8868265625,33.61
2021-06-29 16:26:01.281250000,-55.0,-14.0,32.0,109.08031249999999,-69.57,14.89050975,33.61
2021-06-29 16:26:01.289062500,-55.0,-14.0,32.0,109.079765625,-69.025,14.8941929375,33.61
2021-06-29 16:26:01.296875000,-55.0,-14.0,32.0,109.07921875,-68.48,14.897876125,33.61
2021-06-29 16:26:01.304687500,-55.0,-14.0,32.0,109.078671875,-64.65,14.9015593125,33.61
2021-06-29 16:26:01.312500000,-55.0,-14.0,32.0,109.078125,-60.82,14.9052425,33.61
2021-06-29 16:26:01.320312500,-54.75,-14.0,32.25,109.077578125,-54.11,14.9089256875,33.61
2021-06-29 16:26:01.328125000,-54.5,-14.0,32.5,109.07703124999999,-47.4,14.912608875,33.61
2021-06-29 16:26:01.335937500,-54.25,-14.0,32.75,109.07648437499999,-38.745,14.9162920625,33.61
2021-06-29 16:26:01.343750000,-54.0,-14.0,33.0,109.0759375,-30.09,14.91997525,33.61
2021-06-29 16:26:01.351562500,-54.0,-14.0,32.75,109.075390625,-20.675,14.9236584375,33.61
2021-06-29 16:26:01.359375000,-54.0,-14.0,32.5,109.07484375,-11.26,14.927341625,33.61
2021-06-29 16:26:01.367187500,-54.0,-14.0,32.25,109.074296875,-2.1950000000000003,14.9310248125,33.61
2021-06-29 16:26:01.375000000,-54.0,-14.0,32.0,109.07374999999999,6.87,14.934708,33.61
2021-06-29 16:26:01.382812500,-54.0,-14.0,32.25,109.07320312499999,14.780000000000001,14.938391187499999,33.61
2021-06-29 16:26:01.390625000,-54.0,-14.0,32.5,109.07265625,22.69,14.942074374999999,33.61
2021-06-29 16:26:01.398437500,-54.0,-14.0,32.75,109.072109375,28.950000000000003,14.945757562499999,33.61
2021-06-29 16:26:01.406250000,-54.0,-14.0,33.0,109.0715625,35.21,14.949440749999999,33.61
2021-06-29 16:26:01.414062500,-54.0,-14.0,33.0,109.071015625,39.635000000000005,14.9531239375,33.61
2021-06-29 16:26:01.421875000,-54.0,-14.0,33.0,109.07046875,44.06,14.956807125,33.61
2021-06-29 16:26:01.429687500,-54.0,-14.0,33.0,109.06992187499999,46.605000000000004,14.9604903125,33.61
2021-06-29 16:26:01.437500000,-54.0,-14.0,33.0,109.069375,49.15,14.9641735,33.61
2021-06-29 16:26:01.445312500,-54.0,-14.0,33.0,109.068828125,49.905,14.9678566875,33.61
2021-06-29 16:26:01.453125000,-54.0,-14.0,33.0,109.06828125,50.66,14.971539875,33.61
2021-06-29 16:26:01.460937500,-54.0,-14.0,33.0,109.067734375,49.849999999999994,14.9752230625,33.61
2021-06-29 16:26:01.468750000,-54.0,-14.0,33.0,109.0671875,49.04,14.97890625,33.61
2021-06-29 16:26:01.476562500,-54.25,-14.0,33.0,109.06664062499999,47.065,14.9825894375,33.61
2021-06-29 16:26:01.484375000,-54.5,-14.0,33.0,109.06609375,45.09,14.986272625,33.61
2021-06-29 16:26:01.492187500,-54.75,-14.0,33.0,109.065546875,42.495000000000005,14.9899558125,33.61
2021-06-29 16:26:01.500000000,-55.0,-14.0,33.0,109.065,39.9,14.993639,33.61
2021-06-29 16:26:01.507812500,-54.75,-14.0,33.0,109.064453125,37.224999999999994,14.999444,33.61
2021-06-29 16:26:01.515625000,-54.5,-14.0,33.0,109.06390625,34.55,15.005249,33.61
2021-06-29 16:26:01.523437500,-54.25,-14.0,33.0,109.063359375,32.239999999999995,15.011054,33.61
2021-06-29 16:26:01.531250000,-54.0,-14.0,33.0,109.06281249999999,29.93,15.016859,33.61
2021-06-29 16:26:01.539062500,-54.0,-14.0,33.0,109.062265625,28.134999999999998,15.022664,33.61
2021-06-29 16:26:01.546875000,-54.0,-14.0,33.0,109.06171875,26.34,15.028469,33.61
2021-06-29 16:26:01.554687500,-54.0,-14.0,33.0,109.061171875,24.97,15.034274,33.61
2021-06-29 16:26:01.562500000,-54.0,-14.0,33.0,109.060625,23.6,15.040079,33.61
2021-06-29 16:26:01.570312500,-54.25,-14.0,33.0,109.060078125,22.37,15.045884,33.61
2021-06-29 16:26:01.578125000,-54.5,-14.0,33.0,109.05953124999999,21.14,15.051689,33.61
2021-06-29 16:26:01.585937500,-54.75,-14.0,33.0,109.058984375,19.78,15.057494,33.61
2021-06-29 16:26:01.593750000,-55.0,-14.0,33.0,109.0584375,18.42,15.063299,33.61
2021-06-29 16:26:01.601562500,-54.75,-14.0,33.0,109.057890625,16.775000000000002,15.069104,33.61
2021-06-29 16:26:01.609375000,-54.5,-14.0,33.0,109.05734375,15.13,15.074909,33.61
2021-06-29 16:26:01.617187500,-54.25,-14.0,33.0,109.056796875,13.2,15.080714,33.61
2021-06-29 16:26:01.625000000,-54.0,-14.0,33.0,109.05625,11.27,15.086519,33.61
2021-06-29 16:26:01.632812500,-54.0,-14.0,33.0,109.055703125,9.19,15.092324,33.61
2021-06-29 16:26:01.640625000,-54.0,-14.0,33.0,109.05515625,7.11,15.098129,33.61
2021-06-29 16:26:01.648437500,-54.0,-14.0,33.0,109.054609375,5.015000000000001,15.103934,33.61
2021-06-29 16:26:01.656250000,-54.0,-14.0,33.0,109.0540625,2.92,15.109739,33.61
2021-06-29 16:26:01.664062500,-54.0,-14.0,32.75,109.053515625,0.8700000000000001,15.115544,33.61
2021-06-29 16:26:01.671875000,-54.0,-14.0,32.5,109.05296875,-1.18,15.121349,33.61
2021-06-29 16:26:01.679687500,-54.0,-14.0,32.25,109.052421875,-3.2700000000000005,15.127154,33.61
2021-06-29 16:26:01.687500000,-54.0,-14.0,32.0,109.051875,-5.36,15.132959,33.61
2021-06-29 16:26:01.695312500,-54.25,-14.0,32.25,109.051328125,-7.6850000000000005,15.138764,33.61
2021-06-29 16:26:01.703125000,-54.5,-14.0,32.5,109.05078125,-10.01,15.144569,33.61
2021-06-29 16:26:01.710937500,-54.75,-14.0,32.75,109.050234375,-12.844999999999999,15.150374,33.61
2021-06-29 16:26:01.718750000,-55.0,-14.0,33.0,109.0496875,-15.68,15.156179,33.61
2021-06-29 16:26:01.726562500,-54.75,-14.0,33.0,109.04914062499999,-19.265,15.161984,33.61
2021-06-29 16:26:01.734375000,-54.5,-14.0,33.0,109.04859375,-22.85,15.167789,33.61
2021-06-29 16:26:01.742187500,-54.25,-14.0,33.0,109.048046875,-27.315,15.173594,33.61
2021-06-29 16:26:01.750000000,-54.0,-14.0,33.0,109.0475,-31.78,15.179399,33.61
2021-06-29 16:26:01.757812500,-54.0,-14.0,33.0,109.046953125,-36.980000000000004,15.183082125,33.61
2021-06-29 16:26:01.765625000,-54.0,-14.0,33.0,109.04640625,-42.18,15.18676525,33.61
2021-06-29 16:26:01.773437500,-54.0,-14.0,33.0,109.045859375,-47.58,15.190448375,33.61
2021-06-29 16:26:01.781250000,-54.0,-14.0,33.0,109.0453125,-52.98,15.194131500000001,33.61
2021-06-29 16:26:01.789062500,-54.25,-14.0,33.0,109.044765625,-57.67,15.197814625,33.61
2021-06-29 16:26:01.796875000,-54.5,-14.0,33.0,109.04421875,-62.36,15.20149775,33.61
2021-06-29 16:26:01.804687500,-54.75,-14.0,33.0,109.043671875,-65.22999999999999,15.205180875,33.61
2021-06-29 16:26:01.812500000,-55.0,-14.0,33.0,109.043125,-68.1,15.208864,33.61
2021-06-29 16:26:01.820312500,-54.75,-14.0,33.0,109.042578125,-68.16499999999999,15.212547125,33.61
2021-06-29 16:26:01.828125000,-54.5,-14.0,33.0,109.04203125,-68.23,15.21623025,33.61
2021-06-29 16:26:01.835937500,-54.25,-14.0,33.0,109.041484375,-65.015,15.219913375,33.61
2021-06-29 16:26:01.843750000,-54.0,-14.0,33.0,109.0409375,-61.8,15.2235965,33.61
2021-06-29 16:26:01.851562500,-54.0,-14.0,33.0,109.040390625,-55.58,15.227279625,33.61
2021-06-29 16:26:01.859375000,-54.0,-14.0,33.0,109.03984375,-49.36,15.23096275,33.61
2021-06-29 16:26:01.867187500,-54.0,-14.0,33.0,109.039296875,-41.07,15.234645875,33.61
2021-06-29 16:26:01.875000000,-54.0,-14.0,33.0,109.03875,-32.78,15.238329,33.61
2021-06-29 16:26:01.882812500,-54.0,-14.0,33.0,109.038203125,-23.76,15.242012125,33.61
2021-06-29 16:26:01.890625000,-54.0,-14.0,33.0,109.03765625,-14.74,15.24569525,33.61
2021-06-29 16:26:01.898437500,-54.0,-14.0,33.0,109.037109375,-6.26,15.249378375000001,33.61
2021-06-29 16:26:01.906250000,-54.0,-14.0,33.0,109.0365625,2.22,15.253061500000001,33.61
2021-06-29 16:26:01.914062500,-54.0,-14.0,33.0,109.036015625,9.264999999999999,15.256744625,33.61
2021-06-29 16:26:01.921875000,-54.0,-14.0,33.0,109.03546875,16.31,15.26042775,33.61
2021-06-29 16:26:01.929687500,-54.0,-14.0,33.0,109.034921875,21.490000000000002,15.264110875,33.61
2021-06-29 16:26:01.937500000,-54.0,-14.0,33.0,109.034375,26.67,15.267794,33.61
2021-06-29 16:26:01.945312500,-54.0,-14.0,33.0,109.033828125,29.94,15.271477125,33.61
2021-06-29 16:26:01.953125000,-54.0,-14.0,33.0,109.03328125,33.21,15.27516025,33.61
2021-06-29 16:26:01.960937500,-54.0,-14.0,33.0,109.032734375,34.72,15.278843375000001,33.61
2021-06-29 16:26:01.968750000,-54.0,-14.0,33.0,109.0321875,36.23,15.2825265,33.61
2021-06-29 16:26:01.976562500,-54.25,-14.0,33.0,109.031640625,36.185,15.286209625,33.61
2021-06-29 16:26:01.984375000,-54.5,-14.0,33.0,109.03109375,36.14,15.28989275,33.61
2021-06-29 16:26:01.992187500,-54.75,-14.0,33.0,109.030546875,34.84,15.293575875,33.61
2021-06-29 16:26:02.000000000,-55.0,-14.0,33.0,109.03,33.54,15.297259,33.61
2021-06-29 16:26:02.007812500,-54.75,-14.0,33.0,109.029765625,31.369999999999997,15.29813975,33.61
2021-06-29 16:26:02.015625000,-54.5,-14.0,33.0,109.02953125,29.2,15.299020500000001,33.61
2021-06-29 16:26:02.023437500,-54.25,-14.0,33.0,109.029296875,26.66,15.29990125,33.61
2021-06-29 16:26:02.031250000,-54.0,-14.0,33.0,109.0290625,24.12,15.300782,33.61
2021-06-29 16:26:02.039062500,-54.0,-14.0,33.0,109.028828125,21.700000000000003,15.30166275,33.61
2021-06-29 16:26:02.046875000,-54.0,-14.0,33.0,109.02859375,19.28,15.3025435,33.61
2021-06-29 16:26:02.054687500,-54.0,-14.0,33.0,109.02835937500001,17.330000000000002,15.30342425,33.61
2021-06-29 16:26:02.062500000,-54.0,-14.0,33.0,109.028125,15.38,15.304305,33.61
2021-06-29 16:26:02.070312500,-54.25,-14.0,32.75,109.027890625,13.99,15.30518575,33.61
2021-06-29 16:26:02.078125000,-54.5,-14.0,32.5,109.02765625,12.6,15.3060665,33.61
2021-06-29 16:26:02.085937500,-54.75,-14.0,32.25,109.027421875,11.620000000000001,15.30694725,33.61
2021-06-29 16:26:02.093750000,-55.0,-14.0,32.0,109.0271875,10.64,15.307828,33.61
2021-06-29 16:26:02.101562500,-55.0,-14.0,32.25,109.026953125,9.775,15.308708750000001,33.61
2021-06-29 16:26:02.109375000,-55.0,-14.0,32.5,109.02671875,8.91,15.3095895,33.61
2021-06-29 16:26:02.117187500,-55.0,-14.0,32.75,109.026484375,7.865,15.31047025,33.61
2021-06-29 16:26:02.125000000,-55.0,-14.0,33.0,109.02625,6.82,15.311351,33.61
2021-06-29 16:26:02.132812500,-54.75,-14.0,33.0,109.026015625,5.3950000000000005,15.31223175,33.61
2021-06-29 16:26:02.140625000,-54.5,-14.0,33.0,109.02578125,3.97,15.3131125,33.61
2021-06-29 16:26:02.148437500,-54.25,-14.0,33.0,109.025546875,2.175,15.31399325,33.61
2021-06-29 16:26:02.156250000,-54.0,-14.0,33.0,109.0253125,0.38,15.314874,33.61
2021-06-29 16:26:02.164062500,-54.25,-14.0,33.0,109.02507812500001,-1.6800000000000002,15.31575475,33.61
2021-06-29 16:26:02.171875000,-54.5,-14.0,33.0,109.02484375,-3.74,15.3166355,33.61
2021-06-29 16:26:02.179687500,-54.75,-14.0,33.0,109.024609375,-5.86,15.31751625,33.61
2021-06-29 16:26:02.187500000,-55.0,-14.0,33.0,109.024375,-7.98,15.318397000000001,33.61
2021-06-29 16:26:02.195312500,-55.0,-14.0,33.0,109.024140625,-9.99,15.31927775,33.61
2021-06-29 16:26:02.203125000,-55.0,-14.0,33.0,109.02390625,-12.0,15.3201585,33.61
2021-06-29 16:26:02.210937500,-55.0,-14.0,33.0,109.023671875,-13.89,15.32103925,33.61
2021-06-29 16:26:02.218750000,-55.0,-14.0,33.0,109.0234375,-15.78,15.32192,33.61
2021-06-29 16:26:02.226562500,-54.75,-14.0,33.0,109.023203125,-17.75,15.32280075,33.61
2021-06-29 16:26:02.234375000,-54.5,-14.0,33.0,109.02296875,-19.72,15.3236815,33.61
2021-06-29 16:26:02.242187500,-54.25,-14.0,33.0,109.022734375,-22.15,15.32456225,33.61
2021-06-29 16:26:02.250000000,-54.0,-14.0,33.0,109.02250000000001,-24.58,15.325443,33.61
2021-06-29 16:26:02.257812500,-54.25,-14.0,33.0,109.022265625,-27.854999999999997,15.324041812499999,33.61
2021-06-29 16:26:02.265625000,-54.5,-14.0,33.0,109.02203125,-31.13,15.322640625,33.61
2021-06-29 16:26:02.273437500,-54.75,-14.0,33.0,109.021796875,-35.345,15.3212394375,33.61
2021-06-29 16:26:02.281250000,-55.0,-14.0,33.0,109.0215625,-39.56,15.31983825,33.61
2021-06-29 16:26:02.289062500,-55.0,-14.0,33.0,109.021328125,-44.32,15.3184370625,33.61
2021-06-29 16:26:02.296875000,-55.0,-14.0,33.0,109.02109375,-49.08,15.317035875,33.61
2021-06-29 16:26:02.304687500,-55.0,-14.0,33.0,109.020859375,-53.455,15.3156346875,33.61
2021-06-29 16:26:02.312500000,-55.0,-14.0,33.0,109.020625,-57.83,15.3142335,33.61
2021-06-29 16:26:02.320312500,-54.75,-14.0,33.0,109.020390625,-60.58,15.3128323125,33.61
2021-06-29 16:26:02.328125000,-54.5,-14.0,33.0,109.02015625,-63.33,15.311431125,33.61
2021-06-29 16:26:02.335937500,-54.25,-14.0,33.0,109.019921875,-63.36,15.3100299375,33.61
2021-06-29 16:26:02.343750000,-54.0,-14.0,33.0,109.0196875,-63.39,15.30862875,33.61
2021-06-29 16:26:02.351562500,-54.0,-14.0,33.0,109.019453125,-60.195,15.3072275625,33.61
2021-06-29 16:26:02.359375000,-54.0,-14.0,33.0,109.01921875000001,-57.0,15.305826375,33.61
2021-06-29 16:26:02.367187500,-54.0,-14.0,33.0,109.018984375,-50.870000000000005,15.3044251875,33.61
2021-06-29 16:26:02.375000000,-54.0,-14.0,33.0,109.01875,-44.74,15.303024,33.61
2021-06-29 16:26:02.382812500,-54.0,-14.0,33.0,109.018515625,-36.66,15.3016228125,33.61
2021-06-29 16:26:02.390625000,-54.0,-14.0,33.0,109.01828125,-28.58,15.300221624999999,33.61
2021-06-29 16:26:02.398437500,-54.0,-14.0,33.0,109.018046875,-19.895,15.2988204375,33.61
2021-06-29 16:26:02.406250000,-54.0,-14.0,33.0,109.0178125,-11.21,15.297419249999999,33.61
2021-06-29 16:26:02.414062500,-54.0,-14.0,33.0,109.017578125,-3.155000000000001,15.2960180625,33.61
2021-06-29 16:26:02.421875000,-54.0,-14.0,33.0,109.01734375,4.9,15.294616875,33.61
2021-06-29 16:26:02.429687500,-54.0,-14.0,33.0,109.017109375,11.465,15.2932156875,33.61
2021-06-29 16:26:02.437500000,-54.0,-14.0,33.0,109.016875,18.03,15.2918145,33.61
2021-06-29 16:26:02.445312500,-54.0,-14.0,33.0,109.016640625,22.740000000000002,15.2904133125,33.61
2021-06-29 16:26:02.453125000,-54.0,-14.0,33.0,109.01640625,27.45,15.289012125,33.61
2021-06-29 16:26:02.460937500,-54.0,-14.0,33.0,109.016171875,30.305,15.2876109375,33.61
2021-06-29 16:26:02.468750000,-54.0,-14.0,33.0,109.0159375,33.16,15.28620975,33.61
2021-06-29 16:26:02.476562500,-54.0,-14.0,33.0,109.015703125,34.315,15.2848085625,33.61
2021-06-29 16:26:02.484375000,-54.0,-14.0,33.0,109.01546875,35.47,15.283407375,33.61
2021-06-29 16:26:02.492187500,-54.0,-14.0,33.0,109.015234375,35.135,15.2820061875,33.61
2021-06-29 16:26:02.500000000,-54.0,-14.0,33.0,109.015,34.8,15.280605,33.61
2021-06-29 16:26:02.507812500,-54.0,-14.0,33.0,109.014765625,33.205,15.279243843749999,33.61
2021-06-29 16:26:02.515625000,-54.0,-14.0,33.0,109.01453125,31.61,15.2778826875,33.61
2021-06-29 16:26:02.523437500,-54.0,-14.0,33.0,109.014296875,29.085,15.27652153125,33.61
2021-06-29 16:26:02.531250000,-54.0,-14.0,33.0,109.0140625,26.56,15.275160374999999,33.61
2021-06-29 16:26:02.539062500,-54.0,-14.0,33.0,109.013828125,23.545,15.27379921875,33.61
2021-06-29 16:26:02.546875000,-54.0,-14.0,33.0,109.01359375,20.53,15.2724380625,33.61
2021-06-29 16:26:02.554687500,-54.0,-14.0,33.0,109.01335937500001,17.54,15.27107690625,33.61
2021-06-29 16:26:02.562500000,-54.0,-14.0,33.0,109.013125,14.55,15.26971575,33.61
2021-06-29 16:26:02.570312500,-54.25,-14.0,33.0,109.012890625,12.02,15.268354593749999,33.61
2021-06-29 16:26:02.578125000,-54.5,-14.0,33.0,109.01265625,9.49,15.2669934375,33.61
2021-06-29 16:26:02.585937500,-54.75,-14.0,33.0,109.012421875,7.645,15.26563228125,33.61
2021-06-29 16:26:02.593750000,-55.0,-14.0,33.0,109.0121875,5.8,15.264271125,33.61
2021-06-29 16:26:02.601562500,-54.75,-14.0,33.0,109.011953125,4.58,15.26290996875,33.61
2021-06-29 16:26:02.609375000,-54.5,-14.0,33.0,109.01171875,3.36,15.2615488125,33.61
2021-06-29 16:26:02.617187500,-54.25,-14.0,33.0,109.011484375,2.49,15.26018765625,33.61
2021-06-29 16:26:02.625000000,-54.0,-14.0,33.0,109.01125,1.62,15.2588265,33.61
2021-06-29 16:26:02.632812500,-54.0,-14.0,33.0,109.011015625,0.7300000000000001,15.257465343749999,33.61
2021-06-29 16:26:02.640625000,-54.0,-14.0,33.0,109.01078125,-0.16,15.2561041875,33.61
2021-06-29 16:26:02.648437500,-54.0,-14.0,33.0,109.010546875,-1.3849999999999998,15.25474303125,33.61
2021-06-29 16:26:02.656250000,-54.0,-14.0,33.0,109.0103125,-2.61,15.253381874999999,33.61
2021-06-29 16:26:02.664062500,-54.0,-14.0,33.0,109.010078125,-4.32,15.25202071875,33.61
2021-06-29 16:26:02.671875000,-54.0,-14.0,33.0,109.00984375,-6.03,15.2506595625,33.61
2021-06-29 16:26:02.679687500,-54.0,-14.0,33.0,109.009609375,-8.245000000000001,15.24929840625,33.61
2021-06-29 16:26:02.687500000,-54.0,-14.0,33.0,109.009375,-10.46,15.24793725,33.61
2021-06-29 16:26:02.695312500,-54.0,-14.0,33.0,109.009140625,-13.085,15.246576093749999,33.61
2021-06-29 16:26:02.703125000,-54.0,-14.0,33.0,109.00890625,-15.71,15.2452149375,33.61
2021-06-29 16:26:02.710937500,-54.0,-14.0,33.0,109.008671875,-18.705,15.24385378125,33.61
2021-06-29 16:26:02.718750000,-54.0,-14.0,33.0,109.0084375,-21.7,15.242492625,33.61
2021-06-29 16:26:02.726562500,-54.0,-14.0,33.0,109.008203125,-25.085,15.24113146875,33.61
2021-06-29 16:26:02.734375000,-54.0,-14.0,33.0,109.00796875,-28.47,15.2397703125,33.61
2021-06-29 16:26:02.742187500,-54.0,-14.0,33.0,109.007734375,-32.385,15.23840915625,33.61
2021-06-29 16:26:02.750000000,-54.0,-14.0,33.0,109.0075,-36.3,15.237048,33.61
2021-06-29 16:26:02.757812500,-54.0,-14.0,33.0,109.007265625,-40.82,15.234806062499999,33.61
2021-06-29 16:26:02.765625000,-54.0,-14.0,33.0,109.00703125,-45.34,15.232564125,33.61
2021-06-29 16:26:02.773437500,-54.0,-14.0,33.0,109.006796875,-50.315,15.2303221875,33.61
2021-06-29 16:26:02.781250000,-54.0,-14.0,33.0,109.0065625,-55.29,15.22808025,33.61
2021-06-29 16:26:02.789062500,-54.0,-14.0,33.0,109.006328125,-60.22,15.225838312499999,33.61
2021-06-29 16:26:02.796875000,-54.0,-14.0,33.0,109.00609375,-65.15,15.223596375,33.61
2021-06-29 16:26:02.804687500,-54.0,-14.0,33.0,109.005859375,-69.14,15.2213544375,33.61
2021-06-29 16:26:02.812500000,-54.0,-14.0,33.0,109.005625,-73.13,15.2191125,33.61
2021-06-29 16:26:02.820312500,-54.0,-14.0,33.0,109.005390625,-75.115,15.216870562499999,33.61
2021-06-29 16:26:02.828125000,-54.0,-14.0,33.0,109.00515625,-77.1,15.214628625,33.61
2021-06-29 16:26:02.835937500,-54.0,-14.0,33.0,109.004921875,-76.195,15.2123866875,33.61
2021-06-29 16:26:02.843750000,-54.0,-14.0,33.0,109.0046875,-75.29,15.21014475,33.61
2021-06-29 16:26:02.851562500,-54.0,-14.0,33.0,109.004453125,-71.13,15.207902812499999,33.61
2021-06-29 16:26:02.859375000,-54.0,-14.0,33.0,109.00421875,-66.97,15.205660875,33.61
2021-06-29 16:26:02.867187500,-54.0,-14.0,33.0,109.003984375,-59.95,15.2034189375,33.61
2021-06-29 16:26:02.875000000,-54.0,-14.0,33.0,109.00375,-52.93,15.201177,33.61
2021-06-29 16:26:02.882812500,-54.25,-14.0,32.75,109.003515625,-44.065,15.198935062499999,33.61
2021-06-29 16:26:02.890625000,-54.5,-14.0,32.5,109.00328125,-35.2,15.196693125,33.61
2021-06-29 16:26:02.898437500,-54.75,-14.0,32.25,109.003046875,-25.815,15.1944511875,33.61
2021-06-29 16:26:02.906250000,-55.0,-14.0,32.0,109.0028125,-16.43,15.19220925,33.61
2021-06-29 16:26:02.914062500,-55.0,-14.0,32.25,109.002578125,-7.720000000000001,15.189967312499999,33.61
2021-06-29 16:26:02.921875000,-55.0,-14.0,32.5,109.00234375,0.99,15.187725375,33.61
2021-06-29 16:26:02.929687500,-55.0,-14.0,32.75,109.002109375,8.25,15.1854834375,33.61
2021-06-29 16:26:02.937500000,-55.0,-14.0,33.0,109.001875,15.51,15.1832415,33.61
2021-06-29 16:26:02.945312500,-54.75,-14.0,33.0,109.001640625,21.035,15.180999562499998,33.61
2021-06-29 16:26:02.953125000,-54.5,-14.0,33.0,109.00140625,26.56,15.178757625,33.61
2021-06-29 16:26:02.960937500,-54.25,-14.0,33.0,109.001171875,30.384999999999998,15.1765156875,33.61
2021-06-29 16:26:02.968750000,-54.0,-14.0,33.0,109.0009375,34.21,15.17427375,33.61
2021-06-29 16:26:02.976562500,-54.25,-14.0,33.0,109.000703125,36.495000000000005,15.172031812499998,33.61
2021-06-29 16:26:02.984375000,-54.5,-14.0,33.0,109.00046875,38.78,15.169789875,33.61
2021-06-29 16:26:02.992187500,-54.75,-14.0,33.0,109.000234375,39.665,15.1675479375,33.61
2021-06-29 16:26:03.000000000,-55.0,-14.0,33.0,109.0,40.55,15.165306,33.61
2021-06-29 16:26:03.007812500,-55.0,-14.0,33.0,109.00015625,40.175,15.1633043125,33.609375
2021-06-29 16:26:03.015625000,-55.0,-14.0,33.0,109.0003125,39.8,15.161302625,33.60875
2021-06-29 16:26:03.023437500,-55.0,-14.0,33.0,109.00046875,38.37,15.1593009375,33.608125
2021-06-29 16:26:03.031250000,-55.0,-14.0,33.0,109.000625,36.94,15.15729925,33.6075
2021-06-29 16:26:03.039062500,-54.75,-14.0,33.0,109.00078125,34.775,15.1552975625,33.606875
2021-06-29 16:26:03.046875000,-54.5,-14.0,33.0,109.0009375,32.61,15.153295875,33.60625
2021-06-29 16:26:03.054687500,-54.25,-14.0,33.0,109.00109375,30.064999999999998,15.1512941875,33.605625
2021-06-29 16:26:03.062500000,-54.0,-14.0,33.0,109.00125,27.52,15.1492925,33.605000000000004
2021-06-29 16:26:03.070312500,-54.0,-14.0,33.0,109.00140625,24.92,15.1472908125,33.604375
2021-06-29 16:26:03.078125000,-54.0,-14.0,33.0,109.0015625,22.32,15.145289125,33.60375
2021-06-29 16:26:03.085937500,-54.0,-14.0,33.0,109.00171875,19.86,15.1432874375,33.603125
2021-06-29 16:26:03.093750000,-54.0,-14.0,33.0,109.001875,17.4,15.14128575,33.6025
2021-06-29 16:26:03.101562500,-54.25,-14.0,33.0,109.00203125,15.155,15.1392840625,33.601875
2021-06-29 16:26:03.109375000,-54.5,-14.0,33.0,109.0021875,12.91,15.137282375,33.60125
2021-06-29 16:26:03.117187500,-54.75,-14.0,33.0,109.00234375,10.85,15.1352806875,33.600625
2021-06-29 16:26:03.125000000,-55.0,-14.0,33.0,109.0025,8.79,15.133279,33.6
2021-06-29 16:26:03.132812500,-54.75,-14.0,33.0,109.00265625,6.885,15.1312773125,33.599375
2021-06-29 16:26:03.140625000,-54.5,-14.0,33.0,109.0028125,4.98,15.129275625,33.59875
2021-06-29 16:26:03.148437500,-54.25,-14.0,33.0,109.00296875,3.18,15.1272739375,33.598125
2021-06-29 16:26:03.156250000,-54.0,-14.0,33.0,109.003125,1.38,15.12527225,33.597500000000004
2021-06-29 16:26:03.164062500,-54.0,-14.0,33.0,109.00328125,-0.375,15.1232705625,33.596875000000004
2021-06-29 16:26:03.171875000,-54.0,-14.0,33.0,109.0034375,-2.13,15.121268875,33.596250000000005
2021-06-29 16:26:03.179687500,-54.0,-14.0,33.0,109.00359375,-3.9499999999999997,15.1192671875,33.595625000000005
2021-06-29 16:26:03.187500000,-54.0,-14.0,33.0,109.00375,-5.77,15.1172655,33.595
2021-06-29 16:26:03.195312500,-54.25,-14.0,33.0,109.00390625,-7.805,15.1152638125,33.594375
2021-06-29 16:26:03.203125000,-54.5,-14.0,33.0,109.0040625,-9.84,15.113262125,33.59375
2021-06-29 16:26:03.210937500,-54.75,-14.0,33.0,109.00421874999999,-12.295,15.1112604375,33.593125
2021-06-29 16:26:03.218750000,-55.0,-14.0,33.0,109.004375,-14.75,15.10925875,33.5925
2021-06-29 16:26:03.226562500,-55.0,-14.0,33.0,109.00453125,-17.814999999999998,15.1072570625,33.591875
2021-06-29 16:26:03.234375000,-55.0,-14.0,33.0,109.0046875,-20.88,15.105255375,33.59125
2021-06-29 16:26:03.242187500,-55.0,-14.0,33.0,109.00484374999999,-24.759999999999998,15.1032536875,33.590625
2021-06-29 16:26:03.250000000,-55.0,-14.0,33.0,109.005,-28.64,15.101252,33.59
2021-06-29 16:26:03.257812500,-54.75,-14.0,33.0,109.00515625,-33.44,15.0991701875,33.59
2021-06-29 16:26:03.265625000,-54.5,-14.0,33.0,109.0053125,-38.24,15.097088375,33.59
2021-06-29 16:26:03.273437500,-54.25,-14.0,33.0,109.00546875,-43.785,15.0950065625,33.59
2021-06-29 16:26:03.281250000,-54.0,-14.0,33.0,109.005625,-49.33,15.09292475,33.59
2021-06-29 16:26:03.289062500,-54.0,-14.0,33.0,109.00578125,-55.075,15.0908429375,33.59
2021-06-29 16:26:03.296875000,-54.0,-14.0,33.0,109.0059375,-60.82,15.088761125000001,33.59
2021-06-29 16:26:03.304687500,-54.0,-14.0,33.0,109.00609375,-65.78,15.086679312500001,33.59
2021-06-29 16:26:03.312500000,-54.0,-14.0,33.0,109.00625,-70.74,15.084597500000001,33.59
2021-06-29 16:26:03.320312500,-54.0,-14.0,33.0,109.00640625,-73.715,15.0825156875,33.59
2021-06-29 16:26:03.328125000,-54.0,-14.0,33.0,109.0065625,-76.69,15.080433875,33.59
2021-06-29 16:26:03.335937500,-54.0,-14.0,33.0,109.00671875,-76.595,15.0783520625,33.59
2021-06-29 16:26:03.343750000,-54.0,-14.0,33.0,109.006875,-76.5,15.07627025,33.59
2021-06-29 16:26:03.351562500,-54.0,-14.0,33.0,109.00703125,-72.81,15.0741884375,33.59
2021-06-29 16:26:03.359375000,-54.0,-14.0,33.0,109.0071875,-69.12,15.072106625,33.59
2021-06-29 16:26:03.367187500,-54.0,-14.0,33.0,109.00734375,-62.07000000000001,15.0700248125,33.59
2021-06-29 16:26:03.375000000,-54.0,-14.0,33.0,109.0075,-55.02,15.067943,33.59
2021-06-29 16:26:03.382812500,-54.25,-14.0,33.0,109.00765625,-45.57,15.065861187500001,33.59
2021-06-29 16:26:03.390625000,-54.5,-14.0,33.0,109.0078125,-36.12,15.063779375000001,33.59
2021-06-29 16:26:03.398437500,-54.75,-14.0,33.0,109.00796875,-25.61,15.061697562500001,33.59
2021-06-29 16:26:03.406250000,-55.0,-14.0,33.0,109.00812499999999,-15.1,15.05961575,33.59
2021-06-29 16:26:03.414062500,-55.0,-14.0,33.0,109.00828125,-4.855,15.0575339375,33.59
2021-06-29 16:26:03.421875000,-55.0,-14.0,33.0,109.0084375,5.39,15.055452125,33.59
2021-06-29 16:26:03.429687500,-55.0,-14.0,33.0,109.00859375,14.395,15.0533703125,33.59
2021-06-29 16:26:03.437500000,-55.0,-14.0,33.0,109.00874999999999,23.4,15.0512885,33.59
2021-06-29 16:26:03.445312500,-54.75,-14.0,32.75,109.00890625,30.65,15.0492066875,33.59
2021-06-29 16:26:03.453125000,-54.5,-14.0,32.5,109.0090625,37.9,15.047124875,33.59
2021-06-29 16:26:03.460937500,-54.25,-14.0,32.25,109.00921875,43.254999999999995,15.045043062500001,33.59
2021-06-29 16:26:03.468750000,-54.0,-14.0,32.0,109.00937499999999,48.61,15.042961250000001,33.59
2021-06-29 16:26:03.476562500,-54.25,-14.0,32.0,109.00953125,52.14,15.040879437500001,33.59
2021-06-29 16:26:03.484375000,-54.5,-14.0,32.0,109.0096875,55.67,15.038797625,33.59
2021-06-29 16:26:03.492187500,-54.75,-14.0,32.0,109.00984375,57.515,15.0367158125,33.59
2021-06-29 16:26:03.500000000,-55.0,-14.0,32.0,109.00999999999999,59.36,15.034634,33.59
2021-06-29 16:26:03.507812500,-54.75,-14.0,32.25,109.01015625,59.72,15.032312000000001,33.59
2021-06-29 16:26:03.515625000,-54.5,-14.0,32.5,109.0103125,60.08,15.02999,33.59
2021-06-29 16:26:03.523437500,-54.25,-14.0,32.75,109.01046875,59.205,15.027668,33.59
2021-06-29 16:26:03.531250000,-54.0,-14.0,33.0,109.010625,58.33,15.025346,33.59
2021-06-29 16:26:03.539062500,-54.25,-14.0,33.0,109.01078125,56.545,15.023024000000001,33.59
2021-06-29 16:26:03.546875000,-54.5,-14.0,33.0,109.0109375,54.76,15.020702,33.59
2021-06-29 16:26:03.554687500,-54.75,-14.0,33.0,109.01109375,52.455,15.01838,33.59
2021-06-29 16:26:03.562500000,-55.0,-14.0,33.0,109.01125,50.15,15.016058000000001,33.59
2021-06-29 16:26:03.570312500,-54.75,-14.0,33.0,109.01140625,47.665,15.013736,33.59
2021-06-29 16:26:03.578125000,-54.5,-14.0,33.0,109.0115625,45.18,15.011414,33.59
2021-06-29 16:26:03.585937500,-54.25,-14.0,33.0,109.01171875,42.765,15.009092,33.59
2021-06-29 16:26:03.593750000,-54.0,-14.0,33.0,109.011875,40.35,15.006770000000001,33.59
2021-06-29 16:26:03.601562500,-54.25,-14.0,32.75,109.01203124999999,38.095,15.004448,33.59
2021-06-29 16:26:03.609375000,-54.5,-14.0,32.5,109.0121875,35.84,15.002126,33.59
2021-06-29 16:26:03.617187500,-54.75,-14.0,32.25,109.01234375,33.675000000000004,14.999804000000001,33.59
2021-06-29 16:26:03.625000000,-55.0,-14.0,32.0,109.0125,31.51,14.997482000000002,33.59
2021-06-29 16:26:03.632812500,-54.75,-14.0,32.25,109.01265624999999,29.3,14.99516,33.59
2021-06-29 16:26:03.640625000,-54.5,-14.0,32.5,109.0128125,27.09,14.992838,33.59
2021-06-29 16:26:03.648437500,-54.25,-14.0,32.75,109.01296875,24.705,14.990516000000001,33.59
2021-06-29 16:26:03.656250000,-54.0,-14.0,33.0,109.013125,22.32,14.988194,33.59
2021-06-29 16:26:03.664062500,-54.25,-14.0,33.0,109.01328124999999,19.745,14.985872,33.59
2021-06-29 16:26:03.671875000,-54.5,-14.0,33.0,109.0134375,17.17,14.983550000000001,33.59
2021-06-29 16:26:03.679687500,-54.75,-14.0,33.0,109.01359375,14.5,14.981228000000002,33.59
2021-06-29 16:26:03.687500000,-55.0,-14.0,33.0,109.01375,11.83,14.978906,33.59
2021-06-29 16:26:03.695312500,-55.0,-14.0,33.0,109.01390624999999,9.215,14.976584,33.59
2021-06-29 16:26:03.703125000,-55.0,-14.0,33.0,109.0140625,6.6,14.974262000000001,33.59
2021-06-29 16:26:03.710937500,-55.0,-14.0,33.0,109.01421875,4.1,14.97194,33.59
2021-06-29 16:26:03.718750000,-55.0,-14.0,33.0,109.014375,1.6,14.969618,33.59
2021-06-29 16:26:03.726562500,-55.0,-14.0,33.0,109.01453124999999,-0.9199999999999999,14.967296000000001,33.59
2021-06-29 16:26:03.734375000,-55.0,-14.0,33.0,109.0146875,-3.44,14.964974000000002,33.59
2021-06-29 16:26:03.742187500,-55.0,-14.0,33.0,109.01484375,-6.335000000000001,14.962652,33.59
2021-06-29 16:26:03.750000000,-55.0,-14.0,33.0,109.015,-9.23,14.96033,33.59
2021-06-29 16:26:03.757812500,-54.75,-14.0,33.0,109.01515625,-12.935,14.959209031250001,33.59
2021-06-29 16:26:03.765625000,-54.5,-14.0,33.0,109.0153125,-16.64,14.9580880625,33.59
2021-06-29 16:26:03.773437500,-54.25,-14.0,33.0,109.01546875,-21.415,14.95696709375,33.59
2021-06-29 16:26:03.781250000,-54.0,-14.0,33.0,109.015625,-26.19,14.955846125,33.59
2021-06-29 16:26:03.789062500,-54.25,-14.0,32.75,109.01578125,-31.865000000000002,14.954725156250001,33.59
2021-06-29 16:26:03.796875000,-54.5,-14.0,32.5,109.01593749999999,-37.54,14.953604187500002,33.59
2021-06-29 16:26:03.804687500,-54.75,-14.0,32.25,109.01609375,-43.39,14.95248321875,33.59
2021-06-29 16:26:03.812500000,-55.0,-14.0,32.0,109.01625,-49.24,14.95136225,33.59
2021-06-29 16:26:03.820312500,-54.75,-14.0,32.25,109.01640625,-54.105000000000004,14.950241281250001,33.59
2021-06-29 16:26:03.828125000,-54.5,-14.0,32.5,109.01656249999999,-58.97,14.9491203125,33.59
2021-06-29 16:26:03.835937500,-54.25,-14.0,32.75,109.01671875,-61.565,14.94799934375,33.59
2021-06-29 16:26:03.843750000,-54.0,-14.0,33.0,109.016875,-64.16,14.946878375,33.59
2021-06-29 16:26:03.851562500,-54.0,-14.0,33.0,109.01703125,-63.55,14.945757406250001,33.59
2021-06-29 16:26:03.859375000,-54.0,-14.0,33.0,109.01718749999999,-62.94,14.944636437500002,33.59
2021-06-29 16:26:03.867187500,-54.0,-14.0,33.0,109.01734375,-58.825,14.94351546875,33.59
2021-06-29 16:26:03.875000000,-54.0,-14.0,33.0,109.0175,-54.71,14.9423945,33.59
2021-06-29 16:26:03.882812500,-54.25,-14.0,32.75,109.01765625,-47.565,14.941273531250001,33.59
2021-06-29 16:26:03.890625000,-54.5,-14.0,32.5,109.01781249999999,-40.42,14.9401525625,33.59
2021-06-29 16:26:03.898437500,-54.75,-14.0,32.25,109.01796875,-31.26,14.93903159375,33.59
2021-06-29 16:26:03.906250000,-55.0,-14.0,32.0,109.018125,-22.1,14.937910625,33.59
2021-06-29 16:26:03.914062500,-55.0,-14.0,32.25,109.01828125,-12.190000000000001,14.936789656250001,33.59
2021-06-29 16:26:03.921875000,-55.0,-14.0,32.5,109.01843749999999,-2.28,14.935668687500002,33.59
2021-06-29 16:26:03.929687500,-55.0,-14.0,32.75,109.01859375,7.260000000000002,14.93454771875,33.59
2021-06-29 16:26:03.937500000,-55.0,-14.0,33.0,109.01875,16.8,14.93342675,33.59
2021-06-29 16:26:03.945312500,-54.75,-14.0,33.0,109.01890625,25.200000000000003,14.932305781250001,33.59
2021-06-29 16:26:03.953125000,-54.5,-14.0,33.0,109.01906249999999,33.6,14.9311848125,33.59
2021-06-29 16:26:03.960937500,-54.25,-14.0,33.0,109.01921875,40.455,14.93006384375,33.59
2021-06-29 16:26:03.968750000,-54.0,-14.0,33.0,109.019375,47.31,14.928942875,33.59
2021-06-29 16:26:03.976562500,-54.0,-14.0,32.75,109.01953125,52.475,14.927821906250001,33.59
2021-06-29 16:26:03.984375000,-54.0,-14.0,32.5,109.01968749999999,57.64,14.926700937500001,33.59
2021-06-29 16:26:03.992187500,-54.0,-14.0,32.25,109.01984374999999,61.095,14.92557996875,33.59
2021-06-29 16:26:04.000000000,-54.0,-14.0,32.0,109.02,64.55,14.924459,33.59
2021-06-29 16:26:04.007812500,-54.25,-14.0,32.0,109.02039062499999,66.34,14.923298,33.590625
2021-06-29 16:26:04.015625000,-54.5,-14.0,32.0,109.02078125,68.13,14.922137000000001,33.59125
2021-06-29 16:26:04.023437500,-54.75,-14.0,32.0,109.021171875,68.35,14.920976000000001,33.591875
2021-06-29 16:26:04.031250000,-55.0,-14.0,32.0,109.0215625,68.57,14.919815,33.5925
2021-06-29 16:26:04.039062500,-55.0,-14.0,32.25,109.021953125,67.455,14.918654,33.593125
2021-06-29 16:26:04.046875000,-55.0,-14.0,32.5,109.02234374999999,66.34,14.917493,33.59375
2021-06-29 16:26:04.054687500,-55.0,-14.0,32.75,109.022734375,64.265,14.916332,33.594375
2021-06-29 16:26:04.062500000,-55.0,-14.0,33.0,109.023125,62.19,14.915171,33.595
2021-06-29 16:26:04.070312500,-54.75,-14.0,33.0,109.023515625,59.614999999999995,14.914010000000001,33.595625000000005
2021-06-29 16:26:04.078125000,-54.5,-14.0,33.0,109.02390625,57.04,14.912849,33.596250000000005
2021-06-29 16:26:04.085937500,-54.25,-14.0,33.0,109.02429687499999,54.4,14.911688,33.596875000000004
2021-06-29 16:26:04.093750000,-54.0,-14.0,33.0,109.0246875,51.76,14.910527,33.597500000000004
2021-06-29 16:26:04.101562500,-54.25,-14.0,33.0,109.025078125,49.334999999999994,14.909366,33.598125
2021-06-29 16:26:04.109375000,-54.5,-14.0,33.0,109.02546875,46.91,14.908205,33.59875
2021-06-29 16:26:04.117187500,-54.75,-14.0,33.0,109.025859375,44.745,14.907044,33.599375
2021-06-29 16:26:04.125000000,-55.0,-14.0,33.0,109.02624999999999,42.58,14.905883,33.6
2021-06-29 16:26:04.132812500,-55.0,-14.0,33.0,109.026640625,40.545,14.904722,33.600625
2021-06-29 16:26:04.140625000,-55.0,-14.0,33.0,109.02703125,38.51,14.903561,33.60125
2021-06-29 16:26:04.148437500,-55.0,-14.0,33.0,109.027421875,36.39,14.9024,33.601875
2021-06-29 16:26:04.156250000,-55.0,-14.0,33.0,109.0278125,34.27,14.901239,33.6025
2021-06-29 16:26:04.164062500,-54.75,-14.0,33.0,109.02820312499999,31.900000000000002,14.900078,33.603125
2021-06-29 16:26:04.171875000,-54.5,-14.0,33.0,109.02859375,29.53,14.898917,33.60375
2021-06-29 16:26:04.179687500,-54.25,-14.0,33.0,109.028984375,26.855,14.897756,33.604375
2021-06-29 16:26:04.187500000,-54.0,-14.0,33.0,109.029375,24.18,14.896595,33.605000000000004
2021-06-29 16:26:04.195312500,-54.0,-14.0,33.0,109.029765625,21.29,14.895434,33.605625
2021-06-29 16:26:04.203125000,-54.0,-14.0,33.0,109.03015624999999,18.4,14.894273,33.60625
2021-06-29 16:26:04.210937500,-54.0,-14.0,33.0,109.030546875,15.41,14.893112,33.606875
2021-06-29 16:26:04.218750000,-54.0,-14.0,33.0,109.0309375,12.42,14.891951,33.6075
2021-06-29 16:26:04.226562500,-54.25,-14.0,32.75,109.031328125,9.42,14.890789999999999,33.608125
2021-06-29 16:26:04.234375000,-54.5,-14.0,32.5,109.03171875,6.42,14.889629,33.60875
2021-06-29 16:26:04.242187500,-54.75,-14.0,32.25,109.03210937499999,3.34,14.888468,33.609375
2021-06-29 16:26:04.250000000,-55.0,-14.0,32.0,109.0325,0.26,14.887307,33.61
2021-06-29 16:26:04.257812500,-55.0,-14.0,32.25,109.032890625,-3.125,14.88726696875,33.61
2021-06-29 16:26:04.265625000,-55.0,-14.0,32.5,109.03328125,-6.51,14.8872269375,33.61
2021-06-29 16:26:04.273437500,-55.0,-14.0,32.75,109.033671875,-10.475,14.88718690625,33.61
2021-06-29 16:26:04.281250000,-55.0,-14.0,33.0,109.03406249999999,-14.44,14.887146875,33.61
2021-06-29 16:26:04.289062500,-55.0,-14.0,33.0,109.034453125,-19.22,14.887106843749999,33.61
2021-06-29 16:26:04.296875000,-55.0,-14.0,33.0,109.03484375,-24.0,14.8870668125,33.61
2021-06-29 16:26:04.304687500,-55.0,-14.0,33.0,109.035234375,-29.55,14.88702678125,33.61
2021-06-29 16:26:04.312500000,-55.0,-14.0,33.0,109.035625,-35.1,14.88698675,33.61
2021-06-29 16:26:04.320312500,-54.75,-14.0,33.0,109.03601562499999,-40.99,14.88694671875,33.61
2021-06-29 16:26:04.328125000,-54.5,-14.0,33.0,109.03640625,-46.88,14.8869066875,33.61
2021-06-29 16:26:04.335937500,-54.25,-14.0,33.0,109.036796875,-52.28,14.88686665625,33.61
2021-06-29 16:26:04.343750000,-54.0,-14.0,33.0,109.0371875,-57.68,14.886826625,33.61
2021-06-29 16:26:04.351562500,-54.0,-14.0,33.0,109.037578125,-61.515,14.88678659375,33.61
2021-06-29 16:26:04.359375000,-54.0,-14.0,33.0,109.03796874999999,-65.35,14.886746562499999,33.61
2021-06-29 16:26:04.367187500,-54.0,-14.0,33.0,109.038359375,-66.63,14.886706531249999,33.61
2021-06-29 16:26:04.375000000,-54.0,-14.0,33.0,109.03875,-67.91,14.8866665,33.61
2021-06-29 16:26:04.382812500,-54.25,-14.0,33.0,109.039140625,-66.035,14.88662646875,33.61
2021-06-29 16:26:04.390625000,-54.5,-14.0,33.0,109.03953125,-64.16,14.8865864375,33.61
2021-06-29 16:26:04.398437500,-54.75,-14.0,33.0,109.03992187499999,-59.14,14.88654640625,33.61
2021-06-29 16:26:04.406250000,-55.0,-14.0,33.0,109.0403125,-54.12,14.886506375,33.61
2021-06-29 16:26:04.414062500,-54.75,-14.0,33.0,109.040703125,-46.575,14.88646634375,33.61
2021-06-29 16:26:04.421875000,-54.5,-14.0,33.0,109.04109375,-39.03,14.8864263125,33.61
2021-06-29 16:26:04.429687500,-54.25,-14.0,33.0,109.041484375,-29.955,14.88638628125,33.61
2021-06-29 16:26:04.437500000,-54.0,-14.0,33.0,109.04187499999999,-20.88,14.886346249999999,33.61
2021-06-29 16:26:04.445312500,-54.0,-14.0,33.0,109.042265625,-11.379999999999999,14.886306218749999,33.61
2021-06-29 16:26:04.453125000,-54.0,-14.0,33.0,109.04265625,-1.88,14.886266187499999,33.61
2021-06-29 16:26:04.460937500,-54.0,-14.0,33.0,109.043046875,7.11,14.88622615625,33.61
2021-06-29 16:26:04.468750000,-54.0,-14.0,33.0,109.0434375,16.1,14.886186125,33.61
2021-06-29 16:26:04.476562500,-54.0,-14.0,32.75,109.04382812499999,23.875,14.88614609375,33.61
2021-06-29 16:26:04.484375000,-54.0,-14.0,32.5,109.04421875,31.65,14.8861060625,33.61
2021-06-29 16:26:04.492187500,-54.0,-14.0,32.25,109.044609375,37.75,14.88606603125,33.61
2021-06-29 16:26:04.500000000,-54.0,-14.0,32.0,109.04499999999999,43.85,14.886026,33.61
2021-06-29 16:26:04.507812500,-54.0,-14.0,32.25,109.045390625,47.985,14.88574578125,33.61
2021-06-29 16:26:04.515625000,-54.0,-14.0,32.5,109.04578124999999,52.12,14.885465562499999,33.61
2021-06-29 16:26:04.523437500,-54.0,-14.0,32.75,109.046171875,54.17,14.885185343749999,33.61
2021-06-29 16:26:04.531250000,-54.0,-14.0,33.0,109.0465625,56.22,14.884905125,33.61
2021-06-29 16:26:04.539062500,-54.25,-14.0,33.0,109.04695312499999,56.269999999999996,14.88462490625,33.61
2021-06-29 16:26:04.546875000,-54.5,-14.0,33.0,109.04734375,56.32,14.884344687499999,33.61
2021-06-29 16:26:04.554687500,-54.75,-14.0,33.0,109.04773437499999,54.739999999999995,14.88406446875,33.61
2021-06-29 16:26:04.562500000,-55.0,-14.0,33.0,109.048125,53.16,14.88378425,33.61
2021-06-29 16:26:04.570312500,-54.75,-14.0,33.0,109.048515625,50.53,14.883504031249998,33.61
2021-06-29 16:26:04.578125000,-54.5,-14.0,33.0,109.04890624999999,47.9,14.883223812499999,33.61
2021-06-29 16:26:04.585937500,-54.25,-14.0,33.0,109.049296875,44.92,14.88294359375,33.61
2021-06-29 16:26:04.593750000,-54.0,-14.0,33.0,109.04968749999999,41.94,14.882663375,33.61
2021-06-29 16:26:04.601562500,-54.0,-14.0,33.0,109.050078125,39.2,14.882383156249999,33.61
2021-06-29 16:26:04.609375000,-54.0,-14.0,33.0,109.05046875,36.46,14.8821029375,33.61
2021-06-29 16:26:04.617187500,-54.0,-14.0,33.0,109.05085937499999,34.28,14.88182271875,33.61
2021-06-29 16:26:04.625000000,-54.0,-14.0,33.0,109.05125,32.1,14.881542499999998,33.61
2021-06-29 16:26:04.632812500,-54.25,-14.0,33.0,109.05164062499999,30.475,14.881262281249999,33.61
2021-06-29 16:26:04.640625000,-54.5,-14.0,33.0,109.05203125,28.85,14.8809820625,33.61
2021-06-29 16:26:04.648437500,-54.75,-14.0,33.0,109.052421875,27.545,14.88070184375,33.61
2021-06-29 16:26:04.656250000,-55.0,-14.0,33.0,109.05281249999999,26.24,14.880421624999999,33.61
2021-06-29 16:26:04.664062500,-54.75,-14.0,33.0,109.053203125,24.945,14.880141406249999,33.61
2021-06-29 16:26:04.671875000,-54.5,-14.0,33.0,109.05359374999999,23.65,14.8798611875,33.61
2021-06-29 16:26:04.679687500,-54.25,-14.0,33.0,109.053984375,22.125,14.87958096875,33.61
2021-06-29 16:26:04.687500000,-54.0,-14.0,33.0,109.054375,20.6,14.879300749999999,33.61
2021-06-29 16:26:04.695312500,-54.0,-14.0,33.0,109.05476562499999,18.79,14.87902053125,33.61
2021-06-29 16:26:04.703125000,-54.0,-14.0,33.0,109.05515625,16.98,14.8787403125,33.61
2021-06-29 16:26:04.710937500,-54.0,-14.0,33.0,109.05554687499999,14.95,14.878460093749998,33.61
2021-06-29 16:26:04.718750000,-54.0,-14.0,33.0,109.0559375,12.92,14.878179874999999,33.61
2021-06-29 16:26:04.726562500,-54.0,-14.0,33.0,109.056328125,10.785,14.87789965625,33.61
2021-06-29 16:26:04.734375000,-54.0,-14.0,33.0,109.05671874999999,8.65,14.8776194375,33.61
2021-06-29 16:26:04.742187500,-54.0,-14.0,33.0,109.057109375,6.455,14.877339218749999,33.61
2021-06-29 16:26:04.750000000,-54.0,-14.0,33.0,109.05749999999999,4.26,14.877059,33.61
2021-06-29 16:26:04.757812500,-54.25,-14.0,32.75,109.057890625,1.9049999999999998,14.877419312499999,33.61
2021-06-29 16:26:04.765625000,-54.5,-14.0,32.5,109.05828125,-0.45,14.877779624999999,33.61
2021-06-29 16:26:04.773437500,-54.75,-14.0,32.25,109.05867187499999,-3.2,14.878139937499999,33.61
2021-06-29 16:26:04.781250000,-55.0,-14.0,32.0,109.0590625,-5.95,14.878500249999998,33.61
2021-06-29 16:26:04.789062500,-55.0,-14.0,32.25,109.05945312499999,-9.365,14.8788605625,33.61
2021-06-29 16:26:04.796875000,-55.0,-14.0,32.5,109.05984375,-12.78,14.879220875,33.61
2021-06-29 16:26:04.804687500,-55.0,-14.0,32.75,109.060234375,-17.09,14.8795811875,33.61
2021-06-29 16:26:04.812500000,-55.0,-14.0,33.0,109.06062499999999,-21.4,14.8799415,33.61
2021-06-29 16:26:04.820312500,-54.75,-14.0,33.0,109.061015625,-26.575,14.880301812499999,33.61
2021-06-29 16:26:04.828125000,-54.5,-14.0,33.0,109.06140624999999,-31.75,14.880662124999999,33.61
2021-06-29 16:26:04.835937500,-54.25,-14.0,33.0,109.061796875,-37.445,14.881022437499999,33.61
2021-06-29 16:26:04.843750000,-54.0,-14.0,33.0,109.0621875,-43.14,14.88138275,33.61
2021-06-29 16:26:04.851562500,-54.25,-14.0,33.0,109.06257812499999,-48.615,14.8817430625,33.61
2021-06-29 16:26:04.859375000,-54.5,-14.0,33.0,109.06296875,-54.09,14.882103375,33.61
2021-06-29 16:26:04.867187500,-54.75,-14.0,33.0,109.06335937499999,-58.33,14.8824636875,33.61
2021-06-29 16:26:04.875000000,-55.0,-14.0,33.0,109.06375,-62.57,14.882824,33.61
2021-06-29 16:26:04.882812500,-55.0,-14.0,32.75,109.064140625,-64.525,14.8831843125,33.61
2021-06-29 16:26:04.890625000,-55.0,-14.0,32.5,109.06453124999999,-66.48,14.883544624999999,33.61
2021-06-29 16:26:04.898437500,-55.0,-14.0,32.25,109.064921875,-65.38,14.883904937499999,33.61
2021-06-29 16:26:04.906250000,-55.0,-14.0,32.0,109.06531249999999,-64.28,14.884265249999999,33.61
2021-06-29 16:26:04.914062500,-54.75,-14.0,32.25,109.065703125,-59.935,14.8846255625,33.61
2021-06-29 16:26:04.921875000,-54.5,-14.0,32.5,109.06609375,-55.59,14.884985875,33.61
2021-06-29 16:26:04.929687500,-54.25,-14.0,32.75,109.06648437499999,-48.515,14.8853461875,33.61
2021-06-29 16:26:04.937500000,-54.0,-14.0,33.0,109.066875,-41.44,14.8857065,33.61
2021-06-29 16:26:04.945312500,-54.0,-14.0,33.0,109.06726562499999,-32.72,14.8860668125,33.61
2021-06-29 16:26:04.953125000,-54.0,-14.0,33.0,109.06765625,-24.0,14.886427124999999,33.61
2021-06-29 16:26:04.960937500,-54.0,-14.0,33.0,109.068046875,-14.925,14.886787437499999,33.61
2021-06-29 16:26:04.968750000,-54.0,-14.0,33.0,109.06843749999999,-5.85,14.88714775,33.61
2021-06-29 16:26:04.976562500,-54.25,-14.0,32.75,109.068828125,2.465,14.8875080625,33.61
2021-06-29 16:26:04.984375000,-54.5,-14.0,32.5,109.06921874999999,10.78,14.887868375,33.61
2021-06-29 16:26:04.992187500,-54.75,-14.0,32.25,109.069609375,17.6,14.8882286875,33.61
2021-06-29 16:26:05.000000000,-55.0,-14.0,32.0,109.07,24.42,14.888589,33.61
2021-06-29 16:26:05.007812500,-55.0,-14.0,32.0,109.07046874999999,29.490000000000002,14.888468906249999,33.61
2021-06-29 16:26:05.015625000,-55.0,-14.0,32.0,109.0709375,34.56,14.8883488125,33.61
2021-06-29 16:26:05.023437500,-55.0,-14.0,32.0,109.07140625,37.88,14.88822871875,33.61
2021-06-29 16:26:05.031250000,-55.0,-14.0,32.0,109.07187499999999,41.2,14.888108625,33.61
2021-06-29 16:26:05.039062500,-54.75,-14.0,32.25,109.07234374999999,42.875,14.88798853125,33.61
2021-06-29 16:26:05.046875000,-54.5,-14.0,32.5,109.0728125,44.55,14.8878684375,33.61
2021-06-29 16:26:05.054687500,-54.25,-14.0,32.75,109.07328125,44.72,14.88774834375,33.61
2021-06-29 16:26:05.062500000,-54.0,-14.0,33.0,109.07374999999999,44.89,14.887628249999999,33.61
2021-06-29 16:26:05.070312500,-54.0,-14.0,33.0,109.07421875,43.745000000000005,14.88750815625,33.61
2021-06-29 16:26:05.078125000,-54.0,-14.0,33.0,109.0746875,42.6,14.8873880625,33.61
2021-06-29 16:26:05.085937500,-54.0,-14.0,33.0,109.07515624999999,40.46,14.887267968749999,33.61
2021-06-29 16:26:05.093750000,-54.0,-14.0,33.0,109.07562499999999,38.32,14.887147875,33.61
2021-06-29 16:26:05.101562500,-54.25,-14.0,32.75,109.07609375,35.635000000000005,14.88702778125,33.61
2021-06-29 16:26:05.109375000,-54.5,-14.0,32.5,109.0765625,32.95,14.886907687499999,33.61
2021-06-29 16:26:05.117187500,-54.75,-14.0,32.25,109.07703124999999,30.205000000000002,14.88678759375,33.61
2021-06-29 16:26:05.125000000,-55.0,-14.0,32.0,109.07749999999999,27.46,14.8866675,33.61
2021-06-29 16:26:05.132812500,-55.0,-14.0,32.0,109.07796875,24.975,14.88654740625,33.61
2021-06-29 16:26:05.140625000,-55.0,-14.0,32.0,109.07843749999999,22.49,14.8864273125,33.61
2021-06-29 16:26:05.148437500,-55.0,-14.0,32.0,109.07890624999999,20.38,14.88630721875,33.61
2021-06-29 16:26:05.156250000,-55.0,-14.0,32.0,109.079375,18.27,14.886187125,33.61
2021-06-29 16:26:05.164062500,-54.75,-14.0,32.0,109.07984375,16.445,14.88606703125,33.61
2021-06-29 16:26:05.171875000,-54.5,-14.0,32.0,109.08031249999999,14.62,14.8859469375,33.61
2021-06-29 16:26:05.179687500,-54.25,-14.0,32.0,109.08078124999999,12.915,14.88582684375,33.61
2021-06-29 16:26:05.187500000,-54.0,-14.0,32.0,109.08125,11.21,14.88570675,33.61
2021-06-29 16:26:05.195312500,-54.0,-14.0,32.25,109.08171875,9.505,14.88558665625,33.61
2021-06-29 16:26:05.203125000,-54.0,-14.0,32.5,109.08218749999999,7.8,14.8854665625,33.61
2021-06-29 16:26:05.210937500,-54.0,-14.0,32.75,109.08265625,6.0649999999999995,14.885346468749999,33.61
2021-06-29 16:26:05.218750000,-54.0,-14.0,33.0,109.083125,4.33,14.885226375,33.61
2021-06-29 16:26:05.226562500,-54.0,-14.0,33.0,109.08359374999999,2.58,14.88510628125,33.61
2021-06-29 16:26:05.234375000,-54.0,-14.0,33.0,109.08406249999999,0.83,14.8849861875,33.61
2021-06-29 16:26:05.242187500,-54.0,-14.0,33.0,109.08453125,-0.9450000000000002,14.88486609375,33.61
2021-06-29 16:26:05.250000000,-54.0,-14.0,33.0,109.085,-2.72,14.884746,33.61
2021-06-29 16:26:05.257812500,-54.25,-14.0,33.0,109.08546874999999,-4.6450000000000005,14.883625,33.61
2021-06-29 16:26:05.265625000,-54.5,-14.0,33.0,109.0859375,-6.57,14.882503999999999,33.61
2021-06-29 16:26:05.273437500,-54.75,-14.0,33.0,109.08640625,-8.875,14.881383,33.61
2021-06-29 16:26:05.281250000,-55.0,-14.0,33.0,109.08687499999999,-11.18,14.880262,33.61
2021-06-29 16:26:05.289062500,-55.0,-14.0,33.0,109.08734374999999,-14.14,14.879141,33.61
2021-06-29 16:26:05.296875000,-55.0,-14.0,33.0,109.0878125,-17.1,14.87802,33.61
2021-06-29 16:26:05.304687500,-55.0,-14.0,33.0,109.08828125,-20.995,14.876899,33.61
2021-06-29 16:26:05.312500000,-55.0,-14.0,33.0,109.08874999999999,-24.89,14.875778,33.61
2021-06-29 16:26:05.320312500,-54.75,-14.0,33.0,109.08921875,-29.855,14.874657,33.61
2021-06-29 16:26:05.328125000,-54.5,-14.0,33.0,109.0896875,-34.82,14.873536,33.61
2021-06-29 16:26:05.335937500,-54.25,-14.0,33.0,109.09015624999999,-40.68,14.872415,33.61
2021-06-29 16:26:05.343750000,-54.0,-14.0,33.0,109.09062499999999,-46.54,14.871294,33.61
2021-06-29 16:26:05.351562500,-54.0,-14.0,33.0,109.09109375,-52.71,14.870173,33.61
2021-06-29 16:26:05.359375000,-54.0,-14.0,33.0,109.0915625,-58.88,14.869052,33.61
2021-06-29 16:26:05.367187500,-54.0,-14.0,33.0,109.09203124999999,-64.34,14.867931,33.61
2021-06-29 16:26:05.375000000,-54.0,-14.0,33.0,109.0925,-69.8,14.866810000000001,33.61
2021-06-29 16:26:05.382812500,-54.25,-14.0,33.0,109.09296875,-73.295,14.865689,33.61
2021-06-29 16:26:05.390625000,-54.5,-14.0,33.0,109.0934375,-76.79,14.864568,33.61
2021-06-29 16:26:05.398437500,-54.75,-14.0,33.0,109.09390624999999,-77.195,14.863447,33.61
2021-06-29 16:26:05.406250000,-55.0,-14.0,33.0,109.094375,-77.6,14.862326,33.61
2021-06-29 16:26:05.414062500,-54.75,-14.0,33.0,109.09484375,-74.335,14.861205,33.61
2021-06-29 16:26:05.421875000,-54.5,-14.0,33.0,109.09531249999999,-71.07,14.860084,33.61
2021-06-29 16:26:05.429687500,-54.25,-14.0,33.0,109.09578124999999,-64.32499999999999,14.858963000000001,33.61
2021-06-29 16:26:05.437500000,-54.0,-14.0,33.0,109.09625,-57.58,14.857842,33.61
2021-06-29 16:26:05.445312500,-54.0,-14.0,33.0,109.09671875,-48.295,14.856721,33.61
2021-06-29 16:26:05.453125000,-54.0,-14.0,33.0,109.09718749999999,-39.01,14.8556,33.61
2021-06-29 16:26:05.460937500,-54.0,-14.0,33.0,109.09765625,-28.595,14.854479,33.61
2021-06-29 16:26:05.468750000,-54.0,-14.0,33.0,109.098125,-18.18,14.853358,33.61
2021-06-29 16:26:05.476562500,-54.25,-14.0,33.0,109.09859374999999,-8.05,14.852237,33.61
2021-06-29 16:26:05.484375000,-54.5,-14.0,33.0,109.09906249999999,2.08,14.851116000000001,33.61
2021-06-29 16:26:05.492187500,-54.75,-14.0,33.0,109.09953125,10.819999999999999,14.849995,33.61
2021-06-29 16:26:05.500000000,-55.0,-14.0,33.0,109.1,19.56,14.848874,33.61
2021-06-29 16:26:05.507812500,-54.75,-14.0,33.0,109.10046874999999,26.325000000000003,14.8495145625,33.61
2021-06-29 16:26:05.515625000,-54.5,-14.0,33.0,109.1009375,33.09,14.850155125,33.61
2021-06-29 16:26:05.523437500,-54.25,-14.0,33.0,109.10140625,37.735,14.8507956875,33.61
2021-06-29 16:26:05.531250000,-54.0,-14.0,33.0,109.10187499999999,42.38,14.85143625,33.61
2021-06-29 16:26:05.539062500,-54.0,-14.0,33.0,109.10234374999999,45.06,14.8520768125,33.61
2021-06-29 16:26:05.546875000,-54.0,-14.0,33.0,109.1028125,47.74,14.852717375000001,33.61
2021-06-29 16:26:05.554687500,-54.0,-14.0,33.0,109.10328125,48.71,14.8533579375,33.61
2021-06-29 16:26:05.562500000,-54.0,-14.0,33.0,109.10374999999999,49.68,14.8539985,33.61
2021-06-29 16:26:05.570312500,-54.25,-14.0,33.0,109.10421875,49.230000000000004,14.8546390625,33.61
2021-06-29 16:26:05.578125000,-54.5,-14.0,33.0,109.1046875,48.78,14.855279625,33.61
2021-06-29 16:26:05.585937500,-54.75,-14.0,33.0,109.10515625,47.215,14.8559201875,33.61
2021-06-29 16:26:05.593750000,-55.0,-14.0,33.0,109.10562499999999,45.65,14.85656075,33.61
2021-06-29 16:26:05.601562500,-55.0,-14.0,33.0,109.10609375,43.3,14.8572013125,33.61
2021-06-29 16:26:05.609375000,-55.0,-14.0,33.0,109.1065625,40.95,14.857841875,33.61
2021-06-29 16:26:05.617187500,-55.0,-14.0,33.0,109.10703124999999,38.175,14.858482437500001,33.61
2021-06-29 16:26:05.625000000,-55.0,-14.0,33.0,109.10749999999999,35.4,14.859123,33.61
2021-06-29 16:26:05.632812500,-55.0,-14.0,33.0,109.10796875,32.54,14.8597635625,33.61
2021-06-29 16:26:05.640625000,-55.0,-14.0,33.0,109.1084375,29.68,14.860404125,33.61
2021-06-29 16:26:05.648437500,-55.0,-14.0,33.0,109.10890624999999,26.975,14.8610446875,33.61
2021-06-29 16:26:05.656250000,-55.0,-14.0,33.0,109.109375,24.27,14.86168525,33.61
2021-06-29 16:26:05.664062500,-54.75,-14.0,33.0,109.10984375,21.835,14.8623258125,33.61
2021-06-29 16:26:05.671875000,-54.5,-14.0,33.0,109.11031249999999,19.4,14.862966375000001,33.61
2021-06-29 16:26:05.679687500,-54.25,-14.0,33.0,109.11078124999999,17.18,14.8636069375,33.61
2021-06-29 16:26:05.687500000,-54.0,-14.0,33.0,109.11125,14.96,14.864247500000001,33.61
2021-06-29 16:26:05.695312500,-54.25,-14.0,33.0,109.11171875,12.79,14.8648880625,33.61
2021-06-29 16:26:05.703125000,-54.5,-14.0,33.0,109.11218749999999,10.62,14.865528625,33.61
2021-06-29 16:26:05.710937500,-54.75,-14.0,33.0,109.11265625,8.32,14.8661691875,33.61
2021-06-29 16:26:05.718750000,-55.0,-14.0,33.0,109.113125,6.02,14.86680975,33.61
2021-06-29 16:26:05.726562500,-54.75,-14.0,33.0,109.11359374999999,3.4549999999999996,14.8674503125,33.61
2021-06-29 16:26:05.734375000,-54.5,-14.0,33.0,109.11406249999999,0.89,14.868090875,33.61
2021-06-29 16:26:05.742187500,-54.25,-14.0,33.0,109.11453125,-1.9699999999999998,14.868731437500001,33.61
2021-06-29 16:26:05.750000000,-54.0,-14.0,33.0,109.115,-4.83,14.869372,33.61
2021-06-29 16:26:05.757812500,-54.0,-14.0,33.0,109.11546874999999,-7.96,14.86905171875,33.61
2021-06-29 16:26:05.765625000,-54.0,-14.0,33.0,109.1159375,-11.09,14.868731437500001,33.61
2021-06-29 16:26:05.773437500,-54.0,-14.0,33.0,109.11640625,-14.45,14.86841115625,33.61
2021-06-29 16:26:05.781250000,-54.0,-14.0,33.0,109.116875,-17.81,14.868090875,33.61
2021-06-29 16:26:05.789062500,-54.0,-14.0,33.0,109.11734374999999,-21.465,14.86777059375,33.61
2021-06-29 16:26:05.796875000,-54.0,-14.0,33.0,109.1178125,-25.12,14.8674503125,33.61
2021-06-29 16:26:05.804687500,-54.0,-14.0,33.0,109.11828125,-29.240000000000002,14.86713003125,33.61
2021-06-29 16:26:05.812500000,-54.0,-14.0,33.0,109.11874999999999,-33.36,14.86680975,33.61
2021-06-29 16:26:05.820312500,-54.0,-14.0,33.0,109.11921875,-38.085,14.86648946875,33.61
2021-06-29 16:26:05.828125000,-54.0,-14.0,33.0,109.1196875,-42.81,14.8661691875,33.61
2021-06-29 16:26:05.835937500,-54.0,-14.0,33.0,109.12015625,-48.09,14.865848906250001,33.61
2021-06-29 16:26:05.843750000,-54.0,-14.0,33.0,109.12062499999999,-53.37,14.865528625,33.61
2021-06-29 16:26:05.851562500,-54.0,-14.0,33.0,109.12109375,-58.8,14.86520834375,33.61
2021-06-29 16:26:05.859375000,-54.0,-14.0,33.0,109.1215625,-64.23,14.8648880625,33.61
2021-06-29 16:26:05.867187500,-54.0,-14.0,33.0,109.12203124999999,-69.02000000000001,14.86456778125,33.61
2021-06-29 16:26:05.875000000,-54.0,-14.0,33.0,109.1225,-73.81,14.864247500000001,33.61
2021-06-29 16:26:05.882812500,-54.25,-14.0,33.0,109.12296875,-76.92,14.86392721875,33.61
2021-06-29 16:26:05.890625000,-54.5,-14.0,33.0,109.1234375,-80.03,14.8636069375,33.61
2021-06-29 16:26:05.898437500,-54.75,-14.0,33.0,109.12390624999999,-80.495,14.86328665625,33.61
2021-06-29 16:26:05.906250000,-55.0,-14.0,33.0,109.124375,-80.96,14.862966375000001,33.61
2021-06-29 16:26:05.914062500,-54.75,-14.0,33.0,109.12484375,-78.195,14.86264609375,33.61
2021-06-29 16:26:05.921875000,-54.5,-14.0,33.0,109.12531249999999,-75.43,14.8623258125,33.61
2021-06-29 16:26:05.929687500,-54.25,-14.0,33.0,109.12578124999999,-69.44500000000001,14.86200553125,33.61
2021-06-29 16:26:05.937500000,-54.0,-14.0,33.0,109.12625,-63.46,14.86168525,33.61
2021-06-29 16:26:05.945312500,-54.0,-14.0,33.0,109.12671875,-54.870000000000005,14.861364968750001,33.61
2021-06-29 16:26:05.953125000,-54.0,-14.0,33.0,109.12718749999999,-46.28,14.8610446875,33.61
2021-06-29 16:26:05.960937500,-54.0,-14.0,33.0,109.12765625,-36.120000000000005,14.86072440625,33.61
2021-06-29 16:26:05.968750000,-54.0,-14.0,33.0,109.128125,-25.96,14.860404125,33.61
2021-06-29 16:26:05.976562500,-54.25,-14.0,33.0,109.12859375,-15.395,14.860083843750001,33.61
2021-06-29 16:26:05.984375000,-54.5,-14.0,33.0,109.12906249999999,-4.83,14.8597635625,33.61
2021-06-29 16:26:05.992187500,-54.75,-14.0,33.0,109.12953125,5.095000000000001,14.85944328125,33.61
2021-06-29 16:26:06.000000000,-55.0,-14.0,33.0,109.13,15.02,14.859123,33.61
2021-06-29 16:26:06.007812500,-55.0,-14.0,33.0,109.130703125,23.545,14.861004625,33.610625
2021-06-29 16:26:06.015625000,-55.0,-14.0,33.0,109.13140625,32.07,14.86288625,33.61125
2021-06-29 16:26:06.023437500,-55.0,-14.0,33.0,109.132109375,38.735,14.864767875,33.611875
2021-06-29 16:26:06.031250000,-55.0,-14.0,33.0,109.1328125,45.4,14.866649500000001,33.6125
2021-06-29 16:26:06.039062500,-54.75,-14.0,33.0,109.133515625,50.025,14.868531125,33.613125
2021-06-29 16:26:06.046875000,-54.5,-14.0,33.0,109.13421875,54.65,14.87041275,33.61375
2021-06-29 16:26:06.054687500,-54.25,-14.0,33.0,109.13492187499999,57.285,14.872294375000001,33.614375
2021-06-29 16:26:06.062500000,-54.0,-14.0,33.0,109.13562499999999,59.92,14.874176,33.615
2021-06-29 16:26:06.070312500,-54.0,-14.0,33.0,109.13632812499999,60.785,14.876057625,33.615625
2021-06-29 16:26:06.078125000,-54.0,-14.0,33.0,109.13703124999999,61.65,14.87793925,33.61625
2021-06-29 16:26:06.085937500,-54.0,-14.0,33.0,109.137734375,61.125,14.879820875,33.616875
2021-06-29 16:26:06.093750000,-54.0,-14.0,33.0,109.1384375,60.6,14.8817025,33.6175
2021-06-29 16:26:06.101562500,-54.0,-14.0,33.0,109.139140625,59.11,14.883584125,33.618125
2021-06-29 16:26:06.109375000,-54.0,-14.0,33.0,109.13984375,57.62,14.88546575,33.61875
2021-06-29 16:26:06.117187500,-54.0,-14.0,33.0,109.140546875,55.584999999999994,14.887347375000001,33.619375
2021-06-29 16:26:06.125000000,-54.0,-14.0,33.0,109.14125,53.55,14.889229,33.620000000000005
2021-06-29 16:26:06.132812500,-54.0,-14.0,33.0,109.141953125,51.275,14.891110625,33.620625000000004
2021-06-29 16:26:06.140625000,-54.0,-14.0,33.0,109.14265625,49.0,14.89299225,33.62125
2021-06-29 16:26:06.148437500,-54.0,-14.0,33.0,109.143359375,46.685,14.894873875,33.621875
2021-06-29 16:26:06.156250000,-54.0,-14.0,33.0,109.14406249999999,44.37,14.896755500000001,33.6225
2021-06-29 16:26:06.164062500,-54.0,-14.0,33.0,109.14476562499999,42.075,14.898637125,33.623125
2021-06-29 16:26:06.171875000,-54.0,-14.0,33.0,109.14546874999999,39.78,14.90051875,33.62375
2021-06-29 16:26:06.179687500,-54.0,-14.0,33.0,109.146171875,37.515,14.902400375000001,33.624375
2021-06-29 16:26:06.187500000,-54.0,-14.0,33.0,109.146875,35.25,14.904282,33.625
2021-06-29 16:26:06.195312500,-54.0,-14.0,33.0,109.147578125,32.980000000000004,14.906163625,33.625625
2021-06-29 16:26:06.203125000,-54.0,-14.0,33.0,109.14828125,30.71,14.90804525,33.62625
2021-06-29 16:26:06.210937500,-54.0,-14.0,33.0,109.148984375,28.42,14.909926875,33.626875000000005
2021-06-29 16:26:06.218750000,-54.0,-14.0,33.0,109.1496875,26.13,14.9118085,33.627500000000005
2021-06-29 16:26:06.226562500,-54.25,-14.0,33.0,109.150390625,23.78,14.913690125,33.628125000000004
2021-06-29 16:26:06.234375000,-54.5,-14.0,33.0,109.15109375,21.43,14.91557175,33.628750000000004
2021-06-29 16:26:06.242187500,-54.75,-14.0,33.0,109.151796875,18.96,14.917453375000001,33.629375
2021-06-29 16:26:06.250000000,-55.0,-14.0,33.0,109.1525,16.49,14.919335,33.63
2021-06-29 16:26:06.257812500,-55.0,-14.0,33.0,109.15320312499999,13.815,14.92177709375,33.63
2021-06-29 16:26:06.265625000,-55.0,-14.0,33.0,109.15390624999999,11.14,14.9242191875,33.63
2021-06-29 16:26:06.273437500,-55.0,-14.0,33.0,109.15460937499999,8.165000000000001,14.92666128125,33.63
2021-06-29 16:26:06.281250000,-55.0,-14.0,33.0,109.1553125,5.19,14.929103375,33.63
2021-06-29 16:26:06.289062500,-54.75,-14.0,33.0,109.156015625,1.8000000000000003,14.93154546875,33.63
2021-06-29 16:26:06.296875000,-54.5,-14.0,33.0,109.15671875,-1.59,14.9339875625,33.63
2021-06-29 16:26:06.304687500,-54.25,-14.0,33.0,109.157421875,-5.52,14.93642965625,33.63
2021-06-29 16:26:06.312500000,-54.0,-14.0,33.0,109.158125,-9.45,14.93887175,33.63
2021-06-29 16:26:06.320312500,-54.0,-14.0,33.0,109.158828125,-14.07,14.94131384375,33.63
2021-06-29 16:26:06.328125000,-54.0,-14.0,33.0,109.15953125,-18.69,14.9437559375,33.63
2021-06-29 16:26:06.335937500,-54.0,-14.0,33.0,109.160234375,-24.085,14.94619803125,33.63
2021-06-29 16:26:06.343750000,-54.0,-14.0,33.0,109.1609375,-29.48,14.948640125,33.63
2021-06-29 16:26:06.351562500,-54.25,-14.0,33.0,109.16164062499999,-35.535000000000004,14.95108221875,33.63
2021-06-29 16:26:06.359375000,-54.5,-14.0,33.0,109.16234374999999,-41.59,14.9535243125,33.63
2021-06-29 16:26:06.367187500,-54.75,-14.0,33.0,109.16304687499999,-47.835,14.95596640625,33.63
2021-06-29 16:26:06.375000000,-55.0,-14.0,33.0,109.16375,-54.08,14.9584085,33.63
2021-06-29 16:26:06.382812500,-54.75,-14.0,33.0,109.164453125,-59.67,14.96085059375,33.63
2021-06-29 16:26:06.390625000,-54.5,-14.0,33.0,109.16515625,-65.26,14.9632926875,33.63
2021-06-29 16:26:06.398437500,-54.25,-14.0,33.0,109.165859375,-69.075,14.96573478125,33.63
2021-06-29 16:26:06.406250000,-54.0,-14.0,33.0,109.1665625,-72.89,14.968176875,33.63
2021-06-29 16:26:06.414062500,-54.0,-14.0,33.0,109.167265625,-73.89,14.97061896875,33.63
2021-06-29 16:26:06.421875000,-54.0,-14.0,33.0,109.16796875,-74.89,14.9730610625,33.63
2021-06-29 16:26:06.429687500,-54.0,-14.0,33.0,109.168671875,-72.445,14.97550315625,33.63
2021-06-29 16:26:06.437500000,-54.0,-14.0,33.0,109.169375,-70.0,14.97794525,33.63
2021-06-29 16:26:06.445312500,-54.25,-14.0,33.0,109.170078125,-64.15,14.98038734375,33.63
2021-06-29 16:26:06.453125000,-54.5,-14.0,33.0,109.17078124999999,-58.3,14.9828294375,33.63
2021-06-29 16:26:06.460937500,-54.75,-14.0,33.0,109.17148437499999,-49.75,14.98527153125,33.63
2021-06-29 16:26:06.468750000,-55.0,-14.0,33.0,109.17218749999999,-41.2,14.987713625,33.63
2021-06-29 16:26:06.476562500,-55.0,-14.0,33.0,109.172890625,-31.07,14.99015571875,33.63
2021-06-29 16:26:06.484375000,-55.0,-14.0,33.0,109.17359375,-20.94,14.9925978125,33.63
2021-06-29 16:26:06.492187500,-55.0,-14.0,33.0,109.174296875,-10.440000000000001,14.99503990625,33.63
2021-06-29 16:26:06.500000000,-55.0,-14.0,33.0,109.175,0.06,14.997482,33.63
2021-06-29 16:26:06.507812500,-54.75,-14.0,33.0,109.175703125,9.97,14.99912340625,33.63
2021-06-29 16:26:06.515625000,-54.5,-14.0,33.0,109.17640625,19.88,15.0007648125,33.63
2021-06-29 16:26:06.523437500,-54.25,-14.0,33.0,109.177109375,28.58,15.00240621875,33.63
2021-06-29 16:26:06.531250000,-54.0,-14.0,33.0,109.1778125,37.28,15.004047625,33.63
2021-06-29 16:26:06.539062500,-54.0,-14.0,33.0,109.178515625,44.405,15.00568903125,33.63
2021-06-29 16:26:06.546875000,-54.0,-14.0,33.0,109.17921875,51.53,15.0073304375,33.63
2021-06-29 16:26:06.554687500,-54.0,-14.0,33.0,109.17992187499999,56.885000000000005,15.00897184375,33.63
2021-06-29 16:26:06.562500000,-54.0,-14.0,33.0,109.18062499999999,62.24,15.01061325,33.63
2021-06-29 16:26:06.570312500,-54.0,-14.0,32.75,109.181328125,65.685,15.01225465625,33.63
2021-06-29 16:26:06.578125000,-54.0,-14.0,32.5,109.18203125,69.13,15.0138960625,33.63
2021-06-29 16:26:06.585937500,-54.0,-14.0,32.25,109.182734375,70.645,15.01553746875,33.63
2021-06-29 16:26:06.593750000,-54.0,-14.0,32.0,109.1834375,72.16,15.017178875,33.63
2021-06-29 16:26:06.601562500,-54.0,-14.0,32.25,109.184140625,71.925,15.018820281250001,33.63
2021-06-29 16:26:06.609375000,-54.0,-14.0,32.5,109.18484375,71.69,15.020461687500001,33.63
2021-06-29 16:26:06.617187500,-54.0,-14.0,32.75,109.185546875,70.08500000000001,15.022103093750001,33.63
2021-06-29 16:26:06.625000000,-54.0,-14.0,33.0,109.18625,68.48,15.0237445,33.63
2021-06-29 16:26:06.632812500,-54.0,-14.0,33.0,109.186953125,66.025,15.02538590625,33.63
2021-06-29 16:26:06.640625000,-54.0,-14.0,33.0,109.18765625,63.57,15.0270273125,33.63
2021-06-29 16:26:06.648437500,-54.0,-14.0,33.0,109.188359375,60.775,15.02866871875,33.63
2021-06-29 16:26:06.656250000,-54.0,-14.0,33.0,109.18906249999999,57.98,15.030310125,33.63
2021-06-29 16:26:06.664062500,-54.25,-14.0,33.0,109.18976562499999,55.19,15.03195153125,33.63
2021-06-29 16:26:06.671875000,-54.5,-14.0,33.0,109.19046875,52.4,15.0335929375,33.63
2021-06-29 16:26:06.679687500,-54.75,-14.0,33.0,109.191171875,49.75,15.03523434375,33.63
2021-06-29 16:26:06.687500000,-55.0,-14.0,33.0,109.191875,47.1,15.03687575,33.63
2021-06-29 16:26:06.695312500,-55.0,-14.0,33.0,109.192578125,44.59,15.03851715625,33.63
2021-06-29 16:26:06.703125000,-55.0,-14.0,33.0,109.19328125,42.08,15.0401585625,33.63
2021-06-29 16:26:06.710937500,-55.0,-14.0,33.0,109.193984375,39.655,15.04179996875,33.63
2021-06-29 16:26:06.718750000,-55.0,-14.0,33.0,109.1946875,37.23,15.043441375,33.63
2021-06-29 16:26:06.726562500,-54.75,-14.0,33.0,109.195390625,34.86,15.04508278125,33.63
2021-06-29 16:26:06.734375000,-54.5,-14.0,33.0,109.19609375,32.49,15.0467241875,33.63
2021-06-29 16:26:06.742187500,-54.25,-14.0,33.0,109.196796875,30.185000000000002,15.04836559375,33.63
2021-06-29 16:26:06.750000000,-54.0,-14.0,33.0,109.19749999999999,27.88,15.050007,33.63
2021-06-29 16:26:06.757812500,-54.0,-14.0,33.0,109.19820312499999,25.634999999999998,15.051007875000002,33.63
2021-06-29 16:26:06.765625000,-54.0,-14.0,33.0,109.19890625,23.39,15.05200875,33.63
2021-06-29 16:26:06.773437500,-54.0,-14.0,33.0,109.199609375,21.145,15.053009625000001,33.63
2021-06-29 16:26:06.781250000,-54.0,-14.0,33.0,109.2003125,18.9,15.0540105,33.63
2021-06-29 16:26:06.789062500,-54.0,-14.0,33.0,109.201015625,16.515,15.055011375000001,33.63
2021-06-29 16:26:06.796875000,-54.0,-14.0,33.0,109.20171875,14.13,15.05601225,33.63
2021-06-29 16:26:06.804687500,-54.0,-14.0,33.0,109.202421875,11.435,15.057013125000001,33.63
2021-06-29 16:26:06.812500000,-54.0,-14.0,33.0,109.203125,8.74,15.058014,33.63
2021-06-29 16:26:06.820312500,-54.0,-14.0,33.0,109.203828125,5.535,15.059014875,33.63
2021-06-29 16:26:06.828125000,-54.0,-14.0,33.0,109.20453125,2.33,15.06001575,33.63
2021-06-29 16:26:06.835937500,-54.0,-14.0,33.0,109.205234375,-1.5499999999999998,15.061016625,33.63
2021-06-29 16:26:06.843750000,-54.0,-14.0,33.0,109.2059375,-5.43,15.0620175,33.63
2021-06-29 16:26:06.851562500,-54.0,-14.0,33.0,109.20664062499999,-10.129999999999999,15.063018375,33.63
2021-06-29 16:26:06.859375000,-54.0,-14.0,33.0,109.20734374999999,-14.83,15.06401925,33.63
2021-06-29 16:26:06.867187500,-54.0,-14.0,33.0,109.208046875,-20.365,15.065020125,33.63
2021-06-29 16:26:06.875000000,-54.0,-14.0,33.0,109.20875,-25.9,15.066021,33.63
2021-06-29 16:26:06.882812500,-54.0,-14.0,33.0,109.209453125,-32.065,15.067021875,33.63
2021-06-29 16:26:06.890625000,-54.0,-14.0,33.0,109.21015625,-38.23,15.06802275,33.63
2021-06-29 16:26:06.898437500,-54.0,-14.0,33.0,109.210859375,-44.474999999999994,15.069023625,33.63
2021-06-29 16:26:06.906250000,-54.0,-14.0,33.0,109.2115625,-50.72,15.0700245,33.63
2021-06-29 16:26:06.914062500,-54.25,-14.0,33.0,109.212265625,-56.165,15.071025375,33.63
2021-06-29 16:26:06.921875000,-54.5,-14.0,33.0,109.21296875,-61.61,15.07202625,33.63
2021-06-29 16:26:06.929687500,-54.75,-14.0,33.0,109.213671875,-65.16,15.073027125,33.63
2021-06-29 16:26:06.937500000,-55.0,-14.0,33.0,109.214375,-68.71,15.074028,33.63
2021-06-29 16:26:06.945312500,-54.75,-14.0,33.0,109.215078125,-69.405,15.075028875,33.63
2021-06-29 16:26:06.953125000,-54.5,-14.0,33.0,109.21578124999999,-70.1,15.07602975,33.63
2021-06-29 16:26:06.960937500,-54.25,-14.0,33.0,109.216484375,-67.41499999999999,15.077030624999999,33.63
2021-06-29 16:26:06.968750000,-54.0,-14.0,33.0,109.2171875,-64.73,15.0780315,33.63
2021-06-29 16:26:06.976562500,-54.0,-14.0,33.0,109.217890625,-58.78,15.079032374999999,33.63
2021-06-29 16:26:06.984375000,-54.0,-14.0,33.0,109.21859375,-52.83,15.08003325,33.63
2021-06-29 16:26:06.992187500,-54.0,-14.0,33.0,109.219296875,-44.355000000000004,15.081034124999999,33.63
2021-06-29 16:26:07.000000000,-54.0,-14.0,33.0,109.22,-35.88,15.082035,33.63
2021-06-29 16:26:07.007812500,-54.0,-14.0,33.0,109.220859375,-25.985,15.0813944375,33.63
2021-06-29 16:26:07.015625000,-54.0,-14.0,33.0,109.22171875,-16.09,15.080753875,33.63
2021-06-29 16:26:07.023437500,-54.0,-14.0,33.0,109.222578125,-5.875,15.0801133125,33.63
2021-06-29 16:26:07.031250000,-54.0,-14.0,33.0,109.2234375,4.34,15.079472749999999,33.63
2021-06-29 16:26:07.039062500,-54.25,-14.0,33.0,109.224296875,14.0,15.0788321875,33.63
2021-06-29 16:26:07.046875000,-54.5,-14.0,33.0,109.22515625,23.66,15.078191624999999,33.63
2021-06-29 16:26:07.054687500,-54.75,-14.0,33.0,109.226015625,32.24,15.0775510625,33.63
2021-06-29 16:26:07.062500000,-55.0,-14.0,33.0,109.22687499999999,40.82,15.0769105,33.63
2021-06-29 16:26:07.070312500,-55.0,-14.0,33.0,109.227734375,48.010000000000005,15.0762699375,33.63
2021-06-29 16:26:07.078125000,-55.0,-14.0,33.0,109.22859375,55.2,15.075629375,33.63
2021-06-29 16:26:07.085937500,-55.0,-14.0,33.0,109.22945312499999,60.765,15.0749888125,33.63
2021-06-29 16:26:07.093750000,-55.0,-14.0,33.0,109.2303125,66.33,15.07434825,33.63
2021-06-29 16:26:07.101562500,-54.75,-14.0,33.0,109.231171875,70.03999999999999,15.073707687499999,33.63
2021-06-29 16:26:07.109375000,-54.5,-14.0,33.0,109.23203125,73.75,15.073067125,33.63
2021-06-29 16:26:07.117187500,-54.25,-14.0,33.0,109.232890625,75.455,15.072426562499999,33.63
2021-06-29 16:26:07.125000000,-54.0,-14.0,33.0,109.23375,77.16,15.071786,33.63
2021-06-29 16:26:07.132812500,-54.25,-14.0,32.75,109.234609375,76.94,15.0711454375,33.63
2021-06-29 16:26:07.140625000,-54.5,-14.0,32.5,109.23546875,76.72,15.070504875,33.63
2021-06-29 16:26:07.148437500,-54.75,-14.0,32.25,109.236328125,74.955,15.0698643125,33.63
2021-06-29 16:26:07.156250000,-55.0,-14.0,32.0,109.2371875,73.19,15.069223749999999,33.63
2021-06-29 16:26:07.164062500,-55.0,-14.0,32.0,109.238046875,70.55,15.0685831875,33.63
2021-06-29 16:26:07.171875000,-55.0,-14.0,32.0,109.23890625,67.91,15.067942624999999,33.63
2021-06-29 16:26:07.179687500,-55.0,-14.0,32.0,109.239765625,65.09,15.0673020625,33.63
2021-06-29 16:26:07.187500000,-55.0,-14.0,32.0,109.240625,62.27,15.066661499999999,33.63
2021-06-29 16:26:07.195312500,-54.75,-14.0,32.25,109.241484375,59.8,15.0660209375,33.63
2021-06-29 16:26:07.203125000,-54.5,-14.0,32.5,109.24234375,57.33,15.065380375,33.63
2021-06-29 16:26:07.210937500,-54.25,-14.0,32.75,109.243203125,55.385,15.0647398125,33.63
2021-06-29 16:26:07.218750000,-54.0,-14.0,33.0,109.2440625,53.44,15.06409925,33.63
2021-06-29 16:26:07.226562500,-54.0,-14.0,33.0,109.244921875,51.86,15.063458687499999,33.63
2021-06-29 16:26:07.234375000,-54.0,-14.0,33.0,109.24578125,50.28,15.062818125,33.63
2021-06-29 16:26:07.242187500,-54.0,-14.0,33.0,109.246640625,48.705,15.062177562499999,33.63
2021-06-29 16:26:07.250000000,-54.0,-14.0,33.0,109.2475,47.13,15.061537,33.63
2021-06-29 16:26:07.257812500,-54.0,-14.0,33.0,109.24835937499999,45.21,15.06069628125,33.63
2021-06-29 16:26:07.265625000,-54.0,-14.0,33.0,109.24921875,43.29,15.0598555625,33.63
2021-06-29 16:26:07.273437500,-54.0,-14.0,33.0,109.250078125,40.864999999999995,15.059014843749999,33.63
2021-06-29 16:26:07.281250000,-54.0,-14.0,33.0,109.25093749999999,38.44,15.058174124999999,33.63
2021-06-29 16:26:07.289062500,-54.0,-14.0,33.0,109.251796875,35.59,15.057333406249999,33.63
2021-06-29 16:26:07.296875000,-54.0,-14.0,33.0,109.25265625,32.74,15.0564926875,33.63
2021-06-29 16:26:07.304687500,-54.0,-14.0,33.0,109.253515625,29.725,15.05565196875,33.63
2021-06-29 16:26:07.312500000,-54.0,-14.0,33.0,109.254375,26.71,15.05481125,33.63
2021-06-29 16:26:07.320312500,-54.25,-14.0,33.0,109.255234375,23.795,15.05397053125,33.63
2021-06-29 16:26:07.328125000,-54.5,-14.0,33.0,109.25609375,20.88,15.0531298125,33.63
2021-06-29 16:26:07.335937500,-54.75,-14.0,33.0,109.256953125,18.205,15.05228909375,33.63
2021-06-29 16:26:07.343750000,-55.0,-14.0,33.0,109.2578125,15.53,15.051448375,33.63
2021-06-29 16:26:07.351562500,-54.75,-14.0,33.0,109.258671875,13.035,15.05060765625,33.63
2021-06-29 16:26:07.359375000,-54.5,-14.0,33.0,109.25953125,10.54,15.0497669375,33.63
2021-06-29 16:26:07.367187500,-54.25,-14.0,33.0,109.260390625,7.93,15.04892621875,33.63
2021-06-29 16:26:07.375000000,-54.0,-14.0,33.0,109.26125,5.32,15.0480855,33.63
2021-06-29 16:26:07.382812500,-54.0,-14.0,33.0,109.262109375,2.22,15.04724478125,33.63
2021-06-29 16:26:07.390625000,-54.0,-14.0,33.0,109.26296875,-0.88,15.0464040625,33.63
2021-06-29 16:26:07.398437500,-54.0,-14.0,33.0,109.263828125,-4.82,15.04556334375,33.63
2021-06-29 16:26:07.406250000,-54.0,-14.0,33.0,109.2646875,-8.76,15.044722625,33.63
2021-06-29 16:26:07.414062500,-54.0,-14.0,33.0,109.265546875,-13.715,15.04388190625,33.63
2021-06-29 16:26:07.421875000,-54.0,-14.0,33.0,109.26640625,-18.67,15.0430411875,33.63
2021-06-29 16:26:07.429687500,-54.0,-14.0,33.0,109.267265625,-24.48,15.04220046875,33.63
2021-06-29 16:26:07.437500000,-54.0,-14.0,33.0,109.268125,-30.29,15.04135975,33.63
2021-06-29 16:26:07.445312500,-54.0,-14.0,33.0,109.268984375,-36.455,15.04051903125,33.63
2021-06-29 16:26:07.453125000,-54.0,-14.0,33.0,109.26984374999999,-42.62,15.0396783125,33.63
2021-06-29 16:26:07.460937500,-54.0,-14.0,33.0,109.270703125,-48.295,15.038837593750001,33.63
2021-06-29 16:26:07.468750000,-54.0,-14.0,33.0,109.2715625,-53.97,15.037996875000001,33.63
2021-06-29 16:26:07.476562500,-54.0,-14.0,33.0,109.27242187499999,-58.144999999999996,15.037156156250001,33.63
2021-06-29 16:26:07.484375000,-54.0,-14.0,33.0,109.27328125,-62.32,15.0363154375,33.63
2021-06-29 16:26:07.492187500,-54.0,-14.0,33.0,109.274140625,-64.07,15.03547471875,33.63
2021-06-29 16:26:07.500000000,-54.0,-14.0,33.0,109.275,-65.82,15.034634,33.63
2021-06-29 16:26:07.507812500,-54.0,-14.0,33.0,109.275859375,-64.585,15.0333929375,33.63
2021-06-29 16:26:07.515625000,-54.0,-14.0,33.0,109.27671875,-63.35,15.032151875,33.63
2021-06-29 16:26:07.523437500,-54.0,-14.0,33.0,109.277578125,-59.09,15.0309108125,33.63
2021-06-29 16:26:07.531250000,-54.0,-14.0,33.0,109.2784375,-54.83,15.02966975,33.63
2021-06-29 16:26:07.539062500,-54.25,-14.0,33.0,109.279296875,-48.05,15.0284286875,33.63
2021-06-29 16:26:07.546875000,-54.5,-14.0,33.0,109.28015625,-41.27,15.027187625,33.63
2021-06-29 16:26:07.554687500,-54.75,-14.0,33.0,109.281015625,-32.885000000000005,15.0259465625,33.63
2021-06-29 16:26:07.562500000,-55.0,-14.0,33.0,109.281875,-24.5,15.0247055,33.63
2021-06-29 16:26:07.570312500,-55.0,-14.0,33.0,109.282734375,-15.5,15.023464437500001,33.63
2021-06-29 16:26:07.578125000,-55.0,-14.0,33.0,109.28359375,-6.5,15.022223375000001,33.63
2021-06-29 16:26:07.585937500,-55.0,-14.0,33.0,109.284453125,2.254999999999999,15.020982312500001,33.63
2021-06-29 16:26:07.593750000,-55.0,-14.0,33.0,109.2853125,11.01,15.019741250000001,33.63
2021-06-29 16:26:07.601562500,-54.75,-14.0,33.0,109.286171875,18.93,15.0185001875,33.63
2021-06-29 16:26:07.609375000,-54.5,-14.0,33.0,109.28703125,26.85,15.017259125,33.63
2021-06-29 16:26:07.617187500,-54.25,-14.0,33.0,109.287890625,33.57,15.0160180625,33.63
2021-06-29 16:26:07.625000000,-54.0,-14.0,33.0,109.28875,40.29,15.014777,33.63
2021-06-29 16:26:07.632812500,-54.0,-14.0,33.0,109.289609375,45.565,15.0135359375,33.63
2021-06-29 16:26:07.640625000,-54.0,-14.0,33.0,109.29046875,50.84,15.012294875,33.63
2021-06-29 16:26:07.648437500,-54.0,-14.0,33.0,109.29132812499999,54.455,15.0110538125,33.63
2021-06-29 16:26:07.656250000,-54.0,-14.0,33.0,109.2921875,58.07,15.00981275,33.63
2021-06-29 16:26:07.664062500,-54.25,-14.0,32.75,109.293046875,59.864999999999995,15.0085716875,33.63
2021-06-29 16:26:07.671875000,-54.5,-14.0,32.5,109.29390624999999,61.66,15.007330625,33.63
2021-06-29 16:26:07.679687500,-54.75,-14.0,32.25,109.294765625,61.655,15.0060895625,33.63
2021-06-29 16:26:07.687500000,-55.0,-14.0,32.0,109.295625,61.65,15.004848500000001,33.63
2021-06-29 16:26:07.695312500,-55.0,-14.0,32.0,109.29648437499999,60.129999999999995,15.003607437500001,33.63
2021-06-29 16:26:07.703125000,-55.0,-14.0,32.0,109.29734375,58.61,15.002366375000001,33.63
2021-06-29 16:26:07.710937500,-55.0,-14.0,32.0,109.298203125,56.135,15.001125312500001,33.63
2021-06-29 16:26:07.718750000,-55.0,-14.0,32.0,109.2990625,53.66,14.999884250000001,33.63
2021-06-29 16:26:07.726562500,-54.75,-14.0,32.25,109.299921875,50.94,14.9986431875,33.63
2021-06-29 16:26:07.734375000,-54.5,-14.0,32.5,109.30078125,48.22,14.997402125,33.63
2021-06-29 16:26:07.742187500,-54.25,-14.0,32.75,109.301640625,45.849999999999994,14.9961610625,33.63
2021-06-29 16:26:07.750000000,-54.0,-14.0,33.0,109.3025,43.48,14.99492,33.63
2021-06-29 16:26:07.757812500,-54.0,-14.0,33.0,109.303359375,41.754999999999995,14.99443959375,33.63
2021-06-29 16:26:07.765625000,-54.0,-14.0,33.0,109.30421875,40.03,14.9939591875,33.63
2021-06-29 16:26:07.773437500,-54.0,-14.0,33.0,109.305078125,38.875,14.993478781250001,33.63
2021-06-29 16:26:07.781250000,-54.0,-14.0,33.0,109.3059375,37.72,14.992998375,33.63
2021-06-29 16:26:07.789062500,-54.0,-14.0,33.0,109.306796875,36.754999999999995,14.99251796875,33.63
2021-06-29 16:26:07.796875000,-54.0,-14.0,33.0,109.30765625,35.79,14.9920375625,33.63
2021-06-29 16:26:07.804687500,-54.0,-14.0,33.0,109.308515625,34.565,14.99155715625,33.63
2021-06-29 16:26:07.812500000,-54.0,-14.0,33.0,109.309375,33.34,14.991076750000001,33.63
2021-06-29 16:26:07.820312500,-54.25,-14.0,33.0,109.310234375,31.535000000000004,14.990596343750001,33.63
2021-06-29 16:26:07.828125000,-54.5,-14.0,33.0,109.31109375,29.73,14.9901159375,33.63
2021-06-29 16:26:07.835937500,-54.75,-14.0,33.0,109.311953125,27.33,14.98963553125,33.63
2021-06-29 16:26:07.843750000,-55.0,-14.0,33.0,109.31281249999999,24.93,14.989155125,33.63
2021-06-29 16:26:07.851562500,-55.0,-14.0,33.0,109.313671875,22.17,14.98867471875,33.63
2021-06-29 16:26:07.859375000,-55.0,-14.0,33.0,109.31453125,19.41,14.988194312500001,33.63
2021-06-29 16:26:07.867187500,-55.0,-14.0,33.0,109.31539062499999,16.64,14.98771390625,33.63
2021-06-29 16:26:07.875000000,-55.0,-14.0,33.0,109.31625,13.87,14.9872335,33.63
2021-06-29 16:26:07.882812500,-54.75,-14.0,33.0,109.317109375,11.364999999999998,14.98675309375,33.63
2021-06-29 16:26:07.890625000,-54.5,-14.0,33.0,109.31796874999999,8.86,14.9862726875,33.63
2021-06-29 16:26:07.898437500,-54.25,-14.0,33.0,109.318828125,6.675,14.985792281250001,33.63
2021-06-29 16:26:07.906250000,-54.0,-14.0,33.0,109.3196875,4.49,14.985311875,33.63
2021-06-29 16:26:07.914062500,-54.25,-14.0,33.0,109.320546875,2.46,14.98483146875,33.63
2021-06-29 16:26:07.921875000,-54.5,-14.0,33.0,109.32140625,0.43,14.9843510625,33.63
2021-06-29 16:26:07.929687500,-54.75,-14.0,33.0,109.322265625,-1.765,14.98387065625,33.63
2021-06-29 16:26:07.937500000,-55.0,-14.0,33.0,109.323125,-3.96,14.98339025,33.63
2021-06-29 16:26:07.945312500,-54.75,-14.0,33.0,109.323984375,-6.615,14.98290984375,33.63
2021-06-29 16:26:07.953125000,-54.5,-14.0,33.0,109.32484375,-9.27,14.9824294375,33.63
2021-06-29 16:26:07.960937500,-54.25,-14.0,33.0,109.325703125,-12.605,14.98194903125,33.63
2021-06-29 16:26:07.968750000,-54.0,-14.0,33.0,109.3265625,-15.94,14.981468625,33.63
2021-06-29 16:26:07.976562500,-54.0,-14.0,33.0,109.327421875,-19.995,14.98098821875,33.63
2021-06-29 16:26:07.984375000,-54.0,-14.0,33.0,109.32828125,-24.05,14.9805078125,33.63
2021-06-29 16:26:07.992187500,-54.0,-14.0,33.0,109.329140625,-28.695,14.98002740625,33.63
2021-06-29 16:26:08.000000000,-54.0,-14.0,33.0,109.33,-33.34,14.979547,33.63
2021-06-29 16:26:08.007812500,-54.0,-14.0,33.0,109.33109375,-38.230000000000004,14.97894646875,33.629375
2021-06-29 16:26:08.015625000,-54.0,-14.0,33.0,109.3321875,-43.12,14.9783459375,33.628750000000004
2021-06-29 16:26:08.023437500,-54.0,-14.0,33.0,109.33328125,-47.67,14.97774540625,33.628125000000004
2021-06-29 16:26:08.031250000,-54.0,-14.0,33.0,109.334375,-52.22,14.977144875,33.627500000000005
2021-06-29 16:26:08.039062500,-54.25,-14.0,32.75,109.33546875,-55.665,14.97654434375,33.626875000000005
2021-06-29 16:26:08.046875000,-54.5,-14.0,32.5,109.3365625,-59.11,14.9759438125,33.62625
2021-06-29 16:26:08.054687500,-54.75,-14.0,32.25,109.33765625,-60.64,14.97534328125,33.625625
2021-06-29 16:26:08.062500000,-55.0,-14.0,32.0,109.33875,-62.17,14.97474275,33.625
2021-06-29 16:26:08.070312500,-54.75,-14.0,32.0,109.33984375,-61.2,14.97414221875,33.624375
2021-06-29 16:26:08.078125000,-54.5,-14.0,32.0,109.3409375,-60.23,14.973541687500001,33.62375
2021-06-29 16:26:08.085937500,-54.25,-14.0,32.0,109.34203125,-56.599999999999994,14.97294115625,33.623125
2021-06-29 16:26:08.093750000,-54.0,-14.0,32.0,109.343125,-52.97,14.972340625000001,33.6225
2021-06-29 16:26:08.101562500,-54.25,-14.0,32.25,109.34421875,-47.08,14.97174009375,33.621875
2021-06-29 16:26:08.109375000,-54.5,-14.0,32.5,109.34531249999999,-41.19,14.971139562500001,33.62125
2021-06-29 16:26:08.117187500,-54.75,-14.0,32.75,109.34640625,-33.87,14.97053903125,33.620625000000004
2021-06-29 16:26:08.125000000,-55.0,-14.0,33.0,109.3475,-26.55,14.969938500000001,33.620000000000005
2021-06-29 16:26:08.132812500,-54.75,-14.0,33.0,109.34859374999999,-18.845,14.96933796875,33.619375
2021-06-29 16:26:08.140625000,-54.5,-14.0,33.0,109.3496875,-11.14,14.9687374375,33.61875
2021-06-29 16:26:08.148437500,-54.25,-14.0,33.0,109.35078125,-3.9850000000000003,14.96813690625,33.618125
2021-06-29 16:26:08.156250000,-54.0,-14.0,33.0,109.35187499999999,3.17,14.967536375,33.6175
2021-06-29 16:26:08.164062500,-54.25,-14.0,33.0,109.35296875,9.105,14.96693584375,33.616875
2021-06-29 16:26:08.171875000,-54.5,-14.0,33.0,109.3540625,15.04,14.9663353125,33.61625
2021-06-29 16:26:08.179687500,-54.75,-14.0,33.0,109.35515625,19.43,14.965734781250001,33.615625
2021-06-29 16:26:08.187500000,-55.0,-14.0,33.0,109.35625,23.82,14.96513425,33.615
2021-06-29 16:26:08.195312500,-55.0,-14.0,33.0,109.35734375,26.615000000000002,14.964533718750001,33.614375
2021-06-29 16:26:08.203125000,-55.0,-14.0,33.0,109.3584375,29.41,14.9639331875,33.61375
2021-06-29 16:26:08.210937500,-55.0,-14.0,33.0,109.35953125,30.695,14.963332656250001,33.613125
2021-06-29 16:26:08.218750000,-55.0,-14.0,33.0,109.360625,31.98,14.962732125,33.6125
2021-06-29 16:26:08.226562500,-54.75,-14.0,33.0,109.36171875,31.965,14.962131593750001,33.611875
2021-06-29 16:26:08.234375000,-54.5,-14.0,33.0,109.3628125,31.95,14.9615310625,33.61125
2021-06-29 16:26:08.242187500,-54.25,-14.0,33.0,109.36390625,30.939999999999998,14.960930531250002,33.610625
2021-06-29 16:26:08.250000000,-54.0,-14.0,33.0,109.365,29.93,14.96033,33.61
2021-06-29 16:26:08.257812500,-54.0,-14.0,33.0,109.36609375,28.3,14.960370062500001,33.61
2021-06-29 16:26:08.265625000,-54.0,-14.0,33.0,109.3671875,26.67,14.960410125000001,33.61
2021-06-29 16:26:08.273437500,-54.0,-14.0,33.0,109.36828125,24.835,14.960450187500001,33.61
2021-06-29 16:26:08.281250000,-54.0,-14.0,33.0,109.369375,23.0,14.960490250000001,33.61
2021-06-29 16:26:08.289062500,-54.25,-14.0,32.75,109.37046875,21.325,14.960530312500001,33.61
2021-06-29 16:26:08.296875000,-54.5,-14.0,32.5,109.3715625,19.65,14.960570375000001,33.61
2021-06-29 16:26:08.304687500,-54.75,-14.0,32.25,109.37265624999999,18.345,14.960610437500002,33.61
2021-06-29 16:26:08.312500000,-55.0,-14.0,32.0,109.37375,17.04,14.9606505,33.61
2021-06-29 16:26:08.320312500,-55.0,-14.0,32.25,109.37484375,16.105,14.9606905625,33.61
2021-06-29 16:26:08.328125000,-55.0,-14.0,32.5,109.37593749999999,15.17,14.960730625,33.61
2021-06-29 16:26:08.335937500,-55.0,-14.0,32.75,109.37703125,14.455,14.9607706875,33.61
2021-06-29 16:26:08.343750000,-55.0,-14.0,33.0,109.378125,13.74,14.96081075,33.61
2021-06-29 16:26:08.351562500,-54.75,-14.0,33.0,109.37921874999999,12.985,14.9608508125,33.61
2021-06-29 16:26:08.359375000,-54.5,-14.0,33.0,109.3803125,12.23,14.960890875,33.61
2021-06-29 16:26:08.367187500,-54.25,-14.0,33.0,109.38140625,11.23,14.9609309375,33.61
2021-06-29 16:26:08.375000000,-54.0,-14.0,33.0,109.3825,10.23,14.960971,33.61
2021-06-29 16:26:08.382812500,-54.0,-14.0,33.0,109.38359375,8.91,14.9610110625,33.61
2021-06-29 16:26:08.390625000,-54.0,-14.0,33.0,109.3846875,7.59,14.961051125000001,33.61
2021-06-29 16:26:08.398437500,-54.0,-14.0,33.0,109.38578125,6.05,14.961091187500001,33.61
2021-06-29 16:26:08.406250000,-54.0,-14.0,33.0,109.386875,4.51,14.961131250000001,33.61
2021-06-29 16:26:08.414062500,-54.0,-14.0,33.0,109.38796875,2.955,14.961171312500001,33.61
2021-06-29 16:26:08.421875000,-54.0,-14.0,33.0,109.3890625,1.4,14.961211375000001,33.61
2021-06-29 16:26:08.429687500,-54.0,-14.0,33.0,109.39015625,0.029999999999999805,14.961251437500001,33.61
2021-06-29 16:26:08.437500000,-54.0,-14.0,33.0,109.39125,-1.34,14.961291500000002,33.61
2021-06-29 16:26:08.445312500,-54.0,-14.0,33.0,109.39234375,-2.455,14.9613315625,33.61
2021-06-29 16:26:08.453125000,-54.0,-14.0,33.0,109.3934375,-3.57,14.961371625,33.61
2021-06-29 16:26:08.460937500,-54.0,-14.0,33.0,109.39453125,-4.61,14.9614116875,33.61
2021-06-29 16:26:08.468750000,-54.0,-14.0,33.0,109.395625,-5.65,14.96145175,33.61
2021-06-29 16:26:08.476562500,-54.25,-14.0,33.0,109.39671875,-7.0,14.9614918125,33.61
2021-06-29 16:26:08.484375000,-54.5,-14.0,33.0,109.3978125,-8.35,14.961531875,33.61
2021-06-29 16:26:08.492187500,-54.75,-14.0,33.0,109.39890625,-10.465,14.9615719375,33.61
2021-06-29 16:26:08.500000000,-55.0,-14.0,33.0,109.4,-12.58,14.961612,33.61
2021-06-29 16:26:08.507812500,-54.75,-14.0,33.0,109.40109375,-15.760000000000002,14.962132437500001,33.61
2021-06-29 16:26:08.515625000,-54.5,-14.0,33.0,109.4021875,-18.94,14.962652875,33.61
2021-06-29 16:26:08.523437500,-54.25,-14.0,33.0,109.40328124999999,-23.130000000000003,14.9631733125,33.61
2021-06-29 16:26:08.531250000,-54.0,-14.0,33.0,109.404375,-27.32,14.963693750000001,33.61
2021-06-29 16:26:08.539062500,-54.0,-14.0,33.0,109.40546875,-32.045,14.9642141875,33.61
2021-06-29 16:26:08.546875000,-54.0,-14.0,33.0,109.40656249999999,-36.77,14.964734625,33.61
2021-06-29 16:26:08.554687500,-54.0,-14.0,33.0,109.40765625,-41.17,14.9652550625,33.61
2021-06-29 16:26:08.562500000,-54.0,-14.0,33.0,109.40875,-45.57,14.9657755,33.61
2021-06-29 16:26:08.570312500,-54.25,-14.0,33.0,109.40984375,-48.68,14.9662959375,33.61
2021-06-29 16:26:08.578125000,-54.5,-14.0,33.0,109.4109375,-51.79,14.966816375,33.61
2021-06-29 16:26:08.585937500,-54.75,-14.0,33.0,109.41203125,-52.8,14.967336812500001,33.61
2021-06-29 16:26:08.593750000,-55.0,-14.0,33.0,109.413125,-53.81,14.96785725,33.61
2021-06-29 16:26:08.601562500,-55.0,-14.0,32.75,109.41421875,-52.34,14.9683776875,33.61
2021-06-29 16:26:08.609375000,-55.0,-14.0,32.5,109.4153125,-50.87,14.968898125,33.61
2021-06-29 16:26:08.617187500,-55.0,-14.0,32.25,109.41640625,-47.04,14.9694185625,33.61
2021-06-29 16:26:08.625000000,-55.0,-14.0,32.0,109.4175,-43.21,14.969939,33.61
2021-06-29 16:26:08.632812500,-54.75,-14.0,32.25,109.41859375,-37.6,14.9704594375,33.61
2021-06-29 16:26:08.640625000,-54.5,-14.0,32.5,109.4196875,-31.99,14.970979875,33.61
2021-06-29 16:26:08.648437500,-54.25,-14.0,32.75,109.42078125,-25.375,14.9715003125,33.61
2021-06-29 16:26:08.656250000,-54.0,-14.0,33.0,109.421875,-18.76,14.97202075,33.61
2021-06-29 16:26:08.664062500,-54.0,-14.0,33.0,109.42296875,-11.920000000000002,14.9725411875,33.61
2021-06-29 16:26:08.671875000,-54.0,-14.0,33.0,109.4240625,-5.08,14.973061625,33.61
2021-06-29 16:26:08.679687500,-54.0,-14.0,33.0,109.42515625,1.3949999999999996,14.9735820625,33.61
2021-06-29 16:26:08.687500000,-54.0,-14.0,33.0,109.42625,7.87,14.9741025,33.61
2021-06-29 16:26:08.695312500,-54.0,-14.0,33.0,109.42734375,13.599999999999998,14.9746229375,33.61
2021-06-29 16:26:08.703125000,-54.0,-14.0,33.0,109.4284375,19.33,14.975143375,33.61
2021-06-29 16:26:08.710937500,-54.0,-14.0,33.0,109.42953125,24.08,14.9756638125,33.61
2021-06-29 16:26:08.718750000,-54.0,-14.0,33.0,109.43062499999999,28.83,14.97618425,33.61
2021-06-29 16:26:08.726562500,-54.0,-14.0,33.0,109.43171875,32.45,14.9767046875,33.61
2021-06-29 16:26:08.734375000,-54.0,-14.0,33.0,109.4328125,36.07,14.977225125,33.61
2021-06-29 16:26:08.742187500,-54.0,-14.0,33.0,109.43390624999999,38.405,14.977745562499999,33.61
2021-06-29 16:26:08.750000000,-54.0,-14.0,33.0,109.435,40.74,14.978266,33.61
2021-06-29 16:26:08.757812500,-54.0,-14.0,33.0,109.43609375,41.705,14.97750534375,33.61
2021-06-29 16:26:08.765625000,-54.0,-14.0,33.0,109.4371875,42.67,14.9767446875,33.61
2021-06-29 16:26:08.773437500,-54.0,-14.0,33.0,109.43828125,42.245000000000005,14.97598403125,33.61
2021-06-29 16:26:08.781250000,-54.0,-14.0,33.0,109.439375,41.82,14.975223374999999,33.61
2021-06-29 16:26:08.789062500,-54.0,-14.0,33.0,109.44046875,40.129999999999995,14.974462718749999,33.61
2021-06-29 16:26:08.796875000,-54.0,-14.0,33.0,109.4415625,38.44,14.9737020625,33.61
2021-06-29 16:26:08.804687500,-54.0,-14.0,33.0,109.44265625,35.730000000000004,14.97294140625,33.61
2021-06-29 16:26:08.812500000,-54.0,-14.0,33.0,109.44375,33.02,14.97218075,33.61
2021-06-29 16:26:08.820312500,-54.0,-14.0,33.0,109.44484375,29.635,14.97142009375,33.61
2021-06-29 16:26:08.828125000,-54.0,-14.0,33.0,109.4459375,26.25,14.9706594375,33.61
2021-06-29 16:26:08.835937500,-54.0,-14.0,33.0,109.44703125,22.625,14.96989878125,33.61
2021-06-29 16:26:08.843750000,-54.0,-14.0,33.0,109.448125,19.0,14.969138125,33.61
2021-06-29 16:26:08.851562500,-54.0,-14.0,33.0,109.44921875,15.625,14.968377468749999,33.61
2021-06-29 16:26:08.859375000,-54.0,-14.0,33.0,109.4503125,12.25,14.9676168125,33.61
2021-06-29 16:26:08.867187500,-54.0,-14.0,33.0,109.45140625,9.615,14.96685615625,33.61
2021-06-29 16:26:08.875000000,-54.0,-14.0,33.0,109.4525,6.98,14.9660955,33.61
2021-06-29 16:26:08.882812500,-54.25,-14.0,33.0,109.45359375,5.41,14.96533484375,33.61
2021-06-29 16:26:08.890625000,-54.5,-14.0,33.0,109.4546875,3.84,14.9645741875,33.61
2021-06-29 16:26:08.898437500,-54.75,-14.0,33.0,109.45578125,3.34,14.96381353125,33.61
2021-06-29 16:26:08.906250000,-55.0,-14.0,33.0,109.456875,2.84,14.963052874999999,33.61
2021-06-29 16:26:08.914062500,-54.75,-14.0,33.0,109.45796874999999,3.035,14.96229221875,33.61
2021-06-29 16:26:08.921875000,-54.5,-14.0,33.0,109.4590625,3.23,14.9615315625,33.61
2021-06-29 16:26:08.929687500,-54.25,-14.0,33.0,109.46015625,3.3899999999999997,14.96077090625,33.61
2021-06-29 16:26:08.937500000,-54.0,-14.0,33.0,109.46124999999999,3.55,14.96001025,33.61
2021-06-29 16:26:08.945312500,-54.0,-14.0,33.0,109.46234375,2.86,14.95924959375,33.61
2021-06-29 16:26:08.953125000,-54.0,-14.0,33.0,109.4634375,2.17,14.9584889375,33.61
2021-06-29 16:26:08.960937500,-54.0,-14.0,33.0,109.46453125,-0.004999999999999893,14.95772828125,33.61
2021-06-29 16:26:08.968750000,-54.0,-14.0,33.0,109.465625,-2.18,14.956967625,33.61
2021-06-29 16:26:08.976562500,-54.0,-14.0,33.0,109.46671875,-6.045,14.95620696875,33.61
2021-06-29 16:26:08.984375000,-54.0,-14.0,33.0,109.4678125,-9.91,14.9554463125,33.61
2021-06-29 16:26:08.992187500,-54.0,-14.0,33.0,109.46890625,-15.26,14.95468565625,33.61
2021-06-29 16:26:09.000000000,-54.0,-14.0,33.0,109.47,-20.61,14.953925,33.61
2021-06-29 16:26:09.007812500,-54.25,-14.0,33.0,109.470859375,-26.96,14.95376484375,33.61
2021-06-29 16:26:09.015625000,-54.5,-14.0,33.0,109.47171875,-33.31,14.9536046875,33.61
2021-06-29 16:26:09.023437500,-54.75,-14.0,33.0,109.472578125,-40.16,14.95344453125,33.61
2021-06-29 16:26:09.031250000,-55.0,-14.0,33.0,109.4734375,-47.01,14.953284374999999,33.61
2021-06-29 16:26:09.039062500,-54.75,-14.0,33.0,109.474296875,-53.97,14.95312421875,33.61
2021-06-29 16:26:09.046875000,-54.5,-14.0,33.0,109.47515625,-60.93,14.9529640625,33.61
2021-06-29 16:26:09.054687500,-54.25,-14.0,33.0,109.476015625,-67.68,14.95280390625,33.61
2021-06-29 16:26:09.062500000,-54.0,-14.0,33.0,109.47687499999999,-74.43,14.95264375,33.61
2021-06-29 16:26:09.070312500,-54.0,-14.0,33.0,109.477734375,-80.57,14.95248359375,33.61
2021-06-29 16:26:09.078125000,-54.0,-14.0,33.0,109.47859375,-86.71,14.9523234375,33.61
2021-06-29 16:26:09.085937500,-54.0,-14.0,33.0,109.47945312499999,-91.62,14.95216328125,33.61
2021-06-29 16:26:09.093750000,-54.0,-14.0,33.0,109.4803125,-96.53,14.952003125000001,33.61
2021-06-29 16:26:09.101562500,-54.0,-14.0,33.0,109.481171875,-99.39,14.95184296875,33.61
2021-06-29 16:26:09.109375000,-54.0,-14.0,33.0,109.48203125,-102.25,14.9516828125,33.61
2021-06-29 16:26:09.117187500,-54.0,-14.0,33.0,109.482890625,-102.31,14.95152265625,33.61
2021-06-29 16:26:09.125000000,-54.0,-14.0,33.0,109.48375,-102.37,14.9513625,33.61
2021-06-29 16:26:09.132812500,-54.0,-14.0,32.75,109.484609375,-99.255,14.95120234375,33.61
2021-06-29 16:26:09.140625000,-54.0,-14.0,32.5,109.48546875,-96.14,14.9510421875,33.61
2021-06-29 16:26:09.148437500,-54.0,-14.0,32.25,109.486328125,-90.075,14.95088203125,33.61
2021-06-29 16:26:09.156250000,-54.0,-14.0,32.0,109.4871875,-84.01,14.950721875,33.61
2021-06-29 16:26:09.164062500,-54.0,-14.0,32.25,109.488046875,-75.82,14.95056171875,33.61
2021-06-29 16:26:09.171875000,-54.0,-14.0,32.5,109.48890625,-67.63,14.9504015625,33.61
2021-06-29 16:26:09.179687500,-54.0,-14.0,32.75,109.489765625,-58.474999999999994,14.95024140625,33.61
2021-06-29 16:26:09.187500000,-54.0,-14.0,33.0,109.490625,-49.32,14.95008125,33.61
2021-06-29 16:26:09.195312500,-54.0,-14.0,33.0,109.491484375,-40.34,14.94992109375,33.61
2021-06-29 16:26:09.203125000,-54.0,-14.0,33.0,109.49234375,-31.36,14.9497609375,33.61
