TimeStamp,empatica.acc.x,empatica.acc.y,empatica.acc.z,empatica.hr,empatica.bvp,empatica.eda,empatica.temp
2021-06-28 11:15:29.945312500,-45.25,16.75,42.25,95.782734375,47.44,0.19132434375,32.87
2021-06-28 11:15:29.953125000,-46.5,16.5,41.5,95.78234375,41.76,0.1914444375,32.87
2021-06-28 11:15:29.960937500,-47.75,16.25,40.75,95.781953125,35.14,0.19156453125,32.87
2021-06-28 11:15:29.968750000,-49.0,16.0,40.0,95.7815625,28.52,0.191684625,32.87
2021-06-28 11:15:29.976562500,-50.25,15.75,37.25,95.781171875,21.345,0.19180471875,32.87
2021-06-28 11:15:29.984375000,-51.5,15.5,34.5,95.78078125,14.17,0.1919248125,32.87
2021-06-28 11:15:29.992187500,-52.75,15.25,31.75,95.780390625,6.915,0.19204490625,32.87
2021-06-28 11:15:30.000000000,-54.0,15.0,29.0,95.78,-0.34,0.192165,32.87
2021-06-28 11:15:30.007812500,-56.5,15.0,28.0,95.77921875,-7.27,0.19192478125,32.86875
2021-06-28 11:15:30.015625000,-59.0,15.0,27.0,95.7784375,-14.2,0.1916845625,32.8675
2021-06-28 11:15:30.023437500,-61.5,15.0,26.0,95.77765625,-20.695,0.19144434375,32.86625
2021-06-28 11:15:30.031250000,-64.0,15.0,25.0,95.776875,-27.19,0.191204125,32.864999999999995
2021-06-28 11:15:30.039062500,-65.0,14.75,26.5,95.77609375,-33.45,0.19096390625,32.863749999999996
2021-06-28 11:15:30.046875000,-66.0,14.5,28.0,95.7753125,-39.71,0.19072368750000002,32.8625
2021-06-28 11:15:30.054687500,-67.0,14.25,29.5,95.77453125,-46.155,0.19048346875,32.86125
2021-06-28 11:15:30.062500000,-68.0,14.0,31.0,95.77375,-52.6,0.19024325,32.86
2021-06-28 11:15:30.070312500,-66.75,13.0,32.25,95.77296875,-59.595,0.19000303125,32.85875
2021-06-28 11:15:30.078125000,-65.5,12.0,33.5,95.7721875,-66.59,0.1897628125,32.857499999999995
2021-06-28 11:15:30.085937500,-64.25,11.0,34.75,95.77140625,-74.25,0.18952259375,32.856249999999996
2021-06-28 11:15:30.093750000,-63.0,10.0,36.0,95.770625,-81.91,0.189282375,32.855
2021-06-28 11:15:30.101562500,-57.75,10.25,39.0,95.76984375,-89.985,0.18904215625,32.85375
2021-06-28 11:15:30.109375000,-52.5,10.5,42.0,95.7690625,-98.06,0.18880193750000002,32.8525
2021-06-28 11:15:30.117187500,-47.25,10.75,45.0,95.76828125,-106.08,0.18856171875,32.85125
2021-06-28 11:15:30.125000000,-42.0,11.0,48.0,95.7675,-114.1,0.1883215,32.849999999999994
2021-06-28 11:15:30.132812500,-43.0,11.5,46.0,95.76671875,-121.545,0.18808128125,32.848749999999995
2021-06-28 11:15:30.140625000,-44.0,12.0,44.0,95.7659375,-128.99,0.1878410625,32.8475
2021-06-28 11:15:30.148437500,-45.0,12.5,42.0,95.76515625,-135.505,0.18760084375,32.84625
2021-06-28 11:15:30.156250000,-46.0,13.0,40.0,95.764375,-142.02,0.187360625,32.845
2021-06-28 11:15:30.164062500,-46.5,13.25,40.0,95.76359375,-147.47500000000002,0.18712040625,32.84375
2021-06-28 11:15:30.171875000,-47.0,13.5,40.0,95.7628125,-152.93,0.18688018750000002,32.8425
2021-06-28 11:15:30.179687500,-47.5,13.75,40.0,95.76203125,-157.35000000000002,0.18663996875,32.841249999999995
2021-06-28 11:15:30.187500000,-48.0,14.0,40.0,95.76125,-161.77,0.18639975,32.839999999999996
2021-06-28 11:15:30.195312500,-48.0,14.25,40.0,95.76046875,-165.195,0.18615953125,32.83875
2021-06-28 11:15:30.203125000,-48.0,14.5,40.0,95.7596875,-168.62,0.1859193125,32.8375
2021-06-28 11:15:30.210937500,-48.0,14.75,40.0,95.75890625,-171.04500000000002,0.18567909375,32.83625
2021-06-28 11:15:30.218750000,-48.0,15.0,40.0,95.758125,-173.47,0.185438875,32.835
2021-06-28 11:15:30.226562500,-48.5,14.75,39.75,95.75734375,-174.885,0.18519865625,32.833749999999995
2021-06-28 11:15:30.234375000,-49.0,14.5,39.5,95.7565625,-176.3,0.18495843750000002,32.832499999999996
2021-06-28 11:15:30.242187500,-49.5,14.25,39.25,95.75578125,-176.79000000000002,0.18471821875,32.83125
2021-06-28 11:15:30.250000000,-50.0,14.0,39.0,95.755,-177.28,0.184478,32.83
2021-06-28 11:15:30.257812500,-50.25,14.0,39.0,95.75421875,-177.095,0.1843979375,32.83
2021-06-28 11:15:30.265625000,-50.5,14.0,39.0,95.7534375,-176.91,0.184317875,32.83
2021-06-28 11:15:30.273437500,-50.75,14.0,39.0,95.75265625,-176.365,0.18423781250000001,32.83
2021-06-28 11:15:30.281250000,-51.0,14.0,39.0,95.751875,-175.82,0.18415775,32.83
2021-06-28 11:15:30.289062500,-50.5,14.0,39.0,95.75109375000001,-175.1,0.1840776875,32.83
2021-06-28 11:15:30.296875000,-50.0,14.0,39.0,95.7503125,-174.38,0.183997625,32.83
2021-06-28 11:15:30.304687500,-49.5,14.0,39.0,95.74953125,-173.365,0.1839175625,32.83
2021-06-28 11:15:30.312500000,-49.0,14.0,39.0,95.74875,-172.35,0.1838375,32.83
2021-06-28 11:15:30.320312500,-49.25,14.0,39.25,95.74796875,-170.64,0.1837574375,32.83
2021-06-28 11:15:30.328125000,-49.5,14.0,39.5,95.74718750000001,-168.93,0.183677375,32.83
2021-06-28 11:15:30.335937500,-49.75,14.0,39.75,95.74640625,-165.97500000000002,0.1835973125,32.83
2021-06-28 11:15:30.343750000,-50.0,14.0,40.0,95.745625,-163.02,0.18351725,32.83
2021-06-28 11:15:30.351562500,-50.0,14.0,40.0,95.74484375,-158.49,0.1834371875,32.83
2021-06-28 11:15:30.359375000,-50.0,14.0,40.0,95.7440625,-153.96,0.183357125,32.83
2021-06-28 11:15:30.367187500,-50.0,14.0,40.0,95.74328125000001,-147.94,0.1832770625,32.83
2021-06-28 11:15:30.375000000,-50.0,14.0,40.0,95.7425,-141.92,0.183197,32.83
2021-06-28 11:15:30.382812500,-49.75,14.25,39.75,95.74171875,-134.95,0.1831169375,32.83
2021-06-28 11:15:30.390625000,-49.5,14.5,39.5,95.7409375,-127.98,0.183036875,32.83
2021-06-28 11:15:30.398437500,-49.25,14.75,39.25,95.74015625,-120.83000000000001,0.1829568125,32.83
2021-06-28 11:15:30.406250000,-49.0,15.0,39.0,95.73937500000001,-113.68,0.18287675,32.83
2021-06-28 11:15:30.414062500,-49.25,14.75,39.25,95.73859375,-106.98,0.1827966875,32.83
2021-06-28 11:15:30.421875000,-49.5,14.5,39.5,95.7378125,-100.28,0.182716625,32.83
2021-06-28 11:15:30.429687500,-49.75,14.25,39.75,95.73703125,-94.315,0.1826365625,32.83
2021-06-28 11:15:30.437500000,-50.0,14.0,40.0,95.73625,-88.35,0.1825565,32.83
2021-06-28 11:15:30.445312500,-49.75,14.0,39.75,95.73546875000001,-83.0,0.1824764375,32.83
2021-06-28 11:15:30.453125000,-49.5,14.0,39.5,95.7346875,-77.65,0.182396375,32.83
2021-06-28 11:15:30.460937500,-49.25,14.0,39.25,95.73390625,-72.63,0.1823163125,32.83
2021-06-28 11:15:30.468750000,-49.0,14.0,39.0,95.733125,-67.61,0.18223625,32.83
2021-06-28 11:15:30.476562500,-49.25,14.0,39.25,95.73234375,-62.69,0.18215618749999998,32.83
2021-06-28 11:15:30.484375000,-49.5,14.0,39.5,95.73156250000001,-57.77,0.182076125,32.83
2021-06-28 11:15:30.492187500,-49.75,14.0,39.75,95.73078125,-52.96,0.1819960625,32.83
2021-06-28 11:15:30.500000000,-50.0,14.0,40.0,95.73,-48.15,0.181916,32.83
2021-06-28 11:15:30.507812500,-49.75,14.25,39.75,95.72921875,-43.605000000000004,0.18187596875,32.83
2021-06-28 11:15:30.515625000,-49.5,14.5,39.5,95.7284375,-39.06,0.1818359375,32.83
2021-06-28 11:15:30.523437500,-49.25,14.75,39.25,95.72765625000001,-34.965,0.18179590625,32.83
2021-06-28 11:15:30.531250000,-49.0,15.0,39.0,95.726875,-30.87,0.18175587499999998,32.83
2021-06-28 11:15:30.539062500,-49.0,14.75,39.25,95.72609375,-27.295,0.18171584375,32.83
2021-06-28 11:15:30.546875000,-49.0,14.5,39.5,95.7253125,-23.72,0.1816758125,32.83
2021-06-28 11:15:30.554687500,-49.0,14.25,39.75,95.72453125,-20.655,0.18163578125,32.83
2021-06-28 11:15:30.562500000,-49.0,14.0,40.0,95.72375000000001,-17.59,0.18159575,32.83
2021-06-28 11:15:30.570312500,-49.5,14.0,40.0,95.72296875,-15.11,0.18155571874999998,32.83
2021-06-28 11:15:30.578125000,-50.0,14.0,40.0,95.7221875,-12.63,0.1815156875,32.83
2021-06-28 11:15:30.585937500,-50.5,14.0,40.0,95.72140625,-11.010000000000002,0.18147565625,32.83
2021-06-28 11:15:30.593750000,-51.0,14.0,40.0,95.720625,-9.39,0.181435625,32.83
2021-06-28 11:15:30.601562500,-50.5,14.0,39.75,95.71984375000001,-9.085,0.18139559375,32.83
2021-06-28 11:15:30.609375000,-50.0,14.0,39.5,95.7190625,-8.78,0.18135556249999998,32.83
2021-06-28 11:15:30.617187500,-49.5,14.0,39.25,95.71828125,-10.17,0.18131553125,32.83
2021-06-28 11:15:30.625000000,-49.0,14.0,39.0,95.7175,-11.56,0.18127549999999998,32.83
2021-06-28 11:15:30.632812500,-49.25,14.0,39.0,95.71671875,-14.655000000000001,0.18123546875,32.83
2021-06-28 11:15:30.640625000,-49.5,14.0,39.0,95.71593750000001,-17.75,0.1811954375,32.83
2021-06-28 11:15:30.648437500,-49.75,14.0,39.0,95.71515625,-22.009999999999998,0.18115540624999998,32.83
2021-06-28 11:15:30.656250000,-50.0,14.0,39.0,95.714375,-26.27,0.181115375,32.83
2021-06-28 11:15:30.664062500,-50.0,14.0,39.25,95.71359375,-30.714999999999996,0.18107534374999998,32.83
2021-06-28 11:15:30.671875000,-50.0,14.0,39.5,95.7128125,-35.16,0.1810353125,32.83
2021-06-28 11:15:30.679687500,-50.0,14.0,39.75,95.71203125000001,-38.739999999999995,0.18099528125,32.83
2021-06-28 11:15:30.687500000,-50.0,14.0,40.0,95.71125,-42.32,0.18095524999999998,32.83
2021-06-28 11:15:30.695312500,-50.0,14.0,39.75,95.71046875,-44.285,0.18091521875,32.83
2021-06-28 11:15:30.703125000,-50.0,14.0,39.5,95.7096875,-46.25,0.18087518749999998,32.83
2021-06-28 11:15:30.710937500,-50.0,14.0,39.25,95.70890625,-46.42,0.18083515625,32.83
2021-06-28 11:15:30.718750000,-50.0,14.0,39.0,95.70812500000001,-46.59,0.180795125,32.83
2021-06-28 11:15:30.726562500,-49.75,14.25,39.25,95.70734375,-45.260000000000005,0.18075509374999998,32.83
2021-06-28 11:15:30.734375000,-49.5,14.5,39.5,95.7065625,-43.93,0.1807150625,32.83
2021-06-28 11:15:30.742187500,-49.25,14.75,39.75,95.70578125,-41.64,0.18067503124999998,32.83
2021-06-28 11:15:30.750000000,-49.0,15.0,40.0,95.70500000000001,-39.35,0.180635,32.83
2021-06-28 11:15:30.757812500,-49.25,14.75,39.75,95.70421875000001,-36.575,0.180635,32.83
2021-06-28 11:15:30.765625000,-49.5,14.5,39.5,95.7034375,-33.8,0.180635,32.83
2021-06-28 11:15:30.773437500,-49.75,14.25,39.25,95.70265625,-30.869999999999997,0.180635,32.83
2021-06-28 11:15:30.781250000,-50.0,14.0,39.0,95.701875,-27.94,0.180635,32.83
2021-06-28 11:15:30.789062500,-50.0,14.0,39.0,95.70109375000001,-25.125,0.180635,32.83
2021-06-28 11:15:30.796875000,-50.0,14.0,39.0,95.70031250000001,-22.31,0.180635,32.83
2021-06-28 11:15:30.804687500,-50.0,14.0,39.0,95.69953125,-19.945,0.180635,32.83
2021-06-28 11:15:30.812500000,-50.0,14.0,39.0,95.69875,-17.58,0.180635,32.83
2021-06-28 11:15:30.820312500,-49.75,14.25,39.25,95.69796875,-16.04,0.180635,32.83
2021-06-28 11:15:30.828125000,-49.5,14.5,39.5,95.69718750000001,-14.5,0.180635,32.83
2021-06-28 11:15:30.835937500,-49.25,14.75,39.75,95.69640625000001,-14.085,0.180635,32.83
2021-06-28 11:15:30.843750000,-49.0,15.0,40.0,95.695625,-13.67,0.180635,32.83
2021-06-28 11:15:30.851562500,-49.25,14.75,40.0,95.69484375,-14.34,0.180635,32.83
2021-06-28 11:15:30.859375000,-49.5,14.5,40.0,95.6940625,-15.01,0.180635,32.83
2021-06-28 11:15:30.867187500,-49.75,14.25,40.0,95.69328125000001,-16.355,0.180635,32.83
2021-06-28 11:15:30.875000000,-50.0,14.0,40.0,95.69250000000001,-17.7,0.180635,32.83
2021-06-28 11:15:30.882812500,-49.75,14.0,40.0,95.69171875,-19.060000000000002,0.180635,32.83
2021-06-28 11:15:30.890625000,-49.5,14.0,40.0,95.6909375,-20.42,0.180635,32.83
2021-06-28 11:15:30.898437500,-49.25,14.0,40.0,95.69015625,-21.215000000000003,0.180635,32.83
2021-06-28 11:15:30.906250000,-49.0,14.0,40.0,95.68937500000001,-22.01,0.180635,32.83
2021-06-28 11:15:30.914062500,-49.25,14.0,39.75,95.68859375000001,-21.985,0.180635,32.83
2021-06-28 11:15:30.921875000,-49.5,14.0,39.5,95.6878125,-21.96,0.180635,32.83
2021-06-28 11:15:30.929687500,-49.75,14.0,39.25,95.68703125,-21.28,0.180635,32.83
2021-06-28 11:15:30.937500000,-50.0,14.0,39.0,95.68625,-20.6,0.180635,32.83
2021-06-28 11:15:30.945312500,-50.0,14.0,39.0,95.68546875000001,-19.64,0.180635,32.83
2021-06-28 11:15:30.953125000,-50.0,14.0,39.0,95.68468750000001,-18.68,0.180635,32.83
2021-06-28 11:15:30.960937500,-50.0,14.0,39.0,95.68390625,-17.755,0.180635,32.83
2021-06-28 11:15:30.968750000,-50.0,14.0,39.0,95.683125,-16.83,0.180635,32.83
2021-06-28 11:15:30.976562500,-50.0,14.0,39.25,95.68234375,-15.985,0.180635,32.83
2021-06-28 11:15:30.984375000,-50.0,14.0,39.5,95.68156250000001,-15.14,0.180635,32.83
2021-06-28 11:15:30.992187500,-50.0,14.0,39.75,95.68078125000001,-14.185,0.180635,32.83
2021-06-28 11:15:31.000000000,-50.0,14.0,40.0,95.68,-13.23,0.180635,32.83
2021-06-28 11:15:31.007812500,-49.75,14.25,39.75,95.67937500000001,-11.955,0.18067503124999998,32.8303125
2021-06-28 11:15:31.015625000,-49.5,14.5,39.5,95.67875000000001,-10.68,0.1807150625,32.830625
2021-06-28 11:15:31.023437500,-49.25,14.75,39.25,95.67812500000001,-9.075,0.18075509374999998,32.8309375
2021-06-28 11:15:31.031250000,-49.0,15.0,39.0,95.67750000000001,-7.47,0.180795125,32.83125
2021-06-28 11:15:31.039062500,-49.25,14.75,39.0,95.67687500000001,-5.91,0.18083515625,32.8315625
2021-06-28 11:15:31.046875000,-49.5,14.5,39.0,95.67625000000001,-4.35,0.18087518749999998,32.831875
2021-06-28 11:15:31.054687500,-49.75,14.25,39.0,95.67562500000001,-3.505,0.18091521875,32.832187499999996
2021-06-28 11:15:31.062500000,-50.0,14.0,39.0,95.67500000000001,-2.66,0.18095524999999998,32.832499999999996
2021-06-28 11:15:31.070312500,-49.75,14.0,39.0,95.67437500000001,-3.35,0.18099528125,32.8328125
2021-06-28 11:15:31.078125000,-49.5,14.0,39.0,95.67375000000001,-4.04,0.1810353125,32.833125
2021-06-28 11:15:31.085937500,-49.25,14.0,39.0,95.673125,-6.965,0.18107534374999998,32.8334375
2021-06-28 11:15:31.093750000,-49.0,14.0,39.0,95.6725,-9.89,0.181115375,32.83375
2021-06-28 11:15:31.101562500,-49.0,14.0,39.0,95.671875,-15.465,0.18115540624999998,32.8340625
2021-06-28 11:15:31.109375000,-49.0,14.0,39.0,95.67125,-21.04,0.1811954375,32.834375
2021-06-28 11:15:31.117187500,-49.0,14.0,39.0,95.670625,-29.25,0.18123546875,32.8346875
2021-06-28 11:15:31.125000000,-49.0,14.0,39.0,95.67,-37.46,0.18127549999999998,32.835
2021-06-28 11:15:31.132812500,-49.0,14.0,39.0,95.669375,-47.875,0.18131553125,32.8353125
2021-06-28 11:15:31.140625000,-49.0,14.0,39.0,95.66875,-58.29,0.18135556249999998,32.835625
2021-06-28 11:15:31.148437500,-49.0,14.0,39.0,95.668125,-70.075,0.18139559375,32.8359375
2021-06-28 11:15:31.156250000,-49.0,14.0,39.0,95.6675,-81.86,0.181435625,32.83625
2021-06-28 11:15:31.164062500,-49.25,14.0,39.0,95.666875,-93.87,0.18147565625,32.8365625
2021-06-28 11:15:31.171875000,-49.5,14.0,39.0,95.66625,-105.88,0.1815156875,32.836875
2021-06-28 11:15:31.179687500,-49.75,14.0,39.0,95.665625,-116.785,0.18155571874999998,32.8371875
2021-06-28 11:15:31.187500000,-50.0,14.0,39.0,95.665,-127.69,0.18159575,32.837500000000006
2021-06-28 11:15:31.195312500,-50.0,14.25,39.25,95.664375,-136.14499999999998,0.18163578125,32.837812500000005
2021-06-28 11:15:31.203125000,-50.0,14.5,39.5,95.66375000000001,-144.6,0.1816758125,32.838125000000005
2021-06-28 11:15:31.210937500,-50.0,14.75,39.75,95.66312500000001,-149.5,0.18171584375,32.838437500000005
2021-06-28 11:15:31.218750000,-50.0,15.0,40.0,95.66250000000001,-154.4,0.18175587499999998,32.838750000000005
2021-06-28 11:15:31.226562500,-49.75,14.75,39.75,95.66187500000001,-155.10000000000002,0.18179590625,32.839062500000004
2021-06-28 11:15:31.234375000,-49.5,14.5,39.5,95.66125000000001,-155.8,0.1818359375,32.839375000000004
2021-06-28 11:15:31.242187500,-49.25,14.25,39.25,95.66062500000001,-152.345,0.18187596875,32.839687500000004
2021-06-28 11:15:31.250000000,-49.0,14.0,39.0,95.66,-148.89,0.181916,32.84
2021-06-28 11:15:31.257812500,-49.0,14.25,39.0,95.659375,-142.055,0.18187596875,32.84
2021-06-28 11:15:31.265625000,-49.0,14.5,39.0,95.65875,-135.22,0.1818359375,32.84
2021-06-28 11:15:31.273437500,-49.0,14.75,39.0,95.658125,-126.44,0.18179590625,32.84
2021-06-28 11:15:31.281250000,-49.0,15.0,39.0,95.6575,-117.66,0.18175587499999998,32.84
2021-06-28 11:15:31.289062500,-49.25,14.75,39.0,95.656875,-108.65,0.18171584375,32.84
2021-06-28 11:15:31.296875000,-49.5,14.5,39.0,95.65625,-99.64,0.1816758125,32.84
2021-06-28 11:15:31.304687500,-49.75,14.25,39.0,95.655625,-92.0,0.18163578125,32.84
2021-06-28 11:15:31.312500000,-50.0,14.0,39.0,95.655,-84.36,0.18159575,32.84
2021-06-28 11:15:31.320312500,-50.0,14.0,39.0,95.654375,-79.11500000000001,0.18155571874999998,32.84
2021-06-28 11:15:31.328125000,-50.0,14.0,39.0,95.65375,-73.87,0.1815156875,32.84
2021-06-28 11:15:31.335937500,-50.0,14.0,39.0,95.653125,-71.265,0.18147565625,32.84
2021-06-28 11:15:31.343750000,-50.0,14.0,39.0,95.6525,-68.66,0.181435625,32.84
2021-06-28 11:15:31.351562500,-49.75,14.25,39.25,95.651875,-68.185,0.18139559375,32.84
2021-06-28 11:15:31.359375000,-49.5,14.5,39.5,95.65125,-67.71,0.18135556249999998,32.84
2021-06-28 11:15:31.367187500,-49.25,14.75,39.75,95.650625,-68.44,0.18131553125,32.84
2021-06-28 11:15:31.375000000,-49.0,15.0,40.0,95.65,-69.17,0.18127549999999998,32.84
2021-06-28 11:15:31.382812500,-49.25,15.0,39.75,95.649375,-70.105,0.18123546875,32.84
2021-06-28 11:15:31.390625000,-49.5,15.0,39.5,95.64875,-71.04,0.1811954375,32.84
2021-06-28 11:15:31.398437500,-49.75,15.0,39.25,95.64812500000001,-71.46000000000001,0.18115540624999998,32.84
2021-06-28 11:15:31.406250000,-50.0,15.0,39.0,95.64750000000001,-71.88,0.181115375,32.84
2021-06-28 11:15:31.414062500,-50.0,15.0,39.0,95.64687500000001,-71.455,0.18107534374999998,32.84
2021-06-28 11:15:31.421875000,-50.0,15.0,39.0,95.64625,-71.03,0.1810353125,32.84
2021-06-28 11:15:31.429687500,-50.0,15.0,39.0,95.645625,-69.795,0.18099528125,32.84
2021-06-28 11:15:31.437500000,-50.0,15.0,39.0,95.645,-68.56,0.18095524999999998,32.84
2021-06-28 11:15:31.445312500,-50.0,14.75,39.0,95.644375,-66.745,0.18091521875,32.84
2021-06-28 11:15:31.453125000,-50.0,14.5,39.0,95.64375,-64.93,0.18087518749999998,32.84
2021-06-28 11:15:31.460937500,-50.0,14.25,39.0,95.643125,-62.85000000000001,0.18083515625,32.84
2021-06-28 11:15:31.468750000,-50.0,14.0,39.0,95.6425,-60.77,0.180795125,32.84
2021-06-28 11:15:31.476562500,-50.0,14.0,39.0,95.641875,-58.730000000000004,0.18075509374999998,32.84
2021-06-28 11:15:31.484375000,-50.0,14.0,39.0,95.64125,-56.69,0.1807150625,32.84
2021-06-28 11:15:31.492187500,-50.0,14.0,39.0,95.640625,-55.015,0.18067503124999998,32.84
2021-06-28 11:15:31.500000000,-50.0,14.0,39.0,95.64,-53.34,0.180635,32.84
2021-06-28 11:15:31.507812500,-50.0,14.0,39.0,95.639375,-52.35,0.18075509374999998,32.84
2021-06-28 11:15:31.515625000,-50.0,14.0,39.0,95.63875,-51.36,0.18087518749999998,32.84
2021-06-28 11:15:31.523437500,-50.0,14.0,39.0,95.638125,-51.34,0.18099528125,32.84
2021-06-28 11:15:31.531250000,-50.0,14.0,39.0,95.6375,-51.32,0.181115375,32.84
2021-06-28 11:15:31.539062500,-49.75,14.0,39.25,95.636875,-52.385000000000005,0.18123546875,32.84
2021-06-28 11:15:31.546875000,-49.5,14.0,39.5,95.63625,-53.45,0.18135556249999998,32.84
2021-06-28 11:15:31.554687500,-49.25,14.0,39.75,95.635625,-55.405,0.18147565625,32.84
2021-06-28 11:15:31.562500000,-49.0,14.0,40.0,95.635,-57.36,0.18159575,32.84
2021-06-28 11:15:31.570312500,-49.25,14.0,39.75,95.634375,-59.635,0.18171584375,32.84
2021-06-28 11:15:31.578125000,-49.5,14.0,39.5,95.63375,-61.91,0.1818359375,32.84
2021-06-28 11:15:31.585937500,-49.75,14.0,39.25,95.63312499999999,-63.65,0.18195603124999998,32.84
2021-06-28 11:15:31.593750000,-50.0,14.0,39.0,95.6325,-65.39,0.182076125,32.84
2021-06-28 11:15:31.601562500,-50.0,14.25,39.0,95.631875,-65.71000000000001,0.18219621875,32.84
2021-06-28 11:15:31.609375000,-50.0,14.5,39.0,95.63125,-66.03,0.1823163125,32.84
2021-06-28 11:15:31.617187500,-50.0,14.75,39.0,95.630625,-64.3,0.18243640625,32.84
2021-06-28 11:15:31.625000000,-50.0,15.0,39.0,95.63,-62.57,0.1825565,32.84
2021-06-28 11:15:31.632812500,-50.0,14.75,39.0,95.629375,-58.620000000000005,0.18267659375,32.84
2021-06-28 11:15:31.640625000,-50.0,14.5,39.0,95.62875,-54.67,0.1827966875,32.84
2021-06-28 11:15:31.648437500,-50.0,14.25,39.0,95.628125,-48.870000000000005,0.18291678125,32.84
2021-06-28 11:15:31.656250000,-50.0,14.0,39.0,95.6275,-43.07,0.183036875,32.84
2021-06-28 11:15:31.664062500,-50.0,14.0,39.0,95.626875,-36.165,0.18315696875,32.84
2021-06-28 11:15:31.671875000,-50.0,14.0,39.0,95.62625,-29.26,0.1832770625,32.84
2021-06-28 11:15:31.679687500,-50.0,14.0,39.0,95.625625,-22.11,0.18339715625,32.84
2021-06-28 11:15:31.687500000,-50.0,14.0,39.0,95.625,-14.96,0.18351725,32.84
2021-06-28 11:15:31.695312500,-50.0,14.0,39.0,95.624375,-8.265,0.18363734375,32.84
2021-06-28 11:15:31.703125000,-50.0,14.0,39.0,95.62375,-1.57,0.1837574375,32.84
2021-06-28 11:15:31.710937500,-50.0,14.0,39.0,95.623125,4.2749999999999995,0.18387753125,32.84
2021-06-28 11:15:31.718750000,-50.0,14.0,39.0,95.6225,10.12,0.183997625,32.84
2021-06-28 11:15:31.726562500,-50.0,14.0,39.25,95.621875,15.035,0.18411771875,32.84
2021-06-28 11:15:31.734375000,-50.0,14.0,39.5,95.62125,19.95,0.18423781250000001,32.84
2021-06-28 11:15:31.742187500,-50.0,14.0,39.75,95.620625,24.064999999999998,0.18435790625,32.84
2021-06-28 11:15:31.750000000,-50.0,14.0,40.0,95.62,28.18,0.184478,32.84
2021-06-28 11:15:31.757812500,-50.0,14.0,39.75,95.61937499999999,31.645,0.1843979375,32.84
2021-06-28 11:15:31.765625000,-50.0,14.0,39.5,95.61874999999999,35.11,0.184317875,32.84
2021-06-28 11:15:31.773437500,-50.0,14.0,39.25,95.61812499999999,38.0,0.18423781250000001,32.84
2021-06-28 11:15:31.781250000,-50.0,14.0,39.0,95.61749999999999,40.89,0.18415775,32.84
2021-06-28 11:15:31.789062500,-50.0,14.0,39.0,95.616875,43.175,0.1840776875,32.84
2021-06-28 11:15:31.796875000,-50.0,14.0,39.0,95.61625,45.46,0.183997625,32.84
2021-06-28 11:15:31.804687500,-50.0,14.0,39.0,95.615625,47.085,0.1839175625,32.84
2021-06-28 11:15:31.812500000,-50.0,14.0,39.0,95.615,48.71,0.1838375,32.84
2021-06-28 11:15:31.820312500,-50.0,14.0,39.0,95.614375,49.675,0.1837574375,32.84
2021-06-28 11:15:31.828125000,-50.0,14.0,39.0,95.61375,50.64,0.183677375,32.84
2021-06-28 11:15:31.835937500,-50.0,14.0,39.0,95.613125,51.05,0.1835973125,32.84
2021-06-28 11:15:31.843750000,-50.0,14.0,39.0,95.6125,51.46,0.18351725,32.84
2021-06-28 11:15:31.851562500,-49.75,14.0,39.25,95.611875,51.510000000000005,0.1834371875,32.84
2021-06-28 11:15:31.859375000,-49.5,14.0,39.5,95.61125,51.56,0.183357125,32.84
2021-06-28 11:15:31.867187500,-49.25,14.0,39.75,95.610625,51.465,0.1832770625,32.84
2021-06-28 11:15:31.875000000,-49.0,14.0,40.0,95.61,51.37,0.183197,32.84
2021-06-28 11:15:31.882812500,-49.25,14.0,39.75,95.609375,51.265,0.1831169375,32.84
2021-06-28 11:15:31.890625000,-49.5,14.0,39.5,95.60875,51.16,0.183036875,32.84
2021-06-28 11:15:31.898437500,-49.75,14.0,39.25,95.608125,51.08,0.1829568125,32.84
2021-06-28 11:15:31.906250000,-50.0,14.0,39.0,95.6075,51.0,0.18287675,32.84
2021-06-28 11:15:31.914062500,-50.0,14.0,39.0,95.606875,50.86,0.1827966875,32.84
2021-06-28 11:15:31.921875000,-50.0,14.0,39.0,95.60624999999999,50.72,0.182716625,32.84
2021-06-28 11:15:31.929687500,-50.0,14.0,39.0,95.60562499999999,50.41,0.1826365625,32.84
2021-06-28 11:15:31.937500000,-50.0,14.0,39.0,95.60499999999999,50.1,0.1825565,32.84
2021-06-28 11:15:31.945312500,-50.0,14.0,39.0,95.60437499999999,49.515,0.1824764375,32.84
2021-06-28 11:15:31.953125000,-50.0,14.0,39.0,95.60374999999999,48.93,0.182396375,32.84
2021-06-28 11:15:31.960937500,-50.0,14.0,39.0,95.60312499999999,48.07,0.1823163125,32.84
2021-06-28 11:15:31.968750000,-50.0,14.0,39.0,95.60249999999999,47.21,0.18223625,32.84
2021-06-28 11:15:31.976562500,-50.0,14.0,39.0,95.60187499999999,46.14,0.18215618749999998,32.84
2021-06-28 11:15:31.984375000,-50.0,14.0,39.0,95.60125,45.07,0.182076125,32.84
2021-06-28 11:15:31.992187500,-50.0,14.0,39.0,95.600625,43.875,0.1819960625,32.84
2021-06-28 11:15:32.000000000,-50.0,14.0,39.0,95.6,42.68,0.181916,32.84
2021-06-28 11:15:32.007812500,-50.0,14.0,39.0,95.599375,41.44,0.1819960625,32.8409375
2021-06-28 11:15:32.015625000,-50.0,14.0,39.0,95.59875,40.2,0.182076125,32.841875
2021-06-28 11:15:32.023437500,-50.0,14.0,39.0,95.598125,38.93,0.18215618749999998,32.8428125
2021-06-28 11:15:32.031250000,-50.0,14.0,39.0,95.5975,37.66,0.18223625,32.84375
2021-06-28 11:15:32.039062500,-50.0,14.0,39.0,95.596875,36.33,0.1823163125,32.8446875
2021-06-28 11:15:32.046875000,-50.0,14.0,39.0,95.59625,35.0,0.182396375,32.845625000000005
2021-06-28 11:15:32.054687500,-50.0,14.0,39.0,95.595625,33.555,0.1824764375,32.846562500000005
2021-06-28 11:15:32.062500000,-50.0,14.0,39.0,95.595,32.11,0.1825565,32.847500000000004
2021-06-28 11:15:32.070312500,-49.75,14.25,39.0,95.594375,30.52,0.1826365625,32.8484375
2021-06-28 11:15:32.078125000,-49.5,14.5,39.0,95.59375,28.93,0.182716625,32.849375
2021-06-28 11:15:32.085937500,-49.25,14.75,39.0,95.593125,27.195,0.1827966875,32.8503125
2021-06-28 11:15:32.093750000,-49.0,15.0,39.0,95.5925,25.46,0.18287675,32.85125
2021-06-28 11:15:32.101562500,-49.25,14.75,39.0,95.59187499999999,23.6,0.1829568125,32.8521875
2021-06-28 11:15:32.109375000,-49.5,14.5,39.0,95.59124999999999,21.74,0.183036875,32.853125
2021-06-28 11:15:32.117187500,-49.75,14.25,39.0,95.59062499999999,19.744999999999997,0.1831169375,32.8540625
2021-06-28 11:15:32.125000000,-50.0,14.0,39.0,95.58999999999999,17.75,0.183197,32.855000000000004
2021-06-28 11:15:32.132812500,-50.0,14.0,39.0,95.58937499999999,15.559999999999999,0.1832770625,32.8559375
2021-06-28 11:15:32.140625000,-50.0,14.0,39.0,95.58874999999999,13.37,0.183357125,32.856875
2021-06-28 11:15:32.148437500,-50.0,14.0,39.0,95.58812499999999,10.89,0.1834371875,32.8578125
2021-06-28 11:15:32.156250000,-50.0,14.0,39.0,95.58749999999999,8.41,0.18351725,32.85875
2021-06-28 11:15:32.164062500,-50.0,14.25,39.0,95.58687499999999,5.57,0.1835973125,32.8596875
2021-06-28 11:15:32.171875000,-50.0,14.5,39.0,95.58624999999999,2.73,0.183677375,32.860625
2021-06-28 11:15:32.179687500,-50.0,14.75,39.0,95.585625,-0.3999999999999999,0.1837574375,32.8615625
2021-06-28 11:15:32.187500000,-50.0,15.0,39.0,95.585,-3.53,0.1838375,32.8625
2021-06-28 11:15:32.195312500,-50.0,14.75,39.0,95.584375,-6.675000000000001,0.1839175625,32.863437499999996
2021-06-28 11:15:32.203125000,-50.0,14.5,39.0,95.58375,-9.82,0.183997625,32.864374999999995
2021-06-28 11:15:32.210937500,-50.0,14.25,39.0,95.583125,-12.49,0.1840776875,32.8653125
2021-06-28 11:15:32.218750000,-50.0,14.0,39.0,95.5825,-15.16,0.18415775,32.86625
2021-06-28 11:15:32.226562500,-50.0,14.0,39.0,95.581875,-16.785,0.18423781250000001,32.8671875
2021-06-28 11:15:32.234375000,-50.0,14.0,39.0,95.58125,-18.41,0.184317875,32.868125
2021-06-28 11:15:32.242187500,-50.0,14.0,39.0,95.580625,-18.490000000000002,0.1843979375,32.8690625
2021-06-28 11:15:32.250000000,-50.0,14.0,39.0,95.58,-18.57,0.184478,32.87
2021-06-28 11:15:32.257812500,-50.0,14.0,39.0,95.579375,-16.855,0.1843979375,32.87
2021-06-28 11:15:32.265625000,-50.0,14.0,39.0,95.57875,-15.14,0.184317875,32.87
2021-06-28 11:15:32.273437500,-50.0,14.0,39.0,95.578125,-11.725000000000001,0.18423781250000001,32.87
2021-06-28 11:15:32.281250000,-50.0,14.0,39.0,95.5775,-8.31,0.18415775,32.87
2021-06-28 11:15:32.289062500,-50.0,14.0,39.0,95.576875,-3.585,0.1840776875,32.87
2021-06-28 11:15:32.296875000,-50.0,14.0,39.0,95.57625,1.14,0.183997625,32.87
2021-06-28 11:15:32.304687500,-50.0,14.0,39.0,95.57562499999999,6.6,0.1839175625,32.87
2021-06-28 11:15:32.312500000,-50.0,14.0,39.0,95.57499999999999,12.06,0.1838375,32.87
2021-06-28 11:15:32.320312500,-50.0,14.0,39.0,95.57437499999999,17.665,0.1837574375,32.87
2021-06-28 11:15:32.328125000,-50.0,14.0,39.0,95.57374999999999,23.27,0.183677375,32.87
2021-06-28 11:15:32.335937500,-50.0,14.0,39.0,95.57312499999999,28.545,0.1835973125,32.87
2021-06-28 11:15:32.343750000,-50.0,14.0,39.0,95.57249999999999,33.82,0.18351725,32.87
2021-06-28 11:15:32.351562500,-50.0,14.0,39.0,95.57187499999999,38.445,0.1834371875,32.87
2021-06-28 11:15:32.359375000,-50.0,14.0,39.0,95.57124999999999,43.07,0.183357125,32.87
2021-06-28 11:15:32.367187500,-50.0,14.0,39.0,95.57062499999999,46.855000000000004,0.1832770625,32.87
2021-06-28 11:15:32.375000000,-50.0,14.0,39.0,95.57,50.64,0.183197,32.87
2021-06-28 11:15:32.382812500,-50.0,14.0,39.0,95.569375,53.535,0.1831169375,32.87
2021-06-28 11:15:32.390625000,-50.0,14.0,39.0,95.56875,56.43,0.183036875,32.87
2021-06-28 11:15:32.398437500,-50.0,14.0,39.0,95.568125,58.415,0.1829568125,32.87
2021-06-28 11:15:32.406250000,-50.0,14.0,39.0,95.5675,60.4,0.18287675,32.87
2021-06-28 11:15:32.414062500,-50.0,14.0,39.0,95.566875,61.555,0.1827966875,32.87
2021-06-28 11:15:32.421875000,-50.0,14.0,39.0,95.56625,62.71,0.182716625,32.87
2021-06-28 11:15:32.429687500,-50.0,14.0,39.0,95.565625,63.165,0.1826365625,32.87
2021-06-28 11:15:32.437500000,-50.0,14.0,39.0,95.565,63.62,0.1825565,32.87
2021-06-28 11:15:32.445312500,-50.0,14.0,39.0,95.564375,63.565,0.1824764375,32.87
2021-06-28 11:15:32.453125000,-50.0,14.0,39.0,95.56375,63.51,0.182396375,32.87
2021-06-28 11:15:32.460937500,-50.0,14.0,39.0,95.563125,63.17,0.1823163125,32.87
2021-06-28 11:15:32.468750000,-50.0,14.0,39.0,95.5625,62.83,0.18223625,32.87
2021-06-28 11:15:32.476562500,-50.0,14.0,39.0,95.561875,62.375,0.18215618749999998,32.87
2021-06-28 11:15:32.484375000,-50.0,14.0,39.0,95.56125,61.92,0.182076125,32.87
2021-06-28 11:15:32.492187500,-50.0,14.0,39.0,95.560625,61.46,0.1819960625,32.87
2021-06-28 11:15:32.500000000,-50.0,14.0,39.0,95.56,61.0,0.181916,32.87
2021-06-28 11:15:32.507812500,-50.0,14.0,39.0,95.55937499999999,60.56,0.1819960625,32.87
2021-06-28 11:15:32.515625000,-50.0,14.0,39.0,95.55874999999999,60.12,0.182076125,32.87
2021-06-28 11:15:32.523437500,-50.0,14.0,39.0,95.55812499999999,59.675,0.18215618749999998,32.87
2021-06-28 11:15:32.531250000,-50.0,14.0,39.0,95.55749999999999,59.23,0.18223625,32.87
2021-06-28 11:15:32.539062500,-50.0,14.0,39.0,95.55687499999999,58.76,0.1823163125,32.87
2021-06-28 11:15:32.546875000,-50.0,14.0,39.0,95.55624999999999,58.29,0.182396375,32.87
2021-06-28 11:15:32.554687500,-50.0,14.0,39.0,95.55562499999999,57.815,0.1824764375,32.87
2021-06-28 11:15:32.562500000,-50.0,14.0,39.0,95.55499999999999,57.34,0.1825565,32.87
2021-06-28 11:15:32.570312500,-50.0,14.0,39.0,95.554375,56.895,0.1826365625,32.87
2021-06-28 11:15:32.578125000,-50.0,14.0,39.0,95.55375,56.45,0.182716625,32.87
2021-06-28 11:15:32.585937500,-50.0,14.0,39.0,95.553125,56.075,0.1827966875,32.87
2021-06-28 11:15:32.593750000,-50.0,14.0,39.0,95.5525,55.7,0.18287675,32.87
2021-06-28 11:15:32.601562500,-50.0,14.0,39.0,95.551875,55.405,0.1829568125,32.87
2021-06-28 11:15:32.609375000,-50.0,14.0,39.0,95.55125,55.11,0.183036875,32.87
2021-06-28 11:15:32.617187500,-50.0,14.0,39.0,95.550625,54.815,0.1831169375,32.87
2021-06-28 11:15:32.625000000,-50.0,14.0,39.0,95.55,54.52,0.183197,32.87
2021-06-28 11:15:32.632812500,-50.0,14.0,39.0,95.549375,54.105000000000004,0.1832770625,32.87
2021-06-28 11:15:32.640625000,-50.0,14.0,39.0,95.54875,53.69,0.183357125,32.87
2021-06-28 11:15:32.648437500,-50.0,14.0,39.0,95.548125,52.989999999999995,0.1834371875,32.87
2021-06-28 11:15:32.656250000,-50.0,14.0,39.0,95.5475,52.29,0.18351725,32.87
2021-06-28 11:15:32.664062500,-50.0,14.0,39.0,95.546875,51.17,0.1835973125,32.87
2021-06-28 11:15:32.671875000,-50.0,14.0,39.0,95.54625,50.05,0.183677375,32.87
2021-06-28 11:15:32.679687500,-50.0,14.0,39.0,95.545625,48.44,0.1837574375,32.87
2021-06-28 11:15:32.687500000,-50.0,14.0,39.0,95.545,46.83,0.1838375,32.87
2021-06-28 11:15:32.695312500,-49.75,14.0,39.0,95.544375,44.75,0.1839175625,32.87
2021-06-28 11:15:32.703125000,-49.5,14.0,39.0,95.54374999999999,42.67,0.183997625,32.87
2021-06-28 11:15:32.710937500,-49.25,14.0,39.0,95.54312499999999,40.265,0.1840776875,32.87
2021-06-28 11:15:32.718750000,-49.0,14.0,39.0,95.54249999999999,37.86,0.18415775,32.87
2021-06-28 11:15:32.726562500,-49.0,14.0,39.0,95.54187499999999,35.31,0.18423781250000001,32.87
2021-06-28 11:15:32.734375000,-49.0,14.0,39.0,95.54124999999999,32.76,0.184317875,32.87
2021-06-28 11:15:32.742187500,-49.0,14.0,39.0,95.54062499999999,30.25,0.1843979375,32.87
2021-06-28 11:15:32.750000000,-49.0,14.0,39.0,95.53999999999999,27.74,0.184478,32.87
2021-06-28 11:15:32.757812500,-49.25,13.75,39.0,95.53937499999999,25.39,0.1843979375,32.87
2021-06-28 11:15:32.765625000,-49.5,13.5,39.0,95.53875,23.04,0.184317875,32.87
2021-06-28 11:15:32.773437500,-49.75,13.25,39.0,95.538125,20.865000000000002,0.18423781250000001,32.87
2021-06-28 11:15:32.781250000,-50.0,13.0,39.0,95.5375,18.69,0.18415775,32.87
2021-06-28 11:15:32.789062500,-50.0,13.5,39.0,95.536875,16.595,0.1840776875,32.87
2021-06-28 11:15:32.796875000,-50.0,14.0,39.0,95.53625,14.5,0.183997625,32.87
2021-06-28 11:15:32.804687500,-50.0,14.5,39.0,95.535625,12.33,0.1839175625,32.87
2021-06-28 11:15:32.812500000,-50.0,15.0,39.0,95.535,10.16,0.1838375,32.87
2021-06-28 11:15:32.820312500,-50.0,15.0,39.0,95.534375,7.755,0.1837574375,32.87
2021-06-28 11:15:32.828125000,-50.0,15.0,39.0,95.53375,5.35,0.183677375,32.87
2021-06-28 11:15:32.835937500,-50.0,15.0,39.0,95.533125,2.5949999999999998,0.1835973125,32.87
2021-06-28 11:15:32.843750000,-50.0,15.0,39.0,95.5325,-0.16,0.18351725,32.87
2021-06-28 11:15:32.851562500,-50.0,14.75,39.0,95.531875,-3.24,0.1834371875,32.87
2021-06-28 11:15:32.859375000,-50.0,14.5,39.0,95.53125,-6.32,0.183357125,32.87
2021-06-28 11:15:32.867187500,-50.0,14.25,39.0,95.530625,-9.55,0.1832770625,32.87
2021-06-28 11:15:32.875000000,-50.0,14.0,39.0,95.53,-12.78,0.183197,32.87
2021-06-28 11:15:32.882812500,-50.0,14.0,39.0,95.529375,-15.8,0.1831169375,32.87
2021-06-28 11:15:32.890625000,-50.0,14.0,39.0,95.52875,-18.82,0.183036875,32.87
2021-06-28 11:15:32.898437500,-50.0,14.0,39.0,95.528125,-21.15,0.1829568125,32.87
2021-06-28 11:15:32.906250000,-50.0,14.0,39.0,95.52749999999999,-23.48,0.18287675,32.87
2021-06-28 11:15:32.914062500,-50.0,14.0,39.0,95.52687499999999,-24.615000000000002,0.1827966875,32.87
2021-06-28 11:15:32.921875000,-50.0,14.0,39.0,95.52624999999999,-25.75,0.182716625,32.87
2021-06-28 11:15:32.929687500,-50.0,14.0,39.0,95.52562499999999,-25.3,0.1826365625,32.87
2021-06-28 11:15:32.937500000,-50.0,14.0,39.0,95.52499999999999,-24.85,0.1825565,32.87
2021-06-28 11:15:32.945312500,-50.0,14.25,39.0,95.52437499999999,-22.69,0.1824764375,32.87
2021-06-28 11:15:32.953125000,-50.0,14.5,39.0,95.52374999999999,-20.53,0.182396375,32.87
2021-06-28 11:15:32.960937500,-50.0,14.75,39.0,95.523125,-16.87,0.1823163125,32.87
2021-06-28 11:15:32.968750000,-50.0,15.0,39.0,95.5225,-13.21,0.18223625,32.87
2021-06-28 11:15:32.976562500,-50.0,14.75,39.25,95.521875,-8.530000000000001,0.18215618749999998,32.87
2021-06-28 11:15:32.984375000,-50.0,14.5,39.5,95.52125,-3.85,0.182076125,32.87
2021-06-28 11:15:32.992187500,-50.0,14.25,39.75,95.520625,1.23,0.1819960625,32.87
2021-06-28 11:15:33.000000000,-50.0,14.0,40.0,95.52,6.31,0.181916,32.87
2021-06-28 11:15:33.007812500,-50.0,14.0,39.75,95.519296875,11.21,0.18203609375,32.8690625
2021-06-28 11:15:33.015625000,-50.0,14.0,39.5,95.51859375,16.11,0.18215618749999998,32.868125
2021-06-28 11:15:33.023437500,-50.0,14.0,39.25,95.51789062499999,20.415,0.18227628125,32.8671875
2021-06-28 11:15:33.031250000,-50.0,14.0,39.0,95.51718749999999,24.72,0.182396375,32.86625
2021-06-28 11:15:33.039062500,-50.0,14.0,39.0,95.51648437499999,28.225,0.18251646875,32.8653125
2021-06-28 11:15:33.046875000,-50.0,14.0,39.0,95.51578125,31.73,0.1826365625,32.864374999999995
2021-06-28 11:15:33.054687500,-50.0,14.0,39.0,95.515078125,34.39,0.18275665625,32.863437499999996
2021-06-28 11:15:33.062500000,-50.0,14.0,39.0,95.514375,37.05,0.18287675,32.8625
2021-06-28 11:15:33.070312500,-50.0,14.0,39.0,95.513671875,38.92,0.18299684375,32.8615625
2021-06-28 11:15:33.078125000,-50.0,14.0,39.0,95.51296875,40.79,0.1831169375,32.860625
2021-06-28 11:15:33.085937500,-50.0,14.0,39.0,95.512265625,41.974999999999994,0.18323703125,32.8596875
2021-06-28 11:15:33.093750000,-50.0,14.0,39.0,95.5115625,43.16,0.183357125,32.85875
2021-06-28 11:15:33.101562500,-50.0,14.0,39.0,95.510859375,43.769999999999996,0.18347721875,32.8578125
2021-06-28 11:15:33.109375000,-50.0,14.0,39.0,95.51015625,44.38,0.1835973125,32.856875
2021-06-28 11:15:33.117187500,-50.0,14.0,39.0,95.509453125,44.555,0.18371740625,32.8559375
2021-06-28 11:15:33.125000000,-50.0,14.0,39.0,95.50874999999999,44.73,0.1838375,32.855000000000004
2021-06-28 11:15:33.132812500,-49.75,14.0,39.0,95.50804687499999,44.614999999999995,0.18395759375,32.8540625
2021-06-28 11:15:33.140625000,-49.5,14.0,39.0,95.50734375,44.5,0.1840776875,32.853125
2021-06-28 11:15:33.148437500,-49.25,14.0,39.0,95.506640625,44.235,0.18419778125,32.8521875
2021-06-28 11:15:33.156250000,-49.0,14.0,39.0,95.5059375,43.97,0.184317875,32.85125
2021-06-28 11:15:33.164062500,-49.25,14.0,39.0,95.505234375,43.644999999999996,0.18443796875000001,32.8503125
2021-06-28 11:15:33.171875000,-49.5,14.0,39.0,95.50453125,43.32,0.1845580625,32.849375
2021-06-28 11:15:33.179687500,-49.75,14.0,39.0,95.503828125,42.975,0.18467815625,32.8484375
2021-06-28 11:15:33.187500000,-50.0,14.0,39.0,95.503125,42.63,0.18479825,32.847500000000004
2021-06-28 11:15:33.195312500,-50.0,14.0,39.0,95.502421875,42.245000000000005,0.18491834375,32.846562500000005
2021-06-28 11:15:33.203125000,-50.0,14.0,39.0,95.50171875,41.86,0.1850384375,32.845625000000005
2021-06-28 11:15:33.210937500,-50.0,14.0,39.0,95.501015625,41.379999999999995,0.18515853125,32.8446875
2021-06-28 11:15:33.218750000,-50.0,14.0,39.0,95.50031249999999,40.9,0.185278625,32.84375
2021-06-28 11:15:33.226562500,-50.0,14.25,39.0,95.49960937499999,40.3,0.18539871875,32.8428125
2021-06-28 11:15:33.234375000,-50.0,14.5,39.0,95.49890625,39.7,0.18551881250000002,32.841875
2021-06-28 11:15:33.242187500,-50.0,14.75,39.0,95.498203125,38.99,0.18563890625,32.8409375
2021-06-28 11:15:33.250000000,-50.0,15.0,39.0,95.4975,38.28,0.185759,32.84
2021-06-28 11:15:33.257812500,-50.0,15.0,39.0,95.496796875,37.519999999999996,0.1856789375,32.84
2021-06-28 11:15:33.265625000,-50.0,15.0,39.0,95.49609375,36.76,0.185598875,32.84
2021-06-28 11:15:33.273437500,-50.0,15.0,39.0,95.495390625,36.035,0.18551881250000002,32.84
2021-06-28 11:15:33.281250000,-50.0,15.0,39.0,95.4946875,35.31,0.18543875,32.84
2021-06-28 11:15:33.289062500,-50.0,14.75,39.0,95.493984375,34.69,0.1853586875,32.84
2021-06-28 11:15:33.296875000,-50.0,14.5,39.0,95.49328125,34.07,0.185278625,32.84
2021-06-28 11:15:33.304687500,-50.0,14.25,39.0,95.492578125,33.575,0.1851985625,32.84
2021-06-28 11:15:33.312500000,-50.0,14.0,39.0,95.491875,33.08,0.18511850000000002,32.84
2021-06-28 11:15:33.320312500,-50.0,14.0,39.0,95.491171875,32.655,0.1850384375,32.84
2021-06-28 11:15:33.328125000,-50.0,14.0,39.0,95.49046875,32.23,0.184958375,32.84
2021-06-28 11:15:33.335937500,-50.0,14.0,39.0,95.489765625,31.75,0.1848783125,32.84
2021-06-28 11:15:33.343750000,-50.0,14.0,39.0,95.4890625,31.27,0.18479825,32.84
2021-06-28 11:15:33.351562500,-50.0,14.0,39.0,95.488359375,30.57,0.1847181875,32.84
2021-06-28 11:15:33.359375000,-50.0,14.0,39.0,95.48765625,29.87,0.18463812500000001,32.84
2021-06-28 11:15:33.367187500,-50.0,14.0,39.0,95.486953125,28.825000000000003,0.1845580625,32.84
2021-06-28 11:15:33.375000000,-50.0,14.0,39.0,95.48625,27.78,0.184478,32.84
2021-06-28 11:15:33.382812500,-50.0,14.0,39.0,95.485546875,26.345,0.1843979375,32.84
2021-06-28 11:15:33.390625000,-50.0,14.0,39.0,95.48484375,24.91,0.184317875,32.84
2021-06-28 11:15:33.398437500,-50.0,14.0,39.0,95.484140625,23.17,0.18423781250000001,32.84
2021-06-28 11:15:33.406250000,-50.0,14.0,39.0,95.4834375,21.43,0.18415775,32.84
2021-06-28 11:15:33.414062500,-50.0,14.25,39.0,95.482734375,19.55,0.1840776875,32.84
2021-06-28 11:15:33.421875000,-50.0,14.5,39.0,95.48203125,17.67,0.183997625,32.84
2021-06-28 11:15:33.429687500,-50.0,14.75,39.0,95.481328125,15.835,0.1839175625,32.84
2021-06-28 11:15:33.437500000,-50.0,15.0,39.0,95.480625,14.0,0.1838375,32.84
2021-06-28 11:15:33.445312500,-50.0,14.75,39.0,95.479921875,12.33,0.1837574375,32.84
2021-06-28 11:15:33.453125000,-50.0,14.5,39.0,95.47921875,10.66,0.183677375,32.84
2021-06-28 11:15:33.460937500,-50.0,14.25,39.0,95.478515625,9.155000000000001,0.1835973125,32.84
2021-06-28 11:15:33.468750000,-50.0,14.0,39.0,95.4778125,7.65,0.18351725,32.84
2021-06-28 11:15:33.476562500,-50.0,14.0,39.0,95.477109375,6.21,0.1834371875,32.84
2021-06-28 11:15:33.484375000,-50.0,14.0,39.0,95.47640625,4.77,0.183357125,32.84
2021-06-28 11:15:33.492187500,-50.0,14.0,39.0,95.475703125,3.21,0.1832770625,32.84
2021-06-28 11:15:33.500000000,-50.0,14.0,39.0,95.475,1.65,0.183197,32.84
2021-06-28 11:15:33.507812500,-49.75,14.25,39.0,95.47429687500001,-0.17500000000000004,0.1832770625,32.84
2021-06-28 11:15:33.515625000,-49.5,14.5,39.0,95.47359375,-2.0,0.183357125,32.84
2021-06-28 11:15:33.523437500,-49.25,14.75,39.0,95.472890625,-4.17,0.1834371875,32.84
2021-06-28 11:15:33.531250000,-49.0,15.0,39.0,95.4721875,-6.34,0.18351725,32.84
2021-06-28 11:15:33.539062500,-49.25,15.0,39.0,95.471484375,-8.8,0.1835973125,32.84
2021-06-28 11:15:33.546875000,-49.5,15.0,39.0,95.47078125,-11.26,0.183677375,32.84
2021-06-28 11:15:33.554687500,-49.75,15.0,39.0,95.470078125,-13.805,0.1837574375,32.84
2021-06-28 11:15:33.562500000,-50.0,15.0,39.0,95.469375,-16.35,0.1838375,32.84
2021-06-28 11:15:33.570312500,-50.0,14.75,39.0,95.468671875,-18.625,0.1839175625,32.84
2021-06-28 11:15:33.578125000,-50.0,14.5,39.0,95.46796875,-20.9,0.183997625,32.84
2021-06-28 11:15:33.585937500,-50.0,14.25,39.0,95.467265625,-22.465,0.1840776875,32.84
2021-06-28 11:15:33.593750000,-50.0,14.0,39.0,95.46656250000001,-24.03,0.18415775,32.84
2021-06-28 11:15:33.601562500,-50.0,14.0,39.0,95.46585937500001,-24.46,0.18423781250000001,32.84
2021-06-28 11:15:33.609375000,-50.0,14.0,39.0,95.46515625,-24.89,0.184317875,32.84
2021-06-28 11:15:33.617187500,-50.0,14.0,39.0,95.464453125,-23.93,0.1843979375,32.84
2021-06-28 11:15:33.625000000,-50.0,14.0,39.0,95.46375,-22.97,0.184478,32.84
2021-06-28 11:15:33.632812500,-50.0,14.0,39.0,95.463046875,-20.634999999999998,0.1845580625,32.84
2021-06-28 11:15:33.640625000,-50.0,14.0,39.0,95.46234375,-18.3,0.18463812500000001,32.84
2021-06-28 11:15:33.648437500,-50.0,14.0,39.0,95.461640625,-14.89,0.1847181875,32.84
2021-06-28 11:15:33.656250000,-50.0,14.0,39.0,95.4609375,-11.48,0.18479825,32.84
2021-06-28 11:15:33.664062500,-49.75,14.25,39.25,95.460234375,-7.495,0.1848783125,32.84
2021-06-28 11:15:33.671875000,-49.5,14.5,39.5,95.45953125,-3.51,0.184958375,32.84
2021-06-28 11:15:33.679687500,-49.25,14.75,39.75,95.458828125,0.5350000000000001,0.1850384375,32.84
2021-06-28 11:15:33.687500000,-49.0,15.0,40.0,95.45812500000001,4.58,0.18511850000000002,32.84
2021-06-28 11:15:33.695312500,-49.25,14.75,39.75,95.45742187500001,8.3,0.1851985625,32.84
2021-06-28 11:15:33.703125000,-49.5,14.5,39.5,95.45671875000001,12.02,0.185278625,32.84
2021-06-28 11:15:33.710937500,-49.75,14.25,39.25,95.456015625,15.25,0.1853586875,32.84
2021-06-28 11:15:33.718750000,-50.0,14.0,39.0,95.4553125,18.48,0.18543875,32.84
2021-06-28 11:15:33.726562500,-50.0,14.0,39.0,95.454609375,21.189999999999998,0.18551881250000002,32.84
2021-06-28 11:15:33.734375000,-50.0,14.0,39.0,95.45390625,23.9,0.185598875,32.84
2021-06-28 11:15:33.742187500,-50.0,14.0,39.0,95.453203125,26.095,0.1856789375,32.84
2021-06-28 11:15:33.750000000,-50.0,14.0,39.0,95.4525,28.29,0.185759,32.84
2021-06-28 11:15:33.757812500,-50.0,14.25,39.0,95.451796875,29.93,0.1856789375,32.84
2021-06-28 11:15:33.765625000,-50.0,14.5,39.0,95.45109375,31.57,0.185598875,32.84
2021-06-28 11:15:33.773437500,-50.0,14.75,39.0,95.45039062500001,32.545,0.18551881250000002,32.84
2021-06-28 11:15:33.781250000,-50.0,15.0,39.0,95.44968750000001,33.52,0.18543875,32.84
2021-06-28 11:15:33.789062500,-50.0,14.75,39.0,95.44898437500001,33.765,0.1853586875,32.84
2021-06-28 11:15:33.796875000,-50.0,14.5,39.0,95.44828125000001,34.01,0.185278625,32.84
2021-06-28 11:15:33.804687500,-50.0,14.25,39.0,95.447578125,33.614999999999995,0.1851985625,32.84
2021-06-28 11:15:33.812500000,-50.0,14.0,39.0,95.446875,33.22,0.18511850000000002,32.84
2021-06-28 11:15:33.820312500,-50.0,14.0,39.0,95.446171875,32.425,0.1850384375,32.84
2021-06-28 11:15:33.828125000,-50.0,14.0,39.0,95.44546875,31.63,0.184958375,32.84
2021-06-28 11:15:33.835937500,-50.0,14.0,39.0,95.444765625,30.759999999999998,0.1848783125,32.84
2021-06-28 11:15:33.843750000,-50.0,14.0,39.0,95.4440625,29.89,0.18479825,32.84
2021-06-28 11:15:33.851562500,-50.0,14.0,39.0,95.443359375,29.225,0.1847181875,32.84
2021-06-28 11:15:33.859375000,-50.0,14.0,39.0,95.44265625,28.56,0.18463812500000001,32.84
2021-06-28 11:15:33.867187500,-50.0,14.0,39.0,95.44195312500001,28.21,0.1845580625,32.84
2021-06-28 11:15:33.875000000,-50.0,14.0,39.0,95.44125000000001,27.86,0.184478,32.84
2021-06-28 11:15:33.882812500,-49.75,14.25,39.0,95.44054687500001,27.759999999999998,0.1843979375,32.84
2021-06-28 11:15:33.890625000,-49.5,14.5,39.0,95.43984375000001,27.66,0.184317875,32.84
2021-06-28 11:15:33.898437500,-49.25,14.75,39.0,95.43914062500001,27.655,0.18423781250000001,32.84
2021-06-28 11:15:33.906250000,-49.0,15.0,39.0,95.4384375,27.65,0.18415775,32.84
2021-06-28 11:15:33.914062500,-49.25,14.75,39.0,95.437734375,27.6,0.1840776875,32.84
2021-06-28 11:15:33.921875000,-49.5,14.5,39.0,95.43703125,27.55,0.183997625,32.84
2021-06-28 11:15:33.929687500,-49.75,14.25,39.0,95.436328125,27.415,0.1839175625,32.84
2021-06-28 11:15:33.937500000,-50.0,14.0,39.0,95.435625,27.28,0.1838375,32.84
2021-06-28 11:15:33.945312500,-50.0,14.0,39.0,95.434921875,27.085,0.1837574375,32.84
2021-06-28 11:15:33.953125000,-50.0,14.0,39.0,95.43421875,26.89,0.183677375,32.84
2021-06-28 11:15:33.960937500,-50.0,14.0,39.0,95.43351562500001,26.675,0.1835973125,32.84
2021-06-28 11:15:33.968750000,-50.0,14.0,39.0,95.43281250000001,26.46,0.18351725,32.84
2021-06-28 11:15:33.976562500,-50.0,14.25,39.0,95.43210937500001,26.200000000000003,0.1834371875,32.84
2021-06-28 11:15:33.984375000,-50.0,14.5,39.0,95.43140625000001,25.94,0.183357125,32.84
2021-06-28 11:15:33.992187500,-50.0,14.75,39.0,95.43070312500001,25.535,0.1832770625,32.84
2021-06-28 11:15:34.000000000,-50.0,15.0,39.0,95.43,25.13,0.183197,32.84
2021-06-28 11:15:34.007812500,-50.0,14.75,39.0,95.42953125000001,24.45,0.18323703125,32.84
2021-06-28 11:15:34.015625000,-50.0,14.5,39.0,95.4290625,23.77,0.1832770625,32.84
2021-06-28 11:15:34.023437500,-50.0,14.25,39.0,95.42859375,22.72,0.18331709375,32.84
2021-06-28 11:15:34.031250000,-50.0,14.0,39.0,95.42812500000001,21.67,0.183357125,32.84
2021-06-28 11:15:34.039062500,-50.0,14.0,39.0,95.42765625000001,20.265,0.18339715625,32.84
2021-06-28 11:15:34.046875000,-50.0,14.0,39.0,95.4271875,18.86,0.1834371875,32.84
2021-06-28 11:15:34.054687500,-50.0,14.0,39.0,95.42671875,17.189999999999998,0.18347721875,32.84
2021-06-28 11:15:34.062500000,-50.0,14.0,39.0,95.42625000000001,15.52,0.18351725,32.84
2021-06-28 11:15:34.070312500,-50.0,14.0,39.0,95.42578125,13.74,0.18355728125,32.84
2021-06-28 11:15:34.078125000,-50.0,14.0,39.0,95.4253125,11.96,0.1835973125,32.84
2021-06-28 11:15:34.085937500,-50.0,14.0,39.0,95.42484375000001,10.195,0.18363734375,32.84
2021-06-28 11:15:34.093750000,-50.0,14.0,39.0,95.42437500000001,8.43,0.183677375,32.84
2021-06-28 11:15:34.101562500,-50.0,14.25,39.0,95.42390625,6.76,0.18371740625,32.84
2021-06-28 11:15:34.109375000,-50.0,14.5,39.0,95.4234375,5.09,0.1837574375,32.84
2021-06-28 11:15:34.117187500,-50.0,14.75,39.0,95.42296875000001,3.52,0.18379746875,32.84
2021-06-28 11:15:34.125000000,-50.0,15.0,39.0,95.42250000000001,1.95,0.1838375,32.84
2021-06-28 11:15:34.132812500,-50.0,14.75,39.0,95.42203125,0.42500000000000004,0.18387753125,32.84
2021-06-28 11:15:34.140625000,-50.0,14.5,39.0,95.42156250000001,-1.1,0.1839175625,32.84
2021-06-28 11:15:34.148437500,-50.0,14.25,39.0,95.42109375000001,-2.67,0.18395759375,32.84
2021-06-28 11:15:34.156250000,-50.0,14.0,39.0,95.420625,-4.24,0.183997625,32.84
2021-06-28 11:15:34.164062500,-50.0,14.25,39.0,95.42015625,-5.970000000000001,0.18403765625000001,32.84
2021-06-28 11:15:34.171875000,-50.0,14.5,39.0,95.41968750000001,-7.7,0.1840776875,32.84
2021-06-28 11:15:34.179687500,-50.0,14.75,39.0,95.41921875000001,-9.715,0.18411771875,32.84
2021-06-28 11:15:34.187500000,-50.0,15.0,39.0,95.41875,-11.73,0.18415775,32.84
2021-06-28 11:15:34.195312500,-50.0,15.0,39.0,95.41828125,-14.115,0.18419778125,32.84
2021-06-28 11:15:34.203125000,-50.0,15.0,39.0,95.41781250000001,-16.5,0.18423781250000001,32.84
2021-06-28 11:15:34.210937500,-50.0,15.0,39.0,95.41734375,-19.22,0.18427784375,32.84
2021-06-28 11:15:34.218750000,-50.0,15.0,39.0,95.416875,-21.94,0.184317875,32.84
2021-06-28 11:15:34.226562500,-49.75,15.0,39.0,95.41640625000001,-24.815,0.18435790625,32.84
2021-06-28 11:15:34.234375000,-49.5,15.0,39.0,95.41593750000001,-27.69,0.1843979375,32.84
2021-06-28 11:15:34.242187500,-49.25,15.0,39.0,95.41546875,-30.35,0.18443796875000001,32.84
2021-06-28 11:15:34.250000000,-49.0,15.0,39.0,95.415,-33.01,0.184478,32.84
2021-06-28 11:15:34.257812500,-49.25,14.75,39.0,95.41453125000001,-34.980000000000004,0.1843979375,32.84
2021-06-28 11:15:34.265625000,-49.5,14.5,39.0,95.4140625,-36.95,0.184317875,32.84
2021-06-28 11:15:34.273437500,-49.75,14.25,39.0,95.41359375,-37.765,0.18423781250000001,32.84
2021-06-28 11:15:34.281250000,-50.0,14.0,39.0,95.41312500000001,-38.58,0.18415775,32.84
2021-06-28 11:15:34.289062500,-50.0,14.25,39.0,95.41265625000001,-37.93,0.1840776875,32.84
2021-06-28 11:15:34.296875000,-50.0,14.5,39.0,95.4121875,-37.28,0.183997625,32.84
2021-06-28 11:15:34.304687500,-50.0,14.75,39.0,95.41171875,-35.120000000000005,0.1839175625,32.84
2021-06-28 11:15:34.312500000,-50.0,15.0,39.0,95.41125000000001,-32.96,0.1838375,32.84
2021-06-28 11:15:34.320312500,-50.25,14.75,39.0,95.41078125,-29.55,0.1837574375,32.84
2021-06-28 11:15:34.328125000,-50.5,14.5,39.0,95.4103125,-26.14,0.183677375,32.84
2021-06-28 11:15:34.335937500,-50.75,14.25,39.0,95.40984375000001,-21.93,0.1835973125,32.84
2021-06-28 11:15:34.343750000,-51.0,14.0,39.0,95.40937500000001,-17.72,0.18351725,32.84
2021-06-28 11:15:34.351562500,-50.75,14.0,39.0,95.40890625,-13.26,0.1834371875,32.84
2021-06-28 11:15:34.359375000,-50.5,14.0,39.0,95.4084375,-8.8,0.183357125,32.84
2021-06-28 11:15:34.367187500,-50.25,14.0,39.0,95.40796875000001,-4.54,0.1832770625,32.84
2021-06-28 11:15:34.375000000,-50.0,14.0,39.0,95.4075,-0.28,0.183197,32.84
2021-06-28 11:15:34.382812500,-50.0,14.0,39.0,95.40703125,3.465,0.1831169375,32.84
2021-06-28 11:15:34.390625000,-50.0,14.0,39.0,95.4065625,7.21,0.183036875,32.84
2021-06-28 11:15:34.398437500,-50.0,14.0,39.0,95.40609375000001,10.325,0.1829568125,32.84
2021-06-28 11:15:34.406250000,-50.0,14.0,39.0,95.405625,13.44,0.18287675,32.84
2021-06-28 11:15:34.414062500,-50.0,14.0,39.0,95.40515625,15.919999999999998,0.1827966875,32.84
2021-06-28 11:15:34.421875000,-50.0,14.0,39.0,95.40468750000001,18.4,0.182716625,32.84
2021-06-28 11:15:34.429687500,-50.0,14.0,39.0,95.40421875000001,20.295,0.1826365625,32.84
2021-06-28 11:15:34.437500000,-50.0,14.0,39.0,95.40375,22.19,0.1825565,32.84
2021-06-28 11:15:34.445312500,-50.0,14.0,39.0,95.40328125,23.560000000000002,0.1824764375,32.84
2021-06-28 11:15:34.453125000,-50.0,14.0,39.0,95.40281250000001,24.93,0.182396375,32.84
2021-06-28 11:15:34.460937500,-50.0,14.0,39.0,95.40234375,25.814999999999998,0.1823163125,32.84
2021-06-28 11:15:34.468750000,-50.0,14.0,39.0,95.401875,26.7,0.18223625,32.84
2021-06-28 11:15:34.476562500,-50.0,14.25,39.0,95.40140625000001,27.14,0.18215618749999998,32.84
2021-06-28 11:15:34.484375000,-50.0,14.5,39.0,95.40093750000001,27.58,0.182076125,32.84
2021-06-28 11:15:34.492187500,-50.0,14.75,39.0,95.40046875,27.64,0.1819960625,32.84
2021-06-28 11:15:34.500000000,-50.0,15.0,39.0,95.4,27.7,0.181916,32.84
2021-06-28 11:15:34.507812500,-50.0,14.75,39.0,95.39953125000001,27.48,0.18203609375,32.84
2021-06-28 11:15:34.515625000,-50.0,14.5,39.0,95.3990625,27.26,0.18215618749999998,32.84
2021-06-28 11:15:34.523437500,-50.0,14.25,39.0,95.39859375,26.86,0.18227628125,32.84
2021-06-28 11:15:34.531250000,-50.0,14.0,39.0,95.39812500000001,26.46,0.182396375,32.84
2021-06-28 11:15:34.539062500,-50.0,14.0,39.0,95.39765625000001,25.98,0.18251646875,32.84
2021-06-28 11:15:34.546875000,-50.0,14.0,39.0,95.3971875,25.5,0.1826365625,32.84
2021-06-28 11:15:34.554687500,-50.0,14.0,39.0,95.39671875,24.990000000000002,0.18275665625,32.84
2021-06-28 11:15:34.562500000,-50.0,14.0,39.0,95.39625000000001,24.48,0.18287675,32.84
2021-06-28 11:15:34.570312500,-50.0,14.0,39.0,95.39578125,23.945,0.18299684375,32.84
2021-06-28 11:15:34.578125000,-50.0,14.0,39.0,95.3953125,23.41,0.1831169375,32.84
2021-06-28 11:15:34.585937500,-50.0,14.0,39.0,95.39484375,22.835,0.18323703125,32.84
2021-06-28 11:15:34.593750000,-50.0,14.0,39.0,95.39437500000001,22.26,0.183357125,32.84
2021-06-28 11:15:34.601562500,-50.0,14.0,39.0,95.39390625,21.64,0.18347721875,32.84
2021-06-28 11:15:34.609375000,-50.0,14.0,39.0,95.3934375,21.02,0.1835973125,32.84
2021-06-28 11:15:34.617187500,-50.0,14.0,39.0,95.39296875000001,20.369999999999997,0.18371740625,32.84
2021-06-28 11:15:34.625000000,-50.0,14.0,39.0,95.39250000000001,19.72,0.1838375,32.84
2021-06-28 11:15:34.632812500,-49.75,14.25,39.0,95.39203125,19.095,0.18395759375,32.84
2021-06-28 11:15:34.640625000,-49.5,14.5,39.0,95.3915625,18.47,0.1840776875,32.84
2021-06-28 11:15:34.648437500,-49.25,14.75,39.0,95.39109375000001,17.915,0.18419778125,32.84
2021-06-28 11:15:34.656250000,-49.0,15.0,39.0,95.390625,17.36,0.184317875,32.84
2021-06-28 11:15:34.664062500,-49.25,15.0,39.0,95.39015625,16.9,0.18443796875000001,32.84
2021-06-28 11:15:34.671875000,-49.5,15.0,39.0,95.38968750000001,16.44,0.1845580625,32.84
2021-06-28 11:15:34.679687500,-49.75,15.0,39.0,95.38921875000001,16.05,0.18467815625,32.84
2021-06-28 11:15:34.687500000,-50.0,15.0,39.0,95.38875,15.66,0.18479825,32.84
2021-06-28 11:15:34.695312500,-50.0,14.75,39.0,95.38828125,15.23,0.18491834375,32.84
2021-06-28 11:15:34.703125000,-50.0,14.5,39.0,95.38781250000001,14.8,0.1850384375,32.84
2021-06-28 11:15:34.710937500,-50.0,14.25,39.0,95.38734375,14.195,0.18515853125,32.84
2021-06-28 11:15:34.718750000,-50.0,14.0,39.0,95.386875,13.59,0.185278625,32.84
2021-06-28 11:15:34.726562500,-50.0,14.0,39.0,95.38640625000001,12.675,0.18539871875,32.84
2021-06-28 11:15:34.734375000,-50.0,14.0,39.0,95.38593750000001,11.76,0.18551881250000002,32.84
2021-06-28 11:15:34.742187500,-50.0,14.0,39.0,95.38546875,10.48,0.18563890625,32.84
2021-06-28 11:15:34.750000000,-50.0,14.0,39.0,95.385,9.2,0.185759,32.84
2021-06-28 11:15:34.757812500,-50.0,14.0,39.0,95.38453125000001,7.595,0.18571896875000002,32.84
2021-06-28 11:15:34.765625000,-50.0,14.0,39.0,95.3840625,5.99,0.1856789375,32.84
2021-06-28 11:15:34.773437500,-50.0,14.0,39.0,95.38359375,4.19,0.18563890625,32.84
2021-06-28 11:15:34.781250000,-50.0,14.0,39.0,95.383125,2.39,0.185598875,32.84
2021-06-28 11:15:34.789062500,-50.0,14.0,39.0,95.38265625000001,0.565,0.18555884375,32.84
2021-06-28 11:15:34.796875000,-50.0,14.0,39.0,95.3821875,-1.26,0.18551881250000002,32.84
2021-06-28 11:15:34.804687500,-50.0,14.0,39.0,95.38171875,-2.9699999999999998,0.18547878125,32.84
2021-06-28 11:15:34.812500000,-50.0,14.0,39.0,95.38125000000001,-4.68,0.18543875,32.84
2021-06-28 11:15:34.820312500,-50.0,14.0,39.0,95.38078125,-6.199999999999999,0.18539871875,32.84
2021-06-28 11:15:34.828125000,-50.0,14.0,39.0,95.3803125,-7.72,0.1853586875,32.84
2021-06-28 11:15:34.835937500,-50.0,14.0,39.0,95.37984375,-9.075,0.18531865625000002,32.84
2021-06-28 11:15:34.843750000,-50.0,14.0,39.0,95.37937500000001,-10.43,0.185278625,32.84
2021-06-28 11:15:34.851562500,-50.0,14.0,39.0,95.37890625,-11.715,0.18523859375,32.84
2021-06-28 11:15:34.859375000,-50.0,14.0,39.0,95.3784375,-13.0,0.1851985625,32.84
2021-06-28 11:15:34.867187500,-50.0,14.0,39.0,95.37796875000001,-14.355,0.18515853125,32.84
2021-06-28 11:15:34.875000000,-50.0,14.0,39.0,95.3775,-15.71,0.18511850000000002,32.84
2021-06-28 11:15:34.882812500,-50.0,14.0,39.0,95.37703125,-17.275,0.18507846875,32.84
2021-06-28 11:15:34.890625000,-50.0,14.0,39.0,95.3765625,-18.84,0.1850384375,32.84
2021-06-28 11:15:34.898437500,-50.0,14.0,39.0,95.37609375000001,-20.685000000000002,0.18499840625,32.84
2021-06-28 11:15:34.906250000,-50.0,14.0,39.0,95.375625,-22.53,0.184958375,32.84
2021-06-28 11:15:34.914062500,-50.0,14.0,39.0,95.37515625,-24.62,0.18491834375,32.84
2021-06-28 11:15:34.921875000,-50.0,14.0,39.0,95.37468750000001,-26.71,0.1848783125,32.84
2021-06-28 11:15:34.929687500,-50.0,14.0,39.0,95.37421875000001,-28.825000000000003,0.18483828125,32.84
2021-06-28 11:15:34.937500000,-50.0,14.0,39.0,95.37375,-30.94,0.18479825,32.84
2021-06-28 11:15:34.945312500,-50.0,14.0,39.0,95.37328125,-32.725,0.18475821875,32.84
2021-06-28 11:15:34.953125000,-50.0,14.0,39.0,95.37281250000001,-34.51,0.1847181875,32.84
2021-06-28 11:15:34.960937500,-50.0,14.0,39.0,95.37234375,-35.515,0.18467815625,32.84
2021-06-28 11:15:34.968750000,-50.0,14.0,39.0,95.371875,-36.52,0.18463812500000001,32.84
2021-06-28 11:15:34.976562500,-50.0,14.0,39.0,95.37140625,-36.35,0.18459809375,32.84
2021-06-28 11:15:34.984375000,-50.0,14.0,39.0,95.37093750000001,-36.18,0.1845580625,32.84
2021-06-28 11:15:34.992187500,-50.0,14.0,39.0,95.37046875,-34.644999999999996,0.18451803125,32.84
2021-06-28 11:15:35.000000000,-50.0,14.0,39.0,95.37,-33.11,0.184478,32.84
2021-06-28 11:15:35.007812500,-50.0,14.0,38.75,95.36984375,-30.275,0.1843979375,32.84
2021-06-28 11:15:35.015625000,-50.0,14.0,38.5,95.3696875,-27.44,0.184317875,32.84
2021-06-28 11:15:35.023437500,-50.0,14.0,38.25,95.36953125000001,-23.64,0.18423781250000001,32.84
2021-06-28 11:15:35.031250000,-50.0,14.0,38.0,95.369375,-19.84,0.18415775,32.84
2021-06-28 11:15:35.039062500,-50.0,14.0,38.25,95.36921875,-15.565,0.1840776875,32.84
2021-06-28 11:15:35.046875000,-50.0,14.0,38.5,95.3690625,-11.29,0.183997625,32.84
2021-06-28 11:15:35.054687500,-50.0,14.0,38.75,95.36890625000001,-7.029999999999999,0.1839175625,32.84
2021-06-28 11:15:35.062500000,-50.0,14.0,39.0,95.36875,-2.77,0.1838375,32.84
2021-06-28 11:15:35.070312500,-50.0,14.0,39.0,95.36859375,1.1,0.1837574375,32.84
2021-06-28 11:15:35.078125000,-50.0,14.0,39.0,95.3684375,4.97,0.183677375,32.84
2021-06-28 11:15:35.085937500,-50.0,14.0,39.0,95.36828125000001,8.235,0.1835973125,32.84
2021-06-28 11:15:35.093750000,-50.0,14.0,39.0,95.368125,11.5,0.18351725,32.84
2021-06-28 11:15:35.101562500,-50.0,14.0,39.0,95.36796875,14.115,0.1834371875,32.84
2021-06-28 11:15:35.109375000,-50.0,14.0,39.0,95.3678125,16.73,0.183357125,32.84
2021-06-28 11:15:35.117187500,-50.0,14.0,39.0,95.36765625000001,18.72,0.1832770625,32.84
2021-06-28 11:15:35.125000000,-50.0,14.0,39.0,95.3675,20.71,0.183197,32.84
2021-06-28 11:15:35.132812500,-50.0,14.0,39.0,95.36734375,22.130000000000003,0.1831169375,32.84
2021-06-28 11:15:35.140625000,-50.0,14.0,39.0,95.3671875,23.55,0.183036875,32.84
2021-06-28 11:15:35.148437500,-50.0,14.0,39.0,95.36703125,24.455,0.1829568125,32.84
2021-06-28 11:15:35.156250000,-50.0,14.0,39.0,95.36687500000001,25.36,0.18287675,32.84
2021-06-28 11:15:35.164062500,-50.0,14.0,39.0,95.36671875,25.799999999999997,0.1827966875,32.84
2021-06-28 11:15:35.171875000,-50.0,14.0,39.0,95.3665625,26.24,0.182716625,32.84
2021-06-28 11:15:35.179687500,-50.0,14.0,39.0,95.36640625,26.275,0.1826365625,32.84
2021-06-28 11:15:35.187500000,-50.0,14.0,39.0,95.36625000000001,26.31,0.1825565,32.84
2021-06-28 11:15:35.195312500,-50.0,14.0,39.0,95.36609375,26.049999999999997,0.1824764375,32.84
2021-06-28 11:15:35.203125000,-50.0,14.0,39.0,95.3659375,25.79,0.182396375,32.84
2021-06-28 11:15:35.210937500,-50.0,14.0,39.0,95.36578125,25.36,0.1823163125,32.84
2021-06-28 11:15:35.218750000,-50.0,14.0,39.0,95.36562500000001,24.93,0.18223625,32.84
2021-06-28 11:15:35.226562500,-50.0,14.0,39.0,95.36546875,24.47,0.18215618749999998,32.84
2021-06-28 11:15:35.234375000,-50.0,14.0,39.0,95.3653125,24.01,0.182076125,32.84
2021-06-28 11:15:35.242187500,-50.0,14.0,39.0,95.36515625,23.61,0.1819960625,32.84
2021-06-28 11:15:35.250000000,-50.0,14.0,39.0,95.36500000000001,23.21,0.181916,32.84
2021-06-28 11:15:35.257812500,-50.0,14.0,39.0,95.36484375,22.880000000000003,0.1819960625,32.84
2021-06-28 11:15:35.265625000,-50.0,14.0,39.0,95.3646875,22.55,0.182076125,32.84
2021-06-28 11:15:35.273437500,-50.0,14.0,39.0,95.36453125,22.240000000000002,0.18215618749999998,32.84
2021-06-28 11:15:35.281250000,-50.0,14.0,39.0,95.364375,21.93,0.18223625,32.84
2021-06-28 11:15:35.289062500,-50.0,14.0,39.0,95.36421875,21.52,0.1823163125,32.84
2021-06-28 11:15:35.296875000,-50.0,14.0,39.0,95.3640625,21.11,0.182396375,32.84
2021-06-28 11:15:35.304687500,-50.0,14.0,39.0,95.36390625,20.509999999999998,0.1824764375,32.84
2021-06-28 11:15:35.312500000,-50.0,14.0,39.0,95.36375,19.91,0.1825565,32.84
2021-06-28 11:15:35.320312500,-50.0,14.0,39.0,95.36359375,19.09,0.1826365625,32.84
2021-06-28 11:15:35.328125000,-50.0,14.0,39.0,95.3634375,18.27,0.182716625,32.84
2021-06-28 11:15:35.335937500,-50.0,14.0,39.0,95.36328125,17.285,0.1827966875,32.84
2021-06-28 11:15:35.343750000,-50.0,14.0,39.0,95.363125,16.3,0.18287675,32.84
2021-06-28 11:15:35.351562500,-50.0,14.0,39.0,95.36296875000001,15.275,0.1829568125,32.84
2021-06-28 11:15:35.359375000,-50.0,14.0,39.0,95.3628125,14.25,0.183036875,32.84
2021-06-28 11:15:35.367187500,-50.0,14.0,39.0,95.36265625,13.34,0.1831169375,32.84
2021-06-28 11:15:35.375000000,-50.0,14.0,39.0,95.3625,12.43,0.183197,32.84
2021-06-28 11:15:35.382812500,-50.0,14.0,39.0,95.36234375,11.705,0.1832770625,32.84
2021-06-28 11:15:35.390625000,-50.0,14.0,39.0,95.3621875,10.98,0.183357125,32.84
2021-06-28 11:15:35.398437500,-50.0,14.0,39.0,95.36203125,10.425,0.1834371875,32.84
2021-06-28 11:15:35.406250000,-50.0,14.0,39.0,95.361875,9.87,0.18351725,32.84
2021-06-28 11:15:35.414062500,-50.0,14.0,39.0,95.36171875,9.36,0.1835973125,32.84
2021-06-28 11:15:35.421875000,-50.0,14.0,39.0,95.3615625,8.85,0.183677375,32.84
2021-06-28 11:15:35.429687500,-50.0,14.0,39.0,95.36140625,8.2,0.1837574375,32.84
2021-06-28 11:15:35.437500000,-50.0,14.0,39.0,95.36125,7.55,0.1838375,32.84
2021-06-28 11:15:35.445312500,-50.0,14.0,39.0,95.36109375,6.609999999999999,0.1839175625,32.84
2021-06-28 11:15:35.453125000,-50.0,14.0,39.0,95.3609375,5.67,0.183997625,32.84
2021-06-28 11:15:35.460937500,-50.0,14.0,39.0,95.36078125,4.38,0.1840776875,32.84
2021-06-28 11:15:35.468750000,-50.0,14.0,39.0,95.360625,3.09,0.18415775,32.84
2021-06-28 11:15:35.476562500,-50.0,14.0,39.0,95.36046875,1.545,0.18423781250000001,32.84
2021-06-28 11:15:35.484375000,-50.0,14.0,39.0,95.3603125,0.0,0.184317875,32.84
2021-06-28 11:15:35.492187500,-50.0,14.0,39.0,95.36015625,-1.615,0.1843979375,32.84
2021-06-28 11:15:35.500000000,-50.0,14.0,39.0,95.36,-3.23,0.184478,32.84
2021-06-28 11:15:35.507812500,-50.0,14.25,39.0,95.35984375,-4.73,0.18443796875000001,32.84
2021-06-28 11:15:35.515625000,-50.0,14.5,39.0,95.35968749999999,-6.23,0.1843979375,32.84
2021-06-28 11:15:35.523437500,-50.0,14.75,39.0,95.35953125,-7.505,0.18435790625,32.84
2021-06-28 11:15:35.531250000,-50.0,15.0,39.0,95.359375,-8.78,0.184317875,32.84
2021-06-28 11:15:35.539062500,-50.0,15.0,39.0,95.35921875,-9.864999999999998,0.18427784375,32.84
2021-06-28 11:15:35.546875000,-50.0,15.0,39.0,95.3590625,-10.95,0.18423781250000001,32.84
2021-06-28 11:15:35.554687500,-50.0,15.0,39.0,95.35890625,-11.95,0.18419778125,32.84
2021-06-28 11:15:35.562500000,-50.0,15.0,39.0,95.35875,-12.95,0.18415775,32.84
2021-06-28 11:15:35.570312500,-50.25,14.75,39.0,95.35859375,-14.01,0.18411771875,32.84
2021-06-28 11:15:35.578125000,-50.5,14.5,39.0,95.3584375,-15.07,0.1840776875,32.84
2021-06-28 11:15:35.585937500,-50.75,14.25,39.0,95.35828125,-16.265,0.18403765625000001,32.84
2021-06-28 11:15:35.593750000,-51.0,14.0,39.0,95.358125,-17.46,0.183997625,32.84
2021-06-28 11:15:35.601562500,-50.75,14.0,39.0,95.35796875,-18.82,0.18395759375,32.84
2021-06-28 11:15:35.609375000,-50.5,14.0,39.0,95.3578125,-20.18,0.1839175625,32.84
2021-06-28 11:15:35.617187500,-50.25,14.0,39.0,95.35765625,-21.695,0.18387753125,32.84
2021-06-28 11:15:35.625000000,-50.0,14.0,39.0,95.3575,-23.21,0.1838375,32.84
2021-06-28 11:15:35.632812500,-50.0,14.0,39.0,95.35734375,-24.89,0.18379746875,32.84
2021-06-28 11:15:35.640625000,-50.0,14.0,39.0,95.3571875,-26.57,0.1837574375,32.84
2021-06-28 11:15:35.648437500,-50.0,14.0,39.0,95.35703124999999,-28.41,0.18371740625,32.84
2021-06-28 11:15:35.656250000,-50.0,14.0,39.0,95.356875,-30.25,0.183677375,32.84
2021-06-28 11:15:35.664062500,-50.0,14.0,39.0,95.35671875,-32.18,0.18363734375,32.84
2021-06-28 11:15:35.671875000,-50.0,14.0,39.0,95.3565625,-34.11,0.1835973125,32.84
2021-06-28 11:15:35.679687500,-50.0,14.0,39.0,95.35640624999999,-35.94,0.18355728125,32.84
2021-06-28 11:15:35.687500000,-50.0,14.0,39.0,95.35625,-37.77,0.18351725,32.84
2021-06-28 11:15:35.695312500,-50.0,14.0,39.0,95.35609375,-39.14,0.18347721875,32.84
2021-06-28 11:15:35.703125000,-50.0,14.0,39.0,95.3559375,-40.51,0.1834371875,32.84
2021-06-28 11:15:35.710937500,-50.0,14.0,39.0,95.35578124999999,-41.015,0.18339715625,32.84
2021-06-28 11:15:35.718750000,-50.0,14.0,39.0,95.355625,-41.52,0.183357125,32.84
2021-06-28 11:15:35.726562500,-50.0,14.0,39.0,95.35546875,-40.835,0.18331709375,32.84
2021-06-28 11:15:35.734375000,-50.0,14.0,39.0,95.3553125,-40.15,0.1832770625,32.84
2021-06-28 11:15:35.742187500,-50.0,14.0,39.0,95.35515625,-38.175,0.18323703125,32.84
2021-06-28 11:15:35.750000000,-50.0,14.0,39.0,95.35499999999999,-36.2,0.183197,32.84
2021-06-28 11:15:35.757812500,-50.0,14.0,39.0,95.35484375,-33.120000000000005,0.1832770625,32.84
2021-06-28 11:15:35.765625000,-50.0,14.0,39.0,95.3546875,-30.04,0.183357125,32.84
2021-06-28 11:15:35.773437500,-50.0,14.0,39.0,95.35453125,-26.27,0.1834371875,32.84
2021-06-28 11:15:35.781250000,-50.0,14.0,39.0,95.35437499999999,-22.5,0.18351725,32.84
2021-06-28 11:15:35.789062500,-50.0,14.0,39.0,95.35421875,-18.525,0.1835973125,32.84
2021-06-28 11:15:35.796875000,-50.0,14.0,39.0,95.3540625,-14.55,0.183677375,32.84
2021-06-28 11:15:35.804687500,-50.0,14.0,39.0,95.35390625,-10.8,0.1837574375,32.84
2021-06-28 11:15:35.812500000,-50.0,14.0,39.0,95.35374999999999,-7.05,0.1838375,32.84
2021-06-28 11:15:35.820312500,-50.0,14.0,39.0,95.35359375,-3.815,0.1839175625,32.84
2021-06-28 11:15:35.828125000,-50.0,14.0,39.0,95.3534375,-0.58,0.183997625,32.84
2021-06-28 11:15:35.835937500,-50.0,14.0,39.0,95.35328125,2.01,0.1840776875,32.84
2021-06-28 11:15:35.843750000,-50.0,14.0,39.0,95.35312499999999,4.6,0.18415775,32.84
2021-06-28 11:15:35.851562500,-50.0,14.0,39.0,95.35296875,6.535,0.18423781250000001,32.84
2021-06-28 11:15:35.859375000,-50.0,14.0,39.0,95.3528125,8.47,0.184317875,32.84
2021-06-28 11:15:35.867187500,-50.0,14.0,39.0,95.35265625,9.780000000000001,0.1843979375,32.84
2021-06-28 11:15:35.875000000,-50.0,14.0,39.0,95.35249999999999,11.09,0.184478,32.84
2021-06-28 11:15:35.882812500,-50.0,14.0,39.0,95.35234374999999,11.844999999999999,0.1845580625,32.84
2021-06-28 11:15:35.890625000,-50.0,14.0,39.0,95.3521875,12.6,0.18463812500000001,32.84
2021-06-28 11:15:35.898437500,-50.0,14.0,39.0,95.35203125,12.895,0.1847181875,32.84
2021-06-28 11:15:35.906250000,-50.0,14.0,39.0,95.35187499999999,13.19,0.18479825,32.84
2021-06-28 11:15:35.914062500,-50.0,14.0,39.0,95.35171874999999,13.155,0.1848783125,32.84
2021-06-28 11:15:35.921875000,-50.0,14.0,39.0,95.3515625,13.12,0.184958375,32.84
2021-06-28 11:15:35.929687500,-50.0,14.0,39.0,95.35140625,12.899999999999999,0.1850384375,32.84
2021-06-28 11:15:35.937500000,-50.0,14.0,39.0,95.35125,12.68,0.18511850000000002,32.84
2021-06-28 11:15:35.945312500,-50.0,14.0,39.0,95.35109374999999,12.44,0.1851985625,32.84
2021-06-28 11:15:35.953125000,-50.0,14.0,39.0,95.3509375,12.2,0.185278625,32.84
2021-06-28 11:15:35.960937500,-50.0,14.0,39.0,95.35078125,12.055,0.1853586875,32.84
2021-06-28 11:15:35.968750000,-50.0,14.0,39.0,95.350625,11.91,0.18543875,32.84
2021-06-28 11:15:35.976562500,-50.0,14.25,39.0,95.35046874999999,11.925,0.18551881250000002,32.84
2021-06-28 11:15:35.984375000,-50.0,14.5,39.0,95.3503125,11.94,0.185598875,32.84
2021-06-28 11:15:35.992187500,-50.0,14.75,39.0,95.35015625,12.105,0.1856789375,32.84
2021-06-28 11:15:36.000000000,-50.0,15.0,39.0,95.35,12.27,0.185759,32.84
2021-06-28 11:15:36.007812500,-50.0,14.75,39.0,95.34984374999999,12.52,0.1856789375,32.84
2021-06-28 11:15:36.015625000,-50.0,14.5,39.0,95.34968749999999,12.77,0.185598875,32.84
2021-06-28 11:15:36.023437500,-50.0,14.25,39.0,95.34953125,13.024999999999999,0.18551881250000002,32.84
2021-06-28 11:15:36.031250000,-50.0,14.0,39.0,95.349375,13.28,0.18543875,32.84
2021-06-28 11:15:36.039062500,-50.0,14.25,39.0,95.34921874999999,13.46,0.1853586875,32.84
2021-06-28 11:15:36.046875000,-50.0,14.5,39.0,95.34906249999999,13.64,0.185278625,32.84
2021-06-28 11:15:36.054687500,-50.0,14.75,39.0,95.34890625,13.7,0.1851985625,32.84
2021-06-28 11:15:36.062500000,-50.0,15.0,39.0,95.34875,13.76,0.18511850000000002,32.84
2021-06-28 11:15:36.070312500,-50.0,14.75,39.0,95.34859374999999,13.7,0.1850384375,32.84
2021-06-28 11:15:36.078125000,-50.0,14.5,39.0,95.34843749999999,13.64,0.184958375,32.84
2021-06-28 11:15:36.085937500,-50.0,14.25,39.0,95.34828125,13.485,0.1848783125,32.84
2021-06-28 11:15:36.093750000,-50.0,14.0,39.0,95.348125,13.33,0.18479825,32.84
2021-06-28 11:15:36.101562500,-50.0,14.0,39.0,95.34796874999999,13.120000000000001,0.1847181875,32.84
2021-06-28 11:15:36.109375000,-50.0,14.0,39.0,95.34781249999999,12.91,0.18463812500000001,32.84
2021-06-28 11:15:36.117187500,-50.0,14.0,39.0,95.34765625,12.655000000000001,0.1845580625,32.84
2021-06-28 11:15:36.125000000,-50.0,14.0,39.0,95.3475,12.4,0.184478,32.84
2021-06-28 11:15:36.132812500,-50.0,14.0,39.0,95.34734375,12.06,0.1843979375,32.84
2021-06-28 11:15:36.140625000,-50.0,14.0,39.0,95.34718749999999,11.72,0.184317875,32.84
2021-06-28 11:15:36.148437500,-50.0,14.0,39.0,95.34703125,11.235,0.18423781250000001,32.84
2021-06-28 11:15:36.156250000,-50.0,14.0,39.0,95.346875,10.75,0.18415775,32.84
2021-06-28 11:15:36.164062500,-50.0,14.0,39.0,95.34671875,10.04,0.1840776875,32.84
2021-06-28 11:15:36.171875000,-50.0,14.0,39.0,95.34656249999999,9.33,0.183997625,32.84
2021-06-28 11:15:36.179687500,-50.0,14.0,39.0,95.34640625,8.365,0.1839175625,32.84
2021-06-28 11:15:36.187500000,-50.0,14.0,39.0,95.34625,7.4,0.1838375,32.84
2021-06-28 11:15:36.195312500,-50.0,14.0,39.0,95.34609375,6.195,0.1837574375,32.84
2021-06-28 11:15:36.203125000,-50.0,14.0,39.0,95.34593749999999,4.99,0.183677375,32.84
2021-06-28 11:15:36.210937500,-50.0,14.0,39.0,95.34578125,3.6500000000000004,0.1835973125,32.84
2021-06-28 11:15:36.218750000,-50.0,14.0,39.0,95.345625,2.31,0.18351725,32.84
2021-06-28 11:15:36.226562500,-50.0,14.0,39.0,95.34546875,0.9450000000000001,0.1834371875,32.84
2021-06-28 11:15:36.234375000,-50.0,14.0,39.0,95.34531249999999,-0.42,0.183357125,32.84
2021-06-28 11:15:36.242187500,-50.0,14.0,39.0,95.34515625,-1.7149999999999999,0.1832770625,32.84
2021-06-28 11:15:36.250000000,-50.0,14.0,39.0,95.345,-3.01,0.183197,32.84
2021-06-28 11:15:36.257812500,-50.0,14.0,39.0,95.34484375,-4.215,0.1832770625,32.84
2021-06-28 11:15:36.265625000,-50.0,14.0,39.0,95.34468749999999,-5.42,0.183357125,32.84
2021-06-28 11:15:36.273437500,-50.0,14.0,39.0,95.34453124999999,-6.625,0.1834371875,32.84
2021-06-28 11:15:36.281250000,-50.0,14.0,39.0,95.344375,-7.83,0.18351725,32.84
2021-06-28 11:15:36.289062500,-50.0,14.25,39.0,95.34421875,-9.14,0.1835973125,32.84
2021-06-28 11:15:36.296875000,-50.0,14.5,39.0,95.34406249999999,-10.45,0.183677375,32.84
2021-06-28 11:15:36.304687500,-50.0,14.75,39.0,95.34390624999999,-11.975,0.1837574375,32.84
2021-06-28 11:15:36.312500000,-50.0,15.0,39.0,95.34375,-13.5,0.1838375,32.84
2021-06-28 11:15:36.320312500,-50.0,14.75,39.0,95.34359375,-15.235,0.1839175625,32.84
2021-06-28 11:15:36.328125000,-50.0,14.5,39.0,95.3434375,-16.97,0.183997625,32.84
2021-06-28 11:15:36.335937500,-50.0,14.25,39.0,95.34328124999999,-18.785,0.1840776875,32.84
2021-06-28 11:15:36.343750000,-50.0,14.0,39.0,95.343125,-20.6,0.18415775,32.84
2021-06-28 11:15:36.351562500,-50.0,14.0,39.0,95.34296875,-22.25,0.18423781250000001,32.84
2021-06-28 11:15:36.359375000,-50.0,14.0,39.0,95.3428125,-23.9,0.184317875,32.84
2021-06-28 11:15:36.367187500,-50.0,14.0,39.0,95.34265624999999,-25.1,0.1843979375,32.84
2021-06-28 11:15:36.375000000,-50.0,14.0,39.0,95.3425,-26.3,0.184478,32.84
2021-06-28 11:15:36.382812500,-50.0,14.0,39.0,95.34234375,-26.79,0.1845580625,32.84
2021-06-28 11:15:36.390625000,-50.0,14.0,39.0,95.3421875,-27.28,0.18463812500000001,32.84
2021-06-28 11:15:36.398437500,-50.0,14.0,39.0,95.34203124999999,-26.91,0.1847181875,32.84
2021-06-28 11:15:36.406250000,-50.0,14.0,39.0,95.341875,-26.54,0.18479825,32.84
2021-06-28 11:15:36.414062500,-50.0,14.0,39.0,95.34171875,-25.27,0.1848783125,32.84
2021-06-28 11:15:36.421875000,-50.0,14.0,39.0,95.3415625,-24.0,0.184958375,32.84
2021-06-28 11:15:36.429687500,-50.0,14.0,39.0,95.34140624999999,-21.93,0.1850384375,32.84
2021-06-28 11:15:36.437500000,-50.0,14.0,39.0,95.34125,-19.86,0.18511850000000002,32.84
2021-06-28 11:15:36.445312500,-50.0,14.25,39.0,95.34109375,-17.17,0.1851985625,32.84
2021-06-28 11:15:36.453125000,-50.0,14.5,39.0,95.3409375,-14.48,0.185278625,32.84
2021-06-28 11:15:36.460937500,-50.0,14.75,39.0,95.34078124999999,-11.415,0.1853586875,32.84
2021-06-28 11:15:36.468750000,-50.0,15.0,39.0,95.340625,-8.35,0.18543875,32.84
2021-06-28 11:15:36.476562500,-50.0,14.75,39.0,95.34046875,-5.195,0.18551881250000002,32.84
2021-06-28 11:15:36.484375000,-50.0,14.5,39.0,95.3403125,-2.04,0.185598875,32.84
2021-06-28 11:15:36.492187500,-50.0,14.25,39.0,95.34015624999999,0.9299999999999997,0.1856789375,32.84
2021-06-28 11:15:36.500000000,-50.0,14.0,39.0,95.34,3.9,0.185759,32.84
2021-06-28 11:15:36.507812500,-50.0,14.0,39.0,95.33984375,6.469999999999999,0.1856789375,32.84
2021-06-28 11:15:36.515625000,-50.0,14.0,39.0,95.3396875,9.04,0.185598875,32.84
2021-06-28 11:15:36.523437500,-50.0,14.0,39.0,95.33953125,11.059999999999999,0.18551881250000002,32.84
2021-06-28 11:15:36.531250000,-50.0,14.0,39.0,95.33937499999999,13.08,0.18543875,32.84
2021-06-28 11:15:36.539062500,-50.0,14.25,39.0,95.33921875,14.495000000000001,0.1853586875,32.84
2021-06-28 11:15:36.546875000,-50.0,14.5,39.0,95.3390625,15.91,0.185278625,32.84
2021-06-28 11:15:36.554687500,-50.0,14.75,39.0,95.33890625,16.735,0.1851985625,32.84
2021-06-28 11:15:36.562500000,-50.0,15.0,39.0,95.33874999999999,17.56,0.18511850000000002,32.84
2021-06-28 11:15:36.570312500,-50.0,14.75,39.0,95.33859375,17.869999999999997,0.1850384375,32.84
2021-06-28 11:15:36.578125000,-50.0,14.5,39.0,95.3384375,18.18,0.184958375,32.84
2021-06-28 11:15:36.585937500,-50.0,14.25,39.0,95.33828125,18.060000000000002,0.1848783125,32.84
2021-06-28 11:15:36.593750000,-50.0,14.0,39.0,95.33812499999999,17.94,0.18479825,32.84
2021-06-28 11:15:36.601562500,-50.0,14.0,39.0,95.33796875,17.5,0.1847181875,32.84
2021-06-28 11:15:36.609375000,-50.0,14.0,39.0,95.3378125,17.06,0.18463812500000001,32.84
2021-06-28 11:15:36.617187500,-50.0,14.0,39.0,95.33765625,16.424999999999997,0.1845580625,32.84
2021-06-28 11:15:36.625000000,-50.0,14.0,39.0,95.33749999999999,15.79,0.184478,32.84
2021-06-28 11:15:36.632812500,-50.0,14.25,39.0,95.33734375,15.079999999999998,0.1843979375,32.84
2021-06-28 11:15:36.640625000,-50.0,14.5,39.0,95.3371875,14.37,0.184317875,32.84
2021-06-28 11:15:36.648437500,-50.0,14.75,39.0,95.33703125,13.704999999999998,0.18423781250000001,32.84
2021-06-28 11:15:36.656250000,-50.0,15.0,39.0,95.33687499999999,13.04,0.18415775,32.84
2021-06-28 11:15:36.664062500,-50.0,14.75,39.0,95.33671875,12.51,0.1840776875,32.84
2021-06-28 11:15:36.671875000,-50.0,14.5,39.0,95.3365625,11.98,0.183997625,32.84
2021-06-28 11:15:36.679687500,-50.0,14.25,39.0,95.33640625,11.629999999999999,0.1839175625,32.84
2021-06-28 11:15:36.687500000,-50.0,14.0,39.0,95.33624999999999,11.28,0.1838375,32.84
2021-06-28 11:15:36.695312500,-50.0,14.25,39.0,95.33609375,11.1,0.1837574375,32.84
2021-06-28 11:15:36.703125000,-50.0,14.5,39.0,95.3359375,10.92,0.183677375,32.84
2021-06-28 11:15:36.710937500,-50.0,14.75,39.0,95.33578125,10.875,0.1835973125,32.84
2021-06-28 11:15:36.718750000,-50.0,15.0,39.0,95.335625,10.83,0.18351725,32.84
2021-06-28 11:15:36.726562500,-50.0,14.75,39.0,95.33546875,10.85,0.1834371875,32.84
2021-06-28 11:15:36.734375000,-50.0,14.5,39.0,95.3353125,10.87,0.183357125,32.84
2021-06-28 11:15:36.742187500,-50.0,14.25,39.0,95.33515625,10.92,0.1832770625,32.84
2021-06-28 11:15:36.750000000,-50.0,14.0,39.0,95.335,10.97,0.183197,32.84
2021-06-28 11:15:36.757812500,-50.0,14.0,39.0,95.33484374999999,10.995000000000001,0.183317125,32.84
2021-06-28 11:15:36.765625000,-50.0,14.0,39.0,95.3346875,11.02,0.18343725,32.84
2021-06-28 11:15:36.773437500,-50.0,14.0,39.0,95.33453125,10.96,0.183557375,32.84
2021-06-28 11:15:36.781250000,-50.0,14.0,39.0,95.334375,10.9,0.1836775,32.84
2021-06-28 11:15:36.789062500,-50.0,14.25,39.0,95.33421874999999,10.7,0.183797625,32.84
2021-06-28 11:15:36.796875000,-50.0,14.5,39.0,95.3340625,10.5,0.18391775,32.84
2021-06-28 11:15:36.804687500,-50.0,14.75,39.0,95.33390625,10.094999999999999,0.184037875,32.84
2021-06-28 11:15:36.812500000,-50.0,15.0,39.0,95.33375,9.69,0.184158,32.84
2021-06-28 11:15:36.820312500,-50.0,15.0,39.0,95.33359374999999,9.055,0.18427812500000001,32.84
2021-06-28 11:15:36.828125000,-50.0,15.0,39.0,95.3334375,8.42,0.18439825,32.84
2021-06-28 11:15:36.835937500,-50.0,15.0,39.0,95.33328125,7.55,0.184518375,32.84
2021-06-28 11:15:36.843750000,-50.0,15.0,39.0,95.333125,6.68,0.1846385,32.84
2021-06-28 11:15:36.851562500,-50.0,14.75,39.0,95.33296874999999,5.615,0.184758625,32.84
2021-06-28 11:15:36.859375000,-50.0,14.5,39.0,95.3328125,4.55,0.18487875,32.84
2021-06-28 11:15:36.867187500,-50.0,14.25,39.0,95.33265625,3.3449999999999998,0.184998875,32.84
2021-06-28 11:15:36.875000000,-50.0,14.0,39.0,95.3325,2.14,0.185119,32.84
2021-06-28 11:15:36.882812500,-50.0,14.0,39.0,95.33234374999999,0.8500000000000001,0.185239125,32.84
2021-06-28 11:15:36.890625000,-50.0,14.0,39.0,95.3321875,-0.44,0.18535925,32.84
2021-06-28 11:15:36.898437500,-50.0,14.0,39.0,95.33203125,-1.805,0.185479375,32.84
2021-06-28 11:15:36.906250000,-50.0,14.0,39.0,95.331875,-3.17,0.1855995,32.84
2021-06-28 11:15:36.914062500,-50.0,14.25,39.0,95.33171875,-4.625,0.185719625,32.84
2021-06-28 11:15:36.921875000,-50.0,14.5,39.0,95.3315625,-6.08,0.18583975,32.84
2021-06-28 11:15:36.929687500,-50.0,14.75,39.0,95.33140625,-7.705,0.185959875,32.84
2021-06-28 11:15:36.937500000,-50.0,15.0,39.0,95.33125,-9.33,0.18608000000000002,32.84
2021-06-28 11:15:36.945312500,-50.0,15.0,39.0,95.33109375,-11.190000000000001,0.18620012500000002,32.84
2021-06-28 11:15:36.953125000,-50.0,15.0,39.0,95.3309375,-13.05,0.18632025000000002,32.84
2021-06-28 11:15:36.960937500,-50.0,15.0,39.0,95.33078125,-15.205,0.18644037500000002,32.84
2021-06-28 11:15:36.968750000,-50.0,15.0,39.0,95.330625,-17.36,0.18656050000000002,32.84
2021-06-28 11:15:36.976562500,-50.0,14.75,39.0,95.33046875,-19.755,0.18668062500000002,32.84
2021-06-28 11:15:36.984375000,-50.0,14.5,39.0,95.3303125,-22.15,0.18680075000000002,32.84
2021-06-28 11:15:36.992187500,-50.0,14.25,39.0,95.33015625,-24.604999999999997,0.18692087500000001,32.84
2021-06-28 11:15:37.000000000,-50.0,14.0,39.0,95.33,-27.06,0.187041,32.84
2021-06-28 11:15:37.007812500,-50.0,14.25,39.0,95.329921875,-29.275,0.18692087500000001,32.84
2021-06-28 11:15:37.015625000,-50.0,14.5,39.0,95.32984375,-31.49,0.18680075000000002,32.84
2021-06-28 11:15:37.023437500,-50.0,14.75,39.0,95.329765625,-33.095,0.18668062500000002,32.84
2021-06-28 11:15:37.031250000,-50.0,15.0,39.0,95.32968749999999,-34.7,0.18656050000000002,32.84
2021-06-28 11:15:37.039062500,-50.0,15.0,39.0,95.329609375,-35.38,0.18644037500000002,32.84
2021-06-28 11:15:37.046875000,-50.0,15.0,39.0,95.32953125,-36.06,0.18632025000000002,32.84
2021-06-28 11:15:37.054687500,-50.0,15.0,39.0,95.329453125,-35.64,0.18620012500000002,32.84
2021-06-28 11:15:37.062500000,-50.0,15.0,39.0,95.329375,-35.22,0.18608000000000002,32.84
2021-06-28 11:15:37.070312500,-50.0,14.75,39.0,95.329296875,-33.7,0.185959875,32.84
2021-06-28 11:15:37.078125000,-50.0,14.5,39.0,95.32921875,-32.18,0.18583975,32.84
2021-06-28 11:15:37.085937500,-50.0,14.25,39.0,95.329140625,-29.775,0.185719625,32.84
2021-06-28 11:15:37.093750000,-50.0,14.0,39.0,95.32906249999999,-27.37,0.1855995,32.84
2021-06-28 11:15:37.101562500,-49.75,14.25,39.0,95.328984375,-24.395000000000003,0.185479375,32.84
2021-06-28 11:15:37.109375000,-49.5,14.5,39.0,95.32890625,-21.42,0.18535925,32.84
2021-06-28 11:15:37.117187500,-49.25,14.75,39.0,95.328828125,-18.22,0.185239125,32.84
2021-06-28 11:15:37.125000000,-49.0,15.0,39.0,95.32875,-15.02,0.185119,32.84
2021-06-28 11:15:37.132812500,-49.25,15.0,39.0,95.328671875,-11.885,0.184998875,32.84
2021-06-28 11:15:37.140625000,-49.5,15.0,39.0,95.32859375,-8.75,0.18487875,32.84
2021-06-28 11:15:37.148437500,-49.75,15.0,39.0,95.328515625,-5.9,0.184758625,32.84
2021-06-28 11:15:37.156250000,-50.0,15.0,39.0,95.32843749999999,-3.05,0.1846385,32.84
2021-06-28 11:15:37.164062500,-50.0,14.75,39.0,95.32835937499999,-0.5999999999999996,0.184518375,32.84
2021-06-28 11:15:37.171875000,-50.0,14.5,39.0,95.32828125,1.85,0.18439825,32.84
2021-06-28 11:15:37.179687500,-50.0,14.25,39.0,95.328203125,3.8200000000000003,0.18427812500000001,32.84
2021-06-28 11:15:37.187500000,-50.0,14.0,39.0,95.328125,5.79,0.184158,32.84
2021-06-28 11:15:37.195312500,-50.0,14.0,39.0,95.328046875,7.25,0.184037875,32.84
2021-06-28 11:15:37.203125000,-50.0,14.0,39.0,95.32796875,8.71,0.18391775,32.84
2021-06-28 11:15:37.210937500,-50.0,14.0,39.0,95.327890625,9.620000000000001,0.183797625,32.84
2021-06-28 11:15:37.218750000,-50.0,14.0,39.0,95.3278125,10.53,0.1836775,32.84
2021-06-28 11:15:37.226562500,-50.0,14.25,39.0,95.32773437499999,10.895,0.183557375,32.84
2021-06-28 11:15:37.234375000,-50.0,14.5,39.0,95.32765625,11.26,0.18343725,32.84
2021-06-28 11:15:37.242187500,-50.0,14.75,39.0,95.327578125,11.145,0.183317125,32.84
2021-06-28 11:15:37.250000000,-50.0,15.0,39.0,95.3275,11.03,0.183197,32.84
2021-06-28 11:15:37.257812500,-49.75,14.75,39.0,95.327421875,10.55,0.1832770625,32.84
2021-06-28 11:15:37.265625000,-49.5,14.5,39.0,95.32734375,10.07,0.183357125,32.84
2021-06-28 11:15:37.273437500,-49.25,14.25,39.0,95.327265625,9.415,0.1834371875,32.84
2021-06-28 11:15:37.281250000,-49.0,14.0,39.0,95.3271875,8.76,0.18351725,32.84
2021-06-28 11:15:37.289062500,-49.25,14.0,39.0,95.32710937499999,8.129999999999999,0.1835973125,32.84
2021-06-28 11:15:37.296875000,-49.5,14.0,39.0,95.32703124999999,7.5,0.183677375,32.84
2021-06-28 11:15:37.304687500,-49.75,14.0,39.0,95.326953125,7.0600000000000005,0.1837574375,32.84
2021-06-28 11:15:37.312500000,-50.0,14.0,39.0,95.326875,6.62,0.1838375,32.84
2021-06-28 11:15:37.320312500,-50.0,14.25,39.0,95.326796875,6.4350000000000005,0.1839175625,32.84
2021-06-28 11:15:37.328125000,-50.0,14.5,39.0,95.32671875,6.25,0.183997625,32.84
2021-06-28 11:15:37.335937500,-50.0,14.75,39.0,95.326640625,6.285,0.1840776875,32.84
2021-06-28 11:15:37.343750000,-50.0,15.0,39.0,95.3265625,6.32,0.18415775,32.84
2021-06-28 11:15:37.351562500,-50.0,14.75,39.0,95.32648437499999,6.465,0.18423781250000001,32.84
2021-06-28 11:15:37.359375000,-50.0,14.5,39.0,95.32640624999999,6.61,0.184317875,32.84
2021-06-28 11:15:37.367187500,-50.0,14.25,39.0,95.326328125,6.75,0.1843979375,32.84
2021-06-28 11:15:37.375000000,-50.0,14.0,39.0,95.32625,6.89,0.184478,32.84
2021-06-28 11:15:37.382812500,-50.0,14.0,39.0,95.326171875,6.9350000000000005,0.1845580625,32.84
2021-06-28 11:15:37.390625000,-50.0,14.0,39.0,95.32609375,6.98,0.18463812500000001,32.84
2021-06-28 11:15:37.398437500,-50.0,14.0,39.0,95.326015625,6.905,0.1847181875,32.84
2021-06-28 11:15:37.406250000,-50.0,14.0,39.0,95.3259375,6.83,0.18479825,32.84
2021-06-28 11:15:37.414062500,-50.0,14.0,39.0,95.325859375,6.63,0.1848783125,32.84
2021-06-28 11:15:37.421875000,-50.0,14.0,39.0,95.32578124999999,6.43,0.184958375,32.84
2021-06-28 11:15:37.429687500,-50.0,14.0,39.0,95.32570312499999,6.105,0.1850384375,32.84
2021-06-28 11:15:37.437500000,-50.0,14.0,39.0,95.325625,5.78,0.18511850000000002,32.84
2021-06-28 11:15:37.445312500,-50.0,14.0,39.0,95.325546875,5.3100000000000005,0.1851985625,32.84
2021-06-28 11:15:37.453125000,-50.0,14.0,39.0,95.32546875,4.84,0.185278625,32.84
2021-06-28 11:15:37.460937500,-50.0,14.0,39.0,95.325390625,4.205,0.1853586875,32.84
2021-06-28 11:15:37.468750000,-50.0,14.0,39.0,95.3253125,3.57,0.18543875,32.84
2021-06-28 11:15:37.476562500,-50.0,14.25,39.0,95.325234375,2.755,0.18551881250000002,32.84
2021-06-28 11:15:37.484375000,-50.0,14.5,39.0,95.32515624999999,1.94,0.185598875,32.84
2021-06-28 11:15:37.492187500,-50.0,14.75,39.0,95.32507812499999,0.97,0.1856789375,32.84
2021-06-28 11:15:37.500000000,-50.0,15.0,39.0,95.32499999999999,0.0,0.185759,32.84
2021-06-28 11:15:37.507812500,-50.0,15.0,39.0,95.324921875,-1.06,0.18571896875000002,32.84
2021-06-28 11:15:37.515625000,-50.0,15.0,39.0,95.32484375,-2.12,0.1856789375,32.84
2021-06-28 11:15:37.523437500,-50.0,15.0,39.0,95.324765625,-3.2,0.18563890625,32.84
2021-06-28 11:15:37.531250000,-50.0,15.0,39.0,95.3246875,-4.28,0.185598875,32.84
2021-06-28 11:15:37.539062500,-50.0,14.75,39.0,95.324609375,-5.35,0.18555884375,32.84
2021-06-28 11:15:37.546875000,-50.0,14.5,39.0,95.32453124999999,-6.42,0.18551881250000002,32.84
2021-06-28 11:15:37.554687500,-50.0,14.25,39.0,95.32445312499999,-7.485,0.18547878125,32.84
2021-06-28 11:15:37.562500000,-50.0,14.0,39.0,95.32437499999999,-8.55,0.18543875,32.84
2021-06-28 11:15:37.570312500,-50.0,14.0,39.0,95.324296875,-9.690000000000001,0.18539871875,32.84
2021-06-28 11:15:37.578125000,-50.0,14.0,39.0,95.32421875,-10.83,0.1853586875,32.84
2021-06-28 11:15:37.585937500,-50.0,14.0,39.0,95.324140625,-12.14,0.18531865625000002,32.84
2021-06-28 11:15:37.593750000,-50.0,14.0,39.0,95.3240625,-13.45,0.185278625,32.84
2021-06-28 11:15:37.601562500,-50.0,14.0,39.0,95.323984375,-15.035,0.18523859375,32.84
2021-06-28 11:15:37.609375000,-50.0,14.0,39.0,95.32390625,-16.62,0.1851985625,32.84
2021-06-28 11:15:37.617187500,-50.0,14.0,39.0,95.32382812499999,-18.54,0.18515853125,32.84
2021-06-28 11:15:37.625000000,-50.0,14.0,39.0,95.32374999999999,-20.46,0.18511850000000002,32.84
2021-06-28 11:15:37.632812500,-50.0,14.0,39.0,95.32367187499999,-22.634999999999998,0.18507846875,32.84
2021-06-28 11:15:37.640625000,-50.0,14.0,39.0,95.32359375,-24.81,0.1850384375,32.84
2021-06-28 11:15:37.648437500,-50.0,14.0,39.0,95.323515625,-27.02,0.18499840625,32.84
2021-06-28 11:15:37.656250000,-50.0,14.0,39.0,95.3234375,-29.23,0.184958375,32.84
2021-06-28 11:15:37.664062500,-50.0,14.0,39.0,95.323359375,-31.130000000000003,0.18491834375,32.84
2021-06-28 11:15:37.671875000,-50.0,14.0,39.0,95.32328125,-33.03,0.1848783125,32.84
2021-06-28 11:15:37.679687500,-50.0,14.0,39.0,95.32320312499999,-34.205,0.18483828125,32.84
2021-06-28 11:15:37.687500000,-50.0,14.0,39.0,95.32312499999999,-35.38,0.18479825,32.84
2021-06-28 11:15:37.695312500,-50.0,14.0,39.0,95.32304687499999,-35.475,0.18475821875,32.84
2021-06-28 11:15:37.703125000,-50.0,14.0,39.0,95.32296875,-35.57,0.1847181875,32.84
2021-06-28 11:15:37.710937500,-50.0,14.0,39.0,95.322890625,-34.435,0.18467815625,32.84
2021-06-28 11:15:37.718750000,-50.0,14.0,39.0,95.3228125,-33.3,0.18463812500000001,32.84
2021-06-28 11:15:37.726562500,-50.0,14.0,39.0,95.322734375,-31.0,0.18459809375,32.84
2021-06-28 11:15:37.734375000,-50.0,14.0,39.0,95.32265625,-28.7,0.1845580625,32.84
2021-06-28 11:15:37.742187500,-50.0,14.0,39.0,95.32257812499999,-25.545,0.18451803125,32.84
2021-06-28 11:15:37.750000000,-50.0,14.0,39.0,95.32249999999999,-22.39,0.184478,32.84
2021-06-28 11:15:37.757812500,-50.0,14.0,39.0,95.32242187499999,-18.79,0.18451803125,32.84
2021-06-28 11:15:37.765625000,-50.0,14.0,39.0,95.32234374999999,-15.19,0.1845580625,32.84
2021-06-28 11:15:37.773437500,-50.0,14.0,39.0,95.322265625,-11.555,0.18459809375,32.84
2021-06-28 11:15:37.781250000,-50.0,14.0,39.0,95.3221875,-7.92,0.18463812500000001,32.84
2021-06-28 11:15:37.789062500,-50.0,14.25,39.0,95.322109375,-4.529999999999999,0.18467815625,32.84
2021-06-28 11:15:37.796875000,-50.0,14.5,39.0,95.32203125,-1.14,0.1847181875,32.84
2021-06-28 11:15:37.804687500,-50.0,14.75,39.0,95.321953125,1.84,0.18475821875,32.84
2021-06-28 11:15:37.812500000,-50.0,15.0,39.0,95.32187499999999,4.82,0.18479825,32.84
2021-06-28 11:15:37.820312500,-50.0,15.0,39.0,95.32179687499999,7.345,0.18483828125,32.84
2021-06-28 11:15:37.828125000,-50.0,15.0,39.0,95.32171874999999,9.87,0.1848783125,32.84
2021-06-28 11:15:37.835937500,-50.0,15.0,39.0,95.321640625,11.94,0.18491834375,32.84
2021-06-28 11:15:37.843750000,-50.0,15.0,39.0,95.3215625,14.01,0.184958375,32.84
2021-06-28 11:15:37.851562500,-50.0,14.75,39.0,95.321484375,15.614999999999998,0.18499840625,32.84
2021-06-28 11:15:37.859375000,-50.0,14.5,39.0,95.32140625,17.22,0.1850384375,32.84
2021-06-28 11:15:37.867187500,-50.0,14.25,39.0,95.321328125,18.345,0.18507846875,32.84
2021-06-28 11:15:37.875000000,-50.0,14.0,39.0,95.32124999999999,19.47,0.18511850000000002,32.84
2021-06-28 11:15:37.882812500,-50.0,14.0,39.0,95.32117187499999,20.11,0.18515853125,32.84
2021-06-28 11:15:37.890625000,-50.0,14.0,39.0,95.32109374999999,20.75,0.1851985625,32.84
2021-06-28 11:15:37.898437500,-50.0,14.0,39.0,95.32101562499999,20.93,0.18523859375,32.84
2021-06-28 11:15:37.906250000,-50.0,14.0,39.0,95.3209375,21.11,0.185278625,32.84
2021-06-28 11:15:37.914062500,-50.0,14.0,39.0,95.320859375,20.939999999999998,0.18531865625000002,32.84
2021-06-28 11:15:37.921875000,-50.0,14.0,39.0,95.32078125,20.77,0.1853586875,32.84
2021-06-28 11:15:37.929687500,-50.0,14.0,39.0,95.320703125,20.384999999999998,0.18539871875,32.84
2021-06-28 11:15:37.937500000,-50.0,14.0,39.0,95.32062499999999,20.0,0.18543875,32.84
2021-06-28 11:15:37.945312500,-50.0,14.25,39.0,95.32054687499999,19.535,0.18547878125,32.84
2021-06-28 11:15:37.953125000,-50.0,14.5,39.0,95.32046874999999,19.07,0.18551881250000002,32.84
2021-06-28 11:15:37.960937500,-50.0,14.75,39.0,95.32039062499999,18.630000000000003,0.18555884375,32.84
2021-06-28 11:15:37.968750000,-50.0,15.0,39.0,95.3203125,18.19,0.185598875,32.84
2021-06-28 11:15:37.976562500,-50.0,14.75,39.0,95.320234375,17.8,0.18563890625,32.84
2021-06-28 11:15:37.984375000,-50.0,14.5,39.0,95.32015625,17.41,0.1856789375,32.84
2021-06-28 11:15:37.992187500,-50.0,14.25,39.0,95.320078125,17.07,0.18571896875000002,32.84
2021-06-28 11:15:38.000000000,-50.0,14.0,39.0,95.32,16.73,0.185759,32.84
2021-06-28 11:15:38.007812500,-50.0,14.0,39.0,95.319609375,16.41,0.18571896875000002,32.84
2021-06-28 11:15:38.015625000,-50.0,14.0,39.0,95.31921874999999,16.09,0.1856789375,32.84
2021-06-28 11:15:38.023437500,-50.0,14.0,39.0,95.318828125,15.780000000000001,0.18563890625,32.84
2021-06-28 11:15:38.031250000,-50.0,14.0,39.0,95.31843749999999,15.47,0.185598875,32.84
2021-06-28 11:15:38.039062500,-50.0,14.0,39.0,95.318046875,15.18,0.18555884375,32.84
2021-06-28 11:15:38.046875000,-50.0,14.0,39.0,95.31765625,14.89,0.18551881250000002,32.84
2021-06-28 11:15:38.054687500,-50.0,14.0,39.0,95.31726562499999,14.635000000000002,0.18547878125,32.84
2021-06-28 11:15:38.062500000,-50.0,14.0,39.0,95.316875,14.38,0.18543875,32.84
2021-06-28 11:15:38.070312500,-50.25,14.0,39.0,95.31648437499999,14.115,0.18539871875,32.84
2021-06-28 11:15:38.078125000,-50.5,14.0,39.0,95.31609375,13.85,0.1853586875,32.84
2021-06-28 11:15:38.085937500,-50.75,14.0,39.0,95.315703125,13.504999999999999,0.18531865625000002,32.84
2021-06-28 11:15:38.093750000,-51.0,14.0,39.0,95.31531249999999,13.16,0.185278625,32.84
2021-06-28 11:15:38.101562500,-50.75,14.0,39.0,95.314921875,12.620000000000001,0.18523859375,32.84
2021-06-28 11:15:38.109375000,-50.5,14.0,39.0,95.31453124999999,12.08,0.1851985625,32.84
2021-06-28 11:15:38.117187500,-50.25,14.0,39.0,95.314140625,11.25,0.18515853125,32.84
2021-06-28 11:15:38.125000000,-50.0,14.0,39.0,95.31375,10.42,0.18511850000000002,32.84
2021-06-28 11:15:38.132812500,-50.0,14.0,39.0,95.31335937499999,9.280000000000001,0.18507846875,32.84
2021-06-28 11:15:38.140625000,-50.0,14.0,39.0,95.31296875,8.14,0.1850384375,32.84
2021-06-28 11:15:38.148437500,-50.0,14.0,39.0,95.31257812499999,6.76,0.18499840625,32.84
2021-06-28 11:15:38.156250000,-50.0,14.0,39.0,95.3121875,5.38,0.184958375,32.84
2021-06-28 11:15:38.164062500,-50.0,14.0,39.0,95.311796875,3.9,0.18491834375,32.84
2021-06-28 11:15:38.171875000,-50.0,14.0,39.0,95.31140624999999,2.42,0.1848783125,32.84
2021-06-28 11:15:38.179687500,-50.0,14.0,39.0,95.311015625,0.9550000000000001,0.18483828125,32.84
2021-06-28 11:15:38.187500000,-50.0,14.0,39.0,95.31062499999999,-0.51,0.18479825,32.84
2021-06-28 11:15:38.195312500,-50.0,14.0,39.0,95.310234375,-1.885,0.18475821875,32.84
2021-06-28 11:15:38.203125000,-50.0,14.0,39.0,95.30984375,-3.26,0.1847181875,32.84
2021-06-28 11:15:38.210937500,-50.0,14.0,39.0,95.30945312499999,-4.58,0.18467815625,32.84
2021-06-28 11:15:38.218750000,-50.0,14.0,39.0,95.3090625,-5.9,0.18463812500000001,32.84
2021-06-28 11:15:38.226562500,-50.0,14.0,39.0,95.30867187499999,-7.2700000000000005,0.18459809375,32.84
2021-06-28 11:15:38.234375000,-50.0,14.0,39.0,95.30828125,-8.64,0.1845580625,32.84
2021-06-28 11:15:38.242187500,-50.0,14.0,39.0,95.307890625,-10.185,0.18451803125,32.84
2021-06-28 11:15:38.250000000,-50.0,14.0,39.0,95.30749999999999,-11.73,0.184478,32.84
2021-06-28 11:15:38.257812500,-50.0,14.0,39.0,95.307109375,-13.555,0.18451803125,32.84
2021-06-28 11:15:38.265625000,-50.0,14.0,39.0,95.30671874999999,-15.38,0.1845580625,32.84
2021-06-28 11:15:38.273437500,-50.0,14.0,39.0,95.306328125,-17.525000000000002,0.18459809375,32.84
2021-06-28 11:15:38.281250000,-50.0,14.0,39.0,95.3059375,-19.67,0.18463812500000001,32.84
2021-06-28 11:15:38.289062500,-50.0,14.0,39.0,95.30554687499999,-22.075000000000003,0.18467815625,32.84
2021-06-28 11:15:38.296875000,-50.0,14.0,39.0,95.30515625,-24.48,0.1847181875,32.84
2021-06-28 11:15:38.304687500,-50.0,14.0,39.0,95.30476562499999,-26.97,0.18475821875,32.84
2021-06-28 11:15:38.312500000,-50.0,14.0,39.0,95.304375,-29.46,0.18479825,32.84
2021-06-28 11:15:38.320312500,-50.0,14.0,39.0,95.303984375,-31.740000000000002,0.18483828125,32.84
2021-06-28 11:15:38.328125000,-50.0,14.0,39.0,95.30359374999999,-34.02,0.1848783125,32.84
2021-06-28 11:15:38.335937500,-50.0,14.0,39.0,95.303203125,-35.705,0.18491834375,32.84
2021-06-28 11:15:38.343750000,-50.0,14.0,39.0,95.30281249999999,-37.39,0.184958375,32.84
2021-06-28 11:15:38.351562500,-50.0,14.0,39.0,95.302421875,-38.09,0.18499840625,32.84
2021-06-28 11:15:38.359375000,-50.0,14.0,39.0,95.30203125,-38.79,0.1850384375,32.84
2021-06-28 11:15:38.367187500,-50.0,14.0,39.0,95.30164062499999,-38.230000000000004,0.18507846875,32.84
2021-06-28 11:15:38.375000000,-50.0,14.0,39.0,95.30125,-37.67,0.18511850000000002,32.84
2021-06-28 11:15:38.382812500,-50.0,14.0,39.0,95.30085937499999,-35.765,0.18515853125,32.84
2021-06-28 11:15:38.390625000,-50.0,14.0,39.0,95.30046875,-33.86,0.1851985625,32.84
2021-06-28 11:15:38.398437500,-50.0,14.0,39.0,95.300078125,-30.810000000000002,0.18523859375,32.84
2021-06-28 11:15:38.406250000,-50.0,14.0,39.0,95.29968749999999,-27.76,0.185278625,32.84
2021-06-28 11:15:38.414062500,-50.0,14.0,39.0,95.299296875,-23.97,0.18531865625000002,32.84
2021-06-28 11:15:38.421875000,-50.0,14.0,39.0,95.29890624999999,-20.18,0.1853586875,32.84
2021-06-28 11:15:38.429687500,-50.0,14.0,39.0,95.298515625,-16.15,0.18539871875,32.84
2021-06-28 11:15:38.437500000,-50.0,14.0,39.0,95.298125,-12.12,0.18543875,32.84
2021-06-28 11:15:38.445312500,-50.0,14.0,39.0,95.29773437499999,-8.295,0.18547878125,32.84
2021-06-28 11:15:38.453125000,-50.0,14.0,39.0,95.29734375,-4.47,0.18551881250000002,32.84
2021-06-28 11:15:38.460937500,-50.0,14.0,39.0,95.29695312499999,-1.13,0.18555884375,32.84
2021-06-28 11:15:38.468750000,-50.0,14.0,39.0,95.2965625,2.21,0.185598875,32.84
2021-06-28 11:15:38.476562500,-50.0,14.0,39.0,95.296171875,4.945,0.18563890625,32.84
2021-06-28 11:15:38.484375000,-50.0,14.0,39.0,95.29578124999999,7.68,0.1856789375,32.84
2021-06-28 11:15:38.492187500,-50.0,14.0,39.0,95.295390625,9.809999999999999,0.18571896875000002,32.84
2021-06-28 11:15:38.500000000,-50.0,14.0,39.0,95.29499999999999,11.94,0.185759,32.84
2021-06-28 11:15:38.507812500,-50.0,14.0,39.0,95.294609375,13.5,0.18571896875000002,32.84
2021-06-28 11:15:38.515625000,-50.0,14.0,39.0,95.29421875,15.06,0.1856789375,32.84
2021-06-28 11:15:38.523437500,-50.0,14.0,39.0,95.29382812499999,16.075,0.18563890625,32.84
2021-06-28 11:15:38.531250000,-50.0,14.0,39.0,95.2934375,17.09,0.185598875,32.84
2021-06-28 11:15:38.539062500,-50.0,14.0,39.0,95.293046875,17.575,0.18555884375,32.84
2021-06-28 11:15:38.546875000,-50.0,14.0,39.0,95.29265625,18.06,0.18551881250000002,32.84
2021-06-28 11:15:38.554687500,-50.0,14.0,39.0,95.292265625,18.06,0.18547878125,32.84
2021-06-28 11:15:38.562500000,-50.0,14.0,39.0,95.29187499999999,18.06,0.18543875,32.84
2021-06-28 11:15:38.570312500,-50.0,14.0,39.0,95.291484375,17.67,0.18539871875,32.84
2021-06-28 11:15:38.578125000,-50.0,14.0,39.0,95.29109375,17.28,0.1853586875,32.84
2021-06-28 11:15:38.585937500,-50.0,14.0,39.0,95.290703125,16.68,0.18531865625000002,32.84
2021-06-28 11:15:38.593750000,-50.0,14.0,39.0,95.2903125,16.08,0.185278625,32.84
2021-06-28 11:15:38.601562500,-50.0,14.0,39.0,95.28992187499999,15.44,0.18523859375,32.84
2021-06-28 11:15:38.609375000,-50.0,14.0,39.0,95.28953125,14.8,0.1851985625,32.84
2021-06-28 11:15:38.617187500,-50.0,14.0,39.0,95.289140625,14.275,0.18515853125,32.84
2021-06-28 11:15:38.625000000,-50.0,14.0,39.0,95.28875,13.75,0.18511850000000002,32.84
2021-06-28 11:15:38.632812500,-50.0,14.0,39.0,95.288359375,13.379999999999999,0.18507846875,32.84
2021-06-28 11:15:38.640625000,-50.0,14.0,39.0,95.28796874999999,13.01,0.1850384375,32.84
2021-06-28 11:15:38.648437500,-50.0,14.0,39.0,95.287578125,12.77,0.18499840625,32.84
2021-06-28 11:15:38.656250000,-50.0,14.0,39.0,95.2871875,12.53,0.184958375,32.84
2021-06-28 11:15:38.664062500,-50.0,14.0,39.0,95.286796875,12.34,0.18491834375,32.84
2021-06-28 11:15:38.671875000,-50.0,14.0,39.0,95.28640625,12.15,0.1848783125,32.84
2021-06-28 11:15:38.679687500,-50.0,14.0,39.0,95.28601562499999,11.935,0.18483828125,32.84
2021-06-28 11:15:38.687500000,-50.0,14.0,39.0,95.285625,11.72,0.18479825,32.84
2021-06-28 11:15:38.695312500,-50.0,14.0,39.0,95.285234375,11.445,0.18475821875,32.84
2021-06-28 11:15:38.703125000,-50.0,14.0,39.0,95.28484375,11.17,0.1847181875,32.84
2021-06-28 11:15:38.710937500,-50.0,14.0,39.0,95.284453125,10.85,0.18467815625,32.84
2021-06-28 11:15:38.718750000,-50.0,14.0,39.0,95.28406249999999,10.53,0.18463812500000001,32.84
2021-06-28 11:15:38.726562500,-50.0,14.0,39.0,95.283671875,10.215,0.18459809375,32.84
2021-06-28 11:15:38.734375000,-50.0,14.0,39.0,95.28328125,9.9,0.1845580625,32.84
2021-06-28 11:15:38.742187500,-50.0,14.0,39.0,95.282890625,9.605,0.18451803125,32.84
2021-06-28 11:15:38.750000000,-50.0,14.0,39.0,95.2825,9.31,0.184478,32.84
2021-06-28 11:15:38.757812500,-50.0,14.25,39.0,95.28210937499999,8.995000000000001,0.18455809375,32.84
2021-06-28 11:15:38.765625000,-50.0,14.5,39.0,95.28171875,8.68,0.1846381875,32.84
2021-06-28 11:15:38.773437500,-50.0,14.75,39.0,95.281328125,8.26,0.18471828125,32.84
2021-06-28 11:15:38.781250000,-50.0,15.0,39.0,95.2809375,7.84,0.18479837500000001,32.84
2021-06-28 11:15:38.789062500,-50.0,15.0,39.0,95.280546875,7.199999999999999,0.18487846875,32.84
2021-06-28 11:15:38.796875000,-50.0,15.0,39.0,95.28015624999999,6.56,0.1849585625,32.84
2021-06-28 11:15:38.804687500,-50.0,15.0,39.0,95.279765625,5.635,0.18503865625000002,32.84
2021-06-28 11:15:38.812500000,-50.0,15.0,39.0,95.279375,4.71,0.18511875,32.84
2021-06-28 11:15:38.820312500,-50.0,14.75,39.0,95.278984375,3.52,0.18519884375,32.84
2021-06-28 11:15:38.828125000,-50.0,14.5,39.0,95.27859375,2.33,0.18527893750000002,32.84
2021-06-28 11:15:38.835937500,-50.0,14.25,39.0,95.27820312499999,0.97,0.18535903125,32.84
2021-06-28 11:15:38.843750000,-50.0,14.0,39.0,95.2778125,-0.39,0.185439125,32.84
2021-06-28 11:15:38.851562500,-50.0,14.0,39.0,95.277421875,-1.775,0.18551921875000002,32.84
2021-06-28 11:15:38.859375000,-50.0,14.0,39.0,95.27703125,-3.16,0.1855993125,32.84
2021-06-28 11:15:38.867187500,-50.0,14.0,39.0,95.276640625,-4.45,0.18567940625,32.84
2021-06-28 11:15:38.875000000,-50.0,14.0,39.0,95.27624999999999,-5.74,0.18575950000000002,32.84
2021-06-28 11:15:38.882812500,-50.0,14.0,39.0,95.275859375,-6.8950000000000005,0.18583959375,32.84
2021-06-28 11:15:38.890625000,-50.0,14.0,39.0,95.27546875,-8.05,0.1859196875,32.84
2021-06-28 11:15:38.898437500,-50.0,14.0,39.0,95.275078125,-9.14,0.18599978125,32.84
2021-06-28 11:15:38.906250000,-50.0,14.0,39.0,95.2746875,-10.23,0.186079875,32.84
2021-06-28 11:15:38.914062500,-50.0,14.0,39.0,95.27429687499999,-11.405000000000001,0.18615996875000002,32.84
2021-06-28 11:15:38.921875000,-50.0,14.0,39.0,95.27390625,-12.58,0.1862400625,32.84
2021-06-28 11:15:38.929687500,-50.0,14.0,39.0,95.273515625,-14.01,0.18632015625,32.84
2021-06-28 11:15:38.937500000,-50.0,14.0,39.0,95.273125,-15.44,0.18640025000000002,32.84
2021-06-28 11:15:38.945312500,-50.0,14.25,39.0,95.272734375,-17.22,0.18648034375,32.84
2021-06-28 11:15:38.953125000,-50.0,14.5,39.0,95.27234374999999,-19.0,0.1865604375,32.84
2021-06-28 11:15:38.960937500,-50.0,14.75,39.0,95.271953125,-21.08,0.18664053125000002,32.84
2021-06-28 11:15:38.968750000,-50.0,15.0,39.0,95.2715625,-23.16,0.186720625,32.84
2021-06-28 11:15:38.976562500,-50.0,14.75,39.0,95.271171875,-25.3,0.18680071875,32.84
2021-06-28 11:15:38.984375000,-50.0,14.5,39.0,95.27078125,-27.44,0.18688081250000002,32.84
2021-06-28 11:15:38.992187500,-50.0,14.25,39.0,95.27039062499999,-29.265,0.18696090625,32.84
2021-06-28 11:15:39.000000000,-50.0,14.0,39.0,95.27,-31.09,0.187041,32.84
2021-06-28 11:15:39.007812500,-50.0,14.0,39.0,95.26773437499999,-32.16,0.187041,32.84
2021-06-28 11:15:39.015625000,-50.0,14.0,39.0,95.26546875,-33.23,0.187041,32.84
2021-06-28 11:15:39.023437500,-50.0,14.0,39.0,95.26320312499999,-33.209999999999994,0.187041,32.84
2021-06-28 11:15:39.031250000,-50.0,14.0,39.0,95.2609375,-33.19,0.187041,32.84
2021-06-28 11:15:39.039062500,-49.75,14.25,39.0,95.25867187499999,-31.919999999999998,0.187041,32.84
2021-06-28 11:15:39.046875000,-49.5,14.5,39.0,95.25640625,-30.65,0.187041,32.84
2021-06-28 11:15:39.054687500,-49.25,14.75,39.0,95.25414062499999,-28.24,0.187041,32.84
2021-06-28 11:15:39.062500000,-49.0,15.0,39.0,95.251875,-25.83,0.187041,32.84
2021-06-28 11:15:39.070312500,-49.25,14.75,39.0,95.24960937499999,-22.6,0.187041,32.84
2021-06-28 11:15:39.078125000,-49.5,14.5,39.0,95.24734375,-19.37,0.187041,32.84
2021-06-28 11:15:39.085937500,-49.75,14.25,39.0,95.24507812499999,-15.775,0.187041,32.84
2021-06-28 11:15:39.093750000,-50.0,14.0,39.0,95.2428125,-12.18,0.187041,32.84
2021-06-28 11:15:39.101562500,-50.0,14.0,39.0,95.24054687499999,-8.65,0.187041,32.84
2021-06-28 11:15:39.109375000,-50.0,14.0,39.0,95.23828125,-5.12,0.187041,32.84
2021-06-28 11:15:39.117187500,-50.0,14.0,39.0,95.236015625,-1.9649999999999999,0.187041,32.84
2021-06-28 11:15:39.125000000,-50.0,14.0,39.0,95.23375,1.19,0.187041,32.84
2021-06-28 11:15:39.132812500,-50.0,14.0,39.0,95.231484375,3.7950000000000004,0.187041,32.84
2021-06-28 11:15:39.140625000,-50.0,14.0,39.0,95.22921875,6.4,0.187041,32.84
2021-06-28 11:15:39.148437500,-50.0,14.0,39.0,95.226953125,8.42,0.187041,32.84
2021-06-28 11:15:39.156250000,-50.0,14.0,39.0,95.2246875,10.44,0.187041,32.84
2021-06-28 11:15:39.164062500,-50.0,14.0,39.0,95.222421875,11.879999999999999,0.187041,32.84
2021-06-28 11:15:39.171875000,-50.0,14.0,39.0,95.22015625,13.32,0.187041,32.84
2021-06-28 11:15:39.179687500,-50.0,14.0,39.0,95.217890625,14.21,0.187041,32.84
2021-06-28 11:15:39.187500000,-50.0,14.0,39.0,95.215625,15.1,0.187041,32.84
2021-06-28 11:15:39.195312500,-50.0,14.0,39.0,95.213359375,15.434999999999999,0.187041,32.84
2021-06-28 11:15:39.203125000,-50.0,14.0,39.0,95.21109375,15.77,0.187041,32.84
2021-06-28 11:15:39.210937500,-50.0,14.0,39.0,95.208828125,15.57,0.187041,32.84
2021-06-28 11:15:39.218750000,-50.0,14.0,39.0,95.2065625,15.37,0.187041,32.84
2021-06-28 11:15:39.226562500,-50.0,14.25,39.0,95.204296875,14.715,0.187041,32.84
2021-06-28 11:15:39.234375000,-50.0,14.5,39.0,95.20203125,14.06,0.187041,32.84
2021-06-28 11:15:39.242187500,-50.0,14.75,39.0,95.199765625,13.105,0.187041,32.84
2021-06-28 11:15:39.250000000,-50.0,15.0,39.0,95.19749999999999,12.15,0.187041,32.84
2021-06-28 11:15:39.257812500,-50.0,15.0,39.0,95.195234375,11.11,0.18700093750000002,32.84
2021-06-28 11:15:39.265625000,-50.0,15.0,39.0,95.19296874999999,10.07,0.18696087500000003,32.84
2021-06-28 11:15:39.273437500,-50.0,15.0,39.0,95.190703125,9.15,0.1869208125,32.84
2021-06-28 11:15:39.281250000,-50.0,15.0,39.0,95.18843749999999,8.23,0.18688075,32.84
2021-06-28 11:15:39.289062500,-50.0,14.75,39.0,95.186171875,7.585000000000001,0.18684068750000002,32.84
2021-06-28 11:15:39.296875000,-50.0,14.5,39.0,95.18390624999999,6.94,0.186800625,32.84
2021-06-28 11:15:39.304687500,-50.0,14.25,39.0,95.181640625,6.615,0.1867605625,32.84
2021-06-28 11:15:39.312500000,-50.0,14.0,39.0,95.179375,6.29,0.1867205,32.84
2021-06-28 11:15:39.320312500,-50.0,14.0,39.0,95.177109375,6.23,0.18668043750000002,32.84
2021-06-28 11:15:39.328125000,-50.0,14.0,39.0,95.17484375,6.17,0.18664037500000003,32.84
2021-06-28 11:15:39.335937500,-50.0,14.0,39.0,95.172578125,6.26,0.1866003125,32.84
2021-06-28 11:15:39.343750000,-50.0,14.0,39.0,95.1703125,6.35,0.18656025,32.84
2021-06-28 11:15:39.351562500,-50.0,14.0,39.25,95.168046875,6.465,0.18652018750000002,32.84
2021-06-28 11:15:39.359375000,-50.0,14.0,39.5,95.16578125,6.58,0.186480125,32.84
2021-06-28 11:15:39.367187500,-50.0,14.0,39.75,95.163515625,6.609999999999999,0.1864400625,32.84
2021-06-28 11:15:39.375000000,-50.0,14.0,40.0,95.16125,6.64,0.1864,32.84
2021-06-28 11:15:39.382812500,-50.0,14.0,39.75,95.158984375,6.52,0.18635993750000002,32.84
2021-06-28 11:15:39.390625000,-50.0,14.0,39.5,95.15671875,6.4,0.18631987500000002,32.84
2021-06-28 11:15:39.398437500,-50.0,14.0,39.25,95.154453125,6.105,0.1862798125,32.84
2021-06-28 11:15:39.406250000,-50.0,14.0,39.0,95.1521875,5.81,0.18623975,32.84
2021-06-28 11:15:39.414062500,-49.5,14.25,38.5,95.149921875,5.345,0.18619968750000002,32.84
2021-06-28 11:15:39.421875000,-49.0,14.5,38.0,95.14765625,4.88,0.186159625,32.84
2021-06-28 11:15:39.429687500,-48.5,14.75,37.5,95.145390625,4.27,0.1861195625,32.84
2021-06-28 11:15:39.437500000,-48.0,15.0,37.0,95.143125,3.66,0.1860795,32.84
2021-06-28 11:15:39.445312500,-48.5,14.75,37.75,95.140859375,2.9450000000000003,0.18603943750000002,32.84
2021-06-28 11:15:39.453125000,-49.0,14.5,38.5,95.13859375,2.23,0.18599937500000002,32.84
2021-06-28 11:15:39.460937500,-49.5,14.25,39.25,95.136328125,1.455,0.1859593125,32.84
2021-06-28 11:15:39.468750000,-50.0,14.0,40.0,95.1340625,0.68,0.18591925,32.84
2021-06-28 11:15:39.476562500,-50.0,14.0,39.75,95.131796875,-0.11499999999999999,0.18587918750000001,32.84
2021-06-28 11:15:39.484375000,-50.0,14.0,39.5,95.12953125,-0.91,0.185839125,32.84
2021-06-28 11:15:39.492187500,-50.0,14.0,39.25,95.127265625,-1.7199999999999998,0.1857990625,32.84
2021-06-28 11:15:39.500000000,-50.0,14.0,39.0,95.125,-2.53,0.185759,32.84
2021-06-28 11:15:39.507812500,-50.0,14.0,39.0,95.122734375,-3.3499999999999996,0.18583909375000002,32.84
2021-06-28 11:15:39.515625000,-50.0,14.0,39.0,95.12046875,-4.17,0.1859191875,32.84
2021-06-28 11:15:39.523437500,-50.0,14.0,39.0,95.118203125,-5.055,0.18599928125,32.84
2021-06-28 11:15:39.531250000,-50.0,14.0,39.0,95.1159375,-5.94,0.186079375,32.84
2021-06-28 11:15:39.539062500,-50.0,14.0,39.0,95.113671875,-6.94,0.18615946875,32.84
2021-06-28 11:15:39.546875000,-50.0,14.0,39.0,95.11140625,-7.94,0.1862395625,32.84
2021-06-28 11:15:39.554687500,-50.0,14.0,39.0,95.109140625,-9.13,0.18631965625,32.84
2021-06-28 11:15:39.562500000,-50.0,14.0,39.0,95.106875,-10.32,0.18639975,32.84
2021-06-28 11:15:39.570312500,-50.0,14.25,39.0,95.104609375,-11.754999999999999,0.18647984375,32.84
2021-06-28 11:15:39.578125000,-50.0,14.5,39.0,95.10234375,-13.19,0.1865599375,32.84
2021-06-28 11:15:39.585937500,-50.0,14.75,39.0,95.100078125,-14.850000000000001,0.18664003125,32.84
2021-06-28 11:15:39.593750000,-50.0,15.0,39.0,95.0978125,-16.51,0.18672012500000001,32.84
2021-06-28 11:15:39.601562500,-50.0,14.75,39.0,95.095546875,-18.270000000000003,0.18680021875,32.84
2021-06-28 11:15:39.609375000,-50.0,14.5,39.0,95.09328125,-20.03,0.1868803125,32.84
2021-06-28 11:15:39.617187500,-50.0,14.25,39.0,95.091015625,-21.625,0.18696040625,32.84
2021-06-28 11:15:39.625000000,-50.0,14.0,39.0,95.08875,-23.22,0.1870405,32.84
2021-06-28 11:15:39.632812500,-50.0,14.0,39.0,95.086484375,-24.29,0.18712059375,32.84
2021-06-28 11:15:39.640625000,-50.0,14.0,39.0,95.08421875,-25.36,0.1872006875,32.84
2021-06-28 11:15:39.648437500,-50.0,14.0,39.0,95.081953125,-25.525,0.18728078125,32.84
2021-06-28 11:15:39.656250000,-50.0,14.0,39.0,95.0796875,-25.69,0.18736087499999998,32.84
2021-06-28 11:15:39.664062500,-50.0,14.0,39.0,95.077421875,-24.68,0.18744096875,32.84
2021-06-28 11:15:39.671875000,-50.0,14.0,39.0,95.07515625,-23.67,0.1875210625,32.84
2021-06-28 11:15:39.679687500,-50.0,14.0,39.0,95.072890625,-21.42,0.18760115624999998,32.84
2021-06-28 11:15:39.687500000,-50.0,14.0,39.0,95.070625,-19.17,0.18768125,32.84
2021-06-28 11:15:39.695312500,-50.0,14.0,39.0,95.068359375,-15.865000000000002,0.18776134375,32.84
2021-06-28 11:15:39.703125000,-50.0,14.0,39.0,95.06609375000001,-12.56,0.18784143749999999,32.84
2021-06-28 11:15:39.710937500,-50.0,14.0,39.0,95.063828125,-8.6,0.18792153125,32.84
2021-06-28 11:15:39.718750000,-50.0,14.0,39.0,95.06156250000001,-4.64,0.188001625,32.84
2021-06-28 11:15:39.726562500,-50.0,14.25,39.0,95.059296875,-0.5249999999999995,0.18808171875,32.84
2021-06-28 11:15:39.734375000,-50.0,14.5,39.0,95.05703125000001,3.59,0.1881618125,32.84
2021-06-28 11:15:39.742187500,-50.0,14.75,39.0,95.054765625,7.385,0.18824190624999998,32.84
2021-06-28 11:15:39.750000000,-50.0,15.0,39.0,95.05250000000001,11.18,0.188322,32.84
2021-06-28 11:15:39.757812500,-50.0,14.75,39.0,95.050234375,14.35,0.188201875,32.84
2021-06-28 11:15:39.765625000,-50.0,14.5,39.0,95.04796875,17.52,0.18808175,32.84
2021-06-28 11:15:39.773437500,-50.0,14.25,39.0,95.045703125,19.92,0.187961625,32.84
2021-06-28 11:15:39.781250000,-50.0,14.0,39.0,95.0434375,22.32,0.1878415,32.84
2021-06-28 11:15:39.789062500,-50.0,14.0,39.0,95.041171875,23.975,0.187721375,32.84
2021-06-28 11:15:39.796875000,-50.0,14.0,39.0,95.03890625,25.63,0.18760125,32.84
2021-06-28 11:15:39.804687500,-50.0,14.0,39.0,95.036640625,26.63,0.187481125,32.84
2021-06-28 11:15:39.812500000,-50.0,14.0,39.0,95.034375,27.63,0.187361,32.84
2021-06-28 11:15:39.820312500,-50.0,14.25,39.0,95.032109375,28.08,0.187240875,32.84
2021-06-28 11:15:39.828125000,-50.0,14.5,39.0,95.02984375,28.53,0.18712075,32.84
2021-06-28 11:15:39.835937500,-50.0,14.75,39.0,95.027578125,28.515,0.187000625,32.84
2021-06-28 11:15:39.843750000,-50.0,15.0,39.0,95.0253125,28.5,0.1868805,32.84
2021-06-28 11:15:39.851562500,-50.0,14.75,39.0,95.023046875,28.075,0.186760375,32.84
2021-06-28 11:15:39.859375000,-50.0,14.5,39.0,95.02078125,27.65,0.18664025,32.84
2021-06-28 11:15:39.867187500,-50.0,14.25,39.0,95.018515625,26.905,0.186520125,32.84
2021-06-28 11:15:39.875000000,-50.0,14.0,39.0,95.01625,26.16,0.1864,32.84
2021-06-28 11:15:39.882812500,-50.0,14.0,39.0,95.013984375,25.21,0.18627987499999998,32.84
2021-06-28 11:15:39.890625000,-50.0,14.0,39.0,95.01171875,24.26,0.18615974999999998,32.84
2021-06-28 11:15:39.898437500,-50.0,14.0,39.0,95.00945312500001,23.245,0.186039625,32.84
2021-06-28 11:15:39.906250000,-50.0,14.0,39.0,95.0071875,22.23,0.1859195,32.84
2021-06-28 11:15:39.914062500,-50.0,14.25,39.0,95.00492187500001,21.28,0.185799375,32.84
2021-06-28 11:15:39.921875000,-50.0,14.5,39.0,95.00265625,20.33,0.18567925,32.84
2021-06-28 11:15:39.929687500,-50.0,14.75,39.0,95.00039062500001,19.494999999999997,0.185559125,32.84
2021-06-28 11:15:39.937500000,-50.0,15.0,39.0,94.998125,18.66,0.185439,32.84
2021-06-28 11:15:39.945312500,-50.0,14.75,39.0,94.99585937500001,17.92,0.185318875,32.84
2021-06-28 11:15:39.953125000,-50.0,14.5,39.0,94.99359375,17.18,0.18519875,32.84
2021-06-28 11:15:39.960937500,-50.0,14.25,39.0,94.99132812500001,16.45,0.185078625,32.84
2021-06-28 11:15:39.968750000,-50.0,14.0,39.0,94.9890625,15.72,0.1849585,32.84
2021-06-28 11:15:39.976562500,-50.0,14.0,39.0,94.98679687500001,14.9,0.184838375,32.84
2021-06-28 11:15:39.984375000,-50.0,14.0,39.0,94.98453125,14.08,0.18471825,32.84
2021-06-28 11:15:39.992187500,-50.0,14.0,39.0,94.98226562500001,13.120000000000001,0.184598125,32.84
2021-06-28 11:15:40.000000000,-50.0,14.0,39.0,94.98,12.16,0.184478,32.84
2021-06-28 11:15:40.007812500,-50.0,14.25,39.0,94.97640625000001,11.075,0.184478,32.84
2021-06-28 11:15:40.015625000,-50.0,14.5,39.0,94.9728125,9.99,0.184478,32.84
2021-06-28 11:15:40.023437500,-50.0,14.75,39.0,94.96921875000001,8.83,0.184478,32.84
2021-06-28 11:15:40.031250000,-50.0,15.0,39.0,94.965625,7.67,0.184478,32.84
2021-06-28 11:15:40.039062500,-50.0,14.75,39.0,94.96203125000001,6.484999999999999,0.184478,32.84
2021-06-28 11:15:40.046875000,-50.0,14.5,39.0,94.9584375,5.3,0.184478,32.84
2021-06-28 11:15:40.054687500,-50.0,14.25,39.0,94.95484375000001,4.1,0.184478,32.84
2021-06-28 11:15:40.062500000,-50.0,14.0,39.0,94.95125,2.9,0.184478,32.84
2021-06-28 11:15:40.070312500,-50.0,14.0,39.0,94.94765625000001,1.635,0.184478,32.84
2021-06-28 11:15:40.078125000,-50.0,14.0,39.0,94.9440625,0.37,0.184478,32.84
2021-06-28 11:15:40.085937500,-50.0,14.0,39.0,94.94046875000001,-1.0150000000000001,0.184478,32.84
2021-06-28 11:15:40.093750000,-50.0,14.0,39.0,94.936875,-2.4,0.184478,32.84
2021-06-28 11:15:40.101562500,-50.0,14.0,39.0,94.93328125000001,-3.9850000000000003,0.184478,32.84
2021-06-28 11:15:40.109375000,-50.0,14.0,39.0,94.9296875,-5.57,0.184478,32.84
2021-06-28 11:15:40.117187500,-50.0,14.0,39.0,94.92609375,-7.42,0.184478,32.84
2021-06-28 11:15:40.125000000,-50.0,14.0,39.0,94.9225,-9.27,0.184478,32.84
2021-06-28 11:15:40.132812500,-50.0,14.0,39.0,94.91890625,-11.41,0.184478,32.84
2021-06-28 11:15:40.140625000,-50.0,14.0,39.0,94.9153125,-13.55,0.184478,32.84
2021-06-28 11:15:40.148437500,-50.0,14.0,39.0,94.91171875,-15.975,0.184478,32.84
2021-06-28 11:15:40.156250000,-50.0,14.0,39.0,94.908125,-18.4,0.184478,32.84
2021-06-28 11:15:40.164062500,-50.0,14.0,39.0,94.90453125,-21.08,0.184478,32.84
2021-06-28 11:15:40.171875000,-50.0,14.0,39.0,94.9009375,-23.76,0.184478,32.84
2021-06-28 11:15:40.179687500,-50.0,14.0,39.0,94.89734375,-26.65,0.184478,32.84
2021-06-28 11:15:40.187500000,-50.0,14.0,39.0,94.89375,-29.54,0.184478,32.84
2021-06-28 11:15:40.195312500,-50.0,14.0,39.0,94.89015625,-32.61,0.184478,32.84
2021-06-28 11:15:40.203125000,-50.0,14.0,39.0,94.8865625,-35.68,0.184478,32.84
2021-06-28 11:15:40.210937500,-50.0,14.0,39.0,94.88296875,-38.85,0.184478,32.84
2021-06-28 11:15:40.218750000,-50.0,14.0,39.0,94.879375,-42.02,0.184478,32.84
2021-06-28 11:15:40.226562500,-50.0,14.25,39.0,94.87578125,-45.135000000000005,0.184478,32.84
2021-06-28 11:15:40.234375000,-50.0,14.5,39.0,94.8721875,-48.25,0.184478,32.84
2021-06-28 11:15:40.242187500,-50.0,14.75,39.0,94.86859375,-51.045,0.184478,32.84
2021-06-28 11:15:40.250000000,-50.0,15.0,39.0,94.86500000000001,-53.84,0.184478,32.84
2021-06-28 11:15:40.257812500,-50.0,14.75,39.0,94.86140625,-55.96,0.18443796875000001,32.84
2021-06-28 11:15:40.265625000,-50.0,14.5,39.0,94.85781250000001,-58.08,0.1843979375,32.84
2021-06-28 11:15:40.273437500,-50.0,14.25,39.0,94.85421875,-59.165,0.18435790625,32.84
2021-06-28 11:15:40.281250000,-50.0,14.0,39.0,94.85062500000001,-60.25,0.184317875,32.84
2021-06-28 11:15:40.289062500,-50.0,14.0,39.0,94.84703125,-60.065,0.18427784375,32.84
2021-06-28 11:15:40.296875000,-50.0,14.0,39.0,94.84343750000001,-59.88,0.18423781250000001,32.84
2021-06-28 11:15:40.304687500,-50.0,14.0,39.0,94.83984375,-58.445,0.18419778125,32.84
2021-06-28 11:15:40.312500000,-50.0,14.0,39.0,94.83625,-57.01,0.18415775,32.84
2021-06-28 11:15:40.320312500,-50.0,14.25,39.0,94.83265625,-54.635,0.18411771875,32.84
2021-06-28 11:15:40.328125000,-50.0,14.5,39.0,94.8290625,-52.26,0.1840776875,32.84
2021-06-28 11:15:40.335937500,-50.0,14.75,39.0,94.82546875,-49.480000000000004,0.18403765625000001,32.84
2021-06-28 11:15:40.343750000,-50.0,15.0,39.0,94.821875,-46.7,0.183997625,32.84
2021-06-28 11:15:40.351562500,-50.0,15.0,39.0,94.81828125,-44.09,0.18395759375,32.84
2021-06-28 11:15:40.359375000,-50.0,15.0,39.0,94.8146875,-41.48,0.1839175625,32.84
2021-06-28 11:15:40.367187500,-50.0,15.0,39.0,94.81109375,-39.51,0.18387753125,32.84
2021-06-28 11:15:40.375000000,-50.0,15.0,39.0,94.8075,-37.54,0.1838375,32.84
2021-06-28 11:15:40.382812500,-50.0,14.75,39.0,94.80390625,-36.41,0.18379746875,32.84
2021-06-28 11:15:40.390625000,-50.0,14.5,39.0,94.8003125,-35.28,0.1837574375,32.84
2021-06-28 11:15:40.398437500,-50.0,14.25,39.0,94.79671875,-34.980000000000004,0.18371740625,32.84
2021-06-28 11:15:40.406250000,-50.0,14.0,39.0,94.793125,-34.68,0.183677375,32.84
2021-06-28 11:15:40.414062500,-50.0,14.0,39.0,94.78953125,-35.055,0.18363734375,32.84
2021-06-28 11:15:40.421875000,-50.0,14.0,39.0,94.7859375,-35.43,0.1835973125,32.84
2021-06-28 11:15:40.429687500,-50.0,14.0,39.0,94.78234375,-36.3,0.18355728125,32.84
2021-06-28 11:15:40.437500000,-50.0,14.0,39.0,94.77875,-37.17,0.18351725,32.84
2021-06-28 11:15:40.445312500,-50.0,14.0,39.0,94.77515625,-38.375,0.18347721875,32.84
2021-06-28 11:15:40.453125000,-50.0,14.0,39.0,94.7715625,-39.58,0.1834371875,32.84
2021-06-28 11:15:40.460937500,-50.0,14.0,39.0,94.76796875,-41.019999999999996,0.18339715625,32.84
2021-06-28 11:15:40.468750000,-50.0,14.0,39.0,94.764375,-42.46,0.183357125,32.84
2021-06-28 11:15:40.476562500,-50.0,14.25,39.0,94.76078125,-44.0,0.18331709375,32.84
2021-06-28 11:15:40.484375000,-50.0,14.5,39.0,94.7571875,-45.54,0.1832770625,32.84
2021-06-28 11:15:40.492187500,-50.0,14.75,39.0,94.75359375,-47.004999999999995,0.18323703125,32.84
2021-06-28 11:15:40.500000000,-50.0,15.0,39.0,94.75,-48.47,0.183197,32.84
2021-06-28 11:15:40.507812500,-50.0,15.0,39.0,94.74640625,-49.620000000000005,0.183317125,32.84
2021-06-28 11:15:40.515625000,-50.0,15.0,39.0,94.7428125,-50.77,0.18343725,32.84
2021-06-28 11:15:40.523437500,-50.0,15.0,39.0,94.73921875,-51.345,0.183557375,32.84
2021-06-28 11:15:40.531250000,-50.0,15.0,39.0,94.735625,-51.92,0.1836775,32.84
2021-06-28 11:15:40.539062500,-50.0,15.0,39.0,94.73203125,-51.644999999999996,0.183797625,32.84
2021-06-28 11:15:40.546875000,-50.0,15.0,39.0,94.7284375,-51.37,0.18391775,32.84
2021-06-28 11:15:40.554687500,-50.0,15.0,39.0,94.72484375,-50.0,0.184037875,32.84
2021-06-28 11:15:40.562500000,-50.0,15.0,39.0,94.72125,-48.63,0.184158,32.84
2021-06-28 11:15:40.570312500,-50.0,14.75,39.0,94.71765625,-45.94,0.18427812500000001,32.84
2021-06-28 11:15:40.578125000,-50.0,14.5,39.0,94.7140625,-43.25,0.18439825,32.84
2021-06-28 11:15:40.585937500,-50.0,14.25,39.0,94.71046875,-39.07,0.184518375,32.84
2021-06-28 11:15:40.593750000,-50.0,14.0,39.0,94.706875,-34.89,0.1846385,32.84
2021-06-28 11:15:40.601562500,-50.0,14.0,39.0,94.70328125,-29.175,0.184758625,32.84
2021-06-28 11:15:40.609375000,-50.0,14.0,39.0,94.6996875,-23.46,0.18487875,32.84
2021-06-28 11:15:40.617187500,-50.0,14.0,39.0,94.69609375,-16.33,0.184998875,32.84
2021-06-28 11:15:40.625000000,-50.0,14.0,39.0,94.6925,-9.2,0.185119,32.84
2021-06-28 11:15:40.632812500,-50.0,14.25,39.0,94.68890625,-1.0,0.185239125,32.84
2021-06-28 11:15:40.640625000,-50.0,14.5,39.0,94.6853125,7.2,0.18535925,32.84
2021-06-28 11:15:40.648437500,-50.0,14.75,39.0,94.68171875,15.91,0.185479375,32.84
2021-06-28 11:15:40.656250000,-50.0,15.0,39.0,94.678125,24.62,0.1855995,32.84
2021-06-28 11:15:40.664062500,-50.0,14.75,39.0,94.67453125,33.19,0.185719625,32.84
2021-06-28 11:15:40.671875000,-50.0,14.5,39.0,94.6709375,41.76,0.18583975,32.84
2021-06-28 11:15:40.679687500,-50.0,14.25,39.0,94.66734375,49.584999999999994,0.185959875,32.84
2021-06-28 11:15:40.687500000,-50.0,14.0,39.0,94.66375,57.41,0.18608000000000002,32.84
2021-06-28 11:15:40.695312500,-50.0,14.0,39.0,94.66015625,64.07,0.18620012500000002,32.84
2021-06-28 11:15:40.703125000,-50.0,14.0,39.0,94.65656249999999,70.73,0.18632025000000002,32.84
2021-06-28 11:15:40.710937500,-50.0,14.0,39.0,94.65296875,76.025,0.18644037500000002,32.84
