TimeStamp,empatica.acc.x,empatica.acc.y,empatica.acc.z,empatica.hr,empatica.bvp,empatica.eda,empatica.temp
2021-06-30 16:22:12.484375000,-35.0,26.0,47.5,74.92515625,39.07,9.294626375,34.5
2021-06-30 16:22:12.492187500,-35.0,26.0,47.25,74.925078125,37.975,9.294386187499999,34.5
2021-06-30 16:22:12.500000000,-35.0,26.0,47.0,74.92500000000001,36.88,9.294146,34.5
2021-06-30 16:22:12.507812500,-35.25,26.0,47.0,74.92492187500001,35.44,9.2935054375,34.5
2021-06-30 16:22:12.515625000,-35.5,26.0,47.0,74.92484375000001,34.0,9.292864875,34.5
2021-06-30 16:22:12.523437500,-35.75,26.0,47.0,74.924765625,32.37,9.2922243125,34.5
2021-06-30 16:22:12.531250000,-36.0,26.0,47.0,74.9246875,30.74,9.29158375,34.5
2021-06-30 16:22:12.539062500,-35.75,26.0,47.0,74.924609375,29.04,9.2909431875,34.5
2021-06-30 16:22:12.546875000,-35.5,26.0,47.0,74.92453125,27.34,9.290302624999999,34.5
2021-06-30 16:22:12.554687500,-35.25,26.0,47.0,74.924453125,25.64,9.2896620625,34.5
2021-06-30 16:22:12.562500000,-35.0,26.0,47.0,74.924375,23.94,9.2890215,34.5
2021-06-30 16:22:12.570312500,-35.25,26.0,47.0,74.92429687500001,22.235,9.2883809375,34.5
2021-06-30 16:22:12.578125000,-35.5,26.0,47.0,74.92421875000001,20.53,9.287740375,34.5
2021-06-30 16:22:12.585937500,-35.75,26.0,47.0,74.924140625,18.770000000000003,9.2870998125,34.5
2021-06-30 16:22:12.593750000,-36.0,26.0,47.0,74.9240625,17.01,9.28645925,34.5
2021-06-30 16:22:12.601562500,-36.0,26.0,47.0,74.923984375,15.110000000000001,9.285818687499999,34.5
2021-06-30 16:22:12.609375000,-36.0,26.0,47.0,74.92390625,13.21,9.285178125,34.5
2021-06-30 16:22:12.617187500,-36.0,26.0,47.0,74.923828125,11.09,9.284537562499999,34.5
2021-06-30 16:22:12.625000000,-36.0,26.0,47.0,74.92375,8.97,9.283897,34.5
2021-06-30 16:22:12.632812500,-36.0,26.0,47.0,74.923671875,6.615,9.2832564375,34.5
2021-06-30 16:22:12.640625000,-36.0,26.0,47.0,74.92359375000001,4.26,9.282615875,34.5
2021-06-30 16:22:12.648437500,-36.0,26.0,47.0,74.92351562500001,1.6949999999999998,9.2819753125,34.5
2021-06-30 16:22:12.656250000,-36.0,26.0,47.0,74.9234375,-0.87,9.28133475,34.5
2021-06-30 16:22:12.664062500,-36.0,26.0,47.0,74.923359375,-3.5500000000000003,9.2806941875,34.5
2021-06-30 16:22:12.671875000,-36.0,26.0,47.0,74.92328125,-6.23,9.280053624999999,34.5
2021-06-30 16:22:12.679687500,-36.0,26.0,47.0,74.923203125,-8.91,9.2794130625,34.5
2021-06-30 16:22:12.687500000,-36.0,26.0,47.0,74.923125,-11.59,9.278772499999999,34.5
2021-06-30 16:22:12.695312500,-36.0,26.0,47.0,74.923046875,-14.145,9.2781319375,34.5
2021-06-30 16:22:12.703125000,-36.0,26.0,47.0,74.92296875000001,-16.7,9.277491375,34.5
2021-06-30 16:22:12.710937500,-36.0,26.0,47.0,74.92289062500001,-19.049999999999997,9.2768508125,34.5
2021-06-30 16:22:12.718750000,-36.0,26.0,47.0,74.9228125,-21.4,9.27621025,34.5
2021-06-30 16:22:12.726562500,-36.0,26.0,46.75,74.922734375,-23.5,9.275569687499999,34.5
2021-06-30 16:22:12.734375000,-36.0,26.0,46.5,74.92265625,-25.6,9.274929125,34.5
2021-06-30 16:22:12.742187500,-36.0,26.0,46.25,74.922578125,-27.485,9.274288562499999,34.5
2021-06-30 16:22:12.750000000,-36.0,26.0,46.0,74.9225,-29.37,9.273648,34.5
2021-06-30 16:22:12.757812500,-36.0,26.0,46.25,74.922421875,-31.185000000000002,9.27316759375,34.5
2021-06-30 16:22:12.765625000,-36.0,26.0,46.5,74.92234375,-33.0,9.272687187499999,34.5
2021-06-30 16:22:12.773437500,-36.0,26.0,46.75,74.92226562500001,-34.980000000000004,9.27220678125,34.5
2021-06-30 16:22:12.781250000,-36.0,26.0,47.0,74.9221875,-36.96,9.271726375,34.5
2021-06-30 16:22:12.789062500,-36.0,26.0,47.0,74.922109375,-39.365,9.27124596875,34.5
2021-06-30 16:22:12.796875000,-36.0,26.0,47.0,74.92203125,-41.77,9.2707655625,34.5
2021-06-30 16:22:12.804687500,-36.0,26.0,47.0,74.921953125,-44.7,9.270285156249999,34.5
2021-06-30 16:22:12.812500000,-36.0,26.0,47.0,74.921875,-47.63,9.269804749999999,34.5
2021-06-30 16:22:12.820312500,-36.0,26.0,47.0,74.921796875,-50.915000000000006,9.26932434375,34.5
2021-06-30 16:22:12.828125000,-36.0,26.0,47.0,74.92171875,-54.2,9.2688439375,34.5
2021-06-30 16:22:12.835937500,-36.0,26.0,47.0,74.92164062500001,-57.28,9.26836353125,34.5
2021-06-30 16:22:12.843750000,-36.0,26.0,47.0,74.92156250000001,-60.36,9.267883124999999,34.5
2021-06-30 16:22:12.851562500,-36.0,26.0,47.0,74.921484375,-62.405,9.267402718749999,34.5
2021-06-30 16:22:12.859375000,-36.0,26.0,47.0,74.92140625,-64.45,9.2669223125,34.5
2021-06-30 16:22:12.867187500,-36.0,26.0,47.0,74.921328125,-64.555,9.26644190625,34.5
2021-06-30 16:22:12.875000000,-36.0,26.0,47.0,74.92125,-64.66,9.2659615,34.5
2021-06-30 16:22:12.882812500,-36.0,26.0,47.0,74.921171875,-62.19499999999999,9.26548109375,34.5
2021-06-30 16:22:12.890625000,-36.0,26.0,47.0,74.92109375,-59.73,9.265000687499999,34.5
2021-06-30 16:22:12.898437500,-36.0,26.0,47.0,74.921015625,-54.555,9.26452028125,34.5
2021-06-30 16:22:12.906250000,-36.0,26.0,47.0,74.92093750000001,-49.38,9.264039875,34.5
2021-06-30 16:22:12.914062500,-36.0,26.0,47.0,74.920859375,-41.900000000000006,9.26355946875,34.5
2021-06-30 16:22:12.921875000,-36.0,26.0,47.0,74.92078125,-34.42,9.2630790625,34.5
2021-06-30 16:22:12.929687500,-36.0,26.0,47.0,74.920703125,-25.44,9.262598656249999,34.5
2021-06-30 16:22:12.937500000,-36.0,26.0,47.0,74.920625,-16.46,9.26211825,34.5
2021-06-30 16:22:12.945312500,-36.0,26.0,47.0,74.920546875,-6.940000000000001,9.26163784375,34.5
2021-06-30 16:22:12.953125000,-36.0,26.0,47.0,74.92046875,2.58,9.2611574375,34.5
2021-06-30 16:22:12.960937500,-36.0,26.0,47.0,74.920390625,11.729999999999999,9.26067703125,34.5
2021-06-30 16:22:12.968750000,-36.0,26.0,47.0,74.92031250000001,20.88,9.260196624999999,34.5
2021-06-30 16:22:12.976562500,-36.0,26.0,46.75,74.920234375,28.909999999999997,9.259716218749999,34.5
2021-06-30 16:22:12.984375000,-36.0,26.0,46.5,74.92015625,36.94,9.2592358125,34.5
2021-06-30 16:22:12.992187500,-36.0,26.0,46.25,74.920078125,43.235,9.25875540625,34.5
2021-06-30 16:22:13.000000000,-36.0,26.0,46.0,74.92,49.53,9.258275,34.5
2021-06-30 16:22:13.007812500,-35.75,26.0,46.5,74.91960937500001,53.615,9.2584751875,34.5
2021-06-30 16:22:13.015625000,-35.5,26.0,47.0,74.91921875,57.7,9.258675375,34.5
2021-06-30 16:22:13.023437500,-35.25,26.0,47.5,74.918828125,59.3,9.2588755625,34.5
2021-06-30 16:22:13.031250000,-35.0,26.0,48.0,74.9184375,60.9,9.25907575,34.5
2021-06-30 16:22:13.039062500,-34.75,26.0,48.0,74.918046875,60.085,9.2592759375,34.5
2021-06-30 16:22:13.046875000,-34.5,26.0,48.0,74.91765625000001,59.27,9.259476124999999,34.5
2021-06-30 16:22:13.054687500,-34.25,26.0,48.0,74.917265625,56.515,9.2596763125,34.5
2021-06-30 16:22:13.062500000,-34.0,26.0,48.0,74.916875,53.76,9.259876499999999,34.5
2021-06-30 16:22:13.070312500,-34.5,26.0,47.75,74.916484375,49.915,9.2600766875,34.5
2021-06-30 16:22:13.078125000,-35.0,26.0,47.5,74.91609375,46.07,9.260276874999999,34.5
2021-06-30 16:22:13.085937500,-35.5,26.0,47.25,74.91570312500001,42.08,9.2604770625,34.5
2021-06-30 16:22:13.093750000,-36.0,26.0,47.0,74.9153125,38.09,9.260677249999999,34.5
2021-06-30 16:22:13.101562500,-35.75,26.0,47.25,74.914921875,34.755,9.2608774375,34.5
2021-06-30 16:22:13.109375000,-35.5,26.0,47.5,74.91453125,31.42,9.261077624999999,34.5
2021-06-30 16:22:13.117187500,-35.25,26.0,47.75,74.914140625,29.12,9.2612778125,34.5
2021-06-30 16:22:13.125000000,-35.0,26.0,48.0,74.91375000000001,26.82,9.261478,34.5
2021-06-30 16:22:13.132812500,-35.0,26.0,47.75,74.913359375,25.525,9.2616781875,34.5
2021-06-30 16:22:13.140625000,-35.0,26.0,47.5,74.91296875,24.23,9.261878375,34.5
2021-06-30 16:22:13.148437500,-35.0,26.0,47.25,74.912578125,23.65,9.2620785625,34.5
2021-06-30 16:22:13.156250000,-35.0,26.0,47.0,74.9121875,23.07,9.26227875,34.5
2021-06-30 16:22:13.164062500,-35.25,26.0,47.0,74.91179687500001,22.884999999999998,9.2624789375,34.5
2021-06-30 16:22:13.171875000,-35.5,26.0,47.0,74.91140625,22.7,9.262679125,34.5
2021-06-30 16:22:13.179687500,-35.75,26.0,47.0,74.911015625,22.72,9.262879312499999,34.5
2021-06-30 16:22:13.187500000,-36.0,26.0,47.0,74.910625,22.74,9.2630795,34.5
2021-06-30 16:22:13.195312500,-35.75,26.0,47.0,74.910234375,22.93,9.263279687499999,34.5
2021-06-30 16:22:13.203125000,-35.5,26.0,47.0,74.90984375000001,23.12,9.263479875,34.5
2021-06-30 16:22:13.210937500,-35.25,26.0,47.0,74.909453125,23.490000000000002,9.263680062499999,34.5
2021-06-30 16:22:13.218750000,-35.0,26.0,47.0,74.9090625,23.86,9.26388025,34.5
2021-06-30 16:22:13.226562500,-35.0,26.0,47.25,74.908671875,24.345,9.264080437499999,34.5
2021-06-30 16:22:13.234375000,-35.0,26.0,47.5,74.90828125,24.83,9.264280625,34.5
2021-06-30 16:22:13.242187500,-35.0,26.0,47.75,74.90789062500001,25.259999999999998,9.264480812499999,34.5
2021-06-30 16:22:13.250000000,-35.0,26.0,48.0,74.9075,25.69,9.264681,34.5
2021-06-30 16:22:13.257812500,-35.0,26.0,48.0,74.907109375,25.85,9.26436071875,34.5
2021-06-30 16:22:13.265625000,-35.0,26.0,48.0,74.90671875,26.01,9.2640404375,34.5
2021-06-30 16:22:13.273437500,-35.0,26.0,48.0,74.906328125,25.76,9.263720156249999,34.5
2021-06-30 16:22:13.281250000,-35.0,26.0,48.0,74.90593750000001,25.51,9.263399875,34.5
2021-06-30 16:22:13.289062500,-35.25,26.0,47.75,74.905546875,24.835,9.26307959375,34.5
2021-06-30 16:22:13.296875000,-35.5,26.0,47.5,74.90515625,24.16,9.2627593125,34.5
2021-06-30 16:22:13.304687500,-35.75,26.0,47.25,74.904765625,23.165,9.262439031249999,34.5
2021-06-30 16:22:13.312500000,-36.0,26.0,47.0,74.904375,22.17,9.262118749999999,34.5
2021-06-30 16:22:13.320312500,-35.75,26.0,47.0,74.90398437500001,20.965000000000003,9.26179846875,34.5
2021-06-30 16:22:13.328125000,-35.5,26.0,47.0,74.90359375,19.76,9.2614781875,34.5
2021-06-30 16:22:13.335937500,-35.25,26.0,47.0,74.903203125,18.4,9.26115790625,34.5
2021-06-30 16:22:13.343750000,-35.0,26.0,47.0,74.9028125,17.04,9.260837624999999,34.5
2021-06-30 16:22:13.351562500,-34.75,26.0,47.25,74.902421875,15.485,9.26051734375,34.5
2021-06-30 16:22:13.359375000,-34.5,26.0,47.5,74.90203125000001,13.93,9.2601970625,34.5
2021-06-30 16:22:13.367187500,-34.25,26.0,47.75,74.901640625,12.094999999999999,9.25987678125,34.5
2021-06-30 16:22:13.375000000,-34.0,26.0,48.0,74.90125,10.26,9.259556499999999,34.5
2021-06-30 16:22:13.382812500,-33.75,25.75,48.25,74.900859375,8.06,9.259236218749999,34.5
2021-06-30 16:22:13.390625000,-33.5,25.5,48.5,74.90046875,5.86,9.2589159375,34.5
2021-06-30 16:22:13.398437500,-33.25,25.25,48.75,74.90007812500001,3.29,9.25859565625,34.5
2021-06-30 16:22:13.406250000,-33.0,25.0,49.0,74.8996875,0.72,9.258275375,34.5
2021-06-30 16:22:13.414062500,-33.75,25.25,48.5,74.899296875,-2.12,9.257955093749999,34.5
2021-06-30 16:22:13.421875000,-34.5,25.5,48.0,74.89890625,-4.96,9.2576348125,34.5
2021-06-30 16:22:13.429687500,-35.25,25.75,47.5,74.898515625,-7.914999999999999,9.25731453125,34.5
2021-06-30 16:22:13.437500000,-36.0,26.0,47.0,74.89812500000001,-10.87,9.25699425,34.5
2021-06-30 16:22:13.445312500,-35.25,26.0,47.5,74.897734375,-13.754999999999999,9.25667396875,34.5
2021-06-30 16:22:13.453125000,-34.5,26.0,48.0,74.89734375,-16.64,9.256353687499999,34.5
2021-06-30 16:22:13.460937500,-33.75,26.0,48.5,74.896953125,-19.3,9.25603340625,34.5
2021-06-30 16:22:13.468750000,-33.0,26.0,49.0,74.8965625,-21.96,9.255713125,34.5
2021-06-30 16:22:13.476562500,-33.5,26.0,49.0,74.89617187500001,-24.3,9.25539284375,34.5
2021-06-30 16:22:13.484375000,-34.0,26.0,49.0,74.89578125,-26.64,9.255072562499999,34.5
2021-06-30 16:22:13.492187500,-34.5,26.0,49.0,74.895390625,-28.64,9.25475228125,34.5
2021-06-30 16:22:13.500000000,-35.0,26.0,49.0,74.89500000000001,-30.64,9.254432,34.5
2021-06-30 16:22:13.507812500,-34.75,26.25,49.0,74.894609375,-32.35,9.25455209375,34.5
2021-06-30 16:22:13.515625000,-34.5,26.5,49.0,74.89421875000001,-34.06,9.254672187499999,34.5
2021-06-30 16:22:13.523437500,-34.25,26.75,49.0,74.893828125,-35.605000000000004,9.25479228125,34.5
2021-06-30 16:22:13.531250000,-34.0,27.0,49.0,74.8934375,-37.15,9.254912375,34.5
2021-06-30 16:22:13.539062500,-34.5,26.75,48.25,74.89304687500001,-38.7,9.255032468749999,34.5
2021-06-30 16:22:13.546875000,-35.0,26.5,47.5,74.89265625,-40.25,9.2551525625,34.5
2021-06-30 16:22:13.554687500,-35.5,26.25,46.75,74.89226562500001,-42.004999999999995,9.25527265625,34.5
2021-06-30 16:22:13.562500000,-36.0,26.0,46.0,74.891875,-43.76,9.255392749999999,34.5
2021-06-30 16:22:13.570312500,-36.0,26.0,46.25,74.891484375,-45.91,9.25551284375,34.5
2021-06-30 16:22:13.578125000,-36.0,26.0,46.5,74.89109375000001,-48.06,9.2556329375,34.5
2021-06-30 16:22:13.585937500,-36.0,26.0,46.75,74.890703125,-50.644999999999996,9.25575303125,34.5
2021-06-30 16:22:13.593750000,-36.0,26.0,47.0,74.89031250000001,-53.23,9.255873124999999,34.5
2021-06-30 16:22:13.601562500,-36.0,26.0,46.75,74.889921875,-56.065,9.25599321875,34.5
2021-06-30 16:22:13.609375000,-36.0,26.0,46.5,74.88953125,-58.9,9.2561133125,34.5
2021-06-30 16:22:13.617187500,-36.0,26.0,46.25,74.88914062500001,-61.525000000000006,9.256233406249999,34.5
2021-06-30 16:22:13.625000000,-36.0,26.0,46.0,74.88875,-64.15,9.2563535,34.5
2021-06-30 16:22:13.632812500,-35.5,26.0,46.25,74.88835937500001,-65.875,9.25647359375,34.5
2021-06-30 16:22:13.640625000,-35.0,26.0,46.5,74.88796875,-67.6,9.256593687499999,34.5
2021-06-30 16:22:13.648437500,-34.5,26.0,46.75,74.887578125,-67.695,9.25671378125,34.5
2021-06-30 16:22:13.656250000,-34.0,26.0,47.0,74.88718750000001,-67.79,9.256833875,34.5
2021-06-30 16:22:13.664062500,-34.25,26.0,46.75,74.886796875,-65.74000000000001,9.256953968749999,34.5
2021-06-30 16:22:13.671875000,-34.5,26.0,46.5,74.88640625000001,-63.69,9.2570740625,34.5
2021-06-30 16:22:13.679687500,-34.75,26.0,46.25,74.886015625,-59.375,9.25719415625,34.5
2021-06-30 16:22:13.687500000,-35.0,26.0,46.0,74.885625,-55.06,9.25731425,34.5
2021-06-30 16:22:13.695312500,-34.75,26.0,46.5,74.88523437500001,-48.845,9.257434343749999,34.5
2021-06-30 16:22:13.703125000,-34.5,26.0,47.0,74.88484375,-42.63,9.2575544375,34.5
2021-06-30 16:22:13.710937500,-34.25,26.0,47.5,74.88445312500001,-35.245000000000005,9.25767453125,34.5
2021-06-30 16:22:13.718750000,-34.0,26.0,48.0,74.8840625,-27.86,9.257794624999999,34.5
2021-06-30 16:22:13.726562500,-34.0,26.0,48.0,74.883671875,-20.16,9.25791471875,34.5
2021-06-30 16:22:13.734375000,-34.0,26.0,48.0,74.88328125000001,-12.46,9.2580348125,34.5
2021-06-30 16:22:13.742187500,-34.0,26.0,48.0,74.882890625,-5.180000000000001,9.258154906249999,34.5
2021-06-30 16:22:13.750000000,-34.0,26.0,48.0,74.88250000000001,2.1,9.258275,34.5
2021-06-30 16:22:13.757812500,-34.25,26.0,48.0,74.882109375,8.47,9.258194937499999,34.5
2021-06-30 16:22:13.765625000,-34.5,26.0,48.0,74.88171875,14.84,9.258114874999999,34.5
2021-06-30 16:22:13.773437500,-34.75,26.0,48.0,74.88132812500001,20.05,9.2580348125,34.5
2021-06-30 16:22:13.781250000,-35.0,26.0,48.0,74.8809375,25.26,9.25795475,34.5
2021-06-30 16:22:13.789062500,-35.25,26.0,47.75,74.88054687500001,29.230000000000004,9.2578746875,34.5
2021-06-30 16:22:13.796875000,-35.5,26.0,47.5,74.88015625,33.2,9.257794624999999,34.5
2021-06-30 16:22:13.804687500,-35.75,26.0,47.25,74.879765625,35.895,9.2577145625,34.5
2021-06-30 16:22:13.812500000,-36.0,26.0,47.0,74.87937500000001,38.59,9.2576345,34.5
2021-06-30 16:22:13.820312500,-35.25,26.0,47.5,74.878984375,39.965,9.2575544375,34.5
2021-06-30 16:22:13.828125000,-34.5,26.0,48.0,74.87859375000001,41.34,9.257474375,34.5
2021-06-30 16:22:13.835937500,-33.75,26.0,48.5,74.878203125,41.415000000000006,9.257394312499999,34.5
2021-06-30 16:22:13.843750000,-33.0,26.0,49.0,74.8778125,41.49,9.25731425,34.5
2021-06-30 16:22:13.851562500,-33.0,26.0,49.0,74.87742187500001,40.400000000000006,9.2572341875,34.5
2021-06-30 16:22:13.859375000,-33.0,26.0,49.0,74.87703125,39.31,9.257154125,34.5
2021-06-30 16:22:13.867187500,-33.0,26.0,49.0,74.87664062500001,37.39,9.2570740625,34.5
2021-06-30 16:22:13.875000000,-33.0,26.0,49.0,74.87625,35.47,9.256993999999999,34.5
2021-06-30 16:22:13.882812500,-34.25,26.25,48.0,74.875859375,33.195,9.2569139375,34.5
2021-06-30 16:22:13.890625000,-35.5,26.5,47.0,74.87546875000001,30.92,9.256833875,34.5
2021-06-30 16:22:13.898437500,-36.75,26.75,46.0,74.875078125,28.845,9.2567538125,34.5
2021-06-30 16:22:13.906250000,-38.0,27.0,45.0,74.87468750000001,26.77,9.25667375,34.5
2021-06-30 16:22:13.914062500,-38.0,27.0,45.25,74.874296875,25.345,9.2565936875,34.5
2021-06-30 16:22:13.921875000,-38.0,27.0,45.5,74.87390625,23.92,9.256513625,34.5
2021-06-30 16:22:13.929687500,-38.0,27.0,45.75,74.87351562500001,23.380000000000003,9.2564335625,34.5
2021-06-30 16:22:13.937500000,-38.0,27.0,46.0,74.873125,22.84,9.2563535,34.5
2021-06-30 16:22:13.945312500,-36.75,26.5,46.75,74.87273437500001,23.145,9.256273437499999,34.5
2021-06-30 16:22:13.953125000,-35.5,26.0,47.5,74.87234375,23.45,9.256193375,34.5
2021-06-30 16:22:13.960937500,-34.25,25.5,48.25,74.871953125,24.35,9.2561133125,34.5
2021-06-30 16:22:13.968750000,-33.0,25.0,49.0,74.87156250000001,25.25,9.25603325,34.5
2021-06-30 16:22:13.976562500,-33.5,25.25,48.75,74.871171875,26.384999999999998,9.2559531875,34.5
2021-06-30 16:22:13.984375000,-34.0,25.5,48.5,74.87078125000001,27.52,9.255873125,34.5
2021-06-30 16:22:13.992187500,-34.5,25.75,48.25,74.870390625,28.6,9.2557930625,34.5
2021-06-30 16:22:14.000000000,-35.0,26.0,48.0,74.87,29.68,9.255713,34.5
2021-06-30 16:22:14.007812500,-35.5,26.0,47.5,74.8696875,30.535,9.25555284375,34.5
2021-06-30 16:22:14.015625000,-36.0,26.0,47.0,74.869375,31.39,9.2553926875,34.5
2021-06-30 16:22:14.023437500,-36.5,26.0,46.5,74.8690625,31.990000000000002,9.25523253125,34.5
2021-06-30 16:22:14.031250000,-37.0,26.0,46.0,74.86875,32.59,9.255072375000001,34.5
2021-06-30 16:22:14.039062500,-36.5,26.0,46.5,74.8684375,32.965,9.25491221875,34.5
2021-06-30 16:22:14.046875000,-36.0,26.0,47.0,74.868125,33.34,9.2547520625,34.5
2021-06-30 16:22:14.054687500,-35.5,26.0,47.5,74.8678125,33.49,9.25459190625,34.5
2021-06-30 16:22:14.062500000,-35.0,26.0,48.0,74.8675,33.64,9.25443175,34.5
2021-06-30 16:22:14.070312500,-35.0,26.0,48.0,74.8671875,33.519999999999996,9.25427159375,34.5
2021-06-30 16:22:14.078125000,-35.0,26.0,48.0,74.86687500000001,33.4,9.2541114375,34.5
2021-06-30 16:22:14.085937500,-35.0,26.0,48.0,74.8665625,32.915,9.25395128125,34.5
2021-06-30 16:22:14.093750000,-35.0,26.0,48.0,74.86625000000001,32.43,9.253791125,34.5
2021-06-30 16:22:14.101562500,-35.25,26.0,47.75,74.8659375,31.5,9.25363096875,34.5
2021-06-30 16:22:14.109375000,-35.5,26.0,47.5,74.86562500000001,30.57,9.2534708125,34.5
2021-06-30 16:22:14.117187500,-35.75,26.0,47.25,74.8653125,29.185000000000002,9.253310656250001,34.5
2021-06-30 16:22:14.125000000,-36.0,26.0,47.0,74.86500000000001,27.8,9.2531505,34.5
2021-06-30 16:22:14.132812500,-36.25,26.0,46.75,74.8646875,26.055,9.25299034375,34.5
2021-06-30 16:22:14.140625000,-36.5,26.0,46.5,74.86437500000001,24.31,9.2528301875,34.5
2021-06-30 16:22:14.148437500,-36.75,26.0,46.25,74.8640625,22.369999999999997,9.25267003125,34.5
2021-06-30 16:22:14.156250000,-37.0,26.0,46.0,74.86375000000001,20.43,9.252509875000001,34.5
2021-06-30 16:22:14.164062500,-36.75,26.0,46.25,74.8634375,18.525,9.25234971875,34.5
2021-06-30 16:22:14.171875000,-36.5,26.0,46.5,74.863125,16.62,9.2521895625,34.5
2021-06-30 16:22:14.179687500,-36.25,26.0,46.75,74.8628125,14.940000000000001,9.252029406250001,34.5
2021-06-30 16:22:14.187500000,-36.0,26.0,47.0,74.8625,13.26,9.25186925,34.5
2021-06-30 16:22:14.195312500,-36.0,26.0,47.0,74.8621875,11.905000000000001,9.25170909375,34.5
2021-06-30 16:22:14.203125000,-36.0,26.0,47.0,74.861875,10.55,9.2515489375,34.5
2021-06-30 16:22:14.210937500,-36.0,26.0,47.0,74.8615625,9.46,9.25138878125,34.5
2021-06-30 16:22:14.218750000,-36.0,26.0,47.0,74.86125,8.37,9.251228625,34.5
2021-06-30 16:22:14.226562500,-36.0,26.0,47.0,74.8609375,7.33,9.25106846875,34.5
2021-06-30 16:22:14.234375000,-36.0,26.0,47.0,74.860625,6.29,9.2509083125,34.5
2021-06-30 16:22:14.242187500,-36.0,26.0,47.0,74.8603125,5.0,9.250748156250001,34.5
2021-06-30 16:22:14.250000000,-36.0,26.0,47.0,74.86,3.71,9.250588,34.5
2021-06-30 16:22:14.257812500,-36.0,26.0,47.0,74.8596875,1.885,9.2502276875,34.5
2021-06-30 16:22:14.265625000,-36.0,26.0,47.0,74.859375,0.06,9.249867375000001,34.5
2021-06-30 16:22:14.273437500,-36.0,26.0,47.0,74.85906250000001,-2.4549999999999996,9.249507062500001,34.5
2021-06-30 16:22:14.281250000,-36.0,26.0,47.0,74.85875,-4.97,9.249146750000001,34.5
2021-06-30 16:22:14.289062500,-36.0,26.0,47.0,74.85843750000001,-8.205,9.2487864375,34.5
2021-06-30 16:22:14.296875000,-36.0,26.0,47.0,74.858125,-11.44,9.248426125,34.5
2021-06-30 16:22:14.304687500,-36.0,26.0,47.0,74.85781250000001,-15.309999999999999,9.2480658125,34.5
2021-06-30 16:22:14.312500000,-36.0,26.0,47.0,74.8575,-19.18,9.2477055,34.5
2021-06-30 16:22:14.320312500,-36.0,26.0,47.0,74.85718750000001,-23.54,9.2473451875,34.5
2021-06-30 16:22:14.328125000,-36.0,26.0,47.0,74.856875,-27.9,9.246984875,34.5
2021-06-30 16:22:14.335937500,-36.0,26.0,47.0,74.8565625,-32.545,9.246624562500001,34.5
2021-06-30 16:22:14.343750000,-36.0,26.0,47.0,74.85625,-37.19,9.24626425,34.5
2021-06-30 16:22:14.351562500,-36.0,26.0,47.0,74.8559375,-41.769999999999996,9.2459039375,34.5
2021-06-30 16:22:14.359375000,-36.0,26.0,47.0,74.855625,-46.35,9.245543625,34.5
2021-06-30 16:22:14.367187500,-36.0,26.0,47.0,74.8553125,-50.315,9.2451833125,34.5
2021-06-30 16:22:14.375000000,-36.0,26.0,47.0,74.855,-54.28,9.244823,34.5
2021-06-30 16:22:14.382812500,-36.0,26.0,47.0,74.8546875,-56.925,9.2444626875,34.5
2021-06-30 16:22:14.390625000,-36.0,26.0,47.0,74.854375,-59.57,9.244102375,34.5
2021-06-30 16:22:14.398437500,-36.0,26.0,47.0,74.8540625,-60.14,9.2437420625,34.5
2021-06-30 16:22:14.406250000,-36.0,26.0,47.0,74.85375,-60.71,9.243381750000001,34.5
2021-06-30 16:22:14.414062500,-36.0,26.0,46.75,74.8534375,-58.730000000000004,9.2430214375,34.5
2021-06-30 16:22:14.421875000,-36.0,26.0,46.5,74.853125,-56.75,9.242661125,34.5
2021-06-30 16:22:14.429687500,-36.0,26.0,46.25,74.8528125,-52.195,9.2423008125,34.5
2021-06-30 16:22:14.437500000,-36.0,26.0,46.0,74.8525,-47.64,9.2419405,34.5
2021-06-30 16:22:14.445312500,-36.25,26.0,46.25,74.8521875,-41.015,9.2415801875,34.5
2021-06-30 16:22:14.453125000,-36.5,26.0,46.5,74.851875,-34.39,9.241219875,34.5
2021-06-30 16:22:14.460937500,-36.75,26.0,46.75,74.8515625,-26.560000000000002,9.2408595625,34.5
2021-06-30 16:22:14.468750000,-37.0,26.0,47.0,74.85125000000001,-18.73,9.24049925,34.5
2021-06-30 16:22:14.476562500,-36.75,26.0,47.0,74.8509375,-10.705,9.2401389375,34.5
2021-06-30 16:22:14.484375000,-36.5,26.0,47.0,74.85062500000001,-2.68,9.239778625,34.5
2021-06-30 16:22:14.492187500,-36.25,26.0,47.0,74.8503125,4.715,9.2394183125,34.5
2021-06-30 16:22:14.500000000,-36.0,26.0,47.0,74.85,12.11,9.239058,34.5
2021-06-30 16:22:14.507812500,-36.0,26.0,47.0,74.8496875,18.325,9.2389779375,34.5
2021-06-30 16:22:14.515625000,-36.0,26.0,47.0,74.849375,24.54,9.238897875,34.5
2021-06-30 16:22:14.523437500,-36.0,26.0,47.0,74.8490625,29.294999999999998,9.2388178125,34.5
2021-06-30 16:22:14.531250000,-36.0,26.0,47.0,74.84875,34.05,9.23873775,34.5
2021-06-30 16:22:14.539062500,-35.75,26.0,47.0,74.8484375,37.254999999999995,9.2386576875,34.5
2021-06-30 16:22:14.546875000,-35.5,26.0,47.0,74.848125,40.46,9.238577625,34.5
2021-06-30 16:22:14.554687500,-35.25,26.0,47.0,74.8478125,42.095,9.238497562500001,34.5
2021-06-30 16:22:14.562500000,-35.0,26.0,47.0,74.8475,43.73,9.2384175,34.5
2021-06-30 16:22:14.570312500,-35.5,26.0,46.75,74.8471875,43.849999999999994,9.2383374375,34.5
2021-06-30 16:22:14.578125000,-36.0,26.0,46.5,74.846875,43.97,9.238257375,34.5
2021-06-30 16:22:14.585937500,-36.5,26.0,46.25,74.8465625,42.72,9.2381773125,34.5
2021-06-30 16:22:14.593750000,-37.0,26.0,46.0,74.84625,41.47,9.238097250000001,34.5
2021-06-30 16:22:14.601562500,-37.0,26.0,46.0,74.8459375,39.125,9.2380171875,34.5
2021-06-30 16:22:14.609375000,-37.0,26.0,46.0,74.845625,36.78,9.237937125,34.5
2021-06-30 16:22:14.617187500,-37.0,26.0,46.0,74.8453125,33.77,9.2378570625,34.5
2021-06-30 16:22:14.625000000,-37.0,26.0,46.0,74.845,30.76,9.237777000000001,34.5
2021-06-30 16:22:14.632812500,-37.0,26.0,46.0,74.8446875,27.61,9.2376969375,34.5
2021-06-30 16:22:14.640625000,-37.0,26.0,46.0,74.844375,24.46,9.237616875,34.5
2021-06-30 16:22:14.648437500,-37.0,26.0,46.0,74.8440625,21.715,9.2375368125,34.5
2021-06-30 16:22:14.656250000,-37.0,26.0,46.0,74.84375,18.97,9.23745675,34.5
2021-06-30 16:22:14.664062500,-36.5,26.0,46.25,74.84343750000001,17.055,9.237376687500001,34.5
2021-06-30 16:22:14.671875000,-36.0,26.0,46.5,74.843125,15.14,9.237296625,34.5
2021-06-30 16:22:14.679687500,-35.5,26.0,46.75,74.8428125,14.29,9.2372165625,34.5
2021-06-30 16:22:14.687500000,-35.0,26.0,47.0,74.8425,13.44,9.2371365,34.5
2021-06-30 16:22:14.695312500,-35.25,26.0,47.0,74.8421875,13.66,9.2370564375,34.5
2021-06-30 16:22:14.703125000,-35.5,26.0,47.0,74.841875,13.88,9.236976375000001,34.5
2021-06-30 16:22:14.710937500,-35.75,26.0,47.0,74.8415625,14.969999999999999,9.2368963125,34.5
2021-06-30 16:22:14.718750000,-36.0,26.0,47.0,74.84125,16.06,9.23681625,34.5
2021-06-30 16:22:14.726562500,-36.0,26.0,46.75,74.8409375,17.740000000000002,9.2367361875,34.5
2021-06-30 16:22:14.734375000,-36.0,26.0,46.5,74.840625,19.42,9.236656125000001,34.5
2021-06-30 16:22:14.742187500,-36.0,26.0,46.25,74.8403125,21.39,9.236576062500001,34.5
2021-06-30 16:22:14.750000000,-36.0,26.0,46.0,74.84,23.36,9.236496,34.5
2021-06-30 16:22:14.757812500,-36.0,26.0,46.0,74.8396875,25.369999999999997,9.236496,34.5
2021-06-30 16:22:14.765625000,-36.0,26.0,46.0,74.839375,27.38,9.236496,34.5
2021-06-30 16:22:14.773437500,-36.0,26.0,46.0,74.8390625,29.244999999999997,9.236496,34.5
2021-06-30 16:22:14.781250000,-36.0,26.0,46.0,74.83875,31.11,9.236496,34.5
2021-06-30 16:22:14.789062500,-35.75,26.0,46.25,74.8384375,32.665,9.236496,34.5
2021-06-30 16:22:14.796875000,-35.5,26.0,46.5,74.838125,34.22,9.236496,34.5
2021-06-30 16:22:14.804687500,-35.25,26.0,46.75,74.8378125,35.29,9.236496,34.5
2021-06-30 16:22:14.812500000,-35.0,26.0,47.0,74.8375,36.36,9.236496,34.5
2021-06-30 16:22:14.820312500,-35.25,26.0,47.0,74.8371875,36.81,9.236496,34.5
2021-06-30 16:22:14.828125000,-35.5,26.0,47.0,74.836875,37.26,9.236496,34.5
2021-06-30 16:22:14.835937500,-35.75,26.0,47.0,74.8365625,37.0,9.236496,34.5
2021-06-30 16:22:14.843750000,-36.0,26.0,47.0,74.83624999999999,36.74,9.236496,34.5
2021-06-30 16:22:14.851562500,-36.0,26.0,46.75,74.8359375,35.760000000000005,9.236496,34.5
2021-06-30 16:22:14.859375000,-36.0,26.0,46.5,74.835625,34.78,9.236496,34.5
2021-06-30 16:22:14.867187500,-36.0,26.0,46.25,74.8353125,33.15,9.236496,34.5
2021-06-30 16:22:14.875000000,-36.0,26.0,46.0,74.835,31.52,9.236496,34.5
2021-06-30 16:22:14.882812500,-36.0,26.0,46.25,74.8346875,29.34,9.236496,34.5
2021-06-30 16:22:14.890625000,-36.0,26.0,46.5,74.834375,27.16,9.236496,34.5
2021-06-30 16:22:14.898437500,-36.0,26.0,46.75,74.8340625,24.494999999999997,9.236496,34.5
2021-06-30 16:22:14.906250000,-36.0,26.0,47.0,74.83375,21.83,9.236496,34.5
2021-06-30 16:22:14.914062500,-36.0,26.0,47.0,74.8334375,18.74,9.236496,34.5
2021-06-30 16:22:14.921875000,-36.0,26.0,47.0,74.833125,15.65,9.236496,34.5
2021-06-30 16:22:14.929687500,-36.0,26.0,47.0,74.8328125,12.190000000000001,9.236496,34.5
2021-06-30 16:22:14.937500000,-36.0,26.0,47.0,74.8325,8.73,9.236496,34.5
2021-06-30 16:22:14.945312500,-36.0,26.0,46.75,74.8321875,5.0,9.236496,34.5
2021-06-30 16:22:14.953125000,-36.0,26.0,46.5,74.831875,1.27,9.236496,34.5
2021-06-30 16:22:14.960937500,-36.0,26.0,46.25,74.8315625,-2.5500000000000003,9.236496,34.5
2021-06-30 16:22:14.968750000,-36.0,26.0,46.0,74.83125,-6.37,9.236496,34.5
2021-06-30 16:22:14.976562500,-36.0,26.0,46.25,74.8309375,-10.11,9.236496,34.5
2021-06-30 16:22:14.984375000,-36.0,26.0,46.5,74.830625,-13.85,9.236496,34.5
2021-06-30 16:22:14.992187500,-36.0,26.0,46.75,74.8303125,-17.43,9.236496,34.5
2021-06-30 16:22:15.000000000,-36.0,26.0,47.0,74.83,-21.01,9.236496,34.5
2021-06-30 16:22:15.007812500,-36.0,26.0,47.0,74.83,-24.51,9.2372566875,34.5
2021-06-30 16:22:15.015625000,-36.0,26.0,47.0,74.83,-28.01,9.238017375,34.5
2021-06-30 16:22:15.023437500,-36.0,26.0,47.0,74.83,-31.655,9.2387780625,34.5
2021-06-30 16:22:15.031250000,-36.0,26.0,47.0,74.83,-35.3,9.239538750000001,34.5
2021-06-30 16:22:15.039062500,-36.0,26.0,47.0,74.83,-39.349999999999994,9.240299437500001,34.5
2021-06-30 16:22:15.046875000,-36.0,26.0,47.0,74.83,-43.4,9.241060125,34.5
2021-06-30 16:22:15.054687500,-36.0,26.0,47.0,74.83,-48.025,9.2418208125,34.5
2021-06-30 16:22:15.062500000,-36.0,26.0,47.0,74.83,-52.65,9.2425815,34.5
2021-06-30 16:22:15.070312500,-36.0,26.0,47.0,74.83,-57.785,9.2433421875,34.5
2021-06-30 16:22:15.078125000,-36.0,26.0,47.0,74.83,-62.92,9.244102875000001,34.5
2021-06-30 16:22:15.085937500,-36.0,26.0,47.0,74.83,-68.205,9.2448635625,34.5
2021-06-30 16:22:15.093750000,-36.0,26.0,47.0,74.83,-73.49,9.24562425,34.5
2021-06-30 16:22:15.101562500,-36.0,26.0,47.0,74.83,-78.32,9.2463849375,34.5
2021-06-30 16:22:15.109375000,-36.0,26.0,47.0,74.83,-83.15,9.247145625,34.5
2021-06-30 16:22:15.117187500,-36.0,26.0,47.0,74.83,-86.775,9.2479063125,34.5
2021-06-30 16:22:15.125000000,-36.0,26.0,47.0,74.83,-90.4,9.248667000000001,34.5
2021-06-30 16:22:15.132812500,-36.0,26.0,46.75,74.83,-92.09,9.2494276875,34.5
2021-06-30 16:22:15.140625000,-36.0,26.0,46.5,74.83,-93.78,9.250188375,34.5
2021-06-30 16:22:15.148437500,-36.0,26.0,46.25,74.83,-93.025,9.2509490625,34.5
2021-06-30 16:22:15.156250000,-36.0,26.0,46.0,74.83,-92.27,9.25170975,34.5
2021-06-30 16:22:15.164062500,-36.0,26.0,46.0,74.83,-88.91499999999999,9.2524704375,34.5
2021-06-30 16:22:15.171875000,-36.0,26.0,46.0,74.83,-85.56,9.253231125,34.5
2021-06-30 16:22:15.179687500,-36.0,26.0,46.0,74.83,-79.89500000000001,9.2539918125,34.5
2021-06-30 16:22:15.187500000,-36.0,26.0,46.0,74.83,-74.23,9.2547525,34.5
2021-06-30 16:22:15.195312500,-36.0,26.0,46.25,74.83,-66.89500000000001,9.2555131875,34.5
2021-06-30 16:22:15.203125000,-36.0,26.0,46.5,74.83,-59.56,9.256273875,34.5
2021-06-30 16:22:15.210937500,-36.0,26.0,46.75,74.83,-51.42,9.2570345625,34.5
2021-06-30 16:22:15.218750000,-36.0,26.0,47.0,74.83,-43.28,9.25779525,34.5
2021-06-30 16:22:15.226562500,-36.0,26.0,47.0,74.83,-35.230000000000004,9.2585559375,34.5
2021-06-30 16:22:15.234375000,-36.0,26.0,47.0,74.83,-27.18,9.259316625,34.5
2021-06-30 16:22:15.242187500,-36.0,26.0,47.0,74.83,-19.955,9.2600773125,34.5
2021-06-30 16:22:15.250000000,-36.0,26.0,47.0,74.83,-12.73,9.260838,34.5
2021-06-30 16:22:15.257812500,-36.0,26.0,47.0,74.83,-6.825,9.26155859375,34.5
2021-06-30 16:22:15.265625000,-36.0,26.0,47.0,74.83,-0.92,9.262279187499999,34.5
2021-06-30 16:22:15.273437500,-36.0,26.0,47.0,74.83,3.4300000000000006,9.26299978125,34.5
2021-06-30 16:22:15.281250000,-36.0,26.0,47.0,74.83,7.78,9.263720375,34.5
2021-06-30 16:22:15.289062500,-36.25,26.25,47.0,74.83,10.555,9.26444096875,34.5
2021-06-30 16:22:15.296875000,-36.5,26.5,47.0,74.83,13.33,9.2651615625,34.5
2021-06-30 16:22:15.304687500,-36.75,26.75,47.0,74.83,14.684999999999999,9.26588215625,34.5
2021-06-30 16:22:15.312500000,-37.0,27.0,47.0,74.83,16.04,9.26660275,34.5
2021-06-30 16:22:15.320312500,-36.75,26.75,46.75,74.83,16.215,9.26732334375,34.5
2021-06-30 16:22:15.328125000,-36.5,26.5,46.5,74.83,16.39,9.2680439375,34.5
2021-06-30 16:22:15.335937500,-36.25,26.25,46.25,74.83,15.695,9.26876453125,34.5
2021-06-30 16:22:15.343750000,-36.0,26.0,46.0,74.83,15.0,9.269485125,34.5
2021-06-30 16:22:15.351562500,-35.75,26.0,46.25,74.83,13.74,9.270205718749999,34.5
2021-06-30 16:22:15.359375000,-35.5,26.0,46.5,74.83,12.48,9.2709263125,34.5
2021-06-30 16:22:15.367187500,-35.25,26.0,46.75,74.83,10.945,9.27164690625,34.5
2021-06-30 16:22:15.375000000,-35.0,26.0,47.0,74.83,9.41,9.2723675,34.5
2021-06-30 16:22:15.382812500,-35.25,26.0,47.0,74.83,7.87,9.27308809375,34.5
2021-06-30 16:22:15.390625000,-35.5,26.0,47.0,74.83,6.33,9.273808687499999,34.5
2021-06-30 16:22:15.398437500,-35.75,26.0,47.0,74.83,5.0649999999999995,9.27452928125,34.5
2021-06-30 16:22:15.406250000,-36.0,26.0,47.0,74.83,3.8,9.275249875,34.5
2021-06-30 16:22:15.414062500,-36.25,26.0,46.75,74.83,3.065,9.27597046875,34.5
2021-06-30 16:22:15.421875000,-36.5,26.0,46.5,74.83,2.33,9.2766910625,34.5
2021-06-30 16:22:15.429687500,-36.75,26.0,46.25,74.83,2.34,9.277411656249999,34.5
2021-06-30 16:22:15.437500000,-37.0,26.0,46.0,74.83,2.35,9.278132249999999,34.5
2021-06-30 16:22:15.445312500,-36.75,26.0,46.25,74.83,3.1900000000000004,9.27885284375,34.5
2021-06-30 16:22:15.453125000,-36.5,26.0,46.5,74.83,4.03,9.2795734375,34.5
2021-06-30 16:22:15.460937500,-36.25,26.0,46.75,74.83,5.575,9.28029403125,34.5
2021-06-30 16:22:15.468750000,-36.0,26.0,47.0,74.83,7.12,9.281014625,34.5
2021-06-30 16:22:15.476562500,-35.75,26.0,47.0,74.83,9.025,9.281735218749999,34.5
2021-06-30 16:22:15.484375000,-35.5,26.0,47.0,74.83,10.93,9.2824558125,34.5
2021-06-30 16:22:15.492187500,-35.25,26.0,47.0,74.83,12.725,9.28317640625,34.5
2021-06-30 16:22:15.500000000,-35.0,26.0,47.0,74.83,14.52,9.283897,34.5
2021-06-30 16:22:15.507812500,-35.25,26.0,47.0,74.83,15.745,9.284617625,34.5
2021-06-30 16:22:15.515625000,-35.5,26.0,47.0,74.83,16.97,9.285338249999999,34.5
2021-06-30 16:22:15.523437500,-35.75,26.0,47.0,74.83,17.36,9.286058875,34.5
2021-06-30 16:22:15.531250000,-36.0,26.0,47.0,74.83,17.75,9.2867795,34.5
2021-06-30 16:22:15.539062500,-36.0,26.0,47.0,74.83,17.314999999999998,9.287500125,34.5
2021-06-30 16:22:15.546875000,-36.0,26.0,47.0,74.83,16.88,9.28822075,34.5
2021-06-30 16:22:15.554687500,-36.0,26.0,47.0,74.83,15.899999999999999,9.288941375,34.5
2021-06-30 16:22:15.562500000,-36.0,26.0,47.0,74.83,14.92,9.289662,34.5
2021-06-30 16:22:15.570312500,-36.0,26.0,47.0,74.83,13.84,9.290382625,34.5
2021-06-30 16:22:15.578125000,-36.0,26.0,47.0,74.83,12.76,9.291103249999999,34.5
2021-06-30 16:22:15.585937500,-36.0,26.0,47.0,74.83,12.055,9.291823875,34.5
2021-06-30 16:22:15.593750000,-36.0,26.0,47.0,74.83,11.35,9.2925445,34.5
2021-06-30 16:22:15.601562500,-36.0,26.0,47.0,74.83,11.405000000000001,9.293265125,34.5
2021-06-30 16:22:15.609375000,-36.0,26.0,47.0,74.83,11.46,9.293985750000001,34.5
2021-06-30 16:22:15.617187500,-36.0,26.0,47.0,74.83,12.47,9.294706375,34.5
2021-06-30 16:22:15.625000000,-36.0,26.0,47.0,74.83,13.48,9.295427,34.5
2021-06-30 16:22:15.632812500,-36.0,26.0,47.0,74.83,15.450000000000001,9.296147625,34.5
2021-06-30 16:22:15.640625000,-36.0,26.0,47.0,74.83,17.42,9.29686825,34.5
2021-06-30 16:22:15.648437500,-36.0,26.0,47.0,74.83,20.095,9.297588875,34.5
2021-06-30 16:22:15.656250000,-36.0,26.0,47.0,74.83,22.77,9.2983095,34.5
2021-06-30 16:22:15.664062500,-36.0,26.0,47.0,74.83,25.72,9.299030125,34.5
2021-06-30 16:22:15.671875000,-36.0,26.0,47.0,74.83,28.67,9.299750750000001,34.5
2021-06-30 16:22:15.679687500,-36.0,26.0,47.0,74.83,31.355,9.300471375,34.5
2021-06-30 16:22:15.687500000,-36.0,26.0,47.0,74.83,34.04,9.301192,34.5
2021-06-30 16:22:15.695312500,-36.0,26.0,47.0,74.83,35.965,9.301912625,34.5
2021-06-30 16:22:15.703125000,-36.0,26.0,47.0,74.83,37.89,9.30263325,34.5
2021-06-30 16:22:15.710937500,-36.0,26.0,47.0,74.83,38.785,9.303353875,34.5
2021-06-30 16:22:15.718750000,-36.0,26.0,47.0,74.83,39.68,9.3040745,34.5
2021-06-30 16:22:15.726562500,-36.0,26.0,47.0,74.83,39.56,9.304795125,34.5
2021-06-30 16:22:15.734375000,-36.0,26.0,47.0,74.83,39.44,9.305515750000001,34.5
2021-06-30 16:22:15.742187500,-36.0,26.0,47.0,74.83,38.62,9.306236375000001,34.5
2021-06-30 16:22:15.750000000,-36.0,26.0,47.0,74.83,37.8,9.306957,34.5
2021-06-30 16:22:15.757812500,-36.0,26.0,47.0,74.83,36.75,9.30723725,34.5
2021-06-30 16:22:15.765625000,-36.0,26.0,47.0,74.83,35.7,9.307517500000001,34.5
2021-06-30 16:22:15.773437500,-36.0,26.0,47.0,74.83,34.790000000000006,9.30779775,34.5
2021-06-30 16:22:15.781250000,-36.0,26.0,47.0,74.83,33.88,9.308078,34.5
2021-06-30 16:22:15.789062500,-36.0,26.0,47.0,74.83,33.175,9.308358250000001,34.5
2021-06-30 16:22:15.796875000,-36.0,26.0,47.0,74.83,32.47,9.3086385,34.5
2021-06-30 16:22:15.804687500,-36.0,26.0,47.0,74.83,31.7,9.30891875,34.5
2021-06-30 16:22:15.812500000,-36.0,26.0,47.0,74.83,30.93,9.309199,34.5
2021-06-30 16:22:15.820312500,-36.0,26.0,47.0,74.83,29.625,9.30947925,34.5
2021-06-30 16:22:15.828125000,-36.0,26.0,47.0,74.83,28.32,9.3097595,34.5
2021-06-30 16:22:15.835937500,-36.0,26.0,47.0,74.83,26.145,9.31003975,34.5
2021-06-30 16:22:15.843750000,-36.0,26.0,47.0,74.83,23.97,9.31032,34.5
2021-06-30 16:22:15.851562500,-36.0,26.0,47.0,74.83,20.994999999999997,9.31060025,34.5
2021-06-30 16:22:15.859375000,-36.0,26.0,47.0,74.83,18.02,9.3108805,34.5
2021-06-30 16:22:15.867187500,-36.0,26.0,47.0,74.83,14.835,9.31116075,34.5
2021-06-30 16:22:15.875000000,-36.0,26.0,47.0,74.83,11.65,9.311441,34.5
2021-06-30 16:22:15.882812500,-36.0,26.0,46.75,74.83,9.195,9.31172125,34.5
2021-06-30 16:22:15.890625000,-36.0,26.0,46.5,74.83,6.74,9.312001500000001,34.5
2021-06-30 16:22:15.898437500,-36.0,26.0,46.25,74.83,5.9,9.31228175,34.5
2021-06-30 16:22:15.906250000,-36.0,26.0,46.0,74.83,5.06,9.312562,34.5
2021-06-30 16:22:15.914062500,-36.0,26.0,46.25,74.83,6.255,9.312842250000001,34.5
2021-06-30 16:22:15.921875000,-36.0,26.0,46.5,74.83,7.45,9.3131225,34.5
2021-06-30 16:22:15.929687500,-36.0,26.0,46.75,74.83,10.445,9.31340275,34.5
2021-06-30 16:22:15.937500000,-36.0,26.0,47.0,74.83,13.44,9.313683000000001,34.5
2021-06-30 16:22:15.945312500,-36.0,26.0,47.0,74.83,17.43,9.31396325,34.5
2021-06-30 16:22:15.953125000,-36.0,26.0,47.0,74.83,21.42,9.3142435,34.5
2021-06-30 16:22:15.960937500,-36.0,26.0,47.0,74.83,25.365000000000002,9.31452375,34.5
2021-06-30 16:22:15.968750000,-36.0,26.0,47.0,74.83,29.31,9.314804,34.5
2021-06-30 16:22:15.976562500,-36.0,26.0,47.0,74.83,32.335,9.31508425,34.5
2021-06-30 16:22:15.984375000,-36.0,26.0,47.0,74.83,35.36,9.3153645,34.5
2021-06-30 16:22:15.992187500,-36.0,26.0,47.0,74.83,37.019999999999996,9.31564475,34.5
2021-06-30 16:22:16.000000000,-36.0,26.0,47.0,74.83,38.68,9.315925,34.5
2021-06-30 16:22:16.007812500,-36.0,26.0,47.0,74.829609375,38.96,9.31680575,34.4996875
2021-06-30 16:22:16.015625000,-36.0,26.0,47.0,74.82921875,39.24,9.3176865,34.499375
2021-06-30 16:22:16.023437500,-36.0,26.0,47.0,74.828828125,38.39,9.31856725,34.4990625
2021-06-30 16:22:16.031250000,-36.0,26.0,47.0,74.82843749999999,37.54,9.319448,34.49875
2021-06-30 16:22:16.039062500,-36.0,26.0,47.0,74.828046875,35.8,9.32032875,34.4984375
2021-06-30 16:22:16.046875000,-36.0,26.0,47.0,74.82765625,34.06,9.3212095,34.498125
2021-06-30 16:22:16.054687500,-36.0,26.0,47.0,74.827265625,31.54,9.32209025,34.4978125
2021-06-30 16:22:16.062500000,-36.0,26.0,47.0,74.826875,29.02,9.322970999999999,34.4975
2021-06-30 16:22:16.070312500,-36.0,26.0,47.0,74.82648437499999,25.72,9.32385175,34.4971875
2021-06-30 16:22:16.078125000,-36.0,26.0,47.0,74.82609375,22.42,9.3247325,34.496875
2021-06-30 16:22:16.085937500,-36.0,26.0,47.0,74.825703125,18.37,9.32561325,34.4965625
2021-06-30 16:22:16.093750000,-36.0,26.0,47.0,74.8253125,14.32,9.326494,34.49625
2021-06-30 16:22:16.101562500,-36.0,26.0,47.0,74.824921875,9.705,9.32737475,34.495937500000004
2021-06-30 16:22:16.109375000,-36.0,26.0,47.0,74.82453124999999,5.09,9.3282555,34.495625000000004
2021-06-30 16:22:16.117187500,-36.0,26.0,47.0,74.824140625,0.2999999999999998,9.32913625,34.495312500000004
2021-06-30 16:22:16.125000000,-36.0,26.0,47.0,74.82375,-4.49,9.330017,34.495000000000005
2021-06-30 16:22:16.132812500,-36.0,26.0,47.0,74.823359375,-8.9,9.33089775,34.4946875
2021-06-30 16:22:16.140625000,-36.0,26.0,47.0,74.82296875,-13.31,9.3317785,34.494375
2021-06-30 16:22:16.148437500,-36.0,26.0,47.0,74.82257812499999,-16.82,9.332659249999999,34.4940625
2021-06-30 16:22:16.156250000,-36.0,26.0,47.0,74.8221875,-20.33,9.33354,34.49375
2021-06-30 16:22:16.164062500,-36.0,26.0,47.0,74.821796875,-22.595,9.33442075,34.4934375
2021-06-30 16:22:16.171875000,-36.0,26.0,47.0,74.82140625,-24.86,9.3353015,34.493125
2021-06-30 16:22:16.179687500,-36.0,26.0,47.0,74.821015625,-25.845,9.33618225,34.4928125
2021-06-30 16:22:16.187500000,-36.0,26.0,47.0,74.82062499999999,-26.83,9.337063,34.4925
2021-06-30 16:22:16.195312500,-36.0,26.0,47.0,74.820234375,-26.795,9.337943749999999,34.4921875
2021-06-30 16:22:16.203125000,-36.0,26.0,47.0,74.81984375,-26.76,9.3388245,34.491875
2021-06-30 16:22:16.210937500,-36.0,26.0,47.0,74.819453125,-26.155,9.33970525,34.4915625
2021-06-30 16:22:16.218750000,-36.0,26.0,47.0,74.8190625,-25.55,9.340586,34.49125
2021-06-30 16:22:16.226562500,-36.0,26.0,47.0,74.81867187499999,-24.845,9.34146675,34.4909375
2021-06-30 16:22:16.234375000,-36.0,26.0,47.0,74.81828125,-24.14,9.342347499999999,34.490625
2021-06-30 16:22:16.242187500,-36.0,26.0,47.0,74.817890625,-23.675,9.34322825,34.4903125
2021-06-30 16:22:16.250000000,-36.0,26.0,47.0,74.8175,-23.21,9.344109,34.49
2021-06-30 16:22:16.257812500,-36.0,26.0,47.0,74.817109375,-23.115000000000002,9.344149,34.49
2021-06-30 16:22:16.265625000,-36.0,26.0,47.0,74.81671874999999,-23.02,9.344189,34.49
2021-06-30 16:22:16.273437500,-36.0,26.0,47.0,74.816328125,-23.240000000000002,9.344229,34.49
2021-06-30 16:22:16.281250000,-36.0,26.0,47.0,74.8159375,-23.46,9.344269,34.49
2021-06-30 16:22:16.289062500,-36.0,26.0,47.0,74.815546875,-23.9,9.344308999999999,34.49
2021-06-30 16:22:16.296875000,-36.0,26.0,47.0,74.81515625,-24.34,9.344349,34.49
2021-06-30 16:22:16.304687500,-36.0,26.0,47.0,74.81476562499999,-24.91,9.344389,34.49
2021-06-30 16:22:16.312500000,-36.0,26.0,47.0,74.814375,-25.48,9.344429,34.49
2021-06-30 16:22:16.320312500,-36.0,26.0,47.0,74.813984375,-26.215,9.344469,34.49
2021-06-30 16:22:16.328125000,-36.0,26.0,47.0,74.81359375,-26.95,9.344509,34.49
2021-06-30 16:22:16.335937500,-36.0,26.0,47.0,74.813203125,-27.93,9.344549,34.49
2021-06-30 16:22:16.343750000,-36.0,26.0,47.0,74.81281249999999,-28.91,9.344589,34.49
2021-06-30 16:22:16.351562500,-36.0,26.0,47.0,74.812421875,-30.2,9.344629,34.49
2021-06-30 16:22:16.359375000,-36.0,26.0,47.0,74.81203125,-31.49,9.344669,34.49
2021-06-30 16:22:16.367187500,-36.0,26.0,47.0,74.811640625,-33.105,9.344709,34.49
2021-06-30 16:22:16.375000000,-36.0,26.0,47.0,74.81125,-34.72,9.344749,34.49
2021-06-30 16:22:16.382812500,-36.0,26.0,47.0,74.81085937499999,-36.595,9.344789,34.49
2021-06-30 16:22:16.390625000,-36.0,26.0,47.0,74.81046875,-38.47,9.344829,34.49
2021-06-30 16:22:16.398437500,-36.0,26.0,47.0,74.810078125,-40.480000000000004,9.344869000000001,34.49
2021-06-30 16:22:16.406250000,-36.0,26.0,47.0,74.8096875,-42.49,9.344909000000001,34.49
2021-06-30 16:22:16.414062500,-36.0,26.0,47.0,74.809296875,-44.505,9.344949,34.49
2021-06-30 16:22:16.421875000,-36.0,26.0,47.0,74.80890624999999,-46.52,9.344989,34.49
2021-06-30 16:22:16.429687500,-36.0,26.0,47.0,74.808515625,-48.370000000000005,9.345029,34.49
2021-06-30 16:22:16.437500000,-36.0,26.0,47.0,74.808125,-50.22,9.345069,34.49
2021-06-30 16:22:16.445312500,-36.0,26.0,47.0,74.807734375,-51.7,9.345109,34.49
2021-06-30 16:22:16.453125000,-36.0,26.0,47.0,74.80734375,-53.18,9.345149000000001,34.49
2021-06-30 16:22:16.460937500,-36.0,26.0,47.0,74.80695312499999,-53.980000000000004,9.345189000000001,34.49
2021-06-30 16:22:16.468750000,-36.0,26.0,47.0,74.8065625,-54.78,9.345229,34.49
2021-06-30 16:22:16.476562500,-36.0,26.0,47.0,74.806171875,-54.585,9.345269,34.49
2021-06-30 16:22:16.484375000,-36.0,26.0,47.0,74.80578125,-54.39,9.345309,34.49
2021-06-30 16:22:16.492187500,-36.0,26.0,47.0,74.805390625,-52.96,9.345349,34.49
2021-06-30 16:22:16.500000000,-36.0,26.0,47.0,74.805,-51.53,9.345389,34.49
2021-06-30 16:22:16.507812500,-36.0,26.0,47.0,74.804609375,-48.879999999999995,9.34602959375,34.49
2021-06-30 16:22:16.515625000,-36.0,26.0,47.0,74.80421875,-46.23,9.346670187500001,34.49
2021-06-30 16:22:16.523437500,-36.0,26.0,47.0,74.803828125,-42.69499999999999,9.34731078125,34.49
2021-06-30 16:22:16.531250000,-36.0,26.0,47.0,74.8034375,-39.16,9.347951375000001,34.49
2021-06-30 16:22:16.539062500,-36.0,26.0,47.0,74.803046875,-35.36,9.34859196875,34.49
2021-06-30 16:22:16.546875000,-36.0,26.0,47.0,74.80265625,-31.56,9.349232562500001,34.49
2021-06-30 16:22:16.554687500,-36.0,26.0,47.0,74.802265625,-28.18,9.34987315625,34.49
2021-06-30 16:22:16.562500000,-36.0,26.0,47.0,74.801875,-24.8,9.350513750000001,34.49
2021-06-30 16:22:16.570312500,-36.0,26.0,47.0,74.801484375,-22.395,9.35115434375,34.49
2021-06-30 16:22:16.578125000,-36.0,26.0,47.0,74.80109375,-19.99,9.351794937500001,34.49
2021-06-30 16:22:16.585937500,-36.0,26.0,47.0,74.800703125,-18.715,9.35243553125,34.49
2021-06-30 16:22:16.593750000,-36.0,26.0,47.0,74.8003125,-17.44,9.353076125000001,34.49
2021-06-30 16:22:16.601562500,-36.0,26.0,47.0,74.799921875,-16.97,9.35371671875,34.49
2021-06-30 16:22:16.609375000,-36.0,26.0,47.0,74.79953125,-16.5,9.354357312500001,34.49
2021-06-30 16:22:16.617187500,-36.0,26.0,47.0,74.799140625,-16.12,9.35499790625,34.49
2021-06-30 16:22:16.625000000,-36.0,26.0,47.0,74.79875,-15.74,9.355638500000001,34.49
2021-06-30 16:22:16.632812500,-36.0,26.0,47.0,74.798359375,-14.54,9.35627909375,34.49
2021-06-30 16:22:16.640625000,-36.0,26.0,47.0,74.79796875,-13.34,9.3569196875,34.49
2021-06-30 16:22:16.648437500,-36.0,26.0,47.0,74.797578125,-10.495000000000001,9.35756028125,34.49
2021-06-30 16:22:16.656250000,-36.0,26.0,47.0,74.7971875,-7.65,9.358200875,34.49
2021-06-30 16:22:16.664062500,-36.0,26.0,47.0,74.796796875,-2.67,9.35884146875,34.49
2021-06-30 16:22:16.671875000,-36.0,26.0,47.0,74.79640625,2.31,9.3594820625,34.49
2021-06-30 16:22:16.679687500,-36.0,26.0,47.0,74.796015625,9.434999999999999,9.36012265625,34.49
2021-06-30 16:22:16.687500000,-36.0,26.0,47.0,74.795625,16.56,9.36076325,34.49
2021-06-30 16:22:16.695312500,-36.0,26.0,47.0,74.795234375,25.4,9.36140384375,34.49
2021-06-30 16:22:16.703125000,-36.0,26.0,47.0,74.79484375,34.24,9.3620444375,34.49
2021-06-30 16:22:16.710937500,-36.0,26.0,47.0,74.794453125,44.055,9.36268503125,34.49
2021-06-30 16:22:16.718750000,-36.0,26.0,47.0,74.7940625,53.87,9.363325625,34.49
2021-06-30 16:22:16.726562500,-36.0,26.0,47.0,74.793671875,63.775000000000006,9.36396621875,34.49
2021-06-30 16:22:16.734375000,-36.0,26.0,47.0,74.79328125,73.68,9.3646068125,34.49
2021-06-30 16:22:16.742187500,-36.0,26.0,47.0,74.792890625,82.86000000000001,9.36524740625,34.49
2021-06-30 16:22:16.750000000,-36.0,26.0,47.0,74.7925,92.04,9.365888,34.49
2021-06-30 16:22:16.757812500,-36.0,26.0,47.0,74.792109375,99.825,9.36688884375,34.49
2021-06-30 16:22:16.765625000,-36.0,26.0,47.0,74.79171875,107.61,9.3678896875,34.49
2021-06-30 16:22:16.773437500,-36.0,26.0,47.0,74.791328125,113.555,9.368890531249999,34.49
2021-06-30 16:22:16.781250000,-36.0,26.0,47.0,74.7909375,119.5,9.369891375,34.49
2021-06-30 16:22:16.789062500,-36.0,26.0,47.0,74.790546875,123.4,9.37089221875,34.49
2021-06-30 16:22:16.796875000,-36.0,26.0,47.0,74.79015625,127.3,9.3718930625,34.49
2021-06-30 16:22:16.804687500,-36.0,26.0,47.0,74.789765625,129.165,9.372893906249999,34.49
2021-06-30 16:22:16.812500000,-36.0,26.0,47.0,74.789375,131.03,9.37389475,34.49
2021-06-30 16:22:16.820312500,-36.0,26.0,47.0,74.788984375,131.025,9.37489559375,34.49
2021-06-30 16:22:16.828125000,-36.0,26.0,47.0,74.78859375,131.02,9.3758964375,34.49
2021-06-30 16:22:16.835937500,-36.0,26.0,47.0,74.788203125,129.395,9.376897281249999,34.49
2021-06-30 16:22:16.843750000,-36.0,26.0,47.0,74.7878125,127.77,9.377898125,34.49
2021-06-30 16:22:16.851562500,-36.0,26.0,47.0,74.787421875,124.78,9.37889896875,34.49
2021-06-30 16:22:16.859375000,-36.0,26.0,47.0,74.78703125,121.79,9.3798998125,34.49
2021-06-30 16:22:16.867187500,-36.0,26.0,47.0,74.786640625,117.68,9.380900656249999,34.49
2021-06-30 16:22:16.875000000,-36.0,26.0,47.0,74.78625,113.57,9.3819015,34.49
2021-06-30 16:22:16.882812500,-36.0,26.0,47.0,74.785859375,108.56,9.38290234375,34.49
2021-06-30 16:22:16.890625000,-36.0,26.0,47.0,74.78546875,103.55,9.3839031875,34.49
2021-06-30 16:22:16.898437500,-36.0,26.0,47.0,74.785078125,97.935,9.384904031249999,34.49
2021-06-30 16:22:16.906250000,-36.0,26.0,47.0,74.7846875,92.32,9.385904875,34.49
2021-06-30 16:22:16.914062500,-36.0,26.0,47.0,74.784296875,86.43,9.38690571875,34.49
2021-06-30 16:22:16.921875000,-36.0,26.0,47.0,74.78390625,80.54,9.3879065625,34.49
2021-06-30 16:22:16.929687500,-36.0,26.0,47.0,74.783515625,74.785,9.388907406249999,34.49
2021-06-30 16:22:16.937500000,-36.0,26.0,47.0,74.783125,69.03,9.38990825,34.49
2021-06-30 16:22:16.945312500,-36.0,26.0,47.0,74.782734375,63.74,9.39090909375,34.49
2021-06-30 16:22:16.953125000,-36.0,26.0,47.0,74.78234375,58.45,9.3919099375,34.49
2021-06-30 16:22:16.960937500,-36.0,26.0,47.0,74.781953125,53.845,9.392910781249999,34.49
2021-06-30 16:22:16.968750000,-36.0,26.0,47.0,74.7815625,49.24,9.393911625,34.49
2021-06-30 16:22:16.976562500,-36.0,26.0,47.0,74.781171875,45.36,9.39491246875,34.49
2021-06-30 16:22:16.984375000,-36.0,26.0,47.0,74.78078125,41.48,9.3959133125,34.49
2021-06-30 16:22:16.992187500,-36.0,26.0,47.0,74.780390625,38.235,9.396914156249998,34.49
2021-06-30 16:22:17.000000000,-36.0,26.0,47.0,74.78,34.99,9.397915,34.49
2021-06-30 16:22:17.007812500,-36.0,26.0,47.0,74.77953125,32.205,9.398955906249999,34.49
2021-06-30 16:22:17.015625000,-36.0,26.0,47.0,74.7790625,29.42,9.3999968125,34.49
2021-06-30 16:22:17.023437500,-36.0,26.0,47.0,74.77859375,26.93,9.401037718749999,34.49
2021-06-30 16:22:17.031250000,-36.0,26.0,47.0,74.778125,24.44,9.402078625,34.49
2021-06-30 16:22:17.039062500,-36.0,26.0,47.0,74.77765625,22.1,9.403119531249999,34.49
2021-06-30 16:22:17.046875000,-36.0,26.0,47.0,74.7771875,19.76,9.4041604375,34.49
2021-06-30 16:22:17.054687500,-36.0,26.0,47.0,74.77671875,17.42,9.405201343749999,34.49
2021-06-30 16:22:17.062500000,-36.0,26.0,47.0,74.77625,15.08,9.40624225,34.49
2021-06-30 16:22:17.070312500,-36.0,26.0,47.0,74.77578125,12.625,9.40728315625,34.49
2021-06-30 16:22:17.078125000,-36.0,26.0,47.0,74.7753125,10.17,9.4083240625,34.49
2021-06-30 16:22:17.085937500,-36.0,26.0,47.0,74.77484375,7.51,9.40936496875,34.49
2021-06-30 16:22:17.093750000,-36.0,26.0,47.0,74.774375,4.85,9.410405875,34.49
2021-06-30 16:22:17.101562500,-36.0,26.0,47.0,74.77390625,1.9749999999999996,9.41144678125,34.49
2021-06-30 16:22:17.109375000,-36.0,26.0,47.0,74.7734375,-0.9,9.4124876875,34.49
2021-06-30 16:22:17.117187500,-36.0,26.0,47.0,74.77296875,-3.8749999999999996,9.41352859375,34.49
2021-06-30 16:22:17.125000000,-36.0,26.0,47.0,74.77250000000001,-6.85,9.414569499999999,34.49
2021-06-30 16:22:17.132812500,-36.0,26.0,47.0,74.77203125,-9.76,9.41561040625,34.49
2021-06-30 16:22:17.140625000,-36.0,26.0,47.0,74.7715625,-12.67,9.416651312499999,34.49
2021-06-30 16:22:17.148437500,-36.0,26.0,47.0,74.77109375,-15.329999999999998,9.41769221875,34.49
2021-06-30 16:22:17.156250000,-36.0,26.0,47.0,74.770625,-17.99,9.418733125,34.49
2021-06-30 16:22:17.164062500,-36.0,26.0,47.0,74.77015625,-20.284999999999997,9.41977403125,34.49
2021-06-30 16:22:17.171875000,-36.0,26.0,47.0,74.7696875,-22.58,9.4208149375,34.49
2021-06-30 16:22:17.179687500,-36.0,26.0,47.0,74.76921875000001,-24.494999999999997,9.42185584375,34.49
2021-06-30 16:22:17.187500000,-36.0,26.0,47.0,74.76875,-26.41,9.42289675,34.49
2021-06-30 16:22:17.195312500,-36.0,26.0,47.0,74.76828125,-28.009999999999998,9.42393765625,34.49
2021-06-30 16:22:17.203125000,-36.0,26.0,47.0,74.7678125,-29.61,9.4249785625,34.49
2021-06-30 16:22:17.210937500,-36.0,26.0,47.0,74.76734375,-31.005,9.42601946875,34.49
2021-06-30 16:22:17.218750000,-36.0,26.0,47.0,74.766875,-32.4,9.427060375,34.49
2021-06-30 16:22:17.226562500,-36.0,26.0,47.0,74.76640625,-33.724999999999994,9.428101281250001,34.49
2021-06-30 16:22:17.234375000,-36.0,26.0,47.0,74.7659375,-35.05,9.4291421875,34.49
2021-06-30 16:22:17.242187500,-36.0,26.0,47.0,74.76546875,-36.435,9.430183093750001,34.49
2021-06-30 16:22:17.250000000,-36.0,26.0,47.0,74.765,-37.82,9.431224,34.49
2021-06-30 16:22:17.257812500,-36.0,26.0,47.0,74.76453125,-39.33,9.43202465625,34.49
2021-06-30 16:22:17.265625000,-36.0,26.0,47.0,74.7640625,-40.84,9.4328253125,34.49
2021-06-30 16:22:17.273437500,-36.0,26.0,47.0,74.76359375,-42.485,9.43362596875,34.49
2021-06-30 16:22:17.281250000,-36.0,26.0,47.0,74.763125,-44.13,9.434426625,34.49
2021-06-30 16:22:17.289062500,-36.0,26.0,47.0,74.76265625,-45.825,9.43522728125,34.49
2021-06-30 16:22:17.296875000,-36.0,26.0,47.0,74.7621875,-47.52,9.4360279375,34.49
2021-06-30 16:22:17.304687500,-36.0,26.0,47.0,74.76171875,-49.115,9.43682859375,34.49
2021-06-30 16:22:17.312500000,-36.0,26.0,47.0,74.76125,-50.71,9.43762925,34.49
2021-06-30 16:22:17.320312500,-36.0,26.0,47.0,74.76078125,-52.06,9.43842990625,34.49
2021-06-30 16:22:17.328125000,-36.0,26.0,47.0,74.7603125,-53.41,9.4392305625,34.49
2021-06-30 16:22:17.335937500,-36.0,26.0,47.0,74.75984375,-54.459999999999994,9.44003121875,34.49
2021-06-30 16:22:17.343750000,-36.0,26.0,47.0,74.759375,-55.51,9.440831875,34.49
2021-06-30 16:22:17.351562500,-36.0,26.0,47.0,74.75890625,-56.37,9.44163253125,34.49
2021-06-30 16:22:17.359375000,-36.0,26.0,47.0,74.7584375,-57.23,9.4424331875,34.49
2021-06-30 16:22:17.367187500,-36.0,26.0,47.0,74.75796875,-58.165,9.44323384375,34.49
2021-06-30 16:22:17.375000000,-36.0,26.0,47.0,74.7575,-59.1,9.4440345,34.49
2021-06-30 16:22:17.382812500,-36.0,26.0,47.0,74.75703125,-60.39,9.444835156249999,34.49
2021-06-30 16:22:17.390625000,-36.0,26.0,47.0,74.7565625,-61.68,9.445635812499999,34.49
2021-06-30 16:22:17.398437500,-36.0,26.0,47.0,74.75609375,-63.495000000000005,9.446436468749999,34.49
2021-06-30 16:22:17.406250000,-36.0,26.0,47.0,74.755625,-65.31,9.447237125,34.49
2021-06-30 16:22:17.414062500,-36.0,26.0,47.0,74.75515625,-67.53999999999999,9.44803778125,34.49
2021-06-30 16:22:17.421875000,-36.0,26.0,47.0,74.7546875,-69.77,9.4488384375,34.49
2021-06-30 16:22:17.429687500,-36.0,26.0,47.0,74.75421875,-71.995,9.44963909375,34.49
2021-06-30 16:22:17.437500000,-36.0,26.0,47.0,74.75375,-74.22,9.45043975,34.49
2021-06-30 16:22:17.445312500,-36.0,26.0,46.75,74.75328125,-75.765,9.45124040625,34.49
2021-06-30 16:22:17.453125000,-36.0,26.0,46.5,74.7528125,-77.31,9.4520410625,34.49
2021-06-30 16:22:17.460937500,-36.0,26.0,46.25,74.75234375,-77.465,9.45284171875,34.49
2021-06-30 16:22:17.468750000,-36.0,26.0,46.0,74.751875,-77.62,9.453642375,34.49
2021-06-30 16:22:17.476562500,-36.0,26.0,46.25,74.75140625,-75.845,9.45444303125,34.49
2021-06-30 16:22:17.484375000,-36.0,26.0,46.5,74.7509375,-74.07,9.4552436875,34.49
2021-06-30 16:22:17.492187500,-36.0,26.0,46.75,74.75046875,-70.19,9.45604434375,34.49
2021-06-30 16:22:17.500000000,-36.0,26.0,47.0,74.75,-66.31,9.456845,34.49
2021-06-30 16:22:17.507812500,-36.0,26.0,47.0,74.74953125,-60.56,9.457965968749999,34.49
2021-06-30 16:22:17.515625000,-36.0,26.0,47.0,74.7490625,-54.81,9.4590869375,34.49
2021-06-30 16:22:17.523437500,-36.0,26.0,47.0,74.74859375,-47.78,9.46020790625,34.49
2021-06-30 16:22:17.531250000,-36.0,26.0,47.0,74.748125,-40.75,9.461328875,34.49
2021-06-30 16:22:17.539062500,-36.0,26.0,47.0,74.74765625,-33.230000000000004,9.462449843749999,34.49
2021-06-30 16:22:17.546875000,-36.0,26.0,47.0,74.7471875,-25.71,9.463570812499999,34.49
2021-06-30 16:22:17.554687500,-36.0,26.0,47.0,74.74671875,-18.48,9.46469178125,34.49
2021-06-30 16:22:17.562500000,-36.0,26.0,47.0,74.74625,-11.25,9.46581275,34.49
2021-06-30 16:22:17.570312500,-36.0,26.0,47.0,74.74578125,-4.9350000000000005,9.46693371875,34.49
2021-06-30 16:22:17.578125000,-36.0,26.0,47.0,74.7453125,1.38,9.4680546875,34.49
2021-06-30 16:22:17.585937500,-36.0,26.0,47.0,74.74484375,6.3999999999999995,9.46917565625,34.49
2021-06-30 16:22:17.593750000,-36.0,26.0,47.0,74.744375,11.42,9.470296625,34.49
2021-06-30 16:22:17.601562500,-36.0,26.0,47.0,74.74390625,14.989999999999998,9.47141759375,34.49
2021-06-30 16:22:17.609375000,-36.0,26.0,47.0,74.7434375,18.56,9.472538562499999,34.49
2021-06-30 16:22:17.617187500,-36.0,26.0,47.0,74.74296875,20.71,9.47365953125,34.49
2021-06-30 16:22:17.625000000,-36.0,26.0,47.0,74.7425,22.86,9.4747805,34.49
2021-06-30 16:22:17.632812500,-36.0,26.0,47.0,74.74203125,23.744999999999997,9.47590146875,34.49
2021-06-30 16:22:17.640625000,-36.0,26.0,47.0,74.7415625,24.63,9.4770224375,34.49
2021-06-30 16:22:17.648437500,-36.0,26.0,47.0,74.74109375,24.5,9.47814340625,34.49
2021-06-30 16:22:17.656250000,-36.0,26.0,47.0,74.740625,24.37,9.479264375,34.49
2021-06-30 16:22:17.664062500,-36.0,26.0,47.0,74.74015625,23.525,9.48038534375,34.49
2021-06-30 16:22:17.671875000,-36.0,26.0,47.0,74.7396875,22.68,9.481506312499999,34.49
2021-06-30 16:22:17.679687500,-36.0,26.0,47.0,74.73921875,21.465,9.48262728125,34.49
2021-06-30 16:22:17.687500000,-36.0,26.0,47.0,74.73875,20.25,9.48374825,34.49
2021-06-30 16:22:17.695312500,-36.0,26.0,47.0,74.73828125,19.015,9.48486921875,34.49
2021-06-30 16:22:17.703125000,-36.0,26.0,47.0,74.7378125,17.78,9.4859901875,34.49
2021-06-30 16:22:17.710937500,-36.0,26.0,47.0,74.73734375,16.825,9.48711115625,34.49
2021-06-30 16:22:17.718750000,-36.0,26.0,47.0,74.736875,15.87,9.488232125,34.49
2021-06-30 16:22:17.726562500,-36.0,26.0,47.0,74.73640625,15.379999999999999,9.48935309375,34.49
2021-06-30 16:22:17.734375000,-36.0,26.0,47.0,74.7359375,14.89,9.490474062499999,34.49
2021-06-30 16:22:17.742187500,-36.0,26.0,47.0,74.73546875,14.945,9.49159503125,34.49
2021-06-30 16:22:17.750000000,-36.0,26.0,47.0,74.735,15.0,9.492716,34.49
2021-06-30 16:22:17.757812500,-36.0,26.0,47.0,74.73453125,15.545,9.4929161875,34.49
2021-06-30 16:22:17.765625000,-36.0,26.0,47.0,74.7340625,16.09,9.493116375,34.49
2021-06-30 16:22:17.773437500,-36.0,26.0,47.0,74.73359375,16.98,9.4933165625,34.49
2021-06-30 16:22:17.781250000,-36.0,26.0,47.0,74.733125,17.87,9.49351675,34.49
2021-06-30 16:22:17.789062500,-36.0,26.25,47.0,74.73265625,18.91,9.4937169375,34.49
2021-06-30 16:22:17.796875000,-36.0,26.5,47.0,74.7321875,19.95,9.493917125,34.49
2021-06-30 16:22:17.804687500,-36.0,26.75,47.0,74.73171875,20.93,9.4941173125,34.49
2021-06-30 16:22:17.812500000,-36.0,27.0,47.0,74.73125,21.91,9.4943175,34.49
2021-06-30 16:22:17.820312500,-36.0,26.75,47.0,74.73078124999999,22.67,9.4945176875,34.49
2021-06-30 16:22:17.828125000,-36.0,26.5,47.0,74.7303125,23.43,9.494717875,34.49
2021-06-30 16:22:17.835937500,-36.0,26.25,47.0,74.72984375,23.86,9.4949180625,34.49
2021-06-30 16:22:17.843750000,-36.0,26.0,47.0,74.729375,24.29,9.495118249999999,34.49
2021-06-30 16:22:17.851562500,-36.0,26.0,47.0,74.72890625,24.35,9.4953184375,34.49
2021-06-30 16:22:17.859375000,-36.0,26.0,47.0,74.7284375,24.41,9.495518624999999,34.49
2021-06-30 16:22:17.867187500,-36.0,26.0,47.0,74.72796875,24.115000000000002,9.4957188125,34.49
2021-06-30 16:22:17.875000000,-36.0,26.0,47.0,74.72749999999999,23.82,9.495919,34.49
2021-06-30 16:22:17.882812500,-36.0,26.0,47.0,74.72703125,23.21,9.4961191875,34.49
2021-06-30 16:22:17.890625000,-36.0,26.0,47.0,74.7265625,22.6,9.496319375,34.49
2021-06-30 16:22:17.898437500,-36.0,26.0,47.0,74.72609375,21.73,9.4965195625,34.49
2021-06-30 16:22:17.906250000,-36.0,26.0,47.0,74.725625,20.86,9.49671975,34.49
2021-06-30 16:22:17.914062500,-36.0,26.0,47.0,74.72515625,19.77,9.4969199375,34.49
2021-06-30 16:22:17.921875000,-36.0,26.0,47.0,74.7246875,18.68,9.497120125,34.49
2021-06-30 16:22:17.929687500,-36.0,26.0,47.0,74.72421875,17.435000000000002,9.4973203125,34.49
2021-06-30 16:22:17.937500000,-36.0,26.0,47.0,74.72375,16.19,9.4975205,34.49
2021-06-30 16:22:17.945312500,-36.0,26.25,47.0,74.72328125,14.835,9.4977206875,34.49
2021-06-30 16:22:17.953125000,-36.0,26.5,47.0,74.7228125,13.48,9.497920875,34.49
2021-06-30 16:22:17.960937500,-36.0,26.75,47.0,74.72234375,12.07,9.4981210625,34.49
2021-06-30 16:22:17.968750000,-36.0,27.0,47.0,74.721875,10.66,9.49832125,34.49
2021-06-30 16:22:17.976562500,-36.0,26.75,47.0,74.72140625,9.23,9.498521437499999,34.49
2021-06-30 16:22:17.984375000,-36.0,26.5,47.0,74.7209375,7.8,9.498721625,34.49
2021-06-30 16:22:17.992187500,-36.0,26.25,47.0,74.72046875,6.345,9.498921812499999,34.49
2021-06-30 16:22:18.000000000,-36.0,26.0,47.0,74.72,4.89,9.499122,34.49
2021-06-30 16:22:18.007812500,-36.0,26.0,46.75,74.719609375,3.375,9.49960240625,34.49
2021-06-30 16:22:18.015625000,-36.0,26.0,46.5,74.71921875,1.86,9.5000828125,34.49
2021-06-30 16:22:18.023437500,-36.0,26.0,46.25,74.718828125,0.24,9.500563218749999,34.49
2021-06-30 16:22:18.031250000,-36.0,26.0,46.0,74.7184375,-1.38,9.501043625,34.49
2021-06-30 16:22:18.039062500,-36.0,26.0,46.25,74.718046875,-3.14,9.50152403125,34.49
2021-06-30 16:22:18.046875000,-36.0,26.0,46.5,74.71765625,-4.9,9.5020044375,34.49
2021-06-30 16:22:18.054687500,-36.0,26.0,46.75,74.717265625,-6.765000000000001,9.50248484375,34.49
2021-06-30 16:22:18.062500000,-36.0,26.0,47.0,74.716875,-8.63,9.502965249999999,34.49
2021-06-30 16:22:18.070312500,-36.0,26.0,47.0,74.716484375,-10.530000000000001,9.50344565625,34.49
2021-06-30 16:22:18.078125000,-36.0,26.0,47.0,74.71609375,-12.43,9.5039260625,34.49
2021-06-30 16:22:18.085937500,-36.0,26.0,47.0,74.715703125,-14.275,9.50440646875,34.49
2021-06-30 16:22:18.093750000,-36.0,26.0,47.0,74.7153125,-16.12,9.504886875,34.49
2021-06-30 16:22:18.101562500,-36.0,26.0,46.75,74.714921875,-17.825000000000003,9.50536728125,34.49
2021-06-30 16:22:18.109375000,-36.0,26.0,46.5,74.71453125,-19.53,9.5058476875,34.49
2021-06-30 16:22:18.117187500,-36.0,26.0,46.25,74.714140625,-21.07,9.50632809375,34.49
2021-06-30 16:22:18.125000000,-36.0,26.0,46.0,74.71375,-22.61,9.5068085,34.49
2021-06-30 16:22:18.132812500,-36.0,26.0,46.0,74.713359375,-24.035,9.50728890625,34.49
2021-06-30 16:22:18.140625000,-36.0,26.0,46.0,74.71296875,-25.46,9.5077693125,34.49
2021-06-30 16:22:18.148437500,-36.0,26.0,46.0,74.712578125,-26.9,9.50824971875,34.49
2021-06-30 16:22:18.156250000,-36.0,26.0,46.0,74.7121875,-28.34,9.508730125,34.49
2021-06-30 16:22:18.164062500,-36.0,26.0,46.0,74.711796875,-29.965,9.50921053125,34.49
2021-06-30 16:22:18.171875000,-36.0,26.0,46.0,74.71140625,-31.59,9.5096909375,34.49
2021-06-30 16:22:18.179687500,-36.0,26.0,46.0,74.711015625,-33.58,9.51017134375,34.49
2021-06-30 16:22:18.187500000,-36.0,26.0,46.0,74.710625,-35.57,9.510651750000001,34.49
2021-06-30 16:22:18.195312500,-36.0,26.0,46.25,74.710234375,-37.965,9.51113215625,34.49
2021-06-30 16:22:18.203125000,-36.0,26.0,46.5,74.70984375,-40.36,9.5116125625,34.49
2021-06-30 16:22:18.210937500,-36.0,26.0,46.75,74.709453125,-42.96,9.51209296875,34.49
2021-06-30 16:22:18.218750000,-36.0,26.0,47.0,74.7090625,-45.56,9.512573375,34.49
2021-06-30 16:22:18.226562500,-36.0,26.0,47.0,74.708671875,-47.92,9.513053781250001,34.49
2021-06-30 16:22:18.234375000,-36.0,26.0,47.0,74.70828125,-50.28,9.5135341875,34.49
2021-06-30 16:22:18.242187500,-36.0,26.0,47.0,74.707890625,-51.745000000000005,9.51401459375,34.49
2021-06-30 16:22:18.250000000,-36.0,26.0,47.0,74.7075,-53.21,9.514495,34.49
2021-06-30 16:22:18.257812500,-36.0,26.0,47.0,74.707109375,-53.135000000000005,9.51409465625,34.49
2021-06-30 16:22:18.265625000,-36.0,26.0,47.0,74.70671875,-53.06,9.5136943125,34.49
2021-06-30 16:22:18.273437500,-36.0,26.0,47.0,74.706328125,-51.05,9.51329396875,34.49
2021-06-30 16:22:18.281250000,-36.0,26.0,47.0,74.7059375,-49.04,9.512893625,34.49
2021-06-30 16:22:18.289062500,-36.0,26.0,46.75,74.705546875,-45.08,9.51249328125,34.49
2021-06-30 16:22:18.296875000,-36.0,26.0,46.5,74.70515625,-41.12,9.5120929375,34.49
2021-06-30 16:22:18.304687500,-36.0,26.0,46.25,74.704765625,-35.635,9.51169259375,34.49
2021-06-30 16:22:18.312500000,-36.0,26.0,46.0,74.704375,-30.15,9.51129225,34.49
2021-06-30 16:22:18.320312500,-36.0,26.0,46.0,74.703984375,-23.825,9.51089190625,34.49
2021-06-30 16:22:18.328125000,-36.0,26.0,46.0,74.70359375,-17.5,9.5104915625,34.49
2021-06-30 16:22:18.335937500,-36.0,26.0,46.0,74.703203125,-11.085,9.51009121875,34.49
2021-06-30 16:22:18.343750000,-36.0,26.0,46.0,74.7028125,-4.67,9.509690875,34.49
2021-06-30 16:22:18.351562500,-36.0,26.0,46.0,74.702421875,1.2349999999999994,9.50929053125,34.49
2021-06-30 16:22:18.359375000,-36.0,26.0,46.0,74.70203125,7.14,9.5088901875,34.49
2021-06-30 16:22:18.367187500,-36.0,26.0,46.0,74.701640625,12.175,9.50848984375,34.49
2021-06-30 16:22:18.375000000,-36.0,26.0,46.0,74.70125,17.21,9.5080895,34.49
2021-06-30 16:22:18.382812500,-36.0,26.0,46.25,74.700859375,21.22,9.507689156249999,34.49
2021-06-30 16:22:18.390625000,-36.0,26.0,46.5,74.70046875,25.23,9.507288812499999,34.49
2021-06-30 16:22:18.398437500,-36.0,26.0,46.75,74.700078125,28.18,9.506888468749999,34.49
2021-06-30 16:22:18.406250000,-36.0,26.0,47.0,74.6996875,31.13,9.506488124999999,34.49
2021-06-30 16:22:18.414062500,-36.0,26.0,46.75,74.699296875,33.025,9.506087781249999,34.49
2021-06-30 16:22:18.421875000,-36.0,26.0,46.5,74.69890625,34.92,9.505687437499999,34.49
2021-06-30 16:22:18.429687500,-36.0,26.0,46.25,74.698515625,35.78,9.505287093749999,34.49
2021-06-30 16:22:18.437500000,-36.0,26.0,46.0,74.698125,36.64,9.504886749999999,34.49
2021-06-30 16:22:18.445312500,-36.0,26.0,46.0,74.697734375,36.555,9.504486406249999,34.49
2021-06-30 16:22:18.453125000,-36.0,26.0,46.0,74.69734375,36.47,9.504086062499999,34.49
2021-06-30 16:22:18.460937500,-36.0,26.0,46.0,74.696953125,35.64,9.503685718749999,34.49
2021-06-30 16:22:18.468750000,-36.0,26.0,46.0,74.6965625,34.81,9.503285374999999,34.49
2021-06-30 16:22:18.476562500,-36.0,26.0,46.25,74.696171875,33.540000000000006,9.502885031249999,34.49
2021-06-30 16:22:18.484375000,-36.0,26.0,46.5,74.69578125,32.27,9.502484687499999,34.49
2021-06-30 16:22:18.492187500,-36.0,26.0,46.75,74.695390625,30.92,9.502084343749999,34.49
2021-06-30 16:22:18.500000000,-36.0,26.0,47.0,74.695,29.57,9.501684,34.49
2021-06-30 16:22:18.507812500,-36.0,26.0,47.0,74.694609375,28.445,9.50136371875,34.49
2021-06-30 16:22:18.515625000,-36.0,26.0,47.0,74.69421875,27.32,9.5010434375,34.49
2021-06-30 16:22:18.523437500,-36.0,26.0,47.0,74.693828125,26.6,9.500723156249999,34.49
2021-06-30 16:22:18.531250000,-36.0,26.0,47.0,74.6934375,25.88,9.500402874999999,34.49
2021-06-30 16:22:18.539062500,-36.0,26.0,47.0,74.69304687500001,25.555,9.50008259375,34.49
2021-06-30 16:22:18.546875000,-36.0,26.0,47.0,74.69265625,25.23,9.4997623125,34.49
2021-06-30 16:22:18.554687500,-36.0,26.0,47.0,74.692265625,25.165,9.499442031249998,34.49
2021-06-30 16:22:18.562500000,-36.0,26.0,47.0,74.691875,25.1,9.499121749999999,34.49
2021-06-30 16:22:18.570312500,-36.0,26.0,47.0,74.691484375,25.125,9.498801468749999,34.49
2021-06-30 16:22:18.578125000,-36.0,26.0,47.0,74.69109375000001,25.15,9.4984811875,34.49
2021-06-30 16:22:18.585937500,-36.0,26.0,47.0,74.690703125,25.174999999999997,9.49816090625,34.49
2021-06-30 16:22:18.593750000,-36.0,26.0,47.0,74.6903125,25.2,9.497840624999998,34.49
2021-06-30 16:22:18.601562500,-36.0,26.0,47.0,74.689921875,25.21,9.497520343749999,34.49
2021-06-30 16:22:18.609375000,-36.0,26.0,47.0,74.68953125,25.22,9.4972000625,34.49
2021-06-30 16:22:18.617187500,-36.0,26.0,47.0,74.68914062500001,25.28,9.49687978125,34.49
2021-06-30 16:22:18.625000000,-36.0,26.0,47.0,74.68875,25.34,9.4965595,34.49
2021-06-30 16:22:18.632812500,-36.0,26.0,47.0,74.688359375,25.48,9.496239218749999,34.49
2021-06-30 16:22:18.640625000,-36.0,26.0,47.0,74.68796875,25.62,9.495918937499999,34.49
2021-06-30 16:22:18.648437500,-36.0,26.0,47.0,74.687578125,25.765,9.49559865625,34.49
2021-06-30 16:22:18.656250000,-36.0,26.0,47.0,74.68718750000001,25.91,9.495278375,34.49
2021-06-30 16:22:18.664062500,-36.0,26.0,47.0,74.686796875,25.915,9.494958093749998,34.49
2021-06-30 16:22:18.671875000,-36.0,26.0,47.0,74.68640625,25.92,9.494637812499999,34.49
2021-06-30 16:22:18.679687500,-36.0,26.0,47.0,74.686015625,25.595,9.49431753125,34.49
2021-06-30 16:22:18.687500000,-36.0,26.0,47.0,74.685625,25.27,9.49399725,34.49
2021-06-30 16:22:18.695312500,-36.0,26.0,46.75,74.68523437500001,24.5,9.49367696875,34.49
2021-06-30 16:22:18.703125000,-36.0,26.0,46.5,74.68484375,23.73,9.493356687499999,34.49
2021-06-30 16:22:18.710937500,-36.0,26.0,46.25,74.684453125,22.525,9.493036406249999,34.49
2021-06-30 16:22:18.718750000,-36.0,26.0,46.0,74.6840625,21.32,9.492716125,34.49
2021-06-30 16:22:18.726562500,-36.0,26.0,46.25,74.683671875,19.765,9.49239584375,34.49
2021-06-30 16:22:18.734375000,-36.0,26.0,46.5,74.68328125000001,18.21,9.492075562499998,34.49
2021-06-30 16:22:18.742187500,-36.0,26.0,46.75,74.682890625,16.445,9.491755281249999,34.49
2021-06-30 16:22:18.750000000,-36.0,26.0,47.0,74.6825,14.68,9.491435,34.49
2021-06-30 16:22:18.757812500,-36.0,26.0,46.75,74.682109375,12.8,9.4910746875,34.49
2021-06-30 16:22:18.765625000,-36.0,26.0,46.5,74.68171875,10.92,9.490714375,34.49
2021-06-30 16:22:18.773437500,-36.0,26.0,46.25,74.68132812500001,8.969999999999999,9.4903540625,34.49
2021-06-30 16:22:18.781250000,-36.0,26.0,46.0,74.6809375,7.02,9.48999375,34.49
2021-06-30 16:22:18.789062500,-36.25,26.0,46.0,74.680546875,4.995,9.4896334375,34.49
2021-06-30 16:22:18.796875000,-36.5,26.0,46.0,74.68015625,2.97,9.489273124999999,34.49
2021-06-30 16:22:18.804687500,-36.75,26.0,46.0,74.679765625,0.8650000000000002,9.488912812499999,34.49
2021-06-30 16:22:18.812500000,-37.0,26.0,46.0,74.67937500000001,-1.24,9.488552499999999,34.49
2021-06-30 16:22:18.820312500,-36.75,26.0,46.25,74.678984375,-3.4050000000000002,9.4881921875,34.49
2021-06-30 16:22:18.828125000,-36.5,26.0,46.5,74.67859375,-5.57,9.487831875,34.49
2021-06-30 16:22:18.835937500,-36.25,26.0,46.75,74.678203125,-7.73,9.4874715625,34.49
2021-06-30 16:22:18.843750000,-36.0,26.0,47.0,74.6778125,-9.89,9.48711125,34.49
2021-06-30 16:22:18.851562500,-36.0,26.0,47.0,74.67742187500001,-11.975000000000001,9.4867509375,34.49
2021-06-30 16:22:18.859375000,-36.0,26.0,47.0,74.67703125,-14.06,9.486390625,34.49
2021-06-30 16:22:18.867187500,-36.0,26.0,47.0,74.676640625,-16.015,9.4860303125,34.49
2021-06-30 16:22:18.875000000,-36.0,26.0,47.0,74.67625,-17.97,9.485669999999999,34.49
2021-06-30 16:22:18.882812500,-36.0,26.0,47.0,74.675859375,-19.759999999999998,9.4853096875,34.49
2021-06-30 16:22:18.890625000,-36.0,26.0,47.0,74.67546875000001,-21.55,9.484949375,34.49
2021-06-30 16:22:18.898437500,-36.0,26.0,47.0,74.675078125,-23.185000000000002,9.4845890625,34.49
2021-06-30 16:22:18.906250000,-36.0,26.0,47.0,74.6746875,-24.82,9.48422875,34.49
2021-06-30 16:22:18.914062500,-36.0,26.0,46.75,74.674296875,-26.345,9.4838684375,34.49
2021-06-30 16:22:18.921875000,-36.0,26.0,46.5,74.67390625,-27.87,9.483508125,34.49
2021-06-30 16:22:18.929687500,-36.0,26.0,46.25,74.67351562500001,-29.395000000000003,9.4831478125,34.49
2021-06-30 16:22:18.937500000,-36.0,26.0,46.0,74.673125,-30.92,9.4827875,34.49
2021-06-30 16:22:18.945312500,-36.0,26.0,46.25,74.672734375,-32.605000000000004,9.4824271875,34.49
2021-06-30 16:22:18.953125000,-36.0,26.0,46.5,74.67234375,-34.29,9.482066875000001,34.49
2021-06-30 16:22:18.960937500,-36.0,26.0,46.75,74.671953125,-36.31,9.4817065625,34.49
2021-06-30 16:22:18.968750000,-36.0,26.0,47.0,74.67156250000001,-38.33,9.48134625,34.49
2021-06-30 16:22:18.976562500,-36.0,26.0,46.75,74.671171875,-40.79,9.4809859375,34.49
2021-06-30 16:22:18.984375000,-36.0,26.0,46.5,74.67078125,-43.25,9.480625625,34.49
2021-06-30 16:22:18.992187500,-36.0,26.0,46.25,74.670390625,-46.120000000000005,9.4802653125,34.49
2021-06-30 16:22:19.000000000,-36.0,26.0,46.0,74.67,-48.99,9.479905,34.49
2021-06-30 16:22:19.007812500,-36.0,26.0,46.25,74.669296875,-52.005,9.47978490625,34.49
2021-06-30 16:22:19.015625000,-36.0,26.0,46.5,74.66859375,-55.02,9.479664812500001,34.49
2021-06-30 16:22:19.023437500,-36.0,26.0,46.75,74.667890625,-57.715,9.47954471875,34.49
2021-06-30 16:22:19.031250000,-36.0,26.0,47.0,74.6671875,-60.41,9.479424625,34.49
2021-06-30 16:22:19.039062500,-36.0,26.0,47.0,74.666484375,-62.18,9.479304531250001,34.49
2021-06-30 16:22:19.046875000,-36.0,26.0,47.0,74.66578125,-63.95,9.4791844375,34.49
2021-06-30 16:22:19.054687500,-36.0,26.0,47.0,74.66507812500001,-64.245,9.47906434375,34.49
2021-06-30 16:22:19.062500000,-36.0,26.0,47.0,74.664375,-64.54,9.478944250000001,34.49
2021-06-30 16:22:19.070312500,-36.0,26.0,47.0,74.663671875,-63.0,9.47882415625,34.49
2021-06-30 16:22:19.078125000,-36.0,26.0,47.0,74.66296875,-61.46,9.4787040625,34.49
2021-06-30 16:22:19.085937500,-36.0,26.0,47.0,74.662265625,-58.06,9.47858396875,34.49
2021-06-30 16:22:19.093750000,-36.0,26.0,47.0,74.6615625,-54.66,9.478463875000001,34.49
2021-06-30 16:22:19.101562500,-36.0,26.0,47.0,74.660859375,-49.72,9.47834378125,34.49
2021-06-30 16:22:19.109375000,-36.0,26.0,47.0,74.66015625,-44.78,9.4782236875,34.49
2021-06-30 16:22:19.117187500,-36.0,26.0,47.0,74.659453125,-38.894999999999996,9.478103593750001,34.49
2021-06-30 16:22:19.125000000,-36.0,26.0,47.0,74.65875,-33.01,9.4779835,34.49
2021-06-30 16:22:19.132812500,-36.0,26.0,46.75,74.658046875,-26.85,9.47786340625,34.49
2021-06-30 16:22:19.140625000,-36.0,26.0,46.5,74.65734375,-20.69,9.477743312500001,34.49
2021-06-30 16:22:19.148437500,-36.0,26.0,46.25,74.656640625,-14.850000000000001,9.47762321875,34.49
2021-06-30 16:22:19.156250000,-36.0,26.0,46.0,74.65593750000001,-9.01,9.477503125,34.49
2021-06-30 16:22:19.164062500,-36.0,26.0,46.25,74.655234375,-3.88,9.477383031250001,34.49
2021-06-30 16:22:19.171875000,-36.0,26.0,46.5,74.65453125,1.25,9.4772629375,34.49
2021-06-30 16:22:19.179687500,-36.0,26.0,46.75,74.653828125,5.51,9.47714284375,34.49
2021-06-30 16:22:19.187500000,-36.0,26.0,47.0,74.653125,9.77,9.47702275,34.49
2021-06-30 16:22:19.195312500,-36.0,26.0,47.0,74.652421875,13.135,9.476902656250001,34.49
2021-06-30 16:22:19.203125000,-36.0,26.0,47.0,74.65171875,16.5,9.4767825625,34.49
2021-06-30 16:22:19.210937500,-36.0,26.0,47.0,74.651015625,19.005000000000003,9.47666246875,34.49
2021-06-30 16:22:19.218750000,-36.0,26.0,47.0,74.6503125,21.51,9.476542375000001,34.49
2021-06-30 16:22:19.226562500,-36.0,26.0,46.75,74.649609375,23.18,9.47642228125,34.49
2021-06-30 16:22:19.234375000,-36.0,26.0,46.5,74.64890625,24.85,9.4763021875,34.49
2021-06-30 16:22:19.242187500,-36.0,26.0,46.25,74.648203125,25.705,9.476182093750001,34.49
2021-06-30 16:22:19.250000000,-36.0,26.0,46.0,74.64750000000001,26.56,9.476062,34.49
2021-06-30 16:22:19.257812500,-36.0,26.0,46.25,74.646796875,26.64,9.4746608125,34.49
2021-06-30 16:22:19.265625000,-36.0,26.0,46.5,74.64609375,26.72,9.473259625,34.49
2021-06-30 16:22:19.273437500,-36.0,26.0,46.75,74.645390625,26.185,9.4718584375,34.49
2021-06-30 16:22:19.281250000,-36.0,26.0,47.0,74.6446875,25.65,9.47045725,34.49
2021-06-30 16:22:19.289062500,-36.0,26.0,47.0,74.643984375,24.725,9.4690560625,34.49
2021-06-30 16:22:19.296875000,-36.0,26.0,47.0,74.64328125,23.8,9.467654875000001,34.49
2021-06-30 16:22:19.304687500,-36.0,26.0,47.0,74.642578125,22.795,9.4662536875,34.49
2021-06-30 16:22:19.312500000,-36.0,26.0,47.0,74.641875,21.79,9.464852500000001,34.49
2021-06-30 16:22:19.320312500,-36.0,26.0,46.75,74.641171875,20.98,9.4634513125,34.49
2021-06-30 16:22:19.328125000,-36.0,26.0,46.5,74.64046875,20.17,9.462050125000001,34.49
2021-06-30 16:22:19.335937500,-36.0,26.0,46.25,74.639765625,19.755000000000003,9.4606489375,34.49
2021-06-30 16:22:19.343750000,-36.0,26.0,46.0,74.6390625,19.34,9.459247750000001,34.49
2021-06-30 16:22:19.351562500,-36.0,26.0,46.0,74.63835937500001,19.369999999999997,9.4578465625,34.49
2021-06-30 16:22:19.359375000,-36.0,26.0,46.0,74.63765625,19.4,9.456445375000001,34.49
2021-06-30 16:22:19.367187500,-36.0,26.0,46.0,74.636953125,19.825,9.4550441875,34.49
2021-06-30 16:22:19.375000000,-36.0,26.0,46.0,74.63625,20.25,9.453643,34.49
2021-06-30 16:22:19.382812500,-36.0,26.0,46.0,74.635546875,20.91,9.4522418125,34.49
2021-06-30 16:22:19.390625000,-36.0,26.0,46.0,74.63484375,21.57,9.450840625,34.49
2021-06-30 16:22:19.398437500,-36.0,26.0,46.0,74.634140625,22.310000000000002,9.4494394375,34.49
2021-06-30 16:22:19.406250000,-36.0,26.0,46.0,74.6334375,23.05,9.44803825,34.49
2021-06-30 16:22:19.414062500,-36.0,26.0,46.0,74.632734375,23.725,9.4466370625,34.49
2021-06-30 16:22:19.421875000,-36.0,26.0,46.0,74.63203125,24.4,9.445235875,34.49
2021-06-30 16:22:19.429687500,-36.0,26.0,46.0,74.631328125,24.95,9.4438346875,34.49
2021-06-30 16:22:19.437500000,-36.0,26.0,46.0,74.630625,25.5,9.4424335,34.49
2021-06-30 16:22:19.445312500,-36.0,26.0,46.0,74.629921875,25.9,9.4410323125,34.49
2021-06-30 16:22:19.453125000,-36.0,26.0,46.0,74.62921875,26.3,9.439631125,34.49
2021-06-30 16:22:19.460937500,-36.0,26.0,46.0,74.628515625,26.54,9.438229937500001,34.49
2021-06-30 16:22:19.468750000,-36.0,26.0,46.0,74.6278125,26.78,9.43682875,34.49
2021-06-30 16:22:19.476562500,-36.0,26.0,46.25,74.627109375,26.815,9.435427562500001,34.49
2021-06-30 16:22:19.484375000,-36.0,26.0,46.5,74.62640625,26.85,9.434026375,34.49
2021-06-30 16:22:19.492187500,-36.0,26.0,46.75,74.625703125,26.55,9.432625187500001,34.49
2021-06-30 16:22:19.500000000,-36.0,26.0,47.0,74.625,26.25,9.431224,34.49
2021-06-30 16:22:19.507812500,-36.0,26.0,47.0,74.624296875,25.48,9.430583437500001,34.49
2021-06-30 16:22:19.515625000,-36.0,26.0,47.0,74.62359375,24.71,9.429942875,34.49
2021-06-30 16:22:19.523437500,-36.0,26.0,47.0,74.622890625,23.375,9.4293023125,34.49
2021-06-30 16:22:19.531250000,-36.0,26.0,47.0,74.6221875,22.04,9.42866175,34.49
2021-06-30 16:22:19.539062500,-36.25,26.0,46.75,74.621484375,20.165,9.4280211875,34.49
2021-06-30 16:22:19.546875000,-36.5,26.0,46.5,74.62078125,18.29,9.427380625,34.49
2021-06-30 16:22:19.554687500,-36.75,26.0,46.25,74.620078125,16.085,9.4267400625,34.49
2021-06-30 16:22:19.562500000,-37.0,26.0,46.0,74.619375,13.88,9.4260995,34.49
2021-06-30 16:22:19.570312500,-36.75,26.0,46.25,74.618671875,11.65,9.4254589375,34.49
2021-06-30 16:22:19.578125000,-36.5,26.0,46.5,74.61796875,9.42,9.424818375000001,34.49
2021-06-30 16:22:19.585937500,-36.25,26.0,46.75,74.617265625,7.45,9.4241778125,34.49
2021-06-30 16:22:19.593750000,-36.0,26.0,47.0,74.6165625,5.48,9.42353725,34.49
2021-06-30 16:22:19.601562500,-36.0,26.0,47.0,74.615859375,3.9400000000000004,9.4228966875,34.49
2021-06-30 16:22:19.609375000,-36.0,26.0,47.0,74.61515625,2.4,9.422256125,34.49
2021-06-30 16:22:19.617187500,-36.0,26.0,47.0,74.614453125,1.23,9.4216155625,34.49
2021-06-30 16:22:19.625000000,-36.0,26.0,47.0,74.61375,0.06,9.420975,34.49
2021-06-30 16:22:19.632812500,-36.0,26.0,46.75,74.613046875,-0.935,9.420334437500001,34.49
2021-06-30 16:22:19.640625000,-36.0,26.0,46.5,74.61234375,-1.93,9.419693875,34.49
2021-06-30 16:22:19.648437500,-36.0,26.0,46.25,74.61164062499999,-3.0300000000000002,9.4190533125,34.49
2021-06-30 16:22:19.656250000,-36.0,26.0,46.0,74.6109375,-4.13,9.41841275,34.49
2021-06-30 16:22:19.664062500,-36.0,26.0,46.0,74.610234375,-5.545,9.4177721875,34.49
2021-06-30 16:22:19.671875000,-36.0,26.0,46.0,74.60953125,-6.96,9.417131625,34.49
2021-06-30 16:22:19.679687500,-36.0,26.0,46.0,74.608828125,-8.765,9.4164910625,34.49
2021-06-30 16:22:19.687500000,-36.0,26.0,46.0,74.608125,-10.57,9.415850500000001,34.49
2021-06-30 16:22:19.695312500,-36.0,26.0,46.25,74.607421875,-12.675,9.4152099375,34.49
2021-06-30 16:22:19.703125000,-36.0,26.0,46.5,74.60671875,-14.78,9.414569375000001,34.49
2021-06-30 16:22:19.710937500,-36.0,26.0,46.75,74.606015625,-16.975,9.4139288125,34.49
2021-06-30 16:22:19.718750000,-36.0,26.0,47.0,74.6053125,-19.17,9.41328825,34.49
2021-06-30 16:22:19.726562500,-36.0,26.0,47.0,74.604609375,-21.240000000000002,9.4126476875,34.49
2021-06-30 16:22:19.734375000,-36.0,26.0,47.0,74.60390625,-23.31,9.412007125,34.49
2021-06-30 16:22:19.742187500,-36.0,26.0,47.0,74.603203125,-25.085,9.4113665625,34.49
2021-06-30 16:22:19.750000000,-36.0,26.0,47.0,74.60249999999999,-26.86,9.410726,34.49
2021-06-30 16:22:19.757812500,-36.0,26.0,47.0,74.601796875,-28.295,9.40976515625,34.49
2021-06-30 16:22:19.765625000,-36.0,26.0,47.0,74.60109375,-29.73,9.408804312500001,34.49
2021-06-30 16:22:19.773437500,-36.0,26.0,47.0,74.600390625,-30.915,9.40784346875,34.49
2021-06-30 16:22:19.781250000,-36.0,26.0,47.0,74.5996875,-32.1,9.406882625,34.49
2021-06-30 16:22:19.789062500,-36.0,26.0,47.0,74.598984375,-33.22,9.405921781250001,34.49
2021-06-30 16:22:19.796875000,-36.0,26.0,47.0,74.59828125,-34.34,9.4049609375,34.49
2021-06-30 16:22:19.804687500,-36.0,26.0,47.0,74.597578125,-35.615,9.40400009375,34.49
2021-06-30 16:22:19.812500000,-36.0,26.0,47.0,74.596875,-36.89,9.40303925,34.49
2021-06-30 16:22:19.820312500,-36.0,26.0,47.0,74.596171875,-38.53,9.40207840625,34.49
2021-06-30 16:22:19.828125000,-36.0,26.0,47.0,74.59546875,-40.17,9.4011175625,34.49
2021-06-30 16:22:19.835937500,-36.0,26.0,47.0,74.594765625,-42.305,9.40015671875,34.49
2021-06-30 16:22:19.843750000,-36.0,26.0,47.0,74.59406249999999,-44.44,9.399195875,34.49
2021-06-30 16:22:19.851562500,-36.0,26.0,47.0,74.593359375,-47.095,9.39823503125,34.49
2021-06-30 16:22:19.859375000,-36.0,26.0,47.0,74.59265625,-49.75,9.3972741875,34.49
2021-06-30 16:22:19.867187500,-36.0,26.0,47.0,74.591953125,-52.78,9.39631334375,34.49
2021-06-30 16:22:19.875000000,-36.0,26.0,47.0,74.59125,-55.81,9.395352500000001,34.49
2021-06-30 16:22:19.882812500,-36.0,26.0,47.0,74.590546875,-58.84,9.39439165625,34.49
2021-06-30 16:22:19.890625000,-36.0,26.0,47.0,74.58984375,-61.87,9.3934308125,34.49
2021-06-30 16:22:19.898437500,-36.0,26.0,47.0,74.589140625,-64.315,9.392469968750001,34.49
2021-06-30 16:22:19.906250000,-36.0,26.0,47.0,74.5884375,-66.76,9.391509125,34.49
2021-06-30 16:22:19.914062500,-36.0,26.0,47.0,74.587734375,-67.94,9.39054828125,34.49
2021-06-30 16:22:19.921875000,-36.0,26.0,47.0,74.58703125,-69.12,9.389587437500001,34.49
2021-06-30 16:22:19.929687500,-36.0,26.0,47.0,74.586328125,-68.41,9.38862659375,34.49
2021-06-30 16:22:19.937500000,-36.0,26.0,47.0,74.585625,-67.7,9.38766575,34.49
2021-06-30 16:22:19.945312500,-36.0,26.0,47.0,74.58492187499999,-64.79,9.386704906250001,34.49
2021-06-30 16:22:19.953125000,-36.0,26.0,47.0,74.58421875,-61.88,9.3857440625,34.49
2021-06-30 16:22:19.960937500,-36.0,26.0,47.0,74.583515625,-56.88,9.38478321875,34.49
2021-06-30 16:22:19.968750000,-36.0,26.0,47.0,74.5828125,-51.88,9.383822375000001,34.49
2021-06-30 16:22:19.976562500,-36.0,26.0,47.0,74.582109375,-45.355000000000004,9.38286153125,34.49
2021-06-30 16:22:19.984375000,-36.0,26.0,47.0,74.58140625,-38.83,9.3819006875,34.49
2021-06-30 16:22:19.992187500,-36.0,26.0,47.0,74.580703125,-31.595,9.380939843750001,34.49
2021-06-30 16:22:20.000000000,-36.0,26.0,47.0,74.58,-24.36,9.379979,34.49
2021-06-30 16:22:20.007812500,-36.0,26.0,47.0,74.579140625,-17.29,9.37941853125,34.489375
2021-06-30 16:22:20.015625000,-36.0,26.0,47.0,74.57828125,-10.22,9.3788580625,34.48875
2021-06-30 16:22:20.023437500,-36.0,26.0,47.0,74.577421875,-3.9800000000000004,9.37829759375,34.488125000000004
2021-06-30 16:22:20.031250000,-36.0,26.0,47.0,74.5765625,2.26,9.377737125,34.487500000000004
2021-06-30 16:22:20.039062500,-36.0,26.0,47.0,74.575703125,7.2749999999999995,9.37717665625,34.486875000000005
2021-06-30 16:22:20.046875000,-36.0,26.0,47.0,74.57484375,12.29,9.3766161875,34.48625
2021-06-30 16:22:20.054687500,-36.0,26.0,47.0,74.573984375,15.985,9.37605571875,34.485625
2021-06-30 16:22:20.062500000,-36.0,26.0,47.0,74.573125,19.68,9.37549525,34.485
2021-06-30 16:22:20.070312500,-36.0,26.0,47.0,74.572265625,22.134999999999998,9.37493478125,34.484375
2021-06-30 16:22:20.078125000,-36.0,26.0,47.0,74.57140625,24.59,9.3743743125,34.48375
2021-06-30 16:22:20.085937500,-36.0,26.0,47.0,74.570546875,25.98,9.37381384375,34.483125
2021-06-30 16:22:20.093750000,-36.0,26.0,47.0,74.5696875,27.37,9.373253375,34.4825
2021-06-30 16:22:20.101562500,-36.0,26.0,47.0,74.568828125,27.9,9.37269290625,34.481875
2021-06-30 16:22:20.109375000,-36.0,26.0,47.0,74.56796874999999,28.43,9.3721324375,34.48125
2021-06-30 16:22:20.117187500,-36.0,26.0,47.0,74.567109375,28.32,9.37157196875,34.480625
2021-06-30 16:22:20.125000000,-36.0,26.0,47.0,74.56625,28.21,9.3710115,34.480000000000004
2021-06-30 16:22:20.132812500,-36.0,26.0,47.0,74.56539062499999,27.67,9.37045103125,34.479375
2021-06-30 16:22:20.140625000,-36.0,26.0,47.0,74.56453125,27.13,9.3698905625,34.47875
2021-06-30 16:22:20.148437500,-36.0,26.0,47.0,74.563671875,26.375,9.36933009375,34.478125
2021-06-30 16:22:20.156250000,-36.0,26.0,47.0,74.56281249999999,25.62,9.368769624999999,34.4775
2021-06-30 16:22:20.164062500,-36.0,26.0,47.0,74.561953125,24.855,9.36820915625,34.476875
2021-06-30 16:22:20.171875000,-36.0,26.0,47.0,74.56109375,24.09,9.3676486875,34.47625
2021-06-30 16:22:20.179687500,-36.0,26.0,47.0,74.560234375,23.5,9.36708821875,34.475625
2021-06-30 16:22:20.187500000,-36.0,26.0,47.0,74.559375,22.91,9.36652775,34.475
2021-06-30 16:22:20.195312500,-36.0,26.0,47.0,74.558515625,22.64,9.365967281249999,34.474375
2021-06-30 16:22:20.203125000,-36.0,26.0,47.0,74.55765625,22.37,9.3654068125,34.47375
2021-06-30 16:22:20.210937500,-36.0,26.0,47.0,74.556796875,22.48,9.36484634375,34.473124999999996
2021-06-30 16:22:20.218750000,-36.0,26.0,47.0,74.5559375,22.59,9.364285875,34.4725
2021-06-30 16:22:20.226562500,-36.0,26.0,47.0,74.555078125,23.03,9.36372540625,34.471875
2021-06-30 16:22:20.234375000,-36.0,26.0,47.0,74.55421875,23.47,9.363164937499999,34.47125
2021-06-30 16:22:20.242187500,-36.0,26.0,47.0,74.553359375,24.095,9.36260446875,34.470625
2021-06-30 16:22:20.250000000,-36.0,26.0,47.0,74.5525,24.72,9.362044,34.47
2021-06-30 16:22:20.257812500,-36.0,26.0,47.0,74.551640625,25.335,9.3614034375,34.47
2021-06-30 16:22:20.265625000,-36.0,26.0,47.0,74.55078125,25.95,9.360762874999999,34.47
2021-06-30 16:22:20.273437500,-36.0,26.0,47.0,74.549921875,26.405,9.3601223125,34.47
2021-06-30 16:22:20.281250000,-36.0,26.0,47.0,74.5490625,26.86,9.359481749999999,34.47
2021-06-30 16:22:20.289062500,-36.0,26.0,46.75,74.548203125,27.105,9.3588411875,34.47
2021-06-30 16:22:20.296875000,-36.0,26.0,46.5,74.54734375,27.35,9.358200624999998,34.47
2021-06-30 16:22:20.304687500,-36.0,26.0,46.25,74.54648437499999,27.42,9.3575600625,34.47
2021-06-30 16:22:20.312500000,-36.0,26.0,46.0,74.545625,27.49,9.3569195,34.47
2021-06-30 16:22:20.320312500,-36.0,26.0,46.25,74.544765625,27.445,9.356278937499999,34.47
2021-06-30 16:22:20.328125000,-36.0,26.0,46.5,74.54390624999999,27.4,9.355638375,34.47
2021-06-30 16:22:20.335937500,-36.0,26.0,46.75,74.543046875,27.275,9.354997812499999,34.47
2021-06-30 16:22:20.343750000,-36.0,26.0,47.0,74.5421875,27.15,9.35435725,34.47
2021-06-30 16:22:20.351562500,-36.0,26.0,47.0,74.54132812499999,26.9,9.353716687499999,34.47
2021-06-30 16:22:20.359375000,-36.0,26.0,47.0,74.54046875,26.65,9.353076125,34.47
2021-06-30 16:22:20.367187500,-36.0,26.0,47.0,74.539609375,26.185,9.352435562499998,34.47
2021-06-30 16:22:20.375000000,-36.0,26.0,47.0,74.53875,25.72,9.351795,34.47
2021-06-30 16:22:20.382812500,-36.0,26.0,47.0,74.537890625,24.955,9.3511544375,34.47
2021-06-30 16:22:20.390625000,-36.0,26.0,47.0,74.53703125,24.19,9.350513874999999,34.47
2021-06-30 16:22:20.398437500,-36.0,26.0,47.0,74.536171875,23.115000000000002,9.3498733125,34.47
2021-06-30 16:22:20.406250000,-36.0,26.0,47.0,74.5353125,22.04,9.349232749999999,34.47
2021-06-30 16:22:20.414062500,-36.0,26.0,47.0,74.534453125,20.735,9.3485921875,34.47
2021-06-30 16:22:20.421875000,-36.0,26.0,47.0,74.53359375,19.43,9.347951624999999,34.47
2021-06-30 16:22:20.429687500,-36.0,26.0,47.0,74.532734375,18.0,9.3473110625,34.47
2021-06-30 16:22:20.437500000,-36.0,26.0,47.0,74.531875,16.57,9.346670499999998,34.47
2021-06-30 16:22:20.445312500,-36.0,26.0,47.0,74.531015625,15.145,9.346029937499999,34.47
2021-06-30 16:22:20.453125000,-36.0,26.0,47.0,74.53015625,13.72,9.345389375,34.47
2021-06-30 16:22:20.460937500,-36.0,26.0,47.0,74.529296875,12.375,9.344748812499999,34.47
2021-06-30 16:22:20.468750000,-36.0,26.0,47.0,74.5284375,11.03,9.34410825,34.47
2021-06-30 16:22:20.476562500,-36.0,26.0,47.0,74.527578125,9.79,9.343467687499999,34.47
2021-06-30 16:22:20.484375000,-36.0,26.0,47.0,74.52671875,8.55,9.342827125,34.47
2021-06-30 16:22:20.492187500,-36.0,26.0,47.0,74.525859375,7.415000000000001,9.342186562499998,34.47
2021-06-30 16:22:20.500000000,-36.0,26.0,47.0,74.525,6.28,9.341546,34.47
2021-06-30 16:22:20.507812500,-36.0,26.0,47.0,74.524140625,5.21,9.34126578125,34.47
2021-06-30 16:22:20.515625000,-36.0,26.0,47.0,74.52328125,4.14,9.340985562499998,34.47
2021-06-30 16:22:20.523437500,-36.0,26.0,47.0,74.52242187499999,3.09,9.340705343749999,34.47
2021-06-30 16:22:20.531250000,-36.0,26.0,47.0,74.5215625,2.04,9.340425125,34.47
2021-06-30 16:22:20.539062500,-36.0,26.0,47.0,74.520703125,0.925,9.34014490625,34.47
2021-06-30 16:22:20.546875000,-36.0,26.0,47.0,74.51984374999999,-0.19,9.3398646875,34.47
2021-06-30 16:22:20.554687500,-36.0,26.0,47.0,74.518984375,-1.435,9.33958446875,34.47
2021-06-30 16:22:20.562500000,-36.0,26.0,47.0,74.518125,-2.68,9.33930425,34.47
2021-06-30 16:22:20.570312500,-36.0,26.0,47.0,74.517265625,-4.11,9.33902403125,34.47
2021-06-30 16:22:20.578125000,-36.0,26.0,47.0,74.51640625,-5.54,9.338743812499999,34.47
2021-06-30 16:22:20.585937500,-36.0,26.0,47.0,74.515546875,-7.15,9.33846359375,34.47
2021-06-30 16:22:20.593750000,-36.0,26.0,47.0,74.5146875,-8.76,9.338183375,34.47
2021-06-30 16:22:20.601562500,-36.0,26.0,47.0,74.513828125,-10.51,9.33790315625,34.47
2021-06-30 16:22:20.609375000,-36.0,26.0,47.0,74.51296875,-12.26,9.3376229375,34.47
2021-06-30 16:22:20.617187500,-36.0,26.0,47.0,74.512109375,-14.075,9.33734271875,34.47
2021-06-30 16:22:20.625000000,-36.0,26.0,47.0,74.51125,-15.89,9.3370625,34.47
2021-06-30 16:22:20.632812500,-36.0,26.0,47.0,74.510390625,-17.68,9.33678228125,34.47
2021-06-30 16:22:20.640625000,-36.0,26.0,47.0,74.50953125,-19.47,9.3365020625,34.47
2021-06-30 16:22:20.648437500,-36.0,26.0,47.0,74.508671875,-21.155,9.33622184375,34.47
2021-06-30 16:22:20.656250000,-36.0,26.0,47.0,74.5078125,-22.84,9.335941625,34.47
2021-06-30 16:22:20.664062500,-36.0,26.0,47.0,74.506953125,-24.375,9.33566140625,34.47
2021-06-30 16:22:20.671875000,-36.0,26.0,47.0,74.50609375,-25.91,9.335381187500001,34.47
2021-06-30 16:22:20.679687500,-36.0,26.0,47.0,74.505234375,-27.3,9.33510096875,34.47
2021-06-30 16:22:20.687500000,-36.0,26.0,47.0,74.504375,-28.69,9.33482075,34.47
2021-06-30 16:22:20.695312500,-36.0,26.0,47.0,74.503515625,-30.009999999999998,9.334540531250001,34.47
2021-06-30 16:22:20.703125000,-36.0,26.0,47.0,74.50265625,-31.33,9.3342603125,34.47
2021-06-30 16:22:20.710937500,-36.0,26.0,47.0,74.501796875,-32.735,9.33398009375,34.47
2021-06-30 16:22:20.718750000,-36.0,26.0,47.0,74.50093749999999,-34.14,9.333699875,34.47
2021-06-30 16:22:20.726562500,-36.0,26.0,47.0,74.500078125,-35.85,9.333419656250001,34.47
2021-06-30 16:22:20.734375000,-36.0,26.0,47.0,74.49921875,-37.56,9.333139437500002,34.47
2021-06-30 16:22:20.742187500,-36.0,26.0,47.0,74.49835937499999,-39.75,9.33285921875,34.47
2021-06-30 16:22:20.750000000,-36.0,26.0,47.0,74.4975,-41.94,9.332579,34.47
2021-06-30 16:22:20.757812500,-36.0,26.0,47.0,74.496640625,-44.695,9.332138625,34.47
2021-06-30 16:22:20.765625000,-36.0,26.0,47.0,74.49578125,-47.45,9.33169825,34.47
2021-06-30 16:22:20.773437500,-36.0,26.0,47.0,74.494921875,-50.63,9.331257875,34.47
2021-06-30 16:22:20.781250000,-36.0,26.0,47.0,74.4940625,-53.81,9.3308175,34.47
2021-06-30 16:22:20.789062500,-36.0,26.0,47.0,74.493203125,-57.040000000000006,9.330377125,34.47
2021-06-30 16:22:20.796875000,-36.0,26.0,47.0,74.49234375,-60.27,9.32993675,34.47
2021-06-30 16:22:20.804687500,-36.0,26.0,47.0,74.491484375,-62.955,9.329496375,34.47
2021-06-30 16:22:20.812500000,-36.0,26.0,47.0,74.490625,-65.64,9.329056000000001,34.47
2021-06-30 16:22:20.820312500,-36.0,26.0,47.0,74.489765625,-67.09,9.328615625000001,34.47
2021-06-30 16:22:20.828125000,-36.0,26.0,47.0,74.48890625,-68.54,9.328175250000001,34.47
2021-06-30 16:22:20.835937500,-36.0,26.0,47.0,74.488046875,-68.135,9.327734875,34.47
2021-06-30 16:22:20.843750000,-36.0,26.0,47.0,74.4871875,-67.73,9.3272945,34.47
2021-06-30 16:22:20.851562500,-36.0,26.0,47.0,74.486328125,-65.14500000000001,9.326854125,34.47
2021-06-30 16:22:20.859375000,-36.0,26.0,47.0,74.48546875,-62.56,9.32641375,34.47
2021-06-30 16:22:20.867187500,-36.0,26.0,47.0,74.484609375,-57.85,9.325973375,34.47
2021-06-30 16:22:20.875000000,-36.0,26.0,47.0,74.48375,-53.14,9.325533,34.47
2021-06-30 16:22:20.882812500,-36.0,26.0,47.0,74.482890625,-46.78,9.325092625,34.47
2021-06-30 16:22:20.890625000,-36.0,26.0,47.0,74.48203125,-40.42,9.32465225,34.47
2021-06-30 16:22:20.898437500,-36.0,26.0,47.0,74.481171875,-33.205,9.324211875,34.47
2021-06-30 16:22:20.906250000,-36.0,26.0,47.0,74.4803125,-25.99,9.3237715,34.47
2021-06-30 16:22:20.914062500,-36.0,26.0,47.0,74.47945312499999,-18.79,9.323331125,34.47
2021-06-30 16:22:20.921875000,-36.0,26.0,47.0,74.47859375,-11.59,9.32289075,34.47
2021-06-30 16:22:20.929687500,-36.0,26.0,47.0,74.477734375,-5.15,9.322450374999999,34.47
2021-06-30 16:22:20.937500000,-36.0,26.0,47.0,74.47687499999999,1.29,9.322009999999999,34.47
2021-06-30 16:22:20.945312500,-36.0,26.0,47.0,74.476015625,6.5200000000000005,9.321569625,34.47
2021-06-30 16:22:20.953125000,-36.0,26.0,47.0,74.47515625,11.75,9.32112925,34.47
2021-06-30 16:22:20.960937500,-36.0,26.0,47.0,74.474296875,15.615,9.320688875,34.47
2021-06-30 16:22:20.968750000,-36.0,26.0,47.0,74.4734375,19.48,9.3202485,34.47
2021-06-30 16:22:20.976562500,-36.0,26.0,47.0,74.472578125,22.02,9.319808125,34.47
2021-06-30 16:22:20.984375000,-36.0,26.0,47.0,74.47171875,24.56,9.31936775,34.47
2021-06-30 16:22:20.992187500,-36.0,26.0,47.0,74.470859375,25.905,9.318927375,34.47
2021-06-30 16:22:21.000000000,-36.0,26.0,47.0,74.47,27.25,9.318487,34.47
2021-06-30 16:22:21.007812500,-36.0,26.0,46.75,74.468671875,27.535,9.3182468125,34.47
2021-06-30 16:22:21.015625000,-36.0,26.0,46.5,74.46734375,27.82,9.318006624999999,34.47
2021-06-30 16:22:21.023437500,-36.0,26.0,46.25,74.466015625,27.215,9.3177664375,34.47
2021-06-30 16:22:21.031250000,-36.0,26.0,46.0,74.4646875,26.61,9.31752625,34.47
2021-06-30 16:22:21.039062500,-36.0,26.0,46.25,74.463359375,25.375,9.3172860625,34.47
2021-06-30 16:22:21.046875000,-36.0,26.0,46.5,74.46203125,24.14,9.317045875,34.47
2021-06-30 16:22:21.054687500,-36.0,26.0,46.75,74.460703125,22.645,9.316805687499999,34.47
2021-06-30 16:22:21.062500000,-36.0,26.0,47.0,74.459375,21.15,9.3165655,34.47
2021-06-30 16:22:21.070312500,-36.0,26.0,47.0,74.458046875,19.84,9.3163253125,34.47
2021-06-30 16:22:21.078125000,-36.0,26.0,47.0,74.45671875,18.53,9.316085124999999,34.47
2021-06-30 16:22:21.085937500,-36.0,26.0,47.0,74.45539062499999,17.78,9.3158449375,34.47
2021-06-30 16:22:21.093750000,-36.0,26.0,47.0,74.45406249999999,17.03,9.315604749999999,34.47
2021-06-30 16:22:21.101562500,-36.0,26.0,47.0,74.452734375,17.05,9.3153645625,34.47
2021-06-30 16:22:21.109375000,-36.0,26.0,47.0,74.45140625,17.07,9.315124375,34.47
2021-06-30 16:22:21.117187500,-36.0,26.0,47.0,74.450078125,17.814999999999998,9.314884187499999,34.47
2021-06-30 16:22:21.125000000,-36.0,26.0,47.0,74.44875,18.56,9.314644,34.47
2021-06-30 16:22:21.132812500,-36.0,26.0,47.0,74.447421875,19.79,9.3144038125,34.47
2021-06-30 16:22:21.140625000,-36.0,26.0,47.0,74.44609375,21.02,9.314163624999999,34.47
2021-06-30 16:22:21.148437500,-36.0,26.0,47.0,74.444765625,22.4,9.3139234375,34.47
2021-06-30 16:22:21.156250000,-36.0,26.0,47.0,74.4434375,23.78,9.31368325,34.47
2021-06-30 16:22:21.164062500,-36.0,26.0,47.0,74.442109375,25.005000000000003,9.3134430625,34.47
2021-06-30 16:22:21.171875000,-36.0,26.0,47.0,74.44078125,26.23,9.313202875,34.47
2021-06-30 16:22:21.179687500,-36.0,26.0,47.0,74.439453125,27.134999999999998,9.312962687499999,34.47
2021-06-30 16:22:21.187500000,-36.0,26.0,47.0,74.438125,28.04,9.3127225,34.47
2021-06-30 16:22:21.195312500,-36.0,26.0,47.0,74.436796875,28.59,9.3124823125,34.47
2021-06-30 16:22:21.203125000,-36.0,26.0,47.0,74.43546875,29.14,9.312242125,34.47
2021-06-30 16:22:21.210937500,-36.0,26.0,47.0,74.434140625,29.445,9.3120019375,34.47
2021-06-30 16:22:21.218750000,-36.0,26.0,47.0,74.4328125,29.75,9.311761749999999,34.47
2021-06-30 16:22:21.226562500,-36.0,26.0,47.0,74.431484375,29.93,9.3115215625,34.47
2021-06-30 16:22:21.234375000,-36.0,26.0,47.0,74.43015625,30.11,9.311281375,34.47
2021-06-30 16:22:21.242187500,-36.0,26.0,47.0,74.428828125,30.240000000000002,9.311041187499999,34.47
2021-06-30 16:22:21.250000000,-36.0,26.0,47.0,74.4275,30.37,9.310801,34.47
2021-06-30 16:22:21.257812500,-36.0,26.0,46.75,74.426171875,30.425,9.310200468749999,34.47
2021-06-30 16:22:21.265625000,-36.0,26.0,46.5,74.42484375,30.48,9.3095999375,34.47
2021-06-30 16:22:21.273437500,-36.0,26.0,46.25,74.423515625,30.355,9.308999406249999,34.47
2021-06-30 16:22:21.281250000,-36.0,26.0,46.0,74.42218749999999,30.23,9.308398875,34.47
2021-06-30 16:22:21.289062500,-36.0,26.0,46.25,74.42085937499999,29.755000000000003,9.30779834375,34.47
2021-06-30 16:22:21.296875000,-36.0,26.0,46.5,74.41953124999999,29.28,9.3071978125,34.47
2021-06-30 16:22:21.304687500,-36.0,26.0,46.75,74.418203125,28.37,9.30659728125,34.47
2021-06-30 16:22:21.312500000,-36.0,26.0,47.0,74.416875,27.46,9.30599675,34.47
2021-06-30 16:22:21.320312500,-36.0,26.0,47.0,74.415546875,26.115000000000002,9.30539621875,34.47
2021-06-30 16:22:21.328125000,-36.0,26.0,47.0,74.41421875,24.77,9.3047956875,34.47
2021-06-30 16:22:21.335937500,-36.0,26.0,47.0,74.412890625,23.125,9.30419515625,34.47
2021-06-30 16:22:21.343750000,-36.0,26.0,47.0,74.4115625,21.48,9.303594625,34.47
2021-06-30 16:22:21.351562500,-36.0,26.0,47.0,74.410234375,19.689999999999998,9.30299409375,34.47
2021-06-30 16:22:21.359375000,-36.0,26.0,47.0,74.40890625,17.9,9.3023935625,34.47
2021-06-30 16:22:21.367187500,-36.0,26.0,47.0,74.407578125,16.095,9.30179303125,34.47
2021-06-30 16:22:21.375000000,-36.0,26.0,47.0,74.40625,14.29,9.301192499999999,34.47
2021-06-30 16:22:21.382812500,-36.0,26.0,47.0,74.404921875,12.515,9.30059196875,34.47
2021-06-30 16:22:21.390625000,-36.0,26.0,47.0,74.40359375,10.74,9.2999914375,34.47
2021-06-30 16:22:21.398437500,-36.0,26.0,47.0,74.402265625,8.985,9.29939090625,34.47
2021-06-30 16:22:21.406250000,-36.0,26.0,47.0,74.4009375,7.23,9.298790375,34.47
2021-06-30 16:22:21.414062500,-36.0,26.0,47.0,74.399609375,5.485,9.29818984375,34.47
2021-06-30 16:22:21.421875000,-36.0,26.0,47.0,74.39828125,3.74,9.2975893125,34.47
2021-06-30 16:22:21.429687500,-36.0,26.0,47.0,74.396953125,2.04,9.29698878125,34.47
2021-06-30 16:22:21.437500000,-36.0,26.0,47.0,74.395625,0.34,9.29638825,34.47
2021-06-30 16:22:21.445312500,-36.0,26.0,47.0,74.394296875,-1.2499999999999998,9.29578771875,34.47
2021-06-30 16:22:21.453125000,-36.0,26.0,47.0,74.39296875,-2.84,9.2951871875,34.47
2021-06-30 16:22:21.460937500,-36.0,26.0,47.0,74.391640625,-4.29,9.29458665625,34.47
2021-06-30 16:22:21.468750000,-36.0,26.0,47.0,74.3903125,-5.74,9.293986125,34.47
2021-06-30 16:22:21.476562500,-36.0,26.0,47.0,74.38898437499999,-7.075,9.293385593750001,34.47
2021-06-30 16:22:21.484375000,-36.0,26.0,47.0,74.38765624999999,-8.41,9.2927850625,34.47
2021-06-30 16:22:21.492187500,-36.0,26.0,47.0,74.38632812499999,-9.754999999999999,9.292184531250001,34.47
2021-06-30 16:22:21.500000000,-36.0,26.0,47.0,74.38499999999999,-11.1,9.291584,34.47
2021-06-30 16:22:21.507812500,-36.0,26.0,47.0,74.383671875,-12.57,9.2913838125,34.47
2021-06-30 16:22:21.515625000,-36.0,26.0,47.0,74.38234375,-14.04,9.291183625,34.47
2021-06-30 16:22:21.523437500,-36.0,26.0,47.0,74.381015625,-15.684999999999999,9.2909834375,34.47
2021-06-30 16:22:21.531250000,-36.0,26.0,47.0,74.3796875,-17.33,9.29078325,34.47
2021-06-30 16:22:21.539062500,-36.0,26.0,46.75,74.378359375,-19.115,9.2905830625,34.47
2021-06-30 16:22:21.546875000,-36.0,26.0,46.5,74.37703125,-20.9,9.290382875,34.47
2021-06-30 16:22:21.554687500,-36.0,26.0,46.25,74.375703125,-22.72,9.2901826875,34.47
2021-06-30 16:22:21.562500000,-36.0,26.0,46.0,74.374375,-24.54,9.2899825,34.47
2021-06-30 16:22:21.570312500,-36.0,26.0,46.25,74.373046875,-26.285,9.2897823125,34.47
2021-06-30 16:22:21.578125000,-36.0,26.0,46.5,74.37171875,-28.03,9.289582125,34.47
2021-06-30 16:22:21.585937500,-36.0,26.0,46.75,74.370390625,-29.655,9.2893819375,34.47
2021-06-30 16:22:21.593750000,-36.0,26.0,47.0,74.3690625,-31.28,9.289181750000001,34.47
2021-06-30 16:22:21.601562500,-36.0,26.0,46.75,74.367734375,-32.855000000000004,9.2889815625,34.47
2021-06-30 16:22:21.609375000,-36.0,26.0,46.5,74.36640625,-34.43,9.288781375000001,34.47
2021-06-30 16:22:21.617187500,-36.0,26.0,46.25,74.365078125,-36.105000000000004,9.2885811875,34.47
2021-06-30 16:22:21.625000000,-36.0,26.0,46.0,74.36375,-37.78,9.288381000000001,34.47
2021-06-30 16:22:21.632812500,-36.0,26.0,46.25,74.362421875,-39.715,9.2881808125,34.47
2021-06-30 16:22:21.640625000,-36.0,26.0,46.5,74.36109375,-41.65,9.287980625,34.47
2021-06-30 16:22:21.648437500,-36.0,26.0,46.75,74.359765625,-43.935,9.2877804375,34.47
2021-06-30 16:22:21.656250000,-36.0,26.0,47.0,74.3584375,-46.22,9.28758025,34.47
2021-06-30 16:22:21.664062500,-36.0,26.25,47.0,74.357109375,-48.724999999999994,9.2873800625,34.47
2021-06-30 16:22:21.671875000,-36.0,26.5,47.0,74.35578124999999,-51.23,9.287179875,34.47
2021-06-30 16:22:21.679687500,-36.0,26.75,47.0,74.35445312499999,-53.629999999999995,9.2869796875,34.47
2021-06-30 16:22:21.687500000,-36.0,27.0,47.0,74.35312499999999,-56.03,9.2867795,34.47
2021-06-30 16:22:21.695312500,-36.0,26.75,47.0,74.35179687499999,-57.785,9.2865793125,34.47
2021-06-30 16:22:21.703125000,-36.0,26.5,47.0,74.35046875,-59.54,9.286379125,34.47
2021-06-30 16:22:21.710937500,-36.0,26.25,47.0,74.349140625,-60.075,9.2861789375,34.47
2021-06-30 16:22:21.718750000,-36.0,26.0,47.0,74.3478125,-60.61,9.28597875,34.47
2021-06-30 16:22:21.726562500,-36.0,26.0,47.0,74.346484375,-59.475,9.2857785625,34.47
2021-06-30 16:22:21.734375000,-36.0,26.0,47.0,74.34515625,-58.34,9.285578375,34.47
2021-06-30 16:22:21.742187500,-36.0,26.0,47.0,74.343828125,-55.370000000000005,9.285378187500001,34.47
2021-06-30 16:22:21.750000000,-36.0,26.0,47.0,74.3425,-52.4,9.285178,34.47
2021-06-30 16:22:21.757812500,-36.0,26.0,46.75,74.341171875,-47.769999999999996,9.284417375,34.47
2021-06-30 16:22:21.765625000,-36.0,26.0,46.5,74.33984375,-43.14,9.28365675,34.47
2021-06-30 16:22:21.773437500,-36.0,26.0,46.25,74.338515625,-37.305,9.282896125,34.47
2021-06-30 16:22:21.781250000,-36.0,26.0,46.0,74.3371875,-31.47,9.2821355,34.47
2021-06-30 16:22:21.789062500,-36.0,26.0,46.0,74.335859375,-25.035,9.281374875000001,34.47
2021-06-30 16:22:21.796875000,-36.0,26.0,46.0,74.33453125,-18.6,9.28061425,34.47
2021-06-30 16:22:21.804687500,-36.0,26.0,46.0,74.333203125,-12.14,9.279853625,34.47
2021-06-30 16:22:21.812500000,-36.0,26.0,46.0,74.331875,-5.68,9.279093,34.47
2021-06-30 16:22:21.820312500,-36.0,26.0,46.25,74.330546875,0.3049999999999997,9.278332375,34.47
2021-06-30 16:22:21.828125000,-36.0,26.0,46.5,74.32921875,6.29,9.27757175,34.47
2021-06-30 16:22:21.835937500,-36.0,26.0,46.75,74.327890625,11.440000000000001,9.276811125,34.47
2021-06-30 16:22:21.843750000,-36.0,26.0,47.0,74.3265625,16.59,9.2760505,34.47
2021-06-30 16:22:21.851562500,-36.0,26.0,46.75,74.325234375,20.665,9.275289875,34.47
2021-06-30 16:22:21.859375000,-36.0,26.0,46.5,74.32390625,24.74,9.27452925,34.47
2021-06-30 16:22:21.867187500,-36.0,26.0,46.25,74.32257812499999,27.59,9.273768625,34.47
2021-06-30 16:22:21.875000000,-36.0,26.0,46.0,74.32124999999999,30.44,9.273008,34.47
2021-06-30 16:22:21.882812500,-36.0,26.0,46.25,74.31992187499999,32.04,9.272247375,34.47
2021-06-30 16:22:21.890625000,-36.0,26.0,46.5,74.31859374999999,33.64,9.27148675,34.47
2021-06-30 16:22:21.898437500,-36.0,26.0,46.75,74.31726562499999,34.11,9.270726125,34.47
2021-06-30 16:22:21.906250000,-36.0,26.0,47.0,74.3159375,34.58,9.2699655,34.47
2021-06-30 16:22:21.914062500,-36.0,26.0,47.0,74.314609375,34.12,9.269204875,34.47
2021-06-30 16:22:21.921875000,-36.0,26.0,47.0,74.31328125,33.66,9.26844425,34.47
2021-06-30 16:22:21.929687500,-36.0,26.0,47.0,74.311953125,32.555,9.267683625,34.47
2021-06-30 16:22:21.937500000,-36.0,26.0,47.0,74.310625,31.45,9.266923,34.47
2021-06-30 16:22:21.945312500,-36.0,26.0,46.75,74.309296875,30.025,9.266162375,34.47
2021-06-30 16:22:21.953125000,-36.0,26.0,46.5,74.30796875,28.6,9.26540175,34.47
2021-06-30 16:22:21.960937500,-36.0,26.0,46.25,74.306640625,27.175,9.264641124999999,34.47
2021-06-30 16:22:21.968750000,-36.0,26.0,46.0,74.3053125,25.75,9.263880499999999,34.47
2021-06-30 16:22:21.976562500,-36.0,26.0,46.0,74.303984375,24.605,9.263119875,34.47
2021-06-30 16:22:21.984375000,-36.0,26.0,46.0,74.30265625,23.46,9.26235925,34.47
2021-06-30 16:22:21.992187500,-36.0,26.0,46.0,74.301328125,22.835,9.261598625,34.47
2021-06-30 16:22:22.000000000,-36.0,26.0,46.0,74.3,22.21,9.260838,34.47
2021-06-30 16:22:22.007812500,-36.0,26.0,46.25,74.29859375,22.21,9.26075790625,34.47
2021-06-30 16:22:22.015625000,-36.0,26.0,46.5,74.29718749999999,22.21,9.260677812499999,34.47
2021-06-30 16:22:22.023437500,-36.0,26.0,46.75,74.29578124999999,22.805,9.260597718749999,34.47
2021-06-30 16:22:22.031250000,-36.0,26.0,47.0,74.294375,23.4,9.260517625,34.47
2021-06-30 16:22:22.039062500,-36.25,26.0,47.0,74.29296875,24.43,9.26043753125,34.47
2021-06-30 16:22:22.046875000,-36.5,26.0,47.0,74.2915625,25.46,9.2603574375,34.47
2021-06-30 16:22:22.054687500,-36.75,26.0,47.0,74.29015625,26.675,9.26027734375,34.47
2021-06-30 16:22:22.062500000,-37.0,26.0,47.0,74.28875,27.89,9.26019725,34.47
2021-06-30 16:22:22.070312500,-37.0,26.0,46.75,74.28734374999999,29.04,9.260117156249999,34.47
2021-06-30 16:22:22.078125000,-37.0,26.0,46.5,74.2859375,30.19,9.2600370625,34.47
2021-06-30 16:22:22.085937500,-37.0,26.0,46.25,74.28453125,31.105000000000004,9.25995696875,34.47
2021-06-30 16:22:22.093750000,-37.0,26.0,46.0,74.283125,32.02,9.259876875,34.47
2021-06-30 16:22:22.101562500,-36.75,26.0,46.25,74.28171875,32.605000000000004,9.25979678125,34.47
2021-06-30 16:22:22.109375000,-36.5,26.0,46.5,74.2803125,33.19,9.2597166875,34.47
2021-06-30 16:22:22.117187500,-36.25,26.0,46.75,74.27890624999999,33.394999999999996,9.259636593749999,34.47
2021-06-30 16:22:22.125000000,-36.0,26.0,47.0,74.2775,33.6,9.259556499999999,34.47
2021-06-30 16:22:22.132812500,-36.0,26.0,47.0,74.27609375,33.394999999999996,9.25947640625,34.47
2021-06-30 16:22:22.140625000,-36.0,26.0,47.0,74.2746875,33.19,9.2593963125,34.47
2021-06-30 16:22:22.148437500,-36.0,26.0,47.0,74.27328125,32.545,9.25931621875,34.47
2021-06-30 16:22:22.156250000,-36.0,26.0,47.0,74.271875,31.9,9.259236125,34.47
2021-06-30 16:22:22.164062500,-36.0,26.0,46.75,74.27046874999999,30.83,9.259156031249999,34.47
2021-06-30 16:22:22.171875000,-36.0,26.0,46.5,74.2690625,29.76,9.259075937499999,34.47
2021-06-30 16:22:22.179687500,-36.0,26.0,46.25,74.26765625,28.32,9.25899584375,34.47
2021-06-30 16:22:22.187500000,-36.0,26.0,46.0,74.26625,26.88,9.25891575,34.47
2021-06-30 16:22:22.195312500,-36.0,26.0,46.0,74.26484375,25.21,9.25883565625,34.47
2021-06-30 16:22:22.203125000,-36.0,26.0,46.0,74.2634375,23.54,9.2587555625,34.47
2021-06-30 16:22:22.210937500,-36.0,26.0,46.0,74.26203124999999,21.805,9.258675468749999,34.47
2021-06-30 16:22:22.218750000,-36.0,26.0,46.0,74.260625,20.07,9.258595374999999,34.47
2021-06-30 16:22:22.226562500,-36.0,26.0,46.25,74.25921875,18.395,9.25851528125,34.47
2021-06-30 16:22:22.234375000,-36.0,26.0,46.5,74.2578125,16.72,9.2584351875,34.47
2021-06-30 16:22:22.242187500,-36.0,26.0,46.75,74.25640625,15.145,9.25835509375,34.47
2021-06-30 16:22:22.250000000,-36.0,26.0,47.0,74.255,13.57,9.258275,34.47
2021-06-30 16:22:22.257812500,-36.0,26.0,47.0,74.25359375,11.99,9.2574743125,34.47
2021-06-30 16:22:22.265625000,-36.0,26.0,47.0,74.2521875,10.41,9.256673625,34.47
2021-06-30 16:22:22.273437500,-36.0,26.0,47.0,74.25078125,8.665,9.2558729375,34.47
2021-06-30 16:22:22.281250000,-36.0,26.0,47.0,74.249375,6.92,9.25507225,34.47
2021-06-30 16:22:22.289062500,-36.0,26.0,46.75,74.24796875,4.825,9.2542715625,34.47
2021-06-30 16:22:22.296875000,-36.0,26.0,46.5,74.2465625,2.73,9.253470875,34.47
2021-06-30 16:22:22.304687500,-36.0,26.0,46.25,74.24515625,0.22999999999999998,9.2526701875,34.47
2021-06-30 16:22:22.312500000,-36.0,26.0,46.0,74.24375,-2.27,9.2518695,34.47
2021-06-30 16:22:22.320312500,-36.0,26.0,46.25,74.24234375,-5.085000000000001,9.2510688125,34.47
2021-06-30 16:22:22.328125000,-36.0,26.0,46.5,74.2409375,-7.9,9.250268125,34.47
2021-06-30 16:22:22.335937500,-36.0,26.0,46.75,74.23953125,-10.77,9.2494674375,34.47
2021-06-30 16:22:22.343750000,-36.0,26.0,47.0,74.238125,-13.64,9.24866675,34.47
2021-06-30 16:22:22.351562500,-36.0,26.0,46.75,74.23671875,-16.25,9.2478660625,34.47
2021-06-30 16:22:22.359375000,-36.0,26.0,46.5,74.2353125,-18.86,9.247065375,34.47
2021-06-30 16:22:22.367187500,-36.0,26.0,46.25,74.23390625,-20.939999999999998,9.2462646875,34.47
2021-06-30 16:22:22.375000000,-36.0,26.0,46.0,74.2325,-23.02,9.245464,34.47
2021-06-30 16:22:22.382812500,-36.0,26.0,46.0,74.23109375,-24.52,9.2446633125,34.47
2021-06-30 16:22:22.390625000,-36.0,26.0,46.0,74.2296875,-26.02,9.243862625,34.47
2021-06-30 16:22:22.398437500,-36.0,26.0,46.0,74.22828125,-27.119999999999997,9.2430619375,34.47
2021-06-30 16:22:22.406250000,-36.0,26.0,46.0,74.226875,-28.22,9.24226125,34.47
2021-06-30 16:22:22.414062500,-36.0,26.0,46.25,74.22546875,-29.28,9.2414605625,34.47
2021-06-30 16:22:22.421875000,-36.0,26.0,46.5,74.2240625,-30.34,9.240659875,34.47
2021-06-30 16:22:22.429687500,-36.0,26.0,46.75,74.22265625,-31.775,9.2398591875,34.47
2021-06-30 16:22:22.437500000,-36.0,26.0,47.0,74.22125,-33.21,9.2390585,34.47
2021-06-30 16:22:22.445312500,-36.0,26.0,47.0,74.21984375,-35.315,9.2382578125,34.47
2021-06-30 16:22:22.453125000,-36.0,26.0,47.0,74.21843750000001,-37.42,9.237457125,34.47
2021-06-30 16:22:22.460937500,-36.0,26.0,47.0,74.21703125,-40.230000000000004,9.2366564375,34.47
2021-06-30 16:22:22.468750000,-36.0,26.0,47.0,74.215625,-43.04,9.23585575,34.47
2021-06-30 16:22:22.476562500,-36.0,26.0,47.0,74.21421875,-46.325,9.2350550625,34.47
2021-06-30 16:22:22.484375000,-36.0,26.0,47.0,74.2128125,-49.61,9.234254375,34.47
2021-06-30 16:22:22.492187500,-36.0,26.0,47.0,74.21140625,-52.84,9.2334536875,34.47
2021-06-30 16:22:22.500000000,-36.0,26.0,47.0,74.21000000000001,-56.07,9.232653,34.47
2021-06-30 16:22:22.507812500,-36.0,26.0,47.0,74.20859375,-58.565,9.232492875,34.47
2021-06-30 16:22:22.515625000,-36.0,26.0,47.0,74.2071875,-61.06,9.232332750000001,34.47
2021-06-30 16:22:22.523437500,-36.0,26.0,47.0,74.20578125,-62.125,9.232172625,34.47
2021-06-30 16:22:22.531250000,-36.0,26.0,47.0,74.204375,-63.19,9.232012500000002,34.47
2021-06-30 16:22:22.539062500,-36.0,26.0,46.75,74.20296875,-62.3,9.231852375,34.47
2021-06-30 16:22:22.546875000,-36.0,26.0,46.5,74.2015625,-61.41,9.23169225,34.47
2021-06-30 16:22:22.554687500,-36.0,26.0,46.25,74.20015625,-58.315,9.231532125000001,34.47
2021-06-30 16:22:22.562500000,-36.0,26.0,46.0,74.19875,-55.22,9.231372,34.47
2021-06-30 16:22:22.570312500,-36.0,26.0,46.25,74.19734375,-50.055,9.231211875000001,34.47
2021-06-30 16:22:22.578125000,-36.0,26.0,46.5,74.1959375,-44.89,9.23105175,34.47
2021-06-30 16:22:22.585937500,-36.0,26.0,46.75,74.19453125,-38.13,9.230891625,34.47
2021-06-30 16:22:22.593750000,-36.0,26.0,47.0,74.193125,-31.37,9.230731500000001,34.47
2021-06-30 16:22:22.601562500,-36.0,26.0,46.75,74.19171875,-23.735,9.230571375,34.47
2021-06-30 16:22:22.609375000,-36.0,26.0,46.5,74.1903125,-16.1,9.230411250000001,34.47
2021-06-30 16:22:22.617187500,-36.0,26.0,46.25,74.18890625,-8.375,9.230251125,34.47
2021-06-30 16:22:22.625000000,-36.0,26.0,46.0,74.1875,-0.65,9.230091000000002,34.47
2021-06-30 16:22:22.632812500,-36.0,26.0,46.0,74.18609375,6.455,9.229930875,34.47
2021-06-30 16:22:22.640625000,-36.0,26.0,46.0,74.1846875,13.56,9.22977075,34.47
2021-06-30 16:22:22.648437500,-36.0,26.0,46.0,74.18328125000001,19.53,9.229610625000001,34.47
2021-06-30 16:22:22.656250000,-36.0,26.0,46.0,74.181875,25.5,9.2294505,34.47
2021-06-30 16:22:22.664062500,-36.0,26.0,46.25,74.18046875,30.005,9.229290375000001,34.47
2021-06-30 16:22:22.671875000,-36.0,26.0,46.5,74.1790625,34.51,9.22913025,34.47
2021-06-30 16:22:22.679687500,-36.0,26.0,46.75,74.17765625,37.435,9.228970125,34.47
2021-06-30 16:22:22.687500000,-36.0,26.0,47.0,74.17625,40.36,9.228810000000001,34.47
2021-06-30 16:22:22.695312500,-36.0,26.0,47.0,74.17484375000001,41.754999999999995,9.228649875,34.47
2021-06-30 16:22:22.703125000,-36.0,26.0,47.0,74.1734375,43.15,9.228489750000001,34.47
2021-06-30 16:22:22.710937500,-36.0,26.0,47.0,74.17203125,43.21,9.228329625,34.47
2021-06-30 16:22:22.718750000,-36.0,26.0,47.0,74.170625,43.27,9.2281695,34.47
2021-06-30 16:22:22.726562500,-36.0,26.0,46.75,74.16921875,42.32,9.228009375000001,34.47
2021-06-30 16:22:22.734375000,-36.0,26.0,46.5,74.1678125,41.37,9.22784925,34.47
2021-06-30 16:22:22.742187500,-36.0,26.0,46.25,74.16640625000001,39.825,9.227689125000001,34.47
2021-06-30 16:22:22.750000000,-36.0,26.0,46.0,74.165,38.28,9.227529,34.47
2021-06-30 16:22:22.757812500,-36.0,26.0,46.25,74.16359375,36.55,9.226888437500001,34.47
2021-06-30 16:22:22.765625000,-36.0,26.0,46.5,74.1621875,34.82,9.226247875,34.47
2021-06-30 16:22:22.773437500,-36.0,26.0,46.75,74.16078125,33.275,9.225607312500001,34.47
2021-06-30 16:22:22.781250000,-36.0,26.0,47.0,74.159375,31.73,9.22496675,34.47
2021-06-30 16:22:22.789062500,-36.0,26.0,46.75,74.15796875000001,30.61,9.2243261875,34.47
2021-06-30 16:22:22.796875000,-36.0,26.0,46.5,74.1565625,29.49,9.223685625,34.47
2021-06-30 16:22:22.804687500,-36.0,26.0,46.25,74.15515625,28.905,9.2230450625,34.47
2021-06-30 16:22:22.812500000,-36.0,26.0,46.0,74.15375,28.32,9.2224045,34.47
2021-06-30 16:22:22.820312500,-36.0,26.0,46.25,74.15234375,28.235,9.2217639375,34.47
2021-06-30 16:22:22.828125000,-36.0,26.0,46.5,74.1509375,28.15,9.221123375000001,34.47
2021-06-30 16:22:22.835937500,-36.0,26.0,46.75,74.14953125000001,28.45,9.2204828125,34.47
2021-06-30 16:22:22.843750000,-36.0,26.0,47.0,74.14812500000001,28.75,9.219842250000001,34.47
2021-06-30 16:22:22.851562500,-36.0,26.0,47.0,74.14671875,29.275,9.2192016875,34.47
2021-06-30 16:22:22.859375000,-36.0,26.0,47.0,74.1453125,29.8,9.218561125,34.47
2021-06-30 16:22:22.867187500,-36.0,26.0,47.0,74.14390625,30.4,9.2179205625,34.47
2021-06-30 16:22:22.875000000,-36.0,26.0,47.0,74.1425,31.0,9.21728,34.47
2021-06-30 16:22:22.882812500,-36.0,26.0,47.0,74.14109375000001,31.565,9.216639437500001,34.47
2021-06-30 16:22:22.890625000,-36.0,26.0,47.0,74.13968750000001,32.13,9.215998875,34.47
2021-06-30 16:22:22.898437500,-36.0,26.0,47.0,74.13828125,32.605000000000004,9.215358312500001,34.47
2021-06-30 16:22:22.906250000,-36.0,26.0,47.0,74.136875,33.08,9.21471775,34.47
2021-06-30 16:22:22.914062500,-36.0,26.0,46.75,74.13546875,33.425,9.214077187500001,34.47
2021-06-30 16:22:22.921875000,-36.0,26.0,46.5,74.1340625,33.77,9.213436625,34.47
2021-06-30 16:22:22.929687500,-36.0,26.0,46.25,74.13265625000001,33.93000000000001,9.2127960625,34.47
2021-06-30 16:22:22.937500000,-36.0,26.0,46.0,74.13125000000001,34.09,9.212155500000001,34.47
2021-06-30 16:22:22.945312500,-36.0,26.0,46.25,74.12984375,33.985,9.2115149375,34.47
2021-06-30 16:22:22.953125000,-36.0,26.0,46.5,74.1284375,33.88,9.210874375000001,34.47
2021-06-30 16:22:22.960937500,-36.0,26.0,46.75,74.12703125,33.385000000000005,9.2102338125,34.47
2021-06-30 16:22:22.968750000,-36.0,26.0,47.0,74.125625,32.89,9.209593250000001,34.47
2021-06-30 16:22:22.976562500,-36.0,26.0,47.0,74.12421875000001,31.9,9.2089526875,34.47
2021-06-30 16:22:22.984375000,-36.0,26.0,47.0,74.12281250000001,30.91,9.208312125,34.47
2021-06-30 16:22:22.992187500,-36.0,26.0,47.0,74.12140625,29.369999999999997,9.2076715625,34.47
2021-06-30 16:22:23.000000000,-36.0,26.0,47.0,74.12,27.83,9.207031,34.47
2021-06-30 16:22:23.007812500,-36.0,26.0,47.0,74.119296875,25.814999999999998,9.20691090625,34.47
2021-06-30 16:22:23.015625000,-36.0,26.0,47.0,74.11859375,23.8,9.206790812500001,34.47
2021-06-30 16:22:23.023437500,-36.0,26.0,47.0,74.117890625,21.465,9.20667071875,34.47
2021-06-30 16:22:23.031250000,-36.0,26.0,47.0,74.1171875,19.13,9.206550625,34.47
2021-06-30 16:22:23.039062500,-36.0,26.0,46.75,74.116484375,16.665,9.206430531250001,34.47
2021-06-30 16:22:23.046875000,-36.0,26.0,46.5,74.11578125,14.2,9.2063104375,34.47
2021-06-30 16:22:23.054687500,-36.0,26.0,46.25,74.11507812500001,11.765,9.20619034375,34.47
2021-06-30 16:22:23.062500000,-36.0,26.0,46.0,74.11437500000001,9.33,9.20607025,34.47
2021-06-30 16:22:23.070312500,-36.0,26.0,46.25,74.11367187500001,6.995,9.205950156250001,34.47
2021-06-30 16:22:23.078125000,-36.0,26.0,46.5,74.11296875000001,4.66,9.2058300625,34.47
2021-06-30 16:22:23.085937500,-36.0,26.0,46.75,74.112265625,2.395,9.20570996875,34.47
2021-06-30 16:22:23.093750000,-36.0,26.0,47.0,74.1115625,0.13,9.205589875000001,34.47
2021-06-30 16:22:23.101562500,-36.0,26.0,47.0,74.110859375,-2.1350000000000002,9.20546978125,34.47
2021-06-30 16:22:23.109375000,-36.0,26.0,47.0,74.11015625,-4.4,9.2053496875,34.47
2021-06-30 16:22:23.117187500,-36.0,26.0,47.0,74.109453125,-6.71,9.205229593750001,34.47
2021-06-30 16:22:23.125000000,-36.0,26.0,47.0,74.10875,-9.02,9.2051095,34.47
2021-06-30 16:22:23.132812500,-36.0,26.0,47.0,74.108046875,-11.35,9.20498940625,34.47
2021-06-30 16:22:23.140625000,-36.0,26.0,47.0,74.10734375,-13.68,9.204869312500001,34.47
2021-06-30 16:22:23.148437500,-36.0,26.0,47.0,74.106640625,-15.965,9.20474921875,34.47
2021-06-30 16:22:23.156250000,-36.0,26.0,47.0,74.10593750000001,-18.25,9.204629125,34.47
2021-06-30 16:22:23.164062500,-36.0,26.0,47.0,74.10523437500001,-20.384999999999998,9.204509031250002,34.47
2021-06-30 16:22:23.171875000,-36.0,26.0,47.0,74.10453125000001,-22.52,9.204388937500001,34.47
2021-06-30 16:22:23.179687500,-36.0,26.0,47.0,74.103828125,-24.435000000000002,9.20426884375,34.47
2021-06-30 16:22:23.187500000,-36.0,26.0,47.0,74.103125,-26.35,9.204148750000002,34.47
2021-06-30 16:22:23.195312500,-36.0,26.25,47.25,74.102421875,-28.05,9.204028656250001,34.47
2021-06-30 16:22:23.203125000,-36.0,26.5,47.5,74.10171875,-29.75,9.2039085625,34.47
2021-06-30 16:22:23.210937500,-36.0,26.75,47.75,74.101015625,-31.325,9.20378846875,34.47
2021-06-30 16:22:23.218750000,-36.0,27.0,48.0,74.1003125,-32.9,9.203668375000001,34.47
2021-06-30 16:22:23.226562500,-36.0,27.0,48.0,74.099609375,-34.54,9.20354828125,34.47
2021-06-30 16:22:23.234375000,-36.0,27.0,48.0,74.09890625,-36.18,9.2034281875,34.47
2021-06-30 16:22:23.242187500,-36.0,27.0,48.0,74.098203125,-38.14,9.203308093750001,34.47
2021-06-30 16:22:23.250000000,-36.0,27.0,48.0,74.0975,-40.1,9.203188,34.47
2021-06-30 16:22:23.257812500,-37.0,27.0,48.0,74.09679687500001,-42.6,9.20266753125,34.47
2021-06-30 16:22:23.265625000,-38.0,27.0,48.0,74.09609375000001,-45.1,9.2021470625,34.47
2021-06-30 16:22:23.273437500,-39.0,27.0,48.0,74.09539062500001,-48.25,9.201626593750001,34.47
2021-06-30 16:22:23.281250000,-40.0,27.0,48.0,74.0946875,-51.4,9.201106125,34.47
2021-06-30 16:22:23.289062500,-38.75,26.75,48.0,74.093984375,-55.05,9.20058565625,34.47
2021-06-30 16:22:23.296875000,-37.5,26.5,48.0,74.09328125,-58.7,9.200065187500002,34.47
2021-06-30 16:22:23.304687500,-36.25,26.25,48.0,74.092578125,-62.395,9.199544718750001,34.47
2021-06-30 16:22:23.312500000,-35.0,26.0,48.0,74.091875,-66.09,9.19902425,34.47
2021-06-30 16:22:23.320312500,-34.5,25.75,48.5,74.091171875,-69.105,9.19850378125,34.47
2021-06-30 16:22:23.328125000,-34.0,25.5,49.0,74.09046875,-72.12,9.1979833125,34.47
2021-06-30 16:22:23.335937500,-33.5,25.25,49.5,74.089765625,-73.655,9.197462843750001,34.47
2021-06-30 16:22:23.343750000,-33.0,25.0,50.0,74.0890625,-75.19,9.196942375,34.47
2021-06-30 16:22:23.351562500,-32.75,25.5,49.75,74.08835937500001,-74.58500000000001,9.19642190625,34.47
2021-06-30 16:22:23.359375000,-32.5,26.0,49.5,74.08765625000001,-73.98,9.195901437500002,34.47
2021-06-30 16:22:23.367187500,-32.25,26.5,49.25,74.08695312500001,-70.94,9.195380968750001,34.47
2021-06-30 16:22:23.375000000,-32.0,27.0,49.0,74.08625,-67.9,9.1948605,34.47
2021-06-30 16:22:23.382812500,-32.0,27.0,48.75,74.085546875,-62.575,9.19434003125,34.47
2021-06-30 16:22:23.390625000,-32.0,27.0,48.5,74.08484375,-57.25,9.1938195625,34.47
2021-06-30 16:22:23.398437500,-32.0,27.0,48.25,74.084140625,-50.18,9.193299093750001,34.47
2021-06-30 16:22:23.406250000,-32.0,27.0,48.0,74.0834375,-43.11,9.192778625,34.47
2021-06-30 16:22:23.414062500,-32.25,27.25,47.5,74.082734375,-35.06,9.19225815625,34.47
2021-06-30 16:22:23.421875000,-32.5,27.5,47.0,74.08203125,-27.01,9.191737687500002,34.47
2021-06-30 16:22:23.429687500,-32.75,27.75,46.5,74.081328125,-18.79,9.191217218750001,34.47
