TimeStamp,empatica.acc.x,empatica.acc.y,empatica.acc.z,empatica.hr,empatica.bvp,empatica.eda,empatica.temp
2021-06-21 17:20:28.281250000,-43.0,-17.0,45.0,62.505625,-105.89,15.2077065,33.83
2021-06-21 17:20:28.289062500,-43.0,-17.0,44.75,62.50578125,-107.245,15.207546375,33.83
2021-06-21 17:20:28.296875000,-43.0,-17.0,44.5,62.5059375,-108.6,15.207386249999999,33.83
2021-06-21 17:20:28.304687500,-43.0,-17.0,44.25,62.50609375,-107.00999999999999,15.207226125,33.83
2021-06-21 17:20:28.312500000,-43.0,-17.0,44.0,62.50625,-105.42,15.207066,33.83
2021-06-21 17:20:28.320312500,-43.0,-17.0,44.25,62.50640625,-100.535,15.206905875,33.83
2021-06-21 17:20:28.328125000,-43.0,-17.0,44.5,62.5065625,-95.65,15.20674575,33.83
2021-06-21 17:20:28.335937500,-43.0,-17.0,44.75,62.506718750000005,-87.77000000000001,15.206585624999999,33.83
2021-06-21 17:20:28.343750000,-43.0,-17.0,45.0,62.506875,-79.89,15.2064255,33.83
2021-06-21 17:20:28.351562500,-43.0,-17.0,45.0,62.507031250000004,-69.85,15.206265375,33.83
2021-06-21 17:20:28.359375000,-43.0,-17.0,45.0,62.5071875,-59.81,15.20610525,33.83
2021-06-21 17:20:28.367187500,-43.0,-17.0,45.0,62.507343750000004,-48.769999999999996,15.205945125,33.83
2021-06-21 17:20:28.375000000,-43.0,-17.0,45.0,62.5075,-37.73,15.205784999999999,33.83
2021-06-21 17:20:28.382812500,-43.0,-17.0,45.0,62.507656250000004,-26.865,15.205624875,33.83
2021-06-21 17:20:28.390625000,-43.0,-17.0,45.0,62.5078125,-16.0,15.205464749999999,33.83
2021-06-21 17:20:28.398437500,-43.0,-17.0,45.0,62.50796875,-6.205,15.205304625,33.83
2021-06-21 17:20:28.406250000,-43.0,-17.0,45.0,62.508125,3.59,15.2051445,33.83
2021-06-21 17:20:28.414062500,-43.0,-17.0,45.0,62.50828125,11.82,15.204984375,33.83
2021-06-21 17:20:28.421875000,-43.0,-17.0,45.0,62.5084375,20.05,15.20482425,33.83
2021-06-21 17:20:28.429687500,-43.0,-17.0,45.0,62.50859375,26.590000000000003,15.204664124999999,33.83
2021-06-21 17:20:28.437500000,-43.0,-17.0,45.0,62.50875,33.13,15.204504,33.83
2021-06-21 17:20:28.445312500,-43.0,-17.0,45.0,62.50890625,38.08,15.204343875,33.83
2021-06-21 17:20:28.453125000,-43.0,-17.0,45.0,62.5090625,43.03,15.20418375,33.83
2021-06-21 17:20:28.460937500,-43.0,-17.0,45.0,62.50921875,46.515,15.204023625,33.83
2021-06-21 17:20:28.468750000,-43.0,-17.0,45.0,62.509375,50.0,15.203863499999999,33.83
2021-06-21 17:20:28.476562500,-43.0,-17.0,45.0,62.50953125,52.105000000000004,15.203703375,33.83
2021-06-21 17:20:28.484375000,-43.0,-17.0,45.0,62.5096875,54.21,15.20354325,33.83
2021-06-21 17:20:28.492187500,-43.0,-17.0,45.0,62.50984375,55.004999999999995,15.203383125,33.83
2021-06-21 17:20:28.500000000,-43.0,-17.0,45.0,62.510000000000005,55.8,15.203223,33.83
2021-06-21 17:20:28.507812500,-43.0,-17.0,45.0,62.51015625,55.435,15.20202196875,33.83
2021-06-21 17:20:28.515625000,-43.0,-17.0,45.0,62.510312500000005,55.07,15.2008209375,33.83
2021-06-21 17:20:28.523437500,-43.0,-17.0,45.0,62.51046875,53.9,15.19961990625,33.83
2021-06-21 17:20:28.531250000,-43.0,-17.0,45.0,62.510625000000005,52.73,15.198418875,33.83
2021-06-21 17:20:28.539062500,-43.25,-17.0,45.0,62.51078125,51.29,15.19721784375,33.83
2021-06-21 17:20:28.546875000,-43.5,-17.0,45.0,62.510937500000004,49.85,15.1960168125,33.83
2021-06-21 17:20:28.554687500,-43.75,-17.0,45.0,62.51109375,48.730000000000004,15.19481578125,33.83
2021-06-21 17:20:28.562500000,-44.0,-17.0,45.0,62.511250000000004,47.61,15.19361475,33.83
2021-06-21 17:20:28.570312500,-43.75,-17.0,45.0,62.51140625,47.265,15.19241371875,33.83
2021-06-21 17:20:28.578125000,-43.5,-17.0,45.0,62.511562500000004,46.92,15.1912126875,33.83
2021-06-21 17:20:28.585937500,-43.25,-17.0,45.0,62.51171875,47.510000000000005,15.19001165625,33.83
2021-06-21 17:20:28.593750000,-43.0,-17.0,45.0,62.511875,48.1,15.188810625,33.83
2021-06-21 17:20:28.601562500,-43.0,-17.0,45.0,62.51203125,49.43,15.18760959375,33.83
2021-06-21 17:20:28.609375000,-43.0,-17.0,45.0,62.5121875,50.76,15.1864085625,33.83
2021-06-21 17:20:28.617187500,-43.0,-17.0,45.0,62.51234375,52.425,15.18520753125,33.83
2021-06-21 17:20:28.625000000,-43.0,-17.0,45.0,62.5125,54.09,15.184006499999999,33.83
2021-06-21 17:20:28.632812500,-43.0,-17.0,45.0,62.51265625,55.650000000000006,15.182805468749999,33.83
2021-06-21 17:20:28.640625000,-43.0,-17.0,45.0,62.5128125,57.21,15.181604437499999,33.83
2021-06-21 17:20:28.648437500,-43.0,-17.0,45.0,62.51296875,58.370000000000005,15.180403406249999,33.83
2021-06-21 17:20:28.656250000,-43.0,-17.0,45.0,62.513125,59.53,15.179202375,33.83
2021-06-21 17:20:28.664062500,-43.0,-17.0,45.0,62.51328125,60.225,15.17800134375,33.83
2021-06-21 17:20:28.671875000,-43.0,-17.0,45.0,62.5134375,60.92,15.1768003125,33.83
2021-06-21 17:20:28.679687500,-43.0,-17.0,45.0,62.513593750000005,61.275000000000006,15.17559928125,33.83
2021-06-21 17:20:28.687500000,-43.0,-17.0,45.0,62.51375,61.63,15.17439825,33.83
2021-06-21 17:20:28.695312500,-43.0,-17.0,44.75,62.513906250000005,61.84,15.17319721875,33.83
2021-06-21 17:20:28.703125000,-43.0,-17.0,44.5,62.5140625,62.05,15.1719961875,33.83
2021-06-21 17:20:28.710937500,-43.0,-17.0,44.25,62.514218750000005,62.209999999999994,15.17079515625,33.83
2021-06-21 17:20:28.718750000,-43.0,-17.0,44.0,62.514375,62.37,15.169594125,33.83
2021-06-21 17:20:28.726562500,-43.25,-17.0,44.25,62.514531250000005,62.44,15.16839309375,33.83
2021-06-21 17:20:28.734375000,-43.5,-17.0,44.5,62.5146875,62.51,15.1671920625,33.83
2021-06-21 17:20:28.742187500,-43.75,-17.0,44.75,62.514843750000004,62.285,15.16599103125,33.83
2021-06-21 17:20:28.750000000,-44.0,-17.0,45.0,62.515,62.06,15.16479,33.83
2021-06-21 17:20:28.757812500,-44.0,-17.0,44.75,62.515156250000004,61.285,15.16519034375,33.83
2021-06-21 17:20:28.765625000,-44.0,-17.0,44.5,62.5153125,60.51,15.1655906875,33.83
2021-06-21 17:20:28.773437500,-44.0,-17.0,44.25,62.515468750000004,59.05,15.16599103125,33.83
2021-06-21 17:20:28.781250000,-44.0,-17.0,44.0,62.515625,57.59,15.166391375,33.83
2021-06-21 17:20:28.789062500,-43.75,-17.0,44.25,62.51578125,55.515,15.16679171875,33.83
2021-06-21 17:20:28.796875000,-43.5,-17.0,44.5,62.5159375,53.44,15.1671920625,33.83
2021-06-21 17:20:28.804687500,-43.25,-17.0,44.75,62.51609375,51.06,15.16759240625,33.83
2021-06-21 17:20:28.812500000,-43.0,-17.0,45.0,62.51625,48.68,15.16799275,33.83
2021-06-21 17:20:28.820312500,-43.25,-17.0,44.75,62.51640625,46.415,15.16839309375,33.83
2021-06-21 17:20:28.828125000,-43.5,-17.0,44.5,62.5165625,44.15,15.1687934375,33.83
2021-06-21 17:20:28.835937500,-43.75,-17.0,44.25,62.51671875,42.3,15.16919378125,33.83
2021-06-21 17:20:28.843750000,-44.0,-17.0,44.0,62.516875000000006,40.45,15.169594125,33.83
2021-06-21 17:20:28.851562500,-44.0,-17.0,44.25,62.51703125,39.075,15.16999446875,33.83
2021-06-21 17:20:28.859375000,-44.0,-17.0,44.5,62.517187500000006,37.7,15.1703948125,33.83
2021-06-21 17:20:28.867187500,-44.0,-17.0,44.75,62.51734375,36.55,15.17079515625,33.83
2021-06-21 17:20:28.875000000,-44.0,-17.0,45.0,62.517500000000005,35.4,15.1711955,33.83
2021-06-21 17:20:28.882812500,-43.75,-17.0,45.0,62.51765625,34.095,15.17159584375,33.83
2021-06-21 17:20:28.890625000,-43.5,-17.0,45.0,62.517812500000005,32.79,15.1719961875,33.83
2021-06-21 17:20:28.898437500,-43.25,-17.0,45.0,62.51796875,31.0,15.17239653125,33.83
2021-06-21 17:20:28.906250000,-43.0,-17.0,45.0,62.518125000000005,29.21,15.172796875,33.83
2021-06-21 17:20:28.914062500,-43.0,-17.0,45.0,62.51828125,26.85,15.17319721875,33.83
2021-06-21 17:20:28.921875000,-43.0,-17.0,45.0,62.518437500000005,24.49,15.1735975625,33.83
2021-06-21 17:20:28.929687500,-43.0,-17.0,45.0,62.51859375,21.725,15.17399790625,33.83
2021-06-21 17:20:28.937500000,-43.0,-17.0,45.0,62.518750000000004,18.96,15.17439825,33.83
2021-06-21 17:20:28.945312500,-43.0,-17.0,45.0,62.51890625,16.1,15.17479859375,33.83
2021-06-21 17:20:28.953125000,-43.0,-17.0,45.0,62.519062500000004,13.24,15.1751989375,33.83
2021-06-21 17:20:28.960937500,-43.0,-17.0,45.0,62.51921875,10.565,15.17559928125,33.83
2021-06-21 17:20:28.968750000,-43.0,-17.0,45.0,62.519375000000004,7.89,15.175999625,33.83
2021-06-21 17:20:28.976562500,-43.0,-17.0,45.0,62.51953125,5.5,15.17639996875,33.83
2021-06-21 17:20:28.984375000,-43.0,-17.0,45.0,62.5196875,3.11,15.1768003125,33.83
2021-06-21 17:20:28.992187500,-43.0,-17.0,45.0,62.51984375,0.9550000000000001,15.17720065625,33.83
2021-06-21 17:20:29.000000000,-43.0,-17.0,45.0,62.52,-1.2,15.177601,33.83
2021-06-21 17:20:29.007812500,-43.25,-17.0,45.0,62.520390625000005,-3.295,15.1782015,33.829375
2021-06-21 17:20:29.015625000,-43.5,-17.0,45.0,62.520781250000006,-5.39,15.178802,33.82875
2021-06-21 17:20:29.023437500,-43.75,-17.0,45.0,62.521171875,-7.584999999999999,15.179402499999998,33.828125
2021-06-21 17:20:29.031250000,-44.0,-17.0,45.0,62.5215625,-9.78,15.180003,33.8275
2021-06-21 17:20:29.039062500,-44.0,-17.0,45.0,62.521953125,-12.19,15.1806035,33.826875
2021-06-21 17:20:29.046875000,-44.0,-17.0,45.0,62.522343750000005,-14.6,15.181204,33.82625
2021-06-21 17:20:29.054687500,-44.0,-17.0,45.0,62.522734375000006,-17.255,15.181804499999998,33.825625
2021-06-21 17:20:29.062500000,-44.0,-17.0,45.0,62.523125,-19.91,15.182405,33.825
2021-06-21 17:20:29.070312500,-43.75,-17.0,45.0,62.523515625,-22.785,15.1830055,33.824374999999996
2021-06-21 17:20:29.078125000,-43.5,-17.0,45.0,62.52390625,-25.66,15.183606,33.82375
2021-06-21 17:20:29.085937500,-43.25,-17.0,45.0,62.524296875000005,-28.675,15.184206499999998,33.823125
2021-06-21 17:20:29.093750000,-43.0,-17.0,45.0,62.524687500000006,-31.69,15.184807,33.8225
2021-06-21 17:20:29.101562500,-43.0,-16.75,44.75,62.525078125,-34.72,15.1854075,33.821875
2021-06-21 17:20:29.109375000,-43.0,-16.5,44.5,62.52546875,-37.75,15.186008,33.82125
2021-06-21 17:20:29.117187500,-43.0,-16.25,44.25,62.525859375,-40.67,15.186608499999998,33.820625
2021-06-21 17:20:29.125000000,-43.0,-16.0,44.0,62.526250000000005,-43.59,15.187209,33.82
2021-06-21 17:20:29.132812500,-43.0,-16.25,44.0,62.526640625000006,-46.290000000000006,15.1878095,33.819375
2021-06-21 17:20:29.140625000,-43.0,-16.5,44.0,62.52703125,-48.99,15.18841,33.81875
2021-06-21 17:20:29.148437500,-43.0,-16.75,44.0,62.527421875,-51.495000000000005,15.189010499999998,33.818125
2021-06-21 17:20:29.156250000,-43.0,-17.0,44.0,62.5278125,-54.0,15.189611,33.8175
2021-06-21 17:20:29.164062500,-43.0,-16.75,44.25,62.528203125000005,-56.44,15.1902115,33.816875
2021-06-21 17:20:29.171875000,-43.0,-16.5,44.5,62.528593750000006,-58.88,15.190812,33.816250000000004
2021-06-21 17:20:29.179687500,-43.0,-16.25,44.75,62.528984375,-61.519999999999996,15.191412499999998,33.815625000000004
2021-06-21 17:20:29.187500000,-43.0,-16.0,45.0,62.529375,-64.16,15.192013,33.815
2021-06-21 17:20:29.195312500,-43.0,-16.0,45.0,62.529765625,-67.275,15.1926135,33.814375
2021-06-21 17:20:29.203125000,-43.0,-16.0,45.0,62.530156250000005,-70.39,15.193214,33.81375
2021-06-21 17:20:29.210937500,-43.0,-16.0,45.0,62.530546875000006,-74.215,15.193814499999998,33.813125
2021-06-21 17:20:29.218750000,-43.0,-16.0,45.0,62.5309375,-78.04,15.194415,33.8125
2021-06-21 17:20:29.226562500,-43.0,-16.0,44.75,62.531328125,-82.605,15.1950155,33.811875
2021-06-21 17:20:29.234375000,-43.0,-16.0,44.5,62.53171875,-87.17,15.195616,33.81125
2021-06-21 17:20:29.242187500,-43.0,-16.0,44.25,62.532109375000005,-92.24000000000001,15.196216499999998,33.810625
2021-06-21 17:20:29.250000000,-43.0,-16.0,44.0,62.5325,-97.31,15.196817,33.81
2021-06-21 17:20:29.257812500,-43.0,-16.0,44.25,62.532890625,-102.315,15.1960163125,33.81
2021-06-21 17:20:29.265625000,-43.0,-16.0,44.5,62.53328125,-107.32,15.195215625,33.81
2021-06-21 17:20:29.273437500,-43.0,-16.0,44.75,62.533671875,-111.405,15.1944149375,33.81
2021-06-21 17:20:29.281250000,-43.0,-16.0,45.0,62.534062500000005,-115.49,15.19361425,33.81
2021-06-21 17:20:29.289062500,-43.0,-16.25,44.75,62.534453125,-117.64,15.1928135625,33.81
2021-06-21 17:20:29.296875000,-43.0,-16.5,44.5,62.53484375,-119.79,15.192012875,33.81
2021-06-21 17:20:29.304687500,-43.0,-16.75,44.25,62.535234375,-119.065,15.1912121875,33.81
2021-06-21 17:20:29.312500000,-43.0,-17.0,44.0,62.535625,-118.34,15.1904115,33.81
2021-06-21 17:20:29.320312500,-43.0,-16.75,44.25,62.536015625000005,-114.215,15.1896108125,33.81
2021-06-21 17:20:29.328125000,-43.0,-16.5,44.5,62.53640625,-110.09,15.188810125,33.81
2021-06-21 17:20:29.335937500,-43.0,-16.25,44.75,62.536796875,-102.64,15.1880094375,33.81
2021-06-21 17:20:29.343750000,-43.0,-16.0,45.0,62.5371875,-95.19,15.18720875,33.81
2021-06-21 17:20:29.351562500,-43.0,-16.0,45.0,62.537578125,-85.16499999999999,15.1864080625,33.81
2021-06-21 17:20:29.359375000,-43.0,-16.0,45.0,62.537968750000005,-75.14,15.185607375,33.81
2021-06-21 17:20:29.367187500,-43.0,-16.0,45.0,62.538359375,-63.79,15.1848066875,33.81
2021-06-21 17:20:29.375000000,-43.0,-16.0,45.0,62.53875,-52.44,15.184006,33.81
2021-06-21 17:20:29.382812500,-43.0,-16.0,45.0,62.539140625,-41.105,15.1832053125,33.81
2021-06-21 17:20:29.390625000,-43.0,-16.0,45.0,62.53953125,-29.77,15.182404625,33.81
2021-06-21 17:20:29.398437500,-43.0,-16.0,45.0,62.539921875000005,-19.564999999999998,15.1816039375,33.81
2021-06-21 17:20:29.406250000,-43.0,-16.0,45.0,62.5403125,-9.36,15.18080325,33.81
2021-06-21 17:20:29.414062500,-43.0,-16.25,45.0,62.540703125,-0.8900000000000006,15.1800025625,33.81
2021-06-21 17:20:29.421875000,-43.0,-16.5,45.0,62.54109375,7.58,15.179201875,33.81
2021-06-21 17:20:29.429687500,-43.0,-16.75,45.0,62.541484375,14.184999999999999,15.1784011875,33.81
2021-06-21 17:20:29.437500000,-43.0,-17.0,45.0,62.541875000000005,20.79,15.1776005,33.81
2021-06-21 17:20:29.445312500,-43.0,-16.75,44.75,62.542265625,25.715,15.1767998125,33.81
2021-06-21 17:20:29.453125000,-43.0,-16.5,44.5,62.54265625,30.64,15.175999125,33.81
2021-06-21 17:20:29.460937500,-43.0,-16.25,44.25,62.543046875,34.129999999999995,15.1751984375,33.81
2021-06-21 17:20:29.468750000,-43.0,-16.0,44.0,62.5434375,37.62,15.17439775,33.81
2021-06-21 17:20:29.476562500,-43.25,-16.0,44.25,62.543828125000005,39.845,15.1735970625,33.81
2021-06-21 17:20:29.484375000,-43.5,-16.0,44.5,62.54421875,42.07,15.172796375,33.81
2021-06-21 17:20:29.492187500,-43.75,-16.0,44.75,62.544609375,43.114999999999995,15.1719956875,33.81
2021-06-21 17:20:29.500000000,-44.0,-16.0,45.0,62.545,44.16,15.171195,33.81
2021-06-21 17:20:29.507812500,-44.0,-16.0,45.0,62.545390625,44.135,15.171355156250002,33.81
2021-06-21 17:20:29.515625000,-44.0,-16.0,45.0,62.545781250000005,44.11,15.1715153125,33.81
2021-06-21 17:20:29.523437500,-44.0,-16.0,45.0,62.546171875,43.26,15.171675468750001,33.81
2021-06-21 17:20:29.531250000,-44.0,-16.0,45.0,62.5465625,42.41,15.171835625,33.81
2021-06-21 17:20:29.539062500,-44.0,-16.0,44.75,62.546953125,41.155,15.17199578125,33.81
2021-06-21 17:20:29.546875000,-44.0,-16.0,44.5,62.54734375,39.9,15.172155937500001,33.81
2021-06-21 17:20:29.554687500,-44.0,-16.0,44.25,62.547734375000005,38.754999999999995,15.17231609375,33.81
2021-06-21 17:20:29.562500000,-44.0,-16.0,44.0,62.548125,37.61,15.17247625,33.81
2021-06-21 17:20:29.570312500,-43.75,-16.0,44.0,62.548515625,37.035,15.172636406250001,33.81
2021-06-21 17:20:29.578125000,-43.5,-16.0,44.0,62.54890625,36.46,15.1727965625,33.81
2021-06-21 17:20:29.585937500,-43.25,-16.0,44.0,62.549296875,36.72,15.172956718750001,33.81
2021-06-21 17:20:29.593750000,-43.0,-16.0,44.0,62.549687500000005,36.98,15.173116875000002,33.81
2021-06-21 17:20:29.601562500,-43.0,-16.0,44.25,62.550078125,38.084999999999994,15.17327703125,33.81
2021-06-21 17:20:29.609375000,-43.0,-16.0,44.5,62.55046875,39.19,15.173437187500001,33.81
2021-06-21 17:20:29.617187500,-43.0,-16.0,44.75,62.550859375,40.974999999999994,15.17359734375,33.81
2021-06-21 17:20:29.625000000,-43.0,-16.0,45.0,62.55125,42.76,15.1737575,33.81
2021-06-21 17:20:29.632812500,-43.25,-16.0,45.0,62.551640625000005,44.94,15.173917656250001,33.81
2021-06-21 17:20:29.640625000,-43.5,-16.0,45.0,62.55203125,47.12,15.1740778125,33.81
2021-06-21 17:20:29.648437500,-43.75,-16.0,45.0,62.552421875,49.4,15.17423796875,33.81
2021-06-21 17:20:29.656250000,-44.0,-16.0,45.0,62.5528125,51.68,15.174398125,33.81
2021-06-21 17:20:29.664062500,-43.75,-16.0,45.0,62.553203125,53.84,15.17455828125,33.81
2021-06-21 17:20:29.671875000,-43.5,-16.0,45.0,62.553593750000005,56.0,15.174718437500001,33.81
2021-06-21 17:20:29.679687500,-43.25,-16.0,45.0,62.553984375,57.879999999999995,15.17487859375,33.81
2021-06-21 17:20:29.687500000,-43.0,-16.0,45.0,62.554375,59.76,15.17503875,33.81
2021-06-21 17:20:29.695312500,-43.25,-16.0,45.0,62.554765625,61.25,15.175198906250001,33.81
2021-06-21 17:20:29.703125000,-43.5,-16.0,45.0,62.55515625,62.74,15.1753590625,33.81
2021-06-21 17:20:29.710937500,-43.75,-16.0,45.0,62.555546875000005,63.745000000000005,15.17551921875,33.81
2021-06-21 17:20:29.718750000,-44.0,-16.0,45.0,62.5559375,64.75,15.175679375000001,33.81
2021-06-21 17:20:29.726562500,-43.75,-16.25,45.0,62.556328125,65.17,15.17583953125,33.81
2021-06-21 17:20:29.734375000,-43.5,-16.5,45.0,62.55671875,65.59,15.175999687500001,33.81
2021-06-21 17:20:29.742187500,-43.25,-16.75,45.0,62.557109375,65.35,15.17615984375,33.81
2021-06-21 17:20:29.750000000,-43.0,-17.0,45.0,62.557500000000005,65.11,15.17632,33.81
2021-06-21 17:20:29.757812500,-43.0,-17.0,44.75,62.557890625,64.195,15.1774009375,33.81
2021-06-21 17:20:29.765625000,-43.0,-17.0,44.5,62.55828125,63.28,15.178481875000001,33.81
2021-06-21 17:20:29.773437500,-43.0,-17.0,44.25,62.558671875,61.715,15.1795628125,33.81
2021-06-21 17:20:29.781250000,-43.0,-17.0,44.0,62.5590625,60.15,15.18064375,33.81
2021-06-21 17:20:29.789062500,-43.25,-16.75,44.25,62.559453125,58.04,15.181724687500001,33.81
2021-06-21 17:20:29.796875000,-43.5,-16.5,44.5,62.55984375,55.93,15.182805625,33.81
2021-06-21 17:20:29.804687500,-43.75,-16.25,44.75,62.560234375,53.42,15.1838865625,33.81
2021-06-21 17:20:29.812500000,-44.0,-16.0,45.0,62.560625,50.91,15.1849675,33.81
2021-06-21 17:20:29.820312500,-44.0,-16.0,45.0,62.561015625,48.19,15.1860484375,33.81
2021-06-21 17:20:29.828125000,-44.0,-16.0,45.0,62.56140625,45.47,15.187129375,33.81
2021-06-21 17:20:29.835937500,-44.0,-16.0,45.0,62.561796875,42.730000000000004,15.1882103125,33.81
2021-06-21 17:20:29.843750000,-44.0,-16.0,45.0,62.5621875,39.99,15.18929125,33.81
2021-06-21 17:20:29.851562500,-43.75,-16.25,45.0,62.562578125,37.41,15.1903721875,33.81
2021-06-21 17:20:29.859375000,-43.5,-16.5,45.0,62.56296875,34.83,15.191453125,33.81
2021-06-21 17:20:29.867187500,-43.25,-16.75,45.0,62.563359375,32.495,15.1925340625,33.81
2021-06-21 17:20:29.875000000,-43.0,-17.0,45.0,62.56375,30.16,15.193615000000001,33.81
2021-06-21 17:20:29.882812500,-43.0,-16.75,45.0,62.564140625,28.060000000000002,15.1946959375,33.81
2021-06-21 17:20:29.890625000,-43.0,-16.5,45.0,62.56453125,25.96,15.195776875,33.81
2021-06-21 17:20:29.898437500,-43.0,-16.25,45.0,62.564921875,23.98,15.196857812500001,33.81
2021-06-21 17:20:29.906250000,-43.0,-16.0,45.0,62.5653125,22.0,15.19793875,33.81
2021-06-21 17:20:29.914062500,-43.0,-16.0,45.0,62.565703125,20.02,15.1990196875,33.81
2021-06-21 17:20:29.921875000,-43.0,-16.0,45.0,62.56609375,18.04,15.200100625000001,33.81
2021-06-21 17:20:29.929687500,-43.0,-16.0,45.0,62.566484375,15.965,15.2011815625,33.81
2021-06-21 17:20:29.937500000,-43.0,-16.0,45.0,62.566875,13.89,15.2022625,33.81
2021-06-21 17:20:29.945312500,-43.0,-16.0,45.0,62.567265625,11.72,15.203343437500001,33.81
2021-06-21 17:20:29.953125000,-43.0,-16.0,45.0,62.56765625,9.55,15.204424375,33.81
2021-06-21 17:20:29.960937500,-43.0,-16.0,45.0,62.568046875,7.3500000000000005,15.2055053125,33.81
2021-06-21 17:20:29.968750000,-43.0,-16.0,45.0,62.5684375,5.15,15.20658625,33.81
2021-06-21 17:20:29.976562500,-43.0,-16.0,45.0,62.568828125,3.0050000000000003,15.2076671875,33.81
2021-06-21 17:20:29.984375000,-43.0,-16.0,45.0,62.56921875,0.86,15.208748125,33.81
2021-06-21 17:20:29.992187500,-43.0,-16.0,45.0,62.569609375,-1.1950000000000003,15.2098290625,33.81
2021-06-21 17:20:30.000000000,-43.0,-16.0,45.0,62.57,-3.25,15.21091,33.81
2021-06-21 17:20:30.007812500,-43.0,-16.0,45.0,62.570390625,-5.255,15.2115905625,33.81
2021-06-21 17:20:30.015625000,-43.0,-16.0,45.0,62.57078125,-7.26,15.212271125000001,33.81
2021-06-21 17:20:30.023437500,-43.0,-16.0,45.0,62.571171875,-9.325,15.2129516875,33.81
2021-06-21 17:20:30.031250000,-43.0,-16.0,45.0,62.5715625,-11.39,15.21363225,33.81
2021-06-21 17:20:30.039062500,-43.25,-16.25,45.0,62.571953125,-13.629999999999999,15.2143128125,33.81
2021-06-21 17:20:30.046875000,-43.5,-16.5,45.0,62.57234375,-15.87,15.214993375,33.81
2021-06-21 17:20:30.054687500,-43.75,-16.75,45.0,62.572734375,-18.365,15.2156739375,33.81
2021-06-21 17:20:30.062500000,-44.0,-17.0,45.0,62.573125,-20.86,15.2163545,33.81
2021-06-21 17:20:30.070312500,-43.75,-17.0,45.0,62.573515625,-23.6,15.2170350625,33.81
2021-06-21 17:20:30.078125000,-43.5,-17.0,45.0,62.57390625,-26.34,15.217715625,33.81
2021-06-21 17:20:30.085937500,-43.25,-17.0,45.0,62.574296875,-29.22,15.2183961875,33.81
2021-06-21 17:20:30.093750000,-43.0,-17.0,45.0,62.5746875,-32.1,15.21907675,33.81
2021-06-21 17:20:30.101562500,-43.25,-16.75,45.0,62.575078125,-34.95,15.2197573125,33.81
2021-06-21 17:20:30.109375000,-43.5,-16.5,45.0,62.57546875,-37.8,15.220437875,33.81
2021-06-21 17:20:30.117187500,-43.75,-16.25,45.0,62.575859375,-40.45,15.2211184375,33.81
2021-06-21 17:20:30.125000000,-44.0,-16.0,45.0,62.57625,-43.1,15.221799,33.81
2021-06-21 17:20:30.132812500,-43.75,-16.25,45.0,62.576640625,-45.495000000000005,15.2224795625,33.81
2021-06-21 17:20:30.140625000,-43.5,-16.5,45.0,62.57703125,-47.89,15.223160125,33.81
2021-06-21 17:20:30.148437500,-43.25,-16.75,45.0,62.577421875,-50.120000000000005,15.2238406875,33.81
2021-06-21 17:20:30.156250000,-43.0,-17.0,45.0,62.5778125,-52.35,15.22452125,33.81
2021-06-21 17:20:30.164062500,-43.0,-16.75,45.0,62.578203125,-54.72,15.2252018125,33.81
2021-06-21 17:20:30.171875000,-43.0,-16.5,45.0,62.57859375,-57.09,15.225882375,33.81
2021-06-21 17:20:30.179687500,-43.0,-16.25,45.0,62.578984375,-59.97,15.226562937499999,33.81
2021-06-21 17:20:30.187500000,-43.0,-16.0,45.0,62.579375,-62.85,15.2272435,33.81
2021-06-21 17:20:30.195312500,-43.0,-16.0,45.0,62.579765625,-66.555,15.2279240625,33.81
2021-06-21 17:20:30.203125000,-43.0,-16.0,45.0,62.58015625,-70.26,15.228604625,33.81
2021-06-21 17:20:30.210937500,-43.0,-16.0,45.0,62.580546875,-74.86,15.2292851875,33.81
2021-06-21 17:20:30.218750000,-43.0,-16.0,45.0,62.5809375,-79.46,15.22996575,33.81
2021-06-21 17:20:30.226562500,-43.0,-16.0,45.0,62.581328125,-84.66,15.2306463125,33.81
2021-06-21 17:20:30.234375000,-43.0,-16.0,45.0,62.58171875,-89.86,15.231326874999999,33.81
2021-06-21 17:20:30.242187500,-43.0,-16.0,45.0,62.582109375,-95.025,15.2320074375,33.81
2021-06-21 17:20:30.250000000,-43.0,-16.0,45.0,62.582499999999996,-100.19,15.232688,33.81
2021-06-21 17:20:30.257812500,-43.0,-16.0,45.0,62.582890625,-104.44999999999999,15.23380896875,33.81
2021-06-21 17:20:30.265625000,-43.0,-16.0,45.0,62.58328125,-108.71,15.234929937499999,33.81
2021-06-21 17:20:30.273437500,-43.0,-16.0,45.0,62.583671875,-111.13999999999999,15.23605090625,33.81
2021-06-21 17:20:30.281250000,-43.0,-16.0,45.0,62.5840625,-113.57,15.237171875,33.81
2021-06-21 17:20:30.289062500,-43.25,-16.0,45.0,62.584453124999996,-113.4,15.23829284375,33.81
2021-06-21 17:20:30.296875000,-43.5,-16.0,45.0,62.58484375,-113.23,15.2394138125,33.81
2021-06-21 17:20:30.304687500,-43.75,-16.0,45.0,62.585234375,-110.03,15.24053478125,33.81
2021-06-21 17:20:30.312500000,-44.0,-16.0,45.0,62.585625,-106.83,15.24165575,33.81
2021-06-21 17:20:30.320312500,-43.75,-16.25,45.0,62.586015625,-100.6,15.24277671875,33.81
2021-06-21 17:20:30.328125000,-43.5,-16.5,45.0,62.586406249999996,-94.37,15.243897687499999,33.81
2021-06-21 17:20:30.335937500,-43.25,-16.75,45.0,62.586796875,-85.64,15.24501865625,33.81
2021-06-21 17:20:30.343750000,-43.0,-17.0,45.0,62.5871875,-76.91,15.246139625,33.81
2021-06-21 17:20:30.351562500,-43.0,-17.0,45.0,62.587578125,-66.60499999999999,15.24726059375,33.81
2021-06-21 17:20:30.359375000,-43.0,-17.0,45.0,62.58796875,-56.3,15.2483815625,33.81
2021-06-21 17:20:30.367187500,-43.0,-17.0,45.0,62.588359374999996,-45.56,15.24950253125,33.81
2021-06-21 17:20:30.375000000,-43.0,-17.0,45.0,62.58875,-34.82,15.2506235,33.81
2021-06-21 17:20:30.382812500,-43.0,-17.0,45.0,62.589140625,-24.695,15.25174446875,33.81
2021-06-21 17:20:30.390625000,-43.0,-17.0,45.0,62.58953125,-14.57,15.252865437499999,33.81
2021-06-21 17:20:30.398437500,-43.0,-17.0,45.0,62.589921875,-5.785,15.25398640625,33.81
2021-06-21 17:20:30.406250000,-43.0,-17.0,45.0,62.590312499999996,3.0,15.255107375,33.81
2021-06-21 17:20:30.414062500,-43.0,-17.0,45.0,62.590703125,10.185,15.25622834375,33.81
2021-06-21 17:20:30.421875000,-43.0,-17.0,45.0,62.59109375,17.37,15.2573493125,33.81
2021-06-21 17:20:30.429687500,-43.0,-17.0,45.0,62.591484375,23.035,15.25847028125,33.81
2021-06-21 17:20:30.437500000,-43.0,-17.0,45.0,62.591875,28.7,15.25959125,33.81
2021-06-21 17:20:30.445312500,-43.0,-17.0,45.0,62.592265624999996,33.07,15.26071221875,33.81
2021-06-21 17:20:30.453125000,-43.0,-17.0,45.0,62.59265625,37.44,15.261833187499999,33.81
2021-06-21 17:20:30.460937500,-43.0,-17.0,45.0,62.593046875,40.7,15.26295415625,33.81
2021-06-21 17:20:30.468750000,-43.0,-17.0,45.0,62.5934375,43.96,15.264075125,33.81
2021-06-21 17:20:30.476562500,-43.0,-17.0,45.0,62.593828125,46.165,15.26519609375,33.81
2021-06-21 17:20:30.484375000,-43.0,-17.0,45.0,62.594218749999996,48.37,15.2663170625,33.81
2021-06-21 17:20:30.492187500,-43.0,-17.0,45.0,62.594609375,49.54,15.26743803125,33.81
2021-06-21 17:20:30.500000000,-43.0,-17.0,45.0,62.595,50.71,15.268559,33.81
2021-06-21 17:20:30.507812500,-43.0,-17.0,45.0,62.595390625,50.95,15.268799187499999,33.81
2021-06-21 17:20:30.515625000,-43.0,-17.0,45.0,62.59578125,51.19,15.269039375,33.81
2021-06-21 17:20:30.523437500,-43.0,-17.0,45.0,62.596171874999996,50.745,15.2692795625,33.81
2021-06-21 17:20:30.531250000,-43.0,-17.0,45.0,62.5965625,50.3,15.26951975,33.81
2021-06-21 17:20:30.539062500,-43.0,-17.0,45.0,62.596953125,49.565,15.2697599375,33.81
2021-06-21 17:20:30.546875000,-43.0,-17.0,45.0,62.59734375,48.83,15.270000125,33.81
2021-06-21 17:20:30.554687500,-43.0,-17.0,45.0,62.597734375,48.205,15.2702403125,33.81
2021-06-21 17:20:30.562500000,-43.0,-17.0,45.0,62.598124999999996,47.58,15.2704805,33.81
2021-06-21 17:20:30.570312500,-43.0,-17.0,45.0,62.598515625,47.345,15.270720687499999,33.81
2021-06-21 17:20:30.578125000,-43.0,-17.0,45.0,62.59890625,47.11,15.270960875,33.81
2021-06-21 17:20:30.585937500,-43.0,-17.0,45.0,62.599296875,47.364999999999995,15.2712010625,33.81
2021-06-21 17:20:30.593750000,-43.0,-17.0,45.0,62.5996875,47.62,15.271441249999999,33.81
2021-06-21 17:20:30.601562500,-43.0,-17.0,45.0,62.600078124999996,48.33,15.2716814375,33.81
2021-06-21 17:20:30.609375000,-43.0,-17.0,45.0,62.60046875,49.04,15.271921625,33.81
2021-06-21 17:20:30.617187500,-43.0,-17.0,45.0,62.600859375,50.099999999999994,15.2721618125,33.81
2021-06-21 17:20:30.625000000,-43.0,-17.0,45.0,62.60125,51.16,15.272402,33.81
2021-06-21 17:20:30.632812500,-43.0,-17.0,45.0,62.601640625,52.44499999999999,15.272642187499999,33.81
2021-06-21 17:20:30.640625000,-43.0,-17.0,45.0,62.602031249999996,53.73,15.272882375,33.81
2021-06-21 17:20:30.648437500,-43.0,-17.0,45.0,62.602421875,55.165,15.2731225625,33.81
2021-06-21 17:20:30.656250000,-43.0,-17.0,45.0,62.6028125,56.6,15.27336275,33.81
2021-06-21 17:20:30.664062500,-43.0,-17.0,45.0,62.603203125,58.095,15.2736029375,33.81
2021-06-21 17:20:30.671875000,-43.0,-17.0,45.0,62.60359375,59.59,15.273843124999999,33.81
2021-06-21 17:20:30.679687500,-43.0,-17.0,45.0,62.603984374999996,60.995000000000005,15.2740833125,33.81
2021-06-21 17:20:30.687500000,-43.0,-17.0,45.0,62.604375,62.4,15.2743235,33.81
2021-06-21 17:20:30.695312500,-43.0,-17.0,45.0,62.604765625,63.519999999999996,15.274563687499999,33.81
2021-06-21 17:20:30.703125000,-43.0,-17.0,45.0,62.60515625,64.64,15.274803875,33.81
2021-06-21 17:20:30.710937500,-43.0,-17.0,45.0,62.605546875,65.215,15.2750440625,33.81
2021-06-21 17:20:30.718750000,-43.0,-17.0,45.0,62.605937499999996,65.79,15.275284249999999,33.81
2021-06-21 17:20:30.726562500,-43.0,-17.0,45.0,62.606328125,65.57,15.2755244375,33.81
2021-06-21 17:20:30.734375000,-43.0,-17.0,45.0,62.60671875,65.35,15.275764624999999,33.81
2021-06-21 17:20:30.742187500,-43.0,-17.0,45.0,62.607109375,64.21,15.2760048125,33.81
2021-06-21 17:20:30.750000000,-43.0,-17.0,45.0,62.6075,63.07,15.276245,33.81
2021-06-21 17:20:30.757812500,-43.0,-17.0,45.0,62.607890624999996,61.025,15.276565281249999,33.81
2021-06-21 17:20:30.765625000,-43.0,-17.0,45.0,62.60828125,58.98,15.276885562499999,33.81
2021-06-21 17:20:30.773437500,-43.0,-17.0,45.0,62.608671875,56.269999999999996,15.27720584375,33.81
2021-06-21 17:20:30.781250000,-43.0,-17.0,45.0,62.6090625,53.56,15.277526125,33.81
2021-06-21 17:20:30.789062500,-43.0,-17.0,45.0,62.609453124999995,50.545,15.27784640625,33.81
2021-06-21 17:20:30.796875000,-43.0,-17.0,45.0,62.609843749999996,47.53,15.278166687499999,33.81
2021-06-21 17:20:30.804687500,-43.0,-17.0,45.0,62.610234375,44.64,15.27848696875,33.81
2021-06-21 17:20:30.812500000,-43.0,-17.0,45.0,62.610625,41.75,15.27880725,33.81
2021-06-21 17:20:30.820312500,-43.0,-17.0,45.0,62.611015625,39.325,15.27912753125,33.81
2021-06-21 17:20:30.828125000,-43.0,-17.0,45.0,62.611406249999995,36.9,15.279447812499999,33.81
2021-06-21 17:20:30.835937500,-43.0,-17.0,45.0,62.611796874999996,35.105000000000004,15.279768093749999,33.81
2021-06-21 17:20:30.843750000,-43.0,-17.0,45.0,62.6121875,33.31,15.280088375,33.81
2021-06-21 17:20:30.851562500,-43.0,-17.0,45.0,62.612578125,32.075,15.28040865625,33.81
2021-06-21 17:20:30.859375000,-43.0,-17.0,45.0,62.61296875,30.84,15.2807289375,33.81
2021-06-21 17:20:30.867187500,-43.0,-17.0,45.0,62.613359374999995,29.9,15.281049218749999,33.81
2021-06-21 17:20:30.875000000,-43.0,-17.0,45.0,62.613749999999996,28.96,15.2813695,33.81
2021-06-21 17:20:30.882812500,-43.0,-17.0,45.0,62.614140625,27.94,15.28168978125,33.81
2021-06-21 17:20:30.890625000,-43.0,-17.0,45.0,62.61453125,26.92,15.2820100625,33.81
2021-06-21 17:20:30.898437500,-43.0,-17.0,45.0,62.614921875,25.46,15.282330343749999,33.81
2021-06-21 17:20:30.906250000,-43.0,-17.0,45.0,62.615312499999995,24.0,15.282650624999999,33.81
2021-06-21 17:20:30.914062500,-43.0,-17.0,45.0,62.615703124999996,21.89,15.28297090625,33.81
2021-06-21 17:20:30.921875000,-43.0,-17.0,45.0,62.61609375,19.78,15.2832911875,33.81
2021-06-21 17:20:30.929687500,-43.0,-17.0,45.0,62.616484375,17.035,15.28361146875,33.81
2021-06-21 17:20:30.937500000,-43.0,-17.0,45.0,62.616875,14.29,15.283931749999999,33.81
2021-06-21 17:20:30.945312500,-43.0,-17.0,45.0,62.617265624999995,11.175,15.284252031249999,33.81
2021-06-21 17:20:30.953125000,-43.0,-17.0,45.0,62.617656249999996,8.06,15.2845723125,33.81
2021-06-21 17:20:30.960937500,-43.0,-17.0,45.0,62.618046875,4.965,15.28489259375,33.81
2021-06-21 17:20:30.968750000,-43.0,-17.0,45.0,62.6184375,1.87,15.285212875,33.81
2021-06-21 17:20:30.976562500,-43.0,-17.0,45.0,62.618828125,-0.7949999999999999,15.285533156249999,33.81
2021-06-21 17:20:30.984375000,-43.0,-17.0,45.0,62.619218749999995,-3.46,15.2858534375,33.81
2021-06-21 17:20:30.992187500,-43.0,-17.0,45.0,62.619609374999996,-5.49,15.28617371875,33.81
2021-06-21 17:20:31.000000000,-43.0,-17.0,45.0,62.62,-7.52,15.286494,33.81
2021-06-21 17:20:31.007812500,-43.0,-17.0,45.0,62.620078125,-8.934999999999999,15.2862538125,33.81
2021-06-21 17:20:31.015625000,-43.0,-17.0,45.0,62.62015625,-10.35,15.286013624999999,33.81
2021-06-21 17:20:31.023437500,-43.0,-17.0,45.0,62.620234374999995,-11.43,15.2857734375,33.81
2021-06-21 17:20:31.031250000,-43.0,-17.0,45.0,62.6203125,-12.51,15.28553325,33.81
2021-06-21 17:20:31.039062500,-43.0,-17.0,45.0,62.620390625,-13.629999999999999,15.2852930625,33.81
2021-06-21 17:20:31.046875000,-43.0,-17.0,45.0,62.62046875,-14.75,15.285052875,33.81
2021-06-21 17:20:31.054687500,-43.0,-17.0,45.0,62.620546874999995,-16.21,15.284812687499999,33.81
2021-06-21 17:20:31.062500000,-43.0,-17.0,45.0,62.620625,-17.67,15.2845725,33.81
2021-06-21 17:20:31.070312500,-43.0,-17.0,45.0,62.620703125,-19.565,15.2843323125,33.81
2021-06-21 17:20:31.078125000,-43.0,-17.0,45.0,62.62078125,-21.46,15.284092124999999,33.81
2021-06-21 17:20:31.085937500,-43.0,-17.0,45.0,62.620859374999995,-23.705,15.2838519375,33.81
2021-06-21 17:20:31.093750000,-43.0,-17.0,45.0,62.6209375,-25.95,15.283611749999999,33.81
2021-06-21 17:20:31.101562500,-43.0,-17.0,45.0,62.621015625,-28.32,15.2833715625,33.81
2021-06-21 17:20:31.109375000,-43.0,-17.0,45.0,62.62109375,-30.69,15.283131375,33.81
2021-06-21 17:20:31.117187500,-43.0,-17.0,45.0,62.621171874999995,-33.01,15.282891187499999,33.81
2021-06-21 17:20:31.125000000,-43.0,-17.0,45.0,62.621249999999996,-35.33,15.282651,33.81
2021-06-21 17:20:31.132812500,-43.0,-17.0,45.0,62.621328125,-37.545,15.2824108125,33.81
2021-06-21 17:20:31.140625000,-43.0,-17.0,45.0,62.62140625,-39.76,15.282170625,33.81
2021-06-21 17:20:31.148437500,-43.0,-17.0,45.0,62.621484375,-41.985,15.2819304375,33.81
2021-06-21 17:20:31.156250000,-43.0,-17.0,45.0,62.621562499999996,-44.21,15.28169025,33.81
2021-06-21 17:20:31.164062500,-43.0,-17.0,45.0,62.621640625,-46.655,15.2814500625,33.81
2021-06-21 17:20:31.171875000,-43.0,-17.0,45.0,62.62171875,-49.1,15.281209875,33.81
2021-06-21 17:20:31.179687500,-43.0,-17.0,45.0,62.621796875,-52.0,15.280969687499999,33.81
2021-06-21 17:20:31.187500000,-43.0,-17.0,45.0,62.621874999999996,-54.9,15.2807295,33.81
2021-06-21 17:20:31.195312500,-43.0,-17.0,45.0,62.621953125,-58.445,15.2804893125,33.81
2021-06-21 17:20:31.203125000,-43.0,-17.0,45.0,62.62203125,-61.99,15.280249125,33.81
2021-06-21 17:20:31.210937500,-43.0,-17.0,45.0,62.622109375,-66.23,15.2800089375,33.81
2021-06-21 17:20:31.218750000,-43.0,-17.0,45.0,62.622187499999995,-70.47,15.279768749999999,33.81
2021-06-21 17:20:31.226562500,-43.0,-17.0,45.0,62.622265625,-75.305,15.2795285625,33.81
2021-06-21 17:20:31.234375000,-43.0,-17.0,45.0,62.62234375,-80.14,15.279288375,33.81
2021-06-21 17:20:31.242187500,-43.0,-17.0,45.0,62.622421875,-85.225,15.279048187499999,33.81
2021-06-21 17:20:31.250000000,-43.0,-17.0,45.0,62.6225,-90.31,15.278808,33.81
2021-06-21 17:20:31.257812500,-43.0,-17.0,45.0,62.622578125,-95.035,15.277807124999999,33.81
2021-06-21 17:20:31.265625000,-43.0,-17.0,45.0,62.62265625,-99.76,15.27680625,33.81
2021-06-21 17:20:31.273437500,-43.0,-17.0,45.0,62.622734375,-103.28,15.275805375,33.81
2021-06-21 17:20:31.281250000,-43.0,-17.0,45.0,62.6228125,-106.8,15.2748045,33.81
2021-06-21 17:20:31.289062500,-43.0,-17.0,45.0,62.622890625,-108.175,15.273803625,33.81
2021-06-21 17:20:31.296875000,-43.0,-17.0,45.0,62.62296875,-109.55,15.27280275,33.81
2021-06-21 17:20:31.304687500,-43.0,-17.0,45.0,62.623046875,-107.99000000000001,15.271801875,33.81
2021-06-21 17:20:31.312500000,-43.0,-17.0,45.0,62.623125,-106.43,15.270800999999999,33.81
2021-06-21 17:20:31.320312500,-43.0,-17.0,45.0,62.623203124999996,-101.575,15.269800125,33.81
2021-06-21 17:20:31.328125000,-43.0,-17.0,45.0,62.62328125,-96.72,15.268799249999999,33.81
2021-06-21 17:20:31.335937500,-43.0,-17.0,45.0,62.623359375,-88.825,15.267798375,33.81
2021-06-21 17:20:31.343750000,-43.0,-17.0,45.0,62.6234375,-80.93,15.2667975,33.81
2021-06-21 17:20:31.351562500,-43.0,-17.0,45.0,62.623515624999996,-70.82000000000001,15.265796625,33.81
2021-06-21 17:20:31.359375000,-43.0,-17.0,45.0,62.62359375,-60.71,15.26479575,33.81
2021-06-21 17:20:31.367187500,-43.0,-17.0,45.0,62.623671875,-49.58,15.263794875,33.81
2021-06-21 17:20:31.375000000,-43.0,-17.0,45.0,62.62375,-38.45,15.262794,33.81
2021-06-21 17:20:31.382812500,-43.0,-17.0,45.0,62.623828125,-27.535000000000004,15.261793124999999,33.81
2021-06-21 17:20:31.390625000,-43.0,-17.0,45.0,62.62390625,-16.62,15.26079225,33.81
2021-06-21 17:20:31.398437500,-43.0,-17.0,45.0,62.623984375,-6.890000000000001,15.259791374999999,33.81
2021-06-21 17:20:31.406250000,-43.0,-17.0,45.0,62.6240625,2.84,15.2587905,33.81
2021-06-21 17:20:31.414062500,-43.0,-17.0,45.0,62.624140625,10.845,15.257789625,33.81
2021-06-21 17:20:31.421875000,-43.0,-17.0,45.0,62.62421875,18.85,15.25678875,33.81
2021-06-21 17:20:31.429687500,-43.0,-17.0,45.0,62.624296875,25.0,15.255787875,33.81
2021-06-21 17:20:31.437500000,-43.0,-17.0,45.0,62.624375,31.15,15.254787,33.81
2021-06-21 17:20:31.445312500,-43.0,-17.0,45.0,62.624453125,35.59,15.253786125,33.81
2021-06-21 17:20:31.453125000,-43.0,-17.0,45.0,62.62453125,40.03,15.252785249999999,33.81
2021-06-21 17:20:31.460937500,-43.0,-17.0,45.0,62.624609375,43.019999999999996,15.251784375,33.81
2021-06-21 17:20:31.468750000,-43.0,-17.0,45.0,62.6246875,46.01,15.250783499999999,33.81
2021-06-21 17:20:31.476562500,-43.0,-17.0,45.0,62.624765625,47.79,15.249782625,33.81
2021-06-21 17:20:31.484375000,-43.0,-17.0,45.0,62.62484375,49.57,15.24878175,33.81
2021-06-21 17:20:31.492187500,-43.0,-17.0,45.0,62.624921875,50.31,15.247780875,33.81
2021-06-21 17:20:31.500000000,-43.0,-17.0,45.0,62.625,51.05,15.24678,33.81
2021-06-21 17:20:31.507812500,-43.0,-17.0,45.0,62.625078125,50.92,15.246299593749999,33.81
2021-06-21 17:20:31.515625000,-43.0,-17.0,45.0,62.62515625,50.79,15.245819187499999,33.81
2021-06-21 17:20:31.523437500,-43.0,-17.0,45.0,62.625234375,50.004999999999995,15.24533878125,33.81
2021-06-21 17:20:31.531250000,-43.0,-17.0,45.0,62.6253125,49.22,15.244858375,33.81
2021-06-21 17:20:31.539062500,-43.0,-17.0,45.0,62.625390625,48.075,15.24437796875,33.81
2021-06-21 17:20:31.546875000,-43.0,-17.0,45.0,62.62546875,46.93,15.243897562499999,33.81
2021-06-21 17:20:31.554687500,-43.0,-17.0,45.0,62.625546875,45.79,15.24341715625,33.81
2021-06-21 17:20:31.562500000,-43.0,-17.0,45.0,62.625625,44.65,15.24293675,33.81
2021-06-21 17:20:31.570312500,-43.0,-17.0,45.0,62.625703125,43.879999999999995,15.24245634375,33.81
2021-06-21 17:20:31.578125000,-43.0,-17.0,45.0,62.62578125,43.11,15.2419759375,33.81
2021-06-21 17:20:31.585937500,-43.0,-17.0,45.0,62.625859375,42.945,15.24149553125,33.81
2021-06-21 17:20:31.593750000,-43.0,-17.0,45.0,62.6259375,42.78,15.241015125,33.81
2021-06-21 17:20:31.601562500,-43.0,-17.0,45.0,62.626015625,43.305,15.24053471875,33.81
2021-06-21 17:20:31.609375000,-43.0,-17.0,45.0,62.62609375,43.83,15.2400543125,33.81
2021-06-21 17:20:31.617187500,-43.0,-17.0,45.0,62.626171875,44.94,15.23957390625,33.81
2021-06-21 17:20:31.625000000,-43.0,-17.0,45.0,62.62625,46.05,15.2390935,33.81
2021-06-21 17:20:31.632812500,-43.0,-17.0,45.0,62.626328125,47.525,15.23861309375,33.81
2021-06-21 17:20:31.640625000,-43.0,-17.0,45.0,62.62640625,49.0,15.2381326875,33.81
2021-06-21 17:20:31.648437500,-43.0,-17.0,45.0,62.626484375000004,50.595,15.23765228125,33.81
2021-06-21 17:20:31.656250000,-43.0,-17.0,45.0,62.6265625,52.19,15.237171875,33.81
2021-06-21 17:20:31.664062500,-43.0,-17.0,45.0,62.626640625,53.709999999999994,15.236691468750001,33.81
2021-06-21 17:20:31.671875000,-43.0,-17.0,45.0,62.62671875,55.23,15.2362110625,33.81
2021-06-21 17:20:31.679687500,-43.0,-17.0,45.0,62.626796875000004,56.515,15.23573065625,33.81
2021-06-21 17:20:31.687500000,-43.0,-17.0,45.0,62.626875,57.8,15.23525025,33.81
2021-06-21 17:20:31.695312500,-43.0,-17.0,45.0,62.626953125,58.769999999999996,15.23476984375,33.81
2021-06-21 17:20:31.703125000,-43.0,-17.0,45.0,62.62703125,59.74,15.234289437500001,33.81
2021-06-21 17:20:31.710937500,-43.0,-17.0,45.0,62.627109375,60.305,15.23380903125,33.81
2021-06-21 17:20:31.718750000,-43.0,-17.0,45.0,62.6271875,60.87,15.233328625,33.81
2021-06-21 17:20:31.726562500,-43.0,-17.0,45.0,62.627265625,60.959999999999994,15.23284821875,33.81
2021-06-21 17:20:31.734375000,-43.0,-17.0,45.0,62.62734375,61.05,15.232367812500001,33.81
2021-06-21 17:20:31.742187500,-43.0,-17.0,45.0,62.627421875,60.575,15.231887406250001,33.81
2021-06-21 17:20:31.750000000,-43.0,-17.0,45.0,62.6275,60.1,15.231407,33.81
2021-06-21 17:20:31.757812500,-43.0,-17.0,45.0,62.627578125,59.0,15.230726406250001,33.81
2021-06-21 17:20:31.765625000,-43.0,-17.0,45.0,62.62765625,57.9,15.2300458125,33.81
2021-06-21 17:20:31.773437500,-43.0,-17.0,45.0,62.627734375,56.15,15.22936521875,33.81
2021-06-21 17:20:31.781250000,-43.0,-17.0,45.0,62.627812500000005,54.4,15.228684625000001,33.81
2021-06-21 17:20:31.789062500,-43.0,-17.0,45.0,62.627890625,52.065,15.22800403125,33.81
2021-06-21 17:20:31.796875000,-43.0,-17.0,45.0,62.62796875,49.73,15.2273234375,33.81
2021-06-21 17:20:31.804687500,-43.0,-17.0,45.0,62.628046875,46.965,15.226642843750001,33.81
2021-06-21 17:20:31.812500000,-43.0,-17.0,45.0,62.628125000000004,44.2,15.22596225,33.81
2021-06-21 17:20:31.820312500,-43.0,-17.0,45.0,62.628203125,41.255,15.22528165625,33.81
2021-06-21 17:20:31.828125000,-43.0,-17.0,45.0,62.62828125,38.31,15.224601062500001,33.81
2021-06-21 17:20:31.835937500,-43.0,-17.0,45.0,62.628359375,35.5,15.22392046875,33.81
2021-06-21 17:20:31.843750000,-43.0,-17.0,45.0,62.628437500000004,32.69,15.223239875,33.81
2021-06-21 17:20:31.851562500,-43.0,-17.0,45.0,62.628515625,30.265,15.222559281250001,33.81
2021-06-21 17:20:31.859375000,-43.0,-17.0,45.0,62.62859375,27.84,15.2218786875,33.81
2021-06-21 17:20:31.867187500,-43.0,-17.0,45.0,62.628671875,25.92,15.22119809375,33.81
2021-06-21 17:20:31.875000000,-43.0,-17.0,45.0,62.628750000000004,24.0,15.2205175,33.81
2021-06-21 17:20:31.882812500,-43.0,-17.0,45.0,62.628828125000005,22.505000000000003,15.21983690625,33.81
2021-06-21 17:20:31.890625000,-43.0,-17.0,45.0,62.62890625,21.01,15.219156312500001,33.81
2021-06-21 17:20:31.898437500,-43.0,-17.0,45.0,62.628984375,19.685000000000002,15.21847571875,33.81
2021-06-21 17:20:31.906250000,-43.0,-17.0,45.0,62.6290625,18.36,15.217795125,33.81
2021-06-21 17:20:31.914062500,-43.0,-16.75,45.0,62.629140625000005,16.935,15.217114531250001,33.81
2021-06-21 17:20:31.921875000,-43.0,-16.5,45.0,62.62921875,15.51,15.2164339375,33.81
2021-06-21 17:20:31.929687500,-43.0,-16.25,45.0,62.629296875,13.82,15.21575334375,33.81
2021-06-21 17:20:31.937500000,-43.0,-16.0,45.0,62.629375,12.13,15.215072750000001,33.81
2021-06-21 17:20:31.945312500,-43.25,-16.25,45.0,62.629453125000005,10.185,15.21439215625,33.81
2021-06-21 17:20:31.953125000,-43.5,-16.5,45.0,62.62953125,8.24,15.2137115625,33.81
2021-06-21 17:20:31.960937500,-43.75,-16.75,45.0,62.629609375,6.2,15.213030968750001,33.81
2021-06-21 17:20:31.968750000,-44.0,-17.0,45.0,62.6296875,4.16,15.212350375,33.81
2021-06-21 17:20:31.976562500,-43.75,-17.0,44.75,62.629765625000005,2.215,15.21166978125,33.81
2021-06-21 17:20:31.984375000,-43.5,-17.0,44.5,62.62984375,0.27,15.210989187500001,33.81
2021-06-21 17:20:31.992187500,-43.25,-17.0,44.25,62.629921875,-1.475,15.21030859375,33.81
2021-06-21 17:20:32.000000000,-43.0,-17.0,44.0,62.63,-3.22,15.209628,33.81
2021-06-21 17:20:32.007812500,-43.0,-17.0,44.25,62.630156250000006,-4.83,15.21066890625,33.81
2021-06-21 17:20:32.015625000,-43.0,-17.0,44.5,62.6303125,-6.44,15.2117098125,33.81
2021-06-21 17:20:32.023437500,-43.0,-17.0,44.75,62.630468750000006,-8.105,15.21275071875,33.81
2021-06-21 17:20:32.031250000,-43.0,-17.0,45.0,62.630625,-9.77,15.213791625,33.81
2021-06-21 17:20:32.039062500,-43.0,-17.0,45.0,62.630781250000005,-11.684999999999999,15.21483253125,33.81
2021-06-21 17:20:32.046875000,-43.0,-17.0,45.0,62.6309375,-13.6,15.2158734375,33.81
2021-06-21 17:20:32.054687500,-43.0,-17.0,45.0,62.631093750000005,-15.870000000000001,15.21691434375,33.81
2021-06-21 17:20:32.062500000,-43.0,-17.0,45.0,62.63125,-18.14,15.21795525,33.81
2021-06-21 17:20:32.070312500,-43.0,-17.0,45.0,62.631406250000005,-20.73,15.21899615625,33.81
2021-06-21 17:20:32.078125000,-43.0,-17.0,45.0,62.6315625,-23.32,15.2200370625,33.81
2021-06-21 17:20:32.085937500,-43.0,-17.0,45.0,62.631718750000005,-26.064999999999998,15.22107796875,33.81
2021-06-21 17:20:32.093750000,-43.0,-17.0,45.0,62.631875,-28.81,15.222118875,33.81
2021-06-21 17:20:32.101562500,-43.0,-16.75,45.0,62.632031250000004,-31.525,15.22315978125,33.81
2021-06-21 17:20:32.109375000,-43.0,-16.5,45.0,62.6321875,-34.24,15.2242006875,33.81
2021-06-21 17:20:32.117187500,-43.0,-16.25,45.0,62.632343750000004,-36.765,15.22524159375,33.81
2021-06-21 17:20:32.125000000,-43.0,-16.0,45.0,62.6325,-39.29,15.2262825,33.81
2021-06-21 17:20:32.132812500,-43.0,-16.25,45.0,62.632656250000004,-41.575,15.22732340625,33.81
2021-06-21 17:20:32.140625000,-43.0,-16.5,45.0,62.6328125,-43.86,15.2283643125,33.81
2021-06-21 17:20:32.148437500,-43.0,-16.75,45.0,62.63296875,-45.975,15.22940521875,33.81
2021-06-21 17:20:32.156250000,-43.0,-17.0,45.0,62.633125,-48.09,15.230446125,33.81
2021-06-21 17:20:32.164062500,-43.0,-17.0,44.75,62.63328125,-50.19,15.23148703125,33.81
2021-06-21 17:20:32.171875000,-43.0,-17.0,44.5,62.6334375,-52.29,15.2325279375,33.81
2021-06-21 17:20:32.179687500,-43.0,-17.0,44.25,62.63359375,-54.57,15.23356884375,33.81
2021-06-21 17:20:32.187500000,-43.0,-17.0,44.0,62.63375,-56.85,15.23460975,33.81
2021-06-21 17:20:32.195312500,-43.0,-16.75,44.25,62.63390625,-59.504999999999995,15.23565065625,33.81
2021-06-21 17:20:32.203125000,-43.0,-16.5,44.5,62.6340625,-62.16,15.236691562499999,33.81
2021-06-21 17:20:32.210937500,-43.0,-16.25,44.75,62.63421875,-65.34,15.23773246875,33.81
2021-06-21 17:20:32.218750000,-43.0,-16.0,45.0,62.634375,-68.52,15.238773375,33.81
2021-06-21 17:20:32.226562500,-43.0,-16.0,45.0,62.63453125,-72.22,15.23981428125,33.81
2021-06-21 17:20:32.234375000,-43.0,-16.0,45.0,62.6346875,-75.92,15.2408551875,33.81
2021-06-21 17:20:32.242187500,-43.0,-16.0,45.0,62.63484375,-79.96000000000001,15.24189609375,33.81
2021-06-21 17:20:32.250000000,-43.0,-16.0,45.0,62.635000000000005,-84.0,15.242937,33.81
2021-06-21 17:20:32.257812500,-43.0,-16.25,45.0,62.63515625,-87.89500000000001,15.244818593749999,33.81
2021-06-21 17:20:32.265625000,-43.0,-16.5,45.0,62.635312500000005,-91.79,15.2467001875,33.81
2021-06-21 17:20:32.273437500,-43.0,-16.75,45.0,62.63546875,-94.845,15.24858178125,33.81
2021-06-21 17:20:32.281250000,-43.0,-17.0,45.0,62.635625000000005,-97.9,15.250463374999999,33.81
2021-06-21 17:20:32.289062500,-43.0,-17.0,45.0,62.63578125,-99.275,15.25234496875,33.81
2021-06-21 17:20:32.296875000,-43.0,-17.0,45.0,62.635937500000004,-100.65,15.2542265625,33.81
2021-06-21 17:20:32.304687500,-43.0,-17.0,45.0,62.63609375,-99.58000000000001,15.256108156249999,33.81
2021-06-21 17:20:32.312500000,-43.0,-17.0,45.0,62.636250000000004,-98.51,15.25798975,33.81
2021-06-21 17:20:32.320312500,-43.0,-17.0,45.0,62.63640625,-94.57,15.25987134375,33.81
2021-06-21 17:20:32.328125000,-43.0,-17.0,45.0,62.636562500000004,-90.63,15.261752937499999,33.81
2021-06-21 17:20:32.335937500,-43.0,-17.0,45.0,62.63671875,-83.895,15.26363453125,33.81
2021-06-21 17:20:32.343750000,-43.0,-17.0,45.0,62.636875,-77.16,15.265516125,33.81
2021-06-21 17:20:32.351562500,-43.0,-17.0,45.0,62.63703125,-68.255,15.267397718749999,33.81
2021-06-21 17:20:32.359375000,-43.0,-17.0,45.0,62.6371875,-59.35,15.2692793125,33.81
2021-06-21 17:20:32.367187500,-43.0,-17.0,45.0,62.63734375,-49.285,15.27116090625,33.81
2021-06-21 17:20:32.375000000,-43.0,-17.0,45.0,62.6375,-39.22,15.273042499999999,33.81
2021-06-21 17:20:32.382812500,-43.0,-16.75,45.0,62.63765625,-29.125,15.27492409375,33.81
2021-06-21 17:20:32.390625000,-43.0,-16.5,45.0,62.6378125,-19.03,15.2768056875,33.81
2021-06-21 17:20:32.398437500,-43.0,-16.25,45.0,62.63796875,-9.825000000000001,15.27868728125,33.81
2021-06-21 17:20:32.406250000,-43.0,-16.0,45.0,62.638125,-0.62,15.280568875,33.81
2021-06-21 17:20:32.414062500,-43.0,-16.25,45.0,62.63828125,7.13,15.28245046875,33.81
2021-06-21 17:20:32.421875000,-43.0,-16.5,45.0,62.6384375,14.88,15.2843320625,33.81
2021-06-21 17:20:32.429687500,-43.0,-16.75,45.0,62.63859375,21.01,15.28621365625,33.81
2021-06-21 17:20:32.437500000,-43.0,-17.0,45.0,62.63875,27.14,15.28809525,33.81
2021-06-21 17:20:32.445312500,-43.0,-17.0,45.0,62.63890625,31.725,15.28997684375,33.81
2021-06-21 17:20:32.453125000,-43.0,-17.0,45.0,62.6390625,36.31,15.2918584375,33.81
2021-06-21 17:20:32.460937500,-43.0,-17.0,45.0,62.63921875,39.510000000000005,15.29374003125,33.81
2021-06-21 17:20:32.468750000,-43.0,-17.0,45.0,62.639375,42.71,15.295621625,33.81
2021-06-21 17:20:32.476562500,-43.0,-16.75,45.0,62.63953125,44.629999999999995,15.29750321875,33.81
2021-06-21 17:20:32.484375000,-43.0,-16.5,45.0,62.6396875,46.55,15.2993848125,33.81
2021-06-21 17:20:32.492187500,-43.0,-16.25,45.0,62.63984375,47.235,15.30126640625,33.81
2021-06-21 17:20:32.500000000,-43.0,-16.0,45.0,62.64,47.92,15.303148,33.81
2021-06-21 17:20:32.507812500,-43.0,-16.25,45.0,62.640156250000004,47.47,15.30599046875,33.81
2021-06-21 17:20:32.515625000,-43.0,-16.5,45.0,62.6403125,47.02,15.3088329375,33.81
2021-06-21 17:20:32.523437500,-43.0,-16.75,45.0,62.640468750000004,45.68000000000001,15.31167540625,33.81
2021-06-21 17:20:32.531250000,-43.0,-17.0,45.0,62.640625,44.34,15.314517875,33.81
2021-06-21 17:20:32.539062500,-43.0,-16.75,45.0,62.64078125,42.56,15.31736034375,33.81
2021-06-21 17:20:32.546875000,-43.0,-16.5,45.0,62.6409375,40.78,15.3202028125,33.81
2021-06-21 17:20:32.554687500,-43.0,-16.25,45.0,62.64109375,39.105000000000004,15.32304528125,33.81
2021-06-21 17:20:32.562500000,-43.0,-16.0,45.0,62.64125,37.43,15.32588775,33.81
2021-06-21 17:20:32.570312500,-43.0,-16.0,45.0,62.64140625,36.385000000000005,15.32873021875,33.81
2021-06-21 17:20:32.578125000,-43.0,-16.0,45.0,62.6415625,35.34,15.3315726875,33.81
2021-06-21 17:20:32.585937500,-43.0,-16.0,45.0,62.64171875,35.215,15.33441515625,33.81
2021-06-21 17:20:32.593750000,-43.0,-16.0,45.0,62.641875,35.09,15.337257625,33.81
2021-06-21 17:20:32.601562500,-43.0,-16.25,45.0,62.64203125,35.865,15.34010009375,33.81
2021-06-21 17:20:32.609375000,-43.0,-16.5,45.0,62.6421875,36.64,15.3429425625,33.81
2021-06-21 17:20:32.617187500,-43.0,-16.75,45.0,62.64234375,38.04,15.34578503125,33.81
2021-06-21 17:20:32.625000000,-43.0,-17.0,45.0,62.6425,39.44,15.3486275,33.81
2021-06-21 17:20:32.632812500,-43.0,-16.75,44.75,62.64265625,41.055,15.351469968750001,33.81
2021-06-21 17:20:32.640625000,-43.0,-16.5,44.5,62.6428125,42.67,15.3543124375,33.81
2021-06-21 17:20:32.648437500,-43.0,-16.25,44.25,62.64296875,44.135000000000005,15.35715490625,33.81
2021-06-21 17:20:32.656250000,-43.0,-16.0,44.0,62.643125,45.6,15.359997375,33.81
2021-06-21 17:20:32.664062500,-43.0,-16.0,44.25,62.64328125,46.715,15.36283984375,33.81
2021-06-21 17:20:32.671875000,-43.0,-16.0,44.5,62.6434375,47.83,15.3656823125,33.81
2021-06-21 17:20:32.679687500,-43.0,-16.0,44.75,62.64359375,48.57,15.36852478125,33.81
2021-06-21 17:20:32.687500000,-43.0,-16.0,45.0,62.64375,49.31,15.37136725,33.81
2021-06-21 17:20:32.695312500,-43.25,-16.25,45.0,62.64390625,49.78,15.37420971875,33.81
2021-06-21 17:20:32.703125000,-43.5,-16.5,45.0,62.6440625,50.25,15.3770521875,33.81
2021-06-21 17:20:32.710937500,-43.75,-16.75,45.0,62.64421875,50.519999999999996,15.37989465625,33.81
2021-06-21 17:20:32.718750000,-44.0,-17.0,45.0,62.644375,50.79,15.382737125,33.81
2021-06-21 17:20:32.726562500,-43.75,-17.0,45.0,62.64453125,50.84,15.38557959375,33.81
2021-06-21 17:20:32.734375000,-43.5,-17.0,45.0,62.644687499999996,50.89,15.3884220625,33.81
2021-06-21 17:20:32.742187500,-43.25,-17.0,45.0,62.64484375,50.585,15.39126453125,33.81
2021-06-21 17:20:32.750000000,-43.0,-17.0,45.0,62.644999999999996,50.28,15.394107,33.81
2021-06-21 17:20:32.757812500,-43.0,-17.0,45.0,62.64515625,49.445,15.39710959375,33.81
2021-06-21 17:20:32.765625000,-43.0,-17.0,45.0,62.6453125,48.61,15.4001121875,33.81
2021-06-21 17:20:32.773437500,-43.0,-17.0,45.0,62.64546875,47.15,15.40311478125,33.81
2021-06-21 17:20:32.781250000,-43.0,-17.0,45.0,62.645625,45.69,15.406117375000001,33.81
2021-06-21 17:20:32.789062500,-43.0,-16.75,45.0,62.64578125,43.655,15.40911996875,33.81
2021-06-21 17:20:32.796875000,-43.0,-16.5,45.0,62.6459375,41.62,15.4121225625,33.81
2021-06-21 17:20:32.804687500,-43.0,-16.25,45.0,62.64609375,39.224999999999994,15.41512515625,33.81
2021-06-21 17:20:32.812500000,-43.0,-16.0,45.0,62.64625,36.83,15.41812775,33.81
2021-06-21 17:20:32.820312500,-43.0,-16.25,45.0,62.64640625,34.335,15.42113034375,33.81
2021-06-21 17:20:32.828125000,-43.0,-16.5,45.0,62.6465625,31.84,15.4241329375,33.81
2021-06-21 17:20:32.835937500,-43.0,-16.75,45.0,62.64671875,29.490000000000002,15.42713553125,33.81
2021-06-21 17:20:32.843750000,-43.0,-17.0,45.0,62.646875,27.14,15.430138125,33.81
2021-06-21 17:20:32.851562500,-43.0,-17.0,45.0,62.64703125,25.035,15.43314071875,33.81
2021-06-21 17:20:32.859375000,-43.0,-17.0,45.0,62.6471875,22.93,15.4361433125,33.81
2021-06-21 17:20:32.867187500,-43.0,-17.0,45.0,62.64734375,21.03,15.43914590625,33.81
2021-06-21 17:20:32.875000000,-43.0,-17.0,45.0,62.6475,19.13,15.4421485,33.81
2021-06-21 17:20:32.882812500,-43.0,-17.0,45.0,62.64765625,17.31,15.44515109375,33.81
2021-06-21 17:20:32.890625000,-43.0,-17.0,45.0,62.6478125,15.49,15.4481536875,33.81
2021-06-21 17:20:32.898437500,-43.0,-17.0,45.0,62.64796875,13.629999999999999,15.45115628125,33.81
2021-06-21 17:20:32.906250000,-43.0,-17.0,45.0,62.648125,11.77,15.454158875000001,33.81
2021-06-21 17:20:32.914062500,-43.0,-17.0,45.0,62.64828125,9.835,15.45716146875,33.81
2021-06-21 17:20:32.921875000,-43.0,-17.0,45.0,62.6484375,7.9,15.4601640625,33.81
2021-06-21 17:20:32.929687500,-43.0,-17.0,45.0,62.648593749999996,5.970000000000001,15.46316665625,33.81
2021-06-21 17:20:32.937500000,-43.0,-17.0,45.0,62.64875,4.04,15.46616925,33.81
2021-06-21 17:20:32.945312500,-43.0,-16.75,45.0,62.648906249999996,2.2350000000000003,15.46917184375,33.81
2021-06-21 17:20:32.953125000,-43.0,-16.5,45.0,62.6490625,0.43,15.4721744375,33.81
2021-06-21 17:20:32.960937500,-43.0,-16.25,45.0,62.649218749999996,-1.1500000000000001,15.47517703125,33.81
2021-06-21 17:20:32.968750000,-43.0,-16.0,45.0,62.649375,-2.73,15.478179625,33.81
2021-06-21 17:20:32.976562500,-43.0,-16.0,45.0,62.649531249999995,-4.08,15.48118221875,33.81
2021-06-21 17:20:32.984375000,-43.0,-16.0,45.0,62.6496875,-5.43,15.4841848125,33.81
2021-06-21 17:20:32.992187500,-43.0,-16.0,45.0,62.649843749999995,-6.66,15.48718740625,33.81
2021-06-21 17:20:33.000000000,-43.0,-16.0,45.0,62.65,-7.89,15.49019,33.81
2021-06-21 17:20:33.007812500,-43.0,-16.0,45.0,62.65,-9.18,15.4914710625,33.81
2021-06-21 17:20:33.015625000,-43.0,-16.0,45.0,62.65,-10.47,15.492752125,33.81
2021-06-21 17:20:33.023437500,-43.0,-16.0,45.0,62.65,-12.030000000000001,15.4940331875,33.81
2021-06-21 17:20:33.031250000,-43.0,-16.0,45.0,62.65,-13.59,15.49531425,33.81
2021-06-21 17:20:33.039062500,-43.25,-16.25,45.0,62.65,-15.535,15.4965953125,33.81
2021-06-21 17:20:33.046875000,-43.5,-16.5,45.0,62.65,-17.48,15.497876375,33.81
2021-06-21 17:20:33.054687500,-43.75,-16.75,45.0,62.65,-19.8,15.4991574375,33.81
2021-06-21 17:20:33.062500000,-44.0,-17.0,45.0,62.65,-22.12,15.5004385,33.81
2021-06-21 17:20:33.070312500,-43.75,-16.75,45.0,62.65,-24.715,15.5017195625,33.81
2021-06-21 17:20:33.078125000,-43.5,-16.5,45.0,62.65,-27.31,15.503000625,33.81
2021-06-21 17:20:33.085937500,-43.25,-16.25,45.0,62.65,-29.985,15.5042816875,33.81
2021-06-21 17:20:33.093750000,-43.0,-16.0,45.0,62.65,-32.66,15.50556275,33.81
2021-06-21 17:20:33.101562500,-43.0,-16.25,45.0,62.65,-35.245,15.5068438125,33.81
2021-06-21 17:20:33.109375000,-43.0,-16.5,45.0,62.65,-37.83,15.508124875,33.81
2021-06-21 17:20:33.117187500,-43.0,-16.75,45.0,62.65,-40.245,15.5094059375,33.81
2021-06-21 17:20:33.125000000,-43.0,-17.0,45.0,62.65,-42.66,15.510687,33.81
2021-06-21 17:20:33.132812500,-43.0,-17.0,45.0,62.65,-44.94,15.5119680625,33.81
2021-06-21 17:20:33.140625000,-43.0,-17.0,45.0,62.65,-47.22,15.513249125,33.81
2021-06-21 17:20:33.148437500,-43.0,-17.0,45.0,62.65,-49.53,15.5145301875,33.81
2021-06-21 17:20:33.156250000,-43.0,-17.0,45.0,62.65,-51.84,15.51581125,33.81
2021-06-21 17:20:33.164062500,-43.0,-17.0,45.0,62.65,-54.415000000000006,15.517092312499999,33.81
2021-06-21 17:20:33.171875000,-43.0,-17.0,45.0,62.65,-56.99,15.518373375,33.81
2021-06-21 17:20:33.179687500,-43.0,-17.0,45.0,62.65,-60.09,15.5196544375,33.81
2021-06-21 17:20:33.187500000,-43.0,-17.0,45.0,62.65,-63.19,15.5209355,33.81
2021-06-21 17:20:33.195312500,-43.0,-17.0,45.0,62.65,-67.005,15.5222165625,33.81
2021-06-21 17:20:33.203125000,-43.0,-17.0,45.0,62.65,-70.82,15.523497625,33.81
2021-06-21 17:20:33.210937500,-43.0,-17.0,45.0,62.65,-75.37,15.5247786875,33.81
2021-06-21 17:20:33.218750000,-43.0,-17.0,45.0,62.65,-79.92,15.52605975,33.81
2021-06-21 17:20:33.226562500,-43.0,-16.75,45.0,62.65,-84.91499999999999,15.5273408125,33.81
2021-06-21 17:20:33.234375000,-43.0,-16.5,45.0,62.65,-89.91,15.528621874999999,33.81
2021-06-21 17:20:33.242187500,-43.0,-16.25,45.0,62.65,-94.735,15.5299029375,33.81
2021-06-21 17:20:33.250000000,-43.0,-16.0,45.0,62.65,-99.56,15.531184,33.81
2021-06-21 17:20:33.257812500,-43.0,-16.0,45.0,62.65,-103.28999999999999,15.53286546875,33.81
2021-06-21 17:20:33.265625000,-43.0,-16.0,45.0,62.65,-107.02,15.5345469375,33.81
2021-06-21 17:20:33.273437500,-43.0,-16.0,45.0,62.65,-108.66,15.53622840625,33.81
2021-06-21 17:20:33.281250000,-43.0,-16.0,45.0,62.65,-110.3,15.537909875,33.81
2021-06-21 17:20:33.289062500,-43.0,-16.25,45.0,62.65,-109.045,15.53959134375,33.81
2021-06-21 17:20:33.296875000,-43.0,-16.5,45.0,62.65,-107.79,15.541272812499999,33.81
2021-06-21 17:20:33.304687500,-43.0,-16.75,45.0,62.65,-103.315,15.54295428125,33.81
2021-06-21 17:20:33.312500000,-43.0,-17.0,45.0,62.65,-98.84,15.54463575,33.81
2021-06-21 17:20:33.320312500,-43.0,-17.0,45.0,62.65,-91.455,15.54631721875,33.81
2021-06-21 17:20:33.328125000,-43.0,-17.0,45.0,62.65,-84.07,15.5479986875,33.81
2021-06-21 17:20:33.335937500,-43.0,-17.0,45.0,62.65,-74.645,15.54968015625,33.81
2021-06-21 17:20:33.343750000,-43.0,-17.0,45.0,62.65,-65.22,15.551361625,33.81
2021-06-21 17:20:33.351562500,-43.0,-17.0,45.0,62.65,-54.955,15.55304309375,33.81
2021-06-21 17:20:33.359375000,-43.0,-17.0,45.0,62.65,-44.69,15.5547245625,33.81
2021-06-21 17:20:33.367187500,-43.0,-17.0,45.0,62.65,-34.71,15.55640603125,33.81
2021-06-21 17:20:33.375000000,-43.0,-17.0,45.0,62.65,-24.73,15.5580875,33.81
2021-06-21 17:20:33.382812500,-43.0,-17.0,45.0,62.65,-15.855,15.55976896875,33.81
2021-06-21 17:20:33.390625000,-43.0,-17.0,45.0,62.65,-6.98,15.5614504375,33.81
2021-06-21 17:20:33.398437500,-43.0,-17.0,45.0,62.65,0.4299999999999997,15.56313190625,33.81
2021-06-21 17:20:33.406250000,-43.0,-17.0,45.0,62.65,7.84,15.564813375,33.81
2021-06-21 17:20:33.414062500,-43.0,-17.0,45.0,62.65,13.82,15.56649484375,33.81
2021-06-21 17:20:33.421875000,-43.0,-17.0,45.0,62.65,19.8,15.5681763125,33.81
2021-06-21 17:20:33.429687500,-43.0,-17.0,45.0,62.65,24.545,15.56985778125,33.81
2021-06-21 17:20:33.437500000,-43.0,-17.0,45.0,62.65,29.29,15.57153925,33.81
2021-06-21 17:20:33.445312500,-43.0,-17.0,45.0,62.65,32.985,15.573220718750001,33.81
2021-06-21 17:20:33.453125000,-43.0,-17.0,45.0,62.65,36.68,15.574902187500001,33.81
2021-06-21 17:20:33.460937500,-43.0,-17.0,45.0,62.65,39.355000000000004,15.57658365625,33.81
2021-06-21 17:20:33.468750000,-43.0,-17.0,45.0,62.65,42.03,15.578265125,33.81
2021-06-21 17:20:33.476562500,-43.0,-17.0,45.0,62.65,43.629999999999995,15.57994659375,33.81
2021-06-21 17:20:33.484375000,-43.0,-17.0,45.0,62.65,45.23,15.5816280625,33.81
2021-06-21 17:20:33.492187500,-43.0,-17.0,45.0,62.65,45.735,15.58330953125,33.81
2021-06-21 17:20:33.500000000,-43.0,-17.0,45.0,62.65,46.24,15.584991,33.81
2021-06-21 17:20:33.507812500,-43.25,-16.75,45.0,62.65,45.795,15.5850710625,33.81
2021-06-21 17:20:33.515625000,-43.5,-16.5,45.0,62.65,45.35,15.585151125000001,33.81
2021-06-21 17:20:33.523437500,-43.75,-16.25,45.0,62.65,44.315,15.5852311875,33.81
2021-06-21 17:20:33.531250000,-44.0,-16.0,45.0,62.65,43.28,15.58531125,33.81
2021-06-21 17:20:33.539062500,-43.75,-16.25,45.0,62.65,42.175,15.5853913125,33.81
2021-06-21 17:20:33.546875000,-43.5,-16.5,45.0,62.65,41.07,15.585471375000001,33.81
2021-06-21 17:20:33.554687500,-43.25,-16.75,45.0,62.65,40.379999999999995,15.5855514375,33.81
2021-06-21 17:20:33.562500000,-43.0,-17.0,45.0,62.65,39.69,15.5856315,33.81
2021-06-21 17:20:33.570312500,-43.0,-17.0,45.0,62.65,39.735,15.5857115625,33.81
2021-06-21 17:20:33.578125000,-43.0,-17.0,45.0,62.65,39.78,15.585791625,33.81
2021-06-21 17:20:33.585937500,-43.0,-17.0,45.0,62.65,40.615,15.585871687500001,33.81
2021-06-21 17:20:33.593750000,-43.0,-17.0,45.0,62.65,41.45,15.58595175,33.81
2021-06-21 17:20:33.601562500,-43.0,-17.0,45.0,62.65,42.900000000000006,15.5860318125,33.81
2021-06-21 17:20:33.609375000,-43.0,-17.0,45.0,62.65,44.35,15.586111875,33.81
2021-06-21 17:20:33.617187500,-43.0,-17.0,45.0,62.65,46.135000000000005,15.5861919375,33.81
2021-06-21 17:20:33.625000000,-43.0,-17.0,45.0,62.65,47.92,15.586272000000001,33.81
2021-06-21 17:20:33.632812500,-43.0,-17.0,45.0,62.65,49.765,15.5863520625,33.81
2021-06-21 17:20:33.640625000,-43.0,-17.0,45.0,62.65,51.61,15.586432125,33.81
2021-06-21 17:20:33.648437500,-43.0,-17.0,45.0,62.65,53.305,15.5865121875,33.81
2021-06-21 17:20:33.656250000,-43.0,-17.0,45.0,62.65,55.0,15.58659225,33.81
2021-06-21 17:20:33.664062500,-43.0,-17.0,45.0,62.65,56.415,15.5866723125,33.81
2021-06-21 17:20:33.671875000,-43.0,-17.0,45.0,62.65,57.83,15.586752375,33.81
2021-06-21 17:20:33.679687500,-43.0,-17.0,45.0,62.65,58.855000000000004,15.5868324375,33.81
2021-06-21 17:20:33.687500000,-43.0,-17.0,45.0,62.65,59.88,15.5869125,33.81
2021-06-21 17:20:33.695312500,-43.0,-17.0,45.0,62.65,60.42,15.5869925625,33.81
2021-06-21 17:20:33.703125000,-43.0,-17.0,45.0,62.65,60.96,15.587072625,33.81
2021-06-21 17:20:33.710937500,-43.0,-17.0,45.0,62.65,60.92,15.5871526875,33.81
2021-06-21 17:20:33.718750000,-43.0,-17.0,45.0,62.65,60.88,15.58723275,33.81
2021-06-21 17:20:33.726562500,-43.0,-17.0,45.0,62.65,60.205,15.5873128125,33.81
2021-06-21 17:20:33.734375000,-43.0,-17.0,45.0,62.65,59.53,15.587392874999999,33.81
2021-06-21 17:20:33.742187500,-43.0,-17.0,45.0,62.65,58.22,15.5874729375,33.81
2021-06-21 17:20:33.750000000,-43.0,-17.0,45.0,62.65,56.91,15.587553,33.81
2021-06-21 17:20:33.757812500,-43.0,-17.0,45.0,62.65,55.075,15.5879133125,33.81
2021-06-21 17:20:33.765625000,-43.0,-17.0,45.0,62.65,53.24,15.588273625,33.81
2021-06-21 17:20:33.773437500,-43.0,-17.0,45.0,62.65,51.045,15.5886339375,33.81
2021-06-21 17:20:33.781250000,-43.0,-17.0,45.0,62.65,48.85,15.588994249999999,33.81
2021-06-21 17:20:33.789062500,-43.0,-17.0,45.0,62.65,46.525000000000006,15.5893545625,33.81
2021-06-21 17:20:33.796875000,-43.0,-17.0,45.0,62.65,44.2,15.589714875,33.81
2021-06-21 17:20:33.804687500,-43.0,-17.0,45.0,62.65,41.96,15.5900751875,33.81
2021-06-21 17:20:33.812500000,-43.0,-17.0,45.0,62.65,39.72,15.5904355,33.81
2021-06-21 17:20:33.820312500,-43.0,-17.0,45.0,62.65,37.72,15.5907958125,33.81
2021-06-21 17:20:33.828125000,-43.0,-17.0,45.0,62.65,35.72,15.591156125,33.81
2021-06-21 17:20:33.835937500,-43.0,-17.0,45.0,62.65,34.0,15.5915164375,33.81
2021-06-21 17:20:33.843750000,-43.0,-17.0,45.0,62.65,32.28,15.59187675,33.81
2021-06-21 17:20:33.851562500,-43.0,-17.0,45.0,62.65,30.78,15.5922370625,33.81
2021-06-21 17:20:33.859375000,-43.0,-17.0,45.0,62.65,29.28,15.592597375,33.81
2021-06-21 17:20:33.867187500,-43.0,-17.0,45.0,62.65,27.85,15.5929576875,33.81
2021-06-21 17:20:33.875000000,-43.0,-17.0,45.0,62.65,26.42,15.593318,33.81
2021-06-21 17:20:33.882812500,-43.0,-17.0,45.0,62.65,24.915,15.5936783125,33.81
2021-06-21 17:20:33.890625000,-43.0,-17.0,45.0,62.65,23.41,15.594038625,33.81
2021-06-21 17:20:33.898437500,-43.0,-17.0,45.0,62.65,21.755000000000003,15.5943989375,33.81
2021-06-21 17:20:33.906250000,-43.0,-17.0,45.0,62.65,20.1,15.59475925,33.81
2021-06-21 17:20:33.914062500,-43.0,-17.0,45.0,62.65,18.28,15.5951195625,33.81
2021-06-21 17:20:33.921875000,-43.0,-17.0,45.0,62.65,16.46,15.595479875,33.81
2021-06-21 17:20:33.929687500,-43.0,-17.0,45.0,62.65,14.530000000000001,15.5958401875,33.81
2021-06-21 17:20:33.937500000,-43.0,-17.0,45.0,62.65,12.6,15.5962005,33.81
2021-06-21 17:20:33.945312500,-43.0,-17.0,45.0,62.65,10.66,15.5965608125,33.81
2021-06-21 17:20:33.953125000,-43.0,-17.0,45.0,62.65,8.72,15.596921125,33.81
2021-06-21 17:20:33.960937500,-43.0,-17.0,45.0,62.65,6.835000000000001,15.5972814375,33.81
2021-06-21 17:20:33.968750000,-43.0,-17.0,45.0,62.65,4.95,15.597641750000001,33.81
2021-06-21 17:20:33.976562500,-43.0,-17.0,45.0,62.65,3.17,15.5980020625,33.81
2021-06-21 17:20:33.984375000,-43.0,-17.0,45.0,62.65,1.39,15.598362375,33.81
2021-06-21 17:20:33.992187500,-43.0,-17.0,45.0,62.65,-0.26,15.5987226875,33.81
2021-06-21 17:20:34.000000000,-43.0,-17.0,45.0,62.65,-1.91,15.599083,33.81
2021-06-21 17:20:34.007812500,-43.0,-17.0,45.0,62.649765625,-3.46,15.598642625,33.81
2021-06-21 17:20:34.015625000,-43.0,-17.0,45.0,62.649531249999995,-5.01,15.59820225,33.81
2021-06-21 17:20:34.023437500,-43.0,-17.0,45.0,62.649296875,-6.555,15.597761875,33.81
2021-06-21 17:20:34.031250000,-43.0,-17.0,45.0,62.6490625,-8.1,15.5973215,33.81
2021-06-21 17:20:34.039062500,-43.25,-17.0,45.0,62.648828125,-9.77,15.596881125,33.81
2021-06-21 17:20:34.046875000,-43.5,-17.0,45.0,62.648593749999996,-11.44,15.596440750000001,33.81
2021-06-21 17:20:34.054687500,-43.75,-17.0,45.0,62.648359375,-13.379999999999999,15.596000375000001,33.81
2021-06-21 17:20:34.062500000,-44.0,-17.0,45.0,62.648125,-15.32,15.59556,33.81
2021-06-21 17:20:34.070312500,-43.75,-17.0,45.0,62.647890624999995,-17.595,15.595119625,33.81
2021-06-21 17:20:34.078125000,-43.5,-17.0,45.0,62.64765625,-19.87,15.59467925,33.81
2021-06-21 17:20:34.085937500,-43.25,-17.0,45.0,62.647421875,-22.425,15.594238875,33.81
2021-06-21 17:20:34.093750000,-43.0,-17.0,45.0,62.6471875,-24.98,15.5937985,33.81
2021-06-21 17:20:34.101562500,-43.0,-16.75,45.0,62.646953124999996,-27.64,15.593358125,33.81
2021-06-21 17:20:34.109375000,-43.0,-16.5,45.0,62.64671875,-30.3,15.59291775,33.81
2021-06-21 17:20:34.117187500,-43.0,-16.25,45.0,62.646484375,-32.845,15.592477375,33.81
2021-06-21 17:20:34.125000000,-43.0,-16.0,45.0,62.646249999999995,-35.39,15.592037000000001,33.81
2021-06-21 17:20:34.132812500,-43.25,-16.25,45.0,62.646015625,-37.68,15.591596625000001,33.81
2021-06-21 17:20:34.140625000,-43.5,-16.5,45.0,62.64578125,-39.97,15.591156250000001,33.81
2021-06-21 17:20:34.148437500,-43.75,-16.75,45.0,62.645546875,-42.04,15.590715875,33.81
2021-06-21 17:20:34.156250000,-44.0,-17.0,45.0,62.645312499999996,-44.11,15.5902755,33.81
2021-06-21 17:20:34.164062500,-43.75,-17.0,45.0,62.645078125,-46.185,15.589835125,33.81
2021-06-21 17:20:34.171875000,-43.5,-17.0,45.0,62.64484375,-48.26,15.58939475,33.81
2021-06-21 17:20:34.179687500,-43.25,-17.0,45.0,62.644609375,-50.644999999999996,15.588954375,33.81
2021-06-21 17:20:34.187500000,-43.0,-17.0,45.0,62.644375,-53.03,15.588514,33.81
2021-06-21 17:20:34.195312500,-43.0,-17.0,45.0,62.644140625,-56.015,15.588073625,33.81
2021-06-21 17:20:34.203125000,-43.0,-17.0,45.0,62.64390625,-59.0,15.58763325,33.81
2021-06-21 17:20:34.210937500,-43.0,-17.0,45.0,62.643671874999995,-62.72,15.587192875000001,33.81
2021-06-21 17:20:34.218750000,-43.0,-17.0,45.0,62.6434375,-66.44,15.586752500000001,33.81
2021-06-21 17:20:34.226562500,-43.0,-17.0,45.0,62.643203125,-70.77,15.586312125000001,33.81
2021-06-21 17:20:34.234375000,-43.0,-17.0,45.0,62.64296875,-75.1,15.58587175,33.81
2021-06-21 17:20:34.242187500,-43.0,-17.0,45.0,62.642734374999996,-79.645,15.585431375,33.81
2021-06-21 17:20:34.250000000,-43.0,-17.0,45.0,62.6425,-84.19,15.584991,33.81
2021-06-21 17:20:34.257812500,-43.0,-17.0,45.0,62.642265625,-88.285,15.5845105625,33.81
2021-06-21 17:20:34.265625000,-43.0,-17.0,45.0,62.642031249999995,-92.38,15.584030125,33.81
2021-06-21 17:20:34.273437500,-43.0,-17.0,45.0,62.641796875,-95.21000000000001,15.5835496875,33.81
2021-06-21 17:20:34.281250000,-43.0,-17.0,45.0,62.6415625,-98.04,15.583069250000001,33.81
2021-06-21 17:20:34.289062500,-43.0,-17.0,44.75,62.641328125,-98.755,15.582588812500001,33.81
2021-06-21 17:20:34.296875000,-43.0,-17.0,44.5,62.641093749999996,-99.47,15.582108375,33.81
2021-06-21 17:20:34.304687500,-43.0,-17.0,44.25,62.640859375,-97.445,15.5816279375,33.81
2021-06-21 17:20:34.312500000,-43.0,-17.0,44.0,62.640625,-95.42,15.5811475,33.81
2021-06-21 17:20:34.320312500,-43.0,-17.0,44.25,62.640390624999995,-90.445,15.5806670625,33.81
2021-06-21 17:20:34.328125000,-43.0,-17.0,44.5,62.64015625,-85.47,15.580186625,33.81
2021-06-21 17:20:34.335937500,-43.0,-17.0,44.75,62.639921875,-77.88,15.5797061875,33.81
2021-06-21 17:20:34.343750000,-43.0,-17.0,45.0,62.6396875,-70.29,15.579225749999999,33.81
2021-06-21 17:20:34.351562500,-43.0,-17.0,45.0,62.639453124999996,-60.88,15.5787453125,33.81
2021-06-21 17:20:34.359375000,-43.0,-17.0,45.0,62.63921875,-51.47,15.578264875,33.81
2021-06-21 17:20:34.367187500,-43.0,-17.0,45.0,62.638984375,-41.325,15.5777844375,33.81
2021-06-21 17:20:34.375000000,-43.0,-17.0,45.0,62.63875,-31.18,15.577304,33.81
2021-06-21 17:20:34.382812500,-43.0,-17.0,45.0,62.638515625,-21.365000000000002,15.5768235625,33.81
2021-06-21 17:20:34.390625000,-43.0,-17.0,45.0,62.63828125,-11.55,15.576343125,33.81
2021-06-21 17:20:34.398437500,-43.0,-17.0,45.0,62.638046875,-2.870000000000001,15.575862687499999,33.81
2021-06-21 17:20:34.406250000,-43.0,-17.0,45.0,62.637812499999995,5.81,15.57538225,33.81
2021-06-21 17:20:34.414062500,-43.0,-17.0,44.75,62.637578125,12.955000000000002,15.5749018125,33.81
2021-06-21 17:20:34.421875000,-43.0,-17.0,44.5,62.63734375,20.1,15.574421375,33.81
2021-06-21 17:20:34.429687500,-43.0,-17.0,44.25,62.637109375,25.625,15.5739409375,33.81
2021-06-21 17:20:34.437500000,-43.0,-17.0,44.0,62.636874999999996,31.15,15.5734605,33.81
2021-06-21 17:20:34.445312500,-43.0,-17.0,44.25,62.636640625,35.14,15.5729800625,33.81
2021-06-21 17:20:34.453125000,-43.0,-17.0,44.5,62.63640625,39.13,15.572499624999999,33.81
2021-06-21 17:20:34.460937500,-43.0,-17.0,44.75,62.636171874999995,41.730000000000004,15.572019187499999,33.81
2021-06-21 17:20:34.468750000,-43.0,-17.0,45.0,62.6359375,44.33,15.571538749999998,33.81
2021-06-21 17:20:34.476562500,-43.0,-17.0,45.0,62.635703125,45.655,15.5710583125,33.81
2021-06-21 17:20:34.484375000,-43.0,-17.0,45.0,62.63546875,46.98,15.570577875,33.81
2021-06-21 17:20:34.492187500,-43.0,-17.0,45.0,62.635234374999996,47.144999999999996,15.5700974375,33.81
2021-06-21 17:20:34.500000000,-43.0,-17.0,45.0,62.635,47.31,15.569617,33.81
2021-06-21 17:20:34.507812500,-43.0,-17.0,45.0,62.634765625,46.505,15.568456,33.81
2021-06-21 17:20:34.515625000,-43.0,-17.0,45.0,62.634531249999995,45.7,15.567295,33.81
2021-06-21 17:20:34.523437500,-43.0,-17.0,45.0,62.634296875,44.255,15.566134,33.81
2021-06-21 17:20:34.531250000,-43.0,-17.0,45.0,62.6340625,42.81,15.564972999999998,33.81
2021-06-21 17:20:34.539062500,-43.0,-17.0,45.0,62.633828125,41.175,15.563811999999999,33.81
2021-06-21 17:20:34.546875000,-43.0,-17.0,45.0,62.633593749999996,39.54,15.562650999999999,33.81
2021-06-21 17:20:34.554687500,-43.0,-17.0,45.0,62.633359375,38.155,15.56149,33.81
2021-06-21 17:20:34.562500000,-43.0,-17.0,45.0,62.633125,36.77,15.560329,33.81
2021-06-21 17:20:34.570312500,-43.0,-17.0,45.0,62.632890624999995,35.995000000000005,15.559168,33.81
2021-06-21 17:20:34.578125000,-43.0,-17.0,45.0,62.63265625,35.22,15.558007,33.81
2021-06-21 17:20:34.585937500,-43.0,-17.0,45.0,62.632421875,35.205,15.556846,33.81
2021-06-21 17:20:34.593750000,-43.0,-17.0,45.0,62.6321875,35.19,15.555685,33.81
2021-06-21 17:20:34.601562500,-43.0,-17.0,45.0,62.631953124999995,35.894999999999996,15.554523999999999,33.81
2021-06-21 17:20:34.609375000,-43.0,-17.0,45.0,62.63171875,36.6,15.553363,33.81
2021-06-21 17:20:34.617187500,-43.0,-17.0,45.0,62.631484375,37.84,15.552202,33.81
2021-06-21 17:20:34.625000000,-43.0,-17.0,45.0,62.631249999999994,39.08,15.551041,33.81
2021-06-21 17:20:34.632812500,-43.0,-17.0,45.0,62.631015624999996,40.595,15.54988,33.81
2021-06-21 17:20:34.640625000,-43.0,-17.0,45.0,62.63078125,42.11,15.548719,33.81
2021-06-21 17:20:34.648437500,-43.0,-17.0,45.0,62.630546875,43.675,15.547558,33.81
2021-06-21 17:20:34.656250000,-43.0,-17.0,45.0,62.630312499999995,45.24,15.546396999999999,33.81
2021-06-21 17:20:34.664062500,-43.0,-17.0,45.0,62.630078125,46.665000000000006,15.545236,33.81
2021-06-21 17:20:34.671875000,-43.0,-17.0,45.0,62.62984375,48.09,15.544075,33.81
2021-06-21 17:20:34.679687500,-43.0,-17.0,45.0,62.629609375,49.255,15.542914,33.81
2021-06-21 17:20:34.687500000,-43.0,-17.0,45.0,62.629374999999996,50.42,15.541753,33.81
2021-06-21 17:20:34.695312500,-43.0,-17.0,45.0,62.629140625,51.235,15.540592,33.81
2021-06-21 17:20:34.703125000,-43.0,-17.0,45.0,62.62890625,52.05,15.539431,33.81
2021-06-21 17:20:34.710937500,-43.0,-17.0,45.0,62.628671874999995,52.43,15.53827,33.81
2021-06-21 17:20:34.718750000,-43.0,-17.0,45.0,62.6284375,52.81,15.537109000000001,33.81
2021-06-21 17:20:34.726562500,-43.0,-16.75,45.0,62.628203125,52.69,15.535948,33.81
2021-06-21 17:20:34.734375000,-43.0,-16.5,45.0,62.62796875,52.57,15.534787,33.81
2021-06-21 17:20:34.742187500,-43.0,-16.25,45.0,62.627734374999996,51.9,15.533626,33.81
2021-06-21 17:20:34.750000000,-43.0,-16.0,45.0,62.6275,51.23,15.532465,33.81
2021-06-21 17:20:34.757812500,-43.0,-16.0,45.0,62.627265625,50.0,15.5316243125,33.81
2021-06-21 17:20:34.765625000,-43.0,-16.0,45.0,62.627031249999995,48.77,15.530783625,33.81
2021-06-21 17:20:34.773437500,-43.0,-16.0,45.0,62.626796875,47.035,15.5299429375,33.81
2021-06-21 17:20:34.781250000,-43.0,-16.0,45.0,62.6265625,45.3,15.529102250000001,33.81
2021-06-21 17:20:34.789062500,-43.0,-16.25,45.0,62.626328125,43.18,15.528261562500001,33.81
2021-06-21 17:20:34.796875000,-43.0,-16.5,45.0,62.626093749999995,41.06,15.527420875,33.81
2021-06-21 17:20:34.804687500,-43.0,-16.75,45.0,62.625859375,38.725,15.5265801875,33.81
2021-06-21 17:20:34.812500000,-43.0,-17.0,45.0,62.625625,36.39,15.5257395,33.81
2021-06-21 17:20:34.820312500,-43.25,-16.75,45.0,62.625390624999994,34.04,15.5248988125,33.81
2021-06-21 17:20:34.828125000,-43.5,-16.5,45.0,62.625156249999996,31.69,15.524058125,33.81
2021-06-21 17:20:34.835937500,-43.75,-16.25,45.0,62.624921875,29.48,15.5232174375,33.81
2021-06-21 17:20:34.843750000,-44.0,-16.0,45.0,62.6246875,27.27,15.52237675,33.81
2021-06-21 17:20:34.851562500,-43.75,-16.0,45.0,62.624453124999995,25.295,15.521536062500001,33.81
2021-06-21 17:20:34.859375000,-43.5,-16.0,45.0,62.62421875,23.32,15.520695375,33.81
2021-06-21 17:20:34.867187500,-43.25,-16.0,45.0,62.623984375,21.575,15.5198546875,33.81
2021-06-21 17:20:34.875000000,-43.0,-16.0,45.0,62.62375,19.83,15.519014,33.81
2021-06-21 17:20:34.882812500,-43.0,-16.25,45.0,62.623515624999996,18.225,15.5181733125,33.81
2021-06-21 17:20:34.890625000,-43.0,-16.5,45.0,62.62328125,16.62,15.517332625,33.81
2021-06-21 17:20:34.898437500,-43.0,-16.75,45.0,62.623046875,15.005,15.5164919375,33.81
2021-06-21 17:20:34.906250000,-43.0,-17.0,45.0,62.622812499999995,13.39,15.515651250000001,33.81
2021-06-21 17:20:34.914062500,-43.0,-17.0,45.0,62.622578125,11.66,15.514810562500001,33.81
2021-06-21 17:20:34.921875000,-43.0,-17.0,45.0,62.62234375,9.93,15.513969875,33.81
2021-06-21 17:20:34.929687500,-43.0,-17.0,45.0,62.622109375,8.03,15.5131291875,33.81
2021-06-21 17:20:34.937500000,-43.0,-17.0,45.0,62.621874999999996,6.13,15.5122885,33.81
2021-06-21 17:20:34.945312500,-43.0,-17.0,45.0,62.621640625,4.12,15.5114478125,33.81
2021-06-21 17:20:34.953125000,-43.0,-17.0,45.0,62.62140625,2.11,15.510607125,33.81
2021-06-21 17:20:34.960937500,-43.0,-17.0,45.0,62.621171874999995,0.10999999999999988,15.5097664375,33.81
2021-06-21 17:20:34.968750000,-43.0,-17.0,45.0,62.6209375,-1.89,15.50892575,33.81
2021-06-21 17:20:34.976562500,-43.0,-17.0,45.0,62.620703125,-3.71,15.508085062500001,33.81
2021-06-21 17:20:34.984375000,-43.0,-17.0,45.0,62.62046875,-5.53,15.507244375,33.81
2021-06-21 17:20:34.992187500,-43.0,-17.0,45.0,62.620234374999995,-7.07,15.5064036875,33.81
2021-06-21 17:20:35.000000000,-43.0,-17.0,45.0,62.62,-8.61,15.505563,33.81
2021-06-21 17:20:35.007812500,-43.0,-16.75,45.0,62.6196875,-9.870000000000001,15.50540284375,33.81
2021-06-21 17:20:35.015625000,-43.0,-16.5,45.0,62.619375,-11.13,15.505242687500001,33.81
2021-06-21 17:20:35.023437500,-43.0,-16.25,45.0,62.6190625,-12.255,15.50508253125,33.81
2021-06-21 17:20:35.031250000,-43.0,-16.0,45.0,62.61875,-13.38,15.504922375,33.81
2021-06-21 17:20:35.039062500,-43.25,-16.25,44.75,62.6184375,-14.615,15.50476221875,33.81
2021-06-21 17:20:35.046875000,-43.5,-16.5,44.5,62.618125,-15.85,15.5046020625,33.81
2021-06-21 17:20:35.054687500,-43.75,-16.75,44.25,62.6178125,-17.46,15.504441906250001,33.81
2021-06-21 17:20:35.062500000,-44.0,-17.0,44.0,62.6175,-19.07,15.50428175,33.81
2021-06-21 17:20:35.070312500,-44.0,-16.75,44.25,62.6171875,-21.205,15.50412159375,33.81
2021-06-21 17:20:35.078125000,-44.0,-16.5,44.5,62.616875,-23.34,15.503961437500001,33.81
2021-06-21 17:20:35.085937500,-44.0,-16.25,44.75,62.6165625,-25.975,15.50380128125,33.81
2021-06-21 17:20:35.093750000,-44.0,-16.0,45.0,62.61625,-28.61,15.503641125000001,33.81
2021-06-21 17:20:35.101562500,-43.75,-16.0,45.0,62.615937499999994,-31.5,15.50348096875,33.81
2021-06-21 17:20:35.109375000,-43.5,-16.0,45.0,62.615624999999994,-34.39,15.5033208125,33.81
2021-06-21 17:20:35.117187500,-43.25,-16.0,45.0,62.615312499999995,-37.18,15.503160656250001,33.81
2021-06-21 17:20:35.125000000,-43.0,-16.0,45.0,62.614999999999995,-39.97,15.5030005,33.81
2021-06-21 17:20:35.132812500,-43.0,-16.25,45.0,62.614687499999995,-42.345,15.50284034375,33.81
2021-06-21 17:20:35.140625000,-43.0,-16.5,45.0,62.614374999999995,-44.72,15.502680187500001,33.81
2021-06-21 17:20:35.148437500,-43.0,-16.75,45.0,62.614062499999996,-46.575,15.50252003125,33.81
2021-06-21 17:20:35.156250000,-43.0,-17.0,45.0,62.613749999999996,-48.43,15.502359875,33.81
2021-06-21 17:20:35.164062500,-43.0,-17.0,45.0,62.613437499999996,-49.925,15.502199718750001,33.81
2021-06-21 17:20:35.171875000,-43.0,-17.0,45.0,62.613125,-51.42,15.5020395625,33.81
2021-06-21 17:20:35.179687500,-43.0,-17.0,45.0,62.6128125,-52.955,15.501879406250001,33.81
2021-06-21 17:20:35.187500000,-43.0,-17.0,45.0,62.6125,-54.49,15.50171925,33.81
2021-06-21 17:20:35.195312500,-43.0,-16.75,45.0,62.6121875,-56.515,15.50155909375,33.81
2021-06-21 17:20:35.203125000,-43.0,-16.5,45.0,62.611875,-58.54,15.501398937500001,33.81
2021-06-21 17:20:35.210937500,-43.0,-16.25,45.0,62.6115625,-61.39,15.50123878125,33.81
2021-06-21 17:20:35.218750000,-43.0,-16.0,45.0,62.61125,-64.24,15.501078625000002,33.81
2021-06-21 17:20:35.226562500,-43.25,-16.0,45.0,62.6109375,-68.0,15.500918468750001,33.81
2021-06-21 17:20:35.234375000,-43.5,-16.0,45.0,62.610625,-71.76,15.5007583125,33.81
2021-06-21 17:20:35.242187500,-43.75,-16.0,45.0,62.6103125,-76.185,15.500598156250001,33.81
2021-06-21 17:20:35.250000000,-44.0,-16.0,45.0,62.61,-80.61,15.500438,33.81
2021-06-21 17:20:35.257812500,-44.0,-16.0,45.0,62.6096875,-85.155,15.498156031250002,33.81
2021-06-21 17:20:35.265625000,-44.0,-16.0,45.0,62.609375,-89.7,15.4958740625,33.81
2021-06-21 17:20:35.273437500,-44.0,-16.0,45.0,62.6090625,-93.58500000000001,15.493592093750001,33.81
2021-06-21 17:20:35.281250000,-44.0,-16.0,45.0,62.60875,-97.47,15.491310125,33.81
2021-06-21 17:20:35.289062500,-43.75,-16.25,45.0,62.6084375,-99.81,15.48902815625,33.81
2021-06-21 17:20:35.296875000,-43.5,-16.5,45.0,62.608125,-102.15,15.486746187500001,33.81
2021-06-21 17:20:35.304687500,-43.25,-16.75,45.0,62.607812499999994,-102.125,15.48446421875,33.81
2021-06-21 17:20:35.312500000,-43.0,-17.0,45.0,62.607499999999995,-102.1,15.482182250000001,33.81
2021-06-21 17:20:35.320312500,-43.0,-17.0,44.75,62.607187499999995,-99.16,15.47990028125,33.81
2021-06-21 17:20:35.328125000,-43.0,-17.0,44.5,62.606874999999995,-96.22,15.4776183125,33.81
2021-06-21 17:20:35.335937500,-43.0,-17.0,44.25,62.606562499999995,-90.28,15.475336343750001,33.81
2021-06-21 17:20:35.343750000,-43.0,-17.0,44.0,62.606249999999996,-84.34,15.473054375,33.81
2021-06-21 17:20:35.351562500,-43.0,-16.75,44.25,62.605937499999996,-75.87,15.470772406250001,33.81
2021-06-21 17:20:35.359375000,-43.0,-16.5,44.5,62.605624999999996,-67.4,15.4684904375,33.81
2021-06-21 17:20:35.367187500,-43.0,-16.25,44.75,62.6053125,-57.375,15.46620846875,33.81
2021-06-21 17:20:35.375000000,-43.0,-16.0,45.0,62.605,-47.35,15.4639265,33.81
2021-06-21 17:20:35.382812500,-43.0,-16.0,45.0,62.6046875,-36.975,15.46164453125,33.81
2021-06-21 17:20:35.390625000,-43.0,-16.0,45.0,62.604375,-26.6,15.4593625625,33.81
2021-06-21 17:20:35.398437500,-43.0,-16.0,45.0,62.6040625,-17.025,15.45708059375,33.81
2021-06-21 17:20:35.406250000,-43.0,-16.0,45.0,62.60375,-7.45,15.454798625,33.81
2021-06-21 17:20:35.414062500,-43.0,-16.0,45.0,62.6034375,0.5550000000000006,15.45251665625,33.81
2021-06-21 17:20:35.421875000,-43.0,-16.0,45.0,62.603125,8.56,15.4502346875,33.81
2021-06-21 17:20:35.429687500,-43.0,-16.0,45.0,62.6028125,14.690000000000001,15.44795271875,33.81
2021-06-21 17:20:35.437500000,-43.0,-16.0,45.0,62.6025,20.82,15.44567075,33.81
2021-06-21 17:20:35.445312500,-43.0,-16.0,45.0,62.6021875,25.189999999999998,15.44338878125,33.81
2021-06-21 17:20:35.453125000,-43.0,-16.0,45.0,62.601875,29.56,15.4411068125,33.81
2021-06-21 17:20:35.460937500,-43.0,-16.0,45.0,62.6015625,32.46,15.43882484375,33.81
2021-06-21 17:20:35.468750000,-43.0,-16.0,45.0,62.60125,35.36,15.436542875,33.81
2021-06-21 17:20:35.476562500,-43.0,-16.25,45.0,62.6009375,37.114999999999995,15.43426090625,33.81
2021-06-21 17:20:35.484375000,-43.0,-16.5,45.0,62.600625,38.87,15.4319789375,33.81
2021-06-21 17:20:35.492187500,-43.0,-16.75,45.0,62.6003125,39.7,15.42969696875,33.81
2021-06-21 17:20:35.500000000,-43.0,-17.0,45.0,62.599999999999994,40.53,15.427415,33.81
2021-06-21 17:20:35.507812500,-43.0,-16.75,45.0,62.599687499999995,40.585,15.4268945625,33.81
2021-06-21 17:20:35.515625000,-43.0,-16.5,45.0,62.599374999999995,40.64,15.426374125,33.81
2021-06-21 17:20:35.523437500,-43.0,-16.25,45.0,62.599062499999995,40.095,15.4258536875,33.81
2021-06-21 17:20:35.531250000,-43.0,-16.0,45.0,62.598749999999995,39.55,15.42533325,33.81
2021-06-21 17:20:35.539062500,-43.0,-16.25,45.0,62.598437499999996,38.655,15.4248128125,33.81
2021-06-21 17:20:35.546875000,-43.0,-16.5,45.0,62.598124999999996,37.76,15.424292375,33.81
2021-06-21 17:20:35.554687500,-43.0,-16.75,45.0,62.597812499999996,36.845,15.4237719375,33.81
2021-06-21 17:20:35.562500000,-43.0,-17.0,45.0,62.5975,35.93,15.4232515,33.81
2021-06-21 17:20:35.570312500,-43.0,-17.0,45.0,62.5971875,35.335,15.4227310625,33.81
2021-06-21 17:20:35.578125000,-43.0,-17.0,45.0,62.596875,34.74,15.422210625,33.81
2021-06-21 17:20:35.585937500,-43.0,-17.0,45.0,62.5965625,34.71,15.4216901875,33.81
2021-06-21 17:20:35.593750000,-43.0,-17.0,45.0,62.59625,34.68,15.42116975,33.81
2021-06-21 17:20:35.601562500,-43.0,-16.75,45.0,62.5959375,35.265,15.4206493125,33.81
2021-06-21 17:20:35.609375000,-43.0,-16.5,45.0,62.595625,35.85,15.420128875,33.81
2021-06-21 17:20:35.617187500,-43.0,-16.25,45.0,62.5953125,36.935,15.4196084375,33.81
2021-06-21 17:20:35.625000000,-43.0,-16.0,45.0,62.595,38.02,15.419088,33.81
2021-06-21 17:20:35.632812500,-43.0,-16.0,45.0,62.5946875,39.355000000000004,15.4185675625,33.81
2021-06-21 17:20:35.640625000,-43.0,-16.0,45.0,62.594375,40.69,15.418047125000001,33.81
2021-06-21 17:20:35.648437500,-43.0,-16.0,45.0,62.5940625,42.03,15.4175266875,33.81
2021-06-21 17:20:35.656250000,-43.0,-16.0,45.0,62.59375,43.37,15.41700625,33.81
2021-06-21 17:20:35.664062500,-43.0,-16.0,45.0,62.5934375,44.56,15.416485812500001,33.81
2021-06-21 17:20:35.671875000,-43.0,-16.0,45.0,62.593125,45.75,15.415965375,33.81
2021-06-21 17:20:35.679687500,-43.0,-16.0,45.0,62.5928125,46.72,15.4154449375,33.81
2021-06-21 17:20:35.687500000,-43.0,-16.0,45.0,62.5925,47.69,15.414924500000001,33.81
2021-06-21 17:20:35.695312500,-43.0,-16.0,45.0,62.5921875,48.465,15.414404062500001,33.81
2021-06-21 17:20:35.703125000,-43.0,-16.0,45.0,62.591874999999995,49.24,15.413883625,33.81
2021-06-21 17:20:35.710937500,-43.0,-16.0,45.0,62.591562499999995,49.82,15.4133631875,33.81
2021-06-21 17:20:35.718750000,-43.0,-16.0,45.0,62.591249999999995,50.4,15.412842750000001,33.81
2021-06-21 17:20:35.726562500,-43.25,-16.25,45.0,62.590937499999995,50.71,15.4123223125,33.81
2021-06-21 17:20:35.734375000,-43.5,-16.5,45.0,62.590624999999996,51.02,15.411801875,33.81
2021-06-21 17:20:35.742187500,-43.75,-16.75,45.0,62.590312499999996,50.905,15.411281437500001,33.81
2021-06-21 17:20:35.750000000,-44.0,-17.0,45.0,62.589999999999996,50.79,15.410761,33.81
2021-06-21 17:20:35.757812500,-43.75,-17.0,45.0,62.5896875,50.085,15.410440718750001,33.81
2021-06-21 17:20:35.765625000,-43.5,-17.0,45.0,62.589375,49.38,15.410120437500002,33.81
2021-06-21 17:20:35.773437500,-43.25,-17.0,45.0,62.5890625,47.97,15.40980015625,33.81
2021-06-21 17:20:35.781250000,-43.0,-17.0,45.0,62.58875,46.56,15.409479875,33.81
2021-06-21 17:20:35.789062500,-43.0,-16.75,45.0,62.5884375,44.495000000000005,15.409159593750001,33.81
2021-06-21 17:20:35.796875000,-43.0,-16.5,45.0,62.588125,42.43,15.408839312500001,33.81
2021-06-21 17:20:35.804687500,-43.0,-16.25,45.0,62.5878125,39.925,15.40851903125,33.81
2021-06-21 17:20:35.812500000,-43.0,-16.0,45.0,62.5875,37.42,15.40819875,33.81
2021-06-21 17:20:35.820312500,-43.0,-16.0,45.0,62.5871875,34.815,15.40787846875,33.81
2021-06-21 17:20:35.828125000,-43.0,-16.0,45.0,62.586875,32.21,15.407558187500001,33.81
2021-06-21 17:20:35.835937500,-43.0,-16.0,45.0,62.5865625,29.845,15.407237906250002,33.81
2021-06-21 17:20:35.843750000,-43.0,-16.0,45.0,62.58625,27.48,15.406917625,33.81
2021-06-21 17:20:35.851562500,-43.0,-16.25,45.0,62.5859375,25.575000000000003,15.40659734375,33.81
2021-06-21 17:20:35.859375000,-43.0,-16.5,45.0,62.585625,23.67,15.406277062500001,33.81
2021-06-21 17:20:35.867187500,-43.0,-16.75,45.0,62.5853125,22.270000000000003,15.405956781250001,33.81
2021-06-21 17:20:35.875000000,-43.0,-17.0,45.0,62.585,20.87,15.4056365,33.81
2021-06-21 17:20:35.882812500,-43.0,-16.75,45.0,62.5846875,19.79,15.40531621875,33.81
2021-06-21 17:20:35.890625000,-43.0,-16.5,45.0,62.584375,18.71,15.4049959375,33.81
2021-06-21 17:20:35.898437500,-43.0,-16.25,45.0,62.5840625,17.68,15.404675656250001,33.81
2021-06-21 17:20:35.906250000,-43.0,-16.0,45.0,62.583749999999995,16.65,15.404355375000002,33.81
2021-06-21 17:20:35.914062500,-43.0,-16.25,45.0,62.583437499999995,15.379999999999999,15.40403509375,33.81
2021-06-21 17:20:35.921875000,-43.0,-16.5,45.0,62.583124999999995,14.11,15.4037148125,33.81
2021-06-21 17:20:35.929687500,-43.0,-16.75,45.0,62.582812499999996,12.43,15.403394531250001,33.81
2021-06-21 17:20:35.937500000,-43.0,-17.0,45.0,62.582499999999996,10.75,15.403074250000001,33.81
2021-06-21 17:20:35.945312500,-43.0,-17.0,45.0,62.582187499999996,8.645,15.402753968750002,33.81
2021-06-21 17:20:35.953125000,-43.0,-17.0,45.0,62.581875,6.54,15.4024336875,33.81
2021-06-21 17:20:35.960937500,-43.0,-17.0,45.0,62.5815625,4.17,15.40211340625,33.81
2021-06-21 17:20:35.968750000,-43.0,-17.0,45.0,62.58125,1.8,15.401793125000001,33.81
2021-06-21 17:20:35.976562500,-43.0,-17.0,45.0,62.5809375,-0.6199999999999999,15.401472843750001,33.81
2021-06-21 17:20:35.984375000,-43.0,-17.0,45.0,62.580625,-3.04,15.4011525625,33.81
2021-06-21 17:20:35.992187500,-43.0,-17.0,45.0,62.5803125,-5.295,15.40083228125,33.81
2021-06-21 17:20:36.000000000,-43.0,-17.0,45.0,62.58,-7.55,15.400512,33.81
2021-06-21 17:20:36.007812500,-43.0,-16.75,45.0,62.579765625,-9.545,15.3996713125,33.81
2021-06-21 17:20:36.015625000,-43.0,-16.5,45.0,62.579531249999995,-11.54,15.398830625,33.81
2021-06-21 17:20:36.023437500,-43.0,-16.25,45.0,62.579296875,-13.3,15.3979899375,33.81
2021-06-21 17:20:36.031250000,-43.0,-16.0,45.0,62.5790625,-15.06,15.39714925,33.81
2021-06-21 17:20:36.039062500,-43.0,-16.0,45.0,62.578828125,-16.69,15.3963085625,33.81
2021-06-21 17:20:36.046875000,-43.0,-16.0,45.0,62.578593749999996,-18.32,15.395467875000001,33.81
2021-06-21 17:20:36.054687500,-43.0,-16.0,45.0,62.578359375,-19.96,15.394627187500001,33.81
2021-06-21 17:20:36.062500000,-43.0,-16.0,45.0,62.578125,-21.6,15.393786500000001,33.81
2021-06-21 17:20:36.070312500,-43.0,-16.25,45.0,62.577890624999995,-23.365000000000002,15.3929458125,33.81
2021-06-21 17:20:36.078125000,-43.0,-16.5,45.0,62.57765625,-25.13,15.392105125,33.81
2021-06-21 17:20:36.085937500,-43.0,-16.75,45.0,62.577421875,-27.07,15.3912644375,33.81
2021-06-21 17:20:36.093750000,-43.0,-17.0,45.0,62.5771875,-29.01,15.39042375,33.81
2021-06-21 17:20:36.101562500,-43.0,-17.0,45.0,62.576953124999996,-31.105000000000004,15.3895830625,33.81
2021-06-21 17:20:36.109375000,-43.0,-17.0,45.0,62.57671875,-33.2,15.388742375,33.81
2021-06-21 17:20:36.117187500,-43.0,-17.0,45.0,62.576484375,-35.370000000000005,15.3879016875,33.81
2021-06-21 17:20:36.125000000,-43.0,-17.0,45.0,62.57625,-37.54,15.387061,33.81
2021-06-21 17:20:36.132812500,-43.0,-17.0,45.0,62.576015625,-39.715,15.3862203125,33.81
2021-06-21 17:20:36.140625000,-43.0,-17.0,45.0,62.57578125,-41.89,15.385379625,33.81
2021-06-21 17:20:36.148437500,-43.0,-17.0,45.0,62.575546875,-44.03,15.3845389375,33.81
2021-06-21 17:20:36.156250000,-43.0,-17.0,45.0,62.575312499999995,-46.17,15.38369825,33.81
2021-06-21 17:20:36.164062500,-43.0,-17.0,45.0,62.575078125,-48.33,15.3828575625,33.81
2021-06-21 17:20:36.171875000,-43.0,-17.0,45.0,62.57484375,-50.49,15.382016875,33.81
2021-06-21 17:20:36.179687500,-43.0,-17.0,45.0,62.574609375,-52.825,15.3811761875,33.81
2021-06-21 17:20:36.187500000,-43.0,-17.0,45.0,62.574374999999996,-55.16,15.3803355,33.81
2021-06-21 17:20:36.195312500,-43.0,-17.0,45.0,62.574140625,-57.86,15.379494812499999,33.81
2021-06-21 17:20:36.203125000,-43.0,-17.0,45.0,62.57390625,-60.56,15.378654124999999,33.81
2021-06-21 17:20:36.210937500,-43.0,-17.0,45.0,62.573671874999995,-63.835,15.3778134375,33.81
2021-06-21 17:20:36.218750000,-43.0,-17.0,45.0,62.5734375,-67.11,15.37697275,33.81
2021-06-21 17:20:36.226562500,-43.0,-17.0,45.0,62.573203125,-71.07,15.3761320625,33.81
2021-06-21 17:20:36.234375000,-43.0,-17.0,45.0,62.57296875,-75.03,15.375291375,33.81
2021-06-21 17:20:36.242187500,-43.0,-17.0,45.0,62.572734374999996,-79.61500000000001,15.3744506875,33.81
2021-06-21 17:20:36.250000000,-43.0,-17.0,45.0,62.5725,-84.2,15.37361,33.81
2021-06-21 17:20:36.257812500,-43.0,-17.0,45.0,62.572265625,-89.1,15.373129562499999,33.81
2021-06-21 17:20:36.265625000,-43.0,-17.0,45.0,62.572031249999995,-94.0,15.372649124999999,33.81
2021-06-21 17:20:36.273437500,-43.0,-17.0,45.0,62.571796875,-98.62,15.372168687499999,33.81
2021-06-21 17:20:36.281250000,-43.0,-17.0,45.0,62.5715625,-103.24,15.37168825,33.81
2021-06-21 17:20:36.289062500,-43.0,-16.75,45.0,62.571328125,-106.77,15.3712078125,33.81
2021-06-21 17:20:36.296875000,-43.0,-16.5,45.0,62.571093749999996,-110.3,15.370727375,33.81
2021-06-21 17:20:36.304687500,-43.0,-16.25,45.0,62.570859375,-111.845,15.3702469375,33.81
2021-06-21 17:20:36.312500000,-43.0,-16.0,45.0,62.570625,-113.39,15.369766499999999,33.81
2021-06-21 17:20:36.320312500,-43.0,-16.25,45.0,62.570390624999995,-112.215,15.369286062499999,33.81
2021-06-21 17:20:36.328125000,-43.0,-16.5,45.0,62.57015625,-111.04,15.368805625,33.81
2021-06-21 17:20:36.335937500,-43.0,-16.75,45.0,62.569921875,-106.805,15.3683251875,33.81
2021-06-21 17:20:36.343750000,-43.0,-17.0,45.0,62.5696875,-102.57,15.36784475,33.81
2021-06-21 17:20:36.351562500,-43.0,-17.0,45.0,62.569453124999995,-95.5,15.3673643125,33.81
2021-06-21 17:20:36.359375000,-43.0,-17.0,45.0,62.56921875,-88.43,15.366883875,33.81
2021-06-21 17:20:36.367187500,-43.0,-17.0,45.0,62.568984375,-79.265,15.366403437499999,33.81
2021-06-21 17:20:36.375000000,-43.0,-17.0,45.0,62.568749999999994,-70.1,15.365922999999999,33.81
2021-06-21 17:20:36.382812500,-43.0,-17.0,45.0,62.568515624999996,-59.92,15.3654425625,33.81
2021-06-21 17:20:36.390625000,-43.0,-17.0,45.0,62.56828125,-49.74,15.364962125,33.81
2021-06-21 17:20:36.398437500,-43.0,-17.0,45.0,62.568046875,-39.63,15.3644816875,33.81
2021-06-21 17:20:36.406250000,-43.0,-17.0,45.0,62.567812499999995,-29.52,15.36400125,33.81
2021-06-21 17:20:36.414062500,-43.0,-17.0,45.0,62.567578125,-20.29,15.3635208125,33.81
2021-06-21 17:20:36.421875000,-43.0,-17.0,45.0,62.56734375,-11.06,15.363040374999999,33.81
2021-06-21 17:20:36.429687500,-43.0,-17.0,45.0,62.567109375,-3.1100000000000003,15.3625599375,33.81
2021-06-21 17:20:36.437500000,-43.0,-17.0,45.0,62.566874999999996,4.84,15.3620795,33.81
2021-06-21 17:20:36.445312500,-43.0,-17.0,45.0,62.566640625,11.485,15.3615990625,33.81
2021-06-21 17:20:36.453125000,-43.0,-17.0,45.0,62.56640625,18.13,15.361118625,33.81
2021-06-21 17:20:36.460937500,-43.0,-17.0,45.0,62.566171874999995,23.61,15.3606381875,33.81
2021-06-21 17:20:36.468750000,-43.0,-17.0,45.0,62.5659375,29.09,15.360157749999999,33.81
2021-06-21 17:20:36.476562500,-43.0,-17.0,45.0,62.565703125,33.545,15.3596773125,33.81
2021-06-21 17:20:36.484375000,-43.0,-17.0,45.0,62.56546875,38.0,15.359196875,33.81
2021-06-21 17:20:36.492187500,-43.0,-17.0,45.0,62.565234374999996,41.455,15.3587164375,33.81
2021-06-21 17:20:36.500000000,-43.0,-17.0,45.0,62.565,44.91,15.358236,33.81
2021-06-21 17:20:36.507812500,-43.0,-17.0,45.0,62.564765625,47.28,15.3581559375,33.81
2021-06-21 17:20:36.515625000,-43.0,-17.0,45.0,62.564531249999995,49.65,15.358075874999999,33.81
2021-06-21 17:20:36.523437500,-43.0,-17.0,45.0,62.564296875,50.870000000000005,15.3579958125,33.81
2021-06-21 17:20:36.531250000,-43.0,-17.0,45.0,62.5640625,52.09,15.35791575,33.81
2021-06-21 17:20:36.539062500,-43.0,-17.0,45.0,62.563828125,52.235,15.3578356875,33.81
2021-06-21 17:20:36.546875000,-43.0,-17.0,45.0,62.563593749999995,52.38,15.357755625,33.81
2021-06-21 17:20:36.554687500,-43.0,-17.0,45.0,62.563359375,51.725,15.3576755625,33.81
2021-06-21 17:20:36.562500000,-43.0,-17.0,45.0,62.563125,51.07,15.3575955,33.81
2021-06-21 17:20:36.570312500,-43.0,-17.0,45.0,62.562890624999994,50.075,15.3575154375,33.81
2021-06-21 17:20:36.578125000,-43.0,-17.0,45.0,62.562656249999996,49.08,15.357435375,33.81
2021-06-21 17:20:36.585937500,-43.0,-17.0,45.0,62.562421875,48.239999999999995,15.3573553125,33.81
2021-06-21 17:20:36.593750000,-43.0,-17.0,45.0,62.5621875,47.4,15.35727525,33.81
2021-06-21 17:20:36.601562500,-43.0,-17.0,45.0,62.561953124999995,47.155,15.3571951875,33.81
2021-06-21 17:20:36.609375000,-43.0,-17.0,45.0,62.56171875,46.91,15.357115125,33.81
2021-06-21 17:20:36.617187500,-43.0,-17.0,45.0,62.561484375,47.459999999999994,15.3570350625,33.81
2021-06-21 17:20:36.625000000,-43.0,-17.0,45.0,62.56125,48.01,15.356955,33.81
2021-06-21 17:20:36.632812500,-43.0,-17.0,45.0,62.561015624999996,49.32,15.3568749375,33.81
2021-06-21 17:20:36.640625000,-43.0,-17.0,45.0,62.56078125,50.63,15.356794875,33.81
2021-06-21 17:20:36.648437500,-43.0,-17.0,45.0,62.560546875,52.44,15.3567148125,33.81
2021-06-21 17:20:36.656250000,-43.0,-17.0,45.0,62.560312499999995,54.25,15.35663475,33.81
2021-06-21 17:20:36.664062500,-43.0,-17.0,45.0,62.560078125,56.235,15.356554687500001,33.81
2021-06-21 17:20:36.671875000,-43.0,-17.0,45.0,62.55984375,58.22,15.356474625,33.81
2021-06-21 17:20:36.679687500,-43.0,-17.0,45.0,62.559609375,60.095,15.3563945625,33.81
2021-06-21 17:20:36.687500000,-43.0,-17.0,45.0,62.559374999999996,61.97,15.3563145,33.81
2021-06-21 17:20:36.695312500,-43.0,-17.0,45.0,62.559140625,63.565,15.3562344375,33.81
2021-06-21 17:20:36.703125000,-43.0,-17.0,45.0,62.55890625,65.16,15.356154375000001,33.81
2021-06-21 17:20:36.710937500,-43.0,-17.0,45.0,62.558671874999995,66.41,15.3560743125,33.81
2021-06-21 17:20:36.718750000,-43.0,-17.0,45.0,62.5584375,67.66,15.35599425,33.81
2021-06-21 17:20:36.726562500,-43.0,-17.0,45.0,62.558203125,68.525,15.3559141875,33.81
2021-06-21 17:20:36.734375000,-43.0,-17.0,45.0,62.55796875,69.39,15.355834125000001,33.81
2021-06-21 17:20:36.742187500,-43.0,-17.0,45.0,62.557734374999995,69.8,15.3557540625,33.81
2021-06-21 17:20:36.750000000,-43.0,-17.0,45.0,62.5575,70.21,15.355674,33.81
2021-06-21 17:20:36.757812500,-43.0,-17.0,45.0,62.557265625,70.025,15.35491334375,33.81
2021-06-21 17:20:36.765625000,-43.0,-17.0,45.0,62.557031249999994,69.84,15.354152687500001,33.81
2021-06-21 17:20:36.773437500,-43.0,-17.0,45.0,62.556796874999996,68.905,15.353392031250001,33.81
2021-06-21 17:20:36.781250000,-43.0,-17.0,45.0,62.5565625,67.97,15.352631375000001,33.81
2021-06-21 17:20:36.789062500,-43.0,-17.0,45.0,62.556328125,66.22999999999999,15.35187071875,33.81
2021-06-21 17:20:36.796875000,-43.0,-17.0,45.0,62.556093749999995,64.49,15.3511100625,33.81
2021-06-21 17:20:36.804687500,-43.0,-17.0,45.0,62.555859375,62.06999999999999,15.35034940625,33.81
2021-06-21 17:20:36.812500000,-43.0,-17.0,45.0,62.555625,59.65,15.34958875,33.81
2021-06-21 17:20:36.820312500,-43.0,-17.0,45.0,62.555390624999994,56.825,15.34882809375,33.81
2021-06-21 17:20:36.828125000,-43.0,-17.0,45.0,62.555156249999996,54.0,15.348067437500001,33.81
2021-06-21 17:20:36.835937500,-43.0,-17.0,45.0,62.554921875,51.155,15.347306781250001,33.81
2021-06-21 17:20:36.843750000,-43.0,-17.0,45.0,62.5546875,48.31,15.346546125,33.81
2021-06-21 17:20:36.851562500,-43.0,-17.0,45.0,62.554453124999995,45.74,15.34578546875,33.81
2021-06-21 17:20:36.859375000,-43.0,-17.0,45.0,62.55421875,43.17,15.3450248125,33.81
2021-06-21 17:20:36.867187500,-43.0,-17.0,45.0,62.553984375,41.019999999999996,15.34426415625,33.81
2021-06-21 17:20:36.875000000,-43.0,-17.0,45.0,62.553749999999994,38.87,15.3435035,33.81
2021-06-21 17:20:36.882812500,-43.0,-17.0,45.0,62.553515624999996,37.065,15.34274284375,33.81
2021-06-21 17:20:36.890625000,-43.0,-17.0,45.0,62.55328125,35.26,15.341982187500001,33.81
2021-06-21 17:20:36.898437500,-43.0,-17.0,45.0,62.553046875,33.565,15.341221531250001,33.81
2021-06-21 17:20:36.906250000,-43.0,-17.0,45.0,62.552812499999995,31.87,15.340460875000002,33.81
2021-06-21 17:20:36.914062500,-43.0,-17.0,45.0,62.552578125,30.009999999999998,15.33970021875,33.81
2021-06-21 17:20:36.921875000,-43.0,-17.0,45.0,62.55234375,28.15,15.3389395625,33.81
2021-06-21 17:20:36.929687500,-43.0,-17.0,45.0,62.552109375,25.955,15.33817890625,33.81
2021-06-21 17:20:36.937500000,-43.0,-17.0,45.0,62.551874999999995,23.76,15.33741825,33.81
2021-06-21 17:20:36.945312500,-43.0,-17.0,45.0,62.551640625,21.25,15.336657593750001,33.81
2021-06-21 17:20:36.953125000,-43.0,-17.0,45.0,62.55140625,18.74,15.335896937500001,33.81
2021-06-21 17:20:36.960937500,-43.0,-17.0,45.0,62.551171874999994,16.115,15.335136281250001,33.81
2021-06-21 17:20:36.968750000,-43.0,-17.0,45.0,62.550937499999996,13.49,15.334375625,33.81
2021-06-21 17:20:36.976562500,-43.0,-17.0,45.0,62.550703125,11.055,15.33361496875,33.81
2021-06-21 17:20:36.984375000,-43.0,-17.0,45.0,62.55046875,8.62,15.3328543125,33.81
2021-06-21 17:20:36.992187500,-43.0,-17.0,45.0,62.550234374999995,6.615,15.33209365625,33.81
2021-06-21 17:20:37.000000000,-43.0,-17.0,45.0,62.55,4.61,15.331333,33.81
2021-06-21 17:20:37.007812500,-43.0,-17.0,45.0,62.549765625,3.1100000000000003,15.33081253125,33.810625
2021-06-21 17:20:37.015625000,-43.0,-17.0,45.0,62.549531249999994,1.61,15.3302920625,33.81125
2021-06-21 17:20:37.023437500,-43.0,-17.0,45.0,62.549296874999996,0.4650000000000001,15.329771593750001,33.811875
2021-06-21 17:20:37.031250000,-43.0,-17.0,45.0,62.5490625,-0.68,15.329251125,33.8125
2021-06-21 17:20:37.039062500,-43.0,-17.0,45.0,62.548828125,-1.815,15.32873065625,33.813125
2021-06-21 17:20:37.046875000,-43.0,-17.0,45.0,62.548593749999995,-2.95,15.328210187500002,33.81375
2021-06-21 17:20:37.054687500,-43.0,-17.0,45.0,62.548359375,-4.45,15.327689718750001,33.814375
2021-06-21 17:20:37.062500000,-43.0,-17.0,45.0,62.548125,-5.95,15.32716925,33.815
2021-06-21 17:20:37.070312500,-43.0,-17.0,45.0,62.547890625,-8.08,15.32664878125,33.815625000000004
2021-06-21 17:20:37.078125000,-43.0,-17.0,45.0,62.547656249999996,-10.21,15.3261283125,33.816250000000004
2021-06-21 17:20:37.085937500,-43.0,-17.0,45.0,62.547421875,-13.015,15.325607843750001,33.816875
2021-06-21 17:20:37.093750000,-43.0,-17.0,45.0,62.5471875,-15.82,15.325087375,33.8175
2021-06-21 17:20:37.101562500,-43.0,-17.0,45.0,62.546953124999995,-19.12,15.32456690625,33.818125
2021-06-21 17:20:37.109375000,-43.0,-17.0,45.0,62.54671875,-22.42,15.324046437500002,33.81875
2021-06-21 17:20:37.117187500,-43.0,-17.0,45.0,62.546484375,-25.915,15.323525968750001,33.819375
2021-06-21 17:20:37.125000000,-43.0,-17.0,45.0,62.54625,-29.41,15.3230055,33.82
2021-06-21 17:20:37.132812500,-43.0,-17.0,45.0,62.546015624999995,-32.79,15.32248503125,33.820625
2021-06-21 17:20:37.140625000,-43.0,-17.0,45.0,62.54578125,-36.17,15.3219645625,33.82125
2021-06-21 17:20:37.148437500,-43.0,-17.0,45.0,62.545546875,-39.215,15.321444093750001,33.821875
2021-06-21 17:20:37.156250000,-43.0,-17.0,45.0,62.5453125,-42.26,15.320923625,33.8225
2021-06-21 17:20:37.164062500,-43.0,-17.0,45.0,62.545078124999996,-44.864999999999995,15.32040315625,33.823125
2021-06-21 17:20:37.171875000,-43.0,-17.0,45.0,62.54484375,-47.47,15.319882687500002,33.82375
2021-06-21 17:20:37.179687500,-43.0,-17.0,45.0,62.544609375,-49.68,15.319362218750001,33.824374999999996
2021-06-21 17:20:37.187500000,-43.0,-17.0,45.0,62.544374999999995,-51.89,15.31884175,33.825
2021-06-21 17:20:37.195312500,-43.0,-17.0,45.0,62.544140625,-53.86,15.31832128125,33.825625
2021-06-21 17:20:37.203125000,-43.0,-17.0,45.0,62.54390625,-55.83,15.3178008125,33.82625
2021-06-21 17:20:37.210937500,-43.0,-17.0,45.0,62.543671875,-57.855000000000004,15.317280343750001,33.826875
2021-06-21 17:20:37.218750000,-43.0,-17.0,45.0,62.543437499999996,-59.88,15.316759875,33.8275
2021-06-21 17:20:37.226562500,-43.0,-17.0,45.0,62.543203125,-62.33,15.31623940625,33.828125
2021-06-21 17:20:37.234375000,-43.0,-17.0,45.0,62.54296875,-64.78,15.315718937500002,33.82875
2021-06-21 17:20:37.242187500,-43.0,-17.0,45.0,62.542734375,-68.06,15.315198468750001,33.829375
2021-06-21 17:20:37.250000000,-43.0,-17.0,45.0,62.5425,-71.34,15.314678,33.83
2021-06-21 17:20:37.257812500,-43.0,-17.0,45.0,62.542265625,-75.7,15.31455790625,33.83
2021-06-21 17:20:37.265625000,-43.0,-17.0,45.0,62.54203125,-80.06,15.314437812500001,33.83
2021-06-21 17:20:37.273437500,-43.0,-17.0,45.0,62.541796874999996,-85.44,15.31431771875,33.83
2021-06-21 17:20:37.281250000,-43.0,-17.0,45.0,62.5415625,-90.82,15.314197625,33.83
2021-06-21 17:20:37.289062500,-43.0,-17.0,45.0,62.541328125,-96.71,15.314077531250001,33.83
2021-06-21 17:20:37.296875000,-43.0,-17.0,45.0,62.54109375,-102.6,15.313957437500001,33.83
2021-06-21 17:20:37.304687500,-43.0,-17.0,45.0,62.540859375,-108.02,15.31383734375,33.83
2021-06-21 17:20:37.312500000,-43.0,-17.0,45.0,62.540625,-113.44,15.31371725,33.83
2021-06-21 17:20:37.320312500,-43.0,-17.0,45.0,62.540390625,-117.16,15.313597156250001,33.83
2021-06-21 17:20:37.328125000,-43.0,-17.0,45.0,62.54015625,-120.88,15.3134770625,33.83
2021-06-21 17:20:37.335937500,-43.0,-17.0,45.0,62.539921875,-121.72,15.31335696875,33.83
2021-06-21 17:20:37.343750000,-43.0,-17.0,45.0,62.5396875,-122.56,15.313236875000001,33.83
2021-06-21 17:20:37.351562500,-43.0,-17.0,45.0,62.539453125,-119.755,15.31311678125,33.83
2021-06-21 17:20:37.359375000,-43.0,-17.0,45.0,62.539218749999996,-116.95,15.3129966875,33.83
2021-06-21 17:20:37.367187500,-43.0,-17.0,45.0,62.538984375,-110.42500000000001,15.312876593750001,33.83
2021-06-21 17:20:37.375000000,-43.0,-17.0,45.0,62.53875,-103.9,15.3127565,33.83
2021-06-21 17:20:37.382812500,-43.0,-17.0,45.0,62.538515625,-94.32,15.31263640625,33.83
2021-06-21 17:20:37.390625000,-43.0,-17.0,45.0,62.53828125,-84.74,15.312516312500001,33.83
2021-06-21 17:20:37.398437500,-43.0,-17.0,45.0,62.538046875,-73.31,15.312396218750001,33.83
2021-06-21 17:20:37.406250000,-43.0,-17.0,45.0,62.5378125,-61.88,15.312276125,33.83
2021-06-21 17:20:37.414062500,-43.0,-17.0,45.0,62.537578125,-50.035,15.312156031250002,33.83
2021-06-21 17:20:37.421875000,-43.0,-17.0,45.0,62.53734375,-38.19,15.312035937500001,33.83
2021-06-21 17:20:37.429687500,-43.0,-17.0,45.0,62.537109375,-27.169999999999998,15.31191584375,33.83
2021-06-21 17:20:37.437500000,-43.0,-17.0,45.0,62.536875,-16.15,15.311795750000002,33.83
2021-06-21 17:20:37.445312500,-43.0,-17.0,45.0,62.536640625,-6.76,15.311675656250001,33.83
2021-06-21 17:20:37.453125000,-43.0,-17.0,45.0,62.53640625,2.63,15.3115555625,33.83
2021-06-21 17:20:37.460937500,-43.0,-17.0,45.0,62.536171875,10.11,15.31143546875,33.83
2021-06-21 17:20:37.468750000,-43.0,-17.0,45.0,62.5359375,17.59,15.311315375000001,33.83
2021-06-21 17:20:37.476562500,-43.0,-17.0,45.0,62.535703125,23.265,15.31119528125,33.83
2021-06-21 17:20:37.484375000,-43.0,-17.0,45.0,62.53546875,28.94,15.3110751875,33.83
2021-06-21 17:20:37.492187500,-43.0,-17.0,45.0,62.535234375,33.085,15.310955093750001,33.83
2021-06-21 17:20:37.500000000,-43.0,-17.0,45.0,62.535,37.23,15.310835,33.83
2021-06-21 17:20:37.507812500,-43.0,-17.0,45.0,62.534765625,40.06999999999999,15.3095939375,33.83
2021-06-21 17:20:37.515625000,-43.0,-17.0,45.0,62.53453125,42.91,15.308352875,33.83
2021-06-21 17:20:37.523437500,-43.0,-17.0,45.0,62.534296875,44.565,15.3071118125,33.83
2021-06-21 17:20:37.531250000,-43.0,-17.0,45.0,62.5340625,46.22,15.30587075,33.83
2021-06-21 17:20:37.539062500,-43.0,-17.0,45.0,62.533828125,46.765,15.3046296875,33.83
2021-06-21 17:20:37.546875000,-43.0,-17.0,45.0,62.53359375,47.31,15.303388625,33.83
2021-06-21 17:20:37.554687500,-43.0,-17.0,45.0,62.533359375,46.915000000000006,15.3021475625,33.83
2021-06-21 17:20:37.562500000,-43.0,-17.0,45.0,62.533125,46.52,15.3009065,33.83
2021-06-21 17:20:37.570312500,-43.0,-17.0,45.0,62.532890625,45.510000000000005,15.299665437500002,33.83
2021-06-21 17:20:37.578125000,-43.0,-17.0,45.0,62.53265625,44.5,15.298424375000002,33.83
2021-06-21 17:20:37.585937500,-43.0,-17.0,45.0,62.532421875,43.335,15.297183312500001,33.83
2021-06-21 17:20:37.593750000,-43.0,-17.0,45.0,62.5321875,42.17,15.295942250000001,33.83
2021-06-21 17:20:37.601562500,-43.0,-17.0,45.0,62.531953125,41.285,15.294701187500001,33.83
2021-06-21 17:20:37.609375000,-43.0,-17.0,45.0,62.53171875,40.4,15.293460125000001,33.83
2021-06-21 17:20:37.617187500,-43.0,-17.0,45.0,62.531484375,40.06,15.292219062500001,33.83
2021-06-21 17:20:37.625000000,-43.0,-17.0,45.0,62.53125,39.72,15.290978,33.83
2021-06-21 17:20:37.632812500,-43.0,-17.0,45.0,62.531015625,39.97,15.2897369375,33.83
2021-06-21 17:20:37.640625000,-43.0,-17.0,45.0,62.530781250000004,40.22,15.288495875,33.83
2021-06-21 17:20:37.648437500,-43.0,-17.0,45.0,62.530546875,40.94,15.2872548125,33.83
2021-06-21 17:20:37.656250000,-43.0,-17.0,45.0,62.5303125,41.66,15.28601375,33.83
2021-06-21 17:20:37.664062500,-43.0,-17.0,45.0,62.530078125,42.68,15.2847726875,33.83
2021-06-21 17:20:37.671875000,-43.0,-17.0,45.0,62.52984375,43.7,15.283531625,33.83
2021-06-21 17:20:37.679687500,-43.0,-17.0,45.0,62.529609375,44.915000000000006,15.2822905625,33.83
2021-06-21 17:20:37.687500000,-43.0,-17.0,45.0,62.529375,46.13,15.281049500000002,33.83
2021-06-21 17:20:37.695312500,-43.0,-17.0,45.0,62.529140625000004,47.53,15.279808437500002,33.83
2021-06-21 17:20:37.703125000,-43.0,-17.0,45.0,62.52890625,48.93,15.278567375000002,33.83
2021-06-21 17:20:37.710937500,-43.0,-17.0,45.0,62.528671875,50.5,15.277326312500001,33.83
2021-06-21 17:20:37.718750000,-43.0,-17.0,45.0,62.5284375,52.07,15.276085250000001,33.83
2021-06-21 17:20:37.726562500,-43.25,-16.75,45.0,62.528203125000005,53.735,15.274844187500001,33.83
2021-06-21 17:20:37.734375000,-43.5,-16.5,45.0,62.52796875,55.4,15.273603125000001,33.83
2021-06-21 17:20:37.742187500,-43.75,-16.25,45.0,62.527734375,56.965,15.272362062500001,33.83
2021-06-21 17:20:37.750000000,-44.0,-16.0,45.0,62.5275,58.53,15.271121,33.83
2021-06-21 17:20:37.757812500,-44.0,-16.0,45.0,62.527265625,59.715,15.271241093750001,33.83
2021-06-21 17:20:37.765625000,-44.0,-16.0,45.0,62.52703125,60.9,15.2713611875,33.83
2021-06-21 17:20:37.773437500,-44.0,-16.0,45.0,62.526796875,61.425,15.27148128125,33.83
2021-06-21 17:20:37.781250000,-44.0,-16.0,45.0,62.526562500000004,61.95,15.271601375000001,33.83
2021-06-21 17:20:37.789062500,-43.75,-16.25,45.0,62.526328125,61.6,15.27172146875,33.83
2021-06-21 17:20:37.796875000,-43.5,-16.5,45.0,62.52609375,61.25,15.2718415625,33.83
2021-06-21 17:20:37.804687500,-43.25,-16.75,45.0,62.525859375,59.935,15.271961656250001,33.83
2021-06-21 17:20:37.812500000,-43.0,-17.0,45.0,62.525625000000005,58.62,15.272081750000002,33.83
2021-06-21 17:20:37.820312500,-43.0,-17.0,45.0,62.525390625,56.435,15.27220184375,33.83
2021-06-21 17:20:37.828125000,-43.0,-17.0,45.0,62.52515625,54.25,15.272321937500001,33.83
2021-06-21 17:20:37.835937500,-43.0,-17.0,45.0,62.524921875000004,51.43,15.272442031250002,33.83
2021-06-21 17:20:37.843750000,-43.0,-17.0,45.0,62.5246875,48.61,15.272562125,33.83
2021-06-21 17:20:37.851562500,-43.0,-16.75,45.0,62.524453125,45.5,15.27268221875,33.83
2021-06-21 17:20:37.859375000,-43.0,-16.5,45.0,62.52421875,42.39,15.272802312500001,33.83
2021-06-21 17:20:37.867187500,-43.0,-16.25,45.0,62.523984375000005,39.355000000000004,15.27292240625,33.83
2021-06-21 17:20:37.875000000,-43.0,-16.0,45.0,62.52375,36.32,15.2730425,33.83
2021-06-21 17:20:37.882812500,-43.0,-16.25,45.0,62.523515625,33.64,15.273162593750001,33.83
2021-06-21 17:20:37.890625000,-43.0,-16.5,45.0,62.523281250000004,30.96,15.2732826875,33.83
2021-06-21 17:20:37.898437500,-43.0,-16.75,45.0,62.523046875000006,28.735,15.27340278125,33.83
2021-06-21 17:20:37.906250000,-43.0,-17.0,45.0,62.5228125,26.51,15.273522875000001,33.83
2021-06-21 17:20:37.914062500,-43.0,-17.0,45.0,62.522578125,24.66,15.27364296875,33.83
2021-06-21 17:20:37.921875000,-43.0,-17.0,45.0,62.522343750000005,22.81,15.2737630625,33.83
2021-06-21 17:20:37.929687500,-43.0,-17.0,45.0,62.522109375,21.119999999999997,15.273883156250001,33.83
2021-06-21 17:20:37.937500000,-43.0,-17.0,45.0,62.521875,19.43,15.27400325,33.83
2021-06-21 17:20:37.945312500,-43.0,-17.0,45.0,62.521640625,17.63,15.27412334375,33.83
2021-06-21 17:20:37.953125000,-43.0,-17.0,45.0,62.521406250000005,15.83,15.274243437500001,33.83
2021-06-21 17:20:37.960937500,-43.0,-17.0,45.0,62.521171875,13.765,15.274363531250001,33.83
2021-06-21 17:20:37.968750000,-43.0,-17.0,45.0,62.5209375,11.7,15.274483625,33.83
2021-06-21 17:20:37.976562500,-43.0,-16.75,45.0,62.520703125000004,9.35,15.27460371875,33.83
2021-06-21 17:20:37.984375000,-43.0,-16.5,45.0,62.520468750000006,7.0,15.274723812500001,33.83
2021-06-21 17:20:37.992187500,-43.0,-16.25,45.0,62.520234375,4.484999999999999,15.27484390625,33.83
2021-06-21 17:20:38.000000000,-43.0,-16.0,45.0,62.52,1.97,15.274964,33.83
2021-06-21 17:20:38.007812500,-43.25,-16.0,45.0,62.519609375,-0.53,15.274283406250001,33.83
2021-06-21 17:20:38.015625000,-43.5,-16.0,45.0,62.51921875,-3.03,15.2736028125,33.83
2021-06-21 17:20:38.023437500,-43.75,-16.0,45.0,62.518828125000006,-5.395,15.27292221875,33.83
2021-06-21 17:20:38.031250000,-44.0,-16.0,45.0,62.518437500000005,-7.76,15.272241625000001,33.83
2021-06-21 17:20:38.039062500,-44.0,-16.0,45.0,62.518046875,-9.955,15.27156103125,33.83
2021-06-21 17:20:38.046875000,-44.0,-16.0,45.0,62.51765625,-12.15,15.2708804375,33.83
2021-06-21 17:20:38.054687500,-44.0,-16.0,45.0,62.517265625,-14.245000000000001,15.270199843750001,33.83
2021-06-21 17:20:38.062500000,-44.0,-16.0,45.0,62.516875000000006,-16.34,15.26951925,33.83
2021-06-21 17:20:38.070312500,-43.75,-16.25,45.0,62.516484375000005,-18.43,15.26883865625,33.83
2021-06-21 17:20:38.078125000,-43.5,-16.5,45.0,62.51609375,-20.52,15.268158062500001,33.83
2021-06-21 17:20:38.085937500,-43.25,-16.75,45.0,62.515703125,-22.67,15.26747746875,33.83
2021-06-21 17:20:38.093750000,-43.0,-17.0,45.0,62.5153125,-24.82,15.266796875,33.83
2021-06-21 17:20:38.101562500,-43.0,-17.0,45.0,62.514921875000006,-27.009999999999998,15.266116281250001,33.83
2021-06-21 17:20:38.109375000,-43.0,-17.0,45.0,62.514531250000005,-29.2,15.2654356875,33.83
2021-06-21 17:20:38.117187500,-43.0,-17.0,45.0,62.514140625,-31.35,15.26475509375,33.83
2021-06-21 17:20:38.125000000,-43.0,-17.0,45.0,62.51375,-33.5,15.2640745,33.83
2021-06-21 17:20:38.132812500,-43.0,-16.75,45.0,62.513359375,-35.519999999999996,15.26339390625,33.83
2021-06-21 17:20:38.140625000,-43.0,-16.5,45.0,62.512968750000006,-37.54,15.2627133125,33.83
2021-06-21 17:20:38.148437500,-43.0,-16.25,45.0,62.512578125000005,-39.425,15.26203271875,33.83
2021-06-21 17:20:38.156250000,-43.0,-16.0,45.0,62.5121875,-41.31,15.261352125,33.83
2021-06-21 17:20:38.164062500,-43.0,-16.0,45.0,62.511796875,-43.155,15.26067153125,33.83
2021-06-21 17:20:38.171875000,-43.0,-16.0,45.0,62.51140625,-45.0,15.2599909375,33.83
2021-06-21 17:20:38.179687500,-43.0,-16.0,45.0,62.511015625,-47.025,15.25931034375,33.83
2021-06-21 17:20:38.187500000,-43.0,-16.0,45.0,62.510625000000005,-49.05,15.25862975,33.83
2021-06-21 17:20:38.195312500,-43.25,-16.0,45.0,62.510234375,-51.495,15.25794915625,33.83
2021-06-21 17:20:38.203125000,-43.5,-16.0,45.0,62.50984375,-53.94,15.2572685625,33.83
2021-06-21 17:20:38.210937500,-43.75,-16.0,45.0,62.509453125,-57.03,15.25658796875,33.83
2021-06-21 17:20:38.218750000,-44.0,-16.0,45.0,62.5090625,-60.12,15.255907375,33.83
2021-06-21 17:20:38.226562500,-44.0,-16.0,45.0,62.508671875000005,-63.974999999999994,15.25522678125,33.83
2021-06-21 17:20:38.234375000,-44.0,-16.0,45.0,62.50828125,-67.83,15.2545461875,33.83
2021-06-21 17:20:38.242187500,-44.0,-16.0,45.0,62.507890625,-72.38499999999999,15.25386559375,33.83
2021-06-21 17:20:38.250000000,-44.0,-16.0,45.0,62.5075,-76.94,15.253185,33.83
2021-06-21 17:20:38.257812500,-43.75,-16.25,44.75,62.507109375,-81.94999999999999,15.253905625,33.83
2021-06-21 17:20:38.265625000,-43.5,-16.5,44.5,62.506718750000005,-86.96,15.25462625,33.83
2021-06-21 17:20:38.273437500,-43.25,-16.75,44.25,62.506328125,-91.94,15.255346875,33.83
2021-06-21 17:20:38.281250000,-43.0,-17.0,44.0,62.5059375,-96.92,15.2560675,33.83
2021-06-21 17:20:38.289062500,-43.0,-17.0,44.25,62.505546875,-101.14,15.256788125,33.83
2021-06-21 17:20:38.296875000,-43.0,-17.0,44.5,62.50515625,-105.36,15.25750875,33.83
2021-06-21 17:20:38.304687500,-43.0,-17.0,44.75,62.504765625000005,-107.92,15.258229375,33.83
2021-06-21 17:20:38.312500000,-43.0,-17.0,45.0,62.504375,-110.48,15.25895,33.83
2021-06-21 17:20:38.320312500,-43.25,-16.75,45.0,62.503984375,-110.505,15.259670625,33.83
2021-06-21 17:20:38.328125000,-43.5,-16.5,45.0,62.50359375,-110.53,15.26039125,33.83
2021-06-21 17:20:38.335937500,-43.75,-16.25,45.0,62.503203125,-107.39500000000001,15.261111875,33.83
2021-06-21 17:20:38.343750000,-44.0,-16.0,45.0,62.502812500000005,-104.26,15.2618325,33.83
2021-06-21 17:20:38.351562500,-43.75,-16.0,45.0,62.502421875,-97.845,15.262553125,33.83
2021-06-21 17:20:38.359375000,-43.5,-16.0,45.0,62.50203125,-91.43,15.26327375,33.83
2021-06-21 17:20:38.367187500,-43.25,-16.0,45.0,62.501640625,-82.24000000000001,15.263994375,33.83
2021-06-21 17:20:38.375000000,-43.0,-16.0,45.0,62.50125,-73.05,15.264714999999999,33.83
2021-06-21 17:20:38.382812500,-43.0,-16.0,45.0,62.500859375000005,-62.099999999999994,15.265435625,33.83
2021-06-21 17:20:38.390625000,-43.0,-16.0,45.0,62.50046875,-51.15,15.26615625,33.83
2021-06-21 17:20:38.398437500,-43.0,-16.0,45.0,62.500078125,-39.73,15.266876875,33.83
2021-06-21 17:20:38.406250000,-43.0,-16.0,45.0,62.4996875,-28.31,15.267597499999999,33.83
2021-06-21 17:20:38.414062500,-43.0,-16.0,45.0,62.499296875,-17.58,15.268318125,33.83
2021-06-21 17:20:38.421875000,-43.0,-16.0,45.0,62.498906250000005,-6.85,15.26903875,33.83
2021-06-21 17:20:38.429687500,-43.0,-16.0,45.0,62.498515625,2.3950000000000014,15.269759375,33.83
2021-06-21 17:20:38.437500000,-43.0,-16.0,45.0,62.498125,11.64,15.27048,33.83
2021-06-21 17:20:38.445312500,-43.25,-16.0,45.0,62.497734375,19.07,15.271200624999999,33.83
2021-06-21 17:20:38.453125000,-43.5,-16.0,45.0,62.49734375,26.5,15.27192125,33.83
2021-06-21 17:20:38.460937500,-43.75,-16.0,45.0,62.496953125000005,32.16,15.272641875,33.83
2021-06-21 17:20:38.468750000,-44.0,-16.0,45.0,62.4965625,37.82,15.2733625,33.83
2021-06-21 17:20:38.476562500,-43.75,-16.0,45.0,62.496171875,41.89,15.274083124999999,33.83
2021-06-21 17:20:38.484375000,-43.5,-16.0,45.0,62.49578125,45.96,15.27480375,33.83
2021-06-21 17:20:38.492187500,-43.25,-16.0,45.0,62.495390625,48.61,15.275524375,33.83
2021-06-21 17:20:38.500000000,-43.0,-16.0,45.0,62.495000000000005,51.26,15.276245,33.83
2021-06-21 17:20:38.507812500,-43.0,-16.25,45.0,62.494609375,52.55,15.27640515625,33.83
2021-06-21 17:20:38.515625000,-43.0,-16.5,45.0,62.49421875,53.84,15.276565312499999,33.83
2021-06-21 17:20:38.523437500,-43.0,-16.75,45.0,62.493828125,53.835,15.27672546875,33.83
2021-06-21 17:20:38.531250000,-43.0,-17.0,45.0,62.4934375,53.83,15.276885625,33.83
2021-06-21 17:20:38.539062500,-43.0,-16.75,45.0,62.493046875,52.7,15.27704578125,33.83
2021-06-21 17:20:38.546875000,-43.0,-16.5,45.0,62.49265625,51.57,15.2772059375,33.83
2021-06-21 17:20:38.554687500,-43.0,-16.25,45.0,62.492265625,49.69,15.27736609375,33.83
2021-06-21 17:20:38.562500000,-43.0,-16.0,45.0,62.491875,47.81,15.27752625,33.83
2021-06-21 17:20:38.570312500,-43.0,-16.0,45.0,62.491484375,45.7,15.27768640625,33.83
2021-06-21 17:20:38.578125000,-43.0,-16.0,45.0,62.49109375,43.59,15.2778465625,33.83
2021-06-21 17:20:38.585937500,-43.0,-16.0,45.0,62.490703125,41.835,15.27800671875,33.83
2021-06-21 17:20:38.593750000,-43.0,-16.0,45.0,62.4903125,40.08,15.278166875,33.83
2021-06-21 17:20:38.601562500,-43.0,-16.25,45.0,62.489921875,39.12,15.27832703125,33.83
2021-06-21 17:20:38.609375000,-43.0,-16.5,45.0,62.48953125,38.16,15.2784871875,33.83
2021-06-21 17:20:38.617187500,-43.0,-16.75,45.0,62.489140625,38.185,15.27864734375,33.83
2021-06-21 17:20:38.625000000,-43.0,-17.0,45.0,62.48875,38.21,15.2788075,33.83
2021-06-21 17:20:38.632812500,-43.0,-16.75,45.0,62.488359375,39.165,15.27896765625,33.83
2021-06-21 17:20:38.640625000,-43.0,-16.5,45.0,62.48796875,40.12,15.2791278125,33.83
2021-06-21 17:20:38.648437500,-43.0,-16.25,45.0,62.487578125,41.765,15.27928796875,33.83
2021-06-21 17:20:38.656250000,-43.0,-16.0,45.0,62.4871875,43.41,15.279448125,33.83
2021-06-21 17:20:38.664062500,-43.0,-16.0,45.0,62.486796875,45.44499999999999,15.27960828125,33.83
2021-06-21 17:20:38.671875000,-43.0,-16.0,45.0,62.48640625,47.48,15.2797684375,33.83
2021-06-21 17:20:38.679687500,-43.0,-16.0,45.0,62.486015625,49.61,15.27992859375,33.83
2021-06-21 17:20:38.687500000,-43.0,-16.0,45.0,62.485625,51.74,15.28008875,33.83
2021-06-21 17:20:38.695312500,-43.0,-16.0,45.0,62.485234375,53.735,15.28024890625,33.83
2021-06-21 17:20:38.703125000,-43.0,-16.0,45.0,62.48484375,55.73,15.2804090625,33.83
2021-06-21 17:20:38.710937500,-43.0,-16.0,45.0,62.484453125,57.349999999999994,15.280569218750001,33.83
2021-06-21 17:20:38.718750000,-43.0,-16.0,45.0,62.4840625,58.97,15.280729375,33.83
2021-06-21 17:20:38.726562500,-43.0,-16.0,45.0,62.483671875,59.995000000000005,15.28088953125,33.83
2021-06-21 17:20:38.734375000,-43.0,-16.0,45.0,62.48328125,61.02,15.281049687500001,33.83
2021-06-21 17:20:38.742187500,-43.0,-16.0,45.0,62.482890625,61.255,15.28120984375,33.83
2021-06-21 17:20:38.750000000,-43.0,-16.0,45.0,62.4825,61.49,15.28137,33.83
2021-06-21 17:20:38.757812500,-43.25,-16.0,45.0,62.482109375,60.845,15.28165025,33.83
2021-06-21 17:20:38.765625000,-43.5,-16.0,45.0,62.48171875,60.2,15.281930500000001,33.83
2021-06-21 17:20:38.773437500,-43.75,-16.0,45.0,62.481328125,58.69,15.28221075,33.83
2021-06-21 17:20:38.781250000,-44.0,-16.0,45.0,62.4809375,57.18,15.282491,33.83
2021-06-21 17:20:38.789062500,-43.75,-16.0,45.0,62.480546875,54.95,15.282771250000001,33.83
2021-06-21 17:20:38.796875000,-43.5,-16.0,45.0,62.48015625,52.72,15.283051500000001,33.83
2021-06-21 17:20:38.804687500,-43.25,-16.0,45.0,62.479765625,50.0,15.28333175,33.83
2021-06-21 17:20:38.812500000,-43.0,-16.0,45.0,62.479375,47.28,15.283612000000002,33.83
2021-06-21 17:20:38.820312500,-43.0,-16.0,45.0,62.478984375,44.32,15.283892250000001,33.83
2021-06-21 17:20:38.828125000,-43.0,-16.0,45.0,62.47859375,41.36,15.2841725,33.83
2021-06-21 17:20:38.835937500,-43.0,-16.0,45.0,62.478203125,38.355000000000004,15.28445275,33.83
2021-06-21 17:20:38.843750000,-43.0,-16.0,45.0,62.4778125,35.35,15.284733000000001,33.83
2021-06-21 17:20:38.851562500,-43.0,-16.0,45.0,62.477421875,32.46,15.28501325,33.83
