TimeStamp,empatica.acc.x,empatica.acc.y,empatica.acc.z,empatica.hr,empatica.bvp,empatica.eda,empatica.temp
2021-06-21 17:24:39.843750000,-41.0,-13.0,48.0,82.2215625,-42.67,15.802112124999999,33.91
2021-06-21 17:24:39.851562500,-41.0,-12.75,48.0,82.221484375,-43.58,15.801671718749999,33.91
2021-06-21 17:24:39.859375000,-41.0,-12.5,48.0,82.22140625,-44.49,15.801231312499999,33.91
2021-06-21 17:24:39.867187500,-41.0,-12.25,48.0,82.221328125,-45.21,15.800790906249999,33.91
2021-06-21 17:24:39.875000000,-41.0,-12.0,48.0,82.22125,-45.93,15.8003505,33.91
2021-06-21 17:24:39.882812500,-41.0,-12.25,48.0,82.221171875,-46.68,15.79991009375,33.91
2021-06-21 17:24:39.890625000,-41.0,-12.5,48.0,82.22109375,-47.43,15.7994696875,33.91
2021-06-21 17:24:39.898437500,-41.0,-12.75,48.0,82.22101562499999,-48.32,15.79902928125,33.91
2021-06-21 17:24:39.906250000,-41.0,-13.0,48.0,82.2209375,-49.21,15.798588875,33.91
2021-06-21 17:24:39.914062500,-41.0,-13.0,48.0,82.220859375,-50.205,15.79814846875,33.91
2021-06-21 17:24:39.921875000,-41.0,-13.0,48.0,82.22078125,-51.2,15.7977080625,33.91
2021-06-21 17:24:39.929687500,-41.0,-13.0,48.0,82.220703125,-52.17,15.79726765625,33.91
2021-06-21 17:24:39.937500000,-41.0,-13.0,48.0,82.220625,-53.14,15.79682725,33.91
2021-06-21 17:24:39.945312500,-41.0,-13.0,48.0,82.220546875,-53.975,15.79638684375,33.91
2021-06-21 17:24:39.953125000,-41.0,-13.0,48.0,82.22046875,-54.81,15.7959464375,33.91
2021-06-21 17:24:39.960937500,-41.0,-13.0,48.0,82.220390625,-55.555,15.79550603125,33.91
2021-06-21 17:24:39.968750000,-41.0,-13.0,48.0,82.2203125,-56.3,15.795065625,33.91
2021-06-21 17:24:39.976562500,-41.0,-13.0,48.0,82.220234375,-57.18,15.79462521875,33.91
2021-06-21 17:24:39.984375000,-41.0,-13.0,48.0,82.22015625,-58.06,15.7941848125,33.91
2021-06-21 17:24:39.992187500,-41.0,-13.0,48.0,82.220078125,-59.425,15.79374440625,33.91
2021-06-21 17:24:40.000000000,-41.0,-13.0,48.0,82.22,-60.79,15.793304,33.91
2021-06-21 17:24:40.007812500,-41.0,-13.0,48.0,82.22,-62.974999999999994,15.79270353125,33.910624999999996
2021-06-21 17:24:40.015625000,-41.0,-13.0,48.0,82.22,-65.16,15.792103062499999,33.911249999999995
2021-06-21 17:24:40.023437500,-41.0,-13.0,48.0,82.22,-68.315,15.79150259375,33.911874999999995
2021-06-21 17:24:40.031250000,-41.0,-13.0,48.0,82.22,-71.47,15.790902124999999,33.912499999999994
2021-06-21 17:24:40.039062500,-41.0,-13.0,48.0,82.22,-75.42,15.79030165625,33.913124999999994
2021-06-21 17:24:40.046875000,-41.0,-13.0,48.0,82.22,-79.37,15.789701187499999,33.91375
2021-06-21 17:24:40.054687500,-41.0,-13.0,48.0,82.22,-83.555,15.78910071875,33.914375
2021-06-21 17:24:40.062500000,-41.0,-13.0,48.0,82.22,-87.74,15.788500249999998,33.915
2021-06-21 17:24:40.070312500,-41.0,-13.0,48.0,82.22,-91.28,15.78789978125,33.915625
2021-06-21 17:24:40.078125000,-41.0,-13.0,48.0,82.22,-94.82,15.7872993125,33.91625
2021-06-21 17:24:40.085937500,-41.0,-13.0,48.0,82.22,-96.685,15.786698843749999,33.916875
2021-06-21 17:24:40.093750000,-41.0,-13.0,48.0,82.22,-98.55,15.786098375,33.9175
2021-06-21 17:24:40.101562500,-41.0,-13.0,48.0,82.22,-97.77,15.785497906249999,33.918124999999996
2021-06-21 17:24:40.109375000,-41.0,-13.0,48.0,82.22,-96.99,15.7848974375,33.918749999999996
2021-06-21 17:24:40.117187500,-41.0,-13.0,48.0,82.22,-92.93,15.784296968749999,33.919374999999995
2021-06-21 17:24:40.125000000,-41.0,-13.0,48.0,82.22,-88.87,15.7836965,33.92
2021-06-21 17:24:40.132812500,-41.0,-13.0,48.0,82.22,-81.42,15.78309603125,33.920625
2021-06-21 17:24:40.140625000,-41.0,-13.0,48.0,82.22,-73.97,15.7824955625,33.92125
2021-06-21 17:24:40.148437500,-41.0,-13.0,48.0,82.22,-63.65,15.78189509375,33.921875
2021-06-21 17:24:40.156250000,-41.0,-13.0,48.0,82.22,-53.33,15.781294625,33.9225
2021-06-21 17:24:40.164062500,-41.0,-13.0,48.0,82.22,-41.195,15.78069415625,33.923125
2021-06-21 17:24:40.171875000,-41.0,-13.0,48.0,82.22,-29.06,15.780093687499999,33.92375
2021-06-21 17:24:40.179687500,-41.0,-13.0,48.0,82.22,-16.415,15.77949321875,33.924375
2021-06-21 17:24:40.187500000,-41.0,-13.0,48.0,82.22,-3.77,15.77889275,33.925
2021-06-21 17:24:40.195312500,-41.0,-13.0,48.0,82.22,8.145,15.77829228125,33.925625
2021-06-21 17:24:40.203125000,-41.0,-13.0,48.0,82.22,20.06,15.7776918125,33.926249999999996
2021-06-21 17:24:40.210937500,-41.0,-13.0,48.0,82.22,30.39,15.77709134375,33.926875
2021-06-21 17:24:40.218750000,-41.0,-13.0,48.0,82.22,40.72,15.776490875,33.9275
2021-06-21 17:24:40.226562500,-41.0,-13.0,48.0,82.22,49.114999999999995,15.77589040625,33.928125
2021-06-21 17:24:40.234375000,-41.0,-13.0,48.0,82.22,57.51,15.7752899375,33.92875
2021-06-21 17:24:40.242187500,-41.0,-13.0,48.0,82.22,64.045,15.77468946875,33.929375
2021-06-21 17:24:40.250000000,-41.0,-13.0,48.0,82.22,70.58,15.774089,33.93
2021-06-21 17:24:40.257812500,-40.75,-13.0,48.0,82.22,75.53,15.77288796875,33.93
2021-06-21 17:24:40.265625000,-40.5,-13.0,48.0,82.22,80.48,15.7716869375,33.93
2021-06-21 17:24:40.273437500,-40.25,-13.0,48.0,82.22,84.11,15.77048590625,33.93
2021-06-21 17:24:40.281250000,-40.0,-13.0,48.0,82.22,87.74,15.769284875,33.93
2021-06-21 17:24:40.289062500,-40.25,-13.0,48.0,82.22,90.195,15.76808384375,33.93
2021-06-21 17:24:40.296875000,-40.5,-13.0,48.0,82.22,92.65,15.7668828125,33.93
2021-06-21 17:24:40.304687500,-40.75,-13.0,48.0,82.22,93.97,15.76568178125,33.93
2021-06-21 17:24:40.312500000,-41.0,-13.0,48.0,82.22,95.29,15.76448075,33.93
2021-06-21 17:24:40.320312500,-41.0,-13.0,48.0,82.22,95.525,15.76327971875,33.93
2021-06-21 17:24:40.328125000,-41.0,-13.0,48.0,82.22,95.76,15.7620786875,33.93
2021-06-21 17:24:40.335937500,-41.0,-13.0,48.0,82.22,95.09,15.76087765625,33.93
2021-06-21 17:24:40.343750000,-41.0,-13.0,48.0,82.22,94.42,15.759676625,33.93
2021-06-21 17:24:40.351562500,-41.0,-13.0,48.0,82.22,93.155,15.758475593750001,33.93
2021-06-21 17:24:40.359375000,-41.0,-13.0,48.0,82.22,91.89,15.757274562500001,33.93
2021-06-21 17:24:40.367187500,-41.0,-13.0,48.0,82.22,90.465,15.756073531250001,33.93
2021-06-21 17:24:40.375000000,-41.0,-13.0,48.0,82.22,89.04,15.754872500000001,33.93
2021-06-21 17:24:40.382812500,-41.0,-13.0,48.0,82.22,87.86500000000001,15.75367146875,33.93
2021-06-21 17:24:40.390625000,-41.0,-13.0,48.0,82.22,86.69,15.7524704375,33.93
2021-06-21 17:24:40.398437500,-41.0,-13.0,48.0,82.22,86.05,15.75126940625,33.93
2021-06-21 17:24:40.406250000,-41.0,-13.0,48.0,82.22,85.41,15.750068375,33.93
2021-06-21 17:24:40.414062500,-40.75,-13.0,48.0,82.22,85.38,15.74886734375,33.93
2021-06-21 17:24:40.421875000,-40.5,-13.0,48.0,82.22,85.35,15.7476663125,33.93
2021-06-21 17:24:40.429687500,-40.25,-13.0,48.0,82.22,85.81,15.74646528125,33.93
2021-06-21 17:24:40.437500000,-40.0,-13.0,48.0,82.22,86.27,15.74526425,33.93
2021-06-21 17:24:40.445312500,-40.25,-13.0,48.0,82.22,86.975,15.74406321875,33.93
2021-06-21 17:24:40.453125000,-40.5,-13.0,48.0,82.22,87.68,15.7428621875,33.93
2021-06-21 17:24:40.460937500,-40.75,-13.0,48.0,82.22,88.36500000000001,15.74166115625,33.93
2021-06-21 17:24:40.468750000,-41.0,-13.0,48.0,82.22,89.05,15.740460125,33.93
2021-06-21 17:24:40.476562500,-41.0,-13.0,48.0,82.22,89.49000000000001,15.73925909375,33.93
2021-06-21 17:24:40.484375000,-41.0,-13.0,48.0,82.22,89.93,15.7380580625,33.93
2021-06-21 17:24:40.492187500,-41.0,-13.0,48.0,82.22,89.995,15.73685703125,33.93
2021-06-21 17:24:40.500000000,-41.0,-13.0,48.0,82.22,90.06,15.735656,33.93
2021-06-21 17:24:40.507812500,-41.0,-13.0,48.0,82.22,89.68,15.73557590625,33.93
2021-06-21 17:24:40.515625000,-41.0,-13.0,48.0,82.22,89.3,15.7354958125,33.93
2021-06-21 17:24:40.523437500,-41.0,-13.0,48.0,82.22,88.425,15.73541571875,33.93
2021-06-21 17:24:40.531250000,-41.0,-13.0,48.0,82.22,87.55,15.735335625000001,33.93
2021-06-21 17:24:40.539062500,-41.0,-13.0,48.0,82.22,86.175,15.73525553125,33.93
2021-06-21 17:24:40.546875000,-41.0,-13.0,48.0,82.22,84.8,15.7351754375,33.93
2021-06-21 17:24:40.554687500,-41.0,-13.0,48.0,82.22,82.94,15.73509534375,33.93
2021-06-21 17:24:40.562500000,-41.0,-13.0,48.0,82.22,81.08,15.73501525,33.93
2021-06-21 17:24:40.570312500,-41.0,-13.0,48.0,82.22,78.82499999999999,15.73493515625,33.93
2021-06-21 17:24:40.578125000,-41.0,-13.0,48.0,82.22,76.57,15.734855062500001,33.93
2021-06-21 17:24:40.585937500,-41.0,-13.0,48.0,82.22,74.065,15.734774968750001,33.93
2021-06-21 17:24:40.593750000,-41.0,-13.0,48.0,82.22,71.56,15.734694875,33.93
2021-06-21 17:24:40.601562500,-41.0,-13.0,48.0,82.22,69.015,15.73461478125,33.93
2021-06-21 17:24:40.609375000,-41.0,-13.0,48.0,82.22,66.47,15.7345346875,33.93
2021-06-21 17:24:40.617187500,-41.0,-13.0,48.0,82.22,64.075,15.73445459375,33.93
2021-06-21 17:24:40.625000000,-41.0,-13.0,48.0,82.22,61.68,15.734374500000001,33.93
2021-06-21 17:24:40.632812500,-40.75,-13.0,48.0,82.22,59.565,15.734294406250001,33.93
2021-06-21 17:24:40.640625000,-40.5,-13.0,48.0,82.22,57.45,15.7342143125,33.93
2021-06-21 17:24:40.648437500,-40.25,-13.0,48.0,82.22,55.61,15.73413421875,33.93
2021-06-21 17:24:40.656250000,-40.0,-13.0,48.0,82.22,53.77,15.734054125,33.93
2021-06-21 17:24:40.664062500,-40.0,-13.0,48.25,82.22,52.09,15.73397403125,33.93
2021-06-21 17:24:40.671875000,-40.0,-13.0,48.5,82.22,50.41,15.7338939375,33.93
2021-06-21 17:24:40.679687500,-40.0,-13.0,48.75,82.22,48.68,15.733813843750001,33.93
2021-06-21 17:24:40.687500000,-40.0,-13.0,49.0,82.22,46.95,15.73373375,33.93
2021-06-21 17:24:40.695312500,-40.0,-13.0,48.75,82.22,44.95,15.73365365625,33.93
2021-06-21 17:24:40.703125000,-40.0,-13.0,48.5,82.22,42.95,15.7335735625,33.93
2021-06-21 17:24:40.710937500,-40.0,-13.0,48.25,82.22,40.5,15.73349346875,33.93
2021-06-21 17:24:40.718750000,-40.0,-13.0,48.0,82.22,38.05,15.733413375,33.93
2021-06-21 17:24:40.726562500,-40.25,-13.0,48.0,82.22,35.04,15.733333281250001,33.93
2021-06-21 17:24:40.734375000,-40.5,-13.0,48.0,82.22,32.03,15.7332531875,33.93
2021-06-21 17:24:40.742187500,-40.75,-13.0,48.0,82.22,28.44,15.73317309375,33.93
2021-06-21 17:24:40.750000000,-41.0,-13.0,48.0,82.22,24.85,15.733093,33.93
2021-06-21 17:24:40.757812500,-41.0,-13.0,48.0,82.22,20.740000000000002,15.7336535,33.93
2021-06-21 17:24:40.765625000,-41.0,-13.0,48.0,82.22,16.63,15.734214,33.93
2021-06-21 17:24:40.773437500,-41.0,-13.0,48.0,82.22,12.12,15.7347745,33.93
2021-06-21 17:24:40.781250000,-41.0,-13.0,48.0,82.22,7.61,15.735335000000001,33.93
2021-06-21 17:24:40.789062500,-41.0,-13.0,48.0,82.22,2.915,15.7358955,33.93
2021-06-21 17:24:40.796875000,-41.0,-13.0,48.0,82.22,-1.78,15.736456,33.93
2021-06-21 17:24:40.804687500,-41.0,-13.0,48.0,82.22,-6.430000000000001,15.737016500000001,33.93
2021-06-21 17:24:40.812500000,-41.0,-13.0,48.0,82.22,-11.08,15.737577,33.93
2021-06-21 17:24:40.820312500,-41.0,-13.0,48.0,82.22,-15.48,15.7381375,33.93
2021-06-21 17:24:40.828125000,-41.0,-13.0,48.0,82.22,-19.88,15.738698000000001,33.93
2021-06-21 17:24:40.835937500,-41.0,-13.0,48.0,82.22,-23.93,15.7392585,33.93
2021-06-21 17:24:40.843750000,-41.0,-13.0,48.0,82.22,-27.98,15.739819,33.93
2021-06-21 17:24:40.851562500,-41.0,-13.0,48.0,82.22,-31.71,15.740379500000001,33.93
2021-06-21 17:24:40.859375000,-41.0,-13.0,48.0,82.22,-35.44,15.74094,33.93
2021-06-21 17:24:40.867187500,-41.0,-13.0,48.0,82.22,-38.980000000000004,15.7415005,33.93
2021-06-21 17:24:40.875000000,-41.0,-13.0,48.0,82.22,-42.52,15.742061,33.93
2021-06-21 17:24:40.882812500,-41.0,-13.0,48.0,82.22,-46.065,15.7426215,33.93
2021-06-21 17:24:40.890625000,-41.0,-13.0,48.0,82.22,-49.61,15.743182000000001,33.93
2021-06-21 17:24:40.898437500,-41.0,-13.0,48.0,82.22,-53.28,15.7437425,33.93
2021-06-21 17:24:40.906250000,-41.0,-13.0,48.0,82.22,-56.95,15.744303,33.93
2021-06-21 17:24:40.914062500,-41.0,-13.0,48.0,82.22,-60.76,15.744863500000001,33.93
2021-06-21 17:24:40.921875000,-41.0,-13.0,48.0,82.22,-64.57,15.745424,33.93
2021-06-21 17:24:40.929687500,-41.0,-13.0,48.0,82.22,-68.4,15.7459845,33.93
2021-06-21 17:24:40.937500000,-41.0,-13.0,48.0,82.22,-72.23,15.746545000000001,33.93
2021-06-21 17:24:40.945312500,-41.0,-13.0,48.0,82.22,-75.92,15.7471055,33.93
2021-06-21 17:24:40.953125000,-41.0,-13.0,48.0,82.22,-79.61,15.747666,33.93
2021-06-21 17:24:40.960937500,-41.0,-13.0,48.0,82.22,-82.995,15.748226500000001,33.93
2021-06-21 17:24:40.968750000,-41.0,-13.0,48.0,82.22,-86.38,15.748787,33.93
2021-06-21 17:24:40.976562500,-41.0,-13.0,48.0,82.22,-89.37,15.7493475,33.93
2021-06-21 17:24:40.984375000,-41.0,-13.0,48.0,82.22,-92.36,15.749908000000001,33.93
2021-06-21 17:24:40.992187500,-41.0,-13.0,48.0,82.22,-94.93,15.7504685,33.93
2021-06-21 17:24:41.000000000,-41.0,-13.0,48.0,82.22,-97.5,15.751029,33.93
2021-06-21 17:24:41.007812500,-41.0,-13.0,48.0,82.22,-99.705,15.750748750000001,33.930625
2021-06-21 17:24:41.015625000,-41.0,-13.0,48.0,82.22,-101.91,15.7504685,33.93125
2021-06-21 17:24:41.023437500,-41.0,-13.0,48.0,82.22,-103.865,15.75018825,33.931875
2021-06-21 17:24:41.031250000,-41.0,-13.0,48.0,82.22,-105.82,15.749908000000001,33.9325
2021-06-21 17:24:41.039062500,-41.0,-13.0,48.0,82.22,-107.69999999999999,15.74962775,33.933125
2021-06-21 17:24:41.046875000,-41.0,-13.0,48.0,82.22,-109.58,15.7493475,33.93375
2021-06-21 17:24:41.054687500,-41.0,-13.0,48.0,82.22,-111.6,15.749067250000001,33.934375
2021-06-21 17:24:41.062500000,-41.0,-13.0,48.0,82.22,-113.62,15.748787,33.935
2021-06-21 17:24:41.070312500,-41.0,-13.0,48.0,82.22,-116.055,15.74850675,33.935625
2021-06-21 17:24:41.078125000,-41.0,-13.0,48.0,82.22,-118.49,15.748226500000001,33.93625
2021-06-21 17:24:41.085937500,-41.0,-13.0,48.0,82.22,-121.54499999999999,15.74794625,33.936875
2021-06-21 17:24:41.093750000,-41.0,-13.0,48.0,82.22,-124.6,15.747666,33.9375
2021-06-21 17:24:41.101562500,-41.0,-13.0,48.0,82.22,-128.28,15.747385750000001,33.938125
2021-06-21 17:24:41.109375000,-41.0,-13.0,48.0,82.22,-131.96,15.7471055,33.93875
2021-06-21 17:24:41.117187500,-41.0,-13.0,48.0,82.22,-135.93,15.74682525,33.939375
2021-06-21 17:24:41.125000000,-41.0,-13.0,48.0,82.22,-139.9,15.746545000000001,33.94
2021-06-21 17:24:41.132812500,-41.0,-13.0,48.0,82.22,-143.41500000000002,15.74626475,33.940625000000004
2021-06-21 17:24:41.140625000,-41.0,-13.0,48.0,82.22,-146.93,15.7459845,33.941250000000004
2021-06-21 17:24:41.148437500,-41.0,-13.0,48.0,82.22,-148.95499999999998,15.74570425,33.941875
2021-06-21 17:24:41.156250000,-41.0,-13.0,48.0,82.22,-150.98,15.745424,33.9425
2021-06-21 17:24:41.164062500,-41.0,-13.0,48.0,82.22,-150.415,15.74514375,33.943125
2021-06-21 17:24:41.171875000,-41.0,-13.0,48.0,82.22,-149.85,15.7448635,33.94375
2021-06-21 17:24:41.179687500,-41.0,-13.0,48.0,82.22,-145.915,15.74458325,33.944375
2021-06-21 17:24:41.187500000,-41.0,-13.0,48.0,82.22,-141.98,15.744303,33.945
2021-06-21 17:24:41.195312500,-41.0,-13.0,48.0,82.22,-134.45999999999998,15.74402275,33.945625
2021-06-21 17:24:41.203125000,-41.0,-13.0,48.0,82.22,-126.94,15.7437425,33.94625
2021-06-21 17:24:41.210937500,-41.0,-13.0,48.0,82.22,-116.36500000000001,15.74346225,33.946875000000006
2021-06-21 17:24:41.218750000,-41.0,-13.0,48.0,82.22,-105.79,15.743182,33.947500000000005
2021-06-21 17:24:41.226562500,-41.0,-13.0,48.0,82.22,-93.27000000000001,15.74290175,33.948125000000005
2021-06-21 17:24:41.234375000,-41.0,-13.0,48.0,82.22,-80.75,15.7426215,33.948750000000004
2021-06-21 17:24:41.242187500,-41.0,-13.0,48.0,82.22,-67.705,15.742341249999999,33.949375
2021-06-21 17:24:41.250000000,-41.0,-13.0,48.0,82.22,-54.66,15.742061,33.95
2021-06-21 17:24:41.257812500,-41.0,-13.0,48.0,82.22,-42.43,15.74182078125,33.95
2021-06-21 17:24:41.265625000,-41.0,-13.0,48.0,82.22,-30.2,15.7415805625,33.95
2021-06-21 17:24:41.273437500,-41.0,-13.0,48.0,82.22,-19.75,15.74134034375,33.95
2021-06-21 17:24:41.281250000,-41.0,-13.0,48.0,82.22,-9.3,15.741100124999999,33.95
2021-06-21 17:24:41.289062500,-41.0,-13.0,48.0,82.22,-1.0899999999999999,15.74085990625,33.95
2021-06-21 17:24:41.296875000,-41.0,-13.0,48.0,82.22,7.12,15.7406196875,33.95
2021-06-21 17:24:41.304687500,-41.0,-13.0,48.0,82.22,13.059999999999999,15.74037946875,33.95
2021-06-21 17:24:41.312500000,-41.0,-13.0,48.0,82.22,19.0,15.74013925,33.95
2021-06-21 17:24:41.320312500,-41.0,-13.0,48.0,82.22,22.939999999999998,15.73989903125,33.95
2021-06-21 17:24:41.328125000,-41.0,-13.0,48.0,82.22,26.88,15.7396588125,33.95
2021-06-21 17:24:41.335937500,-41.0,-13.0,48.0,82.22,29.17,15.73941859375,33.95
2021-06-21 17:24:41.343750000,-41.0,-13.0,48.0,82.22,31.46,15.739178375,33.95
2021-06-21 17:24:41.351562500,-41.0,-13.0,48.0,82.22,32.43,15.73893815625,33.95
2021-06-21 17:24:41.359375000,-41.0,-13.0,48.0,82.22,33.4,15.7386979375,33.95
2021-06-21 17:24:41.367187500,-41.0,-13.0,48.0,82.22,33.370000000000005,15.73845771875,33.95
2021-06-21 17:24:41.375000000,-41.0,-13.0,48.0,82.22,33.34,15.738217500000001,33.95
2021-06-21 17:24:41.382812500,-41.0,-13.0,48.0,82.22,32.635000000000005,15.73797728125,33.95
2021-06-21 17:24:41.390625000,-41.0,-13.0,48.0,82.22,31.93,15.7377370625,33.95
2021-06-21 17:24:41.398437500,-41.0,-13.0,48.0,82.22,30.92,15.73749684375,33.95
2021-06-21 17:24:41.406250000,-41.0,-13.0,48.0,82.22,29.91,15.737256625,33.95
2021-06-21 17:24:41.414062500,-41.0,-13.0,48.0,82.22,29.005000000000003,15.73701640625,33.95
2021-06-21 17:24:41.421875000,-41.0,-13.0,48.0,82.22,28.1,15.7367761875,33.95
2021-06-21 17:24:41.429687500,-41.0,-13.0,48.0,82.22,27.700000000000003,15.736535968750001,33.95
2021-06-21 17:24:41.437500000,-41.0,-13.0,48.0,82.22,27.3,15.73629575,33.95
2021-06-21 17:24:41.445312500,-41.0,-13.0,48.0,82.22,27.66,15.73605553125,33.95
2021-06-21 17:24:41.453125000,-41.0,-13.0,48.0,82.22,28.02,15.7358153125,33.95
2021-06-21 17:24:41.460937500,-41.0,-13.0,48.0,82.22,29.2,15.73557509375,33.95
2021-06-21 17:24:41.468750000,-41.0,-13.0,48.0,82.22,30.38,15.735334875000001,33.95
2021-06-21 17:24:41.476562500,-41.0,-13.0,48.0,82.22,32.22,15.73509465625,33.95
2021-06-21 17:24:41.484375000,-41.0,-13.0,48.0,82.22,34.06,15.734854437500001,33.95
2021-06-21 17:24:41.492187500,-41.0,-13.0,48.0,82.22,36.269999999999996,15.73461421875,33.95
2021-06-21 17:24:41.500000000,-41.0,-13.0,48.0,82.22,38.48,15.734374,33.95
2021-06-21 17:24:41.507812500,-41.0,-13.0,48.0,82.22,40.73,15.734213875,33.95
2021-06-21 17:24:41.515625000,-41.0,-13.0,48.0,82.22,42.98,15.734053750000001,33.95
2021-06-21 17:24:41.523437500,-41.0,-13.0,48.0,82.22,45.025,15.733893625,33.95
2021-06-21 17:24:41.531250000,-41.0,-13.0,48.0,82.22,47.07,15.733733500000001,33.95
2021-06-21 17:24:41.539062500,-41.0,-13.0,48.0,82.22,48.8,15.733573375,33.95
2021-06-21 17:24:41.546875000,-41.0,-13.0,48.0,82.22,50.53,15.73341325,33.95
2021-06-21 17:24:41.554687500,-41.0,-13.0,48.0,82.22,51.925,15.733253125000001,33.95
2021-06-21 17:24:41.562500000,-41.0,-13.0,48.0,82.22,53.32,15.733093,33.95
2021-06-21 17:24:41.570312500,-41.0,-13.0,48.0,82.22,54.379999999999995,15.732932875000001,33.95
2021-06-21 17:24:41.578125000,-41.0,-13.0,48.0,82.22,55.44,15.73277275,33.95
2021-06-21 17:24:41.585937500,-41.0,-13.0,48.0,82.22,56.129999999999995,15.732612625,33.95
2021-06-21 17:24:41.593750000,-41.0,-13.0,48.0,82.22,56.82,15.7324525,33.95
2021-06-21 17:24:41.601562500,-41.0,-13.0,48.0,82.22,57.015,15.732292375,33.95
2021-06-21 17:24:41.609375000,-41.0,-13.0,48.0,82.22,57.21,15.732132250000001,33.95
2021-06-21 17:24:41.617187500,-41.0,-13.0,48.0,82.22,56.785,15.731972125,33.95
2021-06-21 17:24:41.625000000,-41.0,-13.0,48.0,82.22,56.36,15.731812000000001,33.95
2021-06-21 17:24:41.632812500,-41.0,-13.0,48.0,82.22,55.26,15.731651875,33.95
2021-06-21 17:24:41.640625000,-41.0,-13.0,48.0,82.22,54.16,15.73149175,33.95
2021-06-21 17:24:41.648437500,-41.0,-13.0,48.0,82.22,52.42,15.731331625000001,33.95
2021-06-21 17:24:41.656250000,-41.0,-13.0,48.0,82.22,50.68,15.7311715,33.95
2021-06-21 17:24:41.664062500,-41.0,-13.0,48.0,82.22,48.489999999999995,15.731011375000001,33.95
2021-06-21 17:24:41.671875000,-41.0,-13.0,48.0,82.22,46.3,15.73085125,33.95
2021-06-21 17:24:41.679687500,-41.0,-13.0,48.0,82.22,43.894999999999996,15.730691125,33.95
2021-06-21 17:24:41.687500000,-41.0,-13.0,48.0,82.22,41.49,15.730531000000001,33.95
2021-06-21 17:24:41.695312500,-41.0,-13.0,48.0,82.22,39.144999999999996,15.730370875,33.95
2021-06-21 17:24:41.703125000,-41.0,-13.0,48.0,82.22,36.8,15.730210750000001,33.95
2021-06-21 17:24:41.710937500,-41.0,-13.0,48.0,82.22,34.69,15.730050625,33.95
2021-06-21 17:24:41.718750000,-41.0,-13.0,48.0,82.22,32.58,15.7298905,33.95
2021-06-21 17:24:41.726562500,-41.0,-13.0,48.0,82.22,30.784999999999997,15.729730375,33.95
2021-06-21 17:24:41.734375000,-41.0,-13.0,48.0,82.22,28.99,15.72957025,33.95
2021-06-21 17:24:41.742187500,-41.0,-13.0,48.0,82.22,27.46,15.729410125000001,33.95
2021-06-21 17:24:41.750000000,-41.0,-13.0,48.0,82.22,25.93,15.72925,33.95
2021-06-21 17:24:41.757812500,-41.0,-13.0,48.0,82.22,24.54,15.728809625,33.95
2021-06-21 17:24:41.765625000,-41.0,-13.0,48.0,82.22,23.15,15.72836925,33.95
2021-06-21 17:24:41.773437500,-41.0,-13.0,48.0,82.22,21.71,15.727928875,33.95
2021-06-21 17:24:41.781250000,-41.0,-13.0,48.0,82.22,20.27,15.7274885,33.95
2021-06-21 17:24:41.789062500,-41.0,-13.0,48.0,82.22,18.615000000000002,15.727048125,33.95
2021-06-21 17:24:41.796875000,-41.0,-13.0,48.0,82.22,16.96,15.726607750000001,33.95
2021-06-21 17:24:41.804687500,-41.0,-13.0,48.0,82.22,14.935,15.726167375000001,33.95
2021-06-21 17:24:41.812500000,-41.0,-13.0,48.0,82.22,12.91,15.725727000000001,33.95
2021-06-21 17:24:41.820312500,-41.0,-13.0,48.0,82.22,10.435,15.725286625,33.95
2021-06-21 17:24:41.828125000,-41.0,-13.0,48.0,82.22,7.96,15.72484625,33.95
2021-06-21 17:24:41.835937500,-41.0,-13.0,48.0,82.22,5.01,15.724405875,33.95
2021-06-21 17:24:41.843750000,-41.0,-13.0,48.0,82.22,2.06,15.7239655,33.95
2021-06-21 17:24:41.851562500,-41.0,-13.0,48.0,82.22,-1.3000000000000003,15.723525125,33.95
2021-06-21 17:24:41.859375000,-41.0,-13.0,48.0,82.22,-4.66,15.72308475,33.95
2021-06-21 17:24:41.867187500,-41.0,-13.0,48.0,82.22,-8.275,15.722644375,33.95
2021-06-21 17:24:41.875000000,-41.0,-13.0,48.0,82.22,-11.89,15.722204000000001,33.95
2021-06-21 17:24:41.882812500,-41.0,-13.0,48.0,82.22,-15.465,15.721763625000001,33.95
2021-06-21 17:24:41.890625000,-41.0,-13.0,48.0,82.22,-19.04,15.721323250000001,33.95
2021-06-21 17:24:41.898437500,-41.0,-13.0,48.0,82.22,-22.189999999999998,15.720882875000001,33.95
2021-06-21 17:24:41.906250000,-41.0,-13.0,48.0,82.22,-25.34,15.7204425,33.95
2021-06-21 17:24:41.914062500,-41.0,-13.0,48.0,82.22,-27.665,15.720002125,33.95
2021-06-21 17:24:41.921875000,-41.0,-13.0,48.0,82.22,-29.99,15.71956175,33.95
2021-06-21 17:24:41.929687500,-41.0,-13.0,48.0,82.22,-31.240000000000002,15.719121375,33.95
2021-06-21 17:24:41.937500000,-41.0,-13.0,48.0,82.22,-32.49,15.718681,33.95
2021-06-21 17:24:41.945312500,-41.0,-13.0,48.0,82.22,-32.655,15.718240625,33.95
2021-06-21 17:24:41.953125000,-41.0,-13.0,48.0,82.22,-32.82,15.71780025,33.95
2021-06-21 17:24:41.960937500,-41.0,-13.0,48.0,82.22,-32.2,15.717359875000001,33.95
2021-06-21 17:24:41.968750000,-41.0,-13.0,48.0,82.22,-31.58,15.716919500000001,33.95
2021-06-21 17:24:41.976562500,-41.0,-13.0,48.0,82.22,-30.71,15.716479125000001,33.95
2021-06-21 17:24:41.984375000,-41.0,-13.0,48.0,82.22,-29.84,15.716038750000001,33.95
2021-06-21 17:24:41.992187500,-41.0,-13.0,48.0,82.22,-29.25,15.715598375,33.95
2021-06-21 17:24:42.000000000,-41.0,-13.0,48.0,82.22,-28.66,15.715158,33.95
2021-06-21 17:24:42.007812500,-41.0,-13.0,48.0,82.220390625,-28.71,15.71495784375,33.949375
2021-06-21 17:24:42.015625000,-41.0,-13.0,48.0,82.22078125,-28.76,15.7147576875,33.948750000000004
2021-06-21 17:24:42.023437500,-41.0,-13.0,48.0,82.221171875,-29.545,15.714557531250001,33.948125000000005
2021-06-21 17:24:42.031250000,-41.0,-13.0,48.0,82.2215625,-30.33,15.714357375,33.947500000000005
2021-06-21 17:24:42.039062500,-41.0,-13.0,48.0,82.221953125,-31.675,15.71415721875,33.946875000000006
2021-06-21 17:24:42.046875000,-41.0,-13.0,48.0,82.22234375,-33.02,15.7139570625,33.94625
2021-06-21 17:24:42.054687500,-41.0,-13.0,48.0,82.222734375,-34.665000000000006,15.713756906250001,33.945625
2021-06-21 17:24:42.062500000,-41.0,-13.0,48.0,82.223125,-36.31,15.71355675,33.945
2021-06-21 17:24:42.070312500,-41.0,-12.75,48.0,82.223515625,-38.019999999999996,15.71335659375,33.944375
2021-06-21 17:24:42.078125000,-41.0,-12.5,48.0,82.22390625,-39.73,15.7131564375,33.94375
2021-06-21 17:24:42.085937500,-41.0,-12.25,48.0,82.224296875,-41.45,15.712956281250001,33.943125
2021-06-21 17:24:42.093750000,-41.0,-12.0,48.0,82.2246875,-43.17,15.712756125,33.9425
2021-06-21 17:24:42.101562500,-41.0,-12.25,48.0,82.225078125,-44.995000000000005,15.71255596875,33.941875
2021-06-21 17:24:42.109375000,-41.0,-12.5,48.0,82.22546875,-46.82,15.7123558125,33.941250000000004
2021-06-21 17:24:42.117187500,-41.0,-12.75,48.0,82.225859375,-48.935,15.712155656250001,33.940625000000004
2021-06-21 17:24:42.125000000,-41.0,-13.0,48.0,82.22625,-51.05,15.7119555,33.94
2021-06-21 17:24:42.132812500,-40.75,-13.0,48.0,82.226640625,-53.629999999999995,15.71175534375,33.939375
2021-06-21 17:24:42.140625000,-40.5,-13.0,48.0,82.22703125,-56.21,15.7115551875,33.93875
2021-06-21 17:24:42.148437500,-40.25,-13.0,48.0,82.227421875,-59.345,15.711355031250001,33.938125
2021-06-21 17:24:42.156250000,-40.0,-13.0,48.0,82.2278125,-62.48,15.711154875,33.9375
2021-06-21 17:24:42.164062500,-40.25,-13.0,48.0,82.228203125,-66.125,15.71095471875,33.936875
2021-06-21 17:24:42.171875000,-40.5,-13.0,48.0,82.22859375,-69.77,15.7107545625,33.93625
2021-06-21 17:24:42.179687500,-40.75,-13.0,48.0,82.228984375,-73.66999999999999,15.71055440625,33.935625
2021-06-21 17:24:42.187500000,-41.0,-13.0,48.0,82.229375,-77.57,15.71035425,33.935
2021-06-21 17:24:42.195312500,-41.0,-13.0,48.0,82.229765625,-81.255,15.710154093749999,33.934375
2021-06-21 17:24:42.203125000,-41.0,-13.0,48.0,82.23015625,-84.94,15.7099539375,33.93375
2021-06-21 17:24:42.210937500,-41.0,-13.0,48.0,82.230546875,-87.745,15.70975378125,33.933125
2021-06-21 17:24:42.218750000,-41.0,-13.0,48.0,82.2309375,-90.55,15.709553625,33.9325
2021-06-21 17:24:42.226562500,-41.0,-12.75,48.0,82.231328125,-91.695,15.709353468749999,33.931875
2021-06-21 17:24:42.234375000,-41.0,-12.5,48.0,82.23171875,-92.84,15.7091533125,33.93125
2021-06-21 17:24:42.242187500,-41.0,-12.25,48.0,82.232109375,-91.62,15.70895315625,33.930625
2021-06-21 17:24:42.250000000,-41.0,-12.0,48.0,82.2325,-90.4,15.708753,33.93
2021-06-21 17:24:42.257812500,-41.0,-12.25,48.0,82.232890625,-86.41,15.70847271875,33.93
2021-06-21 17:24:42.265625000,-41.0,-12.5,48.0,82.23328125,-82.42,15.7081924375,33.93
2021-06-21 17:24:42.273437500,-41.0,-12.75,48.0,82.233671875,-75.715,15.70791215625,33.93
2021-06-21 17:24:42.281250000,-41.0,-13.0,48.0,82.2340625,-69.01,15.707631875,33.93
2021-06-21 17:24:42.289062500,-41.0,-13.0,48.25,82.234453125,-60.11,15.70735159375,33.93
2021-06-21 17:24:42.296875000,-41.0,-13.0,48.5,82.23484375,-51.21,15.7070713125,33.93
2021-06-21 17:24:42.304687500,-41.0,-13.0,48.75,82.235234375,-41.035,15.706791031249999,33.93
2021-06-21 17:24:42.312500000,-41.0,-13.0,49.0,82.235625,-30.86,15.70651075,33.93
2021-06-21 17:24:42.320312500,-41.0,-13.0,49.0,82.236015625,-20.495,15.70623046875,33.93
2021-06-21 17:24:42.328125000,-41.0,-13.0,49.0,82.23640625,-10.13,15.7059501875,33.93
2021-06-21 17:24:42.335937500,-41.0,-13.0,49.0,82.236796875,-0.5900000000000016,15.70566990625,33.93
2021-06-21 17:24:42.343750000,-41.0,-13.0,49.0,82.2371875,8.95,15.705389624999999,33.93
2021-06-21 17:24:42.351562500,-40.75,-13.0,49.0,82.237578125,16.92,15.70510934375,33.93
2021-06-21 17:24:42.359375000,-40.5,-13.0,49.0,82.23796875,24.89,15.7048290625,33.93
2021-06-21 17:24:42.367187500,-40.25,-13.0,49.0,82.238359375,30.885,15.704548781249999,33.93
2021-06-21 17:24:42.375000000,-40.0,-13.0,49.0,82.23875,36.88,15.7042685,33.93
2021-06-21 17:24:42.382812500,-40.0,-13.0,49.0,82.239140625,40.82,15.70398821875,33.93
2021-06-21 17:24:42.390625000,-40.0,-13.0,49.0,82.23953125,44.76,15.703707937499999,33.93
2021-06-21 17:24:42.398437500,-40.0,-13.0,49.0,82.239921875,46.769999999999996,15.70342765625,33.93
2021-06-21 17:24:42.406250000,-40.0,-13.0,49.0,82.2403125,48.78,15.703147375,33.93
2021-06-21 17:24:42.414062500,-40.0,-13.0,48.75,82.240703125,49.125,15.70286709375,33.93
2021-06-21 17:24:42.421875000,-40.0,-13.0,48.5,82.24109375,49.47,15.7025868125,33.93
2021-06-21 17:24:42.429687500,-40.0,-13.0,48.25,82.241484375,48.480000000000004,15.702306531249999,33.93
2021-06-21 17:24:42.437500000,-40.0,-13.0,48.0,82.241875,47.49,15.70202625,33.93
2021-06-21 17:24:42.445312500,-40.0,-13.0,48.25,82.242265625,45.540000000000006,15.70174596875,33.93
2021-06-21 17:24:42.453125000,-40.0,-13.0,48.5,82.24265625,43.59,15.701465687499999,33.93
2021-06-21 17:24:42.460937500,-40.0,-13.0,48.75,82.243046875,41.115,15.70118540625,33.93
2021-06-21 17:24:42.468750000,-40.0,-13.0,49.0,82.2434375,38.64,15.700905124999998,33.93
2021-06-21 17:24:42.476562500,-40.25,-12.75,49.0,82.243828125,36.09,15.70062484375,33.93
2021-06-21 17:24:42.484375000,-40.5,-12.5,49.0,82.24421875,33.54,15.7003445625,33.93
2021-06-21 17:24:42.492187500,-40.75,-12.25,49.0,82.244609375,31.369999999999997,15.700064281249999,33.93
2021-06-21 17:24:42.500000000,-41.0,-12.0,49.0,82.245,29.2,15.699784,33.93
2021-06-21 17:24:42.507812500,-41.0,-12.0,48.75,82.245390625,27.759999999999998,15.699784,33.93
2021-06-21 17:24:42.515625000,-41.0,-12.0,48.5,82.24578125,26.32,15.699784,33.93
2021-06-21 17:24:42.523437500,-41.0,-12.0,48.25,82.246171875,25.810000000000002,15.699784,33.93
2021-06-21 17:24:42.531250000,-41.0,-12.0,48.0,82.2465625,25.3,15.699784,33.93
2021-06-21 17:24:42.539062500,-41.0,-12.25,48.0,82.24695312499999,25.72,15.699784,33.93
2021-06-21 17:24:42.546875000,-41.0,-12.5,48.0,82.24734375,26.14,15.699784,33.93
2021-06-21 17:24:42.554687500,-41.0,-12.75,48.0,82.247734375,27.32,15.699784,33.93
2021-06-21 17:24:42.562500000,-41.0,-13.0,48.0,82.248125,28.5,15.699784,33.93
2021-06-21 17:24:42.570312500,-41.0,-13.0,48.0,82.248515625,30.17,15.699784,33.93
2021-06-21 17:24:42.578125000,-41.0,-13.0,48.0,82.24890624999999,31.84,15.699784,33.93
2021-06-21 17:24:42.585937500,-41.0,-13.0,48.0,82.249296875,33.7,15.699784,33.93
2021-06-21 17:24:42.593750000,-41.0,-13.0,48.0,82.2496875,35.56,15.699784,33.93
2021-06-21 17:24:42.601562500,-41.0,-13.0,48.0,82.250078125,37.355000000000004,15.699784,33.93
2021-06-21 17:24:42.609375000,-41.0,-13.0,48.0,82.25046875,39.15,15.699784,33.93
2021-06-21 17:24:42.617187500,-41.0,-13.0,48.0,82.25085937499999,40.715,15.699784,33.93
2021-06-21 17:24:42.625000000,-41.0,-13.0,48.0,82.25125,42.28,15.699784,33.93
2021-06-21 17:24:42.632812500,-41.0,-13.0,48.0,82.251640625,43.5,15.699784,33.93
2021-06-21 17:24:42.640625000,-41.0,-13.0,48.0,82.25203125,44.72,15.699784,33.93
2021-06-21 17:24:42.648437500,-41.0,-13.0,48.0,82.252421875,45.525,15.699784,33.93
2021-06-21 17:24:42.656250000,-41.0,-13.0,48.0,82.25281249999999,46.33,15.699784,33.93
2021-06-21 17:24:42.664062500,-41.0,-13.0,48.0,82.253203125,46.685,15.699784,33.93
2021-06-21 17:24:42.671875000,-41.0,-13.0,48.0,82.25359375,47.04,15.699784,33.93
2021-06-21 17:24:42.679687500,-41.0,-13.0,48.0,82.253984375,46.885,15.699784,33.93
2021-06-21 17:24:42.687500000,-41.0,-13.0,48.0,82.254375,46.73,15.699784,33.93
2021-06-21 17:24:42.695312500,-41.0,-12.75,48.0,82.25476562499999,46.05,15.699784,33.93
2021-06-21 17:24:42.703125000,-41.0,-12.5,48.0,82.25515625,45.37,15.699784,33.93
2021-06-21 17:24:42.710937500,-41.0,-12.25,48.0,82.255546875,44.18,15.699784,33.93
2021-06-21 17:24:42.718750000,-41.0,-12.0,48.0,82.2559375,42.99,15.699784,33.93
2021-06-21 17:24:42.726562500,-41.0,-12.0,48.0,82.256328125,41.370000000000005,15.699784,33.93
2021-06-21 17:24:42.734375000,-41.0,-12.0,48.0,82.25671874999999,39.75,15.699784,33.93
2021-06-21 17:24:42.742187500,-41.0,-12.0,48.0,82.257109375,37.85,15.699784,33.93
2021-06-21 17:24:42.750000000,-41.0,-12.0,48.0,82.2575,35.95,15.699784,33.93
2021-06-21 17:24:42.757812500,-41.0,-12.25,48.0,82.257890625,33.94,15.699263562499999,33.93
2021-06-21 17:24:42.765625000,-41.0,-12.5,48.0,82.25828125,31.93,15.698743125,33.93
2021-06-21 17:24:42.773437500,-41.0,-12.75,48.0,82.25867187499999,29.96,15.6982226875,33.93
2021-06-21 17:24:42.781250000,-41.0,-13.0,48.0,82.2590625,27.99,15.697702249999999,33.93
2021-06-21 17:24:42.789062500,-41.0,-13.0,48.0,82.259453125,26.13,15.6971818125,33.93
2021-06-21 17:24:42.796875000,-41.0,-13.0,48.0,82.25984375,24.27,15.696661375,33.93
2021-06-21 17:24:42.804687500,-41.0,-13.0,48.0,82.260234375,22.53,15.6961409375,33.93
2021-06-21 17:24:42.812500000,-41.0,-13.0,48.0,82.26062499999999,20.79,15.6956205,33.93
2021-06-21 17:24:42.820312500,-41.0,-13.0,48.25,82.261015625,19.125,15.6951000625,33.93
2021-06-21 17:24:42.828125000,-41.0,-13.0,48.5,82.26140625,17.46,15.694579625,33.93
2021-06-21 17:24:42.835937500,-41.0,-13.0,48.75,82.261796875,15.845,15.694059187499999,33.93
2021-06-21 17:24:42.843750000,-41.0,-13.0,49.0,82.2621875,14.23,15.69353875,33.93
2021-06-21 17:24:42.851562500,-40.75,-13.0,49.0,82.26257812499999,12.645,15.6930183125,33.93
2021-06-21 17:24:42.859375000,-40.5,-13.0,49.0,82.26296875,11.06,15.692497874999999,33.93
2021-06-21 17:24:42.867187500,-40.25,-13.0,49.0,82.263359375,9.505,15.6919774375,33.93
2021-06-21 17:24:42.875000000,-40.0,-13.0,49.0,82.26375,7.95,15.691457,33.93
2021-06-21 17:24:42.882812500,-40.0,-13.0,48.75,82.264140625,6.41,15.6909365625,33.93
2021-06-21 17:24:42.890625000,-40.0,-13.0,48.5,82.26453124999999,4.87,15.690416125,33.93
2021-06-21 17:24:42.898437500,-40.0,-13.0,48.25,82.264921875,3.285,15.6898956875,33.93
2021-06-21 17:24:42.906250000,-40.0,-13.0,48.0,82.2653125,1.7,15.68937525,33.93
2021-06-21 17:24:42.914062500,-40.0,-13.0,48.0,82.265703125,0.020000000000000018,15.6888548125,33.93
2021-06-21 17:24:42.921875000,-40.0,-13.0,48.0,82.26609375,-1.66,15.688334375,33.93
2021-06-21 17:24:42.929687500,-40.0,-13.0,48.0,82.26648437499999,-3.46,15.6878139375,33.93
2021-06-21 17:24:42.937500000,-40.0,-13.0,48.0,82.266875,-5.26,15.6872935,33.93
2021-06-21 17:24:42.945312500,-40.25,-13.0,48.0,82.267265625,-7.12,15.6867730625,33.93
2021-06-21 17:24:42.953125000,-40.5,-13.0,48.0,82.26765625,-8.98,15.686252625,33.93
2021-06-21 17:24:42.960937500,-40.75,-13.0,48.0,82.268046875,-10.785,15.6857321875,33.93
2021-06-21 17:24:42.968750000,-41.0,-13.0,48.0,82.26843749999999,-12.59,15.68521175,33.93
2021-06-21 17:24:42.976562500,-41.0,-13.0,48.0,82.268828125,-14.245000000000001,15.6846913125,33.93
2021-06-21 17:24:42.984375000,-41.0,-13.0,48.0,82.26921875,-15.9,15.684170875,33.93
2021-06-21 17:24:42.992187500,-41.0,-13.0,48.0,82.269609375,-17.37,15.6836504375,33.93
2021-06-21 17:24:43.000000000,-41.0,-13.0,48.0,82.27,-18.84,15.68313,33.93
2021-06-21 17:24:43.007812500,-41.0,-13.0,48.0,82.27039062499999,-20.225,15.682089093750001,33.93
2021-06-21 17:24:43.015625000,-41.0,-13.0,48.0,82.27078125,-21.61,15.6810481875,33.93
2021-06-21 17:24:43.023437500,-41.0,-13.0,48.0,82.271171875,-23.085,15.68000728125,33.93
2021-06-21 17:24:43.031250000,-41.0,-13.0,48.0,82.2715625,-24.56,15.678966375,33.93
2021-06-21 17:24:43.039062500,-41.0,-13.0,48.0,82.271953125,-26.275,15.67792546875,33.93
2021-06-21 17:24:43.046875000,-41.0,-13.0,48.0,82.27234374999999,-27.99,15.6768845625,33.93
2021-06-21 17:24:43.054687500,-41.0,-13.0,48.0,82.272734375,-30.0,15.67584365625,33.93
2021-06-21 17:24:43.062500000,-41.0,-13.0,48.0,82.273125,-32.01,15.67480275,33.93
2021-06-21 17:24:43.070312500,-41.0,-13.0,48.0,82.273515625,-34.235,15.67376184375,33.93
2021-06-21 17:24:43.078125000,-41.0,-13.0,48.0,82.27390625,-36.46,15.6727209375,33.93
2021-06-21 17:24:43.085937500,-41.0,-13.0,48.0,82.27429687499999,-38.745000000000005,15.67168003125,33.93
2021-06-21 17:24:43.093750000,-41.0,-13.0,48.0,82.2746875,-41.03,15.670639125,33.93
2021-06-21 17:24:43.101562500,-41.0,-13.0,48.0,82.275078125,-43.215,15.66959821875,33.93
2021-06-21 17:24:43.109375000,-41.0,-13.0,48.0,82.27546875,-45.4,15.668557312499999,33.93
2021-06-21 17:24:43.117187500,-41.0,-13.0,48.0,82.275859375,-47.425,15.66751640625,33.93
2021-06-21 17:24:43.125000000,-41.0,-13.0,48.0,82.27624999999999,-49.45,15.6664755,33.93
2021-06-21 17:24:43.132812500,-41.0,-13.0,48.0,82.276640625,-51.355000000000004,15.66543459375,33.93
2021-06-21 17:24:43.140625000,-41.0,-13.0,48.0,82.27703125,-53.26,15.6643936875,33.93
2021-06-21 17:24:43.148437500,-41.0,-13.0,48.0,82.277421875,-55.205,15.66335278125,33.93
2021-06-21 17:24:43.156250000,-41.0,-13.0,48.0,82.2778125,-57.15,15.662311875,33.93
2021-06-21 17:24:43.164062500,-40.75,-13.0,48.0,82.27820312499999,-59.335,15.66127096875,33.93
2021-06-21 17:24:43.171875000,-40.5,-13.0,48.0,82.27859375,-61.52,15.6602300625,33.93
2021-06-21 17:24:43.179687500,-40.25,-13.0,48.0,82.278984375,-64.175,15.65918915625,33.93
2021-06-21 17:24:43.187500000,-40.0,-13.0,48.0,82.279375,-66.83,15.65814825,33.93
2021-06-21 17:24:43.195312500,-40.0,-13.0,48.0,82.279765625,-70.1,15.657107343749999,33.93
2021-06-21 17:24:43.203125000,-40.0,-13.0,48.0,82.28015624999999,-73.37,15.6560664375,33.93
2021-06-21 17:24:43.210937500,-40.0,-13.0,48.0,82.280546875,-77.27000000000001,15.655025531249999,33.93
2021-06-21 17:24:43.218750000,-40.0,-13.0,48.0,82.2809375,-81.17,15.653984625,33.93
2021-06-21 17:24:43.226562500,-40.0,-13.0,48.0,82.281328125,-85.43,15.652943718749999,33.93
2021-06-21 17:24:43.234375000,-40.0,-13.0,48.0,82.28171875,-89.69,15.6519028125,33.93
2021-06-21 17:24:43.242187500,-40.0,-13.0,48.0,82.28210937499999,-93.745,15.650861906249999,33.93
2021-06-21 17:24:43.250000000,-40.0,-13.0,48.0,82.2825,-97.8,15.649821,33.93
2021-06-21 17:24:43.257812500,-40.0,-13.0,48.0,82.282890625,-100.805,15.64998115625,33.93
2021-06-21 17:24:43.265625000,-40.0,-13.0,48.0,82.28328125,-103.81,15.650141312499999,33.93
2021-06-21 17:24:43.273437500,-40.0,-13.0,48.0,82.283671875,-104.795,15.65030146875,33.93
2021-06-21 17:24:43.281250000,-40.0,-13.0,48.0,82.28406249999999,-105.78,15.650461625,33.93
2021-06-21 17:24:43.289062500,-40.25,-13.0,48.0,82.284453125,-103.95,15.650621781249999,33.93
2021-06-21 17:24:43.296875000,-40.5,-13.0,48.0,82.28484375,-102.12,15.6507819375,33.93
2021-06-21 17:24:43.304687500,-40.75,-13.0,48.0,82.285234375,-97.105,15.65094209375,33.93
2021-06-21 17:24:43.312500000,-41.0,-13.0,48.0,82.285625,-92.09,15.65110225,33.93
2021-06-21 17:24:43.320312500,-41.0,-13.0,48.0,82.28601562499999,-84.15,15.65126240625,33.93
2021-06-21 17:24:43.328125000,-41.0,-13.0,48.0,82.28640625,-76.21,15.6514225625,33.93
2021-06-21 17:24:43.335937500,-41.0,-13.0,48.0,82.286796875,-66.17,15.65158271875,33.93
2021-06-21 17:24:43.343750000,-41.0,-13.0,48.0,82.2871875,-56.13,15.651742875,33.93
2021-06-21 17:24:43.351562500,-41.0,-13.0,48.0,82.287578125,-45.185,15.65190303125,33.93
2021-06-21 17:24:43.359375000,-41.0,-13.0,48.0,82.28796874999999,-34.24,15.6520631875,33.93
2021-06-21 17:24:43.367187500,-41.0,-13.0,48.0,82.288359375,-23.625,15.65222334375,33.93
2021-06-21 17:24:43.375000000,-41.0,-13.0,48.0,82.28875,-13.01,15.6523835,33.93
2021-06-21 17:24:43.382812500,-40.75,-13.0,48.0,82.289140625,-3.6850000000000005,15.65254365625,33.93
2021-06-21 17:24:43.390625000,-40.5,-13.0,48.0,82.28953125,5.64,15.6527038125,33.93
2021-06-21 17:24:43.398437500,-40.25,-13.0,48.0,82.28992187499999,13.099999999999998,15.65286396875,33.93
2021-06-21 17:24:43.406250000,-40.0,-13.0,48.0,82.2903125,20.56,15.653024125,33.93
2021-06-21 17:24:43.414062500,-40.25,-13.0,48.0,82.290703125,26.035,15.65318428125,33.93
2021-06-21 17:24:43.421875000,-40.5,-13.0,48.0,82.29109375,31.51,15.6533444375,33.93
2021-06-21 17:24:43.429687500,-40.75,-13.0,48.0,82.291484375,35.125,15.65350459375,33.93
2021-06-21 17:24:43.437500000,-41.0,-13.0,48.0,82.29187499999999,38.74,15.65366475,33.93
2021-06-21 17:24:43.445312500,-41.0,-13.0,48.0,82.292265625,40.760000000000005,15.65382490625,33.93
2021-06-21 17:24:43.453125000,-41.0,-13.0,48.0,82.29265625,42.78,15.6539850625,33.93
2021-06-21 17:24:43.460937500,-41.0,-13.0,48.0,82.293046875,43.445,15.654145218750001,33.93
2021-06-21 17:24:43.468750000,-41.0,-13.0,48.0,82.2934375,44.11,15.654305375,33.93
2021-06-21 17:24:43.476562500,-41.0,-13.0,48.0,82.29382812499999,43.66,15.65446553125,33.93
2021-06-21 17:24:43.484375000,-41.0,-13.0,48.0,82.29421875,43.21,15.654625687500001,33.93
2021-06-21 17:24:43.492187500,-41.0,-13.0,48.0,82.294609375,41.89,15.65478584375,33.93
2021-06-21 17:24:43.500000000,-41.0,-13.0,48.0,82.29499999999999,40.57,15.654946,33.93
2021-06-21 17:24:43.507812500,-41.0,-13.0,48.0,82.295390625,38.705,15.65442553125,33.93
2021-06-21 17:24:43.515625000,-41.0,-13.0,48.0,82.29578124999999,36.84,15.653905062500002,33.93
2021-06-21 17:24:43.523437500,-41.0,-13.0,48.0,82.296171875,34.80500000000001,15.653384593750001,33.93
2021-06-21 17:24:43.531250000,-41.0,-13.0,48.0,82.2965625,32.77,15.652864125,33.93
2021-06-21 17:24:43.539062500,-41.25,-12.75,48.25,82.29695312499999,30.94,15.65234365625,33.93
2021-06-21 17:24:43.546875000,-41.5,-12.5,48.5,82.29734375,29.11,15.6518231875,33.93
2021-06-21 17:24:43.554687500,-41.75,-12.25,48.75,82.29773437499999,27.799999999999997,15.651302718750001,33.93
2021-06-21 17:24:43.562500000,-42.0,-12.0,49.0,82.298125,26.49,15.65078225,33.93
2021-06-21 17:24:43.570312500,-41.75,-12.25,49.0,82.298515625,25.835,15.65026178125,33.93
2021-06-21 17:24:43.578125000,-41.5,-12.5,49.0,82.29890624999999,25.18,15.649741312500002,33.93
2021-06-21 17:24:43.585937500,-41.25,-12.75,49.0,82.299296875,25.17,15.649220843750001,33.93
2021-06-21 17:24:43.593750000,-41.0,-13.0,49.0,82.29968749999999,25.16,15.648700375,33.93
2021-06-21 17:24:43.601562500,-41.0,-13.25,48.75,82.300078125,25.645,15.64817990625,33.93
2021-06-21 17:24:43.609375000,-41.0,-13.5,48.5,82.30046875,26.13,15.6476594375,33.93
2021-06-21 17:24:43.617187500,-41.0,-13.75,48.25,82.30085937499999,26.96,15.647138968750001,33.93
2021-06-21 17:24:43.625000000,-41.0,-14.0,48.0,82.30125,27.79,15.6466185,33.93
2021-06-21 17:24:43.632812500,-40.75,-13.75,48.0,82.30164062499999,28.85,15.64609803125,33.93
2021-06-21 17:24:43.640625000,-40.5,-13.5,48.0,82.30203125,29.91,15.645577562500002,33.93
2021-06-21 17:24:43.648437500,-40.25,-13.25,48.0,82.302421875,31.17,15.645057093750001,33.93
2021-06-21 17:24:43.656250000,-40.0,-13.0,48.0,82.30281249999999,32.43,15.644536625,33.93
2021-06-21 17:24:43.664062500,-40.25,-13.0,48.0,82.303203125,33.864999999999995,15.64401615625,33.93
2021-06-21 17:24:43.671875000,-40.5,-13.0,48.0,82.30359374999999,35.3,15.6434956875,33.93
2021-06-21 17:24:43.679687500,-40.75,-13.0,48.0,82.303984375,36.84,15.642975218750001,33.93
2021-06-21 17:24:43.687500000,-41.0,-13.0,48.0,82.304375,38.38,15.64245475,33.93
2021-06-21 17:24:43.695312500,-41.0,-13.0,48.25,82.30476562499999,39.82,15.64193428125,33.93
2021-06-21 17:24:43.703125000,-41.0,-13.0,48.5,82.30515625,41.26,15.641413812500002,33.93
2021-06-21 17:24:43.710937500,-41.0,-13.0,48.75,82.30554687499999,42.315,15.640893343750001,33.93
2021-06-21 17:24:43.718750000,-41.0,-13.0,49.0,82.3059375,43.37,15.640372875,33.93
2021-06-21 17:24:43.726562500,-40.75,-13.0,48.75,82.306328125,43.75,15.63985240625,33.93
2021-06-21 17:24:43.734375000,-40.5,-13.0,48.5,82.30671874999999,44.13,15.6393319375,33.93
2021-06-21 17:24:43.742187500,-40.25,-13.0,48.25,82.307109375,43.675,15.638811468750001,33.93
2021-06-21 17:24:43.750000000,-40.0,-13.0,48.0,82.30749999999999,43.22,15.638291,33.93
2021-06-21 17:24:43.757812500,-40.0,-13.0,48.0,82.307890625,41.97,15.63857128125,33.93
2021-06-21 17:24:43.765625000,-40.0,-13.0,48.0,82.30828125,40.72,15.638851562500001,33.93
2021-06-21 17:24:43.773437500,-40.0,-13.0,48.0,82.30867187499999,38.894999999999996,15.63913184375,33.93
2021-06-21 17:24:43.781250000,-40.0,-13.0,48.0,82.3090625,37.07,15.639412125,33.93
2021-06-21 17:24:43.789062500,-40.25,-13.0,48.0,82.30945312499999,34.980000000000004,15.639692406250001,33.93
2021-06-21 17:24:43.796875000,-40.5,-13.0,48.0,82.30984375,32.89,15.6399726875,33.93
2021-06-21 17:24:43.804687500,-40.75,-13.0,48.0,82.310234375,30.805,15.64025296875,33.93
2021-06-21 17:24:43.812500000,-41.0,-13.0,48.0,82.31062499999999,28.72,15.64053325,33.93
2021-06-21 17:24:43.820312500,-41.0,-12.75,48.0,82.311015625,26.795,15.64081353125,33.93
2021-06-21 17:24:43.828125000,-41.0,-12.5,48.0,82.31140624999999,24.87,15.6410938125,33.93
2021-06-21 17:24:43.835937500,-41.0,-12.25,48.0,82.311796875,23.095,15.64137409375,33.93
2021-06-21 17:24:43.843750000,-41.0,-12.0,48.0,82.3121875,21.32,15.641654375,33.93
2021-06-21 17:24:43.851562500,-41.0,-12.0,48.0,82.31257812499999,19.59,15.64193465625,33.93
2021-06-21 17:24:43.859375000,-41.0,-12.0,48.0,82.31296875,17.86,15.6422149375,33.93
2021-06-21 17:24:43.867187500,-41.0,-12.0,48.0,82.31335937499999,16.045,15.64249521875,33.93
2021-06-21 17:24:43.875000000,-41.0,-12.0,48.0,82.31375,14.23,15.642775499999999,33.93
2021-06-21 17:24:43.882812500,-41.0,-12.25,48.25,82.314140625,12.27,15.64305578125,33.93
2021-06-21 17:24:43.890625000,-41.0,-12.5,48.5,82.31453124999999,10.31,15.6433360625,33.93
2021-06-21 17:24:43.898437500,-41.0,-12.75,48.75,82.314921875,8.2,15.64361634375,33.93
2021-06-21 17:24:43.906250000,-41.0,-13.0,49.0,82.31531249999999,6.09,15.643896625,33.93
2021-06-21 17:24:43.914062500,-41.0,-13.0,48.75,82.315703125,3.91,15.64417690625,33.93
2021-06-21 17:24:43.921875000,-41.0,-13.0,48.5,82.31609375,1.73,15.6444571875,33.93
2021-06-21 17:24:43.929687500,-41.0,-13.0,48.25,82.31648437499999,-0.38500000000000023,15.64473746875,33.93
2021-06-21 17:24:43.937500000,-41.0,-13.0,48.0,82.316875,-2.5,15.64501775,33.93
2021-06-21 17:24:43.945312500,-40.75,-13.0,48.0,82.31726562499999,-4.445,15.64529803125,33.93
2021-06-21 17:24:43.953125000,-40.5,-13.0,48.0,82.31765625,-6.39,15.6455783125,33.93
2021-06-21 17:24:43.960937500,-40.25,-13.0,48.0,82.318046875,-8.06,15.645858593749999,33.93
2021-06-21 17:24:43.968750000,-40.0,-13.0,48.0,82.31843749999999,-9.73,15.646138875,33.93
2021-06-21 17:24:43.976562500,-40.0,-13.0,48.0,82.318828125,-11.09,15.64641915625,33.93
2021-06-21 17:24:43.984375000,-40.0,-13.0,48.0,82.31921874999999,-12.45,15.646699437499999,33.93
2021-06-21 17:24:43.992187500,-40.0,-13.0,48.0,82.319609375,-13.545,15.64697971875,33.93
2021-06-21 17:24:44.000000000,-40.0,-13.0,48.0,82.32,-14.64,15.64726,33.93
2021-06-21 17:24:44.007812500,-40.25,-13.0,48.0,82.32,-15.575000000000001,15.6472199375,33.93
2021-06-21 17:24:44.015625000,-40.5,-13.0,48.0,82.32,-16.51,15.647179874999999,33.93
2021-06-21 17:24:44.023437500,-40.75,-13.0,48.0,82.32,-17.475,15.647139812499999,33.93
2021-06-21 17:24:44.031250000,-41.0,-13.0,48.0,82.32,-18.44,15.647099749999999,33.93
2021-06-21 17:24:44.039062500,-41.0,-13.0,48.0,82.32,-19.65,15.647059687499999,33.93
2021-06-21 17:24:44.046875000,-41.0,-13.0,48.0,82.32,-20.86,15.647019624999999,33.93
2021-06-21 17:24:44.054687500,-41.0,-13.0,48.0,82.32,-22.48,15.646979562499999,33.93
2021-06-21 17:24:44.062500000,-41.0,-13.0,48.0,82.32,-24.1,15.646939499999998,33.93
2021-06-21 17:24:44.070312500,-41.0,-13.0,48.0,82.32,-26.205,15.6468994375,33.93
2021-06-21 17:24:44.078125000,-41.0,-13.0,48.0,82.32,-28.31,15.646859375,33.93
2021-06-21 17:24:44.085937500,-41.0,-13.0,48.0,82.32,-30.83,15.6468193125,33.93
2021-06-21 17:24:44.093750000,-41.0,-13.0,48.0,82.32,-33.35,15.64677925,33.93
2021-06-21 17:24:44.101562500,-41.0,-13.0,48.0,82.32,-36.085,15.6467391875,33.93
2021-06-21 17:24:44.109375000,-41.0,-13.0,48.0,82.32,-38.82,15.646699125,33.93
2021-06-21 17:24:44.117187500,-41.0,-13.0,48.0,82.32,-41.495000000000005,15.6466590625,33.93
2021-06-21 17:24:44.125000000,-41.0,-13.0,48.0,82.32,-44.17,15.646619,33.93
2021-06-21 17:24:44.132812500,-41.0,-13.0,48.0,82.32,-46.545,15.6465789375,33.93
2021-06-21 17:24:44.140625000,-41.0,-13.0,48.0,82.32,-48.92,15.646538875,33.93
2021-06-21 17:24:44.148437500,-41.0,-13.0,48.0,82.32,-50.865,15.646498812499999,33.93
2021-06-21 17:24:44.156250000,-41.0,-13.0,48.0,82.32,-52.81,15.646458749999999,33.93
2021-06-21 17:24:44.164062500,-41.0,-12.75,48.0,82.32,-54.385000000000005,15.646418687499999,33.93
2021-06-21 17:24:44.171875000,-41.0,-12.5,48.0,82.32,-55.96,15.646378624999999,33.93
2021-06-21 17:24:44.179687500,-41.0,-12.25,48.0,82.32,-57.400000000000006,15.646338562499999,33.93
2021-06-21 17:24:44.187500000,-41.0,-12.0,48.0,82.32,-58.84,15.6462985,33.93
2021-06-21 17:24:44.195312500,-41.0,-12.0,48.0,82.32,-60.52,15.6462584375,33.93
2021-06-21 17:24:44.203125000,-41.0,-12.0,48.0,82.32,-62.2,15.646218375,33.93
2021-06-21 17:24:44.210937500,-41.0,-12.0,48.0,82.32,-64.5,15.6461783125,33.93
2021-06-21 17:24:44.218750000,-41.0,-12.0,48.0,82.32,-66.8,15.64613825,33.93
2021-06-21 17:24:44.226562500,-41.0,-12.25,48.0,82.32,-70.035,15.6460981875,33.93
2021-06-21 17:24:44.234375000,-41.0,-12.5,48.0,82.32,-73.27,15.646058125,33.93
2021-06-21 17:24:44.242187500,-41.0,-12.75,48.0,82.32,-77.485,15.6460180625,33.93
2021-06-21 17:24:44.250000000,-41.0,-13.0,48.0,82.32,-81.7,15.645978,33.93
2021-06-21 17:24:44.257812500,-41.0,-13.0,48.0,82.32,-86.58,15.64613815625,33.93
2021-06-21 17:24:44.265625000,-41.0,-13.0,48.0,82.32,-91.46,15.646298312499999,33.93
2021-06-21 17:24:44.273437500,-41.0,-13.0,48.0,82.32,-96.275,15.64645846875,33.93
2021-06-21 17:24:44.281250000,-41.0,-13.0,48.0,82.32,-101.09,15.646618625,33.93
2021-06-21 17:24:44.289062500,-41.0,-13.0,48.25,82.32,-104.825,15.64677878125,33.93
2021-06-21 17:24:44.296875000,-41.0,-13.0,48.5,82.32,-108.56,15.6469389375,33.93
2021-06-21 17:24:44.304687500,-41.0,-13.0,48.75,82.32,-110.105,15.64709909375,33.93
2021-06-21 17:24:44.312500000,-41.0,-13.0,49.0,82.32,-111.65,15.64725925,33.93
2021-06-21 17:24:44.320312500,-41.0,-13.0,48.75,82.32,-110.165,15.64741940625,33.93
2021-06-21 17:24:44.328125000,-41.0,-13.0,48.5,82.32,-108.68,15.6475795625,33.93
2021-06-21 17:24:44.335937500,-41.0,-13.0,48.25,82.32,-103.845,15.64773971875,33.93
2021-06-21 17:24:44.343750000,-41.0,-13.0,48.0,82.32,-99.01,15.647899875,33.93
2021-06-21 17:24:44.351562500,-41.0,-13.0,48.0,82.32,-91.11,15.648060031250001,33.93
2021-06-21 17:24:44.359375000,-41.0,-13.0,48.0,82.32,-83.21,15.6482201875,33.93
2021-06-21 17:24:44.367187500,-41.0,-13.0,48.0,82.32,-73.085,15.64838034375,33.93
2021-06-21 17:24:44.375000000,-41.0,-13.0,48.0,82.32,-62.96,15.6485405,33.93
2021-06-21 17:24:44.382812500,-41.0,-12.75,48.0,82.32,-51.754999999999995,15.64870065625,33.93
2021-06-21 17:24:44.390625000,-41.0,-12.5,48.0,82.32,-40.55,15.6488608125,33.93
2021-06-21 17:24:44.398437500,-41.0,-12.25,48.0,82.32,-29.439999999999998,15.64902096875,33.93
2021-06-21 17:24:44.406250000,-41.0,-12.0,48.0,82.32,-18.33,15.649181125,33.93
2021-06-21 17:24:44.414062500,-41.25,-12.0,48.0,82.32,-8.315,15.64934128125,33.93
2021-06-21 17:24:44.421875000,-41.5,-12.0,48.0,82.32,1.7,15.6495014375,33.93
2021-06-21 17:24:44.429687500,-41.75,-12.0,48.0,82.32,9.935,15.64966159375,33.93
2021-06-21 17:24:44.437500000,-42.0,-12.0,48.0,82.32,18.17,15.649821750000001,33.93
2021-06-21 17:24:44.445312500,-42.25,-12.0,47.75,82.32,24.275,15.64998190625,33.93
2021-06-21 17:24:44.453125000,-42.5,-12.0,47.5,82.32,30.38,15.6501420625,33.93
2021-06-21 17:24:44.460937500,-42.75,-12.0,47.25,82.32,34.32,15.650302218750001,33.93
2021-06-21 17:24:44.468750000,-43.0,-12.0,47.0,82.32,38.26,15.650462375,33.93
2021-06-21 17:24:44.476562500,-42.75,-11.75,47.5,82.32,40.26,15.65062253125,33.93
2021-06-21 17:24:44.484375000,-42.5,-11.5,48.0,82.32,42.26,15.650782687500001,33.93
2021-06-21 17:24:44.492187500,-42.25,-11.25,48.5,82.32,42.724999999999994,15.65094284375,33.93
2021-06-21 17:24:44.500000000,-42.0,-11.0,49.0,82.32,43.19,15.651103,33.93
2021-06-21 17:24:44.507812500,-41.75,-11.0,48.5,82.32,42.61,15.65026228125,33.93
2021-06-21 17:24:44.515625000,-41.5,-11.0,48.0,82.32,42.03,15.6494215625,33.93
2021-06-21 17:24:44.523437500,-41.25,-11.0,47.5,82.32,40.91,15.64858084375,33.93
2021-06-21 17:24:44.531250000,-41.0,-11.0,47.0,82.32,39.79,15.647740125,33.93
2021-06-21 17:24:44.539062500,-41.25,-11.0,47.25,82.32,38.55,15.64689940625,33.93
2021-06-21 17:24:44.546875000,-41.5,-11.0,47.5,82.32,37.31,15.6460586875,33.93
2021-06-21 17:24:44.554687500,-41.75,-11.0,47.75,82.32,36.275000000000006,15.64521796875,33.93
2021-06-21 17:24:44.562500000,-42.0,-11.0,48.0,82.32,35.24,15.644377250000002,33.93
2021-06-21 17:24:44.570312500,-41.75,-11.25,48.0,82.32,34.64,15.643536531250001,33.93
2021-06-21 17:24:44.578125000,-41.5,-11.5,48.0,82.32,34.04,15.642695812500001,33.93
2021-06-21 17:24:44.585937500,-41.25,-11.75,48.0,82.32,34.019999999999996,15.641855093750001,33.93
2021-06-21 17:24:44.593750000,-41.0,-12.0,48.0,82.32,34.0,15.641014375000001,33.93
2021-06-21 17:24:44.601562500,-41.25,-12.25,48.0,82.32,34.6,15.640173656250001,33.93
2021-06-21 17:24:44.609375000,-41.5,-12.5,48.0,82.32,35.2,15.6393329375,33.93
2021-06-21 17:24:44.617187500,-41.75,-12.75,48.0,82.32,36.38,15.63849221875,33.93
2021-06-21 17:24:44.625000000,-42.0,-13.0,48.0,82.32,37.56,15.6376515,33.93
2021-06-21 17:24:44.632812500,-41.75,-12.75,48.0,82.32,39.16,15.63681078125,33.93
2021-06-21 17:24:44.640625000,-41.5,-12.5,48.0,82.32,40.76,15.6359700625,33.93
2021-06-21 17:24:44.648437500,-41.25,-12.25,48.0,82.32,42.57,15.63512934375,33.93
2021-06-21 17:24:44.656250000,-41.0,-12.0,48.0,82.32,44.38,15.634288625,33.93
2021-06-21 17:24:44.664062500,-41.0,-12.0,48.0,82.32,46.19,15.63344790625,33.93
2021-06-21 17:24:44.671875000,-41.0,-12.0,48.0,82.32,48.0,15.6326071875,33.93
2021-06-21 17:24:44.679687500,-41.0,-12.0,48.0,82.32,49.65,15.63176646875,33.93
2021-06-21 17:24:44.687500000,-41.0,-12.0,48.0,82.32,51.3,15.63092575,33.93
2021-06-21 17:24:44.695312500,-41.25,-12.0,48.0,82.32,52.7,15.630085031250001,33.93
2021-06-21 17:24:44.703125000,-41.5,-12.0,48.0,82.32,54.1,15.629244312500001,33.93
2021-06-21 17:24:44.710937500,-41.75,-12.0,48.0,82.32,55.185,15.62840359375,33.93
2021-06-21 17:24:44.718750000,-42.0,-12.0,48.0,82.32,56.27,15.627562875,33.93
2021-06-21 17:24:44.726562500,-42.0,-12.0,48.0,82.32,56.95,15.62672215625,33.93
2021-06-21 17:24:44.734375000,-42.0,-12.0,48.0,82.32,57.63,15.6258814375,33.93
2021-06-21 17:24:44.742187500,-42.0,-12.0,48.0,82.32,57.78,15.62504071875,33.93
2021-06-21 17:24:44.750000000,-42.0,-12.0,48.0,82.32,57.93,15.6242,33.93
2021-06-21 17:24:44.757812500,-41.75,-12.25,48.0,82.32,57.415,15.62391975,33.93
2021-06-21 17:24:44.765625000,-41.5,-12.5,48.0,82.32,56.9,15.6236395,33.93
2021-06-21 17:24:44.773437500,-41.25,-12.75,48.0,82.32,55.67,15.62335925,33.93
2021-06-21 17:24:44.781250000,-41.0,-13.0,48.0,82.32,54.44,15.623079,33.93
2021-06-21 17:24:44.789062500,-41.0,-13.0,48.0,82.32,52.58,15.62279875,33.93
2021-06-21 17:24:44.796875000,-41.0,-13.0,48.0,82.32,50.72,15.6225185,33.93
2021-06-21 17:24:44.804687500,-41.0,-13.0,48.0,82.32,48.46,15.62223825,33.93
2021-06-21 17:24:44.812500000,-41.0,-13.0,48.0,82.32,46.2,15.621958,33.93
2021-06-21 17:24:44.820312500,-41.0,-12.75,48.0,82.32,43.875,15.62167775,33.93
2021-06-21 17:24:44.828125000,-41.0,-12.5,48.0,82.32,41.55,15.6213975,33.93
2021-06-21 17:24:44.835937500,-41.0,-12.25,48.0,82.32,39.415,15.621117250000001,33.93
2021-06-21 17:24:44.843750000,-41.0,-12.0,48.0,82.32,37.28,15.620837,33.93
2021-06-21 17:24:44.851562500,-41.0,-12.0,48.0,82.32,35.46,15.62055675,33.93
2021-06-21 17:24:44.859375000,-41.0,-12.0,48.0,82.32,33.64,15.620276500000001,33.93
2021-06-21 17:24:44.867187500,-41.0,-12.0,48.0,82.32,32.04,15.61999625,33.93
2021-06-21 17:24:44.875000000,-41.0,-12.0,48.0,82.32,30.44,15.619716,33.93
2021-06-21 17:24:44.882812500,-41.0,-12.0,48.25,82.32,28.83,15.619435750000001,33.93
2021-06-21 17:24:44.890625000,-41.0,-12.0,48.5,82.32,27.22,15.6191555,33.93
2021-06-21 17:24:44.898437500,-41.0,-12.0,48.75,82.32,25.375,15.61887525,33.93
2021-06-21 17:24:44.906250000,-41.0,-12.0,49.0,82.32,23.53,15.618595000000001,33.93
2021-06-21 17:24:44.914062500,-41.0,-12.0,48.75,82.32,21.33,15.61831475,33.93
2021-06-21 17:24:44.921875000,-41.0,-12.0,48.5,82.32,19.13,15.6180345,33.93
2021-06-21 17:24:44.929687500,-41.0,-12.0,48.25,82.32,16.634999999999998,15.61775425,33.93
2021-06-21 17:24:44.937500000,-41.0,-12.0,48.0,82.32,14.14,15.617474000000001,33.93
2021-06-21 17:24:44.945312500,-41.0,-12.0,48.0,82.32,11.58,15.61719375,33.93
2021-06-21 17:24:44.953125000,-41.0,-12.0,48.0,82.32,9.02,15.6169135,33.93
2021-06-21 17:24:44.960937500,-41.0,-12.0,48.0,82.32,6.645,15.616633250000001,33.93
2021-06-21 17:24:44.968750000,-41.0,-12.0,48.0,82.32,4.27,15.616353,33.93
2021-06-21 17:24:44.976562500,-41.0,-12.0,48.0,82.32,2.2649999999999997,15.61607275,33.93
2021-06-21 17:24:44.984375000,-41.0,-12.0,48.0,82.32,0.26,15.615792500000001,33.93
2021-06-21 17:24:44.992187500,-41.0,-12.0,48.0,82.32,-1.345,15.61551225,33.93
2021-06-21 17:24:45.000000000,-41.0,-12.0,48.0,82.32,-2.95,15.615232,33.93
2021-06-21 17:24:45.007812500,-41.25,-12.25,48.0,82.319609375,-4.29,15.615232,33.930625
2021-06-21 17:24:45.015625000,-41.5,-12.5,48.0,82.31921874999999,-5.63,15.615232,33.93125
2021-06-21 17:24:45.023437500,-41.75,-12.75,48.0,82.318828125,-6.965,15.615232,33.931875
2021-06-21 17:24:45.031250000,-42.0,-13.0,48.0,82.31843749999999,-8.3,15.615232,33.9325
2021-06-21 17:24:45.039062500,-41.75,-13.0,47.75,82.318046875,-9.895,15.615232,33.933125
2021-06-21 17:24:45.046875000,-41.5,-13.0,47.5,82.31765625,-11.49,15.615232,33.93375
2021-06-21 17:24:45.054687500,-41.25,-13.0,47.25,82.31726562499999,-13.54,15.615232,33.934375
2021-06-21 17:24:45.062500000,-41.0,-13.0,47.0,82.316875,-15.59,15.615232,33.935
2021-06-21 17:24:45.070312500,-41.0,-13.0,47.25,82.31648437499999,-18.115000000000002,15.615232,33.935625
2021-06-21 17:24:45.078125000,-41.0,-13.0,47.5,82.31609375,-20.64,15.615232,33.93625
2021-06-21 17:24:45.085937500,-41.0,-13.0,47.75,82.315703125,-23.535,15.615232,33.936875
2021-06-21 17:24:45.093750000,-41.0,-13.0,48.0,82.31531249999999,-26.43,15.615232,33.9375
2021-06-21 17:24:45.101562500,-41.0,-13.0,48.0,82.314921875,-29.465,15.615232,33.938125
2021-06-21 17:24:45.109375000,-41.0,-13.0,48.0,82.31453124999999,-32.5,15.615232,33.93875
2021-06-21 17:24:45.117187500,-41.0,-13.0,48.0,82.314140625,-35.44,15.615232,33.939375
2021-06-21 17:24:45.125000000,-41.0,-13.0,48.0,82.31375,-38.38,15.615232,33.94
2021-06-21 17:24:45.132812500,-41.0,-12.75,48.0,82.31335937499999,-41.065,15.615232,33.940625000000004
2021-06-21 17:24:45.140625000,-41.0,-12.5,48.0,82.31296875,-43.75,15.615232,33.941250000000004
2021-06-21 17:24:45.148437500,-41.0,-12.25,48.0,82.31257812499999,-46.175,15.615232,33.941875
2021-06-21 17:24:45.156250000,-41.0,-12.0,48.0,82.3121875,-48.6,15.615232,33.9425
2021-06-21 17:24:45.164062500,-41.0,-11.75,48.25,82.311796875,-50.925,15.615232,33.943125
2021-06-21 17:24:45.171875000,-41.0,-11.5,48.5,82.31140624999999,-53.25,15.615232,33.94375
2021-06-21 17:24:45.179687500,-41.0,-11.25,48.75,82.311015625,-55.75,15.615232,33.944375
2021-06-21 17:24:45.187500000,-41.0,-11.0,49.0,82.31062499999999,-58.25,15.615232,33.945
2021-06-21 17:24:45.195312500,-41.0,-11.0,48.75,82.310234375,-61.245,15.615232,33.945625
2021-06-21 17:24:45.203125000,-41.0,-11.0,48.5,82.30984375,-64.24,15.615232,33.94625
2021-06-21 17:24:45.210937500,-41.0,-11.0,48.25,82.30945312499999,-67.935,15.615232,33.946875000000006
2021-06-21 17:24:45.218750000,-41.0,-11.0,48.0,82.3090625,-71.63,15.615232,33.947500000000005
2021-06-21 17:24:45.226562500,-41.0,-11.25,48.25,82.30867187499999,-75.97,15.615232,33.948125000000005
2021-06-21 17:24:45.234375000,-41.0,-11.5,48.5,82.30828125,-80.31,15.615232,33.948750000000004
2021-06-21 17:24:45.242187500,-41.0,-11.75,48.75,82.307890625,-84.85,15.615232,33.949375
2021-06-21 17:24:45.250000000,-41.0,-12.0,49.0,82.30749999999999,-89.39,15.615232,33.95
2021-06-21 17:24:45.257812500,-41.0,-12.0,49.0,82.307109375,-93.31,15.61475159375,33.95
2021-06-21 17:24:45.265625000,-41.0,-12.0,49.0,82.30671874999999,-97.23,15.6142711875,33.95
2021-06-21 17:24:45.273437500,-41.0,-12.0,49.0,82.306328125,-99.46000000000001,15.613790781250001,33.95
2021-06-21 17:24:45.281250000,-41.0,-12.0,49.0,82.3059375,-101.69,15.613310375000001,33.95
2021-06-21 17:24:45.289062500,-41.0,-12.25,48.75,82.30554687499999,-101.245,15.61282996875,33.95
2021-06-21 17:24:45.296875000,-41.0,-12.5,48.5,82.30515625,-100.8,15.6123495625,33.95
2021-06-21 17:24:45.304687500,-41.0,-12.75,48.25,82.30476562499999,-97.06,15.61186915625,33.95
2021-06-21 17:24:45.312500000,-41.0,-13.0,48.0,82.304375,-93.32,15.61138875,33.95
2021-06-21 17:24:45.320312500,-40.75,-13.25,47.75,82.303984375,-86.315,15.610908343750001,33.95
2021-06-21 17:24:45.328125000,-40.5,-13.5,47.5,82.30359374999999,-79.31,15.6104279375,33.95
2021-06-21 17:24:45.335937500,-40.25,-13.75,47.25,82.303203125,-69.725,15.60994753125,33.95
2021-06-21 17:24:45.343750000,-40.0,-14.0,47.0,82.30281249999999,-60.14,15.609467125,33.95
2021-06-21 17:24:45.351562500,-40.25,-14.0,47.0,82.302421875,-49.120000000000005,15.60898671875,33.95
2021-06-21 17:24:45.359375000,-40.5,-14.0,47.0,82.30203125,-38.1,15.608506312500001,33.95
2021-06-21 17:24:45.367187500,-40.75,-14.0,47.0,82.30164062499999,-26.915,15.60802590625,33.95
2021-06-21 17:24:45.375000000,-41.0,-14.0,47.0,82.30125,-15.73,15.6075455,33.95
2021-06-21 17:24:45.382812500,-41.0,-13.75,47.25,82.30085937499999,-5.449999999999999,15.60706509375,33.95
2021-06-21 17:24:45.390625000,-41.0,-13.5,47.5,82.30046875,4.83,15.6065846875,33.95
2021-06-21 17:24:45.398437500,-41.0,-13.25,47.75,82.300078125,13.51,15.606104281250001,33.95
2021-06-21 17:24:45.406250000,-41.0,-13.0,48.0,82.29968749999999,22.19,15.605623875000001,33.95
2021-06-21 17:24:45.414062500,-40.75,-13.0,48.0,82.299296875,28.97,15.60514346875,33.95
2021-06-21 17:24:45.421875000,-40.5,-13.0,48.0,82.29890624999999,35.75,15.6046630625,33.95
2021-06-21 17:24:45.429687500,-40.25,-13.0,48.0,82.298515625,40.59,15.60418265625,33.95
2021-06-21 17:24:45.437500000,-40.0,-13.0,48.0,82.298125,45.43,15.603702250000001,33.95
2021-06-21 17:24:45.445312500,-40.25,-13.0,48.25,82.29773437499999,48.435,15.603221843750001,33.95
2021-06-21 17:24:45.453125000,-40.5,-13.0,48.5,82.29734375,51.44,15.6027414375,33.95
2021-06-21 17:24:45.460937500,-40.75,-13.0,48.75,82.29695312499999,52.79,15.60226103125,33.95
2021-06-21 17:24:45.468750000,-41.0,-13.0,49.0,82.2965625,54.14,15.601780625,33.95
2021-06-21 17:24:45.476562500,-41.0,-13.0,48.75,82.296171875,54.1,15.60130021875,33.95
2021-06-21 17:24:45.484375000,-41.0,-13.0,48.5,82.29578124999999,54.06,15.600819812500001,33.95
2021-06-21 17:24:45.492187500,-41.0,-13.0,48.25,82.295390625,52.975,15.60033940625,33.95
2021-06-21 17:24:45.500000000,-41.0,-13.0,48.0,82.29499999999999,51.89,15.599859,33.95
2021-06-21 17:24:45.507812500,-41.0,-12.75,48.0,82.294609375,50.19,15.60005915625,33.95
2021-06-21 17:24:45.515625000,-41.0,-12.5,48.0,82.29421875,48.49,15.6002593125,33.95
2021-06-21 17:24:45.523437500,-41.0,-12.25,48.0,82.29382812499999,46.605000000000004,15.60045946875,33.95
2021-06-21 17:24:45.531250000,-41.0,-12.0,48.0,82.2934375,44.72,15.600659625,33.95
2021-06-21 17:24:45.539062500,-41.25,-12.0,48.0,82.293046875,43.015,15.60085978125,33.95
2021-06-21 17:24:45.546875000,-41.5,-12.0,48.0,82.29265625,41.31,15.6010599375,33.95
2021-06-21 17:24:45.554687500,-41.75,-12.0,48.0,82.292265625,40.040000000000006,15.60126009375,33.95
2021-06-21 17:24:45.562500000,-42.0,-12.0,48.0,82.29187499999999,38.77,15.60146025,33.95
2021-06-21 17:24:45.570312500,-42.0,-12.0,48.0,82.291484375,38.09,15.60166040625,33.95
2021-06-21 17:24:45.578125000,-42.0,-12.0,48.0,82.29109375,37.41,15.6018605625,33.95
2021-06-21 17:24:45.585937500,-42.0,-12.0,48.0,82.290703125,37.39,15.60206071875,33.95
2021-06-21 17:24:45.593750000,-42.0,-12.0,48.0,82.2903125,37.37,15.602260875,33.95
2021-06-21 17:24:45.601562500,-42.0,-11.75,48.0,82.28992187499999,38.03,15.60246103125,33.95
2021-06-21 17:24:45.609375000,-42.0,-11.5,48.0,82.28953125,38.69,15.6026611875,33.95
2021-06-21 17:24:45.617187500,-42.0,-11.25,48.0,82.289140625,39.989999999999995,15.60286134375,33.95
2021-06-21 17:24:45.625000000,-42.0,-11.0,48.0,82.28875,41.29,15.603061499999999,33.95
2021-06-21 17:24:45.632812500,-41.75,-11.25,48.0,82.288359375,43.095,15.60326165625,33.95
2021-06-21 17:24:45.640625000,-41.5,-11.5,48.0,82.28796874999999,44.9,15.603461812499999,33.95
2021-06-21 17:24:45.648437500,-41.25,-11.75,48.0,82.287578125,46.96,15.60366196875,33.95
2021-06-21 17:24:45.656250000,-41.0,-12.0,48.0,82.2871875,49.02,15.603862125,33.95
2021-06-21 17:24:45.664062500,-40.75,-12.25,48.25,82.286796875,51.025000000000006,15.60406228125,33.95
2021-06-21 17:24:45.671875000,-40.5,-12.5,48.5,82.28640625,53.03,15.6042624375,33.95
2021-06-21 17:24:45.679687500,-40.25,-12.75,48.75,82.28601562499999,54.644999999999996,15.60446259375,33.95
2021-06-21 17:24:45.687500000,-40.0,-13.0,49.0,82.285625,56.26,15.60466275,33.95
2021-06-21 17:24:45.695312500,-40.0,-13.0,49.0,82.285234375,57.209999999999994,15.60486290625,33.95
2021-06-21 17:24:45.703125000,-40.0,-13.0,49.0,82.28484375,58.16,15.6050630625,33.95
2021-06-21 17:24:45.710937500,-40.0,-13.0,49.0,82.284453125,58.31999999999999,15.60526321875,33.95
2021-06-21 17:24:45.718750000,-40.0,-13.0,49.0,82.28406249999999,58.48,15.605463375,33.95
2021-06-21 17:24:45.726562500,-40.0,-13.25,49.0,82.283671875,57.845,15.60566353125,33.95
2021-06-21 17:24:45.734375000,-40.0,-13.5,49.0,82.28328125,57.21,15.6058636875,33.95
2021-06-21 17:24:45.742187500,-40.0,-13.75,49.0,82.282890625,55.92,15.60606384375,33.95
2021-06-21 17:24:45.750000000,-40.0,-14.0,49.0,82.2825,54.63,15.606264,33.95
2021-06-21 17:24:45.757812500,-40.0,-14.0,49.0,82.28210937499999,52.85,15.60542328125,33.95
2021-06-21 17:24:45.765625000,-40.0,-14.0,49.0,82.28171875,51.07,15.6045825625,33.95
2021-06-21 17:24:45.773437500,-40.0,-14.0,49.0,82.281328125,48.97,15.603741843749999,33.95
2021-06-21 17:24:45.781250000,-40.0,-14.0,49.0,82.2809375,46.87,15.602901124999999,33.95
2021-06-21 17:24:45.789062500,-40.0,-14.0,49.0,82.280546875,44.56,15.602060406249999,33.95
2021-06-21 17:24:45.796875000,-40.0,-14.0,49.0,82.28015624999999,42.25,15.6012196875,33.95
2021-06-21 17:24:45.804687500,-40.0,-14.0,49.0,82.279765625,39.8,15.60037896875,33.95
2021-06-21 17:24:45.812500000,-40.0,-14.0,49.0,82.279375,37.35,15.59953825,33.95
2021-06-21 17:24:45.820312500,-40.0,-14.0,48.75,82.278984375,34.83,15.59869753125,33.95
2021-06-21 17:24:45.828125000,-40.0,-14.0,48.5,82.27859375,32.31,15.5978568125,33.95
2021-06-21 17:24:45.835937500,-40.0,-14.0,48.25,82.27820312499999,29.82,15.59701609375,33.95
2021-06-21 17:24:45.843750000,-40.0,-14.0,48.0,82.2778125,27.33,15.596175375,33.95
2021-06-21 17:24:45.851562500,-40.0,-13.75,48.0,82.277421875,24.975,15.59533465625,33.95
2021-06-21 17:24:45.859375000,-40.0,-13.5,48.0,82.27703125,22.62,15.5944939375,33.95
2021-06-21 17:24:45.867187500,-40.0,-13.25,48.0,82.276640625,20.465,15.59365321875,33.95
2021-06-21 17:24:45.875000000,-40.0,-13.0,48.0,82.27624999999999,18.31,15.5928125,33.95
2021-06-21 17:24:45.882812500,-40.25,-13.0,48.0,82.275859375,16.33,15.59197178125,33.95
2021-06-21 17:24:45.890625000,-40.5,-13.0,48.0,82.27546875,14.35,15.5911310625,33.95
2021-06-21 17:24:45.898437500,-40.75,-13.0,48.0,82.275078125,12.434999999999999,15.59029034375,33.95
2021-06-21 17:24:45.906250000,-41.0,-13.0,48.0,82.2746875,10.52,15.589449625,33.95
2021-06-21 17:24:45.914062500,-41.25,-13.0,48.0,82.27429687499999,8.52,15.58860890625,33.95
2021-06-21 17:24:45.921875000,-41.5,-13.0,48.0,82.27390625,6.52,15.5877681875,33.95
2021-06-21 17:24:45.929687500,-41.75,-13.0,48.0,82.273515625,4.34,15.58692746875,33.95
2021-06-21 17:24:45.937500000,-42.0,-13.0,48.0,82.273125,2.16,15.58608675,33.95
2021-06-21 17:24:45.945312500,-41.75,-13.0,48.0,82.272734375,-0.17499999999999982,15.58524603125,33.95
2021-06-21 17:24:45.953125000,-41.5,-13.0,48.0,82.27234374999999,-2.51,15.5844053125,33.95
2021-06-21 17:24:45.960937500,-41.25,-13.0,48.0,82.271953125,-4.904999999999999,15.583564593750001,33.95
2021-06-21 17:24:45.968750000,-41.0,-13.0,48.0,82.2715625,-7.3,15.582723875000001,33.95
2021-06-21 17:24:45.976562500,-41.0,-13.0,48.0,82.271171875,-9.64,15.58188315625,33.95
2021-06-21 17:24:45.984375000,-41.0,-13.0,48.0,82.27078125,-11.98,15.5810424375,33.95
2021-06-21 17:24:45.992187500,-41.0,-13.0,48.0,82.27039062499999,-14.205,15.58020171875,33.95
2021-06-21 17:24:46.000000000,-41.0,-13.0,48.0,82.27,-16.43,15.579361,33.95
2021-06-21 17:24:46.007812500,-41.0,-12.75,48.0,82.269609375,-18.585,15.579881468750001,33.949375
2021-06-21 17:24:46.015625000,-41.0,-12.5,48.0,82.26921875,-20.74,15.5804019375,33.948750000000004
2021-06-21 17:24:46.023437500,-41.0,-12.25,48.0,82.268828125,-22.884999999999998,15.58092240625,33.948125000000005
2021-06-21 17:24:46.031250000,-41.0,-12.0,48.0,82.26843749999999,-25.03,15.581442875,33.947500000000005
2021-06-21 17:24:46.039062500,-41.0,-12.0,48.0,82.268046875,-27.185000000000002,15.581963343750001,33.946875000000006
2021-06-21 17:24:46.046875000,-41.0,-12.0,48.0,82.26765625,-29.34,15.582483812500001,33.94625
2021-06-21 17:24:46.054687500,-41.0,-12.0,48.0,82.267265625,-31.439999999999998,15.58300428125,33.945625
2021-06-21 17:24:46.062500000,-41.0,-12.0,48.0,82.266875,-33.54,15.58352475,33.945
2021-06-21 17:24:46.070312500,-41.0,-12.25,48.0,82.26648437499999,-35.504999999999995,15.584045218750001,33.944375
2021-06-21 17:24:46.078125000,-41.0,-12.5,48.0,82.26609375,-37.47,15.5845656875,33.94375
2021-06-21 17:24:46.085937500,-41.0,-12.75,48.0,82.265703125,-39.3,15.58508615625,33.943125
2021-06-21 17:24:46.093750000,-41.0,-13.0,48.0,82.2653125,-41.13,15.585606625,33.9425
2021-06-21 17:24:46.101562500,-40.75,-13.0,48.0,82.264921875,-42.980000000000004,15.586127093750001,33.941875
2021-06-21 17:24:46.109375000,-40.5,-13.0,48.0,82.26453124999999,-44.83,15.586647562500001,33.941250000000004
2021-06-21 17:24:46.117187500,-40.25,-13.0,48.0,82.264140625,-47.025,15.58716803125,33.940625000000004
2021-06-21 17:24:46.125000000,-40.0,-13.0,48.0,82.26375,-49.22,15.5876885,33.94
2021-06-21 17:24:46.132812500,-40.0,-13.25,48.0,82.263359375,-52.129999999999995,15.588208968750001,33.939375
2021-06-21 17:24:46.140625000,-40.0,-13.5,48.0,82.26296875,-55.04,15.5887294375,33.93875
2021-06-21 17:24:46.148437500,-40.0,-13.75,48.0,82.26257812499999,-58.879999999999995,15.58924990625,33.938125
2021-06-21 17:24:46.156250000,-40.0,-14.0,48.0,82.2621875,-62.72,15.589770375,33.9375
2021-06-21 17:24:46.164062500,-40.25,-14.0,48.0,82.261796875,-67.39,15.590290843750001,33.936875
2021-06-21 17:24:46.171875000,-40.5,-14.0,48.0,82.26140625,-72.06,15.590811312500001,33.93625
2021-06-21 17:24:46.179687500,-40.75,-14.0,48.0,82.261015625,-76.995,15.59133178125,33.935625
2021-06-21 17:24:46.187500000,-41.0,-14.0,48.0,82.26062499999999,-81.93,15.59185225,33.935
2021-06-21 17:24:46.195312500,-40.75,-13.75,48.25,82.260234375,-86.18,15.592372718750001,33.934375
2021-06-21 17:24:46.203125000,-40.5,-13.5,48.5,82.25984375,-90.43,15.5928931875,33.93375
2021-06-21 17:24:46.210937500,-40.25,-13.25,48.75,82.259453125,-92.86000000000001,15.59341365625,33.933125
2021-06-21 17:24:46.218750000,-40.0,-13.0,49.0,82.2590625,-95.29,15.593934125,33.9325
2021-06-21 17:24:46.226562500,-40.0,-13.0,48.75,82.25867187499999,-94.84,15.594454593750001,33.931875
2021-06-21 17:24:46.234375000,-40.0,-13.0,48.5,82.25828125,-94.39,15.594975062500001,33.93125
2021-06-21 17:24:46.242187500,-40.0,-13.0,48.25,82.257890625,-90.45,15.59549553125,33.930625
2021-06-21 17:24:46.250000000,-40.0,-13.0,48.0,82.2575,-86.51,15.596016,33.93
2021-06-21 17:24:46.257812500,-40.25,-13.0,48.0,82.257109375,-79.135,15.59513521875,33.93
2021-06-21 17:24:46.265625000,-40.5,-13.0,48.0,82.25671874999999,-71.76,15.5942544375,33.93
2021-06-21 17:24:46.273437500,-40.75,-13.0,48.0,82.256328125,-61.675000000000004,15.59337365625,33.93
2021-06-21 17:24:46.281250000,-41.0,-13.0,48.0,82.2559375,-51.59,15.592492875000001,33.93
2021-06-21 17:24:46.289062500,-41.0,-12.75,48.0,82.255546875,-40.005,15.591612093750001,33.93
2021-06-21 17:24:46.296875000,-41.0,-12.5,48.0,82.25515625,-28.42,15.5907313125,33.93
2021-06-21 17:24:46.304687500,-41.0,-12.25,48.0,82.25476562499999,-16.705000000000002,15.58985053125,33.93
2021-06-21 17:24:46.312500000,-41.0,-12.0,48.0,82.254375,-4.99,15.58896975,33.93
2021-06-21 17:24:46.320312500,-41.0,-12.0,48.0,82.253984375,5.665000000000001,15.58808896875,33.93
2021-06-21 17:24:46.328125000,-41.0,-12.0,48.0,82.25359375,16.32,15.5872081875,33.93
2021-06-21 17:24:46.335937500,-41.0,-12.0,48.0,82.253203125,25.115,15.58632740625,33.93
2021-06-21 17:24:46.343750000,-41.0,-12.0,48.0,82.25281249999999,33.91,15.585446625,33.93
2021-06-21 17:24:46.351562500,-41.0,-12.0,48.0,82.252421875,40.48,15.584565843750001,33.93
2021-06-21 17:24:46.359375000,-41.0,-12.0,48.0,82.25203125,47.05,15.5836850625,33.93
2021-06-21 17:24:46.367187500,-41.0,-12.0,48.0,82.251640625,51.37,15.58280428125,33.93
2021-06-21 17:24:46.375000000,-41.0,-12.0,48.0,82.25125,55.69,15.5819235,33.93
2021-06-21 17:24:46.382812500,-41.0,-12.25,48.0,82.25085937499999,57.915,15.58104271875,33.93
2021-06-21 17:24:46.390625000,-41.0,-12.5,48.0,82.25046875,60.14,15.5801619375,33.93
2021-06-21 17:24:46.398437500,-41.0,-12.75,48.0,82.250078125,60.56,15.57928115625,33.93
2021-06-21 17:24:46.406250000,-41.0,-13.0,48.0,82.2496875,60.98,15.578400375000001,33.93
2021-06-21 17:24:46.414062500,-41.25,-13.0,47.75,82.249296875,59.98,15.57751959375,33.93
2021-06-21 17:24:46.421875000,-41.5,-13.0,47.5,82.24890624999999,58.98,15.5766388125,33.93
2021-06-21 17:24:46.429687500,-41.75,-13.0,47.25,82.248515625,57.04,15.57575803125,33.93
2021-06-21 17:24:46.437500000,-42.0,-13.0,47.0,82.248125,55.1,15.57487725,33.93
2021-06-21 17:24:46.445312500,-41.75,-13.0,47.25,82.247734375,52.769999999999996,15.57399646875,33.93
2021-06-21 17:24:46.453125000,-41.5,-13.0,47.5,82.24734375,50.44,15.5731156875,33.93
2021-06-21 17:24:46.460937500,-41.25,-13.0,47.75,82.24695312499999,48.245,15.57223490625,33.93
2021-06-21 17:24:46.468750000,-41.0,-13.0,48.0,82.2465625,46.05,15.571354125,33.93
2021-06-21 17:24:46.476562500,-41.0,-12.75,48.0,82.246171875,44.415,15.57047334375,33.93
2021-06-21 17:24:46.484375000,-41.0,-12.5,48.0,82.24578125,42.78,15.5695925625,33.93
2021-06-21 17:24:46.492187500,-41.0,-12.25,48.0,82.245390625,41.93,15.56871178125,33.93
2021-06-21 17:24:46.500000000,-41.0,-12.0,48.0,82.245,41.08,15.567831,33.93
2021-06-21 17:24:46.507812500,-41.0,-12.25,48.0,82.244609375,41.055,15.5683915,33.93
2021-06-21 17:24:46.515625000,-41.0,-12.5,48.0,82.24421875,41.03,15.568952,33.93
2021-06-21 17:24:46.523437500,-41.0,-12.75,48.0,82.243828125,41.735,15.5695125,33.93
2021-06-21 17:24:46.531250000,-41.0,-13.0,48.0,82.2434375,42.44,15.570073,33.93
2021-06-21 17:24:46.539062500,-41.0,-13.0,48.0,82.243046875,43.705,15.5706335,33.93
2021-06-21 17:24:46.546875000,-41.0,-13.0,48.0,82.24265625,44.97,15.571194,33.93
2021-06-21 17:24:46.554687500,-41.0,-13.0,48.0,82.242265625,46.585,15.5717545,33.93
2021-06-21 17:24:46.562500000,-41.0,-13.0,48.0,82.241875,48.2,15.572315,33.93
2021-06-21 17:24:46.570312500,-41.0,-13.0,48.0,82.241484375,49.96,15.5728755,33.93
2021-06-21 17:24:46.578125000,-41.0,-13.0,48.0,82.24109375,51.72,15.573436000000001,33.93
2021-06-21 17:24:46.585937500,-41.0,-13.0,48.0,82.240703125,53.4,15.5739965,33.93
2021-06-21 17:24:46.593750000,-41.0,-13.0,48.0,82.2403125,55.08,15.574557,33.93
2021-06-21 17:24:46.601562500,-41.0,-13.0,48.0,82.239921875,56.480000000000004,15.575117500000001,33.93
2021-06-21 17:24:46.609375000,-41.0,-13.0,48.0,82.23953125,57.88,15.575678,33.93
2021-06-21 17:24:46.617187500,-41.0,-13.0,48.0,82.239140625,58.81,15.5762385,33.93
2021-06-21 17:24:46.625000000,-41.0,-13.0,48.0,82.23875,59.74,15.576799000000001,33.93
2021-06-21 17:24:46.632812500,-41.0,-13.0,48.0,82.238359375,60.05,15.5773595,33.93
2021-06-21 17:24:46.640625000,-41.0,-13.0,48.0,82.23796875,60.36,15.57792,33.93
2021-06-21 17:24:46.648437500,-41.0,-13.0,48.0,82.237578125,59.945,15.5784805,33.93
2021-06-21 17:24:46.656250000,-41.0,-13.0,48.0,82.2371875,59.53,15.579041,33.93
2021-06-21 17:24:46.664062500,-41.0,-13.0,48.0,82.236796875,58.335,15.5796015,33.93
2021-06-21 17:24:46.671875000,-41.0,-13.0,48.0,82.23640625,57.14,15.580162,33.93
2021-06-21 17:24:46.679687500,-41.0,-13.0,48.0,82.236015625,55.195,15.5807225,33.93
2021-06-21 17:24:46.687500000,-41.0,-13.0,48.0,82.235625,53.25,15.581283,33.93
2021-06-21 17:24:46.695312500,-40.75,-12.75,48.0,82.235234375,50.67,15.5818435,33.93
2021-06-21 17:24:46.703125000,-40.5,-12.5,48.0,82.23484375,48.09,15.582404,33.93
2021-06-21 17:24:46.710937500,-40.25,-12.25,48.0,82.234453125,45.1,15.582964500000001,33.93
2021-06-21 17:24:46.718750000,-40.0,-12.0,48.0,82.2340625,42.11,15.583525,33.93
2021-06-21 17:24:46.726562500,-40.25,-12.0,48.25,82.233671875,38.97,15.5840855,33.93
2021-06-21 17:24:46.734375000,-40.5,-12.0,48.5,82.23328125,35.83,15.584646000000001,33.93
2021-06-21 17:24:46.742187500,-40.75,-12.0,48.75,82.232890625,32.815,15.5852065,33.93
2021-06-21 17:24:46.750000000,-41.0,-12.0,49.0,82.2325,29.8,15.585767,33.93
2021-06-21 17:24:46.757812500,-41.0,-12.0,48.75,82.232109375,27.095,15.58572696875,33.93
2021-06-21 17:24:46.765625000,-41.0,-12.0,48.5,82.23171875,24.39,15.5856869375,33.93
2021-06-21 17:24:46.773437500,-41.0,-12.0,48.25,82.231328125,22.060000000000002,15.58564690625,33.93
2021-06-21 17:24:46.781250000,-41.0,-12.0,48.0,82.2309375,19.73,15.585606875,33.93
2021-06-21 17:24:46.789062500,-41.0,-12.0,48.0,82.230546875,17.715,15.58556684375,33.93
2021-06-21 17:24:46.796875000,-41.0,-12.0,48.0,82.23015625,15.7,15.585526812500001,33.93
2021-06-21 17:24:46.804687500,-41.0,-12.0,48.0,82.229765625,13.879999999999999,15.585486781250001,33.93
2021-06-21 17:24:46.812500000,-41.0,-12.0,48.0,82.229375,12.06,15.585446750000001,33.93
2021-06-21 17:24:46.820312500,-41.0,-12.0,48.0,82.228984375,10.275,15.58540671875,33.93
2021-06-21 17:24:46.828125000,-41.0,-12.0,48.0,82.22859375,8.49,15.5853666875,33.93
2021-06-21 17:24:46.835937500,-41.0,-12.0,48.0,82.228203125,6.615,15.58532665625,33.93
2021-06-21 17:24:46.843750000,-41.0,-12.0,48.0,82.2278125,4.74,15.585286625,33.93
2021-06-21 17:24:46.851562500,-41.0,-12.0,48.0,82.227421875,2.71,15.58524659375,33.93
2021-06-21 17:24:46.859375000,-41.0,-12.0,48.0,82.22703125,0.68,15.5852065625,33.93
2021-06-21 17:24:46.867187500,-41.0,-12.0,48.0,82.226640625,-1.5349999999999997,15.58516653125,33.93
2021-06-21 17:24:46.875000000,-41.0,-12.0,48.0,82.22625,-3.75,15.585126500000001,33.93
2021-06-21 17:24:46.882812500,-41.0,-12.25,48.0,82.225859375,-6.14,15.585086468750001,33.93
2021-06-21 17:24:46.890625000,-41.0,-12.5,48.0,82.22546875,-8.53,15.5850464375,33.93
2021-06-21 17:24:46.898437500,-41.0,-12.75,48.0,82.225078125,-11.08,15.58500640625,33.93
2021-06-21 17:24:46.906250000,-41.0,-13.0,48.0,82.2246875,-13.63,15.584966375,33.93
2021-06-21 17:24:46.914062500,-41.0,-12.75,48.0,82.224296875,-16.295,15.58492634375,33.93
2021-06-21 17:24:46.921875000,-41.0,-12.5,48.0,82.22390625,-18.96,15.5848863125,33.93
2021-06-21 17:24:46.929687500,-41.0,-12.25,48.0,82.223515625,-21.695,15.58484628125,33.93
2021-06-21 17:24:46.937500000,-41.0,-12.0,48.0,82.223125,-24.43,15.58480625,33.93
2021-06-21 17:24:46.945312500,-41.0,-12.0,48.0,82.222734375,-27.13,15.58476621875,33.93
2021-06-21 17:24:46.953125000,-41.0,-12.0,48.0,82.22234375,-29.83,15.5847261875,33.93
2021-06-21 17:24:46.960937500,-41.0,-12.0,48.0,82.221953125,-32.37,15.584686156250001,33.93
2021-06-21 17:24:46.968750000,-41.0,-12.0,48.0,82.2215625,-34.91,15.584646125,33.93
2021-06-21 17:24:46.976562500,-41.0,-12.0,48.0,82.221171875,-37.15,15.58460609375,33.93
2021-06-21 17:24:46.984375000,-41.0,-12.0,48.0,82.22078125,-39.39,15.5845660625,33.93
2021-06-21 17:24:46.992187500,-41.0,-12.0,48.0,82.220390625,-41.275,15.58452603125,33.93
2021-06-21 17:24:47.000000000,-41.0,-12.0,48.0,82.22,-43.16,15.584486,33.93
2021-06-21 17:24:47.007812500,-41.0,-12.0,48.0,82.219609375,-44.765,15.58576709375,33.930625
2021-06-21 17:24:47.015625000,-41.0,-12.0,48.0,82.21921875,-46.37,15.5870481875,33.93125
2021-06-21 17:24:47.023437500,-41.0,-12.0,48.0,82.218828125,-47.959999999999994,15.588329281250001,33.931875
2021-06-21 17:24:47.031250000,-41.0,-12.0,48.0,82.2184375,-49.55,15.589610375,33.9325
2021-06-21 17:24:47.039062500,-41.0,-12.25,48.0,82.218046875,-51.504999999999995,15.59089146875,33.933125
2021-06-21 17:24:47.046875000,-41.0,-12.5,48.0,82.21765625,-53.46,15.5921725625,33.93375
2021-06-21 17:24:47.054687500,-41.0,-12.75,48.0,82.217265625,-56.205,15.59345365625,33.934375
2021-06-21 17:24:47.062500000,-41.0,-13.0,48.0,82.216875,-58.95,15.59473475,33.935
2021-06-21 17:24:47.070312500,-41.0,-13.0,48.0,82.216484375,-62.735,15.596015843750001,33.935625
2021-06-21 17:24:47.078125000,-41.0,-13.0,48.0,82.21609375,-66.52,15.5972969375,33.93625
2021-06-21 17:24:47.085937500,-41.0,-13.0,48.0,82.215703125,-71.27,15.59857803125,33.936875
2021-06-21 17:24:47.093750000,-41.0,-13.0,48.0,82.2153125,-76.02,15.599859125,33.9375
2021-06-21 17:24:47.101562500,-41.0,-13.0,48.0,82.214921875,-81.22,15.60114021875,33.938125
2021-06-21 17:24:47.109375000,-41.0,-13.0,48.0,82.21453125,-86.42,15.6024213125,33.93875
2021-06-21 17:24:47.117187500,-41.0,-13.0,48.0,82.214140625,-91.155,15.603702406250001,33.939375
2021-06-21 17:24:47.125000000,-41.0,-13.0,48.0,82.21375,-95.89,15.6049835,33.94
2021-06-21 17:24:47.132812500,-41.0,-12.75,48.0,82.213359375,-99.005,15.60626459375,33.940625000000004
2021-06-21 17:24:47.140625000,-41.0,-12.5,48.0,82.21296875,-102.12,15.6075456875,33.941250000000004
2021-06-21 17:24:47.148437500,-41.0,-12.25,48.0,82.212578125,-102.52000000000001,15.60882678125,33.941875
2021-06-21 17:24:47.156250000,-41.0,-12.0,48.0,82.2121875,-102.92,15.610107875,33.9425
2021-06-21 17:24:47.164062500,-41.0,-12.0,48.0,82.211796875,-99.88499999999999,15.611388968750001,33.943125
2021-06-21 17:24:47.171875000,-41.0,-12.0,48.0,82.21140625,-96.85,15.612670062500001,33.94375
2021-06-21 17:24:47.179687500,-41.0,-12.0,48.0,82.211015625,-90.285,15.61395115625,33.944375
2021-06-21 17:24:47.187500000,-41.0,-12.0,48.0,82.210625,-83.72,15.61523225,33.945
2021-06-21 17:24:47.195312500,-41.0,-12.0,48.0,82.210234375,-74.19,15.61651334375,33.945625
2021-06-21 17:24:47.203125000,-41.0,-12.0,48.0,82.20984375,-64.66,15.6177944375,33.94625
2021-06-21 17:24:47.210937500,-41.0,-12.0,48.0,82.209453125,-53.29,15.619075531250001,33.946875000000006
2021-06-21 17:24:47.218750000,-41.0,-12.0,48.0,82.2090625,-41.92,15.620356625000001,33.947500000000005
2021-06-21 17:24:47.226562500,-41.0,-12.0,48.0,82.208671875,-30.03,15.62163771875,33.948125000000005
2021-06-21 17:24:47.234375000,-41.0,-12.0,48.0,82.20828125,-18.14,15.6229188125,33.948750000000004
2021-06-21 17:24:47.242187500,-41.0,-12.0,48.0,82.207890625,-6.960000000000001,15.62419990625,33.949375
2021-06-21 17:24:47.250000000,-41.0,-12.0,48.0,82.2075,4.22,15.625481,33.95
2021-06-21 17:24:47.257812500,-41.0,-12.0,48.0,82.207109375,13.79,15.62472034375,33.95
2021-06-21 17:24:47.265625000,-41.0,-12.0,48.0,82.20671875,23.36,15.623959687500001,33.95
2021-06-21 17:24:47.273437500,-41.0,-12.0,48.0,82.206328125,30.845,15.623199031250001,33.95
2021-06-21 17:24:47.281250000,-41.0,-12.0,48.0,82.2059375,38.33,15.622438375,33.95
2021-06-21 17:24:47.289062500,-41.0,-12.0,48.0,82.205546875,43.59,15.62167771875,33.95
2021-06-21 17:24:47.296875000,-41.0,-12.0,48.0,82.20515625,48.85,15.6209170625,33.95
2021-06-21 17:24:47.304687500,-41.0,-12.0,48.0,82.204765625,51.985,15.62015640625,33.95
2021-06-21 17:24:47.312500000,-41.0,-12.0,48.0,82.204375,55.12,15.61939575,33.95
2021-06-21 17:24:47.320312500,-41.0,-12.0,48.0,82.203984375,56.385,15.618635093750001,33.95
2021-06-21 17:24:47.328125000,-41.0,-12.0,48.0,82.20359375,57.65,15.6178744375,33.95
2021-06-21 17:24:47.335937500,-41.0,-12.0,48.0,82.203203125,57.42,15.61711378125,33.95
2021-06-21 17:24:47.343750000,-41.0,-12.0,48.0,82.2028125,57.19,15.616353125,33.95
2021-06-21 17:24:47.351562500,-41.0,-12.0,48.0,82.202421875,55.9,15.61559246875,33.95
2021-06-21 17:24:47.359375000,-41.0,-12.0,48.0,82.20203125,54.61,15.6148318125,33.95
2021-06-21 17:24:47.367187500,-41.0,-12.0,48.0,82.201640625,52.75,15.61407115625,33.95
2021-06-21 17:24:47.375000000,-41.0,-12.0,48.0,82.20125,50.89,15.6133105,33.95
2021-06-21 17:24:47.382812500,-41.0,-12.0,48.0,82.200859375,48.9,15.61254984375,33.95
2021-06-21 17:24:47.390625000,-41.0,-12.0,48.0,82.20046875,46.91,15.6117891875,33.95
2021-06-21 17:24:47.398437500,-41.0,-12.0,48.0,82.200078125,45.155,15.61102853125,33.95
2021-06-21 17:24:47.406250000,-41.0,-12.0,48.0,82.1996875,43.4,15.610267875,33.95
2021-06-21 17:24:47.414062500,-41.0,-12.0,48.0,82.199296875,42.105000000000004,15.60950721875,33.95
2021-06-21 17:24:47.421875000,-41.0,-12.0,48.0,82.19890625,40.81,15.6087465625,33.95
2021-06-21 17:24:47.429687500,-41.0,-12.0,48.0,82.198515625,40.11,15.607985906249999,33.95
2021-06-21 17:24:47.437500000,-41.0,-12.0,48.0,82.198125,39.41,15.607225249999999,33.95
2021-06-21 17:24:47.445312500,-41.0,-12.0,48.0,82.197734375,39.34,15.60646459375,33.95
2021-06-21 17:24:47.453125000,-41.0,-12.0,48.0,82.19734375,39.27,15.6057039375,33.95
2021-06-21 17:24:47.460937500,-41.0,-12.0,48.0,82.196953125,39.795,15.60494328125,33.95
2021-06-21 17:24:47.468750000,-41.0,-12.0,48.0,82.1965625,40.32,15.604182625,33.95
2021-06-21 17:24:47.476562500,-41.0,-12.0,48.0,82.196171875,41.34,15.603421968749998,33.95
2021-06-21 17:24:47.484375000,-41.0,-12.0,48.0,82.19578125,42.36,15.602661312499999,33.95
2021-06-21 17:24:47.492187500,-41.0,-12.0,48.0,82.195390625,43.68,15.601900656249999,33.95
2021-06-21 17:24:47.500000000,-41.0,-12.0,48.0,82.195,45.0,15.60114,33.95
2021-06-21 17:24:47.507812500,-41.0,-12.25,48.0,82.194609375,46.375,15.60089978125,33.95
2021-06-21 17:24:47.515625000,-41.0,-12.5,48.0,82.19421875,47.75,15.600659562499999,33.95
2021-06-21 17:24:47.523437500,-41.0,-12.75,48.0,82.193828125,48.92,15.60041934375,33.95
2021-06-21 17:24:47.531250000,-41.0,-13.0,48.0,82.1934375,50.09,15.600179124999999,33.95
2021-06-21 17:24:47.539062500,-41.0,-13.0,48.0,82.19304687500001,50.900000000000006,15.59993890625,33.95
2021-06-21 17:24:47.546875000,-41.0,-13.0,48.0,82.19265625,51.71,15.5996986875,33.95
2021-06-21 17:24:47.554687500,-41.0,-13.0,48.0,82.192265625,52.129999999999995,15.599458468749999,33.95
2021-06-21 17:24:47.562500000,-41.0,-13.0,48.0,82.191875,52.55,15.59921825,33.95
2021-06-21 17:24:47.570312500,-41.0,-13.0,48.0,82.191484375,52.655,15.598978031249999,33.95
2021-06-21 17:24:47.578125000,-41.0,-13.0,48.0,82.19109375000001,52.76,15.5987378125,33.95
2021-06-21 17:24:47.585937500,-41.0,-13.0,48.0,82.190703125,52.675,15.59849759375,33.95
2021-06-21 17:24:47.593750000,-41.0,-13.0,48.0,82.1903125,52.59,15.598257375,33.95
2021-06-21 17:24:47.601562500,-41.0,-12.75,48.0,82.189921875,52.355000000000004,15.59801715625,33.95
2021-06-21 17:24:47.609375000,-41.0,-12.5,48.0,82.18953125,52.12,15.597776937499999,33.95
2021-06-21 17:24:47.617187500,-41.0,-12.25,48.0,82.18914062500001,51.65,15.59753671875,33.95
2021-06-21 17:24:47.625000000,-41.0,-12.0,48.0,82.18875,51.18,15.597296499999999,33.95
2021-06-21 17:24:47.632812500,-41.0,-12.0,48.0,82.188359375,50.28,15.59705628125,33.95
2021-06-21 17:24:47.640625000,-41.0,-12.0,48.0,82.18796875,49.38,15.5968160625,33.95
2021-06-21 17:24:47.648437500,-41.0,-12.0,48.0,82.187578125,47.85,15.59657584375,33.95
2021-06-21 17:24:47.656250000,-41.0,-12.0,48.0,82.18718750000001,46.32,15.596335625,33.95
2021-06-21 17:24:47.664062500,-41.25,-12.0,48.0,82.186796875,44.08,15.596095406249999,33.95
2021-06-21 17:24:47.671875000,-41.5,-12.0,48.0,82.18640625,41.84,15.5958551875,33.95
2021-06-21 17:24:47.679687500,-41.75,-12.0,48.0,82.186015625,39.010000000000005,15.59561496875,33.95
2021-06-21 17:24:47.687500000,-42.0,-12.0,48.0,82.185625,36.18,15.59537475,33.95
2021-06-21 17:24:47.695312500,-42.0,-12.0,48.0,82.18523437500001,33.075,15.59513453125,33.95
2021-06-21 17:24:47.703125000,-42.0,-12.0,48.0,82.18484375,29.97,15.5948943125,33.95
2021-06-21 17:24:47.710937500,-42.0,-12.0,48.0,82.184453125,26.97,15.59465409375,33.95
2021-06-21 17:24:47.718750000,-42.0,-12.0,48.0,82.1840625,23.97,15.594413875,33.95
2021-06-21 17:24:47.726562500,-41.75,-12.0,48.0,82.183671875,21.384999999999998,15.59417365625,33.95
2021-06-21 17:24:47.734375000,-41.5,-12.0,48.0,82.18328125000001,18.8,15.5939334375,33.95
2021-06-21 17:24:47.742187500,-41.25,-12.0,48.0,82.182890625,16.75,15.59369321875,33.95
2021-06-21 17:24:47.750000000,-41.0,-12.0,48.0,82.1825,14.7,15.593453,33.95
2021-06-21 17:24:47.757812500,-41.0,-12.0,48.0,82.182109375,13.07,15.59369321875,33.95
2021-06-21 17:24:47.765625000,-41.0,-12.0,48.0,82.18171875,11.44,15.5939334375,33.95
2021-06-21 17:24:47.773437500,-41.0,-12.0,48.0,82.18132812500001,9.989999999999998,15.59417365625,33.95
2021-06-21 17:24:47.781250000,-41.0,-12.0,48.0,82.1809375,8.54,15.594413875,33.95
2021-06-21 17:24:47.789062500,-41.0,-12.25,48.0,82.180546875,7.004999999999999,15.59465409375,33.95
2021-06-21 17:24:47.796875000,-41.0,-12.5,48.0,82.18015625,5.47,15.5948943125,33.95
2021-06-21 17:24:47.804687500,-41.0,-12.75,48.0,82.179765625,3.66,15.59513453125,33.95
2021-06-21 17:24:47.812500000,-41.0,-13.0,48.0,82.17937500000001,1.85,15.59537475,33.95
2021-06-21 17:24:47.820312500,-41.0,-12.75,48.0,82.178984375,-0.2749999999999999,15.59561496875,33.95
2021-06-21 17:24:47.828125000,-41.0,-12.5,48.0,82.17859375,-2.4,15.5958551875,33.95
2021-06-21 17:24:47.835937500,-41.0,-12.25,48.0,82.178203125,-4.805,15.596095406249999,33.95
2021-06-21 17:24:47.843750000,-41.0,-12.0,48.0,82.1778125,-7.21,15.596335625,33.95
2021-06-21 17:24:47.851562500,-41.0,-12.0,48.0,82.17742187500001,-9.8,15.59657584375,33.95
2021-06-21 17:24:47.859375000,-41.0,-12.0,48.0,82.17703125,-12.39,15.5968160625,33.95
2021-06-21 17:24:47.867187500,-41.0,-12.0,48.0,82.176640625,-15.105,15.59705628125,33.95
2021-06-21 17:24:47.875000000,-41.0,-12.0,48.0,82.17625,-17.82,15.597296499999999,33.95
2021-06-21 17:24:47.882812500,-41.0,-12.0,48.0,82.175859375,-20.615000000000002,15.59753671875,33.95
2021-06-21 17:24:47.890625000,-41.0,-12.0,48.0,82.17546875000001,-23.41,15.597776937499999,33.95
2021-06-21 17:24:47.898437500,-41.0,-12.0,48.0,82.175078125,-26.28,15.59801715625,33.95
2021-06-21 17:24:47.906250000,-41.0,-12.0,48.0,82.1746875,-29.15,15.598257375,33.95
2021-06-21 17:24:47.914062500,-41.0,-12.0,48.0,82.174296875,-32.099999999999994,15.59849759375,33.95
2021-06-21 17:24:47.921875000,-41.0,-12.0,48.0,82.17390625,-35.05,15.5987378125,33.95
2021-06-21 17:24:47.929687500,-41.0,-12.0,48.0,82.17351562500001,-38.129999999999995,15.598978031249999,33.95
2021-06-21 17:24:47.937500000,-41.0,-12.0,48.0,82.173125,-41.21,15.59921825,33.95
2021-06-21 17:24:47.945312500,-41.0,-12.0,48.0,82.172734375,-44.545,15.599458468749999,33.95
2021-06-21 17:24:47.953125000,-41.0,-12.0,48.0,82.17234375,-47.88,15.5996986875,33.95
2021-06-21 17:24:47.960937500,-41.0,-12.0,48.0,82.171953125,-51.64,15.59993890625,33.95
2021-06-21 17:24:47.968750000,-41.0,-12.0,48.0,82.17156250000001,-55.4,15.600179124999999,33.95
2021-06-21 17:24:47.976562500,-41.0,-12.0,48.0,82.171171875,-59.739999999999995,15.60041934375,33.95
2021-06-21 17:24:47.984375000,-41.0,-12.0,48.0,82.17078125,-64.08,15.600659562499999,33.95
2021-06-21 17:24:47.992187500,-41.0,-12.0,48.0,82.170390625,-68.94999999999999,15.60089978125,33.95
2021-06-21 17:24:48.000000000,-41.0,-12.0,48.0,82.17,-73.82,15.60114,33.95
2021-06-21 17:24:48.007812500,-41.0,-12.0,48.0,82.169453125,-78.865,15.602701343749999,33.95
2021-06-21 17:24:48.015625000,-41.0,-12.0,48.0,82.16890625,-83.91,15.604262687499999,33.95
2021-06-21 17:24:48.023437500,-41.0,-12.0,48.0,82.16835937500001,-88.4,15.60582403125,33.95
2021-06-21 17:24:48.031250000,-41.0,-12.0,48.0,82.1678125,-92.89,15.607385375,33.95
2021-06-21 17:24:48.039062500,-41.0,-12.0,48.0,82.167265625,-95.83500000000001,15.60894671875,33.95
2021-06-21 17:24:48.046875000,-41.0,-12.0,48.0,82.16671875,-98.78,15.6105080625,33.95
2021-06-21 17:24:48.054687500,-41.0,-12.0,48.0,82.166171875,-99.21000000000001,15.612069406249999,33.95
2021-06-21 17:24:48.062500000,-41.0,-12.0,48.0,82.165625,-99.64,15.613630749999999,33.95
2021-06-21 17:24:48.070312500,-41.0,-12.0,48.0,82.16507812500001,-96.92,15.61519209375,33.95
2021-06-21 17:24:48.078125000,-41.0,-12.0,48.0,82.16453125,-94.2,15.6167534375,33.95
2021-06-21 17:24:48.085937500,-41.0,-12.0,48.0,82.163984375,-88.32,15.61831478125,33.95
2021-06-21 17:24:48.093750000,-41.0,-12.0,48.0,82.1634375,-82.44,15.619876125,33.95
2021-06-21 17:24:48.101562500,-41.25,-12.0,48.0,82.162890625,-74.03,15.621437468749999,33.95
2021-06-21 17:24:48.109375000,-41.5,-12.0,48.0,82.16234375,-65.62,15.6229988125,33.95
2021-06-21 17:24:48.117187500,-41.75,-12.0,48.0,82.16179687500001,-55.81,15.62456015625,33.95
2021-06-21 17:24:48.125000000,-42.0,-12.0,48.0,82.16125,-46.0,15.6261215,33.95
2021-06-21 17:24:48.132812500,-41.75,-12.25,48.0,82.160703125,-36.055,15.62768284375,33.95
2021-06-21 17:24:48.140625000,-41.5,-12.5,48.0,82.16015625,-26.11,15.6292441875,33.95
2021-06-21 17:24:48.148437500,-41.25,-12.75,48.0,82.159609375,-17.08,15.630805531250001,33.95
2021-06-21 17:24:48.156250000,-41.0,-13.0,48.0,82.1590625,-8.05,15.632366875,33.95
2021-06-21 17:24:48.164062500,-41.0,-12.75,48.0,82.158515625,-0.5549999999999997,15.63392821875,33.95
2021-06-21 17:24:48.171875000,-41.0,-12.5,48.0,82.15796875,6.94,15.6354895625,33.95
2021-06-21 17:24:48.179687500,-41.0,-12.25,48.0,82.157421875,12.754999999999999,15.63705090625,33.95
2021-06-21 17:24:48.187500000,-41.0,-12.0,48.0,82.156875,18.57,15.638612250000001,33.95
2021-06-21 17:24:48.195312500,-41.0,-12.0,48.0,82.156328125,22.855,15.640173593750001,33.95
2021-06-21 17:24:48.203125000,-41.0,-12.0,48.0,82.15578125,27.14,15.6417349375,33.95
2021-06-21 17:24:48.210937500,-41.0,-12.0,48.0,82.155234375,30.155,15.64329628125,33.95
2021-06-21 17:24:48.218750000,-41.0,-12.0,48.0,82.1546875,33.17,15.644857625,33.95
2021-06-21 17:24:48.226562500,-41.0,-12.0,48.0,82.154140625,35.085,15.64641896875,33.95
2021-06-21 17:24:48.234375000,-41.0,-12.0,48.0,82.15359375,37.0,15.647980312500001,33.95
2021-06-21 17:24:48.242187500,-41.0,-12.0,48.0,82.153046875,37.9,15.649541656250001,33.95
2021-06-21 17:24:48.250000000,-41.0,-12.0,48.0,82.1525,38.8,15.651103,33.95
2021-06-21 17:24:48.257812500,-41.0,-12.0,48.0,82.151953125,38.769999999999996,15.652704375,33.95
2021-06-21 17:24:48.265625000,-41.0,-12.0,48.0,82.15140625,38.74,15.65430575,33.95
2021-06-21 17:24:48.273437500,-41.0,-12.0,48.0,82.150859375,37.92,15.655907125,33.95
2021-06-21 17:24:48.281250000,-41.0,-12.0,48.0,82.1503125,37.1,15.6575085,33.95
2021-06-21 17:24:48.289062500,-41.0,-12.0,48.0,82.149765625,35.805,15.659109875,33.95
2021-06-21 17:24:48.296875000,-41.0,-12.0,48.0,82.14921875,34.51,15.66071125,33.95
2021-06-21 17:24:48.304687500,-41.0,-12.0,48.0,82.148671875,33.155,15.662312625,33.95
2021-06-21 17:24:48.312500000,-41.0,-12.0,48.0,82.148125,31.8,15.663914,33.95
2021-06-21 17:24:48.320312500,-41.0,-12.0,48.0,82.147578125,30.8,15.665515375,33.95
2021-06-21 17:24:48.328125000,-41.0,-12.0,48.0,82.14703125,29.8,15.66711675,33.95
2021-06-21 17:24:48.335937500,-41.0,-12.0,48.0,82.146484375,29.43,15.668718125,33.95
2021-06-21 17:24:48.343750000,-41.0,-12.0,48.0,82.1459375,29.06,15.6703195,33.95
2021-06-21 17:24:48.351562500,-41.0,-12.0,48.0,82.145390625,29.424999999999997,15.671920875,33.95
2021-06-21 17:24:48.359375000,-41.0,-12.0,48.0,82.14484374999999,29.79,15.67352225,33.95
2021-06-21 17:24:48.367187500,-41.0,-12.0,48.0,82.144296875,30.765,15.675123625,33.95
2021-06-21 17:24:48.375000000,-41.0,-12.0,48.0,82.14375,31.74,15.676725000000001,33.95
2021-06-21 17:24:48.382812500,-41.0,-12.0,48.0,82.143203125,33.105,15.678326375000001,33.95
2021-06-21 17:24:48.390625000,-41.0,-12.0,48.0,82.14265625,34.47,15.679927750000001,33.95
2021-06-21 17:24:48.398437500,-41.0,-12.0,48.0,82.142109375,35.95,15.681529125,33.95
2021-06-21 17:24:48.406250000,-41.0,-12.0,48.0,82.14156249999999,37.43,15.6831305,33.95
2021-06-21 17:24:48.414062500,-41.0,-12.0,48.0,82.141015625,38.795,15.684731875,33.95
2021-06-21 17:24:48.421875000,-41.0,-12.0,48.0,82.14046875,40.16,15.68633325,33.95
2021-06-21 17:24:48.429687500,-41.0,-12.0,48.0,82.139921875,41.275,15.687934625,33.95
2021-06-21 17:24:48.437500000,-41.0,-12.0,48.0,82.139375,42.39,15.689536,33.95
2021-06-21 17:24:48.445312500,-41.0,-12.0,48.0,82.138828125,43.21,15.691137375,33.95
2021-06-21 17:24:48.453125000,-41.0,-12.0,48.0,82.13828124999999,44.03,15.69273875,33.95
2021-06-21 17:24:48.460937500,-41.0,-12.0,48.0,82.137734375,44.56,15.694340125,33.95
2021-06-21 17:24:48.468750000,-41.0,-12.0,48.0,82.1371875,45.09,15.6959415,33.95
2021-06-21 17:24:48.476562500,-41.0,-12.0,48.0,82.136640625,45.345,15.697542875,33.95
2021-06-21 17:24:48.484375000,-41.0,-12.0,48.0,82.13609375,45.6,15.69914425,33.95
2021-06-21 17:24:48.492187500,-41.0,-12.0,48.0,82.135546875,45.56,15.700745625,33.95
2021-06-21 17:24:48.500000000,-41.0,-12.0,48.0,82.13499999999999,45.52,15.702347,33.95
2021-06-21 17:24:48.507812500,-41.0,-12.0,48.0,82.134453125,45.095,15.70370815625,33.95
2021-06-21 17:24:48.515625000,-41.0,-12.0,48.0,82.13390625,44.67,15.7050693125,33.95
2021-06-21 17:24:48.523437500,-41.0,-12.0,48.0,82.133359375,43.74,15.70643046875,33.95
2021-06-21 17:24:48.531250000,-41.0,-12.0,48.0,82.1328125,42.81,15.707791624999999,33.95
2021-06-21 17:24:48.539062500,-41.0,-12.0,48.0,82.132265625,41.260000000000005,15.70915278125,33.95
2021-06-21 17:24:48.546875000,-41.0,-12.0,48.0,82.13171875,39.71,15.7105139375,33.95
2021-06-21 17:24:48.554687500,-41.0,-12.0,48.0,82.13117187499999,37.545,15.711875093749999,33.95
2021-06-21 17:24:48.562500000,-41.0,-12.0,48.0,82.130625,35.38,15.71323625,33.95
2021-06-21 17:24:48.570312500,-41.0,-12.0,48.0,82.130078125,32.745000000000005,15.71459740625,33.95
2021-06-21 17:24:48.578125000,-41.0,-12.0,48.0,82.12953125,30.11,15.7159585625,33.95
2021-06-21 17:24:48.585937500,-41.0,-12.0,48.0,82.128984375,27.244999999999997,15.71731971875,33.95
2021-06-21 17:24:48.593750000,-41.0,-12.0,48.0,82.1284375,24.38,15.718680875,33.95
2021-06-21 17:24:48.601562500,-41.0,-12.0,48.0,82.12789062499999,21.57,15.72004203125,33.95
2021-06-21 17:24:48.609375000,-41.0,-12.0,48.0,82.12734375,18.76,15.7214031875,33.95
2021-06-21 17:24:48.617187500,-41.0,-12.0,48.0,82.126796875,16.185000000000002,15.722764343749999,33.95
2021-06-21 17:24:48.625000000,-41.0,-12.0,48.0,82.12625,13.61,15.7241255,33.95
2021-06-21 17:24:48.632812500,-41.0,-12.0,48.0,82.125703125,11.325,15.72548665625,33.95
2021-06-21 17:24:48.640625000,-41.0,-12.0,48.0,82.12515625,9.04,15.726847812499999,33.95
2021-06-21 17:24:48.648437500,-41.0,-12.0,48.0,82.12460937499999,6.955,15.72820896875,33.95
2021-06-21 17:24:48.656250000,-41.0,-12.0,48.0,82.1240625,4.87,15.729570124999999,33.95
2021-06-21 17:24:48.664062500,-41.0,-12.25,48.0,82.123515625,2.855,15.73093128125,33.95
2021-06-21 17:24:48.671875000,-41.0,-12.5,48.0,82.12296875,0.84,15.7322924375,33.95
2021-06-21 17:24:48.679687500,-41.0,-12.75,48.0,82.122421875,-1.2600000000000002,15.733653593749999,33.95
2021-06-21 17:24:48.687500000,-41.0,-13.0,48.0,82.121875,-3.36,15.73501475,33.95
2021-06-21 17:24:48.695312500,-41.0,-12.75,48.0,82.12132812499999,-5.625,15.73637590625,33.95
2021-06-21 17:24:48.703125000,-41.0,-12.5,48.0,82.12078125,-7.89,15.737737062499999,33.95
2021-06-21 17:24:48.710937500,-41.0,-12.25,48.0,82.120234375,-10.33,15.73909821875,33.95
2021-06-21 17:24:48.718750000,-41.0,-12.0,48.0,82.1196875,-12.77,15.740459375,33.95
2021-06-21 17:24:48.726562500,-41.0,-12.0,48.0,82.119140625,-15.31,15.74182053125,33.95
2021-06-21 17:24:48.734375000,-41.0,-12.0,48.0,82.11859375,-17.85,15.7431816875,33.95
2021-06-21 17:24:48.742187500,-41.0,-12.0,48.0,82.11804687499999,-20.355,15.744542843749999,33.95
2021-06-21 17:24:48.750000000,-41.0,-12.0,48.0,82.11749999999999,-22.86,15.745904,33.95
2021-06-21 17:24:48.757812500,-41.0,-12.0,48.0,82.116953125,-25.16,15.7495871875,33.95
2021-06-21 17:24:48.765625000,-41.0,-12.0,48.0,82.11640625,-27.46,15.753270375,33.95
2021-06-21 17:24:48.773437500,-41.0,-12.0,48.0,82.115859375,-29.41,15.7569535625,33.95
2021-06-21 17:24:48.781250000,-41.0,-12.0,48.0,82.1153125,-31.36,15.76063675,33.95
2021-06-21 17:24:48.789062500,-41.0,-12.0,48.0,82.11476562499999,-32.92,15.7643199375,33.95
2021-06-21 17:24:48.796875000,-41.0,-12.0,48.0,82.11421874999999,-34.48,15.768003125,33.95
2021-06-21 17:24:48.804687500,-41.0,-12.0,48.0,82.113671875,-35.775,15.7716863125,33.95
2021-06-21 17:24:48.812500000,-41.0,-12.0,48.0,82.113125,-37.07,15.7753695,33.95
2021-06-21 17:24:48.820312500,-41.25,-12.0,48.0,82.112578125,-38.394999999999996,15.7790526875,33.95
2021-06-21 17:24:48.828125000,-41.5,-12.0,48.0,82.11203125,-39.72,15.782735875,33.95
2021-06-21 17:24:48.835937500,-41.75,-12.0,48.0,82.11148437499999,-41.474999999999994,15.7864190625,33.95
2021-06-21 17:24:48.843750000,-42.0,-12.0,48.0,82.11093749999999,-43.23,15.79010225,33.95
2021-06-21 17:24:48.851562500,-41.75,-12.0,48.0,82.110390625,-45.769999999999996,15.7937854375,33.95
2021-06-21 17:24:48.859375000,-41.5,-12.0,48.0,82.10984375,-48.31,15.797468625,33.95
2021-06-21 17:24:48.867187500,-41.25,-12.0,48.0,82.109296875,-51.83,15.8011518125,33.95
2021-06-21 17:24:48.875000000,-41.0,-12.0,48.0,82.10875,-55.35,15.804835,33.95
2021-06-21 17:24:48.882812500,-41.0,-12.0,48.0,82.10820312499999,-59.78,15.808518187499999,33.95
2021-06-21 17:24:48.890625000,-41.0,-12.0,48.0,82.10765624999999,-64.21,15.812201374999999,33.95
2021-06-21 17:24:48.898437500,-41.0,-12.0,48.0,82.107109375,-69.16499999999999,15.815884562499999,33.95
2021-06-21 17:24:48.906250000,-41.0,-12.0,48.0,82.1065625,-74.12,15.81956775,33.95
2021-06-21 17:24:48.914062500,-41.0,-12.0,48.0,82.106015625,-78.91499999999999,15.8232509375,33.95
2021-06-21 17:24:48.921875000,-41.0,-12.0,48.0,82.10546875,-83.71,15.826934125,33.95
2021-06-21 17:24:48.929687500,-41.0,-12.0,48.0,82.10492187499999,-87.43,15.8306173125,33.95
2021-06-21 17:24:48.937500000,-41.0,-12.0,48.0,82.10437499999999,-91.15,15.8343005,33.95
2021-06-21 17:24:48.945312500,-41.0,-12.0,48.0,82.10382812499999,-92.82,15.8379836875,33.95
2021-06-21 17:24:48.953125000,-41.0,-12.0,48.0,82.10328125,-94.49,15.841666875,33.95
2021-06-21 17:24:48.960937500,-41.0,-12.0,48.0,82.102734375,-93.28,15.8453500625,33.95
2021-06-21 17:24:48.968750000,-41.0,-12.0,48.0,82.1021875,-92.07,15.84903325,33.95
2021-06-21 17:24:48.976562500,-41.0,-12.0,48.0,82.10164062499999,-87.57499999999999,15.8527164375,33.95
2021-06-21 17:24:48.984375000,-41.0,-12.0,48.0,82.10109374999999,-83.08,15.856399625,33.95
2021-06-21 17:24:48.992187500,-41.0,-12.0,48.0,82.10054687499999,-75.47999999999999,15.8600828125,33.95
2021-06-21 17:24:49.000000000,-41.0,-12.0,48.0,82.1,-67.88,15.863766,33.95
2021-06-21 17:24:49.007812500,-41.0,-12.0,48.0,82.09976562499999,-57.995,15.8666484375,33.949375
2021-06-21 17:24:49.015625000,-41.0,-12.0,48.0,82.09953125,-48.11,15.869530875,33.948750000000004
2021-06-21 17:24:49.023437500,-41.0,-12.0,48.0,82.099296875,-37.15,15.8724133125,33.948125000000005
2021-06-21 17:24:49.031250000,-41.0,-12.0,48.0,82.09906249999999,-26.19,15.87529575,33.947500000000005
2021-06-21 17:24:49.039062500,-41.0,-12.0,48.0,82.098828125,-15.455,15.8781781875,33.946875000000006
2021-06-21 17:24:49.046875000,-41.0,-12.0,48.0,82.09859374999999,-4.72,15.881060625,33.94625
2021-06-21 17:24:49.054687500,-41.0,-12.0,48.0,82.098359375,4.750000000000001,15.8839430625,33.945625
2021-06-21 17:24:49.062500000,-41.0,-12.0,48.0,82.098125,14.22,15.8868255,33.945
2021-06-21 17:24:49.070312500,-41.0,-12.0,48.0,82.09789062499999,21.81,15.8897079375,33.944375
2021-06-21 17:24:49.078125000,-41.0,-12.0,48.0,82.09765625,29.4,15.892590375,33.94375
2021-06-21 17:24:49.085937500,-41.0,-12.0,48.0,82.097421875,34.945,15.8954728125,33.943125
2021-06-21 17:24:49.093750000,-41.0,-12.0,48.0,82.09718749999999,40.49,15.89835525,33.9425
2021-06-21 17:24:49.101562500,-41.0,-12.0,48.0,82.096953125,44.085,15.9012376875,33.941875
2021-06-21 17:24:49.109375000,-41.0,-12.0,48.0,82.09671875,47.68,15.904120125,33.941250000000004
2021-06-21 17:24:49.117187500,-41.0,-12.0,48.0,82.09648437499999,49.525,15.9070025625,33.940625000000004
2021-06-21 17:24:49.125000000,-41.0,-12.0,48.0,82.09625,51.37,15.909885,33.94
2021-06-21 17:24:49.132812500,-41.0,-12.0,48.0,82.09601562499999,51.68,15.9127674375,33.939375
2021-06-21 17:24:49.140625000,-41.0,-12.0,48.0,82.09578124999999,51.99,15.915649875,33.93875
2021-06-21 17:24:49.148437500,-41.0,-12.0,48.0,82.095546875,50.975,15.9185323125,33.938125
2021-06-21 17:24:49.156250000,-41.0,-12.0,48.0,82.09531249999999,49.96,15.92141475,33.9375
2021-06-21 17:24:49.164062500,-41.0,-12.0,48.0,82.095078125,47.91,15.9242971875,33.936875
2021-06-21 17:24:49.171875000,-41.0,-12.0,48.0,82.09484375,45.86,15.927179625,33.93625
2021-06-21 17:24:49.179687500,-41.0,-12.0,48.0,82.09460937499999,43.175,15.9300620625,33.935625
2021-06-21 17:24:49.187500000,-41.0,-12.0,48.0,82.094375,40.49,15.9329445,33.935
2021-06-21 17:24:49.195312500,-41.0,-12.0,48.0,82.094140625,37.67,15.9358269375,33.934375
2021-06-21 17:24:49.203125000,-41.0,-12.0,48.0,82.09390624999999,34.85,15.938709375,33.93375
2021-06-21 17:24:49.210937500,-41.0,-12.0,48.0,82.093671875,32.41,15.9415918125,33.933125
2021-06-21 17:24:49.218750000,-41.0,-12.0,48.0,82.0934375,29.97,15.94447425,33.9325
2021-06-21 17:24:49.226562500,-41.0,-12.0,48.0,82.09320312499999,28.375,15.9473566875,33.931875
2021-06-21 17:24:49.234375000,-41.0,-12.0,48.0,82.09296875,26.78,15.950239125,33.93125
2021-06-21 17:24:49.242187500,-41.0,-12.0,48.0,82.09273437499999,26.32,15.9531215625,33.930625
2021-06-21 17:24:49.250000000,-41.0,-12.0,48.0,82.0925,25.86,15.956004,33.93
2021-06-21 17:24:49.257812500,-41.25,-12.0,48.0,82.092265625,26.595,15.9621693125,33.93
2021-06-21 17:24:49.265625000,-41.5,-12.0,48.0,82.09203124999999,27.33,15.968334625,33.93
2021-06-21 17:24:49.273437500,-41.75,-12.0,48.0,82.091796875,29.055,15.9744999375,33.93
2021-06-21 17:24:49.281250000,-42.0,-12.0,48.0,82.0915625,30.78,15.98066525,33.93
2021-06-21 17:24:49.289062500,-41.75,-12.0,48.0,82.09132812499999,33.085,15.9868305625,33.93
2021-06-21 17:24:49.296875000,-41.5,-12.0,48.0,82.09109375,35.39,15.992995875,33.93
2021-06-21 17:24:49.304687500,-41.25,-12.0,48.0,82.090859375,37.72,15.9991611875,33.93
2021-06-21 17:24:49.312500000,-41.0,-12.0,48.0,82.09062499999999,40.05,16.0053265,33.93
2021-06-21 17:24:49.320312500,-41.0,-12.0,48.0,82.090390625,41.885,16.0114918125,33.93
2021-06-21 17:24:49.328125000,-41.0,-12.0,48.0,82.09015624999999,43.72,16.017657125,33.93
2021-06-21 17:24:49.335937500,-41.0,-12.0,48.0,82.08992187499999,44.71,16.023822437499998,33.93
2021-06-21 17:24:49.343750000,-41.0,-12.0,48.0,82.0896875,45.7,16.02998775,33.93
2021-06-21 17:24:49.351562500,-41.0,-12.0,48.0,82.08945312499999,45.760000000000005,16.0361530625,33.93
2021-06-21 17:24:49.359375000,-41.0,-12.0,48.0,82.08921875,45.82,16.042318375,33.93
2021-06-21 17:24:49.367187500,-41.0,-12.0,48.0,82.088984375,45.11,16.0484836875,33.93
2021-06-21 17:24:49.375000000,-41.0,-12.0,48.0,82.08874999999999,44.4,16.054648999999998,33.93
2021-06-21 17:24:49.382812500,-41.0,-12.25,48.0,82.088515625,43.205,16.0608143125,33.93
2021-06-21 17:24:49.390625000,-41.0,-12.5,48.0,82.08828125,42.01,16.066979625,33.93
2021-06-21 17:24:49.398437500,-41.0,-12.75,48.0,82.08804687499999,40.59,16.0731449375,33.93
2021-06-21 17:24:49.406250000,-41.0,-13.0,48.0,82.0878125,39.17,16.07931025,33.93
2021-06-21 17:24:49.414062500,-41.0,-13.0,48.0,82.087578125,37.635000000000005,16.0854755625,33.93
2021-06-21 17:24:49.421875000,-41.0,-13.0,48.0,82.08734374999999,36.1,16.091640875,33.93
2021-06-21 17:24:49.429687500,-41.0,-13.0,48.0,82.087109375,34.394999999999996,16.097806187499998,33.93
2021-06-21 17:24:49.437500000,-41.0,-13.0,48.0,82.08687499999999,32.69,16.1039715,33.93
2021-06-21 17:24:49.445312500,-41.0,-13.0,48.0,82.08664062499999,30.685,16.1101368125,33.93
2021-06-21 17:24:49.453125000,-41.0,-13.0,48.0,82.08640625,28.68,16.116302125,33.93
2021-06-21 17:24:49.460937500,-41.0,-13.0,48.0,82.08617187499999,26.27,16.1224674375,33.93
2021-06-21 17:24:49.468750000,-41.0,-13.0,48.0,82.0859375,23.86,16.128632749999998,33.93
2021-06-21 17:24:49.476562500,-41.0,-13.0,48.0,82.085703125,21.1,16.1347980625,33.93
2021-06-21 17:24:49.484375000,-41.0,-13.0,48.0,82.08546874999999,18.34,16.140963375,33.93
2021-06-21 17:24:49.492187500,-41.0,-13.0,48.0,82.085234375,15.44,16.1471286875,33.93
2021-06-21 17:24:49.500000000,-41.0,-13.0,48.0,82.085,12.54,16.153294,33.93
2021-06-21 17:24:49.507812500,-41.0,-13.0,48.0,82.08476562499999,9.79,16.1619814375,33.93
2021-06-21 17:24:49.515625000,-41.0,-13.0,48.0,82.08453125,7.04,16.170668875,33.93
2021-06-21 17:24:49.523437500,-41.0,-13.0,48.0,82.08429687499999,4.675,16.179356312499998,33.93
2021-06-21 17:24:49.531250000,-41.0,-13.0,48.0,82.08406249999999,2.31,16.18804375,33.93
2021-06-21 17:24:49.539062500,-41.0,-13.0,48.0,82.083828125,0.41500000000000004,16.1967311875,33.93
2021-06-21 17:24:49.546875000,-41.0,-13.0,48.0,82.08359374999999,-1.48,16.205418625,33.93
2021-06-21 17:24:49.554687500,-41.0,-13.0,48.0,82.083359375,-3.04,16.214106062499997,33.93
2021-06-21 17:24:49.562500000,-41.0,-13.0,48.0,82.083125,-4.6,16.222793499999998,33.93
2021-06-21 17:24:49.570312500,-41.0,-13.0,48.0,82.08289062499999,-6.074999999999999,16.2314809375,33.93
2021-06-21 17:24:49.578125000,-41.0,-13.0,48.0,82.08265625,-7.55,16.240168375,33.93
2021-06-21 17:24:49.585937500,-41.0,-13.0,48.0,82.082421875,-9.2,16.2488558125,33.93
2021-06-21 17:24:49.593750000,-41.0,-13.0,48.0,82.08218749999999,-10.85,16.257543249999998,33.93
2021-06-21 17:24:49.601562500,-41.0,-13.0,48.0,82.081953125,-12.805,16.2662306875,33.93
2021-06-21 17:24:49.609375000,-41.0,-13.0,48.0,82.08171875,-14.76,16.274918125,33.93
2021-06-21 17:24:49.617187500,-41.0,-13.0,48.0,82.08148437499999,-16.955,16.2836055625,33.93
2021-06-21 17:24:49.625000000,-41.0,-13.0,48.0,82.08125,-19.15,16.292293,33.93
2021-06-21 17:24:49.632812500,-41.0,-13.0,48.0,82.08101562499999,-21.375,16.300980437499998,33.93
2021-06-21 17:24:49.640625000,-41.0,-13.0,48.0,82.08078124999999,-23.6,16.309667875,33.93
2021-06-21 17:24:49.648437500,-41.0,-13.0,48.0,82.080546875,-25.62,16.3183553125,33.93
2021-06-21 17:24:49.656250000,-41.0,-13.0,48.0,82.08031249999999,-27.64,16.32704275,33.93
2021-06-21 17:24:49.664062500,-41.0,-13.0,48.0,82.080078125,-29.32,16.335730187499998,33.93
2021-06-21 17:24:49.671875000,-41.0,-13.0,48.0,82.07984375,-31.0,16.344417625,33.93
2021-06-21 17:24:49.679687500,-41.0,-13.0,48.0,82.07960937499999,-32.43,16.3531050625,33.93
2021-06-21 17:24:49.687500000,-41.0,-13.0,48.0,82.079375,-33.86,16.3617925,33.93
2021-06-21 17:24:49.695312500,-41.0,-13.0,48.0,82.079140625,-35.325,16.3704799375,33.93
2021-06-21 17:24:49.703125000,-41.0,-13.0,48.0,82.07890624999999,-36.79,16.379167374999998,33.93
2021-06-21 17:24:49.710937500,-41.0,-13.0,48.0,82.078671875,-38.72,16.3878548125,33.93
2021-06-21 17:24:49.718750000,-41.0,-13.0,48.0,82.07843749999999,-40.65,16.39654225,33.93
2021-06-21 17:24:49.726562500,-41.0,-13.0,48.0,82.07820312499999,-43.45,16.4052296875,33.93
2021-06-21 17:24:49.734375000,-41.0,-13.0,48.0,82.07796875,-46.25,16.413917124999998,33.93
2021-06-21 17:24:49.742187500,-41.0,-13.0,48.0,82.07773437499999,-50.14,16.4226045625,33.93
2021-06-21 17:24:49.750000000,-41.0,-13.0,48.0,82.07749999999999,-54.03,16.431292,33.93
2021-06-21 17:24:49.757812500,-41.0,-13.0,48.0,82.077265625,-58.84,16.437457312499998,33.93
2021-06-21 17:24:49.765625000,-41.0,-13.0,48.0,82.07703124999999,-63.65,16.443622625,33.93
2021-06-21 17:24:49.773437500,-41.0,-13.0,48.0,82.076796875,-68.77,16.4497879375,33.93
2021-06-21 17:24:49.781250000,-41.0,-13.0,48.0,82.0765625,-73.89,16.45595325,33.93
2021-06-21 17:24:49.789062500,-41.0,-13.0,48.0,82.07632812499999,-78.305,16.4621185625,33.93
2021-06-21 17:24:49.796875000,-41.0,-13.0,48.0,82.07609375,-82.72,16.468283875,33.93
2021-06-21 17:24:49.804687500,-41.0,-13.0,48.0,82.075859375,-85.265,16.4744491875,33.93
2021-06-21 17:24:49.812500000,-41.0,-13.0,48.0,82.07562499999999,-87.81,16.4806145,33.93
2021-06-21 17:24:49.820312500,-41.0,-13.0,48.0,82.075390625,-87.505,16.4867798125,33.93
2021-06-21 17:24:49.828125000,-41.0,-13.0,48.0,82.07515624999999,-87.2,16.492945125,33.93
2021-06-21 17:24:49.835937500,-41.0,-13.0,48.0,82.07492187499999,-83.62,16.4991104375,33.93
2021-06-21 17:24:49.843750000,-41.0,-13.0,48.0,82.0746875,-80.04,16.50527575,33.93
2021-06-21 17:24:49.851562500,-41.0,-13.0,48.0,82.07445312499999,-73.5,16.5114410625,33.93
2021-06-21 17:24:49.859375000,-41.0,-13.0,48.0,82.07421875,-66.96,16.517606375,33.93
2021-06-21 17:24:49.867187500,-41.0,-13.0,48.0,82.073984375,-58.42,16.523771687500002,33.93
2021-06-21 17:24:49.875000000,-41.0,-13.0,48.0,82.07374999999999,-49.88,16.529937,33.93
2021-06-21 17:24:49.882812500,-41.0,-13.0,48.0,82.073515625,-40.645,16.5361023125,33.93
2021-06-21 17:24:49.890625000,-41.0,-13.0,48.0,82.07328125,-31.41,16.542267625,33.93
2021-06-21 17:24:49.898437500,-41.0,-13.0,48.0,82.07304687499999,-22.685000000000002,16.5484329375,33.93
2021-06-21 17:24:49.906250000,-41.0,-13.0,48.0,82.0728125,-13.96,16.55459825,33.93
2021-06-21 17:24:49.914062500,-41.0,-13.0,48.0,82.07257812499999,-6.510000000000001,16.5607635625,33.93
2021-06-21 17:24:49.921875000,-41.0,-13.0,48.0,82.07234374999999,0.94,16.566928875000002,33.93
2021-06-21 17:24:49.929687500,-41.0,-13.0,48.0,82.072109375,6.890000000000001,16.5730941875,33.93
2021-06-21 17:24:49.937500000,-41.0,-13.0,48.0,82.07187499999999,12.84,16.5792595,33.93
2021-06-21 17:24:49.945312500,-41.0,-12.75,48.0,82.07164062499999,17.48,16.5854248125,33.93
2021-06-21 17:24:49.953125000,-41.0,-12.5,48.0,82.07140625,22.12,16.591590125,33.93
2021-06-21 17:24:49.960937500,-41.0,-12.25,48.0,82.07117187499999,25.765,16.597755437500002,33.93
2021-06-21 17:24:49.968750000,-41.0,-12.0,48.0,82.0709375,29.41,16.60392075,33.93
2021-06-21 17:24:49.976562500,-41.0,-12.0,48.0,82.070703125,32.27,16.610086062500002,33.93
2021-06-21 17:24:49.984375000,-41.0,-12.0,48.0,82.07046874999999,35.13,16.616251375,33.93
2021-06-21 17:24:49.992187500,-41.0,-12.0,48.0,82.070234375,37.185,16.622416687500003,33.93
2021-06-21 17:24:50.000000000,-41.0,-12.0,48.0,82.07,39.24,16.628582,33.93
2021-06-21 17:24:50.007812500,-41.0,-12.25,48.0,82.06984374999999,40.355000000000004,16.6434685625,33.930625
2021-06-21 17:24:50.015625000,-41.0,-12.5,48.0,82.06968749999999,41.47,16.658355125,33.93125
2021-06-21 17:24:50.023437500,-41.0,-12.75,48.0,82.06953125,41.53,16.673241687500003,33.931875
2021-06-21 17:24:50.031250000,-41.0,-13.0,48.0,82.069375,41.59,16.688128250000002,33.9325
2021-06-21 17:24:50.039062500,-41.0,-13.0,48.0,82.06921874999999,40.730000000000004,16.7030148125,33.933125
2021-06-21 17:24:50.046875000,-41.0,-13.0,48.0,82.06906249999999,39.87,16.717901375,33.93375
2021-06-21 17:24:50.054687500,-41.0,-13.0,48.0,82.06890625,38.445,16.732787937500003,33.934375
2021-06-21 17:24:50.062500000,-41.0,-13.0,48.0,82.06875,37.02,16.747674500000002,33.935
2021-06-21 17:24:50.070312500,-41.0,-13.0,48.0,82.06859374999999,35.575,16.7625610625,33.935625
2021-06-21 17:24:50.078125000,-41.0,-13.0,48.0,82.06843749999999,34.13,16.777447625,33.93625
2021-06-21 17:24:50.085937500,-41.0,-13.0,48.0,82.06828125,33.155,16.7923341875,33.936875
2021-06-21 17:24:50.093750000,-41.0,-13.0,48.0,82.068125,32.18,16.807220750000003,33.9375
2021-06-21 17:24:50.101562500,-41.0,-13.0,48.0,82.06796874999999,31.939999999999998,16.822107312500002,33.938125
2021-06-21 17:24:50.109375000,-41.0,-13.0,48.0,82.06781249999999,31.7,16.836993875,33.93875
2021-06-21 17:24:50.117187500,-41.0,-13.0,48.0,82.06765625,32.155,16.8518804375,33.939375
2021-06-21 17:24:50.125000000,-41.0,-13.0,48.0,82.0675,32.61,16.866767000000003,33.94
2021-06-21 17:24:50.132812500,-41.0,-12.75,48.0,82.06734374999999,33.455,16.881653562500002,33.940625000000004
2021-06-21 17:24:50.140625000,-41.0,-12.5,48.0,82.06718749999999,34.3,16.896540125,33.941250000000004
2021-06-21 17:24:50.148437500,-41.0,-12.25,48.0,82.06703125,35.155,16.9114266875,33.941875
2021-06-21 17:24:50.156250000,-41.0,-12.0,48.0,82.066875,36.01,16.92631325,33.9425
2021-06-21 17:24:50.164062500,-41.0,-12.25,48.0,82.06671874999999,36.58,16.941199812500003,33.943125
2021-06-21 17:24:50.171875000,-41.0,-12.5,48.0,82.06656249999999,37.15,16.956086375,33.94375
2021-06-21 17:24:50.179687500,-41.0,-12.75,48.0,82.06640625,37.34,16.9709729375,33.944375
2021-06-21 17:24:50.187500000,-41.0,-13.0,48.0,82.06625,37.53,16.9858595,33.945
2021-06-21 17:24:50.195312500,-41.25,-13.0,48.0,82.06609375,37.42,17.0007460625,33.945625
2021-06-21 17:24:50.203125000,-41.5,-13.0,48.0,82.06593749999999,37.31,17.015632625000002,33.94625
2021-06-21 17:24:50.210937500,-41.75,-13.0,48.0,82.06578125,37.065,17.0305191875,33.946875000000006
2021-06-21 17:24:50.218750000,-42.0,-13.0,48.0,82.065625,36.82,17.04540575,33.947500000000005
2021-06-21 17:24:50.226562500,-42.0,-12.75,48.0,82.06546875,36.54,17.0602923125,33.948125000000005
2021-06-21 17:24:50.234375000,-42.0,-12.5,48.0,82.06531249999999,36.26,17.075178875000002,33.948750000000004
2021-06-21 17:24:50.242187500,-42.0,-12.25,48.0,82.06515625,35.905,17.0900654375,33.949375
2021-06-21 17:24:50.250000000,-42.0,-12.0,48.0,82.065,35.55,17.104952,33.95
2021-06-21 17:24:50.257812500,-42.0,-12.0,48.0,82.06484375,34.95,17.11676234375,33.95
2021-06-21 17:24:50.265625000,-42.0,-12.0,48.0,82.06468749999999,34.35,17.1285726875,33.95
2021-06-21 17:24:50.273437500,-42.0,-12.0,48.0,82.06453124999999,33.31,17.14038303125,33.95
2021-06-21 17:24:50.281250000,-42.0,-12.0,48.0,82.064375,32.27,17.152193375,33.95
2021-06-21 17:24:50.289062500,-41.75,-12.25,48.0,82.06421875,30.660000000000004,17.16400371875,33.95
2021-06-21 17:24:50.296875000,-41.5,-12.5,48.0,82.06406249999999,29.05,17.175814062500002,33.95
2021-06-21 17:24:50.304687500,-41.25,-12.75,48.0,82.06390624999999,26.880000000000003,17.187624406250002,33.95
2021-06-21 17:24:50.312500000,-41.0,-13.0,48.0,82.06375,24.71,17.19943475,33.95
2021-06-21 17:24:50.320312500,-41.0,-13.0,48.0,82.06359375,22.130000000000003,17.21124509375,33.95
2021-06-21 17:24:50.328125000,-41.0,-13.0,48.0,82.06343749999999,19.55,17.2230554375,33.95
2021-06-21 17:24:50.335937500,-41.0,-13.0,48.0,82.06328124999999,16.755000000000003,17.23486578125,33.95
2021-06-21 17:24:50.343750000,-41.0,-13.0,48.0,82.063125,13.96,17.246676125,33.95
2021-06-21 17:24:50.351562500,-41.0,-12.75,48.0,82.06296875,11.115,17.25848646875,33.95
2021-06-21 17:24:50.359375000,-41.0,-12.5,48.0,82.06281249999999,8.27,17.2702968125,33.95
2021-06-21 17:24:50.367187500,-41.0,-12.25,48.0,82.06265624999999,5.455,17.28210715625,33.95
2021-06-21 17:24:50.375000000,-41.0,-12.0,48.0,82.0625,2.64,17.2939175,33.95
2021-06-21 17:24:50.382812500,-41.0,-12.0,48.0,82.06234375,-0.1499999999999999,17.305727843750002,33.95
2021-06-21 17:24:50.390625000,-41.0,-12.0,48.0,82.0621875,-2.94,17.317538187500002,33.95
2021-06-21 17:24:50.398437500,-41.0,-12.0,48.0,82.06203124999999,-5.73,17.32934853125,33.95
2021-06-21 17:24:50.406250000,-41.0,-12.0,48.0,82.061875,-8.52,17.341158875,33.95
2021-06-21 17:24:50.414062500,-41.0,-12.0,48.0,82.06171875,-11.27,17.35296921875,33.95
2021-06-21 17:24:50.421875000,-41.0,-12.0,48.0,82.0615625,-14.02,17.3647795625,33.95
2021-06-21 17:24:50.429687500,-41.0,-12.0,48.0,82.06140624999999,-16.59,17.37658990625,33.95
2021-06-21 17:24:50.437500000,-41.0,-12.0,48.0,82.06125,-19.16,17.38840025,33.95
2021-06-21 17:24:50.445312500,-41.0,-12.0,48.0,82.06109375,-21.335,17.40021059375,33.95
2021-06-21 17:24:50.453125000,-41.0,-12.0,48.0,82.0609375,-23.51,17.4120209375,33.95
2021-06-21 17:24:50.460937500,-41.0,-12.0,48.0,82.06078124999999,-25.125,17.423831281250003,33.95
2021-06-21 17:24:50.468750000,-41.0,-12.0,48.0,82.060625,-26.74,17.435641625000002,33.95
2021-06-21 17:24:50.476562500,-41.0,-12.25,48.0,82.06046875,-27.784999999999997,17.447451968750002,33.95
2021-06-21 17:24:50.484375000,-41.0,-12.5,48.0,82.0603125,-28.83,17.4592623125,33.95
2021-06-21 17:24:50.492187500,-41.0,-12.75,48.0,82.06015624999999,-29.545,17.47107265625,33.95
2021-06-21 17:24:50.500000000,-41.0,-13.0,48.0,82.06,-30.26,17.482883,33.95
2021-06-21 17:24:50.507812500,-41.0,-13.0,48.0,82.05984375,-31.08,17.48861859375,33.95
