TimeStamp,empatica.acc.x,empatica.acc.y,empatica.acc.z,empatica.hr,empatica.bvp,empatica.eda,empatica.temp
2021-06-23 15:30:17.718750000,60.0,-3.0,20.0,106.105625,-6.87,0.0662435,32.07
2021-06-23 15:30:17.726562500,60.0,-3.0,19.75,106.10546875,-4.54,0.066403625,32.07
2021-06-23 15:30:17.734375000,60.0,-3.0,19.5,106.1053125,-2.21,0.06656375,32.07
2021-06-23 15:30:17.742187500,60.0,-3.0,19.25,106.10515625,-0.2549999999999999,0.066723875,32.07
2021-06-23 15:30:17.750000000,60.0,-3.0,19.0,106.10499999999999,1.7,0.066884,32.07
2021-06-23 15:30:17.757812500,60.0,-3.0,19.0,106.10484375,3.1099999999999994,0.066884,32.07
2021-06-23 15:30:17.765625000,60.0,-3.0,19.0,106.1046875,4.52,0.066884,32.07
2021-06-23 15:30:17.773437500,60.0,-3.0,19.0,106.10453125,5.375,0.066884,32.07
2021-06-23 15:30:17.781250000,60.0,-3.0,19.0,106.10437499999999,6.23,0.066884,32.07
2021-06-23 15:30:17.789062500,60.0,-3.0,19.25,106.10421875,6.66,0.066884,32.07
2021-06-23 15:30:17.796875000,60.0,-3.0,19.5,106.1040625,7.09,0.066884,32.07
2021-06-23 15:30:17.804687500,60.0,-3.0,19.75,106.10390625,7.225,0.066884,32.07
2021-06-23 15:30:17.812500000,60.0,-3.0,20.0,106.10374999999999,7.36,0.066884,32.07
2021-06-23 15:30:17.820312500,60.0,-3.0,20.0,106.10359375,7.3149999999999995,0.066884,32.07
2021-06-23 15:30:17.828125000,60.0,-3.0,20.0,106.1034375,7.27,0.066884,32.07
2021-06-23 15:30:17.835937500,60.0,-3.0,20.0,106.10328125,7.1,0.066884,32.07
2021-06-23 15:30:17.843750000,60.0,-3.0,20.0,106.10312499999999,6.93,0.066884,32.07
2021-06-23 15:30:17.851562500,60.0,-3.0,19.75,106.10296875,6.6850000000000005,0.066884,32.07
2021-06-23 15:30:17.859375000,60.0,-3.0,19.5,106.1028125,6.44,0.066884,32.07
2021-06-23 15:30:17.867187500,60.0,-3.0,19.25,106.10265625,6.17,0.066884,32.07
2021-06-23 15:30:17.875000000,60.0,-3.0,19.0,106.10249999999999,5.9,0.066884,32.07
2021-06-23 15:30:17.882812500,60.0,-3.0,19.0,106.10234374999999,5.640000000000001,0.066884,32.07
2021-06-23 15:30:17.890625000,60.0,-3.0,19.0,106.1021875,5.38,0.066884,32.07
2021-06-23 15:30:17.898437500,60.0,-3.0,19.0,106.10203125,5.15,0.066884,32.07
2021-06-23 15:30:17.906250000,60.0,-3.0,19.0,106.10187499999999,4.92,0.066884,32.07
2021-06-23 15:30:17.914062500,60.0,-3.0,19.0,106.10171874999999,4.6899999999999995,0.066884,32.07
2021-06-23 15:30:17.921875000,60.0,-3.0,19.0,106.1015625,4.46,0.066884,32.07
2021-06-23 15:30:17.929687500,60.0,-3.0,19.0,106.10140625,4.14,0.066884,32.07
2021-06-23 15:30:17.937500000,60.0,-3.0,19.0,106.10125,3.82,0.066884,32.07
2021-06-23 15:30:17.945312500,60.0,-3.0,19.0,106.10109374999999,3.34,0.066884,32.07
2021-06-23 15:30:17.953125000,60.0,-3.0,19.0,106.1009375,2.86,0.066884,32.07
2021-06-23 15:30:17.960937500,60.0,-3.0,19.0,106.10078125,2.2,0.066884,32.07
2021-06-23 15:30:17.968750000,60.0,-3.0,19.0,106.100625,1.54,0.066884,32.07
2021-06-23 15:30:17.976562500,60.0,-3.0,19.25,106.10046874999999,0.765,0.066884,32.07
2021-06-23 15:30:17.984375000,60.0,-3.0,19.5,106.1003125,-0.01,0.066884,32.07
2021-06-23 15:30:17.992187500,60.0,-3.0,19.75,106.10015625,-0.79,0.066884,32.07
2021-06-23 15:30:18.000000000,60.0,-3.0,20.0,106.1,-1.57,0.066884,32.07
2021-06-23 15:30:18.007812500,60.0,-3.0,20.0,106.1,-2.24,0.06668384375,32.07
2021-06-23 15:30:18.015625000,60.0,-3.0,20.0,106.1,-2.91,0.0664836875,32.07
2021-06-23 15:30:18.023437500,60.0,-3.0,20.0,106.1,-3.4450000000000003,0.06628353125,32.07
2021-06-23 15:30:18.031250000,60.0,-3.0,20.0,106.1,-3.98,0.066083375,32.07
2021-06-23 15:30:18.039062500,60.0,-3.0,20.0,106.1,-4.465,0.06588321875,32.07
2021-06-23 15:30:18.046875000,60.0,-3.0,20.0,106.1,-4.95,0.0656830625,32.07
2021-06-23 15:30:18.054687500,60.0,-3.0,20.0,106.1,-5.5600000000000005,0.06548290625,32.07
2021-06-23 15:30:18.062500000,60.0,-3.0,20.0,106.1,-6.17,0.06528275,32.07
2021-06-23 15:30:18.070312500,60.0,-3.0,19.75,106.1,-7.07,0.06508259375,32.07
2021-06-23 15:30:18.078125000,60.0,-3.0,19.5,106.1,-7.97,0.0648824375,32.07
2021-06-23 15:30:18.085937500,60.0,-3.0,19.25,106.1,-9.215,0.06468228125,32.07
2021-06-23 15:30:18.093750000,60.0,-3.0,19.0,106.1,-10.46,0.064482125,32.07
2021-06-23 15:30:18.101562500,60.0,-3.0,19.25,106.1,-11.9,0.06428196875,32.07
2021-06-23 15:30:18.109375000,60.0,-3.0,19.5,106.1,-13.34,0.0640818125,32.07
2021-06-23 15:30:18.117187500,60.0,-3.0,19.75,106.1,-14.64,0.06388165625,32.07
2021-06-23 15:30:18.125000000,60.0,-3.0,20.0,106.1,-15.94,0.0636815,32.07
2021-06-23 15:30:18.132812500,60.0,-3.0,19.75,106.1,-16.675,0.06348134375,32.07
2021-06-23 15:30:18.140625000,60.0,-3.0,19.5,106.1,-17.41,0.0632811875,32.07
2021-06-23 15:30:18.148437500,60.0,-3.0,19.25,106.1,-17.255000000000003,0.06308103125,32.07
2021-06-23 15:30:18.156250000,60.0,-3.0,19.0,106.1,-17.1,0.062880875,32.07
2021-06-23 15:30:18.164062500,60.0,-3.0,19.25,106.1,-15.965,0.06268071875,32.07
2021-06-23 15:30:18.171875000,60.0,-3.0,19.5,106.1,-14.83,0.062480562499999996,32.07
2021-06-23 15:30:18.179687500,60.0,-3.0,19.75,106.1,-12.905000000000001,0.062280406249999996,32.07
2021-06-23 15:30:18.187500000,60.0,-3.0,20.0,106.1,-10.98,0.06208025,32.07
2021-06-23 15:30:18.195312500,60.0,-3.0,20.0,106.1,-8.66,0.06188009375,32.07
2021-06-23 15:30:18.203125000,60.0,-3.0,20.0,106.1,-6.34,0.0616799375,32.07
2021-06-23 15:30:18.210937500,60.0,-3.0,20.0,106.1,-4.055,0.06147978125,32.07
2021-06-23 15:30:18.218750000,60.0,-3.0,20.0,106.1,-1.77,0.061279625,32.07
2021-06-23 15:30:18.226562500,60.0,-3.0,20.0,106.1,0.16999999999999993,0.06107946875,32.07
2021-06-23 15:30:18.234375000,60.0,-3.0,20.0,106.1,2.11,0.0608793125,32.07
2021-06-23 15:30:18.242187500,60.0,-3.0,20.0,106.1,3.575,0.06067915625,32.07
2021-06-23 15:30:18.250000000,60.0,-3.0,20.0,106.1,5.04,0.060479,32.07
2021-06-23 15:30:18.257812500,60.0,-3.0,19.75,106.1,6.04,0.060639124999999995,32.07
2021-06-23 15:30:18.265625000,60.0,-3.0,19.5,106.1,7.04,0.06079925,32.07
2021-06-23 15:30:18.273437500,60.0,-3.0,19.25,106.1,7.635,0.060959374999999996,32.07
2021-06-23 15:30:18.281250000,60.0,-3.0,19.0,106.1,8.23,0.0611195,32.07
2021-06-23 15:30:18.289062500,60.0,-3.25,19.0,106.1,8.47,0.061279625,32.07
2021-06-23 15:30:18.296875000,60.0,-3.5,19.0,106.1,8.71,0.061439749999999994,32.07
2021-06-23 15:30:18.304687500,60.0,-3.75,19.0,106.1,8.600000000000001,0.061599875,32.07
2021-06-23 15:30:18.312500000,60.0,-4.0,19.0,106.1,8.49,0.061759999999999995,32.07
2021-06-23 15:30:18.320312500,60.0,-3.75,19.25,106.1,8.075,0.061920125,32.07
2021-06-23 15:30:18.328125000,60.0,-3.5,19.5,106.1,7.66,0.06208025,32.07
2021-06-23 15:30:18.335937500,60.0,-3.25,19.75,106.1,7.0,0.062240374999999994,32.07
2021-06-23 15:30:18.343750000,60.0,-3.0,20.0,106.1,6.34,0.0624005,32.07
2021-06-23 15:30:18.351562500,60.0,-3.0,20.0,106.1,5.574999999999999,0.062560625,32.07
2021-06-23 15:30:18.359375000,60.0,-3.0,20.0,106.1,4.81,0.06272074999999999,32.07
2021-06-23 15:30:18.367187500,60.0,-3.0,20.0,106.1,4.085,0.062880875,32.07
2021-06-23 15:30:18.375000000,60.0,-3.0,20.0,106.1,3.36,0.063041,32.07
2021-06-23 15:30:18.382812500,60.0,-3.0,20.0,106.1,2.7800000000000002,0.063201125,32.07
2021-06-23 15:30:18.390625000,60.0,-3.0,20.0,106.1,2.2,0.06336125,32.07
2021-06-23 15:30:18.398437500,60.0,-3.0,20.0,106.1,1.7850000000000001,0.06352137499999999,32.07
2021-06-23 15:30:18.406250000,60.0,-3.0,20.0,106.1,1.37,0.0636815,32.07
2021-06-23 15:30:18.414062500,60.0,-3.0,20.0,106.1,1.095,0.063841625,32.07
2021-06-23 15:30:18.421875000,60.0,-3.0,20.0,106.1,0.82,0.06400175,32.07
2021-06-23 15:30:18.429687500,60.0,-3.0,20.0,106.1,0.615,0.064161875,32.07
2021-06-23 15:30:18.437500000,60.0,-3.0,20.0,106.1,0.41,0.06432199999999999,32.07
2021-06-23 15:30:18.445312500,60.0,-3.25,20.0,106.1,0.215,0.064482125,32.07
2021-06-23 15:30:18.453125000,60.0,-3.5,20.0,106.1,0.02,0.06464225,32.07
2021-06-23 15:30:18.460937500,60.0,-3.75,20.0,106.1,-0.2,0.064802375,32.07
2021-06-23 15:30:18.468750000,60.0,-4.0,20.0,106.1,-0.42,0.06496249999999999,32.07
2021-06-23 15:30:18.476562500,60.0,-3.75,19.75,106.1,-0.6799999999999999,0.06512262499999999,32.07
2021-06-23 15:30:18.484375000,60.0,-3.5,19.5,106.1,-0.94,0.06528275,32.07
2021-06-23 15:30:18.492187500,60.0,-3.25,19.25,106.1,-1.255,0.065442875,32.07
2021-06-23 15:30:18.500000000,60.0,-3.0,19.0,106.1,-1.57,0.065603,32.07
2021-06-23 15:30:18.507812500,60.0,-3.0,19.0,106.1,-1.9900000000000002,0.065442875,32.07
2021-06-23 15:30:18.515625000,60.0,-3.0,19.0,106.1,-2.41,0.06528275,32.07
2021-06-23 15:30:18.523437500,60.0,-3.0,19.0,106.1,-3.02,0.06512262499999999,32.07
2021-06-23 15:30:18.531250000,60.0,-3.0,19.0,106.1,-3.63,0.06496249999999999,32.07
2021-06-23 15:30:18.539062500,60.0,-3.25,19.25,106.1,-4.529999999999999,0.064802375,32.07
2021-06-23 15:30:18.546875000,60.0,-3.5,19.5,106.1,-5.43,0.06464225,32.07
2021-06-23 15:30:18.554687500,60.0,-3.75,19.75,106.1,-6.66,0.064482125,32.07
2021-06-23 15:30:18.562500000,60.0,-4.0,20.0,106.1,-7.89,0.06432199999999999,32.07
2021-06-23 15:30:18.570312500,60.0,-3.75,19.75,106.1,-9.379999999999999,0.064161875,32.07
2021-06-23 15:30:18.578125000,60.0,-3.5,19.5,106.1,-10.87,0.06400175,32.07
2021-06-23 15:30:18.585937500,60.0,-3.25,19.25,106.1,-12.395,0.063841625,32.07
2021-06-23 15:30:18.593750000,60.0,-3.0,19.0,106.1,-13.92,0.0636815,32.07
2021-06-23 15:30:18.601562500,60.0,-3.0,19.0,106.1,-15.14,0.06352137499999999,32.07
2021-06-23 15:30:18.609375000,60.0,-3.0,19.0,106.1,-16.36,0.06336125,32.07
2021-06-23 15:30:18.617187500,60.0,-3.0,19.0,106.1,-16.93,0.063201125,32.07
2021-06-23 15:30:18.625000000,60.0,-3.0,19.0,106.1,-17.5,0.063041,32.07
2021-06-23 15:30:18.632812500,60.0,-3.25,19.25,106.1,-17.21,0.062880875,32.07
2021-06-23 15:30:18.640625000,60.0,-3.5,19.5,106.1,-16.92,0.06272074999999999,32.07
2021-06-23 15:30:18.648437500,60.0,-3.75,19.75,106.1,-15.780000000000001,0.062560625,32.07
2021-06-23 15:30:18.656250000,60.0,-4.0,20.0,106.1,-14.64,0.0624005,32.07
2021-06-23 15:30:18.664062500,60.0,-3.75,19.75,106.1,-12.870000000000001,0.062240375,32.07
2021-06-23 15:30:18.671875000,60.0,-3.5,19.5,106.1,-11.1,0.06208025,32.07
2021-06-23 15:30:18.679687500,60.0,-3.25,19.25,106.1,-9.045,0.061920125,32.07
2021-06-23 15:30:18.687500000,60.0,-3.0,19.0,106.1,-6.99,0.061759999999999995,32.07
2021-06-23 15:30:18.695312500,60.0,-3.0,19.0,106.1,-4.96,0.061599875,32.07
2021-06-23 15:30:18.703125000,60.0,-3.0,19.0,106.1,-2.93,0.06143975,32.07
2021-06-23 15:30:18.710937500,60.0,-3.0,19.0,106.1,-1.1400000000000001,0.061279625,32.07
2021-06-23 15:30:18.718750000,60.0,-3.0,19.0,106.1,0.65,0.0611195,32.07
2021-06-23 15:30:18.726562500,60.0,-3.0,19.0,106.1,2.125,0.060959374999999996,32.07
2021-06-23 15:30:18.734375000,60.0,-3.0,19.0,106.1,3.6,0.06079925,32.07
2021-06-23 15:30:18.742187500,60.0,-3.0,19.0,106.1,4.785,0.060639124999999995,32.07
2021-06-23 15:30:18.750000000,60.0,-3.0,19.0,106.1,5.97,0.060479,32.07
2021-06-23 15:30:18.757812500,60.0,-3.25,19.25,106.1,6.904999999999999,0.06059909375,32.07
2021-06-23 15:30:18.765625000,60.0,-3.5,19.5,106.1,7.84,0.0607191875,32.07
2021-06-23 15:30:18.773437500,60.0,-3.75,19.75,106.1,8.54,0.06083928125,32.07
2021-06-23 15:30:18.781250000,60.0,-4.0,20.0,106.1,9.24,0.060959374999999996,32.07
2021-06-23 15:30:18.789062500,60.0,-3.75,20.0,106.1,9.71,0.06107946875,32.07
2021-06-23 15:30:18.796875000,60.0,-3.5,20.0,106.1,10.18,0.0611995625,32.07
2021-06-23 15:30:18.804687500,60.0,-3.25,20.0,106.1,10.370000000000001,0.06131965625,32.07
2021-06-23 15:30:18.812500000,60.0,-3.0,20.0,106.1,10.56,0.06143975,32.07
2021-06-23 15:30:18.820312500,60.0,-3.0,19.75,106.1,10.47,0.06155984375,32.07
2021-06-23 15:30:18.828125000,60.0,-3.0,19.5,106.1,10.38,0.0616799375,32.07
2021-06-23 15:30:18.835937500,60.0,-3.0,19.25,106.1,10.010000000000002,0.06180003125,32.07
2021-06-23 15:30:18.843750000,60.0,-3.0,19.0,106.1,9.64,0.061920125,32.07
2021-06-23 15:30:18.851562500,60.0,-3.0,19.25,106.1,9.045,0.06204021875,32.07
2021-06-23 15:30:18.859375000,60.0,-3.0,19.5,106.1,8.45,0.0621603125,32.07
2021-06-23 15:30:18.867187500,60.0,-3.0,19.75,106.1,7.699999999999999,0.06228040625,32.07
2021-06-23 15:30:18.875000000,60.0,-3.0,20.0,106.1,6.95,0.0624005,32.07
2021-06-23 15:30:18.882812500,60.0,-3.0,20.0,106.1,6.145,0.06252059375,32.07
2021-06-23 15:30:18.890625000,60.0,-3.0,20.0,106.1,5.34,0.0626406875,32.07
2021-06-23 15:30:18.898437500,60.0,-3.0,20.0,106.1,4.585,0.06276078125000001,32.07
2021-06-23 15:30:18.906250000,60.0,-3.0,20.0,106.1,3.83,0.062880875,32.07
2021-06-23 15:30:18.914062500,60.0,-3.0,20.0,106.1,3.185,0.06300096875,32.07
2021-06-23 15:30:18.921875000,60.0,-3.0,20.0,106.1,2.54,0.0631210625,32.07
2021-06-23 15:30:18.929687500,60.0,-3.0,20.0,106.1,2.02,0.06324115625,32.07
2021-06-23 15:30:18.937500000,60.0,-3.0,20.0,106.1,1.5,0.06336125000000001,32.07
2021-06-23 15:30:18.945312500,60.0,-3.0,20.0,106.1,1.075,0.06348134375,32.07
2021-06-23 15:30:18.953125000,60.0,-3.0,20.0,106.1,0.65,0.0636014375,32.07
2021-06-23 15:30:18.960937500,60.0,-3.0,20.0,106.1,0.25,0.06372153125,32.07
2021-06-23 15:30:18.968750000,60.0,-3.0,20.0,106.1,-0.15,0.063841625,32.07
2021-06-23 15:30:18.976562500,60.0,-3.0,19.75,106.1,-0.595,0.06396171875000001,32.07
2021-06-23 15:30:18.984375000,60.0,-3.0,19.5,106.1,-1.04,0.0640818125,32.07
2021-06-23 15:30:18.992187500,60.0,-3.0,19.25,106.1,-1.61,0.06420190625000001,32.07
2021-06-23 15:30:19.000000000,60.0,-3.0,19.0,106.1,-2.18,0.064322,32.07
2021-06-23 15:30:19.007812500,60.0,-3.0,19.0,106.10039062499999,-2.9699999999999998,0.06416184375,32.07
2021-06-23 15:30:19.015625000,60.0,-3.0,19.0,106.10078125,-3.76,0.0640016875,32.07
2021-06-23 15:30:19.023437500,60.0,-3.0,19.0,106.10117187499999,-4.865,0.06384153125,32.07
2021-06-23 15:30:19.031250000,60.0,-3.0,19.0,106.1015625,-5.97,0.063681375,32.07
2021-06-23 15:30:19.039062500,60.0,-3.0,19.0,106.101953125,-7.4399999999999995,0.06352121875,32.07
2021-06-23 15:30:19.046875000,60.0,-3.0,19.0,106.10234374999999,-8.91,0.06336106250000001,32.07
2021-06-23 15:30:19.054687500,60.0,-3.0,19.0,106.102734375,-10.675,0.06320090625000001,32.07
2021-06-23 15:30:19.062500000,60.0,-3.0,19.0,106.10312499999999,-12.44,0.06304075,32.07
2021-06-23 15:30:19.070312500,60.0,-3.0,19.25,106.103515625,-14.27,0.06288059375,32.07
2021-06-23 15:30:19.078125000,60.0,-3.0,19.5,106.10390625,-16.1,0.0627204375,32.07
2021-06-23 15:30:19.085937500,60.0,-3.0,19.75,106.10429687499999,-17.6,0.06256028125,32.07
2021-06-23 15:30:19.093750000,60.0,-3.0,20.0,106.1046875,-19.1,0.062400125,32.07
2021-06-23 15:30:19.101562500,60.0,-3.25,19.75,106.10507812499999,-19.855,0.06223996875,32.07
2021-06-23 15:30:19.109375000,60.0,-3.5,19.5,106.10546875,-20.61,0.062079812500000005,32.07
2021-06-23 15:30:19.117187500,60.0,-3.75,19.25,106.105859375,-20.299999999999997,0.06191965625,32.07
2021-06-23 15:30:19.125000000,60.0,-4.0,19.0,106.10624999999999,-19.99,0.0617595,32.07
2021-06-23 15:30:19.132812500,60.0,-3.75,19.25,106.106640625,-18.58,0.06159934375,32.07
2021-06-23 15:30:19.140625000,60.0,-3.5,19.5,106.10703124999999,-17.17,0.0614391875,32.07
2021-06-23 15:30:19.148437500,60.0,-3.25,19.75,106.107421875,-14.885000000000002,0.061279031250000005,32.07
2021-06-23 15:30:19.156250000,60.0,-3.0,20.0,106.1078125,-12.6,0.061118875,32.07
2021-06-23 15:30:19.164062500,60.0,-3.0,20.0,106.108203125,-9.89,0.06095871875,32.07
2021-06-23 15:30:19.171875000,60.0,-3.0,20.0,106.10859375,-7.18,0.0607985625,32.07
2021-06-23 15:30:19.179687500,60.0,-3.0,20.0,106.10898437499999,-4.535,0.06063840625,32.07
2021-06-23 15:30:19.187500000,60.0,-3.0,20.0,106.109375,-1.89,0.06047825,32.07
2021-06-23 15:30:19.195312500,60.0,-3.0,20.0,106.109765625,0.3400000000000001,0.06031809375,32.07
2021-06-23 15:30:19.203125000,60.0,-3.0,20.0,106.11015625,2.57,0.0601579375,32.07
2021-06-23 15:30:19.210937500,60.0,-3.0,20.0,106.110546875,4.22,0.05999778125,32.07
2021-06-23 15:30:19.218750000,60.0,-3.0,20.0,106.11093749999999,5.87,0.059837625,32.07
2021-06-23 15:30:19.226562500,60.0,-3.0,20.0,106.111328125,6.9350000000000005,0.059677468750000004,32.07
2021-06-23 15:30:19.234375000,60.0,-3.0,20.0,106.11171875,8.0,0.0595173125,32.07
2021-06-23 15:30:19.242187500,60.0,-3.0,20.0,106.112109375,8.575,0.05935715625,32.07
2021-06-23 15:30:19.250000000,60.0,-3.0,20.0,106.1125,9.15,0.059197,32.07
2021-06-23 15:30:19.257812500,60.0,-3.0,20.0,106.11289062499999,9.33,0.05935715625,32.07
2021-06-23 15:30:19.265625000,60.0,-3.0,20.0,106.11328125,9.51,0.0595173125,32.07
2021-06-23 15:30:19.273437500,60.0,-3.0,20.0,106.113671875,9.36,0.05967746875,32.07
2021-06-23 15:30:19.281250000,60.0,-3.0,20.0,106.1140625,9.21,0.059837625,32.07
2021-06-23 15:30:19.289062500,60.0,-3.0,19.75,106.114453125,8.79,0.05999778125,32.07
2021-06-23 15:30:19.296875000,60.0,-3.0,19.5,106.11484374999999,8.37,0.0601579375,32.07
2021-06-23 15:30:19.304687500,60.0,-3.0,19.25,106.115234375,7.75,0.06031809375,32.07
2021-06-23 15:30:19.312500000,60.0,-3.0,19.0,106.115625,7.13,0.06047825,32.07
2021-06-23 15:30:19.320312500,60.0,-3.0,19.0,106.116015625,6.42,0.06063840625,32.07
2021-06-23 15:30:19.328125000,60.0,-3.0,19.0,106.11640625,5.71,0.0607985625,32.07
2021-06-23 15:30:19.335937500,60.0,-3.0,19.0,106.11679687499999,5.025,0.06095871875,32.07
2021-06-23 15:30:19.343750000,60.0,-3.0,19.0,106.1171875,4.34,0.061118875,32.07
2021-06-23 15:30:19.351562500,60.0,-3.0,19.25,106.117578125,3.795,0.061279031250000005,32.07
2021-06-23 15:30:19.359375000,60.0,-3.0,19.5,106.11796875,3.25,0.0614391875,32.07
2021-06-23 15:30:19.367187500,60.0,-3.0,19.75,106.118359375,2.91,0.06159934375,32.07
2021-06-23 15:30:19.375000000,60.0,-3.0,20.0,106.11875,2.57,0.0617595,32.07
2021-06-23 15:30:19.382812500,60.0,-3.0,20.0,106.119140625,2.445,0.06191965625,32.07
2021-06-23 15:30:19.390625000,60.0,-3.0,20.0,106.11953125,2.32,0.062079812500000005,32.07
2021-06-23 15:30:19.398437500,60.0,-3.0,20.0,106.119921875,2.365,0.06223996875,32.07
2021-06-23 15:30:19.406250000,60.0,-3.0,20.0,106.1203125,2.41,0.062400125,32.07
2021-06-23 15:30:19.414062500,60.0,-3.0,20.0,106.120703125,2.5300000000000002,0.06256028125,32.07
2021-06-23 15:30:19.421875000,60.0,-3.0,20.0,106.12109375,2.65,0.0627204375,32.07
2021-06-23 15:30:19.429687500,60.0,-3.0,20.0,106.121484375,2.7249999999999996,0.06288059375,32.07
2021-06-23 15:30:19.437500000,60.0,-3.0,20.0,106.121875,2.8,0.06304075,32.07
2021-06-23 15:30:19.445312500,60.0,-3.0,20.0,106.122265625,2.74,0.06320090625000001,32.07
2021-06-23 15:30:19.453125000,60.0,-3.0,20.0,106.12265625,2.68,0.06336106250000001,32.07
2021-06-23 15:30:19.460937500,60.0,-3.0,20.0,106.123046875,2.4000000000000004,0.06352121875,32.07
2021-06-23 15:30:19.468750000,60.0,-3.0,20.0,106.1234375,2.12,0.063681375,32.07
2021-06-23 15:30:19.476562500,60.0,-3.0,20.0,106.123828125,1.5750000000000002,0.06384153125,32.07
2021-06-23 15:30:19.484375000,60.0,-3.0,20.0,106.12421875,1.03,0.0640016875,32.07
2021-06-23 15:30:19.492187500,60.0,-3.0,20.0,106.124609375,0.17500000000000004,0.06416184375,32.07
2021-06-23 15:30:19.500000000,60.0,-3.0,20.0,106.125,-0.68,0.064322,32.07
2021-06-23 15:30:19.507812500,60.0,-3.0,19.75,106.125390625,-1.88,0.06436203125,32.07
2021-06-23 15:30:19.515625000,60.0,-3.0,19.5,106.12578125,-3.08,0.06440206250000001,32.07
2021-06-23 15:30:19.523437500,60.0,-3.0,19.25,106.126171875,-4.609999999999999,0.06444209375,32.07
2021-06-23 15:30:19.531250000,60.0,-3.0,19.0,106.1265625,-6.14,0.064482125,32.07
2021-06-23 15:30:19.539062500,60.0,-3.0,19.25,106.126953125,-7.9,0.06452215625,32.07
2021-06-23 15:30:19.546875000,60.0,-3.0,19.5,106.12734375,-9.66,0.0645621875,32.07
2021-06-23 15:30:19.554687500,60.0,-3.0,19.75,106.127734375,-11.4,0.06460221875,32.07
2021-06-23 15:30:19.562500000,60.0,-3.0,20.0,106.128125,-13.14,0.06464225,32.07
2021-06-23 15:30:19.570312500,60.0,-3.25,20.0,106.128515625,-14.504999999999999,0.06468228125,32.07
2021-06-23 15:30:19.578125000,60.0,-3.5,20.0,106.12890625,-15.87,0.0647223125,32.07
2021-06-23 15:30:19.585937500,60.0,-3.75,20.0,106.129296875,-16.465,0.06476234375,32.07
2021-06-23 15:30:19.593750000,60.0,-4.0,20.0,106.1296875,-17.06,0.064802375,32.07
2021-06-23 15:30:19.601562500,60.0,-3.75,20.0,106.130078125,-16.619999999999997,0.06484240625,32.07
2021-06-23 15:30:19.609375000,60.0,-3.5,20.0,106.13046875,-16.18,0.0648824375,32.07
2021-06-23 15:30:19.617187500,60.0,-3.25,20.0,106.130859375,-14.675,0.06492246875,32.07
2021-06-23 15:30:19.625000000,60.0,-3.0,20.0,106.13125,-13.17,0.0649625,32.07
2021-06-23 15:30:19.632812500,60.0,-3.0,19.75,106.131640625,-10.86,0.06500253125,32.07
2021-06-23 15:30:19.640625000,60.0,-3.0,19.5,106.13203125,-8.55,0.0650425625,32.07
2021-06-23 15:30:19.648437500,60.0,-3.0,19.25,106.132421875,-5.880000000000001,0.06508259375,32.07
2021-06-23 15:30:19.656250000,60.0,-3.0,19.0,106.1328125,-3.21,0.065122625,32.07
2021-06-23 15:30:19.664062500,60.0,-3.0,19.0,106.13320312500001,-0.6749999999999998,0.06516265624999999,32.07
2021-06-23 15:30:19.671875000,60.0,-3.0,19.0,106.13359375,1.86,0.0652026875,32.07
2021-06-23 15:30:19.679687500,60.0,-3.0,19.0,106.133984375,3.875,0.06524271875,32.07
2021-06-23 15:30:19.687500000,60.0,-3.0,19.0,106.134375,5.89,0.06528275,32.07
2021-06-23 15:30:19.695312500,60.0,-3.25,19.25,106.134765625,7.244999999999999,0.06532278125,32.07
2021-06-23 15:30:19.703125000,60.0,-3.5,19.5,106.13515625000001,8.6,0.06536281249999999,32.07
2021-06-23 15:30:19.710937500,60.0,-3.75,19.75,106.135546875,9.344999999999999,0.06540284375,32.07
2021-06-23 15:30:19.718750000,60.0,-4.0,20.0,106.1359375,10.09,0.065442875,32.07
2021-06-23 15:30:19.726562500,60.0,-4.0,20.0,106.136328125,10.42,0.06548290625,32.07
2021-06-23 15:30:19.734375000,60.0,-4.0,20.0,106.13671875,10.75,0.06552293749999999,32.07
2021-06-23 15:30:19.742187500,60.0,-4.0,20.0,106.13710937500001,10.865,0.06556296874999999,32.07
2021-06-23 15:30:19.750000000,60.0,-4.0,20.0,106.1375,10.98,0.065603,32.07
2021-06-23 15:30:19.757812500,60.0,-4.0,19.75,106.137890625,11.045,0.065442875,32.07
2021-06-23 15:30:19.765625000,60.0,-4.0,19.5,106.13828125,11.11,0.06528275,32.07
2021-06-23 15:30:19.773437500,60.0,-4.0,19.25,106.138671875,11.155,0.06512262499999999,32.07
2021-06-23 15:30:19.781250000,60.0,-4.0,19.0,106.13906250000001,11.2,0.06496249999999999,32.07
2021-06-23 15:30:19.789062500,60.0,-3.75,19.0,106.139453125,11.18,0.064802375,32.07
2021-06-23 15:30:19.796875000,60.0,-3.5,19.0,106.13984375,11.16,0.06464225,32.07
2021-06-23 15:30:19.804687500,60.0,-3.25,19.0,106.140234375,10.995000000000001,0.064482125,32.07
2021-06-23 15:30:19.812500000,60.0,-3.0,19.0,106.140625,10.83,0.06432199999999999,32.07
2021-06-23 15:30:19.820312500,60.0,-3.0,19.25,106.14101562500001,10.434999999999999,0.064161875,32.07
2021-06-23 15:30:19.828125000,60.0,-3.0,19.5,106.14140625,10.04,0.06400175,32.07
2021-06-23 15:30:19.835937500,60.0,-3.0,19.75,106.141796875,9.41,0.063841625,32.07
2021-06-23 15:30:19.843750000,60.0,-3.0,20.0,106.1421875,8.78,0.0636815,32.07
2021-06-23 15:30:19.851562500,60.0,-3.0,20.0,106.142578125,7.949999999999999,0.06352137499999999,32.07
2021-06-23 15:30:19.859375000,60.0,-3.0,20.0,106.14296875000001,7.12,0.06336125,32.07
2021-06-23 15:30:19.867187500,60.0,-3.0,20.0,106.143359375,6.220000000000001,0.063201125,32.07
2021-06-23 15:30:19.875000000,60.0,-3.0,20.0,106.14375000000001,5.32,0.063041,32.07
2021-06-23 15:30:19.882812500,60.0,-3.0,20.0,106.144140625,4.455,0.062880875,32.07
2021-06-23 15:30:19.890625000,60.0,-3.0,20.0,106.14453125,3.59,0.06272074999999999,32.07
2021-06-23 15:30:19.898437500,60.0,-3.0,20.0,106.14492187500001,2.87,0.062560625,32.07
2021-06-23 15:30:19.906250000,60.0,-3.0,20.0,106.1453125,2.15,0.0624005,32.07
2021-06-23 15:30:19.914062500,60.0,-3.0,20.0,106.14570312500001,1.605,0.062240375,32.07
2021-06-23 15:30:19.921875000,60.0,-3.0,20.0,106.14609375,1.06,0.06208025,32.07
2021-06-23 15:30:19.929687500,60.0,-3.0,20.0,106.146484375,0.645,0.061920125,32.07
2021-06-23 15:30:19.937500000,60.0,-3.0,20.0,106.14687500000001,0.23,0.061759999999999995,32.07
2021-06-23 15:30:19.945312500,60.0,-3.0,20.0,106.147265625,-0.11999999999999997,0.061599875,32.07
2021-06-23 15:30:19.953125000,60.0,-3.0,20.0,106.14765625000001,-0.47,0.06143975,32.07
2021-06-23 15:30:19.960937500,60.0,-3.0,20.0,106.148046875,-0.87,0.061279625,32.07
2021-06-23 15:30:19.968750000,60.0,-3.0,20.0,106.1484375,-1.27,0.0611195,32.07
2021-06-23 15:30:19.976562500,60.0,-3.0,19.75,106.14882812500001,-1.84,0.060959374999999996,32.07
2021-06-23 15:30:19.984375000,60.0,-3.0,19.5,106.14921875,-2.41,0.06079925,32.07
2021-06-23 15:30:19.992187500,60.0,-3.0,19.25,106.14960937500001,-3.255,0.060639124999999995,32.07
2021-06-23 15:30:20.000000000,60.0,-3.0,19.0,106.15,-4.1,0.060479,32.07
2021-06-23 15:30:20.007812500,60.0,-3.0,19.0,106.15,-5.265,0.06059909375,32.07
2021-06-23 15:30:20.015625000,60.0,-3.0,19.0,106.15,-6.43,0.0607191875,32.07
2021-06-23 15:30:20.023437500,60.0,-3.0,19.0,106.15,-7.875,0.06083928125,32.07
2021-06-23 15:30:20.031250000,60.0,-3.0,19.0,106.15,-9.32,0.060959374999999996,32.07
2021-06-23 15:30:20.039062500,60.0,-3.0,19.0,106.15,-10.855,0.06107946875,32.07
2021-06-23 15:30:20.046875000,60.0,-3.0,19.0,106.15,-12.39,0.0611995625,32.07
2021-06-23 15:30:20.054687500,60.0,-3.0,19.0,106.15,-13.695,0.06131965625,32.07
2021-06-23 15:30:20.062500000,60.0,-3.0,19.0,106.15,-15.0,0.06143975,32.07
2021-06-23 15:30:20.070312500,60.0,-3.0,19.25,106.15,-15.66,0.06155984375,32.07
2021-06-23 15:30:20.078125000,60.0,-3.0,19.5,106.15,-16.32,0.0616799375,32.07
2021-06-23 15:30:20.085937500,60.0,-3.0,19.75,106.15,-16.015,0.06180003125,32.07
2021-06-23 15:30:20.093750000,60.0,-3.0,20.0,106.15,-15.71,0.061920125,32.07
2021-06-23 15:30:20.101562500,60.0,-3.0,20.0,106.15,-14.315000000000001,0.06204021875,32.07
2021-06-23 15:30:20.109375000,60.0,-3.0,20.0,106.15,-12.92,0.0621603125,32.07
2021-06-23 15:30:20.117187500,60.0,-3.0,20.0,106.15,-10.594999999999999,0.06228040625,32.07
2021-06-23 15:30:20.125000000,60.0,-3.0,20.0,106.15,-8.27,0.0624005,32.07
2021-06-23 15:30:20.132812500,60.0,-3.0,20.0,106.15,-5.43,0.06252059375,32.07
2021-06-23 15:30:20.140625000,60.0,-3.0,20.0,106.15,-2.59,0.0626406875,32.07
2021-06-23 15:30:20.148437500,60.0,-3.0,20.0,106.15,0.2650000000000001,0.06276078125000001,32.07
2021-06-23 15:30:20.156250000,60.0,-3.0,20.0,106.15,3.12,0.062880875,32.07
2021-06-23 15:30:20.164062500,60.0,-3.0,20.0,106.15,5.550000000000001,0.06300096875,32.07
2021-06-23 15:30:20.171875000,60.0,-3.0,20.0,106.15,7.98,0.0631210625,32.07
2021-06-23 15:30:20.179687500,60.0,-3.0,20.0,106.15,9.75,0.06324115625,32.07
2021-06-23 15:30:20.187500000,60.0,-3.0,20.0,106.15,11.52,0.06336125000000001,32.07
2021-06-23 15:30:20.195312500,60.0,-3.0,19.75,106.15,12.61,0.06348134375,32.07
2021-06-23 15:30:20.203125000,60.0,-3.0,19.5,106.15,13.7,0.0636014375,32.07
2021-06-23 15:30:20.210937500,60.0,-3.0,19.25,106.15,14.23,0.06372153125,32.07
2021-06-23 15:30:20.218750000,60.0,-3.0,19.0,106.15,14.76,0.063841625,32.07
2021-06-23 15:30:20.226562500,60.0,-3.0,19.25,106.15,14.92,0.06396171875000001,32.07
2021-06-23 15:30:20.234375000,60.0,-3.0,19.5,106.15,15.08,0.0640818125,32.07
2021-06-23 15:30:20.242187500,60.0,-3.0,19.75,106.15,14.995000000000001,0.06420190625000001,32.07
2021-06-23 15:30:20.250000000,60.0,-3.0,20.0,106.15,14.91,0.064322,32.07
2021-06-23 15:30:20.257812500,60.0,-3.0,19.75,106.15,14.68,0.0642419375,32.07
2021-06-23 15:30:20.265625000,60.0,-3.0,19.5,106.15,14.45,0.06416187500000001,32.07
2021-06-23 15:30:20.273437500,60.0,-3.0,19.25,106.15,14.114999999999998,0.0640818125,32.07
2021-06-23 15:30:20.281250000,60.0,-3.0,19.0,106.15,13.78,0.06400175000000001,32.07
2021-06-23 15:30:20.289062500,60.0,-3.0,19.25,106.15,13.335,0.0639216875,32.07
2021-06-23 15:30:20.296875000,60.0,-3.0,19.5,106.15,12.89,0.063841625,32.07
2021-06-23 15:30:20.304687500,60.0,-3.0,19.75,106.15,12.33,0.06376156250000001,32.07
2021-06-23 15:30:20.312500000,60.0,-3.0,20.0,106.15,11.77,0.0636815,32.07
2021-06-23 15:30:20.320312500,60.0,-3.0,20.0,106.15,11.08,0.06360143750000001,32.07
2021-06-23 15:30:20.328125000,60.0,-3.0,20.0,106.15,10.39,0.063521375,32.07
2021-06-23 15:30:20.335937500,60.0,-3.0,20.0,106.15,9.545,0.0634413125,32.07
2021-06-23 15:30:20.343750000,60.0,-3.0,20.0,106.15,8.7,0.06336125000000001,32.07
2021-06-23 15:30:20.351562500,60.0,-3.0,20.0,106.15,7.699999999999999,0.0632811875,32.07
2021-06-23 15:30:20.359375000,60.0,-3.0,20.0,106.15,6.7,0.063201125,32.07
2021-06-23 15:30:20.367187500,60.0,-3.0,20.0,106.15,5.59,0.0631210625,32.07
2021-06-23 15:30:20.375000000,60.0,-3.0,20.0,106.15,4.48,0.063041,32.07
2021-06-23 15:30:20.382812500,60.0,-3.25,19.75,106.15,3.3500000000000005,0.06296093750000001,32.07
2021-06-23 15:30:20.390625000,60.0,-3.5,19.5,106.15,2.22,0.062880875,32.07
2021-06-23 15:30:20.398437500,60.0,-3.75,19.25,106.15,1.1900000000000002,0.0628008125,32.07
2021-06-23 15:30:20.406250000,60.0,-4.0,19.0,106.15,0.16,0.06272075,32.07
2021-06-23 15:30:20.414062500,60.0,-4.0,19.25,106.15,-0.6399999999999999,0.0626406875,32.07
2021-06-23 15:30:20.421875000,60.0,-4.0,19.5,106.15,-1.44,0.06256062500000001,32.07
2021-06-23 15:30:20.429687500,60.0,-4.0,19.75,106.15,-1.9849999999999999,0.0624805625,32.07
2021-06-23 15:30:20.437500000,60.0,-4.0,20.0,106.15,-2.53,0.062400500000000005,32.07
2021-06-23 15:30:20.445312500,60.0,-3.75,20.0,106.15,-2.87,0.062320437500000006,32.07
2021-06-23 15:30:20.453125000,60.0,-3.5,20.0,106.15,-3.21,0.062240375,32.07
2021-06-23 15:30:20.460937500,60.0,-3.25,20.0,106.15,-3.52,0.0621603125,32.07
2021-06-23 15:30:20.468750000,60.0,-3.0,20.0,106.15,-3.83,0.062080250000000003,32.07
2021-06-23 15:30:20.476562500,60.0,-3.0,20.0,106.15,-4.35,0.062000187500000005,32.07
2021-06-23 15:30:20.484375000,60.0,-3.0,20.0,106.15,-4.87,0.061920125,32.07
2021-06-23 15:30:20.492187500,60.0,-3.0,20.0,106.15,-5.795,0.0618400625,32.07
2021-06-23 15:30:20.500000000,60.0,-3.0,20.0,106.15,-6.72,0.06176,32.07
2021-06-23 15:30:20.507812500,60.0,-3.0,20.0,106.15,-8.084999999999999,0.061800031250000005,32.07
2021-06-23 15:30:20.515625000,60.0,-3.0,20.0,106.15,-9.45,0.0618400625,32.07
2021-06-23 15:30:20.523437500,60.0,-3.0,20.0,106.15,-11.055,0.061880093750000004,32.07
2021-06-23 15:30:20.531250000,60.0,-3.0,20.0,106.15,-12.66,0.061920125,32.07
2021-06-23 15:30:20.539062500,60.0,-3.0,19.75,106.15,-14.105,0.06196015625,32.07
2021-06-23 15:30:20.546875000,60.0,-3.0,19.5,106.15,-15.55,0.062000187500000005,32.07
2021-06-23 15:30:20.554687500,60.0,-3.0,19.25,106.15,-16.36,0.06204021875,32.07
2021-06-23 15:30:20.562500000,60.0,-3.0,19.0,106.15,-17.17,0.062080250000000003,32.07
2021-06-23 15:30:20.570312500,60.0,-3.0,19.0,106.15,-16.975,0.06212028125,32.07
2021-06-23 15:30:20.578125000,60.0,-3.0,19.0,106.15,-16.78,0.0621603125,32.07
2021-06-23 15:30:20.585937500,60.0,-3.0,19.0,106.15,-15.465,0.062200343750000005,32.07
2021-06-23 15:30:20.593750000,60.0,-3.0,19.0,106.15,-14.15,0.062240375,32.07
2021-06-23 15:30:20.601562500,60.0,-3.0,19.25,106.15,-11.905000000000001,0.06228040625,32.07
2021-06-23 15:30:20.609375000,60.0,-3.0,19.5,106.15,-9.66,0.0623204375,32.07
2021-06-23 15:30:20.617187500,60.0,-3.0,19.75,106.15,-6.9,0.06236046875,32.07
2021-06-23 15:30:20.625000000,60.0,-3.0,20.0,106.15,-4.14,0.0624005,32.07
2021-06-23 15:30:20.632812500,60.0,-3.0,19.75,106.15,-1.3449999999999998,0.06244053125,32.07
2021-06-23 15:30:20.640625000,60.0,-3.0,19.5,106.15,1.45,0.0624805625,32.07
2021-06-23 15:30:20.648437500,60.0,-3.0,19.25,106.15,3.885,0.06252059375,32.07
2021-06-23 15:30:20.656250000,60.0,-3.0,19.0,106.15,6.32,0.062560625,32.07
2021-06-23 15:30:20.664062500,60.0,-3.0,19.0,106.15,8.190000000000001,0.06260065625,32.07
2021-06-23 15:30:20.671875000,60.0,-3.0,19.0,106.15,10.06,0.0626406875,32.07
2021-06-23 15:30:20.679687500,60.0,-3.0,19.0,106.15,11.325,0.06268071875,32.07
2021-06-23 15:30:20.687500000,60.0,-3.0,19.0,106.15,12.59,0.06272075,32.07
2021-06-23 15:30:20.695312500,60.0,-3.25,19.0,106.15,13.325,0.06276078125,32.07
2021-06-23 15:30:20.703125000,60.0,-3.5,19.0,106.15,14.06,0.0628008125,32.07
2021-06-23 15:30:20.710937500,60.0,-3.75,19.0,106.15,14.385000000000002,0.06284084375,32.07
2021-06-23 15:30:20.718750000,60.0,-4.0,19.0,106.15,14.71,0.062880875,32.07
2021-06-23 15:30:20.726562500,60.0,-3.75,19.0,106.15,14.72,0.06292090625,32.07
2021-06-23 15:30:20.734375000,60.0,-3.5,19.0,106.15,14.73,0.0629609375,32.07
2021-06-23 15:30:20.742187500,60.0,-3.25,19.0,106.15,14.49,0.06300096875,32.07
2021-06-23 15:30:20.750000000,60.0,-3.0,19.0,106.15,14.25,0.063041,32.07
2021-06-23 15:30:20.757812500,60.0,-3.0,19.0,106.15,13.815000000000001,0.06308103125,32.07
2021-06-23 15:30:20.765625000,60.0,-3.0,19.0,106.15,13.38,0.0631210625,32.07
2021-06-23 15:30:20.773437500,60.0,-3.0,19.0,106.15,12.785,0.06316109375,32.07
2021-06-23 15:30:20.781250000,60.0,-3.0,19.0,106.15,12.19,0.063201125,32.07
2021-06-23 15:30:20.789062500,60.0,-3.0,19.25,106.15,11.485,0.06324115625,32.07
2021-06-23 15:30:20.796875000,60.0,-3.0,19.5,106.15,10.78,0.0632811875,32.07
2021-06-23 15:30:20.804687500,60.0,-3.0,19.75,106.15,10.03,0.06332121875,32.07
2021-06-23 15:30:20.812500000,60.0,-3.0,20.0,106.15,9.28,0.06336125000000001,32.07
2021-06-23 15:30:20.820312500,60.0,-3.0,19.75,106.15,8.555,0.06340128125,32.07
2021-06-23 15:30:20.828125000,60.0,-3.0,19.5,106.15,7.83,0.0634413125,32.07
2021-06-23 15:30:20.835937500,60.0,-3.0,19.25,106.15,7.1899999999999995,0.06348134375,32.07
2021-06-23 15:30:20.843750000,60.0,-3.0,19.0,106.15,6.55,0.063521375,32.07
2021-06-23 15:30:20.851562500,60.0,-3.0,19.0,106.15,6.025,0.06356140625000001,32.07
2021-06-23 15:30:20.859375000,60.0,-3.0,19.0,106.15,5.5,0.0636014375,32.07
2021-06-23 15:30:20.867187500,60.0,-3.0,19.0,106.15,5.09,0.06364146875,32.07
2021-06-23 15:30:20.875000000,60.0,-3.0,19.0,106.15,4.68,0.0636815,32.07
2021-06-23 15:30:20.882812500,60.0,-3.0,19.0,106.15,4.355,0.06372153125,32.07
2021-06-23 15:30:20.890625000,60.0,-3.0,19.0,106.15,4.03,0.06376156250000001,32.07
2021-06-23 15:30:20.898437500,60.0,-3.0,19.0,106.15,3.705,0.06380159375,32.07
2021-06-23 15:30:20.906250000,60.0,-3.0,19.0,106.15,3.38,0.063841625,32.07
2021-06-23 15:30:20.914062500,60.0,-3.25,19.25,106.15,2.96,0.06388165625,32.07
2021-06-23 15:30:20.921875000,60.0,-3.5,19.5,106.15,2.54,0.0639216875,32.07
2021-06-23 15:30:20.929687500,60.0,-3.75,19.75,106.15,1.915,0.06396171875000001,32.07
2021-06-23 15:30:20.937500000,60.0,-4.0,20.0,106.15,1.29,0.06400175,32.07
2021-06-23 15:30:20.945312500,60.0,-3.75,19.75,106.15,0.3400000000000001,0.06404178125,32.07
2021-06-23 15:30:20.953125000,60.0,-3.5,19.5,106.15,-0.61,0.0640818125,32.07
2021-06-23 15:30:20.960937500,60.0,-3.25,19.25,106.15,-1.955,0.06412184375,32.07
2021-06-23 15:30:20.968750000,60.0,-3.0,19.0,106.15,-3.3,0.06416187500000001,32.07
2021-06-23 15:30:20.976562500,60.0,-3.0,19.25,106.15,-5.029999999999999,0.06420190625000001,32.07
2021-06-23 15:30:20.984375000,60.0,-3.0,19.5,106.15,-6.76,0.0642419375,32.07
2021-06-23 15:30:20.992187500,60.0,-3.0,19.75,106.15,-8.735,0.06428196875,32.07
2021-06-23 15:30:21.000000000,60.0,-3.0,20.0,106.15,-10.71,0.064322,32.07
2021-06-23 15:30:21.007812500,60.0,-3.0,20.0,106.15273437500001,-12.625,0.06420190625000001,32.07
2021-06-23 15:30:21.015625000,60.0,-3.0,20.0,106.15546875000001,-14.54,0.0640818125,32.07
2021-06-23 15:30:21.023437500,60.0,-3.0,20.0,106.158203125,-15.995,0.06396171875000001,32.07
2021-06-23 15:30:21.031250000,60.0,-3.0,20.0,106.1609375,-17.45,0.063841625,32.07
2021-06-23 15:30:21.039062500,60.0,-3.25,19.75,106.163671875,-18.045,0.06372153125,32.07
2021-06-23 15:30:21.046875000,60.0,-3.5,19.5,106.16640625000001,-18.64,0.0636014375,32.07
2021-06-23 15:30:21.054687500,60.0,-3.75,19.25,106.16914062500001,-18.130000000000003,0.06348134375,32.07
2021-06-23 15:30:21.062500000,60.0,-4.0,19.0,106.171875,-17.62,0.06336125000000001,32.07
2021-06-23 15:30:21.070312500,60.0,-3.75,19.0,106.174609375,-16.0,0.06324115625,32.07
2021-06-23 15:30:21.078125000,60.0,-3.5,19.0,106.17734375,-14.38,0.0631210625,32.07
2021-06-23 15:30:21.085937500,60.0,-3.25,19.0,106.18007812500001,-11.88,0.06300096875,32.07
2021-06-23 15:30:21.093750000,60.0,-3.0,19.0,106.18281250000001,-9.38,0.062880875,32.07
2021-06-23 15:30:21.101562500,60.0,-3.25,19.0,106.185546875,-6.3950000000000005,0.06276078125000001,32.07
2021-06-23 15:30:21.109375000,60.0,-3.5,19.0,106.18828125,-3.41,0.0626406875,32.07
2021-06-23 15:30:21.117187500,60.0,-3.75,19.0,106.191015625,-0.3849999999999998,0.06252059375,32.07
2021-06-23 15:30:21.125000000,60.0,-4.0,19.0,106.19375000000001,2.64,0.0624005,32.07
2021-06-23 15:30:21.132812500,60.0,-3.75,19.0,106.19648437500001,5.334999999999999,0.06228040625,32.07
2021-06-23 15:30:21.140625000,60.0,-3.5,19.0,106.19921875,8.03,0.0621603125,32.07
2021-06-23 15:30:21.148437500,60.0,-3.25,19.0,106.201953125,10.155,0.06204021875,32.07
2021-06-23 15:30:21.156250000,60.0,-3.0,19.0,106.2046875,12.28,0.061920125,32.07
2021-06-23 15:30:21.164062500,60.0,-3.0,19.0,106.20742187500001,13.725,0.06180003125,32.07
2021-06-23 15:30:21.171875000,60.0,-3.0,19.0,106.21015625000001,15.17,0.0616799375,32.07
2021-06-23 15:30:21.179687500,60.0,-3.0,19.0,106.212890625,15.93,0.06155984375,32.07
2021-06-23 15:30:21.187500000,60.0,-3.0,19.0,106.215625,16.69,0.06143975,32.07
2021-06-23 15:30:21.195312500,60.0,-3.0,19.0,106.218359375,16.87,0.06131965625,32.07
2021-06-23 15:30:21.203125000,60.0,-3.0,19.0,106.22109375000001,17.05,0.0611995625,32.07
2021-06-23 15:30:21.210937500,60.0,-3.0,19.0,106.22382812500001,16.795,0.06107946875,32.07
2021-06-23 15:30:21.218750000,60.0,-3.0,19.0,106.2265625,16.54,0.060959374999999996,32.07
2021-06-23 15:30:21.226562500,60.0,-3.0,19.0,106.229296875,16.025,0.06083928125,32.07
2021-06-23 15:30:21.234375000,60.0,-3.0,19.0,106.23203125,15.51,0.0607191875,32.07
2021-06-23 15:30:21.242187500,60.0,-3.0,19.0,106.23476562500001,14.86,0.06059909375,32.07
2021-06-23 15:30:21.250000000,60.0,-3.0,19.0,106.23750000000001,14.21,0.060479,32.07
2021-06-23 15:30:21.257812500,60.0,-3.0,19.0,106.240234375,13.515,0.06059909375,32.07
2021-06-23 15:30:21.265625000,60.0,-3.0,19.0,106.24296875,12.82,0.0607191875,32.07
2021-06-23 15:30:21.273437500,60.0,-3.0,19.0,106.245703125,12.09,0.06083928125,32.07
2021-06-23 15:30:21.281250000,60.0,-3.0,19.0,106.24843750000001,11.36,0.060959374999999996,32.07
2021-06-23 15:30:21.289062500,60.0,-3.0,19.25,106.251171875,10.59,0.06107946875,32.07
2021-06-23 15:30:21.296875000,60.0,-3.0,19.5,106.25390625,9.82,0.0611995625,32.07
2021-06-23 15:30:21.304687500,60.0,-3.0,19.75,106.256640625,9.025,0.06131965625,32.07
2021-06-23 15:30:21.312500000,60.0,-3.0,20.0,106.259375,8.23,0.06143975,32.07
2021-06-23 15:30:21.320312500,60.0,-3.0,19.75,106.26210937500001,7.455,0.06155984375,32.07
2021-06-23 15:30:21.328125000,60.0,-3.0,19.5,106.26484375,6.68,0.0616799375,32.07
2021-06-23 15:30:21.335937500,60.0,-3.0,19.25,106.267578125,5.975,0.06180003125,32.07
2021-06-23 15:30:21.343750000,60.0,-3.0,19.0,106.2703125,5.27,0.061920125,32.07
2021-06-23 15:30:21.351562500,60.0,-3.0,19.0,106.273046875,4.68,0.06204021875,32.07
2021-06-23 15:30:21.359375000,60.0,-3.0,19.0,106.27578125000001,4.09,0.0621603125,32.07
2021-06-23 15:30:21.367187500,60.0,-3.0,19.0,106.278515625,3.62,0.06228040625,32.07
2021-06-23 15:30:21.375000000,60.0,-3.0,19.0,106.28125,3.15,0.0624005,32.07
2021-06-23 15:30:21.382812500,60.0,-3.0,19.0,106.283984375,2.75,0.06252059375,32.07
2021-06-23 15:30:21.390625000,60.0,-3.0,19.0,106.28671875,2.35,0.0626406875,32.07
2021-06-23 15:30:21.398437500,60.0,-3.0,19.0,106.28945312500001,1.915,0.06276078125000001,32.07
2021-06-23 15:30:21.406250000,60.0,-3.0,19.0,106.2921875,1.48,0.062880875,32.07
2021-06-23 15:30:21.414062500,60.0,-3.0,19.0,106.294921875,0.9,0.06300096875,32.07
2021-06-23 15:30:21.421875000,60.0,-3.0,19.0,106.29765625,0.32,0.0631210625,32.07
2021-06-23 15:30:21.429687500,60.0,-3.0,19.0,106.300390625,-0.51,0.06324115625,32.07
2021-06-23 15:30:21.437500000,60.0,-3.0,19.0,106.30312500000001,-1.34,0.06336125000000001,32.07
2021-06-23 15:30:21.445312500,60.0,-3.0,19.25,106.305859375,-2.4850000000000003,0.06348134375,32.07
2021-06-23 15:30:21.453125000,60.0,-3.0,19.5,106.30859375,-3.63,0.0636014375,32.07
2021-06-23 15:30:21.460937500,60.0,-3.0,19.75,106.311328125,-5.085,0.06372153125,32.07
2021-06-23 15:30:21.468750000,60.0,-3.0,20.0,106.3140625,-6.54,0.063841625,32.07
2021-06-23 15:30:21.476562500,60.0,-3.25,19.75,106.31679687500001,-8.17,0.06396171875000001,32.07
2021-06-23 15:30:21.484375000,60.0,-3.5,19.5,106.31953125,-9.8,0.0640818125,32.07
2021-06-23 15:30:21.492187500,60.0,-3.75,19.25,106.322265625,-11.34,0.06420190625000001,32.07
2021-06-23 15:30:21.500000000,60.0,-4.0,19.0,106.325,-12.88,0.064322,32.07
2021-06-23 15:30:21.507812500,60.0,-3.75,19.25,106.327734375,-13.985,0.06416184375,32.07
2021-06-23 15:30:21.515625000,60.0,-3.5,19.5,106.33046875000001,-15.09,0.0640016875,32.07
2021-06-23 15:30:21.523437500,60.0,-3.25,19.75,106.333203125,-15.415,0.06384153125,32.07
2021-06-23 15:30:21.531250000,60.0,-3.0,20.0,106.3359375,-15.74,0.063681375,32.07
2021-06-23 15:30:21.539062500,60.0,-3.25,19.75,106.338671875,-15.055,0.06352121875,32.07
2021-06-23 15:30:21.546875000,60.0,-3.5,19.5,106.34140625,-14.37,0.06336106250000001,32.07
2021-06-23 15:30:21.554687500,60.0,-3.75,19.25,106.34414062500001,-12.649999999999999,0.06320090625000001,32.07
2021-06-23 15:30:21.562500000,60.0,-4.0,19.0,106.346875,-10.93,0.06304075,32.07
2021-06-23 15:30:21.570312500,60.0,-3.75,19.25,106.349609375,-8.385,0.06288059375,32.07
2021-06-23 15:30:21.578125000,60.0,-3.5,19.5,106.35234375,-5.84,0.0627204375,32.07
2021-06-23 15:30:21.585937500,60.0,-3.25,19.75,106.355078125,-2.87,0.06256028125,32.07
2021-06-23 15:30:21.593750000,60.0,-3.0,20.0,106.35781250000001,0.1,0.062400125,32.07
2021-06-23 15:30:21.601562500,60.0,-3.0,19.75,106.360546875,3.0300000000000002,0.06223996875,32.07
2021-06-23 15:30:21.609375000,60.0,-3.0,19.5,106.36328125,5.96,0.062079812500000005,32.07
2021-06-23 15:30:21.617187500,60.0,-3.0,19.25,106.366015625,8.425,0.06191965625,32.07
2021-06-23 15:30:21.625000000,60.0,-3.0,19.0,106.36875,10.89,0.0617595,32.07
2021-06-23 15:30:21.632812500,60.0,-3.0,19.0,106.37148437500001,12.61,0.06159934375,32.07
2021-06-23 15:30:21.640625000,60.0,-3.0,19.0,106.37421875,14.33,0.0614391875,32.07
2021-06-23 15:30:21.648437500,60.0,-3.0,19.0,106.376953125,15.219999999999999,0.061279031250000005,32.07
2021-06-23 15:30:21.656250000,60.0,-3.0,19.0,106.3796875,16.11,0.061118875,32.07
2021-06-23 15:30:21.664062500,60.0,-3.0,19.25,106.382421875,16.27,0.06095871875,32.07
2021-06-23 15:30:21.671875000,60.0,-3.0,19.5,106.38515625000001,16.43,0.0607985625,32.07
2021-06-23 15:30:21.679687500,60.0,-3.0,19.75,106.387890625,16.08,0.06063840625,32.07
2021-06-23 15:30:21.687500000,60.0,-3.0,20.0,106.390625,15.73,0.06047825,32.07
2021-06-23 15:30:21.695312500,60.0,-3.0,19.75,106.393359375,15.120000000000001,0.06031809375,32.07
2021-06-23 15:30:21.703125000,60.0,-3.0,19.5,106.39609375,14.51,0.0601579375,32.07
2021-06-23 15:30:21.710937500,60.0,-3.0,19.25,106.39882812500001,13.86,0.05999778125,32.07
2021-06-23 15:30:21.718750000,60.0,-3.0,19.0,106.4015625,13.21,0.059837625,32.07
2021-06-23 15:30:21.726562500,60.0,-3.0,19.0,106.404296875,12.63,0.059677468750000004,32.07
2021-06-23 15:30:21.734375000,60.0,-3.0,19.0,106.40703125,12.05,0.0595173125,32.07
2021-06-23 15:30:21.742187500,60.0,-3.0,19.0,106.409765625,11.565000000000001,0.05935715625,32.07
2021-06-23 15:30:21.750000000,60.0,-3.0,19.0,106.4125,11.08,0.059197,32.07
2021-06-23 15:30:21.757812500,60.0,-3.0,19.0,106.415234375,10.645,0.05935715625,32.07
2021-06-23 15:30:21.765625000,60.0,-3.0,19.0,106.41796875,10.21,0.0595173125,32.07
2021-06-23 15:30:21.773437500,60.0,-3.0,19.0,106.420703125,9.75,0.05967746875,32.07
2021-06-23 15:30:21.781250000,60.0,-3.0,19.0,106.4234375,9.29,0.059837625,32.07
2021-06-23 15:30:21.789062500,60.0,-3.0,19.25,106.426171875,8.754999999999999,0.05999778125,32.07
2021-06-23 15:30:21.796875000,60.0,-3.0,19.5,106.42890625,8.22,0.0601579375,32.07
2021-06-23 15:30:21.804687500,60.0,-3.0,19.75,106.431640625,7.575,0.06031809375,32.07
2021-06-23 15:30:21.812500000,60.0,-3.0,20.0,106.434375,6.93,0.06047825,32.07
2021-06-23 15:30:21.820312500,60.0,-3.0,19.75,106.437109375,6.18,0.06063840625,32.07
2021-06-23 15:30:21.828125000,60.0,-3.0,19.5,106.43984375,5.43,0.0607985625,32.07
2021-06-23 15:30:21.835937500,60.0,-3.0,19.25,106.442578125,4.595,0.06095871875,32.07
2021-06-23 15:30:21.843750000,60.0,-3.0,19.0,106.4453125,3.76,0.061118875,32.07
2021-06-23 15:30:21.851562500,60.0,-3.0,19.0,106.448046875,2.8949999999999996,0.061279031250000005,32.07
2021-06-23 15:30:21.859375000,60.0,-3.0,19.0,106.45078125,2.03,0.0614391875,32.07
2021-06-23 15:30:21.867187500,60.0,-3.0,19.0,106.453515625,1.185,0.06159934375,32.07
2021-06-23 15:30:21.875000000,60.0,-3.0,19.0,106.45625,0.34,0.0617595,32.07
2021-06-23 15:30:21.882812500,60.0,-3.25,19.0,106.458984375,-0.445,0.06191965625,32.07
2021-06-23 15:30:21.890625000,60.0,-3.5,19.0,106.46171875,-1.23,0.062079812500000005,32.07
2021-06-23 15:30:21.898437500,60.0,-3.75,19.0,106.464453125,-1.985,0.06223996875,32.07
2021-06-23 15:30:21.906250000,60.0,-4.0,19.0,106.4671875,-2.74,0.062400125,32.07
2021-06-23 15:30:21.914062500,60.0,-3.75,19.25,106.469921875,-3.565,0.06256028125,32.07
2021-06-23 15:30:21.921875000,60.0,-3.5,19.5,106.47265625,-4.39,0.0627204375,32.07
2021-06-23 15:30:21.929687500,60.0,-3.25,19.75,106.475390625,-5.445,0.06288059375,32.07
2021-06-23 15:30:21.937500000,60.0,-3.0,20.0,106.478125,-6.5,0.06304075,32.07
2021-06-23 15:30:21.945312500,60.0,-3.25,19.75,106.480859375,-7.9,0.06320090625000001,32.07
2021-06-23 15:30:21.953125000,60.0,-3.5,19.5,106.48359375,-9.3,0.06336106250000001,32.07
2021-06-23 15:30:21.960937500,60.0,-3.75,19.25,106.486328125,-11.055,0.06352121875,32.07
2021-06-23 15:30:21.968750000,60.0,-4.0,19.0,106.4890625,-12.81,0.063681375,32.07
2021-06-23 15:30:21.976562500,60.0,-3.75,19.25,106.491796875,-14.705000000000002,0.06384153125,32.07
2021-06-23 15:30:21.984375000,60.0,-3.5,19.5,106.49453125,-16.6,0.0640016875,32.07
2021-06-23 15:30:21.992187500,60.0,-3.25,19.75,106.497265625,-18.265,0.06416184375,32.07
2021-06-23 15:30:22.000000000,60.0,-3.0,20.0,106.5,-19.93,0.064322,32.07
2021-06-23 15:30:22.007812500,60.0,-3.25,19.75,106.502890625,-20.91,0.0641218125,32.070625
2021-06-23 15:30:22.015625000,60.0,-3.5,19.5,106.50578125,-21.89,0.06392162500000001,32.07125
2021-06-23 15:30:22.023437500,60.0,-3.75,19.25,106.508671875,-21.805,0.0637214375,32.071875
2021-06-23 15:30:22.031250000,60.0,-4.0,19.0,106.5115625,-21.72,0.06352125,32.0725
2021-06-23 15:30:22.039062500,60.0,-3.75,19.0,106.514453125,-20.455,0.0633210625,32.073125
2021-06-23 15:30:22.046875000,60.0,-3.5,19.0,106.51734375,-19.19,0.063120875,32.073750000000004
2021-06-23 15:30:22.054687500,60.0,-3.25,19.0,106.520234375,-16.91,0.0629206875,32.074375
2021-06-23 15:30:22.062500000,60.0,-3.0,19.0,106.523125,-14.63,0.0627205,32.075
2021-06-23 15:30:22.070312500,60.0,-3.0,19.0,106.526015625,-11.73,0.06252031250000001,32.075625
2021-06-23 15:30:22.078125000,60.0,-3.0,19.0,106.52890625,-8.83,0.062320125000000004,32.07625
2021-06-23 15:30:22.085937500,60.0,-3.0,19.0,106.531796875,-5.82,0.0621199375,32.076875
2021-06-23 15:30:22.093750000,60.0,-3.0,19.0,106.5346875,-2.81,0.06191975,32.0775
2021-06-23 15:30:22.101562500,60.0,-3.0,19.0,106.537578125,-0.13500000000000023,0.061719562500000005,32.078125
2021-06-23 15:30:22.109375000,60.0,-3.0,19.0,106.54046875,2.54,0.061519375,32.07875
2021-06-23 15:30:22.117187500,60.0,-3.0,19.0,106.543359375,4.6,0.061319187500000004,32.079375
2021-06-23 15:30:22.125000000,60.0,-3.0,19.0,106.54625,6.66,0.06111900000000001,32.08
2021-06-23 15:30:22.132812500,60.0,-3.0,19.25,106.549140625,8.025,0.0609188125,32.080625000000005
2021-06-23 15:30:22.140625000,60.0,-3.0,19.5,106.55203125,9.39,0.060718625000000005,32.081250000000004
2021-06-23 15:30:22.148437500,60.0,-3.0,19.75,106.554921875,10.145,0.0605184375,32.081875000000004
2021-06-23 15:30:22.156250000,60.0,-3.0,20.0,106.5578125,10.9,0.060318250000000004,32.0825
2021-06-23 15:30:22.164062500,60.0,-3.0,19.75,106.560703125,11.205,0.0601180625,32.083125
2021-06-23 15:30:22.171875000,60.0,-3.0,19.5,106.56359375,11.51,0.059917875,32.08375
2021-06-23 15:30:22.179687500,60.0,-3.0,19.25,106.566484375,11.530000000000001,0.059717687500000005,32.084375
2021-06-23 15:30:22.187500000,60.0,-3.0,19.0,106.56937500000001,11.55,0.0595175,32.085
2021-06-23 15:30:22.195312500,60.0,-3.0,19.0,106.572265625,11.405000000000001,0.059317312500000004,32.085625
2021-06-23 15:30:22.203125000,60.0,-3.0,19.0,106.57515625,11.26,0.059117125000000006,32.08625
2021-06-23 15:30:22.210937500,60.0,-3.0,19.0,106.578046875,10.98,0.0589169375,32.086875000000006
2021-06-23 15:30:22.218750000,60.0,-3.0,19.0,106.5809375,10.7,0.058716750000000005,32.087500000000006
2021-06-23 15:30:22.226562500,60.0,-3.0,19.0,106.583828125,10.26,0.0585165625,32.088125000000005
2021-06-23 15:30:22.234375000,60.0,-3.0,19.0,106.58671875,9.82,0.058316375000000004,32.088750000000005
2021-06-23 15:30:22.242187500,60.0,-3.0,19.0,106.589609375,9.18,0.0581161875,32.089375000000004
2021-06-23 15:30:22.250000000,60.0,-3.0,19.0,106.5925,8.54,0.057916,32.09
2021-06-23 15:30:22.257812500,60.0,-3.0,19.25,106.59539062500001,7.674999999999999,0.057956031250000005,32.09
2021-06-23 15:30:22.265625000,60.0,-3.0,19.5,106.59828125,6.81,0.0579960625,32.09
2021-06-23 15:30:22.273437500,60.0,-3.0,19.75,106.601171875,5.73,0.058036093750000003,32.09
2021-06-23 15:30:22.281250000,60.0,-3.0,20.0,106.6040625,4.65,0.058076125,32.09
2021-06-23 15:30:22.289062500,60.0,-3.0,20.0,106.606953125,3.43,0.05811615625,32.09
2021-06-23 15:30:22.296875000,60.0,-3.0,20.0,106.60984375,2.21,0.058156187500000005,32.09
2021-06-23 15:30:22.304687500,60.0,-3.0,20.0,106.612734375,0.98,0.05819621875,32.09
2021-06-23 15:30:22.312500000,60.0,-3.0,20.0,106.615625,-0.25,0.05823625,32.09
2021-06-23 15:30:22.320312500,60.0,-3.0,20.0,106.618515625,-1.315,0.05827628125,32.09
2021-06-23 15:30:22.328125000,60.0,-3.0,20.0,106.62140625,-2.38,0.0583163125,32.09
2021-06-23 15:30:22.335937500,60.0,-3.0,20.0,106.624296875,-3.11,0.058356343750000005,32.09
2021-06-23 15:30:22.343750000,60.0,-3.0,20.0,106.6271875,-3.84,0.058396375,32.09
2021-06-23 15:30:22.351562500,60.0,-3.0,19.75,106.630078125,-4.135,0.05843640625,32.09
2021-06-23 15:30:22.359375000,60.0,-3.0,19.5,106.63296875,-4.43,0.0584764375,32.09
2021-06-23 15:30:22.367187500,60.0,-3.0,19.25,106.635859375,-4.305,0.05851646875,32.09
2021-06-23 15:30:22.375000000,60.0,-3.0,19.0,106.63875,-4.18,0.0585565,32.09
2021-06-23 15:30:22.382812500,60.0,-3.0,19.25,106.64164062500001,-3.795,0.05859653125,32.09
2021-06-23 15:30:22.390625000,60.0,-3.0,19.5,106.64453125,-3.41,0.0586365625,32.09
2021-06-23 15:30:22.398437500,60.0,-3.0,19.75,106.647421875,-3.06,0.05867659375,32.09
2021-06-23 15:30:22.406250000,60.0,-3.0,20.0,106.6503125,-2.71,0.058716625,32.09
2021-06-23 15:30:22.414062500,60.0,-3.0,19.75,106.653203125,-2.685,0.05875665625,32.09
2021-06-23 15:30:22.421875000,60.0,-3.0,19.5,106.65609375,-2.66,0.0587966875,32.09
2021-06-23 15:30:22.429687500,60.0,-3.0,19.25,106.658984375,-3.175,0.05883671875,32.09
2021-06-23 15:30:22.437500000,60.0,-3.0,19.0,106.66187500000001,-3.69,0.05887675,32.09
2021-06-23 15:30:22.445312500,60.0,-3.0,19.0,106.664765625,-4.76,0.05891678125,32.09
2021-06-23 15:30:22.453125000,60.0,-3.0,19.0,106.66765625000001,-5.83,0.0589568125,32.09
2021-06-23 15:30:22.460937500,60.0,-3.0,19.0,106.670546875,-7.24,0.05899684375,32.09
2021-06-23 15:30:22.468750000,60.0,-3.0,19.0,106.6734375,-8.65,0.059036875,32.09
2021-06-23 15:30:22.476562500,60.0,-3.0,19.25,106.676328125,-10.030000000000001,0.05907690625,32.09
2021-06-23 15:30:22.484375000,60.0,-3.0,19.5,106.67921875,-11.41,0.0591169375,32.09
2021-06-23 15:30:22.492187500,60.0,-3.0,19.75,106.682109375,-12.32,0.05915696875,32.09
2021-06-23 15:30:22.500000000,60.0,-3.0,20.0,106.685,-13.23,0.059197,32.09
2021-06-23 15:30:22.507812500,60.0,-3.0,20.0,106.68789062500001,-13.305,0.0593971875,32.09
2021-06-23 15:30:22.515625000,60.0,-3.0,20.0,106.69078125,-13.38,0.059597375,32.09
2021-06-23 15:30:22.523437500,60.0,-3.0,20.0,106.693671875,-12.41,0.0597975625,32.09
2021-06-23 15:30:22.531250000,60.0,-3.0,20.0,106.6965625,-11.44,0.05999775,32.09
2021-06-23 15:30:22.539062500,60.0,-3.0,20.0,106.699453125,-9.445,0.0601979375,32.09
2021-06-23 15:30:22.546875000,60.0,-3.0,20.0,106.70234375,-7.45,0.060398125,32.09
2021-06-23 15:30:22.554687500,60.0,-3.0,20.0,106.705234375,-4.695,0.0605983125,32.09
2021-06-23 15:30:22.562500000,60.0,-3.0,20.0,106.708125,-1.94,0.0607985,32.09
2021-06-23 15:30:22.570312500,60.0,-3.0,20.0,106.711015625,1.1750000000000003,0.060998687499999996,32.09
2021-06-23 15:30:22.578125000,60.0,-3.0,20.0,106.71390625000001,4.29,0.061198875,32.09
2021-06-23 15:30:22.585937500,60.0,-3.0,20.0,106.716796875,7.265000000000001,0.0613990625,32.09
2021-06-23 15:30:22.593750000,60.0,-3.0,20.0,106.7196875,10.24,0.061599249999999994,32.09
2021-06-23 15:30:22.601562500,60.0,-3.0,19.75,106.722578125,12.67,0.0617994375,32.09
2021-06-23 15:30:22.609375000,60.0,-3.0,19.5,106.72546875,15.1,0.061999624999999996,32.09
2021-06-23 15:30:22.617187500,60.0,-3.0,19.25,106.728359375,16.725,0.0621998125,32.09
2021-06-23 15:30:22.625000000,60.0,-3.0,19.0,106.73125,18.35,0.0624,32.09
2021-06-23 15:30:22.632812500,60.0,-3.0,19.25,106.73414062500001,19.14,0.0626001875,32.09
2021-06-23 15:30:22.640625000,60.0,-3.0,19.5,106.73703125,19.93,0.06280037499999999,32.09
2021-06-23 15:30:22.648437500,60.0,-3.0,19.75,106.73992187500001,20.015,0.0630005625,32.09
2021-06-23 15:30:22.656250000,60.0,-3.0,20.0,106.7428125,20.1,0.06320075,32.09
2021-06-23 15:30:22.664062500,60.0,-3.0,20.0,106.745703125,19.725,0.06340093749999999,32.09
2021-06-23 15:30:22.671875000,60.0,-3.0,20.0,106.74859375,19.35,0.063601125,32.09
2021-06-23 15:30:22.679687500,60.0,-3.0,20.0,106.751484375,18.715,0.0638013125,32.09
2021-06-23 15:30:22.687500000,60.0,-3.0,20.0,106.75437500000001,18.08,0.06400149999999999,32.09
2021-06-23 15:30:22.695312500,60.0,-3.0,19.75,106.757265625,17.345,0.0642016875,32.09
2021-06-23 15:30:22.703125000,60.0,-3.0,19.5,106.76015625000001,16.61,0.064401875,32.09
2021-06-23 15:30:22.710937500,60.0,-3.0,19.25,106.763046875,15.82,0.0646020625,32.09
2021-06-23 15:30:22.718750000,60.0,-3.0,19.0,106.7659375,15.03,0.06480224999999999,32.09
2021-06-23 15:30:22.726562500,60.0,-3.0,19.0,106.768828125,14.184999999999999,0.0650024375,32.09
2021-06-23 15:30:22.734375000,60.0,-3.0,19.0,106.77171875,13.34,0.065202625,32.09
2021-06-23 15:30:22.742187500,60.0,-3.0,19.0,106.774609375,12.44,0.06540281249999999,32.09
2021-06-23 15:30:22.750000000,60.0,-3.0,19.0,106.7775,11.54,0.065603,32.09
2021-06-23 15:30:22.757812500,60.0,-3.0,19.25,106.78039062500001,10.605,0.06548290625,32.09
2021-06-23 15:30:22.765625000,60.0,-3.0,19.5,106.78328125,9.67,0.06536281249999999,32.09
2021-06-23 15:30:22.773437500,60.0,-3.0,19.75,106.78617187500001,8.76,0.06524271875,32.09
2021-06-23 15:30:22.781250000,60.0,-3.0,20.0,106.7890625,7.85,0.06512262499999999,32.09
2021-06-23 15:30:22.789062500,60.0,-3.0,20.0,106.791953125,7.035,0.06500253125,32.09
2021-06-23 15:30:22.796875000,60.0,-3.0,20.0,106.79484375,6.22,0.0648824375,32.09
2021-06-23 15:30:22.804687500,60.0,-3.0,20.0,106.797734375,5.5649999999999995,0.06476234374999999,32.09
2021-06-23 15:30:22.812500000,60.0,-3.0,20.0,106.800625,4.91,0.06464225,32.09
2021-06-23 15:30:22.820312500,60.0,-3.0,19.75,106.803515625,4.44,0.06452215624999999,32.09
2021-06-23 15:30:22.828125000,60.0,-3.0,19.5,106.80640625000001,3.97,0.0644020625,32.09
2021-06-23 15:30:22.835937500,60.0,-3.0,19.25,106.809296875,3.66,0.06428196875,32.09
2021-06-23 15:30:22.843750000,60.0,-3.0,19.0,106.81218750000001,3.35,0.064161875,32.09
2021-06-23 15:30:22.851562500,60.0,-3.0,19.25,106.815078125,3.1,0.06404178125,32.09
2021-06-23 15:30:22.859375000,60.0,-3.0,19.5,106.81796875,2.85,0.0639216875,32.09
2021-06-23 15:30:22.867187500,60.0,-3.0,19.75,106.820859375,2.505,0.06380159375,32.09
2021-06-23 15:30:22.875000000,60.0,-3.0,20.0,106.82375,2.16,0.0636815,32.09
2021-06-23 15:30:22.882812500,60.0,-3.0,19.75,106.82664062500001,1.5250000000000001,0.06356140625,32.09
2021-06-23 15:30:22.890625000,60.0,-3.0,19.5,106.82953125,0.89,0.0634413125,32.09
2021-06-23 15:30:22.898437500,60.0,-3.0,19.25,106.83242187500001,-0.20499999999999996,0.06332121875,32.09
2021-06-23 15:30:22.906250000,60.0,-3.0,19.0,106.8353125,-1.3,0.063201125,32.09
2021-06-23 15:30:22.914062500,60.0,-3.0,19.25,106.838203125,-2.9350000000000005,0.06308103125,32.09
2021-06-23 15:30:22.921875000,60.0,-3.0,19.5,106.84109375,-4.57,0.0629609375,32.09
2021-06-23 15:30:22.929687500,60.0,-3.0,19.75,106.843984375,-6.66,0.06284084375,32.09
2021-06-23 15:30:22.937500000,60.0,-3.0,20.0,106.84687500000001,-8.75,0.06272075,32.09
2021-06-23 15:30:22.945312500,60.0,-3.0,19.75,106.849765625,-10.99,0.06260065625,32.09
2021-06-23 15:30:22.953125000,60.0,-3.0,19.5,106.85265625000001,-13.23,0.0624805625,32.09
2021-06-23 15:30:22.960937500,60.0,-3.0,19.25,106.855546875,-15.18,0.06236046875,32.09
2021-06-23 15:30:22.968750000,60.0,-3.0,19.0,106.85843750000001,-17.13,0.062240375,32.09
2021-06-23 15:30:22.976562500,60.0,-3.25,19.0,106.861328125,-18.295,0.06212028125,32.09
2021-06-23 15:30:22.984375000,60.0,-3.5,19.0,106.86421875,-19.46,0.062000187500000005,32.09
2021-06-23 15:30:22.992187500,60.0,-3.75,19.0,106.867109375,-19.495,0.061880093750000004,32.09
2021-06-23 15:30:23.000000000,60.0,-4.0,19.0,106.87,-19.53,0.06176,32.09
2021-06-23 15:30:23.007812500,60.0,-3.75,19.0,106.87281250000001,-18.35,0.061880093750000004,32.089375000000004
2021-06-23 15:30:23.015625000,60.0,-3.5,19.0,106.875625,-17.17,0.062000187500000005,32.088750000000005
2021-06-23 15:30:23.023437500,60.0,-3.25,19.0,106.8784375,-14.985000000000001,0.06212028125,32.088125000000005
2021-06-23 15:30:23.031250000,60.0,-3.0,19.0,106.88125000000001,-12.8,0.062240375,32.087500000000006
2021-06-23 15:30:23.039062500,60.0,-3.0,19.0,106.8840625,-10.035,0.06236046875,32.086875000000006
2021-06-23 15:30:23.046875000,60.0,-3.0,19.0,106.886875,-7.27,0.0624805625,32.08625
2021-06-23 15:30:23.054687500,60.0,-3.0,19.0,106.88968750000001,-4.415,0.06260065625,32.085625
2021-06-23 15:30:23.062500000,60.0,-3.0,19.0,106.8925,-1.56,0.06272075,32.085
2021-06-23 15:30:23.070312500,60.0,-3.25,19.0,106.8953125,0.98,0.06284084375,32.084375
2021-06-23 15:30:23.078125000,60.0,-3.5,19.0,106.89812500000001,3.52,0.0629609375,32.08375
2021-06-23 15:30:23.085937500,60.0,-3.75,19.0,106.9009375,5.515,0.06308103125,32.083125
2021-06-23 15:30:23.093750000,60.0,-4.0,19.0,106.90375,7.51,0.063201125,32.0825
2021-06-23 15:30:23.101562500,60.0,-3.75,19.0,106.9065625,8.89,0.06332121875,32.081875000000004
2021-06-23 15:30:23.109375000,60.0,-3.5,19.0,106.90937500000001,10.27,0.0634413125,32.081250000000004
2021-06-23 15:30:23.117187500,60.0,-3.25,19.0,106.9121875,11.059999999999999,0.06356140625,32.080625000000005
2021-06-23 15:30:23.125000000,60.0,-3.0,19.0,106.915,11.85,0.0636815,32.08
2021-06-23 15:30:23.132812500,60.0,-3.0,19.25,106.91781250000001,12.125,0.06380159375,32.079375
2021-06-23 15:30:23.140625000,60.0,-3.0,19.5,106.920625,12.4,0.0639216875,32.07875
2021-06-23 15:30:23.148437500,60.0,-3.0,19.75,106.9234375,12.25,0.06404178125,32.078125
2021-06-23 15:30:23.156250000,60.0,-3.0,20.0,106.92625000000001,12.1,0.064161875,32.0775
2021-06-23 15:30:23.164062500,60.0,-3.0,19.75,106.9290625,11.625,0.06428196875,32.076875
2021-06-23 15:30:23.171875000,60.0,-3.0,19.5,106.931875,11.15,0.0644020625,32.07625
2021-06-23 15:30:23.179687500,60.0,-3.0,19.25,106.93468750000001,10.46,0.06452215624999999,32.075625
2021-06-23 15:30:23.187500000,60.0,-3.0,19.0,106.9375,9.77,0.06464225,32.075
2021-06-23 15:30:23.195312500,60.0,-3.0,19.25,106.9403125,8.995000000000001,0.06476234374999999,32.074375
2021-06-23 15:30:23.203125000,60.0,-3.0,19.5,106.94312500000001,8.22,0.0648824375,32.073750000000004
2021-06-23 15:30:23.210937500,60.0,-3.0,19.75,106.9459375,7.470000000000001,0.06500253125,32.073125
2021-06-23 15:30:23.218750000,60.0,-3.0,20.0,106.94875,6.72,0.06512262499999999,32.0725
2021-06-23 15:30:23.226562500,60.0,-3.0,19.75,106.95156250000001,6.08,0.06524271875,32.071875
2021-06-23 15:30:23.234375000,60.0,-3.0,19.5,106.954375,5.44,0.06536281249999999,32.07125
2021-06-23 15:30:23.242187500,60.0,-3.0,19.25,106.9571875,4.93,0.06548290625,32.070625
2021-06-23 15:30:23.250000000,60.0,-3.0,19.0,106.96000000000001,4.42,0.065603,32.07
2021-06-23 15:30:23.257812500,60.0,-3.0,19.25,106.9628125,4.04,0.06536278125,32.07
2021-06-23 15:30:23.265625000,60.0,-3.0,19.5,106.965625,3.66,0.0651225625,32.07
2021-06-23 15:30:23.273437500,60.0,-3.0,19.75,106.96843750000001,3.365,0.06488234375,32.07
2021-06-23 15:30:23.281250000,60.0,-3.0,20.0,106.97125,3.07,0.064642125,32.07
2021-06-23 15:30:23.289062500,60.0,-3.0,20.0,106.9740625,2.815,0.06440190625,32.07
2021-06-23 15:30:23.296875000,60.0,-3.0,20.0,106.976875,2.56,0.0641616875,32.07
2021-06-23 15:30:23.304687500,60.0,-3.0,20.0,106.97968750000001,2.3049999999999997,0.06392146875,32.07
2021-06-23 15:30:23.312500000,60.0,-3.0,20.0,106.9825,2.05,0.06368125,32.07
2021-06-23 15:30:23.320312500,60.0,-3.0,19.75,106.9853125,1.775,0.06344103125,32.07
2021-06-23 15:30:23.328125000,60.0,-3.0,19.5,106.98812500000001,1.5,0.0632008125,32.07
2021-06-23 15:30:23.335937500,60.0,-3.0,19.25,106.9909375,1.195,0.06296059375,32.07
2021-06-23 15:30:23.343750000,60.0,-3.0,19.0,106.99375,0.89,0.062720375,32.07
2021-06-23 15:30:23.351562500,60.0,-3.25,19.0,106.99656250000001,0.5,0.062480156249999995,32.07
2021-06-23 15:30:23.359375000,60.0,-3.5,19.0,106.999375,0.11,0.062239937499999995,32.07
2021-06-23 15:30:23.367187500,60.0,-3.75,19.0,107.0021875,-0.44500000000000006,0.06199971875,32.07
2021-06-23 15:30:23.375000000,60.0,-4.0,19.0,107.00500000000001,-1.0,0.061759499999999995,32.07
2021-06-23 15:30:23.382812500,60.0,-3.75,19.0,107.0078125,-1.87,0.06151928125,32.07
2021-06-23 15:30:23.390625000,60.0,-3.5,19.0,107.010625,-2.74,0.061279062499999995,32.07
2021-06-23 15:30:23.398437500,60.0,-3.25,19.0,107.01343750000001,-4.045,0.06103884375,32.07
2021-06-23 15:30:23.406250000,60.0,-3.0,19.0,107.01625,-5.35,0.060798625,32.07
2021-06-23 15:30:23.414062500,60.0,-3.0,19.25,107.0190625,-7.09,0.06055840625,32.07
2021-06-23 15:30:23.421875000,60.0,-3.0,19.5,107.02187500000001,-8.83,0.0603181875,32.07
2021-06-23 15:30:23.429687500,60.0,-3.0,19.75,107.0246875,-10.809999999999999,0.06007796875,32.07
2021-06-23 15:30:23.437500000,60.0,-3.0,20.0,107.0275,-12.79,0.05983775,32.07
2021-06-23 15:30:23.445312500,60.0,-3.0,20.0,107.03031250000001,-14.59,0.05959753125,32.07
2021-06-23 15:30:23.453125000,60.0,-3.0,20.0,107.033125,-16.39,0.0593573125,32.07
2021-06-23 15:30:23.460937500,60.0,-3.0,20.0,107.0359375,-17.490000000000002,0.05911709375,32.07
2021-06-23 15:30:23.468750000,60.0,-3.0,20.0,107.03875000000001,-18.59,0.058876875,32.07
2021-06-23 15:30:23.476562500,60.0,-3.0,19.75,107.0415625,-18.58,0.05863665625,32.07
2021-06-23 15:30:23.484375000,60.0,-3.0,19.5,107.044375,-18.57,0.0583964375,32.07
2021-06-23 15:30:23.492187500,60.0,-3.0,19.25,107.0471875,-17.305,0.05815621875,32.07
2021-06-23 15:30:23.500000000,60.0,-3.0,19.0,107.05000000000001,-16.04,0.057916,32.07
2021-06-23 15:30:23.507812500,60.0,-3.0,19.0,107.0528125,-13.739999999999998,0.058076156250000004,32.07
2021-06-23 15:30:23.515625000,60.0,-3.0,19.0,107.055625,-11.44,0.058236312500000005,32.07
2021-06-23 15:30:23.523437500,60.0,-3.0,19.0,107.05843750000001,-8.565,0.05839646875,32.07
2021-06-23 15:30:23.531250000,60.0,-3.0,19.0,107.06125,-5.69,0.058556625,32.07
2021-06-23 15:30:23.539062500,60.0,-3.25,19.0,107.0640625,-2.77,0.05871678125,32.07
2021-06-23 15:30:23.546875000,60.0,-3.5,19.0,107.06687500000001,0.15,0.058876937500000004,32.07
2021-06-23 15:30:23.554687500,60.0,-3.75,19.0,107.0696875,2.6999999999999997,0.05903709375,32.07
2021-06-23 15:30:23.562500000,60.0,-4.0,19.0,107.0725,5.25,0.05919725,32.07
2021-06-23 15:30:23.570312500,60.0,-3.75,19.25,107.07531250000001,7.21,0.05935740625,32.07
2021-06-23 15:30:23.578125000,60.0,-3.5,19.5,107.078125,9.17,0.0595175625,32.07
2021-06-23 15:30:23.585937500,60.0,-3.25,19.75,107.0809375,10.485,0.059677718750000004,32.07
2021-06-23 15:30:23.593750000,60.0,-3.0,20.0,107.08375000000001,11.8,0.059837875,32.07
2021-06-23 15:30:23.601562500,60.0,-3.0,20.0,107.0865625,12.525,0.05999803125,32.07
2021-06-23 15:30:23.609375000,60.0,-3.0,20.0,107.089375,13.25,0.0601581875,32.07
2021-06-23 15:30:23.617187500,60.0,-3.0,20.0,107.09218750000001,13.45,0.06031834375,32.07
2021-06-23 15:30:23.625000000,60.0,-3.0,20.0,107.095,13.65,0.060478500000000004,32.07
2021-06-23 15:30:23.632812500,60.0,-3.0,20.0,107.0978125,13.395,0.06063865625,32.07
2021-06-23 15:30:23.640625000,60.0,-3.0,20.0,107.10062500000001,13.14,0.0607988125,32.07
2021-06-23 15:30:23.648437500,60.0,-3.0,20.0,107.1034375,12.530000000000001,0.06095896875,32.07
2021-06-23 15:30:23.656250000,60.0,-3.0,20.0,107.10625,11.92,0.061119125,32.07
2021-06-23 15:30:23.664062500,60.0,-3.25,19.75,107.10906250000001,11.075,0.06127928125,32.07
2021-06-23 15:30:23.671875000,60.0,-3.5,19.5,107.111875,10.23,0.0614394375,32.07
2021-06-23 15:30:23.679687500,60.0,-3.75,19.25,107.1146875,9.295,0.06159959375,32.07
2021-06-23 15:30:23.687500000,60.0,-4.0,19.0,107.1175,8.36,0.06175975,32.07
2021-06-23 15:30:23.695312500,60.0,-3.75,19.0,107.1203125,7.445,0.061919906250000004,32.07
2021-06-23 15:30:23.703125000,60.0,-3.5,19.0,107.123125,6.53,0.0620800625,32.07
2021-06-23 15:30:23.710937500,60.0,-3.25,19.0,107.1259375,5.6899999999999995,0.06224021875,32.07
2021-06-23 15:30:23.718750000,60.0,-3.0,19.0,107.12875000000001,4.85,0.062400375,32.07
2021-06-23 15:30:23.726562500,60.0,-3.0,19.0,107.1315625,4.095,0.06256053125,32.07
2021-06-23 15:30:23.734375000,60.0,-3.0,19.0,107.134375,3.34,0.0627206875,32.07
2021-06-23 15:30:23.742187500,60.0,-3.0,19.0,107.13718750000001,2.67,0.06288084375,32.07
2021-06-23 15:30:23.750000000,60.0,-3.0,19.0,107.14,2.0,0.063041,32.07
2021-06-23 15:30:23.757812500,60.0,-3.0,19.25,107.1428125,1.415,0.0631210625,32.07
2021-06-23 15:30:23.765625000,60.0,-3.0,19.5,107.14562500000001,0.83,0.063201125,32.07
2021-06-23 15:30:23.773437500,60.0,-3.0,19.75,107.1484375,0.365,0.0632811875,32.07
2021-06-23 15:30:23.781250000,60.0,-3.0,20.0,107.15125,-0.1,0.06336125,32.07
2021-06-23 15:30:23.789062500,60.0,-3.0,20.0,107.15406250000001,-0.42000000000000004,0.0634413125,32.07
2021-06-23 15:30:23.796875000,60.0,-3.0,20.0,107.156875,-0.74,0.063521375,32.07
2021-06-23 15:30:23.804687500,60.0,-3.0,20.0,107.1596875,-0.92,0.0636014375,32.07
2021-06-23 15:30:23.812500000,60.0,-3.0,20.0,107.16250000000001,-1.1,0.0636815,32.07
2021-06-23 15:30:23.820312500,60.0,-3.0,20.0,107.1653125,-1.2000000000000002,0.0637615625,32.07
2021-06-23 15:30:23.828125000,60.0,-3.0,20.0,107.168125,-1.3,0.063841625,32.07
2021-06-23 15:30:23.835937500,60.0,-3.0,20.0,107.17093750000001,-1.435,0.0639216875,32.07
2021-06-23 15:30:23.843750000,60.0,-3.0,20.0,107.17375,-1.57,0.06400175,32.07
2021-06-23 15:30:23.851562500,60.0,-3.0,20.0,107.1765625,-1.8850000000000002,0.0640818125,32.07
2021-06-23 15:30:23.859375000,60.0,-3.0,20.0,107.17937500000001,-2.2,0.064161875,32.07
2021-06-23 15:30:23.867187500,60.0,-3.0,20.0,107.1821875,-2.845,0.0642419375,32.07
2021-06-23 15:30:23.875000000,60.0,-3.0,20.0,107.185,-3.49,0.06432199999999999,32.07
2021-06-23 15:30:23.882812500,60.0,-3.0,19.75,107.1878125,-4.57,0.0644020625,32.07
2021-06-23 15:30:23.890625000,60.0,-3.0,19.5,107.190625,-5.65,0.064482125,32.07
2021-06-23 15:30:23.898437500,60.0,-3.0,19.25,107.1934375,-7.16,0.06456218749999999,32.07
2021-06-23 15:30:23.906250000,60.0,-3.0,19.0,107.19625,-8.67,0.06464225,32.07
2021-06-23 15:30:23.914062500,60.0,-3.25,19.25,107.19906250000001,-10.455,0.06472231249999999,32.07
2021-06-23 15:30:23.921875000,60.0,-3.5,19.5,107.201875,-12.24,0.064802375,32.07
2021-06-23 15:30:23.929687500,60.0,-3.75,19.75,107.2046875,-13.955,0.0648824375,32.07
2021-06-23 15:30:23.937500000,60.0,-4.0,20.0,107.20750000000001,-15.67,0.06496249999999999,32.07
2021-06-23 15:30:23.945312500,60.0,-3.75,19.75,107.2103125,-16.88,0.0650425625,32.07
2021-06-23 15:30:23.953125000,60.0,-3.5,19.5,107.213125,-18.09,0.06512262499999999,32.07
2021-06-23 15:30:23.960937500,60.0,-3.25,19.25,107.21593750000001,-18.380000000000003,0.0652026875,32.07
2021-06-23 15:30:23.968750000,60.0,-3.0,19.0,107.21875,-18.67,0.06528275,32.07
2021-06-23 15:30:23.976562500,60.0,-3.0,19.25,107.2215625,-17.82,0.06536281249999999,32.07
2021-06-23 15:30:23.984375000,60.0,-3.0,19.5,107.22437500000001,-16.97,0.065442875,32.07
2021-06-23 15:30:23.992187500,60.0,-3.0,19.75,107.2271875,-15.035,0.06552293749999999,32.07
2021-06-23 15:30:24.000000000,60.0,-3.0,20.0,107.23,-13.1,0.065603,32.07
2021-06-23 15:30:24.007812500,60.0,-3.0,20.0,107.233046875,-10.415,0.06548290625,32.07
2021-06-23 15:30:24.015625000,60.0,-3.0,20.0,107.23609375000001,-7.73,0.06536281249999999,32.07
2021-06-23 15:30:24.023437500,60.0,-3.0,20.0,107.239140625,-4.785,0.06524271875,32.07
2021-06-23 15:30:24.031250000,60.0,-3.0,20.0,107.2421875,-1.84,0.06512262499999999,32.07
2021-06-23 15:30:24.039062500,60.0,-3.0,20.0,107.24523437500001,0.8949999999999998,0.06500253125,32.07
2021-06-23 15:30:24.046875000,60.0,-3.0,20.0,107.24828125,3.63,0.0648824375,32.07
2021-06-23 15:30:24.054687500,60.0,-3.0,20.0,107.251328125,5.83,0.06476234374999999,32.07
2021-06-23 15:30:24.062500000,60.0,-3.0,20.0,107.25437500000001,8.03,0.06464225,32.07
2021-06-23 15:30:24.070312500,60.0,-3.0,19.75,107.257421875,9.57,0.06452215624999999,32.07
2021-06-23 15:30:24.078125000,60.0,-3.0,19.5,107.26046875,11.11,0.0644020625,32.07
2021-06-23 15:30:24.085937500,60.0,-3.0,19.25,107.26351562500001,12.004999999999999,0.06428196875,32.07
2021-06-23 15:30:24.093750000,60.0,-3.0,19.0,107.2665625,12.9,0.064161875,32.07
2021-06-23 15:30:24.101562500,60.0,-3.0,19.25,107.269609375,13.235,0.06404178125,32.07
2021-06-23 15:30:24.109375000,60.0,-3.0,19.5,107.27265625,13.57,0.0639216875,32.07
2021-06-23 15:30:24.117187500,60.0,-3.0,19.75,107.275703125,13.46,0.06380159375,32.07
2021-06-23 15:30:24.125000000,60.0,-3.0,20.0,107.27875,13.35,0.0636815,32.07
2021-06-23 15:30:24.132812500,60.0,-3.0,19.75,107.281796875,12.899999999999999,0.06356140625,32.07
2021-06-23 15:30:24.140625000,60.0,-3.0,19.5,107.28484375000001,12.45,0.0634413125,32.07
2021-06-23 15:30:24.148437500,60.0,-3.0,19.25,107.287890625,11.78,0.06332121875,32.07
2021-06-23 15:30:24.156250000,60.0,-3.0,19.0,107.2909375,11.11,0.063201125,32.07
2021-06-23 15:30:24.164062500,60.0,-3.0,19.0,107.29398437500001,10.335,0.06308103125,32.07
2021-06-23 15:30:24.171875000,60.0,-3.0,19.0,107.29703125,9.56,0.0629609375,32.07
2021-06-23 15:30:24.179687500,60.0,-3.0,19.0,107.300078125,8.8,0.06284084375,32.07
2021-06-23 15:30:24.187500000,60.0,-3.0,19.0,107.30312500000001,8.04,0.06272075,32.07
2021-06-23 15:30:24.195312500,60.0,-3.0,19.0,107.306171875,7.369999999999999,0.06260065625,32.07
2021-06-23 15:30:24.203125000,60.0,-3.0,19.0,107.30921875,6.7,0.0624805625,32.07
2021-06-23 15:30:24.210937500,60.0,-3.0,19.0,107.31226562500001,6.135,0.06236046875,32.07
2021-06-23 15:30:24.218750000,60.0,-3.0,19.0,107.3153125,5.57,0.062240375,32.07
2021-06-23 15:30:24.226562500,60.0,-3.0,19.0,107.318359375,5.11,0.06212028125,32.07
2021-06-23 15:30:24.234375000,60.0,-3.0,19.0,107.32140625000001,4.65,0.062000187500000005,32.07
2021-06-23 15:30:24.242187500,60.0,-3.0,19.0,107.324453125,4.255,0.061880093750000004,32.07
2021-06-23 15:30:24.250000000,60.0,-3.0,19.0,107.3275,3.86,0.06176,32.07
2021-06-23 15:30:24.257812500,60.0,-3.0,19.0,107.33054687500001,3.52,0.0618400625,32.07
2021-06-23 15:30:24.265625000,60.0,-3.0,19.0,107.33359375,3.18,0.061920125,32.07
2021-06-23 15:30:24.273437500,60.0,-3.0,19.0,107.336640625,2.91,0.062000187500000005,32.07
2021-06-23 15:30:24.281250000,60.0,-3.0,19.0,107.33968750000001,2.64,0.062080250000000003,32.07
2021-06-23 15:30:24.289062500,60.0,-3.0,19.0,107.342734375,2.435,0.0621603125,32.07
2021-06-23 15:30:24.296875000,60.0,-3.0,19.0,107.34578125,2.23,0.062240375,32.07
2021-06-23 15:30:24.304687500,60.0,-3.0,19.0,107.348828125,2.07,0.062320437500000006,32.07
2021-06-23 15:30:24.312500000,60.0,-3.0,19.0,107.351875,1.91,0.062400500000000005,32.07
2021-06-23 15:30:24.320312500,60.0,-3.0,19.25,107.354921875,1.7,0.0624805625,32.07
2021-06-23 15:30:24.328125000,60.0,-3.0,19.5,107.35796875,1.49,0.06256062500000001,32.07
2021-06-23 15:30:24.335937500,60.0,-3.0,19.75,107.36101562500001,1.06,0.0626406875,32.07
2021-06-23 15:30:24.343750000,60.0,-3.0,20.0,107.3640625,0.63,0.06272075,32.07
2021-06-23 15:30:24.351562500,60.0,-3.0,19.75,107.367109375,-0.18499999999999994,0.0628008125,32.07
2021-06-23 15:30:24.359375000,60.0,-3.0,19.5,107.37015625000001,-1.0,0.062880875,32.07
2021-06-23 15:30:24.367187500,60.0,-3.0,19.25,107.373203125,-2.315,0.06296093750000001,32.07
2021-06-23 15:30:24.375000000,60.0,-3.0,19.0,107.37625,-3.63,0.063041,32.07
2021-06-23 15:30:24.382812500,60.0,-3.0,19.0,107.37929687500001,-5.4399999999999995,0.0631210625,32.07
2021-06-23 15:30:24.390625000,60.0,-3.0,19.0,107.38234375,-7.25,0.063201125,32.07
2021-06-23 15:30:24.398437500,60.0,-3.0,19.0,107.385390625,-9.36,0.0632811875,32.07
2021-06-23 15:30:24.406250000,60.0,-3.0,19.0,107.38843750000001,-11.47,0.06336125000000001,32.07
2021-06-23 15:30:24.414062500,60.0,-3.25,19.25,107.391484375,-13.530000000000001,0.0634413125,32.07
2021-06-23 15:30:24.421875000,60.0,-3.5,19.5,107.39453125,-15.59,0.063521375,32.07
2021-06-23 15:30:24.429687500,60.0,-3.75,19.75,107.39757812500001,-17.165,0.06360143750000001,32.07
2021-06-23 15:30:24.437500000,60.0,-4.0,20.0,107.400625,-18.74,0.0636815,32.07
2021-06-23 15:30:24.445312500,60.0,-4.0,20.0,107.403671875,-19.45,0.06376156250000001,32.07
2021-06-23 15:30:24.453125000,60.0,-4.0,20.0,107.40671875000001,-20.16,0.063841625,32.07
2021-06-23 15:30:24.460937500,60.0,-4.0,20.0,107.409765625,-19.795,0.0639216875,32.07
2021-06-23 15:30:24.468750000,60.0,-4.0,20.0,107.4128125,-19.43,0.06400175000000001,32.07
2021-06-23 15:30:24.476562500,60.0,-3.75,20.0,107.41585937500001,-18.0,0.0640818125,32.07
2021-06-23 15:30:24.484375000,60.0,-3.5,20.0,107.41890625,-16.57,0.06416187500000001,32.07
2021-06-23 15:30:24.492187500,60.0,-3.25,20.0,107.421953125,-14.29,0.0642419375,32.07
2021-06-23 15:30:24.500000000,60.0,-3.0,20.0,107.42500000000001,-12.01,0.064322,32.07
2021-06-23 15:30:24.507812500,60.0,-3.0,19.75,107.428046875,-9.24,0.06420190625000001,32.07
2021-06-23 15:30:24.515625000,60.0,-3.0,19.5,107.43109375,-6.47,0.0640818125,32.07
2021-06-23 15:30:24.523437500,60.0,-3.0,19.25,107.434140625,-3.5949999999999998,0.06396171875000001,32.07
2021-06-23 15:30:24.531250000,60.0,-3.0,19.0,107.43718750000001,-0.72,0.063841625,32.07
2021-06-23 15:30:24.539062500,60.0,-3.25,19.0,107.440234375,1.925,0.06372153125,32.07
2021-06-23 15:30:24.546875000,60.0,-3.5,19.0,107.44328125,4.57,0.0636014375,32.07
2021-06-23 15:30:24.554687500,60.0,-3.75,19.0,107.44632812500001,6.7250000000000005,0.06348134375,32.07
2021-06-23 15:30:24.562500000,60.0,-4.0,19.0,107.449375,8.88,0.06336125000000001,32.07
2021-06-23 15:30:24.570312500,60.0,-3.75,19.25,107.452421875,10.405000000000001,0.06324115625,32.07
2021-06-23 15:30:24.578125000,60.0,-3.5,19.5,107.45546875000001,11.93,0.0631210625,32.07
2021-06-23 15:30:24.585937500,60.0,-3.25,19.75,107.458515625,12.805,0.06300096875,32.07
2021-06-23 15:30:24.593750000,60.0,-3.0,20.0,107.4615625,13.68,0.062880875,32.07
2021-06-23 15:30:24.601562500,60.0,-3.0,20.0,107.46460937500001,13.98,0.06276078125000001,32.07
2021-06-23 15:30:24.609375000,60.0,-3.0,20.0,107.46765625,14.28,0.0626406875,32.07
2021-06-23 15:30:24.617187500,60.0,-3.0,20.0,107.470703125,14.14,0.06252059375,32.07
2021-06-23 15:30:24.625000000,60.0,-3.0,20.0,107.47375000000001,14.0,0.0624005,32.07
2021-06-23 15:30:24.632812500,60.0,-3.0,19.75,107.476796875,13.594999999999999,0.06228040625,32.07
2021-06-23 15:30:24.640625000,60.0,-3.0,19.5,107.47984375,13.19,0.0621603125,32.07
2021-06-23 15:30:24.648437500,60.0,-3.0,19.25,107.48289062500001,12.645,0.06204021875,32.07
2021-06-23 15:30:24.656250000,60.0,-3.0,19.0,107.4859375,12.1,0.061920125,32.07
2021-06-23 15:30:24.664062500,60.0,-3.0,19.0,107.488984375,11.51,0.06180003125,32.07
2021-06-23 15:30:24.671875000,60.0,-3.0,19.0,107.49203125000001,10.92,0.0616799375,32.07
2021-06-23 15:30:24.679687500,60.0,-3.0,19.0,107.495078125,10.325,0.06155984375,32.07
2021-06-23 15:30:24.687500000,60.0,-3.0,19.0,107.498125,9.73,0.06143975,32.07
2021-06-23 15:30:24.695312500,60.0,-3.0,19.0,107.50117187500001,9.14,0.06131965625,32.07
2021-06-23 15:30:24.703125000,60.0,-3.0,19.0,107.50421875,8.55,0.0611995625,32.07
2021-06-23 15:30:24.710937500,60.0,-3.0,19.0,107.507265625,7.955,0.06107946875,32.07
2021-06-23 15:30:24.718750000,60.0,-3.0,19.0,107.5103125,7.36,0.060959374999999996,32.07
2021-06-23 15:30:24.726562500,60.0,-3.0,19.0,107.51335937500001,6.785,0.06083928125,32.07
2021-06-23 15:30:24.734375000,60.0,-3.0,19.0,107.51640625,6.21,0.0607191875,32.07
2021-06-23 15:30:24.742187500,60.0,-3.0,19.0,107.519453125,5.675,0.06059909375,32.07
2021-06-23 15:30:24.750000000,60.0,-3.0,19.0,107.52250000000001,5.14,0.060479,32.07
2021-06-23 15:30:24.757812500,60.0,-3.0,19.0,107.525546875,4.6899999999999995,0.06059909375,32.07
2021-06-23 15:30:24.765625000,60.0,-3.0,19.0,107.52859375,4.24,0.0607191875,32.07
2021-06-23 15:30:24.773437500,60.0,-3.0,19.0,107.53164062500001,3.875,0.06083928125,32.07
2021-06-23 15:30:24.781250000,60.0,-3.0,19.0,107.5346875,3.51,0.060959374999999996,32.07
2021-06-23 15:30:24.789062500,60.0,-3.0,19.0,107.537734375,3.215,0.06107946875,32.07
2021-06-23 15:30:24.796875000,60.0,-3.0,19.0,107.54078125000001,2.92,0.0611995625,32.07
2021-06-23 15:30:24.804687500,60.0,-3.0,19.0,107.543828125,2.605,0.06131965625,32.07
2021-06-23 15:30:24.812500000,60.0,-3.0,19.0,107.546875,2.29,0.06143975,32.07
2021-06-23 15:30:24.820312500,60.0,-3.0,19.0,107.54992187500001,1.8,0.06155984375,32.07
2021-06-23 15:30:24.828125000,60.0,-3.0,19.0,107.55296875,1.31,0.0616799375,32.07
2021-06-23 15:30:24.835937500,60.0,-3.0,19.0,107.556015625,0.47,0.06180003125,32.07
2021-06-23 15:30:24.843750000,60.0,-3.0,19.0,107.55906250000001,-0.37,0.061920125,32.07
2021-06-23 15:30:24.851562500,60.0,-3.0,19.0,107.562109375,-1.6800000000000002,0.06204021875,32.07
2021-06-23 15:30:24.859375000,60.0,-3.0,19.0,107.56515625,-2.99,0.0621603125,32.07
2021-06-23 15:30:24.867187500,60.0,-3.0,19.0,107.56820312500001,-4.795,0.06228040625,32.07
2021-06-23 15:30:24.875000000,60.0,-3.0,19.0,107.57125,-6.6,0.0624005,32.07
2021-06-23 15:30:24.882812500,60.0,-3.25,19.0,107.574296875,-8.73,0.06252059375,32.07
2021-06-23 15:30:24.890625000,60.0,-3.5,19.0,107.57734375000001,-10.86,0.0626406875,32.07
2021-06-23 15:30:24.898437500,60.0,-3.75,19.0,107.580390625,-12.95,0.06276078125000001,32.07
2021-06-23 15:30:24.906250000,60.0,-4.0,19.0,107.5834375,-15.04,0.062880875,32.07
2021-06-23 15:30:24.914062500,60.0,-4.0,19.0,107.586484375,-16.625,0.06300096875,32.07
2021-06-23 15:30:24.921875000,60.0,-4.0,19.0,107.58953125000001,-18.21,0.0631210625,32.07
2021-06-23 15:30:24.929687500,60.0,-4.0,19.0,107.592578125,-18.865000000000002,0.06324115625,32.07
2021-06-23 15:30:24.937500000,60.0,-4.0,19.0,107.595625,-19.52,0.06336125000000001,32.07
2021-06-23 15:30:24.945312500,60.0,-3.75,19.0,107.59867187500001,-18.965,0.06348134375,32.07
2021-06-23 15:30:24.953125000,60.0,-3.5,19.0,107.60171875,-18.41,0.0636014375,32.07
2021-06-23 15:30:24.960937500,60.0,-3.25,19.0,107.604765625,-16.645,0.06372153125,32.07
2021-06-23 15:30:24.968750000,60.0,-3.0,19.0,107.60781250000001,-14.88,0.063841625,32.07
2021-06-23 15:30:24.976562500,60.0,-3.25,19.0,107.610859375,-12.175,0.06396171875000001,32.07
2021-06-23 15:30:24.984375000,60.0,-3.5,19.0,107.61390625,-9.47,0.0640818125,32.07
2021-06-23 15:30:24.992187500,60.0,-3.75,19.0,107.61695312500001,-6.2700000000000005,0.06420190625000001,32.07
2021-06-23 15:30:25.000000000,60.0,-4.0,19.0,107.62,-3.07,0.064322,32.07
2021-06-23 15:30:25.007812500,60.0,-3.75,19.0,107.62359375,0.10499999999999998,0.06436203125,32.07
2021-06-23 15:30:25.015625000,60.0,-3.5,19.0,107.6271875,3.28,0.06440206250000001,32.07
2021-06-23 15:30:25.023437500,60.0,-3.25,19.0,107.63078125,6.015000000000001,0.06444209375,32.07
2021-06-23 15:30:25.031250000,60.0,-3.0,19.0,107.634375,8.75,0.064482125,32.07
2021-06-23 15:30:25.039062500,60.0,-3.0,19.0,107.63796875,10.780000000000001,0.06452215625,32.07
2021-06-23 15:30:25.046875000,60.0,-3.0,19.0,107.6415625,12.81,0.0645621875,32.07
2021-06-23 15:30:25.054687500,60.0,-3.0,19.0,107.64515625,14.08,0.06460221875,32.07
2021-06-23 15:30:25.062500000,60.0,-3.0,19.0,107.64875,15.35,0.06464225,32.07
2021-06-23 15:30:25.070312500,60.0,-3.0,19.0,107.65234375,15.934999999999999,0.06468228125,32.07
2021-06-23 15:30:25.078125000,60.0,-3.0,19.0,107.65593750000001,16.52,0.0647223125,32.07
2021-06-23 15:30:25.085937500,60.0,-3.0,19.0,107.65953125,16.585,0.06476234375,32.07
2021-06-23 15:30:25.093750000,60.0,-3.0,19.0,107.66312500000001,16.65,0.064802375,32.07
2021-06-23 15:30:25.101562500,60.0,-3.0,19.0,107.66671875,16.365,0.06484240625,32.07
2021-06-23 15:30:25.109375000,60.0,-3.0,19.0,107.67031250000001,16.08,0.0648824375,32.07
2021-06-23 15:30:25.117187500,60.0,-3.0,19.0,107.67390625,15.584999999999999,0.06492246875,32.07
2021-06-23 15:30:25.125000000,60.0,-3.0,19.0,107.67750000000001,15.09,0.0649625,32.07
2021-06-23 15:30:25.132812500,60.0,-3.25,19.0,107.68109375,14.51,0.06500253125,32.07
2021-06-23 15:30:25.140625000,60.0,-3.5,19.0,107.68468750000001,13.93,0.0650425625,32.07
2021-06-23 15:30:25.148437500,60.0,-3.75,19.0,107.68828125,13.335,0.06508259375,32.07
2021-06-23 15:30:25.156250000,60.0,-4.0,19.0,107.69187500000001,12.74,0.065122625,32.07
2021-06-23 15:30:25.164062500,60.0,-3.75,19.0,107.69546875,12.165,0.06516265624999999,32.07
2021-06-23 15:30:25.171875000,60.0,-3.5,19.0,107.6990625,11.59,0.0652026875,32.07
2021-06-23 15:30:25.179687500,60.0,-3.25,19.0,107.70265625,11.030000000000001,0.06524271875,32.07
2021-06-23 15:30:25.187500000,60.0,-3.0,19.0,107.70625,10.47,0.06528275,32.07
2021-06-23 15:30:25.195312500,60.0,-3.0,19.0,107.70984375,9.879999999999999,0.06532278125,32.07
2021-06-23 15:30:25.203125000,60.0,-3.0,19.0,107.7134375,9.29,0.06536281249999999,32.07
2021-06-23 15:30:25.210937500,60.0,-3.0,19.0,107.71703125,8.615,0.06540284375,32.07
2021-06-23 15:30:25.218750000,60.0,-3.0,19.0,107.720625,7.94,0.065442875,32.07
2021-06-23 15:30:25.226562500,60.0,-3.0,19.0,107.72421875,7.130000000000001,0.06548290625,32.07
2021-06-23 15:30:25.234375000,60.0,-3.0,19.0,107.7278125,6.32,0.06552293749999999,32.07
2021-06-23 15:30:25.242187500,60.0,-3.0,19.0,107.73140625,5.390000000000001,0.06556296874999999,32.07
2021-06-23 15:30:25.250000000,60.0,-3.0,19.0,107.735,4.46,0.065603,32.07
2021-06-23 15:30:25.257812500,60.0,-3.0,19.0,107.73859375,3.45,0.06540281249999999,32.07
2021-06-23 15:30:25.265625000,60.0,-3.0,19.0,107.7421875,2.44,0.065202625,32.07
2021-06-23 15:30:25.273437500,60.0,-3.0,19.0,107.74578125000001,1.4449999999999998,0.0650024375,32.07
2021-06-23 15:30:25.281250000,60.0,-3.0,19.0,107.749375,0.45,0.06480224999999999,32.07
2021-06-23 15:30:25.289062500,60.0,-3.0,19.25,107.75296875000001,-0.48999999999999994,0.0646020625,32.07
2021-06-23 15:30:25.296875000,60.0,-3.0,19.5,107.7565625,-1.43,0.064401875,32.07
2021-06-23 15:30:25.304687500,60.0,-3.0,19.75,107.76015625000001,-2.35,0.0642016875,32.07
2021-06-23 15:30:25.312500000,60.0,-3.0,20.0,107.76375,-3.27,0.06400149999999999,32.07
2021-06-23 15:30:25.320312500,60.0,-3.0,19.75,107.76734375000001,-4.285,0.0638013125,32.07
2021-06-23 15:30:25.328125000,60.0,-3.0,19.5,107.7709375,-5.3,0.063601125,32.07
2021-06-23 15:30:25.335937500,60.0,-3.0,19.25,107.77453125,-6.57,0.06340093749999999,32.07
2021-06-23 15:30:25.343750000,60.0,-3.0,19.0,107.778125,-7.84,0.06320075,32.07
2021-06-23 15:30:25.351562500,60.0,-3.0,19.0,107.78171875,-9.469999999999999,0.0630005625,32.07
2021-06-23 15:30:25.359375000,60.0,-3.0,19.0,107.7853125,-11.1,0.06280037499999999,32.07
2021-06-23 15:30:25.367187500,60.0,-3.0,19.0,107.78890625,-13.01,0.0626001875,32.07
2021-06-23 15:30:25.375000000,60.0,-3.0,19.0,107.7925,-14.92,0.0624,32.07
2021-06-23 15:30:25.382812500,60.0,-3.0,19.25,107.79609375,-16.815,0.0621998125,32.07
2021-06-23 15:30:25.390625000,60.0,-3.0,19.5,107.7996875,-18.71,0.061999624999999996,32.07
2021-06-23 15:30:25.398437500,60.0,-3.0,19.75,107.80328125,-20.155,0.0617994375,32.07
2021-06-23 15:30:25.406250000,60.0,-3.0,20.0,107.806875,-21.6,0.061599249999999994,32.07
2021-06-23 15:30:25.414062500,60.0,-3.0,20.0,107.81046875,-22.15,0.0613990625,32.07
2021-06-23 15:30:25.421875000,60.0,-3.0,20.0,107.8140625,-22.7,0.061198875,32.07
2021-06-23 15:30:25.429687500,60.0,-3.0,20.0,107.81765625,-22.085,0.060998687499999996,32.07
2021-06-23 15:30:25.437500000,60.0,-3.0,20.0,107.82125,-21.47,0.0607985,32.07
2021-06-23 15:30:25.445312500,60.0,-3.0,19.75,107.82484375,-19.71,0.0605983125,32.07
2021-06-23 15:30:25.453125000,60.0,-3.0,19.5,107.8284375,-17.95,0.060398125,32.07
2021-06-23 15:30:25.460937500,60.0,-3.0,19.25,107.83203125,-15.325,0.0601979375,32.07
2021-06-23 15:30:25.468750000,60.0,-3.0,19.0,107.83562500000001,-12.7,0.05999775,32.07
2021-06-23 15:30:25.476562500,60.0,-3.0,19.25,107.83921875,-9.655,0.0597975625,32.07
2021-06-23 15:30:25.484375000,60.0,-3.0,19.5,107.84281250000001,-6.61,0.059597375,32.07
2021-06-23 15:30:25.492187500,60.0,-3.0,19.75,107.84640625,-3.575,0.0593971875,32.07
2021-06-23 15:30:25.500000000,60.0,-3.0,20.0,107.85,-0.54,0.059197,32.07
2021-06-23 15:30:25.507812500,60.0,-3.0,20.0,107.85359375,2.2,0.0593971875,32.07
2021-06-23 15:30:25.515625000,60.0,-3.0,20.0,107.8571875,4.94,0.059597375,32.07
2021-06-23 15:30:25.523437500,60.0,-3.0,20.0,107.86078125,7.265000000000001,0.0597975625,32.07
2021-06-23 15:30:25.531250000,60.0,-3.0,20.0,107.864375,9.59,0.05999775,32.07
2021-06-23 15:30:25.539062500,60.0,-3.0,20.0,107.86796875,11.504999999999999,0.0601979375,32.07
2021-06-23 15:30:25.546875000,60.0,-3.0,20.0,107.8715625,13.42,0.060398125,32.07
2021-06-23 15:30:25.554687500,60.0,-3.0,20.0,107.87515625,14.96,0.0605983125,32.07
2021-06-23 15:30:25.562500000,60.0,-3.0,20.0,107.87875,16.5,0.0607985,32.07
2021-06-23 15:30:25.570312500,60.0,-3.0,20.0,107.88234375,17.66,0.060998687499999996,32.07
2021-06-23 15:30:25.578125000,60.0,-3.0,20.0,107.8859375,18.82,0.061198875,32.07
2021-06-23 15:30:25.585937500,60.0,-3.0,20.0,107.88953125,19.560000000000002,0.0613990625,32.07
2021-06-23 15:30:25.593750000,60.0,-3.0,20.0,107.893125,20.3,0.061599249999999994,32.07
2021-06-23 15:30:25.601562500,60.0,-3.0,19.75,107.89671875,20.555,0.0617994375,32.07
2021-06-23 15:30:25.609375000,60.0,-3.0,19.5,107.9003125,20.81,0.061999624999999996,32.07
2021-06-23 15:30:25.617187500,60.0,-3.0,19.25,107.90390625,20.564999999999998,0.0621998125,32.07
2021-06-23 15:30:25.625000000,60.0,-3.0,19.0,107.9075,20.32,0.0624,32.07
2021-06-23 15:30:25.632812500,60.0,-3.0,19.0,107.91109375,19.62,0.0626001875,32.07
2021-06-23 15:30:25.640625000,60.0,-3.0,19.0,107.9146875,18.92,0.06280037499999999,32.07
2021-06-23 15:30:25.648437500,60.0,-3.0,19.0,107.91828125,17.875,0.0630005625,32.07
2021-06-23 15:30:25.656250000,60.0,-3.0,19.0,107.921875,16.83,0.06320075,32.07
2021-06-23 15:30:25.664062500,60.0,-3.25,19.25,107.92546875000001,15.594999999999999,0.06340093749999999,32.07
2021-06-23 15:30:25.671875000,60.0,-3.5,19.5,107.9290625,14.36,0.063601125,32.07
2021-06-23 15:30:25.679687500,60.0,-3.75,19.75,107.93265625,13.07,0.0638013125,32.07
2021-06-23 15:30:25.687500000,60.0,-4.0,20.0,107.93625,11.78,0.06400149999999999,32.07
2021-06-23 15:30:25.695312500,60.0,-3.75,20.0,107.93984375,10.555,0.0642016875,32.07
2021-06-23 15:30:25.703125000,60.0,-3.5,20.0,107.9434375,9.33,0.064401875,32.07
2021-06-23 15:30:25.710937500,60.0,-3.25,20.0,107.94703125,8.225,0.0646020625,32.07
2021-06-23 15:30:25.718750000,60.0,-3.0,20.0,107.950625,7.12,0.06480224999999999,32.07
2021-06-23 15:30:25.726562500,60.0,-3.0,20.0,107.95421875,6.16,0.0650024375,32.07
2021-06-23 15:30:25.734375000,60.0,-3.0,20.0,107.9578125,5.2,0.065202625,32.07
2021-06-23 15:30:25.742187500,60.0,-3.0,20.0,107.96140625,4.405,0.06540281249999999,32.07
2021-06-23 15:30:25.750000000,60.0,-3.0,20.0,107.965,3.61,0.065603,32.07
2021-06-23 15:30:25.757812500,60.0,-3.25,20.0,107.96859375,2.965,0.06548290625,32.07
2021-06-23 15:30:25.765625000,60.0,-3.5,20.0,107.9721875,2.32,0.06536281249999999,32.07
2021-06-23 15:30:25.773437500,60.0,-3.75,20.0,107.97578125,1.79,0.06524271875,32.07
2021-06-23 15:30:25.781250000,60.0,-4.0,20.0,107.979375,1.26,0.06512262499999999,32.07
2021-06-23 15:30:25.789062500,60.0,-3.75,20.0,107.98296875,0.745,0.06500253125,32.07
2021-06-23 15:30:25.796875000,60.0,-3.5,20.0,107.9865625,0.23,0.0648824375,32.07
2021-06-23 15:30:25.804687500,60.0,-3.25,20.0,107.99015625,-0.43500000000000005,0.06476234374999999,32.07
2021-06-23 15:30:25.812500000,60.0,-3.0,20.0,107.99375,-1.1,0.06464225,32.07
2021-06-23 15:30:25.820312500,60.0,-3.0,20.0,107.99734375,-2.115,0.06452215624999999,32.07
2021-06-23 15:30:25.828125000,60.0,-3.0,20.0,108.0009375,-3.13,0.0644020625,32.07
2021-06-23 15:30:25.835937500,60.0,-3.0,20.0,108.00453125,-4.62,0.06428196875,32.07
2021-06-23 15:30:25.843750000,60.0,-3.0,20.0,108.00812499999999,-6.11,0.064161875,32.07
2021-06-23 15:30:25.851562500,60.0,-3.0,20.0,108.01171875,-8.015,0.06404178125,32.07
2021-06-23 15:30:25.859375000,60.0,-3.0,20.0,108.0153125,-9.92,0.0639216875,32.07
2021-06-23 15:30:25.867187500,60.0,-3.0,20.0,108.01890625,-11.96,0.06380159375,32.07
2021-06-23 15:30:25.875000000,60.0,-3.0,20.0,108.0225,-14.0,0.0636815,32.07
2021-06-23 15:30:25.882812500,60.0,-3.25,19.75,108.02609375,-15.71,0.06356140625,32.07
2021-06-23 15:30:25.890625000,60.0,-3.5,19.5,108.0296875,-17.42,0.0634413125,32.07
2021-06-23 15:30:25.898437500,60.0,-3.75,19.25,108.03328125,-18.3,0.06332121875,32.07
2021-06-23 15:30:25.906250000,60.0,-4.0,19.0,108.036875,-19.18,0.063201125,32.07
2021-06-23 15:30:25.914062500,60.0,-3.75,19.25,108.04046875,-18.91,0.06308103125,32.07
2021-06-23 15:30:25.921875000,60.0,-3.5,19.5,108.0440625,-18.64,0.0629609375,32.07
2021-06-23 15:30:25.929687500,60.0,-3.25,19.75,108.04765625,-17.2,0.06284084375,32.07
2021-06-23 15:30:25.937500000,60.0,-3.0,20.0,108.05125,-15.76,0.06272075,32.07
2021-06-23 15:30:25.945312500,60.0,-3.0,20.0,108.05484375,-13.45,0.06260065625,32.07
2021-06-23 15:30:25.953125000,60.0,-3.0,20.0,108.0584375,-11.14,0.0624805625,32.07
2021-06-23 15:30:25.960937500,60.0,-3.0,20.0,108.06203125,-8.46,0.06236046875,32.07
2021-06-23 15:30:25.968750000,60.0,-3.0,20.0,108.065625,-5.78,0.062240375,32.07
2021-06-23 15:30:25.976562500,60.0,-3.0,20.0,108.06921875,-3.24,0.06212028125,32.07
2021-06-23 15:30:25.984375000,60.0,-3.0,20.0,108.0728125,-0.7,0.062000187500000005,32.07
2021-06-23 15:30:25.992187500,60.0,-3.0,20.0,108.07640625,1.3550000000000002,0.061880093750000004,32.07
2021-06-23 15:30:26.000000000,60.0,-3.0,20.0,108.08,3.41,0.06176,32.07
2021-06-23 15:30:26.007812500,60.0,-3.0,20.0,108.083671875,4.83,0.061800031250000005,32.069375
2021-06-23 15:30:26.015625000,60.0,-3.0,20.0,108.08734375,6.25,0.0618400625,32.06875
2021-06-23 15:30:26.023437500,60.0,-3.0,20.0,108.091015625,7.0600000000000005,0.061880093750000004,32.068125
2021-06-23 15:30:26.031250000,60.0,-3.0,20.0,108.09468749999999,7.87,0.061920125,32.0675
2021-06-23 15:30:26.039062500,60.0,-3.25,20.0,108.098359375,8.17,0.06196015625,32.066875
2021-06-23 15:30:26.046875000,60.0,-3.5,20.0,108.10203125,8.47,0.062000187500000005,32.06625
2021-06-23 15:30:26.054687500,60.0,-3.75,20.0,108.105703125,8.379999999999999,0.06204021875,32.065625
2021-06-23 15:30:26.062500000,60.0,-4.0,20.0,108.109375,8.29,0.062080250000000003,32.065
2021-06-23 15:30:26.070312500,60.0,-3.75,20.0,108.113046875,7.895,0.06212028125,32.064375
2021-06-23 15:30:26.078125000,60.0,-3.5,20.0,108.11671875,7.5,0.0621603125,32.06375
2021-06-23 15:30:26.085937500,60.0,-3.25,20.0,108.120390625,6.890000000000001,0.062200343750000005,32.063125
2021-06-23 15:30:26.093750000,60.0,-3.0,20.0,108.1240625,6.28,0.062240375,32.0625
2021-06-23 15:30:26.101562500,60.0,-3.0,20.0,108.127734375,5.575,0.06228040625,32.061875
2021-06-23 15:30:26.109375000,60.0,-3.0,20.0,108.13140625,4.87,0.0623204375,32.06125
2021-06-23 15:30:26.117187500,60.0,-3.0,20.0,108.13507812499999,4.195,0.06236046875,32.060625
2021-06-23 15:30:26.125000000,60.0,-3.0,20.0,108.13875,3.52,0.0624005,32.06
2021-06-23 15:30:26.132812500,60.0,-3.0,20.0,108.142421875,3.0,0.06244053125,32.059374999999996
2021-06-23 15:30:26.140625000,60.0,-3.0,20.0,108.14609374999999,2.48,0.0624805625,32.058749999999996
2021-06-23 15:30:26.148437500,60.0,-3.0,20.0,108.149765625,2.185,0.06252059375,32.058125
2021-06-23 15:30:26.156250000,60.0,-3.0,20.0,108.1534375,1.89,0.062560625,32.0575
2021-06-23 15:30:26.164062500,60.0,-3.0,20.0,108.157109375,1.805,0.06260065625,32.056875
2021-06-23 15:30:26.171875000,60.0,-3.0,20.0,108.16078125,1.72,0.0626406875,32.05625
2021-06-23 15:30:26.179687500,60.0,-3.0,20.0,108.164453125,1.78,0.06268071875,32.055625
2021-06-23 15:30:26.187500000,60.0,-3.0,20.0,108.168125,1.84,0.06272075,32.055
2021-06-23 15:30:26.195312500,60.0,-3.0,20.0,108.171796875,1.92,0.06276078125,32.054375
2021-06-23 15:30:26.203125000,60.0,-3.0,20.0,108.17546875,2.0,0.0628008125,32.05375
2021-06-23 15:30:26.210937500,60.0,-3.0,20.0,108.179140625,1.97,0.06284084375,32.053124999999994
2021-06-23 15:30:26.218750000,60.0,-3.0,20.0,108.1828125,1.94,0.062880875,32.052499999999995
2021-06-23 15:30:26.226562500,60.0,-3.0,20.0,108.18648437499999,1.72,0.06292090625,32.051874999999995
2021-06-23 15:30:26.234375000,60.0,-3.0,20.0,108.19015625,1.5,0.0629609375,32.051249999999996
2021-06-23 15:30:26.242187500,60.0,-3.0,20.0,108.193828125,1.045,0.06300096875,32.050625
2021-06-23 15:30:26.250000000,60.0,-3.0,20.0,108.19749999999999,0.59,0.063041,32.05
2021-06-23 15:30:26.257812500,60.0,-3.0,20.0,108.201171875,-0.13,0.062920875,32.05
2021-06-23 15:30:26.265625000,60.0,-3.0,20.0,108.20484375,-0.85,0.06280075,32.05
2021-06-23 15:30:26.273437500,60.0,-3.0,20.0,108.208515625,-1.83,0.062680625,32.05
2021-06-23 15:30:26.281250000,60.0,-3.0,20.0,108.2121875,-2.81,0.0625605,32.05
2021-06-23 15:30:26.289062500,60.0,-3.0,20.0,108.215859375,-4.05,0.062440375,32.05
2021-06-23 15:30:26.296875000,60.0,-3.0,20.0,108.21953125,-5.29,0.06232025,32.05
2021-06-23 15:30:26.304687500,60.0,-3.0,20.0,108.223203125,-6.789999999999999,0.062200125,32.05
2021-06-23 15:30:26.312500000,60.0,-3.0,20.0,108.22687499999999,-8.29,0.062079999999999996,32.05
2021-06-23 15:30:26.320312500,60.0,-3.0,20.0,108.230546875,-9.989999999999998,0.061959875,32.05
2021-06-23 15:30:26.328125000,60.0,-3.0,20.0,108.23421875,-11.69,0.06183975,32.05
2021-06-23 15:30:26.335937500,60.0,-3.0,20.0,108.23789062499999,-13.475,0.061719625,32.05
2021-06-23 15:30:26.343750000,60.0,-3.0,20.0,108.2415625,-15.26,0.0615995,32.05
2021-06-23 15:30:26.351562500,60.0,-3.0,20.0,108.245234375,-16.89,0.061479375,32.05
2021-06-23 15:30:26.359375000,60.0,-3.0,20.0,108.24890625,-18.52,0.06135925,32.05
2021-06-23 15:30:26.367187500,60.0,-3.0,20.0,108.252578125,-19.68,0.061239125,32.05
2021-06-23 15:30:26.375000000,60.0,-3.0,20.0,108.25625,-20.84,0.061119,32.05
2021-06-23 15:30:26.382812500,60.0,-3.0,20.0,108.259921875,-21.195,0.060998875,32.05
2021-06-23 15:30:26.390625000,60.0,-3.0,20.0,108.26359375,-21.55,0.06087875,32.05
2021-06-23 15:30:26.398437500,60.0,-3.0,20.0,108.267265625,-20.87,0.060758625,32.05
2021-06-23 15:30:26.406250000,60.0,-3.0,20.0,108.2709375,-20.19,0.0606385,32.05
2021-06-23 15:30:26.414062500,60.0,-3.0,20.0,108.274609375,-18.41,0.060518375,32.05
2021-06-23 15:30:26.421875000,60.0,-3.0,20.0,108.27828124999999,-16.63,0.06039825,32.05
2021-06-23 15:30:26.429687500,60.0,-3.0,20.0,108.281953125,-13.92,0.060278125,32.05
2021-06-23 15:30:26.437500000,60.0,-3.0,20.0,108.285625,-11.21,0.060158,32.05
2021-06-23 15:30:26.445312500,60.0,-3.0,20.0,108.28929687499999,-7.91,0.060037875,32.05
2021-06-23 15:30:26.453125000,60.0,-3.0,20.0,108.29296875,-4.61,0.05991775,32.05
2021-06-23 15:30:26.460937500,60.0,-3.0,20.0,108.296640625,-1.1450000000000005,0.059797625,32.05
2021-06-23 15:30:26.468750000,60.0,-3.0,20.0,108.3003125,2.32,0.0596775,32.05
2021-06-23 15:30:26.476562500,60.0,-3.25,20.0,108.303984375,5.525,0.059557375,32.05
2021-06-23 15:30:26.484375000,60.0,-3.5,20.0,108.30765625,8.73,0.05943725,32.05
2021-06-23 15:30:26.492187500,60.0,-3.75,20.0,108.311328125,11.355,0.059317125,32.05
2021-06-23 15:30:26.500000000,60.0,-4.0,20.0,108.315,13.98,0.059197,32.05
2021-06-23 15:30:26.507812500,60.0,-3.75,20.0,108.31867187499999,15.865,0.0592370625,32.05
2021-06-23 15:30:26.515625000,60.0,-3.5,20.0,108.32234375,17.75,0.059277125,32.05
2021-06-23 15:30:26.523437500,60.0,-3.25,20.0,108.326015625,18.86,0.0593171875,32.05
2021-06-23 15:30:26.531250000,60.0,-3.0,20.0,108.32968749999999,19.97,0.05935725,32.05
2021-06-23 15:30:26.539062500,60.0,-3.0,20.0,108.333359375,20.39,0.0593973125,32.05
2021-06-23 15:30:26.546875000,60.0,-3.0,20.0,108.33703125,20.81,0.059437375,32.05
2021-06-23 15:30:26.554687500,60.0,-3.0,20.0,108.340703125,20.68,0.0594774375,32.05
2021-06-23 15:30:26.562500000,60.0,-3.0,20.0,108.344375,20.55,0.0595175,32.05
2021-06-23 15:30:26.570312500,60.0,-3.0,20.0,108.348046875,20.015,0.0595575625,32.05
2021-06-23 15:30:26.578125000,60.0,-3.0,20.0,108.35171875,19.48,0.059597625,32.05
2021-06-23 15:30:26.585937500,60.0,-3.0,20.0,108.355390625,18.68,0.0596376875,32.05
2021-06-23 15:30:26.593750000,60.0,-3.0,20.0,108.3590625,17.88,0.05967775,32.05
2021-06-23 15:30:26.601562500,60.0,-3.0,20.0,108.362734375,16.915,0.0597178125,32.05
2021-06-23 15:30:26.609375000,60.0,-3.0,20.0,108.36640625,15.95,0.059757875,32.05
2021-06-23 15:30:26.617187500,60.0,-3.0,20.0,108.37007812499999,14.905,0.0597979375,32.05
2021-06-23 15:30:26.625000000,60.0,-3.0,20.0,108.37375,13.86,0.059838,32.05
2021-06-23 15:30:26.632812500,60.0,-3.25,20.0,108.377421875,12.825,0.059878062499999996,32.05
2021-06-23 15:30:26.640625000,60.0,-3.5,20.0,108.38109374999999,11.79,0.059918124999999996,32.05
2021-06-23 15:30:26.648437500,60.0,-3.75,20.0,108.384765625,10.86,0.059958187499999996,32.05
2021-06-23 15:30:26.656250000,60.0,-4.0,20.0,108.3884375,9.93,0.059998249999999996,32.05
2021-06-23 15:30:26.664062500,60.0,-3.75,20.0,108.392109375,9.184999999999999,0.060038312499999996,32.05
2021-06-23 15:30:26.671875000,60.0,-3.5,20.0,108.39578125,8.44,0.060078374999999996,32.05
2021-06-23 15:30:26.679687500,60.0,-3.25,20.0,108.399453125,7.9399999999999995,0.0601184375,32.05
2021-06-23 15:30:26.687500000,60.0,-3.0,20.0,108.403125,7.44,0.0601585,32.05
2021-06-23 15:30:26.695312500,60.0,-3.0,20.0,108.406796875,7.175000000000001,0.0601985625,32.05
2021-06-23 15:30:26.703125000,60.0,-3.0,20.0,108.41046874999999,6.91,0.060238625,32.05
2021-06-23 15:30:26.710937500,60.0,-3.0,20.0,108.414140625,6.78,0.0602786875,32.05
2021-06-23 15:30:26.718750000,60.0,-3.0,20.0,108.4178125,6.65,0.06031875,32.05
2021-06-23 15:30:26.726562500,60.0,-3.0,20.0,108.42148437499999,6.505000000000001,0.0603588125,32.05
2021-06-23 15:30:26.734375000,60.0,-3.0,20.0,108.42515625,6.36,0.060398875,32.05
2021-06-23 15:30:26.742187500,60.0,-3.0,20.0,108.428828125,6.04,0.0604389375,32.05
2021-06-23 15:30:26.750000000,60.0,-3.0,20.0,108.4325,5.72,0.060479,32.05
2021-06-23 15:30:26.757812500,60.0,-3.25,20.0,108.436171875,5.09,0.060639124999999995,32.05
2021-06-23 15:30:26.765625000,60.0,-3.5,20.0,108.43984375,4.46,0.06079925,32.05
2021-06-23 15:30:26.773437500,60.0,-3.75,20.0,108.443515625,3.4450000000000003,0.060959374999999996,32.05
2021-06-23 15:30:26.781250000,60.0,-4.0,20.0,108.4471875,2.43,0.0611195,32.05
2021-06-23 15:30:26.789062500,60.0,-4.0,20.0,108.450859375,1.0450000000000002,0.061279625,32.05
2021-06-23 15:30:26.796875000,60.0,-4.0,20.0,108.45453125,-0.34,0.061439749999999994,32.05
2021-06-23 15:30:26.804687500,60.0,-4.0,20.0,108.458203125,-1.9900000000000002,0.061599875,32.05
2021-06-23 15:30:26.812500000,60.0,-4.0,20.0,108.46187499999999,-3.64,0.061759999999999995,32.05
2021-06-23 15:30:26.820312500,60.0,-3.75,20.0,108.465546875,-5.36,0.061920125,32.05
2021-06-23 15:30:26.828125000,60.0,-3.5,20.0,108.46921875,-7.08,0.06208025,32.05
2021-06-23 15:30:26.835937500,60.0,-3.25,20.0,108.47289062499999,-8.559999999999999,0.062240374999999994,32.05
2021-06-23 15:30:26.843750000,60.0,-3.0,20.0,108.4765625,-10.04,0.0624005,32.05
2021-06-23 15:30:26.851562500,60.0,-3.0,20.0,108.480234375,-10.95,0.062560625,32.05
2021-06-23 15:30:26.859375000,60.0,-3.0,20.0,108.48390625,-11.86,0.06272074999999999,32.05
2021-06-23 15:30:26.867187500,60.0,-3.0,20.0,108.487578125,-11.885,0.062880875,32.05
2021-06-23 15:30:26.875000000,60.0,-3.0,20.0,108.49125,-11.91,0.063041,32.05
2021-06-23 15:30:26.882812500,60.0,-3.0,20.0,108.494921875,-10.89,0.063201125,32.05
2021-06-23 15:30:26.890625000,60.0,-3.0,20.0,108.49859375,-9.87,0.06336125,32.05
2021-06-23 15:30:26.898437500,60.0,-3.0,20.0,108.50226562499999,-7.885,0.06352137499999999,32.05
2021-06-23 15:30:26.906250000,60.0,-3.0,20.0,108.5059375,-5.9,0.0636815,32.05
2021-06-23 15:30:26.914062500,60.0,-3.0,20.0,108.509609375,-3.24,0.063841625,32.05
2021-06-23 15:30:26.921875000,60.0,-3.0,20.0,108.51328124999999,-0.58,0.06400175,32.05
2021-06-23 15:30:26.929687500,60.0,-3.0,20.0,108.516953125,2.31,0.064161875,32.05
2021-06-23 15:30:26.937500000,60.0,-3.0,20.0,108.520625,5.2,0.06432199999999999,32.05
2021-06-23 15:30:26.945312500,60.0,-3.0,20.0,108.52429687499999,7.880000000000001,0.064482125,32.05
2021-06-23 15:30:26.953125000,60.0,-3.0,20.0,108.52796875,10.56,0.06464225,32.05
2021-06-23 15:30:26.960937500,60.0,-3.0,20.0,108.531640625,12.75,0.064802375,32.05
2021-06-23 15:30:26.968750000,60.0,-3.0,20.0,108.5353125,14.94,0.06496249999999999,32.05
2021-06-23 15:30:26.976562500,60.0,-3.0,20.0,108.538984375,16.54,0.06512262499999999,32.05
2021-06-23 15:30:26.984375000,60.0,-3.0,20.0,108.54265625,18.14,0.06528275,32.05
2021-06-23 15:30:26.992187500,60.0,-3.0,20.0,108.546328125,19.225,0.065442875,32.05
2021-06-23 15:30:27.000000000,60.0,-3.0,20.0,108.55,20.31,0.065603,32.05
2021-06-23 15:30:27.007812500,60.0,-3.0,20.0,108.55367187499999,21.009999999999998,0.065442875,32.050625
2021-06-23 15:30:27.015625000,60.0,-3.0,20.0,108.55734375,21.71,0.06528275,32.051249999999996
2021-06-23 15:30:27.023437500,60.0,-3.0,20.0,108.561015625,22.12,0.06512262499999999,32.051874999999995
2021-06-23 15:30:27.031250000,60.0,-3.0,20.0,108.56468749999999,22.53,0.06496249999999999,32.052499999999995
2021-06-23 15:30:27.039062500,60.0,-3.0,19.75,108.568359375,22.66,0.064802375,32.053124999999994
2021-06-23 15:30:27.046875000,60.0,-3.0,19.5,108.57203125,22.79,0.06464225,32.05375
2021-06-23 15:30:27.054687500,60.0,-3.0,19.25,108.575703125,22.595,0.064482125,32.054375
2021-06-23 15:30:27.062500000,60.0,-3.0,19.0,108.579375,22.4,0.06432199999999999,32.055
2021-06-23 15:30:27.070312500,60.0,-3.0,19.25,108.583046875,21.85,0.064161875,32.055625
2021-06-23 15:30:27.078125000,60.0,-3.0,19.5,108.58671875,21.3,0.06400175,32.05625
2021-06-23 15:30:27.085937500,60.0,-3.0,19.75,108.590390625,20.43,0.063841625,32.056875
2021-06-23 15:30:27.093750000,60.0,-3.0,20.0,108.59406249999999,19.56,0.0636815,32.0575
2021-06-23 15:30:27.101562500,60.0,-3.0,19.75,108.597734375,18.505,0.06352137499999999,32.058125
2021-06-23 15:30:27.109375000,60.0,-3.0,19.5,108.60140625,17.45,0.06336125,32.058749999999996
2021-06-23 15:30:27.117187500,60.0,-3.0,19.25,108.60507812499999,16.38,0.063201125,32.059374999999996
2021-06-23 15:30:27.125000000,60.0,-3.0,19.0,108.60875,15.31,0.063041,32.06
2021-06-23 15:30:27.132812500,60.0,-3.0,19.25,108.612421875,14.39,0.062880875,32.060625
2021-06-23 15:30:27.140625000,60.0,-3.0,19.5,108.61609374999999,13.47,0.06272074999999999,32.06125
2021-06-23 15:30:27.148437500,60.0,-3.0,19.75,108.619765625,12.77,0.062560625,32.061875
2021-06-23 15:30:27.156250000,60.0,-3.0,20.0,108.6234375,12.07,0.0624005,32.0625
2021-06-23 15:30:27.164062500,60.0,-3.0,20.0,108.627109375,11.56,0.062240375,32.063125
2021-06-23 15:30:27.171875000,60.0,-3.0,20.0,108.63078125,11.05,0.06208025,32.06375
2021-06-23 15:30:27.179687500,60.0,-3.0,20.0,108.634453125,10.63,0.061920125,32.064375
2021-06-23 15:30:27.187500000,60.0,-3.0,20.0,108.638125,10.21,0.061759999999999995,32.065
2021-06-23 15:30:27.195312500,60.0,-3.0,20.0,108.641796875,9.785,0.061599875,32.065625
2021-06-23 15:30:27.203125000,60.0,-3.0,20.0,108.64546874999999,9.36,0.06143975,32.06625
2021-06-23 15:30:27.210937500,60.0,-3.0,20.0,108.649140625,8.86,0.061279625,32.066875
2021-06-23 15:30:27.218750000,60.0,-3.0,20.0,108.6528125,8.36,0.0611195,32.0675
2021-06-23 15:30:27.226562500,60.0,-3.0,20.0,108.65648437499999,7.75,0.060959374999999996,32.068125
2021-06-23 15:30:27.234375000,60.0,-3.0,20.0,108.66015625,7.14,0.06079925,32.06875
2021-06-23 15:30:27.242187500,60.0,-3.0,20.0,108.663828125,6.375,0.060639124999999995,32.069375
2021-06-23 15:30:27.250000000,60.0,-3.0,20.0,108.66749999999999,5.61,0.060479,32.07
2021-06-23 15:30:27.257812500,60.0,-3.0,20.0,108.671171875,4.62,0.0605590625,32.07
2021-06-23 15:30:27.265625000,60.0,-3.0,20.0,108.67484375,3.63,0.060639124999999995,32.07
2021-06-23 15:30:27.273437500,60.0,-3.0,20.0,108.678515625,2.335,0.0607191875,32.07
2021-06-23 15:30:27.281250000,60.0,-3.0,20.0,108.6821875,1.04,0.06079925,32.07
2021-06-23 15:30:27.289062500,60.0,-3.0,20.0,108.68585937499999,-0.5800000000000001,0.0608793125,32.07
2021-06-23 15:30:27.296875000,60.0,-3.0,20.0,108.68953125,-2.2,0.060959374999999996,32.07
2021-06-23 15:30:27.304687500,60.0,-3.0,20.0,108.693203125,-4.025,0.0610394375,32.07
2021-06-23 15:30:27.312500000,60.0,-3.0,20.0,108.69687499999999,-5.85,0.0611195,32.07
2021-06-23 15:30:27.320312500,60.0,-3.0,20.0,108.700546875,-7.569999999999999,0.0611995625,32.07
2021-06-23 15:30:27.328125000,60.0,-3.0,20.0,108.70421875,-9.29,0.061279625,32.07
2021-06-23 15:30:27.335937500,60.0,-3.0,20.0,108.70789062499999,-10.48,0.061359687499999996,32.07
2021-06-23 15:30:27.343750000,60.0,-3.0,20.0,108.7115625,-11.67,0.06143975,32.07
2021-06-23 15:30:27.351562500,60.0,-3.0,19.75,108.715234375,-11.940000000000001,0.0615198125,32.07
2021-06-23 15:30:27.359375000,60.0,-3.0,19.5,108.71890625,-12.21,0.061599875,32.07
2021-06-23 15:30:27.367187500,60.0,-3.0,19.25,108.722578125,-11.370000000000001,0.0616799375,32.07
2021-06-23 15:30:27.375000000,60.0,-3.0,19.0,108.72625,-10.53,0.061759999999999995,32.07
2021-06-23 15:30:27.382812500,60.0,-3.0,19.0,108.729921875,-8.684999999999999,0.0618400625,32.07
2021-06-23 15:30:27.390625000,60.0,-3.0,19.0,108.73359375,-6.84,0.061920125,32.07
2021-06-23 15:30:27.398437500,60.0,-3.0,19.0,108.73726562499999,-4.355,0.0620001875,32.07
2021-06-23 15:30:27.406250000,60.0,-3.0,19.0,108.7409375,-1.87,0.06208025,32.07
2021-06-23 15:30:27.414062500,60.0,-3.0,19.0,108.744609375,0.75,0.0621603125,32.07
2021-06-23 15:30:27.421875000,60.0,-3.0,19.0,108.74828124999999,3.37,0.062240375,32.07
2021-06-23 15:30:27.429687500,60.0,-3.0,19.0,108.751953125,5.6899999999999995,0.0623204375,32.07
2021-06-23 15:30:27.437500000,60.0,-3.0,19.0,108.755625,8.01,0.0624005,32.07
2021-06-23 15:30:27.445312500,60.0,-3.0,19.0,108.75929687499999,9.75,0.0624805625,32.07
2021-06-23 15:30:27.453125000,60.0,-3.0,19.0,108.76296875,11.49,0.062560625,32.07
2021-06-23 15:30:27.460937500,60.0,-3.0,19.0,108.766640625,12.600000000000001,0.0626406875,32.07
2021-06-23 15:30:27.468750000,60.0,-3.0,19.0,108.7703125,13.71,0.06272075,32.07
2021-06-23 15:30:27.476562500,60.0,-3.0,19.0,108.773984375,14.295000000000002,0.0628008125,32.07
2021-06-23 15:30:27.484375000,60.0,-3.0,19.0,108.77765624999999,14.88,0.062880875,32.07
2021-06-23 15:30:27.492187500,60.0,-3.0,19.0,108.781328125,15.100000000000001,0.0629609375,32.07
2021-06-23 15:30:27.500000000,60.0,-3.0,19.0,108.785,15.32,0.063041,32.07
2021-06-23 15:30:27.507812500,60.0,-3.0,19.0,108.78867187499999,15.315000000000001,0.06288084375,32.07
2021-06-23 15:30:27.515625000,60.0,-3.0,19.0,108.79234375,15.31,0.0627206875,32.07
2021-06-23 15:30:27.523437500,60.0,-3.0,19.0,108.796015625,15.15,0.06256053125,32.07
2021-06-23 15:30:27.531250000,60.0,-3.0,19.0,108.79968749999999,14.99,0.062400375,32.07
2021-06-23 15:30:27.539062500,60.0,-3.0,19.0,108.803359375,14.66,0.06224021875,32.07
2021-06-23 15:30:27.546875000,60.0,-3.0,19.0,108.80703125,14.33,0.0620800625,32.07
2021-06-23 15:30:27.554687500,60.0,-3.0,19.0,108.810703125,13.795,0.061919906250000004,32.07
2021-06-23 15:30:27.562500000,60.0,-3.0,19.0,108.814375,13.26,0.06175975,32.07
2021-06-23 15:30:27.570312500,60.0,-3.25,19.0,108.818046875,12.504999999999999,0.06159959375,32.07
2021-06-23 15:30:27.578125000,60.0,-3.5,19.0,108.82171875,11.75,0.0614394375,32.07
2021-06-23 15:30:27.585937500,60.0,-3.75,19.0,108.825390625,10.82,0.06127928125,32.07
2021-06-23 15:30:27.593750000,60.0,-4.0,19.0,108.82906249999999,9.89,0.061119125,32.07
2021-06-23 15:30:27.601562500,60.0,-3.75,19.0,108.832734375,8.895,0.06095896875,32.07
2021-06-23 15:30:27.609375000,60.0,-3.5,19.0,108.83640625,7.9,0.0607988125,32.07
2021-06-23 15:30:27.617187500,60.0,-3.25,19.0,108.84007812499999,6.985,0.06063865625,32.07
2021-06-23 15:30:27.625000000,60.0,-3.0,19.0,108.84375,6.07,0.060478500000000004,32.07
2021-06-23 15:30:27.632812500,60.0,-3.0,19.0,108.847421875,5.385,0.06031834375,32.07
2021-06-23 15:30:27.640625000,60.0,-3.0,19.0,108.85109374999999,4.7,0.0601581875,32.07
2021-06-23 15:30:27.648437500,60.0,-3.0,19.0,108.854765625,4.325,0.05999803125,32.07
2021-06-23 15:30:27.656250000,60.0,-3.0,19.0,108.8584375,3.95,0.059837875,32.07
2021-06-23 15:30:27.664062500,60.0,-3.0,19.0,108.862109375,3.835,0.059677718750000004,32.07
2021-06-23 15:30:27.671875000,60.0,-3.0,19.0,108.86578125,3.72,0.0595175625,32.07
2021-06-23 15:30:27.679687500,60.0,-3.0,19.0,108.86945312499999,3.72,0.05935740625,32.07
2021-06-23 15:30:27.687500000,60.0,-3.0,19.0,108.873125,3.72,0.05919725,32.07
2021-06-23 15:30:27.695312500,60.0,-3.0,19.0,108.876796875,3.6500000000000004,0.059037093750000005,32.07
2021-06-23 15:30:27.703125000,60.0,-3.0,19.0,108.88046874999999,3.58,0.058876937500000004,32.07
2021-06-23 15:30:27.710937500,60.0,-3.0,19.0,108.884140625,3.25,0.05871678125,32.07
2021-06-23 15:30:27.718750000,60.0,-3.0,19.0,108.8878125,2.92,0.058556625,32.07
2021-06-23 15:30:27.726562500,60.0,-3.0,19.25,108.89148437499999,2.205,0.05839646875,32.07
2021-06-23 15:30:27.734375000,60.0,-3.0,19.5,108.89515625,1.49,0.0582363125,32.07
2021-06-23 15:30:27.742187500,60.0,-3.0,19.75,108.898828125,0.355,0.058076156250000004,32.07
2021-06-23 15:30:27.750000000,60.0,-3.0,20.0,108.9025,-0.78,0.057916,32.07
2021-06-23 15:30:27.757812500,60.0,-3.0,19.75,108.906171875,-2.3150000000000004,0.058076156250000004,32.07
2021-06-23 15:30:27.765625000,60.0,-3.0,19.5,108.90984375,-3.85,0.058236312500000005,32.07
2021-06-23 15:30:27.773437500,60.0,-3.0,19.25,108.913515625,-5.69,0.05839646875,32.07
2021-06-23 15:30:27.781250000,60.0,-3.0,19.0,108.9171875,-7.53,0.058556625,32.07
2021-06-23 15:30:27.789062500,60.0,-3.0,19.0,108.92085937499999,-9.5,0.05871678125,32.07
2021-06-23 15:30:27.796875000,60.0,-3.0,19.0,108.92453125,-11.47,0.058876937500000004,32.07
2021-06-23 15:30:27.804687500,60.0,-3.0,19.0,108.928203125,-13.295,0.05903709375,32.07
2021-06-23 15:30:27.812500000,60.0,-3.0,19.0,108.93187499999999,-15.12,0.05919725,32.07
2021-06-23 15:30:27.820312500,60.0,-3.0,19.0,108.935546875,-16.435,0.05935740625,32.07
2021-06-23 15:30:27.828125000,60.0,-3.0,19.0,108.93921875,-17.75,0.0595175625,32.07
2021-06-23 15:30:27.835937500,60.0,-3.0,19.0,108.94289062499999,-18.18,0.059677718750000004,32.07
2021-06-23 15:30:27.843750000,60.0,-3.0,19.0,108.9465625,-18.61,0.059837875,32.07
2021-06-23 15:30:27.851562500,60.0,-3.0,19.0,108.950234375,-17.884999999999998,0.05999803125,32.07
2021-06-23 15:30:27.859375000,60.0,-3.0,19.0,108.95390625,-17.16,0.0601581875,32.07
2021-06-23 15:30:27.867187500,60.0,-3.0,19.0,108.957578125,-15.25,0.06031834375,32.07
2021-06-23 15:30:27.875000000,60.0,-3.0,19.0,108.96124999999999,-13.34,0.060478500000000004,32.07
2021-06-23 15:30:27.882812500,60.0,-3.25,19.25,108.964921875,-10.5,0.06063865625,32.07
2021-06-23 15:30:27.890625000,60.0,-3.5,19.5,108.96859375,-7.66,0.0607988125,32.07
2021-06-23 15:30:27.898437500,60.0,-3.75,19.75,108.97226562499999,-4.395,0.06095896875,32.07
2021-06-23 15:30:27.906250000,60.0,-4.0,20.0,108.9759375,-1.13,0.061119125,32.07
2021-06-23 15:30:27.914062500,60.0,-3.75,19.75,108.979609375,1.9900000000000002,0.06127928125,32.07
2021-06-23 15:30:27.921875000,60.0,-3.5,19.5,108.98328124999999,5.11,0.0614394375,32.07
2021-06-23 15:30:27.929687500,60.0,-3.25,19.25,108.986953125,7.620000000000001,0.06159959375,32.07
2021-06-23 15:30:27.937500000,60.0,-3.0,19.0,108.990625,10.13,0.06175975,32.07
2021-06-23 15:30:27.945312500,60.0,-3.0,19.0,108.99429687499999,11.8,0.061919906250000004,32.07
2021-06-23 15:30:27.953125000,60.0,-3.0,19.0,108.99796875,13.47,0.0620800625,32.07
2021-06-23 15:30:27.960937500,60.0,-3.0,19.0,109.001640625,14.295,0.06224021875,32.07
2021-06-23 15:30:27.968750000,60.0,-3.0,19.0,109.0053125,15.12,0.062400375,32.07
2021-06-23 15:30:27.976562500,60.0,-3.0,19.25,109.008984375,15.29,0.06256053125,32.07
2021-06-23 15:30:27.984375000,60.0,-3.0,19.5,109.01265624999999,15.46,0.0627206875,32.07
2021-06-23 15:30:27.992187500,60.0,-3.0,19.75,109.016328125,15.21,0.06288084375,32.07
2021-06-23 15:30:28.000000000,60.0,-3.0,20.0,109.02,14.96,0.063041,32.07
2021-06-23 15:30:28.007812500,60.0,-3.0,20.0,109.02359374999999,14.49,0.06308103125,32.069375
2021-06-23 15:30:28.015625000,60.0,-3.0,20.0,109.0271875,14.02,0.0631210625,32.06875
2021-06-23 15:30:28.023437500,60.0,-3.0,20.0,109.03078124999999,13.485,0.06316109375,32.068125
2021-06-23 15:30:28.031250000,60.0,-3.0,20.0,109.034375,12.95,0.063201125,32.0675
2021-06-23 15:30:28.039062500,60.0,-3.0,19.75,109.03796874999999,12.45,0.06324115625,32.066875
2021-06-23 15:30:28.046875000,60.0,-3.0,19.5,109.0415625,11.95,0.0632811875,32.06625
2021-06-23 15:30:28.054687500,60.0,-3.0,19.25,109.04515624999999,11.545,0.06332121875,32.065625
2021-06-23 15:30:28.062500000,60.0,-3.0,19.0,109.04875,11.14,0.06336125000000001,32.065
2021-06-23 15:30:28.070312500,60.0,-3.0,19.0,109.05234374999999,10.870000000000001,0.06340128125,32.064375
2021-06-23 15:30:28.078125000,60.0,-3.0,19.0,109.0559375,10.6,0.0634413125,32.06375
2021-06-23 15:30:28.085937500,60.0,-3.0,19.0,109.05953124999999,10.475,0.06348134375,32.063125
2021-06-23 15:30:28.093750000,60.0,-3.0,19.0,109.063125,10.35,0.063521375,32.0625
2021-06-23 15:30:28.101562500,60.0,-3.0,19.25,109.06671874999999,10.32,0.06356140625000001,32.061875
2021-06-23 15:30:28.109375000,60.0,-3.0,19.5,109.0703125,10.29,0.0636014375,32.06125
2021-06-23 15:30:28.117187500,60.0,-3.0,19.75,109.07390625,10.285,0.06364146875,32.060625
2021-06-23 15:30:28.125000000,60.0,-3.0,20.0,109.0775,10.28,0.0636815,32.06
2021-06-23 15:30:28.132812500,60.0,-3.25,19.75,109.08109375,10.2,0.06372153125,32.059374999999996
2021-06-23 15:30:28.140625000,60.0,-3.5,19.5,109.0846875,10.12,0.06376156250000001,32.058749999999996
2021-06-23 15:30:28.148437500,60.0,-3.75,19.25,109.08828125,9.92,0.06380159375,32.058125
2021-06-23 15:30:28.156250000,60.0,-4.0,19.0,109.091875,9.72,0.063841625,32.0575
2021-06-23 15:30:28.164062500,60.0,-3.75,19.25,109.09546875,9.385000000000002,0.06388165625,32.056875
2021-06-23 15:30:28.171875000,60.0,-3.5,19.5,109.0990625,9.05,0.0639216875,32.05625
2021-06-23 15:30:28.179687500,60.0,-3.25,19.75,109.10265625,8.585,0.06396171875000001,32.055625
2021-06-23 15:30:28.187500000,60.0,-3.0,20.0,109.10625,8.12,0.06400175,32.055
2021-06-23 15:30:28.195312500,60.0,-3.0,20.0,109.10984375,7.545,0.06404178125,32.054375
2021-06-23 15:30:28.203125000,60.0,-3.0,20.0,109.1134375,6.97,0.0640818125,32.05375
2021-06-23 15:30:28.210937500,60.0,-3.0,20.0,109.11703125,6.225,0.06412184375,32.053124999999994
2021-06-23 15:30:28.218750000,60.0,-3.0,20.0,109.120625,5.48,0.06416187500000001,32.052499999999995
2021-06-23 15:30:28.226562500,60.0,-3.0,20.0,109.12421875,4.48,0.06420190625000001,32.051874999999995
2021-06-23 15:30:28.234375000,60.0,-3.0,20.0,109.1278125,3.48,0.0642419375,32.051249999999996
2021-06-23 15:30:28.242187500,60.0,-3.0,20.0,109.13140625,2.125,0.06428196875,32.050625
2021-06-23 15:30:28.250000000,60.0,-3.0,20.0,109.13499999999999,0.77,0.064322,32.05
2021-06-23 15:30:28.257812500,60.0,-3.0,19.75,109.13859375,-0.9299999999999999,0.0641218125,32.05
2021-06-23 15:30:28.265625000,60.0,-3.0,19.5,109.14218749999999,-2.63,0.06392162500000001,32.05
2021-06-23 15:30:28.273437500,60.0,-3.0,19.25,109.14578125,-4.515000000000001,0.0637214375,32.05
2021-06-23 15:30:28.281250000,60.0,-3.0,19.0,109.14937499999999,-6.4,0.06352125,32.05
2021-06-23 15:30:28.289062500,60.0,-3.0,19.25,109.15296875,-8.15,0.0633210625,32.05
2021-06-23 15:30:28.296875000,60.0,-3.0,19.5,109.15656249999999,-9.9,0.063120875,32.05
2021-06-23 15:30:28.304687500,60.0,-3.0,19.75,109.16015625,-11.125,0.0629206875,32.05
2021-06-23 15:30:28.312500000,60.0,-3.0,20.0,109.16375,-12.35,0.0627205,32.05
2021-06-23 15:30:28.320312500,60.0,-3.0,20.0,109.16734375,-12.74,0.06252031250000001,32.05
2021-06-23 15:30:28.328125000,60.0,-3.0,20.0,109.1709375,-13.13,0.062320125000000004,32.05
2021-06-23 15:30:28.335937500,60.0,-3.0,20.0,109.17453125,-12.565000000000001,0.0621199375,32.05
2021-06-23 15:30:28.343750000,60.0,-3.0,20.0,109.178125,-12.0,0.06191975,32.05
2021-06-23 15:30:28.351562500,60.0,-3.0,20.0,109.18171875,-10.61,0.061719562500000005,32.05
2021-06-23 15:30:28.359375000,60.0,-3.0,20.0,109.1853125,-9.22,0.061519375,32.05
2021-06-23 15:30:28.367187500,60.0,-3.0,20.0,109.18890625,-7.32,0.061319187500000004,32.05
2021-06-23 15:30:28.375000000,60.0,-3.0,20.0,109.1925,-5.42,0.06111900000000001,32.05
2021-06-23 15:30:28.382812500,60.0,-3.0,20.0,109.19609375,-3.405,0.0609188125,32.05
2021-06-23 15:30:28.390625000,60.0,-3.0,20.0,109.1996875,-1.39,0.060718625000000005,32.05
2021-06-23 15:30:28.398437500,60.0,-3.0,20.0,109.20328125,0.42999999999999994,0.0605184375,32.05
2021-06-23 15:30:28.406250000,60.0,-3.0,20.0,109.206875,2.25,0.060318250000000004,32.05
2021-06-23 15:30:28.414062500,60.0,-3.0,19.75,109.21046875,3.655,0.0601180625,32.05
2021-06-23 15:30:28.421875000,60.0,-3.0,19.5,109.2140625,5.06,0.059917875,32.05
2021-06-23 15:30:28.429687500,60.0,-3.0,19.25,109.21765625,5.99,0.059717687500000005,32.05
2021-06-23 15:30:28.437500000,60.0,-3.0,19.0,109.22125,6.92,0.0595175,32.05
2021-06-23 15:30:28.445312500,60.0,-3.0,19.25,109.22484375,7.404999999999999,0.059317312500000004,32.05
2021-06-23 15:30:28.453125000,60.0,-3.0,19.5,109.2284375,7.89,0.059117125000000006,32.05
2021-06-23 15:30:28.460937500,60.0,-3.0,19.75,109.23203125,8.015,0.0589169375,32.05
2021-06-23 15:30:28.468750000,60.0,-3.0,20.0,109.235625,8.14,0.058716750000000005,32.05
2021-06-23 15:30:28.476562500,60.0,-3.0,20.0,109.23921875,8.030000000000001,0.0585165625,32.05
2021-06-23 15:30:28.484375000,60.0,-3.0,20.0,109.2428125,7.92,0.058316375000000004,32.05
2021-06-23 15:30:28.492187500,60.0,-3.0,20.0,109.24640625,7.6850000000000005,0.0581161875,32.05
2021-06-23 15:30:28.500000000,60.0,-3.0,20.0,109.25,7.45,0.057916,32.05
2021-06-23 15:30:28.507812500,60.0,-3.0,20.0,109.25359375,7.1850000000000005,0.057996093750000005,32.05
2021-06-23 15:30:28.515625000,60.0,-3.0,20.0,109.2571875,6.92,0.0580761875,32.05
2021-06-23 15:30:28.523437500,60.0,-3.0,20.0,109.26078125,6.654999999999999,0.058156281250000004,32.05
2021-06-23 15:30:28.531250000,60.0,-3.0,20.0,109.264375,6.39,0.058236375,32.05
2021-06-23 15:30:28.539062500,60.0,-3.0,20.0,109.26796875,6.105,0.05831646875,32.05
2021-06-23 15:30:28.546875000,60.0,-3.0,20.0,109.2715625,5.82,0.0583965625,32.05
2021-06-23 15:30:28.554687500,60.0,-3.0,20.0,109.27515625,5.465,0.05847665625,32.05
2021-06-23 15:30:28.562500000,60.0,-3.0,20.0,109.27875,5.11,0.058556750000000005,32.05
2021-06-23 15:30:28.570312500,60.0,-3.0,20.0,109.28234375,4.645,0.05863684375,32.05
2021-06-23 15:30:28.578125000,60.0,-3.0,20.0,109.2859375,4.18,0.058716937500000004,32.05
